"success","trial_type","trial_index","time_elapsed","internal_node_id","assignmentID","mturkID","hitID","view_history","rt","stimulus","key_press","reactionTime","chosenAction","reward","responses"
"true","fullscreen","0","4614","0.0-0.0","39RP059MEIF91SRSL0O576S7TICBM6","A10JXOU89D5RXR","39WSF6KUV27TMEQUH506BZR9N6KEO1","","","","","","","",""
"","instructions","1","30085","0.0-1.0","39RP059MEIF91SRSL0O576S7TICBM6","A10JXOU89D5RXR","39WSF6KUV27TMEQUH506BZR9N6KEO1","[{""page_index"":0,""viewing_time"":4654.699999988079},{""page_index"":1,""viewing_time"":1956},{""page_index"":2,""viewing_time"":3628.199999988079},{""page_index"":3,""viewing_time"":5117.5},{""page_index"":4,""viewing_time"":1838},{""page_index"":5,""viewing_time"":3804.199999988079},{""page_index"":6,""viewing_time"":2516.2000000476837},{""page_index"":7,""viewing_time"":1953.8999999761581}]","25469.5","","","","","",""
"","image-keyboard-response","2","31637","0.0-2.0","39RP059MEIF91SRSL0O576S7TICBM6","A10JXOU89D5RXR","39WSF6KUV27TMEQUH506BZR9N6KEO1","","1551","img/animal4.png","74","1552.0999999642372","74","1",""
"","html-keyboard-response","3","31940","0.0-3.0","39RP059MEIF91SRSL0O576S7TICBM6","A10JXOU89D5RXR","39WSF6KUV27TMEQUH506BZR9N6KEO1","","null","<img src=""img/animal4.png"" style=""width:200px; border:14px solid green;"">","null","","","",""
"","image-keyboard-response","4","33229","0.0-4.0","39RP059MEIF91SRSL0O576S7TICBM6","A10JXOU89D5RXR","39WSF6KUV27TMEQUH506BZR9N6KEO1","","1287.3999999761581","img/animal2.png","75","1288.3999999761581","75","1",""
"","html-keyboard-response","5","33530","0.0-5.0","39RP059MEIF91SRSL0O576S7TICBM6","A10JXOU89D5RXR","39WSF6KUV27TMEQUH506BZR9N6KEO1","","null","<img src=""img/animal2.png"" style=""width:200px; border:14px solid green;"">","null","","","",""
"","image-keyboard-response","6","34245","0.0-6.0","39RP059MEIF91SRSL0O576S7TICBM6","A10JXOU89D5RXR","39WSF6KUV27TMEQUH506BZR9N6KEO1","","712.8999999761581","img/animal4.png","74","713.8000000119209","74","1",""
"","html-keyboard-response","7","34547","0.0-7.0","39RP059MEIF91SRSL0O576S7TICBM6","A10JXOU89D5RXR","39WSF6KUV27TMEQUH506BZR9N6KEO1","","null","<img src=""img/animal4.png"" style=""width:200px; border:14px solid green;"">","null","","","",""
"","image-keyboard-response","8","35109","0.0-8.0","39RP059MEIF91SRSL0O576S7TICBM6","A10JXOU89D5RXR","39WSF6KUV27TMEQUH506BZR9N6KEO1","","561.1999999880791","img/animal2.png","75","562.1999999880791","75","1",""
"","html-keyboard-response","9","35412","0.0-9.0","39RP059MEIF91SRSL0O576S7TICBM6","A10JXOU89D5RXR","39WSF6KUV27TMEQUH506BZR9N6KEO1","","null","<img src=""img/animal2.png"" style=""width:200px; border:14px solid green;"">","null","","","",""
"","image-keyboard-response","10","35917","0.0-10.0","39RP059MEIF91SRSL0O576S7TICBM6","A10JXOU89D5RXR","39WSF6KUV27TMEQUH506BZR9N6KEO1","","504","img/animal2.png","75","504.80000001192093","75","1",""
"","html-keyboard-response","11","36219","0.0-11.0","39RP059MEIF91SRSL0O576S7TICBM6","A10JXOU89D5RXR","39WSF6KUV27TMEQUH506BZR9N6KEO1","","null","<img src=""img/animal2.png"" style=""width:200px; border:14px solid green;"">","null","","","",""
"","image-keyboard-response","12","36773","0.0-12.0","39RP059MEIF91SRSL0O576S7TICBM6","A10JXOU89D5RXR","39WSF6KUV27TMEQUH506BZR9N6KEO1","","552.3999999761581","img/animal4.png","74","553","74","1",""
"","html-keyboard-response","13","37075","0.0-13.0","39RP059MEIF91SRSL0O576S7TICBM6","A10JXOU89D5RXR","39WSF6KUV27TMEQUH506BZR9N6KEO1","","null","<img src=""img/animal4.png"" style=""width:200px; border:14px solid green;"">","null","","","",""
"","image-keyboard-response","14","37637","0.0-14.0","39RP059MEIF91SRSL0O576S7TICBM6","A10JXOU89D5RXR","39WSF6KUV27TMEQUH506BZR9N6KEO1","","560.4000000357628","img/animal4.png","74","561.3999999761581","74","1",""
"","html-keyboard-response","15","37938","0.0-15.0","39RP059MEIF91SRSL0O576S7TICBM6","A10JXOU89D5RXR","39WSF6KUV27TMEQUH506BZR9N6KEO1","","null","<img src=""img/animal4.png"" style=""width:200px; border:14px solid green;"">","null","","","",""
"","image-keyboard-response","16","38686","0.0-16.0","39RP059MEIF91SRSL0O576S7TICBM6","A10JXOU89D5RXR","39WSF6KUV27TMEQUH506BZR9N6KEO1","","746.5","img/animal3.png","76","747.6999999880791","76","1",""
"","html-keyboard-response","17","38989","0.0-17.0","39RP059MEIF91SRSL0O576S7TICBM6","A10JXOU89D5RXR","39WSF6KUV27TMEQUH506BZR9N6KEO1","","null","<img src=""img/animal3.png"" style=""width:200px; border:14px solid green;"">","null","","","",""
"","image-keyboard-response","18","39725","0.0-18.0","39RP059MEIF91SRSL0O576S7TICBM6","A10JXOU89D5RXR","39WSF6KUV27TMEQUH506BZR9N6KEO1","","735","img/animal4.png","74","735.8000000119209","74","1",""
"","html-keyboard-response","19","40027","0.0-19.0","39RP059MEIF91SRSL0O576S7TICBM6","A10JXOU89D5RXR","39WSF6KUV27TMEQUH506BZR9N6KEO1","","null","<img src=""img/animal4.png"" style=""width:200px; border:14px solid green;"">","null","","","",""
"","image-keyboard-response","20","40798","0.0-20.0","39RP059MEIF91SRSL0O576S7TICBM6","A10JXOU89D5RXR","39WSF6KUV27TMEQUH506BZR9N6KEO1","","769.3999999761581","img/animal2.png","75","770.3999999761581","75","1",""
"","html-keyboard-response","21","41100","0.0-21.0","39RP059MEIF91SRSL0O576S7TICBM6","A10JXOU89D5RXR","39WSF6KUV27TMEQUH506BZR9N6KEO1","","null","<img src=""img/animal2.png"" style=""width:200px; border:14px solid green;"">","null","","","",""
"","image-keyboard-response","22","41701","0.0-22.0","39RP059MEIF91SRSL0O576S7TICBM6","A10JXOU89D5RXR","39WSF6KUV27TMEQUH506BZR9N6KEO1","","599.1000000238419","img/animal4.png","74","600","74","1",""
"","html-keyboard-response","23","42007","0.0-23.0","39RP059MEIF91SRSL0O576S7TICBM6","A10JXOU89D5RXR","39WSF6KUV27TMEQUH506BZR9N6KEO1","","null","<img src=""img/animal4.png"" style=""width:200px; border:14px solid green;"">","null","","","",""
"","image-keyboard-response","24","42685","0.0-24.0","39RP059MEIF91SRSL0O576S7TICBM6","A10JXOU89D5RXR","39WSF6KUV27TMEQUH506BZR9N6KEO1","","676.6999999880791","img/animal3.png","76","677.3999999761581","76","1",""
"","html-keyboard-response","25","42987","0.0-25.0","39RP059MEIF91SRSL0O576S7TICBM6","A10JXOU89D5RXR","39WSF6KUV27TMEQUH506BZR9N6KEO1","","null","<img src=""img/animal3.png"" style=""width:200px; border:14px solid green;"">","null","","","",""
"","image-keyboard-response","26","43501","0.0-26.0","39RP059MEIF91SRSL0O576S7TICBM6","A10JXOU89D5RXR","39WSF6KUV27TMEQUH506BZR9N6KEO1","","512.6999999880791","img/animal4.png","74","513.6999999880791","74","1",""
"","html-keyboard-response","27","43803","0.0-27.0","39RP059MEIF91SRSL0O576S7TICBM6","A10JXOU89D5RXR","39WSF6KUV27TMEQUH506BZR9N6KEO1","","null","<img src=""img/animal4.png"" style=""width:200px; border:14px solid green;"">","null","","","",""
"","image-keyboard-response","28","44317","0.0-28.0","39RP059MEIF91SRSL0O576S7TICBM6","A10JXOU89D5RXR","39WSF6KUV27TMEQUH506BZR9N6KEO1","","512.5","img/animal4.png","74","514.1000000238419","74","1",""
"","html-keyboard-response","29","44618","0.0-29.0","39RP059MEIF91SRSL0O576S7TICBM6","A10JXOU89D5RXR","39WSF6KUV27TMEQUH506BZR9N6KEO1","","null","<img src=""img/animal4.png"" style=""width:200px; border:14px solid green;"">","null","","","",""
"","image-keyboard-response","30","45238","0.0-30.0","39RP059MEIF91SRSL0O576S7TICBM6","A10JXOU89D5RXR","39WSF6KUV27TMEQUH506BZR9N6KEO1","","618.1000000238419","img/animal3.png","76","619.0999999642372","76","1",""
"","html-keyboard-response","31","45539","0.0-31.0","39RP059MEIF91SRSL0O576S7TICBM6","A10JXOU89D5RXR","39WSF6KUV27TMEQUH506BZR9N6KEO1","","null","<img src=""img/animal3.png"" style=""width:200px; border:14px solid green;"">","null","","","",""
"","image-keyboard-response","32","46125","0.0-32.0","39RP059MEIF91SRSL0O576S7TICBM6","A10JXOU89D5RXR","39WSF6KUV27TMEQUH506BZR9N6KEO1","","584.3999999761581","img/animal2.png","75","585.0999999642372","75","1",""
"","html-keyboard-response","33","46438","0.0-33.0","39RP059MEIF91SRSL0O576S7TICBM6","A10JXOU89D5RXR","39WSF6KUV27TMEQUH506BZR9N6KEO1","","null","<img src=""img/animal2.png"" style=""width:200px; border:14px solid green;"">","null","","","",""
"","image-keyboard-response","34","47029","0.0-34.0","39RP059MEIF91SRSL0O576S7TICBM6","A10JXOU89D5RXR","39WSF6KUV27TMEQUH506BZR9N6KEO1","","590.2999999523163","img/animal4.png","74","591","74","1",""
"","html-keyboard-response","35","47330","0.0-35.0","39RP059MEIF91SRSL0O576S7TICBM6","A10JXOU89D5RXR","39WSF6KUV27TMEQUH506BZR9N6KEO1","","null","<img src=""img/animal4.png"" style=""width:200px; border:14px solid green;"">","null","","","",""
"","image-keyboard-response","36","47821","0.0-36.0","39RP059MEIF91SRSL0O576S7TICBM6","A10JXOU89D5RXR","39WSF6KUV27TMEQUH506BZR9N6KEO1","","489.5","img/animal4.png","74","490.30000001192093","74","1",""
"","html-keyboard-response","37","48123","0.0-37.0","39RP059MEIF91SRSL0O576S7TICBM6","A10JXOU89D5RXR","39WSF6KUV27TMEQUH506BZR9N6KEO1","","null","<img src=""img/animal4.png"" style=""width:200px; border:14px solid green;"">","null","","","",""
"","image-keyboard-response","38","48685","0.0-38.0","39RP059MEIF91SRSL0O576S7TICBM6","A10JXOU89D5RXR","39WSF6KUV27TMEQUH506BZR9N6KEO1","","560.6999999880791","img/animal2.png","75","561.3999999761581","75","1",""
"","html-keyboard-response","39","48996","0.0-39.0","39RP059MEIF91SRSL0O576S7TICBM6","A10JXOU89D5RXR","39WSF6KUV27TMEQUH506BZR9N6KEO1","","null","<img src=""img/animal2.png"" style=""width:200px; border:14px solid green;"">","null","","","",""
"","image-keyboard-response","40","49693","0.0-40.0","39RP059MEIF91SRSL0O576S7TICBM6","A10JXOU89D5RXR","39WSF6KUV27TMEQUH506BZR9N6KEO1","","696.4000000357628","img/animal4.png","74","697.1000000238419","74","1",""
"","html-keyboard-response","41","49996","0.0-41.0","39RP059MEIF91SRSL0O576S7TICBM6","A10JXOU89D5RXR","39WSF6KUV27TMEQUH506BZR9N6KEO1","","null","<img src=""img/animal4.png"" style=""width:200px; border:14px solid green;"">","null","","","",""
"","image-keyboard-response","42","50653","0.0-42.0","39RP059MEIF91SRSL0O576S7TICBM6","A10JXOU89D5RXR","39WSF6KUV27TMEQUH506BZR9N6KEO1","","655.8999999761581","img/animal3.png","76","656.5999999642372","76","1",""
"","html-keyboard-response","43","50955","0.0-43.0","39RP059MEIF91SRSL0O576S7TICBM6","A10JXOU89D5RXR","39WSF6KUV27TMEQUH506BZR9N6KEO1","","null","<img src=""img/animal3.png"" style=""width:200px; border:14px solid green;"">","null","","","",""
"","image-keyboard-response","44","51340","0.0-44.0","39RP059MEIF91SRSL0O576S7TICBM6","A10JXOU89D5RXR","39WSF6KUV27TMEQUH506BZR9N6KEO1","","384.60000002384186","img/animal3.png","76","385.30000001192093","76","1",""
"","html-keyboard-response","45","51643","0.0-45.0","39RP059MEIF91SRSL0O576S7TICBM6","A10JXOU89D5RXR","39WSF6KUV27TMEQUH506BZR9N6KEO1","","null","<img src=""img/animal3.png"" style=""width:200px; border:14px solid green;"">","null","","","",""
"","image-keyboard-response","46","52373","0.0-46.0","39RP059MEIF91SRSL0O576S7TICBM6","A10JXOU89D5RXR","39WSF6KUV27TMEQUH506BZR9N6KEO1","","728.3999999761581","img/animal2.png","75","729.7000000476837","75","1",""
"","html-keyboard-response","47","52674","0.0-47.0","39RP059MEIF91SRSL0O576S7TICBM6","A10JXOU89D5RXR","39WSF6KUV27TMEQUH506BZR9N6KEO1","","null","<img src=""img/animal2.png"" style=""width:200px; border:14px solid green;"">","null","","","",""
"","image-keyboard-response","48","53029","0.0-48.0","39RP059MEIF91SRSL0O576S7TICBM6","A10JXOU89D5RXR","39WSF6KUV27TMEQUH506BZR9N6KEO1","","353.80000001192093","img/animal2.png","75","354.5","75","1",""
"","html-keyboard-response","49","53331","0.0-49.0","39RP059MEIF91SRSL0O576S7TICBM6","A10JXOU89D5RXR","39WSF6KUV27TMEQUH506BZR9N6KEO1","","null","<img src=""img/animal2.png"" style=""width:200px; border:14px solid green;"">","null","","","",""
"","image-keyboard-response","50","53700","0.0-50.0","39RP059MEIF91SRSL0O576S7TICBM6","A10JXOU89D5RXR","39WSF6KUV27TMEQUH506BZR9N6KEO1","","368.2999999523163","img/animal2.png","75","369","75","1",""
"","html-keyboard-response","51","54002","0.0-51.0","39RP059MEIF91SRSL0O576S7TICBM6","A10JXOU89D5RXR","39WSF6KUV27TMEQUH506BZR9N6KEO1","","null","<img src=""img/animal2.png"" style=""width:200px; border:14px solid green;"">","null","","","",""
"","image-keyboard-response","52","54661","0.0-52.0","39RP059MEIF91SRSL0O576S7TICBM6","A10JXOU89D5RXR","39WSF6KUV27TMEQUH506BZR9N6KEO1","","657.6999999880791","img/animal3.png","76","658.6999999880791","76","1",""
"","html-keyboard-response","53","54963","0.0-53.0","39RP059MEIF91SRSL0O576S7TICBM6","A10JXOU89D5RXR","39WSF6KUV27TMEQUH506BZR9N6KEO1","","null","<img src=""img/animal3.png"" style=""width:200px; border:14px solid green;"">","null","","","",""
"","image-keyboard-response","54","55509","0.0-54.0","39RP059MEIF91SRSL0O576S7TICBM6","A10JXOU89D5RXR","39WSF6KUV27TMEQUH506BZR9N6KEO1","","545.2999999523163","img/animal2.png","75","546.0999999642372","75","1",""
"","html-keyboard-response","55","55811","0.0-55.0","39RP059MEIF91SRSL0O576S7TICBM6","A10JXOU89D5RXR","39WSF6KUV27TMEQUH506BZR9N6KEO1","","null","<img src=""img/animal2.png"" style=""width:200px; border:14px solid green;"">","null","","","",""
"","image-keyboard-response","56","56432","0.0-56.0","39RP059MEIF91SRSL0O576S7TICBM6","A10JXOU89D5RXR","39WSF6KUV27TMEQUH506BZR9N6KEO1","","616.9000000357628","img/animal4.png","74","617.5999999642372","74","1",""
"","html-keyboard-response","57","56734","0.0-57.0","39RP059MEIF91SRSL0O576S7TICBM6","A10JXOU89D5RXR","39WSF6KUV27TMEQUH506BZR9N6KEO1","","null","<img src=""img/animal4.png"" style=""width:200px; border:14px solid green;"">","null","","","",""
"","image-keyboard-response","58","57127","0.0-58.0","39RP059MEIF91SRSL0O576S7TICBM6","A10JXOU89D5RXR","39WSF6KUV27TMEQUH506BZR9N6KEO1","","392.69999998807907","img/animal4.png","74","393.39999997615814","74","1",""
"","html-keyboard-response","59","57429","0.0-59.0","39RP059MEIF91SRSL0O576S7TICBM6","A10JXOU89D5RXR","39WSF6KUV27TMEQUH506BZR9N6KEO1","","null","<img src=""img/animal4.png"" style=""width:200px; border:14px solid green;"">","null","","","",""
"","image-keyboard-response","60","57999","0.0-60.0","39RP059MEIF91SRSL0O576S7TICBM6","A10JXOU89D5RXR","39WSF6KUV27TMEQUH506BZR9N6KEO1","","569.1000000238419","img/animal3.png","76","569.7999999523163","76","1",""
"","html-keyboard-response","61","58301","0.0-61.0","39RP059MEIF91SRSL0O576S7TICBM6","A10JXOU89D5RXR","39WSF6KUV27TMEQUH506BZR9N6KEO1","","null","<img src=""img/animal3.png"" style=""width:200px; border:14px solid green;"">","null","","","",""
"","image-keyboard-response","62","58960","0.0-62.0","39RP059MEIF91SRSL0O576S7TICBM6","A10JXOU89D5RXR","39WSF6KUV27TMEQUH506BZR9N6KEO1","","657.6999999880791","img/animal2.png","74","658.6000000238419","74","0",""
"","html-keyboard-response","63","59261","0.0-63.0","39RP059MEIF91SRSL0O576S7TICBM6","A10JXOU89D5RXR","39WSF6KUV27TMEQUH506BZR9N6KEO1","","null","<img src=""img/animal2.png"" style=""width:200px;border:14px solid red;"">","null","","","",""
"","image-keyboard-response","64","59855","0.0-64.0","39RP059MEIF91SRSL0O576S7TICBM6","A10JXOU89D5RXR","39WSF6KUV27TMEQUH506BZR9N6KEO1","","592.7999999523163","img/animal2.png","75","593.6999999880791","75","1",""
"","html-keyboard-response","65","60169","0.0-65.0","39RP059MEIF91SRSL0O576S7TICBM6","A10JXOU89D5RXR","39WSF6KUV27TMEQUH506BZR9N6KEO1","","null","<img src=""img/animal2.png"" style=""width:200px; border:14px solid green;"">","null","","","",""
"","image-keyboard-response","66","60896","0.0-66.0","39RP059MEIF91SRSL0O576S7TICBM6","A10JXOU89D5RXR","39WSF6KUV27TMEQUH506BZR9N6KEO1","","726.1000000238419","img/animal3.png","76","726.7999999523163","76","1",""
"","html-keyboard-response","67","61198","0.0-67.0","39RP059MEIF91SRSL0O576S7TICBM6","A10JXOU89D5RXR","39WSF6KUV27TMEQUH506BZR9N6KEO1","","null","<img src=""img/animal3.png"" style=""width:200px; border:14px solid green;"">","null","","","",""
"","image-keyboard-response","68","61576","0.0-68.0","39RP059MEIF91SRSL0O576S7TICBM6","A10JXOU89D5RXR","39WSF6KUV27TMEQUH506BZR9N6KEO1","","376.80000001192093","img/animal3.png","76","377.60000002384186","76","1",""
"","html-keyboard-response","69","61878","0.0-69.0","39RP059MEIF91SRSL0O576S7TICBM6","A10JXOU89D5RXR","39WSF6KUV27TMEQUH506BZR9N6KEO1","","null","<img src=""img/animal3.png"" style=""width:200px; border:14px solid green;"">","null","","","",""
"","image-keyboard-response","70","62399","0.0-70.0","39RP059MEIF91SRSL0O576S7TICBM6","A10JXOU89D5RXR","39WSF6KUV27TMEQUH506BZR9N6KEO1","","520.1000000238419","img/animal2.png","75","521","75","1",""
"","html-keyboard-response","71","62702","0.0-71.0","39RP059MEIF91SRSL0O576S7TICBM6","A10JXOU89D5RXR","39WSF6KUV27TMEQUH506BZR9N6KEO1","","null","<img src=""img/animal2.png"" style=""width:200px; border:14px solid green;"">","null","","","",""
"","image-keyboard-response","72","63335","0.0-72.0","39RP059MEIF91SRSL0O576S7TICBM6","A10JXOU89D5RXR","39WSF6KUV27TMEQUH506BZR9N6KEO1","","631.7000000476837","img/animal3.png","76","632.6999999880791","76","1",""
"","html-keyboard-response","73","63638","0.0-73.0","39RP059MEIF91SRSL0O576S7TICBM6","A10JXOU89D5RXR","39WSF6KUV27TMEQUH506BZR9N6KEO1","","null","<img src=""img/animal3.png"" style=""width:200px; border:14px solid green;"">","null","","","",""
"","image-keyboard-response","74","64225","0.0-74.0","39RP059MEIF91SRSL0O576S7TICBM6","A10JXOU89D5RXR","39WSF6KUV27TMEQUH506BZR9N6KEO1","","585.2999999523163","img/animal2.png","75","586.5","75","1",""
"","html-keyboard-response","75","64526","0.0-75.0","39RP059MEIF91SRSL0O576S7TICBM6","A10JXOU89D5RXR","39WSF6KUV27TMEQUH506BZR9N6KEO1","","null","<img src=""img/animal2.png"" style=""width:200px; border:14px solid green;"">","null","","","",""
"","image-keyboard-response","76","65351","0.0-76.0","39RP059MEIF91SRSL0O576S7TICBM6","A10JXOU89D5RXR","39WSF6KUV27TMEQUH506BZR9N6KEO1","","824.1000000238419","img/animal4.png","74","825","74","1",""
"","html-keyboard-response","77","65652","0.0-77.0","39RP059MEIF91SRSL0O576S7TICBM6","A10JXOU89D5RXR","39WSF6KUV27TMEQUH506BZR9N6KEO1","","null","<img src=""img/animal4.png"" style=""width:200px; border:14px solid green;"">","null","","","",""
"","image-keyboard-response","78","66159","0.0-78.0","39RP059MEIF91SRSL0O576S7TICBM6","A10JXOU89D5RXR","39WSF6KUV27TMEQUH506BZR9N6KEO1","","505.89999997615814","img/animal4.png","74","506.69999998807907","74","1",""
"","html-keyboard-response","79","66461","0.0-79.0","39RP059MEIF91SRSL0O576S7TICBM6","A10JXOU89D5RXR","39WSF6KUV27TMEQUH506BZR9N6KEO1","","null","<img src=""img/animal4.png"" style=""width:200px; border:14px solid green;"">","null","","","",""
"","image-keyboard-response","80","67135","0.0-80.0","39RP059MEIF91SRSL0O576S7TICBM6","A10JXOU89D5RXR","39WSF6KUV27TMEQUH506BZR9N6KEO1","","672.6999999880791","img/animal3.png","76","673.6999999880791","76","1",""
"","html-keyboard-response","81","67437","0.0-81.0","39RP059MEIF91SRSL0O576S7TICBM6","A10JXOU89D5RXR","39WSF6KUV27TMEQUH506BZR9N6KEO1","","null","<img src=""img/animal3.png"" style=""width:200px; border:14px solid green;"">","null","","","",""
"","image-keyboard-response","82","67895","0.0-82.0","39RP059MEIF91SRSL0O576S7TICBM6","A10JXOU89D5RXR","39WSF6KUV27TMEQUH506BZR9N6KEO1","","457.19999998807907","img/animal3.png","76","458.19999998807907","76","1",""
"","html-keyboard-response","83","68197","0.0-83.0","39RP059MEIF91SRSL0O576S7TICBM6","A10JXOU89D5RXR","39WSF6KUV27TMEQUH506BZR9N6KEO1","","null","<img src=""img/animal3.png"" style=""width:200px; border:14px solid green;"">","null","","","",""
"","image-keyboard-response","84","68576","0.0-84.0","39RP059MEIF91SRSL0O576S7TICBM6","A10JXOU89D5RXR","39WSF6KUV27TMEQUH506BZR9N6KEO1","","377.60000002384186","img/animal3.png","76","378.30000001192093","76","1",""
"","html-keyboard-response","85","68878","0.0-85.0","39RP059MEIF91SRSL0O576S7TICBM6","A10JXOU89D5RXR","39WSF6KUV27TMEQUH506BZR9N6KEO1","","null","<img src=""img/animal3.png"" style=""width:200px; border:14px solid green;"">","null","","","",""
"","image-keyboard-response","86","69599","0.0-86.0","39RP059MEIF91SRSL0O576S7TICBM6","A10JXOU89D5RXR","39WSF6KUV27TMEQUH506BZR9N6KEO1","","719.6000000238419","img/animal4.png","74","720.5","74","1",""
"","html-keyboard-response","87","69902","0.0-87.0","39RP059MEIF91SRSL0O576S7TICBM6","A10JXOU89D5RXR","39WSF6KUV27TMEQUH506BZR9N6KEO1","","null","<img src=""img/animal4.png"" style=""width:200px; border:14px solid green;"">","null","","","",""
"","image-keyboard-response","88","70431","0.0-88.0","39RP059MEIF91SRSL0O576S7TICBM6","A10JXOU89D5RXR","39WSF6KUV27TMEQUH506BZR9N6KEO1","","527.8999999761581","img/animal2.png","76","529","76","0",""
"","html-keyboard-response","89","70733","0.0-89.0","39RP059MEIF91SRSL0O576S7TICBM6","A10JXOU89D5RXR","39WSF6KUV27TMEQUH506BZR9N6KEO1","","null","<img src=""img/animal2.png"" style=""width:200px;border:14px solid red;"">","null","","","",""
"","image-keyboard-response","90","71400","0.0-90.0","39RP059MEIF91SRSL0O576S7TICBM6","A10JXOU89D5RXR","39WSF6KUV27TMEQUH506BZR9N6KEO1","","665.8999999761581","img/animal4.png","74","666.5","74","1",""
"","html-keyboard-response","91","71702","0.0-91.0","39RP059MEIF91SRSL0O576S7TICBM6","A10JXOU89D5RXR","39WSF6KUV27TMEQUH506BZR9N6KEO1","","null","<img src=""img/animal4.png"" style=""width:200px; border:14px solid green;"">","null","","","",""
"","image-keyboard-response","92","72288","0.0-92.0","39RP059MEIF91SRSL0O576S7TICBM6","A10JXOU89D5RXR","39WSF6KUV27TMEQUH506BZR9N6KEO1","","585","img/animal3.png","76","585.9000000357628","76","1",""
"","html-keyboard-response","93","72591","0.0-93.0","39RP059MEIF91SRSL0O576S7TICBM6","A10JXOU89D5RXR","39WSF6KUV27TMEQUH506BZR9N6KEO1","","null","<img src=""img/animal3.png"" style=""width:200px; border:14px solid green;"">","null","","","",""
"","image-keyboard-response","94","73208","0.0-94.0","39RP059MEIF91SRSL0O576S7TICBM6","A10JXOU89D5RXR","39WSF6KUV27TMEQUH506BZR9N6KEO1","","616.0999999642372","img/animal4.png","74","616.8000000119209","74","1",""
"","html-keyboard-response","95","73510","0.0-95.0","39RP059MEIF91SRSL0O576S7TICBM6","A10JXOU89D5RXR","39WSF6KUV27TMEQUH506BZR9N6KEO1","","null","<img src=""img/animal4.png"" style=""width:200px; border:14px solid green;"">","null","","","",""
"","image-keyboard-response","96","74056","0.0-96.0","39RP059MEIF91SRSL0O576S7TICBM6","A10JXOU89D5RXR","39WSF6KUV27TMEQUH506BZR9N6KEO1","","544.7000000476837","img/animal2.png","75","545.6999999880791","75","1",""
"","html-keyboard-response","97","74358","0.0-97.0","39RP059MEIF91SRSL0O576S7TICBM6","A10JXOU89D5RXR","39WSF6KUV27TMEQUH506BZR9N6KEO1","","null","<img src=""img/animal2.png"" style=""width:200px; border:14px solid green;"">","null","","","",""
"","image-keyboard-response","98","75056","0.0-98.0","39RP059MEIF91SRSL0O576S7TICBM6","A10JXOU89D5RXR","39WSF6KUV27TMEQUH506BZR9N6KEO1","","697","img/animal4.png","74","697.6999999880791","74","1",""
"","html-keyboard-response","99","75357","0.0-99.0","39RP059MEIF91SRSL0O576S7TICBM6","A10JXOU89D5RXR","39WSF6KUV27TMEQUH506BZR9N6KEO1","","null","<img src=""img/animal4.png"" style=""width:200px; border:14px solid green;"">","null","","","",""
"","image-keyboard-response","100","75783","0.0-100.0","39RP059MEIF91SRSL0O576S7TICBM6","A10JXOU89D5RXR","39WSF6KUV27TMEQUH506BZR9N6KEO1","","424.5999999642372","img/animal4.png","74","425.5","74","1",""
"","html-keyboard-response","101","76085","0.0-101.0","39RP059MEIF91SRSL0O576S7TICBM6","A10JXOU89D5RXR","39WSF6KUV27TMEQUH506BZR9N6KEO1","","null","<img src=""img/animal4.png"" style=""width:200px; border:14px solid green;"">","null","","","",""
"","image-keyboard-response","102","76856","0.0-102.0","39RP059MEIF91SRSL0O576S7TICBM6","A10JXOU89D5RXR","39WSF6KUV27TMEQUH506BZR9N6KEO1","","769.9000000357628","img/animal3.png","76","770.5999999642372","76","1",""
"","html-keyboard-response","103","77157","0.0-103.0","39RP059MEIF91SRSL0O576S7TICBM6","A10JXOU89D5RXR","39WSF6KUV27TMEQUH506BZR9N6KEO1","","null","<img src=""img/animal3.png"" style=""width:200px; border:14px solid green;"">","null","","","",""
"","image-keyboard-response","104","77760","0.0-104.0","39RP059MEIF91SRSL0O576S7TICBM6","A10JXOU89D5RXR","39WSF6KUV27TMEQUH506BZR9N6KEO1","","601.9000000357628","img/animal4.png","74","602.6999999880791","74","1",""
"","html-keyboard-response","105","78063","0.0-105.0","39RP059MEIF91SRSL0O576S7TICBM6","A10JXOU89D5RXR","39WSF6KUV27TMEQUH506BZR9N6KEO1","","null","<img src=""img/animal4.png"" style=""width:200px; border:14px solid green;"">","null","","","",""
"","image-keyboard-response","106","78464","0.0-106.0","39RP059MEIF91SRSL0O576S7TICBM6","A10JXOU89D5RXR","39WSF6KUV27TMEQUH506BZR9N6KEO1","","399.69999998807907","img/animal4.png","74","400.5","74","1",""
"","html-keyboard-response","107","78766","0.0-107.0","39RP059MEIF91SRSL0O576S7TICBM6","A10JXOU89D5RXR","39WSF6KUV27TMEQUH506BZR9N6KEO1","","null","<img src=""img/animal4.png"" style=""width:200px; border:14px solid green;"">","null","","","",""
"","image-keyboard-response","108","79383","0.0-108.0","39RP059MEIF91SRSL0O576S7TICBM6","A10JXOU89D5RXR","39WSF6KUV27TMEQUH506BZR9N6KEO1","","616.6000000238419","img/animal2.png","75","617.3000000119209","75","1",""
"","html-keyboard-response","109","79686","0.0-109.0","39RP059MEIF91SRSL0O576S7TICBM6","A10JXOU89D5RXR","39WSF6KUV27TMEQUH506BZR9N6KEO1","","null","<img src=""img/animal2.png"" style=""width:200px; border:14px solid green;"">","null","","","",""
"","image-keyboard-response","110","80039","0.0-110.0","39RP059MEIF91SRSL0O576S7TICBM6","A10JXOU89D5RXR","39WSF6KUV27TMEQUH506BZR9N6KEO1","","351.9000000357628","img/animal2.png","75","352.80000001192093","75","1",""
"","html-keyboard-response","111","80342","0.0-111.0","39RP059MEIF91SRSL0O576S7TICBM6","A10JXOU89D5RXR","39WSF6KUV27TMEQUH506BZR9N6KEO1","","null","<img src=""img/animal2.png"" style=""width:200px; border:14px solid green;"">","null","","","",""
"","image-keyboard-response","112","80943","0.0-112.0","39RP059MEIF91SRSL0O576S7TICBM6","A10JXOU89D5RXR","39WSF6KUV27TMEQUH506BZR9N6KEO1","","599.8000000119209","img/animal3.png","76","600.5","76","1",""
"","html-keyboard-response","113","81245","0.0-113.0","39RP059MEIF91SRSL0O576S7TICBM6","A10JXOU89D5RXR","39WSF6KUV27TMEQUH506BZR9N6KEO1","","null","<img src=""img/animal3.png"" style=""width:200px; border:14px solid green;"">","null","","","",""
"","image-keyboard-response","114","81712","0.0-114.0","39RP059MEIF91SRSL0O576S7TICBM6","A10JXOU89D5RXR","39WSF6KUV27TMEQUH506BZR9N6KEO1","","465.30000001192093","img/animal3.png","76","466.30000001192093","76","1",""
"","html-keyboard-response","115","82019","0.0-115.0","39RP059MEIF91SRSL0O576S7TICBM6","A10JXOU89D5RXR","39WSF6KUV27TMEQUH506BZR9N6KEO1","","null","<img src=""img/animal3.png"" style=""width:200px; border:14px solid green;"">","null","","","",""
"","image-keyboard-response","116","82408","0.0-116.0","39RP059MEIF91SRSL0O576S7TICBM6","A10JXOU89D5RXR","39WSF6KUV27TMEQUH506BZR9N6KEO1","","387.19999998807907","img/animal3.png","76","388.10000002384186","76","1",""
"","html-keyboard-response","117","82710","0.0-117.0","39RP059MEIF91SRSL0O576S7TICBM6","A10JXOU89D5RXR","39WSF6KUV27TMEQUH506BZR9N6KEO1","","null","<img src=""img/animal3.png"" style=""width:200px; border:14px solid green;"">","null","","","",""
"","image-keyboard-response","118","83328","0.0-118.0","39RP059MEIF91SRSL0O576S7TICBM6","A10JXOU89D5RXR","39WSF6KUV27TMEQUH506BZR9N6KEO1","","616.6999999880791","img/animal4.png","74","617.2999999523163","74","1",""
"","html-keyboard-response","119","83629","0.0-119.0","39RP059MEIF91SRSL0O576S7TICBM6","A10JXOU89D5RXR","39WSF6KUV27TMEQUH506BZR9N6KEO1","","null","<img src=""img/animal4.png"" style=""width:200px; border:14px solid green;"">","null","","","",""
"","image-keyboard-response","120","84337","0.0-120.0","39RP059MEIF91SRSL0O576S7TICBM6","A10JXOU89D5RXR","39WSF6KUV27TMEQUH506BZR9N6KEO1","","707","img/animal3.png","76","707.8000000119209","76","1",""
"","html-keyboard-response","121","84639","0.0-121.0","39RP059MEIF91SRSL0O576S7TICBM6","A10JXOU89D5RXR","39WSF6KUV27TMEQUH506BZR9N6KEO1","","null","<img src=""img/animal3.png"" style=""width:200px; border:14px solid green;"">","null","","","",""
"","image-keyboard-response","122","85015","0.0-122.0","39RP059MEIF91SRSL0O576S7TICBM6","A10JXOU89D5RXR","39WSF6KUV27TMEQUH506BZR9N6KEO1","","375.19999998807907","img/animal3.png","76","376.19999998807907","76","1",""
"","html-keyboard-response","123","85318","0.0-123.0","39RP059MEIF91SRSL0O576S7TICBM6","A10JXOU89D5RXR","39WSF6KUV27TMEQUH506BZR9N6KEO1","","null","<img src=""img/animal3.png"" style=""width:200px; border:14px solid green;"">","null","","","",""
"","image-keyboard-response","124","85944","0.0-124.0","39RP059MEIF91SRSL0O576S7TICBM6","A10JXOU89D5RXR","39WSF6KUV27TMEQUH506BZR9N6KEO1","","624.3999999761581","img/animal2.png","75","625.2999999523163","75","1",""
"","html-keyboard-response","125","86245","0.0-125.0","39RP059MEIF91SRSL0O576S7TICBM6","A10JXOU89D5RXR","39WSF6KUV27TMEQUH506BZR9N6KEO1","","null","<img src=""img/animal2.png"" style=""width:200px; border:14px solid green;"">","null","","","",""
"","image-keyboard-response","126","86672","0.0-126.0","39RP059MEIF91SRSL0O576S7TICBM6","A10JXOU89D5RXR","39WSF6KUV27TMEQUH506BZR9N6KEO1","","425.69999998807907","img/animal2.png","75","426.5","75","1",""
"","html-keyboard-response","127","86974","0.0-127.0","39RP059MEIF91SRSL0O576S7TICBM6","A10JXOU89D5RXR","39WSF6KUV27TMEQUH506BZR9N6KEO1","","null","<img src=""img/animal2.png"" style=""width:200px; border:14px solid green;"">","null","","","",""
"","image-keyboard-response","128","87584","0.0-128.0","39RP059MEIF91SRSL0O576S7TICBM6","A10JXOU89D5RXR","39WSF6KUV27TMEQUH506BZR9N6KEO1","","609","img/animal4.png","74","609.8999999761581","74","1",""
"","html-keyboard-response","129","87886","0.0-129.0","39RP059MEIF91SRSL0O576S7TICBM6","A10JXOU89D5RXR","39WSF6KUV27TMEQUH506BZR9N6KEO1","","null","<img src=""img/animal4.png"" style=""width:200px; border:14px solid green;"">","null","","","",""
"","image-keyboard-response","130","88231","0.0-130.0","39RP059MEIF91SRSL0O576S7TICBM6","A10JXOU89D5RXR","39WSF6KUV27TMEQUH506BZR9N6KEO1","","344.19999998807907","img/animal4.png","74","344.9000000357628","74","1",""
"","html-keyboard-response","131","88533","0.0-131.0","39RP059MEIF91SRSL0O576S7TICBM6","A10JXOU89D5RXR","39WSF6KUV27TMEQUH506BZR9N6KEO1","","null","<img src=""img/animal4.png"" style=""width:200px; border:14px solid green;"">","null","","","",""
"","image-keyboard-response","132","89119","0.0-132.0","39RP059MEIF91SRSL0O576S7TICBM6","A10JXOU89D5RXR","39WSF6KUV27TMEQUH506BZR9N6KEO1","","584.5","img/animal2.png","75","585.3999999761581","75","1",""
"","html-keyboard-response","133","89421","0.0-133.0","39RP059MEIF91SRSL0O576S7TICBM6","A10JXOU89D5RXR","39WSF6KUV27TMEQUH506BZR9N6KEO1","","null","<img src=""img/animal2.png"" style=""width:200px; border:14px solid green;"">","null","","","",""
"","image-keyboard-response","134","89768","0.0-134.0","39RP059MEIF91SRSL0O576S7TICBM6","A10JXOU89D5RXR","39WSF6KUV27TMEQUH506BZR9N6KEO1","","345.2999999523163","img/animal2.png","75","346.0999999642372","75","1",""
"","html-keyboard-response","135","90070","0.0-135.0","39RP059MEIF91SRSL0O576S7TICBM6","A10JXOU89D5RXR","39WSF6KUV27TMEQUH506BZR9N6KEO1","","null","<img src=""img/animal2.png"" style=""width:200px; border:14px solid green;"">","null","","","",""
"","image-keyboard-response","136","90656","0.0-136.0","39RP059MEIF91SRSL0O576S7TICBM6","A10JXOU89D5RXR","39WSF6KUV27TMEQUH506BZR9N6KEO1","","584.6000000238419","img/animal3.png","76","585.3999999761581","76","1",""
"","html-keyboard-response","137","90957","0.0-137.0","39RP059MEIF91SRSL0O576S7TICBM6","A10JXOU89D5RXR","39WSF6KUV27TMEQUH506BZR9N6KEO1","","null","<img src=""img/animal3.png"" style=""width:200px; border:14px solid green;"">","null","","","",""
"","image-keyboard-response","138","91311","0.0-138.0","39RP059MEIF91SRSL0O576S7TICBM6","A10JXOU89D5RXR","39WSF6KUV27TMEQUH506BZR9N6KEO1","","352.69999998807907","img/animal3.png","76","353.5","76","1",""
"","html-keyboard-response","139","91613","0.0-139.0","39RP059MEIF91SRSL0O576S7TICBM6","A10JXOU89D5RXR","39WSF6KUV27TMEQUH506BZR9N6KEO1","","null","<img src=""img/animal3.png"" style=""width:200px; border:14px solid green;"">","null","","","",""
"","image-keyboard-response","140","92007","0.0-140.0","39RP059MEIF91SRSL0O576S7TICBM6","A10JXOU89D5RXR","39WSF6KUV27TMEQUH506BZR9N6KEO1","","393.19999998807907","img/animal3.png","76","394.0999999642372","76","1",""
"","html-keyboard-response","141","92310","0.0-141.0","39RP059MEIF91SRSL0O576S7TICBM6","A10JXOU89D5RXR","39WSF6KUV27TMEQUH506BZR9N6KEO1","","null","<img src=""img/animal3.png"" style=""width:200px; border:14px solid green;"">","null","","","",""
"","image-keyboard-response","142","92847","0.0-142.0","39RP059MEIF91SRSL0O576S7TICBM6","A10JXOU89D5RXR","39WSF6KUV27TMEQUH506BZR9N6KEO1","","535.8999999761581","img/animal2.png","75","536.5999999642372","75","1",""
"","html-keyboard-response","143","93149","0.0-143.0","39RP059MEIF91SRSL0O576S7TICBM6","A10JXOU89D5RXR","39WSF6KUV27TMEQUH506BZR9N6KEO1","","null","<img src=""img/animal2.png"" style=""width:200px; border:14px solid green;"">","null","","","",""
"","image-keyboard-response","144","93656","0.0-144.0","39RP059MEIF91SRSL0O576S7TICBM6","A10JXOU89D5RXR","39WSF6KUV27TMEQUH506BZR9N6KEO1","","506.30000001192093","img/animal3.png","76","507.5","76","1",""
"","html-keyboard-response","145","93959","0.0-145.0","39RP059MEIF91SRSL0O576S7TICBM6","A10JXOU89D5RXR","39WSF6KUV27TMEQUH506BZR9N6KEO1","","null","<img src=""img/animal3.png"" style=""width:200px; border:14px solid green;"">","null","","","",""
"","image-keyboard-response","146","94640","0.0-146.0","39RP059MEIF91SRSL0O576S7TICBM6","A10JXOU89D5RXR","39WSF6KUV27TMEQUH506BZR9N6KEO1","","680","img/animal2.png","75","680.7999999523163","75","1",""
"","html-keyboard-response","147","94942","0.0-147.0","39RP059MEIF91SRSL0O576S7TICBM6","A10JXOU89D5RXR","39WSF6KUV27TMEQUH506BZR9N6KEO1","","null","<img src=""img/animal2.png"" style=""width:200px; border:14px solid green;"">","null","","","",""
"","image-keyboard-response","148","95528","0.0-148.0","39RP059MEIF91SRSL0O576S7TICBM6","A10JXOU89D5RXR","39WSF6KUV27TMEQUH506BZR9N6KEO1","","585","img/animal3.png","76","585.8999999761581","76","1",""
"","html-keyboard-response","149","95830","0.0-149.0","39RP059MEIF91SRSL0O576S7TICBM6","A10JXOU89D5RXR","39WSF6KUV27TMEQUH506BZR9N6KEO1","","null","<img src=""img/animal3.png"" style=""width:200px; border:14px solid green;"">","null","","","",""
"","image-keyboard-response","150","96247","0.0-150.0","39RP059MEIF91SRSL0O576S7TICBM6","A10JXOU89D5RXR","39WSF6KUV27TMEQUH506BZR9N6KEO1","","416.10000002384186","img/animal3.png","76","417","76","1",""
"","html-keyboard-response","151","96550","0.0-151.0","39RP059MEIF91SRSL0O576S7TICBM6","A10JXOU89D5RXR","39WSF6KUV27TMEQUH506BZR9N6KEO1","","null","<img src=""img/animal3.png"" style=""width:200px; border:14px solid green;"">","null","","","",""
"","image-keyboard-response","152","97248","0.0-152.0","39RP059MEIF91SRSL0O576S7TICBM6","A10JXOU89D5RXR","39WSF6KUV27TMEQUH506BZR9N6KEO1","","697.4000000357628","img/animal2.png","75","698.1999999880791","75","1",""
"","html-keyboard-response","153","97549","0.0-153.0","39RP059MEIF91SRSL0O576S7TICBM6","A10JXOU89D5RXR","39WSF6KUV27TMEQUH506BZR9N6KEO1","","null","<img src=""img/animal2.png"" style=""width:200px; border:14px solid green;"">","null","","","",""
"","image-keyboard-response","154","97919","0.0-154.0","39RP059MEIF91SRSL0O576S7TICBM6","A10JXOU89D5RXR","39WSF6KUV27TMEQUH506BZR9N6KEO1","","368.5","img/animal2.png","75","369.69999998807907","75","1",""
"","html-keyboard-response","155","98220","0.0-155.0","39RP059MEIF91SRSL0O576S7TICBM6","A10JXOU89D5RXR","39WSF6KUV27TMEQUH506BZR9N6KEO1","","null","<img src=""img/animal2.png"" style=""width:200px; border:14px solid green;"">","null","","","",""
"","image-keyboard-response","156","98775","0.0-156.0","39RP059MEIF91SRSL0O576S7TICBM6","A10JXOU89D5RXR","39WSF6KUV27TMEQUH506BZR9N6KEO1","","553.8999999761581","img/animal3.png","76","554.6999999880791","76","1",""
"","html-keyboard-response","157","99077","0.0-157.0","39RP059MEIF91SRSL0O576S7TICBM6","A10JXOU89D5RXR","39WSF6KUV27TMEQUH506BZR9N6KEO1","","null","<img src=""img/animal3.png"" style=""width:200px; border:14px solid green;"">","null","","","",""
"","image-keyboard-response","158","100191","0.0-158.0","39RP059MEIF91SRSL0O576S7TICBM6","A10JXOU89D5RXR","39WSF6KUV27TMEQUH506BZR9N6KEO1","","1112.800000011921","img/animal2.png","75","1113.5999999642372","75","1",""
"","html-keyboard-response","159","100492","0.0-159.0","39RP059MEIF91SRSL0O576S7TICBM6","A10JXOU89D5RXR","39WSF6KUV27TMEQUH506BZR9N6KEO1","","null","<img src=""img/animal2.png"" style=""width:200px; border:14px solid green;"">","null","","","",""
"","image-keyboard-response","160","101256","0.0-160.0","39RP059MEIF91SRSL0O576S7TICBM6","A10JXOU89D5RXR","39WSF6KUV27TMEQUH506BZR9N6KEO1","","762.3000000119209","img/animal4.png","74","763.0999999642372","74","1",""
"","html-keyboard-response","161","101557","0.0-161.0","39RP059MEIF91SRSL0O576S7TICBM6","A10JXOU89D5RXR","39WSF6KUV27TMEQUH506BZR9N6KEO1","","null","<img src=""img/animal4.png"" style=""width:200px; border:14px solid green;"">","null","","","",""
"","image-keyboard-response","162","102223","0.0-162.0","39RP059MEIF91SRSL0O576S7TICBM6","A10JXOU89D5RXR","39WSF6KUV27TMEQUH506BZR9N6KEO1","","665.5999999642372","img/animal2.png","75","666.5","75","1",""
"","html-keyboard-response","163","102525","0.0-163.0","39RP059MEIF91SRSL0O576S7TICBM6","A10JXOU89D5RXR","39WSF6KUV27TMEQUH506BZR9N6KEO1","","null","<img src=""img/animal2.png"" style=""width:200px; border:14px solid green;"">","null","","","",""
"","image-keyboard-response","164","103056","0.0-164.0","39RP059MEIF91SRSL0O576S7TICBM6","A10JXOU89D5RXR","39WSF6KUV27TMEQUH506BZR9N6KEO1","","529.1999999880791","img/animal4.png","74","531.1000000238419","74","1",""
"","html-keyboard-response","165","103357","0.0-165.0","39RP059MEIF91SRSL0O576S7TICBM6","A10JXOU89D5RXR","39WSF6KUV27TMEQUH506BZR9N6KEO1","","null","<img src=""img/animal4.png"" style=""width:200px; border:14px solid green;"">","null","","","",""
"","image-keyboard-response","166","103735","0.0-166.0","39RP059MEIF91SRSL0O576S7TICBM6","A10JXOU89D5RXR","39WSF6KUV27TMEQUH506BZR9N6KEO1","","376.30000001192093","img/animal4.png","74","377.19999998807907","74","1",""
"","html-keyboard-response","167","104037","0.0-167.0","39RP059MEIF91SRSL0O576S7TICBM6","A10JXOU89D5RXR","39WSF6KUV27TMEQUH506BZR9N6KEO1","","null","<img src=""img/animal4.png"" style=""width:200px; border:14px solid green;"">","null","","","",""
"","image-keyboard-response","168","104512","0.0-168.0","39RP059MEIF91SRSL0O576S7TICBM6","A10JXOU89D5RXR","39WSF6KUV27TMEQUH506BZR9N6KEO1","","473.10000002384186","img/animal2.png","75","473.7999999523163","75","1",""
"","html-keyboard-response","169","104813","0.0-169.0","39RP059MEIF91SRSL0O576S7TICBM6","A10JXOU89D5RXR","39WSF6KUV27TMEQUH506BZR9N6KEO1","","null","<img src=""img/animal2.png"" style=""width:200px; border:14px solid green;"">","null","","","",""
"","image-keyboard-response","170","105479","0.0-170.0","39RP059MEIF91SRSL0O576S7TICBM6","A10JXOU89D5RXR","39WSF6KUV27TMEQUH506BZR9N6KEO1","","665.3999999761581","img/animal3.png","76","666.0999999642372","76","1",""
"","html-keyboard-response","171","105782","0.0-171.0","39RP059MEIF91SRSL0O576S7TICBM6","A10JXOU89D5RXR","39WSF6KUV27TMEQUH506BZR9N6KEO1","","null","<img src=""img/animal3.png"" style=""width:200px; border:14px solid green;"">","null","","","",""
"","image-keyboard-response","172","106495","0.0-172.0","39RP059MEIF91SRSL0O576S7TICBM6","A10JXOU89D5RXR","39WSF6KUV27TMEQUH506BZR9N6KEO1","","712.1999999880791","img/animal4.png","74","713","74","1",""
"","html-keyboard-response","173","106797","0.0-173.0","39RP059MEIF91SRSL0O576S7TICBM6","A10JXOU89D5RXR","39WSF6KUV27TMEQUH506BZR9N6KEO1","","null","<img src=""img/animal4.png"" style=""width:200px; border:14px solid green;"">","null","","","",""
"","image-keyboard-response","174","107376","0.0-174.0","39RP059MEIF91SRSL0O576S7TICBM6","A10JXOU89D5RXR","39WSF6KUV27TMEQUH506BZR9N6KEO1","","577.6000000238419","img/animal3.png","76","578.5","76","1",""
"","html-keyboard-response","175","107678","0.0-175.0","39RP059MEIF91SRSL0O576S7TICBM6","A10JXOU89D5RXR","39WSF6KUV27TMEQUH506BZR9N6KEO1","","null","<img src=""img/animal3.png"" style=""width:200px; border:14px solid green;"">","null","","","",""
"","image-keyboard-response","176","108272","0.0-176.0","39RP059MEIF91SRSL0O576S7TICBM6","A10JXOU89D5RXR","39WSF6KUV27TMEQUH506BZR9N6KEO1","","592.6000000238419","img/animal4.png","74","593.4000000357628","74","1",""
"","html-keyboard-response","177","108572","0.0-177.0","39RP059MEIF91SRSL0O576S7TICBM6","A10JXOU89D5RXR","39WSF6KUV27TMEQUH506BZR9N6KEO1","","null","<img src=""img/animal4.png"" style=""width:200px; border:14px solid green;"">","null","","","",""
"","image-keyboard-response","178","109183","0.0-178.0","39RP059MEIF91SRSL0O576S7TICBM6","A10JXOU89D5RXR","39WSF6KUV27TMEQUH506BZR9N6KEO1","","609.4000000357628","img/animal3.png","76","610.3000000119209","76","1",""
"","html-keyboard-response","179","109484","0.0-179.0","39RP059MEIF91SRSL0O576S7TICBM6","A10JXOU89D5RXR","39WSF6KUV27TMEQUH506BZR9N6KEO1","","null","<img src=""img/animal3.png"" style=""width:200px; border:14px solid green;"">","null","","","",""
"","image-keyboard-response","180","110135","0.0-180.0","39RP059MEIF91SRSL0O576S7TICBM6","A10JXOU89D5RXR","39WSF6KUV27TMEQUH506BZR9N6KEO1","","649.4000000357628","img/animal2.png","75","650.2000000476837","75","1",""
"","html-keyboard-response","181","110438","0.0-181.0","39RP059MEIF91SRSL0O576S7TICBM6","A10JXOU89D5RXR","39WSF6KUV27TMEQUH506BZR9N6KEO1","","null","<img src=""img/animal2.png"" style=""width:200px; border:14px solid green;"">","null","","","",""
"","html-keyboard-response","182","114057","0.0-182.0","39RP059MEIF91SRSL0O576S7TICBM6","A10JXOU89D5RXR","39WSF6KUV27TMEQUH506BZR9N6KEO1","","","","","","","",""
"","image-keyboard-response","183","116714","0.0-183.0","39RP059MEIF91SRSL0O576S7TICBM6","A10JXOU89D5RXR","39WSF6KUV27TMEQUH506BZR9N6KEO1","","2653.7999999523163","img/animal1.png","74","2654.699999988079","74","1",""
"","html-keyboard-response","184","117015","0.0-184.0","39RP059MEIF91SRSL0O576S7TICBM6","A10JXOU89D5RXR","39WSF6KUV27TMEQUH506BZR9N6KEO1","","null","<img src=""img/animal1.png"" style=""width:200px; border:14px solid green;"">","null","","","",""
"","image-keyboard-response","185","118113","0.0-185.0","39RP059MEIF91SRSL0O576S7TICBM6","A10JXOU89D5RXR","39WSF6KUV27TMEQUH506BZR9N6KEO1","","1097.800000011921","img/animal5.png","75","1098.699999988079","75","0",""
"","html-keyboard-response","186","118415","0.0-186.0","39RP059MEIF91SRSL0O576S7TICBM6","A10JXOU89D5RXR","39WSF6KUV27TMEQUH506BZR9N6KEO1","","null","<img src=""img/animal5.png"" style=""width:200px;border:14px solid red;"">","null","","","",""
"","image-keyboard-response","187","119232","0.0-187.0","39RP059MEIF91SRSL0O576S7TICBM6","A10JXOU89D5RXR","39WSF6KUV27TMEQUH506BZR9N6KEO1","","816.5","img/animal5.png","76","817.1999999880791","76","1",""
"","html-keyboard-response","188","119535","0.0-188.0","39RP059MEIF91SRSL0O576S7TICBM6","A10JXOU89D5RXR","39WSF6KUV27TMEQUH506BZR9N6KEO1","","null","<img src=""img/animal5.png"" style=""width:200px; border:14px solid green;"">","null","","","",""
"","image-keyboard-response","189","120561","0.0-189.0","39RP059MEIF91SRSL0O576S7TICBM6","A10JXOU89D5RXR","39WSF6KUV27TMEQUH506BZR9N6KEO1","","1024.800000011921","img/animal6.png","75","1025.5999999642372","75","1",""
"","html-keyboard-response","190","120864","0.0-190.0","39RP059MEIF91SRSL0O576S7TICBM6","A10JXOU89D5RXR","39WSF6KUV27TMEQUH506BZR9N6KEO1","","null","<img src=""img/animal6.png"" style=""width:200px; border:14px solid green;"">","null","","","",""
"","image-keyboard-response","191","121498","0.0-191.0","39RP059MEIF91SRSL0O576S7TICBM6","A10JXOU89D5RXR","39WSF6KUV27TMEQUH506BZR9N6KEO1","","631.2000000476837","img/animal1.png","74","633.3999999761581","74","1",""
"","html-keyboard-response","192","121801","0.0-192.0","39RP059MEIF91SRSL0O576S7TICBM6","A10JXOU89D5RXR","39WSF6KUV27TMEQUH506BZR9N6KEO1","","null","<img src=""img/animal1.png"" style=""width:200px; border:14px solid green;"">","null","","","",""
"","image-keyboard-response","193","122881","0.0-193.0","39RP059MEIF91SRSL0O576S7TICBM6","A10JXOU89D5RXR","39WSF6KUV27TMEQUH506BZR9N6KEO1","","1079.199999988079","img/animal5.png","76","1080","76","1",""
"","html-keyboard-response","194","123183","0.0-194.0","39RP059MEIF91SRSL0O576S7TICBM6","A10JXOU89D5RXR","39WSF6KUV27TMEQUH506BZR9N6KEO1","","null","<img src=""img/animal5.png"" style=""width:200px; border:14px solid green;"">","null","","","",""
"","image-keyboard-response","195","123916","0.0-195.0","39RP059MEIF91SRSL0O576S7TICBM6","A10JXOU89D5RXR","39WSF6KUV27TMEQUH506BZR9N6KEO1","","730.8000000119209","img/animal6.png","75","731.8999999761581","75","1",""
"","html-keyboard-response","196","124217","0.0-196.0","39RP059MEIF91SRSL0O576S7TICBM6","A10JXOU89D5RXR","39WSF6KUV27TMEQUH506BZR9N6KEO1","","null","<img src=""img/animal6.png"" style=""width:200px; border:14px solid green;"">","null","","","",""
"","image-keyboard-response","197","124858","0.0-197.0","39RP059MEIF91SRSL0O576S7TICBM6","A10JXOU89D5RXR","39WSF6KUV27TMEQUH506BZR9N6KEO1","","640","img/animal1.png","74","640.5","74","0",""
"","html-keyboard-response","198","125159","0.0-198.0","39RP059MEIF91SRSL0O576S7TICBM6","A10JXOU89D5RXR","39WSF6KUV27TMEQUH506BZR9N6KEO1","","null","<img src=""img/animal1.png"" style=""width:200px;border:14px solid red;"">","null","","","",""
"","image-keyboard-response","199","126161","0.0-199.0","39RP059MEIF91SRSL0O576S7TICBM6","A10JXOU89D5RXR","39WSF6KUV27TMEQUH506BZR9N6KEO1","","1001","img/animal5.png","76","1001.8999999761581","76","1",""
"","html-keyboard-response","200","126463","0.0-200.0","39RP059MEIF91SRSL0O576S7TICBM6","A10JXOU89D5RXR","39WSF6KUV27TMEQUH506BZR9N6KEO1","","null","<img src=""img/animal5.png"" style=""width:200px; border:14px solid green;"">","null","","","",""
"","image-keyboard-response","201","127641","0.0-201.0","39RP059MEIF91SRSL0O576S7TICBM6","A10JXOU89D5RXR","39WSF6KUV27TMEQUH506BZR9N6KEO1","","1175.9000000357628","img/animal1.png","74","1176.8999999761581","74","1",""
"","html-keyboard-response","202","127942","0.0-202.0","39RP059MEIF91SRSL0O576S7TICBM6","A10JXOU89D5RXR","39WSF6KUV27TMEQUH506BZR9N6KEO1","","null","<img src=""img/animal1.png"" style=""width:200px; border:14px solid green;"">","null","","","",""
"","image-keyboard-response","203","128985","0.0-203.0","39RP059MEIF91SRSL0O576S7TICBM6","A10JXOU89D5RXR","39WSF6KUV27TMEQUH506BZR9N6KEO1","","1041.0999999642372","img/animal5.png","76","1042.3999999761581","76","1",""
"","html-keyboard-response","204","129287","0.0-204.0","39RP059MEIF91SRSL0O576S7TICBM6","A10JXOU89D5RXR","39WSF6KUV27TMEQUH506BZR9N6KEO1","","null","<img src=""img/animal5.png"" style=""width:200px; border:14px solid green;"">","null","","","",""
"","image-keyboard-response","205","129809","0.0-205.0","39RP059MEIF91SRSL0O576S7TICBM6","A10JXOU89D5RXR","39WSF6KUV27TMEQUH506BZR9N6KEO1","","520","img/animal5.png","76","520.8000000119209","76","1",""
"","html-keyboard-response","206","130111","0.0-206.0","39RP059MEIF91SRSL0O576S7TICBM6","A10JXOU89D5RXR","39WSF6KUV27TMEQUH506BZR9N6KEO1","","null","<img src=""img/animal5.png"" style=""width:200px; border:14px solid green;"">","null","","","",""
"","image-keyboard-response","207","130745","0.0-207.0","39RP059MEIF91SRSL0O576S7TICBM6","A10JXOU89D5RXR","39WSF6KUV27TMEQUH506BZR9N6KEO1","","633.5","img/animal6.png","75","634.3999999761581","75","0",""
"","html-keyboard-response","208","131047","0.0-208.0","39RP059MEIF91SRSL0O576S7TICBM6","A10JXOU89D5RXR","39WSF6KUV27TMEQUH506BZR9N6KEO1","","null","<img src=""img/animal6.png"" style=""width:200px;border:14px solid red;"">","null","","","",""
"","image-keyboard-response","209","131481","0.0-209.0","39RP059MEIF91SRSL0O576S7TICBM6","A10JXOU89D5RXR","39WSF6KUV27TMEQUH506BZR9N6KEO1","","433.10000002384186","img/animal6.png","75","433.80000001192093","75","1",""
"","html-keyboard-response","210","131784","0.0-210.0","39RP059MEIF91SRSL0O576S7TICBM6","A10JXOU89D5RXR","39WSF6KUV27TMEQUH506BZR9N6KEO1","","null","<img src=""img/animal6.png"" style=""width:200px; border:14px solid green;"">","null","","","",""
"","image-keyboard-response","211","132457","0.0-211.0","39RP059MEIF91SRSL0O576S7TICBM6","A10JXOU89D5RXR","39WSF6KUV27TMEQUH506BZR9N6KEO1","","672","img/animal1.png","74","672.8000000119209","74","1",""
"","html-keyboard-response","212","132758","0.0-212.0","39RP059MEIF91SRSL0O576S7TICBM6","A10JXOU89D5RXR","39WSF6KUV27TMEQUH506BZR9N6KEO1","","null","<img src=""img/animal1.png"" style=""width:200px; border:14px solid green;"">","null","","","",""
"","image-keyboard-response","213","133234","0.0-213.0","39RP059MEIF91SRSL0O576S7TICBM6","A10JXOU89D5RXR","39WSF6KUV27TMEQUH506BZR9N6KEO1","","474.5","img/animal1.png","74","475.39999997615814","74","0",""
"","html-keyboard-response","214","133535","0.0-214.0","39RP059MEIF91SRSL0O576S7TICBM6","A10JXOU89D5RXR","39WSF6KUV27TMEQUH506BZR9N6KEO1","","null","<img src=""img/animal1.png"" style=""width:200px;border:14px solid red;"">","null","","","",""
"","image-keyboard-response","215","134058","0.0-215.0","39RP059MEIF91SRSL0O576S7TICBM6","A10JXOU89D5RXR","39WSF6KUV27TMEQUH506BZR9N6KEO1","","521.5","img/animal1.png","74","522.3000000119209","74","1",""
"","html-keyboard-response","216","134360","0.0-216.0","39RP059MEIF91SRSL0O576S7TICBM6","A10JXOU89D5RXR","39WSF6KUV27TMEQUH506BZR9N6KEO1","","null","<img src=""img/animal1.png"" style=""width:200px; border:14px solid green;"">","null","","","",""
"","image-keyboard-response","217","135490","0.0-217.0","39RP059MEIF91SRSL0O576S7TICBM6","A10JXOU89D5RXR","39WSF6KUV27TMEQUH506BZR9N6KEO1","","1128.3999999761581","img/animal5.png","76","1129.4000000357628","76","1",""
"","html-keyboard-response","218","135792","0.0-218.0","39RP059MEIF91SRSL0O576S7TICBM6","A10JXOU89D5RXR","39WSF6KUV27TMEQUH506BZR9N6KEO1","","null","<img src=""img/animal5.png"" style=""width:200px; border:14px solid green;"">","null","","","",""
"","image-keyboard-response","219","136217","0.0-219.0","39RP059MEIF91SRSL0O576S7TICBM6","A10JXOU89D5RXR","39WSF6KUV27TMEQUH506BZR9N6KEO1","","424.19999998807907","img/animal5.png","76","425.0999999642372","76","1",""
"","html-keyboard-response","220","136519","0.0-220.0","39RP059MEIF91SRSL0O576S7TICBM6","A10JXOU89D5RXR","39WSF6KUV27TMEQUH506BZR9N6KEO1","","null","<img src=""img/animal5.png"" style=""width:200px; border:14px solid green;"">","null","","","",""
"","image-keyboard-response","221","136961","0.0-221.0","39RP059MEIF91SRSL0O576S7TICBM6","A10JXOU89D5RXR","39WSF6KUV27TMEQUH506BZR9N6KEO1","","440.80000001192093","img/animal5.png","76","441.7999999523163","76","1",""
"","html-keyboard-response","222","137263","0.0-222.0","39RP059MEIF91SRSL0O576S7TICBM6","A10JXOU89D5RXR","39WSF6KUV27TMEQUH506BZR9N6KEO1","","null","<img src=""img/animal5.png"" style=""width:200px; border:14px solid green;"">","null","","","",""
"","image-keyboard-response","223","137681","0.0-223.0","39RP059MEIF91SRSL0O576S7TICBM6","A10JXOU89D5RXR","39WSF6KUV27TMEQUH506BZR9N6KEO1","","417.2000000476837","img/animal5.png","76","417.89999997615814","76","1",""
"","html-keyboard-response","224","137982","0.0-224.0","39RP059MEIF91SRSL0O576S7TICBM6","A10JXOU89D5RXR","39WSF6KUV27TMEQUH506BZR9N6KEO1","","null","<img src=""img/animal5.png"" style=""width:200px; border:14px solid green;"">","null","","","",""
"","image-keyboard-response","225","138368","0.0-225.0","39RP059MEIF91SRSL0O576S7TICBM6","A10JXOU89D5RXR","39WSF6KUV27TMEQUH506BZR9N6KEO1","","385","img/animal5.png","76","385.9000000357628","76","1",""
"","html-keyboard-response","226","138669","0.0-226.0","39RP059MEIF91SRSL0O576S7TICBM6","A10JXOU89D5RXR","39WSF6KUV27TMEQUH506BZR9N6KEO1","","null","<img src=""img/animal5.png"" style=""width:200px; border:14px solid green;"">","null","","","",""
"","image-keyboard-response","227","139394","0.0-227.0","39RP059MEIF91SRSL0O576S7TICBM6","A10JXOU89D5RXR","39WSF6KUV27TMEQUH506BZR9N6KEO1","","723.1999999880791","img/animal6.png","75","724","75","1",""
"","html-keyboard-response","228","139695","0.0-228.0","39RP059MEIF91SRSL0O576S7TICBM6","A10JXOU89D5RXR","39WSF6KUV27TMEQUH506BZR9N6KEO1","","null","<img src=""img/animal6.png"" style=""width:200px; border:14px solid green;"">","null","","","",""
"","image-keyboard-response","229","140498","0.0-229.0","39RP059MEIF91SRSL0O576S7TICBM6","A10JXOU89D5RXR","39WSF6KUV27TMEQUH506BZR9N6KEO1","","801.5999999642372","img/animal5.png","76","802.8000000119209","76","1",""
"","html-keyboard-response","230","140800","0.0-230.0","39RP059MEIF91SRSL0O576S7TICBM6","A10JXOU89D5RXR","39WSF6KUV27TMEQUH506BZR9N6KEO1","","null","<img src=""img/animal5.png"" style=""width:200px; border:14px solid green;"">","null","","","",""
"","image-keyboard-response","231","141249","0.0-231.0","39RP059MEIF91SRSL0O576S7TICBM6","A10JXOU89D5RXR","39WSF6KUV27TMEQUH506BZR9N6KEO1","","448.19999998807907","img/animal5.png","76","449.19999998807907","76","0",""
"","html-keyboard-response","232","141551","0.0-232.0","39RP059MEIF91SRSL0O576S7TICBM6","A10JXOU89D5RXR","39WSF6KUV27TMEQUH506BZR9N6KEO1","","null","<img src=""img/animal5.png"" style=""width:200px;border:14px solid red;"">","null","","","",""
"","image-keyboard-response","233","142161","0.0-233.0","39RP059MEIF91SRSL0O576S7TICBM6","A10JXOU89D5RXR","39WSF6KUV27TMEQUH506BZR9N6KEO1","","608.5","img/animal6.png","75","609.3000000119209","75","1",""
"","html-keyboard-response","234","142465","0.0-234.0","39RP059MEIF91SRSL0O576S7TICBM6","A10JXOU89D5RXR","39WSF6KUV27TMEQUH506BZR9N6KEO1","","null","<img src=""img/animal6.png"" style=""width:200px; border:14px solid green;"">","null","","","",""
"","image-keyboard-response","235","142745","0.0-235.0","39RP059MEIF91SRSL0O576S7TICBM6","A10JXOU89D5RXR","39WSF6KUV27TMEQUH506BZR9N6KEO1","","279.5","img/animal6.png","75","280.5","75","1",""
"","html-keyboard-response","236","143047","0.0-236.0","39RP059MEIF91SRSL0O576S7TICBM6","A10JXOU89D5RXR","39WSF6KUV27TMEQUH506BZR9N6KEO1","","null","<img src=""img/animal6.png"" style=""width:200px; border:14px solid green;"">","null","","","",""
"","image-keyboard-response","237","143778","0.0-237.0","39RP059MEIF91SRSL0O576S7TICBM6","A10JXOU89D5RXR","39WSF6KUV27TMEQUH506BZR9N6KEO1","","729.7999999523163","img/animal5.png","76","730.6999999880791","76","1",""
"","html-keyboard-response","238","144079","0.0-238.0","39RP059MEIF91SRSL0O576S7TICBM6","A10JXOU89D5RXR","39WSF6KUV27TMEQUH506BZR9N6KEO1","","null","<img src=""img/animal5.png"" style=""width:200px; border:14px solid green;"">","null","","","",""
"","image-keyboard-response","239","144680","0.0-239.0","39RP059MEIF91SRSL0O576S7TICBM6","A10JXOU89D5RXR","39WSF6KUV27TMEQUH506BZR9N6KEO1","","600.1999999880791","img/animal6.png","75","601.1000000238419","75","1",""
"","html-keyboard-response","240","144983","0.0-240.0","39RP059MEIF91SRSL0O576S7TICBM6","A10JXOU89D5RXR","39WSF6KUV27TMEQUH506BZR9N6KEO1","","null","<img src=""img/animal6.png"" style=""width:200px; border:14px solid green;"">","null","","","",""
"","image-keyboard-response","241","145610","0.0-241.0","39RP059MEIF91SRSL0O576S7TICBM6","A10JXOU89D5RXR","39WSF6KUV27TMEQUH506BZR9N6KEO1","","625.7999999523163","img/animal5.png","76","626.6999999880791","76","0",""
"","html-keyboard-response","242","145912","0.0-242.0","39RP059MEIF91SRSL0O576S7TICBM6","A10JXOU89D5RXR","39WSF6KUV27TMEQUH506BZR9N6KEO1","","null","<img src=""img/animal5.png"" style=""width:200px;border:14px solid red;"">","null","","","",""
"","image-keyboard-response","243","146513","0.0-243.0","39RP059MEIF91SRSL0O576S7TICBM6","A10JXOU89D5RXR","39WSF6KUV27TMEQUH506BZR9N6KEO1","","600.5","img/animal6.png","75","601.5999999642372","75","1",""
"","html-keyboard-response","244","146816","0.0-244.0","39RP059MEIF91SRSL0O576S7TICBM6","A10JXOU89D5RXR","39WSF6KUV27TMEQUH506BZR9N6KEO1","","null","<img src=""img/animal6.png"" style=""width:200px; border:14px solid green;"">","null","","","",""
"","image-keyboard-response","245","147545","0.0-245.0","39RP059MEIF91SRSL0O576S7TICBM6","A10JXOU89D5RXR","39WSF6KUV27TMEQUH506BZR9N6KEO1","","726.1999999880791","img/animal1.png","74","727","74","1",""
"","html-keyboard-response","246","147848","0.0-246.0","39RP059MEIF91SRSL0O576S7TICBM6","A10JXOU89D5RXR","39WSF6KUV27TMEQUH506BZR9N6KEO1","","null","<img src=""img/animal1.png"" style=""width:200px; border:14px solid green;"">","null","","","",""
"","image-keyboard-response","247","148217","0.0-247.0","39RP059MEIF91SRSL0O576S7TICBM6","A10JXOU89D5RXR","39WSF6KUV27TMEQUH506BZR9N6KEO1","","368.89999997615814","img/animal1.png","74","369.5","74","0",""
"","html-keyboard-response","248","148520","0.0-248.0","39RP059MEIF91SRSL0O576S7TICBM6","A10JXOU89D5RXR","39WSF6KUV27TMEQUH506BZR9N6KEO1","","null","<img src=""img/animal1.png"" style=""width:200px;border:14px solid red;"">","null","","","",""
"","image-keyboard-response","249","149240","0.0-249.0","39RP059MEIF91SRSL0O576S7TICBM6","A10JXOU89D5RXR","39WSF6KUV27TMEQUH506BZR9N6KEO1","","719.6000000238419","img/animal6.png","75","720.6000000238419","75","0",""
"","html-keyboard-response","250","149542","0.0-250.0","39RP059MEIF91SRSL0O576S7TICBM6","A10JXOU89D5RXR","39WSF6KUV27TMEQUH506BZR9N6KEO1","","null","<img src=""img/animal6.png"" style=""width:200px;border:14px solid red;"">","null","","","",""
"","image-keyboard-response","251","150321","0.0-251.0","39RP059MEIF91SRSL0O576S7TICBM6","A10JXOU89D5RXR","39WSF6KUV27TMEQUH506BZR9N6KEO1","","777.8999999761581","img/animal5.png","76","778.8000000119209","76","1",""
"","html-keyboard-response","252","150622","0.0-252.0","39RP059MEIF91SRSL0O576S7TICBM6","A10JXOU89D5RXR","39WSF6KUV27TMEQUH506BZR9N6KEO1","","null","<img src=""img/animal5.png"" style=""width:200px; border:14px solid green;"">","null","","","",""
"","image-keyboard-response","253","151377","0.0-253.0","39RP059MEIF91SRSL0O576S7TICBM6","A10JXOU89D5RXR","39WSF6KUV27TMEQUH506BZR9N6KEO1","","753.3999999761581","img/animal1.png","74","754.1999999880791","74","1",""
"","html-keyboard-response","254","151679","0.0-254.0","39RP059MEIF91SRSL0O576S7TICBM6","A10JXOU89D5RXR","39WSF6KUV27TMEQUH506BZR9N6KEO1","","null","<img src=""img/animal1.png"" style=""width:200px; border:14px solid green;"">","null","","","",""
"","image-keyboard-response","255","152577","0.0-255.0","39RP059MEIF91SRSL0O576S7TICBM6","A10JXOU89D5RXR","39WSF6KUV27TMEQUH506BZR9N6KEO1","","897.1000000238419","img/animal5.png","76","897.7999999523163","76","1",""
"","html-keyboard-response","256","152879","0.0-256.0","39RP059MEIF91SRSL0O576S7TICBM6","A10JXOU89D5RXR","39WSF6KUV27TMEQUH506BZR9N6KEO1","","null","<img src=""img/animal5.png"" style=""width:200px; border:14px solid green;"">","null","","","",""
"","image-keyboard-response","257","153426","0.0-257.0","39RP059MEIF91SRSL0O576S7TICBM6","A10JXOU89D5RXR","39WSF6KUV27TMEQUH506BZR9N6KEO1","","545.3999999761581","img/animal1.png","74","546.3000000119209","74","0",""
"","html-keyboard-response","258","153727","0.0-258.0","39RP059MEIF91SRSL0O576S7TICBM6","A10JXOU89D5RXR","39WSF6KUV27TMEQUH506BZR9N6KEO1","","null","<img src=""img/animal1.png"" style=""width:200px;border:14px solid red;"">","null","","","",""
"","image-keyboard-response","259","154274","0.0-259.0","39RP059MEIF91SRSL0O576S7TICBM6","A10JXOU89D5RXR","39WSF6KUV27TMEQUH506BZR9N6KEO1","","545.5","img/animal1.png","74","546.1999999880791","74","1",""
"","html-keyboard-response","260","154575","0.0-260.0","39RP059MEIF91SRSL0O576S7TICBM6","A10JXOU89D5RXR","39WSF6KUV27TMEQUH506BZR9N6KEO1","","null","<img src=""img/animal1.png"" style=""width:200px; border:14px solid green;"">","null","","","",""
"","image-keyboard-response","261","155393","0.0-261.0","39RP059MEIF91SRSL0O576S7TICBM6","A10JXOU89D5RXR","39WSF6KUV27TMEQUH506BZR9N6KEO1","","816.8999999761581","img/animal6.png","75","817.8999999761581","75","1",""
"","html-keyboard-response","262","155695","0.0-262.0","39RP059MEIF91SRSL0O576S7TICBM6","A10JXOU89D5RXR","39WSF6KUV27TMEQUH506BZR9N6KEO1","","null","<img src=""img/animal6.png"" style=""width:200px; border:14px solid green;"">","null","","","",""
"","image-keyboard-response","263","156394","0.0-263.0","39RP059MEIF91SRSL0O576S7TICBM6","A10JXOU89D5RXR","39WSF6KUV27TMEQUH506BZR9N6KEO1","","698.1000000238419","img/animal1.png","76","699","76","0",""
"","html-keyboard-response","264","156696","0.0-264.0","39RP059MEIF91SRSL0O576S7TICBM6","A10JXOU89D5RXR","39WSF6KUV27TMEQUH506BZR9N6KEO1","","null","<img src=""img/animal1.png"" style=""width:200px;border:14px solid red;"">","null","","","",""
"","image-keyboard-response","265","157577","0.0-265.0","39RP059MEIF91SRSL0O576S7TICBM6","A10JXOU89D5RXR","39WSF6KUV27TMEQUH506BZR9N6KEO1","","880.5","img/animal5.png","76","881.3000000119209","76","1",""
"","html-keyboard-response","266","157879","0.0-266.0","39RP059MEIF91SRSL0O576S7TICBM6","A10JXOU89D5RXR","39WSF6KUV27TMEQUH506BZR9N6KEO1","","null","<img src=""img/animal5.png"" style=""width:200px; border:14px solid green;"">","null","","","",""
"","image-keyboard-response","267","158329","0.0-267.0","39RP059MEIF91SRSL0O576S7TICBM6","A10JXOU89D5RXR","39WSF6KUV27TMEQUH506BZR9N6KEO1","","448.69999998807907","img/animal5.png","76","449.7000000476837","76","1",""
"","html-keyboard-response","268","158630","0.0-268.0","39RP059MEIF91SRSL0O576S7TICBM6","A10JXOU89D5RXR","39WSF6KUV27TMEQUH506BZR9N6KEO1","","null","<img src=""img/animal5.png"" style=""width:200px; border:14px solid green;"">","null","","","",""
"","image-keyboard-response","269","159233","0.0-269.0","39RP059MEIF91SRSL0O576S7TICBM6","A10JXOU89D5RXR","39WSF6KUV27TMEQUH506BZR9N6KEO1","","602","img/animal6.png","75","602.9000000357628","75","1",""
"","html-keyboard-response","270","159535","0.0-270.0","39RP059MEIF91SRSL0O576S7TICBM6","A10JXOU89D5RXR","39WSF6KUV27TMEQUH506BZR9N6KEO1","","null","<img src=""img/animal6.png"" style=""width:200px; border:14px solid green;"">","null","","","",""
"","image-keyboard-response","271","159946","0.0-271.0","39RP059MEIF91SRSL0O576S7TICBM6","A10JXOU89D5RXR","39WSF6KUV27TMEQUH506BZR9N6KEO1","","409.30000001192093","img/animal6.png","75","410.5999999642372","75","1",""
"","html-keyboard-response","272","160248","0.0-272.0","39RP059MEIF91SRSL0O576S7TICBM6","A10JXOU89D5RXR","39WSF6KUV27TMEQUH506BZR9N6KEO1","","null","<img src=""img/animal6.png"" style=""width:200px; border:14px solid green;"">","null","","","",""
"","image-keyboard-response","273","160577","0.0-273.0","39RP059MEIF91SRSL0O576S7TICBM6","A10JXOU89D5RXR","39WSF6KUV27TMEQUH506BZR9N6KEO1","","328","img/animal6.png","75","328.80000001192093","75","1",""
"","html-keyboard-response","274","160879","0.0-274.0","39RP059MEIF91SRSL0O576S7TICBM6","A10JXOU89D5RXR","39WSF6KUV27TMEQUH506BZR9N6KEO1","","null","<img src=""img/animal6.png"" style=""width:200px; border:14px solid green;"">","null","","","",""
"","image-keyboard-response","275","161249","0.0-275.0","39RP059MEIF91SRSL0O576S7TICBM6","A10JXOU89D5RXR","39WSF6KUV27TMEQUH506BZR9N6KEO1","","369.80000001192093","img/animal6.png","75","370.69999998807907","75","0",""
"","html-keyboard-response","276","161552","0.0-276.0","39RP059MEIF91SRSL0O576S7TICBM6","A10JXOU89D5RXR","39WSF6KUV27TMEQUH506BZR9N6KEO1","","null","<img src=""img/animal6.png"" style=""width:200px;border:14px solid red;"">","null","","","",""
"","image-keyboard-response","277","162441","0.0-277.0","39RP059MEIF91SRSL0O576S7TICBM6","A10JXOU89D5RXR","39WSF6KUV27TMEQUH506BZR9N6KEO1","","888.1000000238419","img/animal5.png","76","888.8000000119209","76","1",""
"","html-keyboard-response","278","162747","0.0-278.0","39RP059MEIF91SRSL0O576S7TICBM6","A10JXOU89D5RXR","39WSF6KUV27TMEQUH506BZR9N6KEO1","","null","<img src=""img/animal5.png"" style=""width:200px; border:14px solid green;"">","null","","","",""
"","image-keyboard-response","279","163306","0.0-279.0","39RP059MEIF91SRSL0O576S7TICBM6","A10JXOU89D5RXR","39WSF6KUV27TMEQUH506BZR9N6KEO1","","557.7999999523163","img/animal6.png","75","558.5","75","1",""
"","html-keyboard-response","280","163607","0.0-280.0","39RP059MEIF91SRSL0O576S7TICBM6","A10JXOU89D5RXR","39WSF6KUV27TMEQUH506BZR9N6KEO1","","null","<img src=""img/animal6.png"" style=""width:200px; border:14px solid green;"">","null","","","",""
"","image-keyboard-response","281","164321","0.0-281.0","39RP059MEIF91SRSL0O576S7TICBM6","A10JXOU89D5RXR","39WSF6KUV27TMEQUH506BZR9N6KEO1","","712.3000000119209","img/animal1.png","74","713.1999999880791","74","0",""
"","html-keyboard-response","282","164623","0.0-282.0","39RP059MEIF91SRSL0O576S7TICBM6","A10JXOU89D5RXR","39WSF6KUV27TMEQUH506BZR9N6KEO1","","null","<img src=""img/animal1.png"" style=""width:200px;border:14px solid red;"">","null","","","",""
"","image-keyboard-response","283","165313","0.0-283.0","39RP059MEIF91SRSL0O576S7TICBM6","A10JXOU89D5RXR","39WSF6KUV27TMEQUH506BZR9N6KEO1","","688.8999999761581","img/animal5.png","75","689.8000000119209","75","0",""
"","html-keyboard-response","284","165615","0.0-284.0","39RP059MEIF91SRSL0O576S7TICBM6","A10JXOU89D5RXR","39WSF6KUV27TMEQUH506BZR9N6KEO1","","null","<img src=""img/animal5.png"" style=""width:200px;border:14px solid red;"">","null","","","",""
"","image-keyboard-response","285","166216","0.0-285.0","39RP059MEIF91SRSL0O576S7TICBM6","A10JXOU89D5RXR","39WSF6KUV27TMEQUH506BZR9N6KEO1","","600.1000000238419","img/animal1.png","74","600.8999999761581","74","1",""
"","html-keyboard-response","286","166518","0.0-286.0","39RP059MEIF91SRSL0O576S7TICBM6","A10JXOU89D5RXR","39WSF6KUV27TMEQUH506BZR9N6KEO1","","null","<img src=""img/animal1.png"" style=""width:200px; border:14px solid green;"">","null","","","",""
"","image-keyboard-response","287","166962","0.0-287.0","39RP059MEIF91SRSL0O576S7TICBM6","A10JXOU89D5RXR","39WSF6KUV27TMEQUH506BZR9N6KEO1","","442.5999999642372","img/animal1.png","74","443.39999997615814","74","0",""
"","html-keyboard-response","288","167263","0.0-288.0","39RP059MEIF91SRSL0O576S7TICBM6","A10JXOU89D5RXR","39WSF6KUV27TMEQUH506BZR9N6KEO1","","null","<img src=""img/animal1.png"" style=""width:200px;border:14px solid red;"">","null","","","",""
"","image-keyboard-response","289","167978","0.0-289.0","39RP059MEIF91SRSL0O576S7TICBM6","A10JXOU89D5RXR","39WSF6KUV27TMEQUH506BZR9N6KEO1","","713.0999999642372","img/animal6.png","75","714","75","1",""
"","html-keyboard-response","290","168279","0.0-290.0","39RP059MEIF91SRSL0O576S7TICBM6","A10JXOU89D5RXR","39WSF6KUV27TMEQUH506BZR9N6KEO1","","null","<img src=""img/animal6.png"" style=""width:200px; border:14px solid green;"">","null","","","",""
"","image-keyboard-response","291","169104","0.0-291.0","39RP059MEIF91SRSL0O576S7TICBM6","A10JXOU89D5RXR","39WSF6KUV27TMEQUH506BZR9N6KEO1","","824.5999999642372","img/animal5.png","76","825.1000000238419","76","1",""
"","html-keyboard-response","292","169407","0.0-292.0","39RP059MEIF91SRSL0O576S7TICBM6","A10JXOU89D5RXR","39WSF6KUV27TMEQUH506BZR9N6KEO1","","null","<img src=""img/animal5.png"" style=""width:200px; border:14px solid green;"">","null","","","",""
"","image-keyboard-response","293","170002","0.0-293.0","39RP059MEIF91SRSL0O576S7TICBM6","A10JXOU89D5RXR","39WSF6KUV27TMEQUH506BZR9N6KEO1","","593.2999999523163","img/animal6.png","75","594.0999999642372","75","1",""
"","html-keyboard-response","294","170303","0.0-294.0","39RP059MEIF91SRSL0O576S7TICBM6","A10JXOU89D5RXR","39WSF6KUV27TMEQUH506BZR9N6KEO1","","null","<img src=""img/animal6.png"" style=""width:200px; border:14px solid green;"">","null","","","",""
"","image-keyboard-response","295","171033","0.0-295.0","39RP059MEIF91SRSL0O576S7TICBM6","A10JXOU89D5RXR","39WSF6KUV27TMEQUH506BZR9N6KEO1","","728.8000000119209","img/animal1.png","74","729.6999999880791","74","1",""
"","html-keyboard-response","296","171335","0.0-296.0","39RP059MEIF91SRSL0O576S7TICBM6","A10JXOU89D5RXR","39WSF6KUV27TMEQUH506BZR9N6KEO1","","null","<img src=""img/animal1.png"" style=""width:200px; border:14px solid green;"">","null","","","",""
"","image-keyboard-response","297","172969","0.0-297.0","39RP059MEIF91SRSL0O576S7TICBM6","A10JXOU89D5RXR","39WSF6KUV27TMEQUH506BZR9N6KEO1","","1632.5","img/animal5.png","76","1633.199999988079","76","1",""
"","html-keyboard-response","298","173271","0.0-298.0","39RP059MEIF91SRSL0O576S7TICBM6","A10JXOU89D5RXR","39WSF6KUV27TMEQUH506BZR9N6KEO1","","null","<img src=""img/animal5.png"" style=""width:200px; border:14px solid green;"">","null","","","",""
"","image-keyboard-response","299","173873","0.0-299.0","39RP059MEIF91SRSL0O576S7TICBM6","A10JXOU89D5RXR","39WSF6KUV27TMEQUH506BZR9N6KEO1","","601.6000000238419","img/animal6.png","75","602.6000000238419","75","1",""
"","html-keyboard-response","300","174175","0.0-300.0","39RP059MEIF91SRSL0O576S7TICBM6","A10JXOU89D5RXR","39WSF6KUV27TMEQUH506BZR9N6KEO1","","null","<img src=""img/animal6.png"" style=""width:200px; border:14px solid green;"">","null","","","",""
"","image-keyboard-response","301","174520","0.0-301.0","39RP059MEIF91SRSL0O576S7TICBM6","A10JXOU89D5RXR","39WSF6KUV27TMEQUH506BZR9N6KEO1","","343.80000001192093","img/animal6.png","75","344.5999999642372","75","1",""
"","html-keyboard-response","302","174829","0.0-302.0","39RP059MEIF91SRSL0O576S7TICBM6","A10JXOU89D5RXR","39WSF6KUV27TMEQUH506BZR9N6KEO1","","null","<img src=""img/animal6.png"" style=""width:200px; border:14px solid green;"">","null","","","",""
"","image-keyboard-response","303","175610","0.0-303.0","39RP059MEIF91SRSL0O576S7TICBM6","A10JXOU89D5RXR","39WSF6KUV27TMEQUH506BZR9N6KEO1","","779.2999999523163","img/animal1.png","74","780.1999999880791","74","1",""
"","html-keyboard-response","304","175912","0.0-304.0","39RP059MEIF91SRSL0O576S7TICBM6","A10JXOU89D5RXR","39WSF6KUV27TMEQUH506BZR9N6KEO1","","null","<img src=""img/animal1.png"" style=""width:200px; border:14px solid green;"">","null","","","",""
"","image-keyboard-response","305","176649","0.0-305.0","39RP059MEIF91SRSL0O576S7TICBM6","A10JXOU89D5RXR","39WSF6KUV27TMEQUH506BZR9N6KEO1","","736.1999999880791","img/animal5.png","76","737","76","1",""
"","html-keyboard-response","306","176954","0.0-306.0","39RP059MEIF91SRSL0O576S7TICBM6","A10JXOU89D5RXR","39WSF6KUV27TMEQUH506BZR9N6KEO1","","null","<img src=""img/animal5.png"" style=""width:200px; border:14px solid green;"">","null","","","",""
"","image-keyboard-response","307","177604","0.0-307.0","39RP059MEIF91SRSL0O576S7TICBM6","A10JXOU89D5RXR","39WSF6KUV27TMEQUH506BZR9N6KEO1","","648.6999999880791","img/animal6.png","75","649.6999999880791","75","1",""
"","html-keyboard-response","308","177907","0.0-308.0","39RP059MEIF91SRSL0O576S7TICBM6","A10JXOU89D5RXR","39WSF6KUV27TMEQUH506BZR9N6KEO1","","null","<img src=""img/animal6.png"" style=""width:200px; border:14px solid green;"">","null","","","",""
"","image-keyboard-response","309","178484","0.0-309.0","39RP059MEIF91SRSL0O576S7TICBM6","A10JXOU89D5RXR","39WSF6KUV27TMEQUH506BZR9N6KEO1","","575.8000000119209","img/animal5.png","76","576.8000000119209","76","1",""
"","html-keyboard-response","310","178785","0.0-310.0","39RP059MEIF91SRSL0O576S7TICBM6","A10JXOU89D5RXR","39WSF6KUV27TMEQUH506BZR9N6KEO1","","null","<img src=""img/animal5.png"" style=""width:200px; border:14px solid green;"">","null","","","",""
"","image-keyboard-response","311","179395","0.0-311.0","39RP059MEIF91SRSL0O576S7TICBM6","A10JXOU89D5RXR","39WSF6KUV27TMEQUH506BZR9N6KEO1","","609.0999999642372","img/animal6.png","75","609.8000000119209","75","1",""
"","html-keyboard-response","312","179698","0.0-312.0","39RP059MEIF91SRSL0O576S7TICBM6","A10JXOU89D5RXR","39WSF6KUV27TMEQUH506BZR9N6KEO1","","null","<img src=""img/animal6.png"" style=""width:200px; border:14px solid green;"">","null","","","",""
"","image-keyboard-response","313","180340","0.0-313.0","39RP059MEIF91SRSL0O576S7TICBM6","A10JXOU89D5RXR","39WSF6KUV27TMEQUH506BZR9N6KEO1","","641.1000000238419","img/animal6.png","75","641.8000000119209","75","1",""
"","html-keyboard-response","314","180642","0.0-314.0","39RP059MEIF91SRSL0O576S7TICBM6","A10JXOU89D5RXR","39WSF6KUV27TMEQUH506BZR9N6KEO1","","null","<img src=""img/animal6.png"" style=""width:200px; border:14px solid green;"">","null","","","",""
"","image-keyboard-response","315","181491","0.0-315.0","39RP059MEIF91SRSL0O576S7TICBM6","A10JXOU89D5RXR","39WSF6KUV27TMEQUH506BZR9N6KEO1","","848","img/animal5.png","76","849","76","1",""
"","html-keyboard-response","316","181803","0.0-316.0","39RP059MEIF91SRSL0O576S7TICBM6","A10JXOU89D5RXR","39WSF6KUV27TMEQUH506BZR9N6KEO1","","null","<img src=""img/animal5.png"" style=""width:200px; border:14px solid green;"">","null","","","",""
"","image-keyboard-response","317","182316","0.0-317.0","39RP059MEIF91SRSL0O576S7TICBM6","A10JXOU89D5RXR","39WSF6KUV27TMEQUH506BZR9N6KEO1","","512.6999999880791","img/animal6.png","75","513.5","75","1",""
"","html-keyboard-response","318","182618","0.0-318.0","39RP059MEIF91SRSL0O576S7TICBM6","A10JXOU89D5RXR","39WSF6KUV27TMEQUH506BZR9N6KEO1","","null","<img src=""img/animal6.png"" style=""width:200px; border:14px solid green;"">","null","","","",""
"","image-keyboard-response","319","183051","0.0-319.0","39RP059MEIF91SRSL0O576S7TICBM6","A10JXOU89D5RXR","39WSF6KUV27TMEQUH506BZR9N6KEO1","","431.60000002384186","img/animal6.png","75","432.39999997615814","75","1",""
"","html-keyboard-response","320","183354","0.0-320.0","39RP059MEIF91SRSL0O576S7TICBM6","A10JXOU89D5RXR","39WSF6KUV27TMEQUH506BZR9N6KEO1","","null","<img src=""img/animal6.png"" style=""width:200px; border:14px solid green;"">","null","","","",""
"","image-keyboard-response","321","183732","0.0-321.0","39RP059MEIF91SRSL0O576S7TICBM6","A10JXOU89D5RXR","39WSF6KUV27TMEQUH506BZR9N6KEO1","","377.60000002384186","img/animal6.png","75","378.5","75","1",""
"","html-keyboard-response","322","184035","0.0-322.0","39RP059MEIF91SRSL0O576S7TICBM6","A10JXOU89D5RXR","39WSF6KUV27TMEQUH506BZR9N6KEO1","","null","<img src=""img/animal6.png"" style=""width:200px; border:14px solid green;"">","null","","","",""
"","image-keyboard-response","323","184700","0.0-323.0","39RP059MEIF91SRSL0O576S7TICBM6","A10JXOU89D5RXR","39WSF6KUV27TMEQUH506BZR9N6KEO1","","664.0999999642372","img/animal1.png","74","664.8000000119209","74","1",""
"","html-keyboard-response","324","185013","0.0-324.0","39RP059MEIF91SRSL0O576S7TICBM6","A10JXOU89D5RXR","39WSF6KUV27TMEQUH506BZR9N6KEO1","","null","<img src=""img/animal1.png"" style=""width:200px; border:14px solid green;"">","null","","","",""
"","image-keyboard-response","325","185700","0.0-325.0","39RP059MEIF91SRSL0O576S7TICBM6","A10JXOU89D5RXR","39WSF6KUV27TMEQUH506BZR9N6KEO1","","685.6000000238419","img/animal6.png","75","686.5","75","1",""
"","html-keyboard-response","326","186002","0.0-326.0","39RP059MEIF91SRSL0O576S7TICBM6","A10JXOU89D5RXR","39WSF6KUV27TMEQUH506BZR9N6KEO1","","null","<img src=""img/animal6.png"" style=""width:200px; border:14px solid green;"">","null","","","",""
"","image-keyboard-response","327","186459","0.0-327.0","39RP059MEIF91SRSL0O576S7TICBM6","A10JXOU89D5RXR","39WSF6KUV27TMEQUH506BZR9N6KEO1","","455.89999997615814","img/animal6.png","75","456.80000001192093","75","0",""
"","html-keyboard-response","328","186761","0.0-328.0","39RP059MEIF91SRSL0O576S7TICBM6","A10JXOU89D5RXR","39WSF6KUV27TMEQUH506BZR9N6KEO1","","null","<img src=""img/animal6.png"" style=""width:200px;border:14px solid red;"">","null","","","",""
"","image-keyboard-response","329","187156","0.0-329.0","39RP059MEIF91SRSL0O576S7TICBM6","A10JXOU89D5RXR","39WSF6KUV27TMEQUH506BZR9N6KEO1","","394.60000002384186","img/animal6.png","75","395.5","75","1",""
"","html-keyboard-response","330","187459","0.0-330.0","39RP059MEIF91SRSL0O576S7TICBM6","A10JXOU89D5RXR","39WSF6KUV27TMEQUH506BZR9N6KEO1","","null","<img src=""img/animal6.png"" style=""width:200px; border:14px solid green;"">","null","","","",""
"","image-keyboard-response","331","188052","0.0-331.0","39RP059MEIF91SRSL0O576S7TICBM6","A10JXOU89D5RXR","39WSF6KUV27TMEQUH506BZR9N6KEO1","","591.9000000357628","img/animal1.png","74","592.6999999880791","74","1",""
"","html-keyboard-response","332","188353","0.0-332.0","39RP059MEIF91SRSL0O576S7TICBM6","A10JXOU89D5RXR","39WSF6KUV27TMEQUH506BZR9N6KEO1","","null","<img src=""img/animal1.png"" style=""width:200px; border:14px solid green;"">","null","","","",""
"","image-keyboard-response","333","189083","0.0-333.0","39RP059MEIF91SRSL0O576S7TICBM6","A10JXOU89D5RXR","39WSF6KUV27TMEQUH506BZR9N6KEO1","","729.2999999523163","img/animal6.png","75","730.1999999880791","75","1",""
"","html-keyboard-response","334","189385","0.0-334.0","39RP059MEIF91SRSL0O576S7TICBM6","A10JXOU89D5RXR","39WSF6KUV27TMEQUH506BZR9N6KEO1","","null","<img src=""img/animal6.png"" style=""width:200px; border:14px solid green;"">","null","","","",""
"","image-keyboard-response","335","190060","0.0-335.0","39RP059MEIF91SRSL0O576S7TICBM6","A10JXOU89D5RXR","39WSF6KUV27TMEQUH506BZR9N6KEO1","","673.3000000119209","img/animal1.png","74","674.4000000357628","74","0",""
"","html-keyboard-response","336","190361","0.0-336.0","39RP059MEIF91SRSL0O576S7TICBM6","A10JXOU89D5RXR","39WSF6KUV27TMEQUH506BZR9N6KEO1","","null","<img src=""img/animal1.png"" style=""width:200px;border:14px solid red;"">","null","","","",""
"","image-keyboard-response","337","190804","0.0-337.0","39RP059MEIF91SRSL0O576S7TICBM6","A10JXOU89D5RXR","39WSF6KUV27TMEQUH506BZR9N6KEO1","","441.2999999523163","img/animal1.png","74","442.19999998807907","74","1",""
"","html-keyboard-response","338","191106","0.0-338.0","39RP059MEIF91SRSL0O576S7TICBM6","A10JXOU89D5RXR","39WSF6KUV27TMEQUH506BZR9N6KEO1","","null","<img src=""img/animal1.png"" style=""width:200px; border:14px solid green;"">","null","","","",""
"","image-keyboard-response","339","191470","0.0-339.0","39RP059MEIF91SRSL0O576S7TICBM6","A10JXOU89D5RXR","39WSF6KUV27TMEQUH506BZR9N6KEO1","","363","img/animal1.png","74","364.2000000476837","74","1",""
"","html-keyboard-response","340","191773","0.0-340.0","39RP059MEIF91SRSL0O576S7TICBM6","A10JXOU89D5RXR","39WSF6KUV27TMEQUH506BZR9N6KEO1","","null","<img src=""img/animal1.png"" style=""width:200px; border:14px solid green;"">","null","","","",""
"","image-keyboard-response","341","192164","0.0-341.0","39RP059MEIF91SRSL0O576S7TICBM6","A10JXOU89D5RXR","39WSF6KUV27TMEQUH506BZR9N6KEO1","","390.39999997615814","img/animal1.png","74","391.30000001192093","74","1",""
"","html-keyboard-response","342","192466","0.0-342.0","39RP059MEIF91SRSL0O576S7TICBM6","A10JXOU89D5RXR","39WSF6KUV27TMEQUH506BZR9N6KEO1","","null","<img src=""img/animal1.png"" style=""width:200px; border:14px solid green;"">","null","","","",""
"","image-keyboard-response","343","192893","0.0-343.0","39RP059MEIF91SRSL0O576S7TICBM6","A10JXOU89D5RXR","39WSF6KUV27TMEQUH506BZR9N6KEO1","","425.5","img/animal1.png","74","426.60000002384186","74","1",""
"","html-keyboard-response","344","193195","0.0-344.0","39RP059MEIF91SRSL0O576S7TICBM6","A10JXOU89D5RXR","39WSF6KUV27TMEQUH506BZR9N6KEO1","","null","<img src=""img/animal1.png"" style=""width:200px; border:14px solid green;"">","null","","","",""
"","image-keyboard-response","345","193883","0.0-345.0","39RP059MEIF91SRSL0O576S7TICBM6","A10JXOU89D5RXR","39WSF6KUV27TMEQUH506BZR9N6KEO1","","687.1999999880791","img/animal5.png","76","688","76","1",""
"","html-keyboard-response","346","194185","0.0-346.0","39RP059MEIF91SRSL0O576S7TICBM6","A10JXOU89D5RXR","39WSF6KUV27TMEQUH506BZR9N6KEO1","","null","<img src=""img/animal5.png"" style=""width:200px; border:14px solid green;"">","null","","","",""
"","image-keyboard-response","347","194835","0.0-347.0","39RP059MEIF91SRSL0O576S7TICBM6","A10JXOU89D5RXR","39WSF6KUV27TMEQUH506BZR9N6KEO1","","649","img/animal1.png","74","650","74","1",""
"","html-keyboard-response","348","195137","0.0-348.0","39RP059MEIF91SRSL0O576S7TICBM6","A10JXOU89D5RXR","39WSF6KUV27TMEQUH506BZR9N6KEO1","","null","<img src=""img/animal1.png"" style=""width:200px; border:14px solid green;"">","null","","","",""
"","image-keyboard-response","349","195668","0.0-349.0","39RP059MEIF91SRSL0O576S7TICBM6","A10JXOU89D5RXR","39WSF6KUV27TMEQUH506BZR9N6KEO1","","529.8000000119209","img/animal5.png","76","530.5","76","1",""
"","html-keyboard-response","350","195971","0.0-350.0","39RP059MEIF91SRSL0O576S7TICBM6","A10JXOU89D5RXR","39WSF6KUV27TMEQUH506BZR9N6KEO1","","null","<img src=""img/animal5.png"" style=""width:200px; border:14px solid green;"">","null","","","",""
"","image-keyboard-response","351","196540","0.0-351.0","39RP059MEIF91SRSL0O576S7TICBM6","A10JXOU89D5RXR","39WSF6KUV27TMEQUH506BZR9N6KEO1","","567.8999999761581","img/animal1.png","74","568.8000000119209","74","1",""
"","html-keyboard-response","352","196841","0.0-352.0","39RP059MEIF91SRSL0O576S7TICBM6","A10JXOU89D5RXR","39WSF6KUV27TMEQUH506BZR9N6KEO1","","null","<img src=""img/animal1.png"" style=""width:200px; border:14px solid green;"">","null","","","",""
"","image-keyboard-response","353","197396","0.0-353.0","39RP059MEIF91SRSL0O576S7TICBM6","A10JXOU89D5RXR","39WSF6KUV27TMEQUH506BZR9N6KEO1","","553.6999999880791","img/animal5.png","76","554.6000000238419","76","0",""
"","html-keyboard-response","354","197698","0.0-354.0","39RP059MEIF91SRSL0O576S7TICBM6","A10JXOU89D5RXR","39WSF6KUV27TMEQUH506BZR9N6KEO1","","null","<img src=""img/animal5.png"" style=""width:200px;border:14px solid red;"">","null","","","",""
"","image-keyboard-response","355","198245","0.0-355.0","39RP059MEIF91SRSL0O576S7TICBM6","A10JXOU89D5RXR","39WSF6KUV27TMEQUH506BZR9N6KEO1","","545.6000000238419","img/animal1.png","74","546.6999999880791","74","0",""
"","html-keyboard-response","356","198547","0.0-356.0","39RP059MEIF91SRSL0O576S7TICBM6","A10JXOU89D5RXR","39WSF6KUV27TMEQUH506BZR9N6KEO1","","null","<img src=""img/animal1.png"" style=""width:200px;border:14px solid red;"">","null","","","",""
"","image-keyboard-response","357","199004","0.0-357.0","39RP059MEIF91SRSL0O576S7TICBM6","A10JXOU89D5RXR","39WSF6KUV27TMEQUH506BZR9N6KEO1","","456.89999997615814","img/animal5.png","76","457.69999998807907","76","1",""
"","html-keyboard-response","358","199306","0.0-358.0","39RP059MEIF91SRSL0O576S7TICBM6","A10JXOU89D5RXR","39WSF6KUV27TMEQUH506BZR9N6KEO1","","null","<img src=""img/animal5.png"" style=""width:200px; border:14px solid green;"">","null","","","",""
"","image-keyboard-response","359","199796","0.0-359.0","39RP059MEIF91SRSL0O576S7TICBM6","A10JXOU89D5RXR","39WSF6KUV27TMEQUH506BZR9N6KEO1","","488.89999997615814","img/animal1.png","74","489.60000002384186","74","1",""
"","html-keyboard-response","360","200098","0.0-360.0","39RP059MEIF91SRSL0O576S7TICBM6","A10JXOU89D5RXR","39WSF6KUV27TMEQUH506BZR9N6KEO1","","null","<img src=""img/animal1.png"" style=""width:200px; border:14px solid green;"">","null","","","",""
"","image-keyboard-response","361","200547","0.0-361.0","39RP059MEIF91SRSL0O576S7TICBM6","A10JXOU89D5RXR","39WSF6KUV27TMEQUH506BZR9N6KEO1","","448.19999998807907","img/animal1.png","74","449.10000002384186","74","1",""
"","html-keyboard-response","362","200849","0.0-362.0","39RP059MEIF91SRSL0O576S7TICBM6","A10JXOU89D5RXR","39WSF6KUV27TMEQUH506BZR9N6KEO1","","null","<img src=""img/animal1.png"" style=""width:200px; border:14px solid green;"">","null","","","",""
"","instructions","363","204891","0.0-363.0","39RP059MEIF91SRSL0O576S7TICBM6","A10JXOU89D5RXR","39WSF6KUV27TMEQUH506BZR9N6KEO1","[{""page_index"":0,""viewing_time"":4041.100000023842}]","4041.300000011921","","","","","",""
"","survey-text","364","209236","0.0-364.0","39RP059MEIF91SRSL0O576S7TICBM6","A10JXOU89D5RXR","39WSF6KUV27TMEQUH506BZR9N6KEO1","","4340.800000011921","","","","","","{""Q0"":""A10JXOU89D5RXR""}"
