"success","trial_type","trial_index","time_elapsed","internal_node_id","assignmentID","mturkID","hitID","view_history","rt","stimulus","key_press","reactionTime","a","r","s","reward_cond","responses"
"true","fullscreen","0","3615","0.0-0.0","3RYC5T2D74F2225U9D2NOPR6JN6PR4","A16YCPFPGW95OB","338431Z1FL1IVIVZ3BK6A6QS21HROA","","","","","","","","","",""
"","instructions","1","30101","0.0-1.0","3RYC5T2D74F2225U9D2NOPR6JN6PR4","A16YCPFPGW95OB","338431Z1FL1IVIVZ3BK6A6QS21HROA","[{""page_index"":0,""viewing_time"":5906},{""page_index"":1,""viewing_time"":3393},{""page_index"":2,""viewing_time"":1409},{""page_index"":3,""viewing_time"":3409},{""page_index"":4,""viewing_time"":7454},{""page_index"":5,""viewing_time"":1343},{""page_index"":6,""viewing_time"":1337},{""page_index"":7,""viewing_time"":2232}]","26484","","","","","","","",""
"","image-keyboard-response","2","32064","0.0-2.0","3RYC5T2D74F2225U9D2NOPR6JN6PR4","A16YCPFPGW95OB","338431Z1FL1IVIVZ3BK6A6QS21HROA","","1962","img/animal3.png","74","1963","1","1","2","1,0.7,0,1,0.7,0,0.7,0,1",""
"","html-keyboard-response","3","32368","0.0-3.0","3RYC5T2D74F2225U9D2NOPR6JN6PR4","A16YCPFPGW95OB","338431Z1FL1IVIVZ3BK6A6QS21HROA","","null","<img src=""img/animal3.png"" style=""width:200px; border:14px solid green;"">","null","","","","","",""
"","image-keyboard-response","4","33788","0.0-4.0","3RYC5T2D74F2225U9D2NOPR6JN6PR4","A16YCPFPGW95OB","338431Z1FL1IVIVZ3BK6A6QS21HROA","","1419","img/animal4.png","74","1420","1","0","3","1,0.7,0,1,0.7,0,0.7,0,1",""
"","html-keyboard-response","5","34089","0.0-5.0","3RYC5T2D74F2225U9D2NOPR6JN6PR4","A16YCPFPGW95OB","338431Z1FL1IVIVZ3BK6A6QS21HROA","","null","<img src=""img/animal4.png"" style=""width:200px;border:14px solid red;"">","null","","","","","",""
"","image-keyboard-response","6","34946","0.0-6.0","3RYC5T2D74F2225U9D2NOPR6JN6PR4","A16YCPFPGW95OB","338431Z1FL1IVIVZ3BK6A6QS21HROA","","857","img/animal1.png","76","857","3","0","1","1,0.7,0,1,0.7,0,0.7,0,1",""
"","html-keyboard-response","7","35248","0.0-7.0","3RYC5T2D74F2225U9D2NOPR6JN6PR4","A16YCPFPGW95OB","338431Z1FL1IVIVZ3BK6A6QS21HROA","","null","<img src=""img/animal1.png"" style=""width:200px;border:14px solid red;"">","null","","","","","",""
"","image-keyboard-response","8","36094","0.0-8.0","3RYC5T2D74F2225U9D2NOPR6JN6PR4","A16YCPFPGW95OB","338431Z1FL1IVIVZ3BK6A6QS21HROA","","846","img/animal4.png","74","846","1","0","3","1,0.7,0,1,0.7,0,0.7,0,1",""
"","html-keyboard-response","9","36396","0.0-9.0","3RYC5T2D74F2225U9D2NOPR6JN6PR4","A16YCPFPGW95OB","338431Z1FL1IVIVZ3BK6A6QS21HROA","","null","<img src=""img/animal4.png"" style=""width:200px;border:14px solid red;"">","null","","","","","",""
"","image-keyboard-response","10","37710","0.0-10.0","3RYC5T2D74F2225U9D2NOPR6JN6PR4","A16YCPFPGW95OB","338431Z1FL1IVIVZ3BK6A6QS21HROA","","1313","img/animal1.png","76","1314","3","0","1","1,0.7,0,1,0.7,0,0.7,0,1",""
"","html-keyboard-response","11","38013","0.0-11.0","3RYC5T2D74F2225U9D2NOPR6JN6PR4","A16YCPFPGW95OB","338431Z1FL1IVIVZ3BK6A6QS21HROA","","null","<img src=""img/animal1.png"" style=""width:200px;border:14px solid red;"">","null","","","","","",""
"","image-keyboard-response","12","38912","0.0-12.0","3RYC5T2D74F2225U9D2NOPR6JN6PR4","A16YCPFPGW95OB","338431Z1FL1IVIVZ3BK6A6QS21HROA","","898","img/animal1.png","74","898","1","1","1","1,0.7,0,1,0.7,0,0.7,0,1",""
"","html-keyboard-response","13","39214","0.0-13.0","3RYC5T2D74F2225U9D2NOPR6JN6PR4","A16YCPFPGW95OB","338431Z1FL1IVIVZ3BK6A6QS21HROA","","null","<img src=""img/animal1.png"" style=""width:200px; border:14px solid green;"">","null","","","","","",""
"","image-keyboard-response","14","40223","0.0-14.0","3RYC5T2D74F2225U9D2NOPR6JN6PR4","A16YCPFPGW95OB","338431Z1FL1IVIVZ3BK6A6QS21HROA","","1008","img/animal3.png","76","1009","3","0","2","1,0.7,0,1,0.7,0,0.7,0,1",""
"","html-keyboard-response","15","40524","0.0-15.0","3RYC5T2D74F2225U9D2NOPR6JN6PR4","A16YCPFPGW95OB","338431Z1FL1IVIVZ3BK6A6QS21HROA","","null","<img src=""img/animal3.png"" style=""width:200px;border:14px solid red;"">","null","","","","","",""
"","image-keyboard-response","16","41515","0.0-16.0","3RYC5T2D74F2225U9D2NOPR6JN6PR4","A16YCPFPGW95OB","338431Z1FL1IVIVZ3BK6A6QS21HROA","","990","img/animal3.png","74","992","1","1","2","1,0.7,0,1,0.7,0,0.7,0,1",""
"","html-keyboard-response","17","41817","0.0-17.0","3RYC5T2D74F2225U9D2NOPR6JN6PR4","A16YCPFPGW95OB","338431Z1FL1IVIVZ3BK6A6QS21HROA","","null","<img src=""img/animal3.png"" style=""width:200px; border:14px solid green;"">","null","","","","","",""
"","image-keyboard-response","18","42315","0.0-18.0","3RYC5T2D74F2225U9D2NOPR6JN6PR4","A16YCPFPGW95OB","338431Z1FL1IVIVZ3BK6A6QS21HROA","","498","img/animal3.png","74","498","1","1","2","1,0.7,0,1,0.7,0,0.7,0,1",""
"","html-keyboard-response","19","42617","0.0-19.0","3RYC5T2D74F2225U9D2NOPR6JN6PR4","A16YCPFPGW95OB","338431Z1FL1IVIVZ3BK6A6QS21HROA","","null","<img src=""img/animal3.png"" style=""width:200px; border:14px solid green;"">","null","","","","","",""
"","image-keyboard-response","20","42824","0.0-20.0","3RYC5T2D74F2225U9D2NOPR6JN6PR4","A16YCPFPGW95OB","338431Z1FL1IVIVZ3BK6A6QS21HROA","","207","img/animal4.png","74","207","1","1","3","1,0.7,0,1,0.7,0,0.7,0,1",""
"","html-keyboard-response","21","43125","0.0-21.0","3RYC5T2D74F2225U9D2NOPR6JN6PR4","A16YCPFPGW95OB","338431Z1FL1IVIVZ3BK6A6QS21HROA","","null","<img src=""img/animal4.png"" style=""width:200px; border:14px solid green;"">","null","","","","","",""
"","image-keyboard-response","22","43146","0.0-22.0","3RYC5T2D74F2225U9D2NOPR6JN6PR4","A16YCPFPGW95OB","338431Z1FL1IVIVZ3BK6A6QS21HROA","","21","img/animal3.png","74","21","1","1","2","1,0.7,0,1,0.7,0,0.7,0,1",""
"","html-keyboard-response","23","43448","0.0-23.0","3RYC5T2D74F2225U9D2NOPR6JN6PR4","A16YCPFPGW95OB","338431Z1FL1IVIVZ3BK6A6QS21HROA","","null","<img src=""img/animal3.png"" style=""width:200px; border:14px solid green;"">","null","","","","","",""
"","image-keyboard-response","24","43717","0.0-24.0","3RYC5T2D74F2225U9D2NOPR6JN6PR4","A16YCPFPGW95OB","338431Z1FL1IVIVZ3BK6A6QS21HROA","","268","img/animal3.png","74","269","1","1","2","1,0.7,0,1,0.7,0,0.7,0,1",""
"","html-keyboard-response","25","44019","0.0-25.0","3RYC5T2D74F2225U9D2NOPR6JN6PR4","A16YCPFPGW95OB","338431Z1FL1IVIVZ3BK6A6QS21HROA","","null","<img src=""img/animal3.png"" style=""width:200px; border:14px solid green;"">","null","","","","","",""
"","image-keyboard-response","26","44028","0.0-26.0","3RYC5T2D74F2225U9D2NOPR6JN6PR4","A16YCPFPGW95OB","338431Z1FL1IVIVZ3BK6A6QS21HROA","","9","img/animal3.png","74","9","1","1","2","1,0.7,0,1,0.7,0,0.7,0,1",""
"","html-keyboard-response","27","44329","0.0-27.0","3RYC5T2D74F2225U9D2NOPR6JN6PR4","A16YCPFPGW95OB","338431Z1FL1IVIVZ3BK6A6QS21HROA","","null","<img src=""img/animal3.png"" style=""width:200px; border:14px solid green;"">","null","","","","","",""
"","image-keyboard-response","28","44665","0.0-28.0","3RYC5T2D74F2225U9D2NOPR6JN6PR4","A16YCPFPGW95OB","338431Z1FL1IVIVZ3BK6A6QS21HROA","","335","img/animal3.png","74","336","1","1","2","1,0.7,0,1,0.7,0,0.7,0,1",""
"","html-keyboard-response","29","44967","0.0-29.0","3RYC5T2D74F2225U9D2NOPR6JN6PR4","A16YCPFPGW95OB","338431Z1FL1IVIVZ3BK6A6QS21HROA","","null","<img src=""img/animal3.png"" style=""width:200px; border:14px solid green;"">","null","","","","","",""
"","image-keyboard-response","30","44988","0.0-30.0","3RYC5T2D74F2225U9D2NOPR6JN6PR4","A16YCPFPGW95OB","338431Z1FL1IVIVZ3BK6A6QS21HROA","","21","img/animal3.png","74","21","1","1","2","1,0.7,0,1,0.7,0,0.7,0,1",""
"","html-keyboard-response","31","45289","0.0-31.0","3RYC5T2D74F2225U9D2NOPR6JN6PR4","A16YCPFPGW95OB","338431Z1FL1IVIVZ3BK6A6QS21HROA","","null","<img src=""img/animal3.png"" style=""width:200px; border:14px solid green;"">","null","","","","","",""
"","image-keyboard-response","32","45345","0.0-32.0","3RYC5T2D74F2225U9D2NOPR6JN6PR4","A16YCPFPGW95OB","338431Z1FL1IVIVZ3BK6A6QS21HROA","","56","img/animal3.png","74","56","1","1","2","1,0.7,0,1,0.7,0,0.7,0,1",""
"","html-keyboard-response","33","45647","0.0-33.0","3RYC5T2D74F2225U9D2NOPR6JN6PR4","A16YCPFPGW95OB","338431Z1FL1IVIVZ3BK6A6QS21HROA","","null","<img src=""img/animal3.png"" style=""width:200px; border:14px solid green;"">","null","","","","","",""
"","image-keyboard-response","34","45944","0.0-34.0","3RYC5T2D74F2225U9D2NOPR6JN6PR4","A16YCPFPGW95OB","338431Z1FL1IVIVZ3BK6A6QS21HROA","","297","img/animal1.png","74","297","1","1","1","1,0.7,0,1,0.7,0,0.7,0,1",""
"","html-keyboard-response","35","46245","0.0-35.0","3RYC5T2D74F2225U9D2NOPR6JN6PR4","A16YCPFPGW95OB","338431Z1FL1IVIVZ3BK6A6QS21HROA","","null","<img src=""img/animal1.png"" style=""width:200px; border:14px solid green;"">","null","","","","","",""
"","image-keyboard-response","36","46267","0.0-36.0","3RYC5T2D74F2225U9D2NOPR6JN6PR4","A16YCPFPGW95OB","338431Z1FL1IVIVZ3BK6A6QS21HROA","","22","img/animal4.png","74","22","1","0","3","1,0.7,0,1,0.7,0,0.7,0,1",""
"","html-keyboard-response","37","46568","0.0-37.0","3RYC5T2D74F2225U9D2NOPR6JN6PR4","A16YCPFPGW95OB","338431Z1FL1IVIVZ3BK6A6QS21HROA","","null","<img src=""img/animal4.png"" style=""width:200px;border:14px solid red;"">","null","","","","","",""
"","image-keyboard-response","38","46687","0.0-38.0","3RYC5T2D74F2225U9D2NOPR6JN6PR4","A16YCPFPGW95OB","338431Z1FL1IVIVZ3BK6A6QS21HROA","","118","img/animal3.png","74","118","1","1","2","1,0.7,0,1,0.7,0,0.7,0,1",""
"","html-keyboard-response","39","46988","0.0-39.0","3RYC5T2D74F2225U9D2NOPR6JN6PR4","A16YCPFPGW95OB","338431Z1FL1IVIVZ3BK6A6QS21HROA","","null","<img src=""img/animal3.png"" style=""width:200px; border:14px solid green;"">","null","","","","","",""
"","image-keyboard-response","40","47249","0.0-40.0","3RYC5T2D74F2225U9D2NOPR6JN6PR4","A16YCPFPGW95OB","338431Z1FL1IVIVZ3BK6A6QS21HROA","","261","img/animal4.png","74","261","1","1","3","1,0.7,0,1,0.7,0,0.7,0,1",""
"","html-keyboard-response","41","47550","0.0-41.0","3RYC5T2D74F2225U9D2NOPR6JN6PR4","A16YCPFPGW95OB","338431Z1FL1IVIVZ3BK6A6QS21HROA","","null","<img src=""img/animal4.png"" style=""width:200px; border:14px solid green;"">","null","","","","","",""
"","image-keyboard-response","42","47720","0.0-42.0","3RYC5T2D74F2225U9D2NOPR6JN6PR4","A16YCPFPGW95OB","338431Z1FL1IVIVZ3BK6A6QS21HROA","","169","img/animal4.png","74","170","1","1","3","1,0.7,0,1,0.7,0,0.7,0,1",""
"","html-keyboard-response","43","48020","0.0-43.0","3RYC5T2D74F2225U9D2NOPR6JN6PR4","A16YCPFPGW95OB","338431Z1FL1IVIVZ3BK6A6QS21HROA","","null","<img src=""img/animal4.png"" style=""width:200px; border:14px solid green;"">","null","","","","","",""
"","image-keyboard-response","44","48228","0.0-44.0","3RYC5T2D74F2225U9D2NOPR6JN6PR4","A16YCPFPGW95OB","338431Z1FL1IVIVZ3BK6A6QS21HROA","","208","img/animal3.png","74","208","1","1","2","1,0.7,0,1,0.7,0,0.7,0,1",""
"","html-keyboard-response","45","48530","0.0-45.0","3RYC5T2D74F2225U9D2NOPR6JN6PR4","A16YCPFPGW95OB","338431Z1FL1IVIVZ3BK6A6QS21HROA","","null","<img src=""img/animal3.png"" style=""width:200px; border:14px solid green;"">","null","","","","","",""
"","image-keyboard-response","46","48700","0.0-46.0","3RYC5T2D74F2225U9D2NOPR6JN6PR4","A16YCPFPGW95OB","338431Z1FL1IVIVZ3BK6A6QS21HROA","","169","img/animal4.png","74","170","1","0","3","1,0.7,0,1,0.7,0,0.7,0,1",""
"","html-keyboard-response","47","49003","0.0-47.0","3RYC5T2D74F2225U9D2NOPR6JN6PR4","A16YCPFPGW95OB","338431Z1FL1IVIVZ3BK6A6QS21HROA","","null","<img src=""img/animal4.png"" style=""width:200px;border:14px solid red;"">","null","","","","","",""
"","image-keyboard-response","48","49157","0.0-48.0","3RYC5T2D74F2225U9D2NOPR6JN6PR4","A16YCPFPGW95OB","338431Z1FL1IVIVZ3BK6A6QS21HROA","","154","img/animal1.png","74","154","1","1","1","1,0.7,0,1,0.7,0,0.7,0,1",""
"","html-keyboard-response","49","49462","0.0-49.0","3RYC5T2D74F2225U9D2NOPR6JN6PR4","A16YCPFPGW95OB","338431Z1FL1IVIVZ3BK6A6QS21HROA","","null","<img src=""img/animal1.png"" style=""width:200px; border:14px solid green;"">","null","","","","","",""
"","image-keyboard-response","50","49665","0.0-50.0","3RYC5T2D74F2225U9D2NOPR6JN6PR4","A16YCPFPGW95OB","338431Z1FL1IVIVZ3BK6A6QS21HROA","","202","img/animal4.png","74","203","1","0","3","1,0.7,0,1,0.7,0,0.7,0,1",""
"","html-keyboard-response","51","49966","0.0-51.0","3RYC5T2D74F2225U9D2NOPR6JN6PR4","A16YCPFPGW95OB","338431Z1FL1IVIVZ3BK6A6QS21HROA","","null","<img src=""img/animal4.png"" style=""width:200px;border:14px solid red;"">","null","","","","","",""
"","image-keyboard-response","52","50170","0.0-52.0","3RYC5T2D74F2225U9D2NOPR6JN6PR4","A16YCPFPGW95OB","338431Z1FL1IVIVZ3BK6A6QS21HROA","","202","img/animal1.png","74","203","1","1","1","1,0.7,0,1,0.7,0,0.7,0,1",""
"","html-keyboard-response","53","50472","0.0-53.0","3RYC5T2D74F2225U9D2NOPR6JN6PR4","A16YCPFPGW95OB","338431Z1FL1IVIVZ3BK6A6QS21HROA","","null","<img src=""img/animal1.png"" style=""width:200px; border:14px solid green;"">","null","","","","","",""
"","image-keyboard-response","54","50632","0.0-54.0","3RYC5T2D74F2225U9D2NOPR6JN6PR4","A16YCPFPGW95OB","338431Z1FL1IVIVZ3BK6A6QS21HROA","","160","img/animal3.png","74","160","1","1","2","1,0.7,0,1,0.7,0,0.7,0,1",""
"","html-keyboard-response","55","50934","0.0-55.0","3RYC5T2D74F2225U9D2NOPR6JN6PR4","A16YCPFPGW95OB","338431Z1FL1IVIVZ3BK6A6QS21HROA","","null","<img src=""img/animal3.png"" style=""width:200px; border:14px solid green;"">","null","","","","","",""
"","image-keyboard-response","56","51076","0.0-56.0","3RYC5T2D74F2225U9D2NOPR6JN6PR4","A16YCPFPGW95OB","338431Z1FL1IVIVZ3BK6A6QS21HROA","","142","img/animal4.png","74","142","1","0","3","1,0.7,0,1,0.7,0,0.7,0,1",""
"","html-keyboard-response","57","51378","0.0-57.0","3RYC5T2D74F2225U9D2NOPR6JN6PR4","A16YCPFPGW95OB","338431Z1FL1IVIVZ3BK6A6QS21HROA","","null","<img src=""img/animal4.png"" style=""width:200px;border:14px solid red;"">","null","","","","","",""
"","image-keyboard-response","58","51544","0.0-58.0","3RYC5T2D74F2225U9D2NOPR6JN6PR4","A16YCPFPGW95OB","338431Z1FL1IVIVZ3BK6A6QS21HROA","","166","img/animal3.png","74","167","1","1","2","1,0.7,0,1,0.7,0,0.7,0,1",""
"","html-keyboard-response","59","51847","0.0-59.0","3RYC5T2D74F2225U9D2NOPR6JN6PR4","A16YCPFPGW95OB","338431Z1FL1IVIVZ3BK6A6QS21HROA","","null","<img src=""img/animal3.png"" style=""width:200px; border:14px solid green;"">","null","","","","","",""
"","image-keyboard-response","60","52029","0.0-60.0","3RYC5T2D74F2225U9D2NOPR6JN6PR4","A16YCPFPGW95OB","338431Z1FL1IVIVZ3BK6A6QS21HROA","","182","img/animal1.png","74","182","1","1","1","1,0.7,0,1,0.7,0,0.7,0,1",""
"","html-keyboard-response","61","52331","0.0-61.0","3RYC5T2D74F2225U9D2NOPR6JN6PR4","A16YCPFPGW95OB","338431Z1FL1IVIVZ3BK6A6QS21HROA","","null","<img src=""img/animal1.png"" style=""width:200px; border:14px solid green;"">","null","","","","","",""
"","image-keyboard-response","62","52542","0.0-62.0","3RYC5T2D74F2225U9D2NOPR6JN6PR4","A16YCPFPGW95OB","338431Z1FL1IVIVZ3BK6A6QS21HROA","","210","img/animal1.png","74","211","1","1","1","1,0.7,0,1,0.7,0,0.7,0,1",""
"","html-keyboard-response","63","52848","0.0-63.0","3RYC5T2D74F2225U9D2NOPR6JN6PR4","A16YCPFPGW95OB","338431Z1FL1IVIVZ3BK6A6QS21HROA","","null","<img src=""img/animal1.png"" style=""width:200px; border:14px solid green;"">","null","","","","","",""
"","image-keyboard-response","64","53046","0.0-64.0","3RYC5T2D74F2225U9D2NOPR6JN6PR4","A16YCPFPGW95OB","338431Z1FL1IVIVZ3BK6A6QS21HROA","","197","img/animal4.png","74","198","1","1","3","1,0.7,0,1,0.7,0,0.7,0,1",""
"","html-keyboard-response","65","53348","0.0-65.0","3RYC5T2D74F2225U9D2NOPR6JN6PR4","A16YCPFPGW95OB","338431Z1FL1IVIVZ3BK6A6QS21HROA","","null","<img src=""img/animal4.png"" style=""width:200px; border:14px solid green;"">","null","","","","","",""
"","image-keyboard-response","66","53505","0.0-66.0","3RYC5T2D74F2225U9D2NOPR6JN6PR4","A16YCPFPGW95OB","338431Z1FL1IVIVZ3BK6A6QS21HROA","","156","img/animal1.png","74","157","1","1","1","1,0.7,0,1,0.7,0,0.7,0,1",""
"","html-keyboard-response","67","53807","0.0-67.0","3RYC5T2D74F2225U9D2NOPR6JN6PR4","A16YCPFPGW95OB","338431Z1FL1IVIVZ3BK6A6QS21HROA","","null","<img src=""img/animal1.png"" style=""width:200px; border:14px solid green;"">","null","","","","","",""
"","image-keyboard-response","68","54019","0.0-68.0","3RYC5T2D74F2225U9D2NOPR6JN6PR4","A16YCPFPGW95OB","338431Z1FL1IVIVZ3BK6A6QS21HROA","","212","img/animal4.png","74","212","1","1","3","1,0.7,0,1,0.7,0,0.7,0,1",""
"","html-keyboard-response","69","54321","0.0-69.0","3RYC5T2D74F2225U9D2NOPR6JN6PR4","A16YCPFPGW95OB","338431Z1FL1IVIVZ3BK6A6QS21HROA","","null","<img src=""img/animal4.png"" style=""width:200px; border:14px solid green;"">","null","","","","","",""
"","image-keyboard-response","70","54454","0.0-70.0","3RYC5T2D74F2225U9D2NOPR6JN6PR4","A16YCPFPGW95OB","338431Z1FL1IVIVZ3BK6A6QS21HROA","","133","img/animal4.png","74","133","1","1","3","1,0.7,0,1,0.7,0,0.7,0,1",""
"","html-keyboard-response","71","54757","0.0-71.0","3RYC5T2D74F2225U9D2NOPR6JN6PR4","A16YCPFPGW95OB","338431Z1FL1IVIVZ3BK6A6QS21HROA","","null","<img src=""img/animal4.png"" style=""width:200px; border:14px solid green;"">","null","","","","","",""
"","image-keyboard-response","72","54915","0.0-72.0","3RYC5T2D74F2225U9D2NOPR6JN6PR4","A16YCPFPGW95OB","338431Z1FL1IVIVZ3BK6A6QS21HROA","","157","img/animal3.png","74","158","1","1","2","1,0.7,0,1,0.7,0,0.7,0,1",""
"","html-keyboard-response","73","55237","0.0-73.0","3RYC5T2D74F2225U9D2NOPR6JN6PR4","A16YCPFPGW95OB","338431Z1FL1IVIVZ3BK6A6QS21HROA","","null","<img src=""img/animal3.png"" style=""width:200px; border:14px solid green;"">","null","","","","","",""
"","image-keyboard-response","74","55296","0.0-74.0","3RYC5T2D74F2225U9D2NOPR6JN6PR4","A16YCPFPGW95OB","338431Z1FL1IVIVZ3BK6A6QS21HROA","","58","img/animal1.png","74","59","1","1","1","1,0.7,0,1,0.7,0,0.7,0,1",""
"","html-keyboard-response","75","55598","0.0-75.0","3RYC5T2D74F2225U9D2NOPR6JN6PR4","A16YCPFPGW95OB","338431Z1FL1IVIVZ3BK6A6QS21HROA","","null","<img src=""img/animal1.png"" style=""width:200px; border:14px solid green;"">","null","","","","","",""
"","image-keyboard-response","76","55605","0.0-76.0","3RYC5T2D74F2225U9D2NOPR6JN6PR4","A16YCPFPGW95OB","338431Z1FL1IVIVZ3BK6A6QS21HROA","","7","img/animal3.png","74","7","1","1","2","1,0.7,0,1,0.7,0,0.7,0,1",""
"","html-keyboard-response","77","55906","0.0-77.0","3RYC5T2D74F2225U9D2NOPR6JN6PR4","A16YCPFPGW95OB","338431Z1FL1IVIVZ3BK6A6QS21HROA","","null","<img src=""img/animal3.png"" style=""width:200px; border:14px solid green;"">","null","","","","","",""
"","image-keyboard-response","78","56078","0.0-78.0","3RYC5T2D74F2225U9D2NOPR6JN6PR4","A16YCPFPGW95OB","338431Z1FL1IVIVZ3BK6A6QS21HROA","","172","img/animal4.png","74","172","1","1","3","1,0.7,0,1,0.7,0,0.7,0,1",""
"","html-keyboard-response","79","56378","0.0-79.0","3RYC5T2D74F2225U9D2NOPR6JN6PR4","A16YCPFPGW95OB","338431Z1FL1IVIVZ3BK6A6QS21HROA","","null","<img src=""img/animal4.png"" style=""width:200px; border:14px solid green;"">","null","","","","","",""
"","image-keyboard-response","80","56519","0.0-80.0","3RYC5T2D74F2225U9D2NOPR6JN6PR4","A16YCPFPGW95OB","338431Z1FL1IVIVZ3BK6A6QS21HROA","","141","img/animal1.png","74","141","1","1","1","1,0.7,0,1,0.7,0,0.7,0,1",""
"","html-keyboard-response","81","56820","0.0-81.0","3RYC5T2D74F2225U9D2NOPR6JN6PR4","A16YCPFPGW95OB","338431Z1FL1IVIVZ3BK6A6QS21HROA","","null","<img src=""img/animal1.png"" style=""width:200px; border:14px solid green;"">","null","","","","","",""
"","image-keyboard-response","82","56998","0.0-82.0","3RYC5T2D74F2225U9D2NOPR6JN6PR4","A16YCPFPGW95OB","338431Z1FL1IVIVZ3BK6A6QS21HROA","","178","img/animal1.png","74","178","1","1","1","1,0.7,0,1,0.7,0,0.7,0,1",""
"","html-keyboard-response","83","57299","0.0-83.0","3RYC5T2D74F2225U9D2NOPR6JN6PR4","A16YCPFPGW95OB","338431Z1FL1IVIVZ3BK6A6QS21HROA","","null","<img src=""img/animal1.png"" style=""width:200px; border:14px solid green;"">","null","","","","","",""
"","image-keyboard-response","84","57435","0.0-84.0","3RYC5T2D74F2225U9D2NOPR6JN6PR4","A16YCPFPGW95OB","338431Z1FL1IVIVZ3BK6A6QS21HROA","","136","img/animal1.png","74","136","1","1","1","1,0.7,0,1,0.7,0,0.7,0,1",""
"","html-keyboard-response","85","57737","0.0-85.0","3RYC5T2D74F2225U9D2NOPR6JN6PR4","A16YCPFPGW95OB","338431Z1FL1IVIVZ3BK6A6QS21HROA","","null","<img src=""img/animal1.png"" style=""width:200px; border:14px solid green;"">","null","","","","","",""
"","image-keyboard-response","86","57914","0.0-86.0","3RYC5T2D74F2225U9D2NOPR6JN6PR4","A16YCPFPGW95OB","338431Z1FL1IVIVZ3BK6A6QS21HROA","","177","img/animal4.png","74","177","1","0","3","1,0.7,0,1,0.7,0,0.7,0,1",""
"","html-keyboard-response","87","58215","0.0-87.0","3RYC5T2D74F2225U9D2NOPR6JN6PR4","A16YCPFPGW95OB","338431Z1FL1IVIVZ3BK6A6QS21HROA","","null","<img src=""img/animal4.png"" style=""width:200px;border:14px solid red;"">","null","","","","","",""
"","image-keyboard-response","88","58379","0.0-88.0","3RYC5T2D74F2225U9D2NOPR6JN6PR4","A16YCPFPGW95OB","338431Z1FL1IVIVZ3BK6A6QS21HROA","","164","img/animal4.png","74","164","1","1","3","1,0.7,0,1,0.7,0,0.7,0,1",""
"","html-keyboard-response","89","58681","0.0-89.0","3RYC5T2D74F2225U9D2NOPR6JN6PR4","A16YCPFPGW95OB","338431Z1FL1IVIVZ3BK6A6QS21HROA","","null","<img src=""img/animal4.png"" style=""width:200px; border:14px solid green;"">","null","","","","","",""
"","image-keyboard-response","90","58815","0.0-90.0","3RYC5T2D74F2225U9D2NOPR6JN6PR4","A16YCPFPGW95OB","338431Z1FL1IVIVZ3BK6A6QS21HROA","","133","img/animal4.png","74","134","1","1","3","1,0.7,0,1,0.7,0,0.7,0,1",""
"","html-keyboard-response","91","59116","0.0-91.0","3RYC5T2D74F2225U9D2NOPR6JN6PR4","A16YCPFPGW95OB","338431Z1FL1IVIVZ3BK6A6QS21HROA","","null","<img src=""img/animal4.png"" style=""width:200px; border:14px solid green;"">","null","","","","","",""
"","image-keyboard-response","92","59304","0.0-92.0","3RYC5T2D74F2225U9D2NOPR6JN6PR4","A16YCPFPGW95OB","338431Z1FL1IVIVZ3BK6A6QS21HROA","","188","img/animal3.png","74","188","1","1","2","1,0.7,0,1,0.7,0,0.7,0,1",""
"","html-keyboard-response","93","59606","0.0-93.0","3RYC5T2D74F2225U9D2NOPR6JN6PR4","A16YCPFPGW95OB","338431Z1FL1IVIVZ3BK6A6QS21HROA","","null","<img src=""img/animal3.png"" style=""width:200px; border:14px solid green;"">","null","","","","","",""
"","image-keyboard-response","94","59745","0.0-94.0","3RYC5T2D74F2225U9D2NOPR6JN6PR4","A16YCPFPGW95OB","338431Z1FL1IVIVZ3BK6A6QS21HROA","","137","img/animal3.png","74","139","1","1","2","1,0.7,0,1,0.7,0,0.7,0,1",""
"","html-keyboard-response","95","60046","0.0-95.0","3RYC5T2D74F2225U9D2NOPR6JN6PR4","A16YCPFPGW95OB","338431Z1FL1IVIVZ3BK6A6QS21HROA","","null","<img src=""img/animal3.png"" style=""width:200px; border:14px solid green;"">","null","","","","","",""
"","image-keyboard-response","96","60165","0.0-96.0","3RYC5T2D74F2225U9D2NOPR6JN6PR4","A16YCPFPGW95OB","338431Z1FL1IVIVZ3BK6A6QS21HROA","","119","img/animal3.png","74","120","1","1","2","1,0.7,0,1,0.7,0,0.7,0,1",""
"","html-keyboard-response","97","60466","0.0-97.0","3RYC5T2D74F2225U9D2NOPR6JN6PR4","A16YCPFPGW95OB","338431Z1FL1IVIVZ3BK6A6QS21HROA","","null","<img src=""img/animal3.png"" style=""width:200px; border:14px solid green;"">","null","","","","","",""
"","image-keyboard-response","98","60602","0.0-98.0","3RYC5T2D74F2225U9D2NOPR6JN6PR4","A16YCPFPGW95OB","338431Z1FL1IVIVZ3BK6A6QS21HROA","","136","img/animal3.png","74","136","1","1","2","1,0.7,0,1,0.7,0,0.7,0,1",""
"","html-keyboard-response","99","60904","0.0-99.0","3RYC5T2D74F2225U9D2NOPR6JN6PR4","A16YCPFPGW95OB","338431Z1FL1IVIVZ3BK6A6QS21HROA","","null","<img src=""img/animal3.png"" style=""width:200px; border:14px solid green;"">","null","","","","","",""
"","image-keyboard-response","100","61059","0.0-100.0","3RYC5T2D74F2225U9D2NOPR6JN6PR4","A16YCPFPGW95OB","338431Z1FL1IVIVZ3BK6A6QS21HROA","","155","img/animal3.png","74","155","1","1","2","1,0.7,0,1,0.7,0,0.7,0,1",""
"","html-keyboard-response","101","61360","0.0-101.0","3RYC5T2D74F2225U9D2NOPR6JN6PR4","A16YCPFPGW95OB","338431Z1FL1IVIVZ3BK6A6QS21HROA","","null","<img src=""img/animal3.png"" style=""width:200px; border:14px solid green;"">","null","","","","","",""
"","image-keyboard-response","102","61545","0.0-102.0","3RYC5T2D74F2225U9D2NOPR6JN6PR4","A16YCPFPGW95OB","338431Z1FL1IVIVZ3BK6A6QS21HROA","","184","img/animal1.png","74","185","1","1","1","1,0.7,0,1,0.7,0,0.7,0,1",""
"","html-keyboard-response","103","61847","0.0-103.0","3RYC5T2D74F2225U9D2NOPR6JN6PR4","A16YCPFPGW95OB","338431Z1FL1IVIVZ3BK6A6QS21HROA","","null","<img src=""img/animal1.png"" style=""width:200px; border:14px solid green;"">","null","","","","","",""
"","image-keyboard-response","104","62018","0.0-104.0","3RYC5T2D74F2225U9D2NOPR6JN6PR4","A16YCPFPGW95OB","338431Z1FL1IVIVZ3BK6A6QS21HROA","","171","img/animal1.png","74","171","1","1","1","1,0.7,0,1,0.7,0,0.7,0,1",""
"","html-keyboard-response","105","62319","0.0-105.0","3RYC5T2D74F2225U9D2NOPR6JN6PR4","A16YCPFPGW95OB","338431Z1FL1IVIVZ3BK6A6QS21HROA","","null","<img src=""img/animal1.png"" style=""width:200px; border:14px solid green;"">","null","","","","","",""
"","image-keyboard-response","106","62475","0.0-106.0","3RYC5T2D74F2225U9D2NOPR6JN6PR4","A16YCPFPGW95OB","338431Z1FL1IVIVZ3BK6A6QS21HROA","","156","img/animal1.png","74","156","1","1","1","1,0.7,0,1,0.7,0,0.7,0,1",""
"","html-keyboard-response","107","62776","0.0-107.0","3RYC5T2D74F2225U9D2NOPR6JN6PR4","A16YCPFPGW95OB","338431Z1FL1IVIVZ3BK6A6QS21HROA","","null","<img src=""img/animal1.png"" style=""width:200px; border:14px solid green;"">","null","","","","","",""
"","image-keyboard-response","108","62916","0.0-108.0","3RYC5T2D74F2225U9D2NOPR6JN6PR4","A16YCPFPGW95OB","338431Z1FL1IVIVZ3BK6A6QS21HROA","","138","img/animal1.png","74","140","1","1","1","1,0.7,0,1,0.7,0,0.7,0,1",""
"","html-keyboard-response","109","63217","0.0-109.0","3RYC5T2D74F2225U9D2NOPR6JN6PR4","A16YCPFPGW95OB","338431Z1FL1IVIVZ3BK6A6QS21HROA","","null","<img src=""img/animal1.png"" style=""width:200px; border:14px solid green;"">","null","","","","","",""
"","image-keyboard-response","110","63345","0.0-110.0","3RYC5T2D74F2225U9D2NOPR6JN6PR4","A16YCPFPGW95OB","338431Z1FL1IVIVZ3BK6A6QS21HROA","","127","img/animal1.png","74","128","1","1","1","1,0.7,0,1,0.7,0,0.7,0,1",""
"","html-keyboard-response","111","63648","0.0-111.0","3RYC5T2D74F2225U9D2NOPR6JN6PR4","A16YCPFPGW95OB","338431Z1FL1IVIVZ3BK6A6QS21HROA","","null","<img src=""img/animal1.png"" style=""width:200px; border:14px solid green;"">","null","","","","","",""
"","image-keyboard-response","112","63829","0.0-112.0","3RYC5T2D74F2225U9D2NOPR6JN6PR4","A16YCPFPGW95OB","338431Z1FL1IVIVZ3BK6A6QS21HROA","","181","img/animal3.png","74","181","1","1","2","1,0.7,0,1,0.7,0,0.7,0,1",""
"","html-keyboard-response","113","64131","0.0-113.0","3RYC5T2D74F2225U9D2NOPR6JN6PR4","A16YCPFPGW95OB","338431Z1FL1IVIVZ3BK6A6QS21HROA","","null","<img src=""img/animal3.png"" style=""width:200px; border:14px solid green;"">","null","","","","","",""
"","image-keyboard-response","114","64289","0.0-114.0","3RYC5T2D74F2225U9D2NOPR6JN6PR4","A16YCPFPGW95OB","338431Z1FL1IVIVZ3BK6A6QS21HROA","","158","img/animal4.png","74","158","1","1","3","1,0.7,0,1,0.7,0,0.7,0,1",""
"","html-keyboard-response","115","64592","0.0-115.0","3RYC5T2D74F2225U9D2NOPR6JN6PR4","A16YCPFPGW95OB","338431Z1FL1IVIVZ3BK6A6QS21HROA","","null","<img src=""img/animal4.png"" style=""width:200px; border:14px solid green;"">","null","","","","","",""
"","image-keyboard-response","116","64744","0.0-116.0","3RYC5T2D74F2225U9D2NOPR6JN6PR4","A16YCPFPGW95OB","338431Z1FL1IVIVZ3BK6A6QS21HROA","","152","img/animal1.png","74","152","1","1","1","1,0.7,0,1,0.7,0,0.7,0,1",""
"","html-keyboard-response","117","65071","0.0-117.0","3RYC5T2D74F2225U9D2NOPR6JN6PR4","A16YCPFPGW95OB","338431Z1FL1IVIVZ3BK6A6QS21HROA","","null","<img src=""img/animal1.png"" style=""width:200px; border:14px solid green;"">","null","","","","","",""
"","image-keyboard-response","118","65225","0.0-118.0","3RYC5T2D74F2225U9D2NOPR6JN6PR4","A16YCPFPGW95OB","338431Z1FL1IVIVZ3BK6A6QS21HROA","","154","img/animal1.png","74","154","1","1","1","1,0.7,0,1,0.7,0,0.7,0,1",""
"","html-keyboard-response","119","65526","0.0-119.0","3RYC5T2D74F2225U9D2NOPR6JN6PR4","A16YCPFPGW95OB","338431Z1FL1IVIVZ3BK6A6QS21HROA","","null","<img src=""img/animal1.png"" style=""width:200px; border:14px solid green;"">","null","","","","","",""
"","image-keyboard-response","120","65655","0.0-120.0","3RYC5T2D74F2225U9D2NOPR6JN6PR4","A16YCPFPGW95OB","338431Z1FL1IVIVZ3BK6A6QS21HROA","","129","img/animal1.png","74","129","1","1","1","1,0.7,0,1,0.7,0,0.7,0,1",""
"","html-keyboard-response","121","65957","0.0-121.0","3RYC5T2D74F2225U9D2NOPR6JN6PR4","A16YCPFPGW95OB","338431Z1FL1IVIVZ3BK6A6QS21HROA","","null","<img src=""img/animal1.png"" style=""width:200px; border:14px solid green;"">","null","","","","","",""
"","image-keyboard-response","122","66115","0.0-122.0","3RYC5T2D74F2225U9D2NOPR6JN6PR4","A16YCPFPGW95OB","338431Z1FL1IVIVZ3BK6A6QS21HROA","","156","img/animal4.png","74","158","1","1","3","1,0.7,0,1,0.7,0,0.7,0,1",""
"","html-keyboard-response","123","66416","0.0-123.0","3RYC5T2D74F2225U9D2NOPR6JN6PR4","A16YCPFPGW95OB","338431Z1FL1IVIVZ3BK6A6QS21HROA","","null","<img src=""img/animal4.png"" style=""width:200px; border:14px solid green;"">","null","","","","","",""
"","image-keyboard-response","124","66595","0.0-124.0","3RYC5T2D74F2225U9D2NOPR6JN6PR4","A16YCPFPGW95OB","338431Z1FL1IVIVZ3BK6A6QS21HROA","","179","img/animal4.png","74","179","1","1","3","1,0.7,0,1,0.7,0,0.7,0,1",""
"","html-keyboard-response","125","66896","0.0-125.0","3RYC5T2D74F2225U9D2NOPR6JN6PR4","A16YCPFPGW95OB","338431Z1FL1IVIVZ3BK6A6QS21HROA","","null","<img src=""img/animal4.png"" style=""width:200px; border:14px solid green;"">","null","","","","","",""
"","image-keyboard-response","126","67069","0.0-126.0","3RYC5T2D74F2225U9D2NOPR6JN6PR4","A16YCPFPGW95OB","338431Z1FL1IVIVZ3BK6A6QS21HROA","","173","img/animal4.png","74","173","1","1","3","1,0.7,0,1,0.7,0,0.7,0,1",""
"","html-keyboard-response","127","67371","0.0-127.0","3RYC5T2D74F2225U9D2NOPR6JN6PR4","A16YCPFPGW95OB","338431Z1FL1IVIVZ3BK6A6QS21HROA","","null","<img src=""img/animal4.png"" style=""width:200px; border:14px solid green;"">","null","","","","","",""
"","image-keyboard-response","128","67550","0.0-128.0","3RYC5T2D74F2225U9D2NOPR6JN6PR4","A16YCPFPGW95OB","338431Z1FL1IVIVZ3BK6A6QS21HROA","","179","img/animal4.png","74","179","1","0","3","1,0.7,0,1,0.7,0,0.7,0,1",""
"","html-keyboard-response","129","67852","0.0-129.0","3RYC5T2D74F2225U9D2NOPR6JN6PR4","A16YCPFPGW95OB","338431Z1FL1IVIVZ3BK6A6QS21HROA","","null","<img src=""img/animal4.png"" style=""width:200px;border:14px solid red;"">","null","","","","","",""
"","image-keyboard-response","130","68096","0.0-130.0","3RYC5T2D74F2225U9D2NOPR6JN6PR4","A16YCPFPGW95OB","338431Z1FL1IVIVZ3BK6A6QS21HROA","","243","img/animal3.png","74","244","1","1","2","1,0.7,0,1,0.7,0,0.7,0,1",""
"","html-keyboard-response","131","68398","0.0-131.0","3RYC5T2D74F2225U9D2NOPR6JN6PR4","A16YCPFPGW95OB","338431Z1FL1IVIVZ3BK6A6QS21HROA","","null","<img src=""img/animal3.png"" style=""width:200px; border:14px solid green;"">","null","","","","","",""
"","image-keyboard-response","132","68565","0.0-132.0","3RYC5T2D74F2225U9D2NOPR6JN6PR4","A16YCPFPGW95OB","338431Z1FL1IVIVZ3BK6A6QS21HROA","","166","img/animal3.png","74","167","1","1","2","1,0.7,0,1,0.7,0,0.7,0,1",""
"","html-keyboard-response","133","68866","0.0-133.0","3RYC5T2D74F2225U9D2NOPR6JN6PR4","A16YCPFPGW95OB","338431Z1FL1IVIVZ3BK6A6QS21HROA","","null","<img src=""img/animal3.png"" style=""width:200px; border:14px solid green;"">","null","","","","","",""
"","image-keyboard-response","134","69039","0.0-134.0","3RYC5T2D74F2225U9D2NOPR6JN6PR4","A16YCPFPGW95OB","338431Z1FL1IVIVZ3BK6A6QS21HROA","","173","img/animal4.png","74","173","1","1","3","1,0.7,0,1,0.7,0,0.7,0,1",""
"","html-keyboard-response","135","69341","0.0-135.0","3RYC5T2D74F2225U9D2NOPR6JN6PR4","A16YCPFPGW95OB","338431Z1FL1IVIVZ3BK6A6QS21HROA","","null","<img src=""img/animal4.png"" style=""width:200px; border:14px solid green;"">","null","","","","","",""
"","image-keyboard-response","136","69505","0.0-136.0","3RYC5T2D74F2225U9D2NOPR6JN6PR4","A16YCPFPGW95OB","338431Z1FL1IVIVZ3BK6A6QS21HROA","","163","img/animal1.png","74","164","1","1","1","1,0.7,0,1,0.7,0,0.7,0,1",""
"","html-keyboard-response","137","69805","0.0-137.0","3RYC5T2D74F2225U9D2NOPR6JN6PR4","A16YCPFPGW95OB","338431Z1FL1IVIVZ3BK6A6QS21HROA","","null","<img src=""img/animal1.png"" style=""width:200px; border:14px solid green;"">","null","","","","","",""
"","image-keyboard-response","138","69994","0.0-138.0","3RYC5T2D74F2225U9D2NOPR6JN6PR4","A16YCPFPGW95OB","338431Z1FL1IVIVZ3BK6A6QS21HROA","","189","img/animal4.png","74","189","1","1","3","1,0.7,0,1,0.7,0,0.7,0,1",""
"","html-keyboard-response","139","70296","0.0-139.0","3RYC5T2D74F2225U9D2NOPR6JN6PR4","A16YCPFPGW95OB","338431Z1FL1IVIVZ3BK6A6QS21HROA","","null","<img src=""img/animal4.png"" style=""width:200px; border:14px solid green;"">","null","","","","","",""
"","image-keyboard-response","140","70493","0.0-140.0","3RYC5T2D74F2225U9D2NOPR6JN6PR4","A16YCPFPGW95OB","338431Z1FL1IVIVZ3BK6A6QS21HROA","","197","img/animal4.png","74","197","1","1","3","1,0.7,0,1,0.7,0,0.7,0,1",""
"","html-keyboard-response","141","70795","0.0-141.0","3RYC5T2D74F2225U9D2NOPR6JN6PR4","A16YCPFPGW95OB","338431Z1FL1IVIVZ3BK6A6QS21HROA","","null","<img src=""img/animal4.png"" style=""width:200px; border:14px solid green;"">","null","","","","","",""
"","image-keyboard-response","142","70958","0.0-142.0","3RYC5T2D74F2225U9D2NOPR6JN6PR4","A16YCPFPGW95OB","338431Z1FL1IVIVZ3BK6A6QS21HROA","","162","img/animal3.png","74","163","1","1","2","1,0.7,0,1,0.7,0,0.7,0,1",""
"","html-keyboard-response","143","71261","0.0-143.0","3RYC5T2D74F2225U9D2NOPR6JN6PR4","A16YCPFPGW95OB","338431Z1FL1IVIVZ3BK6A6QS21HROA","","null","<img src=""img/animal3.png"" style=""width:200px; border:14px solid green;"">","null","","","","","",""
"","image-keyboard-response","144","71415","0.0-144.0","3RYC5T2D74F2225U9D2NOPR6JN6PR4","A16YCPFPGW95OB","338431Z1FL1IVIVZ3BK6A6QS21HROA","","153","img/animal3.png","74","154","1","1","2","1,0.7,0,1,0.7,0,0.7,0,1",""
"","html-keyboard-response","145","71717","0.0-145.0","3RYC5T2D74F2225U9D2NOPR6JN6PR4","A16YCPFPGW95OB","338431Z1FL1IVIVZ3BK6A6QS21HROA","","null","<img src=""img/animal3.png"" style=""width:200px; border:14px solid green;"">","null","","","","","",""
"","image-keyboard-response","146","71888","0.0-146.0","3RYC5T2D74F2225U9D2NOPR6JN6PR4","A16YCPFPGW95OB","338431Z1FL1IVIVZ3BK6A6QS21HROA","","169","img/animal4.png","74","171","1","1","3","1,0.7,0,1,0.7,0,0.7,0,1",""
"","html-keyboard-response","147","72189","0.0-147.0","3RYC5T2D74F2225U9D2NOPR6JN6PR4","A16YCPFPGW95OB","338431Z1FL1IVIVZ3BK6A6QS21HROA","","null","<img src=""img/animal4.png"" style=""width:200px; border:14px solid green;"">","null","","","","","",""
"","image-keyboard-response","148","72378","0.0-148.0","3RYC5T2D74F2225U9D2NOPR6JN6PR4","A16YCPFPGW95OB","338431Z1FL1IVIVZ3BK6A6QS21HROA","","188","img/animal1.png","74","189","1","1","1","1,0.7,0,1,0.7,0,0.7,0,1",""
"","html-keyboard-response","149","72679","0.0-149.0","3RYC5T2D74F2225U9D2NOPR6JN6PR4","A16YCPFPGW95OB","338431Z1FL1IVIVZ3BK6A6QS21HROA","","null","<img src=""img/animal1.png"" style=""width:200px; border:14px solid green;"">","null","","","","","",""
"","image-keyboard-response","150","72855","0.0-150.0","3RYC5T2D74F2225U9D2NOPR6JN6PR4","A16YCPFPGW95OB","338431Z1FL1IVIVZ3BK6A6QS21HROA","","174","img/animal1.png","74","175","1","1","1","1,0.7,0,1,0.7,0,0.7,0,1",""
"","html-keyboard-response","151","73158","0.0-151.0","3RYC5T2D74F2225U9D2NOPR6JN6PR4","A16YCPFPGW95OB","338431Z1FL1IVIVZ3BK6A6QS21HROA","","null","<img src=""img/animal1.png"" style=""width:200px; border:14px solid green;"">","null","","","","","",""
"","image-keyboard-response","152","73344","0.0-152.0","3RYC5T2D74F2225U9D2NOPR6JN6PR4","A16YCPFPGW95OB","338431Z1FL1IVIVZ3BK6A6QS21HROA","","186","img/animal1.png","74","186","1","1","1","1,0.7,0,1,0.7,0,0.7,0,1",""
"","html-keyboard-response","153","73646","0.0-153.0","3RYC5T2D74F2225U9D2NOPR6JN6PR4","A16YCPFPGW95OB","338431Z1FL1IVIVZ3BK6A6QS21HROA","","null","<img src=""img/animal1.png"" style=""width:200px; border:14px solid green;"">","null","","","","","",""
"","image-keyboard-response","154","73831","0.0-154.0","3RYC5T2D74F2225U9D2NOPR6JN6PR4","A16YCPFPGW95OB","338431Z1FL1IVIVZ3BK6A6QS21HROA","","184","img/animal1.png","74","185","1","1","1","1,0.7,0,1,0.7,0,0.7,0,1",""
"","html-keyboard-response","155","74132","0.0-155.0","3RYC5T2D74F2225U9D2NOPR6JN6PR4","A16YCPFPGW95OB","338431Z1FL1IVIVZ3BK6A6QS21HROA","","null","<img src=""img/animal1.png"" style=""width:200px; border:14px solid green;"">","null","","","","","",""
"","image-keyboard-response","156","74273","0.0-156.0","3RYC5T2D74F2225U9D2NOPR6JN6PR4","A16YCPFPGW95OB","338431Z1FL1IVIVZ3BK6A6QS21HROA","","141","img/animal3.png","74","141","1","1","2","1,0.7,0,1,0.7,0,0.7,0,1",""
"","html-keyboard-response","157","74574","0.0-157.0","3RYC5T2D74F2225U9D2NOPR6JN6PR4","A16YCPFPGW95OB","338431Z1FL1IVIVZ3BK6A6QS21HROA","","null","<img src=""img/animal3.png"" style=""width:200px; border:14px solid green;"">","null","","","","","",""
"","image-keyboard-response","158","74752","0.0-158.0","3RYC5T2D74F2225U9D2NOPR6JN6PR4","A16YCPFPGW95OB","338431Z1FL1IVIVZ3BK6A6QS21HROA","","177","img/animal1.png","74","178","1","1","1","1,0.7,0,1,0.7,0,0.7,0,1",""
"","html-keyboard-response","159","75054","0.0-159.0","3RYC5T2D74F2225U9D2NOPR6JN6PR4","A16YCPFPGW95OB","338431Z1FL1IVIVZ3BK6A6QS21HROA","","null","<img src=""img/animal1.png"" style=""width:200px; border:14px solid green;"">","null","","","","","",""
"","image-keyboard-response","160","75211","0.0-160.0","3RYC5T2D74F2225U9D2NOPR6JN6PR4","A16YCPFPGW95OB","338431Z1FL1IVIVZ3BK6A6QS21HROA","","156","img/animal1.png","74","157","1","1","1","1,0.7,0,1,0.7,0,0.7,0,1",""
"","html-keyboard-response","161","75513","0.0-161.0","3RYC5T2D74F2225U9D2NOPR6JN6PR4","A16YCPFPGW95OB","338431Z1FL1IVIVZ3BK6A6QS21HROA","","null","<img src=""img/animal1.png"" style=""width:200px; border:14px solid green;"">","null","","","","","",""
"","image-keyboard-response","162","75676","0.0-162.0","3RYC5T2D74F2225U9D2NOPR6JN6PR4","A16YCPFPGW95OB","338431Z1FL1IVIVZ3BK6A6QS21HROA","","163","img/animal4.png","74","163","1","1","3","1,0.7,0,1,0.7,0,0.7,0,1",""
"","html-keyboard-response","163","75978","0.0-163.0","3RYC5T2D74F2225U9D2NOPR6JN6PR4","A16YCPFPGW95OB","338431Z1FL1IVIVZ3BK6A6QS21HROA","","null","<img src=""img/animal4.png"" style=""width:200px; border:14px solid green;"">","null","","","","","",""
"","image-keyboard-response","164","76432","0.0-164.0","3RYC5T2D74F2225U9D2NOPR6JN6PR4","A16YCPFPGW95OB","338431Z1FL1IVIVZ3BK6A6QS21HROA","","453","img/animal1.png","74","454","1","1","1","1,0.7,0,1,0.7,0,0.7,0,1",""
"","html-keyboard-response","165","76734","0.0-165.0","3RYC5T2D74F2225U9D2NOPR6JN6PR4","A16YCPFPGW95OB","338431Z1FL1IVIVZ3BK6A6QS21HROA","","null","<img src=""img/animal1.png"" style=""width:200px; border:14px solid green;"">","null","","","","","",""
"","image-keyboard-response","166","76876","0.0-166.0","3RYC5T2D74F2225U9D2NOPR6JN6PR4","A16YCPFPGW95OB","338431Z1FL1IVIVZ3BK6A6QS21HROA","","141","img/animal4.png","74","142","1","1","3","1,0.7,0,1,0.7,0,0.7,0,1",""
"","html-keyboard-response","167","77177","0.0-167.0","3RYC5T2D74F2225U9D2NOPR6JN6PR4","A16YCPFPGW95OB","338431Z1FL1IVIVZ3BK6A6QS21HROA","","null","<img src=""img/animal4.png"" style=""width:200px; border:14px solid green;"">","null","","","","","",""
"","image-keyboard-response","168","77347","0.0-168.0","3RYC5T2D74F2225U9D2NOPR6JN6PR4","A16YCPFPGW95OB","338431Z1FL1IVIVZ3BK6A6QS21HROA","","170","img/animal3.png","74","171","1","1","2","1,0.7,0,1,0.7,0,0.7,0,1",""
"","html-keyboard-response","169","77652","0.0-169.0","3RYC5T2D74F2225U9D2NOPR6JN6PR4","A16YCPFPGW95OB","338431Z1FL1IVIVZ3BK6A6QS21HROA","","null","<img src=""img/animal3.png"" style=""width:200px; border:14px solid green;"">","null","","","","","",""
"","image-keyboard-response","170","77839","0.0-170.0","3RYC5T2D74F2225U9D2NOPR6JN6PR4","A16YCPFPGW95OB","338431Z1FL1IVIVZ3BK6A6QS21HROA","","186","img/animal4.png","74","187","1","1","3","1,0.7,0,1,0.7,0,0.7,0,1",""
"","html-keyboard-response","171","78141","0.0-171.0","3RYC5T2D74F2225U9D2NOPR6JN6PR4","A16YCPFPGW95OB","338431Z1FL1IVIVZ3BK6A6QS21HROA","","null","<img src=""img/animal4.png"" style=""width:200px; border:14px solid green;"">","null","","","","","",""
"","image-keyboard-response","172","78295","0.0-172.0","3RYC5T2D74F2225U9D2NOPR6JN6PR4","A16YCPFPGW95OB","338431Z1FL1IVIVZ3BK6A6QS21HROA","","154","img/animal3.png","74","154","1","1","2","1,0.7,0,1,0.7,0,0.7,0,1",""
"","html-keyboard-response","173","78597","0.0-173.0","3RYC5T2D74F2225U9D2NOPR6JN6PR4","A16YCPFPGW95OB","338431Z1FL1IVIVZ3BK6A6QS21HROA","","null","<img src=""img/animal3.png"" style=""width:200px; border:14px solid green;"">","null","","","","","",""
"","image-keyboard-response","174","78803","0.0-174.0","3RYC5T2D74F2225U9D2NOPR6JN6PR4","A16YCPFPGW95OB","338431Z1FL1IVIVZ3BK6A6QS21HROA","","206","img/animal4.png","74","206","1","1","3","1,0.7,0,1,0.7,0,0.7,0,1",""
"","html-keyboard-response","175","79105","0.0-175.0","3RYC5T2D74F2225U9D2NOPR6JN6PR4","A16YCPFPGW95OB","338431Z1FL1IVIVZ3BK6A6QS21HROA","","null","<img src=""img/animal4.png"" style=""width:200px; border:14px solid green;"">","null","","","","","",""
"","image-keyboard-response","176","79440","0.0-176.0","3RYC5T2D74F2225U9D2NOPR6JN6PR4","A16YCPFPGW95OB","338431Z1FL1IVIVZ3BK6A6QS21HROA","","333","img/animal1.png","74","335","1","1","1","1,0.7,0,1,0.7,0,0.7,0,1",""
"","html-keyboard-response","177","79741","0.0-177.0","3RYC5T2D74F2225U9D2NOPR6JN6PR4","A16YCPFPGW95OB","338431Z1FL1IVIVZ3BK6A6QS21HROA","","null","<img src=""img/animal1.png"" style=""width:200px; border:14px solid green;"">","null","","","","","",""
"","image-keyboard-response","178","79909","0.0-178.0","3RYC5T2D74F2225U9D2NOPR6JN6PR4","A16YCPFPGW95OB","338431Z1FL1IVIVZ3BK6A6QS21HROA","","167","img/animal4.png","74","168","1","1","3","1,0.7,0,1,0.7,0,0.7,0,1",""
"","html-keyboard-response","179","80211","0.0-179.0","3RYC5T2D74F2225U9D2NOPR6JN6PR4","A16YCPFPGW95OB","338431Z1FL1IVIVZ3BK6A6QS21HROA","","null","<img src=""img/animal4.png"" style=""width:200px; border:14px solid green;"">","null","","","","","",""
"","image-keyboard-response","180","80301","0.0-180.0","3RYC5T2D74F2225U9D2NOPR6JN6PR4","A16YCPFPGW95OB","338431Z1FL1IVIVZ3BK6A6QS21HROA","","90","img/animal3.png","74","90","1","1","2","1,0.7,0,1,0.7,0,0.7,0,1",""
"","html-keyboard-response","181","80602","0.0-181.0","3RYC5T2D74F2225U9D2NOPR6JN6PR4","A16YCPFPGW95OB","338431Z1FL1IVIVZ3BK6A6QS21HROA","","null","<img src=""img/animal3.png"" style=""width:200px; border:14px solid green;"">","null","","","","","",""
"","html-keyboard-response","182","90493","0.0-182.0","3RYC5T2D74F2225U9D2NOPR6JN6PR4","A16YCPFPGW95OB","338431Z1FL1IVIVZ3BK6A6QS21HROA","","","","","","","","","",""
"","image-keyboard-response","183","92814","0.0-183.0","3RYC5T2D74F2225U9D2NOPR6JN6PR4","A16YCPFPGW95OB","338431Z1FL1IVIVZ3BK6A6QS21HROA","","2320","img/animal5.png","74","2320","1","0","2","1,0.7,0,0,1,0.7,0.7,0,1",""
"","html-keyboard-response","184","93130","0.0-184.0","3RYC5T2D74F2225U9D2NOPR6JN6PR4","A16YCPFPGW95OB","338431Z1FL1IVIVZ3BK6A6QS21HROA","","null","<img src=""img/animal5.png"" style=""width:200px;border:14px solid red;"">","null","","","","","",""
"","image-keyboard-response","185","93213","0.0-185.0","3RYC5T2D74F2225U9D2NOPR6JN6PR4","A16YCPFPGW95OB","338431Z1FL1IVIVZ3BK6A6QS21HROA","","83","img/animal5.png","74","83","1","0","2","1,0.7,0,0,1,0.7,0.7,0,1",""
"","html-keyboard-response","186","93514","0.0-186.0","3RYC5T2D74F2225U9D2NOPR6JN6PR4","A16YCPFPGW95OB","338431Z1FL1IVIVZ3BK6A6QS21HROA","","null","<img src=""img/animal5.png"" style=""width:200px;border:14px solid red;"">","null","","","","","",""
"","image-keyboard-response","187","93727","0.0-187.0","3RYC5T2D74F2225U9D2NOPR6JN6PR4","A16YCPFPGW95OB","338431Z1FL1IVIVZ3BK6A6QS21HROA","","213","img/animal2.png","74","213","1","1","1","1,0.7,0,0,1,0.7,0.7,0,1",""
"","html-keyboard-response","188","94031","0.0-188.0","3RYC5T2D74F2225U9D2NOPR6JN6PR4","A16YCPFPGW95OB","338431Z1FL1IVIVZ3BK6A6QS21HROA","","null","<img src=""img/animal2.png"" style=""width:200px; border:14px solid green;"">","null","","","","","",""
"","image-keyboard-response","189","94195","0.0-189.0","3RYC5T2D74F2225U9D2NOPR6JN6PR4","A16YCPFPGW95OB","338431Z1FL1IVIVZ3BK6A6QS21HROA","","162","img/animal6.png","74","164","1","0","3","1,0.7,0,0,1,0.7,0.7,0,1",""
"","html-keyboard-response","190","94496","0.0-190.0","3RYC5T2D74F2225U9D2NOPR6JN6PR4","A16YCPFPGW95OB","338431Z1FL1IVIVZ3BK6A6QS21HROA","","null","<img src=""img/animal6.png"" style=""width:200px;border:14px solid red;"">","null","","","","","",""
"","image-keyboard-response","191","94726","0.0-191.0","3RYC5T2D74F2225U9D2NOPR6JN6PR4","A16YCPFPGW95OB","338431Z1FL1IVIVZ3BK6A6QS21HROA","","230","img/animal2.png","74","230","1","1","1","1,0.7,0,0,1,0.7,0.7,0,1",""
"","html-keyboard-response","192","95037","0.0-192.0","3RYC5T2D74F2225U9D2NOPR6JN6PR4","A16YCPFPGW95OB","338431Z1FL1IVIVZ3BK6A6QS21HROA","","null","<img src=""img/animal2.png"" style=""width:200px; border:14px solid green;"">","null","","","","","",""
"","image-keyboard-response","193","95198","0.0-193.0","3RYC5T2D74F2225U9D2NOPR6JN6PR4","A16YCPFPGW95OB","338431Z1FL1IVIVZ3BK6A6QS21HROA","","158","img/animal2.png","74","161","1","1","1","1,0.7,0,0,1,0.7,0.7,0,1",""
"","html-keyboard-response","194","95499","0.0-194.0","3RYC5T2D74F2225U9D2NOPR6JN6PR4","A16YCPFPGW95OB","338431Z1FL1IVIVZ3BK6A6QS21HROA","","null","<img src=""img/animal2.png"" style=""width:200px; border:14px solid green;"">","null","","","","","",""
"","image-keyboard-response","195","95625","0.0-195.0","3RYC5T2D74F2225U9D2NOPR6JN6PR4","A16YCPFPGW95OB","338431Z1FL1IVIVZ3BK6A6QS21HROA","","125","img/animal6.png","74","125","1","1","3","1,0.7,0,0,1,0.7,0.7,0,1",""
"","html-keyboard-response","196","95926","0.0-196.0","3RYC5T2D74F2225U9D2NOPR6JN6PR4","A16YCPFPGW95OB","338431Z1FL1IVIVZ3BK6A6QS21HROA","","null","<img src=""img/animal6.png"" style=""width:200px; border:14px solid green;"">","null","","","","","",""
"","image-keyboard-response","197","96087","0.0-197.0","3RYC5T2D74F2225U9D2NOPR6JN6PR4","A16YCPFPGW95OB","338431Z1FL1IVIVZ3BK6A6QS21HROA","","160","img/animal6.png","74","161","1","0","3","1,0.7,0,0,1,0.7,0.7,0,1",""
"","html-keyboard-response","198","96389","0.0-198.0","3RYC5T2D74F2225U9D2NOPR6JN6PR4","A16YCPFPGW95OB","338431Z1FL1IVIVZ3BK6A6QS21HROA","","null","<img src=""img/animal6.png"" style=""width:200px;border:14px solid red;"">","null","","","","","",""
"","image-keyboard-response","199","96480","0.0-199.0","3RYC5T2D74F2225U9D2NOPR6JN6PR4","A16YCPFPGW95OB","338431Z1FL1IVIVZ3BK6A6QS21HROA","","91","img/animal2.png","74","91","1","1","1","1,0.7,0,0,1,0.7,0.7,0,1",""
"","html-keyboard-response","200","96781","0.0-200.0","3RYC5T2D74F2225U9D2NOPR6JN6PR4","A16YCPFPGW95OB","338431Z1FL1IVIVZ3BK6A6QS21HROA","","null","<img src=""img/animal2.png"" style=""width:200px; border:14px solid green;"">","null","","","","","",""
"","image-keyboard-response","201","96890","0.0-201.0","3RYC5T2D74F2225U9D2NOPR6JN6PR4","A16YCPFPGW95OB","338431Z1FL1IVIVZ3BK6A6QS21HROA","","109","img/animal6.png","74","109","1","1","3","1,0.7,0,0,1,0.7,0.7,0,1",""
"","html-keyboard-response","202","97192","0.0-202.0","3RYC5T2D74F2225U9D2NOPR6JN6PR4","A16YCPFPGW95OB","338431Z1FL1IVIVZ3BK6A6QS21HROA","","null","<img src=""img/animal6.png"" style=""width:200px; border:14px solid green;"">","null","","","","","",""
"","image-keyboard-response","203","97308","0.0-203.0","3RYC5T2D74F2225U9D2NOPR6JN6PR4","A16YCPFPGW95OB","338431Z1FL1IVIVZ3BK6A6QS21HROA","","115","img/animal6.png","74","116","1","0","3","1,0.7,0,0,1,0.7,0.7,0,1",""
"","html-keyboard-response","204","97609","0.0-204.0","3RYC5T2D74F2225U9D2NOPR6JN6PR4","A16YCPFPGW95OB","338431Z1FL1IVIVZ3BK6A6QS21HROA","","null","<img src=""img/animal6.png"" style=""width:200px;border:14px solid red;"">","null","","","","","",""
"","image-keyboard-response","205","97726","0.0-205.0","3RYC5T2D74F2225U9D2NOPR6JN6PR4","A16YCPFPGW95OB","338431Z1FL1IVIVZ3BK6A6QS21HROA","","116","img/animal5.png","74","117","1","0","2","1,0.7,0,0,1,0.7,0.7,0,1",""
"","html-keyboard-response","206","98027","0.0-206.0","3RYC5T2D74F2225U9D2NOPR6JN6PR4","A16YCPFPGW95OB","338431Z1FL1IVIVZ3BK6A6QS21HROA","","null","<img src=""img/animal5.png"" style=""width:200px;border:14px solid red;"">","null","","","","","",""
"","image-keyboard-response","207","98148","0.0-207.0","3RYC5T2D74F2225U9D2NOPR6JN6PR4","A16YCPFPGW95OB","338431Z1FL1IVIVZ3BK6A6QS21HROA","","119","img/animal6.png","74","121","1","0","3","1,0.7,0,0,1,0.7,0.7,0,1",""
"","html-keyboard-response","208","98448","0.0-208.0","3RYC5T2D74F2225U9D2NOPR6JN6PR4","A16YCPFPGW95OB","338431Z1FL1IVIVZ3BK6A6QS21HROA","","null","<img src=""img/animal6.png"" style=""width:200px;border:14px solid red;"">","null","","","","","",""
"","image-keyboard-response","209","98555","0.0-209.0","3RYC5T2D74F2225U9D2NOPR6JN6PR4","A16YCPFPGW95OB","338431Z1FL1IVIVZ3BK6A6QS21HROA","","106","img/animal2.png","74","107","1","1","1","1,0.7,0,0,1,0.7,0.7,0,1",""
"","html-keyboard-response","210","98856","0.0-210.0","3RYC5T2D74F2225U9D2NOPR6JN6PR4","A16YCPFPGW95OB","338431Z1FL1IVIVZ3BK6A6QS21HROA","","null","<img src=""img/animal2.png"" style=""width:200px; border:14px solid green;"">","null","","","","","",""
"","image-keyboard-response","211","98986","0.0-211.0","3RYC5T2D74F2225U9D2NOPR6JN6PR4","A16YCPFPGW95OB","338431Z1FL1IVIVZ3BK6A6QS21HROA","","129","img/animal6.png","74","129","1","1","3","1,0.7,0,0,1,0.7,0.7,0,1",""
"","html-keyboard-response","212","99287","0.0-212.0","3RYC5T2D74F2225U9D2NOPR6JN6PR4","A16YCPFPGW95OB","338431Z1FL1IVIVZ3BK6A6QS21HROA","","null","<img src=""img/animal6.png"" style=""width:200px; border:14px solid green;"">","null","","","","","",""
"","image-keyboard-response","213","99410","0.0-213.0","3RYC5T2D74F2225U9D2NOPR6JN6PR4","A16YCPFPGW95OB","338431Z1FL1IVIVZ3BK6A6QS21HROA","","123","img/animal5.png","74","123","1","0","2","1,0.7,0,0,1,0.7,0.7,0,1",""
"","html-keyboard-response","214","99711","0.0-214.0","3RYC5T2D74F2225U9D2NOPR6JN6PR4","A16YCPFPGW95OB","338431Z1FL1IVIVZ3BK6A6QS21HROA","","null","<img src=""img/animal5.png"" style=""width:200px;border:14px solid red;"">","null","","","","","",""
"","image-keyboard-response","215","99848","0.0-215.0","3RYC5T2D74F2225U9D2NOPR6JN6PR4","A16YCPFPGW95OB","338431Z1FL1IVIVZ3BK6A6QS21HROA","","137","img/animal5.png","74","138","1","0","2","1,0.7,0,0,1,0.7,0.7,0,1",""
"","html-keyboard-response","216","100149","0.0-216.0","3RYC5T2D74F2225U9D2NOPR6JN6PR4","A16YCPFPGW95OB","338431Z1FL1IVIVZ3BK6A6QS21HROA","","null","<img src=""img/animal5.png"" style=""width:200px;border:14px solid red;"">","null","","","","","",""
"","image-keyboard-response","217","100276","0.0-217.0","3RYC5T2D74F2225U9D2NOPR6JN6PR4","A16YCPFPGW95OB","338431Z1FL1IVIVZ3BK6A6QS21HROA","","124","img/animal5.png","74","127","1","0","2","1,0.7,0,0,1,0.7,0.7,0,1",""
"","html-keyboard-response","218","100576","0.0-218.0","3RYC5T2D74F2225U9D2NOPR6JN6PR4","A16YCPFPGW95OB","338431Z1FL1IVIVZ3BK6A6QS21HROA","","null","<img src=""img/animal5.png"" style=""width:200px;border:14px solid red;"">","null","","","","","",""
"","image-keyboard-response","219","100711","0.0-219.0","3RYC5T2D74F2225U9D2NOPR6JN6PR4","A16YCPFPGW95OB","338431Z1FL1IVIVZ3BK6A6QS21HROA","","135","img/animal5.png","74","135","1","0","2","1,0.7,0,0,1,0.7,0.7,0,1",""
"","html-keyboard-response","220","101013","0.0-220.0","3RYC5T2D74F2225U9D2NOPR6JN6PR4","A16YCPFPGW95OB","338431Z1FL1IVIVZ3BK6A6QS21HROA","","null","<img src=""img/animal5.png"" style=""width:200px;border:14px solid red;"">","null","","","","","",""
"","image-keyboard-response","221","101189","0.0-221.0","3RYC5T2D74F2225U9D2NOPR6JN6PR4","A16YCPFPGW95OB","338431Z1FL1IVIVZ3BK6A6QS21HROA","","175","img/animal6.png","74","176","1","1","3","1,0.7,0,0,1,0.7,0.7,0,1",""
"","html-keyboard-response","222","101491","0.0-222.0","3RYC5T2D74F2225U9D2NOPR6JN6PR4","A16YCPFPGW95OB","338431Z1FL1IVIVZ3BK6A6QS21HROA","","null","<img src=""img/animal6.png"" style=""width:200px; border:14px solid green;"">","null","","","","","",""
"","image-keyboard-response","223","101602","0.0-223.0","3RYC5T2D74F2225U9D2NOPR6JN6PR4","A16YCPFPGW95OB","338431Z1FL1IVIVZ3BK6A6QS21HROA","","110","img/animal2.png","74","110","1","1","1","1,0.7,0,0,1,0.7,0.7,0,1",""
"","html-keyboard-response","224","101904","0.0-224.0","3RYC5T2D74F2225U9D2NOPR6JN6PR4","A16YCPFPGW95OB","338431Z1FL1IVIVZ3BK6A6QS21HROA","","null","<img src=""img/animal2.png"" style=""width:200px; border:14px solid green;"">","null","","","","","",""
"","image-keyboard-response","225","102117","0.0-225.0","3RYC5T2D74F2225U9D2NOPR6JN6PR4","A16YCPFPGW95OB","338431Z1FL1IVIVZ3BK6A6QS21HROA","","213","img/animal5.png","74","213","1","0","2","1,0.7,0,0,1,0.7,0.7,0,1",""
"","html-keyboard-response","226","102419","0.0-226.0","3RYC5T2D74F2225U9D2NOPR6JN6PR4","A16YCPFPGW95OB","338431Z1FL1IVIVZ3BK6A6QS21HROA","","null","<img src=""img/animal5.png"" style=""width:200px;border:14px solid red;"">","null","","","","","",""
"","image-keyboard-response","227","102494","0.0-227.0","3RYC5T2D74F2225U9D2NOPR6JN6PR4","A16YCPFPGW95OB","338431Z1FL1IVIVZ3BK6A6QS21HROA","","75","img/animal5.png","74","75","1","0","2","1,0.7,0,0,1,0.7,0.7,0,1",""
"","html-keyboard-response","228","102796","0.0-228.0","3RYC5T2D74F2225U9D2NOPR6JN6PR4","A16YCPFPGW95OB","338431Z1FL1IVIVZ3BK6A6QS21HROA","","null","<img src=""img/animal5.png"" style=""width:200px;border:14px solid red;"">","null","","","","","",""
"","image-keyboard-response","229","102965","0.0-229.0","3RYC5T2D74F2225U9D2NOPR6JN6PR4","A16YCPFPGW95OB","338431Z1FL1IVIVZ3BK6A6QS21HROA","","169","img/animal5.png","74","169","1","0","2","1,0.7,0,0,1,0.7,0.7,0,1",""
"","html-keyboard-response","230","103266","0.0-230.0","3RYC5T2D74F2225U9D2NOPR6JN6PR4","A16YCPFPGW95OB","338431Z1FL1IVIVZ3BK6A6QS21HROA","","null","<img src=""img/animal5.png"" style=""width:200px;border:14px solid red;"">","null","","","","","",""
"","image-keyboard-response","231","103392","0.0-231.0","3RYC5T2D74F2225U9D2NOPR6JN6PR4","A16YCPFPGW95OB","338431Z1FL1IVIVZ3BK6A6QS21HROA","","125","img/animal2.png","74","126","1","1","1","1,0.7,0,0,1,0.7,0.7,0,1",""
"","html-keyboard-response","232","103693","0.0-232.0","3RYC5T2D74F2225U9D2NOPR6JN6PR4","A16YCPFPGW95OB","338431Z1FL1IVIVZ3BK6A6QS21HROA","","null","<img src=""img/animal2.png"" style=""width:200px; border:14px solid green;"">","null","","","","","",""
"","image-keyboard-response","233","103827","0.0-233.0","3RYC5T2D74F2225U9D2NOPR6JN6PR4","A16YCPFPGW95OB","338431Z1FL1IVIVZ3BK6A6QS21HROA","","133","img/animal2.png","74","134","1","1","1","1,0.7,0,0,1,0.7,0.7,0,1",""
"","html-keyboard-response","234","104128","0.0-234.0","3RYC5T2D74F2225U9D2NOPR6JN6PR4","A16YCPFPGW95OB","338431Z1FL1IVIVZ3BK6A6QS21HROA","","null","<img src=""img/animal2.png"" style=""width:200px; border:14px solid green;"">","null","","","","","",""
"","image-keyboard-response","235","104265","0.0-235.0","3RYC5T2D74F2225U9D2NOPR6JN6PR4","A16YCPFPGW95OB","338431Z1FL1IVIVZ3BK6A6QS21HROA","","136","img/animal5.png","74","137","1","0","2","1,0.7,0,0,1,0.7,0.7,0,1",""
"","html-keyboard-response","236","104567","0.0-236.0","3RYC5T2D74F2225U9D2NOPR6JN6PR4","A16YCPFPGW95OB","338431Z1FL1IVIVZ3BK6A6QS21HROA","","null","<img src=""img/animal5.png"" style=""width:200px;border:14px solid red;"">","null","","","","","",""
"","image-keyboard-response","237","104726","0.0-237.0","3RYC5T2D74F2225U9D2NOPR6JN6PR4","A16YCPFPGW95OB","338431Z1FL1IVIVZ3BK6A6QS21HROA","","159","img/animal5.png","74","159","1","0","2","1,0.7,0,0,1,0.7,0.7,0,1",""
"","html-keyboard-response","238","105056","0.0-238.0","3RYC5T2D74F2225U9D2NOPR6JN6PR4","A16YCPFPGW95OB","338431Z1FL1IVIVZ3BK6A6QS21HROA","","null","<img src=""img/animal5.png"" style=""width:200px;border:14px solid red;"">","null","","","","","",""
"","image-keyboard-response","239","105194","0.0-239.0","3RYC5T2D74F2225U9D2NOPR6JN6PR4","A16YCPFPGW95OB","338431Z1FL1IVIVZ3BK6A6QS21HROA","","137","img/animal5.png","74","138","1","0","2","1,0.7,0,0,1,0.7,0.7,0,1",""
"","html-keyboard-response","240","105496","0.0-240.0","3RYC5T2D74F2225U9D2NOPR6JN6PR4","A16YCPFPGW95OB","338431Z1FL1IVIVZ3BK6A6QS21HROA","","null","<img src=""img/animal5.png"" style=""width:200px;border:14px solid red;"">","null","","","","","",""
"","image-keyboard-response","241","105634","0.0-241.0","3RYC5T2D74F2225U9D2NOPR6JN6PR4","A16YCPFPGW95OB","338431Z1FL1IVIVZ3BK6A6QS21HROA","","137","img/animal2.png","74","138","1","1","1","1,0.7,0,0,1,0.7,0.7,0,1",""
"","html-keyboard-response","242","105936","0.0-242.0","3RYC5T2D74F2225U9D2NOPR6JN6PR4","A16YCPFPGW95OB","338431Z1FL1IVIVZ3BK6A6QS21HROA","","null","<img src=""img/animal2.png"" style=""width:200px; border:14px solid green;"">","null","","","","","",""
"","image-keyboard-response","243","106121","0.0-243.0","3RYC5T2D74F2225U9D2NOPR6JN6PR4","A16YCPFPGW95OB","338431Z1FL1IVIVZ3BK6A6QS21HROA","","183","img/animal6.png","74","185","1","1","3","1,0.7,0,0,1,0.7,0.7,0,1",""
"","html-keyboard-response","244","106422","0.0-244.0","3RYC5T2D74F2225U9D2NOPR6JN6PR4","A16YCPFPGW95OB","338431Z1FL1IVIVZ3BK6A6QS21HROA","","null","<img src=""img/animal6.png"" style=""width:200px; border:14px solid green;"">","null","","","","","",""
"","image-keyboard-response","245","106564","0.0-245.0","3RYC5T2D74F2225U9D2NOPR6JN6PR4","A16YCPFPGW95OB","338431Z1FL1IVIVZ3BK6A6QS21HROA","","141","img/animal5.png","74","142","1","0","2","1,0.7,0,0,1,0.7,0.7,0,1",""
"","html-keyboard-response","246","106867","0.0-246.0","3RYC5T2D74F2225U9D2NOPR6JN6PR4","A16YCPFPGW95OB","338431Z1FL1IVIVZ3BK6A6QS21HROA","","null","<img src=""img/animal5.png"" style=""width:200px;border:14px solid red;"">","null","","","","","",""
"","image-keyboard-response","247","107022","0.0-247.0","3RYC5T2D74F2225U9D2NOPR6JN6PR4","A16YCPFPGW95OB","338431Z1FL1IVIVZ3BK6A6QS21HROA","","155","img/animal5.png","74","155","1","0","2","1,0.7,0,0,1,0.7,0.7,0,1",""
"","html-keyboard-response","248","107325","0.0-248.0","3RYC5T2D74F2225U9D2NOPR6JN6PR4","A16YCPFPGW95OB","338431Z1FL1IVIVZ3BK6A6QS21HROA","","null","<img src=""img/animal5.png"" style=""width:200px;border:14px solid red;"">","null","","","","","",""
"","image-keyboard-response","249","107485","0.0-249.0","3RYC5T2D74F2225U9D2NOPR6JN6PR4","A16YCPFPGW95OB","338431Z1FL1IVIVZ3BK6A6QS21HROA","","160","img/animal6.png","74","160","1","0","3","1,0.7,0,0,1,0.7,0.7,0,1",""
"","html-keyboard-response","250","107786","0.0-250.0","3RYC5T2D74F2225U9D2NOPR6JN6PR4","A16YCPFPGW95OB","338431Z1FL1IVIVZ3BK6A6QS21HROA","","null","<img src=""img/animal6.png"" style=""width:200px;border:14px solid red;"">","null","","","","","",""
"","image-keyboard-response","251","107952","0.0-251.0","3RYC5T2D74F2225U9D2NOPR6JN6PR4","A16YCPFPGW95OB","338431Z1FL1IVIVZ3BK6A6QS21HROA","","166","img/animal5.png","74","166","1","0","2","1,0.7,0,0,1,0.7,0.7,0,1",""
"","html-keyboard-response","252","108254","0.0-252.0","3RYC5T2D74F2225U9D2NOPR6JN6PR4","A16YCPFPGW95OB","338431Z1FL1IVIVZ3BK6A6QS21HROA","","null","<img src=""img/animal5.png"" style=""width:200px;border:14px solid red;"">","null","","","","","",""
"","image-keyboard-response","253","108402","0.0-253.0","3RYC5T2D74F2225U9D2NOPR6JN6PR4","A16YCPFPGW95OB","338431Z1FL1IVIVZ3BK6A6QS21HROA","","147","img/animal2.png","74","148","1","1","1","1,0.7,0,0,1,0.7,0.7,0,1",""
"","html-keyboard-response","254","108703","0.0-254.0","3RYC5T2D74F2225U9D2NOPR6JN6PR4","A16YCPFPGW95OB","338431Z1FL1IVIVZ3BK6A6QS21HROA","","null","<img src=""img/animal2.png"" style=""width:200px; border:14px solid green;"">","null","","","","","",""
"","image-keyboard-response","255","108845","0.0-255.0","3RYC5T2D74F2225U9D2NOPR6JN6PR4","A16YCPFPGW95OB","338431Z1FL1IVIVZ3BK6A6QS21HROA","","142","img/animal6.png","74","143","1","0","3","1,0.7,0,0,1,0.7,0.7,0,1",""
"","html-keyboard-response","256","109147","0.0-256.0","3RYC5T2D74F2225U9D2NOPR6JN6PR4","A16YCPFPGW95OB","338431Z1FL1IVIVZ3BK6A6QS21HROA","","null","<img src=""img/animal6.png"" style=""width:200px;border:14px solid red;"">","null","","","","","",""
"","image-keyboard-response","257","109633","0.0-257.0","3RYC5T2D74F2225U9D2NOPR6JN6PR4","A16YCPFPGW95OB","338431Z1FL1IVIVZ3BK6A6QS21HROA","","486","img/animal6.png","74","486","1","1","3","1,0.7,0,0,1,0.7,0.7,0,1",""
"","html-keyboard-response","258","109936","0.0-258.0","3RYC5T2D74F2225U9D2NOPR6JN6PR4","A16YCPFPGW95OB","338431Z1FL1IVIVZ3BK6A6QS21HROA","","null","<img src=""img/animal6.png"" style=""width:200px; border:14px solid green;"">","null","","","","","",""
"","image-keyboard-response","259","110011","0.0-259.0","3RYC5T2D74F2225U9D2NOPR6JN6PR4","A16YCPFPGW95OB","338431Z1FL1IVIVZ3BK6A6QS21HROA","","74","img/animal2.png","74","75","1","1","1","1,0.7,0,0,1,0.7,0.7,0,1",""
"","html-keyboard-response","260","110312","0.0-260.0","3RYC5T2D74F2225U9D2NOPR6JN6PR4","A16YCPFPGW95OB","338431Z1FL1IVIVZ3BK6A6QS21HROA","","null","<img src=""img/animal2.png"" style=""width:200px; border:14px solid green;"">","null","","","","","",""
"","image-keyboard-response","261","110348","0.0-261.0","3RYC5T2D74F2225U9D2NOPR6JN6PR4","A16YCPFPGW95OB","338431Z1FL1IVIVZ3BK6A6QS21HROA","","36","img/animal2.png","74","36","1","1","1","1,0.7,0,0,1,0.7,0.7,0,1",""
"","html-keyboard-response","262","110650","0.0-262.0","3RYC5T2D74F2225U9D2NOPR6JN6PR4","A16YCPFPGW95OB","338431Z1FL1IVIVZ3BK6A6QS21HROA","","null","<img src=""img/animal2.png"" style=""width:200px; border:14px solid green;"">","null","","","","","",""
"","image-keyboard-response","263","110694","0.0-263.0","3RYC5T2D74F2225U9D2NOPR6JN6PR4","A16YCPFPGW95OB","338431Z1FL1IVIVZ3BK6A6QS21HROA","","44","img/animal5.png","74","44","1","0","2","1,0.7,0,0,1,0.7,0.7,0,1",""
"","html-keyboard-response","264","110995","0.0-264.0","3RYC5T2D74F2225U9D2NOPR6JN6PR4","A16YCPFPGW95OB","338431Z1FL1IVIVZ3BK6A6QS21HROA","","null","<img src=""img/animal5.png"" style=""width:200px;border:14px solid red;"">","null","","","","","",""
"","image-keyboard-response","265","111145","0.0-265.0","3RYC5T2D74F2225U9D2NOPR6JN6PR4","A16YCPFPGW95OB","338431Z1FL1IVIVZ3BK6A6QS21HROA","","147","img/animal6.png","74","150","1","1","3","1,0.7,0,0,1,0.7,0.7,0,1",""
"","html-keyboard-response","266","111447","0.0-266.0","3RYC5T2D74F2225U9D2NOPR6JN6PR4","A16YCPFPGW95OB","338431Z1FL1IVIVZ3BK6A6QS21HROA","","null","<img src=""img/animal6.png"" style=""width:200px; border:14px solid green;"">","null","","","","","",""
"","image-keyboard-response","267","111595","0.0-267.0","3RYC5T2D74F2225U9D2NOPR6JN6PR4","A16YCPFPGW95OB","338431Z1FL1IVIVZ3BK6A6QS21HROA","","148","img/animal6.png","74","148","1","1","3","1,0.7,0,0,1,0.7,0.7,0,1",""
"","html-keyboard-response","268","111896","0.0-268.0","3RYC5T2D74F2225U9D2NOPR6JN6PR4","A16YCPFPGW95OB","338431Z1FL1IVIVZ3BK6A6QS21HROA","","null","<img src=""img/animal6.png"" style=""width:200px; border:14px solid green;"">","null","","","","","",""
"","image-keyboard-response","269","112005","0.0-269.0","3RYC5T2D74F2225U9D2NOPR6JN6PR4","A16YCPFPGW95OB","338431Z1FL1IVIVZ3BK6A6QS21HROA","","107","img/animal2.png","74","108","1","1","1","1,0.7,0,0,1,0.7,0.7,0,1",""
"","html-keyboard-response","270","112308","0.0-270.0","3RYC5T2D74F2225U9D2NOPR6JN6PR4","A16YCPFPGW95OB","338431Z1FL1IVIVZ3BK6A6QS21HROA","","null","<img src=""img/animal2.png"" style=""width:200px; border:14px solid green;"">","null","","","","","",""
"","image-keyboard-response","271","112405","0.0-271.0","3RYC5T2D74F2225U9D2NOPR6JN6PR4","A16YCPFPGW95OB","338431Z1FL1IVIVZ3BK6A6QS21HROA","","96","img/animal6.png","74","97","1","1","3","1,0.7,0,0,1,0.7,0.7,0,1",""
"","html-keyboard-response","272","112707","0.0-272.0","3RYC5T2D74F2225U9D2NOPR6JN6PR4","A16YCPFPGW95OB","338431Z1FL1IVIVZ3BK6A6QS21HROA","","null","<img src=""img/animal6.png"" style=""width:200px; border:14px solid green;"">","null","","","","","",""
"","image-keyboard-response","273","112854","0.0-273.0","3RYC5T2D74F2225U9D2NOPR6JN6PR4","A16YCPFPGW95OB","338431Z1FL1IVIVZ3BK6A6QS21HROA","","147","img/animal5.png","74","147","1","0","2","1,0.7,0,0,1,0.7,0.7,0,1",""
"","html-keyboard-response","274","113158","0.0-274.0","3RYC5T2D74F2225U9D2NOPR6JN6PR4","A16YCPFPGW95OB","338431Z1FL1IVIVZ3BK6A6QS21HROA","","null","<img src=""img/animal5.png"" style=""width:200px;border:14px solid red;"">","null","","","","","",""
"","image-keyboard-response","275","113316","0.0-275.0","3RYC5T2D74F2225U9D2NOPR6JN6PR4","A16YCPFPGW95OB","338431Z1FL1IVIVZ3BK6A6QS21HROA","","158","img/animal6.png","74","158","1","0","3","1,0.7,0,0,1,0.7,0.7,0,1",""
"","html-keyboard-response","276","113617","0.0-276.0","3RYC5T2D74F2225U9D2NOPR6JN6PR4","A16YCPFPGW95OB","338431Z1FL1IVIVZ3BK6A6QS21HROA","","null","<img src=""img/animal6.png"" style=""width:200px;border:14px solid red;"">","null","","","","","",""
"","image-keyboard-response","277","113745","0.0-277.0","3RYC5T2D74F2225U9D2NOPR6JN6PR4","A16YCPFPGW95OB","338431Z1FL1IVIVZ3BK6A6QS21HROA","","127","img/animal5.png","74","128","1","0","2","1,0.7,0,0,1,0.7,0.7,0,1",""
"","html-keyboard-response","278","114048","0.0-278.0","3RYC5T2D74F2225U9D2NOPR6JN6PR4","A16YCPFPGW95OB","338431Z1FL1IVIVZ3BK6A6QS21HROA","","null","<img src=""img/animal5.png"" style=""width:200px;border:14px solid red;"">","null","","","","","",""
"","image-keyboard-response","279","114184","0.0-279.0","3RYC5T2D74F2225U9D2NOPR6JN6PR4","A16YCPFPGW95OB","338431Z1FL1IVIVZ3BK6A6QS21HROA","","136","img/animal5.png","74","136","1","0","2","1,0.7,0,0,1,0.7,0.7,0,1",""
"","html-keyboard-response","280","114486","0.0-280.0","3RYC5T2D74F2225U9D2NOPR6JN6PR4","A16YCPFPGW95OB","338431Z1FL1IVIVZ3BK6A6QS21HROA","","null","<img src=""img/animal5.png"" style=""width:200px;border:14px solid red;"">","null","","","","","",""
"","image-keyboard-response","281","114625","0.0-281.0","3RYC5T2D74F2225U9D2NOPR6JN6PR4","A16YCPFPGW95OB","338431Z1FL1IVIVZ3BK6A6QS21HROA","","138","img/animal6.png","74","139","1","1","3","1,0.7,0,0,1,0.7,0.7,0,1",""
"","html-keyboard-response","282","114926","0.0-282.0","3RYC5T2D74F2225U9D2NOPR6JN6PR4","A16YCPFPGW95OB","338431Z1FL1IVIVZ3BK6A6QS21HROA","","null","<img src=""img/animal6.png"" style=""width:200px; border:14px solid green;"">","null","","","","","",""
"","image-keyboard-response","283","115108","0.0-283.0","3RYC5T2D74F2225U9D2NOPR6JN6PR4","A16YCPFPGW95OB","338431Z1FL1IVIVZ3BK6A6QS21HROA","","182","img/animal2.png","74","182","1","1","1","1,0.7,0,0,1,0.7,0.7,0,1",""
"","html-keyboard-response","284","115409","0.0-284.0","3RYC5T2D74F2225U9D2NOPR6JN6PR4","A16YCPFPGW95OB","338431Z1FL1IVIVZ3BK6A6QS21HROA","","null","<img src=""img/animal2.png"" style=""width:200px; border:14px solid green;"">","null","","","","","",""
"","image-keyboard-response","285","115469","0.0-285.0","3RYC5T2D74F2225U9D2NOPR6JN6PR4","A16YCPFPGW95OB","338431Z1FL1IVIVZ3BK6A6QS21HROA","","60","img/animal6.png","74","60","1","1","3","1,0.7,0,0,1,0.7,0.7,0,1",""
"","html-keyboard-response","286","115771","0.0-286.0","3RYC5T2D74F2225U9D2NOPR6JN6PR4","A16YCPFPGW95OB","338431Z1FL1IVIVZ3BK6A6QS21HROA","","null","<img src=""img/animal6.png"" style=""width:200px; border:14px solid green;"">","null","","","","","",""
"","image-keyboard-response","287","115938","0.0-287.0","3RYC5T2D74F2225U9D2NOPR6JN6PR4","A16YCPFPGW95OB","338431Z1FL1IVIVZ3BK6A6QS21HROA","","166","img/animal5.png","74","167","1","0","2","1,0.7,0,0,1,0.7,0.7,0,1",""
"","html-keyboard-response","288","116343","0.0-288.0","3RYC5T2D74F2225U9D2NOPR6JN6PR4","A16YCPFPGW95OB","338431Z1FL1IVIVZ3BK6A6QS21HROA","","null","<img src=""img/animal5.png"" style=""width:200px;border:14px solid red;"">","null","","","","","",""
"","image-keyboard-response","289","116377","0.0-289.0","3RYC5T2D74F2225U9D2NOPR6JN6PR4","A16YCPFPGW95OB","338431Z1FL1IVIVZ3BK6A6QS21HROA","","34","img/animal6.png","74","34","1","1","3","1,0.7,0,0,1,0.7,0.7,0,1",""
"","html-keyboard-response","290","116678","0.0-290.0","3RYC5T2D74F2225U9D2NOPR6JN6PR4","A16YCPFPGW95OB","338431Z1FL1IVIVZ3BK6A6QS21HROA","","null","<img src=""img/animal6.png"" style=""width:200px; border:14px solid green;"">","null","","","","","",""
"","image-keyboard-response","291","116825","0.0-291.0","3RYC5T2D74F2225U9D2NOPR6JN6PR4","A16YCPFPGW95OB","338431Z1FL1IVIVZ3BK6A6QS21HROA","","147","img/animal6.png","74","147","1","1","3","1,0.7,0,0,1,0.7,0.7,0,1",""
"","html-keyboard-response","292","117126","0.0-292.0","3RYC5T2D74F2225U9D2NOPR6JN6PR4","A16YCPFPGW95OB","338431Z1FL1IVIVZ3BK6A6QS21HROA","","null","<img src=""img/animal6.png"" style=""width:200px; border:14px solid green;"">","null","","","","","",""
"","image-keyboard-response","293","117250","0.0-293.0","3RYC5T2D74F2225U9D2NOPR6JN6PR4","A16YCPFPGW95OB","338431Z1FL1IVIVZ3BK6A6QS21HROA","","123","img/animal2.png","74","123","1","1","1","1,0.7,0,0,1,0.7,0.7,0,1",""
"","html-keyboard-response","294","117552","0.0-294.0","3RYC5T2D74F2225U9D2NOPR6JN6PR4","A16YCPFPGW95OB","338431Z1FL1IVIVZ3BK6A6QS21HROA","","null","<img src=""img/animal2.png"" style=""width:200px; border:14px solid green;"">","null","","","","","",""
"","image-keyboard-response","295","117693","0.0-295.0","3RYC5T2D74F2225U9D2NOPR6JN6PR4","A16YCPFPGW95OB","338431Z1FL1IVIVZ3BK6A6QS21HROA","","141","img/animal5.png","74","141","1","0","2","1,0.7,0,0,1,0.7,0.7,0,1",""
"","html-keyboard-response","296","118039","0.0-296.0","3RYC5T2D74F2225U9D2NOPR6JN6PR4","A16YCPFPGW95OB","338431Z1FL1IVIVZ3BK6A6QS21HROA","","null","<img src=""img/animal5.png"" style=""width:200px;border:14px solid red;"">","null","","","","","",""
"","image-keyboard-response","297","118123","0.0-297.0","3RYC5T2D74F2225U9D2NOPR6JN6PR4","A16YCPFPGW95OB","338431Z1FL1IVIVZ3BK6A6QS21HROA","","83","img/animal6.png","74","84","1","1","3","1,0.7,0,0,1,0.7,0.7,0,1",""
"","html-keyboard-response","298","118424","0.0-298.0","3RYC5T2D74F2225U9D2NOPR6JN6PR4","A16YCPFPGW95OB","338431Z1FL1IVIVZ3BK6A6QS21HROA","","null","<img src=""img/animal6.png"" style=""width:200px; border:14px solid green;"">","null","","","","","",""
"","image-keyboard-response","299","118567","0.0-299.0","3RYC5T2D74F2225U9D2NOPR6JN6PR4","A16YCPFPGW95OB","338431Z1FL1IVIVZ3BK6A6QS21HROA","","143","img/animal2.png","74","143","1","1","1","1,0.7,0,0,1,0.7,0.7,0,1",""
"","html-keyboard-response","300","118868","0.0-300.0","3RYC5T2D74F2225U9D2NOPR6JN6PR4","A16YCPFPGW95OB","338431Z1FL1IVIVZ3BK6A6QS21HROA","","null","<img src=""img/animal2.png"" style=""width:200px; border:14px solid green;"">","null","","","","","",""
"","image-keyboard-response","301","119039","0.0-301.0","3RYC5T2D74F2225U9D2NOPR6JN6PR4","A16YCPFPGW95OB","338431Z1FL1IVIVZ3BK6A6QS21HROA","","170","img/animal6.png","74","171","1","0","3","1,0.7,0,0,1,0.7,0.7,0,1",""
"","html-keyboard-response","302","119340","0.0-302.0","3RYC5T2D74F2225U9D2NOPR6JN6PR4","A16YCPFPGW95OB","338431Z1FL1IVIVZ3BK6A6QS21HROA","","null","<img src=""img/animal6.png"" style=""width:200px;border:14px solid red;"">","null","","","","","",""
"","image-keyboard-response","303","119448","0.0-303.0","3RYC5T2D74F2225U9D2NOPR6JN6PR4","A16YCPFPGW95OB","338431Z1FL1IVIVZ3BK6A6QS21HROA","","107","img/animal2.png","74","108","1","1","1","1,0.7,0,0,1,0.7,0.7,0,1",""
"","html-keyboard-response","304","119749","0.0-304.0","3RYC5T2D74F2225U9D2NOPR6JN6PR4","A16YCPFPGW95OB","338431Z1FL1IVIVZ3BK6A6QS21HROA","","null","<img src=""img/animal2.png"" style=""width:200px; border:14px solid green;"">","null","","","","","",""
"","image-keyboard-response","305","119915","0.0-305.0","3RYC5T2D74F2225U9D2NOPR6JN6PR4","A16YCPFPGW95OB","338431Z1FL1IVIVZ3BK6A6QS21HROA","","166","img/animal5.png","74","166","1","0","2","1,0.7,0,0,1,0.7,0.7,0,1",""
"","html-keyboard-response","306","120217","0.0-306.0","3RYC5T2D74F2225U9D2NOPR6JN6PR4","A16YCPFPGW95OB","338431Z1FL1IVIVZ3BK6A6QS21HROA","","null","<img src=""img/animal5.png"" style=""width:200px;border:14px solid red;"">","null","","","","","",""
"","image-keyboard-response","307","120365","0.0-307.0","3RYC5T2D74F2225U9D2NOPR6JN6PR4","A16YCPFPGW95OB","338431Z1FL1IVIVZ3BK6A6QS21HROA","","148","img/animal6.png","74","148","1","1","3","1,0.7,0,0,1,0.7,0.7,0,1",""
"","html-keyboard-response","308","120666","0.0-308.0","3RYC5T2D74F2225U9D2NOPR6JN6PR4","A16YCPFPGW95OB","338431Z1FL1IVIVZ3BK6A6QS21HROA","","null","<img src=""img/animal6.png"" style=""width:200px; border:14px solid green;"">","null","","","","","",""
"","image-keyboard-response","309","120803","0.0-309.0","3RYC5T2D74F2225U9D2NOPR6JN6PR4","A16YCPFPGW95OB","338431Z1FL1IVIVZ3BK6A6QS21HROA","","137","img/animal5.png","74","137","1","0","2","1,0.7,0,0,1,0.7,0.7,0,1",""
"","html-keyboard-response","310","121105","0.0-310.0","3RYC5T2D74F2225U9D2NOPR6JN6PR4","A16YCPFPGW95OB","338431Z1FL1IVIVZ3BK6A6QS21HROA","","null","<img src=""img/animal5.png"" style=""width:200px;border:14px solid red;"">","null","","","","","",""
"","image-keyboard-response","311","121258","0.0-311.0","3RYC5T2D74F2225U9D2NOPR6JN6PR4","A16YCPFPGW95OB","338431Z1FL1IVIVZ3BK6A6QS21HROA","","152","img/animal2.png","74","153","1","1","1","1,0.7,0,0,1,0.7,0.7,0,1",""
"","html-keyboard-response","312","121559","0.0-312.0","3RYC5T2D74F2225U9D2NOPR6JN6PR4","A16YCPFPGW95OB","338431Z1FL1IVIVZ3BK6A6QS21HROA","","null","<img src=""img/animal2.png"" style=""width:200px; border:14px solid green;"">","null","","","","","",""
"","image-keyboard-response","313","121692","0.0-313.0","3RYC5T2D74F2225U9D2NOPR6JN6PR4","A16YCPFPGW95OB","338431Z1FL1IVIVZ3BK6A6QS21HROA","","133","img/animal2.png","74","134","1","1","1","1,0.7,0,0,1,0.7,0.7,0,1",""
"","html-keyboard-response","314","121993","0.0-314.0","3RYC5T2D74F2225U9D2NOPR6JN6PR4","A16YCPFPGW95OB","338431Z1FL1IVIVZ3BK6A6QS21HROA","","null","<img src=""img/animal2.png"" style=""width:200px; border:14px solid green;"">","null","","","","","",""
"","image-keyboard-response","315","122165","0.0-315.0","3RYC5T2D74F2225U9D2NOPR6JN6PR4","A16YCPFPGW95OB","338431Z1FL1IVIVZ3BK6A6QS21HROA","","172","img/animal6.png","74","172","1","0","3","1,0.7,0,0,1,0.7,0.7,0,1",""
"","html-keyboard-response","316","122466","0.0-316.0","3RYC5T2D74F2225U9D2NOPR6JN6PR4","A16YCPFPGW95OB","338431Z1FL1IVIVZ3BK6A6QS21HROA","","null","<img src=""img/animal6.png"" style=""width:200px;border:14px solid red;"">","null","","","","","",""
"","image-keyboard-response","317","122629","0.0-317.0","3RYC5T2D74F2225U9D2NOPR6JN6PR4","A16YCPFPGW95OB","338431Z1FL1IVIVZ3BK6A6QS21HROA","","162","img/animal2.png","74","162","1","1","1","1,0.7,0,0,1,0.7,0.7,0,1",""
"","html-keyboard-response","318","122930","0.0-318.0","3RYC5T2D74F2225U9D2NOPR6JN6PR4","A16YCPFPGW95OB","338431Z1FL1IVIVZ3BK6A6QS21HROA","","null","<img src=""img/animal2.png"" style=""width:200px; border:14px solid green;"">","null","","","","","",""
"","image-keyboard-response","319","123164","0.0-319.0","3RYC5T2D74F2225U9D2NOPR6JN6PR4","A16YCPFPGW95OB","338431Z1FL1IVIVZ3BK6A6QS21HROA","","234","img/animal2.png","74","234","1","1","1","1,0.7,0,0,1,0.7,0.7,0,1",""
"","html-keyboard-response","320","123465","0.0-320.0","3RYC5T2D74F2225U9D2NOPR6JN6PR4","A16YCPFPGW95OB","338431Z1FL1IVIVZ3BK6A6QS21HROA","","null","<img src=""img/animal2.png"" style=""width:200px; border:14px solid green;"">","null","","","","","",""
"","image-keyboard-response","321","123569","0.0-321.0","3RYC5T2D74F2225U9D2NOPR6JN6PR4","A16YCPFPGW95OB","338431Z1FL1IVIVZ3BK6A6QS21HROA","","103","img/animal6.png","74","105","1","1","3","1,0.7,0,0,1,0.7,0.7,0,1",""
"","html-keyboard-response","322","123870","0.0-322.0","3RYC5T2D74F2225U9D2NOPR6JN6PR4","A16YCPFPGW95OB","338431Z1FL1IVIVZ3BK6A6QS21HROA","","null","<img src=""img/animal6.png"" style=""width:200px; border:14px solid green;"">","null","","","","","",""
"","image-keyboard-response","323","124032","0.0-323.0","3RYC5T2D74F2225U9D2NOPR6JN6PR4","A16YCPFPGW95OB","338431Z1FL1IVIVZ3BK6A6QS21HROA","","161","img/animal2.png","74","161","1","1","1","1,0.7,0,0,1,0.7,0.7,0,1",""
"","html-keyboard-response","324","124334","0.0-324.0","3RYC5T2D74F2225U9D2NOPR6JN6PR4","A16YCPFPGW95OB","338431Z1FL1IVIVZ3BK6A6QS21HROA","","null","<img src=""img/animal2.png"" style=""width:200px; border:14px solid green;"">","null","","","","","",""
"","image-keyboard-response","325","124456","0.0-325.0","3RYC5T2D74F2225U9D2NOPR6JN6PR4","A16YCPFPGW95OB","338431Z1FL1IVIVZ3BK6A6QS21HROA","","121","img/animal5.png","74","121","1","0","2","1,0.7,0,0,1,0.7,0.7,0,1",""
"","html-keyboard-response","326","124758","0.0-326.0","3RYC5T2D74F2225U9D2NOPR6JN6PR4","A16YCPFPGW95OB","338431Z1FL1IVIVZ3BK6A6QS21HROA","","null","<img src=""img/animal5.png"" style=""width:200px;border:14px solid red;"">","null","","","","","",""
"","image-keyboard-response","327","124914","0.0-327.0","3RYC5T2D74F2225U9D2NOPR6JN6PR4","A16YCPFPGW95OB","338431Z1FL1IVIVZ3BK6A6QS21HROA","","156","img/animal2.png","74","156","1","1","1","1,0.7,0,0,1,0.7,0.7,0,1",""
"","html-keyboard-response","328","125216","0.0-328.0","3RYC5T2D74F2225U9D2NOPR6JN6PR4","A16YCPFPGW95OB","338431Z1FL1IVIVZ3BK6A6QS21HROA","","null","<img src=""img/animal2.png"" style=""width:200px; border:14px solid green;"">","null","","","","","",""
"","image-keyboard-response","329","125390","0.0-329.0","3RYC5T2D74F2225U9D2NOPR6JN6PR4","A16YCPFPGW95OB","338431Z1FL1IVIVZ3BK6A6QS21HROA","","173","img/animal5.png","74","174","1","0","2","1,0.7,0,0,1,0.7,0.7,0,1",""
"","html-keyboard-response","330","125690","0.0-330.0","3RYC5T2D74F2225U9D2NOPR6JN6PR4","A16YCPFPGW95OB","338431Z1FL1IVIVZ3BK6A6QS21HROA","","null","<img src=""img/animal5.png"" style=""width:200px;border:14px solid red;"">","null","","","","","",""
"","image-keyboard-response","331","125855","0.0-331.0","3RYC5T2D74F2225U9D2NOPR6JN6PR4","A16YCPFPGW95OB","338431Z1FL1IVIVZ3BK6A6QS21HROA","","165","img/animal5.png","74","165","1","0","2","1,0.7,0,0,1,0.7,0.7,0,1",""
"","html-keyboard-response","332","126157","0.0-332.0","3RYC5T2D74F2225U9D2NOPR6JN6PR4","A16YCPFPGW95OB","338431Z1FL1IVIVZ3BK6A6QS21HROA","","null","<img src=""img/animal5.png"" style=""width:200px;border:14px solid red;"">","null","","","","","",""
"","image-keyboard-response","333","126298","0.0-333.0","3RYC5T2D74F2225U9D2NOPR6JN6PR4","A16YCPFPGW95OB","338431Z1FL1IVIVZ3BK6A6QS21HROA","","141","img/animal6.png","74","141","1","0","3","1,0.7,0,0,1,0.7,0.7,0,1",""
"","html-keyboard-response","334","126599","0.0-334.0","3RYC5T2D74F2225U9D2NOPR6JN6PR4","A16YCPFPGW95OB","338431Z1FL1IVIVZ3BK6A6QS21HROA","","null","<img src=""img/animal6.png"" style=""width:200px;border:14px solid red;"">","null","","","","","",""
"","image-keyboard-response","335","126748","0.0-335.0","3RYC5T2D74F2225U9D2NOPR6JN6PR4","A16YCPFPGW95OB","338431Z1FL1IVIVZ3BK6A6QS21HROA","","149","img/animal2.png","74","150","1","1","1","1,0.7,0,0,1,0.7,0.7,0,1",""
"","html-keyboard-response","336","127055","0.0-336.0","3RYC5T2D74F2225U9D2NOPR6JN6PR4","A16YCPFPGW95OB","338431Z1FL1IVIVZ3BK6A6QS21HROA","","null","<img src=""img/animal2.png"" style=""width:200px; border:14px solid green;"">","null","","","","","",""
"","image-keyboard-response","337","127112","0.0-337.0","3RYC5T2D74F2225U9D2NOPR6JN6PR4","A16YCPFPGW95OB","338431Z1FL1IVIVZ3BK6A6QS21HROA","","57","img/animal5.png","74","57","1","0","2","1,0.7,0,0,1,0.7,0.7,0,1",""
"","html-keyboard-response","338","127414","0.0-338.0","3RYC5T2D74F2225U9D2NOPR6JN6PR4","A16YCPFPGW95OB","338431Z1FL1IVIVZ3BK6A6QS21HROA","","null","<img src=""img/animal5.png"" style=""width:200px;border:14px solid red;"">","null","","","","","",""
"","image-keyboard-response","339","127453","0.0-339.0","3RYC5T2D74F2225U9D2NOPR6JN6PR4","A16YCPFPGW95OB","338431Z1FL1IVIVZ3BK6A6QS21HROA","","37","img/animal6.png","74","39","1","1","3","1,0.7,0,0,1,0.7,0.7,0,1",""
"","html-keyboard-response","340","127756","0.0-340.0","3RYC5T2D74F2225U9D2NOPR6JN6PR4","A16YCPFPGW95OB","338431Z1FL1IVIVZ3BK6A6QS21HROA","","null","<img src=""img/animal6.png"" style=""width:200px; border:14px solid green;"">","null","","","","","",""
"","image-keyboard-response","341","127923","0.0-341.0","3RYC5T2D74F2225U9D2NOPR6JN6PR4","A16YCPFPGW95OB","338431Z1FL1IVIVZ3BK6A6QS21HROA","","167","img/animal2.png","74","167","1","1","1","1,0.7,0,0,1,0.7,0.7,0,1",""
"","html-keyboard-response","342","128224","0.0-342.0","3RYC5T2D74F2225U9D2NOPR6JN6PR4","A16YCPFPGW95OB","338431Z1FL1IVIVZ3BK6A6QS21HROA","","null","<img src=""img/animal2.png"" style=""width:200px; border:14px solid green;"">","null","","","","","",""
"","image-keyboard-response","343","128326","0.0-343.0","3RYC5T2D74F2225U9D2NOPR6JN6PR4","A16YCPFPGW95OB","338431Z1FL1IVIVZ3BK6A6QS21HROA","","100","img/animal2.png","74","101","1","1","1","1,0.7,0,0,1,0.7,0.7,0,1",""
"","html-keyboard-response","344","128627","0.0-344.0","3RYC5T2D74F2225U9D2NOPR6JN6PR4","A16YCPFPGW95OB","338431Z1FL1IVIVZ3BK6A6QS21HROA","","null","<img src=""img/animal2.png"" style=""width:200px; border:14px solid green;"">","null","","","","","",""
"","image-keyboard-response","345","128826","0.0-345.0","3RYC5T2D74F2225U9D2NOPR6JN6PR4","A16YCPFPGW95OB","338431Z1FL1IVIVZ3BK6A6QS21HROA","","198","img/animal2.png","74","199","1","1","1","1,0.7,0,0,1,0.7,0.7,0,1",""
"","html-keyboard-response","346","129128","0.0-346.0","3RYC5T2D74F2225U9D2NOPR6JN6PR4","A16YCPFPGW95OB","338431Z1FL1IVIVZ3BK6A6QS21HROA","","null","<img src=""img/animal2.png"" style=""width:200px; border:14px solid green;"">","null","","","","","",""
"","image-keyboard-response","347","129284","0.0-347.0","3RYC5T2D74F2225U9D2NOPR6JN6PR4","A16YCPFPGW95OB","338431Z1FL1IVIVZ3BK6A6QS21HROA","","155","img/animal6.png","74","157","1","0","3","1,0.7,0,0,1,0.7,0.7,0,1",""
"","html-keyboard-response","348","129586","0.0-348.0","3RYC5T2D74F2225U9D2NOPR6JN6PR4","A16YCPFPGW95OB","338431Z1FL1IVIVZ3BK6A6QS21HROA","","null","<img src=""img/animal6.png"" style=""width:200px;border:14px solid red;"">","null","","","","","",""
"","image-keyboard-response","349","129773","0.0-349.0","3RYC5T2D74F2225U9D2NOPR6JN6PR4","A16YCPFPGW95OB","338431Z1FL1IVIVZ3BK6A6QS21HROA","","186","img/animal6.png","74","186","1","0","3","1,0.7,0,0,1,0.7,0.7,0,1",""
"","html-keyboard-response","350","130075","0.0-350.0","3RYC5T2D74F2225U9D2NOPR6JN6PR4","A16YCPFPGW95OB","338431Z1FL1IVIVZ3BK6A6QS21HROA","","null","<img src=""img/animal6.png"" style=""width:200px;border:14px solid red;"">","null","","","","","",""
"","image-keyboard-response","351","130225","0.0-351.0","3RYC5T2D74F2225U9D2NOPR6JN6PR4","A16YCPFPGW95OB","338431Z1FL1IVIVZ3BK6A6QS21HROA","","150","img/animal6.png","74","150","1","1","3","1,0.7,0,0,1,0.7,0.7,0,1",""
"","html-keyboard-response","352","130526","0.0-352.0","3RYC5T2D74F2225U9D2NOPR6JN6PR4","A16YCPFPGW95OB","338431Z1FL1IVIVZ3BK6A6QS21HROA","","null","<img src=""img/animal6.png"" style=""width:200px; border:14px solid green;"">","null","","","","","",""
"","image-keyboard-response","353","130729","0.0-353.0","3RYC5T2D74F2225U9D2NOPR6JN6PR4","A16YCPFPGW95OB","338431Z1FL1IVIVZ3BK6A6QS21HROA","","201","img/animal5.png","74","203","1","0","2","1,0.7,0,0,1,0.7,0.7,0,1",""
"","html-keyboard-response","354","131031","0.0-354.0","3RYC5T2D74F2225U9D2NOPR6JN6PR4","A16YCPFPGW95OB","338431Z1FL1IVIVZ3BK6A6QS21HROA","","null","<img src=""img/animal5.png"" style=""width:200px;border:14px solid red;"">","null","","","","","",""
"","image-keyboard-response","355","131196","0.0-355.0","3RYC5T2D74F2225U9D2NOPR6JN6PR4","A16YCPFPGW95OB","338431Z1FL1IVIVZ3BK6A6QS21HROA","","165","img/animal2.png","74","165","1","1","1","1,0.7,0,0,1,0.7,0.7,0,1",""
"","html-keyboard-response","356","131498","0.0-356.0","3RYC5T2D74F2225U9D2NOPR6JN6PR4","A16YCPFPGW95OB","338431Z1FL1IVIVZ3BK6A6QS21HROA","","null","<img src=""img/animal2.png"" style=""width:200px; border:14px solid green;"">","null","","","","","",""
"","image-keyboard-response","357","131653","0.0-357.0","3RYC5T2D74F2225U9D2NOPR6JN6PR4","A16YCPFPGW95OB","338431Z1FL1IVIVZ3BK6A6QS21HROA","","154","img/animal2.png","74","154","1","1","1","1,0.7,0,0,1,0.7,0.7,0,1",""
"","html-keyboard-response","358","131955","0.0-358.0","3RYC5T2D74F2225U9D2NOPR6JN6PR4","A16YCPFPGW95OB","338431Z1FL1IVIVZ3BK6A6QS21HROA","","null","<img src=""img/animal2.png"" style=""width:200px; border:14px solid green;"">","null","","","","","",""
"","image-keyboard-response","359","132085","0.0-359.0","3RYC5T2D74F2225U9D2NOPR6JN6PR4","A16YCPFPGW95OB","338431Z1FL1IVIVZ3BK6A6QS21HROA","","129","img/animal2.png","74","130","1","1","1","1,0.7,0,0,1,0.7,0.7,0,1",""
"","html-keyboard-response","360","132386","0.0-360.0","3RYC5T2D74F2225U9D2NOPR6JN6PR4","A16YCPFPGW95OB","338431Z1FL1IVIVZ3BK6A6QS21HROA","","null","<img src=""img/animal2.png"" style=""width:200px; border:14px solid green;"">","null","","","","","",""
"","image-keyboard-response","361","132585","0.0-361.0","3RYC5T2D74F2225U9D2NOPR6JN6PR4","A16YCPFPGW95OB","338431Z1FL1IVIVZ3BK6A6QS21HROA","","198","img/animal5.png","74","199","1","0","2","1,0.7,0,0,1,0.7,0.7,0,1",""
"","html-keyboard-response","362","132887","0.0-362.0","3RYC5T2D74F2225U9D2NOPR6JN6PR4","A16YCPFPGW95OB","338431Z1FL1IVIVZ3BK6A6QS21HROA","","null","<img src=""img/animal5.png"" style=""width:200px;border:14px solid red;"">","null","","","","","",""
"","instructions","363","135999","0.0-363.0","3RYC5T2D74F2225U9D2NOPR6JN6PR4","A16YCPFPGW95OB","338431Z1FL1IVIVZ3BK6A6QS21HROA","[{""page_index"":0,""viewing_time"":3112}]","3112","","","","","","","",""
"","survey-text","364","141131","0.0-364.0","3RYC5T2D74F2225U9D2NOPR6JN6PR4","A16YCPFPGW95OB","338431Z1FL1IVIVZ3BK6A6QS21HROA","","5129","","","","","","","","{""Q0"":""A16YCPFPGW95OB""}"
