"success","trial_type","trial_index","time_elapsed","internal_node_id","assignmentID","mturkID","hitID","view_history","rt","stimulus","key_press","reactionTime","a","r","s","reward_cond","responses"
"true","fullscreen","0","2746","0.0-0.0","3WQQ9FUS6BGUG3PORZEM2ORCCR3B8T","A1AYQ8E01NSY5Z","3VJ4PFXFJ3TL96TFXMATEMT7KJHUAI","","","","","","","","","",""
"","instructions","1","13079","0.0-1.0","3WQQ9FUS6BGUG3PORZEM2ORCCR3B8T","A1AYQ8E01NSY5Z","3VJ4PFXFJ3TL96TFXMATEMT7KJHUAI","[{""page_index"":0,""viewing_time"":1088},{""page_index"":1,""viewing_time"":1761},{""page_index"":2,""viewing_time"":666},{""page_index"":3,""viewing_time"":1280},{""page_index"":4,""viewing_time"":1315},{""page_index"":5,""viewing_time"":1465},{""page_index"":6,""viewing_time"":1146},{""page_index"":7,""viewing_time"":1610}]","10331","","","","","","","",""
"","image-keyboard-response","2","14356","0.0-2.0","3WQQ9FUS6BGUG3PORZEM2ORCCR3B8T","A1AYQ8E01NSY5Z","3VJ4PFXFJ3TL96TFXMATEMT7KJHUAI","","1274","img/animal4.png","74","1276","1","0","2","1,0.7,0,0,1,0.7,0.7,0,1",""
"","html-keyboard-response","3","14668","0.0-3.0","3WQQ9FUS6BGUG3PORZEM2ORCCR3B8T","A1AYQ8E01NSY5Z","3VJ4PFXFJ3TL96TFXMATEMT7KJHUAI","","null","<img src=""img/animal4.png"" style=""width:200px;border:14px solid red;"">","null","","","","","",""
"","image-keyboard-response","4","15309","0.0-4.0","3WQQ9FUS6BGUG3PORZEM2ORCCR3B8T","A1AYQ8E01NSY5Z","3VJ4PFXFJ3TL96TFXMATEMT7KJHUAI","","637","img/animal2.png","75","640","2","0","1","1,0.7,0,0,1,0.7,0.7,0,1",""
"","html-keyboard-response","5","15621","0.0-5.0","3WQQ9FUS6BGUG3PORZEM2ORCCR3B8T","A1AYQ8E01NSY5Z","3VJ4PFXFJ3TL96TFXMATEMT7KJHUAI","","null","<img src=""img/animal2.png"" style=""width:200px;border:14px solid red;"">","null","","","","","",""
"","image-keyboard-response","6","16156","0.0-6.0","3WQQ9FUS6BGUG3PORZEM2ORCCR3B8T","A1AYQ8E01NSY5Z","3VJ4PFXFJ3TL96TFXMATEMT7KJHUAI","","533","img/animal5.png","76","535","3","1","3","1,0.7,0,0,1,0.7,0.7,0,1",""
"","html-keyboard-response","7","16462","0.0-7.0","3WQQ9FUS6BGUG3PORZEM2ORCCR3B8T","A1AYQ8E01NSY5Z","3VJ4PFXFJ3TL96TFXMATEMT7KJHUAI","","null","<img src=""img/animal5.png"" style=""width:200px; border:14px solid green;"">","null","","","","","",""
"","image-keyboard-response","8","17156","0.0-8.0","3WQQ9FUS6BGUG3PORZEM2ORCCR3B8T","A1AYQ8E01NSY5Z","3VJ4PFXFJ3TL96TFXMATEMT7KJHUAI","","692","img/animal2.png","75","694","2","1","1","1,0.7,0,0,1,0.7,0.7,0,1",""
"","html-keyboard-response","9","17462","0.0-9.0","3WQQ9FUS6BGUG3PORZEM2ORCCR3B8T","A1AYQ8E01NSY5Z","3VJ4PFXFJ3TL96TFXMATEMT7KJHUAI","","null","<img src=""img/animal2.png"" style=""width:200px; border:14px solid green;"">","null","","","","","",""
"","image-keyboard-response","10","18085","0.0-10.0","3WQQ9FUS6BGUG3PORZEM2ORCCR3B8T","A1AYQ8E01NSY5Z","3VJ4PFXFJ3TL96TFXMATEMT7KJHUAI","","621","img/animal5.png","74","623","1","1","3","1,0.7,0,0,1,0.7,0.7,0,1",""
"","html-keyboard-response","11","18396","0.0-11.0","3WQQ9FUS6BGUG3PORZEM2ORCCR3B8T","A1AYQ8E01NSY5Z","3VJ4PFXFJ3TL96TFXMATEMT7KJHUAI","","null","<img src=""img/animal5.png"" style=""width:200px; border:14px solid green;"">","null","","","","","",""
"","image-keyboard-response","12","19028","0.0-12.0","3WQQ9FUS6BGUG3PORZEM2ORCCR3B8T","A1AYQ8E01NSY5Z","3VJ4PFXFJ3TL96TFXMATEMT7KJHUAI","","630","img/animal5.png","74","631","1","1","3","1,0.7,0,0,1,0.7,0.7,0,1",""
"","html-keyboard-response","13","19337","0.0-13.0","3WQQ9FUS6BGUG3PORZEM2ORCCR3B8T","A1AYQ8E01NSY5Z","3VJ4PFXFJ3TL96TFXMATEMT7KJHUAI","","null","<img src=""img/animal5.png"" style=""width:200px; border:14px solid green;"">","null","","","","","",""
"","image-keyboard-response","14","20228","0.0-14.0","3WQQ9FUS6BGUG3PORZEM2ORCCR3B8T","A1AYQ8E01NSY5Z","3VJ4PFXFJ3TL96TFXMATEMT7KJHUAI","","889","img/animal2.png","75","892","2","1","1","1,0.7,0,0,1,0.7,0.7,0,1",""
"","html-keyboard-response","15","20540","0.0-15.0","3WQQ9FUS6BGUG3PORZEM2ORCCR3B8T","A1AYQ8E01NSY5Z","3VJ4PFXFJ3TL96TFXMATEMT7KJHUAI","","null","<img src=""img/animal2.png"" style=""width:200px; border:14px solid green;"">","null","","","","","",""
"","image-keyboard-response","16","21027","0.0-16.0","3WQQ9FUS6BGUG3PORZEM2ORCCR3B8T","A1AYQ8E01NSY5Z","3VJ4PFXFJ3TL96TFXMATEMT7KJHUAI","","485","img/animal2.png","75","486","2","1","1","1,0.7,0,0,1,0.7,0.7,0,1",""
"","html-keyboard-response","17","21339","0.0-17.0","3WQQ9FUS6BGUG3PORZEM2ORCCR3B8T","A1AYQ8E01NSY5Z","3VJ4PFXFJ3TL96TFXMATEMT7KJHUAI","","null","<img src=""img/animal2.png"" style=""width:200px; border:14px solid green;"">","null","","","","","",""
"","image-keyboard-response","18","22038","0.0-18.0","3WQQ9FUS6BGUG3PORZEM2ORCCR3B8T","A1AYQ8E01NSY5Z","3VJ4PFXFJ3TL96TFXMATEMT7KJHUAI","","696","img/animal4.png","76","698","3","1","2","1,0.7,0,0,1,0.7,0.7,0,1",""
"","html-keyboard-response","19","22342","0.0-19.0","3WQQ9FUS6BGUG3PORZEM2ORCCR3B8T","A1AYQ8E01NSY5Z","3VJ4PFXFJ3TL96TFXMATEMT7KJHUAI","","null","<img src=""img/animal4.png"" style=""width:200px; border:14px solid green;"">","null","","","","","",""
"","image-keyboard-response","20","23007","0.0-20.0","3WQQ9FUS6BGUG3PORZEM2ORCCR3B8T","A1AYQ8E01NSY5Z","3VJ4PFXFJ3TL96TFXMATEMT7KJHUAI","","662","img/animal5.png","74","664","1","0","3","1,0.7,0,0,1,0.7,0.7,0,1",""
"","html-keyboard-response","21","23320","0.0-21.0","3WQQ9FUS6BGUG3PORZEM2ORCCR3B8T","A1AYQ8E01NSY5Z","3VJ4PFXFJ3TL96TFXMATEMT7KJHUAI","","null","<img src=""img/animal5.png"" style=""width:200px;border:14px solid red;"">","null","","","","","",""
"","image-keyboard-response","22","23955","0.0-22.0","3WQQ9FUS6BGUG3PORZEM2ORCCR3B8T","A1AYQ8E01NSY5Z","3VJ4PFXFJ3TL96TFXMATEMT7KJHUAI","","633","img/animal4.png","75","635","2","1","2","1,0.7,0,0,1,0.7,0.7,0,1",""
"","html-keyboard-response","23","24260","0.0-23.0","3WQQ9FUS6BGUG3PORZEM2ORCCR3B8T","A1AYQ8E01NSY5Z","3VJ4PFXFJ3TL96TFXMATEMT7KJHUAI","","null","<img src=""img/animal4.png"" style=""width:200px; border:14px solid green;"">","null","","","","","",""
"","image-keyboard-response","24","24797","0.0-24.0","3WQQ9FUS6BGUG3PORZEM2ORCCR3B8T","A1AYQ8E01NSY5Z","3VJ4PFXFJ3TL96TFXMATEMT7KJHUAI","","536","img/animal2.png","75","536","2","1","1","1,0.7,0,0,1,0.7,0.7,0,1",""
"","html-keyboard-response","25","25101","0.0-25.0","3WQQ9FUS6BGUG3PORZEM2ORCCR3B8T","A1AYQ8E01NSY5Z","3VJ4PFXFJ3TL96TFXMATEMT7KJHUAI","","null","<img src=""img/animal2.png"" style=""width:200px; border:14px solid green;"">","null","","","","","",""
"","image-keyboard-response","26","25590","0.0-26.0","3WQQ9FUS6BGUG3PORZEM2ORCCR3B8T","A1AYQ8E01NSY5Z","3VJ4PFXFJ3TL96TFXMATEMT7KJHUAI","","487","img/animal5.png","75","488","2","0","3","1,0.7,0,0,1,0.7,0.7,0,1",""
"","html-keyboard-response","27","25897","0.0-27.0","3WQQ9FUS6BGUG3PORZEM2ORCCR3B8T","A1AYQ8E01NSY5Z","3VJ4PFXFJ3TL96TFXMATEMT7KJHUAI","","null","<img src=""img/animal5.png"" style=""width:200px;border:14px solid red;"">","null","","","","","",""
"","image-keyboard-response","28","26468","0.0-28.0","3WQQ9FUS6BGUG3PORZEM2ORCCR3B8T","A1AYQ8E01NSY5Z","3VJ4PFXFJ3TL96TFXMATEMT7KJHUAI","","569","img/animal5.png","74","570","1","1","3","1,0.7,0,0,1,0.7,0.7,0,1",""
"","html-keyboard-response","29","26771","0.0-29.0","3WQQ9FUS6BGUG3PORZEM2ORCCR3B8T","A1AYQ8E01NSY5Z","3VJ4PFXFJ3TL96TFXMATEMT7KJHUAI","","null","<img src=""img/animal5.png"" style=""width:200px; border:14px solid green;"">","null","","","","","",""
"","image-keyboard-response","30","27211","0.0-30.0","3WQQ9FUS6BGUG3PORZEM2ORCCR3B8T","A1AYQ8E01NSY5Z","3VJ4PFXFJ3TL96TFXMATEMT7KJHUAI","","439","img/animal5.png","74","441","1","0","3","1,0.7,0,0,1,0.7,0.7,0,1",""
"","html-keyboard-response","31","27525","0.0-31.0","3WQQ9FUS6BGUG3PORZEM2ORCCR3B8T","A1AYQ8E01NSY5Z","3VJ4PFXFJ3TL96TFXMATEMT7KJHUAI","","null","<img src=""img/animal5.png"" style=""width:200px;border:14px solid red;"">","null","","","","","",""
"","image-keyboard-response","32","28131","0.0-32.0","3WQQ9FUS6BGUG3PORZEM2ORCCR3B8T","A1AYQ8E01NSY5Z","3VJ4PFXFJ3TL96TFXMATEMT7KJHUAI","","603","img/animal2.png","76","605","3","0","1","1,0.7,0,0,1,0.7,0.7,0,1",""
"","html-keyboard-response","33","28481","0.0-33.0","3WQQ9FUS6BGUG3PORZEM2ORCCR3B8T","A1AYQ8E01NSY5Z","3VJ4PFXFJ3TL96TFXMATEMT7KJHUAI","","null","<img src=""img/animal2.png"" style=""width:200px;border:14px solid red;"">","null","","","","","",""
"","image-keyboard-response","34","28797","0.0-34.0","3WQQ9FUS6BGUG3PORZEM2ORCCR3B8T","A1AYQ8E01NSY5Z","3VJ4PFXFJ3TL96TFXMATEMT7KJHUAI","","314","img/animal4.png","75","315","2","1","2","1,0.7,0,0,1,0.7,0.7,0,1",""
"","html-keyboard-response","35","29105","0.0-35.0","3WQQ9FUS6BGUG3PORZEM2ORCCR3B8T","A1AYQ8E01NSY5Z","3VJ4PFXFJ3TL96TFXMATEMT7KJHUAI","","null","<img src=""img/animal4.png"" style=""width:200px; border:14px solid green;"">","null","","","","","",""
"","image-keyboard-response","36","29685","0.0-36.0","3WQQ9FUS6BGUG3PORZEM2ORCCR3B8T","A1AYQ8E01NSY5Z","3VJ4PFXFJ3TL96TFXMATEMT7KJHUAI","","578","img/animal5.png","75","579","2","0","3","1,0.7,0,0,1,0.7,0.7,0,1",""
"","html-keyboard-response","37","29997","0.0-37.0","3WQQ9FUS6BGUG3PORZEM2ORCCR3B8T","A1AYQ8E01NSY5Z","3VJ4PFXFJ3TL96TFXMATEMT7KJHUAI","","null","<img src=""img/animal5.png"" style=""width:200px;border:14px solid red;"">","null","","","","","",""
"","image-keyboard-response","38","30868","0.0-38.0","3WQQ9FUS6BGUG3PORZEM2ORCCR3B8T","A1AYQ8E01NSY5Z","3VJ4PFXFJ3TL96TFXMATEMT7KJHUAI","","868","img/animal2.png","75","870","2","0","1","1,0.7,0,0,1,0.7,0.7,0,1",""
"","html-keyboard-response","39","31174","0.0-39.0","3WQQ9FUS6BGUG3PORZEM2ORCCR3B8T","A1AYQ8E01NSY5Z","3VJ4PFXFJ3TL96TFXMATEMT7KJHUAI","","null","<img src=""img/animal2.png"" style=""width:200px;border:14px solid red;"">","null","","","","","",""
"","image-keyboard-response","40","32579","0.0-40.0","3WQQ9FUS6BGUG3PORZEM2ORCCR3B8T","A1AYQ8E01NSY5Z","3VJ4PFXFJ3TL96TFXMATEMT7KJHUAI","","1403","img/animal4.png","74","1405","1","0","2","1,0.7,0,0,1,0.7,0.7,0,1",""
"","html-keyboard-response","41","32882","0.0-41.0","3WQQ9FUS6BGUG3PORZEM2ORCCR3B8T","A1AYQ8E01NSY5Z","3VJ4PFXFJ3TL96TFXMATEMT7KJHUAI","","null","<img src=""img/animal4.png"" style=""width:200px;border:14px solid red;"">","null","","","","","",""
"","image-keyboard-response","42","33812","0.0-42.0","3WQQ9FUS6BGUG3PORZEM2ORCCR3B8T","A1AYQ8E01NSY5Z","3VJ4PFXFJ3TL96TFXMATEMT7KJHUAI","","929","img/animal4.png","76","929","3","1","2","1,0.7,0,0,1,0.7,0.7,0,1",""
"","html-keyboard-response","43","34120","0.0-43.0","3WQQ9FUS6BGUG3PORZEM2ORCCR3B8T","A1AYQ8E01NSY5Z","3VJ4PFXFJ3TL96TFXMATEMT7KJHUAI","","null","<img src=""img/animal4.png"" style=""width:200px; border:14px solid green;"">","null","","","","","",""
"","image-keyboard-response","44","34804","0.0-44.0","3WQQ9FUS6BGUG3PORZEM2ORCCR3B8T","A1AYQ8E01NSY5Z","3VJ4PFXFJ3TL96TFXMATEMT7KJHUAI","","683","img/animal4.png","76","684","3","1","2","1,0.7,0,0,1,0.7,0.7,0,1",""
"","html-keyboard-response","45","35111","0.0-45.0","3WQQ9FUS6BGUG3PORZEM2ORCCR3B8T","A1AYQ8E01NSY5Z","3VJ4PFXFJ3TL96TFXMATEMT7KJHUAI","","null","<img src=""img/animal4.png"" style=""width:200px; border:14px solid green;"">","null","","","","","",""
"","image-keyboard-response","46","35515","0.0-46.0","3WQQ9FUS6BGUG3PORZEM2ORCCR3B8T","A1AYQ8E01NSY5Z","3VJ4PFXFJ3TL96TFXMATEMT7KJHUAI","","403","img/animal4.png","76","404","3","0","2","1,0.7,0,0,1,0.7,0.7,0,1",""
"","html-keyboard-response","47","35828","0.0-47.0","3WQQ9FUS6BGUG3PORZEM2ORCCR3B8T","A1AYQ8E01NSY5Z","3VJ4PFXFJ3TL96TFXMATEMT7KJHUAI","","null","<img src=""img/animal4.png"" style=""width:200px;border:14px solid red;"">","null","","","","","",""
"","image-keyboard-response","48","36828","0.0-48.0","3WQQ9FUS6BGUG3PORZEM2ORCCR3B8T","A1AYQ8E01NSY5Z","3VJ4PFXFJ3TL96TFXMATEMT7KJHUAI","","1000","img/animal2.png","74","1001","1","1","1","1,0.7,0,0,1,0.7,0.7,0,1",""
"","html-keyboard-response","49","37142","0.0-49.0","3WQQ9FUS6BGUG3PORZEM2ORCCR3B8T","A1AYQ8E01NSY5Z","3VJ4PFXFJ3TL96TFXMATEMT7KJHUAI","","null","<img src=""img/animal2.png"" style=""width:200px; border:14px solid green;"">","null","","","","","",""
"","image-keyboard-response","50","37984","0.0-50.0","3WQQ9FUS6BGUG3PORZEM2ORCCR3B8T","A1AYQ8E01NSY5Z","3VJ4PFXFJ3TL96TFXMATEMT7KJHUAI","","839","img/animal5.png","74","841","1","1","3","1,0.7,0,0,1,0.7,0.7,0,1",""
"","html-keyboard-response","51","38289","0.0-51.0","3WQQ9FUS6BGUG3PORZEM2ORCCR3B8T","A1AYQ8E01NSY5Z","3VJ4PFXFJ3TL96TFXMATEMT7KJHUAI","","null","<img src=""img/animal5.png"" style=""width:200px; border:14px solid green;"">","null","","","","","",""
"","image-keyboard-response","52","39204","0.0-52.0","3WQQ9FUS6BGUG3PORZEM2ORCCR3B8T","A1AYQ8E01NSY5Z","3VJ4PFXFJ3TL96TFXMATEMT7KJHUAI","","914","img/animal4.png","75","916","2","1","2","1,0.7,0,0,1,0.7,0.7,0,1",""
"","html-keyboard-response","53","39507","0.0-53.0","3WQQ9FUS6BGUG3PORZEM2ORCCR3B8T","A1AYQ8E01NSY5Z","3VJ4PFXFJ3TL96TFXMATEMT7KJHUAI","","null","<img src=""img/animal4.png"" style=""width:200px; border:14px solid green;"">","null","","","","","",""
"","image-keyboard-response","54","40125","0.0-54.0","3WQQ9FUS6BGUG3PORZEM2ORCCR3B8T","A1AYQ8E01NSY5Z","3VJ4PFXFJ3TL96TFXMATEMT7KJHUAI","","615","img/animal2.png","75","615","2","0","1","1,0.7,0,0,1,0.7,0.7,0,1",""
"","html-keyboard-response","55","40431","0.0-55.0","3WQQ9FUS6BGUG3PORZEM2ORCCR3B8T","A1AYQ8E01NSY5Z","3VJ4PFXFJ3TL96TFXMATEMT7KJHUAI","","null","<img src=""img/animal2.png"" style=""width:200px;border:14px solid red;"">","null","","","","","",""
"","image-keyboard-response","56","40845","0.0-56.0","3WQQ9FUS6BGUG3PORZEM2ORCCR3B8T","A1AYQ8E01NSY5Z","3VJ4PFXFJ3TL96TFXMATEMT7KJHUAI","","412","img/animal2.png","76","413","3","0","1","1,0.7,0,0,1,0.7,0.7,0,1",""
"","html-keyboard-response","57","41149","0.0-57.0","3WQQ9FUS6BGUG3PORZEM2ORCCR3B8T","A1AYQ8E01NSY5Z","3VJ4PFXFJ3TL96TFXMATEMT7KJHUAI","","null","<img src=""img/animal2.png"" style=""width:200px;border:14px solid red;"">","null","","","","","",""
"","image-keyboard-response","58","41556","0.0-58.0","3WQQ9FUS6BGUG3PORZEM2ORCCR3B8T","A1AYQ8E01NSY5Z","3VJ4PFXFJ3TL96TFXMATEMT7KJHUAI","","405","img/animal5.png","74","408","1","0","3","1,0.7,0,0,1,0.7,0.7,0,1",""
"","html-keyboard-response","59","41868","0.0-59.0","3WQQ9FUS6BGUG3PORZEM2ORCCR3B8T","A1AYQ8E01NSY5Z","3VJ4PFXFJ3TL96TFXMATEMT7KJHUAI","","null","<img src=""img/animal5.png"" style=""width:200px;border:14px solid red;"">","null","","","","","",""
"","image-keyboard-response","60","42219","0.0-60.0","3WQQ9FUS6BGUG3PORZEM2ORCCR3B8T","A1AYQ8E01NSY5Z","3VJ4PFXFJ3TL96TFXMATEMT7KJHUAI","","351","img/animal4.png","75","351","2","1","2","1,0.7,0,0,1,0.7,0.7,0,1",""
"","html-keyboard-response","61","42522","0.0-61.0","3WQQ9FUS6BGUG3PORZEM2ORCCR3B8T","A1AYQ8E01NSY5Z","3VJ4PFXFJ3TL96TFXMATEMT7KJHUAI","","null","<img src=""img/animal4.png"" style=""width:200px; border:14px solid green;"">","null","","","","","",""
"","image-keyboard-response","62","43202","0.0-62.0","3WQQ9FUS6BGUG3PORZEM2ORCCR3B8T","A1AYQ8E01NSY5Z","3VJ4PFXFJ3TL96TFXMATEMT7KJHUAI","","680","img/animal5.png","75","680","2","0","3","1,0.7,0,0,1,0.7,0.7,0,1",""
"","html-keyboard-response","63","43505","0.0-63.0","3WQQ9FUS6BGUG3PORZEM2ORCCR3B8T","A1AYQ8E01NSY5Z","3VJ4PFXFJ3TL96TFXMATEMT7KJHUAI","","null","<img src=""img/animal5.png"" style=""width:200px;border:14px solid red;"">","null","","","","","",""
"","image-keyboard-response","64","43587","0.0-64.0","3WQQ9FUS6BGUG3PORZEM2ORCCR3B8T","A1AYQ8E01NSY5Z","3VJ4PFXFJ3TL96TFXMATEMT7KJHUAI","","82","img/animal5.png","76","82","3","1","3","1,0.7,0,0,1,0.7,0.7,0,1",""
"","html-keyboard-response","65","43896","0.0-65.0","3WQQ9FUS6BGUG3PORZEM2ORCCR3B8T","A1AYQ8E01NSY5Z","3VJ4PFXFJ3TL96TFXMATEMT7KJHUAI","","null","<img src=""img/animal5.png"" style=""width:200px; border:14px solid green;"">","null","","","","","",""
"","image-keyboard-response","66","44268","0.0-66.0","3WQQ9FUS6BGUG3PORZEM2ORCCR3B8T","A1AYQ8E01NSY5Z","3VJ4PFXFJ3TL96TFXMATEMT7KJHUAI","","369","img/animal5.png","76","371","3","1","3","1,0.7,0,0,1,0.7,0.7,0,1",""
"","html-keyboard-response","67","44582","0.0-67.0","3WQQ9FUS6BGUG3PORZEM2ORCCR3B8T","A1AYQ8E01NSY5Z","3VJ4PFXFJ3TL96TFXMATEMT7KJHUAI","","null","<img src=""img/animal5.png"" style=""width:200px; border:14px solid green;"">","null","","","","","",""
"","image-keyboard-response","68","44916","0.0-68.0","3WQQ9FUS6BGUG3PORZEM2ORCCR3B8T","A1AYQ8E01NSY5Z","3VJ4PFXFJ3TL96TFXMATEMT7KJHUAI","","333","img/animal2.png","76","333","3","0","1","1,0.7,0,0,1,0.7,0.7,0,1",""
"","html-keyboard-response","69","45222","0.0-69.0","3WQQ9FUS6BGUG3PORZEM2ORCCR3B8T","A1AYQ8E01NSY5Z","3VJ4PFXFJ3TL96TFXMATEMT7KJHUAI","","null","<img src=""img/animal2.png"" style=""width:200px;border:14px solid red;"">","null","","","","","",""
"","image-keyboard-response","70","45460","0.0-70.0","3WQQ9FUS6BGUG3PORZEM2ORCCR3B8T","A1AYQ8E01NSY5Z","3VJ4PFXFJ3TL96TFXMATEMT7KJHUAI","","236","img/animal4.png","74","238","1","0","2","1,0.7,0,0,1,0.7,0.7,0,1",""
"","html-keyboard-response","71","45769","0.0-71.0","3WQQ9FUS6BGUG3PORZEM2ORCCR3B8T","A1AYQ8E01NSY5Z","3VJ4PFXFJ3TL96TFXMATEMT7KJHUAI","","null","<img src=""img/animal4.png"" style=""width:200px;border:14px solid red;"">","null","","","","","",""
"","image-keyboard-response","72","45802","0.0-72.0","3WQQ9FUS6BGUG3PORZEM2ORCCR3B8T","A1AYQ8E01NSY5Z","3VJ4PFXFJ3TL96TFXMATEMT7KJHUAI","","30","img/animal2.png","75","32","2","0","1","1,0.7,0,0,1,0.7,0.7,0,1",""
"","html-keyboard-response","73","46111","0.0-73.0","3WQQ9FUS6BGUG3PORZEM2ORCCR3B8T","A1AYQ8E01NSY5Z","3VJ4PFXFJ3TL96TFXMATEMT7KJHUAI","","null","<img src=""img/animal2.png"" style=""width:200px;border:14px solid red;"">","null","","","","","",""
"","image-keyboard-response","74","46586","0.0-74.0","3WQQ9FUS6BGUG3PORZEM2ORCCR3B8T","A1AYQ8E01NSY5Z","3VJ4PFXFJ3TL96TFXMATEMT7KJHUAI","","474","img/animal2.png","75","475","2","0","1","1,0.7,0,0,1,0.7,0.7,0,1",""
"","html-keyboard-response","75","46890","0.0-75.0","3WQQ9FUS6BGUG3PORZEM2ORCCR3B8T","A1AYQ8E01NSY5Z","3VJ4PFXFJ3TL96TFXMATEMT7KJHUAI","","null","<img src=""img/animal2.png"" style=""width:200px;border:14px solid red;"">","null","","","","","",""
"","image-keyboard-response","76","47086","0.0-76.0","3WQQ9FUS6BGUG3PORZEM2ORCCR3B8T","A1AYQ8E01NSY5Z","3VJ4PFXFJ3TL96TFXMATEMT7KJHUAI","","195","img/animal4.png","74","195","1","0","2","1,0.7,0,0,1,0.7,0.7,0,1",""
"","html-keyboard-response","77","47402","0.0-77.0","3WQQ9FUS6BGUG3PORZEM2ORCCR3B8T","A1AYQ8E01NSY5Z","3VJ4PFXFJ3TL96TFXMATEMT7KJHUAI","","null","<img src=""img/animal4.png"" style=""width:200px;border:14px solid red;"">","null","","","","","",""
"","image-keyboard-response","78","47565","0.0-78.0","3WQQ9FUS6BGUG3PORZEM2ORCCR3B8T","A1AYQ8E01NSY5Z","3VJ4PFXFJ3TL96TFXMATEMT7KJHUAI","","162","img/animal2.png","76","163","3","0","1","1,0.7,0,0,1,0.7,0.7,0,1",""
"","html-keyboard-response","79","47869","0.0-79.0","3WQQ9FUS6BGUG3PORZEM2ORCCR3B8T","A1AYQ8E01NSY5Z","3VJ4PFXFJ3TL96TFXMATEMT7KJHUAI","","null","<img src=""img/animal2.png"" style=""width:200px;border:14px solid red;"">","null","","","","","",""
"","image-keyboard-response","80","48628","0.0-80.0","3WQQ9FUS6BGUG3PORZEM2ORCCR3B8T","A1AYQ8E01NSY5Z","3VJ4PFXFJ3TL96TFXMATEMT7KJHUAI","","757","img/animal4.png","76","758","3","0","2","1,0.7,0,0,1,0.7,0.7,0,1",""
"","html-keyboard-response","81","48934","0.0-81.0","3WQQ9FUS6BGUG3PORZEM2ORCCR3B8T","A1AYQ8E01NSY5Z","3VJ4PFXFJ3TL96TFXMATEMT7KJHUAI","","null","<img src=""img/animal4.png"" style=""width:200px;border:14px solid red;"">","null","","","","","",""
"","image-keyboard-response","82","50115","0.0-82.0","3WQQ9FUS6BGUG3PORZEM2ORCCR3B8T","A1AYQ8E01NSY5Z","3VJ4PFXFJ3TL96TFXMATEMT7KJHUAI","","1179","img/animal2.png","75","1181","2","1","1","1,0.7,0,0,1,0.7,0.7,0,1",""
"","html-keyboard-response","83","50424","0.0-83.0","3WQQ9FUS6BGUG3PORZEM2ORCCR3B8T","A1AYQ8E01NSY5Z","3VJ4PFXFJ3TL96TFXMATEMT7KJHUAI","","null","<img src=""img/animal2.png"" style=""width:200px; border:14px solid green;"">","null","","","","","",""
"","image-keyboard-response","84","51213","0.0-84.0","3WQQ9FUS6BGUG3PORZEM2ORCCR3B8T","A1AYQ8E01NSY5Z","3VJ4PFXFJ3TL96TFXMATEMT7KJHUAI","","788","img/animal5.png","74","789","1","1","3","1,0.7,0,0,1,0.7,0.7,0,1",""
"","html-keyboard-response","85","51530","0.0-85.0","3WQQ9FUS6BGUG3PORZEM2ORCCR3B8T","A1AYQ8E01NSY5Z","3VJ4PFXFJ3TL96TFXMATEMT7KJHUAI","","null","<img src=""img/animal5.png"" style=""width:200px; border:14px solid green;"">","null","","","","","",""
"","image-keyboard-response","86","52275","0.0-86.0","3WQQ9FUS6BGUG3PORZEM2ORCCR3B8T","A1AYQ8E01NSY5Z","3VJ4PFXFJ3TL96TFXMATEMT7KJHUAI","","745","img/animal2.png","75","746","2","0","1","1,0.7,0,0,1,0.7,0.7,0,1",""
"","html-keyboard-response","87","52579","0.0-87.0","3WQQ9FUS6BGUG3PORZEM2ORCCR3B8T","A1AYQ8E01NSY5Z","3VJ4PFXFJ3TL96TFXMATEMT7KJHUAI","","null","<img src=""img/animal2.png"" style=""width:200px;border:14px solid red;"">","null","","","","","",""
"","image-keyboard-response","88","53363","0.0-88.0","3WQQ9FUS6BGUG3PORZEM2ORCCR3B8T","A1AYQ8E01NSY5Z","3VJ4PFXFJ3TL96TFXMATEMT7KJHUAI","","783","img/animal4.png","74","785","1","0","2","1,0.7,0,0,1,0.7,0.7,0,1",""
"","html-keyboard-response","89","53673","0.0-89.0","3WQQ9FUS6BGUG3PORZEM2ORCCR3B8T","A1AYQ8E01NSY5Z","3VJ4PFXFJ3TL96TFXMATEMT7KJHUAI","","null","<img src=""img/animal4.png"" style=""width:200px;border:14px solid red;"">","null","","","","","",""
"","image-keyboard-response","90","54436","0.0-90.0","3WQQ9FUS6BGUG3PORZEM2ORCCR3B8T","A1AYQ8E01NSY5Z","3VJ4PFXFJ3TL96TFXMATEMT7KJHUAI","","762","img/animal5.png","76","762","3","1","3","1,0.7,0,0,1,0.7,0.7,0,1",""
"","html-keyboard-response","91","54751","0.0-91.0","3WQQ9FUS6BGUG3PORZEM2ORCCR3B8T","A1AYQ8E01NSY5Z","3VJ4PFXFJ3TL96TFXMATEMT7KJHUAI","","null","<img src=""img/animal5.png"" style=""width:200px; border:14px solid green;"">","null","","","","","",""
"","image-keyboard-response","92","55964","0.0-92.0","3WQQ9FUS6BGUG3PORZEM2ORCCR3B8T","A1AYQ8E01NSY5Z","3VJ4PFXFJ3TL96TFXMATEMT7KJHUAI","","1212","img/animal4.png","74","1214","1","0","2","1,0.7,0,0,1,0.7,0.7,0,1",""
"","html-keyboard-response","93","56272","0.0-93.0","3WQQ9FUS6BGUG3PORZEM2ORCCR3B8T","A1AYQ8E01NSY5Z","3VJ4PFXFJ3TL96TFXMATEMT7KJHUAI","","null","<img src=""img/animal4.png"" style=""width:200px;border:14px solid red;"">","null","","","","","",""
"","image-keyboard-response","94","57045","0.0-94.0","3WQQ9FUS6BGUG3PORZEM2ORCCR3B8T","A1AYQ8E01NSY5Z","3VJ4PFXFJ3TL96TFXMATEMT7KJHUAI","","771","img/animal2.png","75","772","2","0","1","1,0.7,0,0,1,0.7,0.7,0,1",""
"","html-keyboard-response","95","57349","0.0-95.0","3WQQ9FUS6BGUG3PORZEM2ORCCR3B8T","A1AYQ8E01NSY5Z","3VJ4PFXFJ3TL96TFXMATEMT7KJHUAI","","null","<img src=""img/animal2.png"" style=""width:200px;border:14px solid red;"">","null","","","","","",""
"","image-keyboard-response","96","57876","0.0-96.0","3WQQ9FUS6BGUG3PORZEM2ORCCR3B8T","A1AYQ8E01NSY5Z","3VJ4PFXFJ3TL96TFXMATEMT7KJHUAI","","526","img/animal2.png","76","527","3","0","1","1,0.7,0,0,1,0.7,0.7,0,1",""
"","html-keyboard-response","97","58192","0.0-97.0","3WQQ9FUS6BGUG3PORZEM2ORCCR3B8T","A1AYQ8E01NSY5Z","3VJ4PFXFJ3TL96TFXMATEMT7KJHUAI","","null","<img src=""img/animal2.png"" style=""width:200px;border:14px solid red;"">","null","","","","","",""
"","image-keyboard-response","98","59148","0.0-98.0","3WQQ9FUS6BGUG3PORZEM2ORCCR3B8T","A1AYQ8E01NSY5Z","3VJ4PFXFJ3TL96TFXMATEMT7KJHUAI","","955","img/animal5.png","74","956","1","1","3","1,0.7,0,0,1,0.7,0.7,0,1",""
"","html-keyboard-response","99","59459","0.0-99.0","3WQQ9FUS6BGUG3PORZEM2ORCCR3B8T","A1AYQ8E01NSY5Z","3VJ4PFXFJ3TL96TFXMATEMT7KJHUAI","","null","<img src=""img/animal5.png"" style=""width:200px; border:14px solid green;"">","null","","","","","",""
"","image-keyboard-response","100","59915","0.0-100.0","3WQQ9FUS6BGUG3PORZEM2ORCCR3B8T","A1AYQ8E01NSY5Z","3VJ4PFXFJ3TL96TFXMATEMT7KJHUAI","","455","img/animal2.png","74","455","1","1","1","1,0.7,0,0,1,0.7,0.7,0,1",""
"","html-keyboard-response","101","60220","0.0-101.0","3WQQ9FUS6BGUG3PORZEM2ORCCR3B8T","A1AYQ8E01NSY5Z","3VJ4PFXFJ3TL96TFXMATEMT7KJHUAI","","null","<img src=""img/animal2.png"" style=""width:200px; border:14px solid green;"">","null","","","","","",""
"","image-keyboard-response","102","60580","0.0-102.0","3WQQ9FUS6BGUG3PORZEM2ORCCR3B8T","A1AYQ8E01NSY5Z","3VJ4PFXFJ3TL96TFXMATEMT7KJHUAI","","359","img/animal2.png","74","359","1","1","1","1,0.7,0,0,1,0.7,0.7,0,1",""
"","html-keyboard-response","103","60890","0.0-103.0","3WQQ9FUS6BGUG3PORZEM2ORCCR3B8T","A1AYQ8E01NSY5Z","3VJ4PFXFJ3TL96TFXMATEMT7KJHUAI","","null","<img src=""img/animal2.png"" style=""width:200px; border:14px solid green;"">","null","","","","","",""
"","image-keyboard-response","104","61467","0.0-104.0","3WQQ9FUS6BGUG3PORZEM2ORCCR3B8T","A1AYQ8E01NSY5Z","3VJ4PFXFJ3TL96TFXMATEMT7KJHUAI","","574","img/animal2.png","74","576","1","1","1","1,0.7,0,0,1,0.7,0.7,0,1",""
"","html-keyboard-response","105","61775","0.0-105.0","3WQQ9FUS6BGUG3PORZEM2ORCCR3B8T","A1AYQ8E01NSY5Z","3VJ4PFXFJ3TL96TFXMATEMT7KJHUAI","","null","<img src=""img/animal2.png"" style=""width:200px; border:14px solid green;"">","null","","","","","",""
"","image-keyboard-response","106","62611","0.0-106.0","3WQQ9FUS6BGUG3PORZEM2ORCCR3B8T","A1AYQ8E01NSY5Z","3VJ4PFXFJ3TL96TFXMATEMT7KJHUAI","","833","img/animal4.png","76","833","3","0","2","1,0.7,0,0,1,0.7,0.7,0,1",""
"","html-keyboard-response","107","62923","0.0-107.0","3WQQ9FUS6BGUG3PORZEM2ORCCR3B8T","A1AYQ8E01NSY5Z","3VJ4PFXFJ3TL96TFXMATEMT7KJHUAI","","null","<img src=""img/animal4.png"" style=""width:200px;border:14px solid red;"">","null","","","","","",""
"","image-keyboard-response","108","63620","0.0-108.0","3WQQ9FUS6BGUG3PORZEM2ORCCR3B8T","A1AYQ8E01NSY5Z","3VJ4PFXFJ3TL96TFXMATEMT7KJHUAI","","693","img/animal5.png","74","694","1","1","3","1,0.7,0,0,1,0.7,0.7,0,1",""
"","html-keyboard-response","109","63922","0.0-109.0","3WQQ9FUS6BGUG3PORZEM2ORCCR3B8T","A1AYQ8E01NSY5Z","3VJ4PFXFJ3TL96TFXMATEMT7KJHUAI","","null","<img src=""img/animal5.png"" style=""width:200px; border:14px solid green;"">","null","","","","","",""
"","image-keyboard-response","110","64715","0.0-110.0","3WQQ9FUS6BGUG3PORZEM2ORCCR3B8T","A1AYQ8E01NSY5Z","3VJ4PFXFJ3TL96TFXMATEMT7KJHUAI","","791","img/animal2.png","74","791","1","1","1","1,0.7,0,0,1,0.7,0.7,0,1",""
"","html-keyboard-response","111","65016","0.0-111.0","3WQQ9FUS6BGUG3PORZEM2ORCCR3B8T","A1AYQ8E01NSY5Z","3VJ4PFXFJ3TL96TFXMATEMT7KJHUAI","","null","<img src=""img/animal2.png"" style=""width:200px; border:14px solid green;"">","null","","","","","",""
"","image-keyboard-response","112","65475","0.0-112.0","3WQQ9FUS6BGUG3PORZEM2ORCCR3B8T","A1AYQ8E01NSY5Z","3VJ4PFXFJ3TL96TFXMATEMT7KJHUAI","","456","img/animal2.png","74","458","1","1","1","1,0.7,0,0,1,0.7,0.7,0,1",""
"","html-keyboard-response","113","65795","0.0-113.0","3WQQ9FUS6BGUG3PORZEM2ORCCR3B8T","A1AYQ8E01NSY5Z","3VJ4PFXFJ3TL96TFXMATEMT7KJHUAI","","null","<img src=""img/animal2.png"" style=""width:200px; border:14px solid green;"">","null","","","","","",""
"","image-keyboard-response","114","66015","0.0-114.0","3WQQ9FUS6BGUG3PORZEM2ORCCR3B8T","A1AYQ8E01NSY5Z","3VJ4PFXFJ3TL96TFXMATEMT7KJHUAI","","215","img/animal5.png","74","220","1","1","3","1,0.7,0,0,1,0.7,0.7,0,1",""
"","html-keyboard-response","115","66329","0.0-115.0","3WQQ9FUS6BGUG3PORZEM2ORCCR3B8T","A1AYQ8E01NSY5Z","3VJ4PFXFJ3TL96TFXMATEMT7KJHUAI","","null","<img src=""img/animal5.png"" style=""width:200px; border:14px solid green;"">","null","","","","","",""
"","image-keyboard-response","116","66766","0.0-116.0","3WQQ9FUS6BGUG3PORZEM2ORCCR3B8T","A1AYQ8E01NSY5Z","3VJ4PFXFJ3TL96TFXMATEMT7KJHUAI","","435","img/animal5.png","74","437","1","0","3","1,0.7,0,0,1,0.7,0.7,0,1",""
"","html-keyboard-response","117","67075","0.0-117.0","3WQQ9FUS6BGUG3PORZEM2ORCCR3B8T","A1AYQ8E01NSY5Z","3VJ4PFXFJ3TL96TFXMATEMT7KJHUAI","","null","<img src=""img/animal5.png"" style=""width:200px;border:14px solid red;"">","null","","","","","",""
"","image-keyboard-response","118","67660","0.0-118.0","3WQQ9FUS6BGUG3PORZEM2ORCCR3B8T","A1AYQ8E01NSY5Z","3VJ4PFXFJ3TL96TFXMATEMT7KJHUAI","","583","img/animal4.png","75","584","2","1","2","1,0.7,0,0,1,0.7,0.7,0,1",""
"","html-keyboard-response","119","67965","0.0-119.0","3WQQ9FUS6BGUG3PORZEM2ORCCR3B8T","A1AYQ8E01NSY5Z","3VJ4PFXFJ3TL96TFXMATEMT7KJHUAI","","null","<img src=""img/animal4.png"" style=""width:200px; border:14px solid green;"">","null","","","","","",""
"","image-keyboard-response","120","68476","0.0-120.0","3WQQ9FUS6BGUG3PORZEM2ORCCR3B8T","A1AYQ8E01NSY5Z","3VJ4PFXFJ3TL96TFXMATEMT7KJHUAI","","510","img/animal2.png","74","510","1","1","1","1,0.7,0,0,1,0.7,0.7,0,1",""
"","html-keyboard-response","121","68794","0.0-121.0","3WQQ9FUS6BGUG3PORZEM2ORCCR3B8T","A1AYQ8E01NSY5Z","3VJ4PFXFJ3TL96TFXMATEMT7KJHUAI","","null","<img src=""img/animal2.png"" style=""width:200px; border:14px solid green;"">","null","","","","","",""
"","image-keyboard-response","122","69234","0.0-122.0","3WQQ9FUS6BGUG3PORZEM2ORCCR3B8T","A1AYQ8E01NSY5Z","3VJ4PFXFJ3TL96TFXMATEMT7KJHUAI","","438","img/animal4.png","75","439","2","1","2","1,0.7,0,0,1,0.7,0.7,0,1",""
"","html-keyboard-response","123","69542","0.0-123.0","3WQQ9FUS6BGUG3PORZEM2ORCCR3B8T","A1AYQ8E01NSY5Z","3VJ4PFXFJ3TL96TFXMATEMT7KJHUAI","","null","<img src=""img/animal4.png"" style=""width:200px; border:14px solid green;"">","null","","","","","",""
"","image-keyboard-response","124","69868","0.0-124.0","3WQQ9FUS6BGUG3PORZEM2ORCCR3B8T","A1AYQ8E01NSY5Z","3VJ4PFXFJ3TL96TFXMATEMT7KJHUAI","","323","img/animal2.png","74","325","1","1","1","1,0.7,0,0,1,0.7,0.7,0,1",""
"","html-keyboard-response","125","70180","0.0-125.0","3WQQ9FUS6BGUG3PORZEM2ORCCR3B8T","A1AYQ8E01NSY5Z","3VJ4PFXFJ3TL96TFXMATEMT7KJHUAI","","null","<img src=""img/animal2.png"" style=""width:200px; border:14px solid green;"">","null","","","","","",""
"","image-keyboard-response","126","70462","0.0-126.0","3WQQ9FUS6BGUG3PORZEM2ORCCR3B8T","A1AYQ8E01NSY5Z","3VJ4PFXFJ3TL96TFXMATEMT7KJHUAI","","279","img/animal4.png","75","282","2","1","2","1,0.7,0,0,1,0.7,0.7,0,1",""
"","html-keyboard-response","127","70803","0.0-127.0","3WQQ9FUS6BGUG3PORZEM2ORCCR3B8T","A1AYQ8E01NSY5Z","3VJ4PFXFJ3TL96TFXMATEMT7KJHUAI","","null","<img src=""img/animal4.png"" style=""width:200px; border:14px solid green;"">","null","","","","","",""
"","image-keyboard-response","128","70868","0.0-128.0","3WQQ9FUS6BGUG3PORZEM2ORCCR3B8T","A1AYQ8E01NSY5Z","3VJ4PFXFJ3TL96TFXMATEMT7KJHUAI","","62","img/animal5.png","74","64","1","1","3","1,0.7,0,0,1,0.7,0.7,0,1",""
"","html-keyboard-response","129","71180","0.0-129.0","3WQQ9FUS6BGUG3PORZEM2ORCCR3B8T","A1AYQ8E01NSY5Z","3VJ4PFXFJ3TL96TFXMATEMT7KJHUAI","","null","<img src=""img/animal5.png"" style=""width:200px; border:14px solid green;"">","null","","","","","",""
"","image-keyboard-response","130","71484","0.0-130.0","3WQQ9FUS6BGUG3PORZEM2ORCCR3B8T","A1AYQ8E01NSY5Z","3VJ4PFXFJ3TL96TFXMATEMT7KJHUAI","","302","img/animal4.png","75","304","2","1","2","1,0.7,0,0,1,0.7,0.7,0,1",""
"","html-keyboard-response","131","71792","0.0-131.0","3WQQ9FUS6BGUG3PORZEM2ORCCR3B8T","A1AYQ8E01NSY5Z","3VJ4PFXFJ3TL96TFXMATEMT7KJHUAI","","null","<img src=""img/animal4.png"" style=""width:200px; border:14px solid green;"">","null","","","","","",""
"","image-keyboard-response","132","71868","0.0-132.0","3WQQ9FUS6BGUG3PORZEM2ORCCR3B8T","A1AYQ8E01NSY5Z","3VJ4PFXFJ3TL96TFXMATEMT7KJHUAI","","73","img/animal2.png","74","74","1","1","1","1,0.7,0,0,1,0.7,0.7,0,1",""
"","html-keyboard-response","133","72183","0.0-133.0","3WQQ9FUS6BGUG3PORZEM2ORCCR3B8T","A1AYQ8E01NSY5Z","3VJ4PFXFJ3TL96TFXMATEMT7KJHUAI","","null","<img src=""img/animal2.png"" style=""width:200px; border:14px solid green;"">","null","","","","","",""
"","image-keyboard-response","134","72394","0.0-134.0","3WQQ9FUS6BGUG3PORZEM2ORCCR3B8T","A1AYQ8E01NSY5Z","3VJ4PFXFJ3TL96TFXMATEMT7KJHUAI","","211","img/animal5.png","75","211","2","0","3","1,0.7,0,0,1,0.7,0.7,0,1",""
"","html-keyboard-response","135","72696","0.0-135.0","3WQQ9FUS6BGUG3PORZEM2ORCCR3B8T","A1AYQ8E01NSY5Z","3VJ4PFXFJ3TL96TFXMATEMT7KJHUAI","","null","<img src=""img/animal5.png"" style=""width:200px;border:14px solid red;"">","null","","","","","",""
"","image-keyboard-response","136","72939","0.0-136.0","3WQQ9FUS6BGUG3PORZEM2ORCCR3B8T","A1AYQ8E01NSY5Z","3VJ4PFXFJ3TL96TFXMATEMT7KJHUAI","","243","img/animal4.png","74","243","1","0","2","1,0.7,0,0,1,0.7,0.7,0,1",""
"","html-keyboard-response","137","73256","0.0-137.0","3WQQ9FUS6BGUG3PORZEM2ORCCR3B8T","A1AYQ8E01NSY5Z","3VJ4PFXFJ3TL96TFXMATEMT7KJHUAI","","null","<img src=""img/animal4.png"" style=""width:200px;border:14px solid red;"">","null","","","","","",""
"","image-keyboard-response","138","73891","0.0-138.0","3WQQ9FUS6BGUG3PORZEM2ORCCR3B8T","A1AYQ8E01NSY5Z","3VJ4PFXFJ3TL96TFXMATEMT7KJHUAI","","633","img/animal5.png","74","635","1","0","3","1,0.7,0,0,1,0.7,0.7,0,1",""
"","html-keyboard-response","139","74209","0.0-139.0","3WQQ9FUS6BGUG3PORZEM2ORCCR3B8T","A1AYQ8E01NSY5Z","3VJ4PFXFJ3TL96TFXMATEMT7KJHUAI","","null","<img src=""img/animal5.png"" style=""width:200px;border:14px solid red;"">","null","","","","","",""
"","image-keyboard-response","140","74932","0.0-140.0","3WQQ9FUS6BGUG3PORZEM2ORCCR3B8T","A1AYQ8E01NSY5Z","3VJ4PFXFJ3TL96TFXMATEMT7KJHUAI","","721","img/animal5.png","74","722","1","1","3","1,0.7,0,0,1,0.7,0.7,0,1",""
"","html-keyboard-response","141","75241","0.0-141.0","3WQQ9FUS6BGUG3PORZEM2ORCCR3B8T","A1AYQ8E01NSY5Z","3VJ4PFXFJ3TL96TFXMATEMT7KJHUAI","","null","<img src=""img/animal5.png"" style=""width:200px; border:14px solid green;"">","null","","","","","",""
"","image-keyboard-response","142","76085","0.0-142.0","3WQQ9FUS6BGUG3PORZEM2ORCCR3B8T","A1AYQ8E01NSY5Z","3VJ4PFXFJ3TL96TFXMATEMT7KJHUAI","","842","img/animal2.png","75","844","2","1","1","1,0.7,0,0,1,0.7,0.7,0,1",""
"","html-keyboard-response","143","76396","0.0-143.0","3WQQ9FUS6BGUG3PORZEM2ORCCR3B8T","A1AYQ8E01NSY5Z","3VJ4PFXFJ3TL96TFXMATEMT7KJHUAI","","null","<img src=""img/animal2.png"" style=""width:200px; border:14px solid green;"">","null","","","","","",""
"","image-keyboard-response","144","77540","0.0-144.0","3WQQ9FUS6BGUG3PORZEM2ORCCR3B8T","A1AYQ8E01NSY5Z","3VJ4PFXFJ3TL96TFXMATEMT7KJHUAI","","1142","img/animal4.png","76","1144","3","0","2","1,0.7,0,0,1,0.7,0.7,0,1",""
"","html-keyboard-response","145","77843","0.0-145.0","3WQQ9FUS6BGUG3PORZEM2ORCCR3B8T","A1AYQ8E01NSY5Z","3VJ4PFXFJ3TL96TFXMATEMT7KJHUAI","","null","<img src=""img/animal4.png"" style=""width:200px;border:14px solid red;"">","null","","","","","",""
"","image-keyboard-response","146","78671","0.0-146.0","3WQQ9FUS6BGUG3PORZEM2ORCCR3B8T","A1AYQ8E01NSY5Z","3VJ4PFXFJ3TL96TFXMATEMT7KJHUAI","","825","img/animal2.png","74","827","1","1","1","1,0.7,0,0,1,0.7,0.7,0,1",""
"","html-keyboard-response","147","78982","0.0-147.0","3WQQ9FUS6BGUG3PORZEM2ORCCR3B8T","A1AYQ8E01NSY5Z","3VJ4PFXFJ3TL96TFXMATEMT7KJHUAI","","null","<img src=""img/animal2.png"" style=""width:200px; border:14px solid green;"">","null","","","","","",""
"","image-keyboard-response","148","79539","0.0-148.0","3WQQ9FUS6BGUG3PORZEM2ORCCR3B8T","A1AYQ8E01NSY5Z","3VJ4PFXFJ3TL96TFXMATEMT7KJHUAI","","556","img/animal4.png","75","557","2","1","2","1,0.7,0,0,1,0.7,0.7,0,1",""
"","html-keyboard-response","149","79856","0.0-149.0","3WQQ9FUS6BGUG3PORZEM2ORCCR3B8T","A1AYQ8E01NSY5Z","3VJ4PFXFJ3TL96TFXMATEMT7KJHUAI","","null","<img src=""img/animal4.png"" style=""width:200px; border:14px solid green;"">","null","","","","","",""
"","image-keyboard-response","150","80454","0.0-150.0","3WQQ9FUS6BGUG3PORZEM2ORCCR3B8T","A1AYQ8E01NSY5Z","3VJ4PFXFJ3TL96TFXMATEMT7KJHUAI","","596","img/animal5.png","74","597","1","1","3","1,0.7,0,0,1,0.7,0.7,0,1",""
"","html-keyboard-response","151","80761","0.0-151.0","3WQQ9FUS6BGUG3PORZEM2ORCCR3B8T","A1AYQ8E01NSY5Z","3VJ4PFXFJ3TL96TFXMATEMT7KJHUAI","","null","<img src=""img/animal5.png"" style=""width:200px; border:14px solid green;"">","null","","","","","",""
"","image-keyboard-response","152","81420","0.0-152.0","3WQQ9FUS6BGUG3PORZEM2ORCCR3B8T","A1AYQ8E01NSY5Z","3VJ4PFXFJ3TL96TFXMATEMT7KJHUAI","","657","img/animal2.png","74","659","1","1","1","1,0.7,0,0,1,0.7,0.7,0,1",""
"","html-keyboard-response","153","81733","0.0-153.0","3WQQ9FUS6BGUG3PORZEM2ORCCR3B8T","A1AYQ8E01NSY5Z","3VJ4PFXFJ3TL96TFXMATEMT7KJHUAI","","null","<img src=""img/animal2.png"" style=""width:200px; border:14px solid green;"">","null","","","","","",""
"","image-keyboard-response","154","82379","0.0-154.0","3WQQ9FUS6BGUG3PORZEM2ORCCR3B8T","A1AYQ8E01NSY5Z","3VJ4PFXFJ3TL96TFXMATEMT7KJHUAI","","647","img/animal4.png","74","647","1","0","2","1,0.7,0,0,1,0.7,0.7,0,1",""
"","html-keyboard-response","155","82685","0.0-155.0","3WQQ9FUS6BGUG3PORZEM2ORCCR3B8T","A1AYQ8E01NSY5Z","3VJ4PFXFJ3TL96TFXMATEMT7KJHUAI","","null","<img src=""img/animal4.png"" style=""width:200px;border:14px solid red;"">","null","","","","","",""
"","image-keyboard-response","156","83532","0.0-156.0","3WQQ9FUS6BGUG3PORZEM2ORCCR3B8T","A1AYQ8E01NSY5Z","3VJ4PFXFJ3TL96TFXMATEMT7KJHUAI","","846","img/animal5.png","74","847","1","0","3","1,0.7,0,0,1,0.7,0.7,0,1",""
"","html-keyboard-response","157","83843","0.0-157.0","3WQQ9FUS6BGUG3PORZEM2ORCCR3B8T","A1AYQ8E01NSY5Z","3VJ4PFXFJ3TL96TFXMATEMT7KJHUAI","","null","<img src=""img/animal5.png"" style=""width:200px;border:14px solid red;"">","null","","","","","",""
"","image-keyboard-response","158","84339","0.0-158.0","3WQQ9FUS6BGUG3PORZEM2ORCCR3B8T","A1AYQ8E01NSY5Z","3VJ4PFXFJ3TL96TFXMATEMT7KJHUAI","","495","img/animal5.png","75","497","2","0","3","1,0.7,0,0,1,0.7,0.7,0,1",""
"","html-keyboard-response","159","84656","0.0-159.0","3WQQ9FUS6BGUG3PORZEM2ORCCR3B8T","A1AYQ8E01NSY5Z","3VJ4PFXFJ3TL96TFXMATEMT7KJHUAI","","null","<img src=""img/animal5.png"" style=""width:200px;border:14px solid red;"">","null","","","","","",""
"","image-keyboard-response","160","85658","0.0-160.0","3WQQ9FUS6BGUG3PORZEM2ORCCR3B8T","A1AYQ8E01NSY5Z","3VJ4PFXFJ3TL96TFXMATEMT7KJHUAI","","999","img/animal4.png","75","1001","2","1","2","1,0.7,0,0,1,0.7,0.7,0,1",""
"","html-keyboard-response","161","85968","0.0-161.0","3WQQ9FUS6BGUG3PORZEM2ORCCR3B8T","A1AYQ8E01NSY5Z","3VJ4PFXFJ3TL96TFXMATEMT7KJHUAI","","null","<img src=""img/animal4.png"" style=""width:200px; border:14px solid green;"">","null","","","","","",""
"","image-keyboard-response","162","86737","0.0-162.0","3WQQ9FUS6BGUG3PORZEM2ORCCR3B8T","A1AYQ8E01NSY5Z","3VJ4PFXFJ3TL96TFXMATEMT7KJHUAI","","769","img/animal4.png","75","769","2","1","2","1,0.7,0,0,1,0.7,0.7,0,1",""
"","html-keyboard-response","163","87045","0.0-163.0","3WQQ9FUS6BGUG3PORZEM2ORCCR3B8T","A1AYQ8E01NSY5Z","3VJ4PFXFJ3TL96TFXMATEMT7KJHUAI","","null","<img src=""img/animal4.png"" style=""width:200px; border:14px solid green;"">","null","","","","","",""
"","image-keyboard-response","164","88030","0.0-164.0","3WQQ9FUS6BGUG3PORZEM2ORCCR3B8T","A1AYQ8E01NSY5Z","3VJ4PFXFJ3TL96TFXMATEMT7KJHUAI","","984","img/animal5.png","74","985","1","1","3","1,0.7,0,0,1,0.7,0.7,0,1",""
"","html-keyboard-response","165","88338","0.0-165.0","3WQQ9FUS6BGUG3PORZEM2ORCCR3B8T","A1AYQ8E01NSY5Z","3VJ4PFXFJ3TL96TFXMATEMT7KJHUAI","","null","<img src=""img/animal5.png"" style=""width:200px; border:14px solid green;"">","null","","","","","",""
"","image-keyboard-response","166","88805","0.0-166.0","3WQQ9FUS6BGUG3PORZEM2ORCCR3B8T","A1AYQ8E01NSY5Z","3VJ4PFXFJ3TL96TFXMATEMT7KJHUAI","","465","img/animal5.png","74","466","1","1","3","1,0.7,0,0,1,0.7,0.7,0,1",""
"","html-keyboard-response","167","89107","0.0-167.0","3WQQ9FUS6BGUG3PORZEM2ORCCR3B8T","A1AYQ8E01NSY5Z","3VJ4PFXFJ3TL96TFXMATEMT7KJHUAI","","null","<img src=""img/animal5.png"" style=""width:200px; border:14px solid green;"">","null","","","","","",""
"","image-keyboard-response","168","89827","0.0-168.0","3WQQ9FUS6BGUG3PORZEM2ORCCR3B8T","A1AYQ8E01NSY5Z","3VJ4PFXFJ3TL96TFXMATEMT7KJHUAI","","718","img/animal4.png","76","720","3","0","2","1,0.7,0,0,1,0.7,0.7,0,1",""
"","html-keyboard-response","169","90134","0.0-169.0","3WQQ9FUS6BGUG3PORZEM2ORCCR3B8T","A1AYQ8E01NSY5Z","3VJ4PFXFJ3TL96TFXMATEMT7KJHUAI","","null","<img src=""img/animal4.png"" style=""width:200px;border:14px solid red;"">","null","","","","","",""
"","image-keyboard-response","170","90798","0.0-170.0","3WQQ9FUS6BGUG3PORZEM2ORCCR3B8T","A1AYQ8E01NSY5Z","3VJ4PFXFJ3TL96TFXMATEMT7KJHUAI","","659","img/animal5.png","74","662","1","0","3","1,0.7,0,0,1,0.7,0.7,0,1",""
"","html-keyboard-response","171","91109","0.0-171.0","3WQQ9FUS6BGUG3PORZEM2ORCCR3B8T","A1AYQ8E01NSY5Z","3VJ4PFXFJ3TL96TFXMATEMT7KJHUAI","","null","<img src=""img/animal5.png"" style=""width:200px;border:14px solid red;"">","null","","","","","",""
"","image-keyboard-response","172","91484","0.0-172.0","3WQQ9FUS6BGUG3PORZEM2ORCCR3B8T","A1AYQ8E01NSY5Z","3VJ4PFXFJ3TL96TFXMATEMT7KJHUAI","","372","img/animal4.png","75","374","2","1","2","1,0.7,0,0,1,0.7,0.7,0,1",""
"","html-keyboard-response","173","91818","0.0-173.0","3WQQ9FUS6BGUG3PORZEM2ORCCR3B8T","A1AYQ8E01NSY5Z","3VJ4PFXFJ3TL96TFXMATEMT7KJHUAI","","null","<img src=""img/animal4.png"" style=""width:200px; border:14px solid green;"">","null","","","","","",""
"","image-keyboard-response","174","92508","0.0-174.0","3WQQ9FUS6BGUG3PORZEM2ORCCR3B8T","A1AYQ8E01NSY5Z","3VJ4PFXFJ3TL96TFXMATEMT7KJHUAI","","687","img/animal5.png","74","689","1","1","3","1,0.7,0,0,1,0.7,0.7,0,1",""
"","html-keyboard-response","175","92819","0.0-175.0","3WQQ9FUS6BGUG3PORZEM2ORCCR3B8T","A1AYQ8E01NSY5Z","3VJ4PFXFJ3TL96TFXMATEMT7KJHUAI","","null","<img src=""img/animal5.png"" style=""width:200px; border:14px solid green;"">","null","","","","","",""
"","image-keyboard-response","176","94133","0.0-176.0","3WQQ9FUS6BGUG3PORZEM2ORCCR3B8T","A1AYQ8E01NSY5Z","3VJ4PFXFJ3TL96TFXMATEMT7KJHUAI","","1313","img/animal4.png","74","1315","1","0","2","1,0.7,0,0,1,0.7,0.7,0,1",""
"","html-keyboard-response","177","94440","0.0-177.0","3WQQ9FUS6BGUG3PORZEM2ORCCR3B8T","A1AYQ8E01NSY5Z","3VJ4PFXFJ3TL96TFXMATEMT7KJHUAI","","null","<img src=""img/animal4.png"" style=""width:200px;border:14px solid red;"">","null","","","","","",""
"","image-keyboard-response","178","94989","0.0-178.0","3WQQ9FUS6BGUG3PORZEM2ORCCR3B8T","A1AYQ8E01NSY5Z","3VJ4PFXFJ3TL96TFXMATEMT7KJHUAI","","547","img/animal4.png","75","548","2","1","2","1,0.7,0,0,1,0.7,0.7,0,1",""
"","html-keyboard-response","179","95297","0.0-179.0","3WQQ9FUS6BGUG3PORZEM2ORCCR3B8T","A1AYQ8E01NSY5Z","3VJ4PFXFJ3TL96TFXMATEMT7KJHUAI","","null","<img src=""img/animal4.png"" style=""width:200px; border:14px solid green;"">","null","","","","","",""
"","image-keyboard-response","180","96381","0.0-180.0","3WQQ9FUS6BGUG3PORZEM2ORCCR3B8T","A1AYQ8E01NSY5Z","3VJ4PFXFJ3TL96TFXMATEMT7KJHUAI","","1082","img/animal2.png","74","1084","1","1","1","1,0.7,0,0,1,0.7,0.7,0,1",""
"","html-keyboard-response","181","96699","0.0-181.0","3WQQ9FUS6BGUG3PORZEM2ORCCR3B8T","A1AYQ8E01NSY5Z","3VJ4PFXFJ3TL96TFXMATEMT7KJHUAI","","null","<img src=""img/animal2.png"" style=""width:200px; border:14px solid green;"">","null","","","","","",""
"","html-keyboard-response","182","98566","0.0-182.0","3WQQ9FUS6BGUG3PORZEM2ORCCR3B8T","A1AYQ8E01NSY5Z","3VJ4PFXFJ3TL96TFXMATEMT7KJHUAI","","","","","","","","","",""
"","image-keyboard-response","183","99347","0.0-183.0","3WQQ9FUS6BGUG3PORZEM2ORCCR3B8T","A1AYQ8E01NSY5Z","3VJ4PFXFJ3TL96TFXMATEMT7KJHUAI","","779","img/animal1.png","75","781","2","0","3","1,0.7,0,1,0.7,0,0.7,0,1",""
"","html-keyboard-response","184","99671","0.0-184.0","3WQQ9FUS6BGUG3PORZEM2ORCCR3B8T","A1AYQ8E01NSY5Z","3VJ4PFXFJ3TL96TFXMATEMT7KJHUAI","","null","<img src=""img/animal1.png"" style=""width:200px;border:14px solid red;"">","null","","","","","",""
"","image-keyboard-response","185","99954","0.0-185.0","3WQQ9FUS6BGUG3PORZEM2ORCCR3B8T","A1AYQ8E01NSY5Z","3VJ4PFXFJ3TL96TFXMATEMT7KJHUAI","","282","img/animal3.png","76","283","3","0","1","1,0.7,0,1,0.7,0,0.7,0,1",""
"","html-keyboard-response","186","100264","0.0-186.0","3WQQ9FUS6BGUG3PORZEM2ORCCR3B8T","A1AYQ8E01NSY5Z","3VJ4PFXFJ3TL96TFXMATEMT7KJHUAI","","null","<img src=""img/animal3.png"" style=""width:200px;border:14px solid red;"">","null","","","","","",""
"","image-keyboard-response","187","100619","0.0-187.0","3WQQ9FUS6BGUG3PORZEM2ORCCR3B8T","A1AYQ8E01NSY5Z","3VJ4PFXFJ3TL96TFXMATEMT7KJHUAI","","355","img/animal3.png","74","356","1","1","1","1,0.7,0,1,0.7,0,0.7,0,1",""
"","html-keyboard-response","188","100933","0.0-188.0","3WQQ9FUS6BGUG3PORZEM2ORCCR3B8T","A1AYQ8E01NSY5Z","3VJ4PFXFJ3TL96TFXMATEMT7KJHUAI","","null","<img src=""img/animal3.png"" style=""width:200px; border:14px solid green;"">","null","","","","","",""
"","image-keyboard-response","189","101412","0.0-189.0","3WQQ9FUS6BGUG3PORZEM2ORCCR3B8T","A1AYQ8E01NSY5Z","3VJ4PFXFJ3TL96TFXMATEMT7KJHUAI","","476","img/animal3.png","74","478","1","1","1","1,0.7,0,1,0.7,0,0.7,0,1",""
"","html-keyboard-response","190","101726","0.0-190.0","3WQQ9FUS6BGUG3PORZEM2ORCCR3B8T","A1AYQ8E01NSY5Z","3VJ4PFXFJ3TL96TFXMATEMT7KJHUAI","","null","<img src=""img/animal3.png"" style=""width:200px; border:14px solid green;"">","null","","","","","",""
"","image-keyboard-response","191","102547","0.0-191.0","3WQQ9FUS6BGUG3PORZEM2ORCCR3B8T","A1AYQ8E01NSY5Z","3VJ4PFXFJ3TL96TFXMATEMT7KJHUAI","","819","img/animal1.png","75","820","2","0","3","1,0.7,0,1,0.7,0,0.7,0,1",""
"","html-keyboard-response","192","102851","0.0-192.0","3WQQ9FUS6BGUG3PORZEM2ORCCR3B8T","A1AYQ8E01NSY5Z","3VJ4PFXFJ3TL96TFXMATEMT7KJHUAI","","null","<img src=""img/animal1.png"" style=""width:200px;border:14px solid red;"">","null","","","","","",""
"","image-keyboard-response","193","103571","0.0-193.0","3WQQ9FUS6BGUG3PORZEM2ORCCR3B8T","A1AYQ8E01NSY5Z","3VJ4PFXFJ3TL96TFXMATEMT7KJHUAI","","718","img/animal1.png","76","719","3","1","3","1,0.7,0,1,0.7,0,0.7,0,1",""
"","html-keyboard-response","194","103884","0.0-194.0","3WQQ9FUS6BGUG3PORZEM2ORCCR3B8T","A1AYQ8E01NSY5Z","3VJ4PFXFJ3TL96TFXMATEMT7KJHUAI","","null","<img src=""img/animal1.png"" style=""width:200px; border:14px solid green;"">","null","","","","","",""
"","image-keyboard-response","195","104531","0.0-195.0","3WQQ9FUS6BGUG3PORZEM2ORCCR3B8T","A1AYQ8E01NSY5Z","3VJ4PFXFJ3TL96TFXMATEMT7KJHUAI","","646","img/animal1.png","76","648","3","1","3","1,0.7,0,1,0.7,0,0.7,0,1",""
"","html-keyboard-response","196","104839","0.0-196.0","3WQQ9FUS6BGUG3PORZEM2ORCCR3B8T","A1AYQ8E01NSY5Z","3VJ4PFXFJ3TL96TFXMATEMT7KJHUAI","","null","<img src=""img/animal1.png"" style=""width:200px; border:14px solid green;"">","null","","","","","",""
"","image-keyboard-response","197","105748","0.0-197.0","3WQQ9FUS6BGUG3PORZEM2ORCCR3B8T","A1AYQ8E01NSY5Z","3VJ4PFXFJ3TL96TFXMATEMT7KJHUAI","","906","img/animal6.png","75","908","2","1","2","1,0.7,0,1,0.7,0,0.7,0,1",""
"","html-keyboard-response","198","106061","0.0-198.0","3WQQ9FUS6BGUG3PORZEM2ORCCR3B8T","A1AYQ8E01NSY5Z","3VJ4PFXFJ3TL96TFXMATEMT7KJHUAI","","null","<img src=""img/animal6.png"" style=""width:200px; border:14px solid green;"">","null","","","","","",""
"","image-keyboard-response","199","106626","0.0-199.0","3WQQ9FUS6BGUG3PORZEM2ORCCR3B8T","A1AYQ8E01NSY5Z","3VJ4PFXFJ3TL96TFXMATEMT7KJHUAI","","564","img/animal6.png","75","565","2","0","2","1,0.7,0,1,0.7,0,0.7,0,1",""
"","html-keyboard-response","200","106935","0.0-200.0","3WQQ9FUS6BGUG3PORZEM2ORCCR3B8T","A1AYQ8E01NSY5Z","3VJ4PFXFJ3TL96TFXMATEMT7KJHUAI","","null","<img src=""img/animal6.png"" style=""width:200px;border:14px solid red;"">","null","","","","","",""
"","image-keyboard-response","201","107428","0.0-201.0","3WQQ9FUS6BGUG3PORZEM2ORCCR3B8T","A1AYQ8E01NSY5Z","3VJ4PFXFJ3TL96TFXMATEMT7KJHUAI","","492","img/animal6.png","75","494","2","1","2","1,0.7,0,1,0.7,0,0.7,0,1",""
"","html-keyboard-response","202","107740","0.0-202.0","3WQQ9FUS6BGUG3PORZEM2ORCCR3B8T","A1AYQ8E01NSY5Z","3VJ4PFXFJ3TL96TFXMATEMT7KJHUAI","","null","<img src=""img/animal6.png"" style=""width:200px; border:14px solid green;"">","null","","","","","",""
"","image-keyboard-response","203","108156","0.0-203.0","3WQQ9FUS6BGUG3PORZEM2ORCCR3B8T","A1AYQ8E01NSY5Z","3VJ4PFXFJ3TL96TFXMATEMT7KJHUAI","","414","img/animal6.png","75","416","2","0","2","1,0.7,0,1,0.7,0,0.7,0,1",""
"","html-keyboard-response","204","108471","0.0-204.0","3WQQ9FUS6BGUG3PORZEM2ORCCR3B8T","A1AYQ8E01NSY5Z","3VJ4PFXFJ3TL96TFXMATEMT7KJHUAI","","null","<img src=""img/animal6.png"" style=""width:200px;border:14px solid red;"">","null","","","","","",""
"","image-keyboard-response","205","108932","0.0-205.0","3WQQ9FUS6BGUG3PORZEM2ORCCR3B8T","A1AYQ8E01NSY5Z","3VJ4PFXFJ3TL96TFXMATEMT7KJHUAI","","458","img/animal6.png","74","461","1","1","2","1,0.7,0,1,0.7,0,0.7,0,1",""
"","html-keyboard-response","206","109242","0.0-206.0","3WQQ9FUS6BGUG3PORZEM2ORCCR3B8T","A1AYQ8E01NSY5Z","3VJ4PFXFJ3TL96TFXMATEMT7KJHUAI","","null","<img src=""img/animal6.png"" style=""width:200px; border:14px solid green;"">","null","","","","","",""
"","image-keyboard-response","207","109971","0.0-207.0","3WQQ9FUS6BGUG3PORZEM2ORCCR3B8T","A1AYQ8E01NSY5Z","3VJ4PFXFJ3TL96TFXMATEMT7KJHUAI","","728","img/animal3.png","74","729","1","1","1","1,0.7,0,1,0.7,0,0.7,0,1",""
"","html-keyboard-response","208","110282","0.0-208.0","3WQQ9FUS6BGUG3PORZEM2ORCCR3B8T","A1AYQ8E01NSY5Z","3VJ4PFXFJ3TL96TFXMATEMT7KJHUAI","","null","<img src=""img/animal3.png"" style=""width:200px; border:14px solid green;"">","null","","","","","",""
"","image-keyboard-response","209","111204","0.0-209.0","3WQQ9FUS6BGUG3PORZEM2ORCCR3B8T","A1AYQ8E01NSY5Z","3VJ4PFXFJ3TL96TFXMATEMT7KJHUAI","","919","img/animal1.png","76","921","3","1","3","1,0.7,0,1,0.7,0,0.7,0,1",""
"","html-keyboard-response","210","111516","0.0-210.0","3WQQ9FUS6BGUG3PORZEM2ORCCR3B8T","A1AYQ8E01NSY5Z","3VJ4PFXFJ3TL96TFXMATEMT7KJHUAI","","null","<img src=""img/animal1.png"" style=""width:200px; border:14px solid green;"">","null","","","","","",""
"","image-keyboard-response","211","112132","0.0-211.0","3WQQ9FUS6BGUG3PORZEM2ORCCR3B8T","A1AYQ8E01NSY5Z","3VJ4PFXFJ3TL96TFXMATEMT7KJHUAI","","614","img/animal1.png","76","615","3","1","3","1,0.7,0,1,0.7,0,0.7,0,1",""
"","html-keyboard-response","212","112449","0.0-212.0","3WQQ9FUS6BGUG3PORZEM2ORCCR3B8T","A1AYQ8E01NSY5Z","3VJ4PFXFJ3TL96TFXMATEMT7KJHUAI","","null","<img src=""img/animal1.png"" style=""width:200px; border:14px solid green;"">","null","","","","","",""
"","image-keyboard-response","213","113420","0.0-213.0","3WQQ9FUS6BGUG3PORZEM2ORCCR3B8T","A1AYQ8E01NSY5Z","3VJ4PFXFJ3TL96TFXMATEMT7KJHUAI","","969","img/animal3.png","74","971","1","1","1","1,0.7,0,1,0.7,0,0.7,0,1",""
"","html-keyboard-response","214","113731","0.0-214.0","3WQQ9FUS6BGUG3PORZEM2ORCCR3B8T","A1AYQ8E01NSY5Z","3VJ4PFXFJ3TL96TFXMATEMT7KJHUAI","","null","<img src=""img/animal3.png"" style=""width:200px; border:14px solid green;"">","null","","","","","",""
"","image-keyboard-response","215","114236","0.0-215.0","3WQQ9FUS6BGUG3PORZEM2ORCCR3B8T","A1AYQ8E01NSY5Z","3VJ4PFXFJ3TL96TFXMATEMT7KJHUAI","","502","img/animal6.png","75","504","2","1","2","1,0.7,0,1,0.7,0,0.7,0,1",""
"","html-keyboard-response","216","114544","0.0-216.0","3WQQ9FUS6BGUG3PORZEM2ORCCR3B8T","A1AYQ8E01NSY5Z","3VJ4PFXFJ3TL96TFXMATEMT7KJHUAI","","null","<img src=""img/animal6.png"" style=""width:200px; border:14px solid green;"">","null","","","","","",""
"","image-keyboard-response","217","115340","0.0-217.0","3WQQ9FUS6BGUG3PORZEM2ORCCR3B8T","A1AYQ8E01NSY5Z","3VJ4PFXFJ3TL96TFXMATEMT7KJHUAI","","794","img/animal3.png","74","796","1","1","1","1,0.7,0,1,0.7,0,0.7,0,1",""
"","html-keyboard-response","218","115655","0.0-218.0","3WQQ9FUS6BGUG3PORZEM2ORCCR3B8T","A1AYQ8E01NSY5Z","3VJ4PFXFJ3TL96TFXMATEMT7KJHUAI","","null","<img src=""img/animal3.png"" style=""width:200px; border:14px solid green;"">","null","","","","","",""
"","image-keyboard-response","219","116460","0.0-219.0","3WQQ9FUS6BGUG3PORZEM2ORCCR3B8T","A1AYQ8E01NSY5Z","3VJ4PFXFJ3TL96TFXMATEMT7KJHUAI","","803","img/animal1.png","76","804","3","1","3","1,0.7,0,1,0.7,0,0.7,0,1",""
"","html-keyboard-response","220","116766","0.0-220.0","3WQQ9FUS6BGUG3PORZEM2ORCCR3B8T","A1AYQ8E01NSY5Z","3VJ4PFXFJ3TL96TFXMATEMT7KJHUAI","","null","<img src=""img/animal1.png"" style=""width:200px; border:14px solid green;"">","null","","","","","",""
"","image-keyboard-response","221","118131","0.0-221.0","3WQQ9FUS6BGUG3PORZEM2ORCCR3B8T","A1AYQ8E01NSY5Z","3VJ4PFXFJ3TL96TFXMATEMT7KJHUAI","","1364","img/animal6.png","74","1365","1","1","2","1,0.7,0,1,0.7,0,0.7,0,1",""
"","html-keyboard-response","222","118449","0.0-222.0","3WQQ9FUS6BGUG3PORZEM2ORCCR3B8T","A1AYQ8E01NSY5Z","3VJ4PFXFJ3TL96TFXMATEMT7KJHUAI","","null","<img src=""img/animal6.png"" style=""width:200px; border:14px solid green;"">","null","","","","","",""
"","image-keyboard-response","223","119146","0.0-223.0","3WQQ9FUS6BGUG3PORZEM2ORCCR3B8T","A1AYQ8E01NSY5Z","3VJ4PFXFJ3TL96TFXMATEMT7KJHUAI","","697","img/animal3.png","74","698","1","1","1","1,0.7,0,1,0.7,0,0.7,0,1",""
"","html-keyboard-response","224","119461","0.0-224.0","3WQQ9FUS6BGUG3PORZEM2ORCCR3B8T","A1AYQ8E01NSY5Z","3VJ4PFXFJ3TL96TFXMATEMT7KJHUAI","","null","<img src=""img/animal3.png"" style=""width:200px; border:14px solid green;"">","null","","","","","",""
"","image-keyboard-response","225","120124","0.0-225.0","3WQQ9FUS6BGUG3PORZEM2ORCCR3B8T","A1AYQ8E01NSY5Z","3VJ4PFXFJ3TL96TFXMATEMT7KJHUAI","","662","img/animal1.png","76","663","3","1","3","1,0.7,0,1,0.7,0,0.7,0,1",""
"","html-keyboard-response","226","120426","0.0-226.0","3WQQ9FUS6BGUG3PORZEM2ORCCR3B8T","A1AYQ8E01NSY5Z","3VJ4PFXFJ3TL96TFXMATEMT7KJHUAI","","null","<img src=""img/animal1.png"" style=""width:200px; border:14px solid green;"">","null","","","","","",""
"","image-keyboard-response","227","121010","0.0-227.0","3WQQ9FUS6BGUG3PORZEM2ORCCR3B8T","A1AYQ8E01NSY5Z","3VJ4PFXFJ3TL96TFXMATEMT7KJHUAI","","582","img/animal3.png","74","583","1","1","1","1,0.7,0,1,0.7,0,0.7,0,1",""
"","html-keyboard-response","228","121316","0.0-228.0","3WQQ9FUS6BGUG3PORZEM2ORCCR3B8T","A1AYQ8E01NSY5Z","3VJ4PFXFJ3TL96TFXMATEMT7KJHUAI","","null","<img src=""img/animal3.png"" style=""width:200px; border:14px solid green;"">","null","","","","","",""
"","image-keyboard-response","229","121834","0.0-229.0","3WQQ9FUS6BGUG3PORZEM2ORCCR3B8T","A1AYQ8E01NSY5Z","3VJ4PFXFJ3TL96TFXMATEMT7KJHUAI","","517","img/animal3.png","74","519","1","1","1","1,0.7,0,1,0.7,0,0.7,0,1",""
"","html-keyboard-response","230","122142","0.0-230.0","3WQQ9FUS6BGUG3PORZEM2ORCCR3B8T","A1AYQ8E01NSY5Z","3VJ4PFXFJ3TL96TFXMATEMT7KJHUAI","","null","<img src=""img/animal3.png"" style=""width:200px; border:14px solid green;"">","null","","","","","",""
"","image-keyboard-response","231","122499","0.0-231.0","3WQQ9FUS6BGUG3PORZEM2ORCCR3B8T","A1AYQ8E01NSY5Z","3VJ4PFXFJ3TL96TFXMATEMT7KJHUAI","","356","img/animal3.png","74","357","1","1","1","1,0.7,0,1,0.7,0,0.7,0,1",""
"","html-keyboard-response","232","122816","0.0-232.0","3WQQ9FUS6BGUG3PORZEM2ORCCR3B8T","A1AYQ8E01NSY5Z","3VJ4PFXFJ3TL96TFXMATEMT7KJHUAI","","null","<img src=""img/animal3.png"" style=""width:200px; border:14px solid green;"">","null","","","","","",""
"","image-keyboard-response","233","123316","0.0-233.0","3WQQ9FUS6BGUG3PORZEM2ORCCR3B8T","A1AYQ8E01NSY5Z","3VJ4PFXFJ3TL96TFXMATEMT7KJHUAI","","497","img/animal1.png","76","499","3","1","3","1,0.7,0,1,0.7,0,0.7,0,1",""
"","html-keyboard-response","234","123624","0.0-234.0","3WQQ9FUS6BGUG3PORZEM2ORCCR3B8T","A1AYQ8E01NSY5Z","3VJ4PFXFJ3TL96TFXMATEMT7KJHUAI","","null","<img src=""img/animal1.png"" style=""width:200px; border:14px solid green;"">","null","","","","","",""
"","image-keyboard-response","235","124564","0.0-235.0","3WQQ9FUS6BGUG3PORZEM2ORCCR3B8T","A1AYQ8E01NSY5Z","3VJ4PFXFJ3TL96TFXMATEMT7KJHUAI","","937","img/animal6.png","75","939","2","0","2","1,0.7,0,1,0.7,0,0.7,0,1",""
"","html-keyboard-response","236","124869","0.0-236.0","3WQQ9FUS6BGUG3PORZEM2ORCCR3B8T","A1AYQ8E01NSY5Z","3VJ4PFXFJ3TL96TFXMATEMT7KJHUAI","","null","<img src=""img/animal6.png"" style=""width:200px;border:14px solid red;"">","null","","","","","",""
"","image-keyboard-response","237","125194","0.0-237.0","3WQQ9FUS6BGUG3PORZEM2ORCCR3B8T","A1AYQ8E01NSY5Z","3VJ4PFXFJ3TL96TFXMATEMT7KJHUAI","","323","img/animal3.png","74","325","1","1","1","1,0.7,0,1,0.7,0,0.7,0,1",""
"","html-keyboard-response","238","125509","0.0-238.0","3WQQ9FUS6BGUG3PORZEM2ORCCR3B8T","A1AYQ8E01NSY5Z","3VJ4PFXFJ3TL96TFXMATEMT7KJHUAI","","null","<img src=""img/animal3.png"" style=""width:200px; border:14px solid green;"">","null","","","","","",""
"","image-keyboard-response","239","126502","0.0-239.0","3WQQ9FUS6BGUG3PORZEM2ORCCR3B8T","A1AYQ8E01NSY5Z","3VJ4PFXFJ3TL96TFXMATEMT7KJHUAI","","989","img/animal6.png","76","993","3","0","2","1,0.7,0,1,0.7,0,0.7,0,1",""
"","html-keyboard-response","240","126814","0.0-240.0","3WQQ9FUS6BGUG3PORZEM2ORCCR3B8T","A1AYQ8E01NSY5Z","3VJ4PFXFJ3TL96TFXMATEMT7KJHUAI","","null","<img src=""img/animal6.png"" style=""width:200px;border:14px solid red;"">","null","","","","","",""
"","image-keyboard-response","241","127074","0.0-241.0","3WQQ9FUS6BGUG3PORZEM2ORCCR3B8T","A1AYQ8E01NSY5Z","3VJ4PFXFJ3TL96TFXMATEMT7KJHUAI","","256","img/animal1.png","74","258","1","1","3","1,0.7,0,1,0.7,0,0.7,0,1",""
"","html-keyboard-response","242","127391","0.0-242.0","3WQQ9FUS6BGUG3PORZEM2ORCCR3B8T","A1AYQ8E01NSY5Z","3VJ4PFXFJ3TL96TFXMATEMT7KJHUAI","","null","<img src=""img/animal1.png"" style=""width:200px; border:14px solid green;"">","null","","","","","",""
"","image-keyboard-response","243","128115","0.0-243.0","3WQQ9FUS6BGUG3PORZEM2ORCCR3B8T","A1AYQ8E01NSY5Z","3VJ4PFXFJ3TL96TFXMATEMT7KJHUAI","","724","img/animal6.png","74","725","1","1","2","1,0.7,0,1,0.7,0,0.7,0,1",""
"","html-keyboard-response","244","128435","0.0-244.0","3WQQ9FUS6BGUG3PORZEM2ORCCR3B8T","A1AYQ8E01NSY5Z","3VJ4PFXFJ3TL96TFXMATEMT7KJHUAI","","null","<img src=""img/animal6.png"" style=""width:200px; border:14px solid green;"">","null","","","","","",""
"","image-keyboard-response","245","129187","0.0-245.0","3WQQ9FUS6BGUG3PORZEM2ORCCR3B8T","A1AYQ8E01NSY5Z","3VJ4PFXFJ3TL96TFXMATEMT7KJHUAI","","750","img/animal1.png","76","752","3","1","3","1,0.7,0,1,0.7,0,0.7,0,1",""
"","html-keyboard-response","246","129499","0.0-246.0","3WQQ9FUS6BGUG3PORZEM2ORCCR3B8T","A1AYQ8E01NSY5Z","3VJ4PFXFJ3TL96TFXMATEMT7KJHUAI","","null","<img src=""img/animal1.png"" style=""width:200px; border:14px solid green;"">","null","","","","","",""
"","image-keyboard-response","247","130692","0.0-247.0","3WQQ9FUS6BGUG3PORZEM2ORCCR3B8T","A1AYQ8E01NSY5Z","3VJ4PFXFJ3TL96TFXMATEMT7KJHUAI","","1191","img/animal1.png","74","1192","1","1","3","1,0.7,0,1,0.7,0,0.7,0,1",""
"","html-keyboard-response","248","131002","0.0-248.0","3WQQ9FUS6BGUG3PORZEM2ORCCR3B8T","A1AYQ8E01NSY5Z","3VJ4PFXFJ3TL96TFXMATEMT7KJHUAI","","null","<img src=""img/animal1.png"" style=""width:200px; border:14px solid green;"">","null","","","","","",""
"","image-keyboard-response","249","131706","0.0-249.0","3WQQ9FUS6BGUG3PORZEM2ORCCR3B8T","A1AYQ8E01NSY5Z","3VJ4PFXFJ3TL96TFXMATEMT7KJHUAI","","703","img/animal3.png","74","703","1","1","1","1,0.7,0,1,0.7,0,0.7,0,1",""
"","html-keyboard-response","250","132017","0.0-250.0","3WQQ9FUS6BGUG3PORZEM2ORCCR3B8T","A1AYQ8E01NSY5Z","3VJ4PFXFJ3TL96TFXMATEMT7KJHUAI","","null","<img src=""img/animal3.png"" style=""width:200px; border:14px solid green;"">","null","","","","","",""
"","image-keyboard-response","251","133194","0.0-251.0","3WQQ9FUS6BGUG3PORZEM2ORCCR3B8T","A1AYQ8E01NSY5Z","3VJ4PFXFJ3TL96TFXMATEMT7KJHUAI","","1177","img/animal6.png","74","1178","1","1","2","1,0.7,0,1,0.7,0,0.7,0,1",""
"","html-keyboard-response","252","133499","0.0-252.0","3WQQ9FUS6BGUG3PORZEM2ORCCR3B8T","A1AYQ8E01NSY5Z","3VJ4PFXFJ3TL96TFXMATEMT7KJHUAI","","null","<img src=""img/animal6.png"" style=""width:200px; border:14px solid green;"">","null","","","","","",""
"","image-keyboard-response","253","134123","0.0-253.0","3WQQ9FUS6BGUG3PORZEM2ORCCR3B8T","A1AYQ8E01NSY5Z","3VJ4PFXFJ3TL96TFXMATEMT7KJHUAI","","622","img/animal6.png","74","624","1","1","2","1,0.7,0,1,0.7,0,0.7,0,1",""
"","html-keyboard-response","254","134433","0.0-254.0","3WQQ9FUS6BGUG3PORZEM2ORCCR3B8T","A1AYQ8E01NSY5Z","3VJ4PFXFJ3TL96TFXMATEMT7KJHUAI","","null","<img src=""img/animal6.png"" style=""width:200px; border:14px solid green;"">","null","","","","","",""
"","image-keyboard-response","255","135116","0.0-255.0","3WQQ9FUS6BGUG3PORZEM2ORCCR3B8T","A1AYQ8E01NSY5Z","3VJ4PFXFJ3TL96TFXMATEMT7KJHUAI","","681","img/animal3.png","74","681","1","1","1","1,0.7,0,1,0.7,0,0.7,0,1",""
"","html-keyboard-response","256","135421","0.0-256.0","3WQQ9FUS6BGUG3PORZEM2ORCCR3B8T","A1AYQ8E01NSY5Z","3VJ4PFXFJ3TL96TFXMATEMT7KJHUAI","","null","<img src=""img/animal3.png"" style=""width:200px; border:14px solid green;"">","null","","","","","",""
"","image-keyboard-response","257","135818","0.0-257.0","3WQQ9FUS6BGUG3PORZEM2ORCCR3B8T","A1AYQ8E01NSY5Z","3VJ4PFXFJ3TL96TFXMATEMT7KJHUAI","","395","img/animal3.png","74","396","1","1","1","1,0.7,0,1,0.7,0,0.7,0,1",""
"","html-keyboard-response","258","136126","0.0-258.0","3WQQ9FUS6BGUG3PORZEM2ORCCR3B8T","A1AYQ8E01NSY5Z","3VJ4PFXFJ3TL96TFXMATEMT7KJHUAI","","null","<img src=""img/animal3.png"" style=""width:200px; border:14px solid green;"">","null","","","","","",""
"","image-keyboard-response","259","136508","0.0-259.0","3WQQ9FUS6BGUG3PORZEM2ORCCR3B8T","A1AYQ8E01NSY5Z","3VJ4PFXFJ3TL96TFXMATEMT7KJHUAI","","380","img/animal3.png","74","382","1","1","1","1,0.7,0,1,0.7,0,0.7,0,1",""
"","html-keyboard-response","260","136825","0.0-260.0","3WQQ9FUS6BGUG3PORZEM2ORCCR3B8T","A1AYQ8E01NSY5Z","3VJ4PFXFJ3TL96TFXMATEMT7KJHUAI","","null","<img src=""img/animal3.png"" style=""width:200px; border:14px solid green;"">","null","","","","","",""
"","image-keyboard-response","261","137419","0.0-261.0","3WQQ9FUS6BGUG3PORZEM2ORCCR3B8T","A1AYQ8E01NSY5Z","3VJ4PFXFJ3TL96TFXMATEMT7KJHUAI","","592","img/animal1.png","74","594","1","1","3","1,0.7,0,1,0.7,0,0.7,0,1",""
"","html-keyboard-response","262","137728","0.0-262.0","3WQQ9FUS6BGUG3PORZEM2ORCCR3B8T","A1AYQ8E01NSY5Z","3VJ4PFXFJ3TL96TFXMATEMT7KJHUAI","","null","<img src=""img/animal1.png"" style=""width:200px; border:14px solid green;"">","null","","","","","",""
"","image-keyboard-response","263","138276","0.0-263.0","3WQQ9FUS6BGUG3PORZEM2ORCCR3B8T","A1AYQ8E01NSY5Z","3VJ4PFXFJ3TL96TFXMATEMT7KJHUAI","","546","img/animal1.png","74","548","1","1","3","1,0.7,0,1,0.7,0,0.7,0,1",""
"","html-keyboard-response","264","138588","0.0-264.0","3WQQ9FUS6BGUG3PORZEM2ORCCR3B8T","A1AYQ8E01NSY5Z","3VJ4PFXFJ3TL96TFXMATEMT7KJHUAI","","null","<img src=""img/animal1.png"" style=""width:200px; border:14px solid green;"">","null","","","","","",""
"","image-keyboard-response","265","139308","0.0-265.0","3WQQ9FUS6BGUG3PORZEM2ORCCR3B8T","A1AYQ8E01NSY5Z","3VJ4PFXFJ3TL96TFXMATEMT7KJHUAI","","717","img/animal3.png","74","719","1","1","1","1,0.7,0,1,0.7,0,0.7,0,1",""
"","html-keyboard-response","266","139623","0.0-266.0","3WQQ9FUS6BGUG3PORZEM2ORCCR3B8T","A1AYQ8E01NSY5Z","3VJ4PFXFJ3TL96TFXMATEMT7KJHUAI","","null","<img src=""img/animal3.png"" style=""width:200px; border:14px solid green;"">","null","","","","","",""
"","image-keyboard-response","267","140506","0.0-267.0","3WQQ9FUS6BGUG3PORZEM2ORCCR3B8T","A1AYQ8E01NSY5Z","3VJ4PFXFJ3TL96TFXMATEMT7KJHUAI","","881","img/animal6.png","74","883","1","1","2","1,0.7,0,1,0.7,0,0.7,0,1",""
"","html-keyboard-response","268","140814","0.0-268.0","3WQQ9FUS6BGUG3PORZEM2ORCCR3B8T","A1AYQ8E01NSY5Z","3VJ4PFXFJ3TL96TFXMATEMT7KJHUAI","","null","<img src=""img/animal6.png"" style=""width:200px; border:14px solid green;"">","null","","","","","",""
"","image-keyboard-response","269","141620","0.0-269.0","3WQQ9FUS6BGUG3PORZEM2ORCCR3B8T","A1AYQ8E01NSY5Z","3VJ4PFXFJ3TL96TFXMATEMT7KJHUAI","","803","img/animal1.png","76","805","3","1","3","1,0.7,0,1,0.7,0,0.7,0,1",""
"","html-keyboard-response","270","141933","0.0-270.0","3WQQ9FUS6BGUG3PORZEM2ORCCR3B8T","A1AYQ8E01NSY5Z","3VJ4PFXFJ3TL96TFXMATEMT7KJHUAI","","null","<img src=""img/animal1.png"" style=""width:200px; border:14px solid green;"">","null","","","","","",""
"","image-keyboard-response","271","142500","0.0-271.0","3WQQ9FUS6BGUG3PORZEM2ORCCR3B8T","A1AYQ8E01NSY5Z","3VJ4PFXFJ3TL96TFXMATEMT7KJHUAI","","565","img/animal6.png","74","566","1","1","2","1,0.7,0,1,0.7,0,0.7,0,1",""
"","html-keyboard-response","272","142822","0.0-272.0","3WQQ9FUS6BGUG3PORZEM2ORCCR3B8T","A1AYQ8E01NSY5Z","3VJ4PFXFJ3TL96TFXMATEMT7KJHUAI","","null","<img src=""img/animal6.png"" style=""width:200px; border:14px solid green;"">","null","","","","","",""
"","image-keyboard-response","273","143371","0.0-273.0","3WQQ9FUS6BGUG3PORZEM2ORCCR3B8T","A1AYQ8E01NSY5Z","3VJ4PFXFJ3TL96TFXMATEMT7KJHUAI","","547","img/animal1.png","74","549","1","1","3","1,0.7,0,1,0.7,0,0.7,0,1",""
"","html-keyboard-response","274","143674","0.0-274.0","3WQQ9FUS6BGUG3PORZEM2ORCCR3B8T","A1AYQ8E01NSY5Z","3VJ4PFXFJ3TL96TFXMATEMT7KJHUAI","","null","<img src=""img/animal1.png"" style=""width:200px; border:14px solid green;"">","null","","","","","",""
"","image-keyboard-response","275","144170","0.0-275.0","3WQQ9FUS6BGUG3PORZEM2ORCCR3B8T","A1AYQ8E01NSY5Z","3VJ4PFXFJ3TL96TFXMATEMT7KJHUAI","","494","img/animal6.png","74","495","1","1","2","1,0.7,0,1,0.7,0,0.7,0,1",""
"","html-keyboard-response","276","144485","0.0-276.0","3WQQ9FUS6BGUG3PORZEM2ORCCR3B8T","A1AYQ8E01NSY5Z","3VJ4PFXFJ3TL96TFXMATEMT7KJHUAI","","null","<img src=""img/animal6.png"" style=""width:200px; border:14px solid green;"">","null","","","","","",""
"","image-keyboard-response","277","145005","0.0-277.0","3WQQ9FUS6BGUG3PORZEM2ORCCR3B8T","A1AYQ8E01NSY5Z","3VJ4PFXFJ3TL96TFXMATEMT7KJHUAI","","518","img/animal1.png","74","521","1","0","3","1,0.7,0,1,0.7,0,0.7,0,1",""
"","html-keyboard-response","278","145315","0.0-278.0","3WQQ9FUS6BGUG3PORZEM2ORCCR3B8T","A1AYQ8E01NSY5Z","3VJ4PFXFJ3TL96TFXMATEMT7KJHUAI","","null","<img src=""img/animal1.png"" style=""width:200px;border:14px solid red;"">","null","","","","","",""
"","image-keyboard-response","279","145892","0.0-279.0","3WQQ9FUS6BGUG3PORZEM2ORCCR3B8T","A1AYQ8E01NSY5Z","3VJ4PFXFJ3TL96TFXMATEMT7KJHUAI","","576","img/animal6.png","74","577","1","1","2","1,0.7,0,1,0.7,0,0.7,0,1",""
"","html-keyboard-response","280","146206","0.0-280.0","3WQQ9FUS6BGUG3PORZEM2ORCCR3B8T","A1AYQ8E01NSY5Z","3VJ4PFXFJ3TL96TFXMATEMT7KJHUAI","","null","<img src=""img/animal6.png"" style=""width:200px; border:14px solid green;"">","null","","","","","",""
"","image-keyboard-response","281","146884","0.0-281.0","3WQQ9FUS6BGUG3PORZEM2ORCCR3B8T","A1AYQ8E01NSY5Z","3VJ4PFXFJ3TL96TFXMATEMT7KJHUAI","","676","img/animal1.png","74","677","1","1","3","1,0.7,0,1,0.7,0,0.7,0,1",""
"","html-keyboard-response","282","147192","0.0-282.0","3WQQ9FUS6BGUG3PORZEM2ORCCR3B8T","A1AYQ8E01NSY5Z","3VJ4PFXFJ3TL96TFXMATEMT7KJHUAI","","null","<img src=""img/animal1.png"" style=""width:200px; border:14px solid green;"">","null","","","","","",""
"","image-keyboard-response","283","147907","0.0-283.0","3WQQ9FUS6BGUG3PORZEM2ORCCR3B8T","A1AYQ8E01NSY5Z","3VJ4PFXFJ3TL96TFXMATEMT7KJHUAI","","713","img/animal3.png","74","715","1","1","1","1,0.7,0,1,0.7,0,0.7,0,1",""
"","html-keyboard-response","284","148210","0.0-284.0","3WQQ9FUS6BGUG3PORZEM2ORCCR3B8T","A1AYQ8E01NSY5Z","3VJ4PFXFJ3TL96TFXMATEMT7KJHUAI","","null","<img src=""img/animal3.png"" style=""width:200px; border:14px solid green;"">","null","","","","","",""
"","image-keyboard-response","285","148812","0.0-285.0","3WQQ9FUS6BGUG3PORZEM2ORCCR3B8T","A1AYQ8E01NSY5Z","3VJ4PFXFJ3TL96TFXMATEMT7KJHUAI","","600","img/animal1.png","74","602","1","1","3","1,0.7,0,1,0.7,0,0.7,0,1",""
"","html-keyboard-response","286","149125","0.0-286.0","3WQQ9FUS6BGUG3PORZEM2ORCCR3B8T","A1AYQ8E01NSY5Z","3VJ4PFXFJ3TL96TFXMATEMT7KJHUAI","","null","<img src=""img/animal1.png"" style=""width:200px; border:14px solid green;"">","null","","","","","",""
"","image-keyboard-response","287","149659","0.0-287.0","3WQQ9FUS6BGUG3PORZEM2ORCCR3B8T","A1AYQ8E01NSY5Z","3VJ4PFXFJ3TL96TFXMATEMT7KJHUAI","","531","img/animal6.png","74","533","1","1","2","1,0.7,0,1,0.7,0,0.7,0,1",""
"","html-keyboard-response","288","149968","0.0-288.0","3WQQ9FUS6BGUG3PORZEM2ORCCR3B8T","A1AYQ8E01NSY5Z","3VJ4PFXFJ3TL96TFXMATEMT7KJHUAI","","null","<img src=""img/animal6.png"" style=""width:200px; border:14px solid green;"">","null","","","","","",""
"","image-keyboard-response","289","150395","0.0-289.0","3WQQ9FUS6BGUG3PORZEM2ORCCR3B8T","A1AYQ8E01NSY5Z","3VJ4PFXFJ3TL96TFXMATEMT7KJHUAI","","427","img/animal6.png","74","428","1","1","2","1,0.7,0,1,0.7,0,0.7,0,1",""
"","html-keyboard-response","290","150701","0.0-290.0","3WQQ9FUS6BGUG3PORZEM2ORCCR3B8T","A1AYQ8E01NSY5Z","3VJ4PFXFJ3TL96TFXMATEMT7KJHUAI","","null","<img src=""img/animal6.png"" style=""width:200px; border:14px solid green;"">","null","","","","","",""
"","image-keyboard-response","291","151060","0.0-291.0","3WQQ9FUS6BGUG3PORZEM2ORCCR3B8T","A1AYQ8E01NSY5Z","3VJ4PFXFJ3TL96TFXMATEMT7KJHUAI","","356","img/animal6.png","74","359","1","1","2","1,0.7,0,1,0.7,0,0.7,0,1",""
"","html-keyboard-response","292","151373","0.0-292.0","3WQQ9FUS6BGUG3PORZEM2ORCCR3B8T","A1AYQ8E01NSY5Z","3VJ4PFXFJ3TL96TFXMATEMT7KJHUAI","","null","<img src=""img/animal6.png"" style=""width:200px; border:14px solid green;"">","null","","","","","",""
"","image-keyboard-response","293","151980","0.0-293.0","3WQQ9FUS6BGUG3PORZEM2ORCCR3B8T","A1AYQ8E01NSY5Z","3VJ4PFXFJ3TL96TFXMATEMT7KJHUAI","","605","img/animal1.png","74","606","1","0","3","1,0.7,0,1,0.7,0,0.7,0,1",""
"","html-keyboard-response","294","152285","0.0-294.0","3WQQ9FUS6BGUG3PORZEM2ORCCR3B8T","A1AYQ8E01NSY5Z","3VJ4PFXFJ3TL96TFXMATEMT7KJHUAI","","null","<img src=""img/animal1.png"" style=""width:200px;border:14px solid red;"">","null","","","","","",""
"","image-keyboard-response","295","152881","0.0-295.0","3WQQ9FUS6BGUG3PORZEM2ORCCR3B8T","A1AYQ8E01NSY5Z","3VJ4PFXFJ3TL96TFXMATEMT7KJHUAI","","596","img/animal3.png","74","597","1","1","1","1,0.7,0,1,0.7,0,0.7,0,1",""
"","html-keyboard-response","296","153189","0.0-296.0","3WQQ9FUS6BGUG3PORZEM2ORCCR3B8T","A1AYQ8E01NSY5Z","3VJ4PFXFJ3TL96TFXMATEMT7KJHUAI","","null","<img src=""img/animal3.png"" style=""width:200px; border:14px solid green;"">","null","","","","","",""
"","image-keyboard-response","297","153972","0.0-297.0","3WQQ9FUS6BGUG3PORZEM2ORCCR3B8T","A1AYQ8E01NSY5Z","3VJ4PFXFJ3TL96TFXMATEMT7KJHUAI","","780","img/animal6.png","74","781","1","1","2","1,0.7,0,1,0.7,0,0.7,0,1",""
"","html-keyboard-response","298","154284","0.0-298.0","3WQQ9FUS6BGUG3PORZEM2ORCCR3B8T","A1AYQ8E01NSY5Z","3VJ4PFXFJ3TL96TFXMATEMT7KJHUAI","","null","<img src=""img/animal6.png"" style=""width:200px; border:14px solid green;"">","null","","","","","",""
"","image-keyboard-response","299","154876","0.0-299.0","3WQQ9FUS6BGUG3PORZEM2ORCCR3B8T","A1AYQ8E01NSY5Z","3VJ4PFXFJ3TL96TFXMATEMT7KJHUAI","","592","img/animal3.png","74","593","1","1","1","1,0.7,0,1,0.7,0,0.7,0,1",""
"","html-keyboard-response","300","155187","0.0-300.0","3WQQ9FUS6BGUG3PORZEM2ORCCR3B8T","A1AYQ8E01NSY5Z","3VJ4PFXFJ3TL96TFXMATEMT7KJHUAI","","null","<img src=""img/animal3.png"" style=""width:200px; border:14px solid green;"">","null","","","","","",""
"","image-keyboard-response","301","155620","0.0-301.0","3WQQ9FUS6BGUG3PORZEM2ORCCR3B8T","A1AYQ8E01NSY5Z","3VJ4PFXFJ3TL96TFXMATEMT7KJHUAI","","431","img/animal3.png","74","433","1","1","1","1,0.7,0,1,0.7,0,0.7,0,1",""
"","html-keyboard-response","302","155938","0.0-302.0","3WQQ9FUS6BGUG3PORZEM2ORCCR3B8T","A1AYQ8E01NSY5Z","3VJ4PFXFJ3TL96TFXMATEMT7KJHUAI","","null","<img src=""img/animal3.png"" style=""width:200px; border:14px solid green;"">","null","","","","","",""
"","image-keyboard-response","303","156300","0.0-303.0","3WQQ9FUS6BGUG3PORZEM2ORCCR3B8T","A1AYQ8E01NSY5Z","3VJ4PFXFJ3TL96TFXMATEMT7KJHUAI","","360","img/animal3.png","74","362","1","1","1","1,0.7,0,1,0.7,0,0.7,0,1",""
"","html-keyboard-response","304","156608","0.0-304.0","3WQQ9FUS6BGUG3PORZEM2ORCCR3B8T","A1AYQ8E01NSY5Z","3VJ4PFXFJ3TL96TFXMATEMT7KJHUAI","","null","<img src=""img/animal3.png"" style=""width:200px; border:14px solid green;"">","null","","","","","",""
"","image-keyboard-response","305","157475","0.0-305.0","3WQQ9FUS6BGUG3PORZEM2ORCCR3B8T","A1AYQ8E01NSY5Z","3VJ4PFXFJ3TL96TFXMATEMT7KJHUAI","","866","img/animal6.png","74","867","1","1","2","1,0.7,0,1,0.7,0,0.7,0,1",""
"","html-keyboard-response","306","157783","0.0-306.0","3WQQ9FUS6BGUG3PORZEM2ORCCR3B8T","A1AYQ8E01NSY5Z","3VJ4PFXFJ3TL96TFXMATEMT7KJHUAI","","null","<img src=""img/animal6.png"" style=""width:200px; border:14px solid green;"">","null","","","","","",""
"","image-keyboard-response","307","158404","0.0-307.0","3WQQ9FUS6BGUG3PORZEM2ORCCR3B8T","A1AYQ8E01NSY5Z","3VJ4PFXFJ3TL96TFXMATEMT7KJHUAI","","619","img/animal3.png","75","620","2","1","1","1,0.7,0,1,0.7,0,0.7,0,1",""
"","html-keyboard-response","308","158720","0.0-308.0","3WQQ9FUS6BGUG3PORZEM2ORCCR3B8T","A1AYQ8E01NSY5Z","3VJ4PFXFJ3TL96TFXMATEMT7KJHUAI","","null","<img src=""img/animal3.png"" style=""width:200px; border:14px solid green;"">","null","","","","","",""
"","image-keyboard-response","309","159225","0.0-309.0","3WQQ9FUS6BGUG3PORZEM2ORCCR3B8T","A1AYQ8E01NSY5Z","3VJ4PFXFJ3TL96TFXMATEMT7KJHUAI","","504","img/animal6.png","74","504","1","1","2","1,0.7,0,1,0.7,0,0.7,0,1",""
"","html-keyboard-response","310","159531","0.0-310.0","3WQQ9FUS6BGUG3PORZEM2ORCCR3B8T","A1AYQ8E01NSY5Z","3VJ4PFXFJ3TL96TFXMATEMT7KJHUAI","","null","<img src=""img/animal6.png"" style=""width:200px; border:14px solid green;"">","null","","","","","",""
"","image-keyboard-response","311","160458","0.0-311.0","3WQQ9FUS6BGUG3PORZEM2ORCCR3B8T","A1AYQ8E01NSY5Z","3VJ4PFXFJ3TL96TFXMATEMT7KJHUAI","","925","img/animal1.png","76","925","3","1","3","1,0.7,0,1,0.7,0,0.7,0,1",""
"","html-keyboard-response","312","160767","0.0-312.0","3WQQ9FUS6BGUG3PORZEM2ORCCR3B8T","A1AYQ8E01NSY5Z","3VJ4PFXFJ3TL96TFXMATEMT7KJHUAI","","null","<img src=""img/animal1.png"" style=""width:200px; border:14px solid green;"">","null","","","","","",""
"","image-keyboard-response","313","161308","0.0-313.0","3WQQ9FUS6BGUG3PORZEM2ORCCR3B8T","A1AYQ8E01NSY5Z","3VJ4PFXFJ3TL96TFXMATEMT7KJHUAI","","539","img/animal3.png","74","540","1","1","1","1,0.7,0,1,0.7,0,0.7,0,1",""
"","html-keyboard-response","314","161623","0.0-314.0","3WQQ9FUS6BGUG3PORZEM2ORCCR3B8T","A1AYQ8E01NSY5Z","3VJ4PFXFJ3TL96TFXMATEMT7KJHUAI","","null","<img src=""img/animal3.png"" style=""width:200px; border:14px solid green;"">","null","","","","","",""
"","image-keyboard-response","315","162108","0.0-315.0","3WQQ9FUS6BGUG3PORZEM2ORCCR3B8T","A1AYQ8E01NSY5Z","3VJ4PFXFJ3TL96TFXMATEMT7KJHUAI","","482","img/animal1.png","75","483","2","0","3","1,0.7,0,1,0.7,0,0.7,0,1",""
"","html-keyboard-response","316","162419","0.0-316.0","3WQQ9FUS6BGUG3PORZEM2ORCCR3B8T","A1AYQ8E01NSY5Z","3VJ4PFXFJ3TL96TFXMATEMT7KJHUAI","","null","<img src=""img/animal1.png"" style=""width:200px;border:14px solid red;"">","null","","","","","",""
"","image-keyboard-response","317","163076","0.0-317.0","3WQQ9FUS6BGUG3PORZEM2ORCCR3B8T","A1AYQ8E01NSY5Z","3VJ4PFXFJ3TL96TFXMATEMT7KJHUAI","","654","img/animal6.png","74","656","1","1","2","1,0.7,0,1,0.7,0,0.7,0,1",""
"","html-keyboard-response","318","163388","0.0-318.0","3WQQ9FUS6BGUG3PORZEM2ORCCR3B8T","A1AYQ8E01NSY5Z","3VJ4PFXFJ3TL96TFXMATEMT7KJHUAI","","null","<img src=""img/animal6.png"" style=""width:200px; border:14px solid green;"">","null","","","","","",""
"","image-keyboard-response","319","164004","0.0-319.0","3WQQ9FUS6BGUG3PORZEM2ORCCR3B8T","A1AYQ8E01NSY5Z","3VJ4PFXFJ3TL96TFXMATEMT7KJHUAI","","613","img/animal3.png","74","615","1","1","1","1,0.7,0,1,0.7,0,0.7,0,1",""
"","html-keyboard-response","320","164309","0.0-320.0","3WQQ9FUS6BGUG3PORZEM2ORCCR3B8T","A1AYQ8E01NSY5Z","3VJ4PFXFJ3TL96TFXMATEMT7KJHUAI","","null","<img src=""img/animal3.png"" style=""width:200px; border:14px solid green;"">","null","","","","","",""
"","image-keyboard-response","321","164715","0.0-321.0","3WQQ9FUS6BGUG3PORZEM2ORCCR3B8T","A1AYQ8E01NSY5Z","3VJ4PFXFJ3TL96TFXMATEMT7KJHUAI","","405","img/animal3.png","74","407","1","1","1","1,0.7,0,1,0.7,0,0.7,0,1",""
"","html-keyboard-response","322","165026","0.0-322.0","3WQQ9FUS6BGUG3PORZEM2ORCCR3B8T","A1AYQ8E01NSY5Z","3VJ4PFXFJ3TL96TFXMATEMT7KJHUAI","","null","<img src=""img/animal3.png"" style=""width:200px; border:14px solid green;"">","null","","","","","",""
"","image-keyboard-response","323","165956","0.0-323.0","3WQQ9FUS6BGUG3PORZEM2ORCCR3B8T","A1AYQ8E01NSY5Z","3VJ4PFXFJ3TL96TFXMATEMT7KJHUAI","","927","img/animal6.png","75","929","2","1","2","1,0.7,0,1,0.7,0,0.7,0,1",""
"","html-keyboard-response","324","166261","0.0-324.0","3WQQ9FUS6BGUG3PORZEM2ORCCR3B8T","A1AYQ8E01NSY5Z","3VJ4PFXFJ3TL96TFXMATEMT7KJHUAI","","null","<img src=""img/animal6.png"" style=""width:200px; border:14px solid green;"">","null","","","","","",""
"","image-keyboard-response","325","166827","0.0-325.0","3WQQ9FUS6BGUG3PORZEM2ORCCR3B8T","A1AYQ8E01NSY5Z","3VJ4PFXFJ3TL96TFXMATEMT7KJHUAI","","564","img/animal1.png","76","566","3","1","3","1,0.7,0,1,0.7,0,0.7,0,1",""
"","html-keyboard-response","326","167134","0.0-326.0","3WQQ9FUS6BGUG3PORZEM2ORCCR3B8T","A1AYQ8E01NSY5Z","3VJ4PFXFJ3TL96TFXMATEMT7KJHUAI","","null","<img src=""img/animal1.png"" style=""width:200px; border:14px solid green;"">","null","","","","","",""
"","image-keyboard-response","327","167731","0.0-327.0","3WQQ9FUS6BGUG3PORZEM2ORCCR3B8T","A1AYQ8E01NSY5Z","3VJ4PFXFJ3TL96TFXMATEMT7KJHUAI","","596","img/animal3.png","74","597","1","1","1","1,0.7,0,1,0.7,0,0.7,0,1",""
"","html-keyboard-response","328","168040","0.0-328.0","3WQQ9FUS6BGUG3PORZEM2ORCCR3B8T","A1AYQ8E01NSY5Z","3VJ4PFXFJ3TL96TFXMATEMT7KJHUAI","","null","<img src=""img/animal3.png"" style=""width:200px; border:14px solid green;"">","null","","","","","",""
"","image-keyboard-response","329","169307","0.0-329.0","3WQQ9FUS6BGUG3PORZEM2ORCCR3B8T","A1AYQ8E01NSY5Z","3VJ4PFXFJ3TL96TFXMATEMT7KJHUAI","","1265","img/animal1.png","76","1267","3","1","3","1,0.7,0,1,0.7,0,0.7,0,1",""
"","html-keyboard-response","330","169615","0.0-330.0","3WQQ9FUS6BGUG3PORZEM2ORCCR3B8T","A1AYQ8E01NSY5Z","3VJ4PFXFJ3TL96TFXMATEMT7KJHUAI","","null","<img src=""img/animal1.png"" style=""width:200px; border:14px solid green;"">","null","","","","","",""
"","image-keyboard-response","331","170124","0.0-331.0","3WQQ9FUS6BGUG3PORZEM2ORCCR3B8T","A1AYQ8E01NSY5Z","3VJ4PFXFJ3TL96TFXMATEMT7KJHUAI","","506","img/animal1.png","76","508","3","1","3","1,0.7,0,1,0.7,0,0.7,0,1",""
"","html-keyboard-response","332","170428","0.0-332.0","3WQQ9FUS6BGUG3PORZEM2ORCCR3B8T","A1AYQ8E01NSY5Z","3VJ4PFXFJ3TL96TFXMATEMT7KJHUAI","","null","<img src=""img/animal1.png"" style=""width:200px; border:14px solid green;"">","null","","","","","",""
"","image-keyboard-response","333","171299","0.0-333.0","3WQQ9FUS6BGUG3PORZEM2ORCCR3B8T","A1AYQ8E01NSY5Z","3VJ4PFXFJ3TL96TFXMATEMT7KJHUAI","","870","img/animal6.png","75","871","2","1","2","1,0.7,0,1,0.7,0,0.7,0,1",""
"","html-keyboard-response","334","171612","0.0-334.0","3WQQ9FUS6BGUG3PORZEM2ORCCR3B8T","A1AYQ8E01NSY5Z","3VJ4PFXFJ3TL96TFXMATEMT7KJHUAI","","null","<img src=""img/animal6.png"" style=""width:200px; border:14px solid green;"">","null","","","","","",""
"","image-keyboard-response","335","172275","0.0-335.0","3WQQ9FUS6BGUG3PORZEM2ORCCR3B8T","A1AYQ8E01NSY5Z","3VJ4PFXFJ3TL96TFXMATEMT7KJHUAI","","661","img/animal3.png","74","663","1","1","1","1,0.7,0,1,0.7,0,0.7,0,1",""
"","html-keyboard-response","336","172579","0.0-336.0","3WQQ9FUS6BGUG3PORZEM2ORCCR3B8T","A1AYQ8E01NSY5Z","3VJ4PFXFJ3TL96TFXMATEMT7KJHUAI","","null","<img src=""img/animal3.png"" style=""width:200px; border:14px solid green;"">","null","","","","","",""
"","image-keyboard-response","337","172916","0.0-337.0","3WQQ9FUS6BGUG3PORZEM2ORCCR3B8T","A1AYQ8E01NSY5Z","3VJ4PFXFJ3TL96TFXMATEMT7KJHUAI","","334","img/animal3.png","74","336","1","1","1","1,0.7,0,1,0.7,0,0.7,0,1",""
"","html-keyboard-response","338","173221","0.0-338.0","3WQQ9FUS6BGUG3PORZEM2ORCCR3B8T","A1AYQ8E01NSY5Z","3VJ4PFXFJ3TL96TFXMATEMT7KJHUAI","","null","<img src=""img/animal3.png"" style=""width:200px; border:14px solid green;"">","null","","","","","",""
"","image-keyboard-response","339","174220","0.0-339.0","3WQQ9FUS6BGUG3PORZEM2ORCCR3B8T","A1AYQ8E01NSY5Z","3VJ4PFXFJ3TL96TFXMATEMT7KJHUAI","","996","img/animal1.png","76","998","3","1","3","1,0.7,0,1,0.7,0,0.7,0,1",""
"","html-keyboard-response","340","174533","0.0-340.0","3WQQ9FUS6BGUG3PORZEM2ORCCR3B8T","A1AYQ8E01NSY5Z","3VJ4PFXFJ3TL96TFXMATEMT7KJHUAI","","null","<img src=""img/animal1.png"" style=""width:200px; border:14px solid green;"">","null","","","","","",""
"","image-keyboard-response","341","175042","0.0-341.0","3WQQ9FUS6BGUG3PORZEM2ORCCR3B8T","A1AYQ8E01NSY5Z","3VJ4PFXFJ3TL96TFXMATEMT7KJHUAI","","507","img/animal1.png","76","508","3","1","3","1,0.7,0,1,0.7,0,0.7,0,1",""
"","html-keyboard-response","342","175346","0.0-342.0","3WQQ9FUS6BGUG3PORZEM2ORCCR3B8T","A1AYQ8E01NSY5Z","3VJ4PFXFJ3TL96TFXMATEMT7KJHUAI","","null","<img src=""img/animal1.png"" style=""width:200px; border:14px solid green;"">","null","","","","","",""
"","image-keyboard-response","343","175874","0.0-343.0","3WQQ9FUS6BGUG3PORZEM2ORCCR3B8T","A1AYQ8E01NSY5Z","3VJ4PFXFJ3TL96TFXMATEMT7KJHUAI","","526","img/animal3.png","74","527","1","1","1","1,0.7,0,1,0.7,0,0.7,0,1",""
"","html-keyboard-response","344","176184","0.0-344.0","3WQQ9FUS6BGUG3PORZEM2ORCCR3B8T","A1AYQ8E01NSY5Z","3VJ4PFXFJ3TL96TFXMATEMT7KJHUAI","","null","<img src=""img/animal3.png"" style=""width:200px; border:14px solid green;"">","null","","","","","",""
"","image-keyboard-response","345","176578","0.0-345.0","3WQQ9FUS6BGUG3PORZEM2ORCCR3B8T","A1AYQ8E01NSY5Z","3VJ4PFXFJ3TL96TFXMATEMT7KJHUAI","","393","img/animal3.png","74","394","1","1","1","1,0.7,0,1,0.7,0,0.7,0,1",""
"","html-keyboard-response","346","176888","0.0-346.0","3WQQ9FUS6BGUG3PORZEM2ORCCR3B8T","A1AYQ8E01NSY5Z","3VJ4PFXFJ3TL96TFXMATEMT7KJHUAI","","null","<img src=""img/animal3.png"" style=""width:200px; border:14px solid green;"">","null","","","","","",""
"","image-keyboard-response","347","177908","0.0-347.0","3WQQ9FUS6BGUG3PORZEM2ORCCR3B8T","A1AYQ8E01NSY5Z","3VJ4PFXFJ3TL96TFXMATEMT7KJHUAI","","1017","img/animal6.png","75","1020","2","1","2","1,0.7,0,1,0.7,0,0.7,0,1",""
"","html-keyboard-response","348","178217","0.0-348.0","3WQQ9FUS6BGUG3PORZEM2ORCCR3B8T","A1AYQ8E01NSY5Z","3VJ4PFXFJ3TL96TFXMATEMT7KJHUAI","","null","<img src=""img/animal6.png"" style=""width:200px; border:14px solid green;"">","null","","","","","",""
"","image-keyboard-response","349","178620","0.0-349.0","3WQQ9FUS6BGUG3PORZEM2ORCCR3B8T","A1AYQ8E01NSY5Z","3VJ4PFXFJ3TL96TFXMATEMT7KJHUAI","","401","img/animal6.png","75","403","2","1","2","1,0.7,0,1,0.7,0,0.7,0,1",""
"","html-keyboard-response","350","178935","0.0-350.0","3WQQ9FUS6BGUG3PORZEM2ORCCR3B8T","A1AYQ8E01NSY5Z","3VJ4PFXFJ3TL96TFXMATEMT7KJHUAI","","null","<img src=""img/animal6.png"" style=""width:200px; border:14px solid green;"">","null","","","","","",""
"","image-keyboard-response","351","179715","0.0-351.0","3WQQ9FUS6BGUG3PORZEM2ORCCR3B8T","A1AYQ8E01NSY5Z","3VJ4PFXFJ3TL96TFXMATEMT7KJHUAI","","778","img/animal1.png","76","780","3","1","3","1,0.7,0,1,0.7,0,0.7,0,1",""
"","html-keyboard-response","352","180028","0.0-352.0","3WQQ9FUS6BGUG3PORZEM2ORCCR3B8T","A1AYQ8E01NSY5Z","3VJ4PFXFJ3TL96TFXMATEMT7KJHUAI","","null","<img src=""img/animal1.png"" style=""width:200px; border:14px solid green;"">","null","","","","","",""
"","image-keyboard-response","353","180580","0.0-353.0","3WQQ9FUS6BGUG3PORZEM2ORCCR3B8T","A1AYQ8E01NSY5Z","3VJ4PFXFJ3TL96TFXMATEMT7KJHUAI","","548","img/animal6.png","75","551","2","1","2","1,0.7,0,1,0.7,0,0.7,0,1",""
"","html-keyboard-response","354","180887","0.0-354.0","3WQQ9FUS6BGUG3PORZEM2ORCCR3B8T","A1AYQ8E01NSY5Z","3VJ4PFXFJ3TL96TFXMATEMT7KJHUAI","","null","<img src=""img/animal6.png"" style=""width:200px; border:14px solid green;"">","null","","","","","",""
"","image-keyboard-response","355","181897","0.0-355.0","3WQQ9FUS6BGUG3PORZEM2ORCCR3B8T","A1AYQ8E01NSY5Z","3VJ4PFXFJ3TL96TFXMATEMT7KJHUAI","","1008","img/animal1.png","76","1008","3","1","3","1,0.7,0,1,0.7,0,0.7,0,1",""
"","html-keyboard-response","356","182211","0.0-356.0","3WQQ9FUS6BGUG3PORZEM2ORCCR3B8T","A1AYQ8E01NSY5Z","3VJ4PFXFJ3TL96TFXMATEMT7KJHUAI","","null","<img src=""img/animal1.png"" style=""width:200px; border:14px solid green;"">","null","","","","","",""
"","image-keyboard-response","357","182730","0.0-357.0","3WQQ9FUS6BGUG3PORZEM2ORCCR3B8T","A1AYQ8E01NSY5Z","3VJ4PFXFJ3TL96TFXMATEMT7KJHUAI","","517","img/animal6.png","75","518","2","0","2","1,0.7,0,1,0.7,0,0.7,0,1",""
"","html-keyboard-response","358","183040","0.0-358.0","3WQQ9FUS6BGUG3PORZEM2ORCCR3B8T","A1AYQ8E01NSY5Z","3VJ4PFXFJ3TL96TFXMATEMT7KJHUAI","","null","<img src=""img/animal6.png"" style=""width:200px;border:14px solid red;"">","null","","","","","",""
"","image-keyboard-response","359","183890","0.0-359.0","3WQQ9FUS6BGUG3PORZEM2ORCCR3B8T","A1AYQ8E01NSY5Z","3VJ4PFXFJ3TL96TFXMATEMT7KJHUAI","","848","img/animal1.png","76","850","3","1","3","1,0.7,0,1,0.7,0,0.7,0,1",""
"","html-keyboard-response","360","184197","0.0-360.0","3WQQ9FUS6BGUG3PORZEM2ORCCR3B8T","A1AYQ8E01NSY5Z","3VJ4PFXFJ3TL96TFXMATEMT7KJHUAI","","null","<img src=""img/animal1.png"" style=""width:200px; border:14px solid green;"">","null","","","","","",""
"","image-keyboard-response","361","185060","0.0-361.0","3WQQ9FUS6BGUG3PORZEM2ORCCR3B8T","A1AYQ8E01NSY5Z","3VJ4PFXFJ3TL96TFXMATEMT7KJHUAI","","860","img/animal6.png","76","862","3","0","2","1,0.7,0,1,0.7,0,0.7,0,1",""
"","html-keyboard-response","362","185367","0.0-362.0","3WQQ9FUS6BGUG3PORZEM2ORCCR3B8T","A1AYQ8E01NSY5Z","3VJ4PFXFJ3TL96TFXMATEMT7KJHUAI","","null","<img src=""img/animal6.png"" style=""width:200px;border:14px solid red;"">","null","","","","","",""
"","instructions","363","190683","0.0-363.0","3WQQ9FUS6BGUG3PORZEM2ORCCR3B8T","A1AYQ8E01NSY5Z","3VJ4PFXFJ3TL96TFXMATEMT7KJHUAI","[{""page_index"":0,""viewing_time"":5314}]","5314","","","","","","","",""
"","survey-text","364","193166","0.0-364.0","3WQQ9FUS6BGUG3PORZEM2ORCCR3B8T","A1AYQ8E01NSY5Z","3VJ4PFXFJ3TL96TFXMATEMT7KJHUAI","","2478","","","","","","","","{""Q0"":""A1AYQ8E01NSY5Z""}"
