"success","trial_type","trial_index","time_elapsed","internal_node_id","assignmentID","mturkID","hitID","view_history","rt","stimulus","key_press","reactionTime","a","r","s","reward_cond","responses"
"true","fullscreen","0","17987","0.0-0.0","3F6HPJW4JEMBIRLA691HFBRUZH7W2I","A1BJFYHXK6YDX1","3T5ZXGO9DEAUILU6S56NLENRQJRQZJ","","","","","","","","","",""
"","instructions","1","65355","0.0-1.0","3F6HPJW4JEMBIRLA691HFBRUZH7W2I","A1BJFYHXK6YDX1","3T5ZXGO9DEAUILU6S56NLENRQJRQZJ","[{""page_index"":0,""viewing_time"":24476.39999999851},{""page_index"":1,""viewing_time"":1066.3999999985099},{""page_index"":2,""viewing_time"":515.5},{""page_index"":3,""viewing_time"":6782.30000000447},{""page_index"":4,""viewing_time"":2746.10000000149},{""page_index"":5,""viewing_time"":8876},{""page_index"":6,""viewing_time"":1091},{""page_index"":7,""viewing_time"":1812.3999999985099}]","47366.79999999702","","","","","","","",""
"","image-keyboard-response","2","67366","0.0-2.0","3F6HPJW4JEMBIRLA691HFBRUZH7W2I","A1BJFYHXK6YDX1","3T5ZXGO9DEAUILU6S56NLENRQJRQZJ","","2010","img/animal5.png","74","2011.3000000044703","1","0","3","1,0.5,0,0,1,0.5,0.5,0,1",""
"","html-keyboard-response","3","67679","0.0-3.0","3F6HPJW4JEMBIRLA691HFBRUZH7W2I","A1BJFYHXK6YDX1","3T5ZXGO9DEAUILU6S56NLENRQJRQZJ","","null","<img src=""img/animal5.png"" style=""width:200px;border:14px solid red;"">","null","","","","","",""
"","image-keyboard-response","4","68784","0.0-4.0","3F6HPJW4JEMBIRLA691HFBRUZH7W2I","A1BJFYHXK6YDX1","3T5ZXGO9DEAUILU6S56NLENRQJRQZJ","","1103.8000000044703","img/animal2.png","74","1105.6000000014901","1","1","1","1,0.5,0,0,1,0.5,0.5,0,1",""
"","html-keyboard-response","5","69094","0.0-5.0","3F6HPJW4JEMBIRLA691HFBRUZH7W2I","A1BJFYHXK6YDX1","3T5ZXGO9DEAUILU6S56NLENRQJRQZJ","","null","<img src=""img/animal2.png"" style=""width:200px; border:14px solid green;"">","null","","","","","",""
"","image-keyboard-response","6","70257","0.0-6.0","3F6HPJW4JEMBIRLA691HFBRUZH7W2I","A1BJFYHXK6YDX1","3T5ZXGO9DEAUILU6S56NLENRQJRQZJ","","1161.9000000059605","img/animal4.png","75","1163","2","1","2","1,0.5,0,0,1,0.5,0.5,0,1",""
"","html-keyboard-response","7","70567","0.0-7.0","3F6HPJW4JEMBIRLA691HFBRUZH7W2I","A1BJFYHXK6YDX1","3T5ZXGO9DEAUILU6S56NLENRQJRQZJ","","null","<img src=""img/animal4.png"" style=""width:200px; border:14px solid green;"">","null","","","","","",""
"","image-keyboard-response","8","71360","0.0-8.0","3F6HPJW4JEMBIRLA691HFBRUZH7W2I","A1BJFYHXK6YDX1","3T5ZXGO9DEAUILU6S56NLENRQJRQZJ","","792","img/animal2.png","74","793.3999999985099","1","1","1","1,0.5,0,0,1,0.5,0.5,0,1",""
"","html-keyboard-response","9","71666","0.0-9.0","3F6HPJW4JEMBIRLA691HFBRUZH7W2I","A1BJFYHXK6YDX1","3T5ZXGO9DEAUILU6S56NLENRQJRQZJ","","null","<img src=""img/animal2.png"" style=""width:200px; border:14px solid green;"">","null","","","","","",""
"","image-keyboard-response","10","72330","0.0-10.0","3F6HPJW4JEMBIRLA691HFBRUZH7W2I","A1BJFYHXK6YDX1","3T5ZXGO9DEAUILU6S56NLENRQJRQZJ","","662.5999999940395","img/animal2.png","74","664.2000000029802","1","1","1","1,0.5,0,0,1,0.5,0.5,0,1",""
"","html-keyboard-response","11","72636","0.0-11.0","3F6HPJW4JEMBIRLA691HFBRUZH7W2I","A1BJFYHXK6YDX1","3T5ZXGO9DEAUILU6S56NLENRQJRQZJ","","null","<img src=""img/animal2.png"" style=""width:200px; border:14px solid green;"">","null","","","","","",""
"","image-keyboard-response","12","75190","0.0-12.0","3F6HPJW4JEMBIRLA691HFBRUZH7W2I","A1BJFYHXK6YDX1","3T5ZXGO9DEAUILU6S56NLENRQJRQZJ","","2552.39999999851","img/animal5.png","76","2553.89999999851","3","1","3","1,0.5,0,0,1,0.5,0.5,0,1",""
"","html-keyboard-response","13","75492","0.0-13.0","3F6HPJW4JEMBIRLA691HFBRUZH7W2I","A1BJFYHXK6YDX1","3T5ZXGO9DEAUILU6S56NLENRQJRQZJ","","null","<img src=""img/animal5.png"" style=""width:200px; border:14px solid green;"">","null","","","","","",""
"","image-keyboard-response","14","76728","0.0-14.0","3F6HPJW4JEMBIRLA691HFBRUZH7W2I","A1BJFYHXK6YDX1","3T5ZXGO9DEAUILU6S56NLENRQJRQZJ","","1234.8999999985099","img/animal2.png","74","1236.1000000014901","1","1","1","1,0.5,0,0,1,0.5,0.5,0,1",""
"","html-keyboard-response","15","77039","0.0-15.0","3F6HPJW4JEMBIRLA691HFBRUZH7W2I","A1BJFYHXK6YDX1","3T5ZXGO9DEAUILU6S56NLENRQJRQZJ","","null","<img src=""img/animal2.png"" style=""width:200px; border:14px solid green;"">","null","","","","","",""
"","image-keyboard-response","16","77810","0.0-16.0","3F6HPJW4JEMBIRLA691HFBRUZH7W2I","A1BJFYHXK6YDX1","3T5ZXGO9DEAUILU6S56NLENRQJRQZJ","","769.1999999955297","img/animal4.png","75","770.6000000014901","2","1","2","1,0.5,0,0,1,0.5,0.5,0,1",""
"","html-keyboard-response","17","78119","0.0-17.0","3F6HPJW4JEMBIRLA691HFBRUZH7W2I","A1BJFYHXK6YDX1","3T5ZXGO9DEAUILU6S56NLENRQJRQZJ","","null","<img src=""img/animal4.png"" style=""width:200px; border:14px solid green;"">","null","","","","","",""
"","image-keyboard-response","18","78981","0.0-18.0","3F6HPJW4JEMBIRLA691HFBRUZH7W2I","A1BJFYHXK6YDX1","3T5ZXGO9DEAUILU6S56NLENRQJRQZJ","","860.6000000014901","img/animal5.png","76","862","3","1","3","1,0.5,0,0,1,0.5,0.5,0,1",""
"","html-keyboard-response","19","79286","0.0-19.0","3F6HPJW4JEMBIRLA691HFBRUZH7W2I","A1BJFYHXK6YDX1","3T5ZXGO9DEAUILU6S56NLENRQJRQZJ","","null","<img src=""img/animal5.png"" style=""width:200px; border:14px solid green;"">","null","","","","","",""
"","image-keyboard-response","20","80205","0.0-20.0","3F6HPJW4JEMBIRLA691HFBRUZH7W2I","A1BJFYHXK6YDX1","3T5ZXGO9DEAUILU6S56NLENRQJRQZJ","","916.5","img/animal2.png","74","918.6999999955297","1","1","1","1,0.5,0,0,1,0.5,0.5,0,1",""
"","html-keyboard-response","21","80512","0.0-21.0","3F6HPJW4JEMBIRLA691HFBRUZH7W2I","A1BJFYHXK6YDX1","3T5ZXGO9DEAUILU6S56NLENRQJRQZJ","","null","<img src=""img/animal2.png"" style=""width:200px; border:14px solid green;"">","null","","","","","",""
"","image-keyboard-response","22","81400","0.0-22.0","3F6HPJW4JEMBIRLA691HFBRUZH7W2I","A1BJFYHXK6YDX1","3T5ZXGO9DEAUILU6S56NLENRQJRQZJ","","886.3999999985099","img/animal5.png","76","887.5999999940395","3","1","3","1,0.5,0,0,1,0.5,0.5,0,1",""
"","html-keyboard-response","23","81707","0.0-23.0","3F6HPJW4JEMBIRLA691HFBRUZH7W2I","A1BJFYHXK6YDX1","3T5ZXGO9DEAUILU6S56NLENRQJRQZJ","","null","<img src=""img/animal5.png"" style=""width:200px; border:14px solid green;"">","null","","","","","",""
"","image-keyboard-response","24","82556","0.0-24.0","3F6HPJW4JEMBIRLA691HFBRUZH7W2I","A1BJFYHXK6YDX1","3T5ZXGO9DEAUILU6S56NLENRQJRQZJ","","845.3999999985099","img/animal4.png","75","847.5999999940395","2","1","2","1,0.5,0,0,1,0.5,0.5,0,1",""
"","html-keyboard-response","25","82860","0.0-25.0","3F6HPJW4JEMBIRLA691HFBRUZH7W2I","A1BJFYHXK6YDX1","3T5ZXGO9DEAUILU6S56NLENRQJRQZJ","","null","<img src=""img/animal4.png"" style=""width:200px; border:14px solid green;"">","null","","","","","",""
"","image-keyboard-response","26","83524","0.0-26.0","3F6HPJW4JEMBIRLA691HFBRUZH7W2I","A1BJFYHXK6YDX1","3T5ZXGO9DEAUILU6S56NLENRQJRQZJ","","663.2000000029802","img/animal2.png","74","664.3000000044703","1","1","1","1,0.5,0,0,1,0.5,0.5,0,1",""
"","html-keyboard-response","27","83828","0.0-27.0","3F6HPJW4JEMBIRLA691HFBRUZH7W2I","A1BJFYHXK6YDX1","3T5ZXGO9DEAUILU6S56NLENRQJRQZJ","","null","<img src=""img/animal2.png"" style=""width:200px; border:14px solid green;"">","null","","","","","",""
"","image-keyboard-response","28","84464","0.0-28.0","3F6HPJW4JEMBIRLA691HFBRUZH7W2I","A1BJFYHXK6YDX1","3T5ZXGO9DEAUILU6S56NLENRQJRQZJ","","634.2999999970198","img/animal4.png","75","635.7000000029802","2","1","2","1,0.5,0,0,1,0.5,0.5,0,1",""
"","html-keyboard-response","29","84772","0.0-29.0","3F6HPJW4JEMBIRLA691HFBRUZH7W2I","A1BJFYHXK6YDX1","3T5ZXGO9DEAUILU6S56NLENRQJRQZJ","","null","<img src=""img/animal4.png"" style=""width:200px; border:14px solid green;"">","null","","","","","",""
"","image-keyboard-response","30","85531","0.0-30.0","3F6HPJW4JEMBIRLA691HFBRUZH7W2I","A1BJFYHXK6YDX1","3T5ZXGO9DEAUILU6S56NLENRQJRQZJ","","757.6000000014901","img/animal5.png","76","759","3","1","3","1,0.5,0,0,1,0.5,0.5,0,1",""
"","html-keyboard-response","31","85845","0.0-31.0","3F6HPJW4JEMBIRLA691HFBRUZH7W2I","A1BJFYHXK6YDX1","3T5ZXGO9DEAUILU6S56NLENRQJRQZJ","","null","<img src=""img/animal5.png"" style=""width:200px; border:14px solid green;"">","null","","","","","",""
"","image-keyboard-response","32","86387","0.0-32.0","3F6HPJW4JEMBIRLA691HFBRUZH7W2I","A1BJFYHXK6YDX1","3T5ZXGO9DEAUILU6S56NLENRQJRQZJ","","540.7000000029802","img/animal4.png","75","541.8999999985099","2","1","2","1,0.5,0,0,1,0.5,0.5,0,1",""
"","html-keyboard-response","33","86693","0.0-33.0","3F6HPJW4JEMBIRLA691HFBRUZH7W2I","A1BJFYHXK6YDX1","3T5ZXGO9DEAUILU6S56NLENRQJRQZJ","","null","<img src=""img/animal4.png"" style=""width:200px; border:14px solid green;"">","null","","","","","",""
"","image-keyboard-response","34","87123","0.0-34.0","3F6HPJW4JEMBIRLA691HFBRUZH7W2I","A1BJFYHXK6YDX1","3T5ZXGO9DEAUILU6S56NLENRQJRQZJ","","428.69999999552965","img/animal4.png","75","429.8999999985099","2","1","2","1,0.5,0,0,1,0.5,0.5,0,1",""
"","html-keyboard-response","35","87426","0.0-35.0","3F6HPJW4JEMBIRLA691HFBRUZH7W2I","A1BJFYHXK6YDX1","3T5ZXGO9DEAUILU6S56NLENRQJRQZJ","","null","<img src=""img/animal4.png"" style=""width:200px; border:14px solid green;"">","null","","","","","",""
"","image-keyboard-response","36","88115","0.0-36.0","3F6HPJW4JEMBIRLA691HFBRUZH7W2I","A1BJFYHXK6YDX1","3T5ZXGO9DEAUILU6S56NLENRQJRQZJ","","687.5","img/animal2.png","74","688.7000000029802","1","1","1","1,0.5,0,0,1,0.5,0.5,0,1",""
"","html-keyboard-response","37","88426","0.0-37.0","3F6HPJW4JEMBIRLA691HFBRUZH7W2I","A1BJFYHXK6YDX1","3T5ZXGO9DEAUILU6S56NLENRQJRQZJ","","null","<img src=""img/animal2.png"" style=""width:200px; border:14px solid green;"">","null","","","","","",""
"","image-keyboard-response","38","88829","0.0-38.0","3F6HPJW4JEMBIRLA691HFBRUZH7W2I","A1BJFYHXK6YDX1","3T5ZXGO9DEAUILU6S56NLENRQJRQZJ","","402","img/animal2.png","74","403.29999999701977","1","1","1","1,0.5,0,0,1,0.5,0.5,0,1",""
"","html-keyboard-response","39","89132","0.0-39.0","3F6HPJW4JEMBIRLA691HFBRUZH7W2I","A1BJFYHXK6YDX1","3T5ZXGO9DEAUILU6S56NLENRQJRQZJ","","null","<img src=""img/animal2.png"" style=""width:200px; border:14px solid green;"">","null","","","","","",""
"","image-keyboard-response","40","89689","0.0-40.0","3F6HPJW4JEMBIRLA691HFBRUZH7W2I","A1BJFYHXK6YDX1","3T5ZXGO9DEAUILU6S56NLENRQJRQZJ","","555.7999999970198","img/animal5.png","76","557.2999999970198","3","1","3","1,0.5,0,0,1,0.5,0.5,0,1",""
"","html-keyboard-response","41","89994","0.0-41.0","3F6HPJW4JEMBIRLA691HFBRUZH7W2I","A1BJFYHXK6YDX1","3T5ZXGO9DEAUILU6S56NLENRQJRQZJ","","null","<img src=""img/animal5.png"" style=""width:200px; border:14px solid green;"">","null","","","","","",""
"","image-keyboard-response","42","90444","0.0-42.0","3F6HPJW4JEMBIRLA691HFBRUZH7W2I","A1BJFYHXK6YDX1","3T5ZXGO9DEAUILU6S56NLENRQJRQZJ","","448.6000000014901","img/animal5.png","76","450","3","1","3","1,0.5,0,0,1,0.5,0.5,0,1",""
"","html-keyboard-response","43","90748","0.0-43.0","3F6HPJW4JEMBIRLA691HFBRUZH7W2I","A1BJFYHXK6YDX1","3T5ZXGO9DEAUILU6S56NLENRQJRQZJ","","null","<img src=""img/animal5.png"" style=""width:200px; border:14px solid green;"">","null","","","","","",""
"","image-keyboard-response","44","91193","0.0-44.0","3F6HPJW4JEMBIRLA691HFBRUZH7W2I","A1BJFYHXK6YDX1","3T5ZXGO9DEAUILU6S56NLENRQJRQZJ","","443.8999999985099","img/animal5.png","76","444.8999999985099","3","1","3","1,0.5,0,0,1,0.5,0.5,0,1",""
"","html-keyboard-response","45","91497","0.0-45.0","3F6HPJW4JEMBIRLA691HFBRUZH7W2I","A1BJFYHXK6YDX1","3T5ZXGO9DEAUILU6S56NLENRQJRQZJ","","null","<img src=""img/animal5.png"" style=""width:200px; border:14px solid green;"">","null","","","","","",""
"","image-keyboard-response","46","92392","0.0-46.0","3F6HPJW4JEMBIRLA691HFBRUZH7W2I","A1BJFYHXK6YDX1","3T5ZXGO9DEAUILU6S56NLENRQJRQZJ","","893.8999999985099","img/animal2.png","74","895.1000000014901","1","1","1","1,0.5,0,0,1,0.5,0.5,0,1",""
"","html-keyboard-response","47","92703","0.0-47.0","3F6HPJW4JEMBIRLA691HFBRUZH7W2I","A1BJFYHXK6YDX1","3T5ZXGO9DEAUILU6S56NLENRQJRQZJ","","null","<img src=""img/animal2.png"" style=""width:200px; border:14px solid green;"">","null","","","","","",""
"","image-keyboard-response","48","93270","0.0-48.0","3F6HPJW4JEMBIRLA691HFBRUZH7W2I","A1BJFYHXK6YDX1","3T5ZXGO9DEAUILU6S56NLENRQJRQZJ","","566","img/animal5.png","76","567.5","3","1","3","1,0.5,0,0,1,0.5,0.5,0,1",""
"","html-keyboard-response","49","93576","0.0-49.0","3F6HPJW4JEMBIRLA691HFBRUZH7W2I","A1BJFYHXK6YDX1","3T5ZXGO9DEAUILU6S56NLENRQJRQZJ","","null","<img src=""img/animal5.png"" style=""width:200px; border:14px solid green;"">","null","","","","","",""
"","image-keyboard-response","50","94132","0.0-50.0","3F6HPJW4JEMBIRLA691HFBRUZH7W2I","A1BJFYHXK6YDX1","3T5ZXGO9DEAUILU6S56NLENRQJRQZJ","","554.1000000014901","img/animal5.png","76","555.3000000044703","3","1","3","1,0.5,0,0,1,0.5,0.5,0,1",""
"","html-keyboard-response","51","94438","0.0-51.0","3F6HPJW4JEMBIRLA691HFBRUZH7W2I","A1BJFYHXK6YDX1","3T5ZXGO9DEAUILU6S56NLENRQJRQZJ","","null","<img src=""img/animal5.png"" style=""width:200px; border:14px solid green;"">","null","","","","","",""
"","image-keyboard-response","52","94951","0.0-52.0","3F6HPJW4JEMBIRLA691HFBRUZH7W2I","A1BJFYHXK6YDX1","3T5ZXGO9DEAUILU6S56NLENRQJRQZJ","","512.7999999970198","img/animal2.png","74","513.6000000014901","1","1","1","1,0.5,0,0,1,0.5,0.5,0,1",""
"","html-keyboard-response","53","95257","0.0-53.0","3F6HPJW4JEMBIRLA691HFBRUZH7W2I","A1BJFYHXK6YDX1","3T5ZXGO9DEAUILU6S56NLENRQJRQZJ","","null","<img src=""img/animal2.png"" style=""width:200px; border:14px solid green;"">","null","","","","","",""
"","image-keyboard-response","54","95672","0.0-54.0","3F6HPJW4JEMBIRLA691HFBRUZH7W2I","A1BJFYHXK6YDX1","3T5ZXGO9DEAUILU6S56NLENRQJRQZJ","","414.20000000298023","img/animal2.png","74","415.20000000298023","1","1","1","1,0.5,0,0,1,0.5,0.5,0,1",""
"","html-keyboard-response","55","95975","0.0-55.0","3F6HPJW4JEMBIRLA691HFBRUZH7W2I","A1BJFYHXK6YDX1","3T5ZXGO9DEAUILU6S56NLENRQJRQZJ","","null","<img src=""img/animal2.png"" style=""width:200px; border:14px solid green;"">","null","","","","","",""
"","image-keyboard-response","56","96577","0.0-56.0","3F6HPJW4JEMBIRLA691HFBRUZH7W2I","A1BJFYHXK6YDX1","3T5ZXGO9DEAUILU6S56NLENRQJRQZJ","","599.8999999985099","img/animal5.png","76","601.2000000029802","3","1","3","1,0.5,0,0,1,0.5,0.5,0,1",""
"","html-keyboard-response","57","96892","0.0-57.0","3F6HPJW4JEMBIRLA691HFBRUZH7W2I","A1BJFYHXK6YDX1","3T5ZXGO9DEAUILU6S56NLENRQJRQZJ","","null","<img src=""img/animal5.png"" style=""width:200px; border:14px solid green;"">","null","","","","","",""
"","image-keyboard-response","58","97309","0.0-58.0","3F6HPJW4JEMBIRLA691HFBRUZH7W2I","A1BJFYHXK6YDX1","3T5ZXGO9DEAUILU6S56NLENRQJRQZJ","","415.69999999552965","img/animal5.png","76","417.1000000014901","3","1","3","1,0.5,0,0,1,0.5,0.5,0,1",""
"","html-keyboard-response","59","97614","0.0-59.0","3F6HPJW4JEMBIRLA691HFBRUZH7W2I","A1BJFYHXK6YDX1","3T5ZXGO9DEAUILU6S56NLENRQJRQZJ","","null","<img src=""img/animal5.png"" style=""width:200px; border:14px solid green;"">","null","","","","","",""
"","image-keyboard-response","60","98316","0.0-60.0","3F6HPJW4JEMBIRLA691HFBRUZH7W2I","A1BJFYHXK6YDX1","3T5ZXGO9DEAUILU6S56NLENRQJRQZJ","","700.9000000059605","img/animal4.png","75","702.1000000014901","2","1","2","1,0.5,0,0,1,0.5,0.5,0,1",""
"","html-keyboard-response","61","98619","0.0-61.0","3F6HPJW4JEMBIRLA691HFBRUZH7W2I","A1BJFYHXK6YDX1","3T5ZXGO9DEAUILU6S56NLENRQJRQZJ","","null","<img src=""img/animal4.png"" style=""width:200px; border:14px solid green;"">","null","","","","","",""
"","image-keyboard-response","62","99263","0.0-62.0","3F6HPJW4JEMBIRLA691HFBRUZH7W2I","A1BJFYHXK6YDX1","3T5ZXGO9DEAUILU6S56NLENRQJRQZJ","","642.8999999985099","img/animal5.png","76","644.1000000014901","3","1","3","1,0.5,0,0,1,0.5,0.5,0,1",""
"","html-keyboard-response","63","99580","0.0-63.0","3F6HPJW4JEMBIRLA691HFBRUZH7W2I","A1BJFYHXK6YDX1","3T5ZXGO9DEAUILU6S56NLENRQJRQZJ","","null","<img src=""img/animal5.png"" style=""width:200px; border:14px solid green;"">","null","","","","","",""
"","image-keyboard-response","64","100310","0.0-64.0","3F6HPJW4JEMBIRLA691HFBRUZH7W2I","A1BJFYHXK6YDX1","3T5ZXGO9DEAUILU6S56NLENRQJRQZJ","","728.6000000014901","img/animal2.png","75","730.2000000029802","2","1","1","1,0.5,0,0,1,0.5,0.5,0,1",""
"","html-keyboard-response","65","100616","0.0-65.0","3F6HPJW4JEMBIRLA691HFBRUZH7W2I","A1BJFYHXK6YDX1","3T5ZXGO9DEAUILU6S56NLENRQJRQZJ","","null","<img src=""img/animal2.png"" style=""width:200px; border:14px solid green;"">","null","","","","","",""
"","image-keyboard-response","66","101192","0.0-66.0","3F6HPJW4JEMBIRLA691HFBRUZH7W2I","A1BJFYHXK6YDX1","3T5ZXGO9DEAUILU6S56NLENRQJRQZJ","","574.3999999985099","img/animal5.png","76","575.7000000029802","3","1","3","1,0.5,0,0,1,0.5,0.5,0,1",""
"","html-keyboard-response","67","101495","0.0-67.0","3F6HPJW4JEMBIRLA691HFBRUZH7W2I","A1BJFYHXK6YDX1","3T5ZXGO9DEAUILU6S56NLENRQJRQZJ","","null","<img src=""img/animal5.png"" style=""width:200px; border:14px solid green;"">","null","","","","","",""
"","image-keyboard-response","68","101961","0.0-68.0","3F6HPJW4JEMBIRLA691HFBRUZH7W2I","A1BJFYHXK6YDX1","3T5ZXGO9DEAUILU6S56NLENRQJRQZJ","","464.70000000298023","img/animal5.png","76","466.29999999701977","3","1","3","1,0.5,0,0,1,0.5,0.5,0,1",""
"","html-keyboard-response","69","102265","0.0-69.0","3F6HPJW4JEMBIRLA691HFBRUZH7W2I","A1BJFYHXK6YDX1","3T5ZXGO9DEAUILU6S56NLENRQJRQZJ","","null","<img src=""img/animal5.png"" style=""width:200px; border:14px solid green;"">","null","","","","","",""
"","image-keyboard-response","70","103076","0.0-70.0","3F6HPJW4JEMBIRLA691HFBRUZH7W2I","A1BJFYHXK6YDX1","3T5ZXGO9DEAUILU6S56NLENRQJRQZJ","","809.3999999985099","img/animal4.png","74","810.6000000014901","1","0","2","1,0.5,0,0,1,0.5,0.5,0,1",""
"","html-keyboard-response","71","103386","0.0-71.0","3F6HPJW4JEMBIRLA691HFBRUZH7W2I","A1BJFYHXK6YDX1","3T5ZXGO9DEAUILU6S56NLENRQJRQZJ","","null","<img src=""img/animal4.png"" style=""width:200px;border:14px solid red;"">","null","","","","","",""
"","image-keyboard-response","72","104907","0.0-72.0","3F6HPJW4JEMBIRLA691HFBRUZH7W2I","A1BJFYHXK6YDX1","3T5ZXGO9DEAUILU6S56NLENRQJRQZJ","","1520.2000000029802","img/animal2.png","74","1521.3999999985099","1","1","1","1,0.5,0,0,1,0.5,0.5,0,1",""
"","html-keyboard-response","73","105215","0.0-73.0","3F6HPJW4JEMBIRLA691HFBRUZH7W2I","A1BJFYHXK6YDX1","3T5ZXGO9DEAUILU6S56NLENRQJRQZJ","","null","<img src=""img/animal2.png"" style=""width:200px; border:14px solid green;"">","null","","","","","",""
"","image-keyboard-response","74","105939","0.0-74.0","3F6HPJW4JEMBIRLA691HFBRUZH7W2I","A1BJFYHXK6YDX1","3T5ZXGO9DEAUILU6S56NLENRQJRQZJ","","722.8999999985099","img/animal2.png","74","724.1999999955297","1","1","1","1,0.5,0,0,1,0.5,0.5,0,1",""
"","html-keyboard-response","75","106243","0.0-75.0","3F6HPJW4JEMBIRLA691HFBRUZH7W2I","A1BJFYHXK6YDX1","3T5ZXGO9DEAUILU6S56NLENRQJRQZJ","","null","<img src=""img/animal2.png"" style=""width:200px; border:14px solid green;"">","null","","","","","",""
"","image-keyboard-response","76","106829","0.0-76.0","3F6HPJW4JEMBIRLA691HFBRUZH7W2I","A1BJFYHXK6YDX1","3T5ZXGO9DEAUILU6S56NLENRQJRQZJ","","584.5","img/animal5.png","76","586.1999999955297","3","1","3","1,0.5,0,0,1,0.5,0.5,0,1",""
"","html-keyboard-response","77","107139","0.0-77.0","3F6HPJW4JEMBIRLA691HFBRUZH7W2I","A1BJFYHXK6YDX1","3T5ZXGO9DEAUILU6S56NLENRQJRQZJ","","null","<img src=""img/animal5.png"" style=""width:200px; border:14px solid green;"">","null","","","","","",""
"","image-keyboard-response","78","108061","0.0-78.0","3F6HPJW4JEMBIRLA691HFBRUZH7W2I","A1BJFYHXK6YDX1","3T5ZXGO9DEAUILU6S56NLENRQJRQZJ","","921.2000000029802","img/animal2.png","74","922.2000000029802","1","1","1","1,0.5,0,0,1,0.5,0.5,0,1",""
"","html-keyboard-response","79","108376","0.0-79.0","3F6HPJW4JEMBIRLA691HFBRUZH7W2I","A1BJFYHXK6YDX1","3T5ZXGO9DEAUILU6S56NLENRQJRQZJ","","null","<img src=""img/animal2.png"" style=""width:200px; border:14px solid green;"">","null","","","","","",""
"","image-keyboard-response","80","109040","0.0-80.0","3F6HPJW4JEMBIRLA691HFBRUZH7W2I","A1BJFYHXK6YDX1","3T5ZXGO9DEAUILU6S56NLENRQJRQZJ","","662.4000000059605","img/animal4.png","75","663.5999999940395","2","1","2","1,0.5,0,0,1,0.5,0.5,0,1",""
"","html-keyboard-response","81","109349","0.0-81.0","3F6HPJW4JEMBIRLA691HFBRUZH7W2I","A1BJFYHXK6YDX1","3T5ZXGO9DEAUILU6S56NLENRQJRQZJ","","null","<img src=""img/animal4.png"" style=""width:200px; border:14px solid green;"">","null","","","","","",""
"","image-keyboard-response","82","109776","0.0-82.0","3F6HPJW4JEMBIRLA691HFBRUZH7W2I","A1BJFYHXK6YDX1","3T5ZXGO9DEAUILU6S56NLENRQJRQZJ","","425.69999999552965","img/animal4.png","75","427","2","1","2","1,0.5,0,0,1,0.5,0.5,0,1",""
"","html-keyboard-response","83","110092","0.0-83.0","3F6HPJW4JEMBIRLA691HFBRUZH7W2I","A1BJFYHXK6YDX1","3T5ZXGO9DEAUILU6S56NLENRQJRQZJ","","null","<img src=""img/animal4.png"" style=""width:200px; border:14px solid green;"">","null","","","","","",""
"","image-keyboard-response","84","110759","0.0-84.0","3F6HPJW4JEMBIRLA691HFBRUZH7W2I","A1BJFYHXK6YDX1","3T5ZXGO9DEAUILU6S56NLENRQJRQZJ","","666.2000000029802","img/animal2.png","74","667.3999999985099","1","1","1","1,0.5,0,0,1,0.5,0.5,0,1",""
"","html-keyboard-response","85","111064","0.0-85.0","3F6HPJW4JEMBIRLA691HFBRUZH7W2I","A1BJFYHXK6YDX1","3T5ZXGO9DEAUILU6S56NLENRQJRQZJ","","null","<img src=""img/animal2.png"" style=""width:200px; border:14px solid green;"">","null","","","","","",""
"","image-keyboard-response","86","111722","0.0-86.0","3F6HPJW4JEMBIRLA691HFBRUZH7W2I","A1BJFYHXK6YDX1","3T5ZXGO9DEAUILU6S56NLENRQJRQZJ","","656.6999999955297","img/animal5.png","76","657.8999999985099","3","1","3","1,0.5,0,0,1,0.5,0.5,0,1",""
"","html-keyboard-response","87","112032","0.0-87.0","3F6HPJW4JEMBIRLA691HFBRUZH7W2I","A1BJFYHXK6YDX1","3T5ZXGO9DEAUILU6S56NLENRQJRQZJ","","null","<img src=""img/animal5.png"" style=""width:200px; border:14px solid green;"">","null","","","","","",""
"","image-keyboard-response","88","113045","0.0-88.0","3F6HPJW4JEMBIRLA691HFBRUZH7W2I","A1BJFYHXK6YDX1","3T5ZXGO9DEAUILU6S56NLENRQJRQZJ","","1012","img/animal2.png","75","1013.1000000014901","2","1","1","1,0.5,0,0,1,0.5,0.5,0,1",""
"","html-keyboard-response","89","113352","0.0-89.0","3F6HPJW4JEMBIRLA691HFBRUZH7W2I","A1BJFYHXK6YDX1","3T5ZXGO9DEAUILU6S56NLENRQJRQZJ","","null","<img src=""img/animal2.png"" style=""width:200px; border:14px solid green;"">","null","","","","","",""
"","image-keyboard-response","90","114231","0.0-90.0","3F6HPJW4JEMBIRLA691HFBRUZH7W2I","A1BJFYHXK6YDX1","3T5ZXGO9DEAUILU6S56NLENRQJRQZJ","","877.9000000059605","img/animal4.png","75","879","2","1","2","1,0.5,0,0,1,0.5,0.5,0,1",""
"","html-keyboard-response","91","114538","0.0-91.0","3F6HPJW4JEMBIRLA691HFBRUZH7W2I","A1BJFYHXK6YDX1","3T5ZXGO9DEAUILU6S56NLENRQJRQZJ","","null","<img src=""img/animal4.png"" style=""width:200px; border:14px solid green;"">","null","","","","","",""
"","image-keyboard-response","92","115298","0.0-92.0","3F6HPJW4JEMBIRLA691HFBRUZH7W2I","A1BJFYHXK6YDX1","3T5ZXGO9DEAUILU6S56NLENRQJRQZJ","","756.5","img/animal5.png","76","758","3","1","3","1,0.5,0,0,1,0.5,0.5,0,1",""
"","html-keyboard-response","93","115602","0.0-93.0","3F6HPJW4JEMBIRLA691HFBRUZH7W2I","A1BJFYHXK6YDX1","3T5ZXGO9DEAUILU6S56NLENRQJRQZJ","","null","<img src=""img/animal5.png"" style=""width:200px; border:14px solid green;"">","null","","","","","",""
"","image-keyboard-response","94","116280","0.0-94.0","3F6HPJW4JEMBIRLA691HFBRUZH7W2I","A1BJFYHXK6YDX1","3T5ZXGO9DEAUILU6S56NLENRQJRQZJ","","677","img/animal2.png","74","678.3999999985099","1","1","1","1,0.5,0,0,1,0.5,0.5,0,1",""
"","html-keyboard-response","95","116586","0.0-95.0","3F6HPJW4JEMBIRLA691HFBRUZH7W2I","A1BJFYHXK6YDX1","3T5ZXGO9DEAUILU6S56NLENRQJRQZJ","","null","<img src=""img/animal2.png"" style=""width:200px; border:14px solid green;"">","null","","","","","",""
"","image-keyboard-response","96","117208","0.0-96.0","3F6HPJW4JEMBIRLA691HFBRUZH7W2I","A1BJFYHXK6YDX1","3T5ZXGO9DEAUILU6S56NLENRQJRQZJ","","621","img/animal5.png","76","622.1999999955297","3","1","3","1,0.5,0,0,1,0.5,0.5,0,1",""
"","html-keyboard-response","97","117515","0.0-97.0","3F6HPJW4JEMBIRLA691HFBRUZH7W2I","A1BJFYHXK6YDX1","3T5ZXGO9DEAUILU6S56NLENRQJRQZJ","","null","<img src=""img/animal5.png"" style=""width:200px; border:14px solid green;"">","null","","","","","",""
"","image-keyboard-response","98","118166","0.0-98.0","3F6HPJW4JEMBIRLA691HFBRUZH7W2I","A1BJFYHXK6YDX1","3T5ZXGO9DEAUILU6S56NLENRQJRQZJ","","648.8999999985099","img/animal4.png","75","650.4000000059605","2","1","2","1,0.5,0,0,1,0.5,0.5,0,1",""
"","html-keyboard-response","99","118469","0.0-99.0","3F6HPJW4JEMBIRLA691HFBRUZH7W2I","A1BJFYHXK6YDX1","3T5ZXGO9DEAUILU6S56NLENRQJRQZJ","","null","<img src=""img/animal4.png"" style=""width:200px; border:14px solid green;"">","null","","","","","",""
"","image-keyboard-response","100","118949","0.0-100.0","3F6HPJW4JEMBIRLA691HFBRUZH7W2I","A1BJFYHXK6YDX1","3T5ZXGO9DEAUILU6S56NLENRQJRQZJ","","478.6000000014901","img/animal4.png","75","479.70000000298023","2","1","2","1,0.5,0,0,1,0.5,0.5,0,1",""
"","html-keyboard-response","101","119258","0.0-101.0","3F6HPJW4JEMBIRLA691HFBRUZH7W2I","A1BJFYHXK6YDX1","3T5ZXGO9DEAUILU6S56NLENRQJRQZJ","","null","<img src=""img/animal4.png"" style=""width:200px; border:14px solid green;"">","null","","","","","",""
"","image-keyboard-response","102","119666","0.0-102.0","3F6HPJW4JEMBIRLA691HFBRUZH7W2I","A1BJFYHXK6YDX1","3T5ZXGO9DEAUILU6S56NLENRQJRQZJ","","406.8999999985099","img/animal4.png","75","408.3999999985099","2","1","2","1,0.5,0,0,1,0.5,0.5,0,1",""
"","html-keyboard-response","103","119980","0.0-103.0","3F6HPJW4JEMBIRLA691HFBRUZH7W2I","A1BJFYHXK6YDX1","3T5ZXGO9DEAUILU6S56NLENRQJRQZJ","","null","<img src=""img/animal4.png"" style=""width:200px; border:14px solid green;"">","null","","","","","",""
"","image-keyboard-response","104","120363","0.0-104.0","3F6HPJW4JEMBIRLA691HFBRUZH7W2I","A1BJFYHXK6YDX1","3T5ZXGO9DEAUILU6S56NLENRQJRQZJ","","381.29999999701977","img/animal4.png","75","383","2","1","2","1,0.5,0,0,1,0.5,0.5,0,1",""
"","html-keyboard-response","105","120667","0.0-105.0","3F6HPJW4JEMBIRLA691HFBRUZH7W2I","A1BJFYHXK6YDX1","3T5ZXGO9DEAUILU6S56NLENRQJRQZJ","","null","<img src=""img/animal4.png"" style=""width:200px; border:14px solid green;"">","null","","","","","",""
"","image-keyboard-response","106","121200","0.0-106.0","3F6HPJW4JEMBIRLA691HFBRUZH7W2I","A1BJFYHXK6YDX1","3T5ZXGO9DEAUILU6S56NLENRQJRQZJ","","531.7999999970198","img/animal4.png","75","532.8999999985099","2","1","2","1,0.5,0,0,1,0.5,0.5,0,1",""
"","html-keyboard-response","107","121507","0.0-107.0","3F6HPJW4JEMBIRLA691HFBRUZH7W2I","A1BJFYHXK6YDX1","3T5ZXGO9DEAUILU6S56NLENRQJRQZJ","","null","<img src=""img/animal4.png"" style=""width:200px; border:14px solid green;"">","null","","","","","",""
"","image-keyboard-response","108","121903","0.0-108.0","3F6HPJW4JEMBIRLA691HFBRUZH7W2I","A1BJFYHXK6YDX1","3T5ZXGO9DEAUILU6S56NLENRQJRQZJ","","394.29999999701977","img/animal4.png","75","395.8999999985099","2","1","2","1,0.5,0,0,1,0.5,0.5,0,1",""
"","html-keyboard-response","109","122214","0.0-109.0","3F6HPJW4JEMBIRLA691HFBRUZH7W2I","A1BJFYHXK6YDX1","3T5ZXGO9DEAUILU6S56NLENRQJRQZJ","","null","<img src=""img/animal4.png"" style=""width:200px; border:14px solid green;"">","null","","","","","",""
"","image-keyboard-response","110","122848","0.0-110.0","3F6HPJW4JEMBIRLA691HFBRUZH7W2I","A1BJFYHXK6YDX1","3T5ZXGO9DEAUILU6S56NLENRQJRQZJ","","633.1000000014901","img/animal5.png","76","634.6999999955297","3","1","3","1,0.5,0,0,1,0.5,0.5,0,1",""
"","html-keyboard-response","111","123157","0.0-111.0","3F6HPJW4JEMBIRLA691HFBRUZH7W2I","A1BJFYHXK6YDX1","3T5ZXGO9DEAUILU6S56NLENRQJRQZJ","","null","<img src=""img/animal5.png"" style=""width:200px; border:14px solid green;"">","null","","","","","",""
"","image-keyboard-response","112","123788","0.0-112.0","3F6HPJW4JEMBIRLA691HFBRUZH7W2I","A1BJFYHXK6YDX1","3T5ZXGO9DEAUILU6S56NLENRQJRQZJ","","629.5","img/animal4.png","75","630.3999999985099","2","1","2","1,0.5,0,0,1,0.5,0.5,0,1",""
"","html-keyboard-response","113","124096","0.0-113.0","3F6HPJW4JEMBIRLA691HFBRUZH7W2I","A1BJFYHXK6YDX1","3T5ZXGO9DEAUILU6S56NLENRQJRQZJ","","null","<img src=""img/animal4.png"" style=""width:200px; border:14px solid green;"">","null","","","","","",""
"","image-keyboard-response","114","124678","0.0-114.0","3F6HPJW4JEMBIRLA691HFBRUZH7W2I","A1BJFYHXK6YDX1","3T5ZXGO9DEAUILU6S56NLENRQJRQZJ","","579.8999999985099","img/animal5.png","76","581.5","3","1","3","1,0.5,0,0,1,0.5,0.5,0,1",""
"","html-keyboard-response","115","124985","0.0-115.0","3F6HPJW4JEMBIRLA691HFBRUZH7W2I","A1BJFYHXK6YDX1","3T5ZXGO9DEAUILU6S56NLENRQJRQZJ","","null","<img src=""img/animal5.png"" style=""width:200px; border:14px solid green;"">","null","","","","","",""
"","image-keyboard-response","116","125462","0.0-116.0","3F6HPJW4JEMBIRLA691HFBRUZH7W2I","A1BJFYHXK6YDX1","3T5ZXGO9DEAUILU6S56NLENRQJRQZJ","","476.20000000298023","img/animal5.png","76","477","3","1","3","1,0.5,0,0,1,0.5,0.5,0,1",""
"","html-keyboard-response","117","125772","0.0-117.0","3F6HPJW4JEMBIRLA691HFBRUZH7W2I","A1BJFYHXK6YDX1","3T5ZXGO9DEAUILU6S56NLENRQJRQZJ","","null","<img src=""img/animal5.png"" style=""width:200px; border:14px solid green;"">","null","","","","","",""
"","image-keyboard-response","118","126376","0.0-118.0","3F6HPJW4JEMBIRLA691HFBRUZH7W2I","A1BJFYHXK6YDX1","3T5ZXGO9DEAUILU6S56NLENRQJRQZJ","","602.7000000029802","img/animal4.png","75","603.7999999970198","2","1","2","1,0.5,0,0,1,0.5,0.5,0,1",""
"","html-keyboard-response","119","126689","0.0-119.0","3F6HPJW4JEMBIRLA691HFBRUZH7W2I","A1BJFYHXK6YDX1","3T5ZXGO9DEAUILU6S56NLENRQJRQZJ","","null","<img src=""img/animal4.png"" style=""width:200px; border:14px solid green;"">","null","","","","","",""
"","image-keyboard-response","120","127138","0.0-120.0","3F6HPJW4JEMBIRLA691HFBRUZH7W2I","A1BJFYHXK6YDX1","3T5ZXGO9DEAUILU6S56NLENRQJRQZJ","","448.40000000596046","img/animal4.png","75","449.5","2","1","2","1,0.5,0,0,1,0.5,0.5,0,1",""
"","html-keyboard-response","121","127450","0.0-121.0","3F6HPJW4JEMBIRLA691HFBRUZH7W2I","A1BJFYHXK6YDX1","3T5ZXGO9DEAUILU6S56NLENRQJRQZJ","","null","<img src=""img/animal4.png"" style=""width:200px; border:14px solid green;"">","null","","","","","",""
"","image-keyboard-response","122","127899","0.0-122.0","3F6HPJW4JEMBIRLA691HFBRUZH7W2I","A1BJFYHXK6YDX1","3T5ZXGO9DEAUILU6S56NLENRQJRQZJ","","447.69999999552965","img/animal5.png","76","448.8999999985099","3","1","3","1,0.5,0,0,1,0.5,0.5,0,1",""
"","html-keyboard-response","123","128208","0.0-123.0","3F6HPJW4JEMBIRLA691HFBRUZH7W2I","A1BJFYHXK6YDX1","3T5ZXGO9DEAUILU6S56NLENRQJRQZJ","","null","<img src=""img/animal5.png"" style=""width:200px; border:14px solid green;"">","null","","","","","",""
"","image-keyboard-response","124","128801","0.0-124.0","3F6HPJW4JEMBIRLA691HFBRUZH7W2I","A1BJFYHXK6YDX1","3T5ZXGO9DEAUILU6S56NLENRQJRQZJ","","591.0999999940395","img/animal2.png","74","592.2999999970198","1","1","1","1,0.5,0,0,1,0.5,0.5,0,1",""
"","html-keyboard-response","125","129108","0.0-125.0","3F6HPJW4JEMBIRLA691HFBRUZH7W2I","A1BJFYHXK6YDX1","3T5ZXGO9DEAUILU6S56NLENRQJRQZJ","","null","<img src=""img/animal2.png"" style=""width:200px; border:14px solid green;"">","null","","","","","",""
"","image-keyboard-response","126","129680","0.0-126.0","3F6HPJW4JEMBIRLA691HFBRUZH7W2I","A1BJFYHXK6YDX1","3T5ZXGO9DEAUILU6S56NLENRQJRQZJ","","570.3000000044703","img/animal4.png","76","571.5","3","0","2","1,0.5,0,0,1,0.5,0.5,0,1",""
"","html-keyboard-response","127","129983","0.0-127.0","3F6HPJW4JEMBIRLA691HFBRUZH7W2I","A1BJFYHXK6YDX1","3T5ZXGO9DEAUILU6S56NLENRQJRQZJ","","null","<img src=""img/animal4.png"" style=""width:200px;border:14px solid red;"">","null","","","","","",""
"","image-keyboard-response","128","130484","0.0-128.0","3F6HPJW4JEMBIRLA691HFBRUZH7W2I","A1BJFYHXK6YDX1","3T5ZXGO9DEAUILU6S56NLENRQJRQZJ","","500","img/animal4.png","75","501.29999999701977","2","1","2","1,0.5,0,0,1,0.5,0.5,0,1",""
"","html-keyboard-response","129","130787","0.0-129.0","3F6HPJW4JEMBIRLA691HFBRUZH7W2I","A1BJFYHXK6YDX1","3T5ZXGO9DEAUILU6S56NLENRQJRQZJ","","null","<img src=""img/animal4.png"" style=""width:200px; border:14px solid green;"">","null","","","","","",""
"","image-keyboard-response","130","131469","0.0-130.0","3F6HPJW4JEMBIRLA691HFBRUZH7W2I","A1BJFYHXK6YDX1","3T5ZXGO9DEAUILU6S56NLENRQJRQZJ","","680.5","img/animal2.png","74","681.5","1","1","1","1,0.5,0,0,1,0.5,0.5,0,1",""
"","html-keyboard-response","131","131774","0.0-131.0","3F6HPJW4JEMBIRLA691HFBRUZH7W2I","A1BJFYHXK6YDX1","3T5ZXGO9DEAUILU6S56NLENRQJRQZJ","","null","<img src=""img/animal2.png"" style=""width:200px; border:14px solid green;"">","null","","","","","",""
"","image-keyboard-response","132","132487","0.0-132.0","3F6HPJW4JEMBIRLA691HFBRUZH7W2I","A1BJFYHXK6YDX1","3T5ZXGO9DEAUILU6S56NLENRQJRQZJ","","711.8000000044703","img/animal5.png","76","713","3","1","3","1,0.5,0,0,1,0.5,0.5,0,1",""
"","html-keyboard-response","133","132795","0.0-133.0","3F6HPJW4JEMBIRLA691HFBRUZH7W2I","A1BJFYHXK6YDX1","3T5ZXGO9DEAUILU6S56NLENRQJRQZJ","","null","<img src=""img/animal5.png"" style=""width:200px; border:14px solid green;"">","null","","","","","",""
"","image-keyboard-response","134","133446","0.0-134.0","3F6HPJW4JEMBIRLA691HFBRUZH7W2I","A1BJFYHXK6YDX1","3T5ZXGO9DEAUILU6S56NLENRQJRQZJ","","649.3000000044703","img/animal2.png","74","650.5","1","1","1","1,0.5,0,0,1,0.5,0.5,0,1",""
"","html-keyboard-response","135","133763","0.0-135.0","3F6HPJW4JEMBIRLA691HFBRUZH7W2I","A1BJFYHXK6YDX1","3T5ZXGO9DEAUILU6S56NLENRQJRQZJ","","null","<img src=""img/animal2.png"" style=""width:200px; border:14px solid green;"">","null","","","","","",""
"","image-keyboard-response","136","134296","0.0-136.0","3F6HPJW4JEMBIRLA691HFBRUZH7W2I","A1BJFYHXK6YDX1","3T5ZXGO9DEAUILU6S56NLENRQJRQZJ","","530.3999999985099","img/animal2.png","74","531.6000000014901","1","1","1","1,0.5,0,0,1,0.5,0.5,0,1",""
"","html-keyboard-response","137","134602","0.0-137.0","3F6HPJW4JEMBIRLA691HFBRUZH7W2I","A1BJFYHXK6YDX1","3T5ZXGO9DEAUILU6S56NLENRQJRQZJ","","null","<img src=""img/animal2.png"" style=""width:200px; border:14px solid green;"">","null","","","","","",""
"","image-keyboard-response","138","135294","0.0-138.0","3F6HPJW4JEMBIRLA691HFBRUZH7W2I","A1BJFYHXK6YDX1","3T5ZXGO9DEAUILU6S56NLENRQJRQZJ","","691.0999999940395","img/animal5.png","75","692","2","0","3","1,0.5,0,0,1,0.5,0.5,0,1",""
"","html-keyboard-response","139","135603","0.0-139.0","3F6HPJW4JEMBIRLA691HFBRUZH7W2I","A1BJFYHXK6YDX1","3T5ZXGO9DEAUILU6S56NLENRQJRQZJ","","null","<img src=""img/animal5.png"" style=""width:200px;border:14px solid red;"">","null","","","","","",""
"","image-keyboard-response","140","136339","0.0-140.0","3F6HPJW4JEMBIRLA691HFBRUZH7W2I","A1BJFYHXK6YDX1","3T5ZXGO9DEAUILU6S56NLENRQJRQZJ","","735","img/animal2.png","74","736.1000000014901","1","1","1","1,0.5,0,0,1,0.5,0.5,0,1",""
"","html-keyboard-response","141","136643","0.0-141.0","3F6HPJW4JEMBIRLA691HFBRUZH7W2I","A1BJFYHXK6YDX1","3T5ZXGO9DEAUILU6S56NLENRQJRQZJ","","null","<img src=""img/animal2.png"" style=""width:200px; border:14px solid green;"">","null","","","","","",""
"","image-keyboard-response","142","137379","0.0-142.0","3F6HPJW4JEMBIRLA691HFBRUZH7W2I","A1BJFYHXK6YDX1","3T5ZXGO9DEAUILU6S56NLENRQJRQZJ","","734","img/animal4.png","75","735.6000000014901","2","1","2","1,0.5,0,0,1,0.5,0.5,0,1",""
"","html-keyboard-response","143","137686","0.0-143.0","3F6HPJW4JEMBIRLA691HFBRUZH7W2I","A1BJFYHXK6YDX1","3T5ZXGO9DEAUILU6S56NLENRQJRQZJ","","null","<img src=""img/animal4.png"" style=""width:200px; border:14px solid green;"">","null","","","","","",""
"","image-keyboard-response","144","138263","0.0-144.0","3F6HPJW4JEMBIRLA691HFBRUZH7W2I","A1BJFYHXK6YDX1","3T5ZXGO9DEAUILU6S56NLENRQJRQZJ","","574.4000000059605","img/animal4.png","75","575.7999999970198","2","1","2","1,0.5,0,0,1,0.5,0.5,0,1",""
"","html-keyboard-response","145","138565","0.0-145.0","3F6HPJW4JEMBIRLA691HFBRUZH7W2I","A1BJFYHXK6YDX1","3T5ZXGO9DEAUILU6S56NLENRQJRQZJ","","null","<img src=""img/animal4.png"" style=""width:200px; border:14px solid green;"">","null","","","","","",""
"","image-keyboard-response","146","139272","0.0-146.0","3F6HPJW4JEMBIRLA691HFBRUZH7W2I","A1BJFYHXK6YDX1","3T5ZXGO9DEAUILU6S56NLENRQJRQZJ","","705.6000000014901","img/animal5.png","76","706.5999999940395","3","1","3","1,0.5,0,0,1,0.5,0.5,0,1",""
"","html-keyboard-response","147","139579","0.0-147.0","3F6HPJW4JEMBIRLA691HFBRUZH7W2I","A1BJFYHXK6YDX1","3T5ZXGO9DEAUILU6S56NLENRQJRQZJ","","null","<img src=""img/animal5.png"" style=""width:200px; border:14px solid green;"">","null","","","","","",""
"","image-keyboard-response","148","140255","0.0-148.0","3F6HPJW4JEMBIRLA691HFBRUZH7W2I","A1BJFYHXK6YDX1","3T5ZXGO9DEAUILU6S56NLENRQJRQZJ","","675.1000000014901","img/animal4.png","75","676","2","1","2","1,0.5,0,0,1,0.5,0.5,0,1",""
"","html-keyboard-response","149","140568","0.0-149.0","3F6HPJW4JEMBIRLA691HFBRUZH7W2I","A1BJFYHXK6YDX1","3T5ZXGO9DEAUILU6S56NLENRQJRQZJ","","null","<img src=""img/animal4.png"" style=""width:200px; border:14px solid green;"">","null","","","","","",""
"","image-keyboard-response","150","141015","0.0-150.0","3F6HPJW4JEMBIRLA691HFBRUZH7W2I","A1BJFYHXK6YDX1","3T5ZXGO9DEAUILU6S56NLENRQJRQZJ","","446","img/animal4.png","75","447.1000000014901","2","1","2","1,0.5,0,0,1,0.5,0.5,0,1",""
"","html-keyboard-response","151","141322","0.0-151.0","3F6HPJW4JEMBIRLA691HFBRUZH7W2I","A1BJFYHXK6YDX1","3T5ZXGO9DEAUILU6S56NLENRQJRQZJ","","null","<img src=""img/animal4.png"" style=""width:200px; border:14px solid green;"">","null","","","","","",""
"","image-keyboard-response","152","142002","0.0-152.0","3F6HPJW4JEMBIRLA691HFBRUZH7W2I","A1BJFYHXK6YDX1","3T5ZXGO9DEAUILU6S56NLENRQJRQZJ","","679.2999999970198","img/animal4.png","75","680.1000000014901","2","1","2","1,0.5,0,0,1,0.5,0.5,0,1",""
"","html-keyboard-response","153","142306","0.0-153.0","3F6HPJW4JEMBIRLA691HFBRUZH7W2I","A1BJFYHXK6YDX1","3T5ZXGO9DEAUILU6S56NLENRQJRQZJ","","null","<img src=""img/animal4.png"" style=""width:200px; border:14px solid green;"">","null","","","","","",""
"","image-keyboard-response","154","142957","0.0-154.0","3F6HPJW4JEMBIRLA691HFBRUZH7W2I","A1BJFYHXK6YDX1","3T5ZXGO9DEAUILU6S56NLENRQJRQZJ","","649.6000000014901","img/animal2.png","74","650.5","1","1","1","1,0.5,0,0,1,0.5,0.5,0,1",""
"","html-keyboard-response","155","143264","0.0-155.0","3F6HPJW4JEMBIRLA691HFBRUZH7W2I","A1BJFYHXK6YDX1","3T5ZXGO9DEAUILU6S56NLENRQJRQZJ","","null","<img src=""img/animal2.png"" style=""width:200px; border:14px solid green;"">","null","","","","","",""
"","image-keyboard-response","156","144007","0.0-156.0","3F6HPJW4JEMBIRLA691HFBRUZH7W2I","A1BJFYHXK6YDX1","3T5ZXGO9DEAUILU6S56NLENRQJRQZJ","","741.5","img/animal5.png","76","742.7000000029802","3","1","3","1,0.5,0,0,1,0.5,0.5,0,1",""
"","html-keyboard-response","157","144314","0.0-157.0","3F6HPJW4JEMBIRLA691HFBRUZH7W2I","A1BJFYHXK6YDX1","3T5ZXGO9DEAUILU6S56NLENRQJRQZJ","","null","<img src=""img/animal5.png"" style=""width:200px; border:14px solid green;"">","null","","","","","",""
"","image-keyboard-response","158","144829","0.0-158.0","3F6HPJW4JEMBIRLA691HFBRUZH7W2I","A1BJFYHXK6YDX1","3T5ZXGO9DEAUILU6S56NLENRQJRQZJ","","513.5","img/animal5.png","76","514.7000000029802","3","1","3","1,0.5,0,0,1,0.5,0.5,0,1",""
"","html-keyboard-response","159","145139","0.0-159.0","3F6HPJW4JEMBIRLA691HFBRUZH7W2I","A1BJFYHXK6YDX1","3T5ZXGO9DEAUILU6S56NLENRQJRQZJ","","null","<img src=""img/animal5.png"" style=""width:200px; border:14px solid green;"">","null","","","","","",""
"","image-keyboard-response","160","145785","0.0-160.0","3F6HPJW4JEMBIRLA691HFBRUZH7W2I","A1BJFYHXK6YDX1","3T5ZXGO9DEAUILU6S56NLENRQJRQZJ","","643.8999999985099","img/animal2.png","74","645.2000000029802","1","1","1","1,0.5,0,0,1,0.5,0.5,0,1",""
"","html-keyboard-response","161","146087","0.0-161.0","3F6HPJW4JEMBIRLA691HFBRUZH7W2I","A1BJFYHXK6YDX1","3T5ZXGO9DEAUILU6S56NLENRQJRQZJ","","null","<img src=""img/animal2.png"" style=""width:200px; border:14px solid green;"">","null","","","","","",""
"","image-keyboard-response","162","146921","0.0-162.0","3F6HPJW4JEMBIRLA691HFBRUZH7W2I","A1BJFYHXK6YDX1","3T5ZXGO9DEAUILU6S56NLENRQJRQZJ","","832.8000000044703","img/animal5.png","76","833.8999999985099","3","1","3","1,0.5,0,0,1,0.5,0.5,0,1",""
"","html-keyboard-response","163","147230","0.0-163.0","3F6HPJW4JEMBIRLA691HFBRUZH7W2I","A1BJFYHXK6YDX1","3T5ZXGO9DEAUILU6S56NLENRQJRQZJ","","null","<img src=""img/animal5.png"" style=""width:200px; border:14px solid green;"">","null","","","","","",""
"","image-keyboard-response","164","147832","0.0-164.0","3F6HPJW4JEMBIRLA691HFBRUZH7W2I","A1BJFYHXK6YDX1","3T5ZXGO9DEAUILU6S56NLENRQJRQZJ","","600","img/animal2.png","74","601.1000000014901","1","1","1","1,0.5,0,0,1,0.5,0.5,0,1",""
"","html-keyboard-response","165","148149","0.0-165.0","3F6HPJW4JEMBIRLA691HFBRUZH7W2I","A1BJFYHXK6YDX1","3T5ZXGO9DEAUILU6S56NLENRQJRQZJ","","null","<img src=""img/animal2.png"" style=""width:200px; border:14px solid green;"">","null","","","","","",""
"","image-keyboard-response","166","148642","0.0-166.0","3F6HPJW4JEMBIRLA691HFBRUZH7W2I","A1BJFYHXK6YDX1","3T5ZXGO9DEAUILU6S56NLENRQJRQZJ","","491.09999999403954","img/animal2.png","74","492.19999999552965","1","1","1","1,0.5,0,0,1,0.5,0.5,0,1",""
"","html-keyboard-response","167","148947","0.0-167.0","3F6HPJW4JEMBIRLA691HFBRUZH7W2I","A1BJFYHXK6YDX1","3T5ZXGO9DEAUILU6S56NLENRQJRQZJ","","null","<img src=""img/animal2.png"" style=""width:200px; border:14px solid green;"">","null","","","","","",""
"","image-keyboard-response","168","149567","0.0-168.0","3F6HPJW4JEMBIRLA691HFBRUZH7W2I","A1BJFYHXK6YDX1","3T5ZXGO9DEAUILU6S56NLENRQJRQZJ","","619","img/animal4.png","76","620.1000000014901","3","1","2","1,0.5,0,0,1,0.5,0.5,0,1",""
"","html-keyboard-response","169","149884","0.0-169.0","3F6HPJW4JEMBIRLA691HFBRUZH7W2I","A1BJFYHXK6YDX1","3T5ZXGO9DEAUILU6S56NLENRQJRQZJ","","null","<img src=""img/animal4.png"" style=""width:200px; border:14px solid green;"">","null","","","","","",""
"","image-keyboard-response","170","150342","0.0-170.0","3F6HPJW4JEMBIRLA691HFBRUZH7W2I","A1BJFYHXK6YDX1","3T5ZXGO9DEAUILU6S56NLENRQJRQZJ","","454.70000000298023","img/animal4.png","76","457.5","3","0","2","1,0.5,0,0,1,0.5,0.5,0,1",""
"","html-keyboard-response","171","150651","0.0-171.0","3F6HPJW4JEMBIRLA691HFBRUZH7W2I","A1BJFYHXK6YDX1","3T5ZXGO9DEAUILU6S56NLENRQJRQZJ","","null","<img src=""img/animal4.png"" style=""width:200px;border:14px solid red;"">","null","","","","","",""
"","image-keyboard-response","172","151531","0.0-172.0","3F6HPJW4JEMBIRLA691HFBRUZH7W2I","A1BJFYHXK6YDX1","3T5ZXGO9DEAUILU6S56NLENRQJRQZJ","","879","img/animal5.png","76","880.1999999955297","3","1","3","1,0.5,0,0,1,0.5,0.5,0,1",""
"","html-keyboard-response","173","151837","0.0-173.0","3F6HPJW4JEMBIRLA691HFBRUZH7W2I","A1BJFYHXK6YDX1","3T5ZXGO9DEAUILU6S56NLENRQJRQZJ","","null","<img src=""img/animal5.png"" style=""width:200px; border:14px solid green;"">","null","","","","","",""
"","image-keyboard-response","174","152525","0.0-174.0","3F6HPJW4JEMBIRLA691HFBRUZH7W2I","A1BJFYHXK6YDX1","3T5ZXGO9DEAUILU6S56NLENRQJRQZJ","","685.7999999970198","img/animal2.png","74","687.2999999970198","1","1","1","1,0.5,0,0,1,0.5,0.5,0,1",""
"","html-keyboard-response","175","152828","0.0-175.0","3F6HPJW4JEMBIRLA691HFBRUZH7W2I","A1BJFYHXK6YDX1","3T5ZXGO9DEAUILU6S56NLENRQJRQZJ","","null","<img src=""img/animal2.png"" style=""width:200px; border:14px solid green;"">","null","","","","","",""
"","image-keyboard-response","176","153477","0.0-176.0","3F6HPJW4JEMBIRLA691HFBRUZH7W2I","A1BJFYHXK6YDX1","3T5ZXGO9DEAUILU6S56NLENRQJRQZJ","","648.1000000014901","img/animal4.png","75","649.6000000014901","2","1","2","1,0.5,0,0,1,0.5,0.5,0,1",""
"","html-keyboard-response","177","153788","0.0-177.0","3F6HPJW4JEMBIRLA691HFBRUZH7W2I","A1BJFYHXK6YDX1","3T5ZXGO9DEAUILU6S56NLENRQJRQZJ","","null","<img src=""img/animal4.png"" style=""width:200px; border:14px solid green;"">","null","","","","","",""
"","image-keyboard-response","178","154493","0.0-178.0","3F6HPJW4JEMBIRLA691HFBRUZH7W2I","A1BJFYHXK6YDX1","3T5ZXGO9DEAUILU6S56NLENRQJRQZJ","","704","img/animal2.png","74","704.8999999985099","1","1","1","1,0.5,0,0,1,0.5,0.5,0,1",""
"","html-keyboard-response","179","154797","0.0-179.0","3F6HPJW4JEMBIRLA691HFBRUZH7W2I","A1BJFYHXK6YDX1","3T5ZXGO9DEAUILU6S56NLENRQJRQZJ","","null","<img src=""img/animal2.png"" style=""width:200px; border:14px solid green;"">","null","","","","","",""
"","image-keyboard-response","180","155180","0.0-180.0","3F6HPJW4JEMBIRLA691HFBRUZH7W2I","A1BJFYHXK6YDX1","3T5ZXGO9DEAUILU6S56NLENRQJRQZJ","","381.29999999701977","img/animal2.png","74","382.70000000298023","1","1","1","1,0.5,0,0,1,0.5,0.5,0,1",""
"","html-keyboard-response","181","155489","0.0-181.0","3F6HPJW4JEMBIRLA691HFBRUZH7W2I","A1BJFYHXK6YDX1","3T5ZXGO9DEAUILU6S56NLENRQJRQZJ","","null","<img src=""img/animal2.png"" style=""width:200px; border:14px solid green;"">","null","","","","","",""
"","html-keyboard-response","182","157988","0.0-182.0","3F6HPJW4JEMBIRLA691HFBRUZH7W2I","A1BJFYHXK6YDX1","3T5ZXGO9DEAUILU6S56NLENRQJRQZJ","","","","","","","","","",""
"","image-keyboard-response","183","159572","0.0-183.0","3F6HPJW4JEMBIRLA691HFBRUZH7W2I","A1BJFYHXK6YDX1","3T5ZXGO9DEAUILU6S56NLENRQJRQZJ","","1582.5","img/animal3.png","74","1583.5","1","0","3","1,0.5,0,1,0.5,0,0.5,0,1",""
"","html-keyboard-response","184","159887","0.0-184.0","3F6HPJW4JEMBIRLA691HFBRUZH7W2I","A1BJFYHXK6YDX1","3T5ZXGO9DEAUILU6S56NLENRQJRQZJ","","null","<img src=""img/animal3.png"" style=""width:200px;border:14px solid red;"">","null","","","","","",""
"","image-keyboard-response","185","161083","0.0-185.0","3F6HPJW4JEMBIRLA691HFBRUZH7W2I","A1BJFYHXK6YDX1","3T5ZXGO9DEAUILU6S56NLENRQJRQZJ","","1193","img/animal1.png","75","1196","2","0","2","1,0.5,0,1,0.5,0,0.5,0,1",""
"","html-keyboard-response","186","161387","0.0-186.0","3F6HPJW4JEMBIRLA691HFBRUZH7W2I","A1BJFYHXK6YDX1","3T5ZXGO9DEAUILU6S56NLENRQJRQZJ","","null","<img src=""img/animal1.png"" style=""width:200px;border:14px solid red;"">","null","","","","","",""
"","image-keyboard-response","187","162163","0.0-187.0","3F6HPJW4JEMBIRLA691HFBRUZH7W2I","A1BJFYHXK6YDX1","3T5ZXGO9DEAUILU6S56NLENRQJRQZJ","","774.8000000044703","img/animal1.png","76","776.3000000044703","3","0","2","1,0.5,0,1,0.5,0,0.5,0,1",""
"","html-keyboard-response","188","162468","0.0-188.0","3F6HPJW4JEMBIRLA691HFBRUZH7W2I","A1BJFYHXK6YDX1","3T5ZXGO9DEAUILU6S56NLENRQJRQZJ","","null","<img src=""img/animal1.png"" style=""width:200px;border:14px solid red;"">","null","","","","","",""
"","image-keyboard-response","189","163991","0.0-189.0","3F6HPJW4JEMBIRLA691HFBRUZH7W2I","A1BJFYHXK6YDX1","3T5ZXGO9DEAUILU6S56NLENRQJRQZJ","","1521.7999999970198","img/animal6.png","75","1522.8999999985099","2","1","1","1,0.5,0,1,0.5,0,0.5,0,1",""
"","html-keyboard-response","190","164309","0.0-190.0","3F6HPJW4JEMBIRLA691HFBRUZH7W2I","A1BJFYHXK6YDX1","3T5ZXGO9DEAUILU6S56NLENRQJRQZJ","","null","<img src=""img/animal6.png"" style=""width:200px; border:14px solid green;"">","null","","","","","",""
"","image-keyboard-response","191","164872","0.0-191.0","3F6HPJW4JEMBIRLA691HFBRUZH7W2I","A1BJFYHXK6YDX1","3T5ZXGO9DEAUILU6S56NLENRQJRQZJ","","562.1000000014901","img/animal6.png","75","563.3999999985099","2","0","1","1,0.5,0,1,0.5,0,0.5,0,1",""
"","html-keyboard-response","192","165181","0.0-192.0","3F6HPJW4JEMBIRLA691HFBRUZH7W2I","A1BJFYHXK6YDX1","3T5ZXGO9DEAUILU6S56NLENRQJRQZJ","","null","<img src=""img/animal6.png"" style=""width:200px;border:14px solid red;"">","null","","","","","",""
"","image-keyboard-response","193","166024","0.0-193.0","3F6HPJW4JEMBIRLA691HFBRUZH7W2I","A1BJFYHXK6YDX1","3T5ZXGO9DEAUILU6S56NLENRQJRQZJ","","841.8000000044703","img/animal1.png","76","842.7999999970198","3","0","2","1,0.5,0,1,0.5,0,0.5,0,1",""
"","html-keyboard-response","194","166329","0.0-194.0","3F6HPJW4JEMBIRLA691HFBRUZH7W2I","A1BJFYHXK6YDX1","3T5ZXGO9DEAUILU6S56NLENRQJRQZJ","","null","<img src=""img/animal1.png"" style=""width:200px;border:14px solid red;"">","null","","","","","",""
"","image-keyboard-response","195","166918","0.0-195.0","3F6HPJW4JEMBIRLA691HFBRUZH7W2I","A1BJFYHXK6YDX1","3T5ZXGO9DEAUILU6S56NLENRQJRQZJ","","586.7000000029802","img/animal1.png","74","587.8000000044703","1","1","2","1,0.5,0,1,0.5,0,0.5,0,1",""
"","html-keyboard-response","196","167221","0.0-196.0","3F6HPJW4JEMBIRLA691HFBRUZH7W2I","A1BJFYHXK6YDX1","3T5ZXGO9DEAUILU6S56NLENRQJRQZJ","","null","<img src=""img/animal1.png"" style=""width:200px; border:14px solid green;"">","null","","","","","",""
"","image-keyboard-response","197","168037","0.0-197.0","3F6HPJW4JEMBIRLA691HFBRUZH7W2I","A1BJFYHXK6YDX1","3T5ZXGO9DEAUILU6S56NLENRQJRQZJ","","815.5","img/animal3.png","74","816.6000000014901","1","1","3","1,0.5,0,1,0.5,0,0.5,0,1",""
"","html-keyboard-response","198","168341","0.0-198.0","3F6HPJW4JEMBIRLA691HFBRUZH7W2I","A1BJFYHXK6YDX1","3T5ZXGO9DEAUILU6S56NLENRQJRQZJ","","null","<img src=""img/animal3.png"" style=""width:200px; border:14px solid green;"">","null","","","","","",""
"","image-keyboard-response","199","169180","0.0-199.0","3F6HPJW4JEMBIRLA691HFBRUZH7W2I","A1BJFYHXK6YDX1","3T5ZXGO9DEAUILU6S56NLENRQJRQZJ","","837.5","img/animal6.png","75","838.8000000044703","2","0","1","1,0.5,0,1,0.5,0,0.5,0,1",""
"","html-keyboard-response","200","169488","0.0-200.0","3F6HPJW4JEMBIRLA691HFBRUZH7W2I","A1BJFYHXK6YDX1","3T5ZXGO9DEAUILU6S56NLENRQJRQZJ","","null","<img src=""img/animal6.png"" style=""width:200px;border:14px solid red;"">","null","","","","","",""
"","image-keyboard-response","201","170206","0.0-201.0","3F6HPJW4JEMBIRLA691HFBRUZH7W2I","A1BJFYHXK6YDX1","3T5ZXGO9DEAUILU6S56NLENRQJRQZJ","","716.2999999970198","img/animal1.png","74","717.6000000014901","1","1","2","1,0.5,0,1,0.5,0,0.5,0,1",""
"","html-keyboard-response","202","170515","0.0-202.0","3F6HPJW4JEMBIRLA691HFBRUZH7W2I","A1BJFYHXK6YDX1","3T5ZXGO9DEAUILU6S56NLENRQJRQZJ","","null","<img src=""img/animal1.png"" style=""width:200px; border:14px solid green;"">","null","","","","","",""
"","image-keyboard-response","203","171185","0.0-203.0","3F6HPJW4JEMBIRLA691HFBRUZH7W2I","A1BJFYHXK6YDX1","3T5ZXGO9DEAUILU6S56NLENRQJRQZJ","","669.2000000029802","img/animal3.png","74","670.3999999985099","1","0","3","1,0.5,0,1,0.5,0,0.5,0,1",""
"","html-keyboard-response","204","171492","0.0-204.0","3F6HPJW4JEMBIRLA691HFBRUZH7W2I","A1BJFYHXK6YDX1","3T5ZXGO9DEAUILU6S56NLENRQJRQZJ","","null","<img src=""img/animal3.png"" style=""width:200px;border:14px solid red;"">","null","","","","","",""
"","image-keyboard-response","205","172320","0.0-205.0","3F6HPJW4JEMBIRLA691HFBRUZH7W2I","A1BJFYHXK6YDX1","3T5ZXGO9DEAUILU6S56NLENRQJRQZJ","","826.7999999970198","img/animal1.png","76","827.8999999985099","3","0","2","1,0.5,0,1,0.5,0,0.5,0,1",""
"","html-keyboard-response","206","172629","0.0-206.0","3F6HPJW4JEMBIRLA691HFBRUZH7W2I","A1BJFYHXK6YDX1","3T5ZXGO9DEAUILU6S56NLENRQJRQZJ","","null","<img src=""img/animal1.png"" style=""width:200px;border:14px solid red;"">","null","","","","","",""
"","image-keyboard-response","207","173451","0.0-207.0","3F6HPJW4JEMBIRLA691HFBRUZH7W2I","A1BJFYHXK6YDX1","3T5ZXGO9DEAUILU6S56NLENRQJRQZJ","","820.7999999970198","img/animal6.png","76","821.8999999985099","3","0","1","1,0.5,0,1,0.5,0,0.5,0,1",""
"","html-keyboard-response","208","173758","0.0-208.0","3F6HPJW4JEMBIRLA691HFBRUZH7W2I","A1BJFYHXK6YDX1","3T5ZXGO9DEAUILU6S56NLENRQJRQZJ","","null","<img src=""img/animal6.png"" style=""width:200px;border:14px solid red;"">","null","","","","","",""
"","image-keyboard-response","209","174483","0.0-209.0","3F6HPJW4JEMBIRLA691HFBRUZH7W2I","A1BJFYHXK6YDX1","3T5ZXGO9DEAUILU6S56NLENRQJRQZJ","","724.0999999940395","img/animal1.png","75","725.1999999955297","2","0","2","1,0.5,0,1,0.5,0,0.5,0,1",""
"","html-keyboard-response","210","174798","0.0-210.0","3F6HPJW4JEMBIRLA691HFBRUZH7W2I","A1BJFYHXK6YDX1","3T5ZXGO9DEAUILU6S56NLENRQJRQZJ","","null","<img src=""img/animal1.png"" style=""width:200px;border:14px solid red;"">","null","","","","","",""
"","image-keyboard-response","211","175669","0.0-211.0","3F6HPJW4JEMBIRLA691HFBRUZH7W2I","A1BJFYHXK6YDX1","3T5ZXGO9DEAUILU6S56NLENRQJRQZJ","","867.7999999970198","img/animal3.png","74","869","1","1","3","1,0.5,0,1,0.5,0,0.5,0,1",""
"","html-keyboard-response","212","175978","0.0-212.0","3F6HPJW4JEMBIRLA691HFBRUZH7W2I","A1BJFYHXK6YDX1","3T5ZXGO9DEAUILU6S56NLENRQJRQZJ","","null","<img src=""img/animal3.png"" style=""width:200px; border:14px solid green;"">","null","","","","","",""
"","image-keyboard-response","213","176373","0.0-213.0","3F6HPJW4JEMBIRLA691HFBRUZH7W2I","A1BJFYHXK6YDX1","3T5ZXGO9DEAUILU6S56NLENRQJRQZJ","","393.90000000596046","img/animal3.png","74","395.19999999552965","1","0","3","1,0.5,0,1,0.5,0,0.5,0,1",""
"","html-keyboard-response","214","176677","0.0-214.0","3F6HPJW4JEMBIRLA691HFBRUZH7W2I","A1BJFYHXK6YDX1","3T5ZXGO9DEAUILU6S56NLENRQJRQZJ","","null","<img src=""img/animal3.png"" style=""width:200px;border:14px solid red;"">","null","","","","","",""
"","image-keyboard-response","215","177904","0.0-215.0","3F6HPJW4JEMBIRLA691HFBRUZH7W2I","A1BJFYHXK6YDX1","3T5ZXGO9DEAUILU6S56NLENRQJRQZJ","","1226.1000000014901","img/animal3.png","75","1227.5","2","0","3","1,0.5,0,1,0.5,0,0.5,0,1",""
"","html-keyboard-response","216","178211","0.0-216.0","3F6HPJW4JEMBIRLA691HFBRUZH7W2I","A1BJFYHXK6YDX1","3T5ZXGO9DEAUILU6S56NLENRQJRQZJ","","null","<img src=""img/animal3.png"" style=""width:200px;border:14px solid red;"">","null","","","","","",""
"","image-keyboard-response","217","178327","0.0-217.0","3F6HPJW4JEMBIRLA691HFBRUZH7W2I","A1BJFYHXK6YDX1","3T5ZXGO9DEAUILU6S56NLENRQJRQZJ","","115","img/animal6.png","74","116.29999999701977","1","1","1","1,0.5,0,1,0.5,0,0.5,0,1",""
"","html-keyboard-response","218","178633","0.0-218.0","3F6HPJW4JEMBIRLA691HFBRUZH7W2I","A1BJFYHXK6YDX1","3T5ZXGO9DEAUILU6S56NLENRQJRQZJ","","null","<img src=""img/animal6.png"" style=""width:200px; border:14px solid green;"">","null","","","","","",""
"","image-keyboard-response","219","179278","0.0-219.0","3F6HPJW4JEMBIRLA691HFBRUZH7W2I","A1BJFYHXK6YDX1","3T5ZXGO9DEAUILU6S56NLENRQJRQZJ","","642.7000000029802","img/animal3.png","75","644","2","0","3","1,0.5,0,1,0.5,0,0.5,0,1",""
"","html-keyboard-response","220","179587","0.0-220.0","3F6HPJW4JEMBIRLA691HFBRUZH7W2I","A1BJFYHXK6YDX1","3T5ZXGO9DEAUILU6S56NLENRQJRQZJ","","null","<img src=""img/animal3.png"" style=""width:200px;border:14px solid red;"">","null","","","","","",""
"","image-keyboard-response","221","180133","0.0-221.0","3F6HPJW4JEMBIRLA691HFBRUZH7W2I","A1BJFYHXK6YDX1","3T5ZXGO9DEAUILU6S56NLENRQJRQZJ","","544.2999999970198","img/animal3.png","74","545.7000000029802","1","0","3","1,0.5,0,1,0.5,0,0.5,0,1",""
"","html-keyboard-response","222","180448","0.0-222.0","3F6HPJW4JEMBIRLA691HFBRUZH7W2I","A1BJFYHXK6YDX1","3T5ZXGO9DEAUILU6S56NLENRQJRQZJ","","null","<img src=""img/animal3.png"" style=""width:200px;border:14px solid red;"">","null","","","","","",""
"","image-keyboard-response","223","180762","0.0-223.0","3F6HPJW4JEMBIRLA691HFBRUZH7W2I","A1BJFYHXK6YDX1","3T5ZXGO9DEAUILU6S56NLENRQJRQZJ","","312.29999999701977","img/animal3.png","74","313.5","1","0","3","1,0.5,0,1,0.5,0,0.5,0,1",""
"","html-keyboard-response","224","181067","0.0-224.0","3F6HPJW4JEMBIRLA691HFBRUZH7W2I","A1BJFYHXK6YDX1","3T5ZXGO9DEAUILU6S56NLENRQJRQZJ","","null","<img src=""img/animal3.png"" style=""width:200px;border:14px solid red;"">","null","","","","","",""
"","image-keyboard-response","225","181871","0.0-225.0","3F6HPJW4JEMBIRLA691HFBRUZH7W2I","A1BJFYHXK6YDX1","3T5ZXGO9DEAUILU6S56NLENRQJRQZJ","","803.1000000014901","img/animal6.png","75","804.3999999985099","2","1","1","1,0.5,0,1,0.5,0,0.5,0,1",""
"","html-keyboard-response","226","182188","0.0-226.0","3F6HPJW4JEMBIRLA691HFBRUZH7W2I","A1BJFYHXK6YDX1","3T5ZXGO9DEAUILU6S56NLENRQJRQZJ","","null","<img src=""img/animal6.png"" style=""width:200px; border:14px solid green;"">","null","","","","","",""
"","image-keyboard-response","227","182575","0.0-227.0","3F6HPJW4JEMBIRLA691HFBRUZH7W2I","A1BJFYHXK6YDX1","3T5ZXGO9DEAUILU6S56NLENRQJRQZJ","","385.30000000447035","img/animal6.png","75","386.69999999552965","2","0","1","1,0.5,0,1,0.5,0,0.5,0,1",""
"","html-keyboard-response","228","182878","0.0-228.0","3F6HPJW4JEMBIRLA691HFBRUZH7W2I","A1BJFYHXK6YDX1","3T5ZXGO9DEAUILU6S56NLENRQJRQZJ","","null","<img src=""img/animal6.png"" style=""width:200px;border:14px solid red;"">","null","","","","","",""
"","image-keyboard-response","229","183311","0.0-229.0","3F6HPJW4JEMBIRLA691HFBRUZH7W2I","A1BJFYHXK6YDX1","3T5ZXGO9DEAUILU6S56NLENRQJRQZJ","","431","img/animal6.png","75","432.29999999701977","2","0","1","1,0.5,0,1,0.5,0,0.5,0,1",""
"","html-keyboard-response","230","183617","0.0-230.0","3F6HPJW4JEMBIRLA691HFBRUZH7W2I","A1BJFYHXK6YDX1","3T5ZXGO9DEAUILU6S56NLENRQJRQZJ","","null","<img src=""img/animal6.png"" style=""width:200px;border:14px solid red;"">","null","","","","","",""
"","image-keyboard-response","231","184594","0.0-231.0","3F6HPJW4JEMBIRLA691HFBRUZH7W2I","A1BJFYHXK6YDX1","3T5ZXGO9DEAUILU6S56NLENRQJRQZJ","","976.3000000044703","img/animal6.png","75","977.5","2","0","1","1,0.5,0,1,0.5,0,0.5,0,1",""
"","html-keyboard-response","232","184897","0.0-232.0","3F6HPJW4JEMBIRLA691HFBRUZH7W2I","A1BJFYHXK6YDX1","3T5ZXGO9DEAUILU6S56NLENRQJRQZJ","","null","<img src=""img/animal6.png"" style=""width:200px;border:14px solid red;"">","null","","","","","",""
"","image-keyboard-response","233","185919","0.0-233.0","3F6HPJW4JEMBIRLA691HFBRUZH7W2I","A1BJFYHXK6YDX1","3T5ZXGO9DEAUILU6S56NLENRQJRQZJ","","1021.1999999955297","img/animal1.png","74","1022.3999999985099","1","1","2","1,0.5,0,1,0.5,0,0.5,0,1",""
"","html-keyboard-response","234","186227","0.0-234.0","3F6HPJW4JEMBIRLA691HFBRUZH7W2I","A1BJFYHXK6YDX1","3T5ZXGO9DEAUILU6S56NLENRQJRQZJ","","null","<img src=""img/animal1.png"" style=""width:200px; border:14px solid green;"">","null","","","","","",""
"","image-keyboard-response","235","186825","0.0-235.0","3F6HPJW4JEMBIRLA691HFBRUZH7W2I","A1BJFYHXK6YDX1","3T5ZXGO9DEAUILU6S56NLENRQJRQZJ","","596.8999999985099","img/animal3.png","74","598.2000000029802","1","0","3","1,0.5,0,1,0.5,0,0.5,0,1",""
"","html-keyboard-response","236","187135","0.0-236.0","3F6HPJW4JEMBIRLA691HFBRUZH7W2I","A1BJFYHXK6YDX1","3T5ZXGO9DEAUILU6S56NLENRQJRQZJ","","null","<img src=""img/animal3.png"" style=""width:200px;border:14px solid red;"">","null","","","","","",""
"","image-keyboard-response","237","187692","0.0-237.0","3F6HPJW4JEMBIRLA691HFBRUZH7W2I","A1BJFYHXK6YDX1","3T5ZXGO9DEAUILU6S56NLENRQJRQZJ","","556.2000000029802","img/animal1.png","75","557.5","2","1","2","1,0.5,0,1,0.5,0,0.5,0,1",""
"","html-keyboard-response","238","188009","0.0-238.0","3F6HPJW4JEMBIRLA691HFBRUZH7W2I","A1BJFYHXK6YDX1","3T5ZXGO9DEAUILU6S56NLENRQJRQZJ","","null","<img src=""img/animal1.png"" style=""width:200px; border:14px solid green;"">","null","","","","","",""
"","image-keyboard-response","239","188048","0.0-239.0","3F6HPJW4JEMBIRLA691HFBRUZH7W2I","A1BJFYHXK6YDX1","3T5ZXGO9DEAUILU6S56NLENRQJRQZJ","","38.099999994039536","img/animal3.png","74","39","1","0","3","1,0.5,0,1,0.5,0,0.5,0,1",""
"","html-keyboard-response","240","188358","0.0-240.0","3F6HPJW4JEMBIRLA691HFBRUZH7W2I","A1BJFYHXK6YDX1","3T5ZXGO9DEAUILU6S56NLENRQJRQZJ","","null","<img src=""img/animal3.png"" style=""width:200px;border:14px solid red;"">","null","","","","","",""
"","image-keyboard-response","241","189041","0.0-241.0","3F6HPJW4JEMBIRLA691HFBRUZH7W2I","A1BJFYHXK6YDX1","3T5ZXGO9DEAUILU6S56NLENRQJRQZJ","","682.0999999940395","img/animal6.png","74","683","1","1","1","1,0.5,0,1,0.5,0,0.5,0,1",""
"","html-keyboard-response","242","189343","0.0-242.0","3F6HPJW4JEMBIRLA691HFBRUZH7W2I","A1BJFYHXK6YDX1","3T5ZXGO9DEAUILU6S56NLENRQJRQZJ","","null","<img src=""img/animal6.png"" style=""width:200px; border:14px solid green;"">","null","","","","","",""
"","image-keyboard-response","243","189923","0.0-243.0","3F6HPJW4JEMBIRLA691HFBRUZH7W2I","A1BJFYHXK6YDX1","3T5ZXGO9DEAUILU6S56NLENRQJRQZJ","","578.2999999970198","img/animal3.png","75","579.1999999955297","2","0","3","1,0.5,0,1,0.5,0,0.5,0,1",""
"","html-keyboard-response","244","190232","0.0-244.0","3F6HPJW4JEMBIRLA691HFBRUZH7W2I","A1BJFYHXK6YDX1","3T5ZXGO9DEAUILU6S56NLENRQJRQZJ","","null","<img src=""img/animal3.png"" style=""width:200px;border:14px solid red;"">","null","","","","","",""
"","image-keyboard-response","245","190800","0.0-245.0","3F6HPJW4JEMBIRLA691HFBRUZH7W2I","A1BJFYHXK6YDX1","3T5ZXGO9DEAUILU6S56NLENRQJRQZJ","","567.1000000014901","img/animal3.png","76","568.3999999985099","3","1","3","1,0.5,0,1,0.5,0,0.5,0,1",""
"","html-keyboard-response","246","191109","0.0-246.0","3F6HPJW4JEMBIRLA691HFBRUZH7W2I","A1BJFYHXK6YDX1","3T5ZXGO9DEAUILU6S56NLENRQJRQZJ","","null","<img src=""img/animal3.png"" style=""width:200px; border:14px solid green;"">","null","","","","","",""
"","image-keyboard-response","247","191494","0.0-247.0","3F6HPJW4JEMBIRLA691HFBRUZH7W2I","A1BJFYHXK6YDX1","3T5ZXGO9DEAUILU6S56NLENRQJRQZJ","","382","img/animal3.png","76","385","3","1","3","1,0.5,0,1,0.5,0,0.5,0,1",""
"","html-keyboard-response","248","191799","0.0-248.0","3F6HPJW4JEMBIRLA691HFBRUZH7W2I","A1BJFYHXK6YDX1","3T5ZXGO9DEAUILU6S56NLENRQJRQZJ","","null","<img src=""img/animal3.png"" style=""width:200px; border:14px solid green;"">","null","","","","","",""
"","image-keyboard-response","249","192432","0.0-249.0","3F6HPJW4JEMBIRLA691HFBRUZH7W2I","A1BJFYHXK6YDX1","3T5ZXGO9DEAUILU6S56NLENRQJRQZJ","","631.5","img/animal1.png","74","633","1","1","2","1,0.5,0,1,0.5,0,0.5,0,1",""
"","html-keyboard-response","250","192742","0.0-250.0","3F6HPJW4JEMBIRLA691HFBRUZH7W2I","A1BJFYHXK6YDX1","3T5ZXGO9DEAUILU6S56NLENRQJRQZJ","","null","<img src=""img/animal1.png"" style=""width:200px; border:14px solid green;"">","null","","","","","",""
"","image-keyboard-response","251","193109","0.0-251.0","3F6HPJW4JEMBIRLA691HFBRUZH7W2I","A1BJFYHXK6YDX1","3T5ZXGO9DEAUILU6S56NLENRQJRQZJ","","365","img/animal1.png","74","366.1000000014901","1","1","2","1,0.5,0,1,0.5,0,0.5,0,1",""
"","html-keyboard-response","252","193411","0.0-252.0","3F6HPJW4JEMBIRLA691HFBRUZH7W2I","A1BJFYHXK6YDX1","3T5ZXGO9DEAUILU6S56NLENRQJRQZJ","","null","<img src=""img/animal1.png"" style=""width:200px; border:14px solid green;"">","null","","","","","",""
"","image-keyboard-response","253","194185","0.0-253.0","3F6HPJW4JEMBIRLA691HFBRUZH7W2I","A1BJFYHXK6YDX1","3T5ZXGO9DEAUILU6S56NLENRQJRQZJ","","772.8000000044703","img/animal6.png","75","773.3999999985099","2","0","1","1,0.5,0,1,0.5,0,0.5,0,1",""
"","html-keyboard-response","254","194494","0.0-254.0","3F6HPJW4JEMBIRLA691HFBRUZH7W2I","A1BJFYHXK6YDX1","3T5ZXGO9DEAUILU6S56NLENRQJRQZJ","","null","<img src=""img/animal6.png"" style=""width:200px;border:14px solid red;"">","null","","","","","",""
"","image-keyboard-response","255","194657","0.0-255.0","3F6HPJW4JEMBIRLA691HFBRUZH7W2I","A1BJFYHXK6YDX1","3T5ZXGO9DEAUILU6S56NLENRQJRQZJ","","161.40000000596046","img/animal6.png","75","162.20000000298023","2","0","1","1,0.5,0,1,0.5,0,0.5,0,1",""
"","html-keyboard-response","256","194964","0.0-256.0","3F6HPJW4JEMBIRLA691HFBRUZH7W2I","A1BJFYHXK6YDX1","3T5ZXGO9DEAUILU6S56NLENRQJRQZJ","","null","<img src=""img/animal6.png"" style=""width:200px;border:14px solid red;"">","null","","","","","",""
"","image-keyboard-response","257","195735","0.0-257.0","3F6HPJW4JEMBIRLA691HFBRUZH7W2I","A1BJFYHXK6YDX1","3T5ZXGO9DEAUILU6S56NLENRQJRQZJ","","768.1000000014901","img/animal3.png","74","770.2000000029802","1","0","3","1,0.5,0,1,0.5,0,0.5,0,1",""
"","html-keyboard-response","258","196045","0.0-258.0","3F6HPJW4JEMBIRLA691HFBRUZH7W2I","A1BJFYHXK6YDX1","3T5ZXGO9DEAUILU6S56NLENRQJRQZJ","","null","<img src=""img/animal3.png"" style=""width:200px;border:14px solid red;"">","null","","","","","",""
"","image-keyboard-response","259","196235","0.0-259.0","3F6HPJW4JEMBIRLA691HFBRUZH7W2I","A1BJFYHXK6YDX1","3T5ZXGO9DEAUILU6S56NLENRQJRQZJ","","188.79999999701977","img/animal6.png","74","190","1","1","1","1,0.5,0,1,0.5,0,0.5,0,1",""
"","html-keyboard-response","260","196546","0.0-260.0","3F6HPJW4JEMBIRLA691HFBRUZH7W2I","A1BJFYHXK6YDX1","3T5ZXGO9DEAUILU6S56NLENRQJRQZJ","","null","<img src=""img/animal6.png"" style=""width:200px; border:14px solid green;"">","null","","","","","",""
"","image-keyboard-response","261","197188","0.0-261.0","3F6HPJW4JEMBIRLA691HFBRUZH7W2I","A1BJFYHXK6YDX1","3T5ZXGO9DEAUILU6S56NLENRQJRQZJ","","640.4000000059605","img/animal1.png","75","641.7999999970198","2","0","2","1,0.5,0,1,0.5,0,0.5,0,1",""
"","html-keyboard-response","262","197494","0.0-262.0","3F6HPJW4JEMBIRLA691HFBRUZH7W2I","A1BJFYHXK6YDX1","3T5ZXGO9DEAUILU6S56NLENRQJRQZJ","","null","<img src=""img/animal1.png"" style=""width:200px;border:14px solid red;"">","null","","","","","",""
"","image-keyboard-response","263","197632","0.0-263.0","3F6HPJW4JEMBIRLA691HFBRUZH7W2I","A1BJFYHXK6YDX1","3T5ZXGO9DEAUILU6S56NLENRQJRQZJ","","137.39999999850988","img/animal6.png","74","138","1","1","1","1,0.5,0,1,0.5,0,0.5,0,1",""
"","html-keyboard-response","264","197938","0.0-264.0","3F6HPJW4JEMBIRLA691HFBRUZH7W2I","A1BJFYHXK6YDX1","3T5ZXGO9DEAUILU6S56NLENRQJRQZJ","","null","<img src=""img/animal6.png"" style=""width:200px; border:14px solid green;"">","null","","","","","",""
"","image-keyboard-response","265","198953","0.0-265.0","3F6HPJW4JEMBIRLA691HFBRUZH7W2I","A1BJFYHXK6YDX1","3T5ZXGO9DEAUILU6S56NLENRQJRQZJ","","1013.1999999955297","img/animal1.png","76","1014.7000000029802","3","0","2","1,0.5,0,1,0.5,0,0.5,0,1",""
"","html-keyboard-response","266","199261","0.0-266.0","3F6HPJW4JEMBIRLA691HFBRUZH7W2I","A1BJFYHXK6YDX1","3T5ZXGO9DEAUILU6S56NLENRQJRQZJ","","null","<img src=""img/animal1.png"" style=""width:200px;border:14px solid red;"">","null","","","","","",""
"","image-keyboard-response","267","199573","0.0-267.0","3F6HPJW4JEMBIRLA691HFBRUZH7W2I","A1BJFYHXK6YDX1","3T5ZXGO9DEAUILU6S56NLENRQJRQZJ","","310.1000000014901","img/animal6.png","76","311.70000000298023","3","0","1","1,0.5,0,1,0.5,0,0.5,0,1",""
"","html-keyboard-response","268","199880","0.0-268.0","3F6HPJW4JEMBIRLA691HFBRUZH7W2I","A1BJFYHXK6YDX1","3T5ZXGO9DEAUILU6S56NLENRQJRQZJ","","null","<img src=""img/animal6.png"" style=""width:200px;border:14px solid red;"">","null","","","","","",""
"","image-keyboard-response","269","200110","0.0-269.0","3F6HPJW4JEMBIRLA691HFBRUZH7W2I","A1BJFYHXK6YDX1","3T5ZXGO9DEAUILU6S56NLENRQJRQZJ","","228.5","img/animal6.png","75","229.69999999552965","2","1","1","1,0.5,0,1,0.5,0,0.5,0,1",""
"","html-keyboard-response","270","200413","0.0-270.0","3F6HPJW4JEMBIRLA691HFBRUZH7W2I","A1BJFYHXK6YDX1","3T5ZXGO9DEAUILU6S56NLENRQJRQZJ","","null","<img src=""img/animal6.png"" style=""width:200px; border:14px solid green;"">","null","","","","","",""
"","image-keyboard-response","271","200898","0.0-271.0","3F6HPJW4JEMBIRLA691HFBRUZH7W2I","A1BJFYHXK6YDX1","3T5ZXGO9DEAUILU6S56NLENRQJRQZJ","","483.29999999701977","img/animal6.png","75","484.3999999985099","2","1","1","1,0.5,0,1,0.5,0,0.5,0,1",""
"","html-keyboard-response","272","201202","0.0-272.0","3F6HPJW4JEMBIRLA691HFBRUZH7W2I","A1BJFYHXK6YDX1","3T5ZXGO9DEAUILU6S56NLENRQJRQZJ","","null","<img src=""img/animal6.png"" style=""width:200px; border:14px solid green;"">","null","","","","","",""
"","image-keyboard-response","273","201885","0.0-273.0","3F6HPJW4JEMBIRLA691HFBRUZH7W2I","A1BJFYHXK6YDX1","3T5ZXGO9DEAUILU6S56NLENRQJRQZJ","","681.7999999970198","img/animal1.png","74","683.2000000029802","1","1","2","1,0.5,0,1,0.5,0,0.5,0,1",""
"","html-keyboard-response","274","202188","0.0-274.0","3F6HPJW4JEMBIRLA691HFBRUZH7W2I","A1BJFYHXK6YDX1","3T5ZXGO9DEAUILU6S56NLENRQJRQZJ","","null","<img src=""img/animal1.png"" style=""width:200px; border:14px solid green;"">","null","","","","","",""
"","image-keyboard-response","275","202908","0.0-275.0","3F6HPJW4JEMBIRLA691HFBRUZH7W2I","A1BJFYHXK6YDX1","3T5ZXGO9DEAUILU6S56NLENRQJRQZJ","","718.5","img/animal6.png","75","719.6000000014901","2","1","1","1,0.5,0,1,0.5,0,0.5,0,1",""
"","html-keyboard-response","276","203214","0.0-276.0","3F6HPJW4JEMBIRLA691HFBRUZH7W2I","A1BJFYHXK6YDX1","3T5ZXGO9DEAUILU6S56NLENRQJRQZJ","","null","<img src=""img/animal6.png"" style=""width:200px; border:14px solid green;"">","null","","","","","",""
"","image-keyboard-response","277","203907","0.0-277.0","3F6HPJW4JEMBIRLA691HFBRUZH7W2I","A1BJFYHXK6YDX1","3T5ZXGO9DEAUILU6S56NLENRQJRQZJ","","691.7000000029802","img/animal1.png","74","692.8999999985099","1","1","2","1,0.5,0,1,0.5,0,0.5,0,1",""
"","html-keyboard-response","278","204212","0.0-278.0","3F6HPJW4JEMBIRLA691HFBRUZH7W2I","A1BJFYHXK6YDX1","3T5ZXGO9DEAUILU6S56NLENRQJRQZJ","","null","<img src=""img/animal1.png"" style=""width:200px; border:14px solid green;"">","null","","","","","",""
"","image-keyboard-response","279","205008","0.0-279.0","3F6HPJW4JEMBIRLA691HFBRUZH7W2I","A1BJFYHXK6YDX1","3T5ZXGO9DEAUILU6S56NLENRQJRQZJ","","794.2000000029802","img/animal3.png","74","795.7000000029802","1","0","3","1,0.5,0,1,0.5,0,0.5,0,1",""
"","html-keyboard-response","280","205317","0.0-280.0","3F6HPJW4JEMBIRLA691HFBRUZH7W2I","A1BJFYHXK6YDX1","3T5ZXGO9DEAUILU6S56NLENRQJRQZJ","","null","<img src=""img/animal3.png"" style=""width:200px;border:14px solid red;"">","null","","","","","",""
"","image-keyboard-response","281","206109","0.0-281.0","3F6HPJW4JEMBIRLA691HFBRUZH7W2I","A1BJFYHXK6YDX1","3T5ZXGO9DEAUILU6S56NLENRQJRQZJ","","790.2000000029802","img/animal3.png","76","791.5999999940395","3","1","3","1,0.5,0,1,0.5,0,0.5,0,1",""
"","html-keyboard-response","282","206418","0.0-282.0","3F6HPJW4JEMBIRLA691HFBRUZH7W2I","A1BJFYHXK6YDX1","3T5ZXGO9DEAUILU6S56NLENRQJRQZJ","","null","<img src=""img/animal3.png"" style=""width:200px; border:14px solid green;"">","null","","","","","",""
"","image-keyboard-response","283","207487","0.0-283.0","3F6HPJW4JEMBIRLA691HFBRUZH7W2I","A1BJFYHXK6YDX1","3T5ZXGO9DEAUILU6S56NLENRQJRQZJ","","1068.1000000014901","img/animal1.png","76","1069.1999999955297","3","0","2","1,0.5,0,1,0.5,0,0.5,0,1",""
"","html-keyboard-response","284","207797","0.0-284.0","3F6HPJW4JEMBIRLA691HFBRUZH7W2I","A1BJFYHXK6YDX1","3T5ZXGO9DEAUILU6S56NLENRQJRQZJ","","null","<img src=""img/animal1.png"" style=""width:200px;border:14px solid red;"">","null","","","","","",""
"","image-keyboard-response","285","208204","0.0-285.0","3F6HPJW4JEMBIRLA691HFBRUZH7W2I","A1BJFYHXK6YDX1","3T5ZXGO9DEAUILU6S56NLENRQJRQZJ","","405.5","img/animal3.png","75","406.3999999985099","2","0","3","1,0.5,0,1,0.5,0,0.5,0,1",""
"","html-keyboard-response","286","208508","0.0-286.0","3F6HPJW4JEMBIRLA691HFBRUZH7W2I","A1BJFYHXK6YDX1","3T5ZXGO9DEAUILU6S56NLENRQJRQZJ","","null","<img src=""img/animal3.png"" style=""width:200px;border:14px solid red;"">","null","","","","","",""
"","image-keyboard-response","287","209013","0.0-287.0","3F6HPJW4JEMBIRLA691HFBRUZH7W2I","A1BJFYHXK6YDX1","3T5ZXGO9DEAUILU6S56NLENRQJRQZJ","","503.20000000298023","img/animal1.png","74","504.5","1","1","2","1,0.5,0,1,0.5,0,0.5,0,1",""
"","html-keyboard-response","288","209327","0.0-288.0","3F6HPJW4JEMBIRLA691HFBRUZH7W2I","A1BJFYHXK6YDX1","3T5ZXGO9DEAUILU6S56NLENRQJRQZJ","","null","<img src=""img/animal1.png"" style=""width:200px; border:14px solid green;"">","null","","","","","",""
"","image-keyboard-response","289","209819","0.0-289.0","3F6HPJW4JEMBIRLA691HFBRUZH7W2I","A1BJFYHXK6YDX1","3T5ZXGO9DEAUILU6S56NLENRQJRQZJ","","489.79999999701977","img/animal1.png","74","491.59999999403954","1","1","2","1,0.5,0,1,0.5,0,0.5,0,1",""
"","html-keyboard-response","290","210132","0.0-290.0","3F6HPJW4JEMBIRLA691HFBRUZH7W2I","A1BJFYHXK6YDX1","3T5ZXGO9DEAUILU6S56NLENRQJRQZJ","","null","<img src=""img/animal1.png"" style=""width:200px; border:14px solid green;"">","null","","","","","",""
"","image-keyboard-response","291","210899","0.0-291.0","3F6HPJW4JEMBIRLA691HFBRUZH7W2I","A1BJFYHXK6YDX1","3T5ZXGO9DEAUILU6S56NLENRQJRQZJ","","766","img/animal3.png","74","767.5","1","1","3","1,0.5,0,1,0.5,0,0.5,0,1",""
"","html-keyboard-response","292","211205","0.0-292.0","3F6HPJW4JEMBIRLA691HFBRUZH7W2I","A1BJFYHXK6YDX1","3T5ZXGO9DEAUILU6S56NLENRQJRQZJ","","null","<img src=""img/animal3.png"" style=""width:200px; border:14px solid green;"">","null","","","","","",""
"","image-keyboard-response","293","211838","0.0-293.0","3F6HPJW4JEMBIRLA691HFBRUZH7W2I","A1BJFYHXK6YDX1","3T5ZXGO9DEAUILU6S56NLENRQJRQZJ","","627.8000000044703","img/animal6.png","75","629.6000000014901","2","1","1","1,0.5,0,1,0.5,0,0.5,0,1",""
"","html-keyboard-response","294","212148","0.0-294.0","3F6HPJW4JEMBIRLA691HFBRUZH7W2I","A1BJFYHXK6YDX1","3T5ZXGO9DEAUILU6S56NLENRQJRQZJ","","null","<img src=""img/animal6.png"" style=""width:200px; border:14px solid green;"">","null","","","","","",""
"","image-keyboard-response","295","212658","0.0-295.0","3F6HPJW4JEMBIRLA691HFBRUZH7W2I","A1BJFYHXK6YDX1","3T5ZXGO9DEAUILU6S56NLENRQJRQZJ","","507.6000000014901","img/animal1.png","74","509.19999999552965","1","1","2","1,0.5,0,1,0.5,0,0.5,0,1",""
"","html-keyboard-response","296","212964","0.0-296.0","3F6HPJW4JEMBIRLA691HFBRUZH7W2I","A1BJFYHXK6YDX1","3T5ZXGO9DEAUILU6S56NLENRQJRQZJ","","null","<img src=""img/animal1.png"" style=""width:200px; border:14px solid green;"">","null","","","","","",""
"","image-keyboard-response","297","213392","0.0-297.0","3F6HPJW4JEMBIRLA691HFBRUZH7W2I","A1BJFYHXK6YDX1","3T5ZXGO9DEAUILU6S56NLENRQJRQZJ","","426.80000000447035","img/animal1.png","74","428","1","1","2","1,0.5,0,1,0.5,0,0.5,0,1",""
"","html-keyboard-response","298","213699","0.0-298.0","3F6HPJW4JEMBIRLA691HFBRUZH7W2I","A1BJFYHXK6YDX1","3T5ZXGO9DEAUILU6S56NLENRQJRQZJ","","null","<img src=""img/animal1.png"" style=""width:200px; border:14px solid green;"">","null","","","","","",""
"","image-keyboard-response","299","214237","0.0-299.0","3F6HPJW4JEMBIRLA691HFBRUZH7W2I","A1BJFYHXK6YDX1","3T5ZXGO9DEAUILU6S56NLENRQJRQZJ","","535.7999999970198","img/animal1.png","74","537.2999999970198","1","1","2","1,0.5,0,1,0.5,0,0.5,0,1",""
"","html-keyboard-response","300","214548","0.0-300.0","3F6HPJW4JEMBIRLA691HFBRUZH7W2I","A1BJFYHXK6YDX1","3T5ZXGO9DEAUILU6S56NLENRQJRQZJ","","null","<img src=""img/animal1.png"" style=""width:200px; border:14px solid green;"">","null","","","","","",""
"","image-keyboard-response","301","215153","0.0-301.0","3F6HPJW4JEMBIRLA691HFBRUZH7W2I","A1BJFYHXK6YDX1","3T5ZXGO9DEAUILU6S56NLENRQJRQZJ","","603.9000000059605","img/animal3.png","75","605.1000000014901","2","0","3","1,0.5,0,1,0.5,0,0.5,0,1",""
"","html-keyboard-response","302","215463","0.0-302.0","3F6HPJW4JEMBIRLA691HFBRUZH7W2I","A1BJFYHXK6YDX1","3T5ZXGO9DEAUILU6S56NLENRQJRQZJ","","null","<img src=""img/animal3.png"" style=""width:200px;border:14px solid red;"">","null","","","","","",""
"","image-keyboard-response","303","215852","0.0-303.0","3F6HPJW4JEMBIRLA691HFBRUZH7W2I","A1BJFYHXK6YDX1","3T5ZXGO9DEAUILU6S56NLENRQJRQZJ","","387.69999999552965","img/animal6.png","74","389.20000000298023","1","1","1","1,0.5,0,1,0.5,0,0.5,0,1",""
"","html-keyboard-response","304","216163","0.0-304.0","3F6HPJW4JEMBIRLA691HFBRUZH7W2I","A1BJFYHXK6YDX1","3T5ZXGO9DEAUILU6S56NLENRQJRQZJ","","null","<img src=""img/animal6.png"" style=""width:200px; border:14px solid green;"">","null","","","","","",""
"","image-keyboard-response","305","216486","0.0-305.0","3F6HPJW4JEMBIRLA691HFBRUZH7W2I","A1BJFYHXK6YDX1","3T5ZXGO9DEAUILU6S56NLENRQJRQZJ","","321.3999999985099","img/animal3.png","74","323.1000000014901","1","1","3","1,0.5,0,1,0.5,0,0.5,0,1",""
"","html-keyboard-response","306","216791","0.0-306.0","3F6HPJW4JEMBIRLA691HFBRUZH7W2I","A1BJFYHXK6YDX1","3T5ZXGO9DEAUILU6S56NLENRQJRQZJ","","null","<img src=""img/animal3.png"" style=""width:200px; border:14px solid green;"">","null","","","","","",""
"","image-keyboard-response","307","217508","0.0-307.0","3F6HPJW4JEMBIRLA691HFBRUZH7W2I","A1BJFYHXK6YDX1","3T5ZXGO9DEAUILU6S56NLENRQJRQZJ","","714.8000000044703","img/animal6.png","74","715.9000000059605","1","1","1","1,0.5,0,1,0.5,0,0.5,0,1",""
"","html-keyboard-response","308","217812","0.0-308.0","3F6HPJW4JEMBIRLA691HFBRUZH7W2I","A1BJFYHXK6YDX1","3T5ZXGO9DEAUILU6S56NLENRQJRQZJ","","null","<img src=""img/animal6.png"" style=""width:200px; border:14px solid green;"">","null","","","","","",""
"","image-keyboard-response","309","219126","0.0-309.0","3F6HPJW4JEMBIRLA691HFBRUZH7W2I","A1BJFYHXK6YDX1","3T5ZXGO9DEAUILU6S56NLENRQJRQZJ","","1312.3000000044703","img/animal1.png","74","1313.5999999940395","1","1","2","1,0.5,0,1,0.5,0,0.5,0,1",""
"","html-keyboard-response","310","219431","0.0-310.0","3F6HPJW4JEMBIRLA691HFBRUZH7W2I","A1BJFYHXK6YDX1","3T5ZXGO9DEAUILU6S56NLENRQJRQZJ","","null","<img src=""img/animal1.png"" style=""width:200px; border:14px solid green;"">","null","","","","","",""
"","image-keyboard-response","311","220016","0.0-311.0","3F6HPJW4JEMBIRLA691HFBRUZH7W2I","A1BJFYHXK6YDX1","3T5ZXGO9DEAUILU6S56NLENRQJRQZJ","","583.5999999940395","img/animal6.png","74","584.6000000014901","1","1","1","1,0.5,0,1,0.5,0,0.5,0,1",""
"","html-keyboard-response","312","220320","0.0-312.0","3F6HPJW4JEMBIRLA691HFBRUZH7W2I","A1BJFYHXK6YDX1","3T5ZXGO9DEAUILU6S56NLENRQJRQZJ","","null","<img src=""img/animal6.png"" style=""width:200px; border:14px solid green;"">","null","","","","","",""
"","image-keyboard-response","313","220671","0.0-313.0","3F6HPJW4JEMBIRLA691HFBRUZH7W2I","A1BJFYHXK6YDX1","3T5ZXGO9DEAUILU6S56NLENRQJRQZJ","","349.6000000014901","img/animal1.png","74","350.69999999552965","1","1","2","1,0.5,0,1,0.5,0,0.5,0,1",""
"","html-keyboard-response","314","220979","0.0-314.0","3F6HPJW4JEMBIRLA691HFBRUZH7W2I","A1BJFYHXK6YDX1","3T5ZXGO9DEAUILU6S56NLENRQJRQZJ","","null","<img src=""img/animal1.png"" style=""width:200px; border:14px solid green;"">","null","","","","","",""
"","image-keyboard-response","315","221467","0.0-315.0","3F6HPJW4JEMBIRLA691HFBRUZH7W2I","A1BJFYHXK6YDX1","3T5ZXGO9DEAUILU6S56NLENRQJRQZJ","","486.8999999985099","img/animal6.png","74","488.1000000014901","1","1","1","1,0.5,0,1,0.5,0,0.5,0,1",""
"","html-keyboard-response","316","221778","0.0-316.0","3F6HPJW4JEMBIRLA691HFBRUZH7W2I","A1BJFYHXK6YDX1","3T5ZXGO9DEAUILU6S56NLENRQJRQZJ","","null","<img src=""img/animal6.png"" style=""width:200px; border:14px solid green;"">","null","","","","","",""
"","image-keyboard-response","317","222747","0.0-317.0","3F6HPJW4JEMBIRLA691HFBRUZH7W2I","A1BJFYHXK6YDX1","3T5ZXGO9DEAUILU6S56NLENRQJRQZJ","","967.3000000044703","img/animal6.png","74","968.5999999940395","1","1","1","1,0.5,0,1,0.5,0,0.5,0,1",""
"","html-keyboard-response","318","223056","0.0-318.0","3F6HPJW4JEMBIRLA691HFBRUZH7W2I","A1BJFYHXK6YDX1","3T5ZXGO9DEAUILU6S56NLENRQJRQZJ","","null","<img src=""img/animal6.png"" style=""width:200px; border:14px solid green;"">","null","","","","","",""
"","image-keyboard-response","319","223648","0.0-319.0","3F6HPJW4JEMBIRLA691HFBRUZH7W2I","A1BJFYHXK6YDX1","3T5ZXGO9DEAUILU6S56NLENRQJRQZJ","","591.2999999970198","img/animal3.png","74","592.3000000044703","1","1","3","1,0.5,0,1,0.5,0,0.5,0,1",""
"","html-keyboard-response","320","223951","0.0-320.0","3F6HPJW4JEMBIRLA691HFBRUZH7W2I","A1BJFYHXK6YDX1","3T5ZXGO9DEAUILU6S56NLENRQJRQZJ","","null","<img src=""img/animal3.png"" style=""width:200px; border:14px solid green;"">","null","","","","","",""
"","image-keyboard-response","321","224463","0.0-321.0","3F6HPJW4JEMBIRLA691HFBRUZH7W2I","A1BJFYHXK6YDX1","3T5ZXGO9DEAUILU6S56NLENRQJRQZJ","","510.70000000298023","img/animal3.png","74","512","1","0","3","1,0.5,0,1,0.5,0,0.5,0,1",""
"","html-keyboard-response","322","224769","0.0-322.0","3F6HPJW4JEMBIRLA691HFBRUZH7W2I","A1BJFYHXK6YDX1","3T5ZXGO9DEAUILU6S56NLENRQJRQZJ","","null","<img src=""img/animal3.png"" style=""width:200px;border:14px solid red;"">","null","","","","","",""
"","image-keyboard-response","323","225318","0.0-323.0","3F6HPJW4JEMBIRLA691HFBRUZH7W2I","A1BJFYHXK6YDX1","3T5ZXGO9DEAUILU6S56NLENRQJRQZJ","","547.8999999985099","img/animal3.png","75","549.5","2","0","3","1,0.5,0,1,0.5,0,0.5,0,1",""
"","html-keyboard-response","324","225631","0.0-324.0","3F6HPJW4JEMBIRLA691HFBRUZH7W2I","A1BJFYHXK6YDX1","3T5ZXGO9DEAUILU6S56NLENRQJRQZJ","","null","<img src=""img/animal3.png"" style=""width:200px;border:14px solid red;"">","null","","","","","",""
"","image-keyboard-response","325","226262","0.0-325.0","3F6HPJW4JEMBIRLA691HFBRUZH7W2I","A1BJFYHXK6YDX1","3T5ZXGO9DEAUILU6S56NLENRQJRQZJ","","629","img/animal6.png","76","630.5","3","0","1","1,0.5,0,1,0.5,0,0.5,0,1",""
"","html-keyboard-response","326","226571","0.0-326.0","3F6HPJW4JEMBIRLA691HFBRUZH7W2I","A1BJFYHXK6YDX1","3T5ZXGO9DEAUILU6S56NLENRQJRQZJ","","null","<img src=""img/animal6.png"" style=""width:200px;border:14px solid red;"">","null","","","","","",""
"","image-keyboard-response","327","226947","0.0-327.0","3F6HPJW4JEMBIRLA691HFBRUZH7W2I","A1BJFYHXK6YDX1","3T5ZXGO9DEAUILU6S56NLENRQJRQZJ","","375.3999999985099","img/animal6.png","75","376.80000000447035","2","0","1","1,0.5,0,1,0.5,0,0.5,0,1",""
"","html-keyboard-response","328","227258","0.0-328.0","3F6HPJW4JEMBIRLA691HFBRUZH7W2I","A1BJFYHXK6YDX1","3T5ZXGO9DEAUILU6S56NLENRQJRQZJ","","null","<img src=""img/animal6.png"" style=""width:200px;border:14px solid red;"">","null","","","","","",""
"","image-keyboard-response","329","227357","0.0-329.0","3F6HPJW4JEMBIRLA691HFBRUZH7W2I","A1BJFYHXK6YDX1","3T5ZXGO9DEAUILU6S56NLENRQJRQZJ","","98.10000000149012","img/animal1.png","75","99.10000000149012","2","1","2","1,0.5,0,1,0.5,0,0.5,0,1",""
"","html-keyboard-response","330","227668","0.0-330.0","3F6HPJW4JEMBIRLA691HFBRUZH7W2I","A1BJFYHXK6YDX1","3T5ZXGO9DEAUILU6S56NLENRQJRQZJ","","null","<img src=""img/animal1.png"" style=""width:200px; border:14px solid green;"">","null","","","","","",""
"","image-keyboard-response","331","228382","0.0-331.0","3F6HPJW4JEMBIRLA691HFBRUZH7W2I","A1BJFYHXK6YDX1","3T5ZXGO9DEAUILU6S56NLENRQJRQZJ","","712.6999999955297","img/animal3.png","74","713.8999999985099","1","1","3","1,0.5,0,1,0.5,0,0.5,0,1",""
"","html-keyboard-response","332","228688","0.0-332.0","3F6HPJW4JEMBIRLA691HFBRUZH7W2I","A1BJFYHXK6YDX1","3T5ZXGO9DEAUILU6S56NLENRQJRQZJ","","null","<img src=""img/animal3.png"" style=""width:200px; border:14px solid green;"">","null","","","","","",""
"","image-keyboard-response","333","229079","0.0-333.0","3F6HPJW4JEMBIRLA691HFBRUZH7W2I","A1BJFYHXK6YDX1","3T5ZXGO9DEAUILU6S56NLENRQJRQZJ","","388.90000000596046","img/animal3.png","74","390.30000000447035","1","0","3","1,0.5,0,1,0.5,0,0.5,0,1",""
"","html-keyboard-response","334","229381","0.0-334.0","3F6HPJW4JEMBIRLA691HFBRUZH7W2I","A1BJFYHXK6YDX1","3T5ZXGO9DEAUILU6S56NLENRQJRQZJ","","null","<img src=""img/animal3.png"" style=""width:200px;border:14px solid red;"">","null","","","","","",""
"","image-keyboard-response","335","229929","0.0-335.0","3F6HPJW4JEMBIRLA691HFBRUZH7W2I","A1BJFYHXK6YDX1","3T5ZXGO9DEAUILU6S56NLENRQJRQZJ","","546.3999999985099","img/animal1.png","75","547.6000000014901","2","1","2","1,0.5,0,1,0.5,0,0.5,0,1",""
"","html-keyboard-response","336","230236","0.0-336.0","3F6HPJW4JEMBIRLA691HFBRUZH7W2I","A1BJFYHXK6YDX1","3T5ZXGO9DEAUILU6S56NLENRQJRQZJ","","null","<img src=""img/animal1.png"" style=""width:200px; border:14px solid green;"">","null","","","","","",""
"","image-keyboard-response","337","230667","0.0-337.0","3F6HPJW4JEMBIRLA691HFBRUZH7W2I","A1BJFYHXK6YDX1","3T5ZXGO9DEAUILU6S56NLENRQJRQZJ","","429.3999999985099","img/animal1.png","75","430.5","2","1","2","1,0.5,0,1,0.5,0,0.5,0,1",""
"","html-keyboard-response","338","230974","0.0-338.0","3F6HPJW4JEMBIRLA691HFBRUZH7W2I","A1BJFYHXK6YDX1","3T5ZXGO9DEAUILU6S56NLENRQJRQZJ","","null","<img src=""img/animal1.png"" style=""width:200px; border:14px solid green;"">","null","","","","","",""
"","image-keyboard-response","339","231373","0.0-339.0","3F6HPJW4JEMBIRLA691HFBRUZH7W2I","A1BJFYHXK6YDX1","3T5ZXGO9DEAUILU6S56NLENRQJRQZJ","","396.70000000298023","img/animal1.png","75","398.5","2","1","2","1,0.5,0,1,0.5,0,0.5,0,1",""
"","html-keyboard-response","340","231680","0.0-340.0","3F6HPJW4JEMBIRLA691HFBRUZH7W2I","A1BJFYHXK6YDX1","3T5ZXGO9DEAUILU6S56NLENRQJRQZJ","","null","<img src=""img/animal1.png"" style=""width:200px; border:14px solid green;"">","null","","","","","",""
"","image-keyboard-response","341","232193","0.0-341.0","3F6HPJW4JEMBIRLA691HFBRUZH7W2I","A1BJFYHXK6YDX1","3T5ZXGO9DEAUILU6S56NLENRQJRQZJ","","511.09999999403954","img/animal3.png","74","512.8999999985099","1","0","3","1,0.5,0,1,0.5,0,0.5,0,1",""
"","html-keyboard-response","342","232498","0.0-342.0","3F6HPJW4JEMBIRLA691HFBRUZH7W2I","A1BJFYHXK6YDX1","3T5ZXGO9DEAUILU6S56NLENRQJRQZJ","","null","<img src=""img/animal3.png"" style=""width:200px;border:14px solid red;"">","null","","","","","",""
"","image-keyboard-response","343","232973","0.0-343.0","3F6HPJW4JEMBIRLA691HFBRUZH7W2I","A1BJFYHXK6YDX1","3T5ZXGO9DEAUILU6S56NLENRQJRQZJ","","473.5","img/animal3.png","75","474.80000000447035","2","0","3","1,0.5,0,1,0.5,0,0.5,0,1",""
"","html-keyboard-response","344","233276","0.0-344.0","3F6HPJW4JEMBIRLA691HFBRUZH7W2I","A1BJFYHXK6YDX1","3T5ZXGO9DEAUILU6S56NLENRQJRQZJ","","null","<img src=""img/animal3.png"" style=""width:200px;border:14px solid red;"">","null","","","","","",""
"","image-keyboard-response","345","233935","0.0-345.0","3F6HPJW4JEMBIRLA691HFBRUZH7W2I","A1BJFYHXK6YDX1","3T5ZXGO9DEAUILU6S56NLENRQJRQZJ","","657.6000000014901","img/animal1.png","74","658.7999999970198","1","1","2","1,0.5,0,1,0.5,0,0.5,0,1",""
"","html-keyboard-response","346","234245","0.0-346.0","3F6HPJW4JEMBIRLA691HFBRUZH7W2I","A1BJFYHXK6YDX1","3T5ZXGO9DEAUILU6S56NLENRQJRQZJ","","null","<img src=""img/animal1.png"" style=""width:200px; border:14px solid green;"">","null","","","","","",""
"","image-keyboard-response","347","234626","0.0-347.0","3F6HPJW4JEMBIRLA691HFBRUZH7W2I","A1BJFYHXK6YDX1","3T5ZXGO9DEAUILU6S56NLENRQJRQZJ","","380","img/animal6.png","74","381.3999999985099","1","1","1","1,0.5,0,1,0.5,0,0.5,0,1",""
"","html-keyboard-response","348","234929","0.0-348.0","3F6HPJW4JEMBIRLA691HFBRUZH7W2I","A1BJFYHXK6YDX1","3T5ZXGO9DEAUILU6S56NLENRQJRQZJ","","null","<img src=""img/animal6.png"" style=""width:200px; border:14px solid green;"">","null","","","","","",""
"","image-keyboard-response","349","235129","0.0-349.0","3F6HPJW4JEMBIRLA691HFBRUZH7W2I","A1BJFYHXK6YDX1","3T5ZXGO9DEAUILU6S56NLENRQJRQZJ","","197.5","img/animal1.png","74","198.89999999850988","1","1","2","1,0.5,0,1,0.5,0,0.5,0,1",""
"","html-keyboard-response","350","235436","0.0-350.0","3F6HPJW4JEMBIRLA691HFBRUZH7W2I","A1BJFYHXK6YDX1","3T5ZXGO9DEAUILU6S56NLENRQJRQZJ","","null","<img src=""img/animal1.png"" style=""width:200px; border:14px solid green;"">","null","","","","","",""
"","image-keyboard-response","351","235889","0.0-351.0","3F6HPJW4JEMBIRLA691HFBRUZH7W2I","A1BJFYHXK6YDX1","3T5ZXGO9DEAUILU6S56NLENRQJRQZJ","","457.1000000014901","img/animal3.png","74","458.40000000596046","1","0","3","1,0.5,0,1,0.5,0,0.5,0,1",""
"","html-keyboard-response","352","236199","0.0-352.0","3F6HPJW4JEMBIRLA691HFBRUZH7W2I","A1BJFYHXK6YDX1","3T5ZXGO9DEAUILU6S56NLENRQJRQZJ","","null","<img src=""img/animal3.png"" style=""width:200px;border:14px solid red;"">","null","","","","","",""
"","image-keyboard-response","353","236565","0.0-353.0","3F6HPJW4JEMBIRLA691HFBRUZH7W2I","A1BJFYHXK6YDX1","3T5ZXGO9DEAUILU6S56NLENRQJRQZJ","","364.5","img/animal6.png","75","365.70000000298023","2","1","1","1,0.5,0,1,0.5,0,0.5,0,1",""
"","html-keyboard-response","354","236872","0.0-354.0","3F6HPJW4JEMBIRLA691HFBRUZH7W2I","A1BJFYHXK6YDX1","3T5ZXGO9DEAUILU6S56NLENRQJRQZJ","","null","<img src=""img/animal6.png"" style=""width:200px; border:14px solid green;"">","null","","","","","",""
"","image-keyboard-response","355","237431","0.0-355.0","3F6HPJW4JEMBIRLA691HFBRUZH7W2I","A1BJFYHXK6YDX1","3T5ZXGO9DEAUILU6S56NLENRQJRQZJ","","558","img/animal3.png","75","559.0999999940395","2","0","3","1,0.5,0,1,0.5,0,0.5,0,1",""
"","html-keyboard-response","356","237734","0.0-356.0","3F6HPJW4JEMBIRLA691HFBRUZH7W2I","A1BJFYHXK6YDX1","3T5ZXGO9DEAUILU6S56NLENRQJRQZJ","","null","<img src=""img/animal3.png"" style=""width:200px;border:14px solid red;"">","null","","","","","",""
"","image-keyboard-response","357","238330","0.0-357.0","3F6HPJW4JEMBIRLA691HFBRUZH7W2I","A1BJFYHXK6YDX1","3T5ZXGO9DEAUILU6S56NLENRQJRQZJ","","594.6000000014901","img/animal1.png","74","596","1","1","2","1,0.5,0,1,0.5,0,0.5,0,1",""
"","html-keyboard-response","358","238647","0.0-358.0","3F6HPJW4JEMBIRLA691HFBRUZH7W2I","A1BJFYHXK6YDX1","3T5ZXGO9DEAUILU6S56NLENRQJRQZJ","","null","<img src=""img/animal1.png"" style=""width:200px; border:14px solid green;"">","null","","","","","",""
"","image-keyboard-response","359","239127","0.0-359.0","3F6HPJW4JEMBIRLA691HFBRUZH7W2I","A1BJFYHXK6YDX1","3T5ZXGO9DEAUILU6S56NLENRQJRQZJ","","478.3999999985099","img/animal6.png","75","479.6000000014901","2","1","1","1,0.5,0,1,0.5,0,0.5,0,1",""
"","html-keyboard-response","360","239438","0.0-360.0","3F6HPJW4JEMBIRLA691HFBRUZH7W2I","A1BJFYHXK6YDX1","3T5ZXGO9DEAUILU6S56NLENRQJRQZJ","","null","<img src=""img/animal6.png"" style=""width:200px; border:14px solid green;"">","null","","","","","",""
"","image-keyboard-response","361","239885","0.0-361.0","3F6HPJW4JEMBIRLA691HFBRUZH7W2I","A1BJFYHXK6YDX1","3T5ZXGO9DEAUILU6S56NLENRQJRQZJ","","445.90000000596046","img/animal6.png","75","446.69999999552965","2","0","1","1,0.5,0,1,0.5,0,0.5,0,1",""
"","html-keyboard-response","362","240191","0.0-362.0","3F6HPJW4JEMBIRLA691HFBRUZH7W2I","A1BJFYHXK6YDX1","3T5ZXGO9DEAUILU6S56NLENRQJRQZJ","","null","<img src=""img/animal6.png"" style=""width:200px;border:14px solid red;"">","null","","","","","",""
"","instructions","363","246751","0.0-363.0","3F6HPJW4JEMBIRLA691HFBRUZH7W2I","A1BJFYHXK6YDX1","3T5ZXGO9DEAUILU6S56NLENRQJRQZJ","[{""page_index"":0,""viewing_time"":6559.0999999940395}]","6559.39999999851","","","","","","","",""
"","survey-text","364","250037","0.0-364.0","3F6HPJW4JEMBIRLA691HFBRUZH7W2I","A1BJFYHXK6YDX1","3T5ZXGO9DEAUILU6S56NLENRQJRQZJ","","3284.5","","","","","","","","{""Q0"":""A1BJFYHXK6YDX1""}"
