"success","trial_type","trial_index","time_elapsed","internal_node_id","assignmentID","mturkID","hitID","view_history","rt","stimulus","key_press","reactionTime","a","r","s","reward_cond","responses"
"true","fullscreen","0","5073","0.0-0.0","30BUDKLTXEH90OI63S99RCN6CNU5ED","A1CPY1HLCFTIL1","329E6HTMSWO7MPPIUTRHLR63CI0K3O","","","","","","","","","",""
"","instructions","1","45382","0.0-1.0","30BUDKLTXEH90OI63S99RCN6CNU5ED","A1CPY1HLCFTIL1","329E6HTMSWO7MPPIUTRHLR63CI0K3O","[{""page_index"":0,""viewing_time"":16031.59999999404},{""page_index"":1,""viewing_time"":1527.5},{""page_index"":2,""viewing_time"":760},{""page_index"":3,""viewing_time"":9560},{""page_index"":4,""viewing_time"":2831.9000000059605},{""page_index"":5,""viewing_time"":2343.9000000059605},{""page_index"":6,""viewing_time"":5096},{""page_index"":7,""viewing_time"":2152}]","40304","","","","","","","",""
"","image-keyboard-response","2","49593","0.0-2.0","30BUDKLTXEH90OI63S99RCN6CNU5ED","A1CPY1HLCFTIL1","329E6HTMSWO7MPPIUTRHLR63CI0K3O","","4207.5","img/animal6.png","74","4210.4000000059605","1","1","2","1,0.5,0,1,0.5,0,0.5,0,1",""
"","html-keyboard-response","3","49900","0.0-3.0","30BUDKLTXEH90OI63S99RCN6CNU5ED","A1CPY1HLCFTIL1","329E6HTMSWO7MPPIUTRHLR63CI0K3O","","null","<img src=""img/animal6.png"" style=""width:200px; border:14px solid green;"">","null","","","","","",""
"","image-keyboard-response","4","50585","0.0-4.0","30BUDKLTXEH90OI63S99RCN6CNU5ED","A1CPY1HLCFTIL1","329E6HTMSWO7MPPIUTRHLR63CI0K3O","","680.1999999880791","img/animal2.png","74","683.8000000119209","1","1","1","1,0.5,0,1,0.5,0,0.5,0,1",""
"","html-keyboard-response","5","50889","0.0-5.0","30BUDKLTXEH90OI63S99RCN6CNU5ED","A1CPY1HLCFTIL1","329E6HTMSWO7MPPIUTRHLR63CI0K3O","","null","<img src=""img/animal2.png"" style=""width:200px; border:14px solid green;"">","null","","","","","",""
"","image-keyboard-response","6","52052","0.0-6.0","30BUDKLTXEH90OI63S99RCN6CNU5ED","A1CPY1HLCFTIL1","329E6HTMSWO7MPPIUTRHLR63CI0K3O","","1160.300000011921","img/animal1.png","76","1162.4000000059605","3","1","3","1,0.5,0,1,0.5,0,0.5,0,1",""
"","html-keyboard-response","7","52355","0.0-7.0","30BUDKLTXEH90OI63S99RCN6CNU5ED","A1CPY1HLCFTIL1","329E6HTMSWO7MPPIUTRHLR63CI0K3O","","null","<img src=""img/animal1.png"" style=""width:200px; border:14px solid green;"">","null","","","","","",""
"","image-keyboard-response","8","53077","0.0-8.0","30BUDKLTXEH90OI63S99RCN6CNU5ED","A1CPY1HLCFTIL1","329E6HTMSWO7MPPIUTRHLR63CI0K3O","","720","img/animal2.png","74","722.3000000119209","1","1","1","1,0.5,0,1,0.5,0,0.5,0,1",""
"","html-keyboard-response","9","53383","0.0-9.0","30BUDKLTXEH90OI63S99RCN6CNU5ED","A1CPY1HLCFTIL1","329E6HTMSWO7MPPIUTRHLR63CI0K3O","","null","<img src=""img/animal2.png"" style=""width:200px; border:14px solid green;"">","null","","","","","",""
"","image-keyboard-response","10","54055","0.0-10.0","30BUDKLTXEH90OI63S99RCN6CNU5ED","A1CPY1HLCFTIL1","329E6HTMSWO7MPPIUTRHLR63CI0K3O","","668.5999999940395","img/animal1.png","76","671.5999999940395","3","1","3","1,0.5,0,1,0.5,0,0.5,0,1",""
"","html-keyboard-response","11","54360","0.0-11.0","30BUDKLTXEH90OI63S99RCN6CNU5ED","A1CPY1HLCFTIL1","329E6HTMSWO7MPPIUTRHLR63CI0K3O","","null","<img src=""img/animal1.png"" style=""width:200px; border:14px solid green;"">","null","","","","","",""
"","image-keyboard-response","12","55159","0.0-12.0","30BUDKLTXEH90OI63S99RCN6CNU5ED","A1CPY1HLCFTIL1","329E6HTMSWO7MPPIUTRHLR63CI0K3O","","795.4000000059605","img/animal1.png","76","798.1999999880791","3","1","3","1,0.5,0,1,0.5,0,0.5,0,1",""
"","html-keyboard-response","13","55462","0.0-13.0","30BUDKLTXEH90OI63S99RCN6CNU5ED","A1CPY1HLCFTIL1","329E6HTMSWO7MPPIUTRHLR63CI0K3O","","null","<img src=""img/animal1.png"" style=""width:200px; border:14px solid green;"">","null","","","","","",""
"","image-keyboard-response","14","56000","0.0-14.0","30BUDKLTXEH90OI63S99RCN6CNU5ED","A1CPY1HLCFTIL1","329E6HTMSWO7MPPIUTRHLR63CI0K3O","","534.4000000059605","img/animal1.png","76","536.6999999880791","3","1","3","1,0.5,0,1,0.5,0,0.5,0,1",""
"","html-keyboard-response","15","56304","0.0-15.0","30BUDKLTXEH90OI63S99RCN6CNU5ED","A1CPY1HLCFTIL1","329E6HTMSWO7MPPIUTRHLR63CI0K3O","","null","<img src=""img/animal1.png"" style=""width:200px; border:14px solid green;"">","null","","","","","",""
"","image-keyboard-response","16","56884","0.0-16.0","30BUDKLTXEH90OI63S99RCN6CNU5ED","A1CPY1HLCFTIL1","329E6HTMSWO7MPPIUTRHLR63CI0K3O","","577.2999999821186","img/animal6.png","74","580","1","1","2","1,0.5,0,1,0.5,0,0.5,0,1",""
"","html-keyboard-response","17","57188","0.0-17.0","30BUDKLTXEH90OI63S99RCN6CNU5ED","A1CPY1HLCFTIL1","329E6HTMSWO7MPPIUTRHLR63CI0K3O","","null","<img src=""img/animal6.png"" style=""width:200px; border:14px solid green;"">","null","","","","","",""
"","image-keyboard-response","18","57671","0.0-18.0","30BUDKLTXEH90OI63S99RCN6CNU5ED","A1CPY1HLCFTIL1","329E6HTMSWO7MPPIUTRHLR63CI0K3O","","480.80000001192093","img/animal6.png","74","483.30000001192093","1","1","2","1,0.5,0,1,0.5,0,0.5,0,1",""
"","html-keyboard-response","19","57976","0.0-19.0","30BUDKLTXEH90OI63S99RCN6CNU5ED","A1CPY1HLCFTIL1","329E6HTMSWO7MPPIUTRHLR63CI0K3O","","null","<img src=""img/animal6.png"" style=""width:200px; border:14px solid green;"">","null","","","","","",""
"","image-keyboard-response","20","58430","0.0-20.0","30BUDKLTXEH90OI63S99RCN6CNU5ED","A1CPY1HLCFTIL1","329E6HTMSWO7MPPIUTRHLR63CI0K3O","","451.09999999403954","img/animal1.png","76","453.7000000178814","3","1","3","1,0.5,0,1,0.5,0,0.5,0,1",""
"","html-keyboard-response","21","58734","0.0-21.0","30BUDKLTXEH90OI63S99RCN6CNU5ED","A1CPY1HLCFTIL1","329E6HTMSWO7MPPIUTRHLR63CI0K3O","","null","<img src=""img/animal1.png"" style=""width:200px; border:14px solid green;"">","null","","","","","",""
"","image-keyboard-response","22","59178","0.0-22.0","30BUDKLTXEH90OI63S99RCN6CNU5ED","A1CPY1HLCFTIL1","329E6HTMSWO7MPPIUTRHLR63CI0K3O","","440.80000001192093","img/animal1.png","76","443.2000000178814","3","1","3","1,0.5,0,1,0.5,0,0.5,0,1",""
"","html-keyboard-response","23","59483","0.0-23.0","30BUDKLTXEH90OI63S99RCN6CNU5ED","A1CPY1HLCFTIL1","329E6HTMSWO7MPPIUTRHLR63CI0K3O","","null","<img src=""img/animal1.png"" style=""width:200px; border:14px solid green;"">","null","","","","","",""
"","image-keyboard-response","24","59880","0.0-24.0","30BUDKLTXEH90OI63S99RCN6CNU5ED","A1CPY1HLCFTIL1","329E6HTMSWO7MPPIUTRHLR63CI0K3O","","395.90000000596046","img/animal1.png","76","397.2999999821186","3","1","3","1,0.5,0,1,0.5,0,0.5,0,1",""
"","html-keyboard-response","25","60185","0.0-25.0","30BUDKLTXEH90OI63S99RCN6CNU5ED","A1CPY1HLCFTIL1","329E6HTMSWO7MPPIUTRHLR63CI0K3O","","null","<img src=""img/animal1.png"" style=""width:200px; border:14px solid green;"">","null","","","","","",""
"","image-keyboard-response","26","60639","0.0-26.0","30BUDKLTXEH90OI63S99RCN6CNU5ED","A1CPY1HLCFTIL1","329E6HTMSWO7MPPIUTRHLR63CI0K3O","","451.69999998807907","img/animal2.png","74","454.2999999821186","1","1","1","1,0.5,0,1,0.5,0,0.5,0,1",""
"","html-keyboard-response","27","60944","0.0-27.0","30BUDKLTXEH90OI63S99RCN6CNU5ED","A1CPY1HLCFTIL1","329E6HTMSWO7MPPIUTRHLR63CI0K3O","","null","<img src=""img/animal2.png"" style=""width:200px; border:14px solid green;"">","null","","","","","",""
"","image-keyboard-response","28","61289","0.0-28.0","30BUDKLTXEH90OI63S99RCN6CNU5ED","A1CPY1HLCFTIL1","329E6HTMSWO7MPPIUTRHLR63CI0K3O","","342.80000001192093","img/animal2.png","74","345.19999998807907","1","1","1","1,0.5,0,1,0.5,0,0.5,0,1",""
"","html-keyboard-response","29","61592","0.0-29.0","30BUDKLTXEH90OI63S99RCN6CNU5ED","A1CPY1HLCFTIL1","329E6HTMSWO7MPPIUTRHLR63CI0K3O","","null","<img src=""img/animal2.png"" style=""width:200px; border:14px solid green;"">","null","","","","","",""
"","image-keyboard-response","30","62050","0.0-30.0","30BUDKLTXEH90OI63S99RCN6CNU5ED","A1CPY1HLCFTIL1","329E6HTMSWO7MPPIUTRHLR63CI0K3O","","456.40000000596046","img/animal2.png","74","458","1","1","1","1,0.5,0,1,0.5,0,0.5,0,1",""
"","html-keyboard-response","31","62354","0.0-31.0","30BUDKLTXEH90OI63S99RCN6CNU5ED","A1CPY1HLCFTIL1","329E6HTMSWO7MPPIUTRHLR63CI0K3O","","null","<img src=""img/animal2.png"" style=""width:200px; border:14px solid green;"">","null","","","","","",""
"","image-keyboard-response","32","63211","0.0-32.0","30BUDKLTXEH90OI63S99RCN6CNU5ED","A1CPY1HLCFTIL1","329E6HTMSWO7MPPIUTRHLR63CI0K3O","","853.5","img/animal6.png","74","856.1999999880791","1","1","2","1,0.5,0,1,0.5,0,0.5,0,1",""
"","html-keyboard-response","33","63514","0.0-33.0","30BUDKLTXEH90OI63S99RCN6CNU5ED","A1CPY1HLCFTIL1","329E6HTMSWO7MPPIUTRHLR63CI0K3O","","null","<img src=""img/animal6.png"" style=""width:200px; border:14px solid green;"">","null","","","","","",""
"","image-keyboard-response","34","64222","0.0-34.0","30BUDKLTXEH90OI63S99RCN6CNU5ED","A1CPY1HLCFTIL1","329E6HTMSWO7MPPIUTRHLR63CI0K3O","","705","img/animal2.png","74","707.5","1","1","1","1,0.5,0,1,0.5,0,0.5,0,1",""
"","html-keyboard-response","35","64526","0.0-35.0","30BUDKLTXEH90OI63S99RCN6CNU5ED","A1CPY1HLCFTIL1","329E6HTMSWO7MPPIUTRHLR63CI0K3O","","null","<img src=""img/animal2.png"" style=""width:200px; border:14px solid green;"">","null","","","","","",""
"","image-keyboard-response","36","64881","0.0-36.0","30BUDKLTXEH90OI63S99RCN6CNU5ED","A1CPY1HLCFTIL1","329E6HTMSWO7MPPIUTRHLR63CI0K3O","","351.7999999821186","img/animal2.png","74","354.09999999403954","1","1","1","1,0.5,0,1,0.5,0,0.5,0,1",""
"","html-keyboard-response","37","65184","0.0-37.0","30BUDKLTXEH90OI63S99RCN6CNU5ED","A1CPY1HLCFTIL1","329E6HTMSWO7MPPIUTRHLR63CI0K3O","","null","<img src=""img/animal2.png"" style=""width:200px; border:14px solid green;"">","null","","","","","",""
"","image-keyboard-response","38","65549","0.0-38.0","30BUDKLTXEH90OI63S99RCN6CNU5ED","A1CPY1HLCFTIL1","329E6HTMSWO7MPPIUTRHLR63CI0K3O","","360.90000000596046","img/animal2.png","74","363.59999999403954","1","1","1","1,0.5,0,1,0.5,0,0.5,0,1",""
"","html-keyboard-response","39","65853","0.0-39.0","30BUDKLTXEH90OI63S99RCN6CNU5ED","A1CPY1HLCFTIL1","329E6HTMSWO7MPPIUTRHLR63CI0K3O","","null","<img src=""img/animal2.png"" style=""width:200px; border:14px solid green;"">","null","","","","","",""
"","image-keyboard-response","40","66387","0.0-40.0","30BUDKLTXEH90OI63S99RCN6CNU5ED","A1CPY1HLCFTIL1","329E6HTMSWO7MPPIUTRHLR63CI0K3O","","531","img/animal1.png","76","533.4000000059605","3","1","3","1,0.5,0,1,0.5,0,0.5,0,1",""
"","html-keyboard-response","41","66692","0.0-41.0","30BUDKLTXEH90OI63S99RCN6CNU5ED","A1CPY1HLCFTIL1","329E6HTMSWO7MPPIUTRHLR63CI0K3O","","null","<img src=""img/animal1.png"" style=""width:200px; border:14px solid green;"">","null","","","","","",""
"","image-keyboard-response","42","67278","0.0-42.0","30BUDKLTXEH90OI63S99RCN6CNU5ED","A1CPY1HLCFTIL1","329E6HTMSWO7MPPIUTRHLR63CI0K3O","","582.5","img/animal6.png","74","585","1","1","2","1,0.5,0,1,0.5,0,0.5,0,1",""
"","html-keyboard-response","43","67582","0.0-43.0","30BUDKLTXEH90OI63S99RCN6CNU5ED","A1CPY1HLCFTIL1","329E6HTMSWO7MPPIUTRHLR63CI0K3O","","null","<img src=""img/animal6.png"" style=""width:200px; border:14px solid green;"">","null","","","","","",""
"","image-keyboard-response","44","68500","0.0-44.0","30BUDKLTXEH90OI63S99RCN6CNU5ED","A1CPY1HLCFTIL1","329E6HTMSWO7MPPIUTRHLR63CI0K3O","","915.8999999761581","img/animal2.png","74","918.3000000119209","1","1","1","1,0.5,0,1,0.5,0,0.5,0,1",""
"","html-keyboard-response","45","68804","0.0-45.0","30BUDKLTXEH90OI63S99RCN6CNU5ED","A1CPY1HLCFTIL1","329E6HTMSWO7MPPIUTRHLR63CI0K3O","","null","<img src=""img/animal2.png"" style=""width:200px; border:14px solid green;"">","null","","","","","",""
"","image-keyboard-response","46","69488","0.0-46.0","30BUDKLTXEH90OI63S99RCN6CNU5ED","A1CPY1HLCFTIL1","329E6HTMSWO7MPPIUTRHLR63CI0K3O","","680.4000000059605","img/animal2.png","74","682.6999999880791","1","1","1","1,0.5,0,1,0.5,0,0.5,0,1",""
"","html-keyboard-response","47","69792","0.0-47.0","30BUDKLTXEH90OI63S99RCN6CNU5ED","A1CPY1HLCFTIL1","329E6HTMSWO7MPPIUTRHLR63CI0K3O","","null","<img src=""img/animal2.png"" style=""width:200px; border:14px solid green;"">","null","","","","","",""
"","image-keyboard-response","48","70325","0.0-48.0","30BUDKLTXEH90OI63S99RCN6CNU5ED","A1CPY1HLCFTIL1","329E6HTMSWO7MPPIUTRHLR63CI0K3O","","529.9000000059605","img/animal2.png","74","532.6999999880791","1","1","1","1,0.5,0,1,0.5,0,0.5,0,1",""
"","html-keyboard-response","49","70629","0.0-49.0","30BUDKLTXEH90OI63S99RCN6CNU5ED","A1CPY1HLCFTIL1","329E6HTMSWO7MPPIUTRHLR63CI0K3O","","null","<img src=""img/animal2.png"" style=""width:200px; border:14px solid green;"">","null","","","","","",""
"","image-keyboard-response","50","71104","0.0-50.0","30BUDKLTXEH90OI63S99RCN6CNU5ED","A1CPY1HLCFTIL1","329E6HTMSWO7MPPIUTRHLR63CI0K3O","","471.19999998807907","img/animal6.png","74","474","1","1","2","1,0.5,0,1,0.5,0,0.5,0,1",""
"","html-keyboard-response","51","71407","0.0-51.0","30BUDKLTXEH90OI63S99RCN6CNU5ED","A1CPY1HLCFTIL1","329E6HTMSWO7MPPIUTRHLR63CI0K3O","","null","<img src=""img/animal6.png"" style=""width:200px; border:14px solid green;"">","null","","","","","",""
"","image-keyboard-response","52","71865","0.0-52.0","30BUDKLTXEH90OI63S99RCN6CNU5ED","A1CPY1HLCFTIL1","329E6HTMSWO7MPPIUTRHLR63CI0K3O","","454.7999999821186","img/animal6.png","74","457.19999998807907","1","1","2","1,0.5,0,1,0.5,0,0.5,0,1",""
"","html-keyboard-response","53","72170","0.0-53.0","30BUDKLTXEH90OI63S99RCN6CNU5ED","A1CPY1HLCFTIL1","329E6HTMSWO7MPPIUTRHLR63CI0K3O","","null","<img src=""img/animal6.png"" style=""width:200px; border:14px solid green;"">","null","","","","","",""
"","image-keyboard-response","54","72610","0.0-54.0","30BUDKLTXEH90OI63S99RCN6CNU5ED","A1CPY1HLCFTIL1","329E6HTMSWO7MPPIUTRHLR63CI0K3O","","437.40000000596046","img/animal6.png","74","439.90000000596046","1","1","2","1,0.5,0,1,0.5,0,0.5,0,1",""
"","html-keyboard-response","55","72915","0.0-55.0","30BUDKLTXEH90OI63S99RCN6CNU5ED","A1CPY1HLCFTIL1","329E6HTMSWO7MPPIUTRHLR63CI0K3O","","null","<img src=""img/animal6.png"" style=""width:200px; border:14px solid green;"">","null","","","","","",""
"","image-keyboard-response","56","73559","0.0-56.0","30BUDKLTXEH90OI63S99RCN6CNU5ED","A1CPY1HLCFTIL1","329E6HTMSWO7MPPIUTRHLR63CI0K3O","","641.3999999761581","img/animal1.png","76","644","3","1","3","1,0.5,0,1,0.5,0,0.5,0,1",""
"","html-keyboard-response","57","73863","0.0-57.0","30BUDKLTXEH90OI63S99RCN6CNU5ED","A1CPY1HLCFTIL1","329E6HTMSWO7MPPIUTRHLR63CI0K3O","","null","<img src=""img/animal1.png"" style=""width:200px; border:14px solid green;"">","null","","","","","",""
"","image-keyboard-response","58","74224","0.0-58.0","30BUDKLTXEH90OI63S99RCN6CNU5ED","A1CPY1HLCFTIL1","329E6HTMSWO7MPPIUTRHLR63CI0K3O","","358.59999999403954","img/animal1.png","76","360.5","3","1","3","1,0.5,0,1,0.5,0,0.5,0,1",""
"","html-keyboard-response","59","74526","0.0-59.0","30BUDKLTXEH90OI63S99RCN6CNU5ED","A1CPY1HLCFTIL1","329E6HTMSWO7MPPIUTRHLR63CI0K3O","","null","<img src=""img/animal1.png"" style=""width:200px; border:14px solid green;"">","null","","","","","",""
"","image-keyboard-response","60","75008","0.0-60.0","30BUDKLTXEH90OI63S99RCN6CNU5ED","A1CPY1HLCFTIL1","329E6HTMSWO7MPPIUTRHLR63CI0K3O","","478.90000000596046","img/animal6.png","74","481.2999999821186","1","1","2","1,0.5,0,1,0.5,0,0.5,0,1",""
"","html-keyboard-response","61","75312","0.0-61.0","30BUDKLTXEH90OI63S99RCN6CNU5ED","A1CPY1HLCFTIL1","329E6HTMSWO7MPPIUTRHLR63CI0K3O","","null","<img src=""img/animal6.png"" style=""width:200px; border:14px solid green;"">","null","","","","","",""
"","image-keyboard-response","62","76239","0.0-62.0","30BUDKLTXEH90OI63S99RCN6CNU5ED","A1CPY1HLCFTIL1","329E6HTMSWO7MPPIUTRHLR63CI0K3O","","924.9000000059605","img/animal1.png","76","926.4000000059605","3","1","3","1,0.5,0,1,0.5,0,0.5,0,1",""
"","html-keyboard-response","63","76544","0.0-63.0","30BUDKLTXEH90OI63S99RCN6CNU5ED","A1CPY1HLCFTIL1","329E6HTMSWO7MPPIUTRHLR63CI0K3O","","null","<img src=""img/animal1.png"" style=""width:200px; border:14px solid green;"">","null","","","","","",""
"","image-keyboard-response","64","77030","0.0-64.0","30BUDKLTXEH90OI63S99RCN6CNU5ED","A1CPY1HLCFTIL1","329E6HTMSWO7MPPIUTRHLR63CI0K3O","","483.60000002384186","img/animal6.png","74","486.09999999403954","1","1","2","1,0.5,0,1,0.5,0,0.5,0,1",""
"","html-keyboard-response","65","77334","0.0-65.0","30BUDKLTXEH90OI63S99RCN6CNU5ED","A1CPY1HLCFTIL1","329E6HTMSWO7MPPIUTRHLR63CI0K3O","","null","<img src=""img/animal6.png"" style=""width:200px; border:14px solid green;"">","null","","","","","",""
"","image-keyboard-response","66","77960","0.0-66.0","30BUDKLTXEH90OI63S99RCN6CNU5ED","A1CPY1HLCFTIL1","329E6HTMSWO7MPPIUTRHLR63CI0K3O","","623.1999999880791","img/animal2.png","74","625.5","1","1","1","1,0.5,0,1,0.5,0,0.5,0,1",""
"","html-keyboard-response","67","78264","0.0-67.0","30BUDKLTXEH90OI63S99RCN6CNU5ED","A1CPY1HLCFTIL1","329E6HTMSWO7MPPIUTRHLR63CI0K3O","","null","<img src=""img/animal2.png"" style=""width:200px; border:14px solid green;"">","null","","","","","",""
"","image-keyboard-response","68","78821","0.0-68.0","30BUDKLTXEH90OI63S99RCN6CNU5ED","A1CPY1HLCFTIL1","329E6HTMSWO7MPPIUTRHLR63CI0K3O","","553.6999999880791","img/animal6.png","74","556.1999999880791","1","1","2","1,0.5,0,1,0.5,0,0.5,0,1",""
"","html-keyboard-response","69","79125","0.0-69.0","30BUDKLTXEH90OI63S99RCN6CNU5ED","A1CPY1HLCFTIL1","329E6HTMSWO7MPPIUTRHLR63CI0K3O","","null","<img src=""img/animal6.png"" style=""width:200px; border:14px solid green;"">","null","","","","","",""
"","image-keyboard-response","70","79536","0.0-70.0","30BUDKLTXEH90OI63S99RCN6CNU5ED","A1CPY1HLCFTIL1","329E6HTMSWO7MPPIUTRHLR63CI0K3O","","409","img/animal6.png","74","410.90000000596046","1","1","2","1,0.5,0,1,0.5,0,0.5,0,1",""
"","html-keyboard-response","71","79839","0.0-71.0","30BUDKLTXEH90OI63S99RCN6CNU5ED","A1CPY1HLCFTIL1","329E6HTMSWO7MPPIUTRHLR63CI0K3O","","null","<img src=""img/animal6.png"" style=""width:200px; border:14px solid green;"">","null","","","","","",""
"","image-keyboard-response","72","80206","0.0-72.0","30BUDKLTXEH90OI63S99RCN6CNU5ED","A1CPY1HLCFTIL1","329E6HTMSWO7MPPIUTRHLR63CI0K3O","","364.7000000178814","img/animal6.png","74","367.10000002384186","1","1","2","1,0.5,0,1,0.5,0,0.5,0,1",""
"","html-keyboard-response","73","80510","0.0-73.0","30BUDKLTXEH90OI63S99RCN6CNU5ED","A1CPY1HLCFTIL1","329E6HTMSWO7MPPIUTRHLR63CI0K3O","","null","<img src=""img/animal6.png"" style=""width:200px; border:14px solid green;"">","null","","","","","",""
"","image-keyboard-response","74","81038","0.0-74.0","30BUDKLTXEH90OI63S99RCN6CNU5ED","A1CPY1HLCFTIL1","329E6HTMSWO7MPPIUTRHLR63CI0K3O","","525.8000000119209","img/animal1.png","76","527.5","3","1","3","1,0.5,0,1,0.5,0,0.5,0,1",""
"","html-keyboard-response","75","81341","0.0-75.0","30BUDKLTXEH90OI63S99RCN6CNU5ED","A1CPY1HLCFTIL1","329E6HTMSWO7MPPIUTRHLR63CI0K3O","","null","<img src=""img/animal1.png"" style=""width:200px; border:14px solid green;"">","null","","","","","",""
"","image-keyboard-response","76","81723","0.0-76.0","30BUDKLTXEH90OI63S99RCN6CNU5ED","A1CPY1HLCFTIL1","329E6HTMSWO7MPPIUTRHLR63CI0K3O","","376.40000000596046","img/animal1.png","76","381","3","1","3","1,0.5,0,1,0.5,0,0.5,0,1",""
"","html-keyboard-response","77","82026","0.0-77.0","30BUDKLTXEH90OI63S99RCN6CNU5ED","A1CPY1HLCFTIL1","329E6HTMSWO7MPPIUTRHLR63CI0K3O","","null","<img src=""img/animal1.png"" style=""width:200px; border:14px solid green;"">","null","","","","","",""
"","image-keyboard-response","78","82505","0.0-78.0","30BUDKLTXEH90OI63S99RCN6CNU5ED","A1CPY1HLCFTIL1","329E6HTMSWO7MPPIUTRHLR63CI0K3O","","475.69999998807907","img/animal2.png","74","478","1","1","1","1,0.5,0,1,0.5,0,0.5,0,1",""
"","html-keyboard-response","79","82809","0.0-79.0","30BUDKLTXEH90OI63S99RCN6CNU5ED","A1CPY1HLCFTIL1","329E6HTMSWO7MPPIUTRHLR63CI0K3O","","null","<img src=""img/animal2.png"" style=""width:200px; border:14px solid green;"">","null","","","","","",""
"","image-keyboard-response","80","83466","0.0-80.0","30BUDKLTXEH90OI63S99RCN6CNU5ED","A1CPY1HLCFTIL1","329E6HTMSWO7MPPIUTRHLR63CI0K3O","","654.6000000238419","img/animal1.png","76","657.1000000238419","3","1","3","1,0.5,0,1,0.5,0,0.5,0,1",""
"","html-keyboard-response","81","83770","0.0-81.0","30BUDKLTXEH90OI63S99RCN6CNU5ED","A1CPY1HLCFTIL1","329E6HTMSWO7MPPIUTRHLR63CI0K3O","","null","<img src=""img/animal1.png"" style=""width:200px; border:14px solid green;"">","null","","","","","",""
"","image-keyboard-response","82","84233","0.0-82.0","30BUDKLTXEH90OI63S99RCN6CNU5ED","A1CPY1HLCFTIL1","329E6HTMSWO7MPPIUTRHLR63CI0K3O","","460.7999999821186","img/animal2.png","74","462.40000000596046","1","1","1","1,0.5,0,1,0.5,0,0.5,0,1",""
"","html-keyboard-response","83","84536","0.0-83.0","30BUDKLTXEH90OI63S99RCN6CNU5ED","A1CPY1HLCFTIL1","329E6HTMSWO7MPPIUTRHLR63CI0K3O","","null","<img src=""img/animal2.png"" style=""width:200px; border:14px solid green;"">","null","","","","","",""
"","image-keyboard-response","84","85066","0.0-84.0","30BUDKLTXEH90OI63S99RCN6CNU5ED","A1CPY1HLCFTIL1","329E6HTMSWO7MPPIUTRHLR63CI0K3O","","526","img/animal2.png","74","528.9000000059605","1","1","1","1,0.5,0,1,0.5,0,0.5,0,1",""
"","html-keyboard-response","85","85370","0.0-85.0","30BUDKLTXEH90OI63S99RCN6CNU5ED","A1CPY1HLCFTIL1","329E6HTMSWO7MPPIUTRHLR63CI0K3O","","null","<img src=""img/animal2.png"" style=""width:200px; border:14px solid green;"">","null","","","","","",""
"","image-keyboard-response","86","86808","0.0-86.0","30BUDKLTXEH90OI63S99RCN6CNU5ED","A1CPY1HLCFTIL1","329E6HTMSWO7MPPIUTRHLR63CI0K3O","","1435.2000000178814","img/animal1.png","76","1437.699999988079","3","1","3","1,0.5,0,1,0.5,0,0.5,0,1",""
"","html-keyboard-response","87","87112","0.0-87.0","30BUDKLTXEH90OI63S99RCN6CNU5ED","A1CPY1HLCFTIL1","329E6HTMSWO7MPPIUTRHLR63CI0K3O","","null","<img src=""img/animal1.png"" style=""width:200px; border:14px solid green;"">","null","","","","","",""
"","image-keyboard-response","88","87619","0.0-88.0","30BUDKLTXEH90OI63S99RCN6CNU5ED","A1CPY1HLCFTIL1","329E6HTMSWO7MPPIUTRHLR63CI0K3O","","502.89999997615814","img/animal6.png","74","505.80000001192093","1","1","2","1,0.5,0,1,0.5,0,0.5,0,1",""
"","html-keyboard-response","89","87924","0.0-89.0","30BUDKLTXEH90OI63S99RCN6CNU5ED","A1CPY1HLCFTIL1","329E6HTMSWO7MPPIUTRHLR63CI0K3O","","null","<img src=""img/animal6.png"" style=""width:200px; border:14px solid green;"">","null","","","","","",""
"","image-keyboard-response","90","88577","0.0-90.0","30BUDKLTXEH90OI63S99RCN6CNU5ED","A1CPY1HLCFTIL1","329E6HTMSWO7MPPIUTRHLR63CI0K3O","","649.9000000059605","img/animal2.png","74","652.7000000178814","1","1","1","1,0.5,0,1,0.5,0,0.5,0,1",""
"","html-keyboard-response","91","88881","0.0-91.0","30BUDKLTXEH90OI63S99RCN6CNU5ED","A1CPY1HLCFTIL1","329E6HTMSWO7MPPIUTRHLR63CI0K3O","","null","<img src=""img/animal2.png"" style=""width:200px; border:14px solid green;"">","null","","","","","",""
"","image-keyboard-response","92","89354","0.0-92.0","30BUDKLTXEH90OI63S99RCN6CNU5ED","A1CPY1HLCFTIL1","329E6HTMSWO7MPPIUTRHLR63CI0K3O","","470.09999999403954","img/animal1.png","76","472.59999999403954","3","1","3","1,0.5,0,1,0.5,0,0.5,0,1",""
"","html-keyboard-response","93","89658","0.0-93.0","30BUDKLTXEH90OI63S99RCN6CNU5ED","A1CPY1HLCFTIL1","329E6HTMSWO7MPPIUTRHLR63CI0K3O","","null","<img src=""img/animal1.png"" style=""width:200px; border:14px solid green;"">","null","","","","","",""
"","image-keyboard-response","94","90244","0.0-94.0","30BUDKLTXEH90OI63S99RCN6CNU5ED","A1CPY1HLCFTIL1","329E6HTMSWO7MPPIUTRHLR63CI0K3O","","582.7999999821186","img/animal6.png","74","585","1","1","2","1,0.5,0,1,0.5,0,0.5,0,1",""
"","html-keyboard-response","95","90547","0.0-95.0","30BUDKLTXEH90OI63S99RCN6CNU5ED","A1CPY1HLCFTIL1","329E6HTMSWO7MPPIUTRHLR63CI0K3O","","null","<img src=""img/animal6.png"" style=""width:200px; border:14px solid green;"">","null","","","","","",""
"","image-keyboard-response","96","91003","0.0-96.0","30BUDKLTXEH90OI63S99RCN6CNU5ED","A1CPY1HLCFTIL1","329E6HTMSWO7MPPIUTRHLR63CI0K3O","","453.09999999403954","img/animal2.png","74","455.7000000178814","1","1","1","1,0.5,0,1,0.5,0,0.5,0,1",""
"","html-keyboard-response","97","91307","0.0-97.0","30BUDKLTXEH90OI63S99RCN6CNU5ED","A1CPY1HLCFTIL1","329E6HTMSWO7MPPIUTRHLR63CI0K3O","","null","<img src=""img/animal2.png"" style=""width:200px; border:14px solid green;"">","null","","","","","",""
"","image-keyboard-response","98","91702","0.0-98.0","30BUDKLTXEH90OI63S99RCN6CNU5ED","A1CPY1HLCFTIL1","329E6HTMSWO7MPPIUTRHLR63CI0K3O","","392.30000001192093","img/animal2.png","74","394.90000000596046","1","1","1","1,0.5,0,1,0.5,0,0.5,0,1",""
"","html-keyboard-response","99","92005","0.0-99.0","30BUDKLTXEH90OI63S99RCN6CNU5ED","A1CPY1HLCFTIL1","329E6HTMSWO7MPPIUTRHLR63CI0K3O","","null","<img src=""img/animal2.png"" style=""width:200px; border:14px solid green;"">","null","","","","","",""
"","image-keyboard-response","100","92522","0.0-100.0","30BUDKLTXEH90OI63S99RCN6CNU5ED","A1CPY1HLCFTIL1","329E6HTMSWO7MPPIUTRHLR63CI0K3O","","511.40000000596046","img/animal6.png","74","513.6999999880791","1","1","2","1,0.5,0,1,0.5,0,0.5,0,1",""
"","html-keyboard-response","101","92826","0.0-101.0","30BUDKLTXEH90OI63S99RCN6CNU5ED","A1CPY1HLCFTIL1","329E6HTMSWO7MPPIUTRHLR63CI0K3O","","null","<img src=""img/animal6.png"" style=""width:200px; border:14px solid green;"">","null","","","","","",""
"","image-keyboard-response","102","93372","0.0-102.0","30BUDKLTXEH90OI63S99RCN6CNU5ED","A1CPY1HLCFTIL1","329E6HTMSWO7MPPIUTRHLR63CI0K3O","","543.1000000238419","img/animal6.png","74","545.5","1","1","2","1,0.5,0,1,0.5,0,0.5,0,1",""
"","html-keyboard-response","103","93676","0.0-103.0","30BUDKLTXEH90OI63S99RCN6CNU5ED","A1CPY1HLCFTIL1","329E6HTMSWO7MPPIUTRHLR63CI0K3O","","null","<img src=""img/animal6.png"" style=""width:200px; border:14px solid green;"">","null","","","","","",""
"","image-keyboard-response","104","94097","0.0-104.0","30BUDKLTXEH90OI63S99RCN6CNU5ED","A1CPY1HLCFTIL1","329E6HTMSWO7MPPIUTRHLR63CI0K3O","","418.19999998807907","img/animal6.png","74","420.69999998807907","1","1","2","1,0.5,0,1,0.5,0,0.5,0,1",""
"","html-keyboard-response","105","94401","0.0-105.0","30BUDKLTXEH90OI63S99RCN6CNU5ED","A1CPY1HLCFTIL1","329E6HTMSWO7MPPIUTRHLR63CI0K3O","","null","<img src=""img/animal6.png"" style=""width:200px; border:14px solid green;"">","null","","","","","",""
"","image-keyboard-response","106","94846","0.0-106.0","30BUDKLTXEH90OI63S99RCN6CNU5ED","A1CPY1HLCFTIL1","329E6HTMSWO7MPPIUTRHLR63CI0K3O","","442","img/animal1.png","76","445.2000000178814","3","1","3","1,0.5,0,1,0.5,0,0.5,0,1",""
"","html-keyboard-response","107","95150","0.0-107.0","30BUDKLTXEH90OI63S99RCN6CNU5ED","A1CPY1HLCFTIL1","329E6HTMSWO7MPPIUTRHLR63CI0K3O","","null","<img src=""img/animal1.png"" style=""width:200px; border:14px solid green;"">","null","","","","","",""
"","image-keyboard-response","108","95704","0.0-108.0","30BUDKLTXEH90OI63S99RCN6CNU5ED","A1CPY1HLCFTIL1","329E6HTMSWO7MPPIUTRHLR63CI0K3O","","550.5999999940395","img/animal1.png","76","553","3","1","3","1,0.5,0,1,0.5,0,0.5,0,1",""
"","html-keyboard-response","109","96008","0.0-109.0","30BUDKLTXEH90OI63S99RCN6CNU5ED","A1CPY1HLCFTIL1","329E6HTMSWO7MPPIUTRHLR63CI0K3O","","null","<img src=""img/animal1.png"" style=""width:200px; border:14px solid green;"">","null","","","","","",""
"","image-keyboard-response","110","96410","0.0-110.0","30BUDKLTXEH90OI63S99RCN6CNU5ED","A1CPY1HLCFTIL1","329E6HTMSWO7MPPIUTRHLR63CI0K3O","","399","img/animal1.png","76","401.10000002384186","3","1","3","1,0.5,0,1,0.5,0,0.5,0,1",""
"","html-keyboard-response","111","96712","0.0-111.0","30BUDKLTXEH90OI63S99RCN6CNU5ED","A1CPY1HLCFTIL1","329E6HTMSWO7MPPIUTRHLR63CI0K3O","","null","<img src=""img/animal1.png"" style=""width:200px; border:14px solid green;"">","null","","","","","",""
"","image-keyboard-response","112","97168","0.0-112.0","30BUDKLTXEH90OI63S99RCN6CNU5ED","A1CPY1HLCFTIL1","329E6HTMSWO7MPPIUTRHLR63CI0K3O","","452.5","img/animal1.png","76","455","3","1","3","1,0.5,0,1,0.5,0,0.5,0,1",""
"","html-keyboard-response","113","97472","0.0-113.0","30BUDKLTXEH90OI63S99RCN6CNU5ED","A1CPY1HLCFTIL1","329E6HTMSWO7MPPIUTRHLR63CI0K3O","","null","<img src=""img/animal1.png"" style=""width:200px; border:14px solid green;"">","null","","","","","",""
"","image-keyboard-response","114","97918","0.0-114.0","30BUDKLTXEH90OI63S99RCN6CNU5ED","A1CPY1HLCFTIL1","329E6HTMSWO7MPPIUTRHLR63CI0K3O","","442.30000001192093","img/animal1.png","76","445.2000000178814","3","1","3","1,0.5,0,1,0.5,0,0.5,0,1",""
"","html-keyboard-response","115","98221","0.0-115.0","30BUDKLTXEH90OI63S99RCN6CNU5ED","A1CPY1HLCFTIL1","329E6HTMSWO7MPPIUTRHLR63CI0K3O","","null","<img src=""img/animal1.png"" style=""width:200px; border:14px solid green;"">","null","","","","","",""
"","image-keyboard-response","116","98666","0.0-116.0","30BUDKLTXEH90OI63S99RCN6CNU5ED","A1CPY1HLCFTIL1","329E6HTMSWO7MPPIUTRHLR63CI0K3O","","442.59999999403954","img/animal6.png","74","444.7999999821186","1","1","2","1,0.5,0,1,0.5,0,0.5,0,1",""
"","html-keyboard-response","117","98971","0.0-117.0","30BUDKLTXEH90OI63S99RCN6CNU5ED","A1CPY1HLCFTIL1","329E6HTMSWO7MPPIUTRHLR63CI0K3O","","null","<img src=""img/animal6.png"" style=""width:200px; border:14px solid green;"">","null","","","","","",""
"","image-keyboard-response","118","99426","0.0-118.0","30BUDKLTXEH90OI63S99RCN6CNU5ED","A1CPY1HLCFTIL1","329E6HTMSWO7MPPIUTRHLR63CI0K3O","","451.90000000596046","img/animal2.png","74","454.7999999821186","1","1","1","1,0.5,0,1,0.5,0,0.5,0,1",""
"","html-keyboard-response","119","99730","0.0-119.0","30BUDKLTXEH90OI63S99RCN6CNU5ED","A1CPY1HLCFTIL1","329E6HTMSWO7MPPIUTRHLR63CI0K3O","","null","<img src=""img/animal2.png"" style=""width:200px; border:14px solid green;"">","null","","","","","",""
"","image-keyboard-response","120","100174","0.0-120.0","30BUDKLTXEH90OI63S99RCN6CNU5ED","A1CPY1HLCFTIL1","329E6HTMSWO7MPPIUTRHLR63CI0K3O","","441.40000000596046","img/animal1.png","76","443.69999998807907","3","1","3","1,0.5,0,1,0.5,0,0.5,0,1",""
"","html-keyboard-response","121","100477","0.0-121.0","30BUDKLTXEH90OI63S99RCN6CNU5ED","A1CPY1HLCFTIL1","329E6HTMSWO7MPPIUTRHLR63CI0K3O","","null","<img src=""img/animal1.png"" style=""width:200px; border:14px solid green;"">","null","","","","","",""
"","image-keyboard-response","122","100996","0.0-122.0","30BUDKLTXEH90OI63S99RCN6CNU5ED","A1CPY1HLCFTIL1","329E6HTMSWO7MPPIUTRHLR63CI0K3O","","516.4000000059605","img/animal1.png","76","518.8999999761581","3","1","3","1,0.5,0,1,0.5,0,0.5,0,1",""
"","html-keyboard-response","123","101300","0.0-123.0","30BUDKLTXEH90OI63S99RCN6CNU5ED","A1CPY1HLCFTIL1","329E6HTMSWO7MPPIUTRHLR63CI0K3O","","null","<img src=""img/animal1.png"" style=""width:200px; border:14px solid green;"">","null","","","","","",""
"","image-keyboard-response","124","101732","0.0-124.0","30BUDKLTXEH90OI63S99RCN6CNU5ED","A1CPY1HLCFTIL1","329E6HTMSWO7MPPIUTRHLR63CI0K3O","","429.2000000178814","img/animal1.png","76","431.69999998807907","3","1","3","1,0.5,0,1,0.5,0,0.5,0,1",""
"","html-keyboard-response","125","102036","0.0-125.0","30BUDKLTXEH90OI63S99RCN6CNU5ED","A1CPY1HLCFTIL1","329E6HTMSWO7MPPIUTRHLR63CI0K3O","","null","<img src=""img/animal1.png"" style=""width:200px; border:14px solid green;"">","null","","","","","",""
"","image-keyboard-response","126","102443","0.0-126.0","30BUDKLTXEH90OI63S99RCN6CNU5ED","A1CPY1HLCFTIL1","329E6HTMSWO7MPPIUTRHLR63CI0K3O","","404","img/animal6.png","74","406.5","1","1","2","1,0.5,0,1,0.5,0,0.5,0,1",""
"","html-keyboard-response","127","102746","0.0-127.0","30BUDKLTXEH90OI63S99RCN6CNU5ED","A1CPY1HLCFTIL1","329E6HTMSWO7MPPIUTRHLR63CI0K3O","","null","<img src=""img/animal6.png"" style=""width:200px; border:14px solid green;"">","null","","","","","",""
"","image-keyboard-response","128","103119","0.0-128.0","30BUDKLTXEH90OI63S99RCN6CNU5ED","A1CPY1HLCFTIL1","329E6HTMSWO7MPPIUTRHLR63CI0K3O","","369.80000001192093","img/animal2.png","74","372.30000001192093","1","1","1","1,0.5,0,1,0.5,0,0.5,0,1",""
"","html-keyboard-response","129","103423","0.0-129.0","30BUDKLTXEH90OI63S99RCN6CNU5ED","A1CPY1HLCFTIL1","329E6HTMSWO7MPPIUTRHLR63CI0K3O","","null","<img src=""img/animal2.png"" style=""width:200px; border:14px solid green;"">","null","","","","","",""
"","image-keyboard-response","130","104068","0.0-130.0","30BUDKLTXEH90OI63S99RCN6CNU5ED","A1CPY1HLCFTIL1","329E6HTMSWO7MPPIUTRHLR63CI0K3O","","642.3000000119209","img/animal1.png","76","644.9000000059605","3","1","3","1,0.5,0,1,0.5,0,0.5,0,1",""
"","html-keyboard-response","131","104372","0.0-131.0","30BUDKLTXEH90OI63S99RCN6CNU5ED","A1CPY1HLCFTIL1","329E6HTMSWO7MPPIUTRHLR63CI0K3O","","null","<img src=""img/animal1.png"" style=""width:200px; border:14px solid green;"">","null","","","","","",""
"","image-keyboard-response","132","104992","0.0-132.0","30BUDKLTXEH90OI63S99RCN6CNU5ED","A1CPY1HLCFTIL1","329E6HTMSWO7MPPIUTRHLR63CI0K3O","","618.3999999761581","img/animal6.png","74","620.4000000059605","1","1","2","1,0.5,0,1,0.5,0,0.5,0,1",""
"","html-keyboard-response","133","105294","0.0-133.0","30BUDKLTXEH90OI63S99RCN6CNU5ED","A1CPY1HLCFTIL1","329E6HTMSWO7MPPIUTRHLR63CI0K3O","","null","<img src=""img/animal6.png"" style=""width:200px; border:14px solid green;"">","null","","","","","",""
"","image-keyboard-response","134","105935","0.0-134.0","30BUDKLTXEH90OI63S99RCN6CNU5ED","A1CPY1HLCFTIL1","329E6HTMSWO7MPPIUTRHLR63CI0K3O","","637","img/animal1.png","76","639.8000000119209","3","1","3","1,0.5,0,1,0.5,0,0.5,0,1",""
"","html-keyboard-response","135","106239","0.0-135.0","30BUDKLTXEH90OI63S99RCN6CNU5ED","A1CPY1HLCFTIL1","329E6HTMSWO7MPPIUTRHLR63CI0K3O","","null","<img src=""img/animal1.png"" style=""width:200px; border:14px solid green;"">","null","","","","","",""
"","image-keyboard-response","136","106629","0.0-136.0","30BUDKLTXEH90OI63S99RCN6CNU5ED","A1CPY1HLCFTIL1","329E6HTMSWO7MPPIUTRHLR63CI0K3O","","387.5","img/animal1.png","76","390.19999998807907","3","1","3","1,0.5,0,1,0.5,0,0.5,0,1",""
"","html-keyboard-response","137","106933","0.0-137.0","30BUDKLTXEH90OI63S99RCN6CNU5ED","A1CPY1HLCFTIL1","329E6HTMSWO7MPPIUTRHLR63CI0K3O","","null","<img src=""img/animal1.png"" style=""width:200px; border:14px solid green;"">","null","","","","","",""
"","image-keyboard-response","138","107363","0.0-138.0","30BUDKLTXEH90OI63S99RCN6CNU5ED","A1CPY1HLCFTIL1","329E6HTMSWO7MPPIUTRHLR63CI0K3O","","426.40000000596046","img/animal6.png","74","428.90000000596046","1","1","2","1,0.5,0,1,0.5,0,0.5,0,1",""
"","html-keyboard-response","139","107666","0.0-139.0","30BUDKLTXEH90OI63S99RCN6CNU5ED","A1CPY1HLCFTIL1","329E6HTMSWO7MPPIUTRHLR63CI0K3O","","null","<img src=""img/animal6.png"" style=""width:200px; border:14px solid green;"">","null","","","","","",""
"","image-keyboard-response","140","108108","0.0-140.0","30BUDKLTXEH90OI63S99RCN6CNU5ED","A1CPY1HLCFTIL1","329E6HTMSWO7MPPIUTRHLR63CI0K3O","","439","img/animal6.png","74","441.69999998807907","1","1","2","1,0.5,0,1,0.5,0,0.5,0,1",""
"","html-keyboard-response","141","108413","0.0-141.0","30BUDKLTXEH90OI63S99RCN6CNU5ED","A1CPY1HLCFTIL1","329E6HTMSWO7MPPIUTRHLR63CI0K3O","","null","<img src=""img/animal6.png"" style=""width:200px; border:14px solid green;"">","null","","","","","",""
"","image-keyboard-response","142","108867","0.0-142.0","30BUDKLTXEH90OI63S99RCN6CNU5ED","A1CPY1HLCFTIL1","329E6HTMSWO7MPPIUTRHLR63CI0K3O","","451.5","img/animal6.png","74","454.09999999403954","1","1","2","1,0.5,0,1,0.5,0,0.5,0,1",""
"","html-keyboard-response","143","109172","0.0-143.0","30BUDKLTXEH90OI63S99RCN6CNU5ED","A1CPY1HLCFTIL1","329E6HTMSWO7MPPIUTRHLR63CI0K3O","","null","<img src=""img/animal6.png"" style=""width:200px; border:14px solid green;"">","null","","","","","",""
"","image-keyboard-response","144","109685","0.0-144.0","30BUDKLTXEH90OI63S99RCN6CNU5ED","A1CPY1HLCFTIL1","329E6HTMSWO7MPPIUTRHLR63CI0K3O","","509.59999999403954","img/animal2.png","74","512.3999999761581","1","1","1","1,0.5,0,1,0.5,0,0.5,0,1",""
"","html-keyboard-response","145","109989","0.0-145.0","30BUDKLTXEH90OI63S99RCN6CNU5ED","A1CPY1HLCFTIL1","329E6HTMSWO7MPPIUTRHLR63CI0K3O","","null","<img src=""img/animal2.png"" style=""width:200px; border:14px solid green;"">","null","","","","","",""
"","image-keyboard-response","146","110595","0.0-146.0","30BUDKLTXEH90OI63S99RCN6CNU5ED","A1CPY1HLCFTIL1","329E6HTMSWO7MPPIUTRHLR63CI0K3O","","602.6999999880791","img/animal1.png","76","605.3000000119209","3","1","3","1,0.5,0,1,0.5,0,0.5,0,1",""
"","html-keyboard-response","147","110898","0.0-147.0","30BUDKLTXEH90OI63S99RCN6CNU5ED","A1CPY1HLCFTIL1","329E6HTMSWO7MPPIUTRHLR63CI0K3O","","null","<img src=""img/animal1.png"" style=""width:200px; border:14px solid green;"">","null","","","","","",""
"","image-keyboard-response","148","111551","0.0-148.0","30BUDKLTXEH90OI63S99RCN6CNU5ED","A1CPY1HLCFTIL1","329E6HTMSWO7MPPIUTRHLR63CI0K3O","","649.8999999761581","img/animal2.png","74","652.2999999821186","1","1","1","1,0.5,0,1,0.5,0,0.5,0,1",""
"","html-keyboard-response","149","111855","0.0-149.0","30BUDKLTXEH90OI63S99RCN6CNU5ED","A1CPY1HLCFTIL1","329E6HTMSWO7MPPIUTRHLR63CI0K3O","","null","<img src=""img/animal2.png"" style=""width:200px; border:14px solid green;"">","null","","","","","",""
"","image-keyboard-response","150","112402","0.0-150.0","30BUDKLTXEH90OI63S99RCN6CNU5ED","A1CPY1HLCFTIL1","329E6HTMSWO7MPPIUTRHLR63CI0K3O","","544.4000000059605","img/animal6.png","74","546.5999999940395","1","1","2","1,0.5,0,1,0.5,0,0.5,0,1",""
"","html-keyboard-response","151","112706","0.0-151.0","30BUDKLTXEH90OI63S99RCN6CNU5ED","A1CPY1HLCFTIL1","329E6HTMSWO7MPPIUTRHLR63CI0K3O","","null","<img src=""img/animal6.png"" style=""width:200px; border:14px solid green;"">","null","","","","","",""
"","image-keyboard-response","152","113178","0.0-152.0","30BUDKLTXEH90OI63S99RCN6CNU5ED","A1CPY1HLCFTIL1","329E6HTMSWO7MPPIUTRHLR63CI0K3O","","468.90000000596046","img/animal6.png","74","471.39999997615814","1","1","2","1,0.5,0,1,0.5,0,0.5,0,1",""
"","html-keyboard-response","153","113480","0.0-153.0","30BUDKLTXEH90OI63S99RCN6CNU5ED","A1CPY1HLCFTIL1","329E6HTMSWO7MPPIUTRHLR63CI0K3O","","null","<img src=""img/animal6.png"" style=""width:200px; border:14px solid green;"">","null","","","","","",""
"","image-keyboard-response","154","113937","0.0-154.0","30BUDKLTXEH90OI63S99RCN6CNU5ED","A1CPY1HLCFTIL1","329E6HTMSWO7MPPIUTRHLR63CI0K3O","","455.5","img/animal2.png","74","457","1","1","1","1,0.5,0,1,0.5,0,0.5,0,1",""
"","html-keyboard-response","155","114247","0.0-155.0","30BUDKLTXEH90OI63S99RCN6CNU5ED","A1CPY1HLCFTIL1","329E6HTMSWO7MPPIUTRHLR63CI0K3O","","null","<img src=""img/animal2.png"" style=""width:200px; border:14px solid green;"">","null","","","","","",""
"","image-keyboard-response","156","114765","0.0-156.0","30BUDKLTXEH90OI63S99RCN6CNU5ED","A1CPY1HLCFTIL1","329E6HTMSWO7MPPIUTRHLR63CI0K3O","","515.5","img/animal2.png","74","517.9000000059605","1","1","1","1,0.5,0,1,0.5,0,0.5,0,1",""
"","html-keyboard-response","157","115068","0.0-157.0","30BUDKLTXEH90OI63S99RCN6CNU5ED","A1CPY1HLCFTIL1","329E6HTMSWO7MPPIUTRHLR63CI0K3O","","null","<img src=""img/animal2.png"" style=""width:200px; border:14px solid green;"">","null","","","","","",""
"","image-keyboard-response","158","115682","0.0-158.0","30BUDKLTXEH90OI63S99RCN6CNU5ED","A1CPY1HLCFTIL1","329E6HTMSWO7MPPIUTRHLR63CI0K3O","","610.7000000178814","img/animal6.png","74","613.4000000059605","1","1","2","1,0.5,0,1,0.5,0,0.5,0,1",""
"","html-keyboard-response","159","115986","0.0-159.0","30BUDKLTXEH90OI63S99RCN6CNU5ED","A1CPY1HLCFTIL1","329E6HTMSWO7MPPIUTRHLR63CI0K3O","","null","<img src=""img/animal6.png"" style=""width:200px; border:14px solid green;"">","null","","","","","",""
"","image-keyboard-response","160","116381","0.0-160.0","30BUDKLTXEH90OI63S99RCN6CNU5ED","A1CPY1HLCFTIL1","329E6HTMSWO7MPPIUTRHLR63CI0K3O","","392.5","img/animal6.png","74","395","1","1","2","1,0.5,0,1,0.5,0,0.5,0,1",""
"","html-keyboard-response","161","116685","0.0-161.0","30BUDKLTXEH90OI63S99RCN6CNU5ED","A1CPY1HLCFTIL1","329E6HTMSWO7MPPIUTRHLR63CI0K3O","","null","<img src=""img/animal6.png"" style=""width:200px; border:14px solid green;"">","null","","","","","",""
"","image-keyboard-response","162","117168","0.0-162.0","30BUDKLTXEH90OI63S99RCN6CNU5ED","A1CPY1HLCFTIL1","329E6HTMSWO7MPPIUTRHLR63CI0K3O","","481.5","img/animal2.png","74","483.2000000178814","1","1","1","1,0.5,0,1,0.5,0,0.5,0,1",""
"","html-keyboard-response","163","117473","0.0-163.0","30BUDKLTXEH90OI63S99RCN6CNU5ED","A1CPY1HLCFTIL1","329E6HTMSWO7MPPIUTRHLR63CI0K3O","","null","<img src=""img/animal2.png"" style=""width:200px; border:14px solid green;"">","null","","","","","",""
"","image-keyboard-response","164","117871","0.0-164.0","30BUDKLTXEH90OI63S99RCN6CNU5ED","A1CPY1HLCFTIL1","329E6HTMSWO7MPPIUTRHLR63CI0K3O","","394.40000000596046","img/animal2.png","74","397","1","1","1","1,0.5,0,1,0.5,0,0.5,0,1",""
"","html-keyboard-response","165","118174","0.0-165.0","30BUDKLTXEH90OI63S99RCN6CNU5ED","A1CPY1HLCFTIL1","329E6HTMSWO7MPPIUTRHLR63CI0K3O","","null","<img src=""img/animal2.png"" style=""width:200px; border:14px solid green;"">","null","","","","","",""
"","image-keyboard-response","166","118568","0.0-166.0","30BUDKLTXEH90OI63S99RCN6CNU5ED","A1CPY1HLCFTIL1","329E6HTMSWO7MPPIUTRHLR63CI0K3O","","390.5","img/animal2.png","74","393.09999999403954","1","1","1","1,0.5,0,1,0.5,0,0.5,0,1",""
"","html-keyboard-response","167","118872","0.0-167.0","30BUDKLTXEH90OI63S99RCN6CNU5ED","A1CPY1HLCFTIL1","329E6HTMSWO7MPPIUTRHLR63CI0K3O","","null","<img src=""img/animal2.png"" style=""width:200px; border:14px solid green;"">","null","","","","","",""
"","image-keyboard-response","168","119377","0.0-168.0","30BUDKLTXEH90OI63S99RCN6CNU5ED","A1CPY1HLCFTIL1","329E6HTMSWO7MPPIUTRHLR63CI0K3O","","502.09999999403954","img/animal1.png","76","504.69999998807907","3","1","3","1,0.5,0,1,0.5,0,0.5,0,1",""
"","html-keyboard-response","169","119681","0.0-169.0","30BUDKLTXEH90OI63S99RCN6CNU5ED","A1CPY1HLCFTIL1","329E6HTMSWO7MPPIUTRHLR63CI0K3O","","null","<img src=""img/animal1.png"" style=""width:200px; border:14px solid green;"">","null","","","","","",""
"","image-keyboard-response","170","120215","0.0-170.0","30BUDKLTXEH90OI63S99RCN6CNU5ED","A1CPY1HLCFTIL1","329E6HTMSWO7MPPIUTRHLR63CI0K3O","","531.3000000119209","img/animal1.png","76","533.6999999880791","3","1","3","1,0.5,0,1,0.5,0,0.5,0,1",""
"","html-keyboard-response","171","120519","0.0-171.0","30BUDKLTXEH90OI63S99RCN6CNU5ED","A1CPY1HLCFTIL1","329E6HTMSWO7MPPIUTRHLR63CI0K3O","","null","<img src=""img/animal1.png"" style=""width:200px; border:14px solid green;"">","null","","","","","",""
"","image-keyboard-response","172","121037","0.0-172.0","30BUDKLTXEH90OI63S99RCN6CNU5ED","A1CPY1HLCFTIL1","329E6HTMSWO7MPPIUTRHLR63CI0K3O","","513.4000000059605","img/animal2.png","74","516.7000000178814","1","1","1","1,0.5,0,1,0.5,0,0.5,0,1",""
"","html-keyboard-response","173","121341","0.0-173.0","30BUDKLTXEH90OI63S99RCN6CNU5ED","A1CPY1HLCFTIL1","329E6HTMSWO7MPPIUTRHLR63CI0K3O","","null","<img src=""img/animal2.png"" style=""width:200px; border:14px solid green;"">","null","","","","","",""
"","image-keyboard-response","174","121799","0.0-174.0","30BUDKLTXEH90OI63S99RCN6CNU5ED","A1CPY1HLCFTIL1","329E6HTMSWO7MPPIUTRHLR63CI0K3O","","454.40000000596046","img/animal6.png","74","456.90000000596046","1","1","2","1,0.5,0,1,0.5,0,0.5,0,1",""
"","html-keyboard-response","175","122103","0.0-175.0","30BUDKLTXEH90OI63S99RCN6CNU5ED","A1CPY1HLCFTIL1","329E6HTMSWO7MPPIUTRHLR63CI0K3O","","null","<img src=""img/animal6.png"" style=""width:200px; border:14px solid green;"">","null","","","","","",""
"","image-keyboard-response","176","122579","0.0-176.0","30BUDKLTXEH90OI63S99RCN6CNU5ED","A1CPY1HLCFTIL1","329E6HTMSWO7MPPIUTRHLR63CI0K3O","","472.59999999403954","img/animal2.png","74","475.40000000596046","1","1","1","1,0.5,0,1,0.5,0,0.5,0,1",""
"","html-keyboard-response","177","122883","0.0-177.0","30BUDKLTXEH90OI63S99RCN6CNU5ED","A1CPY1HLCFTIL1","329E6HTMSWO7MPPIUTRHLR63CI0K3O","","null","<img src=""img/animal2.png"" style=""width:200px; border:14px solid green;"">","null","","","","","",""
"","image-keyboard-response","178","123328","0.0-178.0","30BUDKLTXEH90OI63S99RCN6CNU5ED","A1CPY1HLCFTIL1","329E6HTMSWO7MPPIUTRHLR63CI0K3O","","441.19999998807907","img/animal2.png","74","443.90000000596046","1","1","1","1,0.5,0,1,0.5,0,0.5,0,1",""
"","html-keyboard-response","179","123631","0.0-179.0","30BUDKLTXEH90OI63S99RCN6CNU5ED","A1CPY1HLCFTIL1","329E6HTMSWO7MPPIUTRHLR63CI0K3O","","null","<img src=""img/animal2.png"" style=""width:200px; border:14px solid green;"">","null","","","","","",""
"","image-keyboard-response","180","124103","0.0-180.0","30BUDKLTXEH90OI63S99RCN6CNU5ED","A1CPY1HLCFTIL1","329E6HTMSWO7MPPIUTRHLR63CI0K3O","","469.10000002384186","img/animal6.png","74","471","1","1","2","1,0.5,0,1,0.5,0,0.5,0,1",""
"","html-keyboard-response","181","124405","0.0-181.0","30BUDKLTXEH90OI63S99RCN6CNU5ED","A1CPY1HLCFTIL1","329E6HTMSWO7MPPIUTRHLR63CI0K3O","","null","<img src=""img/animal6.png"" style=""width:200px; border:14px solid green;"">","null","","","","","",""
"","html-keyboard-response","182","129315","0.0-182.0","30BUDKLTXEH90OI63S99RCN6CNU5ED","A1CPY1HLCFTIL1","329E6HTMSWO7MPPIUTRHLR63CI0K3O","","","","","","","","","",""
"","image-keyboard-response","183","132569","0.0-183.0","30BUDKLTXEH90OI63S99RCN6CNU5ED","A1CPY1HLCFTIL1","329E6HTMSWO7MPPIUTRHLR63CI0K3O","","3250.5","img/animal3.png","74","3252.0999999940395","1","0","2","1,0.5,0,0,1,0.5,0.5,0,1",""
"","html-keyboard-response","184","132871","0.0-184.0","30BUDKLTXEH90OI63S99RCN6CNU5ED","A1CPY1HLCFTIL1","329E6HTMSWO7MPPIUTRHLR63CI0K3O","","null","<img src=""img/animal3.png"" style=""width:200px;border:14px solid red;"">","null","","","","","",""
"","image-keyboard-response","185","134440","0.0-185.0","30BUDKLTXEH90OI63S99RCN6CNU5ED","A1CPY1HLCFTIL1","329E6HTMSWO7MPPIUTRHLR63CI0K3O","","1565.4000000059605","img/animal5.png","75","1568.800000011921","2","0","3","1,0.5,0,0,1,0.5,0.5,0,1",""
"","html-keyboard-response","186","134745","0.0-186.0","30BUDKLTXEH90OI63S99RCN6CNU5ED","A1CPY1HLCFTIL1","329E6HTMSWO7MPPIUTRHLR63CI0K3O","","null","<img src=""img/animal5.png"" style=""width:200px;border:14px solid red;"">","null","","","","","",""
"","image-keyboard-response","187","135265","0.0-187.0","30BUDKLTXEH90OI63S99RCN6CNU5ED","A1CPY1HLCFTIL1","329E6HTMSWO7MPPIUTRHLR63CI0K3O","","516","img/animal5.png","74","518.9000000059605","1","1","3","1,0.5,0,0,1,0.5,0.5,0,1",""
"","html-keyboard-response","188","135570","0.0-188.0","30BUDKLTXEH90OI63S99RCN6CNU5ED","A1CPY1HLCFTIL1","329E6HTMSWO7MPPIUTRHLR63CI0K3O","","null","<img src=""img/animal5.png"" style=""width:200px; border:14px solid green;"">","null","","","","","",""
"","image-keyboard-response","189","136652","0.0-189.0","30BUDKLTXEH90OI63S99RCN6CNU5ED","A1CPY1HLCFTIL1","329E6HTMSWO7MPPIUTRHLR63CI0K3O","","1078.699999988079","img/animal3.png","76","1081.4000000059605","3","1","2","1,0.5,0,0,1,0.5,0.5,0,1",""
"","html-keyboard-response","190","136956","0.0-190.0","30BUDKLTXEH90OI63S99RCN6CNU5ED","A1CPY1HLCFTIL1","329E6HTMSWO7MPPIUTRHLR63CI0K3O","","null","<img src=""img/animal3.png"" style=""width:200px; border:14px solid green;"">","null","","","","","",""
"","image-keyboard-response","191","137803","0.0-191.0","30BUDKLTXEH90OI63S99RCN6CNU5ED","A1CPY1HLCFTIL1","329E6HTMSWO7MPPIUTRHLR63CI0K3O","","844.8000000119209","img/animal5.png","74","847","1","0","3","1,0.5,0,0,1,0.5,0.5,0,1",""
"","html-keyboard-response","192","138107","0.0-192.0","30BUDKLTXEH90OI63S99RCN6CNU5ED","A1CPY1HLCFTIL1","329E6HTMSWO7MPPIUTRHLR63CI0K3O","","null","<img src=""img/animal5.png"" style=""width:200px;border:14px solid red;"">","null","","","","","",""
"","image-keyboard-response","193","138984","0.0-193.0","30BUDKLTXEH90OI63S99RCN6CNU5ED","A1CPY1HLCFTIL1","329E6HTMSWO7MPPIUTRHLR63CI0K3O","","874.5","img/animal4.png","76","877.0999999940395","3","0","1","1,0.5,0,0,1,0.5,0.5,0,1",""
"","html-keyboard-response","194","139288","0.0-194.0","30BUDKLTXEH90OI63S99RCN6CNU5ED","A1CPY1HLCFTIL1","329E6HTMSWO7MPPIUTRHLR63CI0K3O","","null","<img src=""img/animal4.png"" style=""width:200px;border:14px solid red;"">","null","","","","","",""
"","image-keyboard-response","195","140065","0.0-195.0","30BUDKLTXEH90OI63S99RCN6CNU5ED","A1CPY1HLCFTIL1","329E6HTMSWO7MPPIUTRHLR63CI0K3O","","773.3000000119209","img/animal3.png","74","776.1999999880791","1","0","2","1,0.5,0,0,1,0.5,0.5,0,1",""
"","html-keyboard-response","196","140369","0.0-196.0","30BUDKLTXEH90OI63S99RCN6CNU5ED","A1CPY1HLCFTIL1","329E6HTMSWO7MPPIUTRHLR63CI0K3O","","null","<img src=""img/animal3.png"" style=""width:200px;border:14px solid red;"">","null","","","","","",""
"","image-keyboard-response","197","142541","0.0-197.0","30BUDKLTXEH90OI63S99RCN6CNU5ED","A1CPY1HLCFTIL1","329E6HTMSWO7MPPIUTRHLR63CI0K3O","","2169.4000000059605","img/animal3.png","75","2172.100000023842","2","1","2","1,0.5,0,0,1,0.5,0.5,0,1",""
"","html-keyboard-response","198","142845","0.0-198.0","30BUDKLTXEH90OI63S99RCN6CNU5ED","A1CPY1HLCFTIL1","329E6HTMSWO7MPPIUTRHLR63CI0K3O","","null","<img src=""img/animal3.png"" style=""width:200px; border:14px solid green;"">","null","","","","","",""
"","image-keyboard-response","199","143973","0.0-199.0","30BUDKLTXEH90OI63S99RCN6CNU5ED","A1CPY1HLCFTIL1","329E6HTMSWO7MPPIUTRHLR63CI0K3O","","1124.0999999940395","img/animal5.png","76","1126.7999999821186","3","1","3","1,0.5,0,0,1,0.5,0.5,0,1",""
"","html-keyboard-response","200","144277","0.0-200.0","30BUDKLTXEH90OI63S99RCN6CNU5ED","A1CPY1HLCFTIL1","329E6HTMSWO7MPPIUTRHLR63CI0K3O","","null","<img src=""img/animal5.png"" style=""width:200px; border:14px solid green;"">","null","","","","","",""
"","image-keyboard-response","201","145328","0.0-201.0","30BUDKLTXEH90OI63S99RCN6CNU5ED","A1CPY1HLCFTIL1","329E6HTMSWO7MPPIUTRHLR63CI0K3O","","1048.4000000059605","img/animal3.png","75","1051.0999999940395","2","1","2","1,0.5,0,0,1,0.5,0.5,0,1",""
"","html-keyboard-response","202","145633","0.0-202.0","30BUDKLTXEH90OI63S99RCN6CNU5ED","A1CPY1HLCFTIL1","329E6HTMSWO7MPPIUTRHLR63CI0K3O","","null","<img src=""img/animal3.png"" style=""width:200px; border:14px solid green;"">","null","","","","","",""
"","image-keyboard-response","203","146570","0.0-203.0","30BUDKLTXEH90OI63S99RCN6CNU5ED","A1CPY1HLCFTIL1","329E6HTMSWO7MPPIUTRHLR63CI0K3O","","935.5","img/animal4.png","74","937.7000000178814","1","1","1","1,0.5,0,0,1,0.5,0.5,0,1",""
"","html-keyboard-response","204","146875","0.0-204.0","30BUDKLTXEH90OI63S99RCN6CNU5ED","A1CPY1HLCFTIL1","329E6HTMSWO7MPPIUTRHLR63CI0K3O","","null","<img src=""img/animal4.png"" style=""width:200px; border:14px solid green;"">","null","","","","","",""
"","image-keyboard-response","205","147805","0.0-205.0","30BUDKLTXEH90OI63S99RCN6CNU5ED","A1CPY1HLCFTIL1","329E6HTMSWO7MPPIUTRHLR63CI0K3O","","926.0999999940395","img/animal3.png","75","929.0999999940395","2","1","2","1,0.5,0,0,1,0.5,0.5,0,1",""
"","html-keyboard-response","206","148109","0.0-206.0","30BUDKLTXEH90OI63S99RCN6CNU5ED","A1CPY1HLCFTIL1","329E6HTMSWO7MPPIUTRHLR63CI0K3O","","null","<img src=""img/animal3.png"" style=""width:200px; border:14px solid green;"">","null","","","","","",""
"","image-keyboard-response","207","148968","0.0-207.0","30BUDKLTXEH90OI63S99RCN6CNU5ED","A1CPY1HLCFTIL1","329E6HTMSWO7MPPIUTRHLR63CI0K3O","","854.9000000059605","img/animal5.png","76","858","3","1","3","1,0.5,0,0,1,0.5,0.5,0,1",""
"","html-keyboard-response","208","149272","0.0-208.0","30BUDKLTXEH90OI63S99RCN6CNU5ED","A1CPY1HLCFTIL1","329E6HTMSWO7MPPIUTRHLR63CI0K3O","","null","<img src=""img/animal5.png"" style=""width:200px; border:14px solid green;"">","null","","","","","",""
"","image-keyboard-response","209","149967","0.0-209.0","30BUDKLTXEH90OI63S99RCN6CNU5ED","A1CPY1HLCFTIL1","329E6HTMSWO7MPPIUTRHLR63CI0K3O","","691.8000000119209","img/animal4.png","75","694.4000000059605","2","1","1","1,0.5,0,0,1,0.5,0.5,0,1",""
"","html-keyboard-response","210","150281","0.0-210.0","30BUDKLTXEH90OI63S99RCN6CNU5ED","A1CPY1HLCFTIL1","329E6HTMSWO7MPPIUTRHLR63CI0K3O","","null","<img src=""img/animal4.png"" style=""width:200px; border:14px solid green;"">","null","","","","","",""
"","image-keyboard-response","211","150929","0.0-211.0","30BUDKLTXEH90OI63S99RCN6CNU5ED","A1CPY1HLCFTIL1","329E6HTMSWO7MPPIUTRHLR63CI0K3O","","644.7000000178814","img/animal5.png","75","647.3000000119209","2","0","3","1,0.5,0,0,1,0.5,0.5,0,1",""
"","html-keyboard-response","212","151233","0.0-212.0","30BUDKLTXEH90OI63S99RCN6CNU5ED","A1CPY1HLCFTIL1","329E6HTMSWO7MPPIUTRHLR63CI0K3O","","null","<img src=""img/animal5.png"" style=""width:200px;border:14px solid red;"">","null","","","","","",""
"","image-keyboard-response","213","151970","0.0-213.0","30BUDKLTXEH90OI63S99RCN6CNU5ED","A1CPY1HLCFTIL1","329E6HTMSWO7MPPIUTRHLR63CI0K3O","","734.0999999940395","img/animal3.png","74","736.7000000178814","1","0","2","1,0.5,0,0,1,0.5,0.5,0,1",""
"","html-keyboard-response","214","152274","0.0-214.0","30BUDKLTXEH90OI63S99RCN6CNU5ED","A1CPY1HLCFTIL1","329E6HTMSWO7MPPIUTRHLR63CI0K3O","","null","<img src=""img/animal3.png"" style=""width:200px;border:14px solid red;"">","null","","","","","",""
"","image-keyboard-response","215","153069","0.0-215.0","30BUDKLTXEH90OI63S99RCN6CNU5ED","A1CPY1HLCFTIL1","329E6HTMSWO7MPPIUTRHLR63CI0K3O","","792.1999999880791","img/animal5.png","75","794.9000000059605","2","0","3","1,0.5,0,0,1,0.5,0.5,0,1",""
"","html-keyboard-response","216","153374","0.0-216.0","30BUDKLTXEH90OI63S99RCN6CNU5ED","A1CPY1HLCFTIL1","329E6HTMSWO7MPPIUTRHLR63CI0K3O","","null","<img src=""img/animal5.png"" style=""width:200px;border:14px solid red;"">","null","","","","","",""
"","image-keyboard-response","217","154511","0.0-217.0","30BUDKLTXEH90OI63S99RCN6CNU5ED","A1CPY1HLCFTIL1","329E6HTMSWO7MPPIUTRHLR63CI0K3O","","1133.4000000059605","img/animal3.png","75","1135.9000000059605","2","1","2","1,0.5,0,0,1,0.5,0.5,0,1",""
"","html-keyboard-response","218","154814","0.0-218.0","30BUDKLTXEH90OI63S99RCN6CNU5ED","A1CPY1HLCFTIL1","329E6HTMSWO7MPPIUTRHLR63CI0K3O","","null","<img src=""img/animal3.png"" style=""width:200px; border:14px solid green;"">","null","","","","","",""
"","image-keyboard-response","219","155554","0.0-219.0","30BUDKLTXEH90OI63S99RCN6CNU5ED","A1CPY1HLCFTIL1","329E6HTMSWO7MPPIUTRHLR63CI0K3O","","738.0999999940395","img/animal4.png","74","739.9000000059605","1","1","1","1,0.5,0,0,1,0.5,0.5,0,1",""
"","html-keyboard-response","220","155858","0.0-220.0","30BUDKLTXEH90OI63S99RCN6CNU5ED","A1CPY1HLCFTIL1","329E6HTMSWO7MPPIUTRHLR63CI0K3O","","null","<img src=""img/animal4.png"" style=""width:200px; border:14px solid green;"">","null","","","","","",""
"","image-keyboard-response","221","156556","0.0-221.0","30BUDKLTXEH90OI63S99RCN6CNU5ED","A1CPY1HLCFTIL1","329E6HTMSWO7MPPIUTRHLR63CI0K3O","","695.4000000059605","img/animal5.png","76","697.0999999940395","3","1","3","1,0.5,0,0,1,0.5,0.5,0,1",""
"","html-keyboard-response","222","156870","0.0-222.0","30BUDKLTXEH90OI63S99RCN6CNU5ED","A1CPY1HLCFTIL1","329E6HTMSWO7MPPIUTRHLR63CI0K3O","","null","<img src=""img/animal5.png"" style=""width:200px; border:14px solid green;"">","null","","","","","",""
"","image-keyboard-response","223","158432","0.0-223.0","30BUDKLTXEH90OI63S99RCN6CNU5ED","A1CPY1HLCFTIL1","329E6HTMSWO7MPPIUTRHLR63CI0K3O","","1558.699999988079","img/animal4.png","74","1562.2999999821186","1","1","1","1,0.5,0,0,1,0.5,0.5,0,1",""
"","html-keyboard-response","224","158738","0.0-224.0","30BUDKLTXEH90OI63S99RCN6CNU5ED","A1CPY1HLCFTIL1","329E6HTMSWO7MPPIUTRHLR63CI0K3O","","null","<img src=""img/animal4.png"" style=""width:200px; border:14px solid green;"">","null","","","","","",""
"","image-keyboard-response","225","159362","0.0-225.0","30BUDKLTXEH90OI63S99RCN6CNU5ED","A1CPY1HLCFTIL1","329E6HTMSWO7MPPIUTRHLR63CI0K3O","","621","img/animal4.png","74","623.5","1","1","1","1,0.5,0,0,1,0.5,0.5,0,1",""
"","html-keyboard-response","226","159665","0.0-226.0","30BUDKLTXEH90OI63S99RCN6CNU5ED","A1CPY1HLCFTIL1","329E6HTMSWO7MPPIUTRHLR63CI0K3O","","null","<img src=""img/animal4.png"" style=""width:200px; border:14px solid green;"">","null","","","","","",""
"","image-keyboard-response","227","160393","0.0-227.0","30BUDKLTXEH90OI63S99RCN6CNU5ED","A1CPY1HLCFTIL1","329E6HTMSWO7MPPIUTRHLR63CI0K3O","","724.4000000059605","img/animal3.png","75","726.9000000059605","2","1","2","1,0.5,0,0,1,0.5,0.5,0,1",""
"","html-keyboard-response","228","160697","0.0-228.0","30BUDKLTXEH90OI63S99RCN6CNU5ED","A1CPY1HLCFTIL1","329E6HTMSWO7MPPIUTRHLR63CI0K3O","","null","<img src=""img/animal3.png"" style=""width:200px; border:14px solid green;"">","null","","","","","",""
"","image-keyboard-response","229","161283","0.0-229.0","30BUDKLTXEH90OI63S99RCN6CNU5ED","A1CPY1HLCFTIL1","329E6HTMSWO7MPPIUTRHLR63CI0K3O","","583.6999999880791","img/animal4.png","75","585.9000000059605","2","1","1","1,0.5,0,0,1,0.5,0.5,0,1",""
"","html-keyboard-response","230","161588","0.0-230.0","30BUDKLTXEH90OI63S99RCN6CNU5ED","A1CPY1HLCFTIL1","329E6HTMSWO7MPPIUTRHLR63CI0K3O","","null","<img src=""img/animal4.png"" style=""width:200px; border:14px solid green;"">","null","","","","","",""
"","image-keyboard-response","231","163812","0.0-231.0","30BUDKLTXEH90OI63S99RCN6CNU5ED","A1CPY1HLCFTIL1","329E6HTMSWO7MPPIUTRHLR63CI0K3O","","2220.5","img/animal5.png","76","2223.5","3","1","3","1,0.5,0,0,1,0.5,0.5,0,1",""
"","html-keyboard-response","232","164117","0.0-232.0","30BUDKLTXEH90OI63S99RCN6CNU5ED","A1CPY1HLCFTIL1","329E6HTMSWO7MPPIUTRHLR63CI0K3O","","null","<img src=""img/animal5.png"" style=""width:200px; border:14px solid green;"">","null","","","","","",""
"","image-keyboard-response","233","164534","0.0-233.0","30BUDKLTXEH90OI63S99RCN6CNU5ED","A1CPY1HLCFTIL1","329E6HTMSWO7MPPIUTRHLR63CI0K3O","","413.5","img/animal5.png","76","416.89999997615814","3","1","3","1,0.5,0,0,1,0.5,0.5,0,1",""
"","html-keyboard-response","234","164839","0.0-234.0","30BUDKLTXEH90OI63S99RCN6CNU5ED","A1CPY1HLCFTIL1","329E6HTMSWO7MPPIUTRHLR63CI0K3O","","null","<img src=""img/animal5.png"" style=""width:200px; border:14px solid green;"">","null","","","","","",""
"","image-keyboard-response","235","165553","0.0-235.0","30BUDKLTXEH90OI63S99RCN6CNU5ED","A1CPY1HLCFTIL1","329E6HTMSWO7MPPIUTRHLR63CI0K3O","","711.2999999821186","img/animal4.png","74","713.6999999880791","1","1","1","1,0.5,0,0,1,0.5,0.5,0,1",""
"","html-keyboard-response","236","165859","0.0-236.0","30BUDKLTXEH90OI63S99RCN6CNU5ED","A1CPY1HLCFTIL1","329E6HTMSWO7MPPIUTRHLR63CI0K3O","","null","<img src=""img/animal4.png"" style=""width:200px; border:14px solid green;"">","null","","","","","",""
"","image-keyboard-response","237","166536","0.0-237.0","30BUDKLTXEH90OI63S99RCN6CNU5ED","A1CPY1HLCFTIL1","329E6HTMSWO7MPPIUTRHLR63CI0K3O","","673.8999999761581","img/animal4.png","74","676.8999999761581","1","1","1","1,0.5,0,0,1,0.5,0.5,0,1",""
"","html-keyboard-response","238","166840","0.0-238.0","30BUDKLTXEH90OI63S99RCN6CNU5ED","A1CPY1HLCFTIL1","329E6HTMSWO7MPPIUTRHLR63CI0K3O","","null","<img src=""img/animal4.png"" style=""width:200px; border:14px solid green;"">","null","","","","","",""
"","image-keyboard-response","239","167349","0.0-239.0","30BUDKLTXEH90OI63S99RCN6CNU5ED","A1CPY1HLCFTIL1","329E6HTMSWO7MPPIUTRHLR63CI0K3O","","505.60000002384186","img/animal4.png","74","508.39999997615814","1","1","1","1,0.5,0,0,1,0.5,0.5,0,1",""
"","html-keyboard-response","240","167653","0.0-240.0","30BUDKLTXEH90OI63S99RCN6CNU5ED","A1CPY1HLCFTIL1","329E6HTMSWO7MPPIUTRHLR63CI0K3O","","null","<img src=""img/animal4.png"" style=""width:200px; border:14px solid green;"">","null","","","","","",""
"","image-keyboard-response","241","168136","0.0-241.0","30BUDKLTXEH90OI63S99RCN6CNU5ED","A1CPY1HLCFTIL1","329E6HTMSWO7MPPIUTRHLR63CI0K3O","","479.69999998807907","img/animal3.png","75","482.2000000178814","2","1","2","1,0.5,0,0,1,0.5,0.5,0,1",""
"","html-keyboard-response","242","168439","0.0-242.0","30BUDKLTXEH90OI63S99RCN6CNU5ED","A1CPY1HLCFTIL1","329E6HTMSWO7MPPIUTRHLR63CI0K3O","","null","<img src=""img/animal3.png"" style=""width:200px; border:14px solid green;"">","null","","","","","",""
"","image-keyboard-response","243","169106","0.0-243.0","30BUDKLTXEH90OI63S99RCN6CNU5ED","A1CPY1HLCFTIL1","329E6HTMSWO7MPPIUTRHLR63CI0K3O","","663.5999999940395","img/animal5.png","76","665.9000000059605","3","1","3","1,0.5,0,0,1,0.5,0.5,0,1",""
"","html-keyboard-response","244","169410","0.0-244.0","30BUDKLTXEH90OI63S99RCN6CNU5ED","A1CPY1HLCFTIL1","329E6HTMSWO7MPPIUTRHLR63CI0K3O","","null","<img src=""img/animal5.png"" style=""width:200px; border:14px solid green;"">","null","","","","","",""
"","image-keyboard-response","245","170058","0.0-245.0","30BUDKLTXEH90OI63S99RCN6CNU5ED","A1CPY1HLCFTIL1","329E6HTMSWO7MPPIUTRHLR63CI0K3O","","645.2000000178814","img/animal3.png","74","647.5999999940395","1","0","2","1,0.5,0,0,1,0.5,0.5,0,1",""
"","html-keyboard-response","246","170361","0.0-246.0","30BUDKLTXEH90OI63S99RCN6CNU5ED","A1CPY1HLCFTIL1","329E6HTMSWO7MPPIUTRHLR63CI0K3O","","null","<img src=""img/animal3.png"" style=""width:200px;border:14px solid red;"">","null","","","","","",""
"","image-keyboard-response","247","171242","0.0-247.0","30BUDKLTXEH90OI63S99RCN6CNU5ED","A1CPY1HLCFTIL1","329E6HTMSWO7MPPIUTRHLR63CI0K3O","","877.4000000059605","img/animal5.png","76","880.5","3","1","3","1,0.5,0,0,1,0.5,0.5,0,1",""
"","html-keyboard-response","248","171546","0.0-248.0","30BUDKLTXEH90OI63S99RCN6CNU5ED","A1CPY1HLCFTIL1","329E6HTMSWO7MPPIUTRHLR63CI0K3O","","null","<img src=""img/animal5.png"" style=""width:200px; border:14px solid green;"">","null","","","","","",""
"","image-keyboard-response","249","172232","0.0-249.0","30BUDKLTXEH90OI63S99RCN6CNU5ED","A1CPY1HLCFTIL1","329E6HTMSWO7MPPIUTRHLR63CI0K3O","","682.5","img/animal5.png","76","685.3999999761581","3","1","3","1,0.5,0,0,1,0.5,0.5,0,1",""
"","html-keyboard-response","250","172536","0.0-250.0","30BUDKLTXEH90OI63S99RCN6CNU5ED","A1CPY1HLCFTIL1","329E6HTMSWO7MPPIUTRHLR63CI0K3O","","null","<img src=""img/animal5.png"" style=""width:200px; border:14px solid green;"">","null","","","","","",""
"","image-keyboard-response","251","173231","0.0-251.0","30BUDKLTXEH90OI63S99RCN6CNU5ED","A1CPY1HLCFTIL1","329E6HTMSWO7MPPIUTRHLR63CI0K3O","","692","img/animal5.png","76","694.6000000238419","3","1","3","1,0.5,0,0,1,0.5,0.5,0,1",""
"","html-keyboard-response","252","173536","0.0-252.0","30BUDKLTXEH90OI63S99RCN6CNU5ED","A1CPY1HLCFTIL1","329E6HTMSWO7MPPIUTRHLR63CI0K3O","","null","<img src=""img/animal5.png"" style=""width:200px; border:14px solid green;"">","null","","","","","",""
"","image-keyboard-response","253","174202","0.0-253.0","30BUDKLTXEH90OI63S99RCN6CNU5ED","A1CPY1HLCFTIL1","329E6HTMSWO7MPPIUTRHLR63CI0K3O","","663.3000000119209","img/animal4.png","74","665.6000000238419","1","1","1","1,0.5,0,0,1,0.5,0.5,0,1",""
"","html-keyboard-response","254","174508","0.0-254.0","30BUDKLTXEH90OI63S99RCN6CNU5ED","A1CPY1HLCFTIL1","329E6HTMSWO7MPPIUTRHLR63CI0K3O","","null","<img src=""img/animal4.png"" style=""width:200px; border:14px solid green;"">","null","","","","","",""
"","image-keyboard-response","255","175512","0.0-255.0","30BUDKLTXEH90OI63S99RCN6CNU5ED","A1CPY1HLCFTIL1","329E6HTMSWO7MPPIUTRHLR63CI0K3O","","999.0999999940395","img/animal5.png","76","1003.4000000059605","3","1","3","1,0.5,0,0,1,0.5,0.5,0,1",""
"","html-keyboard-response","256","175815","0.0-256.0","30BUDKLTXEH90OI63S99RCN6CNU5ED","A1CPY1HLCFTIL1","329E6HTMSWO7MPPIUTRHLR63CI0K3O","","null","<img src=""img/animal5.png"" style=""width:200px; border:14px solid green;"">","null","","","","","",""
"","image-keyboard-response","257","176511","0.0-257.0","30BUDKLTXEH90OI63S99RCN6CNU5ED","A1CPY1HLCFTIL1","329E6HTMSWO7MPPIUTRHLR63CI0K3O","","692.7000000178814","img/animal4.png","74","695.3000000119209","1","1","1","1,0.5,0,0,1,0.5,0.5,0,1",""
"","html-keyboard-response","258","176814","0.0-258.0","30BUDKLTXEH90OI63S99RCN6CNU5ED","A1CPY1HLCFTIL1","329E6HTMSWO7MPPIUTRHLR63CI0K3O","","null","<img src=""img/animal4.png"" style=""width:200px; border:14px solid green;"">","null","","","","","",""
"","image-keyboard-response","259","177504","0.0-259.0","30BUDKLTXEH90OI63S99RCN6CNU5ED","A1CPY1HLCFTIL1","329E6HTMSWO7MPPIUTRHLR63CI0K3O","","686.5999999940395","img/animal3.png","75","688.9000000059605","2","1","2","1,0.5,0,0,1,0.5,0.5,0,1",""
"","html-keyboard-response","260","177807","0.0-260.0","30BUDKLTXEH90OI63S99RCN6CNU5ED","A1CPY1HLCFTIL1","329E6HTMSWO7MPPIUTRHLR63CI0K3O","","null","<img src=""img/animal3.png"" style=""width:200px; border:14px solid green;"">","null","","","","","",""
"","image-keyboard-response","261","178624","0.0-261.0","30BUDKLTXEH90OI63S99RCN6CNU5ED","A1CPY1HLCFTIL1","329E6HTMSWO7MPPIUTRHLR63CI0K3O","","813.5","img/animal3.png","75","816.0999999940395","2","1","2","1,0.5,0,0,1,0.5,0.5,0,1",""
"","html-keyboard-response","262","178927","0.0-262.0","30BUDKLTXEH90OI63S99RCN6CNU5ED","A1CPY1HLCFTIL1","329E6HTMSWO7MPPIUTRHLR63CI0K3O","","null","<img src=""img/animal3.png"" style=""width:200px; border:14px solid green;"">","null","","","","","",""
"","image-keyboard-response","263","179515","0.0-263.0","30BUDKLTXEH90OI63S99RCN6CNU5ED","A1CPY1HLCFTIL1","329E6HTMSWO7MPPIUTRHLR63CI0K3O","","585.1999999880791","img/animal3.png","75","587.6999999880791","2","1","2","1,0.5,0,0,1,0.5,0.5,0,1",""
"","html-keyboard-response","264","179818","0.0-264.0","30BUDKLTXEH90OI63S99RCN6CNU5ED","A1CPY1HLCFTIL1","329E6HTMSWO7MPPIUTRHLR63CI0K3O","","null","<img src=""img/animal3.png"" style=""width:200px; border:14px solid green;"">","null","","","","","",""
"","image-keyboard-response","265","180486","0.0-265.0","30BUDKLTXEH90OI63S99RCN6CNU5ED","A1CPY1HLCFTIL1","329E6HTMSWO7MPPIUTRHLR63CI0K3O","","665","img/animal4.png","74","667.4000000059605","1","1","1","1,0.5,0,0,1,0.5,0.5,0,1",""
"","html-keyboard-response","266","180790","0.0-266.0","30BUDKLTXEH90OI63S99RCN6CNU5ED","A1CPY1HLCFTIL1","329E6HTMSWO7MPPIUTRHLR63CI0K3O","","null","<img src=""img/animal4.png"" style=""width:200px; border:14px solid green;"">","null","","","","","",""
"","image-keyboard-response","267","181387","0.0-267.0","30BUDKLTXEH90OI63S99RCN6CNU5ED","A1CPY1HLCFTIL1","329E6HTMSWO7MPPIUTRHLR63CI0K3O","","594.1000000238419","img/animal5.png","76","596.5","3","1","3","1,0.5,0,0,1,0.5,0.5,0,1",""
"","html-keyboard-response","268","181691","0.0-268.0","30BUDKLTXEH90OI63S99RCN6CNU5ED","A1CPY1HLCFTIL1","329E6HTMSWO7MPPIUTRHLR63CI0K3O","","null","<img src=""img/animal5.png"" style=""width:200px; border:14px solid green;"">","null","","","","","",""
"","image-keyboard-response","269","182811","0.0-269.0","30BUDKLTXEH90OI63S99RCN6CNU5ED","A1CPY1HLCFTIL1","329E6HTMSWO7MPPIUTRHLR63CI0K3O","","1117.3999999761581","img/animal5.png","76","1120","3","1","3","1,0.5,0,0,1,0.5,0.5,0,1",""
"","html-keyboard-response","270","183115","0.0-270.0","30BUDKLTXEH90OI63S99RCN6CNU5ED","A1CPY1HLCFTIL1","329E6HTMSWO7MPPIUTRHLR63CI0K3O","","null","<img src=""img/animal5.png"" style=""width:200px; border:14px solid green;"">","null","","","","","",""
"","image-keyboard-response","271","183812","0.0-271.0","30BUDKLTXEH90OI63S99RCN6CNU5ED","A1CPY1HLCFTIL1","329E6HTMSWO7MPPIUTRHLR63CI0K3O","","693.3000000119209","img/animal4.png","74","695.9000000059605","1","1","1","1,0.5,0,0,1,0.5,0.5,0,1",""
"","html-keyboard-response","272","184116","0.0-272.0","30BUDKLTXEH90OI63S99RCN6CNU5ED","A1CPY1HLCFTIL1","329E6HTMSWO7MPPIUTRHLR63CI0K3O","","null","<img src=""img/animal4.png"" style=""width:200px; border:14px solid green;"">","null","","","","","",""
"","image-keyboard-response","273","185344","0.0-273.0","30BUDKLTXEH90OI63S99RCN6CNU5ED","A1CPY1HLCFTIL1","329E6HTMSWO7MPPIUTRHLR63CI0K3O","","1226","img/animal4.png","74","1228.4000000059605","1","1","1","1,0.5,0,0,1,0.5,0.5,0,1",""
"","html-keyboard-response","274","185648","0.0-274.0","30BUDKLTXEH90OI63S99RCN6CNU5ED","A1CPY1HLCFTIL1","329E6HTMSWO7MPPIUTRHLR63CI0K3O","","null","<img src=""img/animal4.png"" style=""width:200px; border:14px solid green;"">","null","","","","","",""
"","image-keyboard-response","275","186175","0.0-275.0","30BUDKLTXEH90OI63S99RCN6CNU5ED","A1CPY1HLCFTIL1","329E6HTMSWO7MPPIUTRHLR63CI0K3O","","524","img/animal5.png","76","526.3000000119209","3","1","3","1,0.5,0,0,1,0.5,0.5,0,1",""
"","html-keyboard-response","276","186479","0.0-276.0","30BUDKLTXEH90OI63S99RCN6CNU5ED","A1CPY1HLCFTIL1","329E6HTMSWO7MPPIUTRHLR63CI0K3O","","null","<img src=""img/animal5.png"" style=""width:200px; border:14px solid green;"">","null","","","","","",""
"","image-keyboard-response","277","187158","0.0-277.0","30BUDKLTXEH90OI63S99RCN6CNU5ED","A1CPY1HLCFTIL1","329E6HTMSWO7MPPIUTRHLR63CI0K3O","","675.9000000059605","img/animal3.png","75","678.4000000059605","2","1","2","1,0.5,0,0,1,0.5,0.5,0,1",""
"","html-keyboard-response","278","187463","0.0-278.0","30BUDKLTXEH90OI63S99RCN6CNU5ED","A1CPY1HLCFTIL1","329E6HTMSWO7MPPIUTRHLR63CI0K3O","","null","<img src=""img/animal3.png"" style=""width:200px; border:14px solid green;"">","null","","","","","",""
"","image-keyboard-response","279","188182","0.0-279.0","30BUDKLTXEH90OI63S99RCN6CNU5ED","A1CPY1HLCFTIL1","329E6HTMSWO7MPPIUTRHLR63CI0K3O","","715.5","img/animal5.png","76","718.0999999940395","3","1","3","1,0.5,0,0,1,0.5,0.5,0,1",""
"","html-keyboard-response","280","188486","0.0-280.0","30BUDKLTXEH90OI63S99RCN6CNU5ED","A1CPY1HLCFTIL1","329E6HTMSWO7MPPIUTRHLR63CI0K3O","","null","<img src=""img/animal5.png"" style=""width:200px; border:14px solid green;"">","null","","","","","",""
"","image-keyboard-response","281","189594","0.0-281.0","30BUDKLTXEH90OI63S99RCN6CNU5ED","A1CPY1HLCFTIL1","329E6HTMSWO7MPPIUTRHLR63CI0K3O","","1104.800000011921","img/animal3.png","75","1107.5","2","1","2","1,0.5,0,0,1,0.5,0.5,0,1",""
"","html-keyboard-response","282","189898","0.0-282.0","30BUDKLTXEH90OI63S99RCN6CNU5ED","A1CPY1HLCFTIL1","329E6HTMSWO7MPPIUTRHLR63CI0K3O","","null","<img src=""img/animal3.png"" style=""width:200px; border:14px solid green;"">","null","","","","","",""
"","image-keyboard-response","283","190326","0.0-283.0","30BUDKLTXEH90OI63S99RCN6CNU5ED","A1CPY1HLCFTIL1","329E6HTMSWO7MPPIUTRHLR63CI0K3O","","425.09999999403954","img/animal3.png","75","427.69999998807907","2","1","2","1,0.5,0,0,1,0.5,0.5,0,1",""
"","html-keyboard-response","284","190630","0.0-284.0","30BUDKLTXEH90OI63S99RCN6CNU5ED","A1CPY1HLCFTIL1","329E6HTMSWO7MPPIUTRHLR63CI0K3O","","null","<img src=""img/animal3.png"" style=""width:200px; border:14px solid green;"">","null","","","","","",""
"","image-keyboard-response","285","191164","0.0-285.0","30BUDKLTXEH90OI63S99RCN6CNU5ED","A1CPY1HLCFTIL1","329E6HTMSWO7MPPIUTRHLR63CI0K3O","","530.2999999821186","img/animal5.png","76","532.9000000059605","3","1","3","1,0.5,0,0,1,0.5,0.5,0,1",""
"","html-keyboard-response","286","191467","0.0-286.0","30BUDKLTXEH90OI63S99RCN6CNU5ED","A1CPY1HLCFTIL1","329E6HTMSWO7MPPIUTRHLR63CI0K3O","","null","<img src=""img/animal5.png"" style=""width:200px; border:14px solid green;"">","null","","","","","",""
"","image-keyboard-response","287","192015","0.0-287.0","30BUDKLTXEH90OI63S99RCN6CNU5ED","A1CPY1HLCFTIL1","329E6HTMSWO7MPPIUTRHLR63CI0K3O","","544.8000000119209","img/animal3.png","75","547.5","2","1","2","1,0.5,0,0,1,0.5,0.5,0,1",""
"","html-keyboard-response","288","192318","0.0-288.0","30BUDKLTXEH90OI63S99RCN6CNU5ED","A1CPY1HLCFTIL1","329E6HTMSWO7MPPIUTRHLR63CI0K3O","","null","<img src=""img/animal3.png"" style=""width:200px; border:14px solid green;"">","null","","","","","",""
"","image-keyboard-response","289","192846","0.0-289.0","30BUDKLTXEH90OI63S99RCN6CNU5ED","A1CPY1HLCFTIL1","329E6HTMSWO7MPPIUTRHLR63CI0K3O","","525.2000000178814","img/animal3.png","75","527.5999999940395","2","1","2","1,0.5,0,0,1,0.5,0.5,0,1",""
"","html-keyboard-response","290","193149","0.0-290.0","30BUDKLTXEH90OI63S99RCN6CNU5ED","A1CPY1HLCFTIL1","329E6HTMSWO7MPPIUTRHLR63CI0K3O","","null","<img src=""img/animal3.png"" style=""width:200px; border:14px solid green;"">","null","","","","","",""
"","image-keyboard-response","291","193614","0.0-291.0","30BUDKLTXEH90OI63S99RCN6CNU5ED","A1CPY1HLCFTIL1","329E6HTMSWO7MPPIUTRHLR63CI0K3O","","462","img/animal4.png","74","464.5","1","1","1","1,0.5,0,0,1,0.5,0.5,0,1",""
"","html-keyboard-response","292","193918","0.0-292.0","30BUDKLTXEH90OI63S99RCN6CNU5ED","A1CPY1HLCFTIL1","329E6HTMSWO7MPPIUTRHLR63CI0K3O","","null","<img src=""img/animal4.png"" style=""width:200px; border:14px solid green;"">","null","","","","","",""
"","image-keyboard-response","293","194326","0.0-293.0","30BUDKLTXEH90OI63S99RCN6CNU5ED","A1CPY1HLCFTIL1","329E6HTMSWO7MPPIUTRHLR63CI0K3O","","403.59999999403954","img/animal4.png","74","405.59999999403954","1","1","1","1,0.5,0,0,1,0.5,0.5,0,1",""
"","html-keyboard-response","294","194630","0.0-294.0","30BUDKLTXEH90OI63S99RCN6CNU5ED","A1CPY1HLCFTIL1","329E6HTMSWO7MPPIUTRHLR63CI0K3O","","null","<img src=""img/animal4.png"" style=""width:200px; border:14px solid green;"">","null","","","","","",""
"","image-keyboard-response","295","195097","0.0-295.0","30BUDKLTXEH90OI63S99RCN6CNU5ED","A1CPY1HLCFTIL1","329E6HTMSWO7MPPIUTRHLR63CI0K3O","","464.30000001192093","img/animal4.png","74","466.80000001192093","1","1","1","1,0.5,0,0,1,0.5,0.5,0,1",""
"","html-keyboard-response","296","195402","0.0-296.0","30BUDKLTXEH90OI63S99RCN6CNU5ED","A1CPY1HLCFTIL1","329E6HTMSWO7MPPIUTRHLR63CI0K3O","","null","<img src=""img/animal4.png"" style=""width:200px; border:14px solid green;"">","null","","","","","",""
"","image-keyboard-response","297","195867","0.0-297.0","30BUDKLTXEH90OI63S99RCN6CNU5ED","A1CPY1HLCFTIL1","329E6HTMSWO7MPPIUTRHLR63CI0K3O","","462.5","img/animal4.png","74","464.89999997615814","1","1","1","1,0.5,0,0,1,0.5,0.5,0,1",""
"","html-keyboard-response","298","196171","0.0-298.0","30BUDKLTXEH90OI63S99RCN6CNU5ED","A1CPY1HLCFTIL1","329E6HTMSWO7MPPIUTRHLR63CI0K3O","","null","<img src=""img/animal4.png"" style=""width:200px; border:14px solid green;"">","null","","","","","",""
"","image-keyboard-response","299","196633","0.0-299.0","30BUDKLTXEH90OI63S99RCN6CNU5ED","A1CPY1HLCFTIL1","329E6HTMSWO7MPPIUTRHLR63CI0K3O","","458.80000001192093","img/animal4.png","74","461.5","1","1","1","1,0.5,0,0,1,0.5,0.5,0,1",""
"","html-keyboard-response","300","196936","0.0-300.0","30BUDKLTXEH90OI63S99RCN6CNU5ED","A1CPY1HLCFTIL1","329E6HTMSWO7MPPIUTRHLR63CI0K3O","","null","<img src=""img/animal4.png"" style=""width:200px; border:14px solid green;"">","null","","","","","",""
"","image-keyboard-response","301","197615","0.0-301.0","30BUDKLTXEH90OI63S99RCN6CNU5ED","A1CPY1HLCFTIL1","329E6HTMSWO7MPPIUTRHLR63CI0K3O","","675.7999999821186","img/animal3.png","75","678.0999999940395","2","1","2","1,0.5,0,0,1,0.5,0.5,0,1",""
"","html-keyboard-response","302","197918","0.0-302.0","30BUDKLTXEH90OI63S99RCN6CNU5ED","A1CPY1HLCFTIL1","329E6HTMSWO7MPPIUTRHLR63CI0K3O","","null","<img src=""img/animal3.png"" style=""width:200px; border:14px solid green;"">","null","","","","","",""
"","image-keyboard-response","303","198687","0.0-303.0","30BUDKLTXEH90OI63S99RCN6CNU5ED","A1CPY1HLCFTIL1","329E6HTMSWO7MPPIUTRHLR63CI0K3O","","766.1000000238419","img/animal5.png","76","768.5999999940395","3","1","3","1,0.5,0,0,1,0.5,0.5,0,1",""
"","html-keyboard-response","304","198991","0.0-304.0","30BUDKLTXEH90OI63S99RCN6CNU5ED","A1CPY1HLCFTIL1","329E6HTMSWO7MPPIUTRHLR63CI0K3O","","null","<img src=""img/animal5.png"" style=""width:200px; border:14px solid green;"">","null","","","","","",""
"","image-keyboard-response","305","199730","0.0-305.0","30BUDKLTXEH90OI63S99RCN6CNU5ED","A1CPY1HLCFTIL1","329E6HTMSWO7MPPIUTRHLR63CI0K3O","","736.5999999940395","img/animal4.png","74","739.0999999940395","1","1","1","1,0.5,0,0,1,0.5,0.5,0,1",""
"","html-keyboard-response","306","200034","0.0-306.0","30BUDKLTXEH90OI63S99RCN6CNU5ED","A1CPY1HLCFTIL1","329E6HTMSWO7MPPIUTRHLR63CI0K3O","","null","<img src=""img/animal4.png"" style=""width:200px; border:14px solid green;"">","null","","","","","",""
"","image-keyboard-response","307","200611","0.0-307.0","30BUDKLTXEH90OI63S99RCN6CNU5ED","A1CPY1HLCFTIL1","329E6HTMSWO7MPPIUTRHLR63CI0K3O","","573.9000000059605","img/animal5.png","76","576.3000000119209","3","1","3","1,0.5,0,0,1,0.5,0.5,0,1",""
"","html-keyboard-response","308","200915","0.0-308.0","30BUDKLTXEH90OI63S99RCN6CNU5ED","A1CPY1HLCFTIL1","329E6HTMSWO7MPPIUTRHLR63CI0K3O","","null","<img src=""img/animal5.png"" style=""width:200px; border:14px solid green;"">","null","","","","","",""
"","image-keyboard-response","309","201560","0.0-309.0","30BUDKLTXEH90OI63S99RCN6CNU5ED","A1CPY1HLCFTIL1","329E6HTMSWO7MPPIUTRHLR63CI0K3O","","641.8000000119209","img/animal4.png","74","644.2999999821186","1","1","1","1,0.5,0,0,1,0.5,0.5,0,1",""
"","html-keyboard-response","310","201863","0.0-310.0","30BUDKLTXEH90OI63S99RCN6CNU5ED","A1CPY1HLCFTIL1","329E6HTMSWO7MPPIUTRHLR63CI0K3O","","null","<img src=""img/animal4.png"" style=""width:200px; border:14px solid green;"">","null","","","","","",""
"","image-keyboard-response","311","202334","0.0-311.0","30BUDKLTXEH90OI63S99RCN6CNU5ED","A1CPY1HLCFTIL1","329E6HTMSWO7MPPIUTRHLR63CI0K3O","","467","img/animal4.png","74","470.19999998807907","1","1","1","1,0.5,0,0,1,0.5,0.5,0,1",""
"","html-keyboard-response","312","202638","0.0-312.0","30BUDKLTXEH90OI63S99RCN6CNU5ED","A1CPY1HLCFTIL1","329E6HTMSWO7MPPIUTRHLR63CI0K3O","","null","<img src=""img/animal4.png"" style=""width:200px; border:14px solid green;"">","null","","","","","",""
"","image-keyboard-response","313","203151","0.0-313.0","30BUDKLTXEH90OI63S99RCN6CNU5ED","A1CPY1HLCFTIL1","329E6HTMSWO7MPPIUTRHLR63CI0K3O","","509.39999997615814","img/animal5.png","76","511.90000000596046","3","1","3","1,0.5,0,0,1,0.5,0.5,0,1",""
"","html-keyboard-response","314","203455","0.0-314.0","30BUDKLTXEH90OI63S99RCN6CNU5ED","A1CPY1HLCFTIL1","329E6HTMSWO7MPPIUTRHLR63CI0K3O","","null","<img src=""img/animal5.png"" style=""width:200px; border:14px solid green;"">","null","","","","","",""
"","image-keyboard-response","315","204002","0.0-315.0","30BUDKLTXEH90OI63S99RCN6CNU5ED","A1CPY1HLCFTIL1","329E6HTMSWO7MPPIUTRHLR63CI0K3O","","545.7000000178814","img/animal3.png","75","547.5999999940395","2","1","2","1,0.5,0,0,1,0.5,0.5,0,1",""
"","html-keyboard-response","316","204305","0.0-316.0","30BUDKLTXEH90OI63S99RCN6CNU5ED","A1CPY1HLCFTIL1","329E6HTMSWO7MPPIUTRHLR63CI0K3O","","null","<img src=""img/animal3.png"" style=""width:200px; border:14px solid green;"">","null","","","","","",""
"","image-keyboard-response","317","204942","0.0-317.0","30BUDKLTXEH90OI63S99RCN6CNU5ED","A1CPY1HLCFTIL1","329E6HTMSWO7MPPIUTRHLR63CI0K3O","","633.4000000059605","img/animal5.png","76","635.9000000059605","3","1","3","1,0.5,0,0,1,0.5,0.5,0,1",""
"","html-keyboard-response","318","205246","0.0-318.0","30BUDKLTXEH90OI63S99RCN6CNU5ED","A1CPY1HLCFTIL1","329E6HTMSWO7MPPIUTRHLR63CI0K3O","","null","<img src=""img/animal5.png"" style=""width:200px; border:14px solid green;"">","null","","","","","",""
"","image-keyboard-response","319","205942","0.0-319.0","30BUDKLTXEH90OI63S99RCN6CNU5ED","A1CPY1HLCFTIL1","329E6HTMSWO7MPPIUTRHLR63CI0K3O","","693.7000000178814","img/animal3.png","75","696.3000000119209","2","1","2","1,0.5,0,0,1,0.5,0.5,0,1",""
"","html-keyboard-response","320","206247","0.0-320.0","30BUDKLTXEH90OI63S99RCN6CNU5ED","A1CPY1HLCFTIL1","329E6HTMSWO7MPPIUTRHLR63CI0K3O","","null","<img src=""img/animal3.png"" style=""width:200px; border:14px solid green;"">","null","","","","","",""
"","image-keyboard-response","321","206765","0.0-321.0","30BUDKLTXEH90OI63S99RCN6CNU5ED","A1CPY1HLCFTIL1","329E6HTMSWO7MPPIUTRHLR63CI0K3O","","514.4000000059605","img/animal3.png","75","517.0999999940395","2","1","2","1,0.5,0,0,1,0.5,0.5,0,1",""
"","html-keyboard-response","322","207068","0.0-322.0","30BUDKLTXEH90OI63S99RCN6CNU5ED","A1CPY1HLCFTIL1","329E6HTMSWO7MPPIUTRHLR63CI0K3O","","null","<img src=""img/animal3.png"" style=""width:200px; border:14px solid green;"">","null","","","","","",""
"","image-keyboard-response","323","207714","0.0-323.0","30BUDKLTXEH90OI63S99RCN6CNU5ED","A1CPY1HLCFTIL1","329E6HTMSWO7MPPIUTRHLR63CI0K3O","","642.8000000119209","img/animal4.png","74","645.5","1","1","1","1,0.5,0,0,1,0.5,0.5,0,1",""
"","html-keyboard-response","324","208017","0.0-324.0","30BUDKLTXEH90OI63S99RCN6CNU5ED","A1CPY1HLCFTIL1","329E6HTMSWO7MPPIUTRHLR63CI0K3O","","null","<img src=""img/animal4.png"" style=""width:200px; border:14px solid green;"">","null","","","","","",""
"","image-keyboard-response","325","209347","0.0-325.0","30BUDKLTXEH90OI63S99RCN6CNU5ED","A1CPY1HLCFTIL1","329E6HTMSWO7MPPIUTRHLR63CI0K3O","","1326.5","img/animal3.png","75","1328.9000000059605","2","1","2","1,0.5,0,0,1,0.5,0.5,0,1",""
"","html-keyboard-response","326","209651","0.0-326.0","30BUDKLTXEH90OI63S99RCN6CNU5ED","A1CPY1HLCFTIL1","329E6HTMSWO7MPPIUTRHLR63CI0K3O","","null","<img src=""img/animal3.png"" style=""width:200px; border:14px solid green;"">","null","","","","","",""
"","image-keyboard-response","327","210358","0.0-327.0","30BUDKLTXEH90OI63S99RCN6CNU5ED","A1CPY1HLCFTIL1","329E6HTMSWO7MPPIUTRHLR63CI0K3O","","704.9000000059605","img/animal4.png","74","707.5","1","1","1","1,0.5,0,0,1,0.5,0.5,0,1",""
"","html-keyboard-response","328","210663","0.0-328.0","30BUDKLTXEH90OI63S99RCN6CNU5ED","A1CPY1HLCFTIL1","329E6HTMSWO7MPPIUTRHLR63CI0K3O","","null","<img src=""img/animal4.png"" style=""width:200px; border:14px solid green;"">","null","","","","","",""
"","image-keyboard-response","329","211470","0.0-329.0","30BUDKLTXEH90OI63S99RCN6CNU5ED","A1CPY1HLCFTIL1","329E6HTMSWO7MPPIUTRHLR63CI0K3O","","801.9000000059605","img/animal5.png","76","805.9000000059605","3","1","3","1,0.5,0,0,1,0.5,0.5,0,1",""
"","html-keyboard-response","330","211774","0.0-330.0","30BUDKLTXEH90OI63S99RCN6CNU5ED","A1CPY1HLCFTIL1","329E6HTMSWO7MPPIUTRHLR63CI0K3O","","null","<img src=""img/animal5.png"" style=""width:200px; border:14px solid green;"">","null","","","","","",""
"","image-keyboard-response","331","212359","0.0-331.0","30BUDKLTXEH90OI63S99RCN6CNU5ED","A1CPY1HLCFTIL1","329E6HTMSWO7MPPIUTRHLR63CI0K3O","","581.8000000119209","img/animal4.png","74","584.1999999880791","1","1","1","1,0.5,0,0,1,0.5,0.5,0,1",""
"","html-keyboard-response","332","212663","0.0-332.0","30BUDKLTXEH90OI63S99RCN6CNU5ED","A1CPY1HLCFTIL1","329E6HTMSWO7MPPIUTRHLR63CI0K3O","","null","<img src=""img/animal4.png"" style=""width:200px; border:14px solid green;"">","null","","","","","",""
"","image-keyboard-response","333","213258","0.0-333.0","30BUDKLTXEH90OI63S99RCN6CNU5ED","A1CPY1HLCFTIL1","329E6HTMSWO7MPPIUTRHLR63CI0K3O","","592.0999999940395","img/animal3.png","75","594.5","2","1","2","1,0.5,0,0,1,0.5,0.5,0,1",""
"","html-keyboard-response","334","213561","0.0-334.0","30BUDKLTXEH90OI63S99RCN6CNU5ED","A1CPY1HLCFTIL1","329E6HTMSWO7MPPIUTRHLR63CI0K3O","","null","<img src=""img/animal3.png"" style=""width:200px; border:14px solid green;"">","null","","","","","",""
"","image-keyboard-response","335","214307","0.0-335.0","30BUDKLTXEH90OI63S99RCN6CNU5ED","A1CPY1HLCFTIL1","329E6HTMSWO7MPPIUTRHLR63CI0K3O","","743.2000000178814","img/animal4.png","74","745.9000000059605","1","1","1","1,0.5,0,0,1,0.5,0.5,0,1",""
"","html-keyboard-response","336","214616","0.0-336.0","30BUDKLTXEH90OI63S99RCN6CNU5ED","A1CPY1HLCFTIL1","329E6HTMSWO7MPPIUTRHLR63CI0K3O","","null","<img src=""img/animal4.png"" style=""width:200px; border:14px solid green;"">","null","","","","","",""
"","image-keyboard-response","337","215256","0.0-337.0","30BUDKLTXEH90OI63S99RCN6CNU5ED","A1CPY1HLCFTIL1","329E6HTMSWO7MPPIUTRHLR63CI0K3O","","634","img/animal5.png","76","639.5","3","1","3","1,0.5,0,0,1,0.5,0.5,0,1",""
"","html-keyboard-response","338","215560","0.0-338.0","30BUDKLTXEH90OI63S99RCN6CNU5ED","A1CPY1HLCFTIL1","329E6HTMSWO7MPPIUTRHLR63CI0K3O","","null","<img src=""img/animal5.png"" style=""width:200px; border:14px solid green;"">","null","","","","","",""
"","image-keyboard-response","339","216188","0.0-339.0","30BUDKLTXEH90OI63S99RCN6CNU5ED","A1CPY1HLCFTIL1","329E6HTMSWO7MPPIUTRHLR63CI0K3O","","624.0999999940395","img/animal4.png","74","627","1","1","1","1,0.5,0,0,1,0.5,0.5,0,1",""
"","html-keyboard-response","340","216492","0.0-340.0","30BUDKLTXEH90OI63S99RCN6CNU5ED","A1CPY1HLCFTIL1","329E6HTMSWO7MPPIUTRHLR63CI0K3O","","null","<img src=""img/animal4.png"" style=""width:200px; border:14px solid green;"">","null","","","","","",""
"","image-keyboard-response","341","217077","0.0-341.0","30BUDKLTXEH90OI63S99RCN6CNU5ED","A1CPY1HLCFTIL1","329E6HTMSWO7MPPIUTRHLR63CI0K3O","","581.7999999821186","img/animal3.png","75","584.7999999821186","2","1","2","1,0.5,0,0,1,0.5,0.5,0,1",""
"","html-keyboard-response","342","217381","0.0-342.0","30BUDKLTXEH90OI63S99RCN6CNU5ED","A1CPY1HLCFTIL1","329E6HTMSWO7MPPIUTRHLR63CI0K3O","","null","<img src=""img/animal3.png"" style=""width:200px; border:14px solid green;"">","null","","","","","",""
"","image-keyboard-response","343","217856","0.0-343.0","30BUDKLTXEH90OI63S99RCN6CNU5ED","A1CPY1HLCFTIL1","329E6HTMSWO7MPPIUTRHLR63CI0K3O","","471.2999999821186","img/animal3.png","75","474","2","1","2","1,0.5,0,0,1,0.5,0.5,0,1",""
"","html-keyboard-response","344","218161","0.0-344.0","30BUDKLTXEH90OI63S99RCN6CNU5ED","A1CPY1HLCFTIL1","329E6HTMSWO7MPPIUTRHLR63CI0K3O","","null","<img src=""img/animal3.png"" style=""width:200px; border:14px solid green;"">","null","","","","","",""
"","image-keyboard-response","345","218823","0.0-345.0","30BUDKLTXEH90OI63S99RCN6CNU5ED","A1CPY1HLCFTIL1","329E6HTMSWO7MPPIUTRHLR63CI0K3O","","659.2000000178814","img/animal5.png","76","661.9000000059605","3","1","3","1,0.5,0,0,1,0.5,0.5,0,1",""
"","html-keyboard-response","346","219126","0.0-346.0","30BUDKLTXEH90OI63S99RCN6CNU5ED","A1CPY1HLCFTIL1","329E6HTMSWO7MPPIUTRHLR63CI0K3O","","null","<img src=""img/animal5.png"" style=""width:200px; border:14px solid green;"">","null","","","","","",""
"","image-keyboard-response","347","219806","0.0-347.0","30BUDKLTXEH90OI63S99RCN6CNU5ED","A1CPY1HLCFTIL1","329E6HTMSWO7MPPIUTRHLR63CI0K3O","","677.5999999940395","img/animal3.png","75","680.2999999821186","2","1","2","1,0.5,0,0,1,0.5,0.5,0,1",""
"","html-keyboard-response","348","220110","0.0-348.0","30BUDKLTXEH90OI63S99RCN6CNU5ED","A1CPY1HLCFTIL1","329E6HTMSWO7MPPIUTRHLR63CI0K3O","","null","<img src=""img/animal3.png"" style=""width:200px; border:14px solid green;"">","null","","","","","",""
"","image-keyboard-response","349","220678","0.0-349.0","30BUDKLTXEH90OI63S99RCN6CNU5ED","A1CPY1HLCFTIL1","329E6HTMSWO7MPPIUTRHLR63CI0K3O","","564.6999999880791","img/animal3.png","75","567.3000000119209","2","1","2","1,0.5,0,0,1,0.5,0.5,0,1",""
"","html-keyboard-response","350","220981","0.0-350.0","30BUDKLTXEH90OI63S99RCN6CNU5ED","A1CPY1HLCFTIL1","329E6HTMSWO7MPPIUTRHLR63CI0K3O","","null","<img src=""img/animal3.png"" style=""width:200px; border:14px solid green;"">","null","","","","","",""
"","image-keyboard-response","351","221415","0.0-351.0","30BUDKLTXEH90OI63S99RCN6CNU5ED","A1CPY1HLCFTIL1","329E6HTMSWO7MPPIUTRHLR63CI0K3O","","430.80000001192093","img/animal3.png","75","435.19999998807907","2","1","2","1,0.5,0,0,1,0.5,0.5,0,1",""
"","html-keyboard-response","352","221720","0.0-352.0","30BUDKLTXEH90OI63S99RCN6CNU5ED","A1CPY1HLCFTIL1","329E6HTMSWO7MPPIUTRHLR63CI0K3O","","null","<img src=""img/animal3.png"" style=""width:200px; border:14px solid green;"">","null","","","","","",""
"","image-keyboard-response","353","222349","0.0-353.0","30BUDKLTXEH90OI63S99RCN6CNU5ED","A1CPY1HLCFTIL1","329E6HTMSWO7MPPIUTRHLR63CI0K3O","","625.6999999880791","img/animal4.png","74","628.2999999821186","1","1","1","1,0.5,0,0,1,0.5,0.5,0,1",""
"","html-keyboard-response","354","222654","0.0-354.0","30BUDKLTXEH90OI63S99RCN6CNU5ED","A1CPY1HLCFTIL1","329E6HTMSWO7MPPIUTRHLR63CI0K3O","","null","<img src=""img/animal4.png"" style=""width:200px; border:14px solid green;"">","null","","","","","",""
"","image-keyboard-response","355","223417","0.0-355.0","30BUDKLTXEH90OI63S99RCN6CNU5ED","A1CPY1HLCFTIL1","329E6HTMSWO7MPPIUTRHLR63CI0K3O","","759.9000000059605","img/animal5.png","76","762.5","3","1","3","1,0.5,0,0,1,0.5,0.5,0,1",""
"","html-keyboard-response","356","223722","0.0-356.0","30BUDKLTXEH90OI63S99RCN6CNU5ED","A1CPY1HLCFTIL1","329E6HTMSWO7MPPIUTRHLR63CI0K3O","","null","<img src=""img/animal5.png"" style=""width:200px; border:14px solid green;"">","null","","","","","",""
"","image-keyboard-response","357","224351","0.0-357.0","30BUDKLTXEH90OI63S99RCN6CNU5ED","A1CPY1HLCFTIL1","329E6HTMSWO7MPPIUTRHLR63CI0K3O","","626","img/animal5.png","76","628.8000000119209","3","1","3","1,0.5,0,0,1,0.5,0.5,0,1",""
"","html-keyboard-response","358","224655","0.0-358.0","30BUDKLTXEH90OI63S99RCN6CNU5ED","A1CPY1HLCFTIL1","329E6HTMSWO7MPPIUTRHLR63CI0K3O","","null","<img src=""img/animal5.png"" style=""width:200px; border:14px solid green;"">","null","","","","","",""
"","image-keyboard-response","359","225313","0.0-359.0","30BUDKLTXEH90OI63S99RCN6CNU5ED","A1CPY1HLCFTIL1","329E6HTMSWO7MPPIUTRHLR63CI0K3O","","654.4000000059605","img/animal4.png","74","657.1999999880791","1","1","1","1,0.5,0,0,1,0.5,0.5,0,1",""
"","html-keyboard-response","360","225617","0.0-360.0","30BUDKLTXEH90OI63S99RCN6CNU5ED","A1CPY1HLCFTIL1","329E6HTMSWO7MPPIUTRHLR63CI0K3O","","null","<img src=""img/animal4.png"" style=""width:200px; border:14px solid green;"">","null","","","","","",""
"","image-keyboard-response","361","226212","0.0-361.0","30BUDKLTXEH90OI63S99RCN6CNU5ED","A1CPY1HLCFTIL1","329E6HTMSWO7MPPIUTRHLR63CI0K3O","","592.2999999821186","img/animal5.png","76","594.9000000059605","3","1","3","1,0.5,0,0,1,0.5,0.5,0,1",""
"","html-keyboard-response","362","226516","0.0-362.0","30BUDKLTXEH90OI63S99RCN6CNU5ED","A1CPY1HLCFTIL1","329E6HTMSWO7MPPIUTRHLR63CI0K3O","","null","<img src=""img/animal5.png"" style=""width:200px; border:14px solid green;"">","null","","","","","",""
"","instructions","363","234058","0.0-363.0","30BUDKLTXEH90OI63S99RCN6CNU5ED","A1CPY1HLCFTIL1","329E6HTMSWO7MPPIUTRHLR63CI0K3O","[{""page_index"":0,""viewing_time"":7540}]","7540.5","","","","","","","",""
"","survey-text","364","237412","0.0-364.0","30BUDKLTXEH90OI63S99RCN6CNU5ED","A1CPY1HLCFTIL1","329E6HTMSWO7MPPIUTRHLR63CI0K3O","","3350","","","","","","","","{""Q0"":""A1CPY1HLCFTIL1""}"
