"success","trial_type","trial_index","time_elapsed","internal_node_id","assignmentID","mturkID","hitID","view_history","rt","stimulus","key_press","reactionTime","a","r","s","reward_cond","responses"
"true","fullscreen","0","4684","0.0-0.0","3RU7GD8VPPFE3H57O22SEZW25QZSP7","A1DXGBSF4E3WTI","3OYHVNTV5TKW8EI4DRB99U4E79NKOA","","","","","","","","","",""
"","instructions","1","43484","0.0-1.0","3RU7GD8VPPFE3H57O22SEZW25QZSP7","A1DXGBSF4E3WTI","3OYHVNTV5TKW8EI4DRB99U4E79NKOA","[{""page_index"":0,""viewing_time"":11724.600000143051},{""page_index"":1,""viewing_time"":2209.0999999046326},{""page_index"":2,""viewing_time"":2412.9000000953674},{""page_index"":3,""viewing_time"":10566.799999952316},{""page_index"":4,""viewing_time"":3948.0999999046326},{""page_index"":5,""viewing_time"":1976.2999999523163},{""page_index"":6,""viewing_time"":2533.7000000476837},{""page_index"":7,""viewing_time"":3426.4000000953674}]","38798.700000047684","","","","","","","",""
"","image-keyboard-response","2","44891","0.0-2.0","3RU7GD8VPPFE3H57O22SEZW25QZSP7","A1DXGBSF4E3WTI","3OYHVNTV5TKW8EI4DRB99U4E79NKOA","","1404","img/animal6.png","74","1405.7000000476837","1","0","2","1,0.7,0,0,1,0.7,0.7,0,1",""
"","html-keyboard-response","3","45193","0.0-3.0","3RU7GD8VPPFE3H57O22SEZW25QZSP7","A1DXGBSF4E3WTI","3OYHVNTV5TKW8EI4DRB99U4E79NKOA","","null","<img src=""img/animal6.png"" style=""width:200px;border:14px solid red;"">","null","","","","","",""
"","image-keyboard-response","4","46340","0.0-4.0","3RU7GD8VPPFE3H57O22SEZW25QZSP7","A1DXGBSF4E3WTI","3OYHVNTV5TKW8EI4DRB99U4E79NKOA","","1145.8000001907349","img/animal4.png","74","1147.1000001430511","1","1","1","1,0.7,0,0,1,0.7,0.7,0,1",""
"","html-keyboard-response","5","46645","0.0-5.0","3RU7GD8VPPFE3H57O22SEZW25QZSP7","A1DXGBSF4E3WTI","3OYHVNTV5TKW8EI4DRB99U4E79NKOA","","null","<img src=""img/animal4.png"" style=""width:200px; border:14px solid green;"">","null","","","","","",""
"","image-keyboard-response","6","47907","0.0-6.0","3RU7GD8VPPFE3H57O22SEZW25QZSP7","A1DXGBSF4E3WTI","3OYHVNTV5TKW8EI4DRB99U4E79NKOA","","1261.2000000476837","img/animal2.png","75","1261.8999998569489","2","0","3","1,0.7,0,0,1,0.7,0.7,0,1",""
"","html-keyboard-response","7","48209","0.0-7.0","3RU7GD8VPPFE3H57O22SEZW25QZSP7","A1DXGBSF4E3WTI","3OYHVNTV5TKW8EI4DRB99U4E79NKOA","","null","<img src=""img/animal2.png"" style=""width:200px;border:14px solid red;"">","null","","","","","",""
"","image-keyboard-response","8","50322","0.0-8.0","3RU7GD8VPPFE3H57O22SEZW25QZSP7","A1DXGBSF4E3WTI","3OYHVNTV5TKW8EI4DRB99U4E79NKOA","","2112.5","img/animal2.png","76","2113.300000190735","3","1","3","1,0.7,0,0,1,0.7,0.7,0,1",""
"","html-keyboard-response","9","50624","0.0-9.0","3RU7GD8VPPFE3H57O22SEZW25QZSP7","A1DXGBSF4E3WTI","3OYHVNTV5TKW8EI4DRB99U4E79NKOA","","null","<img src=""img/animal2.png"" style=""width:200px; border:14px solid green;"">","null","","","","","",""
"","image-keyboard-response","10","51637","0.0-10.0","3RU7GD8VPPFE3H57O22SEZW25QZSP7","A1DXGBSF4E3WTI","3OYHVNTV5TKW8EI4DRB99U4E79NKOA","","1012.2000000476837","img/animal4.png","75","1013","2","1","1","1,0.7,0,0,1,0.7,0.7,0,1",""
"","html-keyboard-response","11","51953","0.0-11.0","3RU7GD8VPPFE3H57O22SEZW25QZSP7","A1DXGBSF4E3WTI","3OYHVNTV5TKW8EI4DRB99U4E79NKOA","","null","<img src=""img/animal4.png"" style=""width:200px; border:14px solid green;"">","null","","","","","",""
"","image-keyboard-response","12","52812","0.0-12.0","3RU7GD8VPPFE3H57O22SEZW25QZSP7","A1DXGBSF4E3WTI","3OYHVNTV5TKW8EI4DRB99U4E79NKOA","","857.9000000953674","img/animal2.png","76","858.7000000476837","3","1","3","1,0.7,0,0,1,0.7,0.7,0,1",""
"","html-keyboard-response","13","53114","0.0-13.0","3RU7GD8VPPFE3H57O22SEZW25QZSP7","A1DXGBSF4E3WTI","3OYHVNTV5TKW8EI4DRB99U4E79NKOA","","null","<img src=""img/animal2.png"" style=""width:200px; border:14px solid green;"">","null","","","","","",""
"","image-keyboard-response","14","53640","0.0-14.0","3RU7GD8VPPFE3H57O22SEZW25QZSP7","A1DXGBSF4E3WTI","3OYHVNTV5TKW8EI4DRB99U4E79NKOA","","523.2000000476837","img/animal2.png","76","524.2999999523163","3","1","3","1,0.7,0,0,1,0.7,0.7,0,1",""
"","html-keyboard-response","15","53941","0.0-15.0","3RU7GD8VPPFE3H57O22SEZW25QZSP7","A1DXGBSF4E3WTI","3OYHVNTV5TKW8EI4DRB99U4E79NKOA","","null","<img src=""img/animal2.png"" style=""width:200px; border:14px solid green;"">","null","","","","","",""
"","image-keyboard-response","16","54362","0.0-16.0","3RU7GD8VPPFE3H57O22SEZW25QZSP7","A1DXGBSF4E3WTI","3OYHVNTV5TKW8EI4DRB99U4E79NKOA","","420.2999999523163","img/animal2.png","76","421.09999990463257","3","1","3","1,0.7,0,0,1,0.7,0.7,0,1",""
"","html-keyboard-response","17","54665","0.0-17.0","3RU7GD8VPPFE3H57O22SEZW25QZSP7","A1DXGBSF4E3WTI","3OYHVNTV5TKW8EI4DRB99U4E79NKOA","","null","<img src=""img/animal2.png"" style=""width:200px; border:14px solid green;"">","null","","","","","",""
"","image-keyboard-response","18","55643","0.0-18.0","3RU7GD8VPPFE3H57O22SEZW25QZSP7","A1DXGBSF4E3WTI","3OYHVNTV5TKW8EI4DRB99U4E79NKOA","","976.1999998092651","img/animal6.png","74","977","1","0","2","1,0.7,0,0,1,0.7,0.7,0,1",""
"","html-keyboard-response","19","55945","0.0-19.0","3RU7GD8VPPFE3H57O22SEZW25QZSP7","A1DXGBSF4E3WTI","3OYHVNTV5TKW8EI4DRB99U4E79NKOA","","null","<img src=""img/animal6.png"" style=""width:200px;border:14px solid red;"">","null","","","","","",""
"","image-keyboard-response","20","57003","0.0-20.0","3RU7GD8VPPFE3H57O22SEZW25QZSP7","A1DXGBSF4E3WTI","3OYHVNTV5TKW8EI4DRB99U4E79NKOA","","1056.7000000476837","img/animal4.png","75","1057.6000001430511","2","1","1","1,0.7,0,0,1,0.7,0.7,0,1",""
"","html-keyboard-response","21","57305","0.0-21.0","3RU7GD8VPPFE3H57O22SEZW25QZSP7","A1DXGBSF4E3WTI","3OYHVNTV5TKW8EI4DRB99U4E79NKOA","","null","<img src=""img/animal4.png"" style=""width:200px; border:14px solid green;"">","null","","","","","",""
"","image-keyboard-response","22","59195","0.0-22.0","3RU7GD8VPPFE3H57O22SEZW25QZSP7","A1DXGBSF4E3WTI","3OYHVNTV5TKW8EI4DRB99U4E79NKOA","","1889.1999998092651","img/animal6.png","75","1889.9000000953674","2","1","2","1,0.7,0,0,1,0.7,0.7,0,1",""
"","html-keyboard-response","23","59496","0.0-23.0","3RU7GD8VPPFE3H57O22SEZW25QZSP7","A1DXGBSF4E3WTI","3OYHVNTV5TKW8EI4DRB99U4E79NKOA","","null","<img src=""img/animal6.png"" style=""width:200px; border:14px solid green;"">","null","","","","","",""
"","image-keyboard-response","24","60155","0.0-24.0","3RU7GD8VPPFE3H57O22SEZW25QZSP7","A1DXGBSF4E3WTI","3OYHVNTV5TKW8EI4DRB99U4E79NKOA","","657.7999999523163","img/animal2.png","76","658.4000000953674","3","1","3","1,0.7,0,0,1,0.7,0.7,0,1",""
"","html-keyboard-response","25","60456","0.0-25.0","3RU7GD8VPPFE3H57O22SEZW25QZSP7","A1DXGBSF4E3WTI","3OYHVNTV5TKW8EI4DRB99U4E79NKOA","","null","<img src=""img/animal2.png"" style=""width:200px; border:14px solid green;"">","null","","","","","",""
"","image-keyboard-response","26","61026","0.0-26.0","3RU7GD8VPPFE3H57O22SEZW25QZSP7","A1DXGBSF4E3WTI","3OYHVNTV5TKW8EI4DRB99U4E79NKOA","","569.3999998569489","img/animal6.png","75","570.0999999046326","2","1","2","1,0.7,0,0,1,0.7,0.7,0,1",""
"","html-keyboard-response","27","61329","0.0-27.0","3RU7GD8VPPFE3H57O22SEZW25QZSP7","A1DXGBSF4E3WTI","3OYHVNTV5TKW8EI4DRB99U4E79NKOA","","null","<img src=""img/animal6.png"" style=""width:200px; border:14px solid green;"">","null","","","","","",""
"","image-keyboard-response","28","61853","0.0-28.0","3RU7GD8VPPFE3H57O22SEZW25QZSP7","A1DXGBSF4E3WTI","3OYHVNTV5TKW8EI4DRB99U4E79NKOA","","523.2999999523163","img/animal6.png","75","524","2","1","2","1,0.7,0,0,1,0.7,0.7,0,1",""
"","html-keyboard-response","29","62154","0.0-29.0","3RU7GD8VPPFE3H57O22SEZW25QZSP7","A1DXGBSF4E3WTI","3OYHVNTV5TKW8EI4DRB99U4E79NKOA","","null","<img src=""img/animal6.png"" style=""width:200px; border:14px solid green;"">","null","","","","","",""
"","image-keyboard-response","30","62658","0.0-30.0","3RU7GD8VPPFE3H57O22SEZW25QZSP7","A1DXGBSF4E3WTI","3OYHVNTV5TKW8EI4DRB99U4E79NKOA","","503.2000000476837","img/animal2.png","76","503.90000009536743","3","1","3","1,0.7,0,0,1,0.7,0.7,0,1",""
"","html-keyboard-response","31","62969","0.0-31.0","3RU7GD8VPPFE3H57O22SEZW25QZSP7","A1DXGBSF4E3WTI","3OYHVNTV5TKW8EI4DRB99U4E79NKOA","","null","<img src=""img/animal2.png"" style=""width:200px; border:14px solid green;"">","null","","","","","",""
"","image-keyboard-response","32","63451","0.0-32.0","3RU7GD8VPPFE3H57O22SEZW25QZSP7","A1DXGBSF4E3WTI","3OYHVNTV5TKW8EI4DRB99U4E79NKOA","","480.30000019073486","img/animal6.png","75","481","2","1","2","1,0.7,0,0,1,0.7,0.7,0,1",""
"","html-keyboard-response","33","63756","0.0-33.0","3RU7GD8VPPFE3H57O22SEZW25QZSP7","A1DXGBSF4E3WTI","3OYHVNTV5TKW8EI4DRB99U4E79NKOA","","null","<img src=""img/animal6.png"" style=""width:200px; border:14px solid green;"">","null","","","","","",""
"","image-keyboard-response","34","64194","0.0-34.0","3RU7GD8VPPFE3H57O22SEZW25QZSP7","A1DXGBSF4E3WTI","3OYHVNTV5TKW8EI4DRB99U4E79NKOA","","436.7999999523163","img/animal6.png","75","437.59999990463257","2","1","2","1,0.7,0,0,1,0.7,0.7,0,1",""
"","html-keyboard-response","35","64496","0.0-35.0","3RU7GD8VPPFE3H57O22SEZW25QZSP7","A1DXGBSF4E3WTI","3OYHVNTV5TKW8EI4DRB99U4E79NKOA","","null","<img src=""img/animal6.png"" style=""width:200px; border:14px solid green;"">","null","","","","","",""
"","image-keyboard-response","36","65019","0.0-36.0","3RU7GD8VPPFE3H57O22SEZW25QZSP7","A1DXGBSF4E3WTI","3OYHVNTV5TKW8EI4DRB99U4E79NKOA","","521.9000000953674","img/animal6.png","75","522.7000000476837","2","1","2","1,0.7,0,0,1,0.7,0.7,0,1",""
"","html-keyboard-response","37","65321","0.0-37.0","3RU7GD8VPPFE3H57O22SEZW25QZSP7","A1DXGBSF4E3WTI","3OYHVNTV5TKW8EI4DRB99U4E79NKOA","","null","<img src=""img/animal6.png"" style=""width:200px; border:14px solid green;"">","null","","","","","",""
"","image-keyboard-response","38","66211","0.0-38.0","3RU7GD8VPPFE3H57O22SEZW25QZSP7","A1DXGBSF4E3WTI","3OYHVNTV5TKW8EI4DRB99U4E79NKOA","","888.5999999046326","img/animal4.png","75","889.2000000476837","2","1","1","1,0.7,0,0,1,0.7,0.7,0,1",""
"","html-keyboard-response","39","66513","0.0-39.0","3RU7GD8VPPFE3H57O22SEZW25QZSP7","A1DXGBSF4E3WTI","3OYHVNTV5TKW8EI4DRB99U4E79NKOA","","null","<img src=""img/animal4.png"" style=""width:200px; border:14px solid green;"">","null","","","","","",""
"","image-keyboard-response","40","66962","0.0-40.0","3RU7GD8VPPFE3H57O22SEZW25QZSP7","A1DXGBSF4E3WTI","3OYHVNTV5TKW8EI4DRB99U4E79NKOA","","447.7000000476837","img/animal2.png","76","448.7000000476837","3","1","3","1,0.7,0,0,1,0.7,0.7,0,1",""
"","html-keyboard-response","41","67266","0.0-41.0","3RU7GD8VPPFE3H57O22SEZW25QZSP7","A1DXGBSF4E3WTI","3OYHVNTV5TKW8EI4DRB99U4E79NKOA","","null","<img src=""img/animal2.png"" style=""width:200px; border:14px solid green;"">","null","","","","","",""
"","image-keyboard-response","42","67777","0.0-42.0","3RU7GD8VPPFE3H57O22SEZW25QZSP7","A1DXGBSF4E3WTI","3OYHVNTV5TKW8EI4DRB99U4E79NKOA","","510.2999999523163","img/animal4.png","75","511","2","0","1","1,0.7,0,0,1,0.7,0.7,0,1",""
"","html-keyboard-response","43","68086","0.0-43.0","3RU7GD8VPPFE3H57O22SEZW25QZSP7","A1DXGBSF4E3WTI","3OYHVNTV5TKW8EI4DRB99U4E79NKOA","","null","<img src=""img/animal4.png"" style=""width:200px;border:14px solid red;"">","null","","","","","",""
"","image-keyboard-response","44","69604","0.0-44.0","3RU7GD8VPPFE3H57O22SEZW25QZSP7","A1DXGBSF4E3WTI","3OYHVNTV5TKW8EI4DRB99U4E79NKOA","","1515.3999998569489","img/animal4.png","75","1516.6000001430511","2","0","1","1,0.7,0,0,1,0.7,0.7,0,1",""
"","html-keyboard-response","45","69951","0.0-45.0","3RU7GD8VPPFE3H57O22SEZW25QZSP7","A1DXGBSF4E3WTI","3OYHVNTV5TKW8EI4DRB99U4E79NKOA","","null","<img src=""img/animal4.png"" style=""width:200px;border:14px solid red;"">","null","","","","","",""
"","image-keyboard-response","46","70572","0.0-46.0","3RU7GD8VPPFE3H57O22SEZW25QZSP7","A1DXGBSF4E3WTI","3OYHVNTV5TKW8EI4DRB99U4E79NKOA","","617.8999998569489","img/animal6.png","76","620.5","3","1","2","1,0.7,0,0,1,0.7,0.7,0,1",""
"","html-keyboard-response","47","70874","0.0-47.0","3RU7GD8VPPFE3H57O22SEZW25QZSP7","A1DXGBSF4E3WTI","3OYHVNTV5TKW8EI4DRB99U4E79NKOA","","null","<img src=""img/animal6.png"" style=""width:200px; border:14px solid green;"">","null","","","","","",""
"","image-keyboard-response","48","73179","0.0-48.0","3RU7GD8VPPFE3H57O22SEZW25QZSP7","A1DXGBSF4E3WTI","3OYHVNTV5TKW8EI4DRB99U4E79NKOA","","2304.2000000476837","img/animal4.png","74","2304.899999856949","1","1","1","1,0.7,0,0,1,0.7,0.7,0,1",""
"","html-keyboard-response","49","73482","0.0-49.0","3RU7GD8VPPFE3H57O22SEZW25QZSP7","A1DXGBSF4E3WTI","3OYHVNTV5TKW8EI4DRB99U4E79NKOA","","null","<img src=""img/animal4.png"" style=""width:200px; border:14px solid green;"">","null","","","","","",""
"","image-keyboard-response","50","74371","0.0-50.0","3RU7GD8VPPFE3H57O22SEZW25QZSP7","A1DXGBSF4E3WTI","3OYHVNTV5TKW8EI4DRB99U4E79NKOA","","888","img/animal2.png","76","888.7999999523163","3","1","3","1,0.7,0,0,1,0.7,0.7,0,1",""
"","html-keyboard-response","51","74673","0.0-51.0","3RU7GD8VPPFE3H57O22SEZW25QZSP7","A1DXGBSF4E3WTI","3OYHVNTV5TKW8EI4DRB99U4E79NKOA","","null","<img src=""img/animal2.png"" style=""width:200px; border:14px solid green;"">","null","","","","","",""
"","image-keyboard-response","52","75258","0.0-52.0","3RU7GD8VPPFE3H57O22SEZW25QZSP7","A1DXGBSF4E3WTI","3OYHVNTV5TKW8EI4DRB99U4E79NKOA","","584.0999999046326","img/animal2.png","76","584.9000000953674","3","1","3","1,0.7,0,0,1,0.7,0.7,0,1",""
"","html-keyboard-response","53","75561","0.0-53.0","3RU7GD8VPPFE3H57O22SEZW25QZSP7","A1DXGBSF4E3WTI","3OYHVNTV5TKW8EI4DRB99U4E79NKOA","","null","<img src=""img/animal2.png"" style=""width:200px; border:14px solid green;"">","null","","","","","",""
"","image-keyboard-response","54","76410","0.0-54.0","3RU7GD8VPPFE3H57O22SEZW25QZSP7","A1DXGBSF4E3WTI","3OYHVNTV5TKW8EI4DRB99U4E79NKOA","","848.3999998569489","img/animal6.png","75","849.1000001430511","2","1","2","1,0.7,0,0,1,0.7,0.7,0,1",""
"","html-keyboard-response","55","76714","0.0-55.0","3RU7GD8VPPFE3H57O22SEZW25QZSP7","A1DXGBSF4E3WTI","3OYHVNTV5TKW8EI4DRB99U4E79NKOA","","null","<img src=""img/animal6.png"" style=""width:200px; border:14px solid green;"">","null","","","","","",""
"","image-keyboard-response","56","77090","0.0-56.0","3RU7GD8VPPFE3H57O22SEZW25QZSP7","A1DXGBSF4E3WTI","3OYHVNTV5TKW8EI4DRB99U4E79NKOA","","374.7000000476837","img/animal6.png","75","376.09999990463257","2","1","2","1,0.7,0,0,1,0.7,0.7,0,1",""
"","html-keyboard-response","57","77393","0.0-57.0","3RU7GD8VPPFE3H57O22SEZW25QZSP7","A1DXGBSF4E3WTI","3OYHVNTV5TKW8EI4DRB99U4E79NKOA","","null","<img src=""img/animal6.png"" style=""width:200px; border:14px solid green;"">","null","","","","","",""
"","image-keyboard-response","58","78086","0.0-58.0","3RU7GD8VPPFE3H57O22SEZW25QZSP7","A1DXGBSF4E3WTI","3OYHVNTV5TKW8EI4DRB99U4E79NKOA","","691.5999999046326","img/animal4.png","74","692.4000000953674","1","1","1","1,0.7,0,0,1,0.7,0.7,0,1",""
"","html-keyboard-response","59","78387","0.0-59.0","3RU7GD8VPPFE3H57O22SEZW25QZSP7","A1DXGBSF4E3WTI","3OYHVNTV5TKW8EI4DRB99U4E79NKOA","","null","<img src=""img/animal4.png"" style=""width:200px; border:14px solid green;"">","null","","","","","",""
"","image-keyboard-response","60","78747","0.0-60.0","3RU7GD8VPPFE3H57O22SEZW25QZSP7","A1DXGBSF4E3WTI","3OYHVNTV5TKW8EI4DRB99U4E79NKOA","","358.90000009536743","img/animal4.png","74","359.59999990463257","1","1","1","1,0.7,0,0,1,0.7,0.7,0,1",""
"","html-keyboard-response","61","79049","0.0-61.0","3RU7GD8VPPFE3H57O22SEZW25QZSP7","A1DXGBSF4E3WTI","3OYHVNTV5TKW8EI4DRB99U4E79NKOA","","null","<img src=""img/animal4.png"" style=""width:200px; border:14px solid green;"">","null","","","","","",""
"","image-keyboard-response","62","79379","0.0-62.0","3RU7GD8VPPFE3H57O22SEZW25QZSP7","A1DXGBSF4E3WTI","3OYHVNTV5TKW8EI4DRB99U4E79NKOA","","329.2000000476837","img/animal4.png","74","330","1","1","1","1,0.7,0,0,1,0.7,0.7,0,1",""
"","html-keyboard-response","63","79681","0.0-63.0","3RU7GD8VPPFE3H57O22SEZW25QZSP7","A1DXGBSF4E3WTI","3OYHVNTV5TKW8EI4DRB99U4E79NKOA","","null","<img src=""img/animal4.png"" style=""width:200px; border:14px solid green;"">","null","","","","","",""
"","image-keyboard-response","64","80041","0.0-64.0","3RU7GD8VPPFE3H57O22SEZW25QZSP7","A1DXGBSF4E3WTI","3OYHVNTV5TKW8EI4DRB99U4E79NKOA","","358.59999990463257","img/animal4.png","74","359.59999990463257","1","1","1","1,0.7,0,0,1,0.7,0.7,0,1",""
"","html-keyboard-response","65","80343","0.0-65.0","3RU7GD8VPPFE3H57O22SEZW25QZSP7","A1DXGBSF4E3WTI","3OYHVNTV5TKW8EI4DRB99U4E79NKOA","","null","<img src=""img/animal4.png"" style=""width:200px; border:14px solid green;"">","null","","","","","",""
"","image-keyboard-response","66","81074","0.0-66.0","3RU7GD8VPPFE3H57O22SEZW25QZSP7","A1DXGBSF4E3WTI","3OYHVNTV5TKW8EI4DRB99U4E79NKOA","","730.2000000476837","img/animal6.png","75","730.8000001907349","2","1","2","1,0.7,0,0,1,0.7,0.7,0,1",""
"","html-keyboard-response","67","81377","0.0-67.0","3RU7GD8VPPFE3H57O22SEZW25QZSP7","A1DXGBSF4E3WTI","3OYHVNTV5TKW8EI4DRB99U4E79NKOA","","null","<img src=""img/animal6.png"" style=""width:200px; border:14px solid green;"">","null","","","","","",""
"","image-keyboard-response","68","81707","0.0-68.0","3RU7GD8VPPFE3H57O22SEZW25QZSP7","A1DXGBSF4E3WTI","3OYHVNTV5TKW8EI4DRB99U4E79NKOA","","329.2000000476837","img/animal6.png","75","329.7999999523163","2","1","2","1,0.7,0,0,1,0.7,0.7,0,1",""
"","html-keyboard-response","69","82010","0.0-69.0","3RU7GD8VPPFE3H57O22SEZW25QZSP7","A1DXGBSF4E3WTI","3OYHVNTV5TKW8EI4DRB99U4E79NKOA","","null","<img src=""img/animal6.png"" style=""width:200px; border:14px solid green;"">","null","","","","","",""
"","image-keyboard-response","70","82273","0.0-70.0","3RU7GD8VPPFE3H57O22SEZW25QZSP7","A1DXGBSF4E3WTI","3OYHVNTV5TKW8EI4DRB99U4E79NKOA","","262.10000014305115","img/animal6.png","75","262.69999980926514","2","1","2","1,0.7,0,0,1,0.7,0.7,0,1",""
"","html-keyboard-response","71","82574","0.0-71.0","3RU7GD8VPPFE3H57O22SEZW25QZSP7","A1DXGBSF4E3WTI","3OYHVNTV5TKW8EI4DRB99U4E79NKOA","","null","<img src=""img/animal6.png"" style=""width:200px; border:14px solid green;"">","null","","","","","",""
"","image-keyboard-response","72","82794","0.0-72.0","3RU7GD8VPPFE3H57O22SEZW25QZSP7","A1DXGBSF4E3WTI","3OYHVNTV5TKW8EI4DRB99U4E79NKOA","","219.5","img/animal4.png","75","220.40000009536743","2","0","1","1,0.7,0,0,1,0.7,0.7,0,1",""
"","html-keyboard-response","73","83097","0.0-73.0","3RU7GD8VPPFE3H57O22SEZW25QZSP7","A1DXGBSF4E3WTI","3OYHVNTV5TKW8EI4DRB99U4E79NKOA","","null","<img src=""img/animal4.png"" style=""width:200px;border:14px solid red;"">","null","","","","","",""
"","image-keyboard-response","74","84022","0.0-74.0","3RU7GD8VPPFE3H57O22SEZW25QZSP7","A1DXGBSF4E3WTI","3OYHVNTV5TKW8EI4DRB99U4E79NKOA","","923.8999998569489","img/animal6.png","75","924.7000000476837","2","1","2","1,0.7,0,0,1,0.7,0.7,0,1",""
"","html-keyboard-response","75","84324","0.0-75.0","3RU7GD8VPPFE3H57O22SEZW25QZSP7","A1DXGBSF4E3WTI","3OYHVNTV5TKW8EI4DRB99U4E79NKOA","","null","<img src=""img/animal6.png"" style=""width:200px; border:14px solid green;"">","null","","","","","",""
"","image-keyboard-response","76","84938","0.0-76.0","3RU7GD8VPPFE3H57O22SEZW25QZSP7","A1DXGBSF4E3WTI","3OYHVNTV5TKW8EI4DRB99U4E79NKOA","","613.2999999523163","img/animal4.png","74","614","1","1","1","1,0.7,0,0,1,0.7,0.7,0,1",""
"","html-keyboard-response","77","85241","0.0-77.0","3RU7GD8VPPFE3H57O22SEZW25QZSP7","A1DXGBSF4E3WTI","3OYHVNTV5TKW8EI4DRB99U4E79NKOA","","null","<img src=""img/animal4.png"" style=""width:200px; border:14px solid green;"">","null","","","","","",""
"","image-keyboard-response","78","85610","0.0-78.0","3RU7GD8VPPFE3H57O22SEZW25QZSP7","A1DXGBSF4E3WTI","3OYHVNTV5TKW8EI4DRB99U4E79NKOA","","368.7999999523163","img/animal4.png","74","369.39999985694885","1","1","1","1,0.7,0,0,1,0.7,0.7,0,1",""
"","html-keyboard-response","79","85914","0.0-79.0","3RU7GD8VPPFE3H57O22SEZW25QZSP7","A1DXGBSF4E3WTI","3OYHVNTV5TKW8EI4DRB99U4E79NKOA","","null","<img src=""img/animal4.png"" style=""width:200px; border:14px solid green;"">","null","","","","","",""
"","image-keyboard-response","80","86539","0.0-80.0","3RU7GD8VPPFE3H57O22SEZW25QZSP7","A1DXGBSF4E3WTI","3OYHVNTV5TKW8EI4DRB99U4E79NKOA","","624.2000000476837","img/animal6.png","75","624.7999999523163","2","1","2","1,0.7,0,0,1,0.7,0.7,0,1",""
"","html-keyboard-response","81","86840","0.0-81.0","3RU7GD8VPPFE3H57O22SEZW25QZSP7","A1DXGBSF4E3WTI","3OYHVNTV5TKW8EI4DRB99U4E79NKOA","","null","<img src=""img/animal6.png"" style=""width:200px; border:14px solid green;"">","null","","","","","",""
"","image-keyboard-response","82","87226","0.0-82.0","3RU7GD8VPPFE3H57O22SEZW25QZSP7","A1DXGBSF4E3WTI","3OYHVNTV5TKW8EI4DRB99U4E79NKOA","","385.2999999523163","img/animal6.png","75","386","2","1","2","1,0.7,0,0,1,0.7,0.7,0,1",""
"","html-keyboard-response","83","87528","0.0-83.0","3RU7GD8VPPFE3H57O22SEZW25QZSP7","A1DXGBSF4E3WTI","3OYHVNTV5TKW8EI4DRB99U4E79NKOA","","null","<img src=""img/animal6.png"" style=""width:200px; border:14px solid green;"">","null","","","","","",""
"","image-keyboard-response","84","88570","0.0-84.0","3RU7GD8VPPFE3H57O22SEZW25QZSP7","A1DXGBSF4E3WTI","3OYHVNTV5TKW8EI4DRB99U4E79NKOA","","1040.7999999523163","img/animal4.png","74","1042","1","1","1","1,0.7,0,0,1,0.7,0.7,0,1",""
"","html-keyboard-response","85","88872","0.0-85.0","3RU7GD8VPPFE3H57O22SEZW25QZSP7","A1DXGBSF4E3WTI","3OYHVNTV5TKW8EI4DRB99U4E79NKOA","","null","<img src=""img/animal4.png"" style=""width:200px; border:14px solid green;"">","null","","","","","",""
"","image-keyboard-response","86","89554","0.0-86.0","3RU7GD8VPPFE3H57O22SEZW25QZSP7","A1DXGBSF4E3WTI","3OYHVNTV5TKW8EI4DRB99U4E79NKOA","","682.2999999523163","img/animal6.png","75","682.8000001907349","2","1","2","1,0.7,0,0,1,0.7,0.7,0,1",""
"","html-keyboard-response","87","89857","0.0-87.0","3RU7GD8VPPFE3H57O22SEZW25QZSP7","A1DXGBSF4E3WTI","3OYHVNTV5TKW8EI4DRB99U4E79NKOA","","null","<img src=""img/animal6.png"" style=""width:200px; border:14px solid green;"">","null","","","","","",""
"","image-keyboard-response","88","90651","0.0-88.0","3RU7GD8VPPFE3H57O22SEZW25QZSP7","A1DXGBSF4E3WTI","3OYHVNTV5TKW8EI4DRB99U4E79NKOA","","791.4000000953674","img/animal2.png","76","793.7000000476837","3","1","3","1,0.7,0,0,1,0.7,0.7,0,1",""
"","html-keyboard-response","89","90952","0.0-89.0","3RU7GD8VPPFE3H57O22SEZW25QZSP7","A1DXGBSF4E3WTI","3OYHVNTV5TKW8EI4DRB99U4E79NKOA","","null","<img src=""img/animal2.png"" style=""width:200px; border:14px solid green;"">","null","","","","","",""
"","image-keyboard-response","90","92234","0.0-90.0","3RU7GD8VPPFE3H57O22SEZW25QZSP7","A1DXGBSF4E3WTI","3OYHVNTV5TKW8EI4DRB99U4E79NKOA","","1281.2999999523163","img/animal4.png","74","1282","1","1","1","1,0.7,0,0,1,0.7,0.7,0,1",""
"","html-keyboard-response","91","92536","0.0-91.0","3RU7GD8VPPFE3H57O22SEZW25QZSP7","A1DXGBSF4E3WTI","3OYHVNTV5TKW8EI4DRB99U4E79NKOA","","null","<img src=""img/animal4.png"" style=""width:200px; border:14px solid green;"">","null","","","","","",""
"","image-keyboard-response","92","93291","0.0-92.0","3RU7GD8VPPFE3H57O22SEZW25QZSP7","A1DXGBSF4E3WTI","3OYHVNTV5TKW8EI4DRB99U4E79NKOA","","753.3999998569489","img/animal6.png","75","754","2","1","2","1,0.7,0,0,1,0.7,0.7,0,1",""
"","html-keyboard-response","93","93592","0.0-93.0","3RU7GD8VPPFE3H57O22SEZW25QZSP7","A1DXGBSF4E3WTI","3OYHVNTV5TKW8EI4DRB99U4E79NKOA","","null","<img src=""img/animal6.png"" style=""width:200px; border:14px solid green;"">","null","","","","","",""
"","image-keyboard-response","94","93948","0.0-94.0","3RU7GD8VPPFE3H57O22SEZW25QZSP7","A1DXGBSF4E3WTI","3OYHVNTV5TKW8EI4DRB99U4E79NKOA","","354.80000019073486","img/animal6.png","75","355.59999990463257","2","1","2","1,0.7,0,0,1,0.7,0.7,0,1",""
"","html-keyboard-response","95","94250","0.0-95.0","3RU7GD8VPPFE3H57O22SEZW25QZSP7","A1DXGBSF4E3WTI","3OYHVNTV5TKW8EI4DRB99U4E79NKOA","","null","<img src=""img/animal6.png"" style=""width:200px; border:14px solid green;"">","null","","","","","",""
"","image-keyboard-response","96","94578","0.0-96.0","3RU7GD8VPPFE3H57O22SEZW25QZSP7","A1DXGBSF4E3WTI","3OYHVNTV5TKW8EI4DRB99U4E79NKOA","","327.2999999523163","img/animal6.png","75","328","2","1","2","1,0.7,0,0,1,0.7,0.7,0,1",""
"","html-keyboard-response","97","94881","0.0-97.0","3RU7GD8VPPFE3H57O22SEZW25QZSP7","A1DXGBSF4E3WTI","3OYHVNTV5TKW8EI4DRB99U4E79NKOA","","null","<img src=""img/animal6.png"" style=""width:200px; border:14px solid green;"">","null","","","","","",""
"","image-keyboard-response","98","95427","0.0-98.0","3RU7GD8VPPFE3H57O22SEZW25QZSP7","A1DXGBSF4E3WTI","3OYHVNTV5TKW8EI4DRB99U4E79NKOA","","544.8999998569489","img/animal2.png","76","545.8999998569489","3","1","3","1,0.7,0,0,1,0.7,0.7,0,1",""
"","html-keyboard-response","99","95732","0.0-99.0","3RU7GD8VPPFE3H57O22SEZW25QZSP7","A1DXGBSF4E3WTI","3OYHVNTV5TKW8EI4DRB99U4E79NKOA","","null","<img src=""img/animal2.png"" style=""width:200px; border:14px solid green;"">","null","","","","","",""
"","image-keyboard-response","100","96083","0.0-100.0","3RU7GD8VPPFE3H57O22SEZW25QZSP7","A1DXGBSF4E3WTI","3OYHVNTV5TKW8EI4DRB99U4E79NKOA","","349.7999999523163","img/animal2.png","76","351.2000000476837","3","1","3","1,0.7,0,0,1,0.7,0.7,0,1",""
"","html-keyboard-response","101","96385","0.0-101.0","3RU7GD8VPPFE3H57O22SEZW25QZSP7","A1DXGBSF4E3WTI","3OYHVNTV5TKW8EI4DRB99U4E79NKOA","","null","<img src=""img/animal2.png"" style=""width:200px; border:14px solid green;"">","null","","","","","",""
"","image-keyboard-response","102","97106","0.0-102.0","3RU7GD8VPPFE3H57O22SEZW25QZSP7","A1DXGBSF4E3WTI","3OYHVNTV5TKW8EI4DRB99U4E79NKOA","","720.5","img/animal4.png","74","721","1","1","1","1,0.7,0,0,1,0.7,0.7,0,1",""
"","html-keyboard-response","103","97408","0.0-103.0","3RU7GD8VPPFE3H57O22SEZW25QZSP7","A1DXGBSF4E3WTI","3OYHVNTV5TKW8EI4DRB99U4E79NKOA","","null","<img src=""img/animal4.png"" style=""width:200px; border:14px solid green;"">","null","","","","","",""
"","image-keyboard-response","104","97883","0.0-104.0","3RU7GD8VPPFE3H57O22SEZW25QZSP7","A1DXGBSF4E3WTI","3OYHVNTV5TKW8EI4DRB99U4E79NKOA","","474.7000000476837","img/animal4.png","74","475.59999990463257","1","1","1","1,0.7,0,0,1,0.7,0.7,0,1",""
"","html-keyboard-response","105","98185","0.0-105.0","3RU7GD8VPPFE3H57O22SEZW25QZSP7","A1DXGBSF4E3WTI","3OYHVNTV5TKW8EI4DRB99U4E79NKOA","","null","<img src=""img/animal4.png"" style=""width:200px; border:14px solid green;"">","null","","","","","",""
"","image-keyboard-response","106","98890","0.0-106.0","3RU7GD8VPPFE3H57O22SEZW25QZSP7","A1DXGBSF4E3WTI","3OYHVNTV5TKW8EI4DRB99U4E79NKOA","","704.0999999046326","img/animal6.png","75","704.7000000476837","2","1","2","1,0.7,0,0,1,0.7,0.7,0,1",""
"","html-keyboard-response","107","99193","0.0-107.0","3RU7GD8VPPFE3H57O22SEZW25QZSP7","A1DXGBSF4E3WTI","3OYHVNTV5TKW8EI4DRB99U4E79NKOA","","null","<img src=""img/animal6.png"" style=""width:200px; border:14px solid green;"">","null","","","","","",""
"","image-keyboard-response","108","99849","0.0-108.0","3RU7GD8VPPFE3H57O22SEZW25QZSP7","A1DXGBSF4E3WTI","3OYHVNTV5TKW8EI4DRB99U4E79NKOA","","654.3999998569489","img/animal2.png","76","655","3","1","3","1,0.7,0,0,1,0.7,0.7,0,1",""
"","html-keyboard-response","109","100152","0.0-109.0","3RU7GD8VPPFE3H57O22SEZW25QZSP7","A1DXGBSF4E3WTI","3OYHVNTV5TKW8EI4DRB99U4E79NKOA","","null","<img src=""img/animal2.png"" style=""width:200px; border:14px solid green;"">","null","","","","","",""
"","image-keyboard-response","110","100515","0.0-110.0","3RU7GD8VPPFE3H57O22SEZW25QZSP7","A1DXGBSF4E3WTI","3OYHVNTV5TKW8EI4DRB99U4E79NKOA","","361.60000014305115","img/animal2.png","76","362.40000009536743","3","1","3","1,0.7,0,0,1,0.7,0.7,0,1",""
"","html-keyboard-response","111","100817","0.0-111.0","3RU7GD8VPPFE3H57O22SEZW25QZSP7","A1DXGBSF4E3WTI","3OYHVNTV5TKW8EI4DRB99U4E79NKOA","","null","<img src=""img/animal2.png"" style=""width:200px; border:14px solid green;"">","null","","","","","",""
"","image-keyboard-response","112","102387","0.0-112.0","3RU7GD8VPPFE3H57O22SEZW25QZSP7","A1DXGBSF4E3WTI","3OYHVNTV5TKW8EI4DRB99U4E79NKOA","","1568.5999999046326","img/animal6.png","75","1569.0999999046326","2","1","2","1,0.7,0,0,1,0.7,0.7,0,1",""
"","html-keyboard-response","113","102688","0.0-113.0","3RU7GD8VPPFE3H57O22SEZW25QZSP7","A1DXGBSF4E3WTI","3OYHVNTV5TKW8EI4DRB99U4E79NKOA","","null","<img src=""img/animal6.png"" style=""width:200px; border:14px solid green;"">","null","","","","","",""
"","image-keyboard-response","114","103050","0.0-114.0","3RU7GD8VPPFE3H57O22SEZW25QZSP7","A1DXGBSF4E3WTI","3OYHVNTV5TKW8EI4DRB99U4E79NKOA","","361.2999999523163","img/animal6.png","75","361.89999985694885","2","1","2","1,0.7,0,0,1,0.7,0.7,0,1",""
"","html-keyboard-response","115","103352","0.0-115.0","3RU7GD8VPPFE3H57O22SEZW25QZSP7","A1DXGBSF4E3WTI","3OYHVNTV5TKW8EI4DRB99U4E79NKOA","","null","<img src=""img/animal6.png"" style=""width:200px; border:14px solid green;"">","null","","","","","",""
"","image-keyboard-response","116","103947","0.0-116.0","3RU7GD8VPPFE3H57O22SEZW25QZSP7","A1DXGBSF4E3WTI","3OYHVNTV5TKW8EI4DRB99U4E79NKOA","","593.1000001430511","img/animal2.png","76","594.6999998092651","3","1","3","1,0.7,0,0,1,0.7,0.7,0,1",""
"","html-keyboard-response","117","104250","0.0-117.0","3RU7GD8VPPFE3H57O22SEZW25QZSP7","A1DXGBSF4E3WTI","3OYHVNTV5TKW8EI4DRB99U4E79NKOA","","null","<img src=""img/animal2.png"" style=""width:200px; border:14px solid green;"">","null","","","","","",""
"","image-keyboard-response","118","105019","0.0-118.0","3RU7GD8VPPFE3H57O22SEZW25QZSP7","A1DXGBSF4E3WTI","3OYHVNTV5TKW8EI4DRB99U4E79NKOA","","767.7000000476837","img/animal6.png","75","768.5","2","1","2","1,0.7,0,0,1,0.7,0.7,0,1",""
"","html-keyboard-response","119","105321","0.0-119.0","3RU7GD8VPPFE3H57O22SEZW25QZSP7","A1DXGBSF4E3WTI","3OYHVNTV5TKW8EI4DRB99U4E79NKOA","","null","<img src=""img/animal6.png"" style=""width:200px; border:14px solid green;"">","null","","","","","",""
"","image-keyboard-response","120","106396","0.0-120.0","3RU7GD8VPPFE3H57O22SEZW25QZSP7","A1DXGBSF4E3WTI","3OYHVNTV5TKW8EI4DRB99U4E79NKOA","","1073.7999999523163","img/animal2.png","76","1074.5","3","1","3","1,0.7,0,0,1,0.7,0.7,0,1",""
"","html-keyboard-response","121","106698","0.0-121.0","3RU7GD8VPPFE3H57O22SEZW25QZSP7","A1DXGBSF4E3WTI","3OYHVNTV5TKW8EI4DRB99U4E79NKOA","","null","<img src=""img/animal2.png"" style=""width:200px; border:14px solid green;"">","null","","","","","",""
"","image-keyboard-response","122","107179","0.0-122.0","3RU7GD8VPPFE3H57O22SEZW25QZSP7","A1DXGBSF4E3WTI","3OYHVNTV5TKW8EI4DRB99U4E79NKOA","","480.60000014305115","img/animal4.png","75","481.19999980926514","2","1","1","1,0.7,0,0,1,0.7,0.7,0,1",""
"","html-keyboard-response","123","107481","0.0-123.0","3RU7GD8VPPFE3H57O22SEZW25QZSP7","A1DXGBSF4E3WTI","3OYHVNTV5TKW8EI4DRB99U4E79NKOA","","null","<img src=""img/animal4.png"" style=""width:200px; border:14px solid green;"">","null","","","","","",""
"","image-keyboard-response","124","109683","0.0-124.0","3RU7GD8VPPFE3H57O22SEZW25QZSP7","A1DXGBSF4E3WTI","3OYHVNTV5TKW8EI4DRB99U4E79NKOA","","2200.2000000476837","img/animal2.png","76","2201","3","1","3","1,0.7,0,0,1,0.7,0.7,0,1",""
"","html-keyboard-response","125","109996","0.0-125.0","3RU7GD8VPPFE3H57O22SEZW25QZSP7","A1DXGBSF4E3WTI","3OYHVNTV5TKW8EI4DRB99U4E79NKOA","","null","<img src=""img/animal2.png"" style=""width:200px; border:14px solid green;"">","null","","","","","",""
"","image-keyboard-response","126","110363","0.0-126.0","3RU7GD8VPPFE3H57O22SEZW25QZSP7","A1DXGBSF4E3WTI","3OYHVNTV5TKW8EI4DRB99U4E79NKOA","","363.2000000476837","img/animal2.png","76","364.39999985694885","3","1","3","1,0.7,0,0,1,0.7,0.7,0,1",""
"","html-keyboard-response","127","110664","0.0-127.0","3RU7GD8VPPFE3H57O22SEZW25QZSP7","A1DXGBSF4E3WTI","3OYHVNTV5TKW8EI4DRB99U4E79NKOA","","null","<img src=""img/animal2.png"" style=""width:200px; border:14px solid green;"">","null","","","","","",""
"","image-keyboard-response","128","111229","0.0-128.0","3RU7GD8VPPFE3H57O22SEZW25QZSP7","A1DXGBSF4E3WTI","3OYHVNTV5TKW8EI4DRB99U4E79NKOA","","563","img/animal4.png","74","564","1","1","1","1,0.7,0,0,1,0.7,0.7,0,1",""
"","html-keyboard-response","129","111531","0.0-129.0","3RU7GD8VPPFE3H57O22SEZW25QZSP7","A1DXGBSF4E3WTI","3OYHVNTV5TKW8EI4DRB99U4E79NKOA","","null","<img src=""img/animal4.png"" style=""width:200px; border:14px solid green;"">","null","","","","","",""
"","image-keyboard-response","130","112123","0.0-130.0","3RU7GD8VPPFE3H57O22SEZW25QZSP7","A1DXGBSF4E3WTI","3OYHVNTV5TKW8EI4DRB99U4E79NKOA","","591","img/animal2.png","76","591.9000000953674","3","1","3","1,0.7,0,0,1,0.7,0.7,0,1",""
"","html-keyboard-response","131","112426","0.0-131.0","3RU7GD8VPPFE3H57O22SEZW25QZSP7","A1DXGBSF4E3WTI","3OYHVNTV5TKW8EI4DRB99U4E79NKOA","","null","<img src=""img/animal2.png"" style=""width:200px; border:14px solid green;"">","null","","","","","",""
"","image-keyboard-response","132","112955","0.0-132.0","3RU7GD8VPPFE3H57O22SEZW25QZSP7","A1DXGBSF4E3WTI","3OYHVNTV5TKW8EI4DRB99U4E79NKOA","","527.9000000953674","img/animal4.png","74","528.8999998569489","1","1","1","1,0.7,0,0,1,0.7,0.7,0,1",""
"","html-keyboard-response","133","113257","0.0-133.0","3RU7GD8VPPFE3H57O22SEZW25QZSP7","A1DXGBSF4E3WTI","3OYHVNTV5TKW8EI4DRB99U4E79NKOA","","null","<img src=""img/animal4.png"" style=""width:200px; border:14px solid green;"">","null","","","","","",""
"","image-keyboard-response","134","113739","0.0-134.0","3RU7GD8VPPFE3H57O22SEZW25QZSP7","A1DXGBSF4E3WTI","3OYHVNTV5TKW8EI4DRB99U4E79NKOA","","477.7999999523163","img/animal4.png","74","481.59999990463257","1","1","1","1,0.7,0,0,1,0.7,0.7,0,1",""
"","html-keyboard-response","135","114040","0.0-135.0","3RU7GD8VPPFE3H57O22SEZW25QZSP7","A1DXGBSF4E3WTI","3OYHVNTV5TKW8EI4DRB99U4E79NKOA","","null","<img src=""img/animal4.png"" style=""width:200px; border:14px solid green;"">","null","","","","","",""
"","image-keyboard-response","136","114402","0.0-136.0","3RU7GD8VPPFE3H57O22SEZW25QZSP7","A1DXGBSF4E3WTI","3OYHVNTV5TKW8EI4DRB99U4E79NKOA","","361.09999990463257","img/animal4.png","74","362.09999990463257","1","1","1","1,0.7,0,0,1,0.7,0.7,0,1",""
"","html-keyboard-response","137","114705","0.0-137.0","3RU7GD8VPPFE3H57O22SEZW25QZSP7","A1DXGBSF4E3WTI","3OYHVNTV5TKW8EI4DRB99U4E79NKOA","","null","<img src=""img/animal4.png"" style=""width:200px; border:14px solid green;"">","null","","","","","",""
"","image-keyboard-response","138","115047","0.0-138.0","3RU7GD8VPPFE3H57O22SEZW25QZSP7","A1DXGBSF4E3WTI","3OYHVNTV5TKW8EI4DRB99U4E79NKOA","","341.09999990463257","img/animal4.png","74","341.7000000476837","1","1","1","1,0.7,0,0,1,0.7,0.7,0,1",""
"","html-keyboard-response","139","115360","0.0-139.0","3RU7GD8VPPFE3H57O22SEZW25QZSP7","A1DXGBSF4E3WTI","3OYHVNTV5TKW8EI4DRB99U4E79NKOA","","null","<img src=""img/animal4.png"" style=""width:200px; border:14px solid green;"">","null","","","","","",""
"","image-keyboard-response","140","115712","0.0-140.0","3RU7GD8VPPFE3H57O22SEZW25QZSP7","A1DXGBSF4E3WTI","3OYHVNTV5TKW8EI4DRB99U4E79NKOA","","350.7999999523163","img/animal4.png","74","352.09999990463257","1","1","1","1,0.7,0,0,1,0.7,0.7,0,1",""
"","html-keyboard-response","141","116014","0.0-141.0","3RU7GD8VPPFE3H57O22SEZW25QZSP7","A1DXGBSF4E3WTI","3OYHVNTV5TKW8EI4DRB99U4E79NKOA","","null","<img src=""img/animal4.png"" style=""width:200px; border:14px solid green;"">","null","","","","","",""
"","image-keyboard-response","142","116706","0.0-142.0","3RU7GD8VPPFE3H57O22SEZW25QZSP7","A1DXGBSF4E3WTI","3OYHVNTV5TKW8EI4DRB99U4E79NKOA","","691.6000001430511","img/animal6.png","75","692.2000000476837","2","1","2","1,0.7,0,0,1,0.7,0.7,0,1",""
"","html-keyboard-response","143","117009","0.0-143.0","3RU7GD8VPPFE3H57O22SEZW25QZSP7","A1DXGBSF4E3WTI","3OYHVNTV5TKW8EI4DRB99U4E79NKOA","","null","<img src=""img/animal6.png"" style=""width:200px; border:14px solid green;"">","null","","","","","",""
"","image-keyboard-response","144","117718","0.0-144.0","3RU7GD8VPPFE3H57O22SEZW25QZSP7","A1DXGBSF4E3WTI","3OYHVNTV5TKW8EI4DRB99U4E79NKOA","","708.3000001907349","img/animal2.png","76","709","3","1","3","1,0.7,0,0,1,0.7,0.7,0,1",""
"","html-keyboard-response","145","118021","0.0-145.0","3RU7GD8VPPFE3H57O22SEZW25QZSP7","A1DXGBSF4E3WTI","3OYHVNTV5TKW8EI4DRB99U4E79NKOA","","null","<img src=""img/animal2.png"" style=""width:200px; border:14px solid green;"">","null","","","","","",""
"","image-keyboard-response","146","118379","0.0-146.0","3RU7GD8VPPFE3H57O22SEZW25QZSP7","A1DXGBSF4E3WTI","3OYHVNTV5TKW8EI4DRB99U4E79NKOA","","356.90000009536743","img/animal2.png","76","357.7000000476837","3","1","3","1,0.7,0,0,1,0.7,0.7,0,1",""
"","html-keyboard-response","147","118681","0.0-147.0","3RU7GD8VPPFE3H57O22SEZW25QZSP7","A1DXGBSF4E3WTI","3OYHVNTV5TKW8EI4DRB99U4E79NKOA","","null","<img src=""img/animal2.png"" style=""width:200px; border:14px solid green;"">","null","","","","","",""
"","image-keyboard-response","148","119012","0.0-148.0","3RU7GD8VPPFE3H57O22SEZW25QZSP7","A1DXGBSF4E3WTI","3OYHVNTV5TKW8EI4DRB99U4E79NKOA","","329.59999990463257","img/animal2.png","76","330.2000000476837","3","1","3","1,0.7,0,0,1,0.7,0.7,0,1",""
"","html-keyboard-response","149","119314","0.0-149.0","3RU7GD8VPPFE3H57O22SEZW25QZSP7","A1DXGBSF4E3WTI","3OYHVNTV5TKW8EI4DRB99U4E79NKOA","","null","<img src=""img/animal2.png"" style=""width:200px; border:14px solid green;"">","null","","","","","",""
"","image-keyboard-response","150","119794","0.0-150.0","3RU7GD8VPPFE3H57O22SEZW25QZSP7","A1DXGBSF4E3WTI","3OYHVNTV5TKW8EI4DRB99U4E79NKOA","","478.89999985694885","img/animal4.png","74","479.59999990463257","1","1","1","1,0.7,0,0,1,0.7,0.7,0,1",""
"","html-keyboard-response","151","120096","0.0-151.0","3RU7GD8VPPFE3H57O22SEZW25QZSP7","A1DXGBSF4E3WTI","3OYHVNTV5TKW8EI4DRB99U4E79NKOA","","null","<img src=""img/animal4.png"" style=""width:200px; border:14px solid green;"">","null","","","","","",""
"","image-keyboard-response","152","120562","0.0-152.0","3RU7GD8VPPFE3H57O22SEZW25QZSP7","A1DXGBSF4E3WTI","3OYHVNTV5TKW8EI4DRB99U4E79NKOA","","465","img/animal2.png","76","465.59999990463257","3","1","3","1,0.7,0,0,1,0.7,0.7,0,1",""
"","html-keyboard-response","153","120864","0.0-153.0","3RU7GD8VPPFE3H57O22SEZW25QZSP7","A1DXGBSF4E3WTI","3OYHVNTV5TKW8EI4DRB99U4E79NKOA","","null","<img src=""img/animal2.png"" style=""width:200px; border:14px solid green;"">","null","","","","","",""
"","image-keyboard-response","154","121227","0.0-154.0","3RU7GD8VPPFE3H57O22SEZW25QZSP7","A1DXGBSF4E3WTI","3OYHVNTV5TKW8EI4DRB99U4E79NKOA","","362.59999990463257","img/animal2.png","76","363.2999999523163","3","1","3","1,0.7,0,0,1,0.7,0.7,0,1",""
"","html-keyboard-response","155","121529","0.0-155.0","3RU7GD8VPPFE3H57O22SEZW25QZSP7","A1DXGBSF4E3WTI","3OYHVNTV5TKW8EI4DRB99U4E79NKOA","","null","<img src=""img/animal2.png"" style=""width:200px; border:14px solid green;"">","null","","","","","",""
"","image-keyboard-response","156","122028","0.0-156.0","3RU7GD8VPPFE3H57O22SEZW25QZSP7","A1DXGBSF4E3WTI","3OYHVNTV5TKW8EI4DRB99U4E79NKOA","","497.89999985694885","img/animal4.png","74","498.60000014305115","1","1","1","1,0.7,0,0,1,0.7,0.7,0,1",""
"","html-keyboard-response","157","122331","0.0-157.0","3RU7GD8VPPFE3H57O22SEZW25QZSP7","A1DXGBSF4E3WTI","3OYHVNTV5TKW8EI4DRB99U4E79NKOA","","null","<img src=""img/animal4.png"" style=""width:200px; border:14px solid green;"">","null","","","","","",""
"","image-keyboard-response","158","123002","0.0-158.0","3RU7GD8VPPFE3H57O22SEZW25QZSP7","A1DXGBSF4E3WTI","3OYHVNTV5TKW8EI4DRB99U4E79NKOA","","670.7000000476837","img/animal6.png","75","671.5","2","1","2","1,0.7,0,0,1,0.7,0.7,0,1",""
"","html-keyboard-response","159","123304","0.0-159.0","3RU7GD8VPPFE3H57O22SEZW25QZSP7","A1DXGBSF4E3WTI","3OYHVNTV5TKW8EI4DRB99U4E79NKOA","","null","<img src=""img/animal6.png"" style=""width:200px; border:14px solid green;"">","null","","","","","",""
"","image-keyboard-response","160","123850","0.0-160.0","3RU7GD8VPPFE3H57O22SEZW25QZSP7","A1DXGBSF4E3WTI","3OYHVNTV5TKW8EI4DRB99U4E79NKOA","","545.2999999523163","img/animal2.png","76","546","3","1","3","1,0.7,0,0,1,0.7,0.7,0,1",""
"","html-keyboard-response","161","124151","0.0-161.0","3RU7GD8VPPFE3H57O22SEZW25QZSP7","A1DXGBSF4E3WTI","3OYHVNTV5TKW8EI4DRB99U4E79NKOA","","null","<img src=""img/animal2.png"" style=""width:200px; border:14px solid green;"">","null","","","","","",""
"","image-keyboard-response","162","124514","0.0-162.0","3RU7GD8VPPFE3H57O22SEZW25QZSP7","A1DXGBSF4E3WTI","3OYHVNTV5TKW8EI4DRB99U4E79NKOA","","362","img/animal2.png","76","362.7000000476837","3","1","3","1,0.7,0,0,1,0.7,0.7,0,1",""
"","html-keyboard-response","163","124816","0.0-163.0","3RU7GD8VPPFE3H57O22SEZW25QZSP7","A1DXGBSF4E3WTI","3OYHVNTV5TKW8EI4DRB99U4E79NKOA","","null","<img src=""img/animal2.png"" style=""width:200px; border:14px solid green;"">","null","","","","","",""
"","image-keyboard-response","164","125195","0.0-164.0","3RU7GD8VPPFE3H57O22SEZW25QZSP7","A1DXGBSF4E3WTI","3OYHVNTV5TKW8EI4DRB99U4E79NKOA","","378.2000000476837","img/animal2.png","76","378.90000009536743","3","1","3","1,0.7,0,0,1,0.7,0.7,0,1",""
"","html-keyboard-response","165","125496","0.0-165.0","3RU7GD8VPPFE3H57O22SEZW25QZSP7","A1DXGBSF4E3WTI","3OYHVNTV5TKW8EI4DRB99U4E79NKOA","","null","<img src=""img/animal2.png"" style=""width:200px; border:14px solid green;"">","null","","","","","",""
"","image-keyboard-response","166","125834","0.0-166.0","3RU7GD8VPPFE3H57O22SEZW25QZSP7","A1DXGBSF4E3WTI","3OYHVNTV5TKW8EI4DRB99U4E79NKOA","","337.2999999523163","img/animal2.png","76","338.2000000476837","3","1","3","1,0.7,0,0,1,0.7,0.7,0,1",""
"","html-keyboard-response","167","126136","0.0-167.0","3RU7GD8VPPFE3H57O22SEZW25QZSP7","A1DXGBSF4E3WTI","3OYHVNTV5TKW8EI4DRB99U4E79NKOA","","null","<img src=""img/animal2.png"" style=""width:200px; border:14px solid green;"">","null","","","","","",""
"","image-keyboard-response","168","126802","0.0-168.0","3RU7GD8VPPFE3H57O22SEZW25QZSP7","A1DXGBSF4E3WTI","3OYHVNTV5TKW8EI4DRB99U4E79NKOA","","664.9000000953674","img/animal4.png","74","665.6000001430511","1","1","1","1,0.7,0,0,1,0.7,0.7,0,1",""
"","html-keyboard-response","169","127109","0.0-169.0","3RU7GD8VPPFE3H57O22SEZW25QZSP7","A1DXGBSF4E3WTI","3OYHVNTV5TKW8EI4DRB99U4E79NKOA","","null","<img src=""img/animal4.png"" style=""width:200px; border:14px solid green;"">","null","","","","","",""
"","image-keyboard-response","170","127483","0.0-170.0","3RU7GD8VPPFE3H57O22SEZW25QZSP7","A1DXGBSF4E3WTI","3OYHVNTV5TKW8EI4DRB99U4E79NKOA","","372.59999990463257","img/animal4.png","74","374.2999999523163","1","1","1","1,0.7,0,0,1,0.7,0.7,0,1",""
"","html-keyboard-response","171","127785","0.0-171.0","3RU7GD8VPPFE3H57O22SEZW25QZSP7","A1DXGBSF4E3WTI","3OYHVNTV5TKW8EI4DRB99U4E79NKOA","","null","<img src=""img/animal4.png"" style=""width:200px; border:14px solid green;"">","null","","","","","",""
"","image-keyboard-response","172","128314","0.0-172.0","3RU7GD8VPPFE3H57O22SEZW25QZSP7","A1DXGBSF4E3WTI","3OYHVNTV5TKW8EI4DRB99U4E79NKOA","","528.2999999523163","img/animal6.png","76","529","3","1","2","1,0.7,0,0,1,0.7,0.7,0,1",""
"","html-keyboard-response","173","128617","0.0-173.0","3RU7GD8VPPFE3H57O22SEZW25QZSP7","A1DXGBSF4E3WTI","3OYHVNTV5TKW8EI4DRB99U4E79NKOA","","null","<img src=""img/animal6.png"" style=""width:200px; border:14px solid green;"">","null","","","","","",""
"","image-keyboard-response","174","129306","0.0-174.0","3RU7GD8VPPFE3H57O22SEZW25QZSP7","A1DXGBSF4E3WTI","3OYHVNTV5TKW8EI4DRB99U4E79NKOA","","688.5","img/animal6.png","75","689","2","1","2","1,0.7,0,0,1,0.7,0.7,0,1",""
"","html-keyboard-response","175","129609","0.0-175.0","3RU7GD8VPPFE3H57O22SEZW25QZSP7","A1DXGBSF4E3WTI","3OYHVNTV5TKW8EI4DRB99U4E79NKOA","","null","<img src=""img/animal6.png"" style=""width:200px; border:14px solid green;"">","null","","","","","",""
"","image-keyboard-response","176","131602","0.0-176.0","3RU7GD8VPPFE3H57O22SEZW25QZSP7","A1DXGBSF4E3WTI","3OYHVNTV5TKW8EI4DRB99U4E79NKOA","","1992.7000000476837","img/animal4.png","74","1993.3000001907349","1","1","1","1,0.7,0,0,1,0.7,0.7,0,1",""
"","html-keyboard-response","177","131904","0.0-177.0","3RU7GD8VPPFE3H57O22SEZW25QZSP7","A1DXGBSF4E3WTI","3OYHVNTV5TKW8EI4DRB99U4E79NKOA","","null","<img src=""img/animal4.png"" style=""width:200px; border:14px solid green;"">","null","","","","","",""
"","image-keyboard-response","178","132522","0.0-178.0","3RU7GD8VPPFE3H57O22SEZW25QZSP7","A1DXGBSF4E3WTI","3OYHVNTV5TKW8EI4DRB99U4E79NKOA","","610.7000000476837","img/animal2.png","76","617.7999999523163","3","1","3","1,0.7,0,0,1,0.7,0.7,0,1",""
"","html-keyboard-response","179","132825","0.0-179.0","3RU7GD8VPPFE3H57O22SEZW25QZSP7","A1DXGBSF4E3WTI","3OYHVNTV5TKW8EI4DRB99U4E79NKOA","","null","<img src=""img/animal2.png"" style=""width:200px; border:14px solid green;"">","null","","","","","",""
"","image-keyboard-response","180","133533","0.0-180.0","3RU7GD8VPPFE3H57O22SEZW25QZSP7","A1DXGBSF4E3WTI","3OYHVNTV5TKW8EI4DRB99U4E79NKOA","","706.7999999523163","img/animal6.png","75","707.4000000953674","2","1","2","1,0.7,0,0,1,0.7,0.7,0,1",""
"","html-keyboard-response","181","133834","0.0-181.0","3RU7GD8VPPFE3H57O22SEZW25QZSP7","A1DXGBSF4E3WTI","3OYHVNTV5TKW8EI4DRB99U4E79NKOA","","null","<img src=""img/animal6.png"" style=""width:200px; border:14px solid green;"">","null","","","","","",""
"","html-keyboard-response","182","144385","0.0-182.0","3RU7GD8VPPFE3H57O22SEZW25QZSP7","A1DXGBSF4E3WTI","3OYHVNTV5TKW8EI4DRB99U4E79NKOA","","","","","","","","","",""
"","image-keyboard-response","183","145362","0.0-183.0","3RU7GD8VPPFE3H57O22SEZW25QZSP7","A1DXGBSF4E3WTI","3OYHVNTV5TKW8EI4DRB99U4E79NKOA","","976.0999999046326","img/animal3.png","74","977","1","1","3","1,0.7,0,1,0.7,0,0.7,0,1",""
"","html-keyboard-response","184","145666","0.0-184.0","3RU7GD8VPPFE3H57O22SEZW25QZSP7","A1DXGBSF4E3WTI","3OYHVNTV5TKW8EI4DRB99U4E79NKOA","","null","<img src=""img/animal3.png"" style=""width:200px; border:14px solid green;"">","null","","","","","",""
"","image-keyboard-response","185","147498","0.0-185.0","3RU7GD8VPPFE3H57O22SEZW25QZSP7","A1DXGBSF4E3WTI","3OYHVNTV5TKW8EI4DRB99U4E79NKOA","","1831.5","img/animal3.png","74","1832.2999999523163","1","1","3","1,0.7,0,1,0.7,0,0.7,0,1",""
"","html-keyboard-response","186","147800","0.0-186.0","3RU7GD8VPPFE3H57O22SEZW25QZSP7","A1DXGBSF4E3WTI","3OYHVNTV5TKW8EI4DRB99U4E79NKOA","","null","<img src=""img/animal3.png"" style=""width:200px; border:14px solid green;"">","null","","","","","",""
"","image-keyboard-response","187","148410","0.0-187.0","3RU7GD8VPPFE3H57O22SEZW25QZSP7","A1DXGBSF4E3WTI","3OYHVNTV5TKW8EI4DRB99U4E79NKOA","","609.7999999523163","img/animal3.png","74","610.6000001430511","1","1","3","1,0.7,0,1,0.7,0,0.7,0,1",""
"","html-keyboard-response","188","148712","0.0-188.0","3RU7GD8VPPFE3H57O22SEZW25QZSP7","A1DXGBSF4E3WTI","3OYHVNTV5TKW8EI4DRB99U4E79NKOA","","null","<img src=""img/animal3.png"" style=""width:200px; border:14px solid green;"">","null","","","","","",""
"","image-keyboard-response","189","150262","0.0-189.0","3RU7GD8VPPFE3H57O22SEZW25QZSP7","A1DXGBSF4E3WTI","3OYHVNTV5TKW8EI4DRB99U4E79NKOA","","1549.2000000476837","img/animal3.png","74","1549.9000000953674","1","0","3","1,0.7,0,1,0.7,0,0.7,0,1",""
"","html-keyboard-response","190","150564","0.0-190.0","3RU7GD8VPPFE3H57O22SEZW25QZSP7","A1DXGBSF4E3WTI","3OYHVNTV5TKW8EI4DRB99U4E79NKOA","","null","<img src=""img/animal3.png"" style=""width:200px;border:14px solid red;"">","null","","","","","",""
"","image-keyboard-response","191","151678","0.0-191.0","3RU7GD8VPPFE3H57O22SEZW25QZSP7","A1DXGBSF4E3WTI","3OYHVNTV5TKW8EI4DRB99U4E79NKOA","","1113.2999999523163","img/animal3.png","74","1114","1","1","3","1,0.7,0,1,0.7,0,0.7,0,1",""
"","html-keyboard-response","192","151988","0.0-192.0","3RU7GD8VPPFE3H57O22SEZW25QZSP7","A1DXGBSF4E3WTI","3OYHVNTV5TKW8EI4DRB99U4E79NKOA","","null","<img src=""img/animal3.png"" style=""width:200px; border:14px solid green;"">","null","","","","","",""
"","image-keyboard-response","193","153475","0.0-193.0","3RU7GD8VPPFE3H57O22SEZW25QZSP7","A1DXGBSF4E3WTI","3OYHVNTV5TKW8EI4DRB99U4E79NKOA","","1485.6000001430511","img/animal1.png","75","1486.5","2","1","1","1,0.7,0,1,0.7,0,0.7,0,1",""
"","html-keyboard-response","194","153783","0.0-194.0","3RU7GD8VPPFE3H57O22SEZW25QZSP7","A1DXGBSF4E3WTI","3OYHVNTV5TKW8EI4DRB99U4E79NKOA","","null","<img src=""img/animal1.png"" style=""width:200px; border:14px solid green;"">","null","","","","","",""
"","image-keyboard-response","195","154618","0.0-195.0","3RU7GD8VPPFE3H57O22SEZW25QZSP7","A1DXGBSF4E3WTI","3OYHVNTV5TKW8EI4DRB99U4E79NKOA","","834.7999999523163","img/animal3.png","74","835.5","1","1","3","1,0.7,0,1,0.7,0,0.7,0,1",""
"","html-keyboard-response","196","154922","0.0-196.0","3RU7GD8VPPFE3H57O22SEZW25QZSP7","A1DXGBSF4E3WTI","3OYHVNTV5TKW8EI4DRB99U4E79NKOA","","null","<img src=""img/animal3.png"" style=""width:200px; border:14px solid green;"">","null","","","","","",""
"","image-keyboard-response","197","156147","0.0-197.0","3RU7GD8VPPFE3H57O22SEZW25QZSP7","A1DXGBSF4E3WTI","3OYHVNTV5TKW8EI4DRB99U4E79NKOA","","1223.7999999523163","img/animal5.png","76","1224.5999999046326","3","0","2","1,0.7,0,1,0.7,0,0.7,0,1",""
"","html-keyboard-response","198","156448","0.0-198.0","3RU7GD8VPPFE3H57O22SEZW25QZSP7","A1DXGBSF4E3WTI","3OYHVNTV5TKW8EI4DRB99U4E79NKOA","","null","<img src=""img/animal5.png"" style=""width:200px;border:14px solid red;"">","null","","","","","",""
"","image-keyboard-response","199","157061","0.0-199.0","3RU7GD8VPPFE3H57O22SEZW25QZSP7","A1DXGBSF4E3WTI","3OYHVNTV5TKW8EI4DRB99U4E79NKOA","","611.7000000476837","img/animal5.png","75","612.3999998569489","2","0","2","1,0.7,0,1,0.7,0,0.7,0,1",""
"","html-keyboard-response","200","157362","0.0-200.0","3RU7GD8VPPFE3H57O22SEZW25QZSP7","A1DXGBSF4E3WTI","3OYHVNTV5TKW8EI4DRB99U4E79NKOA","","null","<img src=""img/animal5.png"" style=""width:200px;border:14px solid red;"">","null","","","","","",""
"","image-keyboard-response","201","159066","0.0-201.0","3RU7GD8VPPFE3H57O22SEZW25QZSP7","A1DXGBSF4E3WTI","3OYHVNTV5TKW8EI4DRB99U4E79NKOA","","1703","img/animal3.png","74","1703.6999998092651","1","1","3","1,0.7,0,1,0.7,0,0.7,0,1",""
"","html-keyboard-response","202","159369","0.0-202.0","3RU7GD8VPPFE3H57O22SEZW25QZSP7","A1DXGBSF4E3WTI","3OYHVNTV5TKW8EI4DRB99U4E79NKOA","","null","<img src=""img/animal3.png"" style=""width:200px; border:14px solid green;"">","null","","","","","",""
"","image-keyboard-response","203","160442","0.0-203.0","3RU7GD8VPPFE3H57O22SEZW25QZSP7","A1DXGBSF4E3WTI","3OYHVNTV5TKW8EI4DRB99U4E79NKOA","","1070.9000000953674","img/animal5.png","75","1071.7000000476837","2","1","2","1,0.7,0,1,0.7,0,0.7,0,1",""
"","html-keyboard-response","204","160745","0.0-204.0","3RU7GD8VPPFE3H57O22SEZW25QZSP7","A1DXGBSF4E3WTI","3OYHVNTV5TKW8EI4DRB99U4E79NKOA","","null","<img src=""img/animal5.png"" style=""width:200px; border:14px solid green;"">","null","","","","","",""
"","image-keyboard-response","205","161650","0.0-205.0","3RU7GD8VPPFE3H57O22SEZW25QZSP7","A1DXGBSF4E3WTI","3OYHVNTV5TKW8EI4DRB99U4E79NKOA","","904.2999999523163","img/animal1.png","76","904.9000000953674","3","0","1","1,0.7,0,1,0.7,0,0.7,0,1",""
"","html-keyboard-response","206","161953","0.0-206.0","3RU7GD8VPPFE3H57O22SEZW25QZSP7","A1DXGBSF4E3WTI","3OYHVNTV5TKW8EI4DRB99U4E79NKOA","","null","<img src=""img/animal1.png"" style=""width:200px;border:14px solid red;"">","null","","","","","",""
"","image-keyboard-response","207","162781","0.0-207.0","3RU7GD8VPPFE3H57O22SEZW25QZSP7","A1DXGBSF4E3WTI","3OYHVNTV5TKW8EI4DRB99U4E79NKOA","","827.3000001907349","img/animal5.png","75","828.1000001430511","2","1","2","1,0.7,0,1,0.7,0,0.7,0,1",""
"","html-keyboard-response","208","163083","0.0-208.0","3RU7GD8VPPFE3H57O22SEZW25QZSP7","A1DXGBSF4E3WTI","3OYHVNTV5TKW8EI4DRB99U4E79NKOA","","null","<img src=""img/animal5.png"" style=""width:200px; border:14px solid green;"">","null","","","","","",""
"","image-keyboard-response","209","163802","0.0-209.0","3RU7GD8VPPFE3H57O22SEZW25QZSP7","A1DXGBSF4E3WTI","3OYHVNTV5TKW8EI4DRB99U4E79NKOA","","718.4000000953674","img/animal3.png","74","719.0999999046326","1","1","3","1,0.7,0,1,0.7,0,0.7,0,1",""
"","html-keyboard-response","210","164106","0.0-210.0","3RU7GD8VPPFE3H57O22SEZW25QZSP7","A1DXGBSF4E3WTI","3OYHVNTV5TKW8EI4DRB99U4E79NKOA","","null","<img src=""img/animal3.png"" style=""width:200px; border:14px solid green;"">","null","","","","","",""
"","image-keyboard-response","211","164778","0.0-211.0","3RU7GD8VPPFE3H57O22SEZW25QZSP7","A1DXGBSF4E3WTI","3OYHVNTV5TKW8EI4DRB99U4E79NKOA","","671.7999999523163","img/animal1.png","75","672.5","2","1","1","1,0.7,0,1,0.7,0,0.7,0,1",""
"","html-keyboard-response","212","165080","0.0-212.0","3RU7GD8VPPFE3H57O22SEZW25QZSP7","A1DXGBSF4E3WTI","3OYHVNTV5TKW8EI4DRB99U4E79NKOA","","null","<img src=""img/animal1.png"" style=""width:200px; border:14px solid green;"">","null","","","","","",""
"","image-keyboard-response","213","165555","0.0-213.0","3RU7GD8VPPFE3H57O22SEZW25QZSP7","A1DXGBSF4E3WTI","3OYHVNTV5TKW8EI4DRB99U4E79NKOA","","474.2000000476837","img/animal1.png","75","474.90000009536743","2","1","1","1,0.7,0,1,0.7,0,0.7,0,1",""
"","html-keyboard-response","214","165862","0.0-214.0","3RU7GD8VPPFE3H57O22SEZW25QZSP7","A1DXGBSF4E3WTI","3OYHVNTV5TKW8EI4DRB99U4E79NKOA","","null","<img src=""img/animal1.png"" style=""width:200px; border:14px solid green;"">","null","","","","","",""
"","image-keyboard-response","215","166276","0.0-215.0","3RU7GD8VPPFE3H57O22SEZW25QZSP7","A1DXGBSF4E3WTI","3OYHVNTV5TKW8EI4DRB99U4E79NKOA","","412.10000014305115","img/animal1.png","75","412.90000009536743","2","1","1","1,0.7,0,1,0.7,0,0.7,0,1",""
"","html-keyboard-response","216","166577","0.0-216.0","3RU7GD8VPPFE3H57O22SEZW25QZSP7","A1DXGBSF4E3WTI","3OYHVNTV5TKW8EI4DRB99U4E79NKOA","","null","<img src=""img/animal1.png"" style=""width:200px; border:14px solid green;"">","null","","","","","",""
"","image-keyboard-response","217","166962","0.0-217.0","3RU7GD8VPPFE3H57O22SEZW25QZSP7","A1DXGBSF4E3WTI","3OYHVNTV5TKW8EI4DRB99U4E79NKOA","","384","img/animal1.png","75","384.69999980926514","2","1","1","1,0.7,0,1,0.7,0,0.7,0,1",""
"","html-keyboard-response","218","167264","0.0-218.0","3RU7GD8VPPFE3H57O22SEZW25QZSP7","A1DXGBSF4E3WTI","3OYHVNTV5TKW8EI4DRB99U4E79NKOA","","null","<img src=""img/animal1.png"" style=""width:200px; border:14px solid green;"">","null","","","","","",""
"","image-keyboard-response","219","167923","0.0-219.0","3RU7GD8VPPFE3H57O22SEZW25QZSP7","A1DXGBSF4E3WTI","3OYHVNTV5TKW8EI4DRB99U4E79NKOA","","657.2000000476837","img/animal5.png","75","657.8999998569489","2","1","2","1,0.7,0,1,0.7,0,0.7,0,1",""
"","html-keyboard-response","220","168225","0.0-220.0","3RU7GD8VPPFE3H57O22SEZW25QZSP7","A1DXGBSF4E3WTI","3OYHVNTV5TKW8EI4DRB99U4E79NKOA","","null","<img src=""img/animal5.png"" style=""width:200px; border:14px solid green;"">","null","","","","","",""
"","image-keyboard-response","221","168892","0.0-221.0","3RU7GD8VPPFE3H57O22SEZW25QZSP7","A1DXGBSF4E3WTI","3OYHVNTV5TKW8EI4DRB99U4E79NKOA","","666.1999998092651","img/animal3.png","74","666.7999999523163","1","1","3","1,0.7,0,1,0.7,0,0.7,0,1",""
"","html-keyboard-response","222","169194","0.0-222.0","3RU7GD8VPPFE3H57O22SEZW25QZSP7","A1DXGBSF4E3WTI","3OYHVNTV5TKW8EI4DRB99U4E79NKOA","","null","<img src=""img/animal3.png"" style=""width:200px; border:14px solid green;"">","null","","","","","",""
"","image-keyboard-response","223","169650","0.0-223.0","3RU7GD8VPPFE3H57O22SEZW25QZSP7","A1DXGBSF4E3WTI","3OYHVNTV5TKW8EI4DRB99U4E79NKOA","","455.39999985694885","img/animal5.png","75","456.09999990463257","2","1","2","1,0.7,0,1,0.7,0,0.7,0,1",""
"","html-keyboard-response","224","169952","0.0-224.0","3RU7GD8VPPFE3H57O22SEZW25QZSP7","A1DXGBSF4E3WTI","3OYHVNTV5TKW8EI4DRB99U4E79NKOA","","null","<img src=""img/animal5.png"" style=""width:200px; border:14px solid green;"">","null","","","","","",""
"","image-keyboard-response","225","170402","0.0-225.0","3RU7GD8VPPFE3H57O22SEZW25QZSP7","A1DXGBSF4E3WTI","3OYHVNTV5TKW8EI4DRB99U4E79NKOA","","448.2000000476837","img/animal3.png","74","449.2999999523163","1","1","3","1,0.7,0,1,0.7,0,0.7,0,1",""
"","html-keyboard-response","226","170705","0.0-226.0","3RU7GD8VPPFE3H57O22SEZW25QZSP7","A1DXGBSF4E3WTI","3OYHVNTV5TKW8EI4DRB99U4E79NKOA","","null","<img src=""img/animal3.png"" style=""width:200px; border:14px solid green;"">","null","","","","","",""
"","image-keyboard-response","227","171203","0.0-227.0","3RU7GD8VPPFE3H57O22SEZW25QZSP7","A1DXGBSF4E3WTI","3OYHVNTV5TKW8EI4DRB99U4E79NKOA","","497.39999985694885","img/animal3.png","74","498.5","1","1","3","1,0.7,0,1,0.7,0,0.7,0,1",""
"","html-keyboard-response","228","171506","0.0-228.0","3RU7GD8VPPFE3H57O22SEZW25QZSP7","A1DXGBSF4E3WTI","3OYHVNTV5TKW8EI4DRB99U4E79NKOA","","null","<img src=""img/animal3.png"" style=""width:200px; border:14px solid green;"">","null","","","","","",""
"","image-keyboard-response","229","171957","0.0-229.0","3RU7GD8VPPFE3H57O22SEZW25QZSP7","A1DXGBSF4E3WTI","3OYHVNTV5TKW8EI4DRB99U4E79NKOA","","450.59999990463257","img/animal1.png","75","451.2999999523163","2","1","1","1,0.7,0,1,0.7,0,0.7,0,1",""
"","html-keyboard-response","230","172260","0.0-230.0","3RU7GD8VPPFE3H57O22SEZW25QZSP7","A1DXGBSF4E3WTI","3OYHVNTV5TKW8EI4DRB99U4E79NKOA","","null","<img src=""img/animal1.png"" style=""width:200px; border:14px solid green;"">","null","","","","","",""
"","image-keyboard-response","231","172682","0.0-231.0","3RU7GD8VPPFE3H57O22SEZW25QZSP7","A1DXGBSF4E3WTI","3OYHVNTV5TKW8EI4DRB99U4E79NKOA","","421.39999985694885","img/animal1.png","75","422","2","1","1","1,0.7,0,1,0.7,0,0.7,0,1",""
"","html-keyboard-response","232","172986","0.0-232.0","3RU7GD8VPPFE3H57O22SEZW25QZSP7","A1DXGBSF4E3WTI","3OYHVNTV5TKW8EI4DRB99U4E79NKOA","","null","<img src=""img/animal1.png"" style=""width:200px; border:14px solid green;"">","null","","","","","",""
"","image-keyboard-response","233","173514","0.0-233.0","3RU7GD8VPPFE3H57O22SEZW25QZSP7","A1DXGBSF4E3WTI","3OYHVNTV5TKW8EI4DRB99U4E79NKOA","","526.9000000953674","img/animal5.png","74","527.9000000953674","1","1","2","1,0.7,0,1,0.7,0,0.7,0,1",""
"","html-keyboard-response","234","173822","0.0-234.0","3RU7GD8VPPFE3H57O22SEZW25QZSP7","A1DXGBSF4E3WTI","3OYHVNTV5TKW8EI4DRB99U4E79NKOA","","null","<img src=""img/animal5.png"" style=""width:200px; border:14px solid green;"">","null","","","","","",""
"","image-keyboard-response","235","176379","0.0-235.0","3RU7GD8VPPFE3H57O22SEZW25QZSP7","A1DXGBSF4E3WTI","3OYHVNTV5TKW8EI4DRB99U4E79NKOA","","2555.100000143051","img/animal1.png","74","2556.5999999046326","1","1","1","1,0.7,0,1,0.7,0,0.7,0,1",""
"","html-keyboard-response","236","176680","0.0-236.0","3RU7GD8VPPFE3H57O22SEZW25QZSP7","A1DXGBSF4E3WTI","3OYHVNTV5TKW8EI4DRB99U4E79NKOA","","null","<img src=""img/animal1.png"" style=""width:200px; border:14px solid green;"">","null","","","","","",""
"","image-keyboard-response","237","177234","0.0-237.0","3RU7GD8VPPFE3H57O22SEZW25QZSP7","A1DXGBSF4E3WTI","3OYHVNTV5TKW8EI4DRB99U4E79NKOA","","553.5","img/animal5.png","75","554","2","0","2","1,0.7,0,1,0.7,0,0.7,0,1",""
"","html-keyboard-response","238","177537","0.0-238.0","3RU7GD8VPPFE3H57O22SEZW25QZSP7","A1DXGBSF4E3WTI","3OYHVNTV5TKW8EI4DRB99U4E79NKOA","","null","<img src=""img/animal5.png"" style=""width:200px;border:14px solid red;"">","null","","","","","",""
"","image-keyboard-response","239","178882","0.0-239.0","3RU7GD8VPPFE3H57O22SEZW25QZSP7","A1DXGBSF4E3WTI","3OYHVNTV5TKW8EI4DRB99U4E79NKOA","","1344","img/animal5.png","75","1344.9000000953674","2","1","2","1,0.7,0,1,0.7,0,0.7,0,1",""
"","html-keyboard-response","240","179185","0.0-240.0","3RU7GD8VPPFE3H57O22SEZW25QZSP7","A1DXGBSF4E3WTI","3OYHVNTV5TKW8EI4DRB99U4E79NKOA","","null","<img src=""img/animal5.png"" style=""width:200px; border:14px solid green;"">","null","","","","","",""
"","image-keyboard-response","241","179923","0.0-241.0","3RU7GD8VPPFE3H57O22SEZW25QZSP7","A1DXGBSF4E3WTI","3OYHVNTV5TKW8EI4DRB99U4E79NKOA","","736.4000000953674","img/animal3.png","74","737.2000000476837","1","0","3","1,0.7,0,1,0.7,0,0.7,0,1",""
"","html-keyboard-response","242","180225","0.0-242.0","3RU7GD8VPPFE3H57O22SEZW25QZSP7","A1DXGBSF4E3WTI","3OYHVNTV5TKW8EI4DRB99U4E79NKOA","","null","<img src=""img/animal3.png"" style=""width:200px;border:14px solid red;"">","null","","","","","",""
"","image-keyboard-response","243","180714","0.0-243.0","3RU7GD8VPPFE3H57O22SEZW25QZSP7","A1DXGBSF4E3WTI","3OYHVNTV5TKW8EI4DRB99U4E79NKOA","","488.10000014305115","img/animal5.png","75","488.80000019073486","2","1","2","1,0.7,0,1,0.7,0,0.7,0,1",""
"","html-keyboard-response","244","181015","0.0-244.0","3RU7GD8VPPFE3H57O22SEZW25QZSP7","A1DXGBSF4E3WTI","3OYHVNTV5TKW8EI4DRB99U4E79NKOA","","null","<img src=""img/animal5.png"" style=""width:200px; border:14px solid green;"">","null","","","","","",""
"","image-keyboard-response","245","181562","0.0-245.0","3RU7GD8VPPFE3H57O22SEZW25QZSP7","A1DXGBSF4E3WTI","3OYHVNTV5TKW8EI4DRB99U4E79NKOA","","546.0999999046326","img/animal3.png","74","546.7000000476837","1","0","3","1,0.7,0,1,0.7,0,0.7,0,1",""
"","html-keyboard-response","246","181872","0.0-246.0","3RU7GD8VPPFE3H57O22SEZW25QZSP7","A1DXGBSF4E3WTI","3OYHVNTV5TKW8EI4DRB99U4E79NKOA","","null","<img src=""img/animal3.png"" style=""width:200px;border:14px solid red;"">","null","","","","","",""
"","image-keyboard-response","247","182819","0.0-247.0","3RU7GD8VPPFE3H57O22SEZW25QZSP7","A1DXGBSF4E3WTI","3OYHVNTV5TKW8EI4DRB99U4E79NKOA","","946.2999999523163","img/animal5.png","75","947.4000000953674","2","0","2","1,0.7,0,1,0.7,0,0.7,0,1",""
"","html-keyboard-response","248","183122","0.0-248.0","3RU7GD8VPPFE3H57O22SEZW25QZSP7","A1DXGBSF4E3WTI","3OYHVNTV5TKW8EI4DRB99U4E79NKOA","","null","<img src=""img/animal5.png"" style=""width:200px;border:14px solid red;"">","null","","","","","",""
"","image-keyboard-response","249","183740","0.0-249.0","3RU7GD8VPPFE3H57O22SEZW25QZSP7","A1DXGBSF4E3WTI","3OYHVNTV5TKW8EI4DRB99U4E79NKOA","","617","img/animal5.png","76","618.0999999046326","3","0","2","1,0.7,0,1,0.7,0,0.7,0,1",""
"","html-keyboard-response","250","184043","0.0-250.0","3RU7GD8VPPFE3H57O22SEZW25QZSP7","A1DXGBSF4E3WTI","3OYHVNTV5TKW8EI4DRB99U4E79NKOA","","null","<img src=""img/animal5.png"" style=""width:200px;border:14px solid red;"">","null","","","","","",""
"","image-keyboard-response","251","184922","0.0-251.0","3RU7GD8VPPFE3H57O22SEZW25QZSP7","A1DXGBSF4E3WTI","3OYHVNTV5TKW8EI4DRB99U4E79NKOA","","879","img/animal3.png","75","879.7999999523163","2","0","3","1,0.7,0,1,0.7,0,0.7,0,1",""
"","html-keyboard-response","252","185225","0.0-252.0","3RU7GD8VPPFE3H57O22SEZW25QZSP7","A1DXGBSF4E3WTI","3OYHVNTV5TKW8EI4DRB99U4E79NKOA","","null","<img src=""img/animal3.png"" style=""width:200px;border:14px solid red;"">","null","","","","","",""
"","image-keyboard-response","253","187267","0.0-253.0","3RU7GD8VPPFE3H57O22SEZW25QZSP7","A1DXGBSF4E3WTI","3OYHVNTV5TKW8EI4DRB99U4E79NKOA","","2040.6000001430511","img/animal1.png","76","2041.3000001907349","3","0","1","1,0.7,0,1,0.7,0,0.7,0,1",""
"","html-keyboard-response","254","187571","0.0-254.0","3RU7GD8VPPFE3H57O22SEZW25QZSP7","A1DXGBSF4E3WTI","3OYHVNTV5TKW8EI4DRB99U4E79NKOA","","null","<img src=""img/animal1.png"" style=""width:200px;border:14px solid red;"">","null","","","","","",""
"","image-keyboard-response","255","188220","0.0-255.0","3RU7GD8VPPFE3H57O22SEZW25QZSP7","A1DXGBSF4E3WTI","3OYHVNTV5TKW8EI4DRB99U4E79NKOA","","647.7999999523163","img/animal3.png","74","648.8999998569489","1","1","3","1,0.7,0,1,0.7,0,0.7,0,1",""
"","html-keyboard-response","256","188522","0.0-256.0","3RU7GD8VPPFE3H57O22SEZW25QZSP7","A1DXGBSF4E3WTI","3OYHVNTV5TKW8EI4DRB99U4E79NKOA","","null","<img src=""img/animal3.png"" style=""width:200px; border:14px solid green;"">","null","","","","","",""
"","image-keyboard-response","257","189442","0.0-257.0","3RU7GD8VPPFE3H57O22SEZW25QZSP7","A1DXGBSF4E3WTI","3OYHVNTV5TKW8EI4DRB99U4E79NKOA","","919.2999999523163","img/animal5.png","75","920.2999999523163","2","1","2","1,0.7,0,1,0.7,0,0.7,0,1",""
"","html-keyboard-response","258","189743","0.0-258.0","3RU7GD8VPPFE3H57O22SEZW25QZSP7","A1DXGBSF4E3WTI","3OYHVNTV5TKW8EI4DRB99U4E79NKOA","","null","<img src=""img/animal5.png"" style=""width:200px; border:14px solid green;"">","null","","","","","",""
"","image-keyboard-response","259","190555","0.0-259.0","3RU7GD8VPPFE3H57O22SEZW25QZSP7","A1DXGBSF4E3WTI","3OYHVNTV5TKW8EI4DRB99U4E79NKOA","","810.5999999046326","img/animal1.png","75","811.5","2","1","1","1,0.7,0,1,0.7,0,0.7,0,1",""
"","html-keyboard-response","260","190857","0.0-260.0","3RU7GD8VPPFE3H57O22SEZW25QZSP7","A1DXGBSF4E3WTI","3OYHVNTV5TKW8EI4DRB99U4E79NKOA","","null","<img src=""img/animal1.png"" style=""width:200px; border:14px solid green;"">","null","","","","","",""
"","image-keyboard-response","261","191362","0.0-261.0","3RU7GD8VPPFE3H57O22SEZW25QZSP7","A1DXGBSF4E3WTI","3OYHVNTV5TKW8EI4DRB99U4E79NKOA","","504.5","img/animal1.png","75","505.10000014305115","2","1","1","1,0.7,0,1,0.7,0,0.7,0,1",""
"","html-keyboard-response","262","191663","0.0-262.0","3RU7GD8VPPFE3H57O22SEZW25QZSP7","A1DXGBSF4E3WTI","3OYHVNTV5TKW8EI4DRB99U4E79NKOA","","null","<img src=""img/animal1.png"" style=""width:200px; border:14px solid green;"">","null","","","","","",""
"","image-keyboard-response","263","192539","0.0-263.0","3RU7GD8VPPFE3H57O22SEZW25QZSP7","A1DXGBSF4E3WTI","3OYHVNTV5TKW8EI4DRB99U4E79NKOA","","874.4000000953674","img/animal5.png","75","875.2000000476837","2","1","2","1,0.7,0,1,0.7,0,0.7,0,1",""
"","html-keyboard-response","264","192840","0.0-264.0","3RU7GD8VPPFE3H57O22SEZW25QZSP7","A1DXGBSF4E3WTI","3OYHVNTV5TKW8EI4DRB99U4E79NKOA","","null","<img src=""img/animal5.png"" style=""width:200px; border:14px solid green;"">","null","","","","","",""
"","image-keyboard-response","265","193458","0.0-265.0","3RU7GD8VPPFE3H57O22SEZW25QZSP7","A1DXGBSF4E3WTI","3OYHVNTV5TKW8EI4DRB99U4E79NKOA","","617.1999998092651","img/animal3.png","74","617.9000000953674","1","0","3","1,0.7,0,1,0.7,0,0.7,0,1",""
"","html-keyboard-response","266","193760","0.0-266.0","3RU7GD8VPPFE3H57O22SEZW25QZSP7","A1DXGBSF4E3WTI","3OYHVNTV5TKW8EI4DRB99U4E79NKOA","","null","<img src=""img/animal3.png"" style=""width:200px;border:14px solid red;"">","null","","","","","",""
"","image-keyboard-response","267","194803","0.0-267.0","3RU7GD8VPPFE3H57O22SEZW25QZSP7","A1DXGBSF4E3WTI","3OYHVNTV5TKW8EI4DRB99U4E79NKOA","","1042.3999998569489","img/animal3.png","76","1043.2000000476837","3","1","3","1,0.7,0,1,0.7,0,0.7,0,1",""
"","html-keyboard-response","268","195113","0.0-268.0","3RU7GD8VPPFE3H57O22SEZW25QZSP7","A1DXGBSF4E3WTI","3OYHVNTV5TKW8EI4DRB99U4E79NKOA","","null","<img src=""img/animal3.png"" style=""width:200px; border:14px solid green;"">","null","","","","","",""
"","image-keyboard-response","269","196210","0.0-269.0","3RU7GD8VPPFE3H57O22SEZW25QZSP7","A1DXGBSF4E3WTI","3OYHVNTV5TKW8EI4DRB99U4E79NKOA","","1096.7000000476837","img/animal5.png","75","1097.5","2","1","2","1,0.7,0,1,0.7,0,0.7,0,1",""
"","html-keyboard-response","270","196512","0.0-270.0","3RU7GD8VPPFE3H57O22SEZW25QZSP7","A1DXGBSF4E3WTI","3OYHVNTV5TKW8EI4DRB99U4E79NKOA","","null","<img src=""img/animal5.png"" style=""width:200px; border:14px solid green;"">","null","","","","","",""
"","image-keyboard-response","271","197106","0.0-271.0","3RU7GD8VPPFE3H57O22SEZW25QZSP7","A1DXGBSF4E3WTI","3OYHVNTV5TKW8EI4DRB99U4E79NKOA","","592.2000000476837","img/animal5.png","75","594.0999999046326","2","1","2","1,0.7,0,1,0.7,0,0.7,0,1",""
"","html-keyboard-response","272","197409","0.0-272.0","3RU7GD8VPPFE3H57O22SEZW25QZSP7","A1DXGBSF4E3WTI","3OYHVNTV5TKW8EI4DRB99U4E79NKOA","","null","<img src=""img/animal5.png"" style=""width:200px; border:14px solid green;"">","null","","","","","",""
"","image-keyboard-response","273","198795","0.0-273.0","3RU7GD8VPPFE3H57O22SEZW25QZSP7","A1DXGBSF4E3WTI","3OYHVNTV5TKW8EI4DRB99U4E79NKOA","","1384.7999999523163","img/animal1.png","76","1385.5","3","0","1","1,0.7,0,1,0.7,0,0.7,0,1",""
"","html-keyboard-response","274","199099","0.0-274.0","3RU7GD8VPPFE3H57O22SEZW25QZSP7","A1DXGBSF4E3WTI","3OYHVNTV5TKW8EI4DRB99U4E79NKOA","","null","<img src=""img/animal1.png"" style=""width:200px;border:14px solid red;"">","null","","","","","",""
"","image-keyboard-response","275","199515","0.0-275.0","3RU7GD8VPPFE3H57O22SEZW25QZSP7","A1DXGBSF4E3WTI","3OYHVNTV5TKW8EI4DRB99U4E79NKOA","","414.40000009536743","img/animal1.png","75","415.5","2","1","1","1,0.7,0,1,0.7,0,0.7,0,1",""
"","html-keyboard-response","276","199818","0.0-276.0","3RU7GD8VPPFE3H57O22SEZW25QZSP7","A1DXGBSF4E3WTI","3OYHVNTV5TKW8EI4DRB99U4E79NKOA","","null","<img src=""img/animal1.png"" style=""width:200px; border:14px solid green;"">","null","","","","","",""
"","image-keyboard-response","277","200355","0.0-277.0","3RU7GD8VPPFE3H57O22SEZW25QZSP7","A1DXGBSF4E3WTI","3OYHVNTV5TKW8EI4DRB99U4E79NKOA","","536","img/animal1.png","75","536.7999999523163","2","0","1","1,0.7,0,1,0.7,0,0.7,0,1",""
"","html-keyboard-response","278","200657","0.0-278.0","3RU7GD8VPPFE3H57O22SEZW25QZSP7","A1DXGBSF4E3WTI","3OYHVNTV5TKW8EI4DRB99U4E79NKOA","","null","<img src=""img/animal1.png"" style=""width:200px;border:14px solid red;"">","null","","","","","",""
"","image-keyboard-response","279","201955","0.0-279.0","3RU7GD8VPPFE3H57O22SEZW25QZSP7","A1DXGBSF4E3WTI","3OYHVNTV5TKW8EI4DRB99U4E79NKOA","","1296.6999998092651","img/animal5.png","75","1297.2999999523163","2","1","2","1,0.7,0,1,0.7,0,0.7,0,1",""
"","html-keyboard-response","280","202256","0.0-280.0","3RU7GD8VPPFE3H57O22SEZW25QZSP7","A1DXGBSF4E3WTI","3OYHVNTV5TKW8EI4DRB99U4E79NKOA","","null","<img src=""img/animal5.png"" style=""width:200px; border:14px solid green;"">","null","","","","","",""
"","image-keyboard-response","281","202619","0.0-281.0","3RU7GD8VPPFE3H57O22SEZW25QZSP7","A1DXGBSF4E3WTI","3OYHVNTV5TKW8EI4DRB99U4E79NKOA","","362.59999990463257","img/animal5.png","75","363.39999985694885","2","1","2","1,0.7,0,1,0.7,0,0.7,0,1",""
"","html-keyboard-response","282","202921","0.0-282.0","3RU7GD8VPPFE3H57O22SEZW25QZSP7","A1DXGBSF4E3WTI","3OYHVNTV5TKW8EI4DRB99U4E79NKOA","","null","<img src=""img/animal5.png"" style=""width:200px; border:14px solid green;"">","null","","","","","",""
"","image-keyboard-response","283","203732","0.0-283.0","3RU7GD8VPPFE3H57O22SEZW25QZSP7","A1DXGBSF4E3WTI","3OYHVNTV5TKW8EI4DRB99U4E79NKOA","","810.5999999046326","img/animal3.png","76","811.3000001907349","3","1","3","1,0.7,0,1,0.7,0,0.7,0,1",""
"","html-keyboard-response","284","204034","0.0-284.0","3RU7GD8VPPFE3H57O22SEZW25QZSP7","A1DXGBSF4E3WTI","3OYHVNTV5TKW8EI4DRB99U4E79NKOA","","null","<img src=""img/animal3.png"" style=""width:200px; border:14px solid green;"">","null","","","","","",""
"","image-keyboard-response","285","204730","0.0-285.0","3RU7GD8VPPFE3H57O22SEZW25QZSP7","A1DXGBSF4E3WTI","3OYHVNTV5TKW8EI4DRB99U4E79NKOA","","695.7999999523163","img/animal5.png","75","696.9000000953674","2","1","2","1,0.7,0,1,0.7,0,0.7,0,1",""
"","html-keyboard-response","286","205033","0.0-286.0","3RU7GD8VPPFE3H57O22SEZW25QZSP7","A1DXGBSF4E3WTI","3OYHVNTV5TKW8EI4DRB99U4E79NKOA","","null","<img src=""img/animal5.png"" style=""width:200px; border:14px solid green;"">","null","","","","","",""
"","image-keyboard-response","287","205621","0.0-287.0","3RU7GD8VPPFE3H57O22SEZW25QZSP7","A1DXGBSF4E3WTI","3OYHVNTV5TKW8EI4DRB99U4E79NKOA","","586.1000001430511","img/animal3.png","76","587","3","1","3","1,0.7,0,1,0.7,0,0.7,0,1",""
"","html-keyboard-response","288","205922","0.0-288.0","3RU7GD8VPPFE3H57O22SEZW25QZSP7","A1DXGBSF4E3WTI","3OYHVNTV5TKW8EI4DRB99U4E79NKOA","","null","<img src=""img/animal3.png"" style=""width:200px; border:14px solid green;"">","null","","","","","",""
"","image-keyboard-response","289","206371","0.0-289.0","3RU7GD8VPPFE3H57O22SEZW25QZSP7","A1DXGBSF4E3WTI","3OYHVNTV5TKW8EI4DRB99U4E79NKOA","","447.5","img/animal3.png","76","448.39999985694885","3","1","3","1,0.7,0,1,0.7,0,0.7,0,1",""
"","html-keyboard-response","290","206672","0.0-290.0","3RU7GD8VPPFE3H57O22SEZW25QZSP7","A1DXGBSF4E3WTI","3OYHVNTV5TKW8EI4DRB99U4E79NKOA","","null","<img src=""img/animal3.png"" style=""width:200px; border:14px solid green;"">","null","","","","","",""
"","image-keyboard-response","291","207251","0.0-291.0","3RU7GD8VPPFE3H57O22SEZW25QZSP7","A1DXGBSF4E3WTI","3OYHVNTV5TKW8EI4DRB99U4E79NKOA","","577.7000000476837","img/animal5.png","75","578.4000000953674","2","0","2","1,0.7,0,1,0.7,0,0.7,0,1",""
"","html-keyboard-response","292","207553","0.0-292.0","3RU7GD8VPPFE3H57O22SEZW25QZSP7","A1DXGBSF4E3WTI","3OYHVNTV5TKW8EI4DRB99U4E79NKOA","","null","<img src=""img/animal5.png"" style=""width:200px;border:14px solid red;"">","null","","","","","",""
"","image-keyboard-response","293","208269","0.0-293.0","3RU7GD8VPPFE3H57O22SEZW25QZSP7","A1DXGBSF4E3WTI","3OYHVNTV5TKW8EI4DRB99U4E79NKOA","","715.2000000476837","img/animal5.png","74","716","1","1","2","1,0.7,0,1,0.7,0,0.7,0,1",""
"","html-keyboard-response","294","208570","0.0-294.0","3RU7GD8VPPFE3H57O22SEZW25QZSP7","A1DXGBSF4E3WTI","3OYHVNTV5TKW8EI4DRB99U4E79NKOA","","null","<img src=""img/animal5.png"" style=""width:200px; border:14px solid green;"">","null","","","","","",""
"","image-keyboard-response","295","210571","0.0-295.0","3RU7GD8VPPFE3H57O22SEZW25QZSP7","A1DXGBSF4E3WTI","3OYHVNTV5TKW8EI4DRB99U4E79NKOA","","2000","img/animal1.png","75","2000.7000000476837","2","1","1","1,0.7,0,1,0.7,0,0.7,0,1",""
"","html-keyboard-response","296","210873","0.0-296.0","3RU7GD8VPPFE3H57O22SEZW25QZSP7","A1DXGBSF4E3WTI","3OYHVNTV5TKW8EI4DRB99U4E79NKOA","","null","<img src=""img/animal1.png"" style=""width:200px; border:14px solid green;"">","null","","","","","",""
"","image-keyboard-response","297","211267","0.0-297.0","3RU7GD8VPPFE3H57O22SEZW25QZSP7","A1DXGBSF4E3WTI","3OYHVNTV5TKW8EI4DRB99U4E79NKOA","","392.5","img/animal1.png","75","393.40000009536743","2","1","1","1,0.7,0,1,0.7,0,0.7,0,1",""
"","html-keyboard-response","298","211569","0.0-298.0","3RU7GD8VPPFE3H57O22SEZW25QZSP7","A1DXGBSF4E3WTI","3OYHVNTV5TKW8EI4DRB99U4E79NKOA","","null","<img src=""img/animal1.png"" style=""width:200px; border:14px solid green;"">","null","","","","","",""
"","image-keyboard-response","299","212058","0.0-299.0","3RU7GD8VPPFE3H57O22SEZW25QZSP7","A1DXGBSF4E3WTI","3OYHVNTV5TKW8EI4DRB99U4E79NKOA","","488.2000000476837","img/animal5.png","74","488.90000009536743","1","1","2","1,0.7,0,1,0.7,0,0.7,0,1",""
"","html-keyboard-response","300","212360","0.0-300.0","3RU7GD8VPPFE3H57O22SEZW25QZSP7","A1DXGBSF4E3WTI","3OYHVNTV5TKW8EI4DRB99U4E79NKOA","","null","<img src=""img/animal5.png"" style=""width:200px; border:14px solid green;"">","null","","","","","",""
"","image-keyboard-response","301","212931","0.0-301.0","3RU7GD8VPPFE3H57O22SEZW25QZSP7","A1DXGBSF4E3WTI","3OYHVNTV5TKW8EI4DRB99U4E79NKOA","","570.5","img/animal1.png","75","571.1000001430511","2","1","1","1,0.7,0,1,0.7,0,0.7,0,1",""
"","html-keyboard-response","302","213233","0.0-302.0","3RU7GD8VPPFE3H57O22SEZW25QZSP7","A1DXGBSF4E3WTI","3OYHVNTV5TKW8EI4DRB99U4E79NKOA","","null","<img src=""img/animal1.png"" style=""width:200px; border:14px solid green;"">","null","","","","","",""
"","image-keyboard-response","303","214010","0.0-303.0","3RU7GD8VPPFE3H57O22SEZW25QZSP7","A1DXGBSF4E3WTI","3OYHVNTV5TKW8EI4DRB99U4E79NKOA","","775.7999999523163","img/animal3.png","76","776.8000001907349","3","1","3","1,0.7,0,1,0.7,0,0.7,0,1",""
"","html-keyboard-response","304","214312","0.0-304.0","3RU7GD8VPPFE3H57O22SEZW25QZSP7","A1DXGBSF4E3WTI","3OYHVNTV5TKW8EI4DRB99U4E79NKOA","","null","<img src=""img/animal3.png"" style=""width:200px; border:14px solid green;"">","null","","","","","",""
"","image-keyboard-response","305","214699","0.0-305.0","3RU7GD8VPPFE3H57O22SEZW25QZSP7","A1DXGBSF4E3WTI","3OYHVNTV5TKW8EI4DRB99U4E79NKOA","","385.2999999523163","img/animal3.png","76","387.2000000476837","3","1","3","1,0.7,0,1,0.7,0,0.7,0,1",""
"","html-keyboard-response","306","215003","0.0-306.0","3RU7GD8VPPFE3H57O22SEZW25QZSP7","A1DXGBSF4E3WTI","3OYHVNTV5TKW8EI4DRB99U4E79NKOA","","null","<img src=""img/animal3.png"" style=""width:200px; border:14px solid green;"">","null","","","","","",""
"","image-keyboard-response","307","216154","0.0-307.0","3RU7GD8VPPFE3H57O22SEZW25QZSP7","A1DXGBSF4E3WTI","3OYHVNTV5TKW8EI4DRB99U4E79NKOA","","1150.5","img/animal5.png","74","1151.2999999523163","1","1","2","1,0.7,0,1,0.7,0,0.7,0,1",""
"","html-keyboard-response","308","216456","0.0-308.0","3RU7GD8VPPFE3H57O22SEZW25QZSP7","A1DXGBSF4E3WTI","3OYHVNTV5TKW8EI4DRB99U4E79NKOA","","null","<img src=""img/animal5.png"" style=""width:200px; border:14px solid green;"">","null","","","","","",""
"","image-keyboard-response","309","217235","0.0-309.0","3RU7GD8VPPFE3H57O22SEZW25QZSP7","A1DXGBSF4E3WTI","3OYHVNTV5TKW8EI4DRB99U4E79NKOA","","778.1000001430511","img/animal1.png","75","778.7999999523163","2","1","1","1,0.7,0,1,0.7,0,0.7,0,1",""
"","html-keyboard-response","310","217536","0.0-310.0","3RU7GD8VPPFE3H57O22SEZW25QZSP7","A1DXGBSF4E3WTI","3OYHVNTV5TKW8EI4DRB99U4E79NKOA","","null","<img src=""img/animal1.png"" style=""width:200px; border:14px solid green;"">","null","","","","","",""
"","image-keyboard-response","311","218787","0.0-311.0","3RU7GD8VPPFE3H57O22SEZW25QZSP7","A1DXGBSF4E3WTI","3OYHVNTV5TKW8EI4DRB99U4E79NKOA","","1249.4000000953674","img/animal5.png","74","1250.1000001430511","1","1","2","1,0.7,0,1,0.7,0,0.7,0,1",""
"","html-keyboard-response","312","219088","0.0-312.0","3RU7GD8VPPFE3H57O22SEZW25QZSP7","A1DXGBSF4E3WTI","3OYHVNTV5TKW8EI4DRB99U4E79NKOA","","null","<img src=""img/animal5.png"" style=""width:200px; border:14px solid green;"">","null","","","","","",""
"","image-keyboard-response","313","220315","0.0-313.0","3RU7GD8VPPFE3H57O22SEZW25QZSP7","A1DXGBSF4E3WTI","3OYHVNTV5TKW8EI4DRB99U4E79NKOA","","1226.0999999046326","img/animal1.png","75","1226.7000000476837","2","1","1","1,0.7,0,1,0.7,0,0.7,0,1",""
"","html-keyboard-response","314","220618","0.0-314.0","3RU7GD8VPPFE3H57O22SEZW25QZSP7","A1DXGBSF4E3WTI","3OYHVNTV5TKW8EI4DRB99U4E79NKOA","","null","<img src=""img/animal1.png"" style=""width:200px; border:14px solid green;"">","null","","","","","",""
"","image-keyboard-response","315","221627","0.0-315.0","3RU7GD8VPPFE3H57O22SEZW25QZSP7","A1DXGBSF4E3WTI","3OYHVNTV5TKW8EI4DRB99U4E79NKOA","","1007.5","img/animal5.png","74","1008.2999999523163","1","1","2","1,0.7,0,1,0.7,0,0.7,0,1",""
"","html-keyboard-response","316","221933","0.0-316.0","3RU7GD8VPPFE3H57O22SEZW25QZSP7","A1DXGBSF4E3WTI","3OYHVNTV5TKW8EI4DRB99U4E79NKOA","","null","<img src=""img/animal5.png"" style=""width:200px; border:14px solid green;"">","null","","","","","",""
"","image-keyboard-response","317","222515","0.0-317.0","3RU7GD8VPPFE3H57O22SEZW25QZSP7","A1DXGBSF4E3WTI","3OYHVNTV5TKW8EI4DRB99U4E79NKOA","","581","img/animal1.png","75","582.2999999523163","2","1","1","1,0.7,0,1,0.7,0,0.7,0,1",""
"","html-keyboard-response","318","222818","0.0-318.0","3RU7GD8VPPFE3H57O22SEZW25QZSP7","A1DXGBSF4E3WTI","3OYHVNTV5TKW8EI4DRB99U4E79NKOA","","null","<img src=""img/animal1.png"" style=""width:200px; border:14px solid green;"">","null","","","","","",""
"","image-keyboard-response","319","223587","0.0-319.0","3RU7GD8VPPFE3H57O22SEZW25QZSP7","A1DXGBSF4E3WTI","3OYHVNTV5TKW8EI4DRB99U4E79NKOA","","768.0999999046326","img/animal3.png","76","768.8999998569489","3","1","3","1,0.7,0,1,0.7,0,0.7,0,1",""
"","html-keyboard-response","320","223897","0.0-320.0","3RU7GD8VPPFE3H57O22SEZW25QZSP7","A1DXGBSF4E3WTI","3OYHVNTV5TKW8EI4DRB99U4E79NKOA","","null","<img src=""img/animal3.png"" style=""width:200px; border:14px solid green;"">","null","","","","","",""
"","image-keyboard-response","321","224483","0.0-321.0","3RU7GD8VPPFE3H57O22SEZW25QZSP7","A1DXGBSF4E3WTI","3OYHVNTV5TKW8EI4DRB99U4E79NKOA","","585.2999999523163","img/animal5.png","74","586.2000000476837","1","1","2","1,0.7,0,1,0.7,0,0.7,0,1",""
"","html-keyboard-response","322","224785","0.0-322.0","3RU7GD8VPPFE3H57O22SEZW25QZSP7","A1DXGBSF4E3WTI","3OYHVNTV5TKW8EI4DRB99U4E79NKOA","","null","<img src=""img/animal5.png"" style=""width:200px; border:14px solid green;"">","null","","","","","",""
"","image-keyboard-response","323","225267","0.0-323.0","3RU7GD8VPPFE3H57O22SEZW25QZSP7","A1DXGBSF4E3WTI","3OYHVNTV5TKW8EI4DRB99U4E79NKOA","","480.90000009536743","img/animal1.png","75","481.89999985694885","2","1","1","1,0.7,0,1,0.7,0,0.7,0,1",""
"","html-keyboard-response","324","225568","0.0-324.0","3RU7GD8VPPFE3H57O22SEZW25QZSP7","A1DXGBSF4E3WTI","3OYHVNTV5TKW8EI4DRB99U4E79NKOA","","null","<img src=""img/animal1.png"" style=""width:200px; border:14px solid green;"">","null","","","","","",""
"","image-keyboard-response","325","226100","0.0-325.0","3RU7GD8VPPFE3H57O22SEZW25QZSP7","A1DXGBSF4E3WTI","3OYHVNTV5TKW8EI4DRB99U4E79NKOA","","530.6000001430511","img/animal3.png","76","531.4000000953674","3","1","3","1,0.7,0,1,0.7,0,0.7,0,1",""
"","html-keyboard-response","326","226402","0.0-326.0","3RU7GD8VPPFE3H57O22SEZW25QZSP7","A1DXGBSF4E3WTI","3OYHVNTV5TKW8EI4DRB99U4E79NKOA","","null","<img src=""img/animal3.png"" style=""width:200px; border:14px solid green;"">","null","","","","","",""
"","image-keyboard-response","327","227119","0.0-327.0","3RU7GD8VPPFE3H57O22SEZW25QZSP7","A1DXGBSF4E3WTI","3OYHVNTV5TKW8EI4DRB99U4E79NKOA","","716.5999999046326","img/animal3.png","76","717.3000001907349","3","1","3","1,0.7,0,1,0.7,0,0.7,0,1",""
"","html-keyboard-response","328","227423","0.0-328.0","3RU7GD8VPPFE3H57O22SEZW25QZSP7","A1DXGBSF4E3WTI","3OYHVNTV5TKW8EI4DRB99U4E79NKOA","","null","<img src=""img/animal3.png"" style=""width:200px; border:14px solid green;"">","null","","","","","",""
"","image-keyboard-response","329","228291","0.0-329.0","3RU7GD8VPPFE3H57O22SEZW25QZSP7","A1DXGBSF4E3WTI","3OYHVNTV5TKW8EI4DRB99U4E79NKOA","","867.2000000476837","img/animal5.png","74","867.8999998569489","1","1","2","1,0.7,0,1,0.7,0,0.7,0,1",""
"","html-keyboard-response","330","228593","0.0-330.0","3RU7GD8VPPFE3H57O22SEZW25QZSP7","A1DXGBSF4E3WTI","3OYHVNTV5TKW8EI4DRB99U4E79NKOA","","null","<img src=""img/animal5.png"" style=""width:200px; border:14px solid green;"">","null","","","","","",""
"","image-keyboard-response","331","229107","0.0-331.0","3RU7GD8VPPFE3H57O22SEZW25QZSP7","A1DXGBSF4E3WTI","3OYHVNTV5TKW8EI4DRB99U4E79NKOA","","513","img/animal1.png","75","513.7000000476837","2","1","1","1,0.7,0,1,0.7,0,0.7,0,1",""
"","html-keyboard-response","332","229408","0.0-332.0","3RU7GD8VPPFE3H57O22SEZW25QZSP7","A1DXGBSF4E3WTI","3OYHVNTV5TKW8EI4DRB99U4E79NKOA","","null","<img src=""img/animal1.png"" style=""width:200px; border:14px solid green;"">","null","","","","","",""
"","image-keyboard-response","333","229818","0.0-333.0","3RU7GD8VPPFE3H57O22SEZW25QZSP7","A1DXGBSF4E3WTI","3OYHVNTV5TKW8EI4DRB99U4E79NKOA","","409.40000009536743","img/animal1.png","75","410.2000000476837","2","1","1","1,0.7,0,1,0.7,0,0.7,0,1",""
"","html-keyboard-response","334","230120","0.0-334.0","3RU7GD8VPPFE3H57O22SEZW25QZSP7","A1DXGBSF4E3WTI","3OYHVNTV5TKW8EI4DRB99U4E79NKOA","","null","<img src=""img/animal1.png"" style=""width:200px; border:14px solid green;"">","null","","","","","",""
"","image-keyboard-response","335","230948","0.0-335.0","3RU7GD8VPPFE3H57O22SEZW25QZSP7","A1DXGBSF4E3WTI","3OYHVNTV5TKW8EI4DRB99U4E79NKOA","","826.5","img/animal3.png","76","827.2000000476837","3","1","3","1,0.7,0,1,0.7,0,0.7,0,1",""
"","html-keyboard-response","336","231249","0.0-336.0","3RU7GD8VPPFE3H57O22SEZW25QZSP7","A1DXGBSF4E3WTI","3OYHVNTV5TKW8EI4DRB99U4E79NKOA","","null","<img src=""img/animal3.png"" style=""width:200px; border:14px solid green;"">","null","","","","","",""
"","image-keyboard-response","337","232859","0.0-337.0","3RU7GD8VPPFE3H57O22SEZW25QZSP7","A1DXGBSF4E3WTI","3OYHVNTV5TKW8EI4DRB99U4E79NKOA","","1608.7999999523163","img/animal1.png","75","1609.5999999046326","2","1","1","1,0.7,0,1,0.7,0,0.7,0,1",""
"","html-keyboard-response","338","233180","0.0-338.0","3RU7GD8VPPFE3H57O22SEZW25QZSP7","A1DXGBSF4E3WTI","3OYHVNTV5TKW8EI4DRB99U4E79NKOA","","null","<img src=""img/animal1.png"" style=""width:200px; border:14px solid green;"">","null","","","","","",""
"","image-keyboard-response","339","233803","0.0-339.0","3RU7GD8VPPFE3H57O22SEZW25QZSP7","A1DXGBSF4E3WTI","3OYHVNTV5TKW8EI4DRB99U4E79NKOA","","621.2000000476837","img/animal1.png","75","622","2","1","1","1,0.7,0,1,0.7,0,0.7,0,1",""
"","html-keyboard-response","340","234109","0.0-340.0","3RU7GD8VPPFE3H57O22SEZW25QZSP7","A1DXGBSF4E3WTI","3OYHVNTV5TKW8EI4DRB99U4E79NKOA","","null","<img src=""img/animal1.png"" style=""width:200px; border:14px solid green;"">","null","","","","","",""
"","image-keyboard-response","341","234899","0.0-341.0","3RU7GD8VPPFE3H57O22SEZW25QZSP7","A1DXGBSF4E3WTI","3OYHVNTV5TKW8EI4DRB99U4E79NKOA","","789.1999998092651","img/animal3.png","76","790","3","1","3","1,0.7,0,1,0.7,0,0.7,0,1",""
"","html-keyboard-response","342","235201","0.0-342.0","3RU7GD8VPPFE3H57O22SEZW25QZSP7","A1DXGBSF4E3WTI","3OYHVNTV5TKW8EI4DRB99U4E79NKOA","","null","<img src=""img/animal3.png"" style=""width:200px; border:14px solid green;"">","null","","","","","",""
"","image-keyboard-response","343","235986","0.0-343.0","3RU7GD8VPPFE3H57O22SEZW25QZSP7","A1DXGBSF4E3WTI","3OYHVNTV5TKW8EI4DRB99U4E79NKOA","","784.5999999046326","img/animal1.png","75","785.2999999523163","2","1","1","1,0.7,0,1,0.7,0,0.7,0,1",""
"","html-keyboard-response","344","236288","0.0-344.0","3RU7GD8VPPFE3H57O22SEZW25QZSP7","A1DXGBSF4E3WTI","3OYHVNTV5TKW8EI4DRB99U4E79NKOA","","null","<img src=""img/animal1.png"" style=""width:200px; border:14px solid green;"">","null","","","","","",""
"","image-keyboard-response","345","237202","0.0-345.0","3RU7GD8VPPFE3H57O22SEZW25QZSP7","A1DXGBSF4E3WTI","3OYHVNTV5TKW8EI4DRB99U4E79NKOA","","913.2000000476837","img/animal5.png","74","913.7999999523163","1","1","2","1,0.7,0,1,0.7,0,0.7,0,1",""
"","html-keyboard-response","346","237505","0.0-346.0","3RU7GD8VPPFE3H57O22SEZW25QZSP7","A1DXGBSF4E3WTI","3OYHVNTV5TKW8EI4DRB99U4E79NKOA","","null","<img src=""img/animal5.png"" style=""width:200px; border:14px solid green;"">","null","","","","","",""
"","image-keyboard-response","347","238139","0.0-347.0","3RU7GD8VPPFE3H57O22SEZW25QZSP7","A1DXGBSF4E3WTI","3OYHVNTV5TKW8EI4DRB99U4E79NKOA","","633.2000000476837","img/animal1.png","75","634","2","1","1","1,0.7,0,1,0.7,0,0.7,0,1",""
"","html-keyboard-response","348","238440","0.0-348.0","3RU7GD8VPPFE3H57O22SEZW25QZSP7","A1DXGBSF4E3WTI","3OYHVNTV5TKW8EI4DRB99U4E79NKOA","","null","<img src=""img/animal1.png"" style=""width:200px; border:14px solid green;"">","null","","","","","",""
"","image-keyboard-response","349","239142","0.0-349.0","3RU7GD8VPPFE3H57O22SEZW25QZSP7","A1DXGBSF4E3WTI","3OYHVNTV5TKW8EI4DRB99U4E79NKOA","","700.8999998569489","img/animal3.png","76","701.5","3","1","3","1,0.7,0,1,0.7,0,0.7,0,1",""
"","html-keyboard-response","350","239445","0.0-350.0","3RU7GD8VPPFE3H57O22SEZW25QZSP7","A1DXGBSF4E3WTI","3OYHVNTV5TKW8EI4DRB99U4E79NKOA","","null","<img src=""img/animal3.png"" style=""width:200px; border:14px solid green;"">","null","","","","","",""
"","image-keyboard-response","351","240890","0.0-351.0","3RU7GD8VPPFE3H57O22SEZW25QZSP7","A1DXGBSF4E3WTI","3OYHVNTV5TKW8EI4DRB99U4E79NKOA","","1444","img/animal5.png","74","1444.7000000476837","1","1","2","1,0.7,0,1,0.7,0,0.7,0,1",""
"","html-keyboard-response","352","241192","0.0-352.0","3RU7GD8VPPFE3H57O22SEZW25QZSP7","A1DXGBSF4E3WTI","3OYHVNTV5TKW8EI4DRB99U4E79NKOA","","null","<img src=""img/animal5.png"" style=""width:200px; border:14px solid green;"">","null","","","","","",""
"","image-keyboard-response","353","242018","0.0-353.0","3RU7GD8VPPFE3H57O22SEZW25QZSP7","A1DXGBSF4E3WTI","3OYHVNTV5TKW8EI4DRB99U4E79NKOA","","824.1000001430511","img/animal1.png","75","825","2","0","1","1,0.7,0,1,0.7,0,0.7,0,1",""
"","html-keyboard-response","354","242320","0.0-354.0","3RU7GD8VPPFE3H57O22SEZW25QZSP7","A1DXGBSF4E3WTI","3OYHVNTV5TKW8EI4DRB99U4E79NKOA","","null","<img src=""img/animal1.png"" style=""width:200px;border:14px solid red;"">","null","","","","","",""
"","image-keyboard-response","355","243450","0.0-355.0","3RU7GD8VPPFE3H57O22SEZW25QZSP7","A1DXGBSF4E3WTI","3OYHVNTV5TKW8EI4DRB99U4E79NKOA","","1129.5","img/animal3.png","76","1130","3","1","3","1,0.7,0,1,0.7,0,0.7,0,1",""
"","html-keyboard-response","356","243752","0.0-356.0","3RU7GD8VPPFE3H57O22SEZW25QZSP7","A1DXGBSF4E3WTI","3OYHVNTV5TKW8EI4DRB99U4E79NKOA","","null","<img src=""img/animal3.png"" style=""width:200px; border:14px solid green;"">","null","","","","","",""
"","image-keyboard-response","357","244707","0.0-357.0","3RU7GD8VPPFE3H57O22SEZW25QZSP7","A1DXGBSF4E3WTI","3OYHVNTV5TKW8EI4DRB99U4E79NKOA","","953.9000000953674","img/animal5.png","74","954.5999999046326","1","1","2","1,0.7,0,1,0.7,0,0.7,0,1",""
"","html-keyboard-response","358","245010","0.0-358.0","3RU7GD8VPPFE3H57O22SEZW25QZSP7","A1DXGBSF4E3WTI","3OYHVNTV5TKW8EI4DRB99U4E79NKOA","","null","<img src=""img/animal5.png"" style=""width:200px; border:14px solid green;"">","null","","","","","",""
"","image-keyboard-response","359","245906","0.0-359.0","3RU7GD8VPPFE3H57O22SEZW25QZSP7","A1DXGBSF4E3WTI","3OYHVNTV5TKW8EI4DRB99U4E79NKOA","","895","img/animal3.png","76","895.7999999523163","3","1","3","1,0.7,0,1,0.7,0,0.7,0,1",""
"","html-keyboard-response","360","246207","0.0-360.0","3RU7GD8VPPFE3H57O22SEZW25QZSP7","A1DXGBSF4E3WTI","3OYHVNTV5TKW8EI4DRB99U4E79NKOA","","null","<img src=""img/animal3.png"" style=""width:200px; border:14px solid green;"">","null","","","","","",""
"","image-keyboard-response","361","247058","0.0-361.0","3RU7GD8VPPFE3H57O22SEZW25QZSP7","A1DXGBSF4E3WTI","3OYHVNTV5TKW8EI4DRB99U4E79NKOA","","850.5","img/animal1.png","75","851.2000000476837","2","0","1","1,0.7,0,1,0.7,0,0.7,0,1",""
"","html-keyboard-response","362","247361","0.0-362.0","3RU7GD8VPPFE3H57O22SEZW25QZSP7","A1DXGBSF4E3WTI","3OYHVNTV5TKW8EI4DRB99U4E79NKOA","","null","<img src=""img/animal1.png"" style=""width:200px;border:14px solid red;"">","null","","","","","",""
"","instructions","363","251123","0.0-363.0","3RU7GD8VPPFE3H57O22SEZW25QZSP7","A1DXGBSF4E3WTI","3OYHVNTV5TKW8EI4DRB99U4E79NKOA","[{""page_index"":0,""viewing_time"":3760.9000000953674}]","3761.2999999523163","","","","","","","",""
"","survey-text","364","256288","0.0-364.0","3RU7GD8VPPFE3H57O22SEZW25QZSP7","A1DXGBSF4E3WTI","3OYHVNTV5TKW8EI4DRB99U4E79NKOA","","5159.800000190735","","","","","","","","{""Q0"":""A1DXGBSF4E3WTI""}"
