"success","trial_type","trial_index","time_elapsed","internal_node_id","assignmentID","mturkID","hitID","view_history","rt","stimulus","key_press","reactionTime","a","r","s","reward_cond","responses"
"true","fullscreen","0","12665","0.0-0.0","3PMBY0YE28PD4D04ARGVD4S5EILC9Q","A1DZMZTXWOM9MR","3KVQ0UJWPX71V463XQYDOZYIDLRW5D","","","","","","","","","",""
"","instructions","1","62535","0.0-1.0","3PMBY0YE28PD4D04ARGVD4S5EILC9Q","A1DZMZTXWOM9MR","3KVQ0UJWPX71V463XQYDOZYIDLRW5D","[{""page_index"":0,""viewing_time"":17132.5},{""page_index"":1,""viewing_time"":5310.70000000298},{""page_index"":2,""viewing_time"":5564.10000000149},{""page_index"":3,""viewing_time"":3181.1999999955297},{""page_index"":4,""viewing_time"":6306.20000000298},{""page_index"":5,""viewing_time"":3142.6999999955297},{""page_index"":6,""viewing_time"":7680.70000000298},{""page_index"":7,""viewing_time"":1551.6000000014901}]","49870.10000000149","","","","","","","",""
"","image-keyboard-response","2","63447","0.0-2.0","3PMBY0YE28PD4D04ARGVD4S5EILC9Q","A1DZMZTXWOM9MR","3KVQ0UJWPX71V463XQYDOZYIDLRW5D","","911","img/animal4.png","74","911.6000000014901","1","1","1","1,0.7,0,0,1,0.7,0.7,0,1",""
"","html-keyboard-response","3","63750","0.0-3.0","3PMBY0YE28PD4D04ARGVD4S5EILC9Q","A1DZMZTXWOM9MR","3KVQ0UJWPX71V463XQYDOZYIDLRW5D","","null","<img src=""img/animal4.png"" style=""width:200px; border:14px solid green;"">","null","","","","","",""
"","image-keyboard-response","4","64448","0.0-4.0","3PMBY0YE28PD4D04ARGVD4S5EILC9Q","A1DZMZTXWOM9MR","3KVQ0UJWPX71V463XQYDOZYIDLRW5D","","697.6000000014901","img/animal2.png","75","698","2","0","3","1,0.7,0,0,1,0.7,0.7,0,1",""
"","html-keyboard-response","5","64750","0.0-5.0","3PMBY0YE28PD4D04ARGVD4S5EILC9Q","A1DZMZTXWOM9MR","3KVQ0UJWPX71V463XQYDOZYIDLRW5D","","null","<img src=""img/animal2.png"" style=""width:200px;border:14px solid red;"">","null","","","","","",""
"","image-keyboard-response","6","65510","0.0-6.0","3PMBY0YE28PD4D04ARGVD4S5EILC9Q","A1DZMZTXWOM9MR","3KVQ0UJWPX71V463XQYDOZYIDLRW5D","","758.2000000029802","img/animal6.png","75","759.2000000029802","2","1","2","1,0.7,0,0,1,0.7,0.7,0,1",""
"","html-keyboard-response","7","65812","0.0-7.0","3PMBY0YE28PD4D04ARGVD4S5EILC9Q","A1DZMZTXWOM9MR","3KVQ0UJWPX71V463XQYDOZYIDLRW5D","","null","<img src=""img/animal6.png"" style=""width:200px; border:14px solid green;"">","null","","","","","",""
"","image-keyboard-response","8","66358","0.0-8.0","3PMBY0YE28PD4D04ARGVD4S5EILC9Q","A1DZMZTXWOM9MR","3KVQ0UJWPX71V463XQYDOZYIDLRW5D","","546.2000000029802","img/animal6.png","75","546.6000000014901","2","1","2","1,0.7,0,0,1,0.7,0.7,0,1",""
"","html-keyboard-response","9","66662","0.0-9.0","3PMBY0YE28PD4D04ARGVD4S5EILC9Q","A1DZMZTXWOM9MR","3KVQ0UJWPX71V463XQYDOZYIDLRW5D","","null","<img src=""img/animal6.png"" style=""width:200px; border:14px solid green;"">","null","","","","","",""
"","image-keyboard-response","10","67281","0.0-10.0","3PMBY0YE28PD4D04ARGVD4S5EILC9Q","A1DZMZTXWOM9MR","3KVQ0UJWPX71V463XQYDOZYIDLRW5D","","618.7000000029802","img/animal4.png","74","619.3000000044703","1","1","1","1,0.7,0,0,1,0.7,0.7,0,1",""
"","html-keyboard-response","11","67589","0.0-11.0","3PMBY0YE28PD4D04ARGVD4S5EILC9Q","A1DZMZTXWOM9MR","3KVQ0UJWPX71V463XQYDOZYIDLRW5D","","null","<img src=""img/animal4.png"" style=""width:200px; border:14px solid green;"">","null","","","","","",""
"","image-keyboard-response","12","68244","0.0-12.0","3PMBY0YE28PD4D04ARGVD4S5EILC9Q","A1DZMZTXWOM9MR","3KVQ0UJWPX71V463XQYDOZYIDLRW5D","","654","img/animal6.png","75","654.7999999970198","2","1","2","1,0.7,0,0,1,0.7,0.7,0,1",""
"","html-keyboard-response","13","68547","0.0-13.0","3PMBY0YE28PD4D04ARGVD4S5EILC9Q","A1DZMZTXWOM9MR","3KVQ0UJWPX71V463XQYDOZYIDLRW5D","","null","<img src=""img/animal6.png"" style=""width:200px; border:14px solid green;"">","null","","","","","",""
"","image-keyboard-response","14","69350","0.0-14.0","3PMBY0YE28PD4D04ARGVD4S5EILC9Q","A1DZMZTXWOM9MR","3KVQ0UJWPX71V463XQYDOZYIDLRW5D","","802.1000000014901","img/animal4.png","74","803","1","1","1","1,0.7,0,0,1,0.7,0.7,0,1",""
"","html-keyboard-response","15","69652","0.0-15.0","3PMBY0YE28PD4D04ARGVD4S5EILC9Q","A1DZMZTXWOM9MR","3KVQ0UJWPX71V463XQYDOZYIDLRW5D","","null","<img src=""img/animal4.png"" style=""width:200px; border:14px solid green;"">","null","","","","","",""
"","image-keyboard-response","16","70020","0.0-16.0","3PMBY0YE28PD4D04ARGVD4S5EILC9Q","A1DZMZTXWOM9MR","3KVQ0UJWPX71V463XQYDOZYIDLRW5D","","368.20000000298023","img/animal4.png","74","368.59999999403954","1","1","1","1,0.7,0,0,1,0.7,0.7,0,1",""
"","html-keyboard-response","17","70322","0.0-17.0","3PMBY0YE28PD4D04ARGVD4S5EILC9Q","A1DZMZTXWOM9MR","3KVQ0UJWPX71V463XQYDOZYIDLRW5D","","null","<img src=""img/animal4.png"" style=""width:200px; border:14px solid green;"">","null","","","","","",""
"","image-keyboard-response","18","70807","0.0-18.0","3PMBY0YE28PD4D04ARGVD4S5EILC9Q","A1DZMZTXWOM9MR","3KVQ0UJWPX71V463XQYDOZYIDLRW5D","","484.8999999985099","img/animal6.png","75","485.30000000447035","2","1","2","1,0.7,0,0,1,0.7,0.7,0,1",""
"","html-keyboard-response","19","71109","0.0-19.0","3PMBY0YE28PD4D04ARGVD4S5EILC9Q","A1DZMZTXWOM9MR","3KVQ0UJWPX71V463XQYDOZYIDLRW5D","","null","<img src=""img/animal6.png"" style=""width:200px; border:14px solid green;"">","null","","","","","",""
"","image-keyboard-response","20","71447","0.0-20.0","3PMBY0YE28PD4D04ARGVD4S5EILC9Q","A1DZMZTXWOM9MR","3KVQ0UJWPX71V463XQYDOZYIDLRW5D","","337.8999999985099","img/animal6.png","75","338.30000000447035","2","1","2","1,0.7,0,0,1,0.7,0.7,0,1",""
"","html-keyboard-response","21","71748","0.0-21.0","3PMBY0YE28PD4D04ARGVD4S5EILC9Q","A1DZMZTXWOM9MR","3KVQ0UJWPX71V463XQYDOZYIDLRW5D","","null","<img src=""img/animal6.png"" style=""width:200px; border:14px solid green;"">","null","","","","","",""
"","image-keyboard-response","22","72300","0.0-22.0","3PMBY0YE28PD4D04ARGVD4S5EILC9Q","A1DZMZTXWOM9MR","3KVQ0UJWPX71V463XQYDOZYIDLRW5D","","551.5","img/animal2.png","76","552","3","1","3","1,0.7,0,0,1,0.7,0.7,0,1",""
"","html-keyboard-response","23","72602","0.0-23.0","3PMBY0YE28PD4D04ARGVD4S5EILC9Q","A1DZMZTXWOM9MR","3KVQ0UJWPX71V463XQYDOZYIDLRW5D","","null","<img src=""img/animal2.png"" style=""width:200px; border:14px solid green;"">","null","","","","","",""
"","image-keyboard-response","24","73318","0.0-24.0","3PMBY0YE28PD4D04ARGVD4S5EILC9Q","A1DZMZTXWOM9MR","3KVQ0UJWPX71V463XQYDOZYIDLRW5D","","714.7999999970198","img/animal4.png","74","715.3000000044703","1","1","1","1,0.7,0,0,1,0.7,0.7,0,1",""
"","html-keyboard-response","25","73621","0.0-25.0","3PMBY0YE28PD4D04ARGVD4S5EILC9Q","A1DZMZTXWOM9MR","3KVQ0UJWPX71V463XQYDOZYIDLRW5D","","null","<img src=""img/animal4.png"" style=""width:200px; border:14px solid green;"">","null","","","","","",""
"","image-keyboard-response","26","74315","0.0-26.0","3PMBY0YE28PD4D04ARGVD4S5EILC9Q","A1DZMZTXWOM9MR","3KVQ0UJWPX71V463XQYDOZYIDLRW5D","","692.5","img/animal2.png","76","693.2999999970198","3","1","3","1,0.7,0,0,1,0.7,0.7,0,1",""
"","html-keyboard-response","27","74617","0.0-27.0","3PMBY0YE28PD4D04ARGVD4S5EILC9Q","A1DZMZTXWOM9MR","3KVQ0UJWPX71V463XQYDOZYIDLRW5D","","null","<img src=""img/animal2.png"" style=""width:200px; border:14px solid green;"">","null","","","","","",""
"","image-keyboard-response","28","75049","0.0-28.0","3PMBY0YE28PD4D04ARGVD4S5EILC9Q","A1DZMZTXWOM9MR","3KVQ0UJWPX71V463XQYDOZYIDLRW5D","","431.8999999985099","img/animal2.png","76","432.30000000447035","3","1","3","1,0.7,0,0,1,0.7,0.7,0,1",""
"","html-keyboard-response","29","75351","0.0-29.0","3PMBY0YE28PD4D04ARGVD4S5EILC9Q","A1DZMZTXWOM9MR","3KVQ0UJWPX71V463XQYDOZYIDLRW5D","","null","<img src=""img/animal2.png"" style=""width:200px; border:14px solid green;"">","null","","","","","",""
"","image-keyboard-response","30","75823","0.0-30.0","3PMBY0YE28PD4D04ARGVD4S5EILC9Q","A1DZMZTXWOM9MR","3KVQ0UJWPX71V463XQYDOZYIDLRW5D","","470.90000000596046","img/animal4.png","74","471.79999999701977","1","1","1","1,0.7,0,0,1,0.7,0.7,0,1",""
"","html-keyboard-response","31","76124","0.0-31.0","3PMBY0YE28PD4D04ARGVD4S5EILC9Q","A1DZMZTXWOM9MR","3KVQ0UJWPX71V463XQYDOZYIDLRW5D","","null","<img src=""img/animal4.png"" style=""width:200px; border:14px solid green;"">","null","","","","","",""
"","image-keyboard-response","32","76662","0.0-32.0","3PMBY0YE28PD4D04ARGVD4S5EILC9Q","A1DZMZTXWOM9MR","3KVQ0UJWPX71V463XQYDOZYIDLRW5D","","537.3999999985099","img/animal6.png","75","538","2","1","2","1,0.7,0,0,1,0.7,0.7,0,1",""
"","html-keyboard-response","33","76963","0.0-33.0","3PMBY0YE28PD4D04ARGVD4S5EILC9Q","A1DZMZTXWOM9MR","3KVQ0UJWPX71V463XQYDOZYIDLRW5D","","null","<img src=""img/animal6.png"" style=""width:200px; border:14px solid green;"">","null","","","","","",""
"","image-keyboard-response","34","77669","0.0-34.0","3PMBY0YE28PD4D04ARGVD4S5EILC9Q","A1DZMZTXWOM9MR","3KVQ0UJWPX71V463XQYDOZYIDLRW5D","","705.2999999970198","img/animal4.png","74","705.5","1","1","1","1,0.7,0,0,1,0.7,0.7,0,1",""
"","html-keyboard-response","35","77970","0.0-35.0","3PMBY0YE28PD4D04ARGVD4S5EILC9Q","A1DZMZTXWOM9MR","3KVQ0UJWPX71V463XQYDOZYIDLRW5D","","null","<img src=""img/animal4.png"" style=""width:200px; border:14px solid green;"">","null","","","","","",""
"","image-keyboard-response","36","78300","0.0-36.0","3PMBY0YE28PD4D04ARGVD4S5EILC9Q","A1DZMZTXWOM9MR","3KVQ0UJWPX71V463XQYDOZYIDLRW5D","","329.8999999985099","img/animal4.png","74","330.5","1","1","1","1,0.7,0,0,1,0.7,0.7,0,1",""
"","html-keyboard-response","37","78603","0.0-37.0","3PMBY0YE28PD4D04ARGVD4S5EILC9Q","A1DZMZTXWOM9MR","3KVQ0UJWPX71V463XQYDOZYIDLRW5D","","null","<img src=""img/animal4.png"" style=""width:200px; border:14px solid green;"">","null","","","","","",""
"","image-keyboard-response","38","79204","0.0-38.0","3PMBY0YE28PD4D04ARGVD4S5EILC9Q","A1DZMZTXWOM9MR","3KVQ0UJWPX71V463XQYDOZYIDLRW5D","","600","img/animal6.png","75","600.5999999940395","2","1","2","1,0.7,0,0,1,0.7,0.7,0,1",""
"","html-keyboard-response","39","79506","0.0-39.0","3PMBY0YE28PD4D04ARGVD4S5EILC9Q","A1DZMZTXWOM9MR","3KVQ0UJWPX71V463XQYDOZYIDLRW5D","","null","<img src=""img/animal6.png"" style=""width:200px; border:14px solid green;"">","null","","","","","",""
"","image-keyboard-response","40","80082","0.0-40.0","3PMBY0YE28PD4D04ARGVD4S5EILC9Q","A1DZMZTXWOM9MR","3KVQ0UJWPX71V463XQYDOZYIDLRW5D","","575","img/animal2.png","76","575.3999999985099","3","1","3","1,0.7,0,0,1,0.7,0.7,0,1",""
"","html-keyboard-response","41","80384","0.0-41.0","3PMBY0YE28PD4D04ARGVD4S5EILC9Q","A1DZMZTXWOM9MR","3KVQ0UJWPX71V463XQYDOZYIDLRW5D","","null","<img src=""img/animal2.png"" style=""width:200px; border:14px solid green;"">","null","","","","","",""
"","image-keyboard-response","42","80733","0.0-42.0","3PMBY0YE28PD4D04ARGVD4S5EILC9Q","A1DZMZTXWOM9MR","3KVQ0UJWPX71V463XQYDOZYIDLRW5D","","348.20000000298023","img/animal2.png","76","348.6000000014901","3","1","3","1,0.7,0,0,1,0.7,0.7,0,1",""
"","html-keyboard-response","43","81034","0.0-43.0","3PMBY0YE28PD4D04ARGVD4S5EILC9Q","A1DZMZTXWOM9MR","3KVQ0UJWPX71V463XQYDOZYIDLRW5D","","null","<img src=""img/animal2.png"" style=""width:200px; border:14px solid green;"">","null","","","","","",""
"","image-keyboard-response","44","81500","0.0-44.0","3PMBY0YE28PD4D04ARGVD4S5EILC9Q","A1DZMZTXWOM9MR","3KVQ0UJWPX71V463XQYDOZYIDLRW5D","","465","img/animal2.png","76","465.40000000596046","3","1","3","1,0.7,0,0,1,0.7,0.7,0,1",""
"","html-keyboard-response","45","81801","0.0-45.0","3PMBY0YE28PD4D04ARGVD4S5EILC9Q","A1DZMZTXWOM9MR","3KVQ0UJWPX71V463XQYDOZYIDLRW5D","","null","<img src=""img/animal2.png"" style=""width:200px; border:14px solid green;"">","null","","","","","",""
"","image-keyboard-response","46","82455","0.0-46.0","3PMBY0YE28PD4D04ARGVD4S5EILC9Q","A1DZMZTXWOM9MR","3KVQ0UJWPX71V463XQYDOZYIDLRW5D","","653.4000000059605","img/animal4.png","74","654.3999999985099","1","1","1","1,0.7,0,0,1,0.7,0.7,0,1",""
"","html-keyboard-response","47","82757","0.0-47.0","3PMBY0YE28PD4D04ARGVD4S5EILC9Q","A1DZMZTXWOM9MR","3KVQ0UJWPX71V463XQYDOZYIDLRW5D","","null","<img src=""img/animal4.png"" style=""width:200px; border:14px solid green;"">","null","","","","","",""
"","image-keyboard-response","48","83336","0.0-48.0","3PMBY0YE28PD4D04ARGVD4S5EILC9Q","A1DZMZTXWOM9MR","3KVQ0UJWPX71V463XQYDOZYIDLRW5D","","578.9000000059605","img/animal2.png","75","579.2999999970198","2","0","3","1,0.7,0,0,1,0.7,0.7,0,1",""
"","html-keyboard-response","49","83638","0.0-49.0","3PMBY0YE28PD4D04ARGVD4S5EILC9Q","A1DZMZTXWOM9MR","3KVQ0UJWPX71V463XQYDOZYIDLRW5D","","null","<img src=""img/animal2.png"" style=""width:200px;border:14px solid red;"">","null","","","","","",""
"","image-keyboard-response","50","83734","0.0-50.0","3PMBY0YE28PD4D04ARGVD4S5EILC9Q","A1DZMZTXWOM9MR","3KVQ0UJWPX71V463XQYDOZYIDLRW5D","","95.60000000149012","img/animal4.png","76","96.10000000149012","3","0","1","1,0.7,0,0,1,0.7,0.7,0,1",""
"","html-keyboard-response","51","84038","0.0-51.0","3PMBY0YE28PD4D04ARGVD4S5EILC9Q","A1DZMZTXWOM9MR","3KVQ0UJWPX71V463XQYDOZYIDLRW5D","","null","<img src=""img/animal4.png"" style=""width:200px;border:14px solid red;"">","null","","","","","",""
"","image-keyboard-response","52","84565","0.0-52.0","3PMBY0YE28PD4D04ARGVD4S5EILC9Q","A1DZMZTXWOM9MR","3KVQ0UJWPX71V463XQYDOZYIDLRW5D","","526.7000000029802","img/animal4.png","74","527.3999999985099","1","1","1","1,0.7,0,0,1,0.7,0.7,0,1",""
"","html-keyboard-response","53","84867","0.0-53.0","3PMBY0YE28PD4D04ARGVD4S5EILC9Q","A1DZMZTXWOM9MR","3KVQ0UJWPX71V463XQYDOZYIDLRW5D","","null","<img src=""img/animal4.png"" style=""width:200px; border:14px solid green;"">","null","","","","","",""
"","image-keyboard-response","54","85450","0.0-54.0","3PMBY0YE28PD4D04ARGVD4S5EILC9Q","A1DZMZTXWOM9MR","3KVQ0UJWPX71V463XQYDOZYIDLRW5D","","582","img/animal2.png","75","582.8999999985099","2","0","3","1,0.7,0,0,1,0.7,0.7,0,1",""
"","html-keyboard-response","55","85752","0.0-55.0","3PMBY0YE28PD4D04ARGVD4S5EILC9Q","A1DZMZTXWOM9MR","3KVQ0UJWPX71V463XQYDOZYIDLRW5D","","null","<img src=""img/animal2.png"" style=""width:200px;border:14px solid red;"">","null","","","","","",""
"","image-keyboard-response","56","85759","0.0-56.0","3PMBY0YE28PD4D04ARGVD4S5EILC9Q","A1DZMZTXWOM9MR","3KVQ0UJWPX71V463XQYDOZYIDLRW5D","","6.100000001490116","img/animal4.png","76","6.800000004470348","3","0","1","1,0.7,0,0,1,0.7,0.7,0,1",""
"","html-keyboard-response","57","86061","0.0-57.0","3PMBY0YE28PD4D04ARGVD4S5EILC9Q","A1DZMZTXWOM9MR","3KVQ0UJWPX71V463XQYDOZYIDLRW5D","","null","<img src=""img/animal4.png"" style=""width:200px;border:14px solid red;"">","null","","","","","",""
"","image-keyboard-response","58","86956","0.0-58.0","3PMBY0YE28PD4D04ARGVD4S5EILC9Q","A1DZMZTXWOM9MR","3KVQ0UJWPX71V463XQYDOZYIDLRW5D","","893.8999999985099","img/animal2.png","76","895","3","1","3","1,0.7,0,0,1,0.7,0.7,0,1",""
"","html-keyboard-response","59","87259","0.0-59.0","3PMBY0YE28PD4D04ARGVD4S5EILC9Q","A1DZMZTXWOM9MR","3KVQ0UJWPX71V463XQYDOZYIDLRW5D","","null","<img src=""img/animal2.png"" style=""width:200px; border:14px solid green;"">","null","","","","","",""
"","image-keyboard-response","60","87891","0.0-60.0","3PMBY0YE28PD4D04ARGVD4S5EILC9Q","A1DZMZTXWOM9MR","3KVQ0UJWPX71V463XQYDOZYIDLRW5D","","631","img/animal6.png","75","631.5999999940395","2","1","2","1,0.7,0,0,1,0.7,0.7,0,1",""
"","html-keyboard-response","61","88200","0.0-61.0","3PMBY0YE28PD4D04ARGVD4S5EILC9Q","A1DZMZTXWOM9MR","3KVQ0UJWPX71V463XQYDOZYIDLRW5D","","null","<img src=""img/animal6.png"" style=""width:200px; border:14px solid green;"">","null","","","","","",""
"","image-keyboard-response","62","88833","0.0-62.0","3PMBY0YE28PD4D04ARGVD4S5EILC9Q","A1DZMZTXWOM9MR","3KVQ0UJWPX71V463XQYDOZYIDLRW5D","","632.6000000014901","img/animal2.png","76","633.1000000014901","3","1","3","1,0.7,0,0,1,0.7,0.7,0,1",""
"","html-keyboard-response","63","89133","0.0-63.0","3PMBY0YE28PD4D04ARGVD4S5EILC9Q","A1DZMZTXWOM9MR","3KVQ0UJWPX71V463XQYDOZYIDLRW5D","","null","<img src=""img/animal2.png"" style=""width:200px; border:14px solid green;"">","null","","","","","",""
"","image-keyboard-response","64","89831","0.0-64.0","3PMBY0YE28PD4D04ARGVD4S5EILC9Q","A1DZMZTXWOM9MR","3KVQ0UJWPX71V463XQYDOZYIDLRW5D","","697.0999999940395","img/animal4.png","74","697.6000000014901","1","1","1","1,0.7,0,0,1,0.7,0.7,0,1",""
"","html-keyboard-response","65","90132","0.0-65.0","3PMBY0YE28PD4D04ARGVD4S5EILC9Q","A1DZMZTXWOM9MR","3KVQ0UJWPX71V463XQYDOZYIDLRW5D","","null","<img src=""img/animal4.png"" style=""width:200px; border:14px solid green;"">","null","","","","","",""
"","image-keyboard-response","66","90743","0.0-66.0","3PMBY0YE28PD4D04ARGVD4S5EILC9Q","A1DZMZTXWOM9MR","3KVQ0UJWPX71V463XQYDOZYIDLRW5D","","610","img/animal2.png","76","610.5999999940395","3","1","3","1,0.7,0,0,1,0.7,0.7,0,1",""
"","html-keyboard-response","67","91045","0.0-67.0","3PMBY0YE28PD4D04ARGVD4S5EILC9Q","A1DZMZTXWOM9MR","3KVQ0UJWPX71V463XQYDOZYIDLRW5D","","null","<img src=""img/animal2.png"" style=""width:200px; border:14px solid green;"">","null","","","","","",""
"","image-keyboard-response","68","91614","0.0-68.0","3PMBY0YE28PD4D04ARGVD4S5EILC9Q","A1DZMZTXWOM9MR","3KVQ0UJWPX71V463XQYDOZYIDLRW5D","","569.3000000044703","img/animal4.png","74","569.6999999955297","1","1","1","1,0.7,0,0,1,0.7,0.7,0,1",""
"","html-keyboard-response","69","91916","0.0-69.0","3PMBY0YE28PD4D04ARGVD4S5EILC9Q","A1DZMZTXWOM9MR","3KVQ0UJWPX71V463XQYDOZYIDLRW5D","","null","<img src=""img/animal4.png"" style=""width:200px; border:14px solid green;"">","null","","","","","",""
"","image-keyboard-response","70","92479","0.0-70.0","3PMBY0YE28PD4D04ARGVD4S5EILC9Q","A1DZMZTXWOM9MR","3KVQ0UJWPX71V463XQYDOZYIDLRW5D","","562.8999999985099","img/animal2.png","76","563.3000000044703","3","1","3","1,0.7,0,0,1,0.7,0.7,0,1",""
"","html-keyboard-response","71","92781","0.0-71.0","3PMBY0YE28PD4D04ARGVD4S5EILC9Q","A1DZMZTXWOM9MR","3KVQ0UJWPX71V463XQYDOZYIDLRW5D","","null","<img src=""img/animal2.png"" style=""width:200px; border:14px solid green;"">","null","","","","","",""
"","image-keyboard-response","72","93336","0.0-72.0","3PMBY0YE28PD4D04ARGVD4S5EILC9Q","A1DZMZTXWOM9MR","3KVQ0UJWPX71V463XQYDOZYIDLRW5D","","554.3999999985099","img/animal2.png","76","554.8000000044703","3","1","3","1,0.7,0,0,1,0.7,0.7,0,1",""
"","html-keyboard-response","73","93637","0.0-73.0","3PMBY0YE28PD4D04ARGVD4S5EILC9Q","A1DZMZTXWOM9MR","3KVQ0UJWPX71V463XQYDOZYIDLRW5D","","null","<img src=""img/animal2.png"" style=""width:200px; border:14px solid green;"">","null","","","","","",""
"","image-keyboard-response","74","94290","0.0-74.0","3PMBY0YE28PD4D04ARGVD4S5EILC9Q","A1DZMZTXWOM9MR","3KVQ0UJWPX71V463XQYDOZYIDLRW5D","","651.6999999955297","img/animal6.png","75","652.3000000044703","2","1","2","1,0.7,0,0,1,0.7,0.7,0,1",""
"","html-keyboard-response","75","94592","0.0-75.0","3PMBY0YE28PD4D04ARGVD4S5EILC9Q","A1DZMZTXWOM9MR","3KVQ0UJWPX71V463XQYDOZYIDLRW5D","","null","<img src=""img/animal6.png"" style=""width:200px; border:14px solid green;"">","null","","","","","",""
"","image-keyboard-response","76","95215","0.0-76.0","3PMBY0YE28PD4D04ARGVD4S5EILC9Q","A1DZMZTXWOM9MR","3KVQ0UJWPX71V463XQYDOZYIDLRW5D","","622.7000000029802","img/animal2.png","76","623.1999999955297","3","1","3","1,0.7,0,0,1,0.7,0.7,0,1",""
"","html-keyboard-response","77","95517","0.0-77.0","3PMBY0YE28PD4D04ARGVD4S5EILC9Q","A1DZMZTXWOM9MR","3KVQ0UJWPX71V463XQYDOZYIDLRW5D","","null","<img src=""img/animal2.png"" style=""width:200px; border:14px solid green;"">","null","","","","","",""
"","image-keyboard-response","78","95950","0.0-78.0","3PMBY0YE28PD4D04ARGVD4S5EILC9Q","A1DZMZTXWOM9MR","3KVQ0UJWPX71V463XQYDOZYIDLRW5D","","432.19999999552965","img/animal2.png","76","432.3999999985099","3","1","3","1,0.7,0,0,1,0.7,0.7,0,1",""
"","html-keyboard-response","79","96251","0.0-79.0","3PMBY0YE28PD4D04ARGVD4S5EILC9Q","A1DZMZTXWOM9MR","3KVQ0UJWPX71V463XQYDOZYIDLRW5D","","null","<img src=""img/animal2.png"" style=""width:200px; border:14px solid green;"">","null","","","","","",""
"","image-keyboard-response","80","96817","0.0-80.0","3PMBY0YE28PD4D04ARGVD4S5EILC9Q","A1DZMZTXWOM9MR","3KVQ0UJWPX71V463XQYDOZYIDLRW5D","","565.3999999985099","img/animal2.png","76","566.2999999970198","3","1","3","1,0.7,0,0,1,0.7,0.7,0,1",""
"","html-keyboard-response","81","97118","0.0-81.0","3PMBY0YE28PD4D04ARGVD4S5EILC9Q","A1DZMZTXWOM9MR","3KVQ0UJWPX71V463XQYDOZYIDLRW5D","","null","<img src=""img/animal2.png"" style=""width:200px; border:14px solid green;"">","null","","","","","",""
"","image-keyboard-response","82","97828","0.0-82.0","3PMBY0YE28PD4D04ARGVD4S5EILC9Q","A1DZMZTXWOM9MR","3KVQ0UJWPX71V463XQYDOZYIDLRW5D","","708.6999999955297","img/animal4.png","74","709.1999999955297","1","1","1","1,0.7,0,0,1,0.7,0.7,0,1",""
"","html-keyboard-response","83","98130","0.0-83.0","3PMBY0YE28PD4D04ARGVD4S5EILC9Q","A1DZMZTXWOM9MR","3KVQ0UJWPX71V463XQYDOZYIDLRW5D","","null","<img src=""img/animal4.png"" style=""width:200px; border:14px solid green;"">","null","","","","","",""
"","image-keyboard-response","84","98803","0.0-84.0","3PMBY0YE28PD4D04ARGVD4S5EILC9Q","A1DZMZTXWOM9MR","3KVQ0UJWPX71V463XQYDOZYIDLRW5D","","672.5","img/animal2.png","76","672.9000000059605","3","1","3","1,0.7,0,0,1,0.7,0.7,0,1",""
"","html-keyboard-response","85","99104","0.0-85.0","3PMBY0YE28PD4D04ARGVD4S5EILC9Q","A1DZMZTXWOM9MR","3KVQ0UJWPX71V463XQYDOZYIDLRW5D","","null","<img src=""img/animal2.png"" style=""width:200px; border:14px solid green;"">","null","","","","","",""
"","image-keyboard-response","86","99693","0.0-86.0","3PMBY0YE28PD4D04ARGVD4S5EILC9Q","A1DZMZTXWOM9MR","3KVQ0UJWPX71V463XQYDOZYIDLRW5D","","588.6000000014901","img/animal6.png","75","589.1000000014901","2","1","2","1,0.7,0,0,1,0.7,0.7,0,1",""
"","html-keyboard-response","87","99995","0.0-87.0","3PMBY0YE28PD4D04ARGVD4S5EILC9Q","A1DZMZTXWOM9MR","3KVQ0UJWPX71V463XQYDOZYIDLRW5D","","null","<img src=""img/animal6.png"" style=""width:200px; border:14px solid green;"">","null","","","","","",""
"","image-keyboard-response","88","100415","0.0-88.0","3PMBY0YE28PD4D04ARGVD4S5EILC9Q","A1DZMZTXWOM9MR","3KVQ0UJWPX71V463XQYDOZYIDLRW5D","","419.59999999403954","img/animal6.png","75","419.8999999985099","2","1","2","1,0.7,0,0,1,0.7,0.7,0,1",""
"","html-keyboard-response","89","100716","0.0-89.0","3PMBY0YE28PD4D04ARGVD4S5EILC9Q","A1DZMZTXWOM9MR","3KVQ0UJWPX71V463XQYDOZYIDLRW5D","","null","<img src=""img/animal6.png"" style=""width:200px; border:14px solid green;"">","null","","","","","",""
"","image-keyboard-response","90","101108","0.0-90.0","3PMBY0YE28PD4D04ARGVD4S5EILC9Q","A1DZMZTXWOM9MR","3KVQ0UJWPX71V463XQYDOZYIDLRW5D","","392.30000000447035","img/animal6.png","75","392.59999999403954","2","1","2","1,0.7,0,0,1,0.7,0.7,0,1",""
"","html-keyboard-response","91","101409","0.0-91.0","3PMBY0YE28PD4D04ARGVD4S5EILC9Q","A1DZMZTXWOM9MR","3KVQ0UJWPX71V463XQYDOZYIDLRW5D","","null","<img src=""img/animal6.png"" style=""width:200px; border:14px solid green;"">","null","","","","","",""
"","image-keyboard-response","92","101975","0.0-92.0","3PMBY0YE28PD4D04ARGVD4S5EILC9Q","A1DZMZTXWOM9MR","3KVQ0UJWPX71V463XQYDOZYIDLRW5D","","564.7999999970198","img/animal2.png","76","565.1000000014901","3","1","3","1,0.7,0,0,1,0.7,0.7,0,1",""
"","html-keyboard-response","93","102276","0.0-93.0","3PMBY0YE28PD4D04ARGVD4S5EILC9Q","A1DZMZTXWOM9MR","3KVQ0UJWPX71V463XQYDOZYIDLRW5D","","null","<img src=""img/animal2.png"" style=""width:200px; border:14px solid green;"">","null","","","","","",""
"","image-keyboard-response","94","102821","0.0-94.0","3PMBY0YE28PD4D04ARGVD4S5EILC9Q","A1DZMZTXWOM9MR","3KVQ0UJWPX71V463XQYDOZYIDLRW5D","","544.3999999985099","img/animal6.png","75","544.7000000029802","2","1","2","1,0.7,0,0,1,0.7,0.7,0,1",""
"","html-keyboard-response","95","103124","0.0-95.0","3PMBY0YE28PD4D04ARGVD4S5EILC9Q","A1DZMZTXWOM9MR","3KVQ0UJWPX71V463XQYDOZYIDLRW5D","","null","<img src=""img/animal6.png"" style=""width:200px; border:14px solid green;"">","null","","","","","",""
"","image-keyboard-response","96","103784","0.0-96.0","3PMBY0YE28PD4D04ARGVD4S5EILC9Q","A1DZMZTXWOM9MR","3KVQ0UJWPX71V463XQYDOZYIDLRW5D","","658.6999999955297","img/animal4.png","74","659.6999999955297","1","1","1","1,0.7,0,0,1,0.7,0.7,0,1",""
"","html-keyboard-response","97","104091","0.0-97.0","3PMBY0YE28PD4D04ARGVD4S5EILC9Q","A1DZMZTXWOM9MR","3KVQ0UJWPX71V463XQYDOZYIDLRW5D","","null","<img src=""img/animal4.png"" style=""width:200px; border:14px solid green;"">","null","","","","","",""
"","image-keyboard-response","98","104813","0.0-98.0","3PMBY0YE28PD4D04ARGVD4S5EILC9Q","A1DZMZTXWOM9MR","3KVQ0UJWPX71V463XQYDOZYIDLRW5D","","722.4000000059605","img/animal2.png","76","722.8999999985099","3","1","3","1,0.7,0,0,1,0.7,0.7,0,1",""
"","html-keyboard-response","99","105128","0.0-99.0","3PMBY0YE28PD4D04ARGVD4S5EILC9Q","A1DZMZTXWOM9MR","3KVQ0UJWPX71V463XQYDOZYIDLRW5D","","null","<img src=""img/animal2.png"" style=""width:200px; border:14px solid green;"">","null","","","","","",""
"","image-keyboard-response","100","105750","0.0-100.0","3PMBY0YE28PD4D04ARGVD4S5EILC9Q","A1DZMZTXWOM9MR","3KVQ0UJWPX71V463XQYDOZYIDLRW5D","","622.2000000029802","img/animal6.png","75","622.7999999970198","2","1","2","1,0.7,0,0,1,0.7,0.7,0,1",""
"","html-keyboard-response","101","106053","0.0-101.0","3PMBY0YE28PD4D04ARGVD4S5EILC9Q","A1DZMZTXWOM9MR","3KVQ0UJWPX71V463XQYDOZYIDLRW5D","","null","<img src=""img/animal6.png"" style=""width:200px; border:14px solid green;"">","null","","","","","",""
"","image-keyboard-response","102","106581","0.0-102.0","3PMBY0YE28PD4D04ARGVD4S5EILC9Q","A1DZMZTXWOM9MR","3KVQ0UJWPX71V463XQYDOZYIDLRW5D","","527","img/animal2.png","76","527.5","3","1","3","1,0.7,0,0,1,0.7,0.7,0,1",""
"","html-keyboard-response","103","106884","0.0-103.0","3PMBY0YE28PD4D04ARGVD4S5EILC9Q","A1DZMZTXWOM9MR","3KVQ0UJWPX71V463XQYDOZYIDLRW5D","","null","<img src=""img/animal2.png"" style=""width:200px; border:14px solid green;"">","null","","","","","",""
"","image-keyboard-response","104","107405","0.0-104.0","3PMBY0YE28PD4D04ARGVD4S5EILC9Q","A1DZMZTXWOM9MR","3KVQ0UJWPX71V463XQYDOZYIDLRW5D","","520.1000000014901","img/animal4.png","75","520.6000000014901","2","1","1","1,0.7,0,0,1,0.7,0.7,0,1",""
"","html-keyboard-response","105","107707","0.0-105.0","3PMBY0YE28PD4D04ARGVD4S5EILC9Q","A1DZMZTXWOM9MR","3KVQ0UJWPX71V463XQYDOZYIDLRW5D","","null","<img src=""img/animal4.png"" style=""width:200px; border:14px solid green;"">","null","","","","","",""
"","image-keyboard-response","106","108355","0.0-106.0","3PMBY0YE28PD4D04ARGVD4S5EILC9Q","A1DZMZTXWOM9MR","3KVQ0UJWPX71V463XQYDOZYIDLRW5D","","647.2000000029802","img/animal2.png","76","647.7999999970198","3","1","3","1,0.7,0,0,1,0.7,0.7,0,1",""
"","html-keyboard-response","107","108657","0.0-107.0","3PMBY0YE28PD4D04ARGVD4S5EILC9Q","A1DZMZTXWOM9MR","3KVQ0UJWPX71V463XQYDOZYIDLRW5D","","null","<img src=""img/animal2.png"" style=""width:200px; border:14px solid green;"">","null","","","","","",""
"","image-keyboard-response","108","109104","0.0-108.0","3PMBY0YE28PD4D04ARGVD4S5EILC9Q","A1DZMZTXWOM9MR","3KVQ0UJWPX71V463XQYDOZYIDLRW5D","","446.3999999985099","img/animal4.png","74","446.8999999985099","1","1","1","1,0.7,0,0,1,0.7,0.7,0,1",""
"","html-keyboard-response","109","109405","0.0-109.0","3PMBY0YE28PD4D04ARGVD4S5EILC9Q","A1DZMZTXWOM9MR","3KVQ0UJWPX71V463XQYDOZYIDLRW5D","","null","<img src=""img/animal4.png"" style=""width:200px; border:14px solid green;"">","null","","","","","",""
"","image-keyboard-response","110","109890","0.0-110.0","3PMBY0YE28PD4D04ARGVD4S5EILC9Q","A1DZMZTXWOM9MR","3KVQ0UJWPX71V463XQYDOZYIDLRW5D","","483.20000000298023","img/animal2.png","76","483.8999999985099","3","1","3","1,0.7,0,0,1,0.7,0.7,0,1",""
"","html-keyboard-response","111","110191","0.0-111.0","3PMBY0YE28PD4D04ARGVD4S5EILC9Q","A1DZMZTXWOM9MR","3KVQ0UJWPX71V463XQYDOZYIDLRW5D","","null","<img src=""img/animal2.png"" style=""width:200px; border:14px solid green;"">","null","","","","","",""
"","image-keyboard-response","112","110721","0.0-112.0","3PMBY0YE28PD4D04ARGVD4S5EILC9Q","A1DZMZTXWOM9MR","3KVQ0UJWPX71V463XQYDOZYIDLRW5D","","528.5","img/animal4.png","74","529.7999999970198","1","1","1","1,0.7,0,0,1,0.7,0.7,0,1",""
"","html-keyboard-response","113","111032","0.0-113.0","3PMBY0YE28PD4D04ARGVD4S5EILC9Q","A1DZMZTXWOM9MR","3KVQ0UJWPX71V463XQYDOZYIDLRW5D","","null","<img src=""img/animal4.png"" style=""width:200px; border:14px solid green;"">","null","","","","","",""
"","image-keyboard-response","114","111519","0.0-114.0","3PMBY0YE28PD4D04ARGVD4S5EILC9Q","A1DZMZTXWOM9MR","3KVQ0UJWPX71V463XQYDOZYIDLRW5D","","487.19999999552965","img/animal6.png","75","487.59999999403954","2","1","2","1,0.7,0,0,1,0.7,0.7,0,1",""
"","html-keyboard-response","115","111821","0.0-115.0","3PMBY0YE28PD4D04ARGVD4S5EILC9Q","A1DZMZTXWOM9MR","3KVQ0UJWPX71V463XQYDOZYIDLRW5D","","null","<img src=""img/animal6.png"" style=""width:200px; border:14px solid green;"">","null","","","","","",""
"","image-keyboard-response","116","112514","0.0-116.0","3PMBY0YE28PD4D04ARGVD4S5EILC9Q","A1DZMZTXWOM9MR","3KVQ0UJWPX71V463XQYDOZYIDLRW5D","","692.6000000014901","img/animal4.png","74","693.0999999940395","1","1","1","1,0.7,0,0,1,0.7,0.7,0,1",""
"","html-keyboard-response","117","112816","0.0-117.0","3PMBY0YE28PD4D04ARGVD4S5EILC9Q","A1DZMZTXWOM9MR","3KVQ0UJWPX71V463XQYDOZYIDLRW5D","","null","<img src=""img/animal4.png"" style=""width:200px; border:14px solid green;"">","null","","","","","",""
"","image-keyboard-response","118","113326","0.0-118.0","3PMBY0YE28PD4D04ARGVD4S5EILC9Q","A1DZMZTXWOM9MR","3KVQ0UJWPX71V463XQYDOZYIDLRW5D","","509.29999999701977","img/animal6.png","75","509.80000000447035","2","1","2","1,0.7,0,0,1,0.7,0.7,0,1",""
"","html-keyboard-response","119","113628","0.0-119.0","3PMBY0YE28PD4D04ARGVD4S5EILC9Q","A1DZMZTXWOM9MR","3KVQ0UJWPX71V463XQYDOZYIDLRW5D","","null","<img src=""img/animal6.png"" style=""width:200px; border:14px solid green;"">","null","","","","","",""
"","image-keyboard-response","120","114175","0.0-120.0","3PMBY0YE28PD4D04ARGVD4S5EILC9Q","A1DZMZTXWOM9MR","3KVQ0UJWPX71V463XQYDOZYIDLRW5D","","546.6000000014901","img/animal6.png","75","547.1000000014901","2","1","2","1,0.7,0,0,1,0.7,0.7,0,1",""
"","html-keyboard-response","121","114477","0.0-121.0","3PMBY0YE28PD4D04ARGVD4S5EILC9Q","A1DZMZTXWOM9MR","3KVQ0UJWPX71V463XQYDOZYIDLRW5D","","null","<img src=""img/animal6.png"" style=""width:200px; border:14px solid green;"">","null","","","","","",""
"","image-keyboard-response","122","115070","0.0-122.0","3PMBY0YE28PD4D04ARGVD4S5EILC9Q","A1DZMZTXWOM9MR","3KVQ0UJWPX71V463XQYDOZYIDLRW5D","","592.3000000044703","img/animal4.png","74","593.1999999955297","1","1","1","1,0.7,0,0,1,0.7,0.7,0,1",""
"","html-keyboard-response","123","115372","0.0-123.0","3PMBY0YE28PD4D04ARGVD4S5EILC9Q","A1DZMZTXWOM9MR","3KVQ0UJWPX71V463XQYDOZYIDLRW5D","","null","<img src=""img/animal4.png"" style=""width:200px; border:14px solid green;"">","null","","","","","",""
"","image-keyboard-response","124","115992","0.0-124.0","3PMBY0YE28PD4D04ARGVD4S5EILC9Q","A1DZMZTXWOM9MR","3KVQ0UJWPX71V463XQYDOZYIDLRW5D","","618.6999999955297","img/animal2.png","76","619.2000000029802","3","1","3","1,0.7,0,0,1,0.7,0.7,0,1",""
"","html-keyboard-response","125","116295","0.0-125.0","3PMBY0YE28PD4D04ARGVD4S5EILC9Q","A1DZMZTXWOM9MR","3KVQ0UJWPX71V463XQYDOZYIDLRW5D","","null","<img src=""img/animal2.png"" style=""width:200px; border:14px solid green;"">","null","","","","","",""
"","image-keyboard-response","126","116912","0.0-126.0","3PMBY0YE28PD4D04ARGVD4S5EILC9Q","A1DZMZTXWOM9MR","3KVQ0UJWPX71V463XQYDOZYIDLRW5D","","615.8999999985099","img/animal6.png","75","617.2000000029802","2","1","2","1,0.7,0,0,1,0.7,0.7,0,1",""
"","html-keyboard-response","127","117214","0.0-127.0","3PMBY0YE28PD4D04ARGVD4S5EILC9Q","A1DZMZTXWOM9MR","3KVQ0UJWPX71V463XQYDOZYIDLRW5D","","null","<img src=""img/animal6.png"" style=""width:200px; border:14px solid green;"">","null","","","","","",""
"","image-keyboard-response","128","117594","0.0-128.0","3PMBY0YE28PD4D04ARGVD4S5EILC9Q","A1DZMZTXWOM9MR","3KVQ0UJWPX71V463XQYDOZYIDLRW5D","","378.6000000014901","img/animal6.png","75","378.8999999985099","2","1","2","1,0.7,0,0,1,0.7,0.7,0,1",""
"","html-keyboard-response","129","117896","0.0-129.0","3PMBY0YE28PD4D04ARGVD4S5EILC9Q","A1DZMZTXWOM9MR","3KVQ0UJWPX71V463XQYDOZYIDLRW5D","","null","<img src=""img/animal6.png"" style=""width:200px; border:14px solid green;"">","null","","","","","",""
"","image-keyboard-response","130","118337","0.0-130.0","3PMBY0YE28PD4D04ARGVD4S5EILC9Q","A1DZMZTXWOM9MR","3KVQ0UJWPX71V463XQYDOZYIDLRW5D","","441.3999999985099","img/animal6.png","75","441.69999999552965","2","1","2","1,0.7,0,0,1,0.7,0.7,0,1",""
"","html-keyboard-response","131","118639","0.0-131.0","3PMBY0YE28PD4D04ARGVD4S5EILC9Q","A1DZMZTXWOM9MR","3KVQ0UJWPX71V463XQYDOZYIDLRW5D","","null","<img src=""img/animal6.png"" style=""width:200px; border:14px solid green;"">","null","","","","","",""
"","image-keyboard-response","132","119192","0.0-132.0","3PMBY0YE28PD4D04ARGVD4S5EILC9Q","A1DZMZTXWOM9MR","3KVQ0UJWPX71V463XQYDOZYIDLRW5D","","552.6000000014901","img/animal2.png","76","553.1000000014901","3","1","3","1,0.7,0,0,1,0.7,0.7,0,1",""
"","html-keyboard-response","133","119494","0.0-133.0","3PMBY0YE28PD4D04ARGVD4S5EILC9Q","A1DZMZTXWOM9MR","3KVQ0UJWPX71V463XQYDOZYIDLRW5D","","null","<img src=""img/animal2.png"" style=""width:200px; border:14px solid green;"">","null","","","","","",""
"","image-keyboard-response","134","120033","0.0-134.0","3PMBY0YE28PD4D04ARGVD4S5EILC9Q","A1DZMZTXWOM9MR","3KVQ0UJWPX71V463XQYDOZYIDLRW5D","","537.6000000014901","img/animal6.png","75","538.1999999955297","2","1","2","1,0.7,0,0,1,0.7,0.7,0,1",""
"","html-keyboard-response","135","120336","0.0-135.0","3PMBY0YE28PD4D04ARGVD4S5EILC9Q","A1DZMZTXWOM9MR","3KVQ0UJWPX71V463XQYDOZYIDLRW5D","","null","<img src=""img/animal6.png"" style=""width:200px; border:14px solid green;"">","null","","","","","",""
"","image-keyboard-response","136","120921","0.0-136.0","3PMBY0YE28PD4D04ARGVD4S5EILC9Q","A1DZMZTXWOM9MR","3KVQ0UJWPX71V463XQYDOZYIDLRW5D","","584.1999999955297","img/animal4.png","74","585.2000000029802","1","1","1","1,0.7,0,0,1,0.7,0.7,0,1",""
"","html-keyboard-response","137","121223","0.0-137.0","3PMBY0YE28PD4D04ARGVD4S5EILC9Q","A1DZMZTXWOM9MR","3KVQ0UJWPX71V463XQYDOZYIDLRW5D","","null","<img src=""img/animal4.png"" style=""width:200px; border:14px solid green;"">","null","","","","","",""
"","image-keyboard-response","138","121779","0.0-138.0","3PMBY0YE28PD4D04ARGVD4S5EILC9Q","A1DZMZTXWOM9MR","3KVQ0UJWPX71V463XQYDOZYIDLRW5D","","554.3999999985099","img/animal2.png","76","555.2000000029802","3","1","3","1,0.7,0,0,1,0.7,0.7,0,1",""
"","html-keyboard-response","139","122079","0.0-139.0","3PMBY0YE28PD4D04ARGVD4S5EILC9Q","A1DZMZTXWOM9MR","3KVQ0UJWPX71V463XQYDOZYIDLRW5D","","null","<img src=""img/animal2.png"" style=""width:200px; border:14px solid green;"">","null","","","","","",""
"","image-keyboard-response","140","122803","0.0-140.0","3PMBY0YE28PD4D04ARGVD4S5EILC9Q","A1DZMZTXWOM9MR","3KVQ0UJWPX71V463XQYDOZYIDLRW5D","","722.8999999985099","img/animal6.png","75","723.3999999985099","2","1","2","1,0.7,0,0,1,0.7,0.7,0,1",""
"","html-keyboard-response","141","123104","0.0-141.0","3PMBY0YE28PD4D04ARGVD4S5EILC9Q","A1DZMZTXWOM9MR","3KVQ0UJWPX71V463XQYDOZYIDLRW5D","","null","<img src=""img/animal6.png"" style=""width:200px; border:14px solid green;"">","null","","","","","",""
"","image-keyboard-response","142","123510","0.0-142.0","3PMBY0YE28PD4D04ARGVD4S5EILC9Q","A1DZMZTXWOM9MR","3KVQ0UJWPX71V463XQYDOZYIDLRW5D","","405.20000000298023","img/animal6.png","75","405.69999999552965","2","1","2","1,0.7,0,0,1,0.7,0.7,0,1",""
"","html-keyboard-response","143","123813","0.0-143.0","3PMBY0YE28PD4D04ARGVD4S5EILC9Q","A1DZMZTXWOM9MR","3KVQ0UJWPX71V463XQYDOZYIDLRW5D","","null","<img src=""img/animal6.png"" style=""width:200px; border:14px solid green;"">","null","","","","","",""
"","image-keyboard-response","144","124443","0.0-144.0","3PMBY0YE28PD4D04ARGVD4S5EILC9Q","A1DZMZTXWOM9MR","3KVQ0UJWPX71V463XQYDOZYIDLRW5D","","628","img/animal4.png","74","629.2999999970198","1","1","1","1,0.7,0,0,1,0.7,0.7,0,1",""
"","html-keyboard-response","145","124745","0.0-145.0","3PMBY0YE28PD4D04ARGVD4S5EILC9Q","A1DZMZTXWOM9MR","3KVQ0UJWPX71V463XQYDOZYIDLRW5D","","null","<img src=""img/animal4.png"" style=""width:200px; border:14px solid green;"">","null","","","","","",""
"","image-keyboard-response","146","125116","0.0-146.0","3PMBY0YE28PD4D04ARGVD4S5EILC9Q","A1DZMZTXWOM9MR","3KVQ0UJWPX71V463XQYDOZYIDLRW5D","","371","img/animal4.png","74","371.5","1","1","1","1,0.7,0,0,1,0.7,0.7,0,1",""
"","html-keyboard-response","147","125417","0.0-147.0","3PMBY0YE28PD4D04ARGVD4S5EILC9Q","A1DZMZTXWOM9MR","3KVQ0UJWPX71V463XQYDOZYIDLRW5D","","null","<img src=""img/animal4.png"" style=""width:200px; border:14px solid green;"">","null","","","","","",""
"","image-keyboard-response","148","126295","0.0-148.0","3PMBY0YE28PD4D04ARGVD4S5EILC9Q","A1DZMZTXWOM9MR","3KVQ0UJWPX71V463XQYDOZYIDLRW5D","","876.2000000029802","img/animal6.png","75","877.2000000029802","2","1","2","1,0.7,0,0,1,0.7,0.7,0,1",""
"","html-keyboard-response","149","126596","0.0-149.0","3PMBY0YE28PD4D04ARGVD4S5EILC9Q","A1DZMZTXWOM9MR","3KVQ0UJWPX71V463XQYDOZYIDLRW5D","","null","<img src=""img/animal6.png"" style=""width:200px; border:14px solid green;"">","null","","","","","",""
"","image-keyboard-response","150","127183","0.0-150.0","3PMBY0YE28PD4D04ARGVD4S5EILC9Q","A1DZMZTXWOM9MR","3KVQ0UJWPX71V463XQYDOZYIDLRW5D","","586.3999999985099","img/animal2.png","76","586.7999999970198","3","1","3","1,0.7,0,0,1,0.7,0.7,0,1",""
"","html-keyboard-response","151","127483","0.0-151.0","3PMBY0YE28PD4D04ARGVD4S5EILC9Q","A1DZMZTXWOM9MR","3KVQ0UJWPX71V463XQYDOZYIDLRW5D","","null","<img src=""img/animal2.png"" style=""width:200px; border:14px solid green;"">","null","","","","","",""
"","image-keyboard-response","152","127960","0.0-152.0","3PMBY0YE28PD4D04ARGVD4S5EILC9Q","A1DZMZTXWOM9MR","3KVQ0UJWPX71V463XQYDOZYIDLRW5D","","475.70000000298023","img/animal6.png","75","476.1000000014901","2","1","2","1,0.7,0,0,1,0.7,0.7,0,1",""
"","html-keyboard-response","153","128261","0.0-153.0","3PMBY0YE28PD4D04ARGVD4S5EILC9Q","A1DZMZTXWOM9MR","3KVQ0UJWPX71V463XQYDOZYIDLRW5D","","null","<img src=""img/animal6.png"" style=""width:200px; border:14px solid green;"">","null","","","","","",""
"","image-keyboard-response","154","128903","0.0-154.0","3PMBY0YE28PD4D04ARGVD4S5EILC9Q","A1DZMZTXWOM9MR","3KVQ0UJWPX71V463XQYDOZYIDLRW5D","","641.2000000029802","img/animal4.png","74","641.7999999970198","1","1","1","1,0.7,0,0,1,0.7,0.7,0,1",""
"","html-keyboard-response","155","129205","0.0-155.0","3PMBY0YE28PD4D04ARGVD4S5EILC9Q","A1DZMZTXWOM9MR","3KVQ0UJWPX71V463XQYDOZYIDLRW5D","","null","<img src=""img/animal4.png"" style=""width:200px; border:14px solid green;"">","null","","","","","",""
"","image-keyboard-response","156","129932","0.0-156.0","3PMBY0YE28PD4D04ARGVD4S5EILC9Q","A1DZMZTXWOM9MR","3KVQ0UJWPX71V463XQYDOZYIDLRW5D","","726.5","img/animal2.png","76","726.8000000044703","3","1","3","1,0.7,0,0,1,0.7,0.7,0,1",""
"","html-keyboard-response","157","130235","0.0-157.0","3PMBY0YE28PD4D04ARGVD4S5EILC9Q","A1DZMZTXWOM9MR","3KVQ0UJWPX71V463XQYDOZYIDLRW5D","","null","<img src=""img/animal2.png"" style=""width:200px; border:14px solid green;"">","null","","","","","",""
"","image-keyboard-response","158","130985","0.0-158.0","3PMBY0YE28PD4D04ARGVD4S5EILC9Q","A1DZMZTXWOM9MR","3KVQ0UJWPX71V463XQYDOZYIDLRW5D","","749.4000000059605","img/animal4.png","74","750.3999999985099","1","1","1","1,0.7,0,0,1,0.7,0.7,0,1",""
"","html-keyboard-response","159","131287","0.0-159.0","3PMBY0YE28PD4D04ARGVD4S5EILC9Q","A1DZMZTXWOM9MR","3KVQ0UJWPX71V463XQYDOZYIDLRW5D","","null","<img src=""img/animal4.png"" style=""width:200px; border:14px solid green;"">","null","","","","","",""
"","image-keyboard-response","160","131869","0.0-160.0","3PMBY0YE28PD4D04ARGVD4S5EILC9Q","A1DZMZTXWOM9MR","3KVQ0UJWPX71V463XQYDOZYIDLRW5D","","581.1000000014901","img/animal2.png","76","581.5","3","1","3","1,0.7,0,0,1,0.7,0.7,0,1",""
"","html-keyboard-response","161","132171","0.0-161.0","3PMBY0YE28PD4D04ARGVD4S5EILC9Q","A1DZMZTXWOM9MR","3KVQ0UJWPX71V463XQYDOZYIDLRW5D","","null","<img src=""img/animal2.png"" style=""width:200px; border:14px solid green;"">","null","","","","","",""
"","image-keyboard-response","162","132665","0.0-162.0","3PMBY0YE28PD4D04ARGVD4S5EILC9Q","A1DZMZTXWOM9MR","3KVQ0UJWPX71V463XQYDOZYIDLRW5D","","493","img/animal4.png","74","493.59999999403954","1","1","1","1,0.7,0,0,1,0.7,0.7,0,1",""
"","html-keyboard-response","163","132967","0.0-163.0","3PMBY0YE28PD4D04ARGVD4S5EILC9Q","A1DZMZTXWOM9MR","3KVQ0UJWPX71V463XQYDOZYIDLRW5D","","null","<img src=""img/animal4.png"" style=""width:200px; border:14px solid green;"">","null","","","","","",""
"","image-keyboard-response","164","133531","0.0-164.0","3PMBY0YE28PD4D04ARGVD4S5EILC9Q","A1DZMZTXWOM9MR","3KVQ0UJWPX71V463XQYDOZYIDLRW5D","","563.8000000044703","img/animal6.png","75","564.2000000029802","2","1","2","1,0.7,0,0,1,0.7,0.7,0,1",""
"","html-keyboard-response","165","133832","0.0-165.0","3PMBY0YE28PD4D04ARGVD4S5EILC9Q","A1DZMZTXWOM9MR","3KVQ0UJWPX71V463XQYDOZYIDLRW5D","","null","<img src=""img/animal6.png"" style=""width:200px; border:14px solid green;"">","null","","","","","",""
"","image-keyboard-response","166","134362","0.0-166.0","3PMBY0YE28PD4D04ARGVD4S5EILC9Q","A1DZMZTXWOM9MR","3KVQ0UJWPX71V463XQYDOZYIDLRW5D","","528.6000000014901","img/animal2.png","74","529.3000000044703","1","1","3","1,0.7,0,0,1,0.7,0.7,0,1",""
"","html-keyboard-response","167","134663","0.0-167.0","3PMBY0YE28PD4D04ARGVD4S5EILC9Q","A1DZMZTXWOM9MR","3KVQ0UJWPX71V463XQYDOZYIDLRW5D","","null","<img src=""img/animal2.png"" style=""width:200px; border:14px solid green;"">","null","","","","","",""
"","image-keyboard-response","168","135912","0.0-168.0","3PMBY0YE28PD4D04ARGVD4S5EILC9Q","A1DZMZTXWOM9MR","3KVQ0UJWPX71V463XQYDOZYIDLRW5D","","1248.3999999985099","img/animal6.png","75","1248.8999999985099","2","1","2","1,0.7,0,0,1,0.7,0.7,0,1",""
"","html-keyboard-response","169","136213","0.0-169.0","3PMBY0YE28PD4D04ARGVD4S5EILC9Q","A1DZMZTXWOM9MR","3KVQ0UJWPX71V463XQYDOZYIDLRW5D","","null","<img src=""img/animal6.png"" style=""width:200px; border:14px solid green;"">","null","","","","","",""
"","image-keyboard-response","170","136586","0.0-170.0","3PMBY0YE28PD4D04ARGVD4S5EILC9Q","A1DZMZTXWOM9MR","3KVQ0UJWPX71V463XQYDOZYIDLRW5D","","372.30000000447035","img/animal6.png","75","372.6000000014901","2","1","2","1,0.7,0,0,1,0.7,0.7,0,1",""
"","html-keyboard-response","171","136888","0.0-171.0","3PMBY0YE28PD4D04ARGVD4S5EILC9Q","A1DZMZTXWOM9MR","3KVQ0UJWPX71V463XQYDOZYIDLRW5D","","null","<img src=""img/animal6.png"" style=""width:200px; border:14px solid green;"">","null","","","","","",""
"","image-keyboard-response","172","137226","0.0-172.0","3PMBY0YE28PD4D04ARGVD4S5EILC9Q","A1DZMZTXWOM9MR","3KVQ0UJWPX71V463XQYDOZYIDLRW5D","","337.30000000447035","img/animal6.png","75","337.79999999701977","2","1","2","1,0.7,0,0,1,0.7,0.7,0,1",""
"","html-keyboard-response","173","137527","0.0-173.0","3PMBY0YE28PD4D04ARGVD4S5EILC9Q","A1DZMZTXWOM9MR","3KVQ0UJWPX71V463XQYDOZYIDLRW5D","","null","<img src=""img/animal6.png"" style=""width:200px; border:14px solid green;"">","null","","","","","",""
"","image-keyboard-response","174","138117","0.0-174.0","3PMBY0YE28PD4D04ARGVD4S5EILC9Q","A1DZMZTXWOM9MR","3KVQ0UJWPX71V463XQYDOZYIDLRW5D","","588.3999999985099","img/animal4.png","74","589.1000000014901","1","1","1","1,0.7,0,0,1,0.7,0.7,0,1",""
"","html-keyboard-response","175","138418","0.0-175.0","3PMBY0YE28PD4D04ARGVD4S5EILC9Q","A1DZMZTXWOM9MR","3KVQ0UJWPX71V463XQYDOZYIDLRW5D","","null","<img src=""img/animal4.png"" style=""width:200px; border:14px solid green;"">","null","","","","","",""
"","image-keyboard-response","176","138766","0.0-176.0","3PMBY0YE28PD4D04ARGVD4S5EILC9Q","A1DZMZTXWOM9MR","3KVQ0UJWPX71V463XQYDOZYIDLRW5D","","347.40000000596046","img/animal4.png","74","347.8999999985099","1","1","1","1,0.7,0,0,1,0.7,0.7,0,1",""
"","html-keyboard-response","177","139077","0.0-177.0","3PMBY0YE28PD4D04ARGVD4S5EILC9Q","A1DZMZTXWOM9MR","3KVQ0UJWPX71V463XQYDOZYIDLRW5D","","null","<img src=""img/animal4.png"" style=""width:200px; border:14px solid green;"">","null","","","","","",""
"","image-keyboard-response","178","139564","0.0-178.0","3PMBY0YE28PD4D04ARGVD4S5EILC9Q","A1DZMZTXWOM9MR","3KVQ0UJWPX71V463XQYDOZYIDLRW5D","","486.70000000298023","img/animal6.png","75","487.1000000014901","2","1","2","1,0.7,0,0,1,0.7,0.7,0,1",""
"","html-keyboard-response","179","139865","0.0-179.0","3PMBY0YE28PD4D04ARGVD4S5EILC9Q","A1DZMZTXWOM9MR","3KVQ0UJWPX71V463XQYDOZYIDLRW5D","","null","<img src=""img/animal6.png"" style=""width:200px; border:14px solid green;"">","null","","","","","",""
"","image-keyboard-response","180","140573","0.0-180.0","3PMBY0YE28PD4D04ARGVD4S5EILC9Q","A1DZMZTXWOM9MR","3KVQ0UJWPX71V463XQYDOZYIDLRW5D","","707.2000000029802","img/animal4.png","74","708","1","1","1","1,0.7,0,0,1,0.7,0.7,0,1",""
"","html-keyboard-response","181","140875","0.0-181.0","3PMBY0YE28PD4D04ARGVD4S5EILC9Q","A1DZMZTXWOM9MR","3KVQ0UJWPX71V463XQYDOZYIDLRW5D","","null","<img src=""img/animal4.png"" style=""width:200px; border:14px solid green;"">","null","","","","","",""
"","html-keyboard-response","182","177254","0.0-182.0","3PMBY0YE28PD4D04ARGVD4S5EILC9Q","A1DZMZTXWOM9MR","3KVQ0UJWPX71V463XQYDOZYIDLRW5D","","","","","","","","","",""
"","image-keyboard-response","183","178096","0.0-183.0","3PMBY0YE28PD4D04ARGVD4S5EILC9Q","A1DZMZTXWOM9MR","3KVQ0UJWPX71V463XQYDOZYIDLRW5D","","842.1000000014901","img/animal3.png","74","842.7000000029802","1","1","3","1,0.7,0,1,0.7,0,0.7,0,1",""
"","html-keyboard-response","184","178402","0.0-184.0","3PMBY0YE28PD4D04ARGVD4S5EILC9Q","A1DZMZTXWOM9MR","3KVQ0UJWPX71V463XQYDOZYIDLRW5D","","null","<img src=""img/animal3.png"" style=""width:200px; border:14px solid green;"">","null","","","","","",""
"","image-keyboard-response","185","178924","0.0-185.0","3PMBY0YE28PD4D04ARGVD4S5EILC9Q","A1DZMZTXWOM9MR","3KVQ0UJWPX71V463XQYDOZYIDLRW5D","","520","img/animal3.png","74","521","1","1","3","1,0.7,0,1,0.7,0,0.7,0,1",""
"","html-keyboard-response","186","179226","0.0-186.0","3PMBY0YE28PD4D04ARGVD4S5EILC9Q","A1DZMZTXWOM9MR","3KVQ0UJWPX71V463XQYDOZYIDLRW5D","","null","<img src=""img/animal3.png"" style=""width:200px; border:14px solid green;"">","null","","","","","",""
"","image-keyboard-response","187","180064","0.0-187.0","3PMBY0YE28PD4D04ARGVD4S5EILC9Q","A1DZMZTXWOM9MR","3KVQ0UJWPX71V463XQYDOZYIDLRW5D","","837.6000000014901","img/animal5.png","76","838.1000000014901","3","0","2","1,0.7,0,1,0.7,0,0.7,0,1",""
"","html-keyboard-response","188","180366","0.0-188.0","3PMBY0YE28PD4D04ARGVD4S5EILC9Q","A1DZMZTXWOM9MR","3KVQ0UJWPX71V463XQYDOZYIDLRW5D","","null","<img src=""img/animal5.png"" style=""width:200px;border:14px solid red;"">","null","","","","","",""
"","image-keyboard-response","189","180975","0.0-189.0","3PMBY0YE28PD4D04ARGVD4S5EILC9Q","A1DZMZTXWOM9MR","3KVQ0UJWPX71V463XQYDOZYIDLRW5D","","608.6000000014901","img/animal3.png","74","608.8999999985099","1","1","3","1,0.7,0,1,0.7,0,0.7,0,1",""
"","html-keyboard-response","190","181277","0.0-190.0","3PMBY0YE28PD4D04ARGVD4S5EILC9Q","A1DZMZTXWOM9MR","3KVQ0UJWPX71V463XQYDOZYIDLRW5D","","null","<img src=""img/animal3.png"" style=""width:200px; border:14px solid green;"">","null","","","","","",""
"","image-keyboard-response","191","182021","0.0-191.0","3PMBY0YE28PD4D04ARGVD4S5EILC9Q","A1DZMZTXWOM9MR","3KVQ0UJWPX71V463XQYDOZYIDLRW5D","","743.8999999985099","img/animal1.png","75","744.3999999985099","2","1","1","1,0.7,0,1,0.7,0,0.7,0,1",""
"","html-keyboard-response","192","182323","0.0-192.0","3PMBY0YE28PD4D04ARGVD4S5EILC9Q","A1DZMZTXWOM9MR","3KVQ0UJWPX71V463XQYDOZYIDLRW5D","","null","<img src=""img/animal1.png"" style=""width:200px; border:14px solid green;"">","null","","","","","",""
"","image-keyboard-response","193","182691","0.0-193.0","3PMBY0YE28PD4D04ARGVD4S5EILC9Q","A1DZMZTXWOM9MR","3KVQ0UJWPX71V463XQYDOZYIDLRW5D","","367.29999999701977","img/animal1.png","75","367.70000000298023","2","1","1","1,0.7,0,1,0.7,0,0.7,0,1",""
"","html-keyboard-response","194","182992","0.0-194.0","3PMBY0YE28PD4D04ARGVD4S5EILC9Q","A1DZMZTXWOM9MR","3KVQ0UJWPX71V463XQYDOZYIDLRW5D","","null","<img src=""img/animal1.png"" style=""width:200px; border:14px solid green;"">","null","","","","","",""
"","image-keyboard-response","195","183625","0.0-195.0","3PMBY0YE28PD4D04ARGVD4S5EILC9Q","A1DZMZTXWOM9MR","3KVQ0UJWPX71V463XQYDOZYIDLRW5D","","631.3999999985099","img/animal3.png","74","632.4000000059605","1","1","3","1,0.7,0,1,0.7,0,0.7,0,1",""
"","html-keyboard-response","196","183926","0.0-196.0","3PMBY0YE28PD4D04ARGVD4S5EILC9Q","A1DZMZTXWOM9MR","3KVQ0UJWPX71V463XQYDOZYIDLRW5D","","null","<img src=""img/animal3.png"" style=""width:200px; border:14px solid green;"">","null","","","","","",""
"","image-keyboard-response","197","184275","0.0-197.0","3PMBY0YE28PD4D04ARGVD4S5EILC9Q","A1DZMZTXWOM9MR","3KVQ0UJWPX71V463XQYDOZYIDLRW5D","","347.40000000596046","img/animal3.png","74","348.5","1","1","3","1,0.7,0,1,0.7,0,0.7,0,1",""
"","html-keyboard-response","198","184577","0.0-198.0","3PMBY0YE28PD4D04ARGVD4S5EILC9Q","A1DZMZTXWOM9MR","3KVQ0UJWPX71V463XQYDOZYIDLRW5D","","null","<img src=""img/animal3.png"" style=""width:200px; border:14px solid green;"">","null","","","","","",""
"","image-keyboard-response","199","184947","0.0-199.0","3PMBY0YE28PD4D04ARGVD4S5EILC9Q","A1DZMZTXWOM9MR","3KVQ0UJWPX71V463XQYDOZYIDLRW5D","","369.8999999985099","img/animal3.png","74","370.29999999701977","1","0","3","1,0.7,0,1,0.7,0,0.7,0,1",""
"","html-keyboard-response","200","185249","0.0-200.0","3PMBY0YE28PD4D04ARGVD4S5EILC9Q","A1DZMZTXWOM9MR","3KVQ0UJWPX71V463XQYDOZYIDLRW5D","","null","<img src=""img/animal3.png"" style=""width:200px;border:14px solid red;"">","null","","","","","",""
"","image-keyboard-response","201","186168","0.0-201.0","3PMBY0YE28PD4D04ARGVD4S5EILC9Q","A1DZMZTXWOM9MR","3KVQ0UJWPX71V463XQYDOZYIDLRW5D","","919.2999999970198","img/animal5.png","76","919.6000000014901","3","0","2","1,0.7,0,1,0.7,0,0.7,0,1",""
"","html-keyboard-response","202","186469","0.0-202.0","3PMBY0YE28PD4D04ARGVD4S5EILC9Q","A1DZMZTXWOM9MR","3KVQ0UJWPX71V463XQYDOZYIDLRW5D","","null","<img src=""img/animal5.png"" style=""width:200px;border:14px solid red;"">","null","","","","","",""
"","image-keyboard-response","203","187760","0.0-203.0","3PMBY0YE28PD4D04ARGVD4S5EILC9Q","A1DZMZTXWOM9MR","3KVQ0UJWPX71V463XQYDOZYIDLRW5D","","1290.7000000029802","img/animal3.png","74","1291.2999999970198","1","0","3","1,0.7,0,1,0.7,0,0.7,0,1",""
"","html-keyboard-response","204","188062","0.0-204.0","3PMBY0YE28PD4D04ARGVD4S5EILC9Q","A1DZMZTXWOM9MR","3KVQ0UJWPX71V463XQYDOZYIDLRW5D","","null","<img src=""img/animal3.png"" style=""width:200px;border:14px solid red;"">","null","","","","","",""
"","image-keyboard-response","205","188623","0.0-205.0","3PMBY0YE28PD4D04ARGVD4S5EILC9Q","A1DZMZTXWOM9MR","3KVQ0UJWPX71V463XQYDOZYIDLRW5D","","560.5","img/animal5.png","75","561.1000000014901","2","1","2","1,0.7,0,1,0.7,0,0.7,0,1",""
"","html-keyboard-response","206","188930","0.0-206.0","3PMBY0YE28PD4D04ARGVD4S5EILC9Q","A1DZMZTXWOM9MR","3KVQ0UJWPX71V463XQYDOZYIDLRW5D","","null","<img src=""img/animal5.png"" style=""width:200px; border:14px solid green;"">","null","","","","","",""
"","image-keyboard-response","207","189693","0.0-207.0","3PMBY0YE28PD4D04ARGVD4S5EILC9Q","A1DZMZTXWOM9MR","3KVQ0UJWPX71V463XQYDOZYIDLRW5D","","762","img/animal1.png","76","762.6000000014901","3","0","1","1,0.7,0,1,0.7,0,0.7,0,1",""
"","html-keyboard-response","208","189995","0.0-208.0","3PMBY0YE28PD4D04ARGVD4S5EILC9Q","A1DZMZTXWOM9MR","3KVQ0UJWPX71V463XQYDOZYIDLRW5D","","null","<img src=""img/animal1.png"" style=""width:200px;border:14px solid red;"">","null","","","","","",""
"","image-keyboard-response","209","190644","0.0-209.0","3PMBY0YE28PD4D04ARGVD4S5EILC9Q","A1DZMZTXWOM9MR","3KVQ0UJWPX71V463XQYDOZYIDLRW5D","","648.2000000029802","img/animal3.png","74","648.6000000014901","1","1","3","1,0.7,0,1,0.7,0,0.7,0,1",""
"","html-keyboard-response","210","190946","0.0-210.0","3PMBY0YE28PD4D04ARGVD4S5EILC9Q","A1DZMZTXWOM9MR","3KVQ0UJWPX71V463XQYDOZYIDLRW5D","","null","<img src=""img/animal3.png"" style=""width:200px; border:14px solid green;"">","null","","","","","",""
"","image-keyboard-response","211","191538","0.0-211.0","3PMBY0YE28PD4D04ARGVD4S5EILC9Q","A1DZMZTXWOM9MR","3KVQ0UJWPX71V463XQYDOZYIDLRW5D","","591.6000000014901","img/animal1.png","76","592.1000000014901","3","0","1","1,0.7,0,1,0.7,0,0.7,0,1",""
"","html-keyboard-response","212","191840","0.0-212.0","3PMBY0YE28PD4D04ARGVD4S5EILC9Q","A1DZMZTXWOM9MR","3KVQ0UJWPX71V463XQYDOZYIDLRW5D","","null","<img src=""img/animal1.png"" style=""width:200px;border:14px solid red;"">","null","","","","","",""
"","image-keyboard-response","213","192638","0.0-213.0","3PMBY0YE28PD4D04ARGVD4S5EILC9Q","A1DZMZTXWOM9MR","3KVQ0UJWPX71V463XQYDOZYIDLRW5D","","797.7000000029802","img/animal5.png","75","798","2","0","2","1,0.7,0,1,0.7,0,0.7,0,1",""
"","html-keyboard-response","214","192940","0.0-214.0","3PMBY0YE28PD4D04ARGVD4S5EILC9Q","A1DZMZTXWOM9MR","3KVQ0UJWPX71V463XQYDOZYIDLRW5D","","null","<img src=""img/animal5.png"" style=""width:200px;border:14px solid red;"">","null","","","","","",""
"","image-keyboard-response","215","193912","0.0-215.0","3PMBY0YE28PD4D04ARGVD4S5EILC9Q","A1DZMZTXWOM9MR","3KVQ0UJWPX71V463XQYDOZYIDLRW5D","","970.8999999985099","img/animal5.png","76","971.7000000029802","3","0","2","1,0.7,0,1,0.7,0,0.7,0,1",""
"","html-keyboard-response","216","194213","0.0-216.0","3PMBY0YE28PD4D04ARGVD4S5EILC9Q","A1DZMZTXWOM9MR","3KVQ0UJWPX71V463XQYDOZYIDLRW5D","","null","<img src=""img/animal5.png"" style=""width:200px;border:14px solid red;"">","null","","","","","",""
"","image-keyboard-response","217","194855","0.0-217.0","3PMBY0YE28PD4D04ARGVD4S5EILC9Q","A1DZMZTXWOM9MR","3KVQ0UJWPX71V463XQYDOZYIDLRW5D","","641.0999999940395","img/animal3.png","74","641.8999999985099","1","0","3","1,0.7,0,1,0.7,0,0.7,0,1",""
"","html-keyboard-response","218","195156","0.0-218.0","3PMBY0YE28PD4D04ARGVD4S5EILC9Q","A1DZMZTXWOM9MR","3KVQ0UJWPX71V463XQYDOZYIDLRW5D","","null","<img src=""img/animal3.png"" style=""width:200px;border:14px solid red;"">","null","","","","","",""
"","image-keyboard-response","219","196156","0.0-219.0","3PMBY0YE28PD4D04ARGVD4S5EILC9Q","A1DZMZTXWOM9MR","3KVQ0UJWPX71V463XQYDOZYIDLRW5D","","998.5","img/animal5.png","76","999.1000000014901","3","0","2","1,0.7,0,1,0.7,0,0.7,0,1",""
"","html-keyboard-response","220","196456","0.0-220.0","3PMBY0YE28PD4D04ARGVD4S5EILC9Q","A1DZMZTXWOM9MR","3KVQ0UJWPX71V463XQYDOZYIDLRW5D","","null","<img src=""img/animal5.png"" style=""width:200px;border:14px solid red;"">","null","","","","","",""
"","image-keyboard-response","221","197143","0.0-221.0","3PMBY0YE28PD4D04ARGVD4S5EILC9Q","A1DZMZTXWOM9MR","3KVQ0UJWPX71V463XQYDOZYIDLRW5D","","685.5999999940395","img/animal3.png","74","685.8999999985099","1","0","3","1,0.7,0,1,0.7,0,0.7,0,1",""
"","html-keyboard-response","222","197444","0.0-222.0","3PMBY0YE28PD4D04ARGVD4S5EILC9Q","A1DZMZTXWOM9MR","3KVQ0UJWPX71V463XQYDOZYIDLRW5D","","null","<img src=""img/animal3.png"" style=""width:200px;border:14px solid red;"">","null","","","","","",""
"","image-keyboard-response","223","198307","0.0-223.0","3PMBY0YE28PD4D04ARGVD4S5EILC9Q","A1DZMZTXWOM9MR","3KVQ0UJWPX71V463XQYDOZYIDLRW5D","","862","img/animal1.png","75","862.7000000029802","2","1","1","1,0.7,0,1,0.7,0,0.7,0,1",""
"","html-keyboard-response","224","198608","0.0-224.0","3PMBY0YE28PD4D04ARGVD4S5EILC9Q","A1DZMZTXWOM9MR","3KVQ0UJWPX71V463XQYDOZYIDLRW5D","","null","<img src=""img/animal1.png"" style=""width:200px; border:14px solid green;"">","null","","","","","",""
"","image-keyboard-response","225","199171","0.0-225.0","3PMBY0YE28PD4D04ARGVD4S5EILC9Q","A1DZMZTXWOM9MR","3KVQ0UJWPX71V463XQYDOZYIDLRW5D","","561.8999999985099","img/animal1.png","75","562.3000000044703","2","1","1","1,0.7,0,1,0.7,0,0.7,0,1",""
"","html-keyboard-response","226","199472","0.0-226.0","3PMBY0YE28PD4D04ARGVD4S5EILC9Q","A1DZMZTXWOM9MR","3KVQ0UJWPX71V463XQYDOZYIDLRW5D","","null","<img src=""img/animal1.png"" style=""width:200px; border:14px solid green;"">","null","","","","","",""
"","image-keyboard-response","227","200403","0.0-227.0","3PMBY0YE28PD4D04ARGVD4S5EILC9Q","A1DZMZTXWOM9MR","3KVQ0UJWPX71V463XQYDOZYIDLRW5D","","929.8999999985099","img/animal3.png","74","930.2000000029802","1","1","3","1,0.7,0,1,0.7,0,0.7,0,1",""
"","html-keyboard-response","228","200704","0.0-228.0","3PMBY0YE28PD4D04ARGVD4S5EILC9Q","A1DZMZTXWOM9MR","3KVQ0UJWPX71V463XQYDOZYIDLRW5D","","null","<img src=""img/animal3.png"" style=""width:200px; border:14px solid green;"">","null","","","","","",""
"","image-keyboard-response","229","201713","0.0-229.0","3PMBY0YE28PD4D04ARGVD4S5EILC9Q","A1DZMZTXWOM9MR","3KVQ0UJWPX71V463XQYDOZYIDLRW5D","","1007.7999999970198","img/animal5.png","76","1008.5999999940395","3","0","2","1,0.7,0,1,0.7,0,0.7,0,1",""
"","html-keyboard-response","230","202015","0.0-230.0","3PMBY0YE28PD4D04ARGVD4S5EILC9Q","A1DZMZTXWOM9MR","3KVQ0UJWPX71V463XQYDOZYIDLRW5D","","null","<img src=""img/animal5.png"" style=""width:200px;border:14px solid red;"">","null","","","","","",""
"","image-keyboard-response","231","202576","0.0-231.0","3PMBY0YE28PD4D04ARGVD4S5EILC9Q","A1DZMZTXWOM9MR","3KVQ0UJWPX71V463XQYDOZYIDLRW5D","","559.7999999970198","img/animal5.png","75","560.3000000044703","2","0","2","1,0.7,0,1,0.7,0,0.7,0,1",""
"","html-keyboard-response","232","202877","0.0-232.0","3PMBY0YE28PD4D04ARGVD4S5EILC9Q","A1DZMZTXWOM9MR","3KVQ0UJWPX71V463XQYDOZYIDLRW5D","","null","<img src=""img/animal5.png"" style=""width:200px;border:14px solid red;"">","null","","","","","",""
"","image-keyboard-response","233","203039","0.0-233.0","3PMBY0YE28PD4D04ARGVD4S5EILC9Q","A1DZMZTXWOM9MR","3KVQ0UJWPX71V463XQYDOZYIDLRW5D","","161.5","img/animal1.png","74","162.39999999850988","1","1","1","1,0.7,0,1,0.7,0,0.7,0,1",""
"","html-keyboard-response","234","203340","0.0-234.0","3PMBY0YE28PD4D04ARGVD4S5EILC9Q","A1DZMZTXWOM9MR","3KVQ0UJWPX71V463XQYDOZYIDLRW5D","","null","<img src=""img/animal1.png"" style=""width:200px; border:14px solid green;"">","null","","","","","",""
"","image-keyboard-response","235","204697","0.0-235.0","3PMBY0YE28PD4D04ARGVD4S5EILC9Q","A1DZMZTXWOM9MR","3KVQ0UJWPX71V463XQYDOZYIDLRW5D","","1356.1999999955297","img/animal3.png","75","1356.6000000014901","2","0","3","1,0.7,0,1,0.7,0,0.7,0,1",""
"","html-keyboard-response","236","204999","0.0-236.0","3PMBY0YE28PD4D04ARGVD4S5EILC9Q","A1DZMZTXWOM9MR","3KVQ0UJWPX71V463XQYDOZYIDLRW5D","","null","<img src=""img/animal3.png"" style=""width:200px;border:14px solid red;"">","null","","","","","",""
"","image-keyboard-response","237","206142","0.0-237.0","3PMBY0YE28PD4D04ARGVD4S5EILC9Q","A1DZMZTXWOM9MR","3KVQ0UJWPX71V463XQYDOZYIDLRW5D","","1143.1000000014901","img/animal5.png","74","1143.5","1","1","2","1,0.7,0,1,0.7,0,0.7,0,1",""
"","html-keyboard-response","238","206444","0.0-238.0","3PMBY0YE28PD4D04ARGVD4S5EILC9Q","A1DZMZTXWOM9MR","3KVQ0UJWPX71V463XQYDOZYIDLRW5D","","null","<img src=""img/animal5.png"" style=""width:200px; border:14px solid green;"">","null","","","","","",""
"","image-keyboard-response","239","207855","0.0-239.0","3PMBY0YE28PD4D04ARGVD4S5EILC9Q","A1DZMZTXWOM9MR","3KVQ0UJWPX71V463XQYDOZYIDLRW5D","","1410.5999999940395","img/animal1.png","75","1411.1000000014901","2","1","1","1,0.7,0,1,0.7,0,0.7,0,1",""
"","html-keyboard-response","240","208157","0.0-240.0","3PMBY0YE28PD4D04ARGVD4S5EILC9Q","A1DZMZTXWOM9MR","3KVQ0UJWPX71V463XQYDOZYIDLRW5D","","null","<img src=""img/animal1.png"" style=""width:200px; border:14px solid green;"">","null","","","","","",""
"","image-keyboard-response","241","209156","0.0-241.0","3PMBY0YE28PD4D04ARGVD4S5EILC9Q","A1DZMZTXWOM9MR","3KVQ0UJWPX71V463XQYDOZYIDLRW5D","","998","img/animal5.png","74","998.5","1","1","2","1,0.7,0,1,0.7,0,0.7,0,1",""
"","html-keyboard-response","242","209457","0.0-242.0","3PMBY0YE28PD4D04ARGVD4S5EILC9Q","A1DZMZTXWOM9MR","3KVQ0UJWPX71V463XQYDOZYIDLRW5D","","null","<img src=""img/animal5.png"" style=""width:200px; border:14px solid green;"">","null","","","","","",""
"","image-keyboard-response","243","209989","0.0-243.0","3PMBY0YE28PD4D04ARGVD4S5EILC9Q","A1DZMZTXWOM9MR","3KVQ0UJWPX71V463XQYDOZYIDLRW5D","","531.5","img/animal1.png","75","531.8000000044703","2","1","1","1,0.7,0,1,0.7,0,0.7,0,1",""
"","html-keyboard-response","244","210290","0.0-244.0","3PMBY0YE28PD4D04ARGVD4S5EILC9Q","A1DZMZTXWOM9MR","3KVQ0UJWPX71V463XQYDOZYIDLRW5D","","null","<img src=""img/animal1.png"" style=""width:200px; border:14px solid green;"">","null","","","","","",""
"","image-keyboard-response","245","210659","0.0-245.0","3PMBY0YE28PD4D04ARGVD4S5EILC9Q","A1DZMZTXWOM9MR","3KVQ0UJWPX71V463XQYDOZYIDLRW5D","","367.70000000298023","img/animal1.png","74","368.79999999701977","1","1","1","1,0.7,0,1,0.7,0,0.7,0,1",""
"","html-keyboard-response","246","210961","0.0-246.0","3PMBY0YE28PD4D04ARGVD4S5EILC9Q","A1DZMZTXWOM9MR","3KVQ0UJWPX71V463XQYDOZYIDLRW5D","","null","<img src=""img/animal1.png"" style=""width:200px; border:14px solid green;"">","null","","","","","",""
"","image-keyboard-response","247","211813","0.0-247.0","3PMBY0YE28PD4D04ARGVD4S5EILC9Q","A1DZMZTXWOM9MR","3KVQ0UJWPX71V463XQYDOZYIDLRW5D","","851.2999999970198","img/animal3.png","76","851.6000000014901","3","1","3","1,0.7,0,1,0.7,0,0.7,0,1",""
"","html-keyboard-response","248","212115","0.0-248.0","3PMBY0YE28PD4D04ARGVD4S5EILC9Q","A1DZMZTXWOM9MR","3KVQ0UJWPX71V463XQYDOZYIDLRW5D","","null","<img src=""img/animal3.png"" style=""width:200px; border:14px solid green;"">","null","","","","","",""
"","image-keyboard-response","249","212884","0.0-249.0","3PMBY0YE28PD4D04ARGVD4S5EILC9Q","A1DZMZTXWOM9MR","3KVQ0UJWPX71V463XQYDOZYIDLRW5D","","768.0999999940395","img/animal5.png","74","769.1000000014901","1","1","2","1,0.7,0,1,0.7,0,0.7,0,1",""
"","html-keyboard-response","250","213189","0.0-250.0","3PMBY0YE28PD4D04ARGVD4S5EILC9Q","A1DZMZTXWOM9MR","3KVQ0UJWPX71V463XQYDOZYIDLRW5D","","null","<img src=""img/animal5.png"" style=""width:200px; border:14px solid green;"">","null","","","","","",""
"","image-keyboard-response","251","213883","0.0-251.0","3PMBY0YE28PD4D04ARGVD4S5EILC9Q","A1DZMZTXWOM9MR","3KVQ0UJWPX71V463XQYDOZYIDLRW5D","","693.3999999985099","img/animal3.png","76","693.8000000044703","3","1","3","1,0.7,0,1,0.7,0,0.7,0,1",""
"","html-keyboard-response","252","214184","0.0-252.0","3PMBY0YE28PD4D04ARGVD4S5EILC9Q","A1DZMZTXWOM9MR","3KVQ0UJWPX71V463XQYDOZYIDLRW5D","","null","<img src=""img/animal3.png"" style=""width:200px; border:14px solid green;"">","null","","","","","",""
"","image-keyboard-response","253","214573","0.0-253.0","3PMBY0YE28PD4D04ARGVD4S5EILC9Q","A1DZMZTXWOM9MR","3KVQ0UJWPX71V463XQYDOZYIDLRW5D","","387.6000000014901","img/animal3.png","76","388.20000000298023","3","1","3","1,0.7,0,1,0.7,0,0.7,0,1",""
"","html-keyboard-response","254","214876","0.0-254.0","3PMBY0YE28PD4D04ARGVD4S5EILC9Q","A1DZMZTXWOM9MR","3KVQ0UJWPX71V463XQYDOZYIDLRW5D","","null","<img src=""img/animal3.png"" style=""width:200px; border:14px solid green;"">","null","","","","","",""
"","image-keyboard-response","255","215473","0.0-255.0","3PMBY0YE28PD4D04ARGVD4S5EILC9Q","A1DZMZTXWOM9MR","3KVQ0UJWPX71V463XQYDOZYIDLRW5D","","596.3999999985099","img/animal5.png","74","597","1","1","2","1,0.7,0,1,0.7,0,0.7,0,1",""
"","html-keyboard-response","256","215774","0.0-256.0","3PMBY0YE28PD4D04ARGVD4S5EILC9Q","A1DZMZTXWOM9MR","3KVQ0UJWPX71V463XQYDOZYIDLRW5D","","null","<img src=""img/animal5.png"" style=""width:200px; border:14px solid green;"">","null","","","","","",""
"","image-keyboard-response","257","216365","0.0-257.0","3PMBY0YE28PD4D04ARGVD4S5EILC9Q","A1DZMZTXWOM9MR","3KVQ0UJWPX71V463XQYDOZYIDLRW5D","","589.6999999955297","img/animal1.png","75","590.6000000014901","2","1","1","1,0.7,0,1,0.7,0,0.7,0,1",""
"","html-keyboard-response","258","216669","0.0-258.0","3PMBY0YE28PD4D04ARGVD4S5EILC9Q","A1DZMZTXWOM9MR","3KVQ0UJWPX71V463XQYDOZYIDLRW5D","","null","<img src=""img/animal1.png"" style=""width:200px; border:14px solid green;"">","null","","","","","",""
"","image-keyboard-response","259","217291","0.0-259.0","3PMBY0YE28PD4D04ARGVD4S5EILC9Q","A1DZMZTXWOM9MR","3KVQ0UJWPX71V463XQYDOZYIDLRW5D","","621","img/animal5.png","74","621.4000000059605","1","1","2","1,0.7,0,1,0.7,0,0.7,0,1",""
"","html-keyboard-response","260","217592","0.0-260.0","3PMBY0YE28PD4D04ARGVD4S5EILC9Q","A1DZMZTXWOM9MR","3KVQ0UJWPX71V463XQYDOZYIDLRW5D","","null","<img src=""img/animal5.png"" style=""width:200px; border:14px solid green;"">","null","","","","","",""
"","image-keyboard-response","261","217950","0.0-261.0","3PMBY0YE28PD4D04ARGVD4S5EILC9Q","A1DZMZTXWOM9MR","3KVQ0UJWPX71V463XQYDOZYIDLRW5D","","357.70000000298023","img/animal5.png","74","358.1000000014901","1","1","2","1,0.7,0,1,0.7,0,0.7,0,1",""
"","html-keyboard-response","262","218252","0.0-262.0","3PMBY0YE28PD4D04ARGVD4S5EILC9Q","A1DZMZTXWOM9MR","3KVQ0UJWPX71V463XQYDOZYIDLRW5D","","null","<img src=""img/animal5.png"" style=""width:200px; border:14px solid green;"">","null","","","","","",""
"","image-keyboard-response","263","218935","0.0-263.0","3PMBY0YE28PD4D04ARGVD4S5EILC9Q","A1DZMZTXWOM9MR","3KVQ0UJWPX71V463XQYDOZYIDLRW5D","","682","img/animal3.png","76","682.2999999970198","3","1","3","1,0.7,0,1,0.7,0,0.7,0,1",""
"","html-keyboard-response","264","219236","0.0-264.0","3PMBY0YE28PD4D04ARGVD4S5EILC9Q","A1DZMZTXWOM9MR","3KVQ0UJWPX71V463XQYDOZYIDLRW5D","","null","<img src=""img/animal3.png"" style=""width:200px; border:14px solid green;"">","null","","","","","",""
"","image-keyboard-response","265","219996","0.0-265.0","3PMBY0YE28PD4D04ARGVD4S5EILC9Q","A1DZMZTXWOM9MR","3KVQ0UJWPX71V463XQYDOZYIDLRW5D","","760.3999999985099","img/animal1.png","75","760.7999999970198","2","1","1","1,0.7,0,1,0.7,0,0.7,0,1",""
"","html-keyboard-response","266","220308","0.0-266.0","3PMBY0YE28PD4D04ARGVD4S5EILC9Q","A1DZMZTXWOM9MR","3KVQ0UJWPX71V463XQYDOZYIDLRW5D","","null","<img src=""img/animal1.png"" style=""width:200px; border:14px solid green;"">","null","","","","","",""
"","image-keyboard-response","267","220640","0.0-267.0","3PMBY0YE28PD4D04ARGVD4S5EILC9Q","A1DZMZTXWOM9MR","3KVQ0UJWPX71V463XQYDOZYIDLRW5D","","331.5","img/animal1.png","75","331.8999999985099","2","1","1","1,0.7,0,1,0.7,0,0.7,0,1",""
"","html-keyboard-response","268","220941","0.0-268.0","3PMBY0YE28PD4D04ARGVD4S5EILC9Q","A1DZMZTXWOM9MR","3KVQ0UJWPX71V463XQYDOZYIDLRW5D","","null","<img src=""img/animal1.png"" style=""width:200px; border:14px solid green;"">","null","","","","","",""
"","image-keyboard-response","269","221487","0.0-269.0","3PMBY0YE28PD4D04ARGVD4S5EILC9Q","A1DZMZTXWOM9MR","3KVQ0UJWPX71V463XQYDOZYIDLRW5D","","544.4000000059605","img/animal5.png","74","545.3999999985099","1","1","2","1,0.7,0,1,0.7,0,0.7,0,1",""
"","html-keyboard-response","270","221789","0.0-270.0","3PMBY0YE28PD4D04ARGVD4S5EILC9Q","A1DZMZTXWOM9MR","3KVQ0UJWPX71V463XQYDOZYIDLRW5D","","null","<img src=""img/animal5.png"" style=""width:200px; border:14px solid green;"">","null","","","","","",""
"","image-keyboard-response","271","222461","0.0-271.0","3PMBY0YE28PD4D04ARGVD4S5EILC9Q","A1DZMZTXWOM9MR","3KVQ0UJWPX71V463XQYDOZYIDLRW5D","","671.3999999985099","img/animal1.png","75","671.8000000044703","2","0","1","1,0.7,0,1,0.7,0,0.7,0,1",""
"","html-keyboard-response","272","222763","0.0-272.0","3PMBY0YE28PD4D04ARGVD4S5EILC9Q","A1DZMZTXWOM9MR","3KVQ0UJWPX71V463XQYDOZYIDLRW5D","","null","<img src=""img/animal1.png"" style=""width:200px;border:14px solid red;"">","null","","","","","",""
"","image-keyboard-response","273","223384","0.0-273.0","3PMBY0YE28PD4D04ARGVD4S5EILC9Q","A1DZMZTXWOM9MR","3KVQ0UJWPX71V463XQYDOZYIDLRW5D","","619.8999999985099","img/animal3.png","76","620.8999999985099","3","1","3","1,0.7,0,1,0.7,0,0.7,0,1",""
"","html-keyboard-response","274","223686","0.0-274.0","3PMBY0YE28PD4D04ARGVD4S5EILC9Q","A1DZMZTXWOM9MR","3KVQ0UJWPX71V463XQYDOZYIDLRW5D","","null","<img src=""img/animal3.png"" style=""width:200px; border:14px solid green;"">","null","","","","","",""
"","image-keyboard-response","275","224078","0.0-275.0","3PMBY0YE28PD4D04ARGVD4S5EILC9Q","A1DZMZTXWOM9MR","3KVQ0UJWPX71V463XQYDOZYIDLRW5D","","391.5","img/animal3.png","76","392","3","1","3","1,0.7,0,1,0.7,0,0.7,0,1",""
"","html-keyboard-response","276","224379","0.0-276.0","3PMBY0YE28PD4D04ARGVD4S5EILC9Q","A1DZMZTXWOM9MR","3KVQ0UJWPX71V463XQYDOZYIDLRW5D","","null","<img src=""img/animal3.png"" style=""width:200px; border:14px solid green;"">","null","","","","","",""
"","image-keyboard-response","277","224728","0.0-277.0","3PMBY0YE28PD4D04ARGVD4S5EILC9Q","A1DZMZTXWOM9MR","3KVQ0UJWPX71V463XQYDOZYIDLRW5D","","348.20000000298023","img/animal3.png","76","349","3","1","3","1,0.7,0,1,0.7,0,0.7,0,1",""
"","html-keyboard-response","278","225030","0.0-278.0","3PMBY0YE28PD4D04ARGVD4S5EILC9Q","A1DZMZTXWOM9MR","3KVQ0UJWPX71V463XQYDOZYIDLRW5D","","null","<img src=""img/animal3.png"" style=""width:200px; border:14px solid green;"">","null","","","","","",""
"","image-keyboard-response","279","225676","0.0-279.0","3PMBY0YE28PD4D04ARGVD4S5EILC9Q","A1DZMZTXWOM9MR","3KVQ0UJWPX71V463XQYDOZYIDLRW5D","","645.1000000014901","img/animal1.png","74","646.1999999955297","1","1","1","1,0.7,0,1,0.7,0,0.7,0,1",""
"","html-keyboard-response","280","225978","0.0-280.0","3PMBY0YE28PD4D04ARGVD4S5EILC9Q","A1DZMZTXWOM9MR","3KVQ0UJWPX71V463XQYDOZYIDLRW5D","","null","<img src=""img/animal1.png"" style=""width:200px; border:14px solid green;"">","null","","","","","",""
"","image-keyboard-response","281","226859","0.0-281.0","3PMBY0YE28PD4D04ARGVD4S5EILC9Q","A1DZMZTXWOM9MR","3KVQ0UJWPX71V463XQYDOZYIDLRW5D","","880","img/animal3.png","76","880.5","3","1","3","1,0.7,0,1,0.7,0,0.7,0,1",""
"","html-keyboard-response","282","227161","0.0-282.0","3PMBY0YE28PD4D04ARGVD4S5EILC9Q","A1DZMZTXWOM9MR","3KVQ0UJWPX71V463XQYDOZYIDLRW5D","","null","<img src=""img/animal3.png"" style=""width:200px; border:14px solid green;"">","null","","","","","",""
"","image-keyboard-response","283","227709","0.0-283.0","3PMBY0YE28PD4D04ARGVD4S5EILC9Q","A1DZMZTXWOM9MR","3KVQ0UJWPX71V463XQYDOZYIDLRW5D","","547.7999999970198","img/animal5.png","74","548.1000000014901","1","1","2","1,0.7,0,1,0.7,0,0.7,0,1",""
"","html-keyboard-response","284","228012","0.0-284.0","3PMBY0YE28PD4D04ARGVD4S5EILC9Q","A1DZMZTXWOM9MR","3KVQ0UJWPX71V463XQYDOZYIDLRW5D","","null","<img src=""img/animal5.png"" style=""width:200px; border:14px solid green;"">","null","","","","","",""
"","image-keyboard-response","285","228340","0.0-285.0","3PMBY0YE28PD4D04ARGVD4S5EILC9Q","A1DZMZTXWOM9MR","3KVQ0UJWPX71V463XQYDOZYIDLRW5D","","327.70000000298023","img/animal5.png","74","328","1","1","2","1,0.7,0,1,0.7,0,0.7,0,1",""
"","html-keyboard-response","286","228642","0.0-286.0","3PMBY0YE28PD4D04ARGVD4S5EILC9Q","A1DZMZTXWOM9MR","3KVQ0UJWPX71V463XQYDOZYIDLRW5D","","null","<img src=""img/animal5.png"" style=""width:200px; border:14px solid green;"">","null","","","","","",""
"","image-keyboard-response","287","229198","0.0-287.0","3PMBY0YE28PD4D04ARGVD4S5EILC9Q","A1DZMZTXWOM9MR","3KVQ0UJWPX71V463XQYDOZYIDLRW5D","","555.7000000029802","img/animal1.png","75","556.0999999940395","2","0","1","1,0.7,0,1,0.7,0,0.7,0,1",""
"","html-keyboard-response","288","229499","0.0-288.0","3PMBY0YE28PD4D04ARGVD4S5EILC9Q","A1DZMZTXWOM9MR","3KVQ0UJWPX71V463XQYDOZYIDLRW5D","","null","<img src=""img/animal1.png"" style=""width:200px;border:14px solid red;"">","null","","","","","",""
"","image-keyboard-response","289","230387","0.0-289.0","3PMBY0YE28PD4D04ARGVD4S5EILC9Q","A1DZMZTXWOM9MR","3KVQ0UJWPX71V463XQYDOZYIDLRW5D","","887.6000000014901","img/animal5.png","74","888.1000000014901","1","1","2","1,0.7,0,1,0.7,0,0.7,0,1",""
"","html-keyboard-response","290","230690","0.0-290.0","3PMBY0YE28PD4D04ARGVD4S5EILC9Q","A1DZMZTXWOM9MR","3KVQ0UJWPX71V463XQYDOZYIDLRW5D","","null","<img src=""img/animal5.png"" style=""width:200px; border:14px solid green;"">","null","","","","","",""
"","image-keyboard-response","291","231118","0.0-291.0","3PMBY0YE28PD4D04ARGVD4S5EILC9Q","A1DZMZTXWOM9MR","3KVQ0UJWPX71V463XQYDOZYIDLRW5D","","427.6000000014901","img/animal1.png","75","428.1000000014901","2","1","1","1,0.7,0,1,0.7,0,0.7,0,1",""
"","html-keyboard-response","292","231419","0.0-292.0","3PMBY0YE28PD4D04ARGVD4S5EILC9Q","A1DZMZTXWOM9MR","3KVQ0UJWPX71V463XQYDOZYIDLRW5D","","null","<img src=""img/animal1.png"" style=""width:200px; border:14px solid green;"">","null","","","","","",""
"","image-keyboard-response","293","232027","0.0-293.0","3PMBY0YE28PD4D04ARGVD4S5EILC9Q","A1DZMZTXWOM9MR","3KVQ0UJWPX71V463XQYDOZYIDLRW5D","","607.3999999985099","img/animal5.png","74","608.0999999940395","1","1","2","1,0.7,0,1,0.7,0,0.7,0,1",""
"","html-keyboard-response","294","232329","0.0-294.0","3PMBY0YE28PD4D04ARGVD4S5EILC9Q","A1DZMZTXWOM9MR","3KVQ0UJWPX71V463XQYDOZYIDLRW5D","","null","<img src=""img/animal5.png"" style=""width:200px; border:14px solid green;"">","null","","","","","",""
"","image-keyboard-response","295","232686","0.0-295.0","3PMBY0YE28PD4D04ARGVD4S5EILC9Q","A1DZMZTXWOM9MR","3KVQ0UJWPX71V463XQYDOZYIDLRW5D","","355.79999999701977","img/animal5.png","74","356.40000000596046","1","1","2","1,0.7,0,1,0.7,0,0.7,0,1",""
"","html-keyboard-response","296","232988","0.0-296.0","3PMBY0YE28PD4D04ARGVD4S5EILC9Q","A1DZMZTXWOM9MR","3KVQ0UJWPX71V463XQYDOZYIDLRW5D","","null","<img src=""img/animal5.png"" style=""width:200px; border:14px solid green;"">","null","","","","","",""
"","image-keyboard-response","297","233316","0.0-297.0","3PMBY0YE28PD4D04ARGVD4S5EILC9Q","A1DZMZTXWOM9MR","3KVQ0UJWPX71V463XQYDOZYIDLRW5D","","327.09999999403954","img/animal5.png","74","327.70000000298023","1","1","2","1,0.7,0,1,0.7,0,0.7,0,1",""
"","html-keyboard-response","298","233618","0.0-298.0","3PMBY0YE28PD4D04ARGVD4S5EILC9Q","A1DZMZTXWOM9MR","3KVQ0UJWPX71V463XQYDOZYIDLRW5D","","null","<img src=""img/animal5.png"" style=""width:200px; border:14px solid green;"">","null","","","","","",""
"","image-keyboard-response","299","234141","0.0-299.0","3PMBY0YE28PD4D04ARGVD4S5EILC9Q","A1DZMZTXWOM9MR","3KVQ0UJWPX71V463XQYDOZYIDLRW5D","","522.1000000014901","img/animal5.png","74","522.7000000029802","1","1","2","1,0.7,0,1,0.7,0,0.7,0,1",""
"","html-keyboard-response","300","234442","0.0-300.0","3PMBY0YE28PD4D04ARGVD4S5EILC9Q","A1DZMZTXWOM9MR","3KVQ0UJWPX71V463XQYDOZYIDLRW5D","","null","<img src=""img/animal5.png"" style=""width:200px; border:14px solid green;"">","null","","","","","",""
"","image-keyboard-response","301","235098","0.0-301.0","3PMBY0YE28PD4D04ARGVD4S5EILC9Q","A1DZMZTXWOM9MR","3KVQ0UJWPX71V463XQYDOZYIDLRW5D","","655.6999999955297","img/animal1.png","75","656.2000000029802","2","0","1","1,0.7,0,1,0.7,0,0.7,0,1",""
"","html-keyboard-response","302","235399","0.0-302.0","3PMBY0YE28PD4D04ARGVD4S5EILC9Q","A1DZMZTXWOM9MR","3KVQ0UJWPX71V463XQYDOZYIDLRW5D","","null","<img src=""img/animal1.png"" style=""width:200px;border:14px solid red;"">","null","","","","","",""
"","image-keyboard-response","303","236029","0.0-303.0","3PMBY0YE28PD4D04ARGVD4S5EILC9Q","A1DZMZTXWOM9MR","3KVQ0UJWPX71V463XQYDOZYIDLRW5D","","629.2000000029802","img/animal3.png","76","629.7000000029802","3","1","3","1,0.7,0,1,0.7,0,0.7,0,1",""
"","html-keyboard-response","304","236331","0.0-304.0","3PMBY0YE28PD4D04ARGVD4S5EILC9Q","A1DZMZTXWOM9MR","3KVQ0UJWPX71V463XQYDOZYIDLRW5D","","null","<img src=""img/animal3.png"" style=""width:200px; border:14px solid green;"">","null","","","","","",""
"","image-keyboard-response","305","236914","0.0-305.0","3PMBY0YE28PD4D04ARGVD4S5EILC9Q","A1DZMZTXWOM9MR","3KVQ0UJWPX71V463XQYDOZYIDLRW5D","","582","img/animal1.png","75","583","2","0","1","1,0.7,0,1,0.7,0,0.7,0,1",""
"","html-keyboard-response","306","237215","0.0-306.0","3PMBY0YE28PD4D04ARGVD4S5EILC9Q","A1DZMZTXWOM9MR","3KVQ0UJWPX71V463XQYDOZYIDLRW5D","","null","<img src=""img/animal1.png"" style=""width:200px;border:14px solid red;"">","null","","","","","",""
"","image-keyboard-response","307","237531","0.0-307.0","3PMBY0YE28PD4D04ARGVD4S5EILC9Q","A1DZMZTXWOM9MR","3KVQ0UJWPX71V463XQYDOZYIDLRW5D","","314.69999999552965","img/animal1.png","75","315.30000000447035","2","0","1","1,0.7,0,1,0.7,0,0.7,0,1",""
"","html-keyboard-response","308","237832","0.0-308.0","3PMBY0YE28PD4D04ARGVD4S5EILC9Q","A1DZMZTXWOM9MR","3KVQ0UJWPX71V463XQYDOZYIDLRW5D","","null","<img src=""img/animal1.png"" style=""width:200px;border:14px solid red;"">","null","","","","","",""
"","image-keyboard-response","309","238696","0.0-309.0","3PMBY0YE28PD4D04ARGVD4S5EILC9Q","A1DZMZTXWOM9MR","3KVQ0UJWPX71V463XQYDOZYIDLRW5D","","863.8000000044703","img/animal3.png","76","864.2999999970198","3","1","3","1,0.7,0,1,0.7,0,0.7,0,1",""
"","html-keyboard-response","310","238998","0.0-310.0","3PMBY0YE28PD4D04ARGVD4S5EILC9Q","A1DZMZTXWOM9MR","3KVQ0UJWPX71V463XQYDOZYIDLRW5D","","null","<img src=""img/animal3.png"" style=""width:200px; border:14px solid green;"">","null","","","","","",""
"","image-keyboard-response","311","239578","0.0-311.0","3PMBY0YE28PD4D04ARGVD4S5EILC9Q","A1DZMZTXWOM9MR","3KVQ0UJWPX71V463XQYDOZYIDLRW5D","","579","img/animal1.png","76","579.3999999985099","3","0","1","1,0.7,0,1,0.7,0,0.7,0,1",""
"","html-keyboard-response","312","239888","0.0-312.0","3PMBY0YE28PD4D04ARGVD4S5EILC9Q","A1DZMZTXWOM9MR","3KVQ0UJWPX71V463XQYDOZYIDLRW5D","","null","<img src=""img/animal1.png"" style=""width:200px;border:14px solid red;"">","null","","","","","",""
"","image-keyboard-response","313","240763","0.0-313.0","3PMBY0YE28PD4D04ARGVD4S5EILC9Q","A1DZMZTXWOM9MR","3KVQ0UJWPX71V463XQYDOZYIDLRW5D","","873.7000000029802","img/animal3.png","75","874.2999999970198","2","0","3","1,0.7,0,1,0.7,0,0.7,0,1",""
"","html-keyboard-response","314","241064","0.0-314.0","3PMBY0YE28PD4D04ARGVD4S5EILC9Q","A1DZMZTXWOM9MR","3KVQ0UJWPX71V463XQYDOZYIDLRW5D","","null","<img src=""img/animal3.png"" style=""width:200px;border:14px solid red;"">","null","","","","","",""
"","image-keyboard-response","315","241728","0.0-315.0","3PMBY0YE28PD4D04ARGVD4S5EILC9Q","A1DZMZTXWOM9MR","3KVQ0UJWPX71V463XQYDOZYIDLRW5D","","663.6000000014901","img/animal5.png","74","664.1000000014901","1","1","2","1,0.7,0,1,0.7,0,0.7,0,1",""
"","html-keyboard-response","316","242029","0.0-316.0","3PMBY0YE28PD4D04ARGVD4S5EILC9Q","A1DZMZTXWOM9MR","3KVQ0UJWPX71V463XQYDOZYIDLRW5D","","null","<img src=""img/animal5.png"" style=""width:200px; border:14px solid green;"">","null","","","","","",""
"","image-keyboard-response","317","242705","0.0-317.0","3PMBY0YE28PD4D04ARGVD4S5EILC9Q","A1DZMZTXWOM9MR","3KVQ0UJWPX71V463XQYDOZYIDLRW5D","","675.7999999970198","img/animal1.png","74","676.3999999985099","1","1","1","1,0.7,0,1,0.7,0,0.7,0,1",""
"","html-keyboard-response","318","243007","0.0-318.0","3PMBY0YE28PD4D04ARGVD4S5EILC9Q","A1DZMZTXWOM9MR","3KVQ0UJWPX71V463XQYDOZYIDLRW5D","","null","<img src=""img/animal1.png"" style=""width:200px; border:14px solid green;"">","null","","","","","",""
"","image-keyboard-response","319","243808","0.0-319.0","3PMBY0YE28PD4D04ARGVD4S5EILC9Q","A1DZMZTXWOM9MR","3KVQ0UJWPX71V463XQYDOZYIDLRW5D","","800.2000000029802","img/animal5.png","74","800.8999999985099","1","1","2","1,0.7,0,1,0.7,0,0.7,0,1",""
"","html-keyboard-response","320","244110","0.0-320.0","3PMBY0YE28PD4D04ARGVD4S5EILC9Q","A1DZMZTXWOM9MR","3KVQ0UJWPX71V463XQYDOZYIDLRW5D","","null","<img src=""img/animal5.png"" style=""width:200px; border:14px solid green;"">","null","","","","","",""
"","image-keyboard-response","321","244613","0.0-321.0","3PMBY0YE28PD4D04ARGVD4S5EILC9Q","A1DZMZTXWOM9MR","3KVQ0UJWPX71V463XQYDOZYIDLRW5D","","502.29999999701977","img/animal1.png","74","502.6000000014901","1","1","1","1,0.7,0,1,0.7,0,0.7,0,1",""
"","html-keyboard-response","322","244914","0.0-322.0","3PMBY0YE28PD4D04ARGVD4S5EILC9Q","A1DZMZTXWOM9MR","3KVQ0UJWPX71V463XQYDOZYIDLRW5D","","null","<img src=""img/animal1.png"" style=""width:200px; border:14px solid green;"">","null","","","","","",""
"","image-keyboard-response","323","245759","0.0-323.0","3PMBY0YE28PD4D04ARGVD4S5EILC9Q","A1DZMZTXWOM9MR","3KVQ0UJWPX71V463XQYDOZYIDLRW5D","","844.2000000029802","img/animal3.png","76","844.7999999970198","3","1","3","1,0.7,0,1,0.7,0,0.7,0,1",""
"","html-keyboard-response","324","246061","0.0-324.0","3PMBY0YE28PD4D04ARGVD4S5EILC9Q","A1DZMZTXWOM9MR","3KVQ0UJWPX71V463XQYDOZYIDLRW5D","","null","<img src=""img/animal3.png"" style=""width:200px; border:14px solid green;"">","null","","","","","",""
"","image-keyboard-response","325","246952","0.0-325.0","3PMBY0YE28PD4D04ARGVD4S5EILC9Q","A1DZMZTXWOM9MR","3KVQ0UJWPX71V463XQYDOZYIDLRW5D","","889.1999999955297","img/animal1.png","74","890.2999999970198","1","1","1","1,0.7,0,1,0.7,0,0.7,0,1",""
"","html-keyboard-response","326","247254","0.0-326.0","3PMBY0YE28PD4D04ARGVD4S5EILC9Q","A1DZMZTXWOM9MR","3KVQ0UJWPX71V463XQYDOZYIDLRW5D","","null","<img src=""img/animal1.png"" style=""width:200px; border:14px solid green;"">","null","","","","","",""
"","image-keyboard-response","327","247582","0.0-327.0","3PMBY0YE28PD4D04ARGVD4S5EILC9Q","A1DZMZTXWOM9MR","3KVQ0UJWPX71V463XQYDOZYIDLRW5D","","326.8999999985099","img/animal1.png","74","327.6000000014901","1","1","1","1,0.7,0,1,0.7,0,0.7,0,1",""
"","html-keyboard-response","328","247884","0.0-328.0","3PMBY0YE28PD4D04ARGVD4S5EILC9Q","A1DZMZTXWOM9MR","3KVQ0UJWPX71V463XQYDOZYIDLRW5D","","null","<img src=""img/animal1.png"" style=""width:200px; border:14px solid green;"">","null","","","","","",""
"","image-keyboard-response","329","248507","0.0-329.0","3PMBY0YE28PD4D04ARGVD4S5EILC9Q","A1DZMZTXWOM9MR","3KVQ0UJWPX71V463XQYDOZYIDLRW5D","","621.2000000029802","img/animal5.png","74","622.5","1","1","2","1,0.7,0,1,0.7,0,0.7,0,1",""
"","html-keyboard-response","330","248809","0.0-330.0","3PMBY0YE28PD4D04ARGVD4S5EILC9Q","A1DZMZTXWOM9MR","3KVQ0UJWPX71V463XQYDOZYIDLRW5D","","null","<img src=""img/animal5.png"" style=""width:200px; border:14px solid green;"">","null","","","","","",""
"","image-keyboard-response","331","249145","0.0-331.0","3PMBY0YE28PD4D04ARGVD4S5EILC9Q","A1DZMZTXWOM9MR","3KVQ0UJWPX71V463XQYDOZYIDLRW5D","","336.29999999701977","img/animal5.png","74","336.79999999701977","1","1","2","1,0.7,0,1,0.7,0,0.7,0,1",""
"","html-keyboard-response","332","249446","0.0-332.0","3PMBY0YE28PD4D04ARGVD4S5EILC9Q","A1DZMZTXWOM9MR","3KVQ0UJWPX71V463XQYDOZYIDLRW5D","","null","<img src=""img/animal5.png"" style=""width:200px; border:14px solid green;"">","null","","","","","",""
"","image-keyboard-response","333","250144","0.0-333.0","3PMBY0YE28PD4D04ARGVD4S5EILC9Q","A1DZMZTXWOM9MR","3KVQ0UJWPX71V463XQYDOZYIDLRW5D","","697.3000000044703","img/animal1.png","74","697.6999999955297","1","1","1","1,0.7,0,1,0.7,0,0.7,0,1",""
"","html-keyboard-response","334","250445","0.0-334.0","3PMBY0YE28PD4D04ARGVD4S5EILC9Q","A1DZMZTXWOM9MR","3KVQ0UJWPX71V463XQYDOZYIDLRW5D","","null","<img src=""img/animal1.png"" style=""width:200px; border:14px solid green;"">","null","","","","","",""
"","image-keyboard-response","335","251070","0.0-335.0","3PMBY0YE28PD4D04ARGVD4S5EILC9Q","A1DZMZTXWOM9MR","3KVQ0UJWPX71V463XQYDOZYIDLRW5D","","625.1999999955297","img/animal5.png","74","625.7000000029802","1","1","2","1,0.7,0,1,0.7,0,0.7,0,1",""
"","html-keyboard-response","336","251372","0.0-336.0","3PMBY0YE28PD4D04ARGVD4S5EILC9Q","A1DZMZTXWOM9MR","3KVQ0UJWPX71V463XQYDOZYIDLRW5D","","null","<img src=""img/animal5.png"" style=""width:200px; border:14px solid green;"">","null","","","","","",""
"","image-keyboard-response","337","251897","0.0-337.0","3PMBY0YE28PD4D04ARGVD4S5EILC9Q","A1DZMZTXWOM9MR","3KVQ0UJWPX71V463XQYDOZYIDLRW5D","","524.8000000044703","img/animal1.png","74","525","1","1","1","1,0.7,0,1,0.7,0,0.7,0,1",""
"","html-keyboard-response","338","252199","0.0-338.0","3PMBY0YE28PD4D04ARGVD4S5EILC9Q","A1DZMZTXWOM9MR","3KVQ0UJWPX71V463XQYDOZYIDLRW5D","","null","<img src=""img/animal1.png"" style=""width:200px; border:14px solid green;"">","null","","","","","",""
"","image-keyboard-response","339","252713","0.0-339.0","3PMBY0YE28PD4D04ARGVD4S5EILC9Q","A1DZMZTXWOM9MR","3KVQ0UJWPX71V463XQYDOZYIDLRW5D","","512.6000000014901","img/animal3.png","76","513.2999999970198","3","1","3","1,0.7,0,1,0.7,0,0.7,0,1",""
"","html-keyboard-response","340","253015","0.0-340.0","3PMBY0YE28PD4D04ARGVD4S5EILC9Q","A1DZMZTXWOM9MR","3KVQ0UJWPX71V463XQYDOZYIDLRW5D","","null","<img src=""img/animal3.png"" style=""width:200px; border:14px solid green;"">","null","","","","","",""
"","image-keyboard-response","341","253846","0.0-341.0","3PMBY0YE28PD4D04ARGVD4S5EILC9Q","A1DZMZTXWOM9MR","3KVQ0UJWPX71V463XQYDOZYIDLRW5D","","831","img/animal1.png","74","831.2999999970198","1","1","1","1,0.7,0,1,0.7,0,0.7,0,1",""
"","html-keyboard-response","342","254148","0.0-342.0","3PMBY0YE28PD4D04ARGVD4S5EILC9Q","A1DZMZTXWOM9MR","3KVQ0UJWPX71V463XQYDOZYIDLRW5D","","null","<img src=""img/animal1.png"" style=""width:200px; border:14px solid green;"">","null","","","","","",""
"","image-keyboard-response","343","254786","0.0-343.0","3PMBY0YE28PD4D04ARGVD4S5EILC9Q","A1DZMZTXWOM9MR","3KVQ0UJWPX71V463XQYDOZYIDLRW5D","","637.3999999985099","img/animal3.png","76","637.8999999985099","3","1","3","1,0.7,0,1,0.7,0,0.7,0,1",""
"","html-keyboard-response","344","255087","0.0-344.0","3PMBY0YE28PD4D04ARGVD4S5EILC9Q","A1DZMZTXWOM9MR","3KVQ0UJWPX71V463XQYDOZYIDLRW5D","","null","<img src=""img/animal3.png"" style=""width:200px; border:14px solid green;"">","null","","","","","",""
"","image-keyboard-response","345","255421","0.0-345.0","3PMBY0YE28PD4D04ARGVD4S5EILC9Q","A1DZMZTXWOM9MR","3KVQ0UJWPX71V463XQYDOZYIDLRW5D","","332.90000000596046","img/animal3.png","76","333.20000000298023","3","1","3","1,0.7,0,1,0.7,0,0.7,0,1",""
"","html-keyboard-response","346","255722","0.0-346.0","3PMBY0YE28PD4D04ARGVD4S5EILC9Q","A1DZMZTXWOM9MR","3KVQ0UJWPX71V463XQYDOZYIDLRW5D","","null","<img src=""img/animal3.png"" style=""width:200px; border:14px solid green;"">","null","","","","","",""
"","image-keyboard-response","347","256104","0.0-347.0","3PMBY0YE28PD4D04ARGVD4S5EILC9Q","A1DZMZTXWOM9MR","3KVQ0UJWPX71V463XQYDOZYIDLRW5D","","381.69999999552965","img/animal3.png","76","382.20000000298023","3","1","3","1,0.7,0,1,0.7,0,0.7,0,1",""
"","html-keyboard-response","348","256405","0.0-348.0","3PMBY0YE28PD4D04ARGVD4S5EILC9Q","A1DZMZTXWOM9MR","3KVQ0UJWPX71V463XQYDOZYIDLRW5D","","null","<img src=""img/animal3.png"" style=""width:200px; border:14px solid green;"">","null","","","","","",""
"","image-keyboard-response","349","256953","0.0-349.0","3PMBY0YE28PD4D04ARGVD4S5EILC9Q","A1DZMZTXWOM9MR","3KVQ0UJWPX71V463XQYDOZYIDLRW5D","","547.7999999970198","img/animal5.png","74","548.2000000029802","1","1","2","1,0.7,0,1,0.7,0,0.7,0,1",""
"","html-keyboard-response","350","257254","0.0-350.0","3PMBY0YE28PD4D04ARGVD4S5EILC9Q","A1DZMZTXWOM9MR","3KVQ0UJWPX71V463XQYDOZYIDLRW5D","","null","<img src=""img/animal5.png"" style=""width:200px; border:14px solid green;"">","null","","","","","",""
"","image-keyboard-response","351","257836","0.0-351.0","3PMBY0YE28PD4D04ARGVD4S5EILC9Q","A1DZMZTXWOM9MR","3KVQ0UJWPX71V463XQYDOZYIDLRW5D","","581.2999999970198","img/animal3.png","76","582.1000000014901","3","1","3","1,0.7,0,1,0.7,0,0.7,0,1",""
"","html-keyboard-response","352","258137","0.0-352.0","3PMBY0YE28PD4D04ARGVD4S5EILC9Q","A1DZMZTXWOM9MR","3KVQ0UJWPX71V463XQYDOZYIDLRW5D","","null","<img src=""img/animal3.png"" style=""width:200px; border:14px solid green;"">","null","","","","","",""
"","image-keyboard-response","353","258645","0.0-353.0","3PMBY0YE28PD4D04ARGVD4S5EILC9Q","A1DZMZTXWOM9MR","3KVQ0UJWPX71V463XQYDOZYIDLRW5D","","507.70000000298023","img/animal5.png","74","508.3999999985099","1","1","2","1,0.7,0,1,0.7,0,0.7,0,1",""
"","html-keyboard-response","354","258947","0.0-354.0","3PMBY0YE28PD4D04ARGVD4S5EILC9Q","A1DZMZTXWOM9MR","3KVQ0UJWPX71V463XQYDOZYIDLRW5D","","null","<img src=""img/animal5.png"" style=""width:200px; border:14px solid green;"">","null","","","","","",""
"","image-keyboard-response","355","259482","0.0-355.0","3PMBY0YE28PD4D04ARGVD4S5EILC9Q","A1DZMZTXWOM9MR","3KVQ0UJWPX71V463XQYDOZYIDLRW5D","","534.7999999970198","img/animal3.png","76","535.2999999970198","3","1","3","1,0.7,0,1,0.7,0,0.7,0,1",""
"","html-keyboard-response","356","259784","0.0-356.0","3PMBY0YE28PD4D04ARGVD4S5EILC9Q","A1DZMZTXWOM9MR","3KVQ0UJWPX71V463XQYDOZYIDLRW5D","","null","<img src=""img/animal3.png"" style=""width:200px; border:14px solid green;"">","null","","","","","",""
"","image-keyboard-response","357","260375","0.0-357.0","3PMBY0YE28PD4D04ARGVD4S5EILC9Q","A1DZMZTXWOM9MR","3KVQ0UJWPX71V463XQYDOZYIDLRW5D","","590.3000000044703","img/animal1.png","74","590.7999999970198","1","1","1","1,0.7,0,1,0.7,0,0.7,0,1",""
"","html-keyboard-response","358","260677","0.0-358.0","3PMBY0YE28PD4D04ARGVD4S5EILC9Q","A1DZMZTXWOM9MR","3KVQ0UJWPX71V463XQYDOZYIDLRW5D","","null","<img src=""img/animal1.png"" style=""width:200px; border:14px solid green;"">","null","","","","","",""
"","image-keyboard-response","359","261038","0.0-359.0","3PMBY0YE28PD4D04ARGVD4S5EILC9Q","A1DZMZTXWOM9MR","3KVQ0UJWPX71V463XQYDOZYIDLRW5D","","360.5","img/animal1.png","74","361.19999999552965","1","1","1","1,0.7,0,1,0.7,0,0.7,0,1",""
"","html-keyboard-response","360","261340","0.0-360.0","3PMBY0YE28PD4D04ARGVD4S5EILC9Q","A1DZMZTXWOM9MR","3KVQ0UJWPX71V463XQYDOZYIDLRW5D","","null","<img src=""img/animal1.png"" style=""width:200px; border:14px solid green;"">","null","","","","","",""
"","image-keyboard-response","361","262075","0.0-361.0","3PMBY0YE28PD4D04ARGVD4S5EILC9Q","A1DZMZTXWOM9MR","3KVQ0UJWPX71V463XQYDOZYIDLRW5D","","735","img/animal5.png","74","735.8999999985099","1","1","2","1,0.7,0,1,0.7,0,0.7,0,1",""
"","html-keyboard-response","362","262379","0.0-362.0","3PMBY0YE28PD4D04ARGVD4S5EILC9Q","A1DZMZTXWOM9MR","3KVQ0UJWPX71V463XQYDOZYIDLRW5D","","null","<img src=""img/animal5.png"" style=""width:200px; border:14px solid green;"">","null","","","","","",""
"","instructions","363","268933","0.0-363.0","3PMBY0YE28PD4D04ARGVD4S5EILC9Q","A1DZMZTXWOM9MR","3KVQ0UJWPX71V463XQYDOZYIDLRW5D","[{""page_index"":0,""viewing_time"":6553.39999999851}]","6553.5","","","","","","","",""
"","survey-text","364","283235","0.0-364.0","3PMBY0YE28PD4D04ARGVD4S5EILC9Q","A1DZMZTXWOM9MR","3KVQ0UJWPX71V463XQYDOZYIDLRW5D","","14300.80000000447","","","","","","","","{""Q0"":""A1DZMZTXWOM9MR""}"
