"success","trial_type","trial_index","time_elapsed","internal_node_id","assignmentID","mturkID","hitID","view_history","rt","stimulus","key_press","reactionTime","a","r","s","reward_cond","responses"
"true","fullscreen","0","16227","0.0-0.0","3JRJSWSMQI76M9V2P9LGCFPMZ2OE34","A1EFBEBVZP3D6G","338431Z1FL1IVIVZ3BK6A6QS21HROA","","","","","","","","","",""
"","instructions","1","32216","0.0-1.0","3JRJSWSMQI76M9V2P9LGCFPMZ2OE34","A1EFBEBVZP3D6G","338431Z1FL1IVIVZ3BK6A6QS21HROA","[{""page_index"":0,""viewing_time"":3316},{""page_index"":1,""viewing_time"":1499},{""page_index"":2,""viewing_time"":856},{""page_index"":3,""viewing_time"":3355},{""page_index"":4,""viewing_time"":2961},{""page_index"":5,""viewing_time"":1672},{""page_index"":6,""viewing_time"":1372},{""page_index"":7,""viewing_time"":943}]","15976","","","","","","","",""
"","image-keyboard-response","2","34829","0.0-2.0","3JRJSWSMQI76M9V2P9LGCFPMZ2OE34","A1EFBEBVZP3D6G","338431Z1FL1IVIVZ3BK6A6QS21HROA","","2608","img/animal3.png","74","2613","1","1","3","1,0.7,0,0,1,0.7,0.7,0,1",""
"","html-keyboard-response","3","35148","0.0-3.0","3JRJSWSMQI76M9V2P9LGCFPMZ2OE34","A1EFBEBVZP3D6G","338431Z1FL1IVIVZ3BK6A6QS21HROA","","null","<img src=""img/animal3.png"" style=""width:200px; border:14px solid green;"">","null","","","","","",""
"","image-keyboard-response","4","35184","0.0-4.0","3JRJSWSMQI76M9V2P9LGCFPMZ2OE34","A1EFBEBVZP3D6G","338431Z1FL1IVIVZ3BK6A6QS21HROA","","33","img/animal4.png","74","35","1","0","2","1,0.7,0,0,1,0.7,0.7,0,1",""
"","html-keyboard-response","5","35489","0.0-5.0","3JRJSWSMQI76M9V2P9LGCFPMZ2OE34","A1EFBEBVZP3D6G","338431Z1FL1IVIVZ3BK6A6QS21HROA","","null","<img src=""img/animal4.png"" style=""width:200px;border:14px solid red;"">","null","","","","","",""
"","image-keyboard-response","6","35627","0.0-6.0","3JRJSWSMQI76M9V2P9LGCFPMZ2OE34","A1EFBEBVZP3D6G","338431Z1FL1IVIVZ3BK6A6QS21HROA","","137","img/animal6.png","76","138","3","0","1","1,0.7,0,0,1,0.7,0.7,0,1",""
"","html-keyboard-response","7","35931","0.0-7.0","3JRJSWSMQI76M9V2P9LGCFPMZ2OE34","A1EFBEBVZP3D6G","338431Z1FL1IVIVZ3BK6A6QS21HROA","","null","<img src=""img/animal6.png"" style=""width:200px;border:14px solid red;"">","null","","","","","",""
"","image-keyboard-response","8","36034","0.0-8.0","3JRJSWSMQI76M9V2P9LGCFPMZ2OE34","A1EFBEBVZP3D6G","338431Z1FL1IVIVZ3BK6A6QS21HROA","","101","img/animal3.png","74","102","1","1","3","1,0.7,0,0,1,0.7,0.7,0,1",""
"","html-keyboard-response","9","36338","0.0-9.0","3JRJSWSMQI76M9V2P9LGCFPMZ2OE34","A1EFBEBVZP3D6G","338431Z1FL1IVIVZ3BK6A6QS21HROA","","null","<img src=""img/animal3.png"" style=""width:200px; border:14px solid green;"">","null","","","","","",""
"","image-keyboard-response","10","36473","0.0-10.0","3JRJSWSMQI76M9V2P9LGCFPMZ2OE34","A1EFBEBVZP3D6G","338431Z1FL1IVIVZ3BK6A6QS21HROA","","133","img/animal3.png","75","135","2","0","3","1,0.7,0,0,1,0.7,0.7,0,1",""
"","html-keyboard-response","11","36813","0.0-11.0","3JRJSWSMQI76M9V2P9LGCFPMZ2OE34","A1EFBEBVZP3D6G","338431Z1FL1IVIVZ3BK6A6QS21HROA","","null","<img src=""img/animal3.png"" style=""width:200px;border:14px solid red;"">","null","","","","","",""
"","image-keyboard-response","12","36857","0.0-12.0","3JRJSWSMQI76M9V2P9LGCFPMZ2OE34","A1EFBEBVZP3D6G","338431Z1FL1IVIVZ3BK6A6QS21HROA","","42","img/animal6.png","76","44","3","0","1","1,0.7,0,0,1,0.7,0.7,0,1",""
"","html-keyboard-response","13","37160","0.0-13.0","3JRJSWSMQI76M9V2P9LGCFPMZ2OE34","A1EFBEBVZP3D6G","338431Z1FL1IVIVZ3BK6A6QS21HROA","","null","<img src=""img/animal6.png"" style=""width:200px;border:14px solid red;"">","null","","","","","",""
"","image-keyboard-response","14","37242","0.0-14.0","3JRJSWSMQI76M9V2P9LGCFPMZ2OE34","A1EFBEBVZP3D6G","338431Z1FL1IVIVZ3BK6A6QS21HROA","","81","img/animal4.png","75","82","2","1","2","1,0.7,0,0,1,0.7,0.7,0,1",""
"","html-keyboard-response","15","37598","0.0-15.0","3JRJSWSMQI76M9V2P9LGCFPMZ2OE34","A1EFBEBVZP3D6G","338431Z1FL1IVIVZ3BK6A6QS21HROA","","null","<img src=""img/animal4.png"" style=""width:200px; border:14px solid green;"">","null","","","","","",""
"","image-keyboard-response","16","37690","0.0-16.0","3JRJSWSMQI76M9V2P9LGCFPMZ2OE34","A1EFBEBVZP3D6G","338431Z1FL1IVIVZ3BK6A6QS21HROA","","91","img/animal3.png","74","91","1","0","3","1,0.7,0,0,1,0.7,0.7,0,1",""
"","html-keyboard-response","17","37997","0.0-17.0","3JRJSWSMQI76M9V2P9LGCFPMZ2OE34","A1EFBEBVZP3D6G","338431Z1FL1IVIVZ3BK6A6QS21HROA","","null","<img src=""img/animal3.png"" style=""width:200px;border:14px solid red;"">","null","","","","","",""
"","image-keyboard-response","18","38060","0.0-18.0","3JRJSWSMQI76M9V2P9LGCFPMZ2OE34","A1EFBEBVZP3D6G","338431Z1FL1IVIVZ3BK6A6QS21HROA","","59","img/animal4.png","75","62","2","1","2","1,0.7,0,0,1,0.7,0.7,0,1",""
"","html-keyboard-response","19","38362","0.0-19.0","3JRJSWSMQI76M9V2P9LGCFPMZ2OE34","A1EFBEBVZP3D6G","338431Z1FL1IVIVZ3BK6A6QS21HROA","","null","<img src=""img/animal4.png"" style=""width:200px; border:14px solid green;"">","null","","","","","",""
"","image-keyboard-response","20","38449","0.0-20.0","3JRJSWSMQI76M9V2P9LGCFPMZ2OE34","A1EFBEBVZP3D6G","338431Z1FL1IVIVZ3BK6A6QS21HROA","","85","img/animal4.png","76","86","3","1","2","1,0.7,0,0,1,0.7,0.7,0,1",""
"","html-keyboard-response","21","38760","0.0-21.0","3JRJSWSMQI76M9V2P9LGCFPMZ2OE34","A1EFBEBVZP3D6G","338431Z1FL1IVIVZ3BK6A6QS21HROA","","null","<img src=""img/animal4.png"" style=""width:200px; border:14px solid green;"">","null","","","","","",""
"","image-keyboard-response","22","38876","0.0-22.0","3JRJSWSMQI76M9V2P9LGCFPMZ2OE34","A1EFBEBVZP3D6G","338431Z1FL1IVIVZ3BK6A6QS21HROA","","113","img/animal3.png","74","115","1","1","3","1,0.7,0,0,1,0.7,0.7,0,1",""
"","html-keyboard-response","23","39182","0.0-23.0","3JRJSWSMQI76M9V2P9LGCFPMZ2OE34","A1EFBEBVZP3D6G","338431Z1FL1IVIVZ3BK6A6QS21HROA","","null","<img src=""img/animal3.png"" style=""width:200px; border:14px solid green;"">","null","","","","","",""
"","image-keyboard-response","24","39296","0.0-24.0","3JRJSWSMQI76M9V2P9LGCFPMZ2OE34","A1EFBEBVZP3D6G","338431Z1FL1IVIVZ3BK6A6QS21HROA","","112","img/animal6.png","76","113","3","0","1","1,0.7,0,0,1,0.7,0.7,0,1",""
"","html-keyboard-response","25","39617","0.0-25.0","3JRJSWSMQI76M9V2P9LGCFPMZ2OE34","A1EFBEBVZP3D6G","338431Z1FL1IVIVZ3BK6A6QS21HROA","","null","<img src=""img/animal6.png"" style=""width:200px;border:14px solid red;"">","null","","","","","",""
"","image-keyboard-response","26","39630","0.0-26.0","3JRJSWSMQI76M9V2P9LGCFPMZ2OE34","A1EFBEBVZP3D6G","338431Z1FL1IVIVZ3BK6A6QS21HROA","","13","img/animal4.png","76","15","3","1","2","1,0.7,0,0,1,0.7,0.7,0,1",""
"","html-keyboard-response","27","39941","0.0-27.0","3JRJSWSMQI76M9V2P9LGCFPMZ2OE34","A1EFBEBVZP3D6G","338431Z1FL1IVIVZ3BK6A6QS21HROA","","null","<img src=""img/animal4.png"" style=""width:200px; border:14px solid green;"">","null","","","","","",""
"","image-keyboard-response","28","40096","0.0-28.0","3JRJSWSMQI76M9V2P9LGCFPMZ2OE34","A1EFBEBVZP3D6G","338431Z1FL1IVIVZ3BK6A6QS21HROA","","153","img/animal3.png","75","154","2","0","3","1,0.7,0,0,1,0.7,0.7,0,1",""
"","html-keyboard-response","29","40397","0.0-29.0","3JRJSWSMQI76M9V2P9LGCFPMZ2OE34","A1EFBEBVZP3D6G","338431Z1FL1IVIVZ3BK6A6QS21HROA","","null","<img src=""img/animal3.png"" style=""width:200px;border:14px solid red;"">","null","","","","","",""
"","image-keyboard-response","30","40510","0.0-30.0","3JRJSWSMQI76M9V2P9LGCFPMZ2OE34","A1EFBEBVZP3D6G","338431Z1FL1IVIVZ3BK6A6QS21HROA","","110","img/animal6.png","75","112","2","1","1","1,0.7,0,0,1,0.7,0.7,0,1",""
"","html-keyboard-response","31","40831","0.0-31.0","3JRJSWSMQI76M9V2P9LGCFPMZ2OE34","A1EFBEBVZP3D6G","338431Z1FL1IVIVZ3BK6A6QS21HROA","","null","<img src=""img/animal6.png"" style=""width:200px; border:14px solid green;"">","null","","","","","",""
"","image-keyboard-response","32","40900","0.0-32.0","3JRJSWSMQI76M9V2P9LGCFPMZ2OE34","A1EFBEBVZP3D6G","338431Z1FL1IVIVZ3BK6A6QS21HROA","","68","img/animal3.png","75","69","2","0","3","1,0.7,0,0,1,0.7,0.7,0,1",""
"","html-keyboard-response","33","41203","0.0-33.0","3JRJSWSMQI76M9V2P9LGCFPMZ2OE34","A1EFBEBVZP3D6G","338431Z1FL1IVIVZ3BK6A6QS21HROA","","null","<img src=""img/animal3.png"" style=""width:200px;border:14px solid red;"">","null","","","","","",""
"","image-keyboard-response","34","41359","0.0-34.0","3JRJSWSMQI76M9V2P9LGCFPMZ2OE34","A1EFBEBVZP3D6G","338431Z1FL1IVIVZ3BK6A6QS21HROA","","153","img/animal6.png","76","155","3","0","1","1,0.7,0,0,1,0.7,0.7,0,1",""
"","html-keyboard-response","35","41661","0.0-35.0","3JRJSWSMQI76M9V2P9LGCFPMZ2OE34","A1EFBEBVZP3D6G","338431Z1FL1IVIVZ3BK6A6QS21HROA","","null","<img src=""img/animal6.png"" style=""width:200px;border:14px solid red;"">","null","","","","","",""
"","image-keyboard-response","36","42010","0.0-36.0","3JRJSWSMQI76M9V2P9LGCFPMZ2OE34","A1EFBEBVZP3D6G","338431Z1FL1IVIVZ3BK6A6QS21HROA","","346","img/animal3.png","76","348","3","1","3","1,0.7,0,0,1,0.7,0.7,0,1",""
"","html-keyboard-response","37","42363","0.0-37.0","3JRJSWSMQI76M9V2P9LGCFPMZ2OE34","A1EFBEBVZP3D6G","338431Z1FL1IVIVZ3BK6A6QS21HROA","","null","<img src=""img/animal3.png"" style=""width:200px; border:14px solid green;"">","null","","","","","",""
"","image-keyboard-response","38","42585","0.0-38.0","3JRJSWSMQI76M9V2P9LGCFPMZ2OE34","A1EFBEBVZP3D6G","338431Z1FL1IVIVZ3BK6A6QS21HROA","","205","img/animal4.png","74","222","1","0","2","1,0.7,0,0,1,0.7,0.7,0,1",""
"","html-keyboard-response","39","42898","0.0-39.0","3JRJSWSMQI76M9V2P9LGCFPMZ2OE34","A1EFBEBVZP3D6G","338431Z1FL1IVIVZ3BK6A6QS21HROA","","null","<img src=""img/animal4.png"" style=""width:200px;border:14px solid red;"">","null","","","","","",""
"","image-keyboard-response","40","42957","0.0-40.0","3JRJSWSMQI76M9V2P9LGCFPMZ2OE34","A1EFBEBVZP3D6G","338431Z1FL1IVIVZ3BK6A6QS21HROA","","57","img/animal3.png","74","58","1","1","3","1,0.7,0,0,1,0.7,0.7,0,1",""
"","html-keyboard-response","41","43259","0.0-41.0","3JRJSWSMQI76M9V2P9LGCFPMZ2OE34","A1EFBEBVZP3D6G","338431Z1FL1IVIVZ3BK6A6QS21HROA","","null","<img src=""img/animal3.png"" style=""width:200px; border:14px solid green;"">","null","","","","","",""
"","image-keyboard-response","42","43375","0.0-42.0","3JRJSWSMQI76M9V2P9LGCFPMZ2OE34","A1EFBEBVZP3D6G","338431Z1FL1IVIVZ3BK6A6QS21HROA","","113","img/animal6.png","76","115","3","0","1","1,0.7,0,0,1,0.7,0.7,0,1",""
"","html-keyboard-response","43","43677","0.0-43.0","3JRJSWSMQI76M9V2P9LGCFPMZ2OE34","A1EFBEBVZP3D6G","338431Z1FL1IVIVZ3BK6A6QS21HROA","","null","<img src=""img/animal6.png"" style=""width:200px;border:14px solid red;"">","null","","","","","",""
"","image-keyboard-response","44","43787","0.0-44.0","3JRJSWSMQI76M9V2P9LGCFPMZ2OE34","A1EFBEBVZP3D6G","338431Z1FL1IVIVZ3BK6A6QS21HROA","","107","img/animal6.png","75","108","2","1","1","1,0.7,0,0,1,0.7,0.7,0,1",""
"","html-keyboard-response","45","44088","0.0-45.0","3JRJSWSMQI76M9V2P9LGCFPMZ2OE34","A1EFBEBVZP3D6G","338431Z1FL1IVIVZ3BK6A6QS21HROA","","null","<img src=""img/animal6.png"" style=""width:200px; border:14px solid green;"">","null","","","","","",""
"","image-keyboard-response","46","44216","0.0-46.0","3JRJSWSMQI76M9V2P9LGCFPMZ2OE34","A1EFBEBVZP3D6G","338431Z1FL1IVIVZ3BK6A6QS21HROA","","125","img/animal4.png","74","127","1","0","2","1,0.7,0,0,1,0.7,0.7,0,1",""
"","html-keyboard-response","47","44527","0.0-47.0","3JRJSWSMQI76M9V2P9LGCFPMZ2OE34","A1EFBEBVZP3D6G","338431Z1FL1IVIVZ3BK6A6QS21HROA","","null","<img src=""img/animal4.png"" style=""width:200px;border:14px solid red;"">","null","","","","","",""
"","image-keyboard-response","48","44604","0.0-48.0","3JRJSWSMQI76M9V2P9LGCFPMZ2OE34","A1EFBEBVZP3D6G","338431Z1FL1IVIVZ3BK6A6QS21HROA","","69","img/animal6.png","75","71","2","0","1","1,0.7,0,0,1,0.7,0.7,0,1",""
"","html-keyboard-response","49","44911","0.0-49.0","3JRJSWSMQI76M9V2P9LGCFPMZ2OE34","A1EFBEBVZP3D6G","338431Z1FL1IVIVZ3BK6A6QS21HROA","","null","<img src=""img/animal6.png"" style=""width:200px;border:14px solid red;"">","null","","","","","",""
"","image-keyboard-response","50","45068","0.0-50.0","3JRJSWSMQI76M9V2P9LGCFPMZ2OE34","A1EFBEBVZP3D6G","338431Z1FL1IVIVZ3BK6A6QS21HROA","","153","img/animal3.png","74","158","1","1","3","1,0.7,0,0,1,0.7,0.7,0,1",""
"","html-keyboard-response","51","45372","0.0-51.0","3JRJSWSMQI76M9V2P9LGCFPMZ2OE34","A1EFBEBVZP3D6G","338431Z1FL1IVIVZ3BK6A6QS21HROA","","null","<img src=""img/animal3.png"" style=""width:200px; border:14px solid green;"">","null","","","","","",""
"","image-keyboard-response","52","45458","0.0-52.0","3JRJSWSMQI76M9V2P9LGCFPMZ2OE34","A1EFBEBVZP3D6G","338431Z1FL1IVIVZ3BK6A6QS21HROA","","84","img/animal6.png","76","85","3","0","1","1,0.7,0,0,1,0.7,0.7,0,1",""
"","html-keyboard-response","53","45778","0.0-53.0","3JRJSWSMQI76M9V2P9LGCFPMZ2OE34","A1EFBEBVZP3D6G","338431Z1FL1IVIVZ3BK6A6QS21HROA","","null","<img src=""img/animal6.png"" style=""width:200px;border:14px solid red;"">","null","","","","","",""
"","image-keyboard-response","54","45875","0.0-54.0","3JRJSWSMQI76M9V2P9LGCFPMZ2OE34","A1EFBEBVZP3D6G","338431Z1FL1IVIVZ3BK6A6QS21HROA","","93","img/animal6.png","74","96","1","1","1","1,0.7,0,0,1,0.7,0.7,0,1",""
"","html-keyboard-response","55","46304","0.0-55.0","3JRJSWSMQI76M9V2P9LGCFPMZ2OE34","A1EFBEBVZP3D6G","338431Z1FL1IVIVZ3BK6A6QS21HROA","","null","<img src=""img/animal6.png"" style=""width:200px; border:14px solid green;"">","null","","","","","",""
"","image-keyboard-response","56","46510","0.0-56.0","3JRJSWSMQI76M9V2P9LGCFPMZ2OE34","A1EFBEBVZP3D6G","338431Z1FL1IVIVZ3BK6A6QS21HROA","","193","img/animal4.png","74","205","1","0","2","1,0.7,0,0,1,0.7,0.7,0,1",""
"","html-keyboard-response","57","46821","0.0-57.0","3JRJSWSMQI76M9V2P9LGCFPMZ2OE34","A1EFBEBVZP3D6G","338431Z1FL1IVIVZ3BK6A6QS21HROA","","null","<img src=""img/animal4.png"" style=""width:200px;border:14px solid red;"">","null","","","","","",""
"","image-keyboard-response","58","46853","0.0-58.0","3JRJSWSMQI76M9V2P9LGCFPMZ2OE34","A1EFBEBVZP3D6G","338431Z1FL1IVIVZ3BK6A6QS21HROA","","30","img/animal6.png","75","31","2","0","1","1,0.7,0,0,1,0.7,0.7,0,1",""
"","html-keyboard-response","59","47159","0.0-59.0","3JRJSWSMQI76M9V2P9LGCFPMZ2OE34","A1EFBEBVZP3D6G","338431Z1FL1IVIVZ3BK6A6QS21HROA","","null","<img src=""img/animal6.png"" style=""width:200px;border:14px solid red;"">","null","","","","","",""
"","image-keyboard-response","60","47348","0.0-60.0","3JRJSWSMQI76M9V2P9LGCFPMZ2OE34","A1EFBEBVZP3D6G","338431Z1FL1IVIVZ3BK6A6QS21HROA","","187","img/animal4.png","76","189","3","0","2","1,0.7,0,0,1,0.7,0.7,0,1",""
"","html-keyboard-response","61","47657","0.0-61.0","3JRJSWSMQI76M9V2P9LGCFPMZ2OE34","A1EFBEBVZP3D6G","338431Z1FL1IVIVZ3BK6A6QS21HROA","","null","<img src=""img/animal4.png"" style=""width:200px;border:14px solid red;"">","null","","","","","",""
"","image-keyboard-response","62","47860","0.0-62.0","3JRJSWSMQI76M9V2P9LGCFPMZ2OE34","A1EFBEBVZP3D6G","338431Z1FL1IVIVZ3BK6A6QS21HROA","","200","img/animal6.png","75","202","2","1","1","1,0.7,0,0,1,0.7,0.7,0,1",""
"","html-keyboard-response","63","48172","0.0-63.0","3JRJSWSMQI76M9V2P9LGCFPMZ2OE34","A1EFBEBVZP3D6G","338431Z1FL1IVIVZ3BK6A6QS21HROA","","null","<img src=""img/animal6.png"" style=""width:200px; border:14px solid green;"">","null","","","","","",""
"","image-keyboard-response","64","48336","0.0-64.0","3JRJSWSMQI76M9V2P9LGCFPMZ2OE34","A1EFBEBVZP3D6G","338431Z1FL1IVIVZ3BK6A6QS21HROA","","162","img/animal6.png","75","164","2","0","1","1,0.7,0,0,1,0.7,0.7,0,1",""
"","html-keyboard-response","65","48647","0.0-65.0","3JRJSWSMQI76M9V2P9LGCFPMZ2OE34","A1EFBEBVZP3D6G","338431Z1FL1IVIVZ3BK6A6QS21HROA","","null","<img src=""img/animal6.png"" style=""width:200px;border:14px solid red;"">","null","","","","","",""
"","image-keyboard-response","66","48702","0.0-66.0","3JRJSWSMQI76M9V2P9LGCFPMZ2OE34","A1EFBEBVZP3D6G","338431Z1FL1IVIVZ3BK6A6QS21HROA","","54","img/animal6.png","74","56","1","1","1","1,0.7,0,0,1,0.7,0.7,0,1",""
"","html-keyboard-response","67","49006","0.0-67.0","3JRJSWSMQI76M9V2P9LGCFPMZ2OE34","A1EFBEBVZP3D6G","338431Z1FL1IVIVZ3BK6A6QS21HROA","","null","<img src=""img/animal6.png"" style=""width:200px; border:14px solid green;"">","null","","","","","",""
"","image-keyboard-response","68","49110","0.0-68.0","3JRJSWSMQI76M9V2P9LGCFPMZ2OE34","A1EFBEBVZP3D6G","338431Z1FL1IVIVZ3BK6A6QS21HROA","","102","img/animal3.png","76","104","3","1","3","1,0.7,0,0,1,0.7,0.7,0,1",""
"","html-keyboard-response","69","49415","0.0-69.0","3JRJSWSMQI76M9V2P9LGCFPMZ2OE34","A1EFBEBVZP3D6G","338431Z1FL1IVIVZ3BK6A6QS21HROA","","null","<img src=""img/animal3.png"" style=""width:200px; border:14px solid green;"">","null","","","","","",""
"","image-keyboard-response","70","49629","0.0-70.0","3JRJSWSMQI76M9V2P9LGCFPMZ2OE34","A1EFBEBVZP3D6G","338431Z1FL1IVIVZ3BK6A6QS21HROA","","207","img/animal6.png","74","212","1","1","1","1,0.7,0,0,1,0.7,0.7,0,1",""
"","html-keyboard-response","71","49932","0.0-71.0","3JRJSWSMQI76M9V2P9LGCFPMZ2OE34","A1EFBEBVZP3D6G","338431Z1FL1IVIVZ3BK6A6QS21HROA","","null","<img src=""img/animal6.png"" style=""width:200px; border:14px solid green;"">","null","","","","","",""
"","image-keyboard-response","72","50140","0.0-72.0","3JRJSWSMQI76M9V2P9LGCFPMZ2OE34","A1EFBEBVZP3D6G","338431Z1FL1IVIVZ3BK6A6QS21HROA","","206","img/animal3.png","75","207","2","0","3","1,0.7,0,0,1,0.7,0.7,0,1",""
"","html-keyboard-response","73","50446","0.0-73.0","3JRJSWSMQI76M9V2P9LGCFPMZ2OE34","A1EFBEBVZP3D6G","338431Z1FL1IVIVZ3BK6A6QS21HROA","","null","<img src=""img/animal3.png"" style=""width:200px;border:14px solid red;"">","null","","","","","",""
"","image-keyboard-response","74","50524","0.0-74.0","3JRJSWSMQI76M9V2P9LGCFPMZ2OE34","A1EFBEBVZP3D6G","338431Z1FL1IVIVZ3BK6A6QS21HROA","","77","img/animal3.png","75","78","2","0","3","1,0.7,0,0,1,0.7,0.7,0,1",""
"","html-keyboard-response","75","50827","0.0-75.0","3JRJSWSMQI76M9V2P9LGCFPMZ2OE34","A1EFBEBVZP3D6G","338431Z1FL1IVIVZ3BK6A6QS21HROA","","null","<img src=""img/animal3.png"" style=""width:200px;border:14px solid red;"">","null","","","","","",""
"","image-keyboard-response","76","50949","0.0-76.0","3JRJSWSMQI76M9V2P9LGCFPMZ2OE34","A1EFBEBVZP3D6G","338431Z1FL1IVIVZ3BK6A6QS21HROA","","118","img/animal4.png","74","121","1","0","2","1,0.7,0,0,1,0.7,0.7,0,1",""
"","html-keyboard-response","77","51259","0.0-77.0","3JRJSWSMQI76M9V2P9LGCFPMZ2OE34","A1EFBEBVZP3D6G","338431Z1FL1IVIVZ3BK6A6QS21HROA","","null","<img src=""img/animal4.png"" style=""width:200px;border:14px solid red;"">","null","","","","","",""
"","image-keyboard-response","78","51304","0.0-78.0","3JRJSWSMQI76M9V2P9LGCFPMZ2OE34","A1EFBEBVZP3D6G","338431Z1FL1IVIVZ3BK6A6QS21HROA","","44","img/animal4.png","74","44","1","0","2","1,0.7,0,0,1,0.7,0.7,0,1",""
"","html-keyboard-response","79","51606","0.0-79.0","3JRJSWSMQI76M9V2P9LGCFPMZ2OE34","A1EFBEBVZP3D6G","338431Z1FL1IVIVZ3BK6A6QS21HROA","","null","<img src=""img/animal4.png"" style=""width:200px;border:14px solid red;"">","null","","","","","",""
"","image-keyboard-response","80","51802","0.0-80.0","3JRJSWSMQI76M9V2P9LGCFPMZ2OE34","A1EFBEBVZP3D6G","338431Z1FL1IVIVZ3BK6A6QS21HROA","","194","img/animal3.png","75","196","2","0","3","1,0.7,0,0,1,0.7,0.7,0,1",""
"","html-keyboard-response","81","52107","0.0-81.0","3JRJSWSMQI76M9V2P9LGCFPMZ2OE34","A1EFBEBVZP3D6G","338431Z1FL1IVIVZ3BK6A6QS21HROA","","null","<img src=""img/animal3.png"" style=""width:200px;border:14px solid red;"">","null","","","","","",""
"","image-keyboard-response","82","52109","0.0-82.0","3JRJSWSMQI76M9V2P9LGCFPMZ2OE34","A1EFBEBVZP3D6G","338431Z1FL1IVIVZ3BK6A6QS21HROA","","1","img/animal4.png","76","1","3","1","2","1,0.7,0,0,1,0.7,0.7,0,1",""
"","html-keyboard-response","83","52436","0.0-83.0","3JRJSWSMQI76M9V2P9LGCFPMZ2OE34","A1EFBEBVZP3D6G","338431Z1FL1IVIVZ3BK6A6QS21HROA","","null","<img src=""img/animal4.png"" style=""width:200px; border:14px solid green;"">","null","","","","","",""
"","image-keyboard-response","84","52512","0.0-84.0","3JRJSWSMQI76M9V2P9LGCFPMZ2OE34","A1EFBEBVZP3D6G","338431Z1FL1IVIVZ3BK6A6QS21HROA","","74","img/animal3.png","75","76","2","0","3","1,0.7,0,0,1,0.7,0.7,0,1",""
"","html-keyboard-response","85","52824","0.0-85.0","3JRJSWSMQI76M9V2P9LGCFPMZ2OE34","A1EFBEBVZP3D6G","338431Z1FL1IVIVZ3BK6A6QS21HROA","","null","<img src=""img/animal3.png"" style=""width:200px;border:14px solid red;"">","null","","","","","",""
"","image-keyboard-response","86","52903","0.0-86.0","3JRJSWSMQI76M9V2P9LGCFPMZ2OE34","A1EFBEBVZP3D6G","338431Z1FL1IVIVZ3BK6A6QS21HROA","","77","img/animal4.png","75","78","2","1","2","1,0.7,0,0,1,0.7,0.7,0,1",""
"","html-keyboard-response","87","53215","0.0-87.0","3JRJSWSMQI76M9V2P9LGCFPMZ2OE34","A1EFBEBVZP3D6G","338431Z1FL1IVIVZ3BK6A6QS21HROA","","null","<img src=""img/animal4.png"" style=""width:200px; border:14px solid green;"">","null","","","","","",""
"","image-keyboard-response","88","53324","0.0-88.0","3JRJSWSMQI76M9V2P9LGCFPMZ2OE34","A1EFBEBVZP3D6G","338431Z1FL1IVIVZ3BK6A6QS21HROA","","107","img/animal4.png","75","109","2","1","2","1,0.7,0,0,1,0.7,0.7,0,1",""
"","html-keyboard-response","89","53646","0.0-89.0","3JRJSWSMQI76M9V2P9LGCFPMZ2OE34","A1EFBEBVZP3D6G","338431Z1FL1IVIVZ3BK6A6QS21HROA","","null","<img src=""img/animal4.png"" style=""width:200px; border:14px solid green;"">","null","","","","","",""
"","image-keyboard-response","90","53715","0.0-90.0","3JRJSWSMQI76M9V2P9LGCFPMZ2OE34","A1EFBEBVZP3D6G","338431Z1FL1IVIVZ3BK6A6QS21HROA","","65","img/animal3.png","74","68","1","0","3","1,0.7,0,0,1,0.7,0.7,0,1",""
"","html-keyboard-response","91","54017","0.0-91.0","3JRJSWSMQI76M9V2P9LGCFPMZ2OE34","A1EFBEBVZP3D6G","338431Z1FL1IVIVZ3BK6A6QS21HROA","","null","<img src=""img/animal3.png"" style=""width:200px;border:14px solid red;"">","null","","","","","",""
"","image-keyboard-response","92","54149","0.0-92.0","3JRJSWSMQI76M9V2P9LGCFPMZ2OE34","A1EFBEBVZP3D6G","338431Z1FL1IVIVZ3BK6A6QS21HROA","","129","img/animal4.png","74","131","1","0","2","1,0.7,0,0,1,0.7,0.7,0,1",""
"","html-keyboard-response","93","54451","0.0-93.0","3JRJSWSMQI76M9V2P9LGCFPMZ2OE34","A1EFBEBVZP3D6G","338431Z1FL1IVIVZ3BK6A6QS21HROA","","null","<img src=""img/animal4.png"" style=""width:200px;border:14px solid red;"">","null","","","","","",""
"","image-keyboard-response","94","54554","0.0-94.0","3JRJSWSMQI76M9V2P9LGCFPMZ2OE34","A1EFBEBVZP3D6G","338431Z1FL1IVIVZ3BK6A6QS21HROA","","100","img/animal6.png","74","102","1","1","1","1,0.7,0,0,1,0.7,0.7,0,1",""
"","html-keyboard-response","95","54856","0.0-95.0","3JRJSWSMQI76M9V2P9LGCFPMZ2OE34","A1EFBEBVZP3D6G","338431Z1FL1IVIVZ3BK6A6QS21HROA","","null","<img src=""img/animal6.png"" style=""width:200px; border:14px solid green;"">","null","","","","","",""
"","image-keyboard-response","96","54941","0.0-96.0","3JRJSWSMQI76M9V2P9LGCFPMZ2OE34","A1EFBEBVZP3D6G","338431Z1FL1IVIVZ3BK6A6QS21HROA","","83","img/animal3.png","76","85","3","1","3","1,0.7,0,0,1,0.7,0.7,0,1",""
"","html-keyboard-response","97","55243","0.0-97.0","3JRJSWSMQI76M9V2P9LGCFPMZ2OE34","A1EFBEBVZP3D6G","338431Z1FL1IVIVZ3BK6A6QS21HROA","","null","<img src=""img/animal3.png"" style=""width:200px; border:14px solid green;"">","null","","","","","",""
"","image-keyboard-response","98","55432","0.0-98.0","3JRJSWSMQI76M9V2P9LGCFPMZ2OE34","A1EFBEBVZP3D6G","338431Z1FL1IVIVZ3BK6A6QS21HROA","","187","img/animal6.png","75","188","2","1","1","1,0.7,0,0,1,0.7,0.7,0,1",""
"","html-keyboard-response","99","55743","0.0-99.0","3JRJSWSMQI76M9V2P9LGCFPMZ2OE34","A1EFBEBVZP3D6G","338431Z1FL1IVIVZ3BK6A6QS21HROA","","null","<img src=""img/animal6.png"" style=""width:200px; border:14px solid green;"">","null","","","","","",""
"","image-keyboard-response","100","55752","0.0-100.0","3JRJSWSMQI76M9V2P9LGCFPMZ2OE34","A1EFBEBVZP3D6G","338431Z1FL1IVIVZ3BK6A6QS21HROA","","6","img/animal4.png","75","7","2","1","2","1,0.7,0,0,1,0.7,0.7,0,1",""
"","html-keyboard-response","101","56077","0.0-101.0","3JRJSWSMQI76M9V2P9LGCFPMZ2OE34","A1EFBEBVZP3D6G","338431Z1FL1IVIVZ3BK6A6QS21HROA","","null","<img src=""img/animal4.png"" style=""width:200px; border:14px solid green;"">","null","","","","","",""
"","image-keyboard-response","102","56184","0.0-102.0","3JRJSWSMQI76M9V2P9LGCFPMZ2OE34","A1EFBEBVZP3D6G","338431Z1FL1IVIVZ3BK6A6QS21HROA","","105","img/animal4.png","75","107","2","1","2","1,0.7,0,0,1,0.7,0.7,0,1",""
"","html-keyboard-response","103","56510","0.0-103.0","3JRJSWSMQI76M9V2P9LGCFPMZ2OE34","A1EFBEBVZP3D6G","338431Z1FL1IVIVZ3BK6A6QS21HROA","","null","<img src=""img/animal4.png"" style=""width:200px; border:14px solid green;"">","null","","","","","",""
"","image-keyboard-response","104","56558","0.0-104.0","3JRJSWSMQI76M9V2P9LGCFPMZ2OE34","A1EFBEBVZP3D6G","338431Z1FL1IVIVZ3BK6A6QS21HROA","","36","img/animal6.png","75","38","2","1","1","1,0.7,0,0,1,0.7,0.7,0,1",""
"","html-keyboard-response","105","56860","0.0-105.0","3JRJSWSMQI76M9V2P9LGCFPMZ2OE34","A1EFBEBVZP3D6G","338431Z1FL1IVIVZ3BK6A6QS21HROA","","null","<img src=""img/animal6.png"" style=""width:200px; border:14px solid green;"">","null","","","","","",""
"","image-keyboard-response","106","56976","0.0-106.0","3JRJSWSMQI76M9V2P9LGCFPMZ2OE34","A1EFBEBVZP3D6G","338431Z1FL1IVIVZ3BK6A6QS21HROA","","115","img/animal4.png","74","116","1","0","2","1,0.7,0,0,1,0.7,0.7,0,1",""
"","html-keyboard-response","107","57278","0.0-107.0","3JRJSWSMQI76M9V2P9LGCFPMZ2OE34","A1EFBEBVZP3D6G","338431Z1FL1IVIVZ3BK6A6QS21HROA","","null","<img src=""img/animal4.png"" style=""width:200px;border:14px solid red;"">","null","","","","","",""
"","image-keyboard-response","108","57377","0.0-108.0","3JRJSWSMQI76M9V2P9LGCFPMZ2OE34","A1EFBEBVZP3D6G","338431Z1FL1IVIVZ3BK6A6QS21HROA","","97","img/animal3.png","76","98","3","1","3","1,0.7,0,0,1,0.7,0.7,0,1",""
"","html-keyboard-response","109","57704","0.0-109.0","3JRJSWSMQI76M9V2P9LGCFPMZ2OE34","A1EFBEBVZP3D6G","338431Z1FL1IVIVZ3BK6A6QS21HROA","","null","<img src=""img/animal3.png"" style=""width:200px; border:14px solid green;"">","null","","","","","",""
"","image-keyboard-response","110","57892","0.0-110.0","3JRJSWSMQI76M9V2P9LGCFPMZ2OE34","A1EFBEBVZP3D6G","338431Z1FL1IVIVZ3BK6A6QS21HROA","","186","img/animal6.png","75","189","2","1","1","1,0.7,0,0,1,0.7,0.7,0,1",""
"","html-keyboard-response","111","58215","0.0-111.0","3JRJSWSMQI76M9V2P9LGCFPMZ2OE34","A1EFBEBVZP3D6G","338431Z1FL1IVIVZ3BK6A6QS21HROA","","null","<img src=""img/animal6.png"" style=""width:200px; border:14px solid green;"">","null","","","","","",""
"","image-keyboard-response","112","58372","0.0-112.0","3JRJSWSMQI76M9V2P9LGCFPMZ2OE34","A1EFBEBVZP3D6G","338431Z1FL1IVIVZ3BK6A6QS21HROA","","156","img/animal4.png","74","157","1","0","2","1,0.7,0,0,1,0.7,0.7,0,1",""
"","html-keyboard-response","113","58679","0.0-113.0","3JRJSWSMQI76M9V2P9LGCFPMZ2OE34","A1EFBEBVZP3D6G","338431Z1FL1IVIVZ3BK6A6QS21HROA","","null","<img src=""img/animal4.png"" style=""width:200px;border:14px solid red;"">","null","","","","","",""
"","image-keyboard-response","114","58752","0.0-114.0","3JRJSWSMQI76M9V2P9LGCFPMZ2OE34","A1EFBEBVZP3D6G","338431Z1FL1IVIVZ3BK6A6QS21HROA","","72","img/animal4.png","75","73","2","1","2","1,0.7,0,0,1,0.7,0.7,0,1",""
"","html-keyboard-response","115","59060","0.0-115.0","3JRJSWSMQI76M9V2P9LGCFPMZ2OE34","A1EFBEBVZP3D6G","338431Z1FL1IVIVZ3BK6A6QS21HROA","","null","<img src=""img/animal4.png"" style=""width:200px; border:14px solid green;"">","null","","","","","",""
"","image-keyboard-response","116","59253","0.0-116.0","3JRJSWSMQI76M9V2P9LGCFPMZ2OE34","A1EFBEBVZP3D6G","338431Z1FL1IVIVZ3BK6A6QS21HROA","","189","img/animal3.png","75","192","2","0","3","1,0.7,0,0,1,0.7,0.7,0,1",""
"","html-keyboard-response","117","59557","0.0-117.0","3JRJSWSMQI76M9V2P9LGCFPMZ2OE34","A1EFBEBVZP3D6G","338431Z1FL1IVIVZ3BK6A6QS21HROA","","null","<img src=""img/animal3.png"" style=""width:200px;border:14px solid red;"">","null","","","","","",""
"","image-keyboard-response","118","59733","0.0-118.0","3JRJSWSMQI76M9V2P9LGCFPMZ2OE34","A1EFBEBVZP3D6G","338431Z1FL1IVIVZ3BK6A6QS21HROA","","174","img/animal3.png","76","176","3","1","3","1,0.7,0,0,1,0.7,0.7,0,1",""
"","html-keyboard-response","119","60035","0.0-119.0","3JRJSWSMQI76M9V2P9LGCFPMZ2OE34","A1EFBEBVZP3D6G","338431Z1FL1IVIVZ3BK6A6QS21HROA","","null","<img src=""img/animal3.png"" style=""width:200px; border:14px solid green;"">","null","","","","","",""
"","image-keyboard-response","120","60110","0.0-120.0","3JRJSWSMQI76M9V2P9LGCFPMZ2OE34","A1EFBEBVZP3D6G","338431Z1FL1IVIVZ3BK6A6QS21HROA","","72","img/animal3.png","76","74","3","1","3","1,0.7,0,0,1,0.7,0.7,0,1",""
"","html-keyboard-response","121","60419","0.0-121.0","3JRJSWSMQI76M9V2P9LGCFPMZ2OE34","A1EFBEBVZP3D6G","338431Z1FL1IVIVZ3BK6A6QS21HROA","","null","<img src=""img/animal3.png"" style=""width:200px; border:14px solid green;"">","null","","","","","",""
"","image-keyboard-response","122","60511","0.0-122.0","3JRJSWSMQI76M9V2P9LGCFPMZ2OE34","A1EFBEBVZP3D6G","338431Z1FL1IVIVZ3BK6A6QS21HROA","","89","img/animal3.png","74","91","1","1","3","1,0.7,0,0,1,0.7,0.7,0,1",""
"","html-keyboard-response","123","60815","0.0-123.0","3JRJSWSMQI76M9V2P9LGCFPMZ2OE34","A1EFBEBVZP3D6G","338431Z1FL1IVIVZ3BK6A6QS21HROA","","null","<img src=""img/animal3.png"" style=""width:200px; border:14px solid green;"">","null","","","","","",""
"","image-keyboard-response","124","60860","0.0-124.0","3JRJSWSMQI76M9V2P9LGCFPMZ2OE34","A1EFBEBVZP3D6G","338431Z1FL1IVIVZ3BK6A6QS21HROA","","43","img/animal4.png","76","45","3","1","2","1,0.7,0,0,1,0.7,0.7,0,1",""
"","html-keyboard-response","125","61162","0.0-125.0","3JRJSWSMQI76M9V2P9LGCFPMZ2OE34","A1EFBEBVZP3D6G","338431Z1FL1IVIVZ3BK6A6QS21HROA","","null","<img src=""img/animal4.png"" style=""width:200px; border:14px solid green;"">","null","","","","","",""
"","image-keyboard-response","126","61291","0.0-126.0","3JRJSWSMQI76M9V2P9LGCFPMZ2OE34","A1EFBEBVZP3D6G","338431Z1FL1IVIVZ3BK6A6QS21HROA","","127","img/animal4.png","76","129","3","1","2","1,0.7,0,0,1,0.7,0.7,0,1",""
"","html-keyboard-response","127","61638","0.0-127.0","3JRJSWSMQI76M9V2P9LGCFPMZ2OE34","A1EFBEBVZP3D6G","338431Z1FL1IVIVZ3BK6A6QS21HROA","","null","<img src=""img/animal4.png"" style=""width:200px; border:14px solid green;"">","null","","","","","",""
"","image-keyboard-response","128","61839","0.0-128.0","3JRJSWSMQI76M9V2P9LGCFPMZ2OE34","A1EFBEBVZP3D6G","338431Z1FL1IVIVZ3BK6A6QS21HROA","","195","img/animal6.png","74","201","1","1","1","1,0.7,0,0,1,0.7,0.7,0,1",""
"","html-keyboard-response","129","62149","0.0-129.0","3JRJSWSMQI76M9V2P9LGCFPMZ2OE34","A1EFBEBVZP3D6G","338431Z1FL1IVIVZ3BK6A6QS21HROA","","null","<img src=""img/animal6.png"" style=""width:200px; border:14px solid green;"">","null","","","","","",""
"","image-keyboard-response","130","62286","0.0-130.0","3JRJSWSMQI76M9V2P9LGCFPMZ2OE34","A1EFBEBVZP3D6G","338431Z1FL1IVIVZ3BK6A6QS21HROA","","136","img/animal3.png","75","136","2","0","3","1,0.7,0,0,1,0.7,0.7,0,1",""
"","html-keyboard-response","131","62589","0.0-131.0","3JRJSWSMQI76M9V2P9LGCFPMZ2OE34","A1EFBEBVZP3D6G","338431Z1FL1IVIVZ3BK6A6QS21HROA","","null","<img src=""img/animal3.png"" style=""width:200px;border:14px solid red;"">","null","","","","","",""
"","image-keyboard-response","132","62733","0.0-132.0","3JRJSWSMQI76M9V2P9LGCFPMZ2OE34","A1EFBEBVZP3D6G","338431Z1FL1IVIVZ3BK6A6QS21HROA","","142","img/animal3.png","75","144","2","0","3","1,0.7,0,0,1,0.7,0.7,0,1",""
"","html-keyboard-response","133","63039","0.0-133.0","3JRJSWSMQI76M9V2P9LGCFPMZ2OE34","A1EFBEBVZP3D6G","338431Z1FL1IVIVZ3BK6A6QS21HROA","","null","<img src=""img/animal3.png"" style=""width:200px;border:14px solid red;"">","null","","","","","",""
"","image-keyboard-response","134","63166","0.0-134.0","3JRJSWSMQI76M9V2P9LGCFPMZ2OE34","A1EFBEBVZP3D6G","338431Z1FL1IVIVZ3BK6A6QS21HROA","","126","img/animal6.png","74","127","1","1","1","1,0.7,0,0,1,0.7,0.7,0,1",""
"","html-keyboard-response","135","63470","0.0-135.0","3JRJSWSMQI76M9V2P9LGCFPMZ2OE34","A1EFBEBVZP3D6G","338431Z1FL1IVIVZ3BK6A6QS21HROA","","null","<img src=""img/animal6.png"" style=""width:200px; border:14px solid green;"">","null","","","","","",""
"","image-keyboard-response","136","63594","0.0-136.0","3JRJSWSMQI76M9V2P9LGCFPMZ2OE34","A1EFBEBVZP3D6G","338431Z1FL1IVIVZ3BK6A6QS21HROA","","121","img/animal4.png","76","123","3","0","2","1,0.7,0,0,1,0.7,0.7,0,1",""
"","html-keyboard-response","137","63901","0.0-137.0","3JRJSWSMQI76M9V2P9LGCFPMZ2OE34","A1EFBEBVZP3D6G","338431Z1FL1IVIVZ3BK6A6QS21HROA","","null","<img src=""img/animal4.png"" style=""width:200px;border:14px solid red;"">","null","","","","","",""
"","image-keyboard-response","138","63962","0.0-138.0","3JRJSWSMQI76M9V2P9LGCFPMZ2OE34","A1EFBEBVZP3D6G","338431Z1FL1IVIVZ3BK6A6QS21HROA","","60","img/animal3.png","76","61","3","1","3","1,0.7,0,0,1,0.7,0.7,0,1",""
"","html-keyboard-response","139","64264","0.0-139.0","3JRJSWSMQI76M9V2P9LGCFPMZ2OE34","A1EFBEBVZP3D6G","338431Z1FL1IVIVZ3BK6A6QS21HROA","","null","<img src=""img/animal3.png"" style=""width:200px; border:14px solid green;"">","null","","","","","",""
"","image-keyboard-response","140","64388","0.0-140.0","3JRJSWSMQI76M9V2P9LGCFPMZ2OE34","A1EFBEBVZP3D6G","338431Z1FL1IVIVZ3BK6A6QS21HROA","","122","img/animal4.png","76","124","3","1","2","1,0.7,0,0,1,0.7,0.7,0,1",""
"","html-keyboard-response","141","64690","0.0-141.0","3JRJSWSMQI76M9V2P9LGCFPMZ2OE34","A1EFBEBVZP3D6G","338431Z1FL1IVIVZ3BK6A6QS21HROA","","null","<img src=""img/animal4.png"" style=""width:200px; border:14px solid green;"">","null","","","","","",""
"","image-keyboard-response","142","64788","0.0-142.0","3JRJSWSMQI76M9V2P9LGCFPMZ2OE34","A1EFBEBVZP3D6G","338431Z1FL1IVIVZ3BK6A6QS21HROA","","95","img/animal4.png","74","97","1","0","2","1,0.7,0,0,1,0.7,0.7,0,1",""
"","html-keyboard-response","143","65090","0.0-143.0","3JRJSWSMQI76M9V2P9LGCFPMZ2OE34","A1EFBEBVZP3D6G","338431Z1FL1IVIVZ3BK6A6QS21HROA","","null","<img src=""img/animal4.png"" style=""width:200px;border:14px solid red;"">","null","","","","","",""
"","image-keyboard-response","144","65186","0.0-144.0","3JRJSWSMQI76M9V2P9LGCFPMZ2OE34","A1EFBEBVZP3D6G","338431Z1FL1IVIVZ3BK6A6QS21HROA","","94","img/animal6.png","74","95","1","1","1","1,0.7,0,0,1,0.7,0.7,0,1",""
"","html-keyboard-response","145","65487","0.0-145.0","3JRJSWSMQI76M9V2P9LGCFPMZ2OE34","A1EFBEBVZP3D6G","338431Z1FL1IVIVZ3BK6A6QS21HROA","","null","<img src=""img/animal6.png"" style=""width:200px; border:14px solid green;"">","null","","","","","",""
"","image-keyboard-response","146","65641","0.0-146.0","3JRJSWSMQI76M9V2P9LGCFPMZ2OE34","A1EFBEBVZP3D6G","338431Z1FL1IVIVZ3BK6A6QS21HROA","","151","img/animal6.png","76","154","3","0","1","1,0.7,0,0,1,0.7,0.7,0,1",""
"","html-keyboard-response","147","65951","0.0-147.0","3JRJSWSMQI76M9V2P9LGCFPMZ2OE34","A1EFBEBVZP3D6G","338431Z1FL1IVIVZ3BK6A6QS21HROA","","null","<img src=""img/animal6.png"" style=""width:200px;border:14px solid red;"">","null","","","","","",""
"","image-keyboard-response","148","65972","0.0-148.0","3JRJSWSMQI76M9V2P9LGCFPMZ2OE34","A1EFBEBVZP3D6G","338431Z1FL1IVIVZ3BK6A6QS21HROA","","18","img/animal3.png","75","21","2","0","3","1,0.7,0,0,1,0.7,0.7,0,1",""
"","html-keyboard-response","149","66578","0.0-149.0","3JRJSWSMQI76M9V2P9LGCFPMZ2OE34","A1EFBEBVZP3D6G","338431Z1FL1IVIVZ3BK6A6QS21HROA","","null","<img src=""img/animal3.png"" style=""width:200px;border:14px solid red;"">","null","","","","","",""
"","image-keyboard-response","150","66594","0.0-150.0","3JRJSWSMQI76M9V2P9LGCFPMZ2OE34","A1EFBEBVZP3D6G","338431Z1FL1IVIVZ3BK6A6QS21HROA","","2","img/animal3.png","76","17","3","1","3","1,0.7,0,0,1,0.7,0.7,0,1",""
"","html-keyboard-response","151","66910","0.0-151.0","3JRJSWSMQI76M9V2P9LGCFPMZ2OE34","A1EFBEBVZP3D6G","338431Z1FL1IVIVZ3BK6A6QS21HROA","","null","<img src=""img/animal3.png"" style=""width:200px; border:14px solid green;"">","null","","","","","",""
"","image-keyboard-response","152","66945","0.0-152.0","3JRJSWSMQI76M9V2P9LGCFPMZ2OE34","A1EFBEBVZP3D6G","338431Z1FL1IVIVZ3BK6A6QS21HROA","","33","img/animal6.png","76","34","3","0","1","1,0.7,0,0,1,0.7,0.7,0,1",""
"","html-keyboard-response","153","67248","0.0-153.0","3JRJSWSMQI76M9V2P9LGCFPMZ2OE34","A1EFBEBVZP3D6G","338431Z1FL1IVIVZ3BK6A6QS21HROA","","null","<img src=""img/animal6.png"" style=""width:200px;border:14px solid red;"">","null","","","","","",""
"","image-keyboard-response","154","67324","0.0-154.0","3JRJSWSMQI76M9V2P9LGCFPMZ2OE34","A1EFBEBVZP3D6G","338431Z1FL1IVIVZ3BK6A6QS21HROA","","75","img/animal6.png","76","75","3","0","1","1,0.7,0,0,1,0.7,0.7,0,1",""
"","html-keyboard-response","155","67655","0.0-155.0","3JRJSWSMQI76M9V2P9LGCFPMZ2OE34","A1EFBEBVZP3D6G","338431Z1FL1IVIVZ3BK6A6QS21HROA","","null","<img src=""img/animal6.png"" style=""width:200px;border:14px solid red;"">","null","","","","","",""
"","image-keyboard-response","156","67877","0.0-156.0","3JRJSWSMQI76M9V2P9LGCFPMZ2OE34","A1EFBEBVZP3D6G","338431Z1FL1IVIVZ3BK6A6QS21HROA","","217","img/animal6.png","76","221","3","0","1","1,0.7,0,0,1,0.7,0.7,0,1",""
"","html-keyboard-response","157","68187","0.0-157.0","3JRJSWSMQI76M9V2P9LGCFPMZ2OE34","A1EFBEBVZP3D6G","338431Z1FL1IVIVZ3BK6A6QS21HROA","","null","<img src=""img/animal6.png"" style=""width:200px;border:14px solid red;"">","null","","","","","",""
"","image-keyboard-response","158","68265","0.0-158.0","3JRJSWSMQI76M9V2P9LGCFPMZ2OE34","A1EFBEBVZP3D6G","338431Z1FL1IVIVZ3BK6A6QS21HROA","","75","img/animal6.png","76","77","3","0","1","1,0.7,0,0,1,0.7,0.7,0,1",""
"","html-keyboard-response","159","68567","0.0-159.0","3JRJSWSMQI76M9V2P9LGCFPMZ2OE34","A1EFBEBVZP3D6G","338431Z1FL1IVIVZ3BK6A6QS21HROA","","null","<img src=""img/animal6.png"" style=""width:200px;border:14px solid red;"">","null","","","","","",""
"","image-keyboard-response","160","68677","0.0-160.0","3JRJSWSMQI76M9V2P9LGCFPMZ2OE34","A1EFBEBVZP3D6G","338431Z1FL1IVIVZ3BK6A6QS21HROA","","107","img/animal6.png","74","109","1","1","1","1,0.7,0,0,1,0.7,0.7,0,1",""
"","html-keyboard-response","161","68986","0.0-161.0","3JRJSWSMQI76M9V2P9LGCFPMZ2OE34","A1EFBEBVZP3D6G","338431Z1FL1IVIVZ3BK6A6QS21HROA","","null","<img src=""img/animal6.png"" style=""width:200px; border:14px solid green;"">","null","","","","","",""
"","image-keyboard-response","162","69067","0.0-162.0","3JRJSWSMQI76M9V2P9LGCFPMZ2OE34","A1EFBEBVZP3D6G","338431Z1FL1IVIVZ3BK6A6QS21HROA","","79","img/animal4.png","75","80","2","1","2","1,0.7,0,0,1,0.7,0.7,0,1",""
"","html-keyboard-response","163","69389","0.0-163.0","3JRJSWSMQI76M9V2P9LGCFPMZ2OE34","A1EFBEBVZP3D6G","338431Z1FL1IVIVZ3BK6A6QS21HROA","","null","<img src=""img/animal4.png"" style=""width:200px; border:14px solid green;"">","null","","","","","",""
"","image-keyboard-response","164","69546","0.0-164.0","3JRJSWSMQI76M9V2P9LGCFPMZ2OE34","A1EFBEBVZP3D6G","338431Z1FL1IVIVZ3BK6A6QS21HROA","","153","img/animal3.png","74","156","1","1","3","1,0.7,0,0,1,0.7,0.7,0,1",""
"","html-keyboard-response","165","69874","0.0-165.0","3JRJSWSMQI76M9V2P9LGCFPMZ2OE34","A1EFBEBVZP3D6G","338431Z1FL1IVIVZ3BK6A6QS21HROA","","null","<img src=""img/animal3.png"" style=""width:200px; border:14px solid green;"">","null","","","","","",""
"","image-keyboard-response","166","69951","0.0-166.0","3JRJSWSMQI76M9V2P9LGCFPMZ2OE34","A1EFBEBVZP3D6G","338431Z1FL1IVIVZ3BK6A6QS21HROA","","75","img/animal6.png","74","76","1","1","1","1,0.7,0,0,1,0.7,0.7,0,1",""
"","html-keyboard-response","167","70256","0.0-167.0","3JRJSWSMQI76M9V2P9LGCFPMZ2OE34","A1EFBEBVZP3D6G","338431Z1FL1IVIVZ3BK6A6QS21HROA","","null","<img src=""img/animal6.png"" style=""width:200px; border:14px solid green;"">","null","","","","","",""
"","image-keyboard-response","168","70268","0.0-168.0","3JRJSWSMQI76M9V2P9LGCFPMZ2OE34","A1EFBEBVZP3D6G","338431Z1FL1IVIVZ3BK6A6QS21HROA","","10","img/animal4.png","76","11","3","1","2","1,0.7,0,0,1,0.7,0.7,0,1",""
"","html-keyboard-response","169","70572","0.0-169.0","3JRJSWSMQI76M9V2P9LGCFPMZ2OE34","A1EFBEBVZP3D6G","338431Z1FL1IVIVZ3BK6A6QS21HROA","","null","<img src=""img/animal4.png"" style=""width:200px; border:14px solid green;"">","null","","","","","",""
"","image-keyboard-response","170","70780","0.0-170.0","3JRJSWSMQI76M9V2P9LGCFPMZ2OE34","A1EFBEBVZP3D6G","338431Z1FL1IVIVZ3BK6A6QS21HROA","","205","img/animal4.png","76","207","3","1","2","1,0.7,0,0,1,0.7,0.7,0,1",""
"","html-keyboard-response","171","71087","0.0-171.0","3JRJSWSMQI76M9V2P9LGCFPMZ2OE34","A1EFBEBVZP3D6G","338431Z1FL1IVIVZ3BK6A6QS21HROA","","null","<img src=""img/animal4.png"" style=""width:200px; border:14px solid green;"">","null","","","","","",""
"","image-keyboard-response","172","71120","0.0-172.0","3JRJSWSMQI76M9V2P9LGCFPMZ2OE34","A1EFBEBVZP3D6G","338431Z1FL1IVIVZ3BK6A6QS21HROA","","31","img/animal4.png","75","32","2","1","2","1,0.7,0,0,1,0.7,0.7,0,1",""
"","html-keyboard-response","173","71424","0.0-173.0","3JRJSWSMQI76M9V2P9LGCFPMZ2OE34","A1EFBEBVZP3D6G","338431Z1FL1IVIVZ3BK6A6QS21HROA","","null","<img src=""img/animal4.png"" style=""width:200px; border:14px solid green;"">","null","","","","","",""
"","image-keyboard-response","174","71522","0.0-174.0","3JRJSWSMQI76M9V2P9LGCFPMZ2OE34","A1EFBEBVZP3D6G","338431Z1FL1IVIVZ3BK6A6QS21HROA","","96","img/animal3.png","74","98","1","1","3","1,0.7,0,0,1,0.7,0.7,0,1",""
"","html-keyboard-response","175","71859","0.0-175.0","3JRJSWSMQI76M9V2P9LGCFPMZ2OE34","A1EFBEBVZP3D6G","338431Z1FL1IVIVZ3BK6A6QS21HROA","","null","<img src=""img/animal3.png"" style=""width:200px; border:14px solid green;"">","null","","","","","",""
"","image-keyboard-response","176","71919","0.0-176.0","3JRJSWSMQI76M9V2P9LGCFPMZ2OE34","A1EFBEBVZP3D6G","338431Z1FL1IVIVZ3BK6A6QS21HROA","","58","img/animal4.png","74","60","1","0","2","1,0.7,0,0,1,0.7,0.7,0,1",""
"","html-keyboard-response","177","72232","0.0-177.0","3JRJSWSMQI76M9V2P9LGCFPMZ2OE34","A1EFBEBVZP3D6G","338431Z1FL1IVIVZ3BK6A6QS21HROA","","null","<img src=""img/animal4.png"" style=""width:200px;border:14px solid red;"">","null","","","","","",""
"","image-keyboard-response","178","72309","0.0-178.0","3JRJSWSMQI76M9V2P9LGCFPMZ2OE34","A1EFBEBVZP3D6G","338431Z1FL1IVIVZ3BK6A6QS21HROA","","76","img/animal6.png","76","76","3","0","1","1,0.7,0,0,1,0.7,0.7,0,1",""
"","html-keyboard-response","179","72611","0.0-179.0","3JRJSWSMQI76M9V2P9LGCFPMZ2OE34","A1EFBEBVZP3D6G","338431Z1FL1IVIVZ3BK6A6QS21HROA","","null","<img src=""img/animal6.png"" style=""width:200px;border:14px solid red;"">","null","","","","","",""
"","image-keyboard-response","180","72722","0.0-180.0","3JRJSWSMQI76M9V2P9LGCFPMZ2OE34","A1EFBEBVZP3D6G","338431Z1FL1IVIVZ3BK6A6QS21HROA","","107","img/animal3.png","74","109","1","1","3","1,0.7,0,0,1,0.7,0.7,0,1",""
"","html-keyboard-response","181","73024","0.0-181.0","3JRJSWSMQI76M9V2P9LGCFPMZ2OE34","A1EFBEBVZP3D6G","338431Z1FL1IVIVZ3BK6A6QS21HROA","","null","<img src=""img/animal3.png"" style=""width:200px; border:14px solid green;"">","null","","","","","",""
"","html-keyboard-response","182","76448","0.0-182.0","3JRJSWSMQI76M9V2P9LGCFPMZ2OE34","A1EFBEBVZP3D6G","338431Z1FL1IVIVZ3BK6A6QS21HROA","","","","","","","","","",""
"","image-keyboard-response","183","76856","0.0-183.0","3JRJSWSMQI76M9V2P9LGCFPMZ2OE34","A1EFBEBVZP3D6G","338431Z1FL1IVIVZ3BK6A6QS21HROA","","398","img/animal2.png","74","407","1","1","1","1,0.7,0,1,0.7,0,0.7,0,1",""
"","html-keyboard-response","184","77162","0.0-184.0","3JRJSWSMQI76M9V2P9LGCFPMZ2OE34","A1EFBEBVZP3D6G","338431Z1FL1IVIVZ3BK6A6QS21HROA","","null","<img src=""img/animal2.png"" style=""width:200px; border:14px solid green;"">","null","","","","","",""
"","image-keyboard-response","185","79115","0.0-185.0","3JRJSWSMQI76M9V2P9LGCFPMZ2OE34","A1EFBEBVZP3D6G","338431Z1FL1IVIVZ3BK6A6QS21HROA","","1952","img/animal1.png","75","1953","2","0","3","1,0.7,0,1,0.7,0,0.7,0,1",""
"","html-keyboard-response","186","79418","0.0-186.0","3JRJSWSMQI76M9V2P9LGCFPMZ2OE34","A1EFBEBVZP3D6G","338431Z1FL1IVIVZ3BK6A6QS21HROA","","null","<img src=""img/animal1.png"" style=""width:200px;border:14px solid red;"">","null","","","","","",""
"","image-keyboard-response","187","79602","0.0-187.0","3JRJSWSMQI76M9V2P9LGCFPMZ2OE34","A1EFBEBVZP3D6G","338431Z1FL1IVIVZ3BK6A6QS21HROA","","150","img/animal1.png","75","183","2","0","3","1,0.7,0,1,0.7,0,0.7,0,1",""
"","html-keyboard-response","188","79914","0.0-188.0","3JRJSWSMQI76M9V2P9LGCFPMZ2OE34","A1EFBEBVZP3D6G","338431Z1FL1IVIVZ3BK6A6QS21HROA","","null","<img src=""img/animal1.png"" style=""width:200px;border:14px solid red;"">","null","","","","","",""
"","image-keyboard-response","189","80132","0.0-189.0","3JRJSWSMQI76M9V2P9LGCFPMZ2OE34","A1EFBEBVZP3D6G","338431Z1FL1IVIVZ3BK6A6QS21HROA","","217","img/animal2.png","75","219","2","0","1","1,0.7,0,1,0.7,0,0.7,0,1",""
"","html-keyboard-response","190","80437","0.0-190.0","3JRJSWSMQI76M9V2P9LGCFPMZ2OE34","A1EFBEBVZP3D6G","338431Z1FL1IVIVZ3BK6A6QS21HROA","","null","<img src=""img/animal2.png"" style=""width:200px;border:14px solid red;"">","null","","","","","",""
"","image-keyboard-response","191","80488","0.0-191.0","3JRJSWSMQI76M9V2P9LGCFPMZ2OE34","A1EFBEBVZP3D6G","338431Z1FL1IVIVZ3BK6A6QS21HROA","","49","img/animal1.png","74","50","1","0","3","1,0.7,0,1,0.7,0,0.7,0,1",""
"","html-keyboard-response","192","80792","0.0-192.0","3JRJSWSMQI76M9V2P9LGCFPMZ2OE34","A1EFBEBVZP3D6G","338431Z1FL1IVIVZ3BK6A6QS21HROA","","null","<img src=""img/animal1.png"" style=""width:200px;border:14px solid red;"">","null","","","","","",""
"","image-keyboard-response","193","80882","0.0-193.0","3JRJSWSMQI76M9V2P9LGCFPMZ2OE34","A1EFBEBVZP3D6G","338431Z1FL1IVIVZ3BK6A6QS21HROA","","88","img/animal1.png","74","90","1","1","3","1,0.7,0,1,0.7,0,0.7,0,1",""
"","html-keyboard-response","194","81184","0.0-194.0","3JRJSWSMQI76M9V2P9LGCFPMZ2OE34","A1EFBEBVZP3D6G","338431Z1FL1IVIVZ3BK6A6QS21HROA","","null","<img src=""img/animal1.png"" style=""width:200px; border:14px solid green;"">","null","","","","","",""
"","image-keyboard-response","195","81225","0.0-195.0","3JRJSWSMQI76M9V2P9LGCFPMZ2OE34","A1EFBEBVZP3D6G","338431Z1FL1IVIVZ3BK6A6QS21HROA","","38","img/animal2.png","74","40","1","1","1","1,0.7,0,1,0.7,0,0.7,0,1",""
"","html-keyboard-response","196","81560","0.0-196.0","3JRJSWSMQI76M9V2P9LGCFPMZ2OE34","A1EFBEBVZP3D6G","338431Z1FL1IVIVZ3BK6A6QS21HROA","","null","<img src=""img/animal2.png"" style=""width:200px; border:14px solid green;"">","null","","","","","",""
"","image-keyboard-response","197","81614","0.0-197.0","3JRJSWSMQI76M9V2P9LGCFPMZ2OE34","A1EFBEBVZP3D6G","338431Z1FL1IVIVZ3BK6A6QS21HROA","","52","img/animal1.png","74","54","1","1","3","1,0.7,0,1,0.7,0,0.7,0,1",""
"","html-keyboard-response","198","81915","0.0-198.0","3JRJSWSMQI76M9V2P9LGCFPMZ2OE34","A1EFBEBVZP3D6G","338431Z1FL1IVIVZ3BK6A6QS21HROA","","null","<img src=""img/animal1.png"" style=""width:200px; border:14px solid green;"">","null","","","","","",""
"","image-keyboard-response","199","82024","0.0-199.0","3JRJSWSMQI76M9V2P9LGCFPMZ2OE34","A1EFBEBVZP3D6G","338431Z1FL1IVIVZ3BK6A6QS21HROA","","107","img/animal2.png","75","108","2","1","1","1,0.7,0,1,0.7,0,0.7,0,1",""
"","html-keyboard-response","200","82326","0.0-200.0","3JRJSWSMQI76M9V2P9LGCFPMZ2OE34","A1EFBEBVZP3D6G","338431Z1FL1IVIVZ3BK6A6QS21HROA","","null","<img src=""img/animal2.png"" style=""width:200px; border:14px solid green;"">","null","","","","","",""
"","image-keyboard-response","201","82397","0.0-201.0","3JRJSWSMQI76M9V2P9LGCFPMZ2OE34","A1EFBEBVZP3D6G","338431Z1FL1IVIVZ3BK6A6QS21HROA","","70","img/animal1.png","75","70","2","0","3","1,0.7,0,1,0.7,0,0.7,0,1",""
"","html-keyboard-response","202","82699","0.0-202.0","3JRJSWSMQI76M9V2P9LGCFPMZ2OE34","A1EFBEBVZP3D6G","338431Z1FL1IVIVZ3BK6A6QS21HROA","","null","<img src=""img/animal1.png"" style=""width:200px;border:14px solid red;"">","null","","","","","",""
"","image-keyboard-response","203","82833","0.0-203.0","3JRJSWSMQI76M9V2P9LGCFPMZ2OE34","A1EFBEBVZP3D6G","338431Z1FL1IVIVZ3BK6A6QS21HROA","","132","img/animal2.png","76","133","3","0","1","1,0.7,0,1,0.7,0,0.7,0,1",""
"","html-keyboard-response","204","83136","0.0-204.0","3JRJSWSMQI76M9V2P9LGCFPMZ2OE34","A1EFBEBVZP3D6G","338431Z1FL1IVIVZ3BK6A6QS21HROA","","null","<img src=""img/animal2.png"" style=""width:200px;border:14px solid red;"">","null","","","","","",""
"","image-keyboard-response","205","83242","0.0-205.0","3JRJSWSMQI76M9V2P9LGCFPMZ2OE34","A1EFBEBVZP3D6G","338431Z1FL1IVIVZ3BK6A6QS21HROA","","103","img/animal2.png","76","105","3","0","1","1,0.7,0,1,0.7,0,0.7,0,1",""
"","html-keyboard-response","206","83608","0.0-206.0","3JRJSWSMQI76M9V2P9LGCFPMZ2OE34","A1EFBEBVZP3D6G","338431Z1FL1IVIVZ3BK6A6QS21HROA","","null","<img src=""img/animal2.png"" style=""width:200px;border:14px solid red;"">","null","","","","","",""
"","image-keyboard-response","207","83807","0.0-207.0","3JRJSWSMQI76M9V2P9LGCFPMZ2OE34","A1EFBEBVZP3D6G","338431Z1FL1IVIVZ3BK6A6QS21HROA","","195","img/animal5.png","75","198","2","0","2","1,0.7,0,1,0.7,0,0.7,0,1",""
"","html-keyboard-response","208","84111","0.0-208.0","3JRJSWSMQI76M9V2P9LGCFPMZ2OE34","A1EFBEBVZP3D6G","338431Z1FL1IVIVZ3BK6A6QS21HROA","","null","<img src=""img/animal5.png"" style=""width:200px;border:14px solid red;"">","null","","","","","",""
"","image-keyboard-response","209","84523","0.0-209.0","3JRJSWSMQI76M9V2P9LGCFPMZ2OE34","A1EFBEBVZP3D6G","338431Z1FL1IVIVZ3BK6A6QS21HROA","","409","img/animal1.png","74","411","1","1","3","1,0.7,0,1,0.7,0,0.7,0,1",""
"","html-keyboard-response","210","84841","0.0-210.0","3JRJSWSMQI76M9V2P9LGCFPMZ2OE34","A1EFBEBVZP3D6G","338431Z1FL1IVIVZ3BK6A6QS21HROA","","null","<img src=""img/animal1.png"" style=""width:200px; border:14px solid green;"">","null","","","","","",""
"","image-keyboard-response","211","84968","0.0-211.0","3JRJSWSMQI76M9V2P9LGCFPMZ2OE34","A1EFBEBVZP3D6G","338431Z1FL1IVIVZ3BK6A6QS21HROA","","123","img/animal5.png","75","127","2","1","2","1,0.7,0,1,0.7,0,0.7,0,1",""
"","html-keyboard-response","212","85277","0.0-212.0","3JRJSWSMQI76M9V2P9LGCFPMZ2OE34","A1EFBEBVZP3D6G","338431Z1FL1IVIVZ3BK6A6QS21HROA","","null","<img src=""img/animal5.png"" style=""width:200px; border:14px solid green;"">","null","","","","","",""
"","image-keyboard-response","213","85341","0.0-213.0","3JRJSWSMQI76M9V2P9LGCFPMZ2OE34","A1EFBEBVZP3D6G","338431Z1FL1IVIVZ3BK6A6QS21HROA","","63","img/animal2.png","74","64","1","1","1","1,0.7,0,1,0.7,0,0.7,0,1",""
"","html-keyboard-response","214","85644","0.0-214.0","3JRJSWSMQI76M9V2P9LGCFPMZ2OE34","A1EFBEBVZP3D6G","338431Z1FL1IVIVZ3BK6A6QS21HROA","","null","<img src=""img/animal2.png"" style=""width:200px; border:14px solid green;"">","null","","","","","",""
"","image-keyboard-response","215","85706","0.0-215.0","3JRJSWSMQI76M9V2P9LGCFPMZ2OE34","A1EFBEBVZP3D6G","338431Z1FL1IVIVZ3BK6A6QS21HROA","","60","img/animal5.png","76","62","3","0","2","1,0.7,0,1,0.7,0,0.7,0,1",""
"","html-keyboard-response","216","86112","0.0-216.0","3JRJSWSMQI76M9V2P9LGCFPMZ2OE34","A1EFBEBVZP3D6G","338431Z1FL1IVIVZ3BK6A6QS21HROA","","null","<img src=""img/animal5.png"" style=""width:200px;border:14px solid red;"">","null","","","","","",""
"","image-keyboard-response","217","86221","0.0-217.0","3JRJSWSMQI76M9V2P9LGCFPMZ2OE34","A1EFBEBVZP3D6G","338431Z1FL1IVIVZ3BK6A6QS21HROA","","106","img/animal5.png","76","108","3","0","2","1,0.7,0,1,0.7,0,0.7,0,1",""
"","html-keyboard-response","218","86541","0.0-218.0","3JRJSWSMQI76M9V2P9LGCFPMZ2OE34","A1EFBEBVZP3D6G","338431Z1FL1IVIVZ3BK6A6QS21HROA","","null","<img src=""img/animal5.png"" style=""width:200px;border:14px solid red;"">","null","","","","","",""
"","image-keyboard-response","219","86556","0.0-219.0","3JRJSWSMQI76M9V2P9LGCFPMZ2OE34","A1EFBEBVZP3D6G","338431Z1FL1IVIVZ3BK6A6QS21HROA","","12","img/animal5.png","75","12","2","1","2","1,0.7,0,1,0.7,0,0.7,0,1",""
"","html-keyboard-response","220","86857","0.0-220.0","3JRJSWSMQI76M9V2P9LGCFPMZ2OE34","A1EFBEBVZP3D6G","338431Z1FL1IVIVZ3BK6A6QS21HROA","","null","<img src=""img/animal5.png"" style=""width:200px; border:14px solid green;"">","null","","","","","",""
"","image-keyboard-response","221","86897","0.0-221.0","3JRJSWSMQI76M9V2P9LGCFPMZ2OE34","A1EFBEBVZP3D6G","338431Z1FL1IVIVZ3BK6A6QS21HROA","","38","img/animal5.png","75","39","2","1","2","1,0.7,0,1,0.7,0,0.7,0,1",""
"","html-keyboard-response","222","87198","0.0-222.0","3JRJSWSMQI76M9V2P9LGCFPMZ2OE34","A1EFBEBVZP3D6G","338431Z1FL1IVIVZ3BK6A6QS21HROA","","null","<img src=""img/animal5.png"" style=""width:200px; border:14px solid green;"">","null","","","","","",""
"","image-keyboard-response","223","87342","0.0-223.0","3JRJSWSMQI76M9V2P9LGCFPMZ2OE34","A1EFBEBVZP3D6G","338431Z1FL1IVIVZ3BK6A6QS21HROA","","141","img/animal1.png","75","143","2","0","3","1,0.7,0,1,0.7,0,0.7,0,1",""
"","html-keyboard-response","224","87698","0.0-224.0","3JRJSWSMQI76M9V2P9LGCFPMZ2OE34","A1EFBEBVZP3D6G","338431Z1FL1IVIVZ3BK6A6QS21HROA","","null","<img src=""img/animal1.png"" style=""width:200px;border:14px solid red;"">","null","","","","","",""
"","image-keyboard-response","225","87730","0.0-225.0","3JRJSWSMQI76M9V2P9LGCFPMZ2OE34","A1EFBEBVZP3D6G","338431Z1FL1IVIVZ3BK6A6QS21HROA","","29","img/animal5.png","76","31","3","0","2","1,0.7,0,1,0.7,0,0.7,0,1",""
"","html-keyboard-response","226","88039","0.0-226.0","3JRJSWSMQI76M9V2P9LGCFPMZ2OE34","A1EFBEBVZP3D6G","338431Z1FL1IVIVZ3BK6A6QS21HROA","","null","<img src=""img/animal5.png"" style=""width:200px;border:14px solid red;"">","null","","","","","",""
"","image-keyboard-response","227","88062","0.0-227.0","3JRJSWSMQI76M9V2P9LGCFPMZ2OE34","A1EFBEBVZP3D6G","338431Z1FL1IVIVZ3BK6A6QS21HROA","","20","img/animal5.png","74","22","1","1","2","1,0.7,0,1,0.7,0,0.7,0,1",""
"","html-keyboard-response","228","88370","0.0-228.0","3JRJSWSMQI76M9V2P9LGCFPMZ2OE34","A1EFBEBVZP3D6G","338431Z1FL1IVIVZ3BK6A6QS21HROA","","null","<img src=""img/animal5.png"" style=""width:200px; border:14px solid green;"">","null","","","","","",""
"","image-keyboard-response","229","88479","0.0-229.0","3JRJSWSMQI76M9V2P9LGCFPMZ2OE34","A1EFBEBVZP3D6G","338431Z1FL1IVIVZ3BK6A6QS21HROA","","107","img/animal1.png","75","108","2","0","3","1,0.7,0,1,0.7,0,0.7,0,1",""
"","html-keyboard-response","230","88792","0.0-230.0","3JRJSWSMQI76M9V2P9LGCFPMZ2OE34","A1EFBEBVZP3D6G","338431Z1FL1IVIVZ3BK6A6QS21HROA","","null","<img src=""img/animal1.png"" style=""width:200px;border:14px solid red;"">","null","","","","","",""
"","image-keyboard-response","231","88923","0.0-231.0","3JRJSWSMQI76M9V2P9LGCFPMZ2OE34","A1EFBEBVZP3D6G","338431Z1FL1IVIVZ3BK6A6QS21HROA","","129","img/animal2.png","75","131","2","1","1","1,0.7,0,1,0.7,0,0.7,0,1",""
"","html-keyboard-response","232","89233","0.0-232.0","3JRJSWSMQI76M9V2P9LGCFPMZ2OE34","A1EFBEBVZP3D6G","338431Z1FL1IVIVZ3BK6A6QS21HROA","","null","<img src=""img/animal2.png"" style=""width:200px; border:14px solid green;"">","null","","","","","",""
"","image-keyboard-response","233","89256","0.0-233.0","3JRJSWSMQI76M9V2P9LGCFPMZ2OE34","A1EFBEBVZP3D6G","338431Z1FL1IVIVZ3BK6A6QS21HROA","","21","img/animal1.png","74","22","1","1","3","1,0.7,0,1,0.7,0,0.7,0,1",""
"","html-keyboard-response","234","89558","0.0-234.0","3JRJSWSMQI76M9V2P9LGCFPMZ2OE34","A1EFBEBVZP3D6G","338431Z1FL1IVIVZ3BK6A6QS21HROA","","null","<img src=""img/animal1.png"" style=""width:200px; border:14px solid green;"">","null","","","","","",""
"","image-keyboard-response","235","89686","0.0-235.0","3JRJSWSMQI76M9V2P9LGCFPMZ2OE34","A1EFBEBVZP3D6G","338431Z1FL1IVIVZ3BK6A6QS21HROA","","127","img/animal2.png","74","128","1","1","1","1,0.7,0,1,0.7,0,0.7,0,1",""
"","html-keyboard-response","236","90027","0.0-236.0","3JRJSWSMQI76M9V2P9LGCFPMZ2OE34","A1EFBEBVZP3D6G","338431Z1FL1IVIVZ3BK6A6QS21HROA","","null","<img src=""img/animal2.png"" style=""width:200px; border:14px solid green;"">","null","","","","","",""
"","image-keyboard-response","237","90139","0.0-237.0","3JRJSWSMQI76M9V2P9LGCFPMZ2OE34","A1EFBEBVZP3D6G","338431Z1FL1IVIVZ3BK6A6QS21HROA","","89","img/animal2.png","74","100","1","1","1","1,0.7,0,1,0.7,0,0.7,0,1",""
"","html-keyboard-response","238","90456","0.0-238.0","3JRJSWSMQI76M9V2P9LGCFPMZ2OE34","A1EFBEBVZP3D6G","338431Z1FL1IVIVZ3BK6A6QS21HROA","","null","<img src=""img/animal2.png"" style=""width:200px; border:14px solid green;"">","null","","","","","",""
"","image-keyboard-response","239","90482","0.0-239.0","3JRJSWSMQI76M9V2P9LGCFPMZ2OE34","A1EFBEBVZP3D6G","338431Z1FL1IVIVZ3BK6A6QS21HROA","","23","img/animal2.png","76","25","3","0","1","1,0.7,0,1,0.7,0,0.7,0,1",""
"","html-keyboard-response","240","90793","0.0-240.0","3JRJSWSMQI76M9V2P9LGCFPMZ2OE34","A1EFBEBVZP3D6G","338431Z1FL1IVIVZ3BK6A6QS21HROA","","null","<img src=""img/animal2.png"" style=""width:200px;border:14px solid red;"">","null","","","","","",""
"","image-keyboard-response","241","90869","0.0-241.0","3JRJSWSMQI76M9V2P9LGCFPMZ2OE34","A1EFBEBVZP3D6G","338431Z1FL1IVIVZ3BK6A6QS21HROA","","72","img/animal2.png","75","76","2","0","1","1,0.7,0,1,0.7,0,0.7,0,1",""
"","html-keyboard-response","242","91177","0.0-242.0","3JRJSWSMQI76M9V2P9LGCFPMZ2OE34","A1EFBEBVZP3D6G","338431Z1FL1IVIVZ3BK6A6QS21HROA","","null","<img src=""img/animal2.png"" style=""width:200px;border:14px solid red;"">","null","","","","","",""
"","image-keyboard-response","243","91309","0.0-243.0","3JRJSWSMQI76M9V2P9LGCFPMZ2OE34","A1EFBEBVZP3D6G","338431Z1FL1IVIVZ3BK6A6QS21HROA","","130","img/animal5.png","75","131","2","0","2","1,0.7,0,1,0.7,0,0.7,0,1",""
"","html-keyboard-response","244","91618","0.0-244.0","3JRJSWSMQI76M9V2P9LGCFPMZ2OE34","A1EFBEBVZP3D6G","338431Z1FL1IVIVZ3BK6A6QS21HROA","","null","<img src=""img/animal5.png"" style=""width:200px;border:14px solid red;"">","null","","","","","",""
"","image-keyboard-response","245","91806","0.0-245.0","3JRJSWSMQI76M9V2P9LGCFPMZ2OE34","A1EFBEBVZP3D6G","338431Z1FL1IVIVZ3BK6A6QS21HROA","","183","img/animal5.png","75","186","2","1","2","1,0.7,0,1,0.7,0,0.7,0,1",""
"","html-keyboard-response","246","92111","0.0-246.0","3JRJSWSMQI76M9V2P9LGCFPMZ2OE34","A1EFBEBVZP3D6G","338431Z1FL1IVIVZ3BK6A6QS21HROA","","null","<img src=""img/animal5.png"" style=""width:200px; border:14px solid green;"">","null","","","","","",""
"","image-keyboard-response","247","92177","0.0-247.0","3JRJSWSMQI76M9V2P9LGCFPMZ2OE34","A1EFBEBVZP3D6G","338431Z1FL1IVIVZ3BK6A6QS21HROA","","63","img/animal5.png","76","65","3","0","2","1,0.7,0,1,0.7,0,0.7,0,1",""
"","html-keyboard-response","248","92485","0.0-248.0","3JRJSWSMQI76M9V2P9LGCFPMZ2OE34","A1EFBEBVZP3D6G","338431Z1FL1IVIVZ3BK6A6QS21HROA","","null","<img src=""img/animal5.png"" style=""width:200px;border:14px solid red;"">","null","","","","","",""
"","image-keyboard-response","249","92542","0.0-249.0","3JRJSWSMQI76M9V2P9LGCFPMZ2OE34","A1EFBEBVZP3D6G","338431Z1FL1IVIVZ3BK6A6QS21HROA","","55","img/animal2.png","74","56","1","1","1","1,0.7,0,1,0.7,0,0.7,0,1",""
"","html-keyboard-response","250","92844","0.0-250.0","3JRJSWSMQI76M9V2P9LGCFPMZ2OE34","A1EFBEBVZP3D6G","338431Z1FL1IVIVZ3BK6A6QS21HROA","","null","<img src=""img/animal2.png"" style=""width:200px; border:14px solid green;"">","null","","","","","",""
"","image-keyboard-response","251","92925","0.0-251.0","3JRJSWSMQI76M9V2P9LGCFPMZ2OE34","A1EFBEBVZP3D6G","338431Z1FL1IVIVZ3BK6A6QS21HROA","","79","img/animal1.png","75","80","2","0","3","1,0.7,0,1,0.7,0,0.7,0,1",""
"","html-keyboard-response","252","93228","0.0-252.0","3JRJSWSMQI76M9V2P9LGCFPMZ2OE34","A1EFBEBVZP3D6G","338431Z1FL1IVIVZ3BK6A6QS21HROA","","null","<img src=""img/animal1.png"" style=""width:200px;border:14px solid red;"">","null","","","","","",""
"","image-keyboard-response","253","93334","0.0-253.0","3JRJSWSMQI76M9V2P9LGCFPMZ2OE34","A1EFBEBVZP3D6G","338431Z1FL1IVIVZ3BK6A6QS21HROA","","104","img/animal5.png","75","106","2","0","2","1,0.7,0,1,0.7,0,0.7,0,1",""
"","html-keyboard-response","254","93645","0.0-254.0","3JRJSWSMQI76M9V2P9LGCFPMZ2OE34","A1EFBEBVZP3D6G","338431Z1FL1IVIVZ3BK6A6QS21HROA","","null","<img src=""img/animal5.png"" style=""width:200px;border:14px solid red;"">","null","","","","","",""
"","image-keyboard-response","255","93648","0.0-255.0","3JRJSWSMQI76M9V2P9LGCFPMZ2OE34","A1EFBEBVZP3D6G","338431Z1FL1IVIVZ3BK6A6QS21HROA","","1","img/animal2.png","76","2","3","0","1","1,0.7,0,1,0.7,0,0.7,0,1",""
"","html-keyboard-response","256","93950","0.0-256.0","3JRJSWSMQI76M9V2P9LGCFPMZ2OE34","A1EFBEBVZP3D6G","338431Z1FL1IVIVZ3BK6A6QS21HROA","","null","<img src=""img/animal2.png"" style=""width:200px;border:14px solid red;"">","null","","","","","",""
"","image-keyboard-response","257","93960","0.0-257.0","3JRJSWSMQI76M9V2P9LGCFPMZ2OE34","A1EFBEBVZP3D6G","338431Z1FL1IVIVZ3BK6A6QS21HROA","","9","img/animal2.png","74","10","1","1","1","1,0.7,0,1,0.7,0,0.7,0,1",""
"","html-keyboard-response","258","94280","0.0-258.0","3JRJSWSMQI76M9V2P9LGCFPMZ2OE34","A1EFBEBVZP3D6G","338431Z1FL1IVIVZ3BK6A6QS21HROA","","null","<img src=""img/animal2.png"" style=""width:200px; border:14px solid green;"">","null","","","","","",""
"","image-keyboard-response","259","94362","0.0-259.0","3JRJSWSMQI76M9V2P9LGCFPMZ2OE34","A1EFBEBVZP3D6G","338431Z1FL1IVIVZ3BK6A6QS21HROA","","74","img/animal1.png","75","81","2","0","3","1,0.7,0,1,0.7,0,0.7,0,1",""
"","html-keyboard-response","260","94671","0.0-260.0","3JRJSWSMQI76M9V2P9LGCFPMZ2OE34","A1EFBEBVZP3D6G","338431Z1FL1IVIVZ3BK6A6QS21HROA","","null","<img src=""img/animal1.png"" style=""width:200px;border:14px solid red;"">","null","","","","","",""
"","image-keyboard-response","261","94756","0.0-261.0","3JRJSWSMQI76M9V2P9LGCFPMZ2OE34","A1EFBEBVZP3D6G","338431Z1FL1IVIVZ3BK6A6QS21HROA","","82","img/animal1.png","74","84","1","0","3","1,0.7,0,1,0.7,0,0.7,0,1",""
"","html-keyboard-response","262","95060","0.0-262.0","3JRJSWSMQI76M9V2P9LGCFPMZ2OE34","A1EFBEBVZP3D6G","338431Z1FL1IVIVZ3BK6A6QS21HROA","","null","<img src=""img/animal1.png"" style=""width:200px;border:14px solid red;"">","null","","","","","",""
"","image-keyboard-response","263","95198","0.0-263.0","3JRJSWSMQI76M9V2P9LGCFPMZ2OE34","A1EFBEBVZP3D6G","338431Z1FL1IVIVZ3BK6A6QS21HROA","","135","img/animal1.png","76","137","3","1","3","1,0.7,0,1,0.7,0,0.7,0,1",""
"","html-keyboard-response","264","95516","0.0-264.0","3JRJSWSMQI76M9V2P9LGCFPMZ2OE34","A1EFBEBVZP3D6G","338431Z1FL1IVIVZ3BK6A6QS21HROA","","null","<img src=""img/animal1.png"" style=""width:200px; border:14px solid green;"">","null","","","","","",""
"","image-keyboard-response","265","95631","0.0-265.0","3JRJSWSMQI76M9V2P9LGCFPMZ2OE34","A1EFBEBVZP3D6G","338431Z1FL1IVIVZ3BK6A6QS21HROA","","112","img/animal1.png","75","114","2","0","3","1,0.7,0,1,0.7,0,0.7,0,1",""
"","html-keyboard-response","266","95934","0.0-266.0","3JRJSWSMQI76M9V2P9LGCFPMZ2OE34","A1EFBEBVZP3D6G","338431Z1FL1IVIVZ3BK6A6QS21HROA","","null","<img src=""img/animal1.png"" style=""width:200px;border:14px solid red;"">","null","","","","","",""
"","image-keyboard-response","267","96188","0.0-267.0","3JRJSWSMQI76M9V2P9LGCFPMZ2OE34","A1EFBEBVZP3D6G","338431Z1FL1IVIVZ3BK6A6QS21HROA","","252","img/animal1.png","75","254","2","0","3","1,0.7,0,1,0.7,0,0.7,0,1",""
"","html-keyboard-response","268","96518","0.0-268.0","3JRJSWSMQI76M9V2P9LGCFPMZ2OE34","A1EFBEBVZP3D6G","338431Z1FL1IVIVZ3BK6A6QS21HROA","","null","<img src=""img/animal1.png"" style=""width:200px;border:14px solid red;"">","null","","","","","",""
"","image-keyboard-response","269","96662","0.0-269.0","3JRJSWSMQI76M9V2P9LGCFPMZ2OE34","A1EFBEBVZP3D6G","338431Z1FL1IVIVZ3BK6A6QS21HROA","","137","img/animal2.png","75","143","2","1","1","1,0.7,0,1,0.7,0,0.7,0,1",""
"","html-keyboard-response","270","96965","0.0-270.0","3JRJSWSMQI76M9V2P9LGCFPMZ2OE34","A1EFBEBVZP3D6G","338431Z1FL1IVIVZ3BK6A6QS21HROA","","null","<img src=""img/animal2.png"" style=""width:200px; border:14px solid green;"">","null","","","","","",""
"","image-keyboard-response","271","97075","0.0-271.0","3JRJSWSMQI76M9V2P9LGCFPMZ2OE34","A1EFBEBVZP3D6G","338431Z1FL1IVIVZ3BK6A6QS21HROA","","108","img/animal2.png","74","109","1","1","1","1,0.7,0,1,0.7,0,0.7,0,1",""
"","html-keyboard-response","272","97386","0.0-272.0","3JRJSWSMQI76M9V2P9LGCFPMZ2OE34","A1EFBEBVZP3D6G","338431Z1FL1IVIVZ3BK6A6QS21HROA","","null","<img src=""img/animal2.png"" style=""width:200px; border:14px solid green;"">","null","","","","","",""
"","image-keyboard-response","273","97412","0.0-273.0","3JRJSWSMQI76M9V2P9LGCFPMZ2OE34","A1EFBEBVZP3D6G","338431Z1FL1IVIVZ3BK6A6QS21HROA","","26","img/animal2.png","76","26","3","0","1","1,0.7,0,1,0.7,0,0.7,0,1",""
"","html-keyboard-response","274","97715","0.0-274.0","3JRJSWSMQI76M9V2P9LGCFPMZ2OE34","A1EFBEBVZP3D6G","338431Z1FL1IVIVZ3BK6A6QS21HROA","","null","<img src=""img/animal2.png"" style=""width:200px;border:14px solid red;"">","null","","","","","",""
"","image-keyboard-response","275","97831","0.0-275.0","3JRJSWSMQI76M9V2P9LGCFPMZ2OE34","A1EFBEBVZP3D6G","338431Z1FL1IVIVZ3BK6A6QS21HROA","","112","img/animal1.png","76","115","3","1","3","1,0.7,0,1,0.7,0,0.7,0,1",""
"","html-keyboard-response","276","98134","0.0-276.0","3JRJSWSMQI76M9V2P9LGCFPMZ2OE34","A1EFBEBVZP3D6G","338431Z1FL1IVIVZ3BK6A6QS21HROA","","null","<img src=""img/animal1.png"" style=""width:200px; border:14px solid green;"">","null","","","","","",""
"","image-keyboard-response","277","98227","0.0-277.0","3JRJSWSMQI76M9V2P9LGCFPMZ2OE34","A1EFBEBVZP3D6G","338431Z1FL1IVIVZ3BK6A6QS21HROA","","91","img/animal2.png","76","93","3","0","1","1,0.7,0,1,0.7,0,0.7,0,1",""
"","html-keyboard-response","278","98528","0.0-278.0","3JRJSWSMQI76M9V2P9LGCFPMZ2OE34","A1EFBEBVZP3D6G","338431Z1FL1IVIVZ3BK6A6QS21HROA","","null","<img src=""img/animal2.png"" style=""width:200px;border:14px solid red;"">","null","","","","","",""
"","image-keyboard-response","279","98644","0.0-279.0","3JRJSWSMQI76M9V2P9LGCFPMZ2OE34","A1EFBEBVZP3D6G","338431Z1FL1IVIVZ3BK6A6QS21HROA","","114","img/animal1.png","74","115","1","1","3","1,0.7,0,1,0.7,0,0.7,0,1",""
"","html-keyboard-response","280","98948","0.0-280.0","3JRJSWSMQI76M9V2P9LGCFPMZ2OE34","A1EFBEBVZP3D6G","338431Z1FL1IVIVZ3BK6A6QS21HROA","","null","<img src=""img/animal1.png"" style=""width:200px; border:14px solid green;"">","null","","","","","",""
"","image-keyboard-response","281","99041","0.0-281.0","3JRJSWSMQI76M9V2P9LGCFPMZ2OE34","A1EFBEBVZP3D6G","338431Z1FL1IVIVZ3BK6A6QS21HROA","","90","img/animal5.png","74","92","1","1","2","1,0.7,0,1,0.7,0,0.7,0,1",""
"","html-keyboard-response","282","99348","0.0-282.0","3JRJSWSMQI76M9V2P9LGCFPMZ2OE34","A1EFBEBVZP3D6G","338431Z1FL1IVIVZ3BK6A6QS21HROA","","null","<img src=""img/animal5.png"" style=""width:200px; border:14px solid green;"">","null","","","","","",""
"","image-keyboard-response","283","99447","0.0-283.0","3JRJSWSMQI76M9V2P9LGCFPMZ2OE34","A1EFBEBVZP3D6G","338431Z1FL1IVIVZ3BK6A6QS21HROA","","96","img/animal1.png","76","98","3","1","3","1,0.7,0,1,0.7,0,0.7,0,1",""
"","html-keyboard-response","284","99830","0.0-284.0","3JRJSWSMQI76M9V2P9LGCFPMZ2OE34","A1EFBEBVZP3D6G","338431Z1FL1IVIVZ3BK6A6QS21HROA","","null","<img src=""img/animal1.png"" style=""width:200px; border:14px solid green;"">","null","","","","","",""
"","image-keyboard-response","285","99847","0.0-285.0","3JRJSWSMQI76M9V2P9LGCFPMZ2OE34","A1EFBEBVZP3D6G","338431Z1FL1IVIVZ3BK6A6QS21HROA","","14","img/animal5.png","74","14","1","1","2","1,0.7,0,1,0.7,0,0.7,0,1",""
"","html-keyboard-response","286","100158","0.0-286.0","3JRJSWSMQI76M9V2P9LGCFPMZ2OE34","A1EFBEBVZP3D6G","338431Z1FL1IVIVZ3BK6A6QS21HROA","","null","<img src=""img/animal5.png"" style=""width:200px; border:14px solid green;"">","null","","","","","",""
"","image-keyboard-response","287","100204","0.0-287.0","3JRJSWSMQI76M9V2P9LGCFPMZ2OE34","A1EFBEBVZP3D6G","338431Z1FL1IVIVZ3BK6A6QS21HROA","","45","img/animal1.png","74","45","1","1","3","1,0.7,0,1,0.7,0,0.7,0,1",""
"","html-keyboard-response","288","100506","0.0-288.0","3JRJSWSMQI76M9V2P9LGCFPMZ2OE34","A1EFBEBVZP3D6G","338431Z1FL1IVIVZ3BK6A6QS21HROA","","null","<img src=""img/animal1.png"" style=""width:200px; border:14px solid green;"">","null","","","","","",""
"","image-keyboard-response","289","100604","0.0-289.0","3JRJSWSMQI76M9V2P9LGCFPMZ2OE34","A1EFBEBVZP3D6G","338431Z1FL1IVIVZ3BK6A6QS21HROA","","97","img/animal2.png","76","98","3","0","1","1,0.7,0,1,0.7,0,0.7,0,1",""
"","html-keyboard-response","290","100909","0.0-290.0","3JRJSWSMQI76M9V2P9LGCFPMZ2OE34","A1EFBEBVZP3D6G","338431Z1FL1IVIVZ3BK6A6QS21HROA","","null","<img src=""img/animal2.png"" style=""width:200px;border:14px solid red;"">","null","","","","","",""
"","image-keyboard-response","291","101009","0.0-291.0","3JRJSWSMQI76M9V2P9LGCFPMZ2OE34","A1EFBEBVZP3D6G","338431Z1FL1IVIVZ3BK6A6QS21HROA","","93","img/animal1.png","76","95","3","1","3","1,0.7,0,1,0.7,0,0.7,0,1",""
"","html-keyboard-response","292","101325","0.0-292.0","3JRJSWSMQI76M9V2P9LGCFPMZ2OE34","A1EFBEBVZP3D6G","338431Z1FL1IVIVZ3BK6A6QS21HROA","","null","<img src=""img/animal1.png"" style=""width:200px; border:14px solid green;"">","null","","","","","",""
"","image-keyboard-response","293","101356","0.0-293.0","3JRJSWSMQI76M9V2P9LGCFPMZ2OE34","A1EFBEBVZP3D6G","338431Z1FL1IVIVZ3BK6A6QS21HROA","","30","img/animal5.png","74","30","1","1","2","1,0.7,0,1,0.7,0,0.7,0,1",""
"","html-keyboard-response","294","101760","0.0-294.0","3JRJSWSMQI76M9V2P9LGCFPMZ2OE34","A1EFBEBVZP3D6G","338431Z1FL1IVIVZ3BK6A6QS21HROA","","null","<img src=""img/animal5.png"" style=""width:200px; border:14px solid green;"">","null","","","","","",""
"","image-keyboard-response","295","101876","0.0-295.0","3JRJSWSMQI76M9V2P9LGCFPMZ2OE34","A1EFBEBVZP3D6G","338431Z1FL1IVIVZ3BK6A6QS21HROA","","99","img/animal1.png","76","103","3","1","3","1,0.7,0,1,0.7,0,0.7,0,1",""
"","html-keyboard-response","296","102182","0.0-296.0","3JRJSWSMQI76M9V2P9LGCFPMZ2OE34","A1EFBEBVZP3D6G","338431Z1FL1IVIVZ3BK6A6QS21HROA","","null","<img src=""img/animal1.png"" style=""width:200px; border:14px solid green;"">","null","","","","","",""
"","image-keyboard-response","297","102338","0.0-297.0","3JRJSWSMQI76M9V2P9LGCFPMZ2OE34","A1EFBEBVZP3D6G","338431Z1FL1IVIVZ3BK6A6QS21HROA","","153","img/animal1.png","75","155","2","0","3","1,0.7,0,1,0.7,0,0.7,0,1",""
"","html-keyboard-response","298","102647","0.0-298.0","3JRJSWSMQI76M9V2P9LGCFPMZ2OE34","A1EFBEBVZP3D6G","338431Z1FL1IVIVZ3BK6A6QS21HROA","","null","<img src=""img/animal1.png"" style=""width:200px;border:14px solid red;"">","null","","","","","",""
"","image-keyboard-response","299","102780","0.0-299.0","3JRJSWSMQI76M9V2P9LGCFPMZ2OE34","A1EFBEBVZP3D6G","338431Z1FL1IVIVZ3BK6A6QS21HROA","","131","img/animal1.png","74","133","1","1","3","1,0.7,0,1,0.7,0,0.7,0,1",""
"","html-keyboard-response","300","103082","0.0-300.0","3JRJSWSMQI76M9V2P9LGCFPMZ2OE34","A1EFBEBVZP3D6G","338431Z1FL1IVIVZ3BK6A6QS21HROA","","null","<img src=""img/animal1.png"" style=""width:200px; border:14px solid green;"">","null","","","","","",""
"","image-keyboard-response","301","103270","0.0-301.0","3JRJSWSMQI76M9V2P9LGCFPMZ2OE34","A1EFBEBVZP3D6G","338431Z1FL1IVIVZ3BK6A6QS21HROA","","186","img/animal5.png","74","187","1","1","2","1,0.7,0,1,0.7,0,0.7,0,1",""
"","html-keyboard-response","302","103649","0.0-302.0","3JRJSWSMQI76M9V2P9LGCFPMZ2OE34","A1EFBEBVZP3D6G","338431Z1FL1IVIVZ3BK6A6QS21HROA","","null","<img src=""img/animal5.png"" style=""width:200px; border:14px solid green;"">","null","","","","","",""
"","image-keyboard-response","303","103754","0.0-303.0","3JRJSWSMQI76M9V2P9LGCFPMZ2OE34","A1EFBEBVZP3D6G","338431Z1FL1IVIVZ3BK6A6QS21HROA","","94","img/animal5.png","74","104","1","1","2","1,0.7,0,1,0.7,0,0.7,0,1",""
"","html-keyboard-response","304","104057","0.0-304.0","3JRJSWSMQI76M9V2P9LGCFPMZ2OE34","A1EFBEBVZP3D6G","338431Z1FL1IVIVZ3BK6A6QS21HROA","","null","<img src=""img/animal5.png"" style=""width:200px; border:14px solid green;"">","null","","","","","",""
"","image-keyboard-response","305","104255","0.0-305.0","3JRJSWSMQI76M9V2P9LGCFPMZ2OE34","A1EFBEBVZP3D6G","338431Z1FL1IVIVZ3BK6A6QS21HROA","","197","img/animal2.png","74","199","1","1","1","1,0.7,0,1,0.7,0,0.7,0,1",""
"","html-keyboard-response","306","104559","0.0-306.0","3JRJSWSMQI76M9V2P9LGCFPMZ2OE34","A1EFBEBVZP3D6G","338431Z1FL1IVIVZ3BK6A6QS21HROA","","null","<img src=""img/animal2.png"" style=""width:200px; border:14px solid green;"">","null","","","","","",""
"","image-keyboard-response","307","104653","0.0-307.0","3JRJSWSMQI76M9V2P9LGCFPMZ2OE34","A1EFBEBVZP3D6G","338431Z1FL1IVIVZ3BK6A6QS21HROA","","92","img/animal5.png","74","93","1","1","2","1,0.7,0,1,0.7,0,0.7,0,1",""
"","html-keyboard-response","308","104956","0.0-308.0","3JRJSWSMQI76M9V2P9LGCFPMZ2OE34","A1EFBEBVZP3D6G","338431Z1FL1IVIVZ3BK6A6QS21HROA","","null","<img src=""img/animal5.png"" style=""width:200px; border:14px solid green;"">","null","","","","","",""
"","image-keyboard-response","309","105075","0.0-309.0","3JRJSWSMQI76M9V2P9LGCFPMZ2OE34","A1EFBEBVZP3D6G","338431Z1FL1IVIVZ3BK6A6QS21HROA","","117","img/animal5.png","76","118","3","0","2","1,0.7,0,1,0.7,0,0.7,0,1",""
"","html-keyboard-response","310","105385","0.0-310.0","3JRJSWSMQI76M9V2P9LGCFPMZ2OE34","A1EFBEBVZP3D6G","338431Z1FL1IVIVZ3BK6A6QS21HROA","","null","<img src=""img/animal5.png"" style=""width:200px;border:14px solid red;"">","null","","","","","",""
"","image-keyboard-response","311","105469","0.0-311.0","3JRJSWSMQI76M9V2P9LGCFPMZ2OE34","A1EFBEBVZP3D6G","338431Z1FL1IVIVZ3BK6A6QS21HROA","","81","img/animal5.png","74","83","1","1","2","1,0.7,0,1,0.7,0,0.7,0,1",""
"","html-keyboard-response","312","105790","0.0-312.0","3JRJSWSMQI76M9V2P9LGCFPMZ2OE34","A1EFBEBVZP3D6G","338431Z1FL1IVIVZ3BK6A6QS21HROA","","null","<img src=""img/animal5.png"" style=""width:200px; border:14px solid green;"">","null","","","","","",""
"","image-keyboard-response","313","106021","0.0-313.0","3JRJSWSMQI76M9V2P9LGCFPMZ2OE34","A1EFBEBVZP3D6G","338431Z1FL1IVIVZ3BK6A6QS21HROA","","228","img/animal5.png","76","232","3","0","2","1,0.7,0,1,0.7,0,0.7,0,1",""
"","html-keyboard-response","314","106326","0.0-314.0","3JRJSWSMQI76M9V2P9LGCFPMZ2OE34","A1EFBEBVZP3D6G","338431Z1FL1IVIVZ3BK6A6QS21HROA","","null","<img src=""img/animal5.png"" style=""width:200px;border:14px solid red;"">","null","","","","","",""
"","image-keyboard-response","315","106415","0.0-315.0","3JRJSWSMQI76M9V2P9LGCFPMZ2OE34","A1EFBEBVZP3D6G","338431Z1FL1IVIVZ3BK6A6QS21HROA","","85","img/animal2.png","74","87","1","1","1","1,0.7,0,1,0.7,0,0.7,0,1",""
"","html-keyboard-response","316","106724","0.0-316.0","3JRJSWSMQI76M9V2P9LGCFPMZ2OE34","A1EFBEBVZP3D6G","338431Z1FL1IVIVZ3BK6A6QS21HROA","","null","<img src=""img/animal2.png"" style=""width:200px; border:14px solid green;"">","null","","","","","",""
"","image-keyboard-response","317","106807","0.0-317.0","3JRJSWSMQI76M9V2P9LGCFPMZ2OE34","A1EFBEBVZP3D6G","338431Z1FL1IVIVZ3BK6A6QS21HROA","","81","img/animal1.png","74","83","1","1","3","1,0.7,0,1,0.7,0,0.7,0,1",""
"","html-keyboard-response","318","107111","0.0-318.0","3JRJSWSMQI76M9V2P9LGCFPMZ2OE34","A1EFBEBVZP3D6G","338431Z1FL1IVIVZ3BK6A6QS21HROA","","null","<img src=""img/animal1.png"" style=""width:200px; border:14px solid green;"">","null","","","","","",""
"","image-keyboard-response","319","107252","0.0-319.0","3JRJSWSMQI76M9V2P9LGCFPMZ2OE34","A1EFBEBVZP3D6G","338431Z1FL1IVIVZ3BK6A6QS21HROA","","140","img/animal2.png","74","141","1","1","1","1,0.7,0,1,0.7,0,0.7,0,1",""
"","html-keyboard-response","320","107558","0.0-320.0","3JRJSWSMQI76M9V2P9LGCFPMZ2OE34","A1EFBEBVZP3D6G","338431Z1FL1IVIVZ3BK6A6QS21HROA","","null","<img src=""img/animal2.png"" style=""width:200px; border:14px solid green;"">","null","","","","","",""
"","image-keyboard-response","321","107657","0.0-321.0","3JRJSWSMQI76M9V2P9LGCFPMZ2OE34","A1EFBEBVZP3D6G","338431Z1FL1IVIVZ3BK6A6QS21HROA","","96","img/animal2.png","74","98","1","1","1","1,0.7,0,1,0.7,0,0.7,0,1",""
"","html-keyboard-response","322","107976","0.0-322.0","3JRJSWSMQI76M9V2P9LGCFPMZ2OE34","A1EFBEBVZP3D6G","338431Z1FL1IVIVZ3BK6A6QS21HROA","","null","<img src=""img/animal2.png"" style=""width:200px; border:14px solid green;"">","null","","","","","",""
"","image-keyboard-response","323","107980","0.0-323.0","3JRJSWSMQI76M9V2P9LGCFPMZ2OE34","A1EFBEBVZP3D6G","338431Z1FL1IVIVZ3BK6A6QS21HROA","","1","img/animal1.png","74","3","1","1","3","1,0.7,0,1,0.7,0,0.7,0,1",""
"","html-keyboard-response","324","108282","0.0-324.0","3JRJSWSMQI76M9V2P9LGCFPMZ2OE34","A1EFBEBVZP3D6G","338431Z1FL1IVIVZ3BK6A6QS21HROA","","null","<img src=""img/animal1.png"" style=""width:200px; border:14px solid green;"">","null","","","","","",""
"","image-keyboard-response","325","108360","0.0-325.0","3JRJSWSMQI76M9V2P9LGCFPMZ2OE34","A1EFBEBVZP3D6G","338431Z1FL1IVIVZ3BK6A6QS21HROA","","76","img/animal5.png","76","78","3","0","2","1,0.7,0,1,0.7,0,0.7,0,1",""
"","html-keyboard-response","326","108683","0.0-326.0","3JRJSWSMQI76M9V2P9LGCFPMZ2OE34","A1EFBEBVZP3D6G","338431Z1FL1IVIVZ3BK6A6QS21HROA","","null","<img src=""img/animal5.png"" style=""width:200px;border:14px solid red;"">","null","","","","","",""
"","image-keyboard-response","327","108775","0.0-327.0","3JRJSWSMQI76M9V2P9LGCFPMZ2OE34","A1EFBEBVZP3D6G","338431Z1FL1IVIVZ3BK6A6QS21HROA","","87","img/animal5.png","74","89","1","1","2","1,0.7,0,1,0.7,0,0.7,0,1",""
"","html-keyboard-response","328","109078","0.0-328.0","3JRJSWSMQI76M9V2P9LGCFPMZ2OE34","A1EFBEBVZP3D6G","338431Z1FL1IVIVZ3BK6A6QS21HROA","","null","<img src=""img/animal5.png"" style=""width:200px; border:14px solid green;"">","null","","","","","",""
"","image-keyboard-response","329","109198","0.0-329.0","3JRJSWSMQI76M9V2P9LGCFPMZ2OE34","A1EFBEBVZP3D6G","338431Z1FL1IVIVZ3BK6A6QS21HROA","","118","img/animal2.png","75","120","2","0","1","1,0.7,0,1,0.7,0,0.7,0,1",""
"","html-keyboard-response","330","109508","0.0-330.0","3JRJSWSMQI76M9V2P9LGCFPMZ2OE34","A1EFBEBVZP3D6G","338431Z1FL1IVIVZ3BK6A6QS21HROA","","null","<img src=""img/animal2.png"" style=""width:200px;border:14px solid red;"">","null","","","","","",""
"","image-keyboard-response","331","109542","0.0-331.0","3JRJSWSMQI76M9V2P9LGCFPMZ2OE34","A1EFBEBVZP3D6G","338431Z1FL1IVIVZ3BK6A6QS21HROA","","32","img/animal1.png","75","34","2","0","3","1,0.7,0,1,0.7,0,0.7,0,1",""
"","html-keyboard-response","332","109860","0.0-332.0","3JRJSWSMQI76M9V2P9LGCFPMZ2OE34","A1EFBEBVZP3D6G","338431Z1FL1IVIVZ3BK6A6QS21HROA","","null","<img src=""img/animal1.png"" style=""width:200px;border:14px solid red;"">","null","","","","","",""
"","image-keyboard-response","333","110072","0.0-333.0","3JRJSWSMQI76M9V2P9LGCFPMZ2OE34","A1EFBEBVZP3D6G","338431Z1FL1IVIVZ3BK6A6QS21HROA","","202","img/animal5.png","74","204","1","1","2","1,0.7,0,1,0.7,0,0.7,0,1",""
"","html-keyboard-response","334","110382","0.0-334.0","3JRJSWSMQI76M9V2P9LGCFPMZ2OE34","A1EFBEBVZP3D6G","338431Z1FL1IVIVZ3BK6A6QS21HROA","","null","<img src=""img/animal5.png"" style=""width:200px; border:14px solid green;"">","null","","","","","",""
"","image-keyboard-response","335","110510","0.0-335.0","3JRJSWSMQI76M9V2P9LGCFPMZ2OE34","A1EFBEBVZP3D6G","338431Z1FL1IVIVZ3BK6A6QS21HROA","","125","img/animal5.png","75","127","2","1","2","1,0.7,0,1,0.7,0,0.7,0,1",""
"","html-keyboard-response","336","110812","0.0-336.0","3JRJSWSMQI76M9V2P9LGCFPMZ2OE34","A1EFBEBVZP3D6G","338431Z1FL1IVIVZ3BK6A6QS21HROA","","null","<img src=""img/animal5.png"" style=""width:200px; border:14px solid green;"">","null","","","","","",""
"","image-keyboard-response","337","110905","0.0-337.0","3JRJSWSMQI76M9V2P9LGCFPMZ2OE34","A1EFBEBVZP3D6G","338431Z1FL1IVIVZ3BK6A6QS21HROA","","91","img/animal1.png","75","92","2","0","3","1,0.7,0,1,0.7,0,0.7,0,1",""
"","html-keyboard-response","338","111243","0.0-338.0","3JRJSWSMQI76M9V2P9LGCFPMZ2OE34","A1EFBEBVZP3D6G","338431Z1FL1IVIVZ3BK6A6QS21HROA","","null","<img src=""img/animal1.png"" style=""width:200px;border:14px solid red;"">","null","","","","","",""
"","image-keyboard-response","339","111411","0.0-339.0","3JRJSWSMQI76M9V2P9LGCFPMZ2OE34","A1EFBEBVZP3D6G","338431Z1FL1IVIVZ3BK6A6QS21HROA","","167","img/animal2.png","76","169","3","0","1","1,0.7,0,1,0.7,0,0.7,0,1",""
"","html-keyboard-response","340","111758","0.0-340.0","3JRJSWSMQI76M9V2P9LGCFPMZ2OE34","A1EFBEBVZP3D6G","338431Z1FL1IVIVZ3BK6A6QS21HROA","","null","<img src=""img/animal2.png"" style=""width:200px;border:14px solid red;"">","null","","","","","",""
"","image-keyboard-response","341","112022","0.0-341.0","3JRJSWSMQI76M9V2P9LGCFPMZ2OE34","A1EFBEBVZP3D6G","338431Z1FL1IVIVZ3BK6A6QS21HROA","","243","img/animal5.png","75","261","2","1","2","1,0.7,0,1,0.7,0,0.7,0,1",""
"","html-keyboard-response","342","112328","0.0-342.0","3JRJSWSMQI76M9V2P9LGCFPMZ2OE34","A1EFBEBVZP3D6G","338431Z1FL1IVIVZ3BK6A6QS21HROA","","null","<img src=""img/animal5.png"" style=""width:200px; border:14px solid green;"">","null","","","","","",""
"","image-keyboard-response","343","112387","0.0-343.0","3JRJSWSMQI76M9V2P9LGCFPMZ2OE34","A1EFBEBVZP3D6G","338431Z1FL1IVIVZ3BK6A6QS21HROA","","56","img/animal5.png","74","58","1","1","2","1,0.7,0,1,0.7,0,0.7,0,1",""
"","html-keyboard-response","344","112690","0.0-344.0","3JRJSWSMQI76M9V2P9LGCFPMZ2OE34","A1EFBEBVZP3D6G","338431Z1FL1IVIVZ3BK6A6QS21HROA","","null","<img src=""img/animal5.png"" style=""width:200px; border:14px solid green;"">","null","","","","","",""
"","image-keyboard-response","345","112788","0.0-345.0","3JRJSWSMQI76M9V2P9LGCFPMZ2OE34","A1EFBEBVZP3D6G","338431Z1FL1IVIVZ3BK6A6QS21HROA","","96","img/animal1.png","76","97","3","1","3","1,0.7,0,1,0.7,0,0.7,0,1",""
"","html-keyboard-response","346","113094","0.0-346.0","3JRJSWSMQI76M9V2P9LGCFPMZ2OE34","A1EFBEBVZP3D6G","338431Z1FL1IVIVZ3BK6A6QS21HROA","","null","<img src=""img/animal1.png"" style=""width:200px; border:14px solid green;"">","null","","","","","",""
"","image-keyboard-response","347","113134","0.0-347.0","3JRJSWSMQI76M9V2P9LGCFPMZ2OE34","A1EFBEBVZP3D6G","338431Z1FL1IVIVZ3BK6A6QS21HROA","","34","img/animal2.png","76","39","3","0","1","1,0.7,0,1,0.7,0,0.7,0,1",""
"","html-keyboard-response","348","113445","0.0-348.0","3JRJSWSMQI76M9V2P9LGCFPMZ2OE34","A1EFBEBVZP3D6G","338431Z1FL1IVIVZ3BK6A6QS21HROA","","null","<img src=""img/animal2.png"" style=""width:200px;border:14px solid red;"">","null","","","","","",""
"","image-keyboard-response","349","114007","0.0-349.0","3JRJSWSMQI76M9V2P9LGCFPMZ2OE34","A1EFBEBVZP3D6G","338431Z1FL1IVIVZ3BK6A6QS21HROA","","557","img/animal5.png","75","561","2","1","2","1,0.7,0,1,0.7,0,0.7,0,1",""
"","html-keyboard-response","350","114324","0.0-350.0","3JRJSWSMQI76M9V2P9LGCFPMZ2OE34","A1EFBEBVZP3D6G","338431Z1FL1IVIVZ3BK6A6QS21HROA","","null","<img src=""img/animal5.png"" style=""width:200px; border:14px solid green;"">","null","","","","","",""
"","image-keyboard-response","351","114507","0.0-351.0","3JRJSWSMQI76M9V2P9LGCFPMZ2OE34","A1EFBEBVZP3D6G","338431Z1FL1IVIVZ3BK6A6QS21HROA","","183","img/animal2.png","75","184","2","0","1","1,0.7,0,1,0.7,0,0.7,0,1",""
"","html-keyboard-response","352","114822","0.0-352.0","3JRJSWSMQI76M9V2P9LGCFPMZ2OE34","A1EFBEBVZP3D6G","338431Z1FL1IVIVZ3BK6A6QS21HROA","","null","<img src=""img/animal2.png"" style=""width:200px;border:14px solid red;"">","null","","","","","",""
"","image-keyboard-response","353","114911","0.0-353.0","3JRJSWSMQI76M9V2P9LGCFPMZ2OE34","A1EFBEBVZP3D6G","338431Z1FL1IVIVZ3BK6A6QS21HROA","","85","img/animal5.png","75","87","2","0","2","1,0.7,0,1,0.7,0,0.7,0,1",""
"","html-keyboard-response","354","115220","0.0-354.0","3JRJSWSMQI76M9V2P9LGCFPMZ2OE34","A1EFBEBVZP3D6G","338431Z1FL1IVIVZ3BK6A6QS21HROA","","null","<img src=""img/animal5.png"" style=""width:200px;border:14px solid red;"">","null","","","","","",""
"","image-keyboard-response","355","115367","0.0-355.0","3JRJSWSMQI76M9V2P9LGCFPMZ2OE34","A1EFBEBVZP3D6G","338431Z1FL1IVIVZ3BK6A6QS21HROA","","145","img/animal1.png","75","147","2","0","3","1,0.7,0,1,0.7,0,0.7,0,1",""
"","html-keyboard-response","356","115670","0.0-356.0","3JRJSWSMQI76M9V2P9LGCFPMZ2OE34","A1EFBEBVZP3D6G","338431Z1FL1IVIVZ3BK6A6QS21HROA","","null","<img src=""img/animal1.png"" style=""width:200px;border:14px solid red;"">","null","","","","","",""
"","image-keyboard-response","357","115770","0.0-357.0","3JRJSWSMQI76M9V2P9LGCFPMZ2OE34","A1EFBEBVZP3D6G","338431Z1FL1IVIVZ3BK6A6QS21HROA","","98","img/animal2.png","75","99","2","1","1","1,0.7,0,1,0.7,0,0.7,0,1",""
"","html-keyboard-response","358","116075","0.0-358.0","3JRJSWSMQI76M9V2P9LGCFPMZ2OE34","A1EFBEBVZP3D6G","338431Z1FL1IVIVZ3BK6A6QS21HROA","","null","<img src=""img/animal2.png"" style=""width:200px; border:14px solid green;"">","null","","","","","",""
"","image-keyboard-response","359","116200","0.0-359.0","3JRJSWSMQI76M9V2P9LGCFPMZ2OE34","A1EFBEBVZP3D6G","338431Z1FL1IVIVZ3BK6A6QS21HROA","","123","img/animal5.png","76","126","3","0","2","1,0.7,0,1,0.7,0,0.7,0,1",""
"","html-keyboard-response","360","116504","0.0-360.0","3JRJSWSMQI76M9V2P9LGCFPMZ2OE34","A1EFBEBVZP3D6G","338431Z1FL1IVIVZ3BK6A6QS21HROA","","null","<img src=""img/animal5.png"" style=""width:200px;border:14px solid red;"">","null","","","","","",""
"","image-keyboard-response","361","116627","0.0-361.0","3JRJSWSMQI76M9V2P9LGCFPMZ2OE34","A1EFBEBVZP3D6G","338431Z1FL1IVIVZ3BK6A6QS21HROA","","121","img/animal2.png","75","123","2","1","1","1,0.7,0,1,0.7,0,0.7,0,1",""
"","html-keyboard-response","362","116934","0.0-362.0","3JRJSWSMQI76M9V2P9LGCFPMZ2OE34","A1EFBEBVZP3D6G","338431Z1FL1IVIVZ3BK6A6QS21HROA","","null","<img src=""img/animal2.png"" style=""width:200px; border:14px solid green;"">","null","","","","","",""
"","instructions","363","118737","0.0-363.0","3JRJSWSMQI76M9V2P9LGCFPMZ2OE34","A1EFBEBVZP3D6G","338431Z1FL1IVIVZ3BK6A6QS21HROA","[{""page_index"":0,""viewing_time"":1800}]","1801","","","","","","","",""
"","survey-text","364","124939","0.0-364.0","3JRJSWSMQI76M9V2P9LGCFPMZ2OE34","A1EFBEBVZP3D6G","338431Z1FL1IVIVZ3BK6A6QS21HROA","","6195","","","","","","","","{""Q0"":""A1EFBEBVZP3D6G""}"
