"success","trial_type","trial_index","time_elapsed","internal_node_id","assignmentID","mturkID","hitID","view_history","rt","stimulus","key_press","reactionTime","a","r","s","reward_cond","responses"
"true","fullscreen","0","2461","0.0-0.0","326O153BMJK441XZIYRSPOBYQFDED2","A1FP3SH704X01V","3OYHVNTV5TKW8EI4DRB99U4E79NKOA","","","","","","","","","",""
"","instructions","1","29199","0.0-1.0","326O153BMJK441XZIYRSPOBYQFDED2","A1FP3SH704X01V","3OYHVNTV5TKW8EI4DRB99U4E79NKOA","[{""page_index"":0,""viewing_time"":2390.199999988079},{""page_index"":1,""viewing_time"":1960.0999999940395},{""page_index"":2,""viewing_time"":1464.300000011921},{""page_index"":3,""viewing_time"":1600.2999999821186},{""page_index"":4,""viewing_time"":1951.300000011921},{""page_index"":5,""viewing_time"":10322.40000000596},{""page_index"":6,""viewing_time"":6081.299999982119},{""page_index"":7,""viewing_time"":966.9000000059605}]","26737.29999998212","","","","","","","",""
"","image-keyboard-response","2","29977","0.0-2.0","326O153BMJK441XZIYRSPOBYQFDED2","A1FP3SH704X01V","3OYHVNTV5TKW8EI4DRB99U4E79NKOA","","776.6999999880791","img/animal6.png","74","777.4000000059605","1","1","1","1,0.7,0,0,1,0.7,0.7,0,1",""
"","html-keyboard-response","3","30278","0.0-3.0","326O153BMJK441XZIYRSPOBYQFDED2","A1FP3SH704X01V","3OYHVNTV5TKW8EI4DRB99U4E79NKOA","","null","<img src=""img/animal6.png"" style=""width:200px; border:14px solid green;"">","null","","","","","",""
"","image-keyboard-response","4","30749","0.0-4.0","326O153BMJK441XZIYRSPOBYQFDED2","A1FP3SH704X01V","3OYHVNTV5TKW8EI4DRB99U4E79NKOA","","470.19999998807907","img/animal4.png","75","470.80000001192093","2","1","2","1,0.7,0,0,1,0.7,0.7,0,1",""
"","html-keyboard-response","5","31051","0.0-5.0","326O153BMJK441XZIYRSPOBYQFDED2","A1FP3SH704X01V","3OYHVNTV5TKW8EI4DRB99U4E79NKOA","","null","<img src=""img/animal4.png"" style=""width:200px; border:14px solid green;"">","null","","","","","",""
"","image-keyboard-response","6","31508","0.0-6.0","326O153BMJK441XZIYRSPOBYQFDED2","A1FP3SH704X01V","3OYHVNTV5TKW8EI4DRB99U4E79NKOA","","456.69999998807907","img/animal3.png","76","457.09999999403954","3","1","3","1,0.7,0,0,1,0.7,0.7,0,1",""
"","html-keyboard-response","7","31815","0.0-7.0","326O153BMJK441XZIYRSPOBYQFDED2","A1FP3SH704X01V","3OYHVNTV5TKW8EI4DRB99U4E79NKOA","","null","<img src=""img/animal3.png"" style=""width:200px; border:14px solid green;"">","null","","","","","",""
"","image-keyboard-response","8","32364","0.0-8.0","326O153BMJK441XZIYRSPOBYQFDED2","A1FP3SH704X01V","3OYHVNTV5TKW8EI4DRB99U4E79NKOA","","548.9000000059605","img/animal6.png","75","549.4000000059605","2","1","1","1,0.7,0,0,1,0.7,0.7,0,1",""
"","html-keyboard-response","9","32665","0.0-9.0","326O153BMJK441XZIYRSPOBYQFDED2","A1FP3SH704X01V","3OYHVNTV5TKW8EI4DRB99U4E79NKOA","","null","<img src=""img/animal6.png"" style=""width:200px; border:14px solid green;"">","null","","","","","",""
"","image-keyboard-response","10","33009","0.0-10.0","326O153BMJK441XZIYRSPOBYQFDED2","A1FP3SH704X01V","3OYHVNTV5TKW8EI4DRB99U4E79NKOA","","343.09999999403954","img/animal6.png","75","343.59999999403954","2","0","1","1,0.7,0,0,1,0.7,0.7,0,1",""
"","html-keyboard-response","11","33311","0.0-11.0","326O153BMJK441XZIYRSPOBYQFDED2","A1FP3SH704X01V","3OYHVNTV5TKW8EI4DRB99U4E79NKOA","","null","<img src=""img/animal6.png"" style=""width:200px;border:14px solid red;"">","null","","","","","",""
"","image-keyboard-response","12","34241","0.0-12.0","326O153BMJK441XZIYRSPOBYQFDED2","A1FP3SH704X01V","3OYHVNTV5TKW8EI4DRB99U4E79NKOA","","930","img/animal3.png","76","930.6000000238419","3","1","3","1,0.7,0,0,1,0.7,0.7,0,1",""
"","html-keyboard-response","13","34543","0.0-13.0","326O153BMJK441XZIYRSPOBYQFDED2","A1FP3SH704X01V","3OYHVNTV5TKW8EI4DRB99U4E79NKOA","","null","<img src=""img/animal3.png"" style=""width:200px; border:14px solid green;"">","null","","","","","",""
"","image-keyboard-response","14","34899","0.0-14.0","326O153BMJK441XZIYRSPOBYQFDED2","A1FP3SH704X01V","3OYHVNTV5TKW8EI4DRB99U4E79NKOA","","355.30000001192093","img/animal3.png","76","355.69999998807907","3","1","3","1,0.7,0,0,1,0.7,0.7,0,1",""
"","html-keyboard-response","15","35201","0.0-15.0","326O153BMJK441XZIYRSPOBYQFDED2","A1FP3SH704X01V","3OYHVNTV5TKW8EI4DRB99U4E79NKOA","","null","<img src=""img/animal3.png"" style=""width:200px; border:14px solid green;"">","null","","","","","",""
"","image-keyboard-response","16","35767","0.0-16.0","326O153BMJK441XZIYRSPOBYQFDED2","A1FP3SH704X01V","3OYHVNTV5TKW8EI4DRB99U4E79NKOA","","565.5","img/animal6.png","75","566.0999999940395","2","1","1","1,0.7,0,0,1,0.7,0.7,0,1",""
"","html-keyboard-response","17","36069","0.0-17.0","326O153BMJK441XZIYRSPOBYQFDED2","A1FP3SH704X01V","3OYHVNTV5TKW8EI4DRB99U4E79NKOA","","null","<img src=""img/animal6.png"" style=""width:200px; border:14px solid green;"">","null","","","","","",""
"","image-keyboard-response","18","36566","0.0-18.0","326O153BMJK441XZIYRSPOBYQFDED2","A1FP3SH704X01V","3OYHVNTV5TKW8EI4DRB99U4E79NKOA","","496.40000000596046","img/animal3.png","76","497","3","1","3","1,0.7,0,0,1,0.7,0.7,0,1",""
"","html-keyboard-response","19","36868","0.0-19.0","326O153BMJK441XZIYRSPOBYQFDED2","A1FP3SH704X01V","3OYHVNTV5TKW8EI4DRB99U4E79NKOA","","null","<img src=""img/animal3.png"" style=""width:200px; border:14px solid green;"">","null","","","","","",""
"","image-keyboard-response","20","37703","0.0-20.0","326O153BMJK441XZIYRSPOBYQFDED2","A1FP3SH704X01V","3OYHVNTV5TKW8EI4DRB99U4E79NKOA","","833.5","img/animal6.png","75","834","2","0","1","1,0.7,0,0,1,0.7,0.7,0,1",""
"","html-keyboard-response","21","38004","0.0-21.0","326O153BMJK441XZIYRSPOBYQFDED2","A1FP3SH704X01V","3OYHVNTV5TKW8EI4DRB99U4E79NKOA","","null","<img src=""img/animal6.png"" style=""width:200px;border:14px solid red;"">","null","","","","","",""
"","image-keyboard-response","22","38538","0.0-22.0","326O153BMJK441XZIYRSPOBYQFDED2","A1FP3SH704X01V","3OYHVNTV5TKW8EI4DRB99U4E79NKOA","","533","img/animal6.png","74","533.6000000238419","1","1","1","1,0.7,0,0,1,0.7,0.7,0,1",""
"","html-keyboard-response","23","38839","0.0-23.0","326O153BMJK441XZIYRSPOBYQFDED2","A1FP3SH704X01V","3OYHVNTV5TKW8EI4DRB99U4E79NKOA","","null","<img src=""img/animal6.png"" style=""width:200px; border:14px solid green;"">","null","","","","","",""
"","image-keyboard-response","24","39168","0.0-24.0","326O153BMJK441XZIYRSPOBYQFDED2","A1FP3SH704X01V","3OYHVNTV5TKW8EI4DRB99U4E79NKOA","","328.5","img/animal6.png","74","329","1","1","1","1,0.7,0,0,1,0.7,0.7,0,1",""
"","html-keyboard-response","25","39470","0.0-25.0","326O153BMJK441XZIYRSPOBYQFDED2","A1FP3SH704X01V","3OYHVNTV5TKW8EI4DRB99U4E79NKOA","","null","<img src=""img/animal6.png"" style=""width:200px; border:14px solid green;"">","null","","","","","",""
"","image-keyboard-response","26","39776","0.0-26.0","326O153BMJK441XZIYRSPOBYQFDED2","A1FP3SH704X01V","3OYHVNTV5TKW8EI4DRB99U4E79NKOA","","305.80000001192093","img/animal6.png","74","306.30000001192093","1","1","1","1,0.7,0,0,1,0.7,0.7,0,1",""
"","html-keyboard-response","27","40078","0.0-27.0","326O153BMJK441XZIYRSPOBYQFDED2","A1FP3SH704X01V","3OYHVNTV5TKW8EI4DRB99U4E79NKOA","","null","<img src=""img/animal6.png"" style=""width:200px; border:14px solid green;"">","null","","","","","",""
"","image-keyboard-response","28","40547","0.0-28.0","326O153BMJK441XZIYRSPOBYQFDED2","A1FP3SH704X01V","3OYHVNTV5TKW8EI4DRB99U4E79NKOA","","468.7999999821186","img/animal4.png","75","469.19999998807907","2","1","2","1,0.7,0,0,1,0.7,0.7,0,1",""
"","html-keyboard-response","29","40849","0.0-29.0","326O153BMJK441XZIYRSPOBYQFDED2","A1FP3SH704X01V","3OYHVNTV5TKW8EI4DRB99U4E79NKOA","","null","<img src=""img/animal4.png"" style=""width:200px; border:14px solid green;"">","null","","","","","",""
"","image-keyboard-response","30","41361","0.0-30.0","326O153BMJK441XZIYRSPOBYQFDED2","A1FP3SH704X01V","3OYHVNTV5TKW8EI4DRB99U4E79NKOA","","510.69999998807907","img/animal3.png","76","511.09999999403954","3","1","3","1,0.7,0,0,1,0.7,0.7,0,1",""
"","html-keyboard-response","31","41662","0.0-31.0","326O153BMJK441XZIYRSPOBYQFDED2","A1FP3SH704X01V","3OYHVNTV5TKW8EI4DRB99U4E79NKOA","","null","<img src=""img/animal3.png"" style=""width:200px; border:14px solid green;"">","null","","","","","",""
"","image-keyboard-response","32","42132","0.0-32.0","326O153BMJK441XZIYRSPOBYQFDED2","A1FP3SH704X01V","3OYHVNTV5TKW8EI4DRB99U4E79NKOA","","469.09999999403954","img/animal4.png","75","469.40000000596046","2","1","2","1,0.7,0,0,1,0.7,0.7,0,1",""
"","html-keyboard-response","33","42434","0.0-33.0","326O153BMJK441XZIYRSPOBYQFDED2","A1FP3SH704X01V","3OYHVNTV5TKW8EI4DRB99U4E79NKOA","","null","<img src=""img/animal4.png"" style=""width:200px; border:14px solid green;"">","null","","","","","",""
"","image-keyboard-response","34","42895","0.0-34.0","326O153BMJK441XZIYRSPOBYQFDED2","A1FP3SH704X01V","3OYHVNTV5TKW8EI4DRB99U4E79NKOA","","459.90000000596046","img/animal3.png","76","460.5","3","1","3","1,0.7,0,0,1,0.7,0.7,0,1",""
"","html-keyboard-response","35","43196","0.0-35.0","326O153BMJK441XZIYRSPOBYQFDED2","A1FP3SH704X01V","3OYHVNTV5TKW8EI4DRB99U4E79NKOA","","null","<img src=""img/animal3.png"" style=""width:200px; border:14px solid green;"">","null","","","","","",""
"","image-keyboard-response","36","43770","0.0-36.0","326O153BMJK441XZIYRSPOBYQFDED2","A1FP3SH704X01V","3OYHVNTV5TKW8EI4DRB99U4E79NKOA","","573.7999999821186","img/animal4.png","75","574.2000000178814","2","1","2","1,0.7,0,0,1,0.7,0.7,0,1",""
"","html-keyboard-response","37","44072","0.0-37.0","326O153BMJK441XZIYRSPOBYQFDED2","A1FP3SH704X01V","3OYHVNTV5TKW8EI4DRB99U4E79NKOA","","null","<img src=""img/animal4.png"" style=""width:200px; border:14px solid green;"">","null","","","","","",""
"","image-keyboard-response","38","44398","0.0-38.0","326O153BMJK441XZIYRSPOBYQFDED2","A1FP3SH704X01V","3OYHVNTV5TKW8EI4DRB99U4E79NKOA","","325","img/animal4.png","75","325.80000001192093","2","1","2","1,0.7,0,0,1,0.7,0.7,0,1",""
"","html-keyboard-response","39","44700","0.0-39.0","326O153BMJK441XZIYRSPOBYQFDED2","A1FP3SH704X01V","3OYHVNTV5TKW8EI4DRB99U4E79NKOA","","null","<img src=""img/animal4.png"" style=""width:200px; border:14px solid green;"">","null","","","","","",""
"","image-keyboard-response","40","45165","0.0-40.0","326O153BMJK441XZIYRSPOBYQFDED2","A1FP3SH704X01V","3OYHVNTV5TKW8EI4DRB99U4E79NKOA","","464.90000000596046","img/animal3.png","76","465.39999997615814","3","1","3","1,0.7,0,0,1,0.7,0.7,0,1",""
"","html-keyboard-response","41","45467","0.0-41.0","326O153BMJK441XZIYRSPOBYQFDED2","A1FP3SH704X01V","3OYHVNTV5TKW8EI4DRB99U4E79NKOA","","null","<img src=""img/animal3.png"" style=""width:200px; border:14px solid green;"">","null","","","","","",""
"","image-keyboard-response","42","45893","0.0-42.0","326O153BMJK441XZIYRSPOBYQFDED2","A1FP3SH704X01V","3OYHVNTV5TKW8EI4DRB99U4E79NKOA","","425.09999999403954","img/animal4.png","75","425.7000000178814","2","1","2","1,0.7,0,0,1,0.7,0.7,0,1",""
"","html-keyboard-response","43","46194","0.0-43.0","326O153BMJK441XZIYRSPOBYQFDED2","A1FP3SH704X01V","3OYHVNTV5TKW8EI4DRB99U4E79NKOA","","null","<img src=""img/animal4.png"" style=""width:200px; border:14px solid green;"">","null","","","","","",""
"","image-keyboard-response","44","46661","0.0-44.0","326O153BMJK441XZIYRSPOBYQFDED2","A1FP3SH704X01V","3OYHVNTV5TKW8EI4DRB99U4E79NKOA","","466.30000001192093","img/animal3.png","76","466.80000001192093","3","1","3","1,0.7,0,0,1,0.7,0.7,0,1",""
"","html-keyboard-response","45","46964","0.0-45.0","326O153BMJK441XZIYRSPOBYQFDED2","A1FP3SH704X01V","3OYHVNTV5TKW8EI4DRB99U4E79NKOA","","null","<img src=""img/animal3.png"" style=""width:200px; border:14px solid green;"">","null","","","","","",""
"","image-keyboard-response","46","47555","0.0-46.0","326O153BMJK441XZIYRSPOBYQFDED2","A1FP3SH704X01V","3OYHVNTV5TKW8EI4DRB99U4E79NKOA","","590.3999999761581","img/animal4.png","75","591","2","1","2","1,0.7,0,0,1,0.7,0.7,0,1",""
"","html-keyboard-response","47","47856","0.0-47.0","326O153BMJK441XZIYRSPOBYQFDED2","A1FP3SH704X01V","3OYHVNTV5TKW8EI4DRB99U4E79NKOA","","null","<img src=""img/animal4.png"" style=""width:200px; border:14px solid green;"">","null","","","","","",""
"","image-keyboard-response","48","48480","0.0-48.0","326O153BMJK441XZIYRSPOBYQFDED2","A1FP3SH704X01V","3OYHVNTV5TKW8EI4DRB99U4E79NKOA","","622.8000000119209","img/animal6.png","74","623.5","1","1","1","1,0.7,0,0,1,0.7,0.7,0,1",""
"","html-keyboard-response","49","48781","0.0-49.0","326O153BMJK441XZIYRSPOBYQFDED2","A1FP3SH704X01V","3OYHVNTV5TKW8EI4DRB99U4E79NKOA","","null","<img src=""img/animal6.png"" style=""width:200px; border:14px solid green;"">","null","","","","","",""
"","image-keyboard-response","50","49304","0.0-50.0","326O153BMJK441XZIYRSPOBYQFDED2","A1FP3SH704X01V","3OYHVNTV5TKW8EI4DRB99U4E79NKOA","","522","img/animal4.png","75","522.6999999880791","2","1","2","1,0.7,0,0,1,0.7,0.7,0,1",""
"","html-keyboard-response","51","49605","0.0-51.0","326O153BMJK441XZIYRSPOBYQFDED2","A1FP3SH704X01V","3OYHVNTV5TKW8EI4DRB99U4E79NKOA","","null","<img src=""img/animal4.png"" style=""width:200px; border:14px solid green;"">","null","","","","","",""
"","image-keyboard-response","52","49936","0.0-52.0","326O153BMJK441XZIYRSPOBYQFDED2","A1FP3SH704X01V","3OYHVNTV5TKW8EI4DRB99U4E79NKOA","","330.2999999821186","img/animal4.png","75","330.80000001192093","2","1","2","1,0.7,0,0,1,0.7,0.7,0,1",""
"","html-keyboard-response","53","50237","0.0-53.0","326O153BMJK441XZIYRSPOBYQFDED2","A1FP3SH704X01V","3OYHVNTV5TKW8EI4DRB99U4E79NKOA","","null","<img src=""img/animal4.png"" style=""width:200px; border:14px solid green;"">","null","","","","","",""
"","image-keyboard-response","54","50532","0.0-54.0","326O153BMJK441XZIYRSPOBYQFDED2","A1FP3SH704X01V","3OYHVNTV5TKW8EI4DRB99U4E79NKOA","","294.19999998807907","img/animal4.png","75","294.60000002384186","2","1","2","1,0.7,0,0,1,0.7,0.7,0,1",""
"","html-keyboard-response","55","50834","0.0-55.0","326O153BMJK441XZIYRSPOBYQFDED2","A1FP3SH704X01V","3OYHVNTV5TKW8EI4DRB99U4E79NKOA","","null","<img src=""img/animal4.png"" style=""width:200px; border:14px solid green;"">","null","","","","","",""
"","image-keyboard-response","56","51697","0.0-56.0","326O153BMJK441XZIYRSPOBYQFDED2","A1FP3SH704X01V","3OYHVNTV5TKW8EI4DRB99U4E79NKOA","","862.4000000059605","img/animal6.png","74","862.9000000059605","1","1","1","1,0.7,0,0,1,0.7,0.7,0,1",""
"","html-keyboard-response","57","51998","0.0-57.0","326O153BMJK441XZIYRSPOBYQFDED2","A1FP3SH704X01V","3OYHVNTV5TKW8EI4DRB99U4E79NKOA","","null","<img src=""img/animal6.png"" style=""width:200px; border:14px solid green;"">","null","","","","","",""
"","image-keyboard-response","58","52387","0.0-58.0","326O153BMJK441XZIYRSPOBYQFDED2","A1FP3SH704X01V","3OYHVNTV5TKW8EI4DRB99U4E79NKOA","","387.90000000596046","img/animal6.png","74","388.59999999403954","1","1","1","1,0.7,0,0,1,0.7,0.7,0,1",""
"","html-keyboard-response","59","52688","0.0-59.0","326O153BMJK441XZIYRSPOBYQFDED2","A1FP3SH704X01V","3OYHVNTV5TKW8EI4DRB99U4E79NKOA","","null","<img src=""img/animal6.png"" style=""width:200px; border:14px solid green;"">","null","","","","","",""
"","image-keyboard-response","60","53154","0.0-60.0","326O153BMJK441XZIYRSPOBYQFDED2","A1FP3SH704X01V","3OYHVNTV5TKW8EI4DRB99U4E79NKOA","","464.5","img/animal3.png","76","465","3","1","3","1,0.7,0,0,1,0.7,0.7,0,1",""
"","html-keyboard-response","61","53456","0.0-61.0","326O153BMJK441XZIYRSPOBYQFDED2","A1FP3SH704X01V","3OYHVNTV5TKW8EI4DRB99U4E79NKOA","","null","<img src=""img/animal3.png"" style=""width:200px; border:14px solid green;"">","null","","","","","",""
"","image-keyboard-response","62","53761","0.0-62.0","326O153BMJK441XZIYRSPOBYQFDED2","A1FP3SH704X01V","3OYHVNTV5TKW8EI4DRB99U4E79NKOA","","304.40000000596046","img/animal3.png","76","304.90000000596046","3","1","3","1,0.7,0,0,1,0.7,0.7,0,1",""
"","html-keyboard-response","63","54062","0.0-63.0","326O153BMJK441XZIYRSPOBYQFDED2","A1FP3SH704X01V","3OYHVNTV5TKW8EI4DRB99U4E79NKOA","","null","<img src=""img/animal3.png"" style=""width:200px; border:14px solid green;"">","null","","","","","",""
"","image-keyboard-response","64","54366","0.0-64.0","326O153BMJK441XZIYRSPOBYQFDED2","A1FP3SH704X01V","3OYHVNTV5TKW8EI4DRB99U4E79NKOA","","303.59999999403954","img/animal3.png","76","304.2000000178814","3","1","3","1,0.7,0,0,1,0.7,0.7,0,1",""
"","html-keyboard-response","65","54668","0.0-65.0","326O153BMJK441XZIYRSPOBYQFDED2","A1FP3SH704X01V","3OYHVNTV5TKW8EI4DRB99U4E79NKOA","","null","<img src=""img/animal3.png"" style=""width:200px; border:14px solid green;"">","null","","","","","",""
"","image-keyboard-response","66","55155","0.0-66.0","326O153BMJK441XZIYRSPOBYQFDED2","A1FP3SH704X01V","3OYHVNTV5TKW8EI4DRB99U4E79NKOA","","486.69999998807907","img/animal4.png","75","487.09999999403954","2","1","2","1,0.7,0,0,1,0.7,0.7,0,1",""
"","html-keyboard-response","67","55457","0.0-67.0","326O153BMJK441XZIYRSPOBYQFDED2","A1FP3SH704X01V","3OYHVNTV5TKW8EI4DRB99U4E79NKOA","","null","<img src=""img/animal4.png"" style=""width:200px; border:14px solid green;"">","null","","","","","",""
"","image-keyboard-response","68","56104","0.0-68.0","326O153BMJK441XZIYRSPOBYQFDED2","A1FP3SH704X01V","3OYHVNTV5TKW8EI4DRB99U4E79NKOA","","646.5","img/animal6.png","74","647","1","1","1","1,0.7,0,0,1,0.7,0.7,0,1",""
"","html-keyboard-response","69","56406","0.0-69.0","326O153BMJK441XZIYRSPOBYQFDED2","A1FP3SH704X01V","3OYHVNTV5TKW8EI4DRB99U4E79NKOA","","null","<img src=""img/animal6.png"" style=""width:200px; border:14px solid green;"">","null","","","","","",""
"","image-keyboard-response","70","56951","0.0-70.0","326O153BMJK441XZIYRSPOBYQFDED2","A1FP3SH704X01V","3OYHVNTV5TKW8EI4DRB99U4E79NKOA","","543.8000000119209","img/animal3.png","76","544.3000000119209","3","1","3","1,0.7,0,0,1,0.7,0.7,0,1",""
"","html-keyboard-response","71","57252","0.0-71.0","326O153BMJK441XZIYRSPOBYQFDED2","A1FP3SH704X01V","3OYHVNTV5TKW8EI4DRB99U4E79NKOA","","null","<img src=""img/animal3.png"" style=""width:200px; border:14px solid green;"">","null","","","","","",""
"","image-keyboard-response","72","57962","0.0-72.0","326O153BMJK441XZIYRSPOBYQFDED2","A1FP3SH704X01V","3OYHVNTV5TKW8EI4DRB99U4E79NKOA","","709.5","img/animal6.png","74","710.1999999880791","1","1","1","1,0.7,0,0,1,0.7,0.7,0,1",""
"","html-keyboard-response","73","58264","0.0-73.0","326O153BMJK441XZIYRSPOBYQFDED2","A1FP3SH704X01V","3OYHVNTV5TKW8EI4DRB99U4E79NKOA","","null","<img src=""img/animal6.png"" style=""width:200px; border:14px solid green;"">","null","","","","","",""
"","image-keyboard-response","74","58875","0.0-74.0","326O153BMJK441XZIYRSPOBYQFDED2","A1FP3SH704X01V","3OYHVNTV5TKW8EI4DRB99U4E79NKOA","","610.5","img/animal3.png","76","610.8999999761581","3","1","3","1,0.7,0,0,1,0.7,0.7,0,1",""
"","html-keyboard-response","75","59177","0.0-75.0","326O153BMJK441XZIYRSPOBYQFDED2","A1FP3SH704X01V","3OYHVNTV5TKW8EI4DRB99U4E79NKOA","","null","<img src=""img/animal3.png"" style=""width:200px; border:14px solid green;"">","null","","","","","",""
"","image-keyboard-response","76","59709","0.0-76.0","326O153BMJK441XZIYRSPOBYQFDED2","A1FP3SH704X01V","3OYHVNTV5TKW8EI4DRB99U4E79NKOA","","531.5999999940395","img/animal6.png","74","532.2000000178814","1","1","1","1,0.7,0,0,1,0.7,0.7,0,1",""
"","html-keyboard-response","77","60010","0.0-77.0","326O153BMJK441XZIYRSPOBYQFDED2","A1FP3SH704X01V","3OYHVNTV5TKW8EI4DRB99U4E79NKOA","","null","<img src=""img/animal6.png"" style=""width:200px; border:14px solid green;"">","null","","","","","",""
"","image-keyboard-response","78","60350","0.0-78.0","326O153BMJK441XZIYRSPOBYQFDED2","A1FP3SH704X01V","3OYHVNTV5TKW8EI4DRB99U4E79NKOA","","338.69999998807907","img/animal6.png","74","339.30000001192093","1","1","1","1,0.7,0,0,1,0.7,0.7,0,1",""
"","html-keyboard-response","79","60659","0.0-79.0","326O153BMJK441XZIYRSPOBYQFDED2","A1FP3SH704X01V","3OYHVNTV5TKW8EI4DRB99U4E79NKOA","","null","<img src=""img/animal6.png"" style=""width:200px; border:14px solid green;"">","null","","","","","",""
"","image-keyboard-response","80","60938","0.0-80.0","326O153BMJK441XZIYRSPOBYQFDED2","A1FP3SH704X01V","3OYHVNTV5TKW8EI4DRB99U4E79NKOA","","278.7000000178814","img/animal6.png","74","279.19999998807907","1","1","1","1,0.7,0,0,1,0.7,0.7,0,1",""
"","html-keyboard-response","81","61240","0.0-81.0","326O153BMJK441XZIYRSPOBYQFDED2","A1FP3SH704X01V","3OYHVNTV5TKW8EI4DRB99U4E79NKOA","","null","<img src=""img/animal6.png"" style=""width:200px; border:14px solid green;"">","null","","","","","",""
"","image-keyboard-response","82","61716","0.0-82.0","326O153BMJK441XZIYRSPOBYQFDED2","A1FP3SH704X01V","3OYHVNTV5TKW8EI4DRB99U4E79NKOA","","475.5","img/animal4.png","75","476","2","1","2","1,0.7,0,0,1,0.7,0.7,0,1",""
"","html-keyboard-response","83","62018","0.0-83.0","326O153BMJK441XZIYRSPOBYQFDED2","A1FP3SH704X01V","3OYHVNTV5TKW8EI4DRB99U4E79NKOA","","null","<img src=""img/animal4.png"" style=""width:200px; border:14px solid green;"">","null","","","","","",""
"","image-keyboard-response","84","62450","0.0-84.0","326O153BMJK441XZIYRSPOBYQFDED2","A1FP3SH704X01V","3OYHVNTV5TKW8EI4DRB99U4E79NKOA","","431.09999999403954","img/animal3.png","75","431.80000001192093","2","0","3","1,0.7,0,0,1,0.7,0.7,0,1",""
"","html-keyboard-response","85","62751","0.0-85.0","326O153BMJK441XZIYRSPOBYQFDED2","A1FP3SH704X01V","3OYHVNTV5TKW8EI4DRB99U4E79NKOA","","null","<img src=""img/animal3.png"" style=""width:200px;border:14px solid red;"">","null","","","","","",""
"","image-keyboard-response","86","63409","0.0-86.0","326O153BMJK441XZIYRSPOBYQFDED2","A1FP3SH704X01V","3OYHVNTV5TKW8EI4DRB99U4E79NKOA","","657.3000000119209","img/animal6.png","74","658","1","1","1","1,0.7,0,0,1,0.7,0.7,0,1",""
"","html-keyboard-response","87","63713","0.0-87.0","326O153BMJK441XZIYRSPOBYQFDED2","A1FP3SH704X01V","3OYHVNTV5TKW8EI4DRB99U4E79NKOA","","null","<img src=""img/animal6.png"" style=""width:200px; border:14px solid green;"">","null","","","","","",""
"","image-keyboard-response","88","64327","0.0-88.0","326O153BMJK441XZIYRSPOBYQFDED2","A1FP3SH704X01V","3OYHVNTV5TKW8EI4DRB99U4E79NKOA","","613.5","img/animal4.png","75","614","2","1","2","1,0.7,0,0,1,0.7,0.7,0,1",""
"","html-keyboard-response","89","64628","0.0-89.0","326O153BMJK441XZIYRSPOBYQFDED2","A1FP3SH704X01V","3OYHVNTV5TKW8EI4DRB99U4E79NKOA","","null","<img src=""img/animal4.png"" style=""width:200px; border:14px solid green;"">","null","","","","","",""
"","image-keyboard-response","90","65301","0.0-90.0","326O153BMJK441XZIYRSPOBYQFDED2","A1FP3SH704X01V","3OYHVNTV5TKW8EI4DRB99U4E79NKOA","","671.9000000059605","img/animal6.png","74","672.3999999761581","1","1","1","1,0.7,0,0,1,0.7,0.7,0,1",""
"","html-keyboard-response","91","65603","0.0-91.0","326O153BMJK441XZIYRSPOBYQFDED2","A1FP3SH704X01V","3OYHVNTV5TKW8EI4DRB99U4E79NKOA","","null","<img src=""img/animal6.png"" style=""width:200px; border:14px solid green;"">","null","","","","","",""
"","image-keyboard-response","92","66182","0.0-92.0","326O153BMJK441XZIYRSPOBYQFDED2","A1FP3SH704X01V","3OYHVNTV5TKW8EI4DRB99U4E79NKOA","","578.7999999821186","img/animal4.png","75","579.3000000119209","2","1","2","1,0.7,0,0,1,0.7,0.7,0,1",""
"","html-keyboard-response","93","66484","0.0-93.0","326O153BMJK441XZIYRSPOBYQFDED2","A1FP3SH704X01V","3OYHVNTV5TKW8EI4DRB99U4E79NKOA","","null","<img src=""img/animal4.png"" style=""width:200px; border:14px solid green;"">","null","","","","","",""
"","image-keyboard-response","94","68777","0.0-94.0","326O153BMJK441XZIYRSPOBYQFDED2","A1FP3SH704X01V","3OYHVNTV5TKW8EI4DRB99U4E79NKOA","","2292.300000011921","img/animal6.png","74","2292.800000011921","1","1","1","1,0.7,0,0,1,0.7,0.7,0,1",""
"","html-keyboard-response","95","69078","0.0-95.0","326O153BMJK441XZIYRSPOBYQFDED2","A1FP3SH704X01V","3OYHVNTV5TKW8EI4DRB99U4E79NKOA","","null","<img src=""img/animal6.png"" style=""width:200px; border:14px solid green;"">","null","","","","","",""
"","image-keyboard-response","96","69550","0.0-96.0","326O153BMJK441XZIYRSPOBYQFDED2","A1FP3SH704X01V","3OYHVNTV5TKW8EI4DRB99U4E79NKOA","","471.69999998807907","img/animal3.png","76","472.09999999403954","3","1","3","1,0.7,0,0,1,0.7,0.7,0,1",""
"","html-keyboard-response","97","69853","0.0-97.0","326O153BMJK441XZIYRSPOBYQFDED2","A1FP3SH704X01V","3OYHVNTV5TKW8EI4DRB99U4E79NKOA","","null","<img src=""img/animal3.png"" style=""width:200px; border:14px solid green;"">","null","","","","","",""
"","image-keyboard-response","98","70371","0.0-98.0","326O153BMJK441XZIYRSPOBYQFDED2","A1FP3SH704X01V","3OYHVNTV5TKW8EI4DRB99U4E79NKOA","","517","img/animal4.png","75","517.4000000059605","2","1","2","1,0.7,0,0,1,0.7,0.7,0,1",""
"","html-keyboard-response","99","70672","0.0-99.0","326O153BMJK441XZIYRSPOBYQFDED2","A1FP3SH704X01V","3OYHVNTV5TKW8EI4DRB99U4E79NKOA","","null","<img src=""img/animal4.png"" style=""width:200px; border:14px solid green;"">","null","","","","","",""
"","image-keyboard-response","100","71048","0.0-100.0","326O153BMJK441XZIYRSPOBYQFDED2","A1FP3SH704X01V","3OYHVNTV5TKW8EI4DRB99U4E79NKOA","","375.40000000596046","img/animal4.png","75","375.7999999821186","2","1","2","1,0.7,0,0,1,0.7,0.7,0,1",""
"","html-keyboard-response","101","71350","0.0-101.0","326O153BMJK441XZIYRSPOBYQFDED2","A1FP3SH704X01V","3OYHVNTV5TKW8EI4DRB99U4E79NKOA","","null","<img src=""img/animal4.png"" style=""width:200px; border:14px solid green;"">","null","","","","","",""
"","image-keyboard-response","102","71886","0.0-102.0","326O153BMJK441XZIYRSPOBYQFDED2","A1FP3SH704X01V","3OYHVNTV5TKW8EI4DRB99U4E79NKOA","","536","img/animal3.png","76","536.6000000238419","3","1","3","1,0.7,0,0,1,0.7,0.7,0,1",""
"","html-keyboard-response","103","72188","0.0-103.0","326O153BMJK441XZIYRSPOBYQFDED2","A1FP3SH704X01V","3OYHVNTV5TKW8EI4DRB99U4E79NKOA","","null","<img src=""img/animal3.png"" style=""width:200px; border:14px solid green;"">","null","","","","","",""
"","image-keyboard-response","104","72560","0.0-104.0","326O153BMJK441XZIYRSPOBYQFDED2","A1FP3SH704X01V","3OYHVNTV5TKW8EI4DRB99U4E79NKOA","","370.60000002384186","img/animal3.png","76","371.19999998807907","3","1","3","1,0.7,0,0,1,0.7,0.7,0,1",""
"","html-keyboard-response","105","72861","0.0-105.0","326O153BMJK441XZIYRSPOBYQFDED2","A1FP3SH704X01V","3OYHVNTV5TKW8EI4DRB99U4E79NKOA","","null","<img src=""img/animal3.png"" style=""width:200px; border:14px solid green;"">","null","","","","","",""
"","image-keyboard-response","106","73333","0.0-106.0","326O153BMJK441XZIYRSPOBYQFDED2","A1FP3SH704X01V","3OYHVNTV5TKW8EI4DRB99U4E79NKOA","","471.40000000596046","img/animal4.png","75","471.7999999821186","2","1","2","1,0.7,0,0,1,0.7,0.7,0,1",""
"","html-keyboard-response","107","73636","0.0-107.0","326O153BMJK441XZIYRSPOBYQFDED2","A1FP3SH704X01V","3OYHVNTV5TKW8EI4DRB99U4E79NKOA","","null","<img src=""img/animal4.png"" style=""width:200px; border:14px solid green;"">","null","","","","","",""
"","image-keyboard-response","108","73949","0.0-108.0","326O153BMJK441XZIYRSPOBYQFDED2","A1FP3SH704X01V","3OYHVNTV5TKW8EI4DRB99U4E79NKOA","","311.89999997615814","img/animal4.png","75","312.5","2","1","2","1,0.7,0,0,1,0.7,0.7,0,1",""
"","html-keyboard-response","109","74251","0.0-109.0","326O153BMJK441XZIYRSPOBYQFDED2","A1FP3SH704X01V","3OYHVNTV5TKW8EI4DRB99U4E79NKOA","","null","<img src=""img/animal4.png"" style=""width:200px; border:14px solid green;"">","null","","","","","",""
"","image-keyboard-response","110","74606","0.0-110.0","326O153BMJK441XZIYRSPOBYQFDED2","A1FP3SH704X01V","3OYHVNTV5TKW8EI4DRB99U4E79NKOA","","354.80000001192093","img/animal4.png","75","355.2999999821186","2","1","2","1,0.7,0,0,1,0.7,0.7,0,1",""
"","html-keyboard-response","111","74907","0.0-111.0","326O153BMJK441XZIYRSPOBYQFDED2","A1FP3SH704X01V","3OYHVNTV5TKW8EI4DRB99U4E79NKOA","","null","<img src=""img/animal4.png"" style=""width:200px; border:14px solid green;"">","null","","","","","",""
"","image-keyboard-response","112","75537","0.0-112.0","326O153BMJK441XZIYRSPOBYQFDED2","A1FP3SH704X01V","3OYHVNTV5TKW8EI4DRB99U4E79NKOA","","628.8000000119209","img/animal6.png","74","629.2999999821186","1","1","1","1,0.7,0,0,1,0.7,0.7,0,1",""
"","html-keyboard-response","113","75838","0.0-113.0","326O153BMJK441XZIYRSPOBYQFDED2","A1FP3SH704X01V","3OYHVNTV5TKW8EI4DRB99U4E79NKOA","","null","<img src=""img/animal6.png"" style=""width:200px; border:14px solid green;"">","null","","","","","",""
"","image-keyboard-response","114","76154","0.0-114.0","326O153BMJK441XZIYRSPOBYQFDED2","A1FP3SH704X01V","3OYHVNTV5TKW8EI4DRB99U4E79NKOA","","315.5","img/animal6.png","74","316.10000002384186","1","1","1","1,0.7,0,0,1,0.7,0.7,0,1",""
"","html-keyboard-response","115","76456","0.0-115.0","326O153BMJK441XZIYRSPOBYQFDED2","A1FP3SH704X01V","3OYHVNTV5TKW8EI4DRB99U4E79NKOA","","null","<img src=""img/animal6.png"" style=""width:200px; border:14px solid green;"">","null","","","","","",""
"","image-keyboard-response","116","76992","0.0-116.0","326O153BMJK441XZIYRSPOBYQFDED2","A1FP3SH704X01V","3OYHVNTV5TKW8EI4DRB99U4E79NKOA","","534.6999999880791","img/animal4.png","75","535.3000000119209","2","1","2","1,0.7,0,0,1,0.7,0.7,0,1",""
"","html-keyboard-response","117","77293","0.0-117.0","326O153BMJK441XZIYRSPOBYQFDED2","A1FP3SH704X01V","3OYHVNTV5TKW8EI4DRB99U4E79NKOA","","null","<img src=""img/animal4.png"" style=""width:200px; border:14px solid green;"">","null","","","","","",""
"","image-keyboard-response","118","77791","0.0-118.0","326O153BMJK441XZIYRSPOBYQFDED2","A1FP3SH704X01V","3OYHVNTV5TKW8EI4DRB99U4E79NKOA","","497.5","img/animal3.png","76","498","3","1","3","1,0.7,0,0,1,0.7,0.7,0,1",""
"","html-keyboard-response","119","78092","0.0-119.0","326O153BMJK441XZIYRSPOBYQFDED2","A1FP3SH704X01V","3OYHVNTV5TKW8EI4DRB99U4E79NKOA","","null","<img src=""img/animal3.png"" style=""width:200px; border:14px solid green;"">","null","","","","","",""
"","image-keyboard-response","120","78446","0.0-120.0","326O153BMJK441XZIYRSPOBYQFDED2","A1FP3SH704X01V","3OYHVNTV5TKW8EI4DRB99U4E79NKOA","","353.59999999403954","img/animal3.png","76","354.09999999403954","3","1","3","1,0.7,0,0,1,0.7,0.7,0,1",""
"","html-keyboard-response","121","78749","0.0-121.0","326O153BMJK441XZIYRSPOBYQFDED2","A1FP3SH704X01V","3OYHVNTV5TKW8EI4DRB99U4E79NKOA","","null","<img src=""img/animal3.png"" style=""width:200px; border:14px solid green;"">","null","","","","","",""
"","image-keyboard-response","122","79046","0.0-122.0","326O153BMJK441XZIYRSPOBYQFDED2","A1FP3SH704X01V","3OYHVNTV5TKW8EI4DRB99U4E79NKOA","","296.19999998807907","img/animal3.png","76","296.7000000178814","3","1","3","1,0.7,0,0,1,0.7,0.7,0,1",""
"","html-keyboard-response","123","79348","0.0-123.0","326O153BMJK441XZIYRSPOBYQFDED2","A1FP3SH704X01V","3OYHVNTV5TKW8EI4DRB99U4E79NKOA","","null","<img src=""img/animal3.png"" style=""width:200px; border:14px solid green;"">","null","","","","","",""
"","image-keyboard-response","124","79857","0.0-124.0","326O153BMJK441XZIYRSPOBYQFDED2","A1FP3SH704X01V","3OYHVNTV5TKW8EI4DRB99U4E79NKOA","","508.80000001192093","img/animal4.png","75","509.39999997615814","2","1","2","1,0.7,0,0,1,0.7,0.7,0,1",""
"","html-keyboard-response","125","80159","0.0-125.0","326O153BMJK441XZIYRSPOBYQFDED2","A1FP3SH704X01V","3OYHVNTV5TKW8EI4DRB99U4E79NKOA","","null","<img src=""img/animal4.png"" style=""width:200px; border:14px solid green;"">","null","","","","","",""
"","image-keyboard-response","126","80632","0.0-126.0","326O153BMJK441XZIYRSPOBYQFDED2","A1FP3SH704X01V","3OYHVNTV5TKW8EI4DRB99U4E79NKOA","","472.09999999403954","img/animal3.png","75","472.5","2","0","3","1,0.7,0,0,1,0.7,0.7,0,1",""
"","html-keyboard-response","127","80934","0.0-127.0","326O153BMJK441XZIYRSPOBYQFDED2","A1FP3SH704X01V","3OYHVNTV5TKW8EI4DRB99U4E79NKOA","","null","<img src=""img/animal3.png"" style=""width:200px;border:14px solid red;"">","null","","","","","",""
"","image-keyboard-response","128","81375","0.0-128.0","326O153BMJK441XZIYRSPOBYQFDED2","A1FP3SH704X01V","3OYHVNTV5TKW8EI4DRB99U4E79NKOA","","439.80000001192093","img/animal4.png","75","440.2999999821186","2","1","2","1,0.7,0,0,1,0.7,0.7,0,1",""
"","html-keyboard-response","129","81677","0.0-129.0","326O153BMJK441XZIYRSPOBYQFDED2","A1FP3SH704X01V","3OYHVNTV5TKW8EI4DRB99U4E79NKOA","","null","<img src=""img/animal4.png"" style=""width:200px; border:14px solid green;"">","null","","","","","",""
"","image-keyboard-response","130","82255","0.0-130.0","326O153BMJK441XZIYRSPOBYQFDED2","A1FP3SH704X01V","3OYHVNTV5TKW8EI4DRB99U4E79NKOA","","578.0999999940395","img/animal6.png","74","578.8000000119209","1","1","1","1,0.7,0,0,1,0.7,0.7,0,1",""
"","html-keyboard-response","131","82558","0.0-131.0","326O153BMJK441XZIYRSPOBYQFDED2","A1FP3SH704X01V","3OYHVNTV5TKW8EI4DRB99U4E79NKOA","","null","<img src=""img/animal6.png"" style=""width:200px; border:14px solid green;"">","null","","","","","",""
"","image-keyboard-response","132","82892","0.0-132.0","326O153BMJK441XZIYRSPOBYQFDED2","A1FP3SH704X01V","3OYHVNTV5TKW8EI4DRB99U4E79NKOA","","333.30000001192093","img/animal6.png","74","333.90000000596046","1","1","1","1,0.7,0,0,1,0.7,0.7,0,1",""
"","html-keyboard-response","133","83194","0.0-133.0","326O153BMJK441XZIYRSPOBYQFDED2","A1FP3SH704X01V","3OYHVNTV5TKW8EI4DRB99U4E79NKOA","","null","<img src=""img/animal6.png"" style=""width:200px; border:14px solid green;"">","null","","","","","",""
"","image-keyboard-response","134","83512","0.0-134.0","326O153BMJK441XZIYRSPOBYQFDED2","A1FP3SH704X01V","3OYHVNTV5TKW8EI4DRB99U4E79NKOA","","317.09999999403954","img/animal6.png","74","317.69999998807907","1","1","1","1,0.7,0,0,1,0.7,0.7,0,1",""
"","html-keyboard-response","135","83828","0.0-135.0","326O153BMJK441XZIYRSPOBYQFDED2","A1FP3SH704X01V","3OYHVNTV5TKW8EI4DRB99U4E79NKOA","","null","<img src=""img/animal6.png"" style=""width:200px; border:14px solid green;"">","null","","","","","",""
"","image-keyboard-response","136","84098","0.0-136.0","326O153BMJK441XZIYRSPOBYQFDED2","A1FP3SH704X01V","3OYHVNTV5TKW8EI4DRB99U4E79NKOA","","269.2999999821186","img/animal6.png","74","269.7999999821186","1","1","1","1,0.7,0,0,1,0.7,0.7,0,1",""
"","html-keyboard-response","137","84407","0.0-137.0","326O153BMJK441XZIYRSPOBYQFDED2","A1FP3SH704X01V","3OYHVNTV5TKW8EI4DRB99U4E79NKOA","","null","<img src=""img/animal6.png"" style=""width:200px; border:14px solid green;"">","null","","","","","",""
"","image-keyboard-response","138","85045","0.0-138.0","326O153BMJK441XZIYRSPOBYQFDED2","A1FP3SH704X01V","3OYHVNTV5TKW8EI4DRB99U4E79NKOA","","637.0999999940395","img/animal3.png","76","637.5999999940395","3","1","3","1,0.7,0,0,1,0.7,0.7,0,1",""
"","html-keyboard-response","139","85347","0.0-139.0","326O153BMJK441XZIYRSPOBYQFDED2","A1FP3SH704X01V","3OYHVNTV5TKW8EI4DRB99U4E79NKOA","","null","<img src=""img/animal3.png"" style=""width:200px; border:14px solid green;"">","null","","","","","",""
"","image-keyboard-response","140","86080","0.0-140.0","326O153BMJK441XZIYRSPOBYQFDED2","A1FP3SH704X01V","3OYHVNTV5TKW8EI4DRB99U4E79NKOA","","732.6999999880791","img/animal6.png","74","733.0999999940395","1","1","1","1,0.7,0,0,1,0.7,0.7,0,1",""
"","html-keyboard-response","141","86393","0.0-141.0","326O153BMJK441XZIYRSPOBYQFDED2","A1FP3SH704X01V","3OYHVNTV5TKW8EI4DRB99U4E79NKOA","","null","<img src=""img/animal6.png"" style=""width:200px; border:14px solid green;"">","null","","","","","",""
"","image-keyboard-response","142","86983","0.0-142.0","326O153BMJK441XZIYRSPOBYQFDED2","A1FP3SH704X01V","3OYHVNTV5TKW8EI4DRB99U4E79NKOA","","589.3999999761581","img/animal4.png","75","589.5999999940395","2","1","2","1,0.7,0,0,1,0.7,0.7,0,1",""
"","html-keyboard-response","143","87284","0.0-143.0","326O153BMJK441XZIYRSPOBYQFDED2","A1FP3SH704X01V","3OYHVNTV5TKW8EI4DRB99U4E79NKOA","","null","<img src=""img/animal4.png"" style=""width:200px; border:14px solid green;"">","null","","","","","",""
"","image-keyboard-response","144","87634","0.0-144.0","326O153BMJK441XZIYRSPOBYQFDED2","A1FP3SH704X01V","3OYHVNTV5TKW8EI4DRB99U4E79NKOA","","350.2999999821186","img/animal4.png","75","350.69999998807907","2","1","2","1,0.7,0,0,1,0.7,0.7,0,1",""
"","html-keyboard-response","145","87936","0.0-145.0","326O153BMJK441XZIYRSPOBYQFDED2","A1FP3SH704X01V","3OYHVNTV5TKW8EI4DRB99U4E79NKOA","","null","<img src=""img/animal4.png"" style=""width:200px; border:14px solid green;"">","null","","","","","",""
"","image-keyboard-response","146","88368","0.0-146.0","326O153BMJK441XZIYRSPOBYQFDED2","A1FP3SH704X01V","3OYHVNTV5TKW8EI4DRB99U4E79NKOA","","431.40000000596046","img/animal3.png","76","431.90000000596046","3","1","3","1,0.7,0,0,1,0.7,0.7,0,1",""
"","html-keyboard-response","147","88669","0.0-147.0","326O153BMJK441XZIYRSPOBYQFDED2","A1FP3SH704X01V","3OYHVNTV5TKW8EI4DRB99U4E79NKOA","","null","<img src=""img/animal3.png"" style=""width:200px; border:14px solid green;"">","null","","","","","",""
"","image-keyboard-response","148","89420","0.0-148.0","326O153BMJK441XZIYRSPOBYQFDED2","A1FP3SH704X01V","3OYHVNTV5TKW8EI4DRB99U4E79NKOA","","749.7000000178814","img/animal3.png","76","750.2000000178814","3","1","3","1,0.7,0,0,1,0.7,0.7,0,1",""
"","html-keyboard-response","149","89722","0.0-149.0","326O153BMJK441XZIYRSPOBYQFDED2","A1FP3SH704X01V","3OYHVNTV5TKW8EI4DRB99U4E79NKOA","","null","<img src=""img/animal3.png"" style=""width:200px; border:14px solid green;"">","null","","","","","",""
"","image-keyboard-response","150","90134","0.0-150.0","326O153BMJK441XZIYRSPOBYQFDED2","A1FP3SH704X01V","3OYHVNTV5TKW8EI4DRB99U4E79NKOA","","411.80000001192093","img/animal4.png","75","412.30000001192093","2","1","2","1,0.7,0,0,1,0.7,0.7,0,1",""
"","html-keyboard-response","151","90436","0.0-151.0","326O153BMJK441XZIYRSPOBYQFDED2","A1FP3SH704X01V","3OYHVNTV5TKW8EI4DRB99U4E79NKOA","","null","<img src=""img/animal4.png"" style=""width:200px; border:14px solid green;"">","null","","","","","",""
"","image-keyboard-response","152","90736","0.0-152.0","326O153BMJK441XZIYRSPOBYQFDED2","A1FP3SH704X01V","3OYHVNTV5TKW8EI4DRB99U4E79NKOA","","298.69999998807907","img/animal4.png","75","299.30000001192093","2","1","2","1,0.7,0,0,1,0.7,0.7,0,1",""
"","html-keyboard-response","153","91038","0.0-153.0","326O153BMJK441XZIYRSPOBYQFDED2","A1FP3SH704X01V","3OYHVNTV5TKW8EI4DRB99U4E79NKOA","","null","<img src=""img/animal4.png"" style=""width:200px; border:14px solid green;"">","null","","","","","",""
"","image-keyboard-response","154","91508","0.0-154.0","326O153BMJK441XZIYRSPOBYQFDED2","A1FP3SH704X01V","3OYHVNTV5TKW8EI4DRB99U4E79NKOA","","469.7999999821186","img/animal6.png","74","470.2000000178814","1","1","1","1,0.7,0,0,1,0.7,0.7,0,1",""
"","html-keyboard-response","155","91809","0.0-155.0","326O153BMJK441XZIYRSPOBYQFDED2","A1FP3SH704X01V","3OYHVNTV5TKW8EI4DRB99U4E79NKOA","","null","<img src=""img/animal6.png"" style=""width:200px; border:14px solid green;"">","null","","","","","",""
"","image-keyboard-response","156","92241","0.0-156.0","326O153BMJK441XZIYRSPOBYQFDED2","A1FP3SH704X01V","3OYHVNTV5TKW8EI4DRB99U4E79NKOA","","430.5","img/animal4.png","75","431.2999999821186","2","1","2","1,0.7,0,0,1,0.7,0.7,0,1",""
"","html-keyboard-response","157","92542","0.0-157.0","326O153BMJK441XZIYRSPOBYQFDED2","A1FP3SH704X01V","3OYHVNTV5TKW8EI4DRB99U4E79NKOA","","null","<img src=""img/animal4.png"" style=""width:200px; border:14px solid green;"">","null","","","","","",""
"","image-keyboard-response","158","92973","0.0-158.0","326O153BMJK441XZIYRSPOBYQFDED2","A1FP3SH704X01V","3OYHVNTV5TKW8EI4DRB99U4E79NKOA","","430.30000001192093","img/animal3.png","76","430.90000000596046","3","1","3","1,0.7,0,0,1,0.7,0.7,0,1",""
"","html-keyboard-response","159","93276","0.0-159.0","326O153BMJK441XZIYRSPOBYQFDED2","A1FP3SH704X01V","3OYHVNTV5TKW8EI4DRB99U4E79NKOA","","null","<img src=""img/animal3.png"" style=""width:200px; border:14px solid green;"">","null","","","","","",""
"","image-keyboard-response","160","93631","0.0-160.0","326O153BMJK441XZIYRSPOBYQFDED2","A1FP3SH704X01V","3OYHVNTV5TKW8EI4DRB99U4E79NKOA","","354.39999997615814","img/animal3.png","76","354.90000000596046","3","1","3","1,0.7,0,0,1,0.7,0.7,0,1",""
"","html-keyboard-response","161","93932","0.0-161.0","326O153BMJK441XZIYRSPOBYQFDED2","A1FP3SH704X01V","3OYHVNTV5TKW8EI4DRB99U4E79NKOA","","null","<img src=""img/animal3.png"" style=""width:200px; border:14px solid green;"">","null","","","","","",""
"","image-keyboard-response","162","94283","0.0-162.0","326O153BMJK441XZIYRSPOBYQFDED2","A1FP3SH704X01V","3OYHVNTV5TKW8EI4DRB99U4E79NKOA","","349.7999999821186","img/animal3.png","76","350.40000000596046","3","1","3","1,0.7,0,0,1,0.7,0.7,0,1",""
"","html-keyboard-response","163","94584","0.0-163.0","326O153BMJK441XZIYRSPOBYQFDED2","A1FP3SH704X01V","3OYHVNTV5TKW8EI4DRB99U4E79NKOA","","null","<img src=""img/animal3.png"" style=""width:200px; border:14px solid green;"">","null","","","","","",""
"","image-keyboard-response","164","94882","0.0-164.0","326O153BMJK441XZIYRSPOBYQFDED2","A1FP3SH704X01V","3OYHVNTV5TKW8EI4DRB99U4E79NKOA","","296.7999999821186","img/animal3.png","76","297.2999999821186","3","1","3","1,0.7,0,0,1,0.7,0.7,0,1",""
"","html-keyboard-response","165","95184","0.0-165.0","326O153BMJK441XZIYRSPOBYQFDED2","A1FP3SH704X01V","3OYHVNTV5TKW8EI4DRB99U4E79NKOA","","null","<img src=""img/animal3.png"" style=""width:200px; border:14px solid green;"">","null","","","","","",""
"","image-keyboard-response","166","95800","0.0-166.0","326O153BMJK441XZIYRSPOBYQFDED2","A1FP3SH704X01V","3OYHVNTV5TKW8EI4DRB99U4E79NKOA","","616.2000000178814","img/animal6.png","74","616.6999999880791","1","1","1","1,0.7,0,0,1,0.7,0.7,0,1",""
"","html-keyboard-response","167","96101","0.0-167.0","326O153BMJK441XZIYRSPOBYQFDED2","A1FP3SH704X01V","3OYHVNTV5TKW8EI4DRB99U4E79NKOA","","null","<img src=""img/animal6.png"" style=""width:200px; border:14px solid green;"">","null","","","","","",""
"","image-keyboard-response","168","96526","0.0-168.0","326O153BMJK441XZIYRSPOBYQFDED2","A1FP3SH704X01V","3OYHVNTV5TKW8EI4DRB99U4E79NKOA","","424.10000002384186","img/animal4.png","75","424.7000000178814","2","1","2","1,0.7,0,0,1,0.7,0.7,0,1",""
"","html-keyboard-response","169","96828","0.0-169.0","326O153BMJK441XZIYRSPOBYQFDED2","A1FP3SH704X01V","3OYHVNTV5TKW8EI4DRB99U4E79NKOA","","null","<img src=""img/animal4.png"" style=""width:200px; border:14px solid green;"">","null","","","","","",""
"","image-keyboard-response","170","97226","0.0-170.0","326O153BMJK441XZIYRSPOBYQFDED2","A1FP3SH704X01V","3OYHVNTV5TKW8EI4DRB99U4E79NKOA","","396.7999999821186","img/animal6.png","74","397.30000001192093","1","1","1","1,0.7,0,0,1,0.7,0.7,0,1",""
"","html-keyboard-response","171","97526","0.0-171.0","326O153BMJK441XZIYRSPOBYQFDED2","A1FP3SH704X01V","3OYHVNTV5TKW8EI4DRB99U4E79NKOA","","null","<img src=""img/animal6.png"" style=""width:200px; border:14px solid green;"">","null","","","","","",""
"","image-keyboard-response","172","97992","0.0-172.0","326O153BMJK441XZIYRSPOBYQFDED2","A1FP3SH704X01V","3OYHVNTV5TKW8EI4DRB99U4E79NKOA","","465.2999999821186","img/animal3.png","76","465.90000000596046","3","1","3","1,0.7,0,0,1,0.7,0.7,0,1",""
"","html-keyboard-response","173","98294","0.0-173.0","326O153BMJK441XZIYRSPOBYQFDED2","A1FP3SH704X01V","3OYHVNTV5TKW8EI4DRB99U4E79NKOA","","null","<img src=""img/animal3.png"" style=""width:200px; border:14px solid green;"">","null","","","","","",""
"","image-keyboard-response","174","98952","0.0-174.0","326O153BMJK441XZIYRSPOBYQFDED2","A1FP3SH704X01V","3OYHVNTV5TKW8EI4DRB99U4E79NKOA","","657.5999999940395","img/animal4.png","75","658.0999999940395","2","1","2","1,0.7,0,0,1,0.7,0.7,0,1",""
"","html-keyboard-response","175","99254","0.0-175.0","326O153BMJK441XZIYRSPOBYQFDED2","A1FP3SH704X01V","3OYHVNTV5TKW8EI4DRB99U4E79NKOA","","null","<img src=""img/animal4.png"" style=""width:200px; border:14px solid green;"">","null","","","","","",""
"","image-keyboard-response","176","99739","0.0-176.0","326O153BMJK441XZIYRSPOBYQFDED2","A1FP3SH704X01V","3OYHVNTV5TKW8EI4DRB99U4E79NKOA","","483.7999999821186","img/animal3.png","76","484.30000001192093","3","1","3","1,0.7,0,0,1,0.7,0.7,0,1",""
"","html-keyboard-response","177","100040","0.0-177.0","326O153BMJK441XZIYRSPOBYQFDED2","A1FP3SH704X01V","3OYHVNTV5TKW8EI4DRB99U4E79NKOA","","null","<img src=""img/animal3.png"" style=""width:200px; border:14px solid green;"">","null","","","","","",""
"","image-keyboard-response","178","100882","0.0-178.0","326O153BMJK441XZIYRSPOBYQFDED2","A1FP3SH704X01V","3OYHVNTV5TKW8EI4DRB99U4E79NKOA","","840.8000000119209","img/animal4.png","75","841.4000000059605","2","1","2","1,0.7,0,0,1,0.7,0.7,0,1",""
"","html-keyboard-response","179","101183","0.0-179.0","326O153BMJK441XZIYRSPOBYQFDED2","A1FP3SH704X01V","3OYHVNTV5TKW8EI4DRB99U4E79NKOA","","null","<img src=""img/animal4.png"" style=""width:200px; border:14px solid green;"">","null","","","","","",""
"","image-keyboard-response","180","101940","0.0-180.0","326O153BMJK441XZIYRSPOBYQFDED2","A1FP3SH704X01V","3OYHVNTV5TKW8EI4DRB99U4E79NKOA","","756.6999999880791","img/animal6.png","74","757.2000000178814","1","1","1","1,0.7,0,0,1,0.7,0.7,0,1",""
"","html-keyboard-response","181","102241","0.0-181.0","326O153BMJK441XZIYRSPOBYQFDED2","A1FP3SH704X01V","3OYHVNTV5TKW8EI4DRB99U4E79NKOA","","null","<img src=""img/animal6.png"" style=""width:200px; border:14px solid green;"">","null","","","","","",""
"","html-keyboard-response","182","104657","0.0-182.0","326O153BMJK441XZIYRSPOBYQFDED2","A1FP3SH704X01V","3OYHVNTV5TKW8EI4DRB99U4E79NKOA","","","","","","","","","",""
"","image-keyboard-response","183","105978","0.0-183.0","326O153BMJK441XZIYRSPOBYQFDED2","A1FP3SH704X01V","3OYHVNTV5TKW8EI4DRB99U4E79NKOA","","1319.6000000238419","img/animal5.png","74","1320.4000000059605","1","1","3","1,0.7,0,1,0.7,0,0.7,0,1",""
"","html-keyboard-response","184","106280","0.0-184.0","326O153BMJK441XZIYRSPOBYQFDED2","A1FP3SH704X01V","3OYHVNTV5TKW8EI4DRB99U4E79NKOA","","null","<img src=""img/animal5.png"" style=""width:200px; border:14px solid green;"">","null","","","","","",""
"","image-keyboard-response","185","106917","0.0-185.0","326O153BMJK441XZIYRSPOBYQFDED2","A1FP3SH704X01V","3OYHVNTV5TKW8EI4DRB99U4E79NKOA","","635.5999999940395","img/animal2.png","75","636.2000000178814","2","1","1","1,0.7,0,1,0.7,0,0.7,0,1",""
"","html-keyboard-response","186","107219","0.0-186.0","326O153BMJK441XZIYRSPOBYQFDED2","A1FP3SH704X01V","3OYHVNTV5TKW8EI4DRB99U4E79NKOA","","null","<img src=""img/animal2.png"" style=""width:200px; border:14px solid green;"">","null","","","","","",""
"","image-keyboard-response","187","107633","0.0-187.0","326O153BMJK441XZIYRSPOBYQFDED2","A1FP3SH704X01V","3OYHVNTV5TKW8EI4DRB99U4E79NKOA","","413.19999998807907","img/animal2.png","75","413.7000000178814","2","0","1","1,0.7,0,1,0.7,0,0.7,0,1",""
"","html-keyboard-response","188","107935","0.0-188.0","326O153BMJK441XZIYRSPOBYQFDED2","A1FP3SH704X01V","3OYHVNTV5TKW8EI4DRB99U4E79NKOA","","null","<img src=""img/animal2.png"" style=""width:200px;border:14px solid red;"">","null","","","","","",""
"","image-keyboard-response","189","108819","0.0-189.0","326O153BMJK441XZIYRSPOBYQFDED2","A1FP3SH704X01V","3OYHVNTV5TKW8EI4DRB99U4E79NKOA","","883.5","img/animal5.png","74","884.0999999940395","1","1","3","1,0.7,0,1,0.7,0,0.7,0,1",""
"","html-keyboard-response","190","109120","0.0-190.0","326O153BMJK441XZIYRSPOBYQFDED2","A1FP3SH704X01V","3OYHVNTV5TKW8EI4DRB99U4E79NKOA","","null","<img src=""img/animal5.png"" style=""width:200px; border:14px solid green;"">","null","","","","","",""
"","image-keyboard-response","191","109549","0.0-191.0","326O153BMJK441XZIYRSPOBYQFDED2","A1FP3SH704X01V","3OYHVNTV5TKW8EI4DRB99U4E79NKOA","","427.7999999821186","img/animal2.png","75","428.39999997615814","2","1","1","1,0.7,0,1,0.7,0,0.7,0,1",""
"","html-keyboard-response","192","109850","0.0-192.0","326O153BMJK441XZIYRSPOBYQFDED2","A1FP3SH704X01V","3OYHVNTV5TKW8EI4DRB99U4E79NKOA","","null","<img src=""img/animal2.png"" style=""width:200px; border:14px solid green;"">","null","","","","","",""
"","image-keyboard-response","193","110399","0.0-193.0","326O153BMJK441XZIYRSPOBYQFDED2","A1FP3SH704X01V","3OYHVNTV5TKW8EI4DRB99U4E79NKOA","","548.4000000059605","img/animal5.png","74","548.9000000059605","1","0","3","1,0.7,0,1,0.7,0,0.7,0,1",""
"","html-keyboard-response","194","110701","0.0-194.0","326O153BMJK441XZIYRSPOBYQFDED2","A1FP3SH704X01V","3OYHVNTV5TKW8EI4DRB99U4E79NKOA","","null","<img src=""img/animal5.png"" style=""width:200px;border:14px solid red;"">","null","","","","","",""
"","image-keyboard-response","195","111216","0.0-195.0","326O153BMJK441XZIYRSPOBYQFDED2","A1FP3SH704X01V","3OYHVNTV5TKW8EI4DRB99U4E79NKOA","","513.7000000178814","img/animal5.png","74","514.3000000119209","1","1","3","1,0.7,0,1,0.7,0,0.7,0,1",""
"","html-keyboard-response","196","111517","0.0-196.0","326O153BMJK441XZIYRSPOBYQFDED2","A1FP3SH704X01V","3OYHVNTV5TKW8EI4DRB99U4E79NKOA","","null","<img src=""img/animal5.png"" style=""width:200px; border:14px solid green;"">","null","","","","","",""
"","image-keyboard-response","197","112208","0.0-197.0","326O153BMJK441XZIYRSPOBYQFDED2","A1FP3SH704X01V","3OYHVNTV5TKW8EI4DRB99U4E79NKOA","","690.9000000059605","img/animal1.png","76","691.4000000059605","3","0","2","1,0.7,0,1,0.7,0,0.7,0,1",""
"","html-keyboard-response","198","112510","0.0-198.0","326O153BMJK441XZIYRSPOBYQFDED2","A1FP3SH704X01V","3OYHVNTV5TKW8EI4DRB99U4E79NKOA","","null","<img src=""img/animal1.png"" style=""width:200px;border:14px solid red;"">","null","","","","","",""
"","image-keyboard-response","199","112936","0.0-199.0","326O153BMJK441XZIYRSPOBYQFDED2","A1FP3SH704X01V","3OYHVNTV5TKW8EI4DRB99U4E79NKOA","","425.7000000178814","img/animal1.png","76","426.19999998807907","3","0","2","1,0.7,0,1,0.7,0,0.7,0,1",""
"","html-keyboard-response","200","113237","0.0-200.0","326O153BMJK441XZIYRSPOBYQFDED2","A1FP3SH704X01V","3OYHVNTV5TKW8EI4DRB99U4E79NKOA","","null","<img src=""img/animal1.png"" style=""width:200px;border:14px solid red;"">","null","","","","","",""
"","image-keyboard-response","201","113543","0.0-201.0","326O153BMJK441XZIYRSPOBYQFDED2","A1FP3SH704X01V","3OYHVNTV5TKW8EI4DRB99U4E79NKOA","","305.30000001192093","img/animal1.png","76","305.69999998807907","3","0","2","1,0.7,0,1,0.7,0,0.7,0,1",""
"","html-keyboard-response","202","113844","0.0-202.0","326O153BMJK441XZIYRSPOBYQFDED2","A1FP3SH704X01V","3OYHVNTV5TKW8EI4DRB99U4E79NKOA","","null","<img src=""img/animal1.png"" style=""width:200px;border:14px solid red;"">","null","","","","","",""
"","image-keyboard-response","203","114904","0.0-203.0","326O153BMJK441XZIYRSPOBYQFDED2","A1FP3SH704X01V","3OYHVNTV5TKW8EI4DRB99U4E79NKOA","","1059.5","img/animal5.png","75","1059.9000000059605","2","0","3","1,0.7,0,1,0.7,0,0.7,0,1",""
"","html-keyboard-response","204","115206","0.0-204.0","326O153BMJK441XZIYRSPOBYQFDED2","A1FP3SH704X01V","3OYHVNTV5TKW8EI4DRB99U4E79NKOA","","null","<img src=""img/animal5.png"" style=""width:200px;border:14px solid red;"">","null","","","","","",""
"","image-keyboard-response","205","115940","0.0-205.0","326O153BMJK441XZIYRSPOBYQFDED2","A1FP3SH704X01V","3OYHVNTV5TKW8EI4DRB99U4E79NKOA","","734.0999999940395","img/animal1.png","75","734.5999999940395","2","1","2","1,0.7,0,1,0.7,0,0.7,0,1",""
"","html-keyboard-response","206","116242","0.0-206.0","326O153BMJK441XZIYRSPOBYQFDED2","A1FP3SH704X01V","3OYHVNTV5TKW8EI4DRB99U4E79NKOA","","null","<img src=""img/animal1.png"" style=""width:200px; border:14px solid green;"">","null","","","","","",""
"","image-keyboard-response","207","116568","0.0-207.0","326O153BMJK441XZIYRSPOBYQFDED2","A1FP3SH704X01V","3OYHVNTV5TKW8EI4DRB99U4E79NKOA","","325.30000001192093","img/animal1.png","75","325.80000001192093","2","1","2","1,0.7,0,1,0.7,0,0.7,0,1",""
"","html-keyboard-response","208","116870","0.0-208.0","326O153BMJK441XZIYRSPOBYQFDED2","A1FP3SH704X01V","3OYHVNTV5TKW8EI4DRB99U4E79NKOA","","null","<img src=""img/animal1.png"" style=""width:200px; border:14px solid green;"">","null","","","","","",""
"","image-keyboard-response","209","117610","0.0-209.0","326O153BMJK441XZIYRSPOBYQFDED2","A1FP3SH704X01V","3OYHVNTV5TKW8EI4DRB99U4E79NKOA","","739.1999999880791","img/animal2.png","75","739.6000000238419","2","0","1","1,0.7,0,1,0.7,0,0.7,0,1",""
"","html-keyboard-response","210","117911","0.0-210.0","326O153BMJK441XZIYRSPOBYQFDED2","A1FP3SH704X01V","3OYHVNTV5TKW8EI4DRB99U4E79NKOA","","null","<img src=""img/animal2.png"" style=""width:200px;border:14px solid red;"">","null","","","","","",""
"","image-keyboard-response","211","118528","0.0-211.0","326O153BMJK441XZIYRSPOBYQFDED2","A1FP3SH704X01V","3OYHVNTV5TKW8EI4DRB99U4E79NKOA","","616.8000000119209","img/animal1.png","75","617.5","2","1","2","1,0.7,0,1,0.7,0,0.7,0,1",""
"","html-keyboard-response","212","118841","0.0-212.0","326O153BMJK441XZIYRSPOBYQFDED2","A1FP3SH704X01V","3OYHVNTV5TKW8EI4DRB99U4E79NKOA","","null","<img src=""img/animal1.png"" style=""width:200px; border:14px solid green;"">","null","","","","","",""
"","image-keyboard-response","213","119394","0.0-213.0","326O153BMJK441XZIYRSPOBYQFDED2","A1FP3SH704X01V","3OYHVNTV5TKW8EI4DRB99U4E79NKOA","","552.2999999821186","img/animal2.png","76","552.8000000119209","3","0","1","1,0.7,0,1,0.7,0,0.7,0,1",""
"","html-keyboard-response","214","119696","0.0-214.0","326O153BMJK441XZIYRSPOBYQFDED2","A1FP3SH704X01V","3OYHVNTV5TKW8EI4DRB99U4E79NKOA","","null","<img src=""img/animal2.png"" style=""width:200px;border:14px solid red;"">","null","","","","","",""
"","image-keyboard-response","215","120925","0.0-215.0","326O153BMJK441XZIYRSPOBYQFDED2","A1FP3SH704X01V","3OYHVNTV5TKW8EI4DRB99U4E79NKOA","","1228.300000011921","img/animal5.png","74","1228.9000000059605","1","1","3","1,0.7,0,1,0.7,0,0.7,0,1",""
"","html-keyboard-response","216","121226","0.0-216.0","326O153BMJK441XZIYRSPOBYQFDED2","A1FP3SH704X01V","3OYHVNTV5TKW8EI4DRB99U4E79NKOA","","null","<img src=""img/animal5.png"" style=""width:200px; border:14px solid green;"">","null","","","","","",""
"","image-keyboard-response","217","121800","0.0-217.0","326O153BMJK441XZIYRSPOBYQFDED2","A1FP3SH704X01V","3OYHVNTV5TKW8EI4DRB99U4E79NKOA","","572.5","img/animal2.png","75","573","2","0","1","1,0.7,0,1,0.7,0,0.7,0,1",""
"","html-keyboard-response","218","122101","0.0-218.0","326O153BMJK441XZIYRSPOBYQFDED2","A1FP3SH704X01V","3OYHVNTV5TKW8EI4DRB99U4E79NKOA","","null","<img src=""img/animal2.png"" style=""width:200px;border:14px solid red;"">","null","","","","","",""
"","image-keyboard-response","219","123019","0.0-219.0","326O153BMJK441XZIYRSPOBYQFDED2","A1FP3SH704X01V","3OYHVNTV5TKW8EI4DRB99U4E79NKOA","","916.9000000059605","img/animal5.png","74","917.5","1","1","3","1,0.7,0,1,0.7,0,0.7,0,1",""
"","html-keyboard-response","220","123320","0.0-220.0","326O153BMJK441XZIYRSPOBYQFDED2","A1FP3SH704X01V","3OYHVNTV5TKW8EI4DRB99U4E79NKOA","","null","<img src=""img/animal5.png"" style=""width:200px; border:14px solid green;"">","null","","","","","",""
"","image-keyboard-response","221","123669","0.0-221.0","326O153BMJK441XZIYRSPOBYQFDED2","A1FP3SH704X01V","3OYHVNTV5TKW8EI4DRB99U4E79NKOA","","348.5","img/animal5.png","74","349","1","1","3","1,0.7,0,1,0.7,0,0.7,0,1",""
"","html-keyboard-response","222","123971","0.0-222.0","326O153BMJK441XZIYRSPOBYQFDED2","A1FP3SH704X01V","3OYHVNTV5TKW8EI4DRB99U4E79NKOA","","null","<img src=""img/animal5.png"" style=""width:200px; border:14px solid green;"">","null","","","","","",""
"","image-keyboard-response","223","124258","0.0-223.0","326O153BMJK441XZIYRSPOBYQFDED2","A1FP3SH704X01V","3OYHVNTV5TKW8EI4DRB99U4E79NKOA","","286.59999999403954","img/animal5.png","74","287.19999998807907","1","1","3","1,0.7,0,1,0.7,0,0.7,0,1",""
"","html-keyboard-response","224","124560","0.0-224.0","326O153BMJK441XZIYRSPOBYQFDED2","A1FP3SH704X01V","3OYHVNTV5TKW8EI4DRB99U4E79NKOA","","null","<img src=""img/animal5.png"" style=""width:200px; border:14px solid green;"">","null","","","","","",""
"","image-keyboard-response","225","124953","0.0-225.0","326O153BMJK441XZIYRSPOBYQFDED2","A1FP3SH704X01V","3OYHVNTV5TKW8EI4DRB99U4E79NKOA","","393.19999998807907","img/animal5.png","74","393.7000000178814","1","1","3","1,0.7,0,1,0.7,0,0.7,0,1",""
"","html-keyboard-response","226","125255","0.0-226.0","326O153BMJK441XZIYRSPOBYQFDED2","A1FP3SH704X01V","3OYHVNTV5TKW8EI4DRB99U4E79NKOA","","null","<img src=""img/animal5.png"" style=""width:200px; border:14px solid green;"">","null","","","","","",""
"","image-keyboard-response","227","125691","0.0-227.0","326O153BMJK441XZIYRSPOBYQFDED2","A1FP3SH704X01V","3OYHVNTV5TKW8EI4DRB99U4E79NKOA","","434.90000000596046","img/animal2.png","76","435.40000000596046","3","0","1","1,0.7,0,1,0.7,0,0.7,0,1",""
"","html-keyboard-response","228","125992","0.0-228.0","326O153BMJK441XZIYRSPOBYQFDED2","A1FP3SH704X01V","3OYHVNTV5TKW8EI4DRB99U4E79NKOA","","null","<img src=""img/animal2.png"" style=""width:200px;border:14px solid red;"">","null","","","","","",""
"","image-keyboard-response","229","126371","0.0-229.0","326O153BMJK441XZIYRSPOBYQFDED2","A1FP3SH704X01V","3OYHVNTV5TKW8EI4DRB99U4E79NKOA","","378.69999998807907","img/animal2.png","76","379.2000000178814","3","0","1","1,0.7,0,1,0.7,0,0.7,0,1",""
"","html-keyboard-response","230","126673","0.0-230.0","326O153BMJK441XZIYRSPOBYQFDED2","A1FP3SH704X01V","3OYHVNTV5TKW8EI4DRB99U4E79NKOA","","null","<img src=""img/animal2.png"" style=""width:200px;border:14px solid red;"">","null","","","","","",""
"","image-keyboard-response","231","127721","0.0-231.0","326O153BMJK441XZIYRSPOBYQFDED2","A1FP3SH704X01V","3OYHVNTV5TKW8EI4DRB99U4E79NKOA","","1048.4000000059605","img/animal5.png","74","1048.9000000059605","1","1","3","1,0.7,0,1,0.7,0,0.7,0,1",""
"","html-keyboard-response","232","128023","0.0-232.0","326O153BMJK441XZIYRSPOBYQFDED2","A1FP3SH704X01V","3OYHVNTV5TKW8EI4DRB99U4E79NKOA","","null","<img src=""img/animal5.png"" style=""width:200px; border:14px solid green;"">","null","","","","","",""
"","image-keyboard-response","233","128781","0.0-233.0","326O153BMJK441XZIYRSPOBYQFDED2","A1FP3SH704X01V","3OYHVNTV5TKW8EI4DRB99U4E79NKOA","","758.0999999940395","img/animal1.png","75","758.6000000238419","2","0","2","1,0.7,0,1,0.7,0,0.7,0,1",""
"","html-keyboard-response","234","129083","0.0-234.0","326O153BMJK441XZIYRSPOBYQFDED2","A1FP3SH704X01V","3OYHVNTV5TKW8EI4DRB99U4E79NKOA","","null","<img src=""img/animal1.png"" style=""width:200px;border:14px solid red;"">","null","","","","","",""
"","image-keyboard-response","235","130473","0.0-235.0","326O153BMJK441XZIYRSPOBYQFDED2","A1FP3SH704X01V","3OYHVNTV5TKW8EI4DRB99U4E79NKOA","","1388.7000000178814","img/animal5.png","74","1389.0999999940395","1","1","3","1,0.7,0,1,0.7,0,0.7,0,1",""
"","html-keyboard-response","236","130774","0.0-236.0","326O153BMJK441XZIYRSPOBYQFDED2","A1FP3SH704X01V","3OYHVNTV5TKW8EI4DRB99U4E79NKOA","","null","<img src=""img/animal5.png"" style=""width:200px; border:14px solid green;"">","null","","","","","",""
"","image-keyboard-response","237","131378","0.0-237.0","326O153BMJK441XZIYRSPOBYQFDED2","A1FP3SH704X01V","3OYHVNTV5TKW8EI4DRB99U4E79NKOA","","603.6999999880791","img/animal2.png","76","604.0999999940395","3","0","1","1,0.7,0,1,0.7,0,0.7,0,1",""
"","html-keyboard-response","238","131679","0.0-238.0","326O153BMJK441XZIYRSPOBYQFDED2","A1FP3SH704X01V","3OYHVNTV5TKW8EI4DRB99U4E79NKOA","","null","<img src=""img/animal2.png"" style=""width:200px;border:14px solid red;"">","null","","","","","",""
"","image-keyboard-response","239","132346","0.0-239.0","326O153BMJK441XZIYRSPOBYQFDED2","A1FP3SH704X01V","3OYHVNTV5TKW8EI4DRB99U4E79NKOA","","666.4000000059605","img/animal1.png","75","666.9000000059605","2","1","2","1,0.7,0,1,0.7,0,0.7,0,1",""
"","html-keyboard-response","240","132648","0.0-240.0","326O153BMJK441XZIYRSPOBYQFDED2","A1FP3SH704X01V","3OYHVNTV5TKW8EI4DRB99U4E79NKOA","","null","<img src=""img/animal1.png"" style=""width:200px; border:14px solid green;"">","null","","","","","",""
"","image-keyboard-response","241","133000","0.0-241.0","326O153BMJK441XZIYRSPOBYQFDED2","A1FP3SH704X01V","3OYHVNTV5TKW8EI4DRB99U4E79NKOA","","351.7999999821186","img/animal1.png","75","352.30000001192093","2","0","2","1,0.7,0,1,0.7,0,0.7,0,1",""
"","html-keyboard-response","242","133302","0.0-242.0","326O153BMJK441XZIYRSPOBYQFDED2","A1FP3SH704X01V","3OYHVNTV5TKW8EI4DRB99U4E79NKOA","","null","<img src=""img/animal1.png"" style=""width:200px;border:14px solid red;"">","null","","","","","",""
"","image-keyboard-response","243","134144","0.0-243.0","326O153BMJK441XZIYRSPOBYQFDED2","A1FP3SH704X01V","3OYHVNTV5TKW8EI4DRB99U4E79NKOA","","842.1999999880791","img/animal5.png","74","842.6000000238419","1","0","3","1,0.7,0,1,0.7,0,0.7,0,1",""
"","html-keyboard-response","244","134446","0.0-244.0","326O153BMJK441XZIYRSPOBYQFDED2","A1FP3SH704X01V","3OYHVNTV5TKW8EI4DRB99U4E79NKOA","","null","<img src=""img/animal5.png"" style=""width:200px;border:14px solid red;"">","null","","","","","",""
"","image-keyboard-response","245","134794","0.0-245.0","326O153BMJK441XZIYRSPOBYQFDED2","A1FP3SH704X01V","3OYHVNTV5TKW8EI4DRB99U4E79NKOA","","347","img/animal5.png","74","347.5","1","0","3","1,0.7,0,1,0.7,0,0.7,0,1",""
"","html-keyboard-response","246","135095","0.0-246.0","326O153BMJK441XZIYRSPOBYQFDED2","A1FP3SH704X01V","3OYHVNTV5TKW8EI4DRB99U4E79NKOA","","null","<img src=""img/animal5.png"" style=""width:200px;border:14px solid red;"">","null","","","","","",""
"","image-keyboard-response","247","136459","0.0-247.0","326O153BMJK441XZIYRSPOBYQFDED2","A1FP3SH704X01V","3OYHVNTV5TKW8EI4DRB99U4E79NKOA","","1363.4000000059605","img/animal1.png","75","1363.8999999761581","2","1","2","1,0.7,0,1,0.7,0,0.7,0,1",""
"","html-keyboard-response","248","136760","0.0-248.0","326O153BMJK441XZIYRSPOBYQFDED2","A1FP3SH704X01V","3OYHVNTV5TKW8EI4DRB99U4E79NKOA","","null","<img src=""img/animal1.png"" style=""width:200px; border:14px solid green;"">","null","","","","","",""
"","image-keyboard-response","249","137631","0.0-249.0","326O153BMJK441XZIYRSPOBYQFDED2","A1FP3SH704X01V","3OYHVNTV5TKW8EI4DRB99U4E79NKOA","","870.9000000059605","img/animal5.png","76","871.3000000119209","3","1","3","1,0.7,0,1,0.7,0,0.7,0,1",""
"","html-keyboard-response","250","137933","0.0-250.0","326O153BMJK441XZIYRSPOBYQFDED2","A1FP3SH704X01V","3OYHVNTV5TKW8EI4DRB99U4E79NKOA","","null","<img src=""img/animal5.png"" style=""width:200px; border:14px solid green;"">","null","","","","","",""
"","image-keyboard-response","251","138753","0.0-251.0","326O153BMJK441XZIYRSPOBYQFDED2","A1FP3SH704X01V","3OYHVNTV5TKW8EI4DRB99U4E79NKOA","","819.5999999940395","img/animal2.png","74","820.0999999940395","1","1","1","1,0.7,0,1,0.7,0,0.7,0,1",""
"","html-keyboard-response","252","139055","0.0-252.0","326O153BMJK441XZIYRSPOBYQFDED2","A1FP3SH704X01V","3OYHVNTV5TKW8EI4DRB99U4E79NKOA","","null","<img src=""img/animal2.png"" style=""width:200px; border:14px solid green;"">","null","","","","","",""
"","image-keyboard-response","253","139330","0.0-253.0","326O153BMJK441XZIYRSPOBYQFDED2","A1FP3SH704X01V","3OYHVNTV5TKW8EI4DRB99U4E79NKOA","","274.2999999821186","img/animal2.png","74","274.59999999403954","1","1","1","1,0.7,0,1,0.7,0,0.7,0,1",""
"","html-keyboard-response","254","139632","0.0-254.0","326O153BMJK441XZIYRSPOBYQFDED2","A1FP3SH704X01V","3OYHVNTV5TKW8EI4DRB99U4E79NKOA","","null","<img src=""img/animal2.png"" style=""width:200px; border:14px solid green;"">","null","","","","","",""
"","image-keyboard-response","255","140435","0.0-255.0","326O153BMJK441XZIYRSPOBYQFDED2","A1FP3SH704X01V","3OYHVNTV5TKW8EI4DRB99U4E79NKOA","","802.1999999880791","img/animal1.png","75","802.6999999880791","2","0","2","1,0.7,0,1,0.7,0,0.7,0,1",""
"","html-keyboard-response","256","140747","0.0-256.0","326O153BMJK441XZIYRSPOBYQFDED2","A1FP3SH704X01V","3OYHVNTV5TKW8EI4DRB99U4E79NKOA","","null","<img src=""img/animal1.png"" style=""width:200px;border:14px solid red;"">","null","","","","","",""
"","image-keyboard-response","257","141879","0.0-257.0","326O153BMJK441XZIYRSPOBYQFDED2","A1FP3SH704X01V","3OYHVNTV5TKW8EI4DRB99U4E79NKOA","","1132.2999999821186","img/animal2.png","74","1132.9000000059605","1","1","1","1,0.7,0,1,0.7,0,0.7,0,1",""
"","html-keyboard-response","258","142181","0.0-258.0","326O153BMJK441XZIYRSPOBYQFDED2","A1FP3SH704X01V","3OYHVNTV5TKW8EI4DRB99U4E79NKOA","","null","<img src=""img/animal2.png"" style=""width:200px; border:14px solid green;"">","null","","","","","",""
"","image-keyboard-response","259","142516","0.0-259.0","326O153BMJK441XZIYRSPOBYQFDED2","A1FP3SH704X01V","3OYHVNTV5TKW8EI4DRB99U4E79NKOA","","334.5","img/animal2.png","74","335.09999999403954","1","1","1","1,0.7,0,1,0.7,0,0.7,0,1",""
"","html-keyboard-response","260","142819","0.0-260.0","326O153BMJK441XZIYRSPOBYQFDED2","A1FP3SH704X01V","3OYHVNTV5TKW8EI4DRB99U4E79NKOA","","null","<img src=""img/animal2.png"" style=""width:200px; border:14px solid green;"">","null","","","","","",""
"","image-keyboard-response","261","143536","0.0-261.0","326O153BMJK441XZIYRSPOBYQFDED2","A1FP3SH704X01V","3OYHVNTV5TKW8EI4DRB99U4E79NKOA","","716.0999999940395","img/animal5.png","76","716.8000000119209","3","1","3","1,0.7,0,1,0.7,0,0.7,0,1",""
"","html-keyboard-response","262","143838","0.0-262.0","326O153BMJK441XZIYRSPOBYQFDED2","A1FP3SH704X01V","3OYHVNTV5TKW8EI4DRB99U4E79NKOA","","null","<img src=""img/animal5.png"" style=""width:200px; border:14px solid green;"">","null","","","","","",""
"","image-keyboard-response","263","144445","0.0-263.0","326O153BMJK441XZIYRSPOBYQFDED2","A1FP3SH704X01V","3OYHVNTV5TKW8EI4DRB99U4E79NKOA","","606.5999999940395","img/animal2.png","74","607.1000000238419","1","1","1","1,0.7,0,1,0.7,0,0.7,0,1",""
"","html-keyboard-response","264","144747","0.0-264.0","326O153BMJK441XZIYRSPOBYQFDED2","A1FP3SH704X01V","3OYHVNTV5TKW8EI4DRB99U4E79NKOA","","null","<img src=""img/animal2.png"" style=""width:200px; border:14px solid green;"">","null","","","","","",""
"","image-keyboard-response","265","145793","0.0-265.0","326O153BMJK441XZIYRSPOBYQFDED2","A1FP3SH704X01V","3OYHVNTV5TKW8EI4DRB99U4E79NKOA","","1045.1000000238419","img/animal1.png","75","1045.9000000059605","2","1","2","1,0.7,0,1,0.7,0,0.7,0,1",""
"","html-keyboard-response","266","146094","0.0-266.0","326O153BMJK441XZIYRSPOBYQFDED2","A1FP3SH704X01V","3OYHVNTV5TKW8EI4DRB99U4E79NKOA","","null","<img src=""img/animal1.png"" style=""width:200px; border:14px solid green;"">","null","","","","","",""
"","image-keyboard-response","267","146438","0.0-267.0","326O153BMJK441XZIYRSPOBYQFDED2","A1FP3SH704X01V","3OYHVNTV5TKW8EI4DRB99U4E79NKOA","","343.7000000178814","img/animal1.png","75","344.2999999821186","2","0","2","1,0.7,0,1,0.7,0,0.7,0,1",""
"","html-keyboard-response","268","146740","0.0-268.0","326O153BMJK441XZIYRSPOBYQFDED2","A1FP3SH704X01V","3OYHVNTV5TKW8EI4DRB99U4E79NKOA","","null","<img src=""img/animal1.png"" style=""width:200px;border:14px solid red;"">","null","","","","","",""
"","image-keyboard-response","269","147118","0.0-269.0","326O153BMJK441XZIYRSPOBYQFDED2","A1FP3SH704X01V","3OYHVNTV5TKW8EI4DRB99U4E79NKOA","","377.30000001192093","img/animal1.png","75","377.90000000596046","2","1","2","1,0.7,0,1,0.7,0,0.7,0,1",""
"","html-keyboard-response","270","147420","0.0-270.0","326O153BMJK441XZIYRSPOBYQFDED2","A1FP3SH704X01V","3OYHVNTV5TKW8EI4DRB99U4E79NKOA","","null","<img src=""img/animal1.png"" style=""width:200px; border:14px solid green;"">","null","","","","","",""
"","image-keyboard-response","271","148385","0.0-271.0","326O153BMJK441XZIYRSPOBYQFDED2","A1FP3SH704X01V","3OYHVNTV5TKW8EI4DRB99U4E79NKOA","","965.0999999940395","img/animal2.png","74","965.5","1","1","1","1,0.7,0,1,0.7,0,0.7,0,1",""
"","html-keyboard-response","272","148688","0.0-272.0","326O153BMJK441XZIYRSPOBYQFDED2","A1FP3SH704X01V","3OYHVNTV5TKW8EI4DRB99U4E79NKOA","","null","<img src=""img/animal2.png"" style=""width:200px; border:14px solid green;"">","null","","","","","",""
"","image-keyboard-response","273","149250","0.0-273.0","326O153BMJK441XZIYRSPOBYQFDED2","A1FP3SH704X01V","3OYHVNTV5TKW8EI4DRB99U4E79NKOA","","561.8000000119209","img/animal1.png","75","562.2999999821186","2","1","2","1,0.7,0,1,0.7,0,0.7,0,1",""
"","html-keyboard-response","274","149552","0.0-274.0","326O153BMJK441XZIYRSPOBYQFDED2","A1FP3SH704X01V","3OYHVNTV5TKW8EI4DRB99U4E79NKOA","","null","<img src=""img/animal1.png"" style=""width:200px; border:14px solid green;"">","null","","","","","",""
"","image-keyboard-response","275","149842","0.0-275.0","326O153BMJK441XZIYRSPOBYQFDED2","A1FP3SH704X01V","3OYHVNTV5TKW8EI4DRB99U4E79NKOA","","290","img/animal1.png","75","290.5","2","1","2","1,0.7,0,1,0.7,0,0.7,0,1",""
"","html-keyboard-response","276","150144","0.0-276.0","326O153BMJK441XZIYRSPOBYQFDED2","A1FP3SH704X01V","3OYHVNTV5TKW8EI4DRB99U4E79NKOA","","null","<img src=""img/animal1.png"" style=""width:200px; border:14px solid green;"">","null","","","","","",""
"","image-keyboard-response","277","150898","0.0-277.0","326O153BMJK441XZIYRSPOBYQFDED2","A1FP3SH704X01V","3OYHVNTV5TKW8EI4DRB99U4E79NKOA","","752.8000000119209","img/animal5.png","76","753.4000000059605","3","1","3","1,0.7,0,1,0.7,0,0.7,0,1",""
"","html-keyboard-response","278","151200","0.0-278.0","326O153BMJK441XZIYRSPOBYQFDED2","A1FP3SH704X01V","3OYHVNTV5TKW8EI4DRB99U4E79NKOA","","null","<img src=""img/animal5.png"" style=""width:200px; border:14px solid green;"">","null","","","","","",""
"","image-keyboard-response","279","151824","0.0-279.0","326O153BMJK441XZIYRSPOBYQFDED2","A1FP3SH704X01V","3OYHVNTV5TKW8EI4DRB99U4E79NKOA","","623.8000000119209","img/animal2.png","74","624.3000000119209","1","1","1","1,0.7,0,1,0.7,0,0.7,0,1",""
"","html-keyboard-response","280","152126","0.0-280.0","326O153BMJK441XZIYRSPOBYQFDED2","A1FP3SH704X01V","3OYHVNTV5TKW8EI4DRB99U4E79NKOA","","null","<img src=""img/animal2.png"" style=""width:200px; border:14px solid green;"">","null","","","","","",""
"","image-keyboard-response","281","152493","0.0-281.0","326O153BMJK441XZIYRSPOBYQFDED2","A1FP3SH704X01V","3OYHVNTV5TKW8EI4DRB99U4E79NKOA","","366.09999999403954","img/animal2.png","74","366.69999998807907","1","1","1","1,0.7,0,1,0.7,0,0.7,0,1",""
"","html-keyboard-response","282","152794","0.0-282.0","326O153BMJK441XZIYRSPOBYQFDED2","A1FP3SH704X01V","3OYHVNTV5TKW8EI4DRB99U4E79NKOA","","null","<img src=""img/animal2.png"" style=""width:200px; border:14px solid green;"">","null","","","","","",""
"","image-keyboard-response","283","153670","0.0-283.0","326O153BMJK441XZIYRSPOBYQFDED2","A1FP3SH704X01V","3OYHVNTV5TKW8EI4DRB99U4E79NKOA","","875","img/animal1.png","75","875.7000000178814","2","0","2","1,0.7,0,1,0.7,0,0.7,0,1",""
"","html-keyboard-response","284","153972","0.0-284.0","326O153BMJK441XZIYRSPOBYQFDED2","A1FP3SH704X01V","3OYHVNTV5TKW8EI4DRB99U4E79NKOA","","null","<img src=""img/animal1.png"" style=""width:200px;border:14px solid red;"">","null","","","","","",""
"","image-keyboard-response","285","154139","0.0-285.0","326O153BMJK441XZIYRSPOBYQFDED2","A1FP3SH704X01V","3OYHVNTV5TKW8EI4DRB99U4E79NKOA","","166.5","img/animal1.png","75","167","2","1","2","1,0.7,0,1,0.7,0,0.7,0,1",""
"","html-keyboard-response","286","154440","0.0-286.0","326O153BMJK441XZIYRSPOBYQFDED2","A1FP3SH704X01V","3OYHVNTV5TKW8EI4DRB99U4E79NKOA","","null","<img src=""img/animal1.png"" style=""width:200px; border:14px solid green;"">","null","","","","","",""
"","image-keyboard-response","287","155181","0.0-287.0","326O153BMJK441XZIYRSPOBYQFDED2","A1FP3SH704X01V","3OYHVNTV5TKW8EI4DRB99U4E79NKOA","","740.5","img/animal5.png","74","740.9000000059605","1","1","3","1,0.7,0,1,0.7,0,0.7,0,1",""
"","html-keyboard-response","288","155484","0.0-288.0","326O153BMJK441XZIYRSPOBYQFDED2","A1FP3SH704X01V","3OYHVNTV5TKW8EI4DRB99U4E79NKOA","","null","<img src=""img/animal5.png"" style=""width:200px; border:14px solid green;"">","null","","","","","",""
"","image-keyboard-response","289","156173","0.0-289.0","326O153BMJK441XZIYRSPOBYQFDED2","A1FP3SH704X01V","3OYHVNTV5TKW8EI4DRB99U4E79NKOA","","688.9000000059605","img/animal1.png","75","689.4000000059605","2","1","2","1,0.7,0,1,0.7,0,0.7,0,1",""
"","html-keyboard-response","290","156475","0.0-290.0","326O153BMJK441XZIYRSPOBYQFDED2","A1FP3SH704X01V","3OYHVNTV5TKW8EI4DRB99U4E79NKOA","","null","<img src=""img/animal1.png"" style=""width:200px; border:14px solid green;"">","null","","","","","",""
"","image-keyboard-response","291","157462","0.0-291.0","326O153BMJK441XZIYRSPOBYQFDED2","A1FP3SH704X01V","3OYHVNTV5TKW8EI4DRB99U4E79NKOA","","986.5999999940395","img/animal2.png","74","987","1","1","1","1,0.7,0,1,0.7,0,0.7,0,1",""
"","html-keyboard-response","292","157764","0.0-292.0","326O153BMJK441XZIYRSPOBYQFDED2","A1FP3SH704X01V","3OYHVNTV5TKW8EI4DRB99U4E79NKOA","","null","<img src=""img/animal2.png"" style=""width:200px; border:14px solid green;"">","null","","","","","",""
"","image-keyboard-response","293","158536","0.0-293.0","326O153BMJK441XZIYRSPOBYQFDED2","A1FP3SH704X01V","3OYHVNTV5TKW8EI4DRB99U4E79NKOA","","771.9000000059605","img/animal1.png","75","772.4000000059605","2","1","2","1,0.7,0,1,0.7,0,0.7,0,1",""
"","html-keyboard-response","294","158839","0.0-294.0","326O153BMJK441XZIYRSPOBYQFDED2","A1FP3SH704X01V","3OYHVNTV5TKW8EI4DRB99U4E79NKOA","","null","<img src=""img/animal1.png"" style=""width:200px; border:14px solid green;"">","null","","","","","",""
"","image-keyboard-response","295","159175","0.0-295.0","326O153BMJK441XZIYRSPOBYQFDED2","A1FP3SH704X01V","3OYHVNTV5TKW8EI4DRB99U4E79NKOA","","335.09999999403954","img/animal1.png","75","335.7999999821186","2","1","2","1,0.7,0,1,0.7,0,0.7,0,1",""
"","html-keyboard-response","296","159476","0.0-296.0","326O153BMJK441XZIYRSPOBYQFDED2","A1FP3SH704X01V","3OYHVNTV5TKW8EI4DRB99U4E79NKOA","","null","<img src=""img/animal1.png"" style=""width:200px; border:14px solid green;"">","null","","","","","",""
"","image-keyboard-response","297","160143","0.0-297.0","326O153BMJK441XZIYRSPOBYQFDED2","A1FP3SH704X01V","3OYHVNTV5TKW8EI4DRB99U4E79NKOA","","666","img/animal2.png","74","666.5999999940395","1","1","1","1,0.7,0,1,0.7,0,0.7,0,1",""
"","html-keyboard-response","298","160444","0.0-298.0","326O153BMJK441XZIYRSPOBYQFDED2","A1FP3SH704X01V","3OYHVNTV5TKW8EI4DRB99U4E79NKOA","","null","<img src=""img/animal2.png"" style=""width:200px; border:14px solid green;"">","null","","","","","",""
"","image-keyboard-response","299","160737","0.0-299.0","326O153BMJK441XZIYRSPOBYQFDED2","A1FP3SH704X01V","3OYHVNTV5TKW8EI4DRB99U4E79NKOA","","292","img/animal2.png","74","292.40000000596046","1","1","1","1,0.7,0,1,0.7,0,0.7,0,1",""
"","html-keyboard-response","300","161039","0.0-300.0","326O153BMJK441XZIYRSPOBYQFDED2","A1FP3SH704X01V","3OYHVNTV5TKW8EI4DRB99U4E79NKOA","","null","<img src=""img/animal2.png"" style=""width:200px; border:14px solid green;"">","null","","","","","",""
"","image-keyboard-response","301","161349","0.0-301.0","326O153BMJK441XZIYRSPOBYQFDED2","A1FP3SH704X01V","3OYHVNTV5TKW8EI4DRB99U4E79NKOA","","310.30000001192093","img/animal2.png","74","310.80000001192093","1","1","1","1,0.7,0,1,0.7,0,0.7,0,1",""
"","html-keyboard-response","302","161652","0.0-302.0","326O153BMJK441XZIYRSPOBYQFDED2","A1FP3SH704X01V","3OYHVNTV5TKW8EI4DRB99U4E79NKOA","","null","<img src=""img/animal2.png"" style=""width:200px; border:14px solid green;"">","null","","","","","",""
"","image-keyboard-response","303","162121","0.0-303.0","326O153BMJK441XZIYRSPOBYQFDED2","A1FP3SH704X01V","3OYHVNTV5TKW8EI4DRB99U4E79NKOA","","468.90000000596046","img/animal1.png","75","469.30000001192093","2","0","2","1,0.7,0,1,0.7,0,0.7,0,1",""
"","html-keyboard-response","304","162423","0.0-304.0","326O153BMJK441XZIYRSPOBYQFDED2","A1FP3SH704X01V","3OYHVNTV5TKW8EI4DRB99U4E79NKOA","","null","<img src=""img/animal1.png"" style=""width:200px;border:14px solid red;"">","null","","","","","",""
"","image-keyboard-response","305","163176","0.0-305.0","326O153BMJK441XZIYRSPOBYQFDED2","A1FP3SH704X01V","3OYHVNTV5TKW8EI4DRB99U4E79NKOA","","751.9000000059605","img/animal5.png","76","752.3000000119209","3","1","3","1,0.7,0,1,0.7,0,0.7,0,1",""
"","html-keyboard-response","306","163477","0.0-306.0","326O153BMJK441XZIYRSPOBYQFDED2","A1FP3SH704X01V","3OYHVNTV5TKW8EI4DRB99U4E79NKOA","","null","<img src=""img/animal5.png"" style=""width:200px; border:14px solid green;"">","null","","","","","",""
"","image-keyboard-response","307","164020","0.0-307.0","326O153BMJK441XZIYRSPOBYQFDED2","A1FP3SH704X01V","3OYHVNTV5TKW8EI4DRB99U4E79NKOA","","542.9000000059605","img/animal2.png","74","543.3000000119209","1","1","1","1,0.7,0,1,0.7,0,0.7,0,1",""
"","html-keyboard-response","308","164322","0.0-308.0","326O153BMJK441XZIYRSPOBYQFDED2","A1FP3SH704X01V","3OYHVNTV5TKW8EI4DRB99U4E79NKOA","","null","<img src=""img/animal2.png"" style=""width:200px; border:14px solid green;"">","null","","","","","",""
"","image-keyboard-response","309","164759","0.0-309.0","326O153BMJK441XZIYRSPOBYQFDED2","A1FP3SH704X01V","3OYHVNTV5TKW8EI4DRB99U4E79NKOA","","436.5","img/animal5.png","76","437.2000000178814","3","1","3","1,0.7,0,1,0.7,0,0.7,0,1",""
"","html-keyboard-response","310","165062","0.0-310.0","326O153BMJK441XZIYRSPOBYQFDED2","A1FP3SH704X01V","3OYHVNTV5TKW8EI4DRB99U4E79NKOA","","null","<img src=""img/animal5.png"" style=""width:200px; border:14px solid green;"">","null","","","","","",""
"","image-keyboard-response","311","165369","0.0-311.0","326O153BMJK441XZIYRSPOBYQFDED2","A1FP3SH704X01V","3OYHVNTV5TKW8EI4DRB99U4E79NKOA","","306.7999999821186","img/animal5.png","76","307.2000000178814","3","1","3","1,0.7,0,1,0.7,0,0.7,0,1",""
"","html-keyboard-response","312","165670","0.0-312.0","326O153BMJK441XZIYRSPOBYQFDED2","A1FP3SH704X01V","3OYHVNTV5TKW8EI4DRB99U4E79NKOA","","null","<img src=""img/animal5.png"" style=""width:200px; border:14px solid green;"">","null","","","","","",""
"","image-keyboard-response","313","166301","0.0-313.0","326O153BMJK441XZIYRSPOBYQFDED2","A1FP3SH704X01V","3OYHVNTV5TKW8EI4DRB99U4E79NKOA","","630.6999999880791","img/animal1.png","75","631.3000000119209","2","1","2","1,0.7,0,1,0.7,0,0.7,0,1",""
"","html-keyboard-response","314","166617","0.0-314.0","326O153BMJK441XZIYRSPOBYQFDED2","A1FP3SH704X01V","3OYHVNTV5TKW8EI4DRB99U4E79NKOA","","null","<img src=""img/animal1.png"" style=""width:200px; border:14px solid green;"">","null","","","","","",""
"","image-keyboard-response","315","167362","0.0-315.0","326O153BMJK441XZIYRSPOBYQFDED2","A1FP3SH704X01V","3OYHVNTV5TKW8EI4DRB99U4E79NKOA","","744.5999999940395","img/animal5.png","76","745.0999999940395","3","1","3","1,0.7,0,1,0.7,0,0.7,0,1",""
"","html-keyboard-response","316","167664","0.0-316.0","326O153BMJK441XZIYRSPOBYQFDED2","A1FP3SH704X01V","3OYHVNTV5TKW8EI4DRB99U4E79NKOA","","null","<img src=""img/animal5.png"" style=""width:200px; border:14px solid green;"">","null","","","","","",""
"","image-keyboard-response","317","167894","0.0-317.0","326O153BMJK441XZIYRSPOBYQFDED2","A1FP3SH704X01V","3OYHVNTV5TKW8EI4DRB99U4E79NKOA","","229.7999999821186","img/animal1.png","76","230.30000001192093","3","0","2","1,0.7,0,1,0.7,0,0.7,0,1",""
"","html-keyboard-response","318","168196","0.0-318.0","326O153BMJK441XZIYRSPOBYQFDED2","A1FP3SH704X01V","3OYHVNTV5TKW8EI4DRB99U4E79NKOA","","null","<img src=""img/animal1.png"" style=""width:200px;border:14px solid red;"">","null","","","","","",""
"","image-keyboard-response","319","168690","0.0-319.0","326O153BMJK441XZIYRSPOBYQFDED2","A1FP3SH704X01V","3OYHVNTV5TKW8EI4DRB99U4E79NKOA","","492.80000001192093","img/animal1.png","75","493.5","2","1","2","1,0.7,0,1,0.7,0,0.7,0,1",""
"","html-keyboard-response","320","168991","0.0-320.0","326O153BMJK441XZIYRSPOBYQFDED2","A1FP3SH704X01V","3OYHVNTV5TKW8EI4DRB99U4E79NKOA","","null","<img src=""img/animal1.png"" style=""width:200px; border:14px solid green;"">","null","","","","","",""
"","image-keyboard-response","321","170686","0.0-321.0","326O153BMJK441XZIYRSPOBYQFDED2","A1FP3SH704X01V","3OYHVNTV5TKW8EI4DRB99U4E79NKOA","","1695","img/animal5.png","76","1695.5999999940395","3","1","3","1,0.7,0,1,0.7,0,0.7,0,1",""
"","html-keyboard-response","322","170988","0.0-322.0","326O153BMJK441XZIYRSPOBYQFDED2","A1FP3SH704X01V","3OYHVNTV5TKW8EI4DRB99U4E79NKOA","","null","<img src=""img/animal5.png"" style=""width:200px; border:14px solid green;"">","null","","","","","",""
"","image-keyboard-response","323","171557","0.0-323.0","326O153BMJK441XZIYRSPOBYQFDED2","A1FP3SH704X01V","3OYHVNTV5TKW8EI4DRB99U4E79NKOA","","569.0999999940395","img/animal1.png","75","569.5999999940395","2","1","2","1,0.7,0,1,0.7,0,0.7,0,1",""
"","html-keyboard-response","324","171858","0.0-324.0","326O153BMJK441XZIYRSPOBYQFDED2","A1FP3SH704X01V","3OYHVNTV5TKW8EI4DRB99U4E79NKOA","","null","<img src=""img/animal1.png"" style=""width:200px; border:14px solid green;"">","null","","","","","",""
"","image-keyboard-response","325","172160","0.0-325.0","326O153BMJK441XZIYRSPOBYQFDED2","A1FP3SH704X01V","3OYHVNTV5TKW8EI4DRB99U4E79NKOA","","300.59999999403954","img/animal1.png","75","301.30000001192093","2","0","2","1,0.7,0,1,0.7,0,0.7,0,1",""
"","html-keyboard-response","326","172461","0.0-326.0","326O153BMJK441XZIYRSPOBYQFDED2","A1FP3SH704X01V","3OYHVNTV5TKW8EI4DRB99U4E79NKOA","","null","<img src=""img/animal1.png"" style=""width:200px;border:14px solid red;"">","null","","","","","",""
"","image-keyboard-response","327","173063","0.0-327.0","326O153BMJK441XZIYRSPOBYQFDED2","A1FP3SH704X01V","3OYHVNTV5TKW8EI4DRB99U4E79NKOA","","601","img/animal2.png","74","601.5","1","1","1","1,0.7,0,1,0.7,0,0.7,0,1",""
"","html-keyboard-response","328","173366","0.0-328.0","326O153BMJK441XZIYRSPOBYQFDED2","A1FP3SH704X01V","3OYHVNTV5TKW8EI4DRB99U4E79NKOA","","null","<img src=""img/animal2.png"" style=""width:200px; border:14px solid green;"">","null","","","","","",""
"","image-keyboard-response","329","173886","0.0-329.0","326O153BMJK441XZIYRSPOBYQFDED2","A1FP3SH704X01V","3OYHVNTV5TKW8EI4DRB99U4E79NKOA","","519.8000000119209","img/animal5.png","75","520.4000000059605","2","0","3","1,0.7,0,1,0.7,0,0.7,0,1",""
"","html-keyboard-response","330","174189","0.0-330.0","326O153BMJK441XZIYRSPOBYQFDED2","A1FP3SH704X01V","3OYHVNTV5TKW8EI4DRB99U4E79NKOA","","null","<img src=""img/animal5.png"" style=""width:200px;border:14px solid red;"">","null","","","","","",""
"","image-keyboard-response","331","174644","0.0-331.0","326O153BMJK441XZIYRSPOBYQFDED2","A1FP3SH704X01V","3OYHVNTV5TKW8EI4DRB99U4E79NKOA","","455","img/animal2.png","74","455.60000002384186","1","1","1","1,0.7,0,1,0.7,0,0.7,0,1",""
"","html-keyboard-response","332","174946","0.0-332.0","326O153BMJK441XZIYRSPOBYQFDED2","A1FP3SH704X01V","3OYHVNTV5TKW8EI4DRB99U4E79NKOA","","null","<img src=""img/animal2.png"" style=""width:200px; border:14px solid green;"">","null","","","","","",""
"","image-keyboard-response","333","176097","0.0-333.0","326O153BMJK441XZIYRSPOBYQFDED2","A1FP3SH704X01V","3OYHVNTV5TKW8EI4DRB99U4E79NKOA","","1150.0999999940395","img/animal1.png","74","1150.800000011921","1","1","2","1,0.7,0,1,0.7,0,0.7,0,1",""
"","html-keyboard-response","334","176399","0.0-334.0","326O153BMJK441XZIYRSPOBYQFDED2","A1FP3SH704X01V","3OYHVNTV5TKW8EI4DRB99U4E79NKOA","","null","<img src=""img/animal1.png"" style=""width:200px; border:14px solid green;"">","null","","","","","",""
"","image-keyboard-response","335","176762","0.0-335.0","326O153BMJK441XZIYRSPOBYQFDED2","A1FP3SH704X01V","3OYHVNTV5TKW8EI4DRB99U4E79NKOA","","363.09999999403954","img/animal1.png","74","363.5","1","1","2","1,0.7,0,1,0.7,0,0.7,0,1",""
"","html-keyboard-response","336","177064","0.0-336.0","326O153BMJK441XZIYRSPOBYQFDED2","A1FP3SH704X01V","3OYHVNTV5TKW8EI4DRB99U4E79NKOA","","null","<img src=""img/animal1.png"" style=""width:200px; border:14px solid green;"">","null","","","","","",""
"","image-keyboard-response","337","177722","0.0-337.0","326O153BMJK441XZIYRSPOBYQFDED2","A1FP3SH704X01V","3OYHVNTV5TKW8EI4DRB99U4E79NKOA","","657.2000000178814","img/animal5.png","75","657.5999999940395","2","0","3","1,0.7,0,1,0.7,0,0.7,0,1",""
"","html-keyboard-response","338","178022","0.0-338.0","326O153BMJK441XZIYRSPOBYQFDED2","A1FP3SH704X01V","3OYHVNTV5TKW8EI4DRB99U4E79NKOA","","null","<img src=""img/animal5.png"" style=""width:200px;border:14px solid red;"">","null","","","","","",""
"","image-keyboard-response","339","178664","0.0-339.0","326O153BMJK441XZIYRSPOBYQFDED2","A1FP3SH704X01V","3OYHVNTV5TKW8EI4DRB99U4E79NKOA","","641.2999999821186","img/animal2.png","74","641.8000000119209","1","1","1","1,0.7,0,1,0.7,0,0.7,0,1",""
"","html-keyboard-response","340","178966","0.0-340.0","326O153BMJK441XZIYRSPOBYQFDED2","A1FP3SH704X01V","3OYHVNTV5TKW8EI4DRB99U4E79NKOA","","null","<img src=""img/animal2.png"" style=""width:200px; border:14px solid green;"">","null","","","","","",""
"","image-keyboard-response","341","179276","0.0-341.0","326O153BMJK441XZIYRSPOBYQFDED2","A1FP3SH704X01V","3OYHVNTV5TKW8EI4DRB99U4E79NKOA","","309.5","img/animal5.png","74","309.80000001192093","1","1","3","1,0.7,0,1,0.7,0,0.7,0,1",""
"","html-keyboard-response","342","179578","0.0-342.0","326O153BMJK441XZIYRSPOBYQFDED2","A1FP3SH704X01V","3OYHVNTV5TKW8EI4DRB99U4E79NKOA","","null","<img src=""img/animal5.png"" style=""width:200px; border:14px solid green;"">","null","","","","","",""
"","image-keyboard-response","343","179993","0.0-343.0","326O153BMJK441XZIYRSPOBYQFDED2","A1FP3SH704X01V","3OYHVNTV5TKW8EI4DRB99U4E79NKOA","","414.5","img/animal2.png","74","415","1","1","1","1,0.7,0,1,0.7,0,0.7,0,1",""
"","html-keyboard-response","344","180295","0.0-344.0","326O153BMJK441XZIYRSPOBYQFDED2","A1FP3SH704X01V","3OYHVNTV5TKW8EI4DRB99U4E79NKOA","","null","<img src=""img/animal2.png"" style=""width:200px; border:14px solid green;"">","null","","","","","",""
"","image-keyboard-response","345","180691","0.0-345.0","326O153BMJK441XZIYRSPOBYQFDED2","A1FP3SH704X01V","3OYHVNTV5TKW8EI4DRB99U4E79NKOA","","395.40000000596046","img/animal2.png","74","395.90000000596046","1","1","1","1,0.7,0,1,0.7,0,0.7,0,1",""
"","html-keyboard-response","346","180992","0.0-346.0","326O153BMJK441XZIYRSPOBYQFDED2","A1FP3SH704X01V","3OYHVNTV5TKW8EI4DRB99U4E79NKOA","","null","<img src=""img/animal2.png"" style=""width:200px; border:14px solid green;"">","null","","","","","",""
"","image-keyboard-response","347","181331","0.0-347.0","326O153BMJK441XZIYRSPOBYQFDED2","A1FP3SH704X01V","3OYHVNTV5TKW8EI4DRB99U4E79NKOA","","337.59999999403954","img/animal2.png","74","338.19999998807907","1","1","1","1,0.7,0,1,0.7,0,0.7,0,1",""
"","html-keyboard-response","348","181632","0.0-348.0","326O153BMJK441XZIYRSPOBYQFDED2","A1FP3SH704X01V","3OYHVNTV5TKW8EI4DRB99U4E79NKOA","","null","<img src=""img/animal2.png"" style=""width:200px; border:14px solid green;"">","null","","","","","",""
"","image-keyboard-response","349","181936","0.0-349.0","326O153BMJK441XZIYRSPOBYQFDED2","A1FP3SH704X01V","3OYHVNTV5TKW8EI4DRB99U4E79NKOA","","303.5","img/animal2.png","74","304.09999999403954","1","1","1","1,0.7,0,1,0.7,0,0.7,0,1",""
"","html-keyboard-response","350","182245","0.0-350.0","326O153BMJK441XZIYRSPOBYQFDED2","A1FP3SH704X01V","3OYHVNTV5TKW8EI4DRB99U4E79NKOA","","null","<img src=""img/animal2.png"" style=""width:200px; border:14px solid green;"">","null","","","","","",""
"","image-keyboard-response","351","183239","0.0-351.0","326O153BMJK441XZIYRSPOBYQFDED2","A1FP3SH704X01V","3OYHVNTV5TKW8EI4DRB99U4E79NKOA","","992.8000000119209","img/animal1.png","75","993.3999999761581","2","1","2","1,0.7,0,1,0.7,0,0.7,0,1",""
"","html-keyboard-response","352","183540","0.0-352.0","326O153BMJK441XZIYRSPOBYQFDED2","A1FP3SH704X01V","3OYHVNTV5TKW8EI4DRB99U4E79NKOA","","null","<img src=""img/animal1.png"" style=""width:200px; border:14px solid green;"">","null","","","","","",""
"","image-keyboard-response","353","184720","0.0-353.0","326O153BMJK441XZIYRSPOBYQFDED2","A1FP3SH704X01V","3OYHVNTV5TKW8EI4DRB99U4E79NKOA","","1179.5","img/animal2.png","74","1180","1","1","1","1,0.7,0,1,0.7,0,0.7,0,1",""
"","html-keyboard-response","354","185022","0.0-354.0","326O153BMJK441XZIYRSPOBYQFDED2","A1FP3SH704X01V","3OYHVNTV5TKW8EI4DRB99U4E79NKOA","","null","<img src=""img/animal2.png"" style=""width:200px; border:14px solid green;"">","null","","","","","",""
"","image-keyboard-response","355","185778","0.0-355.0","326O153BMJK441XZIYRSPOBYQFDED2","A1FP3SH704X01V","3OYHVNTV5TKW8EI4DRB99U4E79NKOA","","754.6999999880791","img/animal5.png","76","755.5","3","1","3","1,0.7,0,1,0.7,0,0.7,0,1",""
"","html-keyboard-response","356","186079","0.0-356.0","326O153BMJK441XZIYRSPOBYQFDED2","A1FP3SH704X01V","3OYHVNTV5TKW8EI4DRB99U4E79NKOA","","null","<img src=""img/animal5.png"" style=""width:200px; border:14px solid green;"">","null","","","","","",""
"","image-keyboard-response","357","189572","0.0-357.0","326O153BMJK441XZIYRSPOBYQFDED2","A1FP3SH704X01V","3OYHVNTV5TKW8EI4DRB99U4E79NKOA","","3492.899999976158","img/animal5.png","76","3493.4000000059605","3","1","3","1,0.7,0,1,0.7,0,0.7,0,1",""
"","html-keyboard-response","358","189874","0.0-358.0","326O153BMJK441XZIYRSPOBYQFDED2","A1FP3SH704X01V","3OYHVNTV5TKW8EI4DRB99U4E79NKOA","","null","<img src=""img/animal5.png"" style=""width:200px; border:14px solid green;"">","null","","","","","",""
"","image-keyboard-response","359","190379","0.0-359.0","326O153BMJK441XZIYRSPOBYQFDED2","A1FP3SH704X01V","3OYHVNTV5TKW8EI4DRB99U4E79NKOA","","504.59999999403954","img/animal5.png","76","505.2000000178814","3","1","3","1,0.7,0,1,0.7,0,0.7,0,1",""
"","html-keyboard-response","360","190680","0.0-360.0","326O153BMJK441XZIYRSPOBYQFDED2","A1FP3SH704X01V","3OYHVNTV5TKW8EI4DRB99U4E79NKOA","","null","<img src=""img/animal5.png"" style=""width:200px; border:14px solid green;"">","null","","","","","",""
"","image-keyboard-response","361","191098","0.0-361.0","326O153BMJK441XZIYRSPOBYQFDED2","A1FP3SH704X01V","3OYHVNTV5TKW8EI4DRB99U4E79NKOA","","416.7999999821186","img/animal5.png","76","417.5","3","1","3","1,0.7,0,1,0.7,0,0.7,0,1",""
"","html-keyboard-response","362","191399","0.0-362.0","326O153BMJK441XZIYRSPOBYQFDED2","A1FP3SH704X01V","3OYHVNTV5TKW8EI4DRB99U4E79NKOA","","null","<img src=""img/animal5.png"" style=""width:200px; border:14px solid green;"">","null","","","","","",""
"","instructions","363","193435","0.0-363.0","326O153BMJK441XZIYRSPOBYQFDED2","A1FP3SH704X01V","3OYHVNTV5TKW8EI4DRB99U4E79NKOA","[{""page_index"":0,""viewing_time"":2035.4000000059605}]","2035.5","","","","","","","",""
"","survey-text","364","198085","0.0-364.0","326O153BMJK441XZIYRSPOBYQFDED2","A1FP3SH704X01V","3OYHVNTV5TKW8EI4DRB99U4E79NKOA","","4648.0999999940395","","","","","","","","{""Q0"":""A1FP3SH704X01V""}"
