"success","trial_type","trial_index","time_elapsed","internal_node_id","assignmentID","mturkID","hitID","view_history","rt","stimulus","key_press","reactionTime","chosenAction","reward","responses"
"true","fullscreen","0","2441","0.0-0.0","34X6J5FLPUK64QNW1L83M3VPBP3QJG","A1G187YBG0DVMQ","3LN3BXKGC0HZB1VNEMH4SWP73O3GW1","","","","","","","",""
"","instructions","1","29136","0.0-1.0","34X6J5FLPUK64QNW1L83M3VPBP3QJG","A1G187YBG0DVMQ","3LN3BXKGC0HZB1VNEMH4SWP73O3GW1","[{""page_index"":0,""viewing_time"":8625.199999809265},{""page_index"":1,""viewing_time"":3849.5},{""page_index"":2,""viewing_time"":1632.5999999046326},{""page_index"":3,""viewing_time"":2600.300000190735},{""page_index"":4,""viewing_time"":1533.5999999046326},{""page_index"":5,""viewing_time"":5132.699999809265},{""page_index"":6,""viewing_time"":2400.9000000953674},{""page_index"":7,""viewing_time"":916.0999999046326}]","26692.299999713898","","","","","",""
"","image-keyboard-response","2","30098","0.0-2.0","34X6J5FLPUK64QNW1L83M3VPBP3QJG","A1G187YBG0DVMQ","3LN3BXKGC0HZB1VNEMH4SWP73O3GW1","","959","img/animal3.png","74","961.1000003814697","74","1",""
"","html-keyboard-response","3","30408","0.0-3.0","34X6J5FLPUK64QNW1L83M3VPBP3QJG","A1G187YBG0DVMQ","3LN3BXKGC0HZB1VNEMH4SWP73O3GW1","","null","<img src=""img/animal3.png"" style=""width:200px; border:14px solid green;"">","null","","","",""
"","image-keyboard-response","4","31163","0.0-4.0","34X6J5FLPUK64QNW1L83M3VPBP3QJG","A1G187YBG0DVMQ","3LN3BXKGC0HZB1VNEMH4SWP73O3GW1","","752.4000000953674","img/animal2.png","75","754.3000001907349","75","0",""
"","html-keyboard-response","5","31472","0.0-5.0","34X6J5FLPUK64QNW1L83M3VPBP3QJG","A1G187YBG0DVMQ","3LN3BXKGC0HZB1VNEMH4SWP73O3GW1","","null","<img src=""img/animal2.png"" style=""width:200px;border:14px solid red;"">","null","","","",""
"","image-keyboard-response","6","31945","0.0-6.0","34X6J5FLPUK64QNW1L83M3VPBP3QJG","A1G187YBG0DVMQ","3LN3BXKGC0HZB1VNEMH4SWP73O3GW1","","470.5","img/animal3.png","74","472.30000019073486","74","0",""
"","html-keyboard-response","7","32256","0.0-7.0","34X6J5FLPUK64QNW1L83M3VPBP3QJG","A1G187YBG0DVMQ","3LN3BXKGC0HZB1VNEMH4SWP73O3GW1","","null","<img src=""img/animal3.png"" style=""width:200px;border:14px solid red;"">","null","","","",""
"","image-keyboard-response","8","32620","0.0-8.0","34X6J5FLPUK64QNW1L83M3VPBP3QJG","A1G187YBG0DVMQ","3LN3BXKGC0HZB1VNEMH4SWP73O3GW1","","362.09999990463257","img/animal3.png","74","363.7999997138977","74","1",""
"","html-keyboard-response","9","32929","0.0-9.0","34X6J5FLPUK64QNW1L83M3VPBP3QJG","A1G187YBG0DVMQ","3LN3BXKGC0HZB1VNEMH4SWP73O3GW1","","null","<img src=""img/animal3.png"" style=""width:200px; border:14px solid green;"">","null","","","",""
"","image-keyboard-response","10","33487","0.0-10.0","34X6J5FLPUK64QNW1L83M3VPBP3QJG","A1G187YBG0DVMQ","3LN3BXKGC0HZB1VNEMH4SWP73O3GW1","","555.5","img/animal5.png","76","557.5","76","0",""
"","html-keyboard-response","11","33792","0.0-11.0","34X6J5FLPUK64QNW1L83M3VPBP3QJG","A1G187YBG0DVMQ","3LN3BXKGC0HZB1VNEMH4SWP73O3GW1","","null","<img src=""img/animal5.png"" style=""width:200px;border:14px solid red;"">","null","","","",""
"","image-keyboard-response","12","34349","0.0-12.0","34X6J5FLPUK64QNW1L83M3VPBP3QJG","A1G187YBG0DVMQ","3LN3BXKGC0HZB1VNEMH4SWP73O3GW1","","554.7000002861023","img/animal3.png","74","556.6000003814697","74","0",""
"","html-keyboard-response","13","34656","0.0-13.0","34X6J5FLPUK64QNW1L83M3VPBP3QJG","A1G187YBG0DVMQ","3LN3BXKGC0HZB1VNEMH4SWP73O3GW1","","null","<img src=""img/animal3.png"" style=""width:200px;border:14px solid red;"">","null","","","",""
"","image-keyboard-response","14","35434","0.0-14.0","34X6J5FLPUK64QNW1L83M3VPBP3QJG","A1G187YBG0DVMQ","3LN3BXKGC0HZB1VNEMH4SWP73O3GW1","","776","img/animal5.png","75","777.8000001907349","75","1",""
"","html-keyboard-response","15","35744","0.0-15.0","34X6J5FLPUK64QNW1L83M3VPBP3QJG","A1G187YBG0DVMQ","3LN3BXKGC0HZB1VNEMH4SWP73O3GW1","","null","<img src=""img/animal5.png"" style=""width:200px; border:14px solid green;"">","null","","","",""
"","image-keyboard-response","16","36241","0.0-16.0","34X6J5FLPUK64QNW1L83M3VPBP3QJG","A1G187YBG0DVMQ","3LN3BXKGC0HZB1VNEMH4SWP73O3GW1","","495.19999980926514","img/animal3.png","74","497.09999990463257","74","1",""
"","html-keyboard-response","17","36552","0.0-17.0","34X6J5FLPUK64QNW1L83M3VPBP3QJG","A1G187YBG0DVMQ","3LN3BXKGC0HZB1VNEMH4SWP73O3GW1","","null","<img src=""img/animal3.png"" style=""width:200px; border:14px solid green;"">","null","","","",""
"","image-keyboard-response","18","37011","0.0-18.0","34X6J5FLPUK64QNW1L83M3VPBP3QJG","A1G187YBG0DVMQ","3LN3BXKGC0HZB1VNEMH4SWP73O3GW1","","457.09999990463257","img/animal5.png","75","458.90000009536743","75","0",""
"","html-keyboard-response","19","37320","0.0-19.0","34X6J5FLPUK64QNW1L83M3VPBP3QJG","A1G187YBG0DVMQ","3LN3BXKGC0HZB1VNEMH4SWP73O3GW1","","null","<img src=""img/animal5.png"" style=""width:200px;border:14px solid red;"">","null","","","",""
"","image-keyboard-response","20","37740","0.0-20.0","34X6J5FLPUK64QNW1L83M3VPBP3QJG","A1G187YBG0DVMQ","3LN3BXKGC0HZB1VNEMH4SWP73O3GW1","","417.6000003814697","img/animal5.png","75","419.59999990463257","75","1",""
"","html-keyboard-response","21","38048","0.0-21.0","34X6J5FLPUK64QNW1L83M3VPBP3QJG","A1G187YBG0DVMQ","3LN3BXKGC0HZB1VNEMH4SWP73O3GW1","","null","<img src=""img/animal5.png"" style=""width:200px; border:14px solid green;"">","null","","","",""
"","image-keyboard-response","22","38440","0.0-22.0","34X6J5FLPUK64QNW1L83M3VPBP3QJG","A1G187YBG0DVMQ","3LN3BXKGC0HZB1VNEMH4SWP73O3GW1","","389.7999997138977","img/animal5.png","75","391.5","75","0",""
"","html-keyboard-response","23","38744","0.0-23.0","34X6J5FLPUK64QNW1L83M3VPBP3QJG","A1G187YBG0DVMQ","3LN3BXKGC0HZB1VNEMH4SWP73O3GW1","","null","<img src=""img/animal5.png"" style=""width:200px;border:14px solid red;"">","null","","","",""
"","image-keyboard-response","24","39074","0.0-24.0","34X6J5FLPUK64QNW1L83M3VPBP3QJG","A1G187YBG0DVMQ","3LN3BXKGC0HZB1VNEMH4SWP73O3GW1","","328.2000002861023","img/animal5.png","75","329.7999997138977","75","0",""
"","html-keyboard-response","25","39384","0.0-25.0","34X6J5FLPUK64QNW1L83M3VPBP3QJG","A1G187YBG0DVMQ","3LN3BXKGC0HZB1VNEMH4SWP73O3GW1","","null","<img src=""img/animal5.png"" style=""width:200px;border:14px solid red;"">","null","","","",""
"","image-keyboard-response","26","39708","0.0-26.0","34X6J5FLPUK64QNW1L83M3VPBP3QJG","A1G187YBG0DVMQ","3LN3BXKGC0HZB1VNEMH4SWP73O3GW1","","321.5","img/animal5.png","75","323.09999990463257","75","1",""
"","html-keyboard-response","27","40016","0.0-27.0","34X6J5FLPUK64QNW1L83M3VPBP3QJG","A1G187YBG0DVMQ","3LN3BXKGC0HZB1VNEMH4SWP73O3GW1","","null","<img src=""img/animal5.png"" style=""width:200px; border:14px solid green;"">","null","","","",""
"","image-keyboard-response","28","40568","0.0-28.0","34X6J5FLPUK64QNW1L83M3VPBP3QJG","A1G187YBG0DVMQ","3LN3BXKGC0HZB1VNEMH4SWP73O3GW1","","549.8000001907349","img/animal3.png","74","551.5","74","0",""
"","html-keyboard-response","29","40871","0.0-29.0","34X6J5FLPUK64QNW1L83M3VPBP3QJG","A1G187YBG0DVMQ","3LN3BXKGC0HZB1VNEMH4SWP73O3GW1","","null","<img src=""img/animal3.png"" style=""width:200px;border:14px solid red;"">","null","","","",""
"","image-keyboard-response","30","41591","0.0-30.0","34X6J5FLPUK64QNW1L83M3VPBP3QJG","A1G187YBG0DVMQ","3LN3BXKGC0HZB1VNEMH4SWP73O3GW1","","717.8999996185303","img/animal2.png","76","719.5999999046326","76","1",""
"","html-keyboard-response","31","41896","0.0-31.0","34X6J5FLPUK64QNW1L83M3VPBP3QJG","A1G187YBG0DVMQ","3LN3BXKGC0HZB1VNEMH4SWP73O3GW1","","null","<img src=""img/animal2.png"" style=""width:200px; border:14px solid green;"">","null","","","",""
"","image-keyboard-response","32","42406","0.0-32.0","34X6J5FLPUK64QNW1L83M3VPBP3QJG","A1G187YBG0DVMQ","3LN3BXKGC0HZB1VNEMH4SWP73O3GW1","","507","img/animal3.png","74","509","74","1",""
"","html-keyboard-response","33","42712","0.0-33.0","34X6J5FLPUK64QNW1L83M3VPBP3QJG","A1G187YBG0DVMQ","3LN3BXKGC0HZB1VNEMH4SWP73O3GW1","","null","<img src=""img/animal3.png"" style=""width:200px; border:14px solid green;"">","null","","","",""
"","image-keyboard-response","34","43279","0.0-34.0","34X6J5FLPUK64QNW1L83M3VPBP3QJG","A1G187YBG0DVMQ","3LN3BXKGC0HZB1VNEMH4SWP73O3GW1","","565.2999997138977","img/animal5.png","75","567","75","1",""
"","html-keyboard-response","35","43584","0.0-35.0","34X6J5FLPUK64QNW1L83M3VPBP3QJG","A1G187YBG0DVMQ","3LN3BXKGC0HZB1VNEMH4SWP73O3GW1","","null","<img src=""img/animal5.png"" style=""width:200px; border:14px solid green;"">","null","","","",""
"","image-keyboard-response","36","44024","0.0-36.0","34X6J5FLPUK64QNW1L83M3VPBP3QJG","A1G187YBG0DVMQ","3LN3BXKGC0HZB1VNEMH4SWP73O3GW1","","437.59999990463257","img/animal5.png","75","439.09999990463257","75","1",""
"","html-keyboard-response","37","44328","0.0-37.0","34X6J5FLPUK64QNW1L83M3VPBP3QJG","A1G187YBG0DVMQ","3LN3BXKGC0HZB1VNEMH4SWP73O3GW1","","null","<img src=""img/animal5.png"" style=""width:200px; border:14px solid green;"">","null","","","",""
"","image-keyboard-response","38","44918","0.0-38.0","34X6J5FLPUK64QNW1L83M3VPBP3QJG","A1G187YBG0DVMQ","3LN3BXKGC0HZB1VNEMH4SWP73O3GW1","","588.2999997138977","img/animal3.png","74","590.2000002861023","74","0",""
"","html-keyboard-response","39","45224","0.0-39.0","34X6J5FLPUK64QNW1L83M3VPBP3QJG","A1G187YBG0DVMQ","3LN3BXKGC0HZB1VNEMH4SWP73O3GW1","","null","<img src=""img/animal3.png"" style=""width:200px;border:14px solid red;"">","null","","","",""
"","image-keyboard-response","40","45873","0.0-40.0","34X6J5FLPUK64QNW1L83M3VPBP3QJG","A1G187YBG0DVMQ","3LN3BXKGC0HZB1VNEMH4SWP73O3GW1","","647.0999999046326","img/animal2.png","76","648.7999997138977","76","0",""
"","html-keyboard-response","41","46184","0.0-41.0","34X6J5FLPUK64QNW1L83M3VPBP3QJG","A1G187YBG0DVMQ","3LN3BXKGC0HZB1VNEMH4SWP73O3GW1","","null","<img src=""img/animal2.png"" style=""width:200px;border:14px solid red;"">","null","","","",""
"","image-keyboard-response","42","46701","0.0-42.0","34X6J5FLPUK64QNW1L83M3VPBP3QJG","A1G187YBG0DVMQ","3LN3BXKGC0HZB1VNEMH4SWP73O3GW1","","515.5999999046326","img/animal3.png","74","516.8999996185303","74","1",""
"","html-keyboard-response","43","47007","0.0-43.0","34X6J5FLPUK64QNW1L83M3VPBP3QJG","A1G187YBG0DVMQ","3LN3BXKGC0HZB1VNEMH4SWP73O3GW1","","null","<img src=""img/animal3.png"" style=""width:200px; border:14px solid green;"">","null","","","",""
"","image-keyboard-response","44","47390","0.0-44.0","34X6J5FLPUK64QNW1L83M3VPBP3QJG","A1G187YBG0DVMQ","3LN3BXKGC0HZB1VNEMH4SWP73O3GW1","","381","img/animal3.png","74","382.69999980926514","74","0",""
"","html-keyboard-response","45","47695","0.0-45.0","34X6J5FLPUK64QNW1L83M3VPBP3QJG","A1G187YBG0DVMQ","3LN3BXKGC0HZB1VNEMH4SWP73O3GW1","","null","<img src=""img/animal3.png"" style=""width:200px;border:14px solid red;"">","null","","","",""
"","image-keyboard-response","46","48312","0.0-46.0","34X6J5FLPUK64QNW1L83M3VPBP3QJG","A1G187YBG0DVMQ","3LN3BXKGC0HZB1VNEMH4SWP73O3GW1","","614.3000001907349","img/animal2.png","76","615.9000000953674","76","1",""
"","html-keyboard-response","47","48616","0.0-47.0","34X6J5FLPUK64QNW1L83M3VPBP3QJG","A1G187YBG0DVMQ","3LN3BXKGC0HZB1VNEMH4SWP73O3GW1","","null","<img src=""img/animal2.png"" style=""width:200px; border:14px solid green;"">","null","","","",""
"","image-keyboard-response","48","49101","0.0-48.0","34X6J5FLPUK64QNW1L83M3VPBP3QJG","A1G187YBG0DVMQ","3LN3BXKGC0HZB1VNEMH4SWP73O3GW1","","483.6000003814697","img/animal3.png","74","485.30000019073486","74","1",""
"","html-keyboard-response","49","49408","0.0-49.0","34X6J5FLPUK64QNW1L83M3VPBP3QJG","A1G187YBG0DVMQ","3LN3BXKGC0HZB1VNEMH4SWP73O3GW1","","null","<img src=""img/animal3.png"" style=""width:200px; border:14px solid green;"">","null","","","",""
"","image-keyboard-response","50","49755","0.0-50.0","34X6J5FLPUK64QNW1L83M3VPBP3QJG","A1G187YBG0DVMQ","3LN3BXKGC0HZB1VNEMH4SWP73O3GW1","","346.30000019073486","img/animal3.png","74","347.30000019073486","74","0",""
"","html-keyboard-response","51","50063","0.0-51.0","34X6J5FLPUK64QNW1L83M3VPBP3QJG","A1G187YBG0DVMQ","3LN3BXKGC0HZB1VNEMH4SWP73O3GW1","","null","<img src=""img/animal3.png"" style=""width:200px;border:14px solid red;"">","null","","","",""
"","image-keyboard-response","52","50784","0.0-52.0","34X6J5FLPUK64QNW1L83M3VPBP3QJG","A1G187YBG0DVMQ","3LN3BXKGC0HZB1VNEMH4SWP73O3GW1","","718.5","img/animal5.png","75","719.9000000953674","75","0",""
"","html-keyboard-response","53","51088","0.0-53.0","34X6J5FLPUK64QNW1L83M3VPBP3QJG","A1G187YBG0DVMQ","3LN3BXKGC0HZB1VNEMH4SWP73O3GW1","","null","<img src=""img/animal5.png"" style=""width:200px;border:14px solid red;"">","null","","","",""
"","image-keyboard-response","54","51601","0.0-54.0","34X6J5FLPUK64QNW1L83M3VPBP3QJG","A1G187YBG0DVMQ","3LN3BXKGC0HZB1VNEMH4SWP73O3GW1","","510.90000009536743","img/animal3.png","74","512.8000001907349","74","1",""
"","html-keyboard-response","55","51912","0.0-55.0","34X6J5FLPUK64QNW1L83M3VPBP3QJG","A1G187YBG0DVMQ","3LN3BXKGC0HZB1VNEMH4SWP73O3GW1","","null","<img src=""img/animal3.png"" style=""width:200px; border:14px solid green;"">","null","","","",""
"","image-keyboard-response","56","52294","0.0-56.0","34X6J5FLPUK64QNW1L83M3VPBP3QJG","A1G187YBG0DVMQ","3LN3BXKGC0HZB1VNEMH4SWP73O3GW1","","379.2000002861023","img/animal3.png","74","381.19999980926514","74","0",""
"","html-keyboard-response","57","52600","0.0-57.0","34X6J5FLPUK64QNW1L83M3VPBP3QJG","A1G187YBG0DVMQ","3LN3BXKGC0HZB1VNEMH4SWP73O3GW1","","null","<img src=""img/animal3.png"" style=""width:200px;border:14px solid red;"">","null","","","",""
"","image-keyboard-response","58","53271","0.0-58.0","34X6J5FLPUK64QNW1L83M3VPBP3QJG","A1G187YBG0DVMQ","3LN3BXKGC0HZB1VNEMH4SWP73O3GW1","","669.2000002861023","img/animal2.png","76","671.1999998092651","76","1",""
"","html-keyboard-response","59","53576","0.0-59.0","34X6J5FLPUK64QNW1L83M3VPBP3QJG","A1G187YBG0DVMQ","3LN3BXKGC0HZB1VNEMH4SWP73O3GW1","","null","<img src=""img/animal2.png"" style=""width:200px; border:14px solid green;"">","null","","","",""
"","image-keyboard-response","60","54329","0.0-60.0","34X6J5FLPUK64QNW1L83M3VPBP3QJG","A1G187YBG0DVMQ","3LN3BXKGC0HZB1VNEMH4SWP73O3GW1","","751.2000002861023","img/animal5.png","75","753.0999999046326","75","1",""
"","html-keyboard-response","61","54639","0.0-61.0","34X6J5FLPUK64QNW1L83M3VPBP3QJG","A1G187YBG0DVMQ","3LN3BXKGC0HZB1VNEMH4SWP73O3GW1","","null","<img src=""img/animal5.png"" style=""width:200px; border:14px solid green;"">","null","","","",""
"","image-keyboard-response","62","55386","0.0-62.0","34X6J5FLPUK64QNW1L83M3VPBP3QJG","A1G187YBG0DVMQ","3LN3BXKGC0HZB1VNEMH4SWP73O3GW1","","744.7999997138977","img/animal2.png","76","746.4000000953674","76","1",""
"","html-keyboard-response","63","55695","0.0-63.0","34X6J5FLPUK64QNW1L83M3VPBP3QJG","A1G187YBG0DVMQ","3LN3BXKGC0HZB1VNEMH4SWP73O3GW1","","null","<img src=""img/animal2.png"" style=""width:200px; border:14px solid green;"">","null","","","",""
"","image-keyboard-response","64","56064","0.0-64.0","34X6J5FLPUK64QNW1L83M3VPBP3QJG","A1G187YBG0DVMQ","3LN3BXKGC0HZB1VNEMH4SWP73O3GW1","","366.5","img/animal2.png","76","368.2000002861023","76","1",""
"","html-keyboard-response","65","56367","0.0-65.0","34X6J5FLPUK64QNW1L83M3VPBP3QJG","A1G187YBG0DVMQ","3LN3BXKGC0HZB1VNEMH4SWP73O3GW1","","null","<img src=""img/animal2.png"" style=""width:200px; border:14px solid green;"">","null","","","",""
"","image-keyboard-response","66","57119","0.0-66.0","34X6J5FLPUK64QNW1L83M3VPBP3QJG","A1G187YBG0DVMQ","3LN3BXKGC0HZB1VNEMH4SWP73O3GW1","","749.8999996185303","img/animal5.png","75","751.5999999046326","75","1",""
"","html-keyboard-response","67","57424","0.0-67.0","34X6J5FLPUK64QNW1L83M3VPBP3QJG","A1G187YBG0DVMQ","3LN3BXKGC0HZB1VNEMH4SWP73O3GW1","","null","<img src=""img/animal5.png"" style=""width:200px; border:14px solid green;"">","null","","","",""
"","image-keyboard-response","68","57950","0.0-68.0","34X6J5FLPUK64QNW1L83M3VPBP3QJG","A1G187YBG0DVMQ","3LN3BXKGC0HZB1VNEMH4SWP73O3GW1","","524.7000002861023","img/animal2.png","76","526.2000002861023","76","1",""
"","html-keyboard-response","69","58256","0.0-69.0","34X6J5FLPUK64QNW1L83M3VPBP3QJG","A1G187YBG0DVMQ","3LN3BXKGC0HZB1VNEMH4SWP73O3GW1","","null","<img src=""img/animal2.png"" style=""width:200px; border:14px solid green;"">","null","","","",""
"","image-keyboard-response","70","58626","0.0-70.0","34X6J5FLPUK64QNW1L83M3VPBP3QJG","A1G187YBG0DVMQ","3LN3BXKGC0HZB1VNEMH4SWP73O3GW1","","368.6000003814697","img/animal2.png","76","370.2000002861023","76","1",""
"","html-keyboard-response","71","58936","0.0-71.0","34X6J5FLPUK64QNW1L83M3VPBP3QJG","A1G187YBG0DVMQ","3LN3BXKGC0HZB1VNEMH4SWP73O3GW1","","null","<img src=""img/animal2.png"" style=""width:200px; border:14px solid green;"">","null","","","",""
"","image-keyboard-response","72","59519","0.0-72.0","34X6J5FLPUK64QNW1L83M3VPBP3QJG","A1G187YBG0DVMQ","3LN3BXKGC0HZB1VNEMH4SWP73O3GW1","","581.8000001907349","img/animal3.png","74","583.5999999046326","74","1",""
"","html-keyboard-response","73","59824","0.0-73.0","34X6J5FLPUK64QNW1L83M3VPBP3QJG","A1G187YBG0DVMQ","3LN3BXKGC0HZB1VNEMH4SWP73O3GW1","","null","<img src=""img/animal3.png"" style=""width:200px; border:14px solid green;"">","null","","","",""
"","image-keyboard-response","74","60446","0.0-74.0","34X6J5FLPUK64QNW1L83M3VPBP3QJG","A1G187YBG0DVMQ","3LN3BXKGC0HZB1VNEMH4SWP73O3GW1","","619.9000000953674","img/animal2.png","76","621.5999999046326","76","1",""
"","html-keyboard-response","75","60752","0.0-75.0","34X6J5FLPUK64QNW1L83M3VPBP3QJG","A1G187YBG0DVMQ","3LN3BXKGC0HZB1VNEMH4SWP73O3GW1","","null","<img src=""img/animal2.png"" style=""width:200px; border:14px solid green;"">","null","","","",""
"","image-keyboard-response","76","61133","0.0-76.0","34X6J5FLPUK64QNW1L83M3VPBP3QJG","A1G187YBG0DVMQ","3LN3BXKGC0HZB1VNEMH4SWP73O3GW1","","379.5","img/animal2.png","76","381.40000009536743","76","0",""
"","html-keyboard-response","77","61440","0.0-77.0","34X6J5FLPUK64QNW1L83M3VPBP3QJG","A1G187YBG0DVMQ","3LN3BXKGC0HZB1VNEMH4SWP73O3GW1","","null","<img src=""img/animal2.png"" style=""width:200px;border:14px solid red;"">","null","","","",""
"","image-keyboard-response","78","62041","0.0-78.0","34X6J5FLPUK64QNW1L83M3VPBP3QJG","A1G187YBG0DVMQ","3LN3BXKGC0HZB1VNEMH4SWP73O3GW1","","598.8000001907349","img/animal3.png","74","600.7000002861023","74","1",""
"","html-keyboard-response","79","62352","0.0-79.0","34X6J5FLPUK64QNW1L83M3VPBP3QJG","A1G187YBG0DVMQ","3LN3BXKGC0HZB1VNEMH4SWP73O3GW1","","null","<img src=""img/animal3.png"" style=""width:200px; border:14px solid green;"">","null","","","",""
"","image-keyboard-response","80","62753","0.0-80.0","34X6J5FLPUK64QNW1L83M3VPBP3QJG","A1G187YBG0DVMQ","3LN3BXKGC0HZB1VNEMH4SWP73O3GW1","","398.90000009536743","img/animal3.png","74","400.59999990463257","74","1",""
"","html-keyboard-response","81","63063","0.0-81.0","34X6J5FLPUK64QNW1L83M3VPBP3QJG","A1G187YBG0DVMQ","3LN3BXKGC0HZB1VNEMH4SWP73O3GW1","","null","<img src=""img/animal3.png"" style=""width:200px; border:14px solid green;"">","null","","","",""
"","image-keyboard-response","82","63737","0.0-82.0","34X6J5FLPUK64QNW1L83M3VPBP3QJG","A1G187YBG0DVMQ","3LN3BXKGC0HZB1VNEMH4SWP73O3GW1","","671.9000000953674","img/animal5.png","75","673.6000003814697","75","0",""
"","html-keyboard-response","83","64047","0.0-83.0","34X6J5FLPUK64QNW1L83M3VPBP3QJG","A1G187YBG0DVMQ","3LN3BXKGC0HZB1VNEMH4SWP73O3GW1","","null","<img src=""img/animal5.png"" style=""width:200px;border:14px solid red;"">","null","","","",""
"","image-keyboard-response","84","64507","0.0-84.0","34X6J5FLPUK64QNW1L83M3VPBP3QJG","A1G187YBG0DVMQ","3LN3BXKGC0HZB1VNEMH4SWP73O3GW1","","457.69999980926514","img/animal2.png","74","459.40000009536743","74","1",""
"","html-keyboard-response","85","64815","0.0-85.0","34X6J5FLPUK64QNW1L83M3VPBP3QJG","A1G187YBG0DVMQ","3LN3BXKGC0HZB1VNEMH4SWP73O3GW1","","null","<img src=""img/animal2.png"" style=""width:200px; border:14px solid green;"">","null","","","",""
"","image-keyboard-response","86","65705","0.0-86.0","34X6J5FLPUK64QNW1L83M3VPBP3QJG","A1G187YBG0DVMQ","3LN3BXKGC0HZB1VNEMH4SWP73O3GW1","","888","img/animal5.png","75","889.7000002861023","75","1",""
"","html-keyboard-response","87","66015","0.0-87.0","34X6J5FLPUK64QNW1L83M3VPBP3QJG","A1G187YBG0DVMQ","3LN3BXKGC0HZB1VNEMH4SWP73O3GW1","","null","<img src=""img/animal5.png"" style=""width:200px; border:14px solid green;"">","null","","","",""
"","image-keyboard-response","88","66470","0.0-88.0","34X6J5FLPUK64QNW1L83M3VPBP3QJG","A1G187YBG0DVMQ","3LN3BXKGC0HZB1VNEMH4SWP73O3GW1","","452.80000019073486","img/animal5.png","75","454.5","75","0",""
"","html-keyboard-response","89","66776","0.0-89.0","34X6J5FLPUK64QNW1L83M3VPBP3QJG","A1G187YBG0DVMQ","3LN3BXKGC0HZB1VNEMH4SWP73O3GW1","","null","<img src=""img/animal5.png"" style=""width:200px;border:14px solid red;"">","null","","","",""
"","image-keyboard-response","90","67345","0.0-90.0","34X6J5FLPUK64QNW1L83M3VPBP3QJG","A1G187YBG0DVMQ","3LN3BXKGC0HZB1VNEMH4SWP73O3GW1","","567.1999998092651","img/animal3.png","74","569.0999999046326","74","1",""
"","html-keyboard-response","91","67655","0.0-91.0","34X6J5FLPUK64QNW1L83M3VPBP3QJG","A1G187YBG0DVMQ","3LN3BXKGC0HZB1VNEMH4SWP73O3GW1","","null","<img src=""img/animal3.png"" style=""width:200px; border:14px solid green;"">","null","","","",""
"","image-keyboard-response","92","68374","0.0-92.0","34X6J5FLPUK64QNW1L83M3VPBP3QJG","A1G187YBG0DVMQ","3LN3BXKGC0HZB1VNEMH4SWP73O3GW1","","716.7000002861023","img/animal2.png","76","718.5999999046326","76","1",""
"","html-keyboard-response","93","68679","0.0-93.0","34X6J5FLPUK64QNW1L83M3VPBP3QJG","A1G187YBG0DVMQ","3LN3BXKGC0HZB1VNEMH4SWP73O3GW1","","null","<img src=""img/animal2.png"" style=""width:200px; border:14px solid green;"">","null","","","",""
"","image-keyboard-response","94","69309","0.0-94.0","34X6J5FLPUK64QNW1L83M3VPBP3QJG","A1G187YBG0DVMQ","3LN3BXKGC0HZB1VNEMH4SWP73O3GW1","","627.8000001907349","img/animal3.png","74","629.7000002861023","74","0",""
"","html-keyboard-response","95","69616","0.0-95.0","34X6J5FLPUK64QNW1L83M3VPBP3QJG","A1G187YBG0DVMQ","3LN3BXKGC0HZB1VNEMH4SWP73O3GW1","","null","<img src=""img/animal3.png"" style=""width:200px;border:14px solid red;"">","null","","","",""
"","image-keyboard-response","96","70253","0.0-96.0","34X6J5FLPUK64QNW1L83M3VPBP3QJG","A1G187YBG0DVMQ","3LN3BXKGC0HZB1VNEMH4SWP73O3GW1","","635.3000001907349","img/animal2.png","75","637.2000002861023","75","0",""
"","html-keyboard-response","97","70559","0.0-97.0","34X6J5FLPUK64QNW1L83M3VPBP3QJG","A1G187YBG0DVMQ","3LN3BXKGC0HZB1VNEMH4SWP73O3GW1","","null","<img src=""img/animal2.png"" style=""width:200px;border:14px solid red;"">","null","","","",""
"","image-keyboard-response","98","71010","0.0-98.0","34X6J5FLPUK64QNW1L83M3VPBP3QJG","A1G187YBG0DVMQ","3LN3BXKGC0HZB1VNEMH4SWP73O3GW1","","448.80000019073486","img/animal2.png","76","450.5","76","1",""
"","html-keyboard-response","99","71319","0.0-99.0","34X6J5FLPUK64QNW1L83M3VPBP3QJG","A1G187YBG0DVMQ","3LN3BXKGC0HZB1VNEMH4SWP73O3GW1","","null","<img src=""img/animal2.png"" style=""width:200px; border:14px solid green;"">","null","","","",""
"","image-keyboard-response","100","71710","0.0-100.0","34X6J5FLPUK64QNW1L83M3VPBP3QJG","A1G187YBG0DVMQ","3LN3BXKGC0HZB1VNEMH4SWP73O3GW1","","388.6000003814697","img/animal2.png","76","390.2000002861023","76","0",""
"","html-keyboard-response","101","72015","0.0-101.0","34X6J5FLPUK64QNW1L83M3VPBP3QJG","A1G187YBG0DVMQ","3LN3BXKGC0HZB1VNEMH4SWP73O3GW1","","null","<img src=""img/animal2.png"" style=""width:200px;border:14px solid red;"">","null","","","",""
"","image-keyboard-response","102","72721","0.0-102.0","34X6J5FLPUK64QNW1L83M3VPBP3QJG","A1G187YBG0DVMQ","3LN3BXKGC0HZB1VNEMH4SWP73O3GW1","","704.4000000953674","img/animal5.png","75","706.0999999046326","75","1",""
"","html-keyboard-response","103","73031","0.0-103.0","34X6J5FLPUK64QNW1L83M3VPBP3QJG","A1G187YBG0DVMQ","3LN3BXKGC0HZB1VNEMH4SWP73O3GW1","","null","<img src=""img/animal5.png"" style=""width:200px; border:14px solid green;"">","null","","","",""
"","image-keyboard-response","104","73436","0.0-104.0","34X6J5FLPUK64QNW1L83M3VPBP3QJG","A1G187YBG0DVMQ","3LN3BXKGC0HZB1VNEMH4SWP73O3GW1","","402.80000019073486","img/animal5.png","75","404.40000009536743","75","1",""
"","html-keyboard-response","105","73743","0.0-105.0","34X6J5FLPUK64QNW1L83M3VPBP3QJG","A1G187YBG0DVMQ","3LN3BXKGC0HZB1VNEMH4SWP73O3GW1","","null","<img src=""img/animal5.png"" style=""width:200px; border:14px solid green;"">","null","","","",""
"","image-keyboard-response","106","74434","0.0-106.0","34X6J5FLPUK64QNW1L83M3VPBP3QJG","A1G187YBG0DVMQ","3LN3BXKGC0HZB1VNEMH4SWP73O3GW1","","688.5999999046326","img/animal2.png","76","690.5","76","1",""
"","html-keyboard-response","107","74743","0.0-107.0","34X6J5FLPUK64QNW1L83M3VPBP3QJG","A1G187YBG0DVMQ","3LN3BXKGC0HZB1VNEMH4SWP73O3GW1","","null","<img src=""img/animal2.png"" style=""width:200px; border:14px solid green;"">","null","","","",""
"","image-keyboard-response","108","76029","0.0-108.0","34X6J5FLPUK64QNW1L83M3VPBP3QJG","A1G187YBG0DVMQ","3LN3BXKGC0HZB1VNEMH4SWP73O3GW1","","1283.8000001907349","img/animal3.png","74","1285.6999998092651","74","0",""
"","html-keyboard-response","109","76335","0.0-109.0","34X6J5FLPUK64QNW1L83M3VPBP3QJG","A1G187YBG0DVMQ","3LN3BXKGC0HZB1VNEMH4SWP73O3GW1","","null","<img src=""img/animal3.png"" style=""width:200px;border:14px solid red;"">","null","","","",""
"","image-keyboard-response","110","77123","0.0-110.0","34X6J5FLPUK64QNW1L83M3VPBP3QJG","A1G187YBG0DVMQ","3LN3BXKGC0HZB1VNEMH4SWP73O3GW1","","785.9000000953674","img/animal2.png","76","787.5","76","1",""
"","html-keyboard-response","111","77431","0.0-111.0","34X6J5FLPUK64QNW1L83M3VPBP3QJG","A1G187YBG0DVMQ","3LN3BXKGC0HZB1VNEMH4SWP73O3GW1","","null","<img src=""img/animal2.png"" style=""width:200px; border:14px solid green;"">","null","","","",""
"","image-keyboard-response","112","78091","0.0-112.0","34X6J5FLPUK64QNW1L83M3VPBP3QJG","A1G187YBG0DVMQ","3LN3BXKGC0HZB1VNEMH4SWP73O3GW1","","657.4000000953674","img/animal5.png","75","659.1000003814697","75","1",""
"","html-keyboard-response","113","78399","0.0-113.0","34X6J5FLPUK64QNW1L83M3VPBP3QJG","A1G187YBG0DVMQ","3LN3BXKGC0HZB1VNEMH4SWP73O3GW1","","null","<img src=""img/animal5.png"" style=""width:200px; border:14px solid green;"">","null","","","",""
"","image-keyboard-response","114","79261","0.0-114.0","34X6J5FLPUK64QNW1L83M3VPBP3QJG","A1G187YBG0DVMQ","3LN3BXKGC0HZB1VNEMH4SWP73O3GW1","","860.6999998092651","img/animal2.png","76","862.0999999046326","76","1",""
"","html-keyboard-response","115","79567","0.0-115.0","34X6J5FLPUK64QNW1L83M3VPBP3QJG","A1G187YBG0DVMQ","3LN3BXKGC0HZB1VNEMH4SWP73O3GW1","","null","<img src=""img/animal2.png"" style=""width:200px; border:14px solid green;"">","null","","","",""
"","image-keyboard-response","116","79944","0.0-116.0","34X6J5FLPUK64QNW1L83M3VPBP3QJG","A1G187YBG0DVMQ","3LN3BXKGC0HZB1VNEMH4SWP73O3GW1","","375","img/animal2.png","76","376.59999990463257","76","1",""
"","html-keyboard-response","117","80255","0.0-117.0","34X6J5FLPUK64QNW1L83M3VPBP3QJG","A1G187YBG0DVMQ","3LN3BXKGC0HZB1VNEMH4SWP73O3GW1","","null","<img src=""img/animal2.png"" style=""width:200px; border:14px solid green;"">","null","","","",""
"","image-keyboard-response","118","80655","0.0-118.0","34X6J5FLPUK64QNW1L83M3VPBP3QJG","A1G187YBG0DVMQ","3LN3BXKGC0HZB1VNEMH4SWP73O3GW1","","398.09999990463257","img/animal2.png","76","399.90000009536743","76","1",""
"","html-keyboard-response","119","80959","0.0-119.0","34X6J5FLPUK64QNW1L83M3VPBP3QJG","A1G187YBG0DVMQ","3LN3BXKGC0HZB1VNEMH4SWP73O3GW1","","null","<img src=""img/animal2.png"" style=""width:200px; border:14px solid green;"">","null","","","",""
"","image-keyboard-response","120","81364","0.0-120.0","34X6J5FLPUK64QNW1L83M3VPBP3QJG","A1G187YBG0DVMQ","3LN3BXKGC0HZB1VNEMH4SWP73O3GW1","","403.19999980926514","img/animal2.png","76","405","76","0",""
"","html-keyboard-response","121","81672","0.0-121.0","34X6J5FLPUK64QNW1L83M3VPBP3QJG","A1G187YBG0DVMQ","3LN3BXKGC0HZB1VNEMH4SWP73O3GW1","","null","<img src=""img/animal2.png"" style=""width:200px;border:14px solid red;"">","null","","","",""
"","image-keyboard-response","122","82467","0.0-122.0","34X6J5FLPUK64QNW1L83M3VPBP3QJG","A1G187YBG0DVMQ","3LN3BXKGC0HZB1VNEMH4SWP73O3GW1","","793.3000001907349","img/animal3.png","74","795","74","1",""
"","html-keyboard-response","123","82775","0.0-123.0","34X6J5FLPUK64QNW1L83M3VPBP3QJG","A1G187YBG0DVMQ","3LN3BXKGC0HZB1VNEMH4SWP73O3GW1","","null","<img src=""img/animal3.png"" style=""width:200px; border:14px solid green;"">","null","","","",""
"","image-keyboard-response","124","84017","0.0-124.0","34X6J5FLPUK64QNW1L83M3VPBP3QJG","A1G187YBG0DVMQ","3LN3BXKGC0HZB1VNEMH4SWP73O3GW1","","1240.0999999046326","img/animal5.png","75","1241.9000000953674","75","1",""
"","html-keyboard-response","125","84327","0.0-125.0","34X6J5FLPUK64QNW1L83M3VPBP3QJG","A1G187YBG0DVMQ","3LN3BXKGC0HZB1VNEMH4SWP73O3GW1","","null","<img src=""img/animal5.png"" style=""width:200px; border:14px solid green;"">","null","","","",""
"","image-keyboard-response","126","84957","0.0-126.0","34X6J5FLPUK64QNW1L83M3VPBP3QJG","A1G187YBG0DVMQ","3LN3BXKGC0HZB1VNEMH4SWP73O3GW1","","628.0999999046326","img/animal2.png","76","630","76","1",""
"","html-keyboard-response","127","85263","0.0-127.0","34X6J5FLPUK64QNW1L83M3VPBP3QJG","A1G187YBG0DVMQ","3LN3BXKGC0HZB1VNEMH4SWP73O3GW1","","null","<img src=""img/animal2.png"" style=""width:200px; border:14px solid green;"">","null","","","",""
"","image-keyboard-response","128","85839","0.0-128.0","34X6J5FLPUK64QNW1L83M3VPBP3QJG","A1G187YBG0DVMQ","3LN3BXKGC0HZB1VNEMH4SWP73O3GW1","","573.9000000953674","img/animal3.png","74","575.8000001907349","74","0",""
"","html-keyboard-response","129","86143","0.0-129.0","34X6J5FLPUK64QNW1L83M3VPBP3QJG","A1G187YBG0DVMQ","3LN3BXKGC0HZB1VNEMH4SWP73O3GW1","","null","<img src=""img/animal3.png"" style=""width:200px;border:14px solid red;"">","null","","","",""
"","image-keyboard-response","130","86481","0.0-130.0","34X6J5FLPUK64QNW1L83M3VPBP3QJG","A1G187YBG0DVMQ","3LN3BXKGC0HZB1VNEMH4SWP73O3GW1","","335.90000009536743","img/animal3.png","74","337.90000009536743","74","0",""
"","html-keyboard-response","131","86791","0.0-131.0","34X6J5FLPUK64QNW1L83M3VPBP3QJG","A1G187YBG0DVMQ","3LN3BXKGC0HZB1VNEMH4SWP73O3GW1","","null","<img src=""img/animal3.png"" style=""width:200px;border:14px solid red;"">","null","","","",""
"","image-keyboard-response","132","87456","0.0-132.0","34X6J5FLPUK64QNW1L83M3VPBP3QJG","A1G187YBG0DVMQ","3LN3BXKGC0HZB1VNEMH4SWP73O3GW1","","663.2999997138977","img/animal2.png","76","664.8000001907349","76","1",""
"","html-keyboard-response","133","87767","0.0-133.0","34X6J5FLPUK64QNW1L83M3VPBP3QJG","A1G187YBG0DVMQ","3LN3BXKGC0HZB1VNEMH4SWP73O3GW1","","null","<img src=""img/animal2.png"" style=""width:200px; border:14px solid green;"">","null","","","",""
"","image-keyboard-response","134","88580","0.0-134.0","34X6J5FLPUK64QNW1L83M3VPBP3QJG","A1G187YBG0DVMQ","3LN3BXKGC0HZB1VNEMH4SWP73O3GW1","","810.5","img/animal3.png","75","812.3000001907349","75","1",""
"","html-keyboard-response","135","88887","0.0-135.0","34X6J5FLPUK64QNW1L83M3VPBP3QJG","A1G187YBG0DVMQ","3LN3BXKGC0HZB1VNEMH4SWP73O3GW1","","null","<img src=""img/animal3.png"" style=""width:200px; border:14px solid green;"">","null","","","",""
"","image-keyboard-response","136","89509","0.0-136.0","34X6J5FLPUK64QNW1L83M3VPBP3QJG","A1G187YBG0DVMQ","3LN3BXKGC0HZB1VNEMH4SWP73O3GW1","","619.5","img/animal2.png","76","621.5","76","0",""
"","html-keyboard-response","137","89815","0.0-137.0","34X6J5FLPUK64QNW1L83M3VPBP3QJG","A1G187YBG0DVMQ","3LN3BXKGC0HZB1VNEMH4SWP73O3GW1","","null","<img src=""img/animal2.png"" style=""width:200px;border:14px solid red;"">","null","","","",""
"","image-keyboard-response","138","90403","0.0-138.0","34X6J5FLPUK64QNW1L83M3VPBP3QJG","A1G187YBG0DVMQ","3LN3BXKGC0HZB1VNEMH4SWP73O3GW1","","586.3000001907349","img/animal5.png","75","587.9000000953674","75","1",""
"","html-keyboard-response","139","90711","0.0-139.0","34X6J5FLPUK64QNW1L83M3VPBP3QJG","A1G187YBG0DVMQ","3LN3BXKGC0HZB1VNEMH4SWP73O3GW1","","null","<img src=""img/animal5.png"" style=""width:200px; border:14px solid green;"">","null","","","",""
"","image-keyboard-response","140","91164","0.0-140.0","34X6J5FLPUK64QNW1L83M3VPBP3QJG","A1G187YBG0DVMQ","3LN3BXKGC0HZB1VNEMH4SWP73O3GW1","","451","img/animal5.png","75","453","75","1",""
"","html-keyboard-response","141","91471","0.0-141.0","34X6J5FLPUK64QNW1L83M3VPBP3QJG","A1G187YBG0DVMQ","3LN3BXKGC0HZB1VNEMH4SWP73O3GW1","","null","<img src=""img/animal5.png"" style=""width:200px; border:14px solid green;"">","null","","","",""
"","image-keyboard-response","142","91892","0.0-142.0","34X6J5FLPUK64QNW1L83M3VPBP3QJG","A1G187YBG0DVMQ","3LN3BXKGC0HZB1VNEMH4SWP73O3GW1","","418.7999997138977","img/animal5.png","75","420.69999980926514","75","1",""
"","html-keyboard-response","143","92199","0.0-143.0","34X6J5FLPUK64QNW1L83M3VPBP3QJG","A1G187YBG0DVMQ","3LN3BXKGC0HZB1VNEMH4SWP73O3GW1","","null","<img src=""img/animal5.png"" style=""width:200px; border:14px solid green;"">","null","","","",""
"","image-keyboard-response","144","92626","0.0-144.0","34X6J5FLPUK64QNW1L83M3VPBP3QJG","A1G187YBG0DVMQ","3LN3BXKGC0HZB1VNEMH4SWP73O3GW1","","423.2000002861023","img/animal5.png","75","425.1000003814697","75","1",""
"","html-keyboard-response","145","92935","0.0-145.0","34X6J5FLPUK64QNW1L83M3VPBP3QJG","A1G187YBG0DVMQ","3LN3BXKGC0HZB1VNEMH4SWP73O3GW1","","null","<img src=""img/animal5.png"" style=""width:200px; border:14px solid green;"">","null","","","",""
"","image-keyboard-response","146","93365","0.0-146.0","34X6J5FLPUK64QNW1L83M3VPBP3QJG","A1G187YBG0DVMQ","3LN3BXKGC0HZB1VNEMH4SWP73O3GW1","","428.1000003814697","img/animal5.png","75","429.7999997138977","75","0",""
"","html-keyboard-response","147","93671","0.0-147.0","34X6J5FLPUK64QNW1L83M3VPBP3QJG","A1G187YBG0DVMQ","3LN3BXKGC0HZB1VNEMH4SWP73O3GW1","","null","<img src=""img/animal5.png"" style=""width:200px;border:14px solid red;"">","null","","","",""
"","image-keyboard-response","148","94232","0.0-148.0","34X6J5FLPUK64QNW1L83M3VPBP3QJG","A1G187YBG0DVMQ","3LN3BXKGC0HZB1VNEMH4SWP73O3GW1","","559.0999999046326","img/animal3.png","74","560.8000001907349","74","1",""
"","html-keyboard-response","149","94535","0.0-149.0","34X6J5FLPUK64QNW1L83M3VPBP3QJG","A1G187YBG0DVMQ","3LN3BXKGC0HZB1VNEMH4SWP73O3GW1","","null","<img src=""img/animal3.png"" style=""width:200px; border:14px solid green;"">","null","","","",""
"","image-keyboard-response","150","95228","0.0-150.0","34X6J5FLPUK64QNW1L83M3VPBP3QJG","A1G187YBG0DVMQ","3LN3BXKGC0HZB1VNEMH4SWP73O3GW1","","691.2999997138977","img/animal5.png","75","692.7999997138977","75","0",""
"","html-keyboard-response","151","95535","0.0-151.0","34X6J5FLPUK64QNW1L83M3VPBP3QJG","A1G187YBG0DVMQ","3LN3BXKGC0HZB1VNEMH4SWP73O3GW1","","null","<img src=""img/animal5.png"" style=""width:200px;border:14px solid red;"">","null","","","",""
"","image-keyboard-response","152","96116","0.0-152.0","34X6J5FLPUK64QNW1L83M3VPBP3QJG","A1G187YBG0DVMQ","3LN3BXKGC0HZB1VNEMH4SWP73O3GW1","","579.2999997138977","img/animal2.png","76","580.7999997138977","76","1",""
"","html-keyboard-response","153","96422","0.0-153.0","34X6J5FLPUK64QNW1L83M3VPBP3QJG","A1G187YBG0DVMQ","3LN3BXKGC0HZB1VNEMH4SWP73O3GW1","","null","<img src=""img/animal2.png"" style=""width:200px; border:14px solid green;"">","null","","","",""
"","image-keyboard-response","154","96785","0.0-154.0","34X6J5FLPUK64QNW1L83M3VPBP3QJG","A1G187YBG0DVMQ","3LN3BXKGC0HZB1VNEMH4SWP73O3GW1","","360.80000019073486","img/animal2.png","76","362.5","76","1",""
"","html-keyboard-response","155","97095","0.0-155.0","34X6J5FLPUK64QNW1L83M3VPBP3QJG","A1G187YBG0DVMQ","3LN3BXKGC0HZB1VNEMH4SWP73O3GW1","","null","<img src=""img/animal2.png"" style=""width:200px; border:14px solid green;"">","null","","","",""
"","image-keyboard-response","156","97803","0.0-156.0","34X6J5FLPUK64QNW1L83M3VPBP3QJG","A1G187YBG0DVMQ","3LN3BXKGC0HZB1VNEMH4SWP73O3GW1","","706.0999999046326","img/animal3.png","74","707.8000001907349","74","0",""
"","html-keyboard-response","157","98111","0.0-157.0","34X6J5FLPUK64QNW1L83M3VPBP3QJG","A1G187YBG0DVMQ","3LN3BXKGC0HZB1VNEMH4SWP73O3GW1","","null","<img src=""img/animal3.png"" style=""width:200px;border:14px solid red;"">","null","","","",""
"","image-keyboard-response","158","98631","0.0-158.0","34X6J5FLPUK64QNW1L83M3VPBP3QJG","A1G187YBG0DVMQ","3LN3BXKGC0HZB1VNEMH4SWP73O3GW1","","518.5","img/animal5.png","75","520.4000000953674","75","0",""
"","html-keyboard-response","159","98943","0.0-159.0","34X6J5FLPUK64QNW1L83M3VPBP3QJG","A1G187YBG0DVMQ","3LN3BXKGC0HZB1VNEMH4SWP73O3GW1","","null","<img src=""img/animal5.png"" style=""width:200px;border:14px solid red;"">","null","","","",""
"","image-keyboard-response","160","99305","0.0-160.0","34X6J5FLPUK64QNW1L83M3VPBP3QJG","A1G187YBG0DVMQ","3LN3BXKGC0HZB1VNEMH4SWP73O3GW1","","359.69999980926514","img/animal5.png","75","361.40000009536743","75","1",""
"","html-keyboard-response","161","99615","0.0-161.0","34X6J5FLPUK64QNW1L83M3VPBP3QJG","A1G187YBG0DVMQ","3LN3BXKGC0HZB1VNEMH4SWP73O3GW1","","null","<img src=""img/animal5.png"" style=""width:200px; border:14px solid green;"">","null","","","",""
"","image-keyboard-response","162","100223","0.0-162.0","34X6J5FLPUK64QNW1L83M3VPBP3QJG","A1G187YBG0DVMQ","3LN3BXKGC0HZB1VNEMH4SWP73O3GW1","","606.0999999046326","img/animal3.png","74","607.8999996185303","74","1",""
"","html-keyboard-response","163","100527","0.0-163.0","34X6J5FLPUK64QNW1L83M3VPBP3QJG","A1G187YBG0DVMQ","3LN3BXKGC0HZB1VNEMH4SWP73O3GW1","","null","<img src=""img/animal3.png"" style=""width:200px; border:14px solid green;"">","null","","","",""
"","image-keyboard-response","164","101047","0.0-164.0","34X6J5FLPUK64QNW1L83M3VPBP3QJG","A1G187YBG0DVMQ","3LN3BXKGC0HZB1VNEMH4SWP73O3GW1","","518.7999997138977","img/animal3.png","74","520.5","74","1",""
"","html-keyboard-response","165","101351","0.0-165.0","34X6J5FLPUK64QNW1L83M3VPBP3QJG","A1G187YBG0DVMQ","3LN3BXKGC0HZB1VNEMH4SWP73O3GW1","","null","<img src=""img/animal3.png"" style=""width:200px; border:14px solid green;"">","null","","","",""
"","image-keyboard-response","166","102208","0.0-166.0","34X6J5FLPUK64QNW1L83M3VPBP3QJG","A1G187YBG0DVMQ","3LN3BXKGC0HZB1VNEMH4SWP73O3GW1","","855.1999998092651","img/animal2.png","76","857","76","1",""
"","html-keyboard-response","167","102519","0.0-167.0","34X6J5FLPUK64QNW1L83M3VPBP3QJG","A1G187YBG0DVMQ","3LN3BXKGC0HZB1VNEMH4SWP73O3GW1","","null","<img src=""img/animal2.png"" style=""width:200px; border:14px solid green;"">","null","","","",""
"","image-keyboard-response","168","102944","0.0-168.0","34X6J5FLPUK64QNW1L83M3VPBP3QJG","A1G187YBG0DVMQ","3LN3BXKGC0HZB1VNEMH4SWP73O3GW1","","423.19999980926514","img/animal2.png","76","425","76","1",""
"","html-keyboard-response","169","103255","0.0-169.0","34X6J5FLPUK64QNW1L83M3VPBP3QJG","A1G187YBG0DVMQ","3LN3BXKGC0HZB1VNEMH4SWP73O3GW1","","null","<img src=""img/animal2.png"" style=""width:200px; border:14px solid green;"">","null","","","",""
"","image-keyboard-response","170","103635","0.0-170.0","34X6J5FLPUK64QNW1L83M3VPBP3QJG","A1G187YBG0DVMQ","3LN3BXKGC0HZB1VNEMH4SWP73O3GW1","","378.09999990463257","img/animal2.png","76","379.90000009536743","76","1",""
"","html-keyboard-response","171","103943","0.0-171.0","34X6J5FLPUK64QNW1L83M3VPBP3QJG","A1G187YBG0DVMQ","3LN3BXKGC0HZB1VNEMH4SWP73O3GW1","","null","<img src=""img/animal2.png"" style=""width:200px; border:14px solid green;"">","null","","","",""
"","image-keyboard-response","172","104796","0.0-172.0","34X6J5FLPUK64QNW1L83M3VPBP3QJG","A1G187YBG0DVMQ","3LN3BXKGC0HZB1VNEMH4SWP73O3GW1","","850.9000000953674","img/animal3.png","75","852.8000001907349","75","1",""
"","html-keyboard-response","173","105103","0.0-173.0","34X6J5FLPUK64QNW1L83M3VPBP3QJG","A1G187YBG0DVMQ","3LN3BXKGC0HZB1VNEMH4SWP73O3GW1","","null","<img src=""img/animal3.png"" style=""width:200px; border:14px solid green;"">","null","","","",""
"","image-keyboard-response","174","105521","0.0-174.0","34X6J5FLPUK64QNW1L83M3VPBP3QJG","A1G187YBG0DVMQ","3LN3BXKGC0HZB1VNEMH4SWP73O3GW1","","416.19999980926514","img/animal3.png","75","417.7999997138977","75","1",""
"","html-keyboard-response","175","105831","0.0-175.0","34X6J5FLPUK64QNW1L83M3VPBP3QJG","A1G187YBG0DVMQ","3LN3BXKGC0HZB1VNEMH4SWP73O3GW1","","null","<img src=""img/animal3.png"" style=""width:200px; border:14px solid green;"">","null","","","",""
"","image-keyboard-response","176","107635","0.0-176.0","34X6J5FLPUK64QNW1L83M3VPBP3QJG","A1G187YBG0DVMQ","3LN3BXKGC0HZB1VNEMH4SWP73O3GW1","","1802","img/animal5.png","75","1803.9000000953674","75","1",""
"","html-keyboard-response","177","107943","0.0-177.0","34X6J5FLPUK64QNW1L83M3VPBP3QJG","A1G187YBG0DVMQ","3LN3BXKGC0HZB1VNEMH4SWP73O3GW1","","null","<img src=""img/animal5.png"" style=""width:200px; border:14px solid green;"">","null","","","",""
"","image-keyboard-response","178","108350","0.0-178.0","34X6J5FLPUK64QNW1L83M3VPBP3QJG","A1G187YBG0DVMQ","3LN3BXKGC0HZB1VNEMH4SWP73O3GW1","","405.2999997138977","img/animal5.png","75","406.80000019073486","75","1",""
"","html-keyboard-response","179","108655","0.0-179.0","34X6J5FLPUK64QNW1L83M3VPBP3QJG","A1G187YBG0DVMQ","3LN3BXKGC0HZB1VNEMH4SWP73O3GW1","","null","<img src=""img/animal5.png"" style=""width:200px; border:14px solid green;"">","null","","","",""
"","image-keyboard-response","180","109041","0.0-180.0","34X6J5FLPUK64QNW1L83M3VPBP3QJG","A1G187YBG0DVMQ","3LN3BXKGC0HZB1VNEMH4SWP73O3GW1","","384.19999980926514","img/animal5.png","75","385.7000002861023","75","1",""
"","html-keyboard-response","181","109351","0.0-181.0","34X6J5FLPUK64QNW1L83M3VPBP3QJG","A1G187YBG0DVMQ","3LN3BXKGC0HZB1VNEMH4SWP73O3GW1","","null","<img src=""img/animal5.png"" style=""width:200px; border:14px solid green;"">","null","","","",""
"","html-keyboard-response","182","113651","0.0-182.0","34X6J5FLPUK64QNW1L83M3VPBP3QJG","A1G187YBG0DVMQ","3LN3BXKGC0HZB1VNEMH4SWP73O3GW1","","","","","","","",""
"","image-keyboard-response","183","114458","0.0-183.0","34X6J5FLPUK64QNW1L83M3VPBP3QJG","A1G187YBG0DVMQ","3LN3BXKGC0HZB1VNEMH4SWP73O3GW1","","804.6999998092651","img/animal1.png","76","806.5","76","1",""
"","html-keyboard-response","184","114766","0.0-184.0","34X6J5FLPUK64QNW1L83M3VPBP3QJG","A1G187YBG0DVMQ","3LN3BXKGC0HZB1VNEMH4SWP73O3GW1","","null","<img src=""img/animal1.png"" style=""width:200px; border:14px solid green;"">","null","","","",""
"","image-keyboard-response","185","115509","0.0-185.0","34X6J5FLPUK64QNW1L83M3VPBP3QJG","A1G187YBG0DVMQ","3LN3BXKGC0HZB1VNEMH4SWP73O3GW1","","740.0999999046326","img/animal6.png","75","742","75","1",""
"","html-keyboard-response","186","115814","0.0-186.0","34X6J5FLPUK64QNW1L83M3VPBP3QJG","A1G187YBG0DVMQ","3LN3BXKGC0HZB1VNEMH4SWP73O3GW1","","null","<img src=""img/animal6.png"" style=""width:200px; border:14px solid green;"">","null","","","",""
"","image-keyboard-response","187","116272","0.0-187.0","34X6J5FLPUK64QNW1L83M3VPBP3QJG","A1G187YBG0DVMQ","3LN3BXKGC0HZB1VNEMH4SWP73O3GW1","","456","img/animal1.png","76","457.59999990463257","76","1",""
"","html-keyboard-response","188","116582","0.0-188.0","34X6J5FLPUK64QNW1L83M3VPBP3QJG","A1G187YBG0DVMQ","3LN3BXKGC0HZB1VNEMH4SWP73O3GW1","","null","<img src=""img/animal1.png"" style=""width:200px; border:14px solid green;"">","null","","","",""
"","image-keyboard-response","189","117045","0.0-189.0","34X6J5FLPUK64QNW1L83M3VPBP3QJG","A1G187YBG0DVMQ","3LN3BXKGC0HZB1VNEMH4SWP73O3GW1","","460.09999990463257","img/animal6.png","75","462","75","1",""
"","html-keyboard-response","190","117351","0.0-190.0","34X6J5FLPUK64QNW1L83M3VPBP3QJG","A1G187YBG0DVMQ","3LN3BXKGC0HZB1VNEMH4SWP73O3GW1","","null","<img src=""img/animal6.png"" style=""width:200px; border:14px solid green;"">","null","","","",""
"","image-keyboard-response","191","118000","0.0-191.0","34X6J5FLPUK64QNW1L83M3VPBP3QJG","A1G187YBG0DVMQ","3LN3BXKGC0HZB1VNEMH4SWP73O3GW1","","646.8999996185303","img/animal4.png","74","648.8000001907349","74","1",""
"","html-keyboard-response","192","118311","0.0-192.0","34X6J5FLPUK64QNW1L83M3VPBP3QJG","A1G187YBG0DVMQ","3LN3BXKGC0HZB1VNEMH4SWP73O3GW1","","null","<img src=""img/animal4.png"" style=""width:200px; border:14px solid green;"">","null","","","",""
"","image-keyboard-response","193","118911","0.0-193.0","34X6J5FLPUK64QNW1L83M3VPBP3QJG","A1G187YBG0DVMQ","3LN3BXKGC0HZB1VNEMH4SWP73O3GW1","","598.3000001907349","img/animal6.png","75","600.0999999046326","75","1",""
"","html-keyboard-response","194","119214","0.0-194.0","34X6J5FLPUK64QNW1L83M3VPBP3QJG","A1G187YBG0DVMQ","3LN3BXKGC0HZB1VNEMH4SWP73O3GW1","","null","<img src=""img/animal6.png"" style=""width:200px; border:14px solid green;"">","null","","","",""
"","image-keyboard-response","195","119635","0.0-195.0","34X6J5FLPUK64QNW1L83M3VPBP3QJG","A1G187YBG0DVMQ","3LN3BXKGC0HZB1VNEMH4SWP73O3GW1","","418.90000009536743","img/animal6.png","75","420.40000009536743","75","1",""
"","html-keyboard-response","196","119942","0.0-196.0","34X6J5FLPUK64QNW1L83M3VPBP3QJG","A1G187YBG0DVMQ","3LN3BXKGC0HZB1VNEMH4SWP73O3GW1","","null","<img src=""img/animal6.png"" style=""width:200px; border:14px solid green;"">","null","","","",""
"","image-keyboard-response","197","120612","0.0-197.0","34X6J5FLPUK64QNW1L83M3VPBP3QJG","A1G187YBG0DVMQ","3LN3BXKGC0HZB1VNEMH4SWP73O3GW1","","667.2999997138977","img/animal4.png","74","669.0999999046326","74","1",""
"","html-keyboard-response","198","120919","0.0-198.0","34X6J5FLPUK64QNW1L83M3VPBP3QJG","A1G187YBG0DVMQ","3LN3BXKGC0HZB1VNEMH4SWP73O3GW1","","null","<img src=""img/animal4.png"" style=""width:200px; border:14px solid green;"">","null","","","",""
"","image-keyboard-response","199","121581","0.0-199.0","34X6J5FLPUK64QNW1L83M3VPBP3QJG","A1G187YBG0DVMQ","3LN3BXKGC0HZB1VNEMH4SWP73O3GW1","","659.4000000953674","img/animal1.png","76","661.4000000953674","76","1",""
"","html-keyboard-response","200","121887","0.0-200.0","34X6J5FLPUK64QNW1L83M3VPBP3QJG","A1G187YBG0DVMQ","3LN3BXKGC0HZB1VNEMH4SWP73O3GW1","","null","<img src=""img/animal1.png"" style=""width:200px; border:14px solid green;"">","null","","","",""
"","image-keyboard-response","201","122249","0.0-201.0","34X6J5FLPUK64QNW1L83M3VPBP3QJG","A1G187YBG0DVMQ","3LN3BXKGC0HZB1VNEMH4SWP73O3GW1","","360.5","img/animal1.png","76","362.40000009536743","76","1",""
"","html-keyboard-response","202","122558","0.0-202.0","34X6J5FLPUK64QNW1L83M3VPBP3QJG","A1G187YBG0DVMQ","3LN3BXKGC0HZB1VNEMH4SWP73O3GW1","","null","<img src=""img/animal1.png"" style=""width:200px; border:14px solid green;"">","null","","","",""
"","image-keyboard-response","203","123141","0.0-203.0","34X6J5FLPUK64QNW1L83M3VPBP3QJG","A1G187YBG0DVMQ","3LN3BXKGC0HZB1VNEMH4SWP73O3GW1","","580.8000001907349","img/animal6.png","75","582.3000001907349","75","1",""
"","html-keyboard-response","204","123447","0.0-204.0","34X6J5FLPUK64QNW1L83M3VPBP3QJG","A1G187YBG0DVMQ","3LN3BXKGC0HZB1VNEMH4SWP73O3GW1","","null","<img src=""img/animal6.png"" style=""width:200px; border:14px solid green;"">","null","","","",""
"","image-keyboard-response","205","124036","0.0-205.0","34X6J5FLPUK64QNW1L83M3VPBP3QJG","A1G187YBG0DVMQ","3LN3BXKGC0HZB1VNEMH4SWP73O3GW1","","587.3000001907349","img/animal4.png","74","589.1999998092651","74","1",""
"","html-keyboard-response","206","124343","0.0-206.0","34X6J5FLPUK64QNW1L83M3VPBP3QJG","A1G187YBG0DVMQ","3LN3BXKGC0HZB1VNEMH4SWP73O3GW1","","null","<img src=""img/animal4.png"" style=""width:200px; border:14px solid green;"">","null","","","",""
"","image-keyboard-response","207","124830","0.0-207.0","34X6J5FLPUK64QNW1L83M3VPBP3QJG","A1G187YBG0DVMQ","3LN3BXKGC0HZB1VNEMH4SWP73O3GW1","","484.69999980926514","img/animal6.png","75","486.59999990463257","75","1",""
"","html-keyboard-response","208","125134","0.0-208.0","34X6J5FLPUK64QNW1L83M3VPBP3QJG","A1G187YBG0DVMQ","3LN3BXKGC0HZB1VNEMH4SWP73O3GW1","","null","<img src=""img/animal6.png"" style=""width:200px; border:14px solid green;"">","null","","","",""
"","image-keyboard-response","209","125503","0.0-209.0","34X6J5FLPUK64QNW1L83M3VPBP3QJG","A1G187YBG0DVMQ","3LN3BXKGC0HZB1VNEMH4SWP73O3GW1","","366.09999990463257","img/animal6.png","75","367.90000009536743","75","1",""
"","html-keyboard-response","210","125807","0.0-210.0","34X6J5FLPUK64QNW1L83M3VPBP3QJG","A1G187YBG0DVMQ","3LN3BXKGC0HZB1VNEMH4SWP73O3GW1","","null","<img src=""img/animal6.png"" style=""width:200px; border:14px solid green;"">","null","","","",""
"","image-keyboard-response","211","126572","0.0-211.0","34X6J5FLPUK64QNW1L83M3VPBP3QJG","A1G187YBG0DVMQ","3LN3BXKGC0HZB1VNEMH4SWP73O3GW1","","763.5","img/animal1.png","74","765.3000001907349","74","1",""
"","html-keyboard-response","212","126879","0.0-212.0","34X6J5FLPUK64QNW1L83M3VPBP3QJG","A1G187YBG0DVMQ","3LN3BXKGC0HZB1VNEMH4SWP73O3GW1","","null","<img src=""img/animal1.png"" style=""width:200px; border:14px solid green;"">","null","","","",""
"","image-keyboard-response","213","127241","0.0-213.0","34X6J5FLPUK64QNW1L83M3VPBP3QJG","A1G187YBG0DVMQ","3LN3BXKGC0HZB1VNEMH4SWP73O3GW1","","359.90000009536743","img/animal1.png","74","361.6000003814697","74","0",""
"","html-keyboard-response","214","127551","0.0-214.0","34X6J5FLPUK64QNW1L83M3VPBP3QJG","A1G187YBG0DVMQ","3LN3BXKGC0HZB1VNEMH4SWP73O3GW1","","null","<img src=""img/animal1.png"" style=""width:200px;border:14px solid red;"">","null","","","",""
"","image-keyboard-response","215","128228","0.0-215.0","34X6J5FLPUK64QNW1L83M3VPBP3QJG","A1G187YBG0DVMQ","3LN3BXKGC0HZB1VNEMH4SWP73O3GW1","","675.6999998092651","img/animal6.png","74","677.5999999046326","74","0",""
"","html-keyboard-response","216","128534","0.0-216.0","34X6J5FLPUK64QNW1L83M3VPBP3QJG","A1G187YBG0DVMQ","3LN3BXKGC0HZB1VNEMH4SWP73O3GW1","","null","<img src=""img/animal6.png"" style=""width:200px;border:14px solid red;"">","null","","","",""
"","image-keyboard-response","217","128892","0.0-217.0","34X6J5FLPUK64QNW1L83M3VPBP3QJG","A1G187YBG0DVMQ","3LN3BXKGC0HZB1VNEMH4SWP73O3GW1","","355.19999980926514","img/animal6.png","75","357.09999990463257","75","1",""
"","html-keyboard-response","218","129198","0.0-218.0","34X6J5FLPUK64QNW1L83M3VPBP3QJG","A1G187YBG0DVMQ","3LN3BXKGC0HZB1VNEMH4SWP73O3GW1","","null","<img src=""img/animal6.png"" style=""width:200px; border:14px solid green;"">","null","","","",""
"","image-keyboard-response","219","129734","0.0-219.0","34X6J5FLPUK64QNW1L83M3VPBP3QJG","A1G187YBG0DVMQ","3LN3BXKGC0HZB1VNEMH4SWP73O3GW1","","533.5999999046326","img/animal1.png","74","535.3000001907349","74","0",""
"","html-keyboard-response","220","130038","0.0-220.0","34X6J5FLPUK64QNW1L83M3VPBP3QJG","A1G187YBG0DVMQ","3LN3BXKGC0HZB1VNEMH4SWP73O3GW1","","null","<img src=""img/animal1.png"" style=""width:200px;border:14px solid red;"">","null","","","",""
"","image-keyboard-response","221","130376","0.0-221.0","34X6J5FLPUK64QNW1L83M3VPBP3QJG","A1G187YBG0DVMQ","3LN3BXKGC0HZB1VNEMH4SWP73O3GW1","","335.09999990463257","img/animal1.png","74","337","74","1",""
"","html-keyboard-response","222","130686","0.0-222.0","34X6J5FLPUK64QNW1L83M3VPBP3QJG","A1G187YBG0DVMQ","3LN3BXKGC0HZB1VNEMH4SWP73O3GW1","","null","<img src=""img/animal1.png"" style=""width:200px; border:14px solid green;"">","null","","","",""
"","image-keyboard-response","223","131659","0.0-223.0","34X6J5FLPUK64QNW1L83M3VPBP3QJG","A1G187YBG0DVMQ","3LN3BXKGC0HZB1VNEMH4SWP73O3GW1","","971.2999997138977","img/animal4.png","74","973.0999999046326","74","1",""
"","html-keyboard-response","224","131967","0.0-224.0","34X6J5FLPUK64QNW1L83M3VPBP3QJG","A1G187YBG0DVMQ","3LN3BXKGC0HZB1VNEMH4SWP73O3GW1","","null","<img src=""img/animal4.png"" style=""width:200px; border:14px solid green;"">","null","","","",""
"","image-keyboard-response","225","132913","0.0-225.0","34X6J5FLPUK64QNW1L83M3VPBP3QJG","A1G187YBG0DVMQ","3LN3BXKGC0HZB1VNEMH4SWP73O3GW1","","944.5","img/animal1.png","76","946.4000000953674","76","1",""
"","html-keyboard-response","226","133222","0.0-226.0","34X6J5FLPUK64QNW1L83M3VPBP3QJG","A1G187YBG0DVMQ","3LN3BXKGC0HZB1VNEMH4SWP73O3GW1","","null","<img src=""img/animal1.png"" style=""width:200px; border:14px solid green;"">","null","","","",""
"","image-keyboard-response","227","133808","0.0-227.0","34X6J5FLPUK64QNW1L83M3VPBP3QJG","A1G187YBG0DVMQ","3LN3BXKGC0HZB1VNEMH4SWP73O3GW1","","583","img/animal6.png","75","584.8000001907349","75","1",""
"","html-keyboard-response","228","134118","0.0-228.0","34X6J5FLPUK64QNW1L83M3VPBP3QJG","A1G187YBG0DVMQ","3LN3BXKGC0HZB1VNEMH4SWP73O3GW1","","null","<img src=""img/animal6.png"" style=""width:200px; border:14px solid green;"">","null","","","",""
"","image-keyboard-response","229","134690","0.0-229.0","34X6J5FLPUK64QNW1L83M3VPBP3QJG","A1G187YBG0DVMQ","3LN3BXKGC0HZB1VNEMH4SWP73O3GW1","","568.3000001907349","img/animal6.png","75","570.0999999046326","75","1",""
"","html-keyboard-response","230","134998","0.0-230.0","34X6J5FLPUK64QNW1L83M3VPBP3QJG","A1G187YBG0DVMQ","3LN3BXKGC0HZB1VNEMH4SWP73O3GW1","","null","<img src=""img/animal6.png"" style=""width:200px; border:14px solid green;"">","null","","","",""
"","image-keyboard-response","231","135467","0.0-231.0","34X6J5FLPUK64QNW1L83M3VPBP3QJG","A1G187YBG0DVMQ","3LN3BXKGC0HZB1VNEMH4SWP73O3GW1","","466.30000019073486","img/animal6.png","75","468.09999990463257","75","1",""
"","html-keyboard-response","232","135774","0.0-232.0","34X6J5FLPUK64QNW1L83M3VPBP3QJG","A1G187YBG0DVMQ","3LN3BXKGC0HZB1VNEMH4SWP73O3GW1","","null","<img src=""img/animal6.png"" style=""width:200px; border:14px solid green;"">","null","","","",""
"","image-keyboard-response","233","136155","0.0-233.0","34X6J5FLPUK64QNW1L83M3VPBP3QJG","A1G187YBG0DVMQ","3LN3BXKGC0HZB1VNEMH4SWP73O3GW1","","379.3999996185303","img/animal6.png","75","381","75","1",""
"","html-keyboard-response","234","136462","0.0-234.0","34X6J5FLPUK64QNW1L83M3VPBP3QJG","A1G187YBG0DVMQ","3LN3BXKGC0HZB1VNEMH4SWP73O3GW1","","null","<img src=""img/animal6.png"" style=""width:200px; border:14px solid green;"">","null","","","",""
"","image-keyboard-response","235","136837","0.0-235.0","34X6J5FLPUK64QNW1L83M3VPBP3QJG","A1G187YBG0DVMQ","3LN3BXKGC0HZB1VNEMH4SWP73O3GW1","","373","img/animal6.png","75","374.40000009536743","75","1",""
"","html-keyboard-response","236","137141","0.0-236.0","34X6J5FLPUK64QNW1L83M3VPBP3QJG","A1G187YBG0DVMQ","3LN3BXKGC0HZB1VNEMH4SWP73O3GW1","","null","<img src=""img/animal6.png"" style=""width:200px; border:14px solid green;"">","null","","","",""
"","image-keyboard-response","237","137504","0.0-237.0","34X6J5FLPUK64QNW1L83M3VPBP3QJG","A1G187YBG0DVMQ","3LN3BXKGC0HZB1VNEMH4SWP73O3GW1","","361.40000009536743","img/animal6.png","75","363.09999990463257","75","1",""
"","html-keyboard-response","238","137815","0.0-238.0","34X6J5FLPUK64QNW1L83M3VPBP3QJG","A1G187YBG0DVMQ","3LN3BXKGC0HZB1VNEMH4SWP73O3GW1","","null","<img src=""img/animal6.png"" style=""width:200px; border:14px solid green;"">","null","","","",""
"","image-keyboard-response","239","139102","0.0-239.0","34X6J5FLPUK64QNW1L83M3VPBP3QJG","A1G187YBG0DVMQ","3LN3BXKGC0HZB1VNEMH4SWP73O3GW1","","1285.5999999046326","img/animal4.png","74","1287.3000001907349","74","1",""
"","html-keyboard-response","240","139406","0.0-240.0","34X6J5FLPUK64QNW1L83M3VPBP3QJG","A1G187YBG0DVMQ","3LN3BXKGC0HZB1VNEMH4SWP73O3GW1","","null","<img src=""img/animal4.png"" style=""width:200px; border:14px solid green;"">","null","","","",""
"","image-keyboard-response","241","139916","0.0-241.0","34X6J5FLPUK64QNW1L83M3VPBP3QJG","A1G187YBG0DVMQ","3LN3BXKGC0HZB1VNEMH4SWP73O3GW1","","509.09999990463257","img/animal6.png","75","510.40000009536743","75","1",""
"","html-keyboard-response","242","140222","0.0-242.0","34X6J5FLPUK64QNW1L83M3VPBP3QJG","A1G187YBG0DVMQ","3LN3BXKGC0HZB1VNEMH4SWP73O3GW1","","null","<img src=""img/animal6.png"" style=""width:200px; border:14px solid green;"">","null","","","",""
"","image-keyboard-response","243","140588","0.0-243.0","34X6J5FLPUK64QNW1L83M3VPBP3QJG","A1G187YBG0DVMQ","3LN3BXKGC0HZB1VNEMH4SWP73O3GW1","","364.09999990463257","img/animal6.png","75","365.90000009536743","75","1",""
"","html-keyboard-response","244","140894","0.0-244.0","34X6J5FLPUK64QNW1L83M3VPBP3QJG","A1G187YBG0DVMQ","3LN3BXKGC0HZB1VNEMH4SWP73O3GW1","","null","<img src=""img/animal6.png"" style=""width:200px; border:14px solid green;"">","null","","","",""
"","image-keyboard-response","245","141573","0.0-245.0","34X6J5FLPUK64QNW1L83M3VPBP3QJG","A1G187YBG0DVMQ","3LN3BXKGC0HZB1VNEMH4SWP73O3GW1","","676.7999997138977","img/animal4.png","74","678.5","74","1",""
"","html-keyboard-response","246","141878","0.0-246.0","34X6J5FLPUK64QNW1L83M3VPBP3QJG","A1G187YBG0DVMQ","3LN3BXKGC0HZB1VNEMH4SWP73O3GW1","","null","<img src=""img/animal4.png"" style=""width:200px; border:14px solid green;"">","null","","","",""
"","image-keyboard-response","247","142588","0.0-247.0","34X6J5FLPUK64QNW1L83M3VPBP3QJG","A1G187YBG0DVMQ","3LN3BXKGC0HZB1VNEMH4SWP73O3GW1","","707.5999999046326","img/animal1.png","76","709.5999999046326","76","1",""
"","html-keyboard-response","248","142894","0.0-248.0","34X6J5FLPUK64QNW1L83M3VPBP3QJG","A1G187YBG0DVMQ","3LN3BXKGC0HZB1VNEMH4SWP73O3GW1","","null","<img src=""img/animal1.png"" style=""width:200px; border:14px solid green;"">","null","","","",""
"","image-keyboard-response","249","143486","0.0-249.0","34X6J5FLPUK64QNW1L83M3VPBP3QJG","A1G187YBG0DVMQ","3LN3BXKGC0HZB1VNEMH4SWP73O3GW1","","590.2999997138977","img/animal4.png","74","592.1999998092651","74","1",""
"","html-keyboard-response","250","143790","0.0-250.0","34X6J5FLPUK64QNW1L83M3VPBP3QJG","A1G187YBG0DVMQ","3LN3BXKGC0HZB1VNEMH4SWP73O3GW1","","null","<img src=""img/animal4.png"" style=""width:200px; border:14px solid green;"">","null","","","",""
"","image-keyboard-response","251","144133","0.0-251.0","34X6J5FLPUK64QNW1L83M3VPBP3QJG","A1G187YBG0DVMQ","3LN3BXKGC0HZB1VNEMH4SWP73O3GW1","","340","img/animal4.png","74","342","74","1",""
"","html-keyboard-response","252","144438","0.0-252.0","34X6J5FLPUK64QNW1L83M3VPBP3QJG","A1G187YBG0DVMQ","3LN3BXKGC0HZB1VNEMH4SWP73O3GW1","","null","<img src=""img/animal4.png"" style=""width:200px; border:14px solid green;"">","null","","","",""
"","image-keyboard-response","253","144806","0.0-253.0","34X6J5FLPUK64QNW1L83M3VPBP3QJG","A1G187YBG0DVMQ","3LN3BXKGC0HZB1VNEMH4SWP73O3GW1","","365.80000019073486","img/animal4.png","74","367.59999990463257","74","1",""
"","html-keyboard-response","254","145110","0.0-254.0","34X6J5FLPUK64QNW1L83M3VPBP3QJG","A1G187YBG0DVMQ","3LN3BXKGC0HZB1VNEMH4SWP73O3GW1","","null","<img src=""img/animal4.png"" style=""width:200px; border:14px solid green;"">","null","","","",""
"","image-keyboard-response","255","145634","0.0-255.0","34X6J5FLPUK64QNW1L83M3VPBP3QJG","A1G187YBG0DVMQ","3LN3BXKGC0HZB1VNEMH4SWP73O3GW1","","521.5","img/animal6.png","75","523.4000000953674","75","1",""
"","html-keyboard-response","256","145942","0.0-256.0","34X6J5FLPUK64QNW1L83M3VPBP3QJG","A1G187YBG0DVMQ","3LN3BXKGC0HZB1VNEMH4SWP73O3GW1","","null","<img src=""img/animal6.png"" style=""width:200px; border:14px solid green;"">","null","","","",""
"","image-keyboard-response","257","146620","0.0-257.0","34X6J5FLPUK64QNW1L83M3VPBP3QJG","A1G187YBG0DVMQ","3LN3BXKGC0HZB1VNEMH4SWP73O3GW1","","675.9000000953674","img/animal1.png","76","677.8000001907349","76","1",""
"","html-keyboard-response","258","146926","0.0-258.0","34X6J5FLPUK64QNW1L83M3VPBP3QJG","A1G187YBG0DVMQ","3LN3BXKGC0HZB1VNEMH4SWP73O3GW1","","null","<img src=""img/animal1.png"" style=""width:200px; border:14px solid green;"">","null","","","",""
"","image-keyboard-response","259","147383","0.0-259.0","34X6J5FLPUK64QNW1L83M3VPBP3QJG","A1G187YBG0DVMQ","3LN3BXKGC0HZB1VNEMH4SWP73O3GW1","","454.90000009536743","img/animal4.png","74","456.69999980926514","74","1",""
"","html-keyboard-response","260","147694","0.0-260.0","34X6J5FLPUK64QNW1L83M3VPBP3QJG","A1G187YBG0DVMQ","3LN3BXKGC0HZB1VNEMH4SWP73O3GW1","","null","<img src=""img/animal4.png"" style=""width:200px; border:14px solid green;"">","null","","","",""
"","image-keyboard-response","261","148124","0.0-261.0","34X6J5FLPUK64QNW1L83M3VPBP3QJG","A1G187YBG0DVMQ","3LN3BXKGC0HZB1VNEMH4SWP73O3GW1","","427.40000009536743","img/animal1.png","76","429.3999996185303","76","1",""
"","html-keyboard-response","262","148430","0.0-262.0","34X6J5FLPUK64QNW1L83M3VPBP3QJG","A1G187YBG0DVMQ","3LN3BXKGC0HZB1VNEMH4SWP73O3GW1","","null","<img src=""img/animal1.png"" style=""width:200px; border:14px solid green;"">","null","","","",""
"","image-keyboard-response","263","149010","0.0-263.0","34X6J5FLPUK64QNW1L83M3VPBP3QJG","A1G187YBG0DVMQ","3LN3BXKGC0HZB1VNEMH4SWP73O3GW1","","577.9000000953674","img/animal4.png","74","579.7000002861023","74","1",""
"","html-keyboard-response","264","149318","0.0-264.0","34X6J5FLPUK64QNW1L83M3VPBP3QJG","A1G187YBG0DVMQ","3LN3BXKGC0HZB1VNEMH4SWP73O3GW1","","null","<img src=""img/animal4.png"" style=""width:200px; border:14px solid green;"">","null","","","",""
"","image-keyboard-response","265","149914","0.0-265.0","34X6J5FLPUK64QNW1L83M3VPBP3QJG","A1G187YBG0DVMQ","3LN3BXKGC0HZB1VNEMH4SWP73O3GW1","","593.6999998092651","img/animal6.png","75","595.5999999046326","75","1",""
"","html-keyboard-response","266","150222","0.0-266.0","34X6J5FLPUK64QNW1L83M3VPBP3QJG","A1G187YBG0DVMQ","3LN3BXKGC0HZB1VNEMH4SWP73O3GW1","","null","<img src=""img/animal6.png"" style=""width:200px; border:14px solid green;"">","null","","","",""
"","image-keyboard-response","267","150821","0.0-267.0","34X6J5FLPUK64QNW1L83M3VPBP3QJG","A1G187YBG0DVMQ","3LN3BXKGC0HZB1VNEMH4SWP73O3GW1","","596.8999996185303","img/animal4.png","74","599","74","1",""
"","html-keyboard-response","268","151126","0.0-268.0","34X6J5FLPUK64QNW1L83M3VPBP3QJG","A1G187YBG0DVMQ","3LN3BXKGC0HZB1VNEMH4SWP73O3GW1","","null","<img src=""img/animal4.png"" style=""width:200px; border:14px solid green;"">","null","","","",""
"","image-keyboard-response","269","151711","0.0-269.0","34X6J5FLPUK64QNW1L83M3VPBP3QJG","A1G187YBG0DVMQ","3LN3BXKGC0HZB1VNEMH4SWP73O3GW1","","582.1999998092651","img/animal1.png","76","584.2000002861023","76","1",""
"","html-keyboard-response","270","152022","0.0-270.0","34X6J5FLPUK64QNW1L83M3VPBP3QJG","A1G187YBG0DVMQ","3LN3BXKGC0HZB1VNEMH4SWP73O3GW1","","null","<img src=""img/animal1.png"" style=""width:200px; border:14px solid green;"">","null","","","",""
"","image-keyboard-response","271","152388","0.0-271.0","34X6J5FLPUK64QNW1L83M3VPBP3QJG","A1G187YBG0DVMQ","3LN3BXKGC0HZB1VNEMH4SWP73O3GW1","","364.19999980926514","img/animal1.png","76","366.09999990463257","76","1",""
"","html-keyboard-response","272","152694","0.0-272.0","34X6J5FLPUK64QNW1L83M3VPBP3QJG","A1G187YBG0DVMQ","3LN3BXKGC0HZB1VNEMH4SWP73O3GW1","","null","<img src=""img/animal1.png"" style=""width:200px; border:14px solid green;"">","null","","","",""
"","image-keyboard-response","273","153220","0.0-273.0","34X6J5FLPUK64QNW1L83M3VPBP3QJG","A1G187YBG0DVMQ","3LN3BXKGC0HZB1VNEMH4SWP73O3GW1","","523.5","img/animal4.png","74","525.3999996185303","74","1",""
"","html-keyboard-response","274","153526","0.0-274.0","34X6J5FLPUK64QNW1L83M3VPBP3QJG","A1G187YBG0DVMQ","3LN3BXKGC0HZB1VNEMH4SWP73O3GW1","","null","<img src=""img/animal4.png"" style=""width:200px; border:14px solid green;"">","null","","","",""
"","image-keyboard-response","275","153873","0.0-275.0","34X6J5FLPUK64QNW1L83M3VPBP3QJG","A1G187YBG0DVMQ","3LN3BXKGC0HZB1VNEMH4SWP73O3GW1","","344.7999997138977","img/animal4.png","74","346.5","74","1",""
"","html-keyboard-response","276","154182","0.0-276.0","34X6J5FLPUK64QNW1L83M3VPBP3QJG","A1G187YBG0DVMQ","3LN3BXKGC0HZB1VNEMH4SWP73O3GW1","","null","<img src=""img/animal4.png"" style=""width:200px; border:14px solid green;"">","null","","","",""
"","image-keyboard-response","277","154721","0.0-277.0","34X6J5FLPUK64QNW1L83M3VPBP3QJG","A1G187YBG0DVMQ","3LN3BXKGC0HZB1VNEMH4SWP73O3GW1","","536.7999997138977","img/animal1.png","75","538.5999999046326","75","0",""
"","html-keyboard-response","278","155030","0.0-278.0","34X6J5FLPUK64QNW1L83M3VPBP3QJG","A1G187YBG0DVMQ","3LN3BXKGC0HZB1VNEMH4SWP73O3GW1","","null","<img src=""img/animal1.png"" style=""width:200px;border:14px solid red;"">","null","","","",""
"","image-keyboard-response","279","156236","0.0-279.0","34X6J5FLPUK64QNW1L83M3VPBP3QJG","A1G187YBG0DVMQ","3LN3BXKGC0HZB1VNEMH4SWP73O3GW1","","1204.4000000953674","img/animal1.png","76","1206.5","76","1",""
"","html-keyboard-response","280","156541","0.0-280.0","34X6J5FLPUK64QNW1L83M3VPBP3QJG","A1G187YBG0DVMQ","3LN3BXKGC0HZB1VNEMH4SWP73O3GW1","","null","<img src=""img/animal1.png"" style=""width:200px; border:14px solid green;"">","null","","","",""
"","image-keyboard-response","281","156899","0.0-281.0","34X6J5FLPUK64QNW1L83M3VPBP3QJG","A1G187YBG0DVMQ","3LN3BXKGC0HZB1VNEMH4SWP73O3GW1","","356.09999990463257","img/animal1.png","76","357.90000009536743","76","1",""
"","html-keyboard-response","282","157206","0.0-282.0","34X6J5FLPUK64QNW1L83M3VPBP3QJG","A1G187YBG0DVMQ","3LN3BXKGC0HZB1VNEMH4SWP73O3GW1","","null","<img src=""img/animal1.png"" style=""width:200px; border:14px solid green;"">","null","","","",""
"","image-keyboard-response","283","157829","0.0-283.0","34X6J5FLPUK64QNW1L83M3VPBP3QJG","A1G187YBG0DVMQ","3LN3BXKGC0HZB1VNEMH4SWP73O3GW1","","619.8000001907349","img/animal6.png","75","621.7999997138977","75","1",""
"","html-keyboard-response","284","158134","0.0-284.0","34X6J5FLPUK64QNW1L83M3VPBP3QJG","A1G187YBG0DVMQ","3LN3BXKGC0HZB1VNEMH4SWP73O3GW1","","null","<img src=""img/animal6.png"" style=""width:200px; border:14px solid green;"">","null","","","",""
"","image-keyboard-response","285","158798","0.0-285.0","34X6J5FLPUK64QNW1L83M3VPBP3QJG","A1G187YBG0DVMQ","3LN3BXKGC0HZB1VNEMH4SWP73O3GW1","","660.8000001907349","img/animal4.png","74","663.5","74","1",""
"","html-keyboard-response","286","159110","0.0-286.0","34X6J5FLPUK64QNW1L83M3VPBP3QJG","A1G187YBG0DVMQ","3LN3BXKGC0HZB1VNEMH4SWP73O3GW1","","null","<img src=""img/animal4.png"" style=""width:200px; border:14px solid green;"">","null","","","",""
"","image-keyboard-response","287","159851","0.0-287.0","34X6J5FLPUK64QNW1L83M3VPBP3QJG","A1G187YBG0DVMQ","3LN3BXKGC0HZB1VNEMH4SWP73O3GW1","","739","img/animal1.png","76","740.5999999046326","76","1",""
"","html-keyboard-response","288","160158","0.0-288.0","34X6J5FLPUK64QNW1L83M3VPBP3QJG","A1G187YBG0DVMQ","3LN3BXKGC0HZB1VNEMH4SWP73O3GW1","","null","<img src=""img/animal1.png"" style=""width:200px; border:14px solid green;"">","null","","","",""
"","image-keyboard-response","289","160753","0.0-289.0","34X6J5FLPUK64QNW1L83M3VPBP3QJG","A1G187YBG0DVMQ","3LN3BXKGC0HZB1VNEMH4SWP73O3GW1","","593.5999999046326","img/animal6.png","75","595.5","75","1",""
"","html-keyboard-response","290","161061","0.0-290.0","34X6J5FLPUK64QNW1L83M3VPBP3QJG","A1G187YBG0DVMQ","3LN3BXKGC0HZB1VNEMH4SWP73O3GW1","","null","<img src=""img/animal6.png"" style=""width:200px; border:14px solid green;"">","null","","","",""
"","image-keyboard-response","291","161479","0.0-291.0","34X6J5FLPUK64QNW1L83M3VPBP3QJG","A1G187YBG0DVMQ","3LN3BXKGC0HZB1VNEMH4SWP73O3GW1","","416.09999990463257","img/animal6.png","75","417.40000009536743","75","1",""
"","html-keyboard-response","292","161789","0.0-292.0","34X6J5FLPUK64QNW1L83M3VPBP3QJG","A1G187YBG0DVMQ","3LN3BXKGC0HZB1VNEMH4SWP73O3GW1","","null","<img src=""img/animal6.png"" style=""width:200px; border:14px solid green;"">","null","","","",""
"","image-keyboard-response","293","162436","0.0-293.0","34X6J5FLPUK64QNW1L83M3VPBP3QJG","A1G187YBG0DVMQ","3LN3BXKGC0HZB1VNEMH4SWP73O3GW1","","644.3000001907349","img/animal1.png","76","646.1999998092651","76","1",""
"","html-keyboard-response","294","162741","0.0-294.0","34X6J5FLPUK64QNW1L83M3VPBP3QJG","A1G187YBG0DVMQ","3LN3BXKGC0HZB1VNEMH4SWP73O3GW1","","null","<img src=""img/animal1.png"" style=""width:200px; border:14px solid green;"">","null","","","",""
"","image-keyboard-response","295","163449","0.0-295.0","34X6J5FLPUK64QNW1L83M3VPBP3QJG","A1G187YBG0DVMQ","3LN3BXKGC0HZB1VNEMH4SWP73O3GW1","","706","img/animal4.png","74","707.5","74","1",""
"","html-keyboard-response","296","163758","0.0-296.0","34X6J5FLPUK64QNW1L83M3VPBP3QJG","A1G187YBG0DVMQ","3LN3BXKGC0HZB1VNEMH4SWP73O3GW1","","null","<img src=""img/animal4.png"" style=""width:200px; border:14px solid green;"">","null","","","",""
"","image-keyboard-response","297","164461","0.0-297.0","34X6J5FLPUK64QNW1L83M3VPBP3QJG","A1G187YBG0DVMQ","3LN3BXKGC0HZB1VNEMH4SWP73O3GW1","","701.0999999046326","img/animal4.png","74","702.6999998092651","74","1",""
"","html-keyboard-response","298","164765","0.0-298.0","34X6J5FLPUK64QNW1L83M3VPBP3QJG","A1G187YBG0DVMQ","3LN3BXKGC0HZB1VNEMH4SWP73O3GW1","","null","<img src=""img/animal4.png"" style=""width:200px; border:14px solid green;"">","null","","","",""
"","image-keyboard-response","299","165486","0.0-299.0","34X6J5FLPUK64QNW1L83M3VPBP3QJG","A1G187YBG0DVMQ","3LN3BXKGC0HZB1VNEMH4SWP73O3GW1","","718.5","img/animal1.png","76","720.4000000953674","76","1",""
"","html-keyboard-response","300","165790","0.0-300.0","34X6J5FLPUK64QNW1L83M3VPBP3QJG","A1G187YBG0DVMQ","3LN3BXKGC0HZB1VNEMH4SWP73O3GW1","","null","<img src=""img/animal1.png"" style=""width:200px; border:14px solid green;"">","null","","","",""
"","image-keyboard-response","301","166119","0.0-301.0","34X6J5FLPUK64QNW1L83M3VPBP3QJG","A1G187YBG0DVMQ","3LN3BXKGC0HZB1VNEMH4SWP73O3GW1","","326.69999980926514","img/animal1.png","76","328.5","76","1",""
"","html-keyboard-response","302","166430","0.0-302.0","34X6J5FLPUK64QNW1L83M3VPBP3QJG","A1G187YBG0DVMQ","3LN3BXKGC0HZB1VNEMH4SWP73O3GW1","","null","<img src=""img/animal1.png"" style=""width:200px; border:14px solid green;"">","null","","","",""
"","image-keyboard-response","303","166975","0.0-303.0","34X6J5FLPUK64QNW1L83M3VPBP3QJG","A1G187YBG0DVMQ","3LN3BXKGC0HZB1VNEMH4SWP73O3GW1","","543.5","img/animal4.png","74","545.5","74","1",""
"","html-keyboard-response","304","167286","0.0-304.0","34X6J5FLPUK64QNW1L83M3VPBP3QJG","A1G187YBG0DVMQ","3LN3BXKGC0HZB1VNEMH4SWP73O3GW1","","null","<img src=""img/animal4.png"" style=""width:200px; border:14px solid green;"">","null","","","",""
"","image-keyboard-response","305","167893","0.0-305.0","34X6J5FLPUK64QNW1L83M3VPBP3QJG","A1G187YBG0DVMQ","3LN3BXKGC0HZB1VNEMH4SWP73O3GW1","","604.7999997138977","img/animal1.png","76","606.8999996185303","76","1",""
"","html-keyboard-response","306","168197","0.0-306.0","34X6J5FLPUK64QNW1L83M3VPBP3QJG","A1G187YBG0DVMQ","3LN3BXKGC0HZB1VNEMH4SWP73O3GW1","","null","<img src=""img/animal1.png"" style=""width:200px; border:14px solid green;"">","null","","","",""
"","image-keyboard-response","307","168749","0.0-307.0","34X6J5FLPUK64QNW1L83M3VPBP3QJG","A1G187YBG0DVMQ","3LN3BXKGC0HZB1VNEMH4SWP73O3GW1","","550.1999998092651","img/animal4.png","74","551.5","74","1",""
"","html-keyboard-response","308","169054","0.0-308.0","34X6J5FLPUK64QNW1L83M3VPBP3QJG","A1G187YBG0DVMQ","3LN3BXKGC0HZB1VNEMH4SWP73O3GW1","","null","<img src=""img/animal4.png"" style=""width:200px; border:14px solid green;"">","null","","","",""
"","image-keyboard-response","309","169593","0.0-309.0","34X6J5FLPUK64QNW1L83M3VPBP3QJG","A1G187YBG0DVMQ","3LN3BXKGC0HZB1VNEMH4SWP73O3GW1","","536.8000001907349","img/animal1.png","76","538.5","76","1",""
"","html-keyboard-response","310","169901","0.0-310.0","34X6J5FLPUK64QNW1L83M3VPBP3QJG","A1G187YBG0DVMQ","3LN3BXKGC0HZB1VNEMH4SWP73O3GW1","","null","<img src=""img/animal1.png"" style=""width:200px; border:14px solid green;"">","null","","","",""
"","image-keyboard-response","311","170413","0.0-311.0","34X6J5FLPUK64QNW1L83M3VPBP3QJG","A1G187YBG0DVMQ","3LN3BXKGC0HZB1VNEMH4SWP73O3GW1","","509.5","img/animal6.png","75","511.5","75","1",""
"","html-keyboard-response","312","170718","0.0-312.0","34X6J5FLPUK64QNW1L83M3VPBP3QJG","A1G187YBG0DVMQ","3LN3BXKGC0HZB1VNEMH4SWP73O3GW1","","null","<img src=""img/animal6.png"" style=""width:200px; border:14px solid green;"">","null","","","",""
"","image-keyboard-response","313","171087","0.0-313.0","34X6J5FLPUK64QNW1L83M3VPBP3QJG","A1G187YBG0DVMQ","3LN3BXKGC0HZB1VNEMH4SWP73O3GW1","","366.30000019073486","img/animal6.png","75","368","75","1",""
"","html-keyboard-response","314","171390","0.0-314.0","34X6J5FLPUK64QNW1L83M3VPBP3QJG","A1G187YBG0DVMQ","3LN3BXKGC0HZB1VNEMH4SWP73O3GW1","","null","<img src=""img/animal6.png"" style=""width:200px; border:14px solid green;"">","null","","","",""
"","image-keyboard-response","315","171877","0.0-315.0","34X6J5FLPUK64QNW1L83M3VPBP3QJG","A1G187YBG0DVMQ","3LN3BXKGC0HZB1VNEMH4SWP73O3GW1","","485.09999990463257","img/animal1.png","74","486.5","74","0",""
"","html-keyboard-response","316","172182","0.0-316.0","34X6J5FLPUK64QNW1L83M3VPBP3QJG","A1G187YBG0DVMQ","3LN3BXKGC0HZB1VNEMH4SWP73O3GW1","","null","<img src=""img/animal1.png"" style=""width:200px;border:14px solid red;"">","null","","","",""
"","image-keyboard-response","317","172400","0.0-317.0","34X6J5FLPUK64QNW1L83M3VPBP3QJG","A1G187YBG0DVMQ","3LN3BXKGC0HZB1VNEMH4SWP73O3GW1","","216.30000019073486","img/animal4.png","76","218.2000002861023","76","0",""
"","html-keyboard-response","318","172709","0.0-318.0","34X6J5FLPUK64QNW1L83M3VPBP3QJG","A1G187YBG0DVMQ","3LN3BXKGC0HZB1VNEMH4SWP73O3GW1","","null","<img src=""img/animal4.png"" style=""width:200px;border:14px solid red;"">","null","","","",""
"","image-keyboard-response","319","173341","0.0-319.0","34X6J5FLPUK64QNW1L83M3VPBP3QJG","A1G187YBG0DVMQ","3LN3BXKGC0HZB1VNEMH4SWP73O3GW1","","629.5999999046326","img/animal6.png","75","631.4000000953674","75","1",""
"","html-keyboard-response","320","173645","0.0-320.0","34X6J5FLPUK64QNW1L83M3VPBP3QJG","A1G187YBG0DVMQ","3LN3BXKGC0HZB1VNEMH4SWP73O3GW1","","null","<img src=""img/animal6.png"" style=""width:200px; border:14px solid green;"">","null","","","",""
"","image-keyboard-response","321","174252","0.0-321.0","34X6J5FLPUK64QNW1L83M3VPBP3QJG","A1G187YBG0DVMQ","3LN3BXKGC0HZB1VNEMH4SWP73O3GW1","","604.4000000953674","img/animal4.png","74","606.2999997138977","74","1",""
"","html-keyboard-response","322","174558","0.0-322.0","34X6J5FLPUK64QNW1L83M3VPBP3QJG","A1G187YBG0DVMQ","3LN3BXKGC0HZB1VNEMH4SWP73O3GW1","","null","<img src=""img/animal4.png"" style=""width:200px; border:14px solid green;"">","null","","","",""
"","image-keyboard-response","323","175057","0.0-323.0","34X6J5FLPUK64QNW1L83M3VPBP3QJG","A1G187YBG0DVMQ","3LN3BXKGC0HZB1VNEMH4SWP73O3GW1","","496.59999990463257","img/animal1.png","76","498.5","76","1",""
"","html-keyboard-response","324","175365","0.0-324.0","34X6J5FLPUK64QNW1L83M3VPBP3QJG","A1G187YBG0DVMQ","3LN3BXKGC0HZB1VNEMH4SWP73O3GW1","","null","<img src=""img/animal1.png"" style=""width:200px; border:14px solid green;"">","null","","","",""
"","image-keyboard-response","325","175758","0.0-325.0","34X6J5FLPUK64QNW1L83M3VPBP3QJG","A1G187YBG0DVMQ","3LN3BXKGC0HZB1VNEMH4SWP73O3GW1","","390.7000002861023","img/animal1.png","76","392.7000002861023","76","1",""
"","html-keyboard-response","326","176062","0.0-326.0","34X6J5FLPUK64QNW1L83M3VPBP3QJG","A1G187YBG0DVMQ","3LN3BXKGC0HZB1VNEMH4SWP73O3GW1","","null","<img src=""img/animal1.png"" style=""width:200px; border:14px solid green;"">","null","","","",""
"","image-keyboard-response","327","176944","0.0-327.0","34X6J5FLPUK64QNW1L83M3VPBP3QJG","A1G187YBG0DVMQ","3LN3BXKGC0HZB1VNEMH4SWP73O3GW1","","880.0999999046326","img/animal4.png","74","881.8000001907349","74","1",""
"","html-keyboard-response","328","177254","0.0-328.0","34X6J5FLPUK64QNW1L83M3VPBP3QJG","A1G187YBG0DVMQ","3LN3BXKGC0HZB1VNEMH4SWP73O3GW1","","null","<img src=""img/animal4.png"" style=""width:200px; border:14px solid green;"">","null","","","",""
"","image-keyboard-response","329","177628","0.0-329.0","34X6J5FLPUK64QNW1L83M3VPBP3QJG","A1G187YBG0DVMQ","3LN3BXKGC0HZB1VNEMH4SWP73O3GW1","","371.59999990463257","img/animal4.png","74","373.6000003814697","74","1",""
"","html-keyboard-response","330","177934","0.0-330.0","34X6J5FLPUK64QNW1L83M3VPBP3QJG","A1G187YBG0DVMQ","3LN3BXKGC0HZB1VNEMH4SWP73O3GW1","","null","<img src=""img/animal4.png"" style=""width:200px; border:14px solid green;"">","null","","","",""
"","image-keyboard-response","331","178538","0.0-331.0","34X6J5FLPUK64QNW1L83M3VPBP3QJG","A1G187YBG0DVMQ","3LN3BXKGC0HZB1VNEMH4SWP73O3GW1","","601.2999997138977","img/animal6.png","75","603.1999998092651","75","1",""
"","html-keyboard-response","332","178845","0.0-332.0","34X6J5FLPUK64QNW1L83M3VPBP3QJG","A1G187YBG0DVMQ","3LN3BXKGC0HZB1VNEMH4SWP73O3GW1","","null","<img src=""img/animal6.png"" style=""width:200px; border:14px solid green;"">","null","","","",""
"","image-keyboard-response","333","179435","0.0-333.0","34X6J5FLPUK64QNW1L83M3VPBP3QJG","A1G187YBG0DVMQ","3LN3BXKGC0HZB1VNEMH4SWP73O3GW1","","587.7000002861023","img/animal4.png","76","589.4000000953674","76","0",""
"","html-keyboard-response","334","179741","0.0-334.0","34X6J5FLPUK64QNW1L83M3VPBP3QJG","A1G187YBG0DVMQ","3LN3BXKGC0HZB1VNEMH4SWP73O3GW1","","null","<img src=""img/animal4.png"" style=""width:200px;border:14px solid red;"">","null","","","",""
"","image-keyboard-response","335","180369","0.0-335.0","34X6J5FLPUK64QNW1L83M3VPBP3QJG","A1G187YBG0DVMQ","3LN3BXKGC0HZB1VNEMH4SWP73O3GW1","","626.0999999046326","img/animal6.png","75","628","75","1",""
"","html-keyboard-response","336","180676","0.0-336.0","34X6J5FLPUK64QNW1L83M3VPBP3QJG","A1G187YBG0DVMQ","3LN3BXKGC0HZB1VNEMH4SWP73O3GW1","","null","<img src=""img/animal6.png"" style=""width:200px; border:14px solid green;"">","null","","","",""
"","image-keyboard-response","337","181266","0.0-337.0","34X6J5FLPUK64QNW1L83M3VPBP3QJG","A1G187YBG0DVMQ","3LN3BXKGC0HZB1VNEMH4SWP73O3GW1","","587.1999998092651","img/animal4.png","74","589","74","1",""
"","html-keyboard-response","338","181573","0.0-338.0","34X6J5FLPUK64QNW1L83M3VPBP3QJG","A1G187YBG0DVMQ","3LN3BXKGC0HZB1VNEMH4SWP73O3GW1","","null","<img src=""img/animal4.png"" style=""width:200px; border:14px solid green;"">","null","","","",""
"","image-keyboard-response","339","181952","0.0-339.0","34X6J5FLPUK64QNW1L83M3VPBP3QJG","A1G187YBG0DVMQ","3LN3BXKGC0HZB1VNEMH4SWP73O3GW1","","376.80000019073486","img/animal4.png","74","378.6000003814697","74","1",""
"","html-keyboard-response","340","182262","0.0-340.0","34X6J5FLPUK64QNW1L83M3VPBP3QJG","A1G187YBG0DVMQ","3LN3BXKGC0HZB1VNEMH4SWP73O3GW1","","null","<img src=""img/animal4.png"" style=""width:200px; border:14px solid green;"">","null","","","",""
"","image-keyboard-response","341","182867","0.0-341.0","34X6J5FLPUK64QNW1L83M3VPBP3QJG","A1G187YBG0DVMQ","3LN3BXKGC0HZB1VNEMH4SWP73O3GW1","","602.3999996185303","img/animal1.png","76","604.4000000953674","76","1",""
"","html-keyboard-response","342","183173","0.0-342.0","34X6J5FLPUK64QNW1L83M3VPBP3QJG","A1G187YBG0DVMQ","3LN3BXKGC0HZB1VNEMH4SWP73O3GW1","","null","<img src=""img/animal1.png"" style=""width:200px; border:14px solid green;"">","null","","","",""
"","image-keyboard-response","343","183620","0.0-343.0","34X6J5FLPUK64QNW1L83M3VPBP3QJG","A1G187YBG0DVMQ","3LN3BXKGC0HZB1VNEMH4SWP73O3GW1","","444.5","img/animal1.png","76","446.5","76","1",""
"","html-keyboard-response","344","183925","0.0-344.0","34X6J5FLPUK64QNW1L83M3VPBP3QJG","A1G187YBG0DVMQ","3LN3BXKGC0HZB1VNEMH4SWP73O3GW1","","null","<img src=""img/animal1.png"" style=""width:200px; border:14px solid green;"">","null","","","",""
"","image-keyboard-response","345","184508","0.0-345.0","34X6J5FLPUK64QNW1L83M3VPBP3QJG","A1G187YBG0DVMQ","3LN3BXKGC0HZB1VNEMH4SWP73O3GW1","","580.1999998092651","img/animal4.png","74","582","74","1",""
"","html-keyboard-response","346","184814","0.0-346.0","34X6J5FLPUK64QNW1L83M3VPBP3QJG","A1G187YBG0DVMQ","3LN3BXKGC0HZB1VNEMH4SWP73O3GW1","","null","<img src=""img/animal4.png"" style=""width:200px; border:14px solid green;"">","null","","","",""
"","image-keyboard-response","347","185241","0.0-347.0","34X6J5FLPUK64QNW1L83M3VPBP3QJG","A1G187YBG0DVMQ","3LN3BXKGC0HZB1VNEMH4SWP73O3GW1","","424.5","img/animal4.png","74","426.5","74","1",""
"","html-keyboard-response","348","185549","0.0-348.0","34X6J5FLPUK64QNW1L83M3VPBP3QJG","A1G187YBG0DVMQ","3LN3BXKGC0HZB1VNEMH4SWP73O3GW1","","null","<img src=""img/animal4.png"" style=""width:200px; border:14px solid green;"">","null","","","",""
"","image-keyboard-response","349","186100","0.0-349.0","34X6J5FLPUK64QNW1L83M3VPBP3QJG","A1G187YBG0DVMQ","3LN3BXKGC0HZB1VNEMH4SWP73O3GW1","","548.7000002861023","img/animal6.png","75","550.5","75","1",""
"","html-keyboard-response","350","186405","0.0-350.0","34X6J5FLPUK64QNW1L83M3VPBP3QJG","A1G187YBG0DVMQ","3LN3BXKGC0HZB1VNEMH4SWP73O3GW1","","null","<img src=""img/animal6.png"" style=""width:200px; border:14px solid green;"">","null","","","",""
"","image-keyboard-response","351","187214","0.0-351.0","34X6J5FLPUK64QNW1L83M3VPBP3QJG","A1G187YBG0DVMQ","3LN3BXKGC0HZB1VNEMH4SWP73O3GW1","","806.5","img/animal1.png","76","808.1999998092651","76","1",""
"","html-keyboard-response","352","187517","0.0-352.0","34X6J5FLPUK64QNW1L83M3VPBP3QJG","A1G187YBG0DVMQ","3LN3BXKGC0HZB1VNEMH4SWP73O3GW1","","null","<img src=""img/animal1.png"" style=""width:200px; border:14px solid green;"">","null","","","",""
"","image-keyboard-response","353","188337","0.0-353.0","34X6J5FLPUK64QNW1L83M3VPBP3QJG","A1G187YBG0DVMQ","3LN3BXKGC0HZB1VNEMH4SWP73O3GW1","","817","img/animal6.png","75","818.9000000953674","75","1",""
"","html-keyboard-response","354","188645","0.0-354.0","34X6J5FLPUK64QNW1L83M3VPBP3QJG","A1G187YBG0DVMQ","3LN3BXKGC0HZB1VNEMH4SWP73O3GW1","","null","<img src=""img/animal6.png"" style=""width:200px; border:14px solid green;"">","null","","","",""
"","image-keyboard-response","355","189280","0.0-355.0","34X6J5FLPUK64QNW1L83M3VPBP3QJG","A1G187YBG0DVMQ","3LN3BXKGC0HZB1VNEMH4SWP73O3GW1","","632.6000003814697","img/animal1.png","76","634.3000001907349","76","1",""
"","html-keyboard-response","356","189589","0.0-356.0","34X6J5FLPUK64QNW1L83M3VPBP3QJG","A1G187YBG0DVMQ","3LN3BXKGC0HZB1VNEMH4SWP73O3GW1","","null","<img src=""img/animal1.png"" style=""width:200px; border:14px solid green;"">","null","","","",""
"","image-keyboard-response","357","190127","0.0-357.0","34X6J5FLPUK64QNW1L83M3VPBP3QJG","A1G187YBG0DVMQ","3LN3BXKGC0HZB1VNEMH4SWP73O3GW1","","535.1999998092651","img/animal4.png","74","536.9000000953674","74","1",""
"","html-keyboard-response","358","190437","0.0-358.0","34X6J5FLPUK64QNW1L83M3VPBP3QJG","A1G187YBG0DVMQ","3LN3BXKGC0HZB1VNEMH4SWP73O3GW1","","null","<img src=""img/animal4.png"" style=""width:200px; border:14px solid green;"">","null","","","",""
"","image-keyboard-response","359","190982","0.0-359.0","34X6J5FLPUK64QNW1L83M3VPBP3QJG","A1G187YBG0DVMQ","3LN3BXKGC0HZB1VNEMH4SWP73O3GW1","","542.7999997138977","img/animal6.png","75","544.5999999046326","75","1",""
"","html-keyboard-response","360","191294","0.0-360.0","34X6J5FLPUK64QNW1L83M3VPBP3QJG","A1G187YBG0DVMQ","3LN3BXKGC0HZB1VNEMH4SWP73O3GW1","","null","<img src=""img/animal6.png"" style=""width:200px; border:14px solid green;"">","null","","","",""
"","image-keyboard-response","361","191802","0.0-361.0","34X6J5FLPUK64QNW1L83M3VPBP3QJG","A1G187YBG0DVMQ","3LN3BXKGC0HZB1VNEMH4SWP73O3GW1","","506","img/animal4.png","76","507.90000009536743","76","0",""
"","html-keyboard-response","362","192109","0.0-362.0","34X6J5FLPUK64QNW1L83M3VPBP3QJG","A1G187YBG0DVMQ","3LN3BXKGC0HZB1VNEMH4SWP73O3GW1","","null","<img src=""img/animal4.png"" style=""width:200px;border:14px solid red;"">","null","","","",""
"","instructions","363","194153","0.0-363.0","34X6J5FLPUK64QNW1L83M3VPBP3QJG","A1G187YBG0DVMQ","3LN3BXKGC0HZB1VNEMH4SWP73O3GW1","[{""page_index"":0,""viewing_time"":2042.1000003814697}]","2042.6000003814697","","","","","",""
"","survey-text","364","197353","0.0-364.0","34X6J5FLPUK64QNW1L83M3VPBP3QJG","A1G187YBG0DVMQ","3LN3BXKGC0HZB1VNEMH4SWP73O3GW1","","3197.199999809265","","","","","","{""Q0"":""A1G187YBG0DVMQ""}"
