"success","trial_type","trial_index","time_elapsed","internal_node_id","assignmentID","mturkID","hitID","view_history","rt","stimulus","key_press","reactionTime","a","r","s","reward_cond","responses"
"true","fullscreen","0","5012","0.0-0.0","3WMOAN2SRCJUSOAY2IU5LXBE2JCNV1","A1JWKT0IS06YKL","3A3KKYU7P33Z3BR9PPFZ5194ZCQMWU","","","","","","","","","",""
"","instructions","1","36452","0.0-1.0","3WMOAN2SRCJUSOAY2IU5LXBE2JCNV1","A1JWKT0IS06YKL","3A3KKYU7P33Z3BR9PPFZ5194ZCQMWU","[{""page_index"":0,""viewing_time"":6552.399999991059},{""page_index"":1,""viewing_time"":1833.5},{""page_index"":2,""viewing_time"":3233.2000000029802},{""page_index"":3,""viewing_time"":3750.2999999970198},{""page_index"":4,""viewing_time"":2266.5},{""page_index"":5,""viewing_time"":5667.5},{""page_index"":6,""viewing_time"":4100.20000000298},{""page_index"":7,""viewing_time"":4034.5}]","31439.20000000298","","","","","","","",""
"","image-keyboard-response","2","37303","0.0-2.0","3WMOAN2SRCJUSOAY2IU5LXBE2JCNV1","A1JWKT0IS06YKL","3A3KKYU7P33Z3BR9PPFZ5194ZCQMWU","","849.2999999970198","img/animal6.png","74","850.8000000119209","1","0","3","1,0.5,0,1,0,0.5,0.5,0,1",""
"","html-keyboard-response","3","37610","0.0-3.0","3WMOAN2SRCJUSOAY2IU5LXBE2JCNV1","A1JWKT0IS06YKL","3A3KKYU7P33Z3BR9PPFZ5194ZCQMWU","","null","<img src=""img/animal6.png"" style=""width:200px;border:14px solid red;"">","null","","","","","",""
"","image-keyboard-response","4","39180","0.0-4.0","3WMOAN2SRCJUSOAY2IU5LXBE2JCNV1","A1JWKT0IS06YKL","3A3KKYU7P33Z3BR9PPFZ5194ZCQMWU","","1568.0999999940395","img/animal2.png","74","1569.300000011921","1","1","2","1,0.5,0,1,0,0.5,0.5,0,1",""
"","html-keyboard-response","5","39482","0.0-5.0","3WMOAN2SRCJUSOAY2IU5LXBE2JCNV1","A1JWKT0IS06YKL","3A3KKYU7P33Z3BR9PPFZ5194ZCQMWU","","null","<img src=""img/animal2.png"" style=""width:200px; border:14px solid green;"">","null","","","","","",""
"","image-keyboard-response","6","40971","0.0-6.0","3WMOAN2SRCJUSOAY2IU5LXBE2JCNV1","A1JWKT0IS06YKL","3A3KKYU7P33Z3BR9PPFZ5194ZCQMWU","","1487.3999999910593","img/animal2.png","74","1488.3999999910593","1","1","2","1,0.5,0,1,0,0.5,0.5,0,1",""
"","html-keyboard-response","7","41279","0.0-7.0","3WMOAN2SRCJUSOAY2IU5LXBE2JCNV1","A1JWKT0IS06YKL","3A3KKYU7P33Z3BR9PPFZ5194ZCQMWU","","null","<img src=""img/animal2.png"" style=""width:200px; border:14px solid green;"">","null","","","","","",""
"","image-keyboard-response","8","42439","0.0-8.0","3WMOAN2SRCJUSOAY2IU5LXBE2JCNV1","A1JWKT0IS06YKL","3A3KKYU7P33Z3BR9PPFZ5194ZCQMWU","","1158.5999999940395","img/animal6.png","75","1159.6000000089407","2","0","3","1,0.5,0,1,0,0.5,0.5,0,1",""
"","html-keyboard-response","9","42748","0.0-9.0","3WMOAN2SRCJUSOAY2IU5LXBE2JCNV1","A1JWKT0IS06YKL","3A3KKYU7P33Z3BR9PPFZ5194ZCQMWU","","null","<img src=""img/animal6.png"" style=""width:200px;border:14px solid red;"">","null","","","","","",""
"","image-keyboard-response","10","43916","0.0-10.0","3WMOAN2SRCJUSOAY2IU5LXBE2JCNV1","A1JWKT0IS06YKL","3A3KKYU7P33Z3BR9PPFZ5194ZCQMWU","","1166.2999999970198","img/animal1.png","75","1167.2999999970198","2","0","1","1,0.5,0,1,0,0.5,0.5,0,1",""
"","html-keyboard-response","11","44221","0.0-11.0","3WMOAN2SRCJUSOAY2IU5LXBE2JCNV1","A1JWKT0IS06YKL","3A3KKYU7P33Z3BR9PPFZ5194ZCQMWU","","null","<img src=""img/animal1.png"" style=""width:200px;border:14px solid red;"">","null","","","","","",""
"","image-keyboard-response","12","45223","0.0-12.0","3WMOAN2SRCJUSOAY2IU5LXBE2JCNV1","A1JWKT0IS06YKL","3A3KKYU7P33Z3BR9PPFZ5194ZCQMWU","","1001.2999999970198","img/animal2.png","74","1002.0999999940395","1","1","2","1,0.5,0,1,0,0.5,0.5,0,1",""
"","html-keyboard-response","13","45531","0.0-13.0","3WMOAN2SRCJUSOAY2IU5LXBE2JCNV1","A1JWKT0IS06YKL","3A3KKYU7P33Z3BR9PPFZ5194ZCQMWU","","null","<img src=""img/animal2.png"" style=""width:200px; border:14px solid green;"">","null","","","","","",""
"","image-keyboard-response","14","46667","0.0-14.0","3WMOAN2SRCJUSOAY2IU5LXBE2JCNV1","A1JWKT0IS06YKL","3A3KKYU7P33Z3BR9PPFZ5194ZCQMWU","","1135","img/animal1.png","76","1136","3","0","1","1,0.5,0,1,0,0.5,0.5,0,1",""
"","html-keyboard-response","15","46972","0.0-15.0","3WMOAN2SRCJUSOAY2IU5LXBE2JCNV1","A1JWKT0IS06YKL","3A3KKYU7P33Z3BR9PPFZ5194ZCQMWU","","null","<img src=""img/animal1.png"" style=""width:200px;border:14px solid red;"">","null","","","","","",""
"","image-keyboard-response","16","48419","0.0-16.0","3WMOAN2SRCJUSOAY2IU5LXBE2JCNV1","A1JWKT0IS06YKL","3A3KKYU7P33Z3BR9PPFZ5194ZCQMWU","","1445.2999999970198","img/animal2.png","74","1446.2000000029802","1","1","2","1,0.5,0,1,0,0.5,0.5,0,1",""
"","html-keyboard-response","17","48725","0.0-17.0","3WMOAN2SRCJUSOAY2IU5LXBE2JCNV1","A1JWKT0IS06YKL","3A3KKYU7P33Z3BR9PPFZ5194ZCQMWU","","null","<img src=""img/animal2.png"" style=""width:200px; border:14px solid green;"">","null","","","","","",""
"","image-keyboard-response","18","49327","0.0-18.0","3WMOAN2SRCJUSOAY2IU5LXBE2JCNV1","A1JWKT0IS06YKL","3A3KKYU7P33Z3BR9PPFZ5194ZCQMWU","","600.8999999910593","img/animal1.png","74","602.0999999940395","1","1","1","1,0.5,0,1,0,0.5,0.5,0,1",""
"","html-keyboard-response","19","49637","0.0-19.0","3WMOAN2SRCJUSOAY2IU5LXBE2JCNV1","A1JWKT0IS06YKL","3A3KKYU7P33Z3BR9PPFZ5194ZCQMWU","","null","<img src=""img/animal1.png"" style=""width:200px; border:14px solid green;"">","null","","","","","",""
"","image-keyboard-response","20","50429","0.0-20.0","3WMOAN2SRCJUSOAY2IU5LXBE2JCNV1","A1JWKT0IS06YKL","3A3KKYU7P33Z3BR9PPFZ5194ZCQMWU","","790.6999999880791","img/animal2.png","74","791.7999999970198","1","1","2","1,0.5,0,1,0,0.5,0.5,0,1",""
"","html-keyboard-response","21","50740","0.0-21.0","3WMOAN2SRCJUSOAY2IU5LXBE2JCNV1","A1JWKT0IS06YKL","3A3KKYU7P33Z3BR9PPFZ5194ZCQMWU","","null","<img src=""img/animal2.png"" style=""width:200px; border:14px solid green;"">","null","","","","","",""
"","image-keyboard-response","22","51361","0.0-22.0","3WMOAN2SRCJUSOAY2IU5LXBE2JCNV1","A1JWKT0IS06YKL","3A3KKYU7P33Z3BR9PPFZ5194ZCQMWU","","620.5999999940395","img/animal2.png","74","621.5999999940395","1","1","2","1,0.5,0,1,0,0.5,0.5,0,1",""
"","html-keyboard-response","23","51668","0.0-23.0","3WMOAN2SRCJUSOAY2IU5LXBE2JCNV1","A1JWKT0IS06YKL","3A3KKYU7P33Z3BR9PPFZ5194ZCQMWU","","null","<img src=""img/animal2.png"" style=""width:200px; border:14px solid green;"">","null","","","","","",""
"","image-keyboard-response","24","52392","0.0-24.0","3WMOAN2SRCJUSOAY2IU5LXBE2JCNV1","A1JWKT0IS06YKL","3A3KKYU7P33Z3BR9PPFZ5194ZCQMWU","","722.8999999910593","img/animal2.png","74","723.9000000059605","1","1","2","1,0.5,0,1,0,0.5,0.5,0,1",""
"","html-keyboard-response","25","52697","0.0-25.0","3WMOAN2SRCJUSOAY2IU5LXBE2JCNV1","A1JWKT0IS06YKL","3A3KKYU7P33Z3BR9PPFZ5194ZCQMWU","","null","<img src=""img/animal2.png"" style=""width:200px; border:14px solid green;"">","null","","","","","",""
"","image-keyboard-response","26","53184","0.0-26.0","3WMOAN2SRCJUSOAY2IU5LXBE2JCNV1","A1JWKT0IS06YKL","3A3KKYU7P33Z3BR9PPFZ5194ZCQMWU","","485","img/animal2.png","74","485.80000001192093","1","1","2","1,0.5,0,1,0,0.5,0.5,0,1",""
"","html-keyboard-response","27","53494","0.0-27.0","3WMOAN2SRCJUSOAY2IU5LXBE2JCNV1","A1JWKT0IS06YKL","3A3KKYU7P33Z3BR9PPFZ5194ZCQMWU","","null","<img src=""img/animal2.png"" style=""width:200px; border:14px solid green;"">","null","","","","","",""
"","image-keyboard-response","28","54302","0.0-28.0","3WMOAN2SRCJUSOAY2IU5LXBE2JCNV1","A1JWKT0IS06YKL","3A3KKYU7P33Z3BR9PPFZ5194ZCQMWU","","807.3999999910593","img/animal6.png","74","808.2999999970198","1","0","3","1,0.5,0,1,0,0.5,0.5,0,1",""
"","html-keyboard-response","29","54613","0.0-29.0","3WMOAN2SRCJUSOAY2IU5LXBE2JCNV1","A1JWKT0IS06YKL","3A3KKYU7P33Z3BR9PPFZ5194ZCQMWU","","null","<img src=""img/animal6.png"" style=""width:200px;border:14px solid red;"">","null","","","","","",""
"","image-keyboard-response","30","56246","0.0-30.0","3WMOAN2SRCJUSOAY2IU5LXBE2JCNV1","A1JWKT0IS06YKL","3A3KKYU7P33Z3BR9PPFZ5194ZCQMWU","","1632.3999999910593","img/animal6.png","76","1633.4000000059605","3","1","3","1,0.5,0,1,0,0.5,0.5,0,1",""
"","html-keyboard-response","31","56556","0.0-31.0","3WMOAN2SRCJUSOAY2IU5LXBE2JCNV1","A1JWKT0IS06YKL","3A3KKYU7P33Z3BR9PPFZ5194ZCQMWU","","null","<img src=""img/animal6.png"" style=""width:200px; border:14px solid green;"">","null","","","","","",""
"","image-keyboard-response","32","57253","0.0-32.0","3WMOAN2SRCJUSOAY2IU5LXBE2JCNV1","A1JWKT0IS06YKL","3A3KKYU7P33Z3BR9PPFZ5194ZCQMWU","","696.1999999880791","img/animal2.png","74","697","1","1","2","1,0.5,0,1,0,0.5,0.5,0,1",""
"","html-keyboard-response","33","57563","0.0-33.0","3WMOAN2SRCJUSOAY2IU5LXBE2JCNV1","A1JWKT0IS06YKL","3A3KKYU7P33Z3BR9PPFZ5194ZCQMWU","","null","<img src=""img/animal2.png"" style=""width:200px; border:14px solid green;"">","null","","","","","",""
"","image-keyboard-response","34","58179","0.0-34.0","3WMOAN2SRCJUSOAY2IU5LXBE2JCNV1","A1JWKT0IS06YKL","3A3KKYU7P33Z3BR9PPFZ5194ZCQMWU","","614.8999999910593","img/animal2.png","74","615.6999999880791","1","1","2","1,0.5,0,1,0,0.5,0.5,0,1",""
"","html-keyboard-response","35","58484","0.0-35.0","3WMOAN2SRCJUSOAY2IU5LXBE2JCNV1","A1JWKT0IS06YKL","3A3KKYU7P33Z3BR9PPFZ5194ZCQMWU","","null","<img src=""img/animal2.png"" style=""width:200px; border:14px solid green;"">","null","","","","","",""
"","image-keyboard-response","36","59594","0.0-36.0","3WMOAN2SRCJUSOAY2IU5LXBE2JCNV1","A1JWKT0IS06YKL","3A3KKYU7P33Z3BR9PPFZ5194ZCQMWU","","1108.7999999970198","img/animal6.png","76","1109.4000000059605","3","1","3","1,0.5,0,1,0,0.5,0.5,0,1",""
"","html-keyboard-response","37","59901","0.0-37.0","3WMOAN2SRCJUSOAY2IU5LXBE2JCNV1","A1JWKT0IS06YKL","3A3KKYU7P33Z3BR9PPFZ5194ZCQMWU","","null","<img src=""img/animal6.png"" style=""width:200px; border:14px solid green;"">","null","","","","","",""
"","image-keyboard-response","38","60693","0.0-38.0","3WMOAN2SRCJUSOAY2IU5LXBE2JCNV1","A1JWKT0IS06YKL","3A3KKYU7P33Z3BR9PPFZ5194ZCQMWU","","790.7000000029802","img/animal1.png","74","791.5999999940395","1","1","1","1,0.5,0,1,0,0.5,0.5,0,1",""
"","html-keyboard-response","39","61003","0.0-39.0","3WMOAN2SRCJUSOAY2IU5LXBE2JCNV1","A1JWKT0IS06YKL","3A3KKYU7P33Z3BR9PPFZ5194ZCQMWU","","null","<img src=""img/animal1.png"" style=""width:200px; border:14px solid green;"">","null","","","","","",""
"","image-keyboard-response","40","61565","0.0-40.0","3WMOAN2SRCJUSOAY2IU5LXBE2JCNV1","A1JWKT0IS06YKL","3A3KKYU7P33Z3BR9PPFZ5194ZCQMWU","","560.8999999910593","img/animal1.png","74","561.9000000059605","1","1","1","1,0.5,0,1,0,0.5,0.5,0,1",""
"","html-keyboard-response","41","61879","0.0-41.0","3WMOAN2SRCJUSOAY2IU5LXBE2JCNV1","A1JWKT0IS06YKL","3A3KKYU7P33Z3BR9PPFZ5194ZCQMWU","","null","<img src=""img/animal1.png"" style=""width:200px; border:14px solid green;"">","null","","","","","",""
"","image-keyboard-response","42","62510","0.0-42.0","3WMOAN2SRCJUSOAY2IU5LXBE2JCNV1","A1JWKT0IS06YKL","3A3KKYU7P33Z3BR9PPFZ5194ZCQMWU","","629.7000000029802","img/animal6.png","76","631.6000000089407","3","1","3","1,0.5,0,1,0,0.5,0.5,0,1",""
"","html-keyboard-response","43","62819","0.0-43.0","3WMOAN2SRCJUSOAY2IU5LXBE2JCNV1","A1JWKT0IS06YKL","3A3KKYU7P33Z3BR9PPFZ5194ZCQMWU","","null","<img src=""img/animal6.png"" style=""width:200px; border:14px solid green;"">","null","","","","","",""
"","image-keyboard-response","44","63362","0.0-44.0","3WMOAN2SRCJUSOAY2IU5LXBE2JCNV1","A1JWKT0IS06YKL","3A3KKYU7P33Z3BR9PPFZ5194ZCQMWU","","541.0999999940395","img/animal6.png","76","542","3","1","3","1,0.5,0,1,0,0.5,0.5,0,1",""
"","html-keyboard-response","45","63668","0.0-45.0","3WMOAN2SRCJUSOAY2IU5LXBE2JCNV1","A1JWKT0IS06YKL","3A3KKYU7P33Z3BR9PPFZ5194ZCQMWU","","null","<img src=""img/animal6.png"" style=""width:200px; border:14px solid green;"">","null","","","","","",""
"","image-keyboard-response","46","64285","0.0-46.0","3WMOAN2SRCJUSOAY2IU5LXBE2JCNV1","A1JWKT0IS06YKL","3A3KKYU7P33Z3BR9PPFZ5194ZCQMWU","","615.3999999910593","img/animal2.png","74","616.0999999940395","1","1","2","1,0.5,0,1,0,0.5,0.5,0,1",""
"","html-keyboard-response","47","64596","0.0-47.0","3WMOAN2SRCJUSOAY2IU5LXBE2JCNV1","A1JWKT0IS06YKL","3A3KKYU7P33Z3BR9PPFZ5194ZCQMWU","","null","<img src=""img/animal2.png"" style=""width:200px; border:14px solid green;"">","null","","","","","",""
"","image-keyboard-response","48","66023","0.0-48.0","3WMOAN2SRCJUSOAY2IU5LXBE2JCNV1","A1JWKT0IS06YKL","3A3KKYU7P33Z3BR9PPFZ5194ZCQMWU","","1425.9000000059605","img/animal1.png","74","1426.699999988079","1","1","1","1,0.5,0,1,0,0.5,0.5,0,1",""
"","html-keyboard-response","49","66325","0.0-49.0","3WMOAN2SRCJUSOAY2IU5LXBE2JCNV1","A1JWKT0IS06YKL","3A3KKYU7P33Z3BR9PPFZ5194ZCQMWU","","null","<img src=""img/animal1.png"" style=""width:200px; border:14px solid green;"">","null","","","","","",""
"","image-keyboard-response","50","66808","0.0-50.0","3WMOAN2SRCJUSOAY2IU5LXBE2JCNV1","A1JWKT0IS06YKL","3A3KKYU7P33Z3BR9PPFZ5194ZCQMWU","","482.1000000089407","img/animal1.png","74","482.79999999701977","1","1","1","1,0.5,0,1,0,0.5,0.5,0,1",""
"","html-keyboard-response","51","67116","0.0-51.0","3WMOAN2SRCJUSOAY2IU5LXBE2JCNV1","A1JWKT0IS06YKL","3A3KKYU7P33Z3BR9PPFZ5194ZCQMWU","","null","<img src=""img/animal1.png"" style=""width:200px; border:14px solid green;"">","null","","","","","",""
"","image-keyboard-response","52","68016","0.0-52.0","3WMOAN2SRCJUSOAY2IU5LXBE2JCNV1","A1JWKT0IS06YKL","3A3KKYU7P33Z3BR9PPFZ5194ZCQMWU","","898.4000000059605","img/animal6.png","76","899.0999999940395","3","1","3","1,0.5,0,1,0,0.5,0.5,0,1",""
"","html-keyboard-response","53","68324","0.0-53.0","3WMOAN2SRCJUSOAY2IU5LXBE2JCNV1","A1JWKT0IS06YKL","3A3KKYU7P33Z3BR9PPFZ5194ZCQMWU","","null","<img src=""img/animal6.png"" style=""width:200px; border:14px solid green;"">","null","","","","","",""
"","image-keyboard-response","54","69299","0.0-54.0","3WMOAN2SRCJUSOAY2IU5LXBE2JCNV1","A1JWKT0IS06YKL","3A3KKYU7P33Z3BR9PPFZ5194ZCQMWU","","973.7999999970198","img/animal6.png","76","974.7000000029802","3","1","3","1,0.5,0,1,0,0.5,0.5,0,1",""
"","html-keyboard-response","55","69605","0.0-55.0","3WMOAN2SRCJUSOAY2IU5LXBE2JCNV1","A1JWKT0IS06YKL","3A3KKYU7P33Z3BR9PPFZ5194ZCQMWU","","null","<img src=""img/animal6.png"" style=""width:200px; border:14px solid green;"">","null","","","","","",""
"","image-keyboard-response","56","70303","0.0-56.0","3WMOAN2SRCJUSOAY2IU5LXBE2JCNV1","A1JWKT0IS06YKL","3A3KKYU7P33Z3BR9PPFZ5194ZCQMWU","","696.5999999940395","img/animal1.png","74","697.5","1","1","1","1,0.5,0,1,0,0.5,0.5,0,1",""
"","html-keyboard-response","57","70609","0.0-57.0","3WMOAN2SRCJUSOAY2IU5LXBE2JCNV1","A1JWKT0IS06YKL","3A3KKYU7P33Z3BR9PPFZ5194ZCQMWU","","null","<img src=""img/animal1.png"" style=""width:200px; border:14px solid green;"">","null","","","","","",""
"","image-keyboard-response","58","71326","0.0-58.0","3WMOAN2SRCJUSOAY2IU5LXBE2JCNV1","A1JWKT0IS06YKL","3A3KKYU7P33Z3BR9PPFZ5194ZCQMWU","","715.2999999970198","img/animal2.png","74","716.2000000029802","1","1","2","1,0.5,0,1,0,0.5,0.5,0,1",""
"","html-keyboard-response","59","71637","0.0-59.0","3WMOAN2SRCJUSOAY2IU5LXBE2JCNV1","A1JWKT0IS06YKL","3A3KKYU7P33Z3BR9PPFZ5194ZCQMWU","","null","<img src=""img/animal2.png"" style=""width:200px; border:14px solid green;"">","null","","","","","",""
"","image-keyboard-response","60","72631","0.0-60.0","3WMOAN2SRCJUSOAY2IU5LXBE2JCNV1","A1JWKT0IS06YKL","3A3KKYU7P33Z3BR9PPFZ5194ZCQMWU","","992.2999999970198","img/animal6.png","76","993.2000000029802","3","1","3","1,0.5,0,1,0,0.5,0.5,0,1",""
"","html-keyboard-response","61","72937","0.0-61.0","3WMOAN2SRCJUSOAY2IU5LXBE2JCNV1","A1JWKT0IS06YKL","3A3KKYU7P33Z3BR9PPFZ5194ZCQMWU","","null","<img src=""img/animal6.png"" style=""width:200px; border:14px solid green;"">","null","","","","","",""
"","image-keyboard-response","62","73671","0.0-62.0","3WMOAN2SRCJUSOAY2IU5LXBE2JCNV1","A1JWKT0IS06YKL","3A3KKYU7P33Z3BR9PPFZ5194ZCQMWU","","732.3999999910593","img/animal2.png","74","733.2000000029802","1","1","2","1,0.5,0,1,0,0.5,0.5,0,1",""
"","html-keyboard-response","63","73982","0.0-63.0","3WMOAN2SRCJUSOAY2IU5LXBE2JCNV1","A1JWKT0IS06YKL","3A3KKYU7P33Z3BR9PPFZ5194ZCQMWU","","null","<img src=""img/animal2.png"" style=""width:200px; border:14px solid green;"">","null","","","","","",""
"","image-keyboard-response","64","74709","0.0-64.0","3WMOAN2SRCJUSOAY2IU5LXBE2JCNV1","A1JWKT0IS06YKL","3A3KKYU7P33Z3BR9PPFZ5194ZCQMWU","","726.0999999940395","img/animal6.png","76","727","3","1","3","1,0.5,0,1,0,0.5,0.5,0,1",""
"","html-keyboard-response","65","75018","0.0-65.0","3WMOAN2SRCJUSOAY2IU5LXBE2JCNV1","A1JWKT0IS06YKL","3A3KKYU7P33Z3BR9PPFZ5194ZCQMWU","","null","<img src=""img/animal6.png"" style=""width:200px; border:14px solid green;"">","null","","","","","",""
"","image-keyboard-response","66","75653","0.0-66.0","3WMOAN2SRCJUSOAY2IU5LXBE2JCNV1","A1JWKT0IS06YKL","3A3KKYU7P33Z3BR9PPFZ5194ZCQMWU","","634.0999999940395","img/animal2.png","74","635.0999999940395","1","1","2","1,0.5,0,1,0,0.5,0.5,0,1",""
"","html-keyboard-response","67","75961","0.0-67.0","3WMOAN2SRCJUSOAY2IU5LXBE2JCNV1","A1JWKT0IS06YKL","3A3KKYU7P33Z3BR9PPFZ5194ZCQMWU","","null","<img src=""img/animal2.png"" style=""width:200px; border:14px solid green;"">","null","","","","","",""
"","image-keyboard-response","68","77075","0.0-68.0","3WMOAN2SRCJUSOAY2IU5LXBE2JCNV1","A1JWKT0IS06YKL","3A3KKYU7P33Z3BR9PPFZ5194ZCQMWU","","1112.800000011921","img/animal1.png","74","1113.5999999940395","1","1","1","1,0.5,0,1,0,0.5,0.5,0,1",""
"","html-keyboard-response","69","77385","0.0-69.0","3WMOAN2SRCJUSOAY2IU5LXBE2JCNV1","A1JWKT0IS06YKL","3A3KKYU7P33Z3BR9PPFZ5194ZCQMWU","","null","<img src=""img/animal1.png"" style=""width:200px; border:14px solid green;"">","null","","","","","",""
"","image-keyboard-response","70","78844","0.0-70.0","3WMOAN2SRCJUSOAY2IU5LXBE2JCNV1","A1JWKT0IS06YKL","3A3KKYU7P33Z3BR9PPFZ5194ZCQMWU","","1457.8999999910593","img/animal1.png","74","1458.7000000029802","1","1","1","1,0.5,0,1,0,0.5,0.5,0,1",""
"","html-keyboard-response","71","79154","0.0-71.0","3WMOAN2SRCJUSOAY2IU5LXBE2JCNV1","A1JWKT0IS06YKL","3A3KKYU7P33Z3BR9PPFZ5194ZCQMWU","","null","<img src=""img/animal1.png"" style=""width:200px; border:14px solid green;"">","null","","","","","",""
"","image-keyboard-response","72","79839","0.0-72.0","3WMOAN2SRCJUSOAY2IU5LXBE2JCNV1","A1JWKT0IS06YKL","3A3KKYU7P33Z3BR9PPFZ5194ZCQMWU","","684.0999999940395","img/animal2.png","74","685","1","1","2","1,0.5,0,1,0,0.5,0.5,0,1",""
"","html-keyboard-response","73","80148","0.0-73.0","3WMOAN2SRCJUSOAY2IU5LXBE2JCNV1","A1JWKT0IS06YKL","3A3KKYU7P33Z3BR9PPFZ5194ZCQMWU","","null","<img src=""img/animal2.png"" style=""width:200px; border:14px solid green;"">","null","","","","","",""
"","image-keyboard-response","74","80724","0.0-74.0","3WMOAN2SRCJUSOAY2IU5LXBE2JCNV1","A1JWKT0IS06YKL","3A3KKYU7P33Z3BR9PPFZ5194ZCQMWU","","574.6000000089407","img/animal6.png","76","575.5","3","1","3","1,0.5,0,1,0,0.5,0.5,0,1",""
"","html-keyboard-response","75","81035","0.0-75.0","3WMOAN2SRCJUSOAY2IU5LXBE2JCNV1","A1JWKT0IS06YKL","3A3KKYU7P33Z3BR9PPFZ5194ZCQMWU","","null","<img src=""img/animal6.png"" style=""width:200px; border:14px solid green;"">","null","","","","","",""
"","image-keyboard-response","76","81772","0.0-76.0","3WMOAN2SRCJUSOAY2IU5LXBE2JCNV1","A1JWKT0IS06YKL","3A3KKYU7P33Z3BR9PPFZ5194ZCQMWU","","736.5999999940395","img/animal6.png","76","737","3","1","3","1,0.5,0,1,0,0.5,0.5,0,1",""
"","html-keyboard-response","77","82085","0.0-77.0","3WMOAN2SRCJUSOAY2IU5LXBE2JCNV1","A1JWKT0IS06YKL","3A3KKYU7P33Z3BR9PPFZ5194ZCQMWU","","null","<img src=""img/animal6.png"" style=""width:200px; border:14px solid green;"">","null","","","","","",""
"","image-keyboard-response","78","82575","0.0-78.0","3WMOAN2SRCJUSOAY2IU5LXBE2JCNV1","A1JWKT0IS06YKL","3A3KKYU7P33Z3BR9PPFZ5194ZCQMWU","","488.40000000596046","img/animal6.png","76","489.29999999701977","3","1","3","1,0.5,0,1,0,0.5,0.5,0,1",""
"","html-keyboard-response","79","82881","0.0-79.0","3WMOAN2SRCJUSOAY2IU5LXBE2JCNV1","A1JWKT0IS06YKL","3A3KKYU7P33Z3BR9PPFZ5194ZCQMWU","","null","<img src=""img/animal6.png"" style=""width:200px; border:14px solid green;"">","null","","","","","",""
"","image-keyboard-response","80","83490","0.0-80.0","3WMOAN2SRCJUSOAY2IU5LXBE2JCNV1","A1JWKT0IS06YKL","3A3KKYU7P33Z3BR9PPFZ5194ZCQMWU","","608.2000000029802","img/animal1.png","74","609","1","1","1","1,0.5,0,1,0,0.5,0.5,0,1",""
"","html-keyboard-response","81","83799","0.0-81.0","3WMOAN2SRCJUSOAY2IU5LXBE2JCNV1","A1JWKT0IS06YKL","3A3KKYU7P33Z3BR9PPFZ5194ZCQMWU","","null","<img src=""img/animal1.png"" style=""width:200px; border:14px solid green;"">","null","","","","","",""
"","image-keyboard-response","82","84632","0.0-82.0","3WMOAN2SRCJUSOAY2IU5LXBE2JCNV1","A1JWKT0IS06YKL","3A3KKYU7P33Z3BR9PPFZ5194ZCQMWU","","831.7000000029802","img/animal6.png","76","832.5","3","1","3","1,0.5,0,1,0,0.5,0.5,0,1",""
"","html-keyboard-response","83","84937","0.0-83.0","3WMOAN2SRCJUSOAY2IU5LXBE2JCNV1","A1JWKT0IS06YKL","3A3KKYU7P33Z3BR9PPFZ5194ZCQMWU","","null","<img src=""img/animal6.png"" style=""width:200px; border:14px solid green;"">","null","","","","","",""
"","image-keyboard-response","84","85423","0.0-84.0","3WMOAN2SRCJUSOAY2IU5LXBE2JCNV1","A1JWKT0IS06YKL","3A3KKYU7P33Z3BR9PPFZ5194ZCQMWU","","485","img/animal6.png","76","485.90000000596046","3","1","3","1,0.5,0,1,0,0.5,0.5,0,1",""
"","html-keyboard-response","85","85731","0.0-85.0","3WMOAN2SRCJUSOAY2IU5LXBE2JCNV1","A1JWKT0IS06YKL","3A3KKYU7P33Z3BR9PPFZ5194ZCQMWU","","null","<img src=""img/animal6.png"" style=""width:200px; border:14px solid green;"">","null","","","","","",""
"","image-keyboard-response","86","86239","0.0-86.0","3WMOAN2SRCJUSOAY2IU5LXBE2JCNV1","A1JWKT0IS06YKL","3A3KKYU7P33Z3BR9PPFZ5194ZCQMWU","","506.79999999701977","img/animal1.png","74","507.59999999403954","1","1","1","1,0.5,0,1,0,0.5,0.5,0,1",""
"","html-keyboard-response","87","86549","0.0-87.0","3WMOAN2SRCJUSOAY2IU5LXBE2JCNV1","A1JWKT0IS06YKL","3A3KKYU7P33Z3BR9PPFZ5194ZCQMWU","","null","<img src=""img/animal1.png"" style=""width:200px; border:14px solid green;"">","null","","","","","",""
"","image-keyboard-response","88","87214","0.0-88.0","3WMOAN2SRCJUSOAY2IU5LXBE2JCNV1","A1JWKT0IS06YKL","3A3KKYU7P33Z3BR9PPFZ5194ZCQMWU","","663.4000000059605","img/animal1.png","74","664.2999999970198","1","1","1","1,0.5,0,1,0,0.5,0.5,0,1",""
"","html-keyboard-response","89","87525","0.0-89.0","3WMOAN2SRCJUSOAY2IU5LXBE2JCNV1","A1JWKT0IS06YKL","3A3KKYU7P33Z3BR9PPFZ5194ZCQMWU","","null","<img src=""img/animal1.png"" style=""width:200px; border:14px solid green;"">","null","","","","","",""
"","image-keyboard-response","90","88236","0.0-90.0","3WMOAN2SRCJUSOAY2IU5LXBE2JCNV1","A1JWKT0IS06YKL","3A3KKYU7P33Z3BR9PPFZ5194ZCQMWU","","710.5","img/animal2.png","74","711.4000000059605","1","1","2","1,0.5,0,1,0,0.5,0.5,0,1",""
"","html-keyboard-response","91","88546","0.0-91.0","3WMOAN2SRCJUSOAY2IU5LXBE2JCNV1","A1JWKT0IS06YKL","3A3KKYU7P33Z3BR9PPFZ5194ZCQMWU","","null","<img src=""img/animal2.png"" style=""width:200px; border:14px solid green;"">","null","","","","","",""
"","image-keyboard-response","92","89285","0.0-92.0","3WMOAN2SRCJUSOAY2IU5LXBE2JCNV1","A1JWKT0IS06YKL","3A3KKYU7P33Z3BR9PPFZ5194ZCQMWU","","737.2999999970198","img/animal6.png","76","738.2000000029802","3","1","3","1,0.5,0,1,0,0.5,0.5,0,1",""
"","html-keyboard-response","93","89595","0.0-93.0","3WMOAN2SRCJUSOAY2IU5LXBE2JCNV1","A1JWKT0IS06YKL","3A3KKYU7P33Z3BR9PPFZ5194ZCQMWU","","null","<img src=""img/animal6.png"" style=""width:200px; border:14px solid green;"">","null","","","","","",""
"","image-keyboard-response","94","90330","0.0-94.0","3WMOAN2SRCJUSOAY2IU5LXBE2JCNV1","A1JWKT0IS06YKL","3A3KKYU7P33Z3BR9PPFZ5194ZCQMWU","","731.5","img/animal2.png","74","734.7000000029802","1","1","2","1,0.5,0,1,0,0.5,0.5,0,1",""
"","html-keyboard-response","95","90642","0.0-95.0","3WMOAN2SRCJUSOAY2IU5LXBE2JCNV1","A1JWKT0IS06YKL","3A3KKYU7P33Z3BR9PPFZ5194ZCQMWU","","null","<img src=""img/animal2.png"" style=""width:200px; border:14px solid green;"">","null","","","","","",""
"","image-keyboard-response","96","91361","0.0-96.0","3WMOAN2SRCJUSOAY2IU5LXBE2JCNV1","A1JWKT0IS06YKL","3A3KKYU7P33Z3BR9PPFZ5194ZCQMWU","","718.5","img/animal2.png","74","719.5","1","1","2","1,0.5,0,1,0,0.5,0.5,0,1",""
"","html-keyboard-response","97","91664","0.0-97.0","3WMOAN2SRCJUSOAY2IU5LXBE2JCNV1","A1JWKT0IS06YKL","3A3KKYU7P33Z3BR9PPFZ5194ZCQMWU","","null","<img src=""img/animal2.png"" style=""width:200px; border:14px solid green;"">","null","","","","","",""
"","image-keyboard-response","98","92532","0.0-98.0","3WMOAN2SRCJUSOAY2IU5LXBE2JCNV1","A1JWKT0IS06YKL","3A3KKYU7P33Z3BR9PPFZ5194ZCQMWU","","867.0999999940395","img/animal6.png","76","868.2000000029802","3","1","3","1,0.5,0,1,0,0.5,0.5,0,1",""
"","html-keyboard-response","99","92842","0.0-99.0","3WMOAN2SRCJUSOAY2IU5LXBE2JCNV1","A1JWKT0IS06YKL","3A3KKYU7P33Z3BR9PPFZ5194ZCQMWU","","null","<img src=""img/animal6.png"" style=""width:200px; border:14px solid green;"">","null","","","","","",""
"","image-keyboard-response","100","93584","0.0-100.0","3WMOAN2SRCJUSOAY2IU5LXBE2JCNV1","A1JWKT0IS06YKL","3A3KKYU7P33Z3BR9PPFZ5194ZCQMWU","","741.7000000029802","img/animal6.png","76","742.5","3","1","3","1,0.5,0,1,0,0.5,0.5,0,1",""
"","html-keyboard-response","101","93892","0.0-101.0","3WMOAN2SRCJUSOAY2IU5LXBE2JCNV1","A1JWKT0IS06YKL","3A3KKYU7P33Z3BR9PPFZ5194ZCQMWU","","null","<img src=""img/animal6.png"" style=""width:200px; border:14px solid green;"">","null","","","","","",""
"","image-keyboard-response","102","94619","0.0-102.0","3WMOAN2SRCJUSOAY2IU5LXBE2JCNV1","A1JWKT0IS06YKL","3A3KKYU7P33Z3BR9PPFZ5194ZCQMWU","","725.6999999880791","img/animal1.png","74","726.5","1","1","1","1,0.5,0,1,0,0.5,0.5,0,1",""
"","html-keyboard-response","103","94931","0.0-103.0","3WMOAN2SRCJUSOAY2IU5LXBE2JCNV1","A1JWKT0IS06YKL","3A3KKYU7P33Z3BR9PPFZ5194ZCQMWU","","null","<img src=""img/animal1.png"" style=""width:200px; border:14px solid green;"">","null","","","","","",""
"","image-keyboard-response","104","95454","0.0-104.0","3WMOAN2SRCJUSOAY2IU5LXBE2JCNV1","A1JWKT0IS06YKL","3A3KKYU7P33Z3BR9PPFZ5194ZCQMWU","","521.2999999970198","img/animal1.png","74","522.2000000029802","1","1","1","1,0.5,0,1,0,0.5,0.5,0,1",""
"","html-keyboard-response","105","95761","0.0-105.0","3WMOAN2SRCJUSOAY2IU5LXBE2JCNV1","A1JWKT0IS06YKL","3A3KKYU7P33Z3BR9PPFZ5194ZCQMWU","","null","<img src=""img/animal1.png"" style=""width:200px; border:14px solid green;"">","null","","","","","",""
"","image-keyboard-response","106","96289","0.0-106.0","3WMOAN2SRCJUSOAY2IU5LXBE2JCNV1","A1JWKT0IS06YKL","3A3KKYU7P33Z3BR9PPFZ5194ZCQMWU","","526.0999999940395","img/animal2.png","74","527.1000000089407","1","1","2","1,0.5,0,1,0,0.5,0.5,0,1",""
"","html-keyboard-response","107","96592","0.0-107.0","3WMOAN2SRCJUSOAY2IU5LXBE2JCNV1","A1JWKT0IS06YKL","3A3KKYU7P33Z3BR9PPFZ5194ZCQMWU","","null","<img src=""img/animal2.png"" style=""width:200px; border:14px solid green;"">","null","","","","","",""
"","image-keyboard-response","108","97109","0.0-108.0","3WMOAN2SRCJUSOAY2IU5LXBE2JCNV1","A1JWKT0IS06YKL","3A3KKYU7P33Z3BR9PPFZ5194ZCQMWU","","516","img/animal1.png","74","516.7999999970198","1","1","1","1,0.5,0,1,0,0.5,0.5,0,1",""
"","html-keyboard-response","109","97416","0.0-109.0","3WMOAN2SRCJUSOAY2IU5LXBE2JCNV1","A1JWKT0IS06YKL","3A3KKYU7P33Z3BR9PPFZ5194ZCQMWU","","null","<img src=""img/animal1.png"" style=""width:200px; border:14px solid green;"">","null","","","","","",""
"","image-keyboard-response","110","97810","0.0-110.0","3WMOAN2SRCJUSOAY2IU5LXBE2JCNV1","A1JWKT0IS06YKL","3A3KKYU7P33Z3BR9PPFZ5194ZCQMWU","","393.29999999701977","img/animal1.png","74","394","1","1","1","1,0.5,0,1,0,0.5,0.5,0,1",""
"","html-keyboard-response","111","98112","0.0-111.0","3WMOAN2SRCJUSOAY2IU5LXBE2JCNV1","A1JWKT0IS06YKL","3A3KKYU7P33Z3BR9PPFZ5194ZCQMWU","","null","<img src=""img/animal1.png"" style=""width:200px; border:14px solid green;"">","null","","","","","",""
"","image-keyboard-response","112","98456","0.0-112.0","3WMOAN2SRCJUSOAY2IU5LXBE2JCNV1","A1JWKT0IS06YKL","3A3KKYU7P33Z3BR9PPFZ5194ZCQMWU","","341.90000000596046","img/animal1.png","74","342.90000000596046","1","1","1","1,0.5,0,1,0,0.5,0.5,0,1",""
"","html-keyboard-response","113","98763","0.0-113.0","3WMOAN2SRCJUSOAY2IU5LXBE2JCNV1","A1JWKT0IS06YKL","3A3KKYU7P33Z3BR9PPFZ5194ZCQMWU","","null","<img src=""img/animal1.png"" style=""width:200px; border:14px solid green;"">","null","","","","","",""
"","image-keyboard-response","114","99116","0.0-114.0","3WMOAN2SRCJUSOAY2IU5LXBE2JCNV1","A1JWKT0IS06YKL","3A3KKYU7P33Z3BR9PPFZ5194ZCQMWU","","352.6000000089407","img/animal1.png","74","353.59999999403954","1","1","1","1,0.5,0,1,0,0.5,0.5,0,1",""
"","html-keyboard-response","115","99424","0.0-115.0","3WMOAN2SRCJUSOAY2IU5LXBE2JCNV1","A1JWKT0IS06YKL","3A3KKYU7P33Z3BR9PPFZ5194ZCQMWU","","null","<img src=""img/animal1.png"" style=""width:200px; border:14px solid green;"">","null","","","","","",""
"","image-keyboard-response","116","99818","0.0-116.0","3WMOAN2SRCJUSOAY2IU5LXBE2JCNV1","A1JWKT0IS06YKL","3A3KKYU7P33Z3BR9PPFZ5194ZCQMWU","","392.59999999403954","img/animal1.png","74","393.29999999701977","1","1","1","1,0.5,0,1,0,0.5,0.5,0,1",""
"","html-keyboard-response","117","100121","0.0-117.0","3WMOAN2SRCJUSOAY2IU5LXBE2JCNV1","A1JWKT0IS06YKL","3A3KKYU7P33Z3BR9PPFZ5194ZCQMWU","","null","<img src=""img/animal1.png"" style=""width:200px; border:14px solid green;"">","null","","","","","",""
"","image-keyboard-response","118","100678","0.0-118.0","3WMOAN2SRCJUSOAY2IU5LXBE2JCNV1","A1JWKT0IS06YKL","3A3KKYU7P33Z3BR9PPFZ5194ZCQMWU","","556.4000000059605","img/animal6.png","76","557.2000000029802","3","1","3","1,0.5,0,1,0,0.5,0.5,0,1",""
"","html-keyboard-response","119","100986","0.0-119.0","3WMOAN2SRCJUSOAY2IU5LXBE2JCNV1","A1JWKT0IS06YKL","3A3KKYU7P33Z3BR9PPFZ5194ZCQMWU","","null","<img src=""img/animal6.png"" style=""width:200px; border:14px solid green;"">","null","","","","","",""
"","image-keyboard-response","120","101656","0.0-120.0","3WMOAN2SRCJUSOAY2IU5LXBE2JCNV1","A1JWKT0IS06YKL","3A3KKYU7P33Z3BR9PPFZ5194ZCQMWU","","669.2999999970198","img/animal1.png","74","670.2000000029802","1","1","1","1,0.5,0,1,0,0.5,0.5,0,1",""
"","html-keyboard-response","121","101961","0.0-121.0","3WMOAN2SRCJUSOAY2IU5LXBE2JCNV1","A1JWKT0IS06YKL","3A3KKYU7P33Z3BR9PPFZ5194ZCQMWU","","null","<img src=""img/animal1.png"" style=""width:200px; border:14px solid green;"">","null","","","","","",""
"","image-keyboard-response","122","102491","0.0-122.0","3WMOAN2SRCJUSOAY2IU5LXBE2JCNV1","A1JWKT0IS06YKL","3A3KKYU7P33Z3BR9PPFZ5194ZCQMWU","","528.8000000119209","img/animal2.png","76","529.6999999880791","3","0","2","1,0.5,0,1,0,0.5,0.5,0,1",""
"","html-keyboard-response","123","102803","0.0-123.0","3WMOAN2SRCJUSOAY2IU5LXBE2JCNV1","A1JWKT0IS06YKL","3A3KKYU7P33Z3BR9PPFZ5194ZCQMWU","","null","<img src=""img/animal2.png"" style=""width:200px;border:14px solid red;"">","null","","","","","",""
"","image-keyboard-response","124","103187","0.0-124.0","3WMOAN2SRCJUSOAY2IU5LXBE2JCNV1","A1JWKT0IS06YKL","3A3KKYU7P33Z3BR9PPFZ5194ZCQMWU","","383.09999999403954","img/animal6.png","74","383.70000000298023","1","1","3","1,0.5,0,1,0,0.5,0.5,0,1",""
"","html-keyboard-response","125","103499","0.0-125.0","3WMOAN2SRCJUSOAY2IU5LXBE2JCNV1","A1JWKT0IS06YKL","3A3KKYU7P33Z3BR9PPFZ5194ZCQMWU","","null","<img src=""img/animal6.png"" style=""width:200px; border:14px solid green;"">","null","","","","","",""
"","image-keyboard-response","126","105181","0.0-126.0","3WMOAN2SRCJUSOAY2IU5LXBE2JCNV1","A1JWKT0IS06YKL","3A3KKYU7P33Z3BR9PPFZ5194ZCQMWU","","1680.800000011921","img/animal2.png","74","1681.7999999970198","1","1","2","1,0.5,0,1,0,0.5,0.5,0,1",""
"","html-keyboard-response","127","105492","0.0-127.0","3WMOAN2SRCJUSOAY2IU5LXBE2JCNV1","A1JWKT0IS06YKL","3A3KKYU7P33Z3BR9PPFZ5194ZCQMWU","","null","<img src=""img/animal2.png"" style=""width:200px; border:14px solid green;"">","null","","","","","",""
"","image-keyboard-response","128","106039","0.0-128.0","3WMOAN2SRCJUSOAY2IU5LXBE2JCNV1","A1JWKT0IS06YKL","3A3KKYU7P33Z3BR9PPFZ5194ZCQMWU","","546.2999999970198","img/animal2.png","74","547.2000000029802","1","1","2","1,0.5,0,1,0,0.5,0.5,0,1",""
"","html-keyboard-response","129","106344","0.0-129.0","3WMOAN2SRCJUSOAY2IU5LXBE2JCNV1","A1JWKT0IS06YKL","3A3KKYU7P33Z3BR9PPFZ5194ZCQMWU","","null","<img src=""img/animal2.png"" style=""width:200px; border:14px solid green;"">","null","","","","","",""
"","image-keyboard-response","130","107027","0.0-130.0","3WMOAN2SRCJUSOAY2IU5LXBE2JCNV1","A1JWKT0IS06YKL","3A3KKYU7P33Z3BR9PPFZ5194ZCQMWU","","681.7999999970198","img/animal1.png","74","682.5999999940395","1","1","1","1,0.5,0,1,0,0.5,0.5,0,1",""
"","html-keyboard-response","131","107336","0.0-131.0","3WMOAN2SRCJUSOAY2IU5LXBE2JCNV1","A1JWKT0IS06YKL","3A3KKYU7P33Z3BR9PPFZ5194ZCQMWU","","null","<img src=""img/animal1.png"" style=""width:200px; border:14px solid green;"">","null","","","","","",""
"","image-keyboard-response","132","107858","0.0-132.0","3WMOAN2SRCJUSOAY2IU5LXBE2JCNV1","A1JWKT0IS06YKL","3A3KKYU7P33Z3BR9PPFZ5194ZCQMWU","","521.2999999970198","img/animal1.png","74","522.0999999940395","1","1","1","1,0.5,0,1,0,0.5,0.5,0,1",""
"","html-keyboard-response","133","108172","0.0-133.0","3WMOAN2SRCJUSOAY2IU5LXBE2JCNV1","A1JWKT0IS06YKL","3A3KKYU7P33Z3BR9PPFZ5194ZCQMWU","","null","<img src=""img/animal1.png"" style=""width:200px; border:14px solid green;"">","null","","","","","",""
"","image-keyboard-response","134","108724","0.0-134.0","3WMOAN2SRCJUSOAY2IU5LXBE2JCNV1","A1JWKT0IS06YKL","3A3KKYU7P33Z3BR9PPFZ5194ZCQMWU","","550.5","img/animal2.png","74","551.5","1","1","2","1,0.5,0,1,0,0.5,0.5,0,1",""
"","html-keyboard-response","135","109034","0.0-135.0","3WMOAN2SRCJUSOAY2IU5LXBE2JCNV1","A1JWKT0IS06YKL","3A3KKYU7P33Z3BR9PPFZ5194ZCQMWU","","null","<img src=""img/animal2.png"" style=""width:200px; border:14px solid green;"">","null","","","","","",""
"","image-keyboard-response","136","109611","0.0-136.0","3WMOAN2SRCJUSOAY2IU5LXBE2JCNV1","A1JWKT0IS06YKL","3A3KKYU7P33Z3BR9PPFZ5194ZCQMWU","","576.5999999940395","img/animal1.png","74","577.2000000029802","1","1","1","1,0.5,0,1,0,0.5,0.5,0,1",""
"","html-keyboard-response","137","109919","0.0-137.0","3WMOAN2SRCJUSOAY2IU5LXBE2JCNV1","A1JWKT0IS06YKL","3A3KKYU7P33Z3BR9PPFZ5194ZCQMWU","","null","<img src=""img/animal1.png"" style=""width:200px; border:14px solid green;"">","null","","","","","",""
"","image-keyboard-response","138","110557","0.0-138.0","3WMOAN2SRCJUSOAY2IU5LXBE2JCNV1","A1JWKT0IS06YKL","3A3KKYU7P33Z3BR9PPFZ5194ZCQMWU","","636.5","img/animal6.png","76","637.2000000029802","3","1","3","1,0.5,0,1,0,0.5,0.5,0,1",""
"","html-keyboard-response","139","110867","0.0-139.0","3WMOAN2SRCJUSOAY2IU5LXBE2JCNV1","A1JWKT0IS06YKL","3A3KKYU7P33Z3BR9PPFZ5194ZCQMWU","","null","<img src=""img/animal6.png"" style=""width:200px; border:14px solid green;"">","null","","","","","",""
"","image-keyboard-response","140","111603","0.0-140.0","3WMOAN2SRCJUSOAY2IU5LXBE2JCNV1","A1JWKT0IS06YKL","3A3KKYU7P33Z3BR9PPFZ5194ZCQMWU","","735.2000000029802","img/animal2.png","74","735.7999999970198","1","1","2","1,0.5,0,1,0,0.5,0.5,0,1",""
"","html-keyboard-response","141","111914","0.0-141.0","3WMOAN2SRCJUSOAY2IU5LXBE2JCNV1","A1JWKT0IS06YKL","3A3KKYU7P33Z3BR9PPFZ5194ZCQMWU","","null","<img src=""img/animal2.png"" style=""width:200px; border:14px solid green;"">","null","","","","","",""
"","image-keyboard-response","142","112329","0.0-142.0","3WMOAN2SRCJUSOAY2IU5LXBE2JCNV1","A1JWKT0IS06YKL","3A3KKYU7P33Z3BR9PPFZ5194ZCQMWU","","413.70000000298023","img/animal2.png","74","415.40000000596046","1","1","2","1,0.5,0,1,0,0.5,0.5,0,1",""
"","html-keyboard-response","143","112642","0.0-143.0","3WMOAN2SRCJUSOAY2IU5LXBE2JCNV1","A1JWKT0IS06YKL","3A3KKYU7P33Z3BR9PPFZ5194ZCQMWU","","null","<img src=""img/animal2.png"" style=""width:200px; border:14px solid green;"">","null","","","","","",""
"","image-keyboard-response","144","113380","0.0-144.0","3WMOAN2SRCJUSOAY2IU5LXBE2JCNV1","A1JWKT0IS06YKL","3A3KKYU7P33Z3BR9PPFZ5194ZCQMWU","","736.8999999910593","img/animal6.png","76","737.8999999910593","3","1","3","1,0.5,0,1,0,0.5,0.5,0,1",""
"","html-keyboard-response","145","113691","0.0-145.0","3WMOAN2SRCJUSOAY2IU5LXBE2JCNV1","A1JWKT0IS06YKL","3A3KKYU7P33Z3BR9PPFZ5194ZCQMWU","","null","<img src=""img/animal6.png"" style=""width:200px; border:14px solid green;"">","null","","","","","",""
"","image-keyboard-response","146","114390","0.0-146.0","3WMOAN2SRCJUSOAY2IU5LXBE2JCNV1","A1JWKT0IS06YKL","3A3KKYU7P33Z3BR9PPFZ5194ZCQMWU","","697.6000000089407","img/animal6.png","76","698.6000000089407","3","1","3","1,0.5,0,1,0,0.5,0.5,0,1",""
"","html-keyboard-response","147","114697","0.0-147.0","3WMOAN2SRCJUSOAY2IU5LXBE2JCNV1","A1JWKT0IS06YKL","3A3KKYU7P33Z3BR9PPFZ5194ZCQMWU","","null","<img src=""img/animal6.png"" style=""width:200px; border:14px solid green;"">","null","","","","","",""
"","image-keyboard-response","148","115199","0.0-148.0","3WMOAN2SRCJUSOAY2IU5LXBE2JCNV1","A1JWKT0IS06YKL","3A3KKYU7P33Z3BR9PPFZ5194ZCQMWU","","501.3999999910593","img/animal1.png","74","502.1000000089407","1","1","1","1,0.5,0,1,0,0.5,0.5,0,1",""
"","html-keyboard-response","149","115503","0.0-149.0","3WMOAN2SRCJUSOAY2IU5LXBE2JCNV1","A1JWKT0IS06YKL","3A3KKYU7P33Z3BR9PPFZ5194ZCQMWU","","null","<img src=""img/animal1.png"" style=""width:200px; border:14px solid green;"">","null","","","","","",""
"","image-keyboard-response","150","116174","0.0-150.0","3WMOAN2SRCJUSOAY2IU5LXBE2JCNV1","A1JWKT0IS06YKL","3A3KKYU7P33Z3BR9PPFZ5194ZCQMWU","","669.4000000059605","img/animal2.png","74","670.4000000059605","1","1","2","1,0.5,0,1,0,0.5,0.5,0,1",""
"","html-keyboard-response","151","116484","0.0-151.0","3WMOAN2SRCJUSOAY2IU5LXBE2JCNV1","A1JWKT0IS06YKL","3A3KKYU7P33Z3BR9PPFZ5194ZCQMWU","","null","<img src=""img/animal2.png"" style=""width:200px; border:14px solid green;"">","null","","","","","",""
"","image-keyboard-response","152","117269","0.0-152.0","3WMOAN2SRCJUSOAY2IU5LXBE2JCNV1","A1JWKT0IS06YKL","3A3KKYU7P33Z3BR9PPFZ5194ZCQMWU","","784","img/animal6.png","76","784.9000000059605","3","1","3","1,0.5,0,1,0,0.5,0.5,0,1",""
"","html-keyboard-response","153","117577","0.0-153.0","3WMOAN2SRCJUSOAY2IU5LXBE2JCNV1","A1JWKT0IS06YKL","3A3KKYU7P33Z3BR9PPFZ5194ZCQMWU","","null","<img src=""img/animal6.png"" style=""width:200px; border:14px solid green;"">","null","","","","","",""
"","image-keyboard-response","154","118199","0.0-154.0","3WMOAN2SRCJUSOAY2IU5LXBE2JCNV1","A1JWKT0IS06YKL","3A3KKYU7P33Z3BR9PPFZ5194ZCQMWU","","620.8000000119209","img/animal6.png","76","621.5999999940395","3","1","3","1,0.5,0,1,0,0.5,0.5,0,1",""
"","html-keyboard-response","155","118505","0.0-155.0","3WMOAN2SRCJUSOAY2IU5LXBE2JCNV1","A1JWKT0IS06YKL","3A3KKYU7P33Z3BR9PPFZ5194ZCQMWU","","null","<img src=""img/animal6.png"" style=""width:200px; border:14px solid green;"">","null","","","","","",""
"","image-keyboard-response","156","118994","0.0-156.0","3WMOAN2SRCJUSOAY2IU5LXBE2JCNV1","A1JWKT0IS06YKL","3A3KKYU7P33Z3BR9PPFZ5194ZCQMWU","","488","img/animal1.png","74","488.79999999701977","1","1","1","1,0.5,0,1,0,0.5,0.5,0,1",""
"","html-keyboard-response","157","119306","0.0-157.0","3WMOAN2SRCJUSOAY2IU5LXBE2JCNV1","A1JWKT0IS06YKL","3A3KKYU7P33Z3BR9PPFZ5194ZCQMWU","","null","<img src=""img/animal1.png"" style=""width:200px; border:14px solid green;"">","null","","","","","",""
"","image-keyboard-response","158","119971","0.0-158.0","3WMOAN2SRCJUSOAY2IU5LXBE2JCNV1","A1JWKT0IS06YKL","3A3KKYU7P33Z3BR9PPFZ5194ZCQMWU","","664.2000000029802","img/animal1.png","74","665","1","1","1","1,0.5,0,1,0,0.5,0.5,0,1",""
"","html-keyboard-response","159","120281","0.0-159.0","3WMOAN2SRCJUSOAY2IU5LXBE2JCNV1","A1JWKT0IS06YKL","3A3KKYU7P33Z3BR9PPFZ5194ZCQMWU","","null","<img src=""img/animal1.png"" style=""width:200px; border:14px solid green;"">","null","","","","","",""
"","image-keyboard-response","160","120984","0.0-160.0","3WMOAN2SRCJUSOAY2IU5LXBE2JCNV1","A1JWKT0IS06YKL","3A3KKYU7P33Z3BR9PPFZ5194ZCQMWU","","702","img/animal2.png","74","702.9000000059605","1","1","2","1,0.5,0,1,0,0.5,0.5,0,1",""
"","html-keyboard-response","161","121291","0.0-161.0","3WMOAN2SRCJUSOAY2IU5LXBE2JCNV1","A1JWKT0IS06YKL","3A3KKYU7P33Z3BR9PPFZ5194ZCQMWU","","null","<img src=""img/animal2.png"" style=""width:200px; border:14px solid green;"">","null","","","","","",""
"","image-keyboard-response","162","121881","0.0-162.0","3WMOAN2SRCJUSOAY2IU5LXBE2JCNV1","A1JWKT0IS06YKL","3A3KKYU7P33Z3BR9PPFZ5194ZCQMWU","","588.6000000089407","img/animal1.png","74","589.5999999940395","1","1","1","1,0.5,0,1,0,0.5,0.5,0,1",""
"","html-keyboard-response","163","122186","0.0-163.0","3WMOAN2SRCJUSOAY2IU5LXBE2JCNV1","A1JWKT0IS06YKL","3A3KKYU7P33Z3BR9PPFZ5194ZCQMWU","","null","<img src=""img/animal1.png"" style=""width:200px; border:14px solid green;"">","null","","","","","",""
"","image-keyboard-response","164","122882","0.0-164.0","3WMOAN2SRCJUSOAY2IU5LXBE2JCNV1","A1JWKT0IS06YKL","3A3KKYU7P33Z3BR9PPFZ5194ZCQMWU","","695.5999999940395","img/animal6.png","76","696.3000000119209","3","1","3","1,0.5,0,1,0,0.5,0.5,0,1",""
"","html-keyboard-response","165","123195","0.0-165.0","3WMOAN2SRCJUSOAY2IU5LXBE2JCNV1","A1JWKT0IS06YKL","3A3KKYU7P33Z3BR9PPFZ5194ZCQMWU","","null","<img src=""img/animal6.png"" style=""width:200px; border:14px solid green;"">","null","","","","","",""
"","image-keyboard-response","166","124148","0.0-166.0","3WMOAN2SRCJUSOAY2IU5LXBE2JCNV1","A1JWKT0IS06YKL","3A3KKYU7P33Z3BR9PPFZ5194ZCQMWU","","952.3999999910593","img/animal1.png","74","953.2000000029802","1","1","1","1,0.5,0,1,0,0.5,0.5,0,1",""
"","html-keyboard-response","167","124454","0.0-167.0","3WMOAN2SRCJUSOAY2IU5LXBE2JCNV1","A1JWKT0IS06YKL","3A3KKYU7P33Z3BR9PPFZ5194ZCQMWU","","null","<img src=""img/animal1.png"" style=""width:200px; border:14px solid green;"">","null","","","","","",""
"","image-keyboard-response","168","127461","0.0-168.0","3WMOAN2SRCJUSOAY2IU5LXBE2JCNV1","A1JWKT0IS06YKL","3A3KKYU7P33Z3BR9PPFZ5194ZCQMWU","","3006","img/animal2.png","74","3006.8999999910593","1","1","2","1,0.5,0,1,0,0.5,0.5,0,1",""
"","html-keyboard-response","169","127771","0.0-169.0","3WMOAN2SRCJUSOAY2IU5LXBE2JCNV1","A1JWKT0IS06YKL","3A3KKYU7P33Z3BR9PPFZ5194ZCQMWU","","null","<img src=""img/animal2.png"" style=""width:200px; border:14px solid green;"">","null","","","","","",""
"","image-keyboard-response","170","128677","0.0-170.0","3WMOAN2SRCJUSOAY2IU5LXBE2JCNV1","A1JWKT0IS06YKL","3A3KKYU7P33Z3BR9PPFZ5194ZCQMWU","","904.6000000089407","img/animal1.png","74","905.3999999910593","1","1","1","1,0.5,0,1,0,0.5,0.5,0,1",""
"","html-keyboard-response","171","128982","0.0-171.0","3WMOAN2SRCJUSOAY2IU5LXBE2JCNV1","A1JWKT0IS06YKL","3A3KKYU7P33Z3BR9PPFZ5194ZCQMWU","","null","<img src=""img/animal1.png"" style=""width:200px; border:14px solid green;"">","null","","","","","",""
"","image-keyboard-response","172","129514","0.0-172.0","3WMOAN2SRCJUSOAY2IU5LXBE2JCNV1","A1JWKT0IS06YKL","3A3KKYU7P33Z3BR9PPFZ5194ZCQMWU","","531.0999999940395","img/animal2.png","74","531.7000000029802","1","1","2","1,0.5,0,1,0,0.5,0.5,0,1",""
"","html-keyboard-response","173","129824","0.0-173.0","3WMOAN2SRCJUSOAY2IU5LXBE2JCNV1","A1JWKT0IS06YKL","3A3KKYU7P33Z3BR9PPFZ5194ZCQMWU","","null","<img src=""img/animal2.png"" style=""width:200px; border:14px solid green;"">","null","","","","","",""
"","image-keyboard-response","174","130622","0.0-174.0","3WMOAN2SRCJUSOAY2IU5LXBE2JCNV1","A1JWKT0IS06YKL","3A3KKYU7P33Z3BR9PPFZ5194ZCQMWU","","797.3999999910593","img/animal6.png","76","798.2000000029802","3","1","3","1,0.5,0,1,0,0.5,0.5,0,1",""
"","html-keyboard-response","175","130927","0.0-175.0","3WMOAN2SRCJUSOAY2IU5LXBE2JCNV1","A1JWKT0IS06YKL","3A3KKYU7P33Z3BR9PPFZ5194ZCQMWU","","null","<img src=""img/animal6.png"" style=""width:200px; border:14px solid green;"">","null","","","","","",""
"","image-keyboard-response","176","131999","0.0-176.0","3WMOAN2SRCJUSOAY2IU5LXBE2JCNV1","A1JWKT0IS06YKL","3A3KKYU7P33Z3BR9PPFZ5194ZCQMWU","","1071.2000000029802","img/animal6.png","76","1072","3","1","3","1,0.5,0,1,0,0.5,0.5,0,1",""
"","html-keyboard-response","177","132303","0.0-177.0","3WMOAN2SRCJUSOAY2IU5LXBE2JCNV1","A1JWKT0IS06YKL","3A3KKYU7P33Z3BR9PPFZ5194ZCQMWU","","null","<img src=""img/animal6.png"" style=""width:200px; border:14px solid green;"">","null","","","","","",""
"","image-keyboard-response","178","133000","0.0-178.0","3WMOAN2SRCJUSOAY2IU5LXBE2JCNV1","A1JWKT0IS06YKL","3A3KKYU7P33Z3BR9PPFZ5194ZCQMWU","","695.5","img/animal2.png","74","696.9000000059605","1","1","2","1,0.5,0,1,0,0.5,0.5,0,1",""
"","html-keyboard-response","179","133307","0.0-179.0","3WMOAN2SRCJUSOAY2IU5LXBE2JCNV1","A1JWKT0IS06YKL","3A3KKYU7P33Z3BR9PPFZ5194ZCQMWU","","null","<img src=""img/animal2.png"" style=""width:200px; border:14px solid green;"">","null","","","","","",""
"","image-keyboard-response","180","133852","0.0-180.0","3WMOAN2SRCJUSOAY2IU5LXBE2JCNV1","A1JWKT0IS06YKL","3A3KKYU7P33Z3BR9PPFZ5194ZCQMWU","","544.7000000029802","img/animal6.png","74","545.5","1","1","3","1,0.5,0,1,0,0.5,0.5,0,1",""
"","html-keyboard-response","181","134160","0.0-181.0","3WMOAN2SRCJUSOAY2IU5LXBE2JCNV1","A1JWKT0IS06YKL","3A3KKYU7P33Z3BR9PPFZ5194ZCQMWU","","null","<img src=""img/animal6.png"" style=""width:200px; border:14px solid green;"">","null","","","","","",""
"","html-keyboard-response","182","137036","0.0-182.0","3WMOAN2SRCJUSOAY2IU5LXBE2JCNV1","A1JWKT0IS06YKL","3A3KKYU7P33Z3BR9PPFZ5194ZCQMWU","","","","","","","","","",""
"","image-keyboard-response","183","139473","0.0-183.0","3WMOAN2SRCJUSOAY2IU5LXBE2JCNV1","A1JWKT0IS06YKL","3A3KKYU7P33Z3BR9PPFZ5194ZCQMWU","","2434","img/animal5.png","74","2436.300000011921","1","1","1","1,0.5,0,0,1,0.5,0.5,0,1",""
"","html-keyboard-response","184","139787","0.0-184.0","3WMOAN2SRCJUSOAY2IU5LXBE2JCNV1","A1JWKT0IS06YKL","3A3KKYU7P33Z3BR9PPFZ5194ZCQMWU","","null","<img src=""img/animal5.png"" style=""width:200px; border:14px solid green;"">","null","","","","","",""
"","image-keyboard-response","185","140997","0.0-185.0","3WMOAN2SRCJUSOAY2IU5LXBE2JCNV1","A1JWKT0IS06YKL","3A3KKYU7P33Z3BR9PPFZ5194ZCQMWU","","1208.7999999970198","img/animal3.png","74","1210","1","0","3","1,0.5,0,0,1,0.5,0.5,0,1",""
"","html-keyboard-response","186","141310","0.0-186.0","3WMOAN2SRCJUSOAY2IU5LXBE2JCNV1","A1JWKT0IS06YKL","3A3KKYU7P33Z3BR9PPFZ5194ZCQMWU","","null","<img src=""img/animal3.png"" style=""width:200px;border:14px solid red;"">","null","","","","","",""
"","image-keyboard-response","187","142514","0.0-187.0","3WMOAN2SRCJUSOAY2IU5LXBE2JCNV1","A1JWKT0IS06YKL","3A3KKYU7P33Z3BR9PPFZ5194ZCQMWU","","1202.5999999940395","img/animal5.png","74","1203.7000000029802","1","1","1","1,0.5,0,0,1,0.5,0.5,0,1",""
"","html-keyboard-response","188","142826","0.0-188.0","3WMOAN2SRCJUSOAY2IU5LXBE2JCNV1","A1JWKT0IS06YKL","3A3KKYU7P33Z3BR9PPFZ5194ZCQMWU","","null","<img src=""img/animal5.png"" style=""width:200px; border:14px solid green;"">","null","","","","","",""
"","image-keyboard-response","189","144003","0.0-189.0","3WMOAN2SRCJUSOAY2IU5LXBE2JCNV1","A1JWKT0IS06YKL","3A3KKYU7P33Z3BR9PPFZ5194ZCQMWU","","1175.300000011921","img/animal3.png","76","1176.2999999970198","3","1","3","1,0.5,0,0,1,0.5,0.5,0,1",""
"","html-keyboard-response","190","144313","0.0-190.0","3WMOAN2SRCJUSOAY2IU5LXBE2JCNV1","A1JWKT0IS06YKL","3A3KKYU7P33Z3BR9PPFZ5194ZCQMWU","","null","<img src=""img/animal3.png"" style=""width:200px; border:14px solid green;"">","null","","","","","",""
"","image-keyboard-response","191","145818","0.0-191.0","3WMOAN2SRCJUSOAY2IU5LXBE2JCNV1","A1JWKT0IS06YKL","3A3KKYU7P33Z3BR9PPFZ5194ZCQMWU","","1504","img/animal4.png","74","1505","1","0","2","1,0.5,0,0,1,0.5,0.5,0,1",""
"","html-keyboard-response","192","146131","0.0-192.0","3WMOAN2SRCJUSOAY2IU5LXBE2JCNV1","A1JWKT0IS06YKL","3A3KKYU7P33Z3BR9PPFZ5194ZCQMWU","","null","<img src=""img/animal4.png"" style=""width:200px;border:14px solid red;"">","null","","","","","",""
"","image-keyboard-response","193","147798","0.0-193.0","3WMOAN2SRCJUSOAY2IU5LXBE2JCNV1","A1JWKT0IS06YKL","3A3KKYU7P33Z3BR9PPFZ5194ZCQMWU","","1666.2999999970198","img/animal4.png","76","1667.2000000029802","3","1","2","1,0.5,0,0,1,0.5,0.5,0,1",""
"","html-keyboard-response","194","148103","0.0-194.0","3WMOAN2SRCJUSOAY2IU5LXBE2JCNV1","A1JWKT0IS06YKL","3A3KKYU7P33Z3BR9PPFZ5194ZCQMWU","","null","<img src=""img/animal4.png"" style=""width:200px; border:14px solid green;"">","null","","","","","",""
"","image-keyboard-response","195","149172","0.0-195.0","3WMOAN2SRCJUSOAY2IU5LXBE2JCNV1","A1JWKT0IS06YKL","3A3KKYU7P33Z3BR9PPFZ5194ZCQMWU","","1068","img/animal5.png","74","1068.9000000059605","1","1","1","1,0.5,0,0,1,0.5,0.5,0,1",""
"","html-keyboard-response","196","149479","0.0-196.0","3WMOAN2SRCJUSOAY2IU5LXBE2JCNV1","A1JWKT0IS06YKL","3A3KKYU7P33Z3BR9PPFZ5194ZCQMWU","","null","<img src=""img/animal5.png"" style=""width:200px; border:14px solid green;"">","null","","","","","",""
"","image-keyboard-response","197","150145","0.0-197.0","3WMOAN2SRCJUSOAY2IU5LXBE2JCNV1","A1JWKT0IS06YKL","3A3KKYU7P33Z3BR9PPFZ5194ZCQMWU","","665.7999999970198","img/animal4.png","76","666.3000000119209","3","0","2","1,0.5,0,0,1,0.5,0.5,0,1",""
"","html-keyboard-response","198","150456","0.0-198.0","3WMOAN2SRCJUSOAY2IU5LXBE2JCNV1","A1JWKT0IS06YKL","3A3KKYU7P33Z3BR9PPFZ5194ZCQMWU","","null","<img src=""img/animal4.png"" style=""width:200px;border:14px solid red;"">","null","","","","","",""
"","image-keyboard-response","199","151859","0.0-199.0","3WMOAN2SRCJUSOAY2IU5LXBE2JCNV1","A1JWKT0IS06YKL","3A3KKYU7P33Z3BR9PPFZ5194ZCQMWU","","1401.8999999910593","img/animal4.png","76","1402.7999999970198","3","0","2","1,0.5,0,0,1,0.5,0.5,0,1",""
"","html-keyboard-response","200","152168","0.0-200.0","3WMOAN2SRCJUSOAY2IU5LXBE2JCNV1","A1JWKT0IS06YKL","3A3KKYU7P33Z3BR9PPFZ5194ZCQMWU","","null","<img src=""img/animal4.png"" style=""width:200px;border:14px solid red;"">","null","","","","","",""
"","image-keyboard-response","201","154157","0.0-201.0","3WMOAN2SRCJUSOAY2IU5LXBE2JCNV1","A1JWKT0IS06YKL","3A3KKYU7P33Z3BR9PPFZ5194ZCQMWU","","1988","img/animal3.png","74","1988.7999999970198","1","1","3","1,0.5,0,0,1,0.5,0.5,0,1",""
"","html-keyboard-response","202","154463","0.0-202.0","3WMOAN2SRCJUSOAY2IU5LXBE2JCNV1","A1JWKT0IS06YKL","3A3KKYU7P33Z3BR9PPFZ5194ZCQMWU","","null","<img src=""img/animal3.png"" style=""width:200px; border:14px solid green;"">","null","","","","","",""
"","image-keyboard-response","203","155260","0.0-203.0","3WMOAN2SRCJUSOAY2IU5LXBE2JCNV1","A1JWKT0IS06YKL","3A3KKYU7P33Z3BR9PPFZ5194ZCQMWU","","795.5","img/animal5.png","74","796.5","1","1","1","1,0.5,0,0,1,0.5,0.5,0,1",""
"","html-keyboard-response","204","155568","0.0-204.0","3WMOAN2SRCJUSOAY2IU5LXBE2JCNV1","A1JWKT0IS06YKL","3A3KKYU7P33Z3BR9PPFZ5194ZCQMWU","","null","<img src=""img/animal5.png"" style=""width:200px; border:14px solid green;"">","null","","","","","",""
"","image-keyboard-response","205","157288","0.0-205.0","3WMOAN2SRCJUSOAY2IU5LXBE2JCNV1","A1JWKT0IS06YKL","3A3KKYU7P33Z3BR9PPFZ5194ZCQMWU","","1719.4000000059605","img/animal5.png","74","1720","1","1","1","1,0.5,0,0,1,0.5,0.5,0,1",""
"","html-keyboard-response","206","157594","0.0-206.0","3WMOAN2SRCJUSOAY2IU5LXBE2JCNV1","A1JWKT0IS06YKL","3A3KKYU7P33Z3BR9PPFZ5194ZCQMWU","","null","<img src=""img/animal5.png"" style=""width:200px; border:14px solid green;"">","null","","","","","",""
"","image-keyboard-response","207","158435","0.0-207.0","3WMOAN2SRCJUSOAY2IU5LXBE2JCNV1","A1JWKT0IS06YKL","3A3KKYU7P33Z3BR9PPFZ5194ZCQMWU","","840","img/animal5.png","74","841","1","1","1","1,0.5,0,0,1,0.5,0.5,0,1",""
"","html-keyboard-response","208","158742","0.0-208.0","3WMOAN2SRCJUSOAY2IU5LXBE2JCNV1","A1JWKT0IS06YKL","3A3KKYU7P33Z3BR9PPFZ5194ZCQMWU","","null","<img src=""img/animal5.png"" style=""width:200px; border:14px solid green;"">","null","","","","","",""
"","image-keyboard-response","209","159805","0.0-209.0","3WMOAN2SRCJUSOAY2IU5LXBE2JCNV1","A1JWKT0IS06YKL","3A3KKYU7P33Z3BR9PPFZ5194ZCQMWU","","1062.7000000029802","img/animal4.png","74","1063.5","1","0","2","1,0.5,0,0,1,0.5,0.5,0,1",""
"","html-keyboard-response","210","160110","0.0-210.0","3WMOAN2SRCJUSOAY2IU5LXBE2JCNV1","A1JWKT0IS06YKL","3A3KKYU7P33Z3BR9PPFZ5194ZCQMWU","","null","<img src=""img/animal4.png"" style=""width:200px;border:14px solid red;"">","null","","","","","",""
"","image-keyboard-response","211","161058","0.0-211.0","3WMOAN2SRCJUSOAY2IU5LXBE2JCNV1","A1JWKT0IS06YKL","3A3KKYU7P33Z3BR9PPFZ5194ZCQMWU","","947.2000000029802","img/animal5.png","74","948.0999999940395","1","1","1","1,0.5,0,0,1,0.5,0.5,0,1",""
"","html-keyboard-response","212","161368","0.0-212.0","3WMOAN2SRCJUSOAY2IU5LXBE2JCNV1","A1JWKT0IS06YKL","3A3KKYU7P33Z3BR9PPFZ5194ZCQMWU","","null","<img src=""img/animal5.png"" style=""width:200px; border:14px solid green;"">","null","","","","","",""
"","image-keyboard-response","213","161920","0.0-213.0","3WMOAN2SRCJUSOAY2IU5LXBE2JCNV1","A1JWKT0IS06YKL","3A3KKYU7P33Z3BR9PPFZ5194ZCQMWU","","550.8999999910593","img/animal5.png","74","551.6000000089407","1","1","1","1,0.5,0,0,1,0.5,0.5,0,1",""
"","html-keyboard-response","214","162232","0.0-214.0","3WMOAN2SRCJUSOAY2IU5LXBE2JCNV1","A1JWKT0IS06YKL","3A3KKYU7P33Z3BR9PPFZ5194ZCQMWU","","null","<img src=""img/animal5.png"" style=""width:200px; border:14px solid green;"">","null","","","","","",""
"","image-keyboard-response","215","163281","0.0-215.0","3WMOAN2SRCJUSOAY2IU5LXBE2JCNV1","A1JWKT0IS06YKL","3A3KKYU7P33Z3BR9PPFZ5194ZCQMWU","","1047.8999999910593","img/animal4.png","75","1048.800000011921","2","1","2","1,0.5,0,0,1,0.5,0.5,0,1",""
"","html-keyboard-response","216","163590","0.0-216.0","3WMOAN2SRCJUSOAY2IU5LXBE2JCNV1","A1JWKT0IS06YKL","3A3KKYU7P33Z3BR9PPFZ5194ZCQMWU","","null","<img src=""img/animal4.png"" style=""width:200px; border:14px solid green;"">","null","","","","","",""
"","image-keyboard-response","217","164481","0.0-217.0","3WMOAN2SRCJUSOAY2IU5LXBE2JCNV1","A1JWKT0IS06YKL","3A3KKYU7P33Z3BR9PPFZ5194ZCQMWU","","889.7000000029802","img/animal4.png","74","890.5","1","0","2","1,0.5,0,0,1,0.5,0.5,0,1",""
"","html-keyboard-response","218","164790","0.0-218.0","3WMOAN2SRCJUSOAY2IU5LXBE2JCNV1","A1JWKT0IS06YKL","3A3KKYU7P33Z3BR9PPFZ5194ZCQMWU","","null","<img src=""img/animal4.png"" style=""width:200px;border:14px solid red;"">","null","","","","","",""
"","image-keyboard-response","219","165871","0.0-219.0","3WMOAN2SRCJUSOAY2IU5LXBE2JCNV1","A1JWKT0IS06YKL","3A3KKYU7P33Z3BR9PPFZ5194ZCQMWU","","1079.7999999970198","img/animal5.png","74","1080.6000000089407","1","1","1","1,0.5,0,0,1,0.5,0.5,0,1",""
"","html-keyboard-response","220","166173","0.0-220.0","3WMOAN2SRCJUSOAY2IU5LXBE2JCNV1","A1JWKT0IS06YKL","3A3KKYU7P33Z3BR9PPFZ5194ZCQMWU","","null","<img src=""img/animal5.png"" style=""width:200px; border:14px solid green;"">","null","","","","","",""
"","image-keyboard-response","221","168080","0.0-221.0","3WMOAN2SRCJUSOAY2IU5LXBE2JCNV1","A1JWKT0IS06YKL","3A3KKYU7P33Z3BR9PPFZ5194ZCQMWU","","1906","img/animal3.png","76","1906.8999999910593","3","1","3","1,0.5,0,0,1,0.5,0.5,0,1",""
"","html-keyboard-response","222","168391","0.0-222.0","3WMOAN2SRCJUSOAY2IU5LXBE2JCNV1","A1JWKT0IS06YKL","3A3KKYU7P33Z3BR9PPFZ5194ZCQMWU","","null","<img src=""img/animal3.png"" style=""width:200px; border:14px solid green;"">","null","","","","","",""
"","image-keyboard-response","223","169257","0.0-223.0","3WMOAN2SRCJUSOAY2IU5LXBE2JCNV1","A1JWKT0IS06YKL","3A3KKYU7P33Z3BR9PPFZ5194ZCQMWU","","864.6999999880791","img/animal3.png","76","865.6000000089407","3","1","3","1,0.5,0,0,1,0.5,0.5,0,1",""
"","html-keyboard-response","224","169566","0.0-224.0","3WMOAN2SRCJUSOAY2IU5LXBE2JCNV1","A1JWKT0IS06YKL","3A3KKYU7P33Z3BR9PPFZ5194ZCQMWU","","null","<img src=""img/animal3.png"" style=""width:200px; border:14px solid green;"">","null","","","","","",""
"","image-keyboard-response","225","170404","0.0-225.0","3WMOAN2SRCJUSOAY2IU5LXBE2JCNV1","A1JWKT0IS06YKL","3A3KKYU7P33Z3BR9PPFZ5194ZCQMWU","","837","img/animal5.png","74","837.7999999970198","1","1","1","1,0.5,0,0,1,0.5,0.5,0,1",""
"","html-keyboard-response","226","170713","0.0-226.0","3WMOAN2SRCJUSOAY2IU5LXBE2JCNV1","A1JWKT0IS06YKL","3A3KKYU7P33Z3BR9PPFZ5194ZCQMWU","","null","<img src=""img/animal5.png"" style=""width:200px; border:14px solid green;"">","null","","","","","",""
"","image-keyboard-response","227","171557","0.0-227.0","3WMOAN2SRCJUSOAY2IU5LXBE2JCNV1","A1JWKT0IS06YKL","3A3KKYU7P33Z3BR9PPFZ5194ZCQMWU","","843.2000000029802","img/animal3.png","76","844.1000000089407","3","1","3","1,0.5,0,0,1,0.5,0.5,0,1",""
"","html-keyboard-response","228","171862","0.0-228.0","3WMOAN2SRCJUSOAY2IU5LXBE2JCNV1","A1JWKT0IS06YKL","3A3KKYU7P33Z3BR9PPFZ5194ZCQMWU","","null","<img src=""img/animal3.png"" style=""width:200px; border:14px solid green;"">","null","","","","","",""
"","image-keyboard-response","229","172795","0.0-229.0","3WMOAN2SRCJUSOAY2IU5LXBE2JCNV1","A1JWKT0IS06YKL","3A3KKYU7P33Z3BR9PPFZ5194ZCQMWU","","931.7999999970198","img/animal5.png","74","932.7000000029802","1","1","1","1,0.5,0,0,1,0.5,0.5,0,1",""
"","html-keyboard-response","230","173104","0.0-230.0","3WMOAN2SRCJUSOAY2IU5LXBE2JCNV1","A1JWKT0IS06YKL","3A3KKYU7P33Z3BR9PPFZ5194ZCQMWU","","null","<img src=""img/animal5.png"" style=""width:200px; border:14px solid green;"">","null","","","","","",""
"","image-keyboard-response","231","173804","0.0-231.0","3WMOAN2SRCJUSOAY2IU5LXBE2JCNV1","A1JWKT0IS06YKL","3A3KKYU7P33Z3BR9PPFZ5194ZCQMWU","","698.4000000059605","img/animal4.png","75","699.1999999880791","2","1","2","1,0.5,0,0,1,0.5,0.5,0,1",""
"","html-keyboard-response","232","174108","0.0-232.0","3WMOAN2SRCJUSOAY2IU5LXBE2JCNV1","A1JWKT0IS06YKL","3A3KKYU7P33Z3BR9PPFZ5194ZCQMWU","","null","<img src=""img/animal4.png"" style=""width:200px; border:14px solid green;"">","null","","","","","",""
"","image-keyboard-response","233","174768","0.0-233.0","3WMOAN2SRCJUSOAY2IU5LXBE2JCNV1","A1JWKT0IS06YKL","3A3KKYU7P33Z3BR9PPFZ5194ZCQMWU","","658.9000000059605","img/animal4.png","75","659.8000000119209","2","1","2","1,0.5,0,0,1,0.5,0.5,0,1",""
"","html-keyboard-response","234","175079","0.0-234.0","3WMOAN2SRCJUSOAY2IU5LXBE2JCNV1","A1JWKT0IS06YKL","3A3KKYU7P33Z3BR9PPFZ5194ZCQMWU","","null","<img src=""img/animal4.png"" style=""width:200px; border:14px solid green;"">","null","","","","","",""
"","image-keyboard-response","235","175576","0.0-235.0","3WMOAN2SRCJUSOAY2IU5LXBE2JCNV1","A1JWKT0IS06YKL","3A3KKYU7P33Z3BR9PPFZ5194ZCQMWU","","496.19999998807907","img/animal4.png","75","497","2","1","2","1,0.5,0,0,1,0.5,0.5,0,1",""
"","html-keyboard-response","236","175879","0.0-236.0","3WMOAN2SRCJUSOAY2IU5LXBE2JCNV1","A1JWKT0IS06YKL","3A3KKYU7P33Z3BR9PPFZ5194ZCQMWU","","null","<img src=""img/animal4.png"" style=""width:200px; border:14px solid green;"">","null","","","","","",""
"","image-keyboard-response","237","176466","0.0-237.0","3WMOAN2SRCJUSOAY2IU5LXBE2JCNV1","A1JWKT0IS06YKL","3A3KKYU7P33Z3BR9PPFZ5194ZCQMWU","","586","img/animal5.png","74","586.7999999970198","1","1","1","1,0.5,0,0,1,0.5,0.5,0,1",""
"","html-keyboard-response","238","176773","0.0-238.0","3WMOAN2SRCJUSOAY2IU5LXBE2JCNV1","A1JWKT0IS06YKL","3A3KKYU7P33Z3BR9PPFZ5194ZCQMWU","","null","<img src=""img/animal5.png"" style=""width:200px; border:14px solid green;"">","null","","","","","",""
"","image-keyboard-response","239","177296","0.0-239.0","3WMOAN2SRCJUSOAY2IU5LXBE2JCNV1","A1JWKT0IS06YKL","3A3KKYU7P33Z3BR9PPFZ5194ZCQMWU","","520","img/animal5.png","74","522.4000000059605","1","1","1","1,0.5,0,0,1,0.5,0.5,0,1",""
"","html-keyboard-response","240","177605","0.0-240.0","3WMOAN2SRCJUSOAY2IU5LXBE2JCNV1","A1JWKT0IS06YKL","3A3KKYU7P33Z3BR9PPFZ5194ZCQMWU","","null","<img src=""img/animal5.png"" style=""width:200px; border:14px solid green;"">","null","","","","","",""
"","image-keyboard-response","241","178460","0.0-241.0","3WMOAN2SRCJUSOAY2IU5LXBE2JCNV1","A1JWKT0IS06YKL","3A3KKYU7P33Z3BR9PPFZ5194ZCQMWU","","853.9000000059605","img/animal3.png","76","854.7000000029802","3","1","3","1,0.5,0,0,1,0.5,0.5,0,1",""
"","html-keyboard-response","242","178766","0.0-242.0","3WMOAN2SRCJUSOAY2IU5LXBE2JCNV1","A1JWKT0IS06YKL","3A3KKYU7P33Z3BR9PPFZ5194ZCQMWU","","null","<img src=""img/animal3.png"" style=""width:200px; border:14px solid green;"">","null","","","","","",""
"","image-keyboard-response","243","179352","0.0-243.0","3WMOAN2SRCJUSOAY2IU5LXBE2JCNV1","A1JWKT0IS06YKL","3A3KKYU7P33Z3BR9PPFZ5194ZCQMWU","","585.5","img/animal5.png","74","586.3999999910593","1","1","1","1,0.5,0,0,1,0.5,0.5,0,1",""
"","html-keyboard-response","244","179664","0.0-244.0","3WMOAN2SRCJUSOAY2IU5LXBE2JCNV1","A1JWKT0IS06YKL","3A3KKYU7P33Z3BR9PPFZ5194ZCQMWU","","null","<img src=""img/animal5.png"" style=""width:200px; border:14px solid green;"">","null","","","","","",""
"","image-keyboard-response","245","180204","0.0-245.0","3WMOAN2SRCJUSOAY2IU5LXBE2JCNV1","A1JWKT0IS06YKL","3A3KKYU7P33Z3BR9PPFZ5194ZCQMWU","","539.5","img/animal5.png","74","540.5","1","1","1","1,0.5,0,0,1,0.5,0.5,0,1",""
"","html-keyboard-response","246","180511","0.0-246.0","3WMOAN2SRCJUSOAY2IU5LXBE2JCNV1","A1JWKT0IS06YKL","3A3KKYU7P33Z3BR9PPFZ5194ZCQMWU","","null","<img src=""img/animal5.png"" style=""width:200px; border:14px solid green;"">","null","","","","","",""
"","image-keyboard-response","247","181231","0.0-247.0","3WMOAN2SRCJUSOAY2IU5LXBE2JCNV1","A1JWKT0IS06YKL","3A3KKYU7P33Z3BR9PPFZ5194ZCQMWU","","718.5999999940395","img/animal4.png","75","719.3999999910593","2","1","2","1,0.5,0,0,1,0.5,0.5,0,1",""
"","html-keyboard-response","248","181535","0.0-248.0","3WMOAN2SRCJUSOAY2IU5LXBE2JCNV1","A1JWKT0IS06YKL","3A3KKYU7P33Z3BR9PPFZ5194ZCQMWU","","null","<img src=""img/animal4.png"" style=""width:200px; border:14px solid green;"">","null","","","","","",""
"","image-keyboard-response","249","182191","0.0-249.0","3WMOAN2SRCJUSOAY2IU5LXBE2JCNV1","A1JWKT0IS06YKL","3A3KKYU7P33Z3BR9PPFZ5194ZCQMWU","","654.2000000029802","img/animal5.png","74","655.7999999970198","1","1","1","1,0.5,0,0,1,0.5,0.5,0,1",""
"","html-keyboard-response","250","182502","0.0-250.0","3WMOAN2SRCJUSOAY2IU5LXBE2JCNV1","A1JWKT0IS06YKL","3A3KKYU7P33Z3BR9PPFZ5194ZCQMWU","","null","<img src=""img/animal5.png"" style=""width:200px; border:14px solid green;"">","null","","","","","",""
"","image-keyboard-response","251","182981","0.0-251.0","3WMOAN2SRCJUSOAY2IU5LXBE2JCNV1","A1JWKT0IS06YKL","3A3KKYU7P33Z3BR9PPFZ5194ZCQMWU","","477.90000000596046","img/animal5.png","74","478.79999999701977","1","1","1","1,0.5,0,0,1,0.5,0.5,0,1",""
"","html-keyboard-response","252","183286","0.0-252.0","3WMOAN2SRCJUSOAY2IU5LXBE2JCNV1","A1JWKT0IS06YKL","3A3KKYU7P33Z3BR9PPFZ5194ZCQMWU","","null","<img src=""img/animal5.png"" style=""width:200px; border:14px solid green;"">","null","","","","","",""
"","image-keyboard-response","253","184145","0.0-253.0","3WMOAN2SRCJUSOAY2IU5LXBE2JCNV1","A1JWKT0IS06YKL","3A3KKYU7P33Z3BR9PPFZ5194ZCQMWU","","858.1000000089407","img/animal3.png","76","858.8999999910593","3","1","3","1,0.5,0,0,1,0.5,0.5,0,1",""
"","html-keyboard-response","254","184453","0.0-254.0","3WMOAN2SRCJUSOAY2IU5LXBE2JCNV1","A1JWKT0IS06YKL","3A3KKYU7P33Z3BR9PPFZ5194ZCQMWU","","null","<img src=""img/animal3.png"" style=""width:200px; border:14px solid green;"">","null","","","","","",""
"","image-keyboard-response","255","184965","0.0-255.0","3WMOAN2SRCJUSOAY2IU5LXBE2JCNV1","A1JWKT0IS06YKL","3A3KKYU7P33Z3BR9PPFZ5194ZCQMWU","","510.79999999701977","img/animal3.png","76","511.70000000298023","3","1","3","1,0.5,0,0,1,0.5,0.5,0,1",""
"","html-keyboard-response","256","185272","0.0-256.0","3WMOAN2SRCJUSOAY2IU5LXBE2JCNV1","A1JWKT0IS06YKL","3A3KKYU7P33Z3BR9PPFZ5194ZCQMWU","","null","<img src=""img/animal3.png"" style=""width:200px; border:14px solid green;"">","null","","","","","",""
"","image-keyboard-response","257","185936","0.0-257.0","3WMOAN2SRCJUSOAY2IU5LXBE2JCNV1","A1JWKT0IS06YKL","3A3KKYU7P33Z3BR9PPFZ5194ZCQMWU","","662.5","img/animal5.png","74","663.2000000029802","1","1","1","1,0.5,0,0,1,0.5,0.5,0,1",""
"","html-keyboard-response","258","186246","0.0-258.0","3WMOAN2SRCJUSOAY2IU5LXBE2JCNV1","A1JWKT0IS06YKL","3A3KKYU7P33Z3BR9PPFZ5194ZCQMWU","","null","<img src=""img/animal5.png"" style=""width:200px; border:14px solid green;"">","null","","","","","",""
"","image-keyboard-response","259","186758","0.0-259.0","3WMOAN2SRCJUSOAY2IU5LXBE2JCNV1","A1JWKT0IS06YKL","3A3KKYU7P33Z3BR9PPFZ5194ZCQMWU","","510.5","img/animal5.png","74","511.29999999701977","1","1","1","1,0.5,0,0,1,0.5,0.5,0,1",""
"","html-keyboard-response","260","187063","0.0-260.0","3WMOAN2SRCJUSOAY2IU5LXBE2JCNV1","A1JWKT0IS06YKL","3A3KKYU7P33Z3BR9PPFZ5194ZCQMWU","","null","<img src=""img/animal5.png"" style=""width:200px; border:14px solid green;"">","null","","","","","",""
"","image-keyboard-response","261","187824","0.0-261.0","3WMOAN2SRCJUSOAY2IU5LXBE2JCNV1","A1JWKT0IS06YKL","3A3KKYU7P33Z3BR9PPFZ5194ZCQMWU","","760.4000000059605","img/animal4.png","75","761.0999999940395","2","1","2","1,0.5,0,0,1,0.5,0.5,0,1",""
"","html-keyboard-response","262","188133","0.0-262.0","3WMOAN2SRCJUSOAY2IU5LXBE2JCNV1","A1JWKT0IS06YKL","3A3KKYU7P33Z3BR9PPFZ5194ZCQMWU","","null","<img src=""img/animal4.png"" style=""width:200px; border:14px solid green;"">","null","","","","","",""
"","image-keyboard-response","263","188815","0.0-263.0","3WMOAN2SRCJUSOAY2IU5LXBE2JCNV1","A1JWKT0IS06YKL","3A3KKYU7P33Z3BR9PPFZ5194ZCQMWU","","680.8999999910593","img/animal5.png","74","681.7999999970198","1","1","1","1,0.5,0,0,1,0.5,0.5,0,1",""
"","html-keyboard-response","264","189119","0.0-264.0","3WMOAN2SRCJUSOAY2IU5LXBE2JCNV1","A1JWKT0IS06YKL","3A3KKYU7P33Z3BR9PPFZ5194ZCQMWU","","null","<img src=""img/animal5.png"" style=""width:200px; border:14px solid green;"">","null","","","","","",""
"","image-keyboard-response","265","189925","0.0-265.0","3WMOAN2SRCJUSOAY2IU5LXBE2JCNV1","A1JWKT0IS06YKL","3A3KKYU7P33Z3BR9PPFZ5194ZCQMWU","","804.2000000029802","img/animal3.png","76","805","3","1","3","1,0.5,0,0,1,0.5,0.5,0,1",""
"","html-keyboard-response","266","190228","0.0-266.0","3WMOAN2SRCJUSOAY2IU5LXBE2JCNV1","A1JWKT0IS06YKL","3A3KKYU7P33Z3BR9PPFZ5194ZCQMWU","","null","<img src=""img/animal3.png"" style=""width:200px; border:14px solid green;"">","null","","","","","",""
"","image-keyboard-response","267","190703","0.0-267.0","3WMOAN2SRCJUSOAY2IU5LXBE2JCNV1","A1JWKT0IS06YKL","3A3KKYU7P33Z3BR9PPFZ5194ZCQMWU","","473.20000000298023","img/animal3.png","76","474.09999999403954","3","1","3","1,0.5,0,0,1,0.5,0.5,0,1",""
"","html-keyboard-response","268","191012","0.0-268.0","3WMOAN2SRCJUSOAY2IU5LXBE2JCNV1","A1JWKT0IS06YKL","3A3KKYU7P33Z3BR9PPFZ5194ZCQMWU","","null","<img src=""img/animal3.png"" style=""width:200px; border:14px solid green;"">","null","","","","","",""
"","image-keyboard-response","269","191441","0.0-269.0","3WMOAN2SRCJUSOAY2IU5LXBE2JCNV1","A1JWKT0IS06YKL","3A3KKYU7P33Z3BR9PPFZ5194ZCQMWU","","428.09999999403954","img/animal3.png","76","428.90000000596046","3","1","3","1,0.5,0,0,1,0.5,0.5,0,1",""
"","html-keyboard-response","270","191749","0.0-270.0","3WMOAN2SRCJUSOAY2IU5LXBE2JCNV1","A1JWKT0IS06YKL","3A3KKYU7P33Z3BR9PPFZ5194ZCQMWU","","null","<img src=""img/animal3.png"" style=""width:200px; border:14px solid green;"">","null","","","","","",""
"","image-keyboard-response","271","192557","0.0-271.0","3WMOAN2SRCJUSOAY2IU5LXBE2JCNV1","A1JWKT0IS06YKL","3A3KKYU7P33Z3BR9PPFZ5194ZCQMWU","","807","img/animal4.png","75","807.9000000059605","2","1","2","1,0.5,0,0,1,0.5,0.5,0,1",""
"","html-keyboard-response","272","192864","0.0-272.0","3WMOAN2SRCJUSOAY2IU5LXBE2JCNV1","A1JWKT0IS06YKL","3A3KKYU7P33Z3BR9PPFZ5194ZCQMWU","","null","<img src=""img/animal4.png"" style=""width:200px; border:14px solid green;"">","null","","","","","",""
"","image-keyboard-response","273","193331","0.0-273.0","3WMOAN2SRCJUSOAY2IU5LXBE2JCNV1","A1JWKT0IS06YKL","3A3KKYU7P33Z3BR9PPFZ5194ZCQMWU","","466.6000000089407","img/animal4.png","75","467.5","2","1","2","1,0.5,0,0,1,0.5,0.5,0,1",""
"","html-keyboard-response","274","193641","0.0-274.0","3WMOAN2SRCJUSOAY2IU5LXBE2JCNV1","A1JWKT0IS06YKL","3A3KKYU7P33Z3BR9PPFZ5194ZCQMWU","","null","<img src=""img/animal4.png"" style=""width:200px; border:14px solid green;"">","null","","","","","",""
"","image-keyboard-response","275","194045","0.0-275.0","3WMOAN2SRCJUSOAY2IU5LXBE2JCNV1","A1JWKT0IS06YKL","3A3KKYU7P33Z3BR9PPFZ5194ZCQMWU","","402.59999999403954","img/animal4.png","75","403.29999999701977","2","1","2","1,0.5,0,0,1,0.5,0.5,0,1",""
"","html-keyboard-response","276","194350","0.0-276.0","3WMOAN2SRCJUSOAY2IU5LXBE2JCNV1","A1JWKT0IS06YKL","3A3KKYU7P33Z3BR9PPFZ5194ZCQMWU","","null","<img src=""img/animal4.png"" style=""width:200px; border:14px solid green;"">","null","","","","","",""
"","image-keyboard-response","277","195158","0.0-277.0","3WMOAN2SRCJUSOAY2IU5LXBE2JCNV1","A1JWKT0IS06YKL","3A3KKYU7P33Z3BR9PPFZ5194ZCQMWU","","807.5","img/animal3.png","76","808.3999999910593","3","1","3","1,0.5,0,0,1,0.5,0.5,0,1",""
"","html-keyboard-response","278","195468","0.0-278.0","3WMOAN2SRCJUSOAY2IU5LXBE2JCNV1","A1JWKT0IS06YKL","3A3KKYU7P33Z3BR9PPFZ5194ZCQMWU","","null","<img src=""img/animal3.png"" style=""width:200px; border:14px solid green;"">","null","","","","","",""
"","image-keyboard-response","279","196274","0.0-279.0","3WMOAN2SRCJUSOAY2IU5LXBE2JCNV1","A1JWKT0IS06YKL","3A3KKYU7P33Z3BR9PPFZ5194ZCQMWU","","804.5","img/animal4.png","75","805.2999999970198","2","1","2","1,0.5,0,0,1,0.5,0.5,0,1",""
"","html-keyboard-response","280","196584","0.0-280.0","3WMOAN2SRCJUSOAY2IU5LXBE2JCNV1","A1JWKT0IS06YKL","3A3KKYU7P33Z3BR9PPFZ5194ZCQMWU","","null","<img src=""img/animal4.png"" style=""width:200px; border:14px solid green;"">","null","","","","","",""
"","image-keyboard-response","281","197058","0.0-281.0","3WMOAN2SRCJUSOAY2IU5LXBE2JCNV1","A1JWKT0IS06YKL","3A3KKYU7P33Z3BR9PPFZ5194ZCQMWU","","473.09999999403954","img/animal4.png","75","473.8999999910593","2","1","2","1,0.5,0,0,1,0.5,0.5,0,1",""
"","html-keyboard-response","282","197368","0.0-282.0","3WMOAN2SRCJUSOAY2IU5LXBE2JCNV1","A1JWKT0IS06YKL","3A3KKYU7P33Z3BR9PPFZ5194ZCQMWU","","null","<img src=""img/animal4.png"" style=""width:200px; border:14px solid green;"">","null","","","","","",""
"","image-keyboard-response","283","198092","0.0-283.0","3WMOAN2SRCJUSOAY2IU5LXBE2JCNV1","A1JWKT0IS06YKL","3A3KKYU7P33Z3BR9PPFZ5194ZCQMWU","","722.2999999970198","img/animal3.png","76","723.2000000029802","3","1","3","1,0.5,0,0,1,0.5,0.5,0,1",""
"","html-keyboard-response","284","198396","0.0-284.0","3WMOAN2SRCJUSOAY2IU5LXBE2JCNV1","A1JWKT0IS06YKL","3A3KKYU7P33Z3BR9PPFZ5194ZCQMWU","","null","<img src=""img/animal3.png"" style=""width:200px; border:14px solid green;"">","null","","","","","",""
"","image-keyboard-response","285","198833","0.0-285.0","3WMOAN2SRCJUSOAY2IU5LXBE2JCNV1","A1JWKT0IS06YKL","3A3KKYU7P33Z3BR9PPFZ5194ZCQMWU","","435.90000000596046","img/animal3.png","76","436.70000000298023","3","1","3","1,0.5,0,0,1,0.5,0.5,0,1",""
"","html-keyboard-response","286","199140","0.0-286.0","3WMOAN2SRCJUSOAY2IU5LXBE2JCNV1","A1JWKT0IS06YKL","3A3KKYU7P33Z3BR9PPFZ5194ZCQMWU","","null","<img src=""img/animal3.png"" style=""width:200px; border:14px solid green;"">","null","","","","","",""
"","image-keyboard-response","287","199792","0.0-287.0","3WMOAN2SRCJUSOAY2IU5LXBE2JCNV1","A1JWKT0IS06YKL","3A3KKYU7P33Z3BR9PPFZ5194ZCQMWU","","651","img/animal4.png","75","651.7999999970198","2","1","2","1,0.5,0,0,1,0.5,0.5,0,1",""
"","html-keyboard-response","288","200102","0.0-288.0","3WMOAN2SRCJUSOAY2IU5LXBE2JCNV1","A1JWKT0IS06YKL","3A3KKYU7P33Z3BR9PPFZ5194ZCQMWU","","null","<img src=""img/animal4.png"" style=""width:200px; border:14px solid green;"">","null","","","","","",""
"","image-keyboard-response","289","201018","0.0-289.0","3WMOAN2SRCJUSOAY2IU5LXBE2JCNV1","A1JWKT0IS06YKL","3A3KKYU7P33Z3BR9PPFZ5194ZCQMWU","","915.2000000029802","img/animal5.png","74","916.2000000029802","1","1","1","1,0.5,0,0,1,0.5,0.5,0,1",""
"","html-keyboard-response","290","201327","0.0-290.0","3WMOAN2SRCJUSOAY2IU5LXBE2JCNV1","A1JWKT0IS06YKL","3A3KKYU7P33Z3BR9PPFZ5194ZCQMWU","","null","<img src=""img/animal5.png"" style=""width:200px; border:14px solid green;"">","null","","","","","",""
"","image-keyboard-response","291","202323","0.0-291.0","3WMOAN2SRCJUSOAY2IU5LXBE2JCNV1","A1JWKT0IS06YKL","3A3KKYU7P33Z3BR9PPFZ5194ZCQMWU","","995.7999999970198","img/animal3.png","76","996.6000000089407","3","1","3","1,0.5,0,0,1,0.5,0.5,0,1",""
"","html-keyboard-response","292","202633","0.0-292.0","3WMOAN2SRCJUSOAY2IU5LXBE2JCNV1","A1JWKT0IS06YKL","3A3KKYU7P33Z3BR9PPFZ5194ZCQMWU","","null","<img src=""img/animal3.png"" style=""width:200px; border:14px solid green;"">","null","","","","","",""
"","image-keyboard-response","293","203507","0.0-293.0","3WMOAN2SRCJUSOAY2IU5LXBE2JCNV1","A1JWKT0IS06YKL","3A3KKYU7P33Z3BR9PPFZ5194ZCQMWU","","872.7999999970198","img/animal4.png","75","873.6000000089407","2","1","2","1,0.5,0,0,1,0.5,0.5,0,1",""
"","html-keyboard-response","294","203811","0.0-294.0","3WMOAN2SRCJUSOAY2IU5LXBE2JCNV1","A1JWKT0IS06YKL","3A3KKYU7P33Z3BR9PPFZ5194ZCQMWU","","null","<img src=""img/animal4.png"" style=""width:200px; border:14px solid green;"">","null","","","","","",""
"","image-keyboard-response","295","204576","0.0-295.0","3WMOAN2SRCJUSOAY2IU5LXBE2JCNV1","A1JWKT0IS06YKL","3A3KKYU7P33Z3BR9PPFZ5194ZCQMWU","","763.7000000029802","img/animal3.png","76","764.5999999940395","3","1","3","1,0.5,0,0,1,0.5,0.5,0,1",""
"","html-keyboard-response","296","204885","0.0-296.0","3WMOAN2SRCJUSOAY2IU5LXBE2JCNV1","A1JWKT0IS06YKL","3A3KKYU7P33Z3BR9PPFZ5194ZCQMWU","","null","<img src=""img/animal3.png"" style=""width:200px; border:14px solid green;"">","null","","","","","",""
"","image-keyboard-response","297","205573","0.0-297.0","3WMOAN2SRCJUSOAY2IU5LXBE2JCNV1","A1JWKT0IS06YKL","3A3KKYU7P33Z3BR9PPFZ5194ZCQMWU","","685.9000000059605","img/animal4.png","75","687.1000000089407","2","1","2","1,0.5,0,0,1,0.5,0.5,0,1",""
"","html-keyboard-response","298","205876","0.0-298.0","3WMOAN2SRCJUSOAY2IU5LXBE2JCNV1","A1JWKT0IS06YKL","3A3KKYU7P33Z3BR9PPFZ5194ZCQMWU","","null","<img src=""img/animal4.png"" style=""width:200px; border:14px solid green;"">","null","","","","","",""
"","image-keyboard-response","299","206566","0.0-299.0","3WMOAN2SRCJUSOAY2IU5LXBE2JCNV1","A1JWKT0IS06YKL","3A3KKYU7P33Z3BR9PPFZ5194ZCQMWU","","688.9000000059605","img/animal5.png","74","689.8999999910593","1","1","1","1,0.5,0,0,1,0.5,0.5,0,1",""
"","html-keyboard-response","300","206876","0.0-300.0","3WMOAN2SRCJUSOAY2IU5LXBE2JCNV1","A1JWKT0IS06YKL","3A3KKYU7P33Z3BR9PPFZ5194ZCQMWU","","null","<img src=""img/animal5.png"" style=""width:200px; border:14px solid green;"">","null","","","","","",""
"","image-keyboard-response","301","207381","0.0-301.0","3WMOAN2SRCJUSOAY2IU5LXBE2JCNV1","A1JWKT0IS06YKL","3A3KKYU7P33Z3BR9PPFZ5194ZCQMWU","","504","img/animal5.png","74","504.79999999701977","1","1","1","1,0.5,0,0,1,0.5,0.5,0,1",""
"","html-keyboard-response","302","207685","0.0-302.0","3WMOAN2SRCJUSOAY2IU5LXBE2JCNV1","A1JWKT0IS06YKL","3A3KKYU7P33Z3BR9PPFZ5194ZCQMWU","","null","<img src=""img/animal5.png"" style=""width:200px; border:14px solid green;"">","null","","","","","",""
"","image-keyboard-response","303","208050","0.0-303.0","3WMOAN2SRCJUSOAY2IU5LXBE2JCNV1","A1JWKT0IS06YKL","3A3KKYU7P33Z3BR9PPFZ5194ZCQMWU","","364.5","img/animal5.png","74","365.3999999910593","1","1","1","1,0.5,0,0,1,0.5,0.5,0,1",""
"","html-keyboard-response","304","208357","0.0-304.0","3WMOAN2SRCJUSOAY2IU5LXBE2JCNV1","A1JWKT0IS06YKL","3A3KKYU7P33Z3BR9PPFZ5194ZCQMWU","","null","<img src=""img/animal5.png"" style=""width:200px; border:14px solid green;"">","null","","","","","",""
"","image-keyboard-response","305","209039","0.0-305.0","3WMOAN2SRCJUSOAY2IU5LXBE2JCNV1","A1JWKT0IS06YKL","3A3KKYU7P33Z3BR9PPFZ5194ZCQMWU","","681.5999999940395","img/animal4.png","75","682.4000000059605","2","1","2","1,0.5,0,0,1,0.5,0.5,0,1",""
"","html-keyboard-response","306","209349","0.0-306.0","3WMOAN2SRCJUSOAY2IU5LXBE2JCNV1","A1JWKT0IS06YKL","3A3KKYU7P33Z3BR9PPFZ5194ZCQMWU","","null","<img src=""img/animal4.png"" style=""width:200px; border:14px solid green;"">","null","","","","","",""
"","image-keyboard-response","307","209996","0.0-307.0","3WMOAN2SRCJUSOAY2IU5LXBE2JCNV1","A1JWKT0IS06YKL","3A3KKYU7P33Z3BR9PPFZ5194ZCQMWU","","645.8000000119209","img/animal5.png","74","646.9000000059605","1","1","1","1,0.5,0,0,1,0.5,0.5,0,1",""
"","html-keyboard-response","308","210299","0.0-308.0","3WMOAN2SRCJUSOAY2IU5LXBE2JCNV1","A1JWKT0IS06YKL","3A3KKYU7P33Z3BR9PPFZ5194ZCQMWU","","null","<img src=""img/animal5.png"" style=""width:200px; border:14px solid green;"">","null","","","","","",""
"","image-keyboard-response","309","210998","0.0-309.0","3WMOAN2SRCJUSOAY2IU5LXBE2JCNV1","A1JWKT0IS06YKL","3A3KKYU7P33Z3BR9PPFZ5194ZCQMWU","","697.3999999910593","img/animal4.png","75","698.5","2","1","2","1,0.5,0,0,1,0.5,0.5,0,1",""
"","html-keyboard-response","310","211310","0.0-310.0","3WMOAN2SRCJUSOAY2IU5LXBE2JCNV1","A1JWKT0IS06YKL","3A3KKYU7P33Z3BR9PPFZ5194ZCQMWU","","null","<img src=""img/animal4.png"" style=""width:200px; border:14px solid green;"">","null","","","","","",""
"","image-keyboard-response","311","212112","0.0-311.0","3WMOAN2SRCJUSOAY2IU5LXBE2JCNV1","A1JWKT0IS06YKL","3A3KKYU7P33Z3BR9PPFZ5194ZCQMWU","","800.9000000059605","img/animal3.png","76","802","3","1","3","1,0.5,0,0,1,0.5,0.5,0,1",""
"","html-keyboard-response","312","212420","0.0-312.0","3WMOAN2SRCJUSOAY2IU5LXBE2JCNV1","A1JWKT0IS06YKL","3A3KKYU7P33Z3BR9PPFZ5194ZCQMWU","","null","<img src=""img/animal3.png"" style=""width:200px; border:14px solid green;"">","null","","","","","",""
"","image-keyboard-response","313","212836","0.0-313.0","3WMOAN2SRCJUSOAY2IU5LXBE2JCNV1","A1JWKT0IS06YKL","3A3KKYU7P33Z3BR9PPFZ5194ZCQMWU","","415.1000000089407","img/animal3.png","76","415.90000000596046","3","1","3","1,0.5,0,0,1,0.5,0.5,0,1",""
"","html-keyboard-response","314","213140","0.0-314.0","3WMOAN2SRCJUSOAY2IU5LXBE2JCNV1","A1JWKT0IS06YKL","3A3KKYU7P33Z3BR9PPFZ5194ZCQMWU","","null","<img src=""img/animal3.png"" style=""width:200px; border:14px solid green;"">","null","","","","","",""
"","image-keyboard-response","315","213894","0.0-315.0","3WMOAN2SRCJUSOAY2IU5LXBE2JCNV1","A1JWKT0IS06YKL","3A3KKYU7P33Z3BR9PPFZ5194ZCQMWU","","753.2999999970198","img/animal4.png","75","754.1999999880791","2","1","2","1,0.5,0,0,1,0.5,0.5,0,1",""
"","html-keyboard-response","316","214203","0.0-316.0","3WMOAN2SRCJUSOAY2IU5LXBE2JCNV1","A1JWKT0IS06YKL","3A3KKYU7P33Z3BR9PPFZ5194ZCQMWU","","null","<img src=""img/animal4.png"" style=""width:200px; border:14px solid green;"">","null","","","","","",""
"","image-keyboard-response","317","214999","0.0-317.0","3WMOAN2SRCJUSOAY2IU5LXBE2JCNV1","A1JWKT0IS06YKL","3A3KKYU7P33Z3BR9PPFZ5194ZCQMWU","","794","img/animal3.png","76","795","3","1","3","1,0.5,0,0,1,0.5,0.5,0,1",""
"","html-keyboard-response","318","215312","0.0-318.0","3WMOAN2SRCJUSOAY2IU5LXBE2JCNV1","A1JWKT0IS06YKL","3A3KKYU7P33Z3BR9PPFZ5194ZCQMWU","","null","<img src=""img/animal3.png"" style=""width:200px; border:14px solid green;"">","null","","","","","",""
"","image-keyboard-response","319","215858","0.0-319.0","3WMOAN2SRCJUSOAY2IU5LXBE2JCNV1","A1JWKT0IS06YKL","3A3KKYU7P33Z3BR9PPFZ5194ZCQMWU","","544.2000000029802","img/animal3.png","76","545","3","1","3","1,0.5,0,0,1,0.5,0.5,0,1",""
"","html-keyboard-response","320","216164","0.0-320.0","3WMOAN2SRCJUSOAY2IU5LXBE2JCNV1","A1JWKT0IS06YKL","3A3KKYU7P33Z3BR9PPFZ5194ZCQMWU","","null","<img src=""img/animal3.png"" style=""width:200px; border:14px solid green;"">","null","","","","","",""
"","image-keyboard-response","321","216615","0.0-321.0","3WMOAN2SRCJUSOAY2IU5LXBE2JCNV1","A1JWKT0IS06YKL","3A3KKYU7P33Z3BR9PPFZ5194ZCQMWU","","449","img/animal3.png","76","450.79999999701977","3","1","3","1,0.5,0,0,1,0.5,0.5,0,1",""
"","html-keyboard-response","322","216926","0.0-322.0","3WMOAN2SRCJUSOAY2IU5LXBE2JCNV1","A1JWKT0IS06YKL","3A3KKYU7P33Z3BR9PPFZ5194ZCQMWU","","null","<img src=""img/animal3.png"" style=""width:200px; border:14px solid green;"">","null","","","","","",""
"","image-keyboard-response","323","217459","0.0-323.0","3WMOAN2SRCJUSOAY2IU5LXBE2JCNV1","A1JWKT0IS06YKL","3A3KKYU7P33Z3BR9PPFZ5194ZCQMWU","","530.7999999970198","img/animal3.png","76","532.3000000119209","3","1","3","1,0.5,0,0,1,0.5,0.5,0,1",""
"","html-keyboard-response","324","217764","0.0-324.0","3WMOAN2SRCJUSOAY2IU5LXBE2JCNV1","A1JWKT0IS06YKL","3A3KKYU7P33Z3BR9PPFZ5194ZCQMWU","","null","<img src=""img/animal3.png"" style=""width:200px; border:14px solid green;"">","null","","","","","",""
"","image-keyboard-response","325","218704","0.0-325.0","3WMOAN2SRCJUSOAY2IU5LXBE2JCNV1","A1JWKT0IS06YKL","3A3KKYU7P33Z3BR9PPFZ5194ZCQMWU","","938.7999999970198","img/animal5.png","74","939.6000000089407","1","1","1","1,0.5,0,0,1,0.5,0.5,0,1",""
"","html-keyboard-response","326","219015","0.0-326.0","3WMOAN2SRCJUSOAY2IU5LXBE2JCNV1","A1JWKT0IS06YKL","3A3KKYU7P33Z3BR9PPFZ5194ZCQMWU","","null","<img src=""img/animal5.png"" style=""width:200px; border:14px solid green;"">","null","","","","","",""
"","image-keyboard-response","327","219747","0.0-327.0","3WMOAN2SRCJUSOAY2IU5LXBE2JCNV1","A1JWKT0IS06YKL","3A3KKYU7P33Z3BR9PPFZ5194ZCQMWU","","730.5","img/animal3.png","76","731.3999999910593","3","1","3","1,0.5,0,0,1,0.5,0.5,0,1",""
"","html-keyboard-response","328","220055","0.0-328.0","3WMOAN2SRCJUSOAY2IU5LXBE2JCNV1","A1JWKT0IS06YKL","3A3KKYU7P33Z3BR9PPFZ5194ZCQMWU","","null","<img src=""img/animal3.png"" style=""width:200px; border:14px solid green;"">","null","","","","","",""
"","image-keyboard-response","329","220881","0.0-329.0","3WMOAN2SRCJUSOAY2IU5LXBE2JCNV1","A1JWKT0IS06YKL","3A3KKYU7P33Z3BR9PPFZ5194ZCQMWU","","824.9000000059605","img/animal4.png","75","825.7999999970198","2","1","2","1,0.5,0,0,1,0.5,0.5,0,1",""
"","html-keyboard-response","330","221191","0.0-330.0","3WMOAN2SRCJUSOAY2IU5LXBE2JCNV1","A1JWKT0IS06YKL","3A3KKYU7P33Z3BR9PPFZ5194ZCQMWU","","null","<img src=""img/animal4.png"" style=""width:200px; border:14px solid green;"">","null","","","","","",""
"","image-keyboard-response","331","221822","0.0-331.0","3WMOAN2SRCJUSOAY2IU5LXBE2JCNV1","A1JWKT0IS06YKL","3A3KKYU7P33Z3BR9PPFZ5194ZCQMWU","","630.0999999940395","img/animal5.png","74","630.9000000059605","1","1","1","1,0.5,0,0,1,0.5,0.5,0,1",""
"","html-keyboard-response","332","222131","0.0-332.0","3WMOAN2SRCJUSOAY2IU5LXBE2JCNV1","A1JWKT0IS06YKL","3A3KKYU7P33Z3BR9PPFZ5194ZCQMWU","","null","<img src=""img/animal5.png"" style=""width:200px; border:14px solid green;"">","null","","","","","",""
"","image-keyboard-response","333","223097","0.0-333.0","3WMOAN2SRCJUSOAY2IU5LXBE2JCNV1","A1JWKT0IS06YKL","3A3KKYU7P33Z3BR9PPFZ5194ZCQMWU","","964.7999999970198","img/animal3.png","76","965.7999999970198","3","1","3","1,0.5,0,0,1,0.5,0.5,0,1",""
"","html-keyboard-response","334","223408","0.0-334.0","3WMOAN2SRCJUSOAY2IU5LXBE2JCNV1","A1JWKT0IS06YKL","3A3KKYU7P33Z3BR9PPFZ5194ZCQMWU","","null","<img src=""img/animal3.png"" style=""width:200px; border:14px solid green;"">","null","","","","","",""
"","image-keyboard-response","335","224127","0.0-335.0","3WMOAN2SRCJUSOAY2IU5LXBE2JCNV1","A1JWKT0IS06YKL","3A3KKYU7P33Z3BR9PPFZ5194ZCQMWU","","717.5","img/animal4.png","75","718.4000000059605","2","1","2","1,0.5,0,0,1,0.5,0.5,0,1",""
"","html-keyboard-response","336","224436","0.0-336.0","3WMOAN2SRCJUSOAY2IU5LXBE2JCNV1","A1JWKT0IS06YKL","3A3KKYU7P33Z3BR9PPFZ5194ZCQMWU","","null","<img src=""img/animal4.png"" style=""width:200px; border:14px solid green;"">","null","","","","","",""
"","image-keyboard-response","337","225087","0.0-337.0","3WMOAN2SRCJUSOAY2IU5LXBE2JCNV1","A1JWKT0IS06YKL","3A3KKYU7P33Z3BR9PPFZ5194ZCQMWU","","649.7000000029802","img/animal4.png","75","650.5","2","1","2","1,0.5,0,0,1,0.5,0.5,0,1",""
"","html-keyboard-response","338","225399","0.0-338.0","3WMOAN2SRCJUSOAY2IU5LXBE2JCNV1","A1JWKT0IS06YKL","3A3KKYU7P33Z3BR9PPFZ5194ZCQMWU","","null","<img src=""img/animal4.png"" style=""width:200px; border:14px solid green;"">","null","","","","","",""
"","image-keyboard-response","339","226157","0.0-339.0","3WMOAN2SRCJUSOAY2IU5LXBE2JCNV1","A1JWKT0IS06YKL","3A3KKYU7P33Z3BR9PPFZ5194ZCQMWU","","756.2999999970198","img/animal3.png","76","757.2999999970198","3","1","3","1,0.5,0,0,1,0.5,0.5,0,1",""
"","html-keyboard-response","340","226462","0.0-340.0","3WMOAN2SRCJUSOAY2IU5LXBE2JCNV1","A1JWKT0IS06YKL","3A3KKYU7P33Z3BR9PPFZ5194ZCQMWU","","null","<img src=""img/animal3.png"" style=""width:200px; border:14px solid green;"">","null","","","","","",""
"","image-keyboard-response","341","227217","0.0-341.0","3WMOAN2SRCJUSOAY2IU5LXBE2JCNV1","A1JWKT0IS06YKL","3A3KKYU7P33Z3BR9PPFZ5194ZCQMWU","","754","img/animal4.png","75","755","2","1","2","1,0.5,0,0,1,0.5,0.5,0,1",""
"","html-keyboard-response","342","227525","0.0-342.0","3WMOAN2SRCJUSOAY2IU5LXBE2JCNV1","A1JWKT0IS06YKL","3A3KKYU7P33Z3BR9PPFZ5194ZCQMWU","","null","<img src=""img/animal4.png"" style=""width:200px; border:14px solid green;"">","null","","","","","",""
"","image-keyboard-response","343","228123","0.0-343.0","3WMOAN2SRCJUSOAY2IU5LXBE2JCNV1","A1JWKT0IS06YKL","3A3KKYU7P33Z3BR9PPFZ5194ZCQMWU","","596.5","img/animal3.png","76","597.5","3","1","3","1,0.5,0,0,1,0.5,0.5,0,1",""
"","html-keyboard-response","344","228430","0.0-344.0","3WMOAN2SRCJUSOAY2IU5LXBE2JCNV1","A1JWKT0IS06YKL","3A3KKYU7P33Z3BR9PPFZ5194ZCQMWU","","null","<img src=""img/animal3.png"" style=""width:200px; border:14px solid green;"">","null","","","","","",""
"","image-keyboard-response","345","229166","0.0-345.0","3WMOAN2SRCJUSOAY2IU5LXBE2JCNV1","A1JWKT0IS06YKL","3A3KKYU7P33Z3BR9PPFZ5194ZCQMWU","","735.5","img/animal3.png","76","736.5","3","1","3","1,0.5,0,0,1,0.5,0.5,0,1",""
"","html-keyboard-response","346","229480","0.0-346.0","3WMOAN2SRCJUSOAY2IU5LXBE2JCNV1","A1JWKT0IS06YKL","3A3KKYU7P33Z3BR9PPFZ5194ZCQMWU","","null","<img src=""img/animal3.png"" style=""width:200px; border:14px solid green;"">","null","","","","","",""
"","image-keyboard-response","347","230309","0.0-347.0","3WMOAN2SRCJUSOAY2IU5LXBE2JCNV1","A1JWKT0IS06YKL","3A3KKYU7P33Z3BR9PPFZ5194ZCQMWU","","828.2000000029802","img/animal4.png","75","829.1000000089407","2","1","2","1,0.5,0,0,1,0.5,0.5,0,1",""
"","html-keyboard-response","348","230624","0.0-348.0","3WMOAN2SRCJUSOAY2IU5LXBE2JCNV1","A1JWKT0IS06YKL","3A3KKYU7P33Z3BR9PPFZ5194ZCQMWU","","null","<img src=""img/animal4.png"" style=""width:200px; border:14px solid green;"">","null","","","","","",""
"","image-keyboard-response","349","231318","0.0-349.0","3WMOAN2SRCJUSOAY2IU5LXBE2JCNV1","A1JWKT0IS06YKL","3A3KKYU7P33Z3BR9PPFZ5194ZCQMWU","","693.5999999940395","img/animal4.png","75","694.5","2","1","2","1,0.5,0,0,1,0.5,0.5,0,1",""
"","html-keyboard-response","350","231628","0.0-350.0","3WMOAN2SRCJUSOAY2IU5LXBE2JCNV1","A1JWKT0IS06YKL","3A3KKYU7P33Z3BR9PPFZ5194ZCQMWU","","null","<img src=""img/animal4.png"" style=""width:200px; border:14px solid green;"">","null","","","","","",""
"","image-keyboard-response","351","232408","0.0-351.0","3WMOAN2SRCJUSOAY2IU5LXBE2JCNV1","A1JWKT0IS06YKL","3A3KKYU7P33Z3BR9PPFZ5194ZCQMWU","","778.7999999970198","img/animal3.png","76","779.7000000029802","3","1","3","1,0.5,0,0,1,0.5,0.5,0,1",""
"","html-keyboard-response","352","232719","0.0-352.0","3WMOAN2SRCJUSOAY2IU5LXBE2JCNV1","A1JWKT0IS06YKL","3A3KKYU7P33Z3BR9PPFZ5194ZCQMWU","","null","<img src=""img/animal3.png"" style=""width:200px; border:14px solid green;"">","null","","","","","",""
"","image-keyboard-response","353","233473","0.0-353.0","3WMOAN2SRCJUSOAY2IU5LXBE2JCNV1","A1JWKT0IS06YKL","3A3KKYU7P33Z3BR9PPFZ5194ZCQMWU","","752.6000000089407","img/animal3.png","76","753.5","3","1","3","1,0.5,0,0,1,0.5,0.5,0,1",""
"","html-keyboard-response","354","233781","0.0-354.0","3WMOAN2SRCJUSOAY2IU5LXBE2JCNV1","A1JWKT0IS06YKL","3A3KKYU7P33Z3BR9PPFZ5194ZCQMWU","","null","<img src=""img/animal3.png"" style=""width:200px; border:14px solid green;"">","null","","","","","",""
"","image-keyboard-response","355","234471","0.0-355.0","3WMOAN2SRCJUSOAY2IU5LXBE2JCNV1","A1JWKT0IS06YKL","3A3KKYU7P33Z3BR9PPFZ5194ZCQMWU","","688.2999999970198","img/animal4.png","75","689.0999999940395","2","1","2","1,0.5,0,0,1,0.5,0.5,0,1",""
"","html-keyboard-response","356","234780","0.0-356.0","3WMOAN2SRCJUSOAY2IU5LXBE2JCNV1","A1JWKT0IS06YKL","3A3KKYU7P33Z3BR9PPFZ5194ZCQMWU","","null","<img src=""img/animal4.png"" style=""width:200px; border:14px solid green;"">","null","","","","","",""
"","image-keyboard-response","357","235694","0.0-357.0","3WMOAN2SRCJUSOAY2IU5LXBE2JCNV1","A1JWKT0IS06YKL","3A3KKYU7P33Z3BR9PPFZ5194ZCQMWU","","913.4000000059605","img/animal5.png","74","914.2999999970198","1","1","1","1,0.5,0,0,1,0.5,0.5,0,1",""
"","html-keyboard-response","358","236003","0.0-358.0","3WMOAN2SRCJUSOAY2IU5LXBE2JCNV1","A1JWKT0IS06YKL","3A3KKYU7P33Z3BR9PPFZ5194ZCQMWU","","null","<img src=""img/animal5.png"" style=""width:200px; border:14px solid green;"">","null","","","","","",""
"","image-keyboard-response","359","236672","0.0-359.0","3WMOAN2SRCJUSOAY2IU5LXBE2JCNV1","A1JWKT0IS06YKL","3A3KKYU7P33Z3BR9PPFZ5194ZCQMWU","","667.5999999940395","img/animal5.png","74","668.5999999940395","1","1","1","1,0.5,0,0,1,0.5,0.5,0,1",""
"","html-keyboard-response","360","236981","0.0-360.0","3WMOAN2SRCJUSOAY2IU5LXBE2JCNV1","A1JWKT0IS06YKL","3A3KKYU7P33Z3BR9PPFZ5194ZCQMWU","","null","<img src=""img/animal5.png"" style=""width:200px; border:14px solid green;"">","null","","","","","",""
"","image-keyboard-response","361","237471","0.0-361.0","3WMOAN2SRCJUSOAY2IU5LXBE2JCNV1","A1JWKT0IS06YKL","3A3KKYU7P33Z3BR9PPFZ5194ZCQMWU","","488.80000001192093","img/animal5.png","74","489.70000000298023","1","1","1","1,0.5,0,0,1,0.5,0.5,0,1",""
"","html-keyboard-response","362","237792","0.0-362.0","3WMOAN2SRCJUSOAY2IU5LXBE2JCNV1","A1JWKT0IS06YKL","3A3KKYU7P33Z3BR9PPFZ5194ZCQMWU","","null","<img src=""img/animal5.png"" style=""width:200px; border:14px solid green;"">","null","","","","","",""
"","instructions","363","242108","0.0-363.0","3WMOAN2SRCJUSOAY2IU5LXBE2JCNV1","A1JWKT0IS06YKL","3A3KKYU7P33Z3BR9PPFZ5194ZCQMWU","[{""page_index"":0,""viewing_time"":4314.79999999702}]","4315.399999991059","","","","","","","",""
"","survey-text","364","248075","0.0-364.0","3WMOAN2SRCJUSOAY2IU5LXBE2JCNV1","A1JWKT0IS06YKL","3A3KKYU7P33Z3BR9PPFZ5194ZCQMWU","","5963.5","","","","","","","","{""Q0"":""A1JWKT0IS06YKL""}"
