"success","trial_type","trial_index","time_elapsed","internal_node_id","assignmentID","mturkID","hitID","view_history","rt","stimulus","key_press","reactionTime","a","r","s","reward_cond","responses"
"true","fullscreen","0","2563","0.0-0.0","374TNBHA8CHWZFIVNL96WQADOVVYQ5","A1NKBIJQGT0712","3S829FDFT2NBOHQMM1CIOU0HZYXDXL","","","","","","","","","",""
"","instructions","1","23432","0.0-1.0","374TNBHA8CHWZFIVNL96WQADOVVYQ5","A1NKBIJQGT0712","3S829FDFT2NBOHQMM1CIOU0HZYXDXL","[{""page_index"":0,""viewing_time"":9044.899999976158},{""page_index"":1,""viewing_time"":2035.300000011921},{""page_index"":2,""viewing_time"":1582.5999999642372},{""page_index"":3,""viewing_time"":4252.100000023842},{""page_index"":4,""viewing_time"":1005},{""page_index"":5,""viewing_time"":1118},{""page_index"":6,""viewing_time"":824.8999999761581},{""page_index"":7,""viewing_time"":1004.8000000119209}]","20868.099999964237","","","","","","","",""
"","image-keyboard-response","2","24911","0.0-2.0","374TNBHA8CHWZFIVNL96WQADOVVYQ5","A1NKBIJQGT0712","3S829FDFT2NBOHQMM1CIOU0HZYXDXL","","1477.8999999761581","img/animal3.png","75","1478.8999999761581","2","0","1","0.5,0,1,1,0.5,0,0,1,0.5",""
"","html-keyboard-response","3","25223","0.0-3.0","374TNBHA8CHWZFIVNL96WQADOVVYQ5","A1NKBIJQGT0712","3S829FDFT2NBOHQMM1CIOU0HZYXDXL","","null","<img src=""img/animal3.png"" style=""width:200px;border:14px solid red;"">","null","","","","","",""
"","image-keyboard-response","4","26812","0.0-4.0","374TNBHA8CHWZFIVNL96WQADOVVYQ5","A1NKBIJQGT0712","3S829FDFT2NBOHQMM1CIOU0HZYXDXL","","1587.7999999523163","img/animal3.png","74","1588.5","1","1","1","0.5,0,1,1,0.5,0,0,1,0.5",""
"","html-keyboard-response","5","27123","0.0-5.0","374TNBHA8CHWZFIVNL96WQADOVVYQ5","A1NKBIJQGT0712","3S829FDFT2NBOHQMM1CIOU0HZYXDXL","","null","<img src=""img/animal3.png"" style=""width:200px; border:14px solid green;"">","null","","","","","",""
"","image-keyboard-response","6","27894","0.0-6.0","374TNBHA8CHWZFIVNL96WQADOVVYQ5","A1NKBIJQGT0712","3S829FDFT2NBOHQMM1CIOU0HZYXDXL","","769.5999999642372","img/animal5.png","75","770.3000000119209","2","1","3","0.5,0,1,1,0.5,0,0,1,0.5",""
"","html-keyboard-response","7","28199","0.0-7.0","374TNBHA8CHWZFIVNL96WQADOVVYQ5","A1NKBIJQGT0712","3S829FDFT2NBOHQMM1CIOU0HZYXDXL","","null","<img src=""img/animal5.png"" style=""width:200px; border:14px solid green;"">","null","","","","","",""
"","image-keyboard-response","8","28643","0.0-8.0","374TNBHA8CHWZFIVNL96WQADOVVYQ5","A1NKBIJQGT0712","3S829FDFT2NBOHQMM1CIOU0HZYXDXL","","442.80000001192093","img/animal5.png","75","443.69999998807907","2","1","3","0.5,0,1,1,0.5,0,0,1,0.5",""
"","html-keyboard-response","9","28958","0.0-9.0","374TNBHA8CHWZFIVNL96WQADOVVYQ5","A1NKBIJQGT0712","3S829FDFT2NBOHQMM1CIOU0HZYXDXL","","null","<img src=""img/animal5.png"" style=""width:200px; border:14px solid green;"">","null","","","","","",""
"","image-keyboard-response","10","29577","0.0-10.0","374TNBHA8CHWZFIVNL96WQADOVVYQ5","A1NKBIJQGT0712","3S829FDFT2NBOHQMM1CIOU0HZYXDXL","","617.8999999761581","img/animal3.png","74","618.5","1","1","1","0.5,0,1,1,0.5,0,0,1,0.5",""
"","html-keyboard-response","11","29878","0.0-11.0","374TNBHA8CHWZFIVNL96WQADOVVYQ5","A1NKBIJQGT0712","3S829FDFT2NBOHQMM1CIOU0HZYXDXL","","null","<img src=""img/animal3.png"" style=""width:200px; border:14px solid green;"">","null","","","","","",""
"","image-keyboard-response","12","30511","0.0-12.0","374TNBHA8CHWZFIVNL96WQADOVVYQ5","A1NKBIJQGT0712","3S829FDFT2NBOHQMM1CIOU0HZYXDXL","","631.6000000238419","img/animal4.png","76","632.1999999880791","3","0","2","0.5,0,1,1,0.5,0,0,1,0.5",""
"","html-keyboard-response","13","30816","0.0-13.0","374TNBHA8CHWZFIVNL96WQADOVVYQ5","A1NKBIJQGT0712","3S829FDFT2NBOHQMM1CIOU0HZYXDXL","","null","<img src=""img/animal4.png"" style=""width:200px;border:14px solid red;"">","null","","","","","",""
"","image-keyboard-response","14","31428","0.0-14.0","374TNBHA8CHWZFIVNL96WQADOVVYQ5","A1NKBIJQGT0712","3S829FDFT2NBOHQMM1CIOU0HZYXDXL","","611","img/animal3.png","74","611.6000000238419","1","1","1","0.5,0,1,1,0.5,0,0,1,0.5",""
"","html-keyboard-response","15","31728","0.0-15.0","374TNBHA8CHWZFIVNL96WQADOVVYQ5","A1NKBIJQGT0712","3S829FDFT2NBOHQMM1CIOU0HZYXDXL","","null","<img src=""img/animal3.png"" style=""width:200px; border:14px solid green;"">","null","","","","","",""
"","image-keyboard-response","16","32094","0.0-16.0","374TNBHA8CHWZFIVNL96WQADOVVYQ5","A1NKBIJQGT0712","3S829FDFT2NBOHQMM1CIOU0HZYXDXL","","364.5999999642372","img/animal3.png","74","365.30000001192093","1","0","1","0.5,0,1,1,0.5,0,0,1,0.5",""
"","html-keyboard-response","17","32395","0.0-17.0","374TNBHA8CHWZFIVNL96WQADOVVYQ5","A1NKBIJQGT0712","3S829FDFT2NBOHQMM1CIOU0HZYXDXL","","null","<img src=""img/animal3.png"" style=""width:200px;border:14px solid red;"">","null","","","","","",""
"","image-keyboard-response","18","33093","0.0-18.0","374TNBHA8CHWZFIVNL96WQADOVVYQ5","A1NKBIJQGT0712","3S829FDFT2NBOHQMM1CIOU0HZYXDXL","","697","img/animal5.png","75","697.6999999880791","2","1","3","0.5,0,1,1,0.5,0,0,1,0.5",""
"","html-keyboard-response","19","33394","0.0-19.0","374TNBHA8CHWZFIVNL96WQADOVVYQ5","A1NKBIJQGT0712","3S829FDFT2NBOHQMM1CIOU0HZYXDXL","","null","<img src=""img/animal5.png"" style=""width:200px; border:14px solid green;"">","null","","","","","",""
"","image-keyboard-response","20","33927","0.0-20.0","374TNBHA8CHWZFIVNL96WQADOVVYQ5","A1NKBIJQGT0712","3S829FDFT2NBOHQMM1CIOU0HZYXDXL","","531.8999999761581","img/animal4.png","76","532.6000000238419","3","0","2","0.5,0,1,1,0.5,0,0,1,0.5",""
"","html-keyboard-response","21","34228","0.0-21.0","374TNBHA8CHWZFIVNL96WQADOVVYQ5","A1NKBIJQGT0712","3S829FDFT2NBOHQMM1CIOU0HZYXDXL","","null","<img src=""img/animal4.png"" style=""width:200px;border:14px solid red;"">","null","","","","","",""
"","image-keyboard-response","22","35677","0.0-22.0","374TNBHA8CHWZFIVNL96WQADOVVYQ5","A1NKBIJQGT0712","3S829FDFT2NBOHQMM1CIOU0HZYXDXL","","1448.0999999642372","img/animal5.png","75","1448.800000011921","2","1","3","0.5,0,1,1,0.5,0,0,1,0.5",""
"","html-keyboard-response","23","35979","0.0-23.0","374TNBHA8CHWZFIVNL96WQADOVVYQ5","A1NKBIJQGT0712","3S829FDFT2NBOHQMM1CIOU0HZYXDXL","","null","<img src=""img/animal5.png"" style=""width:200px; border:14px solid green;"">","null","","","","","",""
"","image-keyboard-response","24","36528","0.0-24.0","374TNBHA8CHWZFIVNL96WQADOVVYQ5","A1NKBIJQGT0712","3S829FDFT2NBOHQMM1CIOU0HZYXDXL","","548.1999999880791","img/animal4.png","76","548.7999999523163","3","0","2","0.5,0,1,1,0.5,0,0,1,0.5",""
"","html-keyboard-response","25","36829","0.0-25.0","374TNBHA8CHWZFIVNL96WQADOVVYQ5","A1NKBIJQGT0712","3S829FDFT2NBOHQMM1CIOU0HZYXDXL","","null","<img src=""img/animal4.png"" style=""width:200px;border:14px solid red;"">","null","","","","","",""
"","image-keyboard-response","26","37661","0.0-26.0","374TNBHA8CHWZFIVNL96WQADOVVYQ5","A1NKBIJQGT0712","3S829FDFT2NBOHQMM1CIOU0HZYXDXL","","831.0999999642372","img/animal4.png","75","831.6999999880791","2","0","2","0.5,0,1,1,0.5,0,0,1,0.5",""
"","html-keyboard-response","27","37962","0.0-27.0","374TNBHA8CHWZFIVNL96WQADOVVYQ5","A1NKBIJQGT0712","3S829FDFT2NBOHQMM1CIOU0HZYXDXL","","null","<img src=""img/animal4.png"" style=""width:200px;border:14px solid red;"">","null","","","","","",""
"","image-keyboard-response","28","38594","0.0-28.0","374TNBHA8CHWZFIVNL96WQADOVVYQ5","A1NKBIJQGT0712","3S829FDFT2NBOHQMM1CIOU0HZYXDXL","","630.8999999761581","img/animal3.png","74","631.6000000238419","1","1","1","0.5,0,1,1,0.5,0,0,1,0.5",""
"","html-keyboard-response","29","38896","0.0-29.0","374TNBHA8CHWZFIVNL96WQADOVVYQ5","A1NKBIJQGT0712","3S829FDFT2NBOHQMM1CIOU0HZYXDXL","","null","<img src=""img/animal3.png"" style=""width:200px; border:14px solid green;"">","null","","","","","",""
"","image-keyboard-response","30","39677","0.0-30.0","374TNBHA8CHWZFIVNL96WQADOVVYQ5","A1NKBIJQGT0712","3S829FDFT2NBOHQMM1CIOU0HZYXDXL","","780","img/animal5.png","75","780.7000000476837","2","1","3","0.5,0,1,1,0.5,0,0,1,0.5",""
"","html-keyboard-response","31","39978","0.0-31.0","374TNBHA8CHWZFIVNL96WQADOVVYQ5","A1NKBIJQGT0712","3S829FDFT2NBOHQMM1CIOU0HZYXDXL","","null","<img src=""img/animal5.png"" style=""width:200px; border:14px solid green;"">","null","","","","","",""
"","image-keyboard-response","32","40611","0.0-32.0","374TNBHA8CHWZFIVNL96WQADOVVYQ5","A1NKBIJQGT0712","3S829FDFT2NBOHQMM1CIOU0HZYXDXL","","631.6999999880791","img/animal4.png","76","632.1000000238419","3","0","2","0.5,0,1,1,0.5,0,0,1,0.5",""
"","html-keyboard-response","33","40912","0.0-33.0","374TNBHA8CHWZFIVNL96WQADOVVYQ5","A1NKBIJQGT0712","3S829FDFT2NBOHQMM1CIOU0HZYXDXL","","null","<img src=""img/animal4.png"" style=""width:200px;border:14px solid red;"">","null","","","","","",""
"","image-keyboard-response","34","41344","0.0-34.0","374TNBHA8CHWZFIVNL96WQADOVVYQ5","A1NKBIJQGT0712","3S829FDFT2NBOHQMM1CIOU0HZYXDXL","","430.89999997615814","img/animal4.png","76","431.39999997615814","3","0","2","0.5,0,1,1,0.5,0,0,1,0.5",""
"","html-keyboard-response","35","41644","0.0-35.0","374TNBHA8CHWZFIVNL96WQADOVVYQ5","A1NKBIJQGT0712","3S829FDFT2NBOHQMM1CIOU0HZYXDXL","","null","<img src=""img/animal4.png"" style=""width:200px;border:14px solid red;"">","null","","","","","",""
"","image-keyboard-response","36","42227","0.0-36.0","374TNBHA8CHWZFIVNL96WQADOVVYQ5","A1NKBIJQGT0712","3S829FDFT2NBOHQMM1CIOU0HZYXDXL","","581.4000000357628","img/animal4.png","76","582","3","0","2","0.5,0,1,1,0.5,0,0,1,0.5",""
"","html-keyboard-response","37","42528","0.0-37.0","374TNBHA8CHWZFIVNL96WQADOVVYQ5","A1NKBIJQGT0712","3S829FDFT2NBOHQMM1CIOU0HZYXDXL","","null","<img src=""img/animal4.png"" style=""width:200px;border:14px solid red;"">","null","","","","","",""
"","image-keyboard-response","38","43361","0.0-38.0","374TNBHA8CHWZFIVNL96WQADOVVYQ5","A1NKBIJQGT0712","3S829FDFT2NBOHQMM1CIOU0HZYXDXL","","832.1999999880791","img/animal3.png","74","832.6999999880791","1","1","1","0.5,0,1,1,0.5,0,0,1,0.5",""
"","html-keyboard-response","39","43662","0.0-39.0","374TNBHA8CHWZFIVNL96WQADOVVYQ5","A1NKBIJQGT0712","3S829FDFT2NBOHQMM1CIOU0HZYXDXL","","null","<img src=""img/animal3.png"" style=""width:200px; border:14px solid green;"">","null","","","","","",""
"","image-keyboard-response","40","44260","0.0-40.0","374TNBHA8CHWZFIVNL96WQADOVVYQ5","A1NKBIJQGT0712","3S829FDFT2NBOHQMM1CIOU0HZYXDXL","","597.3000000119209","img/animal3.png","74","598","1","0","1","0.5,0,1,1,0.5,0,0,1,0.5",""
"","html-keyboard-response","41","44562","0.0-41.0","374TNBHA8CHWZFIVNL96WQADOVVYQ5","A1NKBIJQGT0712","3S829FDFT2NBOHQMM1CIOU0HZYXDXL","","null","<img src=""img/animal3.png"" style=""width:200px;border:14px solid red;"">","null","","","","","",""
"","image-keyboard-response","42","45061","0.0-42.0","374TNBHA8CHWZFIVNL96WQADOVVYQ5","A1NKBIJQGT0712","3S829FDFT2NBOHQMM1CIOU0HZYXDXL","","497.9000000357628","img/animal3.png","74","498.5","1","0","1","0.5,0,1,1,0.5,0,0,1,0.5",""
"","html-keyboard-response","43","45362","0.0-43.0","374TNBHA8CHWZFIVNL96WQADOVVYQ5","A1NKBIJQGT0712","3S829FDFT2NBOHQMM1CIOU0HZYXDXL","","null","<img src=""img/animal3.png"" style=""width:200px;border:14px solid red;"">","null","","","","","",""
"","image-keyboard-response","44","45978","0.0-44.0","374TNBHA8CHWZFIVNL96WQADOVVYQ5","A1NKBIJQGT0712","3S829FDFT2NBOHQMM1CIOU0HZYXDXL","","615","img/animal5.png","75","615.5","2","1","3","0.5,0,1,1,0.5,0,0,1,0.5",""
"","html-keyboard-response","45","46279","0.0-45.0","374TNBHA8CHWZFIVNL96WQADOVVYQ5","A1NKBIJQGT0712","3S829FDFT2NBOHQMM1CIOU0HZYXDXL","","null","<img src=""img/animal5.png"" style=""width:200px; border:14px solid green;"">","null","","","","","",""
"","image-keyboard-response","46","46728","0.0-46.0","374TNBHA8CHWZFIVNL96WQADOVVYQ5","A1NKBIJQGT0712","3S829FDFT2NBOHQMM1CIOU0HZYXDXL","","448.30000001192093","img/animal5.png","75","448.89999997615814","2","1","3","0.5,0,1,1,0.5,0,0,1,0.5",""
"","html-keyboard-response","47","47029","0.0-47.0","374TNBHA8CHWZFIVNL96WQADOVVYQ5","A1NKBIJQGT0712","3S829FDFT2NBOHQMM1CIOU0HZYXDXL","","null","<img src=""img/animal5.png"" style=""width:200px; border:14px solid green;"">","null","","","","","",""
"","image-keyboard-response","48","47428","0.0-48.0","374TNBHA8CHWZFIVNL96WQADOVVYQ5","A1NKBIJQGT0712","3S829FDFT2NBOHQMM1CIOU0HZYXDXL","","397.5","img/animal5.png","75","398.2000000476837","2","1","3","0.5,0,1,1,0.5,0,0,1,0.5",""
"","html-keyboard-response","49","47729","0.0-49.0","374TNBHA8CHWZFIVNL96WQADOVVYQ5","A1NKBIJQGT0712","3S829FDFT2NBOHQMM1CIOU0HZYXDXL","","null","<img src=""img/animal5.png"" style=""width:200px; border:14px solid green;"">","null","","","","","",""
"","image-keyboard-response","50","48694","0.0-50.0","374TNBHA8CHWZFIVNL96WQADOVVYQ5","A1NKBIJQGT0712","3S829FDFT2NBOHQMM1CIOU0HZYXDXL","","964.1000000238419","img/animal4.png","75","964.6999999880791","2","0","2","0.5,0,1,1,0.5,0,0,1,0.5",""
"","html-keyboard-response","51","48995","0.0-51.0","374TNBHA8CHWZFIVNL96WQADOVVYQ5","A1NKBIJQGT0712","3S829FDFT2NBOHQMM1CIOU0HZYXDXL","","null","<img src=""img/animal4.png"" style=""width:200px;border:14px solid red;"">","null","","","","","",""
"","image-keyboard-response","52","49710","0.0-52.0","374TNBHA8CHWZFIVNL96WQADOVVYQ5","A1NKBIJQGT0712","3S829FDFT2NBOHQMM1CIOU0HZYXDXL","","713.6999999880791","img/animal3.png","74","714.1999999880791","1","1","1","0.5,0,1,1,0.5,0,0,1,0.5",""
"","html-keyboard-response","53","50011","0.0-53.0","374TNBHA8CHWZFIVNL96WQADOVVYQ5","A1NKBIJQGT0712","3S829FDFT2NBOHQMM1CIOU0HZYXDXL","","null","<img src=""img/animal3.png"" style=""width:200px; border:14px solid green;"">","null","","","","","",""
"","image-keyboard-response","54","51061","0.0-54.0","374TNBHA8CHWZFIVNL96WQADOVVYQ5","A1NKBIJQGT0712","3S829FDFT2NBOHQMM1CIOU0HZYXDXL","","1048.8999999761581","img/animal4.png","74","1049.300000011921","1","1","2","0.5,0,1,1,0.5,0,0,1,0.5",""
"","html-keyboard-response","55","51362","0.0-55.0","374TNBHA8CHWZFIVNL96WQADOVVYQ5","A1NKBIJQGT0712","3S829FDFT2NBOHQMM1CIOU0HZYXDXL","","null","<img src=""img/animal4.png"" style=""width:200px; border:14px solid green;"">","null","","","","","",""
"","image-keyboard-response","56","51911","0.0-56.0","374TNBHA8CHWZFIVNL96WQADOVVYQ5","A1NKBIJQGT0712","3S829FDFT2NBOHQMM1CIOU0HZYXDXL","","547.8000000119209","img/animal3.png","74","548.3999999761581","1","0","1","0.5,0,1,1,0.5,0,0,1,0.5",""
"","html-keyboard-response","57","52211","0.0-57.0","374TNBHA8CHWZFIVNL96WQADOVVYQ5","A1NKBIJQGT0712","3S829FDFT2NBOHQMM1CIOU0HZYXDXL","","null","<img src=""img/animal3.png"" style=""width:200px;border:14px solid red;"">","null","","","","","",""
"","image-keyboard-response","58","52761","0.0-58.0","374TNBHA8CHWZFIVNL96WQADOVVYQ5","A1NKBIJQGT0712","3S829FDFT2NBOHQMM1CIOU0HZYXDXL","","548.6999999880791","img/animal5.png","75","549.1000000238419","2","1","3","0.5,0,1,1,0.5,0,0,1,0.5",""
"","html-keyboard-response","59","53062","0.0-59.0","374TNBHA8CHWZFIVNL96WQADOVVYQ5","A1NKBIJQGT0712","3S829FDFT2NBOHQMM1CIOU0HZYXDXL","","null","<img src=""img/animal5.png"" style=""width:200px; border:14px solid green;"">","null","","","","","",""
"","image-keyboard-response","60","53894","0.0-60.0","374TNBHA8CHWZFIVNL96WQADOVVYQ5","A1NKBIJQGT0712","3S829FDFT2NBOHQMM1CIOU0HZYXDXL","","831.1999999880791","img/animal4.png","74","831.6000000238419","1","1","2","0.5,0,1,1,0.5,0,0,1,0.5",""
"","html-keyboard-response","61","54195","0.0-61.0","374TNBHA8CHWZFIVNL96WQADOVVYQ5","A1NKBIJQGT0712","3S829FDFT2NBOHQMM1CIOU0HZYXDXL","","null","<img src=""img/animal4.png"" style=""width:200px; border:14px solid green;"">","null","","","","","",""
"","image-keyboard-response","62","54677","0.0-62.0","374TNBHA8CHWZFIVNL96WQADOVVYQ5","A1NKBIJQGT0712","3S829FDFT2NBOHQMM1CIOU0HZYXDXL","","481.19999998807907","img/animal4.png","74","481.80000001192093","1","1","2","0.5,0,1,1,0.5,0,0,1,0.5",""
"","html-keyboard-response","63","54979","0.0-63.0","374TNBHA8CHWZFIVNL96WQADOVVYQ5","A1NKBIJQGT0712","3S829FDFT2NBOHQMM1CIOU0HZYXDXL","","null","<img src=""img/animal4.png"" style=""width:200px; border:14px solid green;"">","null","","","","","",""
"","image-keyboard-response","64","55377","0.0-64.0","374TNBHA8CHWZFIVNL96WQADOVVYQ5","A1NKBIJQGT0712","3S829FDFT2NBOHQMM1CIOU0HZYXDXL","","396.60000002384186","img/animal4.png","74","397.19999998807907","1","1","2","0.5,0,1,1,0.5,0,0,1,0.5",""
"","html-keyboard-response","65","55678","0.0-65.0","374TNBHA8CHWZFIVNL96WQADOVVYQ5","A1NKBIJQGT0712","3S829FDFT2NBOHQMM1CIOU0HZYXDXL","","null","<img src=""img/animal4.png"" style=""width:200px; border:14px solid green;"">","null","","","","","",""
"","image-keyboard-response","66","56093","0.0-66.0","374TNBHA8CHWZFIVNL96WQADOVVYQ5","A1NKBIJQGT0712","3S829FDFT2NBOHQMM1CIOU0HZYXDXL","","414.19999998807907","img/animal4.png","74","414.69999998807907","1","1","2","0.5,0,1,1,0.5,0,0,1,0.5",""
"","html-keyboard-response","67","56394","0.0-67.0","374TNBHA8CHWZFIVNL96WQADOVVYQ5","A1NKBIJQGT0712","3S829FDFT2NBOHQMM1CIOU0HZYXDXL","","null","<img src=""img/animal4.png"" style=""width:200px; border:14px solid green;"">","null","","","","","",""
"","image-keyboard-response","68","57210","0.0-68.0","374TNBHA8CHWZFIVNL96WQADOVVYQ5","A1NKBIJQGT0712","3S829FDFT2NBOHQMM1CIOU0HZYXDXL","","815.0999999642372","img/animal5.png","75","815.6999999880791","2","1","3","0.5,0,1,1,0.5,0,0,1,0.5",""
"","html-keyboard-response","69","57510","0.0-69.0","374TNBHA8CHWZFIVNL96WQADOVVYQ5","A1NKBIJQGT0712","3S829FDFT2NBOHQMM1CIOU0HZYXDXL","","null","<img src=""img/animal5.png"" style=""width:200px; border:14px solid green;"">","null","","","","","",""
"","image-keyboard-response","70","58126","0.0-70.0","374TNBHA8CHWZFIVNL96WQADOVVYQ5","A1NKBIJQGT0712","3S829FDFT2NBOHQMM1CIOU0HZYXDXL","","614.8999999761581","img/animal3.png","76","615.5","3","1","1","0.5,0,1,1,0.5,0,0,1,0.5",""
"","html-keyboard-response","71","58427","0.0-71.0","374TNBHA8CHWZFIVNL96WQADOVVYQ5","A1NKBIJQGT0712","3S829FDFT2NBOHQMM1CIOU0HZYXDXL","","null","<img src=""img/animal3.png"" style=""width:200px; border:14px solid green;"">","null","","","","","",""
"","image-keyboard-response","72","58976","0.0-72.0","374TNBHA8CHWZFIVNL96WQADOVVYQ5","A1NKBIJQGT0712","3S829FDFT2NBOHQMM1CIOU0HZYXDXL","","548.2999999523163","img/animal5.png","75","549","2","1","3","0.5,0,1,1,0.5,0,0,1,0.5",""
"","html-keyboard-response","73","59277","0.0-73.0","374TNBHA8CHWZFIVNL96WQADOVVYQ5","A1NKBIJQGT0712","3S829FDFT2NBOHQMM1CIOU0HZYXDXL","","null","<img src=""img/animal5.png"" style=""width:200px; border:14px solid green;"">","null","","","","","",""
"","image-keyboard-response","74","60426","0.0-74.0","374TNBHA8CHWZFIVNL96WQADOVVYQ5","A1NKBIJQGT0712","3S829FDFT2NBOHQMM1CIOU0HZYXDXL","","1148","img/animal3.png","76","1148.6000000238419","3","1","1","0.5,0,1,1,0.5,0,0,1,0.5",""
"","html-keyboard-response","75","60727","0.0-75.0","374TNBHA8CHWZFIVNL96WQADOVVYQ5","A1NKBIJQGT0712","3S829FDFT2NBOHQMM1CIOU0HZYXDXL","","null","<img src=""img/animal3.png"" style=""width:200px; border:14px solid green;"">","null","","","","","",""
"","image-keyboard-response","76","61076","0.0-76.0","374TNBHA8CHWZFIVNL96WQADOVVYQ5","A1NKBIJQGT0712","3S829FDFT2NBOHQMM1CIOU0HZYXDXL","","348.60000002384186","img/animal3.png","76","349.2000000476837","3","1","1","0.5,0,1,1,0.5,0,0,1,0.5",""
"","html-keyboard-response","77","61377","0.0-77.0","374TNBHA8CHWZFIVNL96WQADOVVYQ5","A1NKBIJQGT0712","3S829FDFT2NBOHQMM1CIOU0HZYXDXL","","null","<img src=""img/animal3.png"" style=""width:200px; border:14px solid green;"">","null","","","","","",""
"","image-keyboard-response","78","62110","0.0-78.0","374TNBHA8CHWZFIVNL96WQADOVVYQ5","A1NKBIJQGT0712","3S829FDFT2NBOHQMM1CIOU0HZYXDXL","","732.2999999523163","img/animal5.png","75","732.8000000119209","2","1","3","0.5,0,1,1,0.5,0,0,1,0.5",""
"","html-keyboard-response","79","62411","0.0-79.0","374TNBHA8CHWZFIVNL96WQADOVVYQ5","A1NKBIJQGT0712","3S829FDFT2NBOHQMM1CIOU0HZYXDXL","","null","<img src=""img/animal5.png"" style=""width:200px; border:14px solid green;"">","null","","","","","",""
"","image-keyboard-response","80","63260","0.0-80.0","374TNBHA8CHWZFIVNL96WQADOVVYQ5","A1NKBIJQGT0712","3S829FDFT2NBOHQMM1CIOU0HZYXDXL","","848","img/animal4.png","74","848.6000000238419","1","1","2","0.5,0,1,1,0.5,0,0,1,0.5",""
"","html-keyboard-response","81","63561","0.0-81.0","374TNBHA8CHWZFIVNL96WQADOVVYQ5","A1NKBIJQGT0712","3S829FDFT2NBOHQMM1CIOU0HZYXDXL","","null","<img src=""img/animal4.png"" style=""width:200px; border:14px solid green;"">","null","","","","","",""
"","image-keyboard-response","82","64110","0.0-82.0","374TNBHA8CHWZFIVNL96WQADOVVYQ5","A1NKBIJQGT0712","3S829FDFT2NBOHQMM1CIOU0HZYXDXL","","548.3999999761581","img/animal5.png","75","549","2","1","3","0.5,0,1,1,0.5,0,0,1,0.5",""
"","html-keyboard-response","83","64411","0.0-83.0","374TNBHA8CHWZFIVNL96WQADOVVYQ5","A1NKBIJQGT0712","3S829FDFT2NBOHQMM1CIOU0HZYXDXL","","null","<img src=""img/animal5.png"" style=""width:200px; border:14px solid green;"">","null","","","","","",""
"","image-keyboard-response","84","64826","0.0-84.0","374TNBHA8CHWZFIVNL96WQADOVVYQ5","A1NKBIJQGT0712","3S829FDFT2NBOHQMM1CIOU0HZYXDXL","","414.0999999642372","img/animal5.png","75","414.60000002384186","2","1","3","0.5,0,1,1,0.5,0,0,1,0.5",""
"","html-keyboard-response","85","65127","0.0-85.0","374TNBHA8CHWZFIVNL96WQADOVVYQ5","A1NKBIJQGT0712","3S829FDFT2NBOHQMM1CIOU0HZYXDXL","","null","<img src=""img/animal5.png"" style=""width:200px; border:14px solid green;"">","null","","","","","",""
"","image-keyboard-response","86","66342","0.0-86.0","374TNBHA8CHWZFIVNL96WQADOVVYQ5","A1NKBIJQGT0712","3S829FDFT2NBOHQMM1CIOU0HZYXDXL","","1214.5","img/animal4.png","74","1215.1000000238419","1","1","2","0.5,0,1,1,0.5,0,0,1,0.5",""
"","html-keyboard-response","87","66643","0.0-87.0","374TNBHA8CHWZFIVNL96WQADOVVYQ5","A1NKBIJQGT0712","3S829FDFT2NBOHQMM1CIOU0HZYXDXL","","null","<img src=""img/animal4.png"" style=""width:200px; border:14px solid green;"">","null","","","","","",""
"","image-keyboard-response","88","67775","0.0-88.0","374TNBHA8CHWZFIVNL96WQADOVVYQ5","A1NKBIJQGT0712","3S829FDFT2NBOHQMM1CIOU0HZYXDXL","","1131.1000000238419","img/animal3.png","76","1131.6000000238419","3","1","1","0.5,0,1,1,0.5,0,0,1,0.5",""
"","html-keyboard-response","89","68076","0.0-89.0","374TNBHA8CHWZFIVNL96WQADOVVYQ5","A1NKBIJQGT0712","3S829FDFT2NBOHQMM1CIOU0HZYXDXL","","null","<img src=""img/animal3.png"" style=""width:200px; border:14px solid green;"">","null","","","","","",""
"","image-keyboard-response","90","69526","0.0-90.0","374TNBHA8CHWZFIVNL96WQADOVVYQ5","A1NKBIJQGT0712","3S829FDFT2NBOHQMM1CIOU0HZYXDXL","","1449.199999988079","img/animal4.png","74","1449.699999988079","1","1","2","0.5,0,1,1,0.5,0,0,1,0.5",""
"","html-keyboard-response","91","69827","0.0-91.0","374TNBHA8CHWZFIVNL96WQADOVVYQ5","A1NKBIJQGT0712","3S829FDFT2NBOHQMM1CIOU0HZYXDXL","","null","<img src=""img/animal4.png"" style=""width:200px; border:14px solid green;"">","null","","","","","",""
"","image-keyboard-response","92","70659","0.0-92.0","374TNBHA8CHWZFIVNL96WQADOVVYQ5","A1NKBIJQGT0712","3S829FDFT2NBOHQMM1CIOU0HZYXDXL","","831.5999999642372","img/animal3.png","76","832.1999999880791","3","1","1","0.5,0,1,1,0.5,0,0,1,0.5",""
"","html-keyboard-response","93","70961","0.0-93.0","374TNBHA8CHWZFIVNL96WQADOVVYQ5","A1NKBIJQGT0712","3S829FDFT2NBOHQMM1CIOU0HZYXDXL","","null","<img src=""img/animal3.png"" style=""width:200px; border:14px solid green;"">","null","","","","","",""
"","image-keyboard-response","94","71442","0.0-94.0","374TNBHA8CHWZFIVNL96WQADOVVYQ5","A1NKBIJQGT0712","3S829FDFT2NBOHQMM1CIOU0HZYXDXL","","480.5999999642372","img/animal3.png","76","481.10000002384186","3","1","1","0.5,0,1,1,0.5,0,0,1,0.5",""
"","html-keyboard-response","95","71743","0.0-95.0","374TNBHA8CHWZFIVNL96WQADOVVYQ5","A1NKBIJQGT0712","3S829FDFT2NBOHQMM1CIOU0HZYXDXL","","null","<img src=""img/animal3.png"" style=""width:200px; border:14px solid green;"">","null","","","","","",""
"","image-keyboard-response","96","72109","0.0-96.0","374TNBHA8CHWZFIVNL96WQADOVVYQ5","A1NKBIJQGT0712","3S829FDFT2NBOHQMM1CIOU0HZYXDXL","","365","img/animal3.png","76","365.5","3","1","1","0.5,0,1,1,0.5,0,0,1,0.5",""
"","html-keyboard-response","97","72410","0.0-97.0","374TNBHA8CHWZFIVNL96WQADOVVYQ5","A1NKBIJQGT0712","3S829FDFT2NBOHQMM1CIOU0HZYXDXL","","null","<img src=""img/animal3.png"" style=""width:200px; border:14px solid green;"">","null","","","","","",""
"","image-keyboard-response","98","72742","0.0-98.0","374TNBHA8CHWZFIVNL96WQADOVVYQ5","A1NKBIJQGT0712","3S829FDFT2NBOHQMM1CIOU0HZYXDXL","","331.5999999642372","img/animal3.png","76","332.19999998807907","3","1","1","0.5,0,1,1,0.5,0,0,1,0.5",""
"","html-keyboard-response","99","73043","0.0-99.0","374TNBHA8CHWZFIVNL96WQADOVVYQ5","A1NKBIJQGT0712","3S829FDFT2NBOHQMM1CIOU0HZYXDXL","","null","<img src=""img/animal3.png"" style=""width:200px; border:14px solid green;"">","null","","","","","",""
"","image-keyboard-response","100","73359","0.0-100.0","374TNBHA8CHWZFIVNL96WQADOVVYQ5","A1NKBIJQGT0712","3S829FDFT2NBOHQMM1CIOU0HZYXDXL","","315","img/animal3.png","76","315.60000002384186","3","1","1","0.5,0,1,1,0.5,0,0,1,0.5",""
"","html-keyboard-response","101","73660","0.0-101.0","374TNBHA8CHWZFIVNL96WQADOVVYQ5","A1NKBIJQGT0712","3S829FDFT2NBOHQMM1CIOU0HZYXDXL","","null","<img src=""img/animal3.png"" style=""width:200px; border:14px solid green;"">","null","","","","","",""
"","image-keyboard-response","102","74442","0.0-102.0","374TNBHA8CHWZFIVNL96WQADOVVYQ5","A1NKBIJQGT0712","3S829FDFT2NBOHQMM1CIOU0HZYXDXL","","781.5999999642372","img/animal4.png","74","782.1000000238419","1","1","2","0.5,0,1,1,0.5,0,0,1,0.5",""
"","html-keyboard-response","103","74743","0.0-103.0","374TNBHA8CHWZFIVNL96WQADOVVYQ5","A1NKBIJQGT0712","3S829FDFT2NBOHQMM1CIOU0HZYXDXL","","null","<img src=""img/animal4.png"" style=""width:200px; border:14px solid green;"">","null","","","","","",""
"","image-keyboard-response","104","75291","0.0-104.0","374TNBHA8CHWZFIVNL96WQADOVVYQ5","A1NKBIJQGT0712","3S829FDFT2NBOHQMM1CIOU0HZYXDXL","","547.0999999642372","img/animal5.png","75","547.8000000119209","2","1","3","0.5,0,1,1,0.5,0,0,1,0.5",""
"","html-keyboard-response","105","75592","0.0-105.0","374TNBHA8CHWZFIVNL96WQADOVVYQ5","A1NKBIJQGT0712","3S829FDFT2NBOHQMM1CIOU0HZYXDXL","","null","<img src=""img/animal5.png"" style=""width:200px; border:14px solid green;"">","null","","","","","",""
"","image-keyboard-response","106","76109","0.0-106.0","374TNBHA8CHWZFIVNL96WQADOVVYQ5","A1NKBIJQGT0712","3S829FDFT2NBOHQMM1CIOU0HZYXDXL","","516.1999999880791","img/animal3.png","74","516.8000000119209","1","0","1","0.5,0,1,1,0.5,0,0,1,0.5",""
"","html-keyboard-response","107","76411","0.0-107.0","374TNBHA8CHWZFIVNL96WQADOVVYQ5","A1NKBIJQGT0712","3S829FDFT2NBOHQMM1CIOU0HZYXDXL","","null","<img src=""img/animal3.png"" style=""width:200px;border:14px solid red;"">","null","","","","","",""
"","image-keyboard-response","108","77226","0.0-108.0","374TNBHA8CHWZFIVNL96WQADOVVYQ5","A1NKBIJQGT0712","3S829FDFT2NBOHQMM1CIOU0HZYXDXL","","815.1000000238419","img/animal5.png","75","815.5","2","1","3","0.5,0,1,1,0.5,0,0,1,0.5",""
"","html-keyboard-response","109","77528","0.0-109.0","374TNBHA8CHWZFIVNL96WQADOVVYQ5","A1NKBIJQGT0712","3S829FDFT2NBOHQMM1CIOU0HZYXDXL","","null","<img src=""img/animal5.png"" style=""width:200px; border:14px solid green;"">","null","","","","","",""
"","image-keyboard-response","110","78160","0.0-110.0","374TNBHA8CHWZFIVNL96WQADOVVYQ5","A1NKBIJQGT0712","3S829FDFT2NBOHQMM1CIOU0HZYXDXL","","631.5999999642372","img/animal5.png","75","632.2000000476837","2","1","3","0.5,0,1,1,0.5,0,0,1,0.5",""
"","html-keyboard-response","111","78461","0.0-111.0","374TNBHA8CHWZFIVNL96WQADOVVYQ5","A1NKBIJQGT0712","3S829FDFT2NBOHQMM1CIOU0HZYXDXL","","null","<img src=""img/animal5.png"" style=""width:200px; border:14px solid green;"">","null","","","","","",""
"","image-keyboard-response","112","79092","0.0-112.0","374TNBHA8CHWZFIVNL96WQADOVVYQ5","A1NKBIJQGT0712","3S829FDFT2NBOHQMM1CIOU0HZYXDXL","","630.1999999880791","img/animal3.png","76","630.8000000119209","3","1","1","0.5,0,1,1,0.5,0,0,1,0.5",""
"","html-keyboard-response","113","79394","0.0-113.0","374TNBHA8CHWZFIVNL96WQADOVVYQ5","A1NKBIJQGT0712","3S829FDFT2NBOHQMM1CIOU0HZYXDXL","","null","<img src=""img/animal3.png"" style=""width:200px; border:14px solid green;"">","null","","","","","",""
"","image-keyboard-response","114","80041","0.0-114.0","374TNBHA8CHWZFIVNL96WQADOVVYQ5","A1NKBIJQGT0712","3S829FDFT2NBOHQMM1CIOU0HZYXDXL","","646.8000000119209","img/animal4.png","74","647.3000000119209","1","1","2","0.5,0,1,1,0.5,0,0,1,0.5",""
"","html-keyboard-response","115","80343","0.0-115.0","374TNBHA8CHWZFIVNL96WQADOVVYQ5","A1NKBIJQGT0712","3S829FDFT2NBOHQMM1CIOU0HZYXDXL","","null","<img src=""img/animal4.png"" style=""width:200px; border:14px solid green;"">","null","","","","","",""
"","image-keyboard-response","116","80909","0.0-116.0","374TNBHA8CHWZFIVNL96WQADOVVYQ5","A1NKBIJQGT0712","3S829FDFT2NBOHQMM1CIOU0HZYXDXL","","565.5999999642372","img/animal5.png","75","566","2","1","3","0.5,0,1,1,0.5,0,0,1,0.5",""
"","html-keyboard-response","117","81210","0.0-117.0","374TNBHA8CHWZFIVNL96WQADOVVYQ5","A1NKBIJQGT0712","3S829FDFT2NBOHQMM1CIOU0HZYXDXL","","null","<img src=""img/animal5.png"" style=""width:200px; border:14px solid green;"">","null","","","","","",""
"","image-keyboard-response","118","82592","0.0-118.0","374TNBHA8CHWZFIVNL96WQADOVVYQ5","A1NKBIJQGT0712","3S829FDFT2NBOHQMM1CIOU0HZYXDXL","","1381.199999988079","img/animal3.png","74","1381.7000000476837","1","0","1","0.5,0,1,1,0.5,0,0,1,0.5",""
"","html-keyboard-response","119","82893","0.0-119.0","374TNBHA8CHWZFIVNL96WQADOVVYQ5","A1NKBIJQGT0712","3S829FDFT2NBOHQMM1CIOU0HZYXDXL","","null","<img src=""img/animal3.png"" style=""width:200px;border:14px solid red;"">","null","","","","","",""
"","image-keyboard-response","120","83909","0.0-120.0","374TNBHA8CHWZFIVNL96WQADOVVYQ5","A1NKBIJQGT0712","3S829FDFT2NBOHQMM1CIOU0HZYXDXL","","1015.5","img/animal4.png","76","1016.1000000238419","3","0","2","0.5,0,1,1,0.5,0,0,1,0.5",""
"","html-keyboard-response","121","84210","0.0-121.0","374TNBHA8CHWZFIVNL96WQADOVVYQ5","A1NKBIJQGT0712","3S829FDFT2NBOHQMM1CIOU0HZYXDXL","","null","<img src=""img/animal4.png"" style=""width:200px;border:14px solid red;"">","null","","","","","",""
"","image-keyboard-response","122","84959","0.0-122.0","374TNBHA8CHWZFIVNL96WQADOVVYQ5","A1NKBIJQGT0712","3S829FDFT2NBOHQMM1CIOU0HZYXDXL","","748.2999999523163","img/animal5.png","75","748.9000000357628","2","1","3","0.5,0,1,1,0.5,0,0,1,0.5",""
"","html-keyboard-response","123","85261","0.0-123.0","374TNBHA8CHWZFIVNL96WQADOVVYQ5","A1NKBIJQGT0712","3S829FDFT2NBOHQMM1CIOU0HZYXDXL","","null","<img src=""img/animal5.png"" style=""width:200px; border:14px solid green;"">","null","","","","","",""
"","image-keyboard-response","124","86626","0.0-124.0","374TNBHA8CHWZFIVNL96WQADOVVYQ5","A1NKBIJQGT0712","3S829FDFT2NBOHQMM1CIOU0HZYXDXL","","1364.699999988079","img/animal3.png","76","1365.2000000476837","3","1","1","0.5,0,1,1,0.5,0,0,1,0.5",""
"","html-keyboard-response","125","86928","0.0-125.0","374TNBHA8CHWZFIVNL96WQADOVVYQ5","A1NKBIJQGT0712","3S829FDFT2NBOHQMM1CIOU0HZYXDXL","","null","<img src=""img/animal3.png"" style=""width:200px; border:14px solid green;"">","null","","","","","",""
"","image-keyboard-response","126","87492","0.0-126.0","374TNBHA8CHWZFIVNL96WQADOVVYQ5","A1NKBIJQGT0712","3S829FDFT2NBOHQMM1CIOU0HZYXDXL","","563.5","img/animal5.png","75","564.1000000238419","2","1","3","0.5,0,1,1,0.5,0,0,1,0.5",""
"","html-keyboard-response","127","87794","0.0-127.0","374TNBHA8CHWZFIVNL96WQADOVVYQ5","A1NKBIJQGT0712","3S829FDFT2NBOHQMM1CIOU0HZYXDXL","","null","<img src=""img/animal5.png"" style=""width:200px; border:14px solid green;"">","null","","","","","",""
"","image-keyboard-response","128","88325","0.0-128.0","374TNBHA8CHWZFIVNL96WQADOVVYQ5","A1NKBIJQGT0712","3S829FDFT2NBOHQMM1CIOU0HZYXDXL","","530.6999999880791","img/animal5.png","75","531.1999999880791","2","1","3","0.5,0,1,1,0.5,0,0,1,0.5",""
"","html-keyboard-response","129","88627","0.0-129.0","374TNBHA8CHWZFIVNL96WQADOVVYQ5","A1NKBIJQGT0712","3S829FDFT2NBOHQMM1CIOU0HZYXDXL","","null","<img src=""img/animal5.png"" style=""width:200px; border:14px solid green;"">","null","","","","","",""
"","image-keyboard-response","130","89042","0.0-130.0","374TNBHA8CHWZFIVNL96WQADOVVYQ5","A1NKBIJQGT0712","3S829FDFT2NBOHQMM1CIOU0HZYXDXL","","415","img/animal5.png","75","415.5","2","1","3","0.5,0,1,1,0.5,0,0,1,0.5",""
"","html-keyboard-response","131","89344","0.0-131.0","374TNBHA8CHWZFIVNL96WQADOVVYQ5","A1NKBIJQGT0712","3S829FDFT2NBOHQMM1CIOU0HZYXDXL","","null","<img src=""img/animal5.png"" style=""width:200px; border:14px solid green;"">","null","","","","","",""
"","image-keyboard-response","132","90175","0.0-132.0","374TNBHA8CHWZFIVNL96WQADOVVYQ5","A1NKBIJQGT0712","3S829FDFT2NBOHQMM1CIOU0HZYXDXL","","830.5","img/animal4.png","74","830.8999999761581","1","1","2","0.5,0,1,1,0.5,0,0,1,0.5",""
"","html-keyboard-response","133","90476","0.0-133.0","374TNBHA8CHWZFIVNL96WQADOVVYQ5","A1NKBIJQGT0712","3S829FDFT2NBOHQMM1CIOU0HZYXDXL","","null","<img src=""img/animal4.png"" style=""width:200px; border:14px solid green;"">","null","","","","","",""
"","image-keyboard-response","134","91042","0.0-134.0","374TNBHA8CHWZFIVNL96WQADOVVYQ5","A1NKBIJQGT0712","3S829FDFT2NBOHQMM1CIOU0HZYXDXL","","565.6000000238419","img/animal3.png","76","566.0999999642372","3","1","1","0.5,0,1,1,0.5,0,0,1,0.5",""
"","html-keyboard-response","135","91344","0.0-135.0","374TNBHA8CHWZFIVNL96WQADOVVYQ5","A1NKBIJQGT0712","3S829FDFT2NBOHQMM1CIOU0HZYXDXL","","null","<img src=""img/animal3.png"" style=""width:200px; border:14px solid green;"">","null","","","","","",""
"","image-keyboard-response","136","91991","0.0-136.0","374TNBHA8CHWZFIVNL96WQADOVVYQ5","A1NKBIJQGT0712","3S829FDFT2NBOHQMM1CIOU0HZYXDXL","","646.7999999523163","img/animal4.png","74","647.3999999761581","1","1","2","0.5,0,1,1,0.5,0,0,1,0.5",""
"","html-keyboard-response","137","92292","0.0-137.0","374TNBHA8CHWZFIVNL96WQADOVVYQ5","A1NKBIJQGT0712","3S829FDFT2NBOHQMM1CIOU0HZYXDXL","","null","<img src=""img/animal4.png"" style=""width:200px; border:14px solid green;"">","null","","","","","",""
"","image-keyboard-response","138","92858","0.0-138.0","374TNBHA8CHWZFIVNL96WQADOVVYQ5","A1NKBIJQGT0712","3S829FDFT2NBOHQMM1CIOU0HZYXDXL","","565.1999999880791","img/animal3.png","76","565.6999999880791","3","1","1","0.5,0,1,1,0.5,0,0,1,0.5",""
"","html-keyboard-response","139","93159","0.0-139.0","374TNBHA8CHWZFIVNL96WQADOVVYQ5","A1NKBIJQGT0712","3S829FDFT2NBOHQMM1CIOU0HZYXDXL","","null","<img src=""img/animal3.png"" style=""width:200px; border:14px solid green;"">","null","","","","","",""
"","image-keyboard-response","140","93742","0.0-140.0","374TNBHA8CHWZFIVNL96WQADOVVYQ5","A1NKBIJQGT0712","3S829FDFT2NBOHQMM1CIOU0HZYXDXL","","582.1999999880791","img/animal5.png","75","582.7000000476837","2","1","3","0.5,0,1,1,0.5,0,0,1,0.5",""
"","html-keyboard-response","141","94044","0.0-141.0","374TNBHA8CHWZFIVNL96WQADOVVYQ5","A1NKBIJQGT0712","3S829FDFT2NBOHQMM1CIOU0HZYXDXL","","null","<img src=""img/animal5.png"" style=""width:200px; border:14px solid green;"">","null","","","","","",""
"","image-keyboard-response","142","94641","0.0-142.0","374TNBHA8CHWZFIVNL96WQADOVVYQ5","A1NKBIJQGT0712","3S829FDFT2NBOHQMM1CIOU0HZYXDXL","","596.8000000119209","img/animal4.png","76","597.3999999761581","3","0","2","0.5,0,1,1,0.5,0,0,1,0.5",""
"","html-keyboard-response","143","94954","0.0-143.0","374TNBHA8CHWZFIVNL96WQADOVVYQ5","A1NKBIJQGT0712","3S829FDFT2NBOHQMM1CIOU0HZYXDXL","","null","<img src=""img/animal4.png"" style=""width:200px;border:14px solid red;"">","null","","","","","",""
"","image-keyboard-response","144","95758","0.0-144.0","374TNBHA8CHWZFIVNL96WQADOVVYQ5","A1NKBIJQGT0712","3S829FDFT2NBOHQMM1CIOU0HZYXDXL","","803.1999999880791","img/animal4.png","74","803.6000000238419","1","1","2","0.5,0,1,1,0.5,0,0,1,0.5",""
"","html-keyboard-response","145","96060","0.0-145.0","374TNBHA8CHWZFIVNL96WQADOVVYQ5","A1NKBIJQGT0712","3S829FDFT2NBOHQMM1CIOU0HZYXDXL","","null","<img src=""img/animal4.png"" style=""width:200px; border:14px solid green;"">","null","","","","","",""
"","image-keyboard-response","146","96709","0.0-146.0","374TNBHA8CHWZFIVNL96WQADOVVYQ5","A1NKBIJQGT0712","3S829FDFT2NBOHQMM1CIOU0HZYXDXL","","648.5999999642372","img/animal5.png","75","649.2000000476837","2","1","3","0.5,0,1,1,0.5,0,0,1,0.5",""
"","html-keyboard-response","147","97011","0.0-147.0","374TNBHA8CHWZFIVNL96WQADOVVYQ5","A1NKBIJQGT0712","3S829FDFT2NBOHQMM1CIOU0HZYXDXL","","null","<img src=""img/animal5.png"" style=""width:200px; border:14px solid green;"">","null","","","","","",""
"","image-keyboard-response","148","97925","0.0-148.0","374TNBHA8CHWZFIVNL96WQADOVVYQ5","A1NKBIJQGT0712","3S829FDFT2NBOHQMM1CIOU0HZYXDXL","","913.6999999880791","img/animal3.png","76","914.3000000119209","3","1","1","0.5,0,1,1,0.5,0,0,1,0.5",""
"","html-keyboard-response","149","98226","0.0-149.0","374TNBHA8CHWZFIVNL96WQADOVVYQ5","A1NKBIJQGT0712","3S829FDFT2NBOHQMM1CIOU0HZYXDXL","","null","<img src=""img/animal3.png"" style=""width:200px; border:14px solid green;"">","null","","","","","",""
"","image-keyboard-response","150","98659","0.0-150.0","374TNBHA8CHWZFIVNL96WQADOVVYQ5","A1NKBIJQGT0712","3S829FDFT2NBOHQMM1CIOU0HZYXDXL","","432.0999999642372","img/animal3.png","76","432.80000001192093","3","1","1","0.5,0,1,1,0.5,0,0,1,0.5",""
"","html-keyboard-response","151","98960","0.0-151.0","374TNBHA8CHWZFIVNL96WQADOVVYQ5","A1NKBIJQGT0712","3S829FDFT2NBOHQMM1CIOU0HZYXDXL","","null","<img src=""img/animal3.png"" style=""width:200px; border:14px solid green;"">","null","","","","","",""
"","image-keyboard-response","152","99591","0.0-152.0","374TNBHA8CHWZFIVNL96WQADOVVYQ5","A1NKBIJQGT0712","3S829FDFT2NBOHQMM1CIOU0HZYXDXL","","630","img/animal4.png","74","630.5","1","1","2","0.5,0,1,1,0.5,0,0,1,0.5",""
"","html-keyboard-response","153","99892","0.0-153.0","374TNBHA8CHWZFIVNL96WQADOVVYQ5","A1NKBIJQGT0712","3S829FDFT2NBOHQMM1CIOU0HZYXDXL","","null","<img src=""img/animal4.png"" style=""width:200px; border:14px solid green;"">","null","","","","","",""
"","image-keyboard-response","154","100640","0.0-154.0","374TNBHA8CHWZFIVNL96WQADOVVYQ5","A1NKBIJQGT0712","3S829FDFT2NBOHQMM1CIOU0HZYXDXL","","747.5999999642372","img/animal3.png","76","748.1000000238419","3","1","1","0.5,0,1,1,0.5,0,0,1,0.5",""
"","html-keyboard-response","155","100942","0.0-155.0","374TNBHA8CHWZFIVNL96WQADOVVYQ5","A1NKBIJQGT0712","3S829FDFT2NBOHQMM1CIOU0HZYXDXL","","null","<img src=""img/animal3.png"" style=""width:200px; border:14px solid green;"">","null","","","","","",""
"","image-keyboard-response","156","101458","0.0-156.0","374TNBHA8CHWZFIVNL96WQADOVVYQ5","A1NKBIJQGT0712","3S829FDFT2NBOHQMM1CIOU0HZYXDXL","","515.6999999880791","img/animal4.png","74","516.3000000119209","1","1","2","0.5,0,1,1,0.5,0,0,1,0.5",""
"","html-keyboard-response","157","101760","0.0-157.0","374TNBHA8CHWZFIVNL96WQADOVVYQ5","A1NKBIJQGT0712","3S829FDFT2NBOHQMM1CIOU0HZYXDXL","","null","<img src=""img/animal4.png"" style=""width:200px; border:14px solid green;"">","null","","","","","",""
"","image-keyboard-response","158","102309","0.0-158.0","374TNBHA8CHWZFIVNL96WQADOVVYQ5","A1NKBIJQGT0712","3S829FDFT2NBOHQMM1CIOU0HZYXDXL","","549","img/animal5.png","75","549.6000000238419","2","1","3","0.5,0,1,1,0.5,0,0,1,0.5",""
"","html-keyboard-response","159","102611","0.0-159.0","374TNBHA8CHWZFIVNL96WQADOVVYQ5","A1NKBIJQGT0712","3S829FDFT2NBOHQMM1CIOU0HZYXDXL","","null","<img src=""img/animal5.png"" style=""width:200px; border:14px solid green;"">","null","","","","","",""
"","image-keyboard-response","160","102959","0.0-160.0","374TNBHA8CHWZFIVNL96WQADOVVYQ5","A1NKBIJQGT0712","3S829FDFT2NBOHQMM1CIOU0HZYXDXL","","347.7999999523163","img/animal5.png","75","348.39999997615814","2","1","3","0.5,0,1,1,0.5,0,0,1,0.5",""
"","html-keyboard-response","161","103260","0.0-161.0","374TNBHA8CHWZFIVNL96WQADOVVYQ5","A1NKBIJQGT0712","3S829FDFT2NBOHQMM1CIOU0HZYXDXL","","null","<img src=""img/animal5.png"" style=""width:200px; border:14px solid green;"">","null","","","","","",""
"","image-keyboard-response","162","103825","0.0-162.0","374TNBHA8CHWZFIVNL96WQADOVVYQ5","A1NKBIJQGT0712","3S829FDFT2NBOHQMM1CIOU0HZYXDXL","","564.5","img/animal4.png","76","565.2000000476837","3","0","2","0.5,0,1,1,0.5,0,0,1,0.5",""
"","html-keyboard-response","163","104127","0.0-163.0","374TNBHA8CHWZFIVNL96WQADOVVYQ5","A1NKBIJQGT0712","3S829FDFT2NBOHQMM1CIOU0HZYXDXL","","null","<img src=""img/animal4.png"" style=""width:200px;border:14px solid red;"">","null","","","","","",""
"","image-keyboard-response","164","104659","0.0-164.0","374TNBHA8CHWZFIVNL96WQADOVVYQ5","A1NKBIJQGT0712","3S829FDFT2NBOHQMM1CIOU0HZYXDXL","","531.5","img/animal4.png","74","531.7999999523163","1","1","2","0.5,0,1,1,0.5,0,0,1,0.5",""
"","html-keyboard-response","165","104961","0.0-165.0","374TNBHA8CHWZFIVNL96WQADOVVYQ5","A1NKBIJQGT0712","3S829FDFT2NBOHQMM1CIOU0HZYXDXL","","null","<img src=""img/animal4.png"" style=""width:200px; border:14px solid green;"">","null","","","","","",""
"","image-keyboard-response","166","105509","0.0-166.0","374TNBHA8CHWZFIVNL96WQADOVVYQ5","A1NKBIJQGT0712","3S829FDFT2NBOHQMM1CIOU0HZYXDXL","","547.8999999761581","img/animal5.png","75","548.4000000357628","2","1","3","0.5,0,1,1,0.5,0,0,1,0.5",""
"","html-keyboard-response","167","105811","0.0-167.0","374TNBHA8CHWZFIVNL96WQADOVVYQ5","A1NKBIJQGT0712","3S829FDFT2NBOHQMM1CIOU0HZYXDXL","","null","<img src=""img/animal5.png"" style=""width:200px; border:14px solid green;"">","null","","","","","",""
"","image-keyboard-response","168","106209","0.0-168.0","374TNBHA8CHWZFIVNL96WQADOVVYQ5","A1NKBIJQGT0712","3S829FDFT2NBOHQMM1CIOU0HZYXDXL","","397.7999999523163","img/animal5.png","75","398.5","2","1","3","0.5,0,1,1,0.5,0,0,1,0.5",""
"","html-keyboard-response","169","106511","0.0-169.0","374TNBHA8CHWZFIVNL96WQADOVVYQ5","A1NKBIJQGT0712","3S829FDFT2NBOHQMM1CIOU0HZYXDXL","","null","<img src=""img/animal5.png"" style=""width:200px; border:14px solid green;"">","null","","","","","",""
"","image-keyboard-response","170","106875","0.0-170.0","374TNBHA8CHWZFIVNL96WQADOVVYQ5","A1NKBIJQGT0712","3S829FDFT2NBOHQMM1CIOU0HZYXDXL","","363.69999998807907","img/animal5.png","75","364.2999999523163","2","1","3","0.5,0,1,1,0.5,0,0,1,0.5",""
"","html-keyboard-response","171","107176","0.0-171.0","374TNBHA8CHWZFIVNL96WQADOVVYQ5","A1NKBIJQGT0712","3S829FDFT2NBOHQMM1CIOU0HZYXDXL","","null","<img src=""img/animal5.png"" style=""width:200px; border:14px solid green;"">","null","","","","","",""
"","image-keyboard-response","172","108191","0.0-172.0","374TNBHA8CHWZFIVNL96WQADOVVYQ5","A1NKBIJQGT0712","3S829FDFT2NBOHQMM1CIOU0HZYXDXL","","1014.5999999642372","img/animal4.png","74","1015.2000000476837","1","1","2","0.5,0,1,1,0.5,0,0,1,0.5",""
"","html-keyboard-response","173","108492","0.0-173.0","374TNBHA8CHWZFIVNL96WQADOVVYQ5","A1NKBIJQGT0712","3S829FDFT2NBOHQMM1CIOU0HZYXDXL","","null","<img src=""img/animal4.png"" style=""width:200px; border:14px solid green;"">","null","","","","","",""
"","image-keyboard-response","174","108890","0.0-174.0","374TNBHA8CHWZFIVNL96WQADOVVYQ5","A1NKBIJQGT0712","3S829FDFT2NBOHQMM1CIOU0HZYXDXL","","397.19999998807907","img/animal4.png","74","397.5","1","1","2","0.5,0,1,1,0.5,0,0,1,0.5",""
"","html-keyboard-response","175","109191","0.0-175.0","374TNBHA8CHWZFIVNL96WQADOVVYQ5","A1NKBIJQGT0712","3S829FDFT2NBOHQMM1CIOU0HZYXDXL","","null","<img src=""img/animal4.png"" style=""width:200px; border:14px solid green;"">","null","","","","","",""
"","image-keyboard-response","176","109608","0.0-176.0","374TNBHA8CHWZFIVNL96WQADOVVYQ5","A1NKBIJQGT0712","3S829FDFT2NBOHQMM1CIOU0HZYXDXL","","416.19999998807907","img/animal4.png","74","416.69999998807907","1","1","2","0.5,0,1,1,0.5,0,0,1,0.5",""
"","html-keyboard-response","177","109910","0.0-177.0","374TNBHA8CHWZFIVNL96WQADOVVYQ5","A1NKBIJQGT0712","3S829FDFT2NBOHQMM1CIOU0HZYXDXL","","null","<img src=""img/animal4.png"" style=""width:200px; border:14px solid green;"">","null","","","","","",""
"","image-keyboard-response","178","110659","0.0-178.0","374TNBHA8CHWZFIVNL96WQADOVVYQ5","A1NKBIJQGT0712","3S829FDFT2NBOHQMM1CIOU0HZYXDXL","","748.8999999761581","img/animal3.png","76","749.5","3","1","1","0.5,0,1,1,0.5,0,0,1,0.5",""
"","html-keyboard-response","179","110968","0.0-179.0","374TNBHA8CHWZFIVNL96WQADOVVYQ5","A1NKBIJQGT0712","3S829FDFT2NBOHQMM1CIOU0HZYXDXL","","null","<img src=""img/animal3.png"" style=""width:200px; border:14px solid green;"">","null","","","","","",""
"","image-keyboard-response","180","111560","0.0-180.0","374TNBHA8CHWZFIVNL96WQADOVVYQ5","A1NKBIJQGT0712","3S829FDFT2NBOHQMM1CIOU0HZYXDXL","","590.6999999880791","img/animal5.png","75","591.2000000476837","2","1","3","0.5,0,1,1,0.5,0,0,1,0.5",""
"","html-keyboard-response","181","111861","0.0-181.0","374TNBHA8CHWZFIVNL96WQADOVVYQ5","A1NKBIJQGT0712","3S829FDFT2NBOHQMM1CIOU0HZYXDXL","","null","<img src=""img/animal5.png"" style=""width:200px; border:14px solid green;"">","null","","","","","",""
"","html-keyboard-response","182","116672","0.0-182.0","374TNBHA8CHWZFIVNL96WQADOVVYQ5","A1NKBIJQGT0712","3S829FDFT2NBOHQMM1CIOU0HZYXDXL","","","","","","","","","",""
"","image-keyboard-response","183","119125","0.0-183.0","374TNBHA8CHWZFIVNL96WQADOVVYQ5","A1NKBIJQGT0712","3S829FDFT2NBOHQMM1CIOU0HZYXDXL","","2452.2000000476837","img/animal6.png","74","2452.899999976158","1","1","2","0.7,0,0.8,0.7,0.8,0,0.7,0.8,0",""
"","html-keyboard-response","184","119427","0.0-184.0","374TNBHA8CHWZFIVNL96WQADOVVYQ5","A1NKBIJQGT0712","3S829FDFT2NBOHQMM1CIOU0HZYXDXL","","null","<img src=""img/animal6.png"" style=""width:200px; border:14px solid green;"">","null","","","","","",""
"","image-keyboard-response","185","121175","0.0-185.0","374TNBHA8CHWZFIVNL96WQADOVVYQ5","A1NKBIJQGT0712","3S829FDFT2NBOHQMM1CIOU0HZYXDXL","","1747.3999999761581","img/animal1.png","76","1748.0999999642372","3","0","1","0.7,0,0.8,0.7,0.8,0,0.7,0.8,0",""
"","html-keyboard-response","186","121477","0.0-186.0","374TNBHA8CHWZFIVNL96WQADOVVYQ5","A1NKBIJQGT0712","3S829FDFT2NBOHQMM1CIOU0HZYXDXL","","null","<img src=""img/animal1.png"" style=""width:200px;border:14px solid red;"">","null","","","","","",""
"","image-keyboard-response","187","122159","0.0-187.0","374TNBHA8CHWZFIVNL96WQADOVVYQ5","A1NKBIJQGT0712","3S829FDFT2NBOHQMM1CIOU0HZYXDXL","","681.1999999880791","img/animal2.png","75","681.7000000476837","2","1","3","0.7,0,0.8,0.7,0.8,0,0.7,0.8,0",""
"","html-keyboard-response","188","122460","0.0-188.0","374TNBHA8CHWZFIVNL96WQADOVVYQ5","A1NKBIJQGT0712","3S829FDFT2NBOHQMM1CIOU0HZYXDXL","","null","<img src=""img/animal2.png"" style=""width:200px; border:14px solid green;"">","null","","","","","",""
"","image-keyboard-response","189","125975","0.0-189.0","374TNBHA8CHWZFIVNL96WQADOVVYQ5","A1NKBIJQGT0712","3S829FDFT2NBOHQMM1CIOU0HZYXDXL","","3514.400000035763","img/animal2.png","75","3515","2","1","3","0.7,0,0.8,0.7,0.8,0,0.7,0.8,0",""
"","html-keyboard-response","190","126277","0.0-190.0","374TNBHA8CHWZFIVNL96WQADOVVYQ5","A1NKBIJQGT0712","3S829FDFT2NBOHQMM1CIOU0HZYXDXL","","null","<img src=""img/animal2.png"" style=""width:200px; border:14px solid green;"">","null","","","","","",""
"","image-keyboard-response","191","126908","0.0-191.0","374TNBHA8CHWZFIVNL96WQADOVVYQ5","A1NKBIJQGT0712","3S829FDFT2NBOHQMM1CIOU0HZYXDXL","","630.7999999523163","img/animal2.png","75","631.3000000119209","2","1","3","0.7,0,0.8,0.7,0.8,0,0.7,0.8,0",""
"","html-keyboard-response","192","127210","0.0-192.0","374TNBHA8CHWZFIVNL96WQADOVVYQ5","A1NKBIJQGT0712","3S829FDFT2NBOHQMM1CIOU0HZYXDXL","","null","<img src=""img/animal2.png"" style=""width:200px; border:14px solid green;"">","null","","","","","",""
"","image-keyboard-response","193","128308","0.0-193.0","374TNBHA8CHWZFIVNL96WQADOVVYQ5","A1NKBIJQGT0712","3S829FDFT2NBOHQMM1CIOU0HZYXDXL","","1098.1000000238419","img/animal2.png","75","1098.5999999642372","2","1","3","0.7,0,0.8,0.7,0.8,0,0.7,0.8,0",""
"","html-keyboard-response","194","128610","0.0-194.0","374TNBHA8CHWZFIVNL96WQADOVVYQ5","A1NKBIJQGT0712","3S829FDFT2NBOHQMM1CIOU0HZYXDXL","","null","<img src=""img/animal2.png"" style=""width:200px; border:14px solid green;"">","null","","","","","",""
"","image-keyboard-response","195","130291","0.0-195.0","374TNBHA8CHWZFIVNL96WQADOVVYQ5","A1NKBIJQGT0712","3S829FDFT2NBOHQMM1CIOU0HZYXDXL","","1680.7999999523163","img/animal1.png","76","1681.5","3","1","1","0.7,0,0.8,0.7,0.8,0,0.7,0.8,0",""
"","html-keyboard-response","196","130592","0.0-196.0","374TNBHA8CHWZFIVNL96WQADOVVYQ5","A1NKBIJQGT0712","3S829FDFT2NBOHQMM1CIOU0HZYXDXL","","null","<img src=""img/animal1.png"" style=""width:200px; border:14px solid green;"">","null","","","","","",""
"","image-keyboard-response","197","130924","0.0-197.0","374TNBHA8CHWZFIVNL96WQADOVVYQ5","A1NKBIJQGT0712","3S829FDFT2NBOHQMM1CIOU0HZYXDXL","","330.0999999642372","img/animal1.png","76","330.9000000357628","3","0","1","0.7,0,0.8,0.7,0.8,0,0.7,0.8,0",""
"","html-keyboard-response","198","131225","0.0-198.0","374TNBHA8CHWZFIVNL96WQADOVVYQ5","A1NKBIJQGT0712","3S829FDFT2NBOHQMM1CIOU0HZYXDXL","","null","<img src=""img/animal1.png"" style=""width:200px;border:14px solid red;"">","null","","","","","",""
"","image-keyboard-response","199","131724","0.0-199.0","374TNBHA8CHWZFIVNL96WQADOVVYQ5","A1NKBIJQGT0712","3S829FDFT2NBOHQMM1CIOU0HZYXDXL","","498.2999999523163","img/animal6.png","74","499","1","0","2","0.7,0,0.8,0.7,0.8,0,0.7,0.8,0",""
"","html-keyboard-response","200","132025","0.0-200.0","374TNBHA8CHWZFIVNL96WQADOVVYQ5","A1NKBIJQGT0712","3S829FDFT2NBOHQMM1CIOU0HZYXDXL","","null","<img src=""img/animal6.png"" style=""width:200px;border:14px solid red;"">","null","","","","","",""
"","image-keyboard-response","201","132440","0.0-201.0","374TNBHA8CHWZFIVNL96WQADOVVYQ5","A1NKBIJQGT0712","3S829FDFT2NBOHQMM1CIOU0HZYXDXL","","414.2000000476837","img/animal6.png","74","414.69999998807907","1","1","2","0.7,0,0.8,0.7,0.8,0,0.7,0.8,0",""
"","html-keyboard-response","202","132741","0.0-202.0","374TNBHA8CHWZFIVNL96WQADOVVYQ5","A1NKBIJQGT0712","3S829FDFT2NBOHQMM1CIOU0HZYXDXL","","null","<img src=""img/animal6.png"" style=""width:200px; border:14px solid green;"">","null","","","","","",""
"","image-keyboard-response","203","133075","0.0-203.0","374TNBHA8CHWZFIVNL96WQADOVVYQ5","A1NKBIJQGT0712","3S829FDFT2NBOHQMM1CIOU0HZYXDXL","","333.10000002384186","img/animal6.png","74","333.5999999642372","1","1","2","0.7,0,0.8,0.7,0.8,0,0.7,0.8,0",""
"","html-keyboard-response","204","133376","0.0-204.0","374TNBHA8CHWZFIVNL96WQADOVVYQ5","A1NKBIJQGT0712","3S829FDFT2NBOHQMM1CIOU0HZYXDXL","","null","<img src=""img/animal6.png"" style=""width:200px; border:14px solid green;"">","null","","","","","",""
"","image-keyboard-response","205","133657","0.0-205.0","374TNBHA8CHWZFIVNL96WQADOVVYQ5","A1NKBIJQGT0712","3S829FDFT2NBOHQMM1CIOU0HZYXDXL","","279.80000001192093","img/animal6.png","74","280.39999997615814","1","1","2","0.7,0,0.8,0.7,0.8,0,0.7,0.8,0",""
"","html-keyboard-response","206","133958","0.0-206.0","374TNBHA8CHWZFIVNL96WQADOVVYQ5","A1NKBIJQGT0712","3S829FDFT2NBOHQMM1CIOU0HZYXDXL","","null","<img src=""img/animal6.png"" style=""width:200px; border:14px solid green;"">","null","","","","","",""
"","image-keyboard-response","207","134458","0.0-207.0","374TNBHA8CHWZFIVNL96WQADOVVYQ5","A1NKBIJQGT0712","3S829FDFT2NBOHQMM1CIOU0HZYXDXL","","499","img/animal2.png","75","499.60000002384186","2","0","3","0.7,0,0.8,0.7,0.8,0,0.7,0.8,0",""
"","html-keyboard-response","208","134759","0.0-208.0","374TNBHA8CHWZFIVNL96WQADOVVYQ5","A1NKBIJQGT0712","3S829FDFT2NBOHQMM1CIOU0HZYXDXL","","null","<img src=""img/animal2.png"" style=""width:200px;border:14px solid red;"">","null","","","","","",""
"","image-keyboard-response","209","135408","0.0-209.0","374TNBHA8CHWZFIVNL96WQADOVVYQ5","A1NKBIJQGT0712","3S829FDFT2NBOHQMM1CIOU0HZYXDXL","","648.5999999642372","img/animal6.png","74","649.1000000238419","1","1","2","0.7,0,0.8,0.7,0.8,0,0.7,0.8,0",""
"","html-keyboard-response","210","135709","0.0-210.0","374TNBHA8CHWZFIVNL96WQADOVVYQ5","A1NKBIJQGT0712","3S829FDFT2NBOHQMM1CIOU0HZYXDXL","","null","<img src=""img/animal6.png"" style=""width:200px; border:14px solid green;"">","null","","","","","",""
"","image-keyboard-response","211","136991","0.0-211.0","374TNBHA8CHWZFIVNL96WQADOVVYQ5","A1NKBIJQGT0712","3S829FDFT2NBOHQMM1CIOU0HZYXDXL","","1281.300000011921","img/animal1.png","76","1282","3","0","1","0.7,0,0.8,0.7,0.8,0,0.7,0.8,0",""
"","html-keyboard-response","212","137292","0.0-212.0","374TNBHA8CHWZFIVNL96WQADOVVYQ5","A1NKBIJQGT0712","3S829FDFT2NBOHQMM1CIOU0HZYXDXL","","null","<img src=""img/animal1.png"" style=""width:200px;border:14px solid red;"">","null","","","","","",""
"","image-keyboard-response","213","138290","0.0-213.0","374TNBHA8CHWZFIVNL96WQADOVVYQ5","A1NKBIJQGT0712","3S829FDFT2NBOHQMM1CIOU0HZYXDXL","","996.8000000119209","img/animal2.png","76","997.5","3","0","3","0.7,0,0.8,0.7,0.8,0,0.7,0.8,0",""
"","html-keyboard-response","214","138592","0.0-214.0","374TNBHA8CHWZFIVNL96WQADOVVYQ5","A1NKBIJQGT0712","3S829FDFT2NBOHQMM1CIOU0HZYXDXL","","null","<img src=""img/animal2.png"" style=""width:200px;border:14px solid red;"">","null","","","","","",""
"","image-keyboard-response","215","139124","0.0-215.0","374TNBHA8CHWZFIVNL96WQADOVVYQ5","A1NKBIJQGT0712","3S829FDFT2NBOHQMM1CIOU0HZYXDXL","","531.5999999642372","img/animal2.png","75","532.3000000119209","2","1","3","0.7,0,0.8,0.7,0.8,0,0.7,0.8,0",""
"","html-keyboard-response","216","139426","0.0-216.0","374TNBHA8CHWZFIVNL96WQADOVVYQ5","A1NKBIJQGT0712","3S829FDFT2NBOHQMM1CIOU0HZYXDXL","","null","<img src=""img/animal2.png"" style=""width:200px; border:14px solid green;"">","null","","","","","",""
"","image-keyboard-response","217","139907","0.0-217.0","374TNBHA8CHWZFIVNL96WQADOVVYQ5","A1NKBIJQGT0712","3S829FDFT2NBOHQMM1CIOU0HZYXDXL","","480.19999998807907","img/animal2.png","75","480.9000000357628","2","1","3","0.7,0,0.8,0.7,0.8,0,0.7,0.8,0",""
"","html-keyboard-response","218","140208","0.0-218.0","374TNBHA8CHWZFIVNL96WQADOVVYQ5","A1NKBIJQGT0712","3S829FDFT2NBOHQMM1CIOU0HZYXDXL","","null","<img src=""img/animal2.png"" style=""width:200px; border:14px solid green;"">","null","","","","","",""
"","image-keyboard-response","219","140840","0.0-219.0","374TNBHA8CHWZFIVNL96WQADOVVYQ5","A1NKBIJQGT0712","3S829FDFT2NBOHQMM1CIOU0HZYXDXL","","631","img/animal1.png","76","631.7000000476837","3","1","1","0.7,0,0.8,0.7,0.8,0,0.7,0.8,0",""
"","html-keyboard-response","220","141141","0.0-220.0","374TNBHA8CHWZFIVNL96WQADOVVYQ5","A1NKBIJQGT0712","3S829FDFT2NBOHQMM1CIOU0HZYXDXL","","null","<img src=""img/animal1.png"" style=""width:200px; border:14px solid green;"">","null","","","","","",""
"","image-keyboard-response","221","141489","0.0-221.0","374TNBHA8CHWZFIVNL96WQADOVVYQ5","A1NKBIJQGT0712","3S829FDFT2NBOHQMM1CIOU0HZYXDXL","","347.2999999523163","img/animal1.png","76","347.89999997615814","3","1","1","0.7,0,0.8,0.7,0.8,0,0.7,0.8,0",""
"","html-keyboard-response","222","141790","0.0-222.0","374TNBHA8CHWZFIVNL96WQADOVVYQ5","A1NKBIJQGT0712","3S829FDFT2NBOHQMM1CIOU0HZYXDXL","","null","<img src=""img/animal1.png"" style=""width:200px; border:14px solid green;"">","null","","","","","",""
"","image-keyboard-response","223","142389","0.0-223.0","374TNBHA8CHWZFIVNL96WQADOVVYQ5","A1NKBIJQGT0712","3S829FDFT2NBOHQMM1CIOU0HZYXDXL","","598.0999999642372","img/animal6.png","74","598.6999999880791","1","0","2","0.7,0,0.8,0.7,0.8,0,0.7,0.8,0",""
"","html-keyboard-response","224","142691","0.0-224.0","374TNBHA8CHWZFIVNL96WQADOVVYQ5","A1NKBIJQGT0712","3S829FDFT2NBOHQMM1CIOU0HZYXDXL","","null","<img src=""img/animal6.png"" style=""width:200px;border:14px solid red;"">","null","","","","","",""
"","image-keyboard-response","225","143090","0.0-225.0","374TNBHA8CHWZFIVNL96WQADOVVYQ5","A1NKBIJQGT0712","3S829FDFT2NBOHQMM1CIOU0HZYXDXL","","398.30000001192093","img/animal2.png","74","399","1","1","3","0.7,0,0.8,0.7,0.8,0,0.7,0.8,0",""
"","html-keyboard-response","226","143392","0.0-226.0","374TNBHA8CHWZFIVNL96WQADOVVYQ5","A1NKBIJQGT0712","3S829FDFT2NBOHQMM1CIOU0HZYXDXL","","null","<img src=""img/animal2.png"" style=""width:200px; border:14px solid green;"">","null","","","","","",""
"","image-keyboard-response","227","144957","0.0-227.0","374TNBHA8CHWZFIVNL96WQADOVVYQ5","A1NKBIJQGT0712","3S829FDFT2NBOHQMM1CIOU0HZYXDXL","","1564.7999999523163","img/animal1.png","76","1565.199999988079","3","1","1","0.7,0,0.8,0.7,0.8,0,0.7,0.8,0",""
"","html-keyboard-response","228","145258","0.0-228.0","374TNBHA8CHWZFIVNL96WQADOVVYQ5","A1NKBIJQGT0712","3S829FDFT2NBOHQMM1CIOU0HZYXDXL","","null","<img src=""img/animal1.png"" style=""width:200px; border:14px solid green;"">","null","","","","","",""
"","image-keyboard-response","229","145824","0.0-229.0","374TNBHA8CHWZFIVNL96WQADOVVYQ5","A1NKBIJQGT0712","3S829FDFT2NBOHQMM1CIOU0HZYXDXL","","565.1000000238419","img/animal6.png","74","565.8000000119209","1","0","2","0.7,0,0.8,0.7,0.8,0,0.7,0.8,0",""
"","html-keyboard-response","230","146125","0.0-230.0","374TNBHA8CHWZFIVNL96WQADOVVYQ5","A1NKBIJQGT0712","3S829FDFT2NBOHQMM1CIOU0HZYXDXL","","null","<img src=""img/animal6.png"" style=""width:200px;border:14px solid red;"">","null","","","","","",""
"","image-keyboard-response","231","146658","0.0-231.0","374TNBHA8CHWZFIVNL96WQADOVVYQ5","A1NKBIJQGT0712","3S829FDFT2NBOHQMM1CIOU0HZYXDXL","","532.6000000238419","img/animal2.png","75","533.3000000119209","2","1","3","0.7,0,0.8,0.7,0.8,0,0.7,0.8,0",""
"","html-keyboard-response","232","146959","0.0-232.0","374TNBHA8CHWZFIVNL96WQADOVVYQ5","A1NKBIJQGT0712","3S829FDFT2NBOHQMM1CIOU0HZYXDXL","","null","<img src=""img/animal2.png"" style=""width:200px; border:14px solid green;"">","null","","","","","",""
"","image-keyboard-response","233","147390","0.0-233.0","374TNBHA8CHWZFIVNL96WQADOVVYQ5","A1NKBIJQGT0712","3S829FDFT2NBOHQMM1CIOU0HZYXDXL","","430.30000001192093","img/animal2.png","75","430.89999997615814","2","1","3","0.7,0,0.8,0.7,0.8,0,0.7,0.8,0",""
"","html-keyboard-response","234","147691","0.0-234.0","374TNBHA8CHWZFIVNL96WQADOVVYQ5","A1NKBIJQGT0712","3S829FDFT2NBOHQMM1CIOU0HZYXDXL","","null","<img src=""img/animal2.png"" style=""width:200px; border:14px solid green;"">","null","","","","","",""
"","image-keyboard-response","235","148290","0.0-235.0","374TNBHA8CHWZFIVNL96WQADOVVYQ5","A1NKBIJQGT0712","3S829FDFT2NBOHQMM1CIOU0HZYXDXL","","598.6000000238419","img/animal6.png","74","599.2000000476837","1","1","2","0.7,0,0.8,0.7,0.8,0,0.7,0.8,0",""
"","html-keyboard-response","236","148591","0.0-236.0","374TNBHA8CHWZFIVNL96WQADOVVYQ5","A1NKBIJQGT0712","3S829FDFT2NBOHQMM1CIOU0HZYXDXL","","null","<img src=""img/animal6.png"" style=""width:200px; border:14px solid green;"">","null","","","","","",""
"","image-keyboard-response","237","149240","0.0-237.0","374TNBHA8CHWZFIVNL96WQADOVVYQ5","A1NKBIJQGT0712","3S829FDFT2NBOHQMM1CIOU0HZYXDXL","","647.9000000357628","img/animal1.png","76","648.5","3","1","1","0.7,0,0.8,0.7,0.8,0,0.7,0.8,0",""
"","html-keyboard-response","238","149541","0.0-238.0","374TNBHA8CHWZFIVNL96WQADOVVYQ5","A1NKBIJQGT0712","3S829FDFT2NBOHQMM1CIOU0HZYXDXL","","null","<img src=""img/animal1.png"" style=""width:200px; border:14px solid green;"">","null","","","","","",""
"","image-keyboard-response","239","149924","0.0-239.0","374TNBHA8CHWZFIVNL96WQADOVVYQ5","A1NKBIJQGT0712","3S829FDFT2NBOHQMM1CIOU0HZYXDXL","","382.5","img/animal1.png","76","383.10000002384186","3","1","1","0.7,0,0.8,0.7,0.8,0,0.7,0.8,0",""
"","html-keyboard-response","240","150226","0.0-240.0","374TNBHA8CHWZFIVNL96WQADOVVYQ5","A1NKBIJQGT0712","3S829FDFT2NBOHQMM1CIOU0HZYXDXL","","null","<img src=""img/animal1.png"" style=""width:200px; border:14px solid green;"">","null","","","","","",""
"","image-keyboard-response","241","150807","0.0-241.0","374TNBHA8CHWZFIVNL96WQADOVVYQ5","A1NKBIJQGT0712","3S829FDFT2NBOHQMM1CIOU0HZYXDXL","","581.4000000357628","img/animal6.png","74","581.7999999523163","1","1","2","0.7,0,0.8,0.7,0.8,0,0.7,0.8,0",""
"","html-keyboard-response","242","151109","0.0-242.0","374TNBHA8CHWZFIVNL96WQADOVVYQ5","A1NKBIJQGT0712","3S829FDFT2NBOHQMM1CIOU0HZYXDXL","","null","<img src=""img/animal6.png"" style=""width:200px; border:14px solid green;"">","null","","","","","",""
"","image-keyboard-response","243","151690","0.0-243.0","374TNBHA8CHWZFIVNL96WQADOVVYQ5","A1NKBIJQGT0712","3S829FDFT2NBOHQMM1CIOU0HZYXDXL","","580.5999999642372","img/animal1.png","76","581.2000000476837","3","1","1","0.7,0,0.8,0.7,0.8,0,0.7,0.8,0",""
"","html-keyboard-response","244","151991","0.0-244.0","374TNBHA8CHWZFIVNL96WQADOVVYQ5","A1NKBIJQGT0712","3S829FDFT2NBOHQMM1CIOU0HZYXDXL","","null","<img src=""img/animal1.png"" style=""width:200px; border:14px solid green;"">","null","","","","","",""
"","image-keyboard-response","245","152707","0.0-245.0","374TNBHA8CHWZFIVNL96WQADOVVYQ5","A1NKBIJQGT0712","3S829FDFT2NBOHQMM1CIOU0HZYXDXL","","715","img/animal6.png","74","715.6000000238419","1","1","2","0.7,0,0.8,0.7,0.8,0,0.7,0.8,0",""
"","html-keyboard-response","246","153009","0.0-246.0","374TNBHA8CHWZFIVNL96WQADOVVYQ5","A1NKBIJQGT0712","3S829FDFT2NBOHQMM1CIOU0HZYXDXL","","null","<img src=""img/animal6.png"" style=""width:200px; border:14px solid green;"">","null","","","","","",""
"","image-keyboard-response","247","153524","0.0-247.0","374TNBHA8CHWZFIVNL96WQADOVVYQ5","A1NKBIJQGT0712","3S829FDFT2NBOHQMM1CIOU0HZYXDXL","","514.7999999523163","img/animal6.png","74","515.3000000119209","1","0","2","0.7,0,0.8,0.7,0.8,0,0.7,0.8,0",""
"","html-keyboard-response","248","153825","0.0-248.0","374TNBHA8CHWZFIVNL96WQADOVVYQ5","A1NKBIJQGT0712","3S829FDFT2NBOHQMM1CIOU0HZYXDXL","","null","<img src=""img/animal6.png"" style=""width:200px;border:14px solid red;"">","null","","","","","",""
"","image-keyboard-response","249","154608","0.0-249.0","374TNBHA8CHWZFIVNL96WQADOVVYQ5","A1NKBIJQGT0712","3S829FDFT2NBOHQMM1CIOU0HZYXDXL","","782.6000000238419","img/animal1.png","76","783.2000000476837","3","1","1","0.7,0,0.8,0.7,0.8,0,0.7,0.8,0",""
"","html-keyboard-response","250","154909","0.0-250.0","374TNBHA8CHWZFIVNL96WQADOVVYQ5","A1NKBIJQGT0712","3S829FDFT2NBOHQMM1CIOU0HZYXDXL","","null","<img src=""img/animal1.png"" style=""width:200px; border:14px solid green;"">","null","","","","","",""
"","image-keyboard-response","251","155424","0.0-251.0","374TNBHA8CHWZFIVNL96WQADOVVYQ5","A1NKBIJQGT0712","3S829FDFT2NBOHQMM1CIOU0HZYXDXL","","513.9000000357628","img/animal6.png","74","514.6000000238419","1","1","2","0.7,0,0.8,0.7,0.8,0,0.7,0.8,0",""
"","html-keyboard-response","252","155726","0.0-252.0","374TNBHA8CHWZFIVNL96WQADOVVYQ5","A1NKBIJQGT0712","3S829FDFT2NBOHQMM1CIOU0HZYXDXL","","null","<img src=""img/animal6.png"" style=""width:200px; border:14px solid green;"">","null","","","","","",""
"","image-keyboard-response","253","156290","0.0-253.0","374TNBHA8CHWZFIVNL96WQADOVVYQ5","A1NKBIJQGT0712","3S829FDFT2NBOHQMM1CIOU0HZYXDXL","","563.8000000119209","img/animal2.png","75","564.4000000357628","2","1","3","0.7,0,0.8,0.7,0.8,0,0.7,0.8,0",""
"","html-keyboard-response","254","156591","0.0-254.0","374TNBHA8CHWZFIVNL96WQADOVVYQ5","A1NKBIJQGT0712","3S829FDFT2NBOHQMM1CIOU0HZYXDXL","","null","<img src=""img/animal2.png"" style=""width:200px; border:14px solid green;"">","null","","","","","",""
"","image-keyboard-response","255","157189","0.0-255.0","374TNBHA8CHWZFIVNL96WQADOVVYQ5","A1NKBIJQGT0712","3S829FDFT2NBOHQMM1CIOU0HZYXDXL","","597.1999999880791","img/animal6.png","74","597.8000000119209","1","1","2","0.7,0,0.8,0.7,0.8,0,0.7,0.8,0",""
"","html-keyboard-response","256","157491","0.0-256.0","374TNBHA8CHWZFIVNL96WQADOVVYQ5","A1NKBIJQGT0712","3S829FDFT2NBOHQMM1CIOU0HZYXDXL","","null","<img src=""img/animal6.png"" style=""width:200px; border:14px solid green;"">","null","","","","","",""
"","image-keyboard-response","257","157989","0.0-257.0","374TNBHA8CHWZFIVNL96WQADOVVYQ5","A1NKBIJQGT0712","3S829FDFT2NBOHQMM1CIOU0HZYXDXL","","497.69999998807907","img/animal2.png","75","498.10000002384186","2","1","3","0.7,0,0.8,0.7,0.8,0,0.7,0.8,0",""
"","html-keyboard-response","258","158291","0.0-258.0","374TNBHA8CHWZFIVNL96WQADOVVYQ5","A1NKBIJQGT0712","3S829FDFT2NBOHQMM1CIOU0HZYXDXL","","null","<img src=""img/animal2.png"" style=""width:200px; border:14px solid green;"">","null","","","","","",""
"","image-keyboard-response","259","158773","0.0-259.0","374TNBHA8CHWZFIVNL96WQADOVVYQ5","A1NKBIJQGT0712","3S829FDFT2NBOHQMM1CIOU0HZYXDXL","","481.89999997615814","img/animal6.png","74","482.4000000357628","1","0","2","0.7,0,0.8,0.7,0.8,0,0.7,0.8,0",""
"","html-keyboard-response","260","159075","0.0-260.0","374TNBHA8CHWZFIVNL96WQADOVVYQ5","A1NKBIJQGT0712","3S829FDFT2NBOHQMM1CIOU0HZYXDXL","","null","<img src=""img/animal6.png"" style=""width:200px;border:14px solid red;"">","null","","","","","",""
"","image-keyboard-response","261","159564","0.0-261.0","374TNBHA8CHWZFIVNL96WQADOVVYQ5","A1NKBIJQGT0712","3S829FDFT2NBOHQMM1CIOU0HZYXDXL","","487.89999997615814","img/animal6.png","74","488.19999998807907","1","0","2","0.7,0,0.8,0.7,0.8,0,0.7,0.8,0",""
"","html-keyboard-response","262","159865","0.0-262.0","374TNBHA8CHWZFIVNL96WQADOVVYQ5","A1NKBIJQGT0712","3S829FDFT2NBOHQMM1CIOU0HZYXDXL","","null","<img src=""img/animal6.png"" style=""width:200px;border:14px solid red;"">","null","","","","","",""
"","image-keyboard-response","263","160408","0.0-263.0","374TNBHA8CHWZFIVNL96WQADOVVYQ5","A1NKBIJQGT0712","3S829FDFT2NBOHQMM1CIOU0HZYXDXL","","542.1000000238419","img/animal1.png","76","542.5","3","1","1","0.7,0,0.8,0.7,0.8,0,0.7,0.8,0",""
"","html-keyboard-response","264","160709","0.0-264.0","374TNBHA8CHWZFIVNL96WQADOVVYQ5","A1NKBIJQGT0712","3S829FDFT2NBOHQMM1CIOU0HZYXDXL","","null","<img src=""img/animal1.png"" style=""width:200px; border:14px solid green;"">","null","","","","","",""
"","image-keyboard-response","265","161240","0.0-265.0","374TNBHA8CHWZFIVNL96WQADOVVYQ5","A1NKBIJQGT0712","3S829FDFT2NBOHQMM1CIOU0HZYXDXL","","530.5","img/animal6.png","74","531","1","1","2","0.7,0,0.8,0.7,0.8,0,0.7,0.8,0",""
"","html-keyboard-response","266","161541","0.0-266.0","374TNBHA8CHWZFIVNL96WQADOVVYQ5","A1NKBIJQGT0712","3S829FDFT2NBOHQMM1CIOU0HZYXDXL","","null","<img src=""img/animal6.png"" style=""width:200px; border:14px solid green;"">","null","","","","","",""
"","image-keyboard-response","267","162189","0.0-267.0","374TNBHA8CHWZFIVNL96WQADOVVYQ5","A1NKBIJQGT0712","3S829FDFT2NBOHQMM1CIOU0HZYXDXL","","647.3999999761581","img/animal2.png","75","647.9000000357628","2","0","3","0.7,0,0.8,0.7,0.8,0,0.7,0.8,0",""
"","html-keyboard-response","268","162490","0.0-268.0","374TNBHA8CHWZFIVNL96WQADOVVYQ5","A1NKBIJQGT0712","3S829FDFT2NBOHQMM1CIOU0HZYXDXL","","null","<img src=""img/animal2.png"" style=""width:200px;border:14px solid red;"">","null","","","","","",""
"","image-keyboard-response","269","162923","0.0-269.0","374TNBHA8CHWZFIVNL96WQADOVVYQ5","A1NKBIJQGT0712","3S829FDFT2NBOHQMM1CIOU0HZYXDXL","","432.10000002384186","img/animal2.png","75","432.80000001192093","2","1","3","0.7,0,0.8,0.7,0.8,0,0.7,0.8,0",""
"","html-keyboard-response","270","163224","0.0-270.0","374TNBHA8CHWZFIVNL96WQADOVVYQ5","A1NKBIJQGT0712","3S829FDFT2NBOHQMM1CIOU0HZYXDXL","","null","<img src=""img/animal2.png"" style=""width:200px; border:14px solid green;"">","null","","","","","",""
"","image-keyboard-response","271","163723","0.0-271.0","374TNBHA8CHWZFIVNL96WQADOVVYQ5","A1NKBIJQGT0712","3S829FDFT2NBOHQMM1CIOU0HZYXDXL","","498.30000001192093","img/animal2.png","75","499","2","1","3","0.7,0,0.8,0.7,0.8,0,0.7,0.8,0",""
"","html-keyboard-response","272","164024","0.0-272.0","374TNBHA8CHWZFIVNL96WQADOVVYQ5","A1NKBIJQGT0712","3S829FDFT2NBOHQMM1CIOU0HZYXDXL","","null","<img src=""img/animal2.png"" style=""width:200px; border:14px solid green;"">","null","","","","","",""
"","image-keyboard-response","273","164523","0.0-273.0","374TNBHA8CHWZFIVNL96WQADOVVYQ5","A1NKBIJQGT0712","3S829FDFT2NBOHQMM1CIOU0HZYXDXL","","498.69999998807907","img/animal2.png","75","499.2000000476837","2","0","3","0.7,0,0.8,0.7,0.8,0,0.7,0.8,0",""
"","html-keyboard-response","274","164824","0.0-274.0","374TNBHA8CHWZFIVNL96WQADOVVYQ5","A1NKBIJQGT0712","3S829FDFT2NBOHQMM1CIOU0HZYXDXL","","null","<img src=""img/animal2.png"" style=""width:200px;border:14px solid red;"">","null","","","","","",""
"","image-keyboard-response","275","165424","0.0-275.0","374TNBHA8CHWZFIVNL96WQADOVVYQ5","A1NKBIJQGT0712","3S829FDFT2NBOHQMM1CIOU0HZYXDXL","","599","img/animal1.png","76","599.6000000238419","3","1","1","0.7,0,0.8,0.7,0.8,0,0.7,0.8,0",""
"","html-keyboard-response","276","165725","0.0-276.0","374TNBHA8CHWZFIVNL96WQADOVVYQ5","A1NKBIJQGT0712","3S829FDFT2NBOHQMM1CIOU0HZYXDXL","","null","<img src=""img/animal1.png"" style=""width:200px; border:14px solid green;"">","null","","","","","",""
"","image-keyboard-response","277","166124","0.0-277.0","374TNBHA8CHWZFIVNL96WQADOVVYQ5","A1NKBIJQGT0712","3S829FDFT2NBOHQMM1CIOU0HZYXDXL","","398.5","img/animal1.png","76","399.10000002384186","3","1","1","0.7,0,0.8,0.7,0.8,0,0.7,0.8,0",""
"","html-keyboard-response","278","166426","0.0-278.0","374TNBHA8CHWZFIVNL96WQADOVVYQ5","A1NKBIJQGT0712","3S829FDFT2NBOHQMM1CIOU0HZYXDXL","","null","<img src=""img/animal1.png"" style=""width:200px; border:14px solid green;"">","null","","","","","",""
"","image-keyboard-response","279","167007","0.0-279.0","374TNBHA8CHWZFIVNL96WQADOVVYQ5","A1NKBIJQGT0712","3S829FDFT2NBOHQMM1CIOU0HZYXDXL","","580.8000000119209","img/animal2.png","75","581.3999999761581","2","1","3","0.7,0,0.8,0.7,0.8,0,0.7,0.8,0",""
"","html-keyboard-response","280","167308","0.0-280.0","374TNBHA8CHWZFIVNL96WQADOVVYQ5","A1NKBIJQGT0712","3S829FDFT2NBOHQMM1CIOU0HZYXDXL","","null","<img src=""img/animal2.png"" style=""width:200px; border:14px solid green;"">","null","","","","","",""
"","image-keyboard-response","281","167857","0.0-281.0","374TNBHA8CHWZFIVNL96WQADOVVYQ5","A1NKBIJQGT0712","3S829FDFT2NBOHQMM1CIOU0HZYXDXL","","548.1000000238419","img/animal6.png","74","548.8000000119209","1","0","2","0.7,0,0.8,0.7,0.8,0,0.7,0.8,0",""
"","html-keyboard-response","282","168159","0.0-282.0","374TNBHA8CHWZFIVNL96WQADOVVYQ5","A1NKBIJQGT0712","3S829FDFT2NBOHQMM1CIOU0HZYXDXL","","null","<img src=""img/animal6.png"" style=""width:200px;border:14px solid red;"">","null","","","","","",""
"","image-keyboard-response","283","168674","0.0-283.0","374TNBHA8CHWZFIVNL96WQADOVVYQ5","A1NKBIJQGT0712","3S829FDFT2NBOHQMM1CIOU0HZYXDXL","","514.8000000119209","img/animal1.png","76","515.3000000119209","3","1","1","0.7,0,0.8,0.7,0.8,0,0.7,0.8,0",""
"","html-keyboard-response","284","168976","0.0-284.0","374TNBHA8CHWZFIVNL96WQADOVVYQ5","A1NKBIJQGT0712","3S829FDFT2NBOHQMM1CIOU0HZYXDXL","","null","<img src=""img/animal1.png"" style=""width:200px; border:14px solid green;"">","null","","","","","",""
"","image-keyboard-response","285","169324","0.0-285.0","374TNBHA8CHWZFIVNL96WQADOVVYQ5","A1NKBIJQGT0712","3S829FDFT2NBOHQMM1CIOU0HZYXDXL","","347.60000002384186","img/animal1.png","76","348.10000002384186","3","1","1","0.7,0,0.8,0.7,0.8,0,0.7,0.8,0",""
"","html-keyboard-response","286","169625","0.0-286.0","374TNBHA8CHWZFIVNL96WQADOVVYQ5","A1NKBIJQGT0712","3S829FDFT2NBOHQMM1CIOU0HZYXDXL","","null","<img src=""img/animal1.png"" style=""width:200px; border:14px solid green;"">","null","","","","","",""
"","image-keyboard-response","287","170040","0.0-287.0","374TNBHA8CHWZFIVNL96WQADOVVYQ5","A1NKBIJQGT0712","3S829FDFT2NBOHQMM1CIOU0HZYXDXL","","414.5","img/animal2.png","75","415.10000002384186","2","1","3","0.7,0,0.8,0.7,0.8,0,0.7,0.8,0",""
"","html-keyboard-response","288","170342","0.0-288.0","374TNBHA8CHWZFIVNL96WQADOVVYQ5","A1NKBIJQGT0712","3S829FDFT2NBOHQMM1CIOU0HZYXDXL","","null","<img src=""img/animal2.png"" style=""width:200px; border:14px solid green;"">","null","","","","","",""
"","image-keyboard-response","289","170723","0.0-289.0","374TNBHA8CHWZFIVNL96WQADOVVYQ5","A1NKBIJQGT0712","3S829FDFT2NBOHQMM1CIOU0HZYXDXL","","380.5","img/animal1.png","76","381.10000002384186","3","1","1","0.7,0,0.8,0.7,0.8,0,0.7,0.8,0",""
"","html-keyboard-response","290","171024","0.0-290.0","374TNBHA8CHWZFIVNL96WQADOVVYQ5","A1NKBIJQGT0712","3S829FDFT2NBOHQMM1CIOU0HZYXDXL","","null","<img src=""img/animal1.png"" style=""width:200px; border:14px solid green;"">","null","","","","","",""
"","image-keyboard-response","291","171456","0.0-291.0","374TNBHA8CHWZFIVNL96WQADOVVYQ5","A1NKBIJQGT0712","3S829FDFT2NBOHQMM1CIOU0HZYXDXL","","431","img/animal6.png","75","431.60000002384186","2","1","2","0.7,0,0.8,0.7,0.8,0,0.7,0.8,0",""
"","html-keyboard-response","292","171757","0.0-292.0","374TNBHA8CHWZFIVNL96WQADOVVYQ5","A1NKBIJQGT0712","3S829FDFT2NBOHQMM1CIOU0HZYXDXL","","null","<img src=""img/animal6.png"" style=""width:200px; border:14px solid green;"">","null","","","","","",""
"","image-keyboard-response","293","172257","0.0-293.0","374TNBHA8CHWZFIVNL96WQADOVVYQ5","A1NKBIJQGT0712","3S829FDFT2NBOHQMM1CIOU0HZYXDXL","","499.5999999642372","img/animal6.png","74","500.19999998807907","1","1","2","0.7,0,0.8,0.7,0.8,0,0.7,0.8,0",""
"","html-keyboard-response","294","172558","0.0-294.0","374TNBHA8CHWZFIVNL96WQADOVVYQ5","A1NKBIJQGT0712","3S829FDFT2NBOHQMM1CIOU0HZYXDXL","","null","<img src=""img/animal6.png"" style=""width:200px; border:14px solid green;"">","null","","","","","",""
"","image-keyboard-response","295","173024","0.0-295.0","374TNBHA8CHWZFIVNL96WQADOVVYQ5","A1NKBIJQGT0712","3S829FDFT2NBOHQMM1CIOU0HZYXDXL","","465.30000001192093","img/animal6.png","74","466","1","1","2","0.7,0,0.8,0.7,0.8,0,0.7,0.8,0",""
"","html-keyboard-response","296","173325","0.0-296.0","374TNBHA8CHWZFIVNL96WQADOVVYQ5","A1NKBIJQGT0712","3S829FDFT2NBOHQMM1CIOU0HZYXDXL","","null","<img src=""img/animal6.png"" style=""width:200px; border:14px solid green;"">","null","","","","","",""
"","image-keyboard-response","297","174040","0.0-297.0","374TNBHA8CHWZFIVNL96WQADOVVYQ5","A1NKBIJQGT0712","3S829FDFT2NBOHQMM1CIOU0HZYXDXL","","714.5","img/animal1.png","76","715","3","1","1","0.7,0,0.8,0.7,0.8,0,0.7,0.8,0",""
"","html-keyboard-response","298","174341","0.0-298.0","374TNBHA8CHWZFIVNL96WQADOVVYQ5","A1NKBIJQGT0712","3S829FDFT2NBOHQMM1CIOU0HZYXDXL","","null","<img src=""img/animal1.png"" style=""width:200px; border:14px solid green;"">","null","","","","","",""
"","image-keyboard-response","299","174756","0.0-299.0","374TNBHA8CHWZFIVNL96WQADOVVYQ5","A1NKBIJQGT0712","3S829FDFT2NBOHQMM1CIOU0HZYXDXL","","414.5999999642372","img/animal1.png","76","415.19999998807907","3","1","1","0.7,0,0.8,0.7,0.8,0,0.7,0.8,0",""
"","html-keyboard-response","300","175057","0.0-300.0","374TNBHA8CHWZFIVNL96WQADOVVYQ5","A1NKBIJQGT0712","3S829FDFT2NBOHQMM1CIOU0HZYXDXL","","null","<img src=""img/animal1.png"" style=""width:200px; border:14px solid green;"">","null","","","","","",""
"","image-keyboard-response","301","175707","0.0-301.0","374TNBHA8CHWZFIVNL96WQADOVVYQ5","A1NKBIJQGT0712","3S829FDFT2NBOHQMM1CIOU0HZYXDXL","","649.5","img/animal6.png","74","649.8999999761581","1","1","2","0.7,0,0.8,0.7,0.8,0,0.7,0.8,0",""
"","html-keyboard-response","302","176008","0.0-302.0","374TNBHA8CHWZFIVNL96WQADOVVYQ5","A1NKBIJQGT0712","3S829FDFT2NBOHQMM1CIOU0HZYXDXL","","null","<img src=""img/animal6.png"" style=""width:200px; border:14px solid green;"">","null","","","","","",""
"","image-keyboard-response","303","176574","0.0-303.0","374TNBHA8CHWZFIVNL96WQADOVVYQ5","A1NKBIJQGT0712","3S829FDFT2NBOHQMM1CIOU0HZYXDXL","","565.5999999642372","img/animal2.png","75","566.2000000476837","2","1","3","0.7,0,0.8,0.7,0.8,0,0.7,0.8,0",""
"","html-keyboard-response","304","176875","0.0-304.0","374TNBHA8CHWZFIVNL96WQADOVVYQ5","A1NKBIJQGT0712","3S829FDFT2NBOHQMM1CIOU0HZYXDXL","","null","<img src=""img/animal2.png"" style=""width:200px; border:14px solid green;"">","null","","","","","",""
"","image-keyboard-response","305","177561","0.0-305.0","374TNBHA8CHWZFIVNL96WQADOVVYQ5","A1NKBIJQGT0712","3S829FDFT2NBOHQMM1CIOU0HZYXDXL","","685.4000000357628","img/animal1.png","76","686.1000000238419","3","1","1","0.7,0,0.8,0.7,0.8,0,0.7,0.8,0",""
"","html-keyboard-response","306","177863","0.0-306.0","374TNBHA8CHWZFIVNL96WQADOVVYQ5","A1NKBIJQGT0712","3S829FDFT2NBOHQMM1CIOU0HZYXDXL","","null","<img src=""img/animal1.png"" style=""width:200px; border:14px solid green;"">","null","","","","","",""
"","image-keyboard-response","307","178290","0.0-307.0","374TNBHA8CHWZFIVNL96WQADOVVYQ5","A1NKBIJQGT0712","3S829FDFT2NBOHQMM1CIOU0HZYXDXL","","427","img/animal1.png","76","427.5","3","0","1","0.7,0,0.8,0.7,0.8,0,0.7,0.8,0",""
"","html-keyboard-response","308","178591","0.0-308.0","374TNBHA8CHWZFIVNL96WQADOVVYQ5","A1NKBIJQGT0712","3S829FDFT2NBOHQMM1CIOU0HZYXDXL","","null","<img src=""img/animal1.png"" style=""width:200px;border:14px solid red;"">","null","","","","","",""
"","image-keyboard-response","309","179139","0.0-309.0","374TNBHA8CHWZFIVNL96WQADOVVYQ5","A1NKBIJQGT0712","3S829FDFT2NBOHQMM1CIOU0HZYXDXL","","547.3000000119209","img/animal2.png","74","547.8999999761581","1","1","3","0.7,0,0.8,0.7,0.8,0,0.7,0.8,0",""
"","html-keyboard-response","310","179441","0.0-310.0","374TNBHA8CHWZFIVNL96WQADOVVYQ5","A1NKBIJQGT0712","3S829FDFT2NBOHQMM1CIOU0HZYXDXL","","null","<img src=""img/animal2.png"" style=""width:200px; border:14px solid green;"">","null","","","","","",""
"","image-keyboard-response","311","180306","0.0-311.0","374TNBHA8CHWZFIVNL96WQADOVVYQ5","A1NKBIJQGT0712","3S829FDFT2NBOHQMM1CIOU0HZYXDXL","","865.2000000476837","img/animal1.png","76","865.6999999880791","3","0","1","0.7,0,0.8,0.7,0.8,0,0.7,0.8,0",""
"","html-keyboard-response","312","180608","0.0-312.0","374TNBHA8CHWZFIVNL96WQADOVVYQ5","A1NKBIJQGT0712","3S829FDFT2NBOHQMM1CIOU0HZYXDXL","","null","<img src=""img/animal1.png"" style=""width:200px;border:14px solid red;"">","null","","","","","",""
"","image-keyboard-response","313","181073","0.0-313.0","374TNBHA8CHWZFIVNL96WQADOVVYQ5","A1NKBIJQGT0712","3S829FDFT2NBOHQMM1CIOU0HZYXDXL","","464.5","img/animal2.png","75","465.10000002384186","2","1","3","0.7,0,0.8,0.7,0.8,0,0.7,0.8,0",""
"","html-keyboard-response","314","181374","0.0-314.0","374TNBHA8CHWZFIVNL96WQADOVVYQ5","A1NKBIJQGT0712","3S829FDFT2NBOHQMM1CIOU0HZYXDXL","","null","<img src=""img/animal2.png"" style=""width:200px; border:14px solid green;"">","null","","","","","",""
"","image-keyboard-response","315","181739","0.0-315.0","374TNBHA8CHWZFIVNL96WQADOVVYQ5","A1NKBIJQGT0712","3S829FDFT2NBOHQMM1CIOU0HZYXDXL","","364.2999999523163","img/animal2.png","75","364.69999998807907","2","1","3","0.7,0,0.8,0.7,0.8,0,0.7,0.8,0",""
"","html-keyboard-response","316","182040","0.0-316.0","374TNBHA8CHWZFIVNL96WQADOVVYQ5","A1NKBIJQGT0712","3S829FDFT2NBOHQMM1CIOU0HZYXDXL","","null","<img src=""img/animal2.png"" style=""width:200px; border:14px solid green;"">","null","","","","","",""
"","image-keyboard-response","317","182389","0.0-317.0","374TNBHA8CHWZFIVNL96WQADOVVYQ5","A1NKBIJQGT0712","3S829FDFT2NBOHQMM1CIOU0HZYXDXL","","348.19999998807907","img/animal2.png","75","348.7999999523163","2","1","3","0.7,0,0.8,0.7,0.8,0,0.7,0.8,0",""
"","html-keyboard-response","318","182690","0.0-318.0","374TNBHA8CHWZFIVNL96WQADOVVYQ5","A1NKBIJQGT0712","3S829FDFT2NBOHQMM1CIOU0HZYXDXL","","null","<img src=""img/animal2.png"" style=""width:200px; border:14px solid green;"">","null","","","","","",""
"","image-keyboard-response","319","183256","0.0-319.0","374TNBHA8CHWZFIVNL96WQADOVVYQ5","A1NKBIJQGT0712","3S829FDFT2NBOHQMM1CIOU0HZYXDXL","","565.3999999761581","img/animal1.png","76","566.0999999642372","3","1","1","0.7,0,0.8,0.7,0.8,0,0.7,0.8,0",""
"","html-keyboard-response","320","183557","0.0-320.0","374TNBHA8CHWZFIVNL96WQADOVVYQ5","A1NKBIJQGT0712","3S829FDFT2NBOHQMM1CIOU0HZYXDXL","","null","<img src=""img/animal1.png"" style=""width:200px; border:14px solid green;"">","null","","","","","",""
"","image-keyboard-response","321","184089","0.0-321.0","374TNBHA8CHWZFIVNL96WQADOVVYQ5","A1NKBIJQGT0712","3S829FDFT2NBOHQMM1CIOU0HZYXDXL","","531.1999999880791","img/animal2.png","74","531.8000000119209","1","1","3","0.7,0,0.8,0.7,0.8,0,0.7,0.8,0",""
"","html-keyboard-response","322","184390","0.0-322.0","374TNBHA8CHWZFIVNL96WQADOVVYQ5","A1NKBIJQGT0712","3S829FDFT2NBOHQMM1CIOU0HZYXDXL","","null","<img src=""img/animal2.png"" style=""width:200px; border:14px solid green;"">","null","","","","","",""
"","image-keyboard-response","323","185256","0.0-323.0","374TNBHA8CHWZFIVNL96WQADOVVYQ5","A1NKBIJQGT0712","3S829FDFT2NBOHQMM1CIOU0HZYXDXL","","865.3000000119209","img/animal1.png","76","865.8000000119209","3","1","1","0.7,0,0.8,0.7,0.8,0,0.7,0.8,0",""
"","html-keyboard-response","324","185558","0.0-324.0","374TNBHA8CHWZFIVNL96WQADOVVYQ5","A1NKBIJQGT0712","3S829FDFT2NBOHQMM1CIOU0HZYXDXL","","null","<img src=""img/animal1.png"" style=""width:200px; border:14px solid green;"">","null","","","","","",""
"","image-keyboard-response","325","185989","0.0-325.0","374TNBHA8CHWZFIVNL96WQADOVVYQ5","A1NKBIJQGT0712","3S829FDFT2NBOHQMM1CIOU0HZYXDXL","","431","img/animal1.png","76","431.5","3","0","1","0.7,0,0.8,0.7,0.8,0,0.7,0.8,0",""
"","html-keyboard-response","326","186290","0.0-326.0","374TNBHA8CHWZFIVNL96WQADOVVYQ5","A1NKBIJQGT0712","3S829FDFT2NBOHQMM1CIOU0HZYXDXL","","null","<img src=""img/animal1.png"" style=""width:200px;border:14px solid red;"">","null","","","","","",""
"","image-keyboard-response","327","186706","0.0-327.0","374TNBHA8CHWZFIVNL96WQADOVVYQ5","A1NKBIJQGT0712","3S829FDFT2NBOHQMM1CIOU0HZYXDXL","","415.5","img/animal1.png","76","416.10000002384186","3","1","1","0.7,0,0.8,0.7,0.8,0,0.7,0.8,0",""
"","html-keyboard-response","328","187007","0.0-328.0","374TNBHA8CHWZFIVNL96WQADOVVYQ5","A1NKBIJQGT0712","3S829FDFT2NBOHQMM1CIOU0HZYXDXL","","null","<img src=""img/animal1.png"" style=""width:200px; border:14px solid green;"">","null","","","","","",""
"","image-keyboard-response","329","187539","0.0-329.0","374TNBHA8CHWZFIVNL96WQADOVVYQ5","A1NKBIJQGT0712","3S829FDFT2NBOHQMM1CIOU0HZYXDXL","","531.6999999880791","img/animal2.png","75","532.2000000476837","2","1","3","0.7,0,0.8,0.7,0.8,0,0.7,0.8,0",""
"","html-keyboard-response","330","187840","0.0-330.0","374TNBHA8CHWZFIVNL96WQADOVVYQ5","A1NKBIJQGT0712","3S829FDFT2NBOHQMM1CIOU0HZYXDXL","","null","<img src=""img/animal2.png"" style=""width:200px; border:14px solid green;"">","null","","","","","",""
"","image-keyboard-response","331","188389","0.0-331.0","374TNBHA8CHWZFIVNL96WQADOVVYQ5","A1NKBIJQGT0712","3S829FDFT2NBOHQMM1CIOU0HZYXDXL","","548.1999999880791","img/animal1.png","76","548.8999999761581","3","0","1","0.7,0,0.8,0.7,0.8,0,0.7,0.8,0",""
"","html-keyboard-response","332","188691","0.0-332.0","374TNBHA8CHWZFIVNL96WQADOVVYQ5","A1NKBIJQGT0712","3S829FDFT2NBOHQMM1CIOU0HZYXDXL","","null","<img src=""img/animal1.png"" style=""width:200px;border:14px solid red;"">","null","","","","","",""
"","image-keyboard-response","333","189289","0.0-333.0","374TNBHA8CHWZFIVNL96WQADOVVYQ5","A1NKBIJQGT0712","3S829FDFT2NBOHQMM1CIOU0HZYXDXL","","597.8000000119209","img/animal6.png","74","598.5","1","0","2","0.7,0,0.8,0.7,0.8,0,0.7,0.8,0",""
"","html-keyboard-response","334","189591","0.0-334.0","374TNBHA8CHWZFIVNL96WQADOVVYQ5","A1NKBIJQGT0712","3S829FDFT2NBOHQMM1CIOU0HZYXDXL","","null","<img src=""img/animal6.png"" style=""width:200px;border:14px solid red;"">","null","","","","","",""
"","image-keyboard-response","335","189989","0.0-335.0","374TNBHA8CHWZFIVNL96WQADOVVYQ5","A1NKBIJQGT0712","3S829FDFT2NBOHQMM1CIOU0HZYXDXL","","398.10000002384186","img/animal6.png","74","398.5","1","1","2","0.7,0,0.8,0.7,0.8,0,0.7,0.8,0",""
"","html-keyboard-response","336","190291","0.0-336.0","374TNBHA8CHWZFIVNL96WQADOVVYQ5","A1NKBIJQGT0712","3S829FDFT2NBOHQMM1CIOU0HZYXDXL","","null","<img src=""img/animal6.png"" style=""width:200px; border:14px solid green;"">","null","","","","","",""
"","image-keyboard-response","337","190839","0.0-337.0","374TNBHA8CHWZFIVNL96WQADOVVYQ5","A1NKBIJQGT0712","3S829FDFT2NBOHQMM1CIOU0HZYXDXL","","548.0999999642372","img/animal2.png","75","548.6000000238419","2","0","3","0.7,0,0.8,0.7,0.8,0,0.7,0.8,0",""
"","html-keyboard-response","338","191141","0.0-338.0","374TNBHA8CHWZFIVNL96WQADOVVYQ5","A1NKBIJQGT0712","3S829FDFT2NBOHQMM1CIOU0HZYXDXL","","null","<img src=""img/animal2.png"" style=""width:200px;border:14px solid red;"">","null","","","","","",""
"","image-keyboard-response","339","191688","0.0-339.0","374TNBHA8CHWZFIVNL96WQADOVVYQ5","A1NKBIJQGT0712","3S829FDFT2NBOHQMM1CIOU0HZYXDXL","","546.7999999523163","img/animal2.png","75","547.4000000357628","2","1","3","0.7,0,0.8,0.7,0.8,0,0.7,0.8,0",""
"","html-keyboard-response","340","191990","0.0-340.0","374TNBHA8CHWZFIVNL96WQADOVVYQ5","A1NKBIJQGT0712","3S829FDFT2NBOHQMM1CIOU0HZYXDXL","","null","<img src=""img/animal2.png"" style=""width:200px; border:14px solid green;"">","null","","","","","",""
"","image-keyboard-response","341","192589","0.0-341.0","374TNBHA8CHWZFIVNL96WQADOVVYQ5","A1NKBIJQGT0712","3S829FDFT2NBOHQMM1CIOU0HZYXDXL","","598.6999999880791","img/animal1.png","76","599.2000000476837","3","1","1","0.7,0,0.8,0.7,0.8,0,0.7,0.8,0",""
"","html-keyboard-response","342","192891","0.0-342.0","374TNBHA8CHWZFIVNL96WQADOVVYQ5","A1NKBIJQGT0712","3S829FDFT2NBOHQMM1CIOU0HZYXDXL","","null","<img src=""img/animal1.png"" style=""width:200px; border:14px solid green;"">","null","","","","","",""
"","image-keyboard-response","343","193506","0.0-343.0","374TNBHA8CHWZFIVNL96WQADOVVYQ5","A1NKBIJQGT0712","3S829FDFT2NBOHQMM1CIOU0HZYXDXL","","614.8000000119209","img/animal2.png","75","615.3000000119209","2","0","3","0.7,0,0.8,0.7,0.8,0,0.7,0.8,0",""
"","html-keyboard-response","344","193808","0.0-344.0","374TNBHA8CHWZFIVNL96WQADOVVYQ5","A1NKBIJQGT0712","3S829FDFT2NBOHQMM1CIOU0HZYXDXL","","null","<img src=""img/animal2.png"" style=""width:200px;border:14px solid red;"">","null","","","","","",""
"","image-keyboard-response","345","194207","0.0-345.0","374TNBHA8CHWZFIVNL96WQADOVVYQ5","A1NKBIJQGT0712","3S829FDFT2NBOHQMM1CIOU0HZYXDXL","","398.89999997615814","img/animal2.png","75","399.39999997615814","2","1","3","0.7,0,0.8,0.7,0.8,0,0.7,0.8,0",""
"","html-keyboard-response","346","194509","0.0-346.0","374TNBHA8CHWZFIVNL96WQADOVVYQ5","A1NKBIJQGT0712","3S829FDFT2NBOHQMM1CIOU0HZYXDXL","","null","<img src=""img/animal2.png"" style=""width:200px; border:14px solid green;"">","null","","","","","",""
"","image-keyboard-response","347","195107","0.0-347.0","374TNBHA8CHWZFIVNL96WQADOVVYQ5","A1NKBIJQGT0712","3S829FDFT2NBOHQMM1CIOU0HZYXDXL","","597.8000000119209","img/animal1.png","76","598.4000000357628","3","1","1","0.7,0,0.8,0.7,0.8,0,0.7,0.8,0",""
"","html-keyboard-response","348","195408","0.0-348.0","374TNBHA8CHWZFIVNL96WQADOVVYQ5","A1NKBIJQGT0712","3S829FDFT2NBOHQMM1CIOU0HZYXDXL","","null","<img src=""img/animal1.png"" style=""width:200px; border:14px solid green;"">","null","","","","","",""
"","image-keyboard-response","349","195989","0.0-349.0","374TNBHA8CHWZFIVNL96WQADOVVYQ5","A1NKBIJQGT0712","3S829FDFT2NBOHQMM1CIOU0HZYXDXL","","580.6000000238419","img/animal6.png","74","581.1999999880791","1","0","2","0.7,0,0.8,0.7,0.8,0,0.7,0.8,0",""
"","html-keyboard-response","350","196291","0.0-350.0","374TNBHA8CHWZFIVNL96WQADOVVYQ5","A1NKBIJQGT0712","3S829FDFT2NBOHQMM1CIOU0HZYXDXL","","null","<img src=""img/animal6.png"" style=""width:200px;border:14px solid red;"">","null","","","","","",""
"","image-keyboard-response","351","196672","0.0-351.0","374TNBHA8CHWZFIVNL96WQADOVVYQ5","A1NKBIJQGT0712","3S829FDFT2NBOHQMM1CIOU0HZYXDXL","","380.39999997615814","img/animal6.png","74","381","1","1","2","0.7,0,0.8,0.7,0.8,0,0.7,0.8,0",""
"","html-keyboard-response","352","196973","0.0-352.0","374TNBHA8CHWZFIVNL96WQADOVVYQ5","A1NKBIJQGT0712","3S829FDFT2NBOHQMM1CIOU0HZYXDXL","","null","<img src=""img/animal6.png"" style=""width:200px; border:14px solid green;"">","null","","","","","",""
"","image-keyboard-response","353","197388","0.0-353.0","374TNBHA8CHWZFIVNL96WQADOVVYQ5","A1NKBIJQGT0712","3S829FDFT2NBOHQMM1CIOU0HZYXDXL","","414.19999998807907","img/animal6.png","74","414.69999998807907","1","1","2","0.7,0,0.8,0.7,0.8,0,0.7,0.8,0",""
"","html-keyboard-response","354","197689","0.0-354.0","374TNBHA8CHWZFIVNL96WQADOVVYQ5","A1NKBIJQGT0712","3S829FDFT2NBOHQMM1CIOU0HZYXDXL","","null","<img src=""img/animal6.png"" style=""width:200px; border:14px solid green;"">","null","","","","","",""
"","image-keyboard-response","355","198122","0.0-355.0","374TNBHA8CHWZFIVNL96WQADOVVYQ5","A1NKBIJQGT0712","3S829FDFT2NBOHQMM1CIOU0HZYXDXL","","432.5","img/animal6.png","74","433","1","1","2","0.7,0,0.8,0.7,0.8,0,0.7,0.8,0",""
"","html-keyboard-response","356","198423","0.0-356.0","374TNBHA8CHWZFIVNL96WQADOVVYQ5","A1NKBIJQGT0712","3S829FDFT2NBOHQMM1CIOU0HZYXDXL","","null","<img src=""img/animal6.png"" style=""width:200px; border:14px solid green;"">","null","","","","","",""
"","image-keyboard-response","357","198906","0.0-357.0","374TNBHA8CHWZFIVNL96WQADOVVYQ5","A1NKBIJQGT0712","3S829FDFT2NBOHQMM1CIOU0HZYXDXL","","482.5","img/animal1.png","76","483","3","1","1","0.7,0,0.8,0.7,0.8,0,0.7,0.8,0",""
"","html-keyboard-response","358","199208","0.0-358.0","374TNBHA8CHWZFIVNL96WQADOVVYQ5","A1NKBIJQGT0712","3S829FDFT2NBOHQMM1CIOU0HZYXDXL","","null","<img src=""img/animal1.png"" style=""width:200px; border:14px solid green;"">","null","","","","","",""
"","image-keyboard-response","359","199673","0.0-359.0","374TNBHA8CHWZFIVNL96WQADOVVYQ5","A1NKBIJQGT0712","3S829FDFT2NBOHQMM1CIOU0HZYXDXL","","464.7000000476837","img/animal6.png","74","465.0999999642372","1","1","2","0.7,0,0.8,0.7,0.8,0,0.7,0.8,0",""
"","html-keyboard-response","360","199975","0.0-360.0","374TNBHA8CHWZFIVNL96WQADOVVYQ5","A1NKBIJQGT0712","3S829FDFT2NBOHQMM1CIOU0HZYXDXL","","null","<img src=""img/animal6.png"" style=""width:200px; border:14px solid green;"">","null","","","","","",""
"","image-keyboard-response","361","200439","0.0-361.0","374TNBHA8CHWZFIVNL96WQADOVVYQ5","A1NKBIJQGT0712","3S829FDFT2NBOHQMM1CIOU0HZYXDXL","","464.10000002384186","img/animal6.png","74","464.5","1","0","2","0.7,0,0.8,0.7,0.8,0,0.7,0.8,0",""
"","html-keyboard-response","362","200740","0.0-362.0","374TNBHA8CHWZFIVNL96WQADOVVYQ5","A1NKBIJQGT0712","3S829FDFT2NBOHQMM1CIOU0HZYXDXL","","null","<img src=""img/animal6.png"" style=""width:200px;border:14px solid red;"">","null","","","","","",""
"","instructions","363","205090","0.0-363.0","374TNBHA8CHWZFIVNL96WQADOVVYQ5","A1NKBIJQGT0712","3S829FDFT2NBOHQMM1CIOU0HZYXDXL","[{""page_index"":0,""viewing_time"":4349.899999976158}]","4350.099999964237","","","","","","","",""
"","survey-text","364","209808","0.0-364.0","374TNBHA8CHWZFIVNL96WQADOVVYQ5","A1NKBIJQGT0712","3S829FDFT2NBOHQMM1CIOU0HZYXDXL","","4716.100000023842","","","","","","","","{""Q0"":""A1NKBIJQGT0712""}"
