"success","trial_type","trial_index","time_elapsed","internal_node_id","assignmentID","mturkID","hitID","view_history","rt","stimulus","key_press","reactionTime","a","r","s","reward_cond","responses"
"true","fullscreen","0","3614","0.0-0.0","33F859I567ZN9EQHU38SF1KBCZIHBE","A1OZPLHNIU1519","3FW4EL5A3LANKRP91N782LFHPY722Q","","","","","","","","","",""
"","instructions","1","31709","0.0-1.0","33F859I567ZN9EQHU38SF1KBCZIHBE","A1OZPLHNIU1519","3FW4EL5A3LANKRP91N782LFHPY722Q","[{""page_index"":0,""viewing_time"":11134.800000011921},{""page_index"":1,""viewing_time"":1337.8999999761581},{""page_index"":2,""viewing_time"":1563.9000000357628},{""page_index"":3,""viewing_time"":3566.099999964237},{""page_index"":4,""viewing_time"":5545.800000011921},{""page_index"":5,""viewing_time"":2486.5},{""page_index"":6,""viewing_time"":1293.6000000238419},{""page_index"":7,""viewing_time"":1164.300000011921}]","28093.400000035763","","","","","","","",""
"","image-keyboard-response","2","33348","0.0-2.0","33F859I567ZN9EQHU38SF1KBCZIHBE","A1OZPLHNIU1519","3FW4EL5A3LANKRP91N782LFHPY722Q","","1638.300000011921","img/animal2.png","75","1639.300000011921","2","1","3","0.5,0,1,1,0.5,0,0,1,0.5",""
"","html-keyboard-response","3","33652","0.0-3.0","33F859I567ZN9EQHU38SF1KBCZIHBE","A1OZPLHNIU1519","3FW4EL5A3LANKRP91N782LFHPY722Q","","null","<img src=""img/animal2.png"" style=""width:200px; border:14px solid green;"">","null","","","","","",""
"","image-keyboard-response","4","34332","0.0-4.0","33F859I567ZN9EQHU38SF1KBCZIHBE","A1OZPLHNIU1519","3FW4EL5A3LANKRP91N782LFHPY722Q","","679","img/animal1.png","74","679.6999999880791","1","1","2","0.5,0,1,1,0.5,0,0,1,0.5",""
"","html-keyboard-response","5","34634","0.0-5.0","33F859I567ZN9EQHU38SF1KBCZIHBE","A1OZPLHNIU1519","3FW4EL5A3LANKRP91N782LFHPY722Q","","null","<img src=""img/animal1.png"" style=""width:200px; border:14px solid green;"">","null","","","","","",""
"","image-keyboard-response","6","35067","0.0-6.0","33F859I567ZN9EQHU38SF1KBCZIHBE","A1OZPLHNIU1519","3FW4EL5A3LANKRP91N782LFHPY722Q","","431.89999997615814","img/animal1.png","74","432.80000001192093","1","1","2","0.5,0,1,1,0.5,0,0,1,0.5",""
"","html-keyboard-response","7","35369","0.0-7.0","33F859I567ZN9EQHU38SF1KBCZIHBE","A1OZPLHNIU1519","3FW4EL5A3LANKRP91N782LFHPY722Q","","null","<img src=""img/animal1.png"" style=""width:200px; border:14px solid green;"">","null","","","","","",""
"","image-keyboard-response","8","35780","0.0-8.0","33F859I567ZN9EQHU38SF1KBCZIHBE","A1OZPLHNIU1519","3FW4EL5A3LANKRP91N782LFHPY722Q","","409.10000002384186","img/animal1.png","74","409.9000000357628","1","1","2","0.5,0,1,1,0.5,0,0,1,0.5",""
"","html-keyboard-response","9","36081","0.0-9.0","33F859I567ZN9EQHU38SF1KBCZIHBE","A1OZPLHNIU1519","3FW4EL5A3LANKRP91N782LFHPY722Q","","null","<img src=""img/animal1.png"" style=""width:200px; border:14px solid green;"">","null","","","","","",""
"","image-keyboard-response","10","36476","0.0-10.0","33F859I567ZN9EQHU38SF1KBCZIHBE","A1OZPLHNIU1519","3FW4EL5A3LANKRP91N782LFHPY722Q","","393.9000000357628","img/animal1.png","74","394.5999999642372","1","1","2","0.5,0,1,1,0.5,0,0,1,0.5",""
"","html-keyboard-response","11","36778","0.0-11.0","33F859I567ZN9EQHU38SF1KBCZIHBE","A1OZPLHNIU1519","3FW4EL5A3LANKRP91N782LFHPY722Q","","null","<img src=""img/animal1.png"" style=""width:200px; border:14px solid green;"">","null","","","","","",""
"","image-keyboard-response","12","37438","0.0-12.0","33F859I567ZN9EQHU38SF1KBCZIHBE","A1OZPLHNIU1519","3FW4EL5A3LANKRP91N782LFHPY722Q","","659.8999999761581","img/animal3.png","76","660.5","3","1","1","0.5,0,1,1,0.5,0,0,1,0.5",""
"","html-keyboard-response","13","37741","0.0-13.0","33F859I567ZN9EQHU38SF1KBCZIHBE","A1OZPLHNIU1519","3FW4EL5A3LANKRP91N782LFHPY722Q","","null","<img src=""img/animal3.png"" style=""width:200px; border:14px solid green;"">","null","","","","","",""
"","image-keyboard-response","14","38460","0.0-14.0","33F859I567ZN9EQHU38SF1KBCZIHBE","A1OZPLHNIU1519","3FW4EL5A3LANKRP91N782LFHPY722Q","","718.1000000238419","img/animal1.png","74","718.6999999880791","1","1","2","0.5,0,1,1,0.5,0,0,1,0.5",""
"","html-keyboard-response","15","38765","0.0-15.0","33F859I567ZN9EQHU38SF1KBCZIHBE","A1OZPLHNIU1519","3FW4EL5A3LANKRP91N782LFHPY722Q","","null","<img src=""img/animal1.png"" style=""width:200px; border:14px solid green;"">","null","","","","","",""
"","image-keyboard-response","16","39139","0.0-16.0","33F859I567ZN9EQHU38SF1KBCZIHBE","A1OZPLHNIU1519","3FW4EL5A3LANKRP91N782LFHPY722Q","","373","img/animal1.png","74","373.7000000476837","1","1","2","0.5,0,1,1,0.5,0,0,1,0.5",""
"","html-keyboard-response","17","39441","0.0-17.0","33F859I567ZN9EQHU38SF1KBCZIHBE","A1OZPLHNIU1519","3FW4EL5A3LANKRP91N782LFHPY722Q","","null","<img src=""img/animal1.png"" style=""width:200px; border:14px solid green;"">","null","","","","","",""
"","image-keyboard-response","18","40083","0.0-18.0","33F859I567ZN9EQHU38SF1KBCZIHBE","A1OZPLHNIU1519","3FW4EL5A3LANKRP91N782LFHPY722Q","","642.1000000238419","img/animal3.png","76","642.8000000119209","3","1","1","0.5,0,1,1,0.5,0,0,1,0.5",""
"","html-keyboard-response","19","40386","0.0-19.0","33F859I567ZN9EQHU38SF1KBCZIHBE","A1OZPLHNIU1519","3FW4EL5A3LANKRP91N782LFHPY722Q","","null","<img src=""img/animal3.png"" style=""width:200px; border:14px solid green;"">","null","","","","","",""
"","image-keyboard-response","20","40900","0.0-20.0","33F859I567ZN9EQHU38SF1KBCZIHBE","A1OZPLHNIU1519","3FW4EL5A3LANKRP91N782LFHPY722Q","","512.8000000119209","img/animal1.png","74","513.5999999642372","1","1","2","0.5,0,1,1,0.5,0,0,1,0.5",""
"","html-keyboard-response","21","41201","0.0-21.0","33F859I567ZN9EQHU38SF1KBCZIHBE","A1OZPLHNIU1519","3FW4EL5A3LANKRP91N782LFHPY722Q","","null","<img src=""img/animal1.png"" style=""width:200px; border:14px solid green;"">","null","","","","","",""
"","image-keyboard-response","22","41595","0.0-22.0","33F859I567ZN9EQHU38SF1KBCZIHBE","A1OZPLHNIU1519","3FW4EL5A3LANKRP91N782LFHPY722Q","","393.5999999642372","img/animal1.png","74","394.39999997615814","1","1","2","0.5,0,1,1,0.5,0,0,1,0.5",""
"","html-keyboard-response","23","41897","0.0-23.0","33F859I567ZN9EQHU38SF1KBCZIHBE","A1OZPLHNIU1519","3FW4EL5A3LANKRP91N782LFHPY722Q","","null","<img src=""img/animal1.png"" style=""width:200px; border:14px solid green;"">","null","","","","","",""
"","image-keyboard-response","24","42499","0.0-24.0","33F859I567ZN9EQHU38SF1KBCZIHBE","A1OZPLHNIU1519","3FW4EL5A3LANKRP91N782LFHPY722Q","","601.8999999761581","img/animal3.png","76","602.5","3","1","1","0.5,0,1,1,0.5,0,0,1,0.5",""
"","html-keyboard-response","25","42801","0.0-25.0","33F859I567ZN9EQHU38SF1KBCZIHBE","A1OZPLHNIU1519","3FW4EL5A3LANKRP91N782LFHPY722Q","","null","<img src=""img/animal3.png"" style=""width:200px; border:14px solid green;"">","null","","","","","",""
"","image-keyboard-response","26","43419","0.0-26.0","33F859I567ZN9EQHU38SF1KBCZIHBE","A1OZPLHNIU1519","3FW4EL5A3LANKRP91N782LFHPY722Q","","617.1999999880791","img/animal2.png","75","617.8999999761581","2","1","3","0.5,0,1,1,0.5,0,0,1,0.5",""
"","html-keyboard-response","27","43721","0.0-27.0","33F859I567ZN9EQHU38SF1KBCZIHBE","A1OZPLHNIU1519","3FW4EL5A3LANKRP91N782LFHPY722Q","","null","<img src=""img/animal2.png"" style=""width:200px; border:14px solid green;"">","null","","","","","",""
"","image-keyboard-response","28","44627","0.0-28.0","33F859I567ZN9EQHU38SF1KBCZIHBE","A1OZPLHNIU1519","3FW4EL5A3LANKRP91N782LFHPY722Q","","905.6000000238419","img/animal3.png","76","906.1999999880791","3","1","1","0.5,0,1,1,0.5,0,0,1,0.5",""
"","html-keyboard-response","29","44942","0.0-29.0","33F859I567ZN9EQHU38SF1KBCZIHBE","A1OZPLHNIU1519","3FW4EL5A3LANKRP91N782LFHPY722Q","","null","<img src=""img/animal3.png"" style=""width:200px; border:14px solid green;"">","null","","","","","",""
"","image-keyboard-response","30","45916","0.0-30.0","33F859I567ZN9EQHU38SF1KBCZIHBE","A1OZPLHNIU1519","3FW4EL5A3LANKRP91N782LFHPY722Q","","973","img/animal2.png","75","973.8000000119209","2","1","3","0.5,0,1,1,0.5,0,0,1,0.5",""
"","html-keyboard-response","31","46217","0.0-31.0","33F859I567ZN9EQHU38SF1KBCZIHBE","A1OZPLHNIU1519","3FW4EL5A3LANKRP91N782LFHPY722Q","","null","<img src=""img/animal2.png"" style=""width:200px; border:14px solid green;"">","null","","","","","",""
"","image-keyboard-response","32","47027","0.0-32.0","33F859I567ZN9EQHU38SF1KBCZIHBE","A1OZPLHNIU1519","3FW4EL5A3LANKRP91N782LFHPY722Q","","808.8999999761581","img/animal3.png","76","810","3","1","1","0.5,0,1,1,0.5,0,0,1,0.5",""
"","html-keyboard-response","33","47329","0.0-33.0","33F859I567ZN9EQHU38SF1KBCZIHBE","A1OZPLHNIU1519","3FW4EL5A3LANKRP91N782LFHPY722Q","","null","<img src=""img/animal3.png"" style=""width:200px; border:14px solid green;"">","null","","","","","",""
"","image-keyboard-response","34","47838","0.0-34.0","33F859I567ZN9EQHU38SF1KBCZIHBE","A1OZPLHNIU1519","3FW4EL5A3LANKRP91N782LFHPY722Q","","508.30000001192093","img/animal2.png","75","508.9000000357628","2","1","3","0.5,0,1,1,0.5,0,0,1,0.5",""
"","html-keyboard-response","35","48141","0.0-35.0","33F859I567ZN9EQHU38SF1KBCZIHBE","A1OZPLHNIU1519","3FW4EL5A3LANKRP91N782LFHPY722Q","","null","<img src=""img/animal2.png"" style=""width:200px; border:14px solid green;"">","null","","","","","",""
"","image-keyboard-response","36","48643","0.0-36.0","33F859I567ZN9EQHU38SF1KBCZIHBE","A1OZPLHNIU1519","3FW4EL5A3LANKRP91N782LFHPY722Q","","502.0999999642372","img/animal1.png","74","502.80000001192093","1","1","2","0.5,0,1,1,0.5,0,0,1,0.5",""
"","html-keyboard-response","37","48945","0.0-37.0","33F859I567ZN9EQHU38SF1KBCZIHBE","A1OZPLHNIU1519","3FW4EL5A3LANKRP91N782LFHPY722Q","","null","<img src=""img/animal1.png"" style=""width:200px; border:14px solid green;"">","null","","","","","",""
"","image-keyboard-response","38","49316","0.0-38.0","33F859I567ZN9EQHU38SF1KBCZIHBE","A1OZPLHNIU1519","3FW4EL5A3LANKRP91N782LFHPY722Q","","370.30000001192093","img/animal1.png","74","370.9000000357628","1","1","2","0.5,0,1,1,0.5,0,0,1,0.5",""
"","html-keyboard-response","39","49618","0.0-39.0","33F859I567ZN9EQHU38SF1KBCZIHBE","A1OZPLHNIU1519","3FW4EL5A3LANKRP91N782LFHPY722Q","","null","<img src=""img/animal1.png"" style=""width:200px; border:14px solid green;"">","null","","","","","",""
"","image-keyboard-response","40","50020","0.0-40.0","33F859I567ZN9EQHU38SF1KBCZIHBE","A1OZPLHNIU1519","3FW4EL5A3LANKRP91N782LFHPY722Q","","401.30000001192093","img/animal1.png","74","402.10000002384186","1","1","2","0.5,0,1,1,0.5,0,0,1,0.5",""
"","html-keyboard-response","41","50321","0.0-41.0","33F859I567ZN9EQHU38SF1KBCZIHBE","A1OZPLHNIU1519","3FW4EL5A3LANKRP91N782LFHPY722Q","","null","<img src=""img/animal1.png"" style=""width:200px; border:14px solid green;"">","null","","","","","",""
"","image-keyboard-response","42","51211","0.0-42.0","33F859I567ZN9EQHU38SF1KBCZIHBE","A1OZPLHNIU1519","3FW4EL5A3LANKRP91N782LFHPY722Q","","889.1999999880791","img/animal3.png","76","890","3","1","1","0.5,0,1,1,0.5,0,0,1,0.5",""
"","html-keyboard-response","43","51513","0.0-43.0","33F859I567ZN9EQHU38SF1KBCZIHBE","A1OZPLHNIU1519","3FW4EL5A3LANKRP91N782LFHPY722Q","","null","<img src=""img/animal3.png"" style=""width:200px; border:14px solid green;"">","null","","","","","",""
"","image-keyboard-response","44","52035","0.0-44.0","33F859I567ZN9EQHU38SF1KBCZIHBE","A1OZPLHNIU1519","3FW4EL5A3LANKRP91N782LFHPY722Q","","521.4000000357628","img/animal3.png","76","522","3","1","1","0.5,0,1,1,0.5,0,0,1,0.5",""
"","html-keyboard-response","45","52337","0.0-45.0","33F859I567ZN9EQHU38SF1KBCZIHBE","A1OZPLHNIU1519","3FW4EL5A3LANKRP91N782LFHPY722Q","","null","<img src=""img/animal3.png"" style=""width:200px; border:14px solid green;"">","null","","","","","",""
"","image-keyboard-response","46","52756","0.0-46.0","33F859I567ZN9EQHU38SF1KBCZIHBE","A1OZPLHNIU1519","3FW4EL5A3LANKRP91N782LFHPY722Q","","417.80000001192093","img/animal3.png","76","418.5","3","1","1","0.5,0,1,1,0.5,0,0,1,0.5",""
"","html-keyboard-response","47","53057","0.0-47.0","33F859I567ZN9EQHU38SF1KBCZIHBE","A1OZPLHNIU1519","3FW4EL5A3LANKRP91N782LFHPY722Q","","null","<img src=""img/animal3.png"" style=""width:200px; border:14px solid green;"">","null","","","","","",""
"","image-keyboard-response","48","53476","0.0-48.0","33F859I567ZN9EQHU38SF1KBCZIHBE","A1OZPLHNIU1519","3FW4EL5A3LANKRP91N782LFHPY722Q","","417.30000001192093","img/animal3.png","76","418.0999999642372","3","1","1","0.5,0,1,1,0.5,0,0,1,0.5",""
"","html-keyboard-response","49","53777","0.0-49.0","33F859I567ZN9EQHU38SF1KBCZIHBE","A1OZPLHNIU1519","3FW4EL5A3LANKRP91N782LFHPY722Q","","null","<img src=""img/animal3.png"" style=""width:200px; border:14px solid green;"">","null","","","","","",""
"","image-keyboard-response","50","54428","0.0-50.0","33F859I567ZN9EQHU38SF1KBCZIHBE","A1OZPLHNIU1519","3FW4EL5A3LANKRP91N782LFHPY722Q","","650","img/animal1.png","74","650.6000000238419","1","1","2","0.5,0,1,1,0.5,0,0,1,0.5",""
"","html-keyboard-response","51","54730","0.0-51.0","33F859I567ZN9EQHU38SF1KBCZIHBE","A1OZPLHNIU1519","3FW4EL5A3LANKRP91N782LFHPY722Q","","null","<img src=""img/animal1.png"" style=""width:200px; border:14px solid green;"">","null","","","","","",""
"","image-keyboard-response","52","55116","0.0-52.0","33F859I567ZN9EQHU38SF1KBCZIHBE","A1OZPLHNIU1519","3FW4EL5A3LANKRP91N782LFHPY722Q","","385.19999998807907","img/animal1.png","74","385.80000001192093","1","1","2","0.5,0,1,1,0.5,0,0,1,0.5",""
"","html-keyboard-response","53","55417","0.0-53.0","33F859I567ZN9EQHU38SF1KBCZIHBE","A1OZPLHNIU1519","3FW4EL5A3LANKRP91N782LFHPY722Q","","null","<img src=""img/animal1.png"" style=""width:200px; border:14px solid green;"">","null","","","","","",""
"","image-keyboard-response","54","55948","0.0-54.0","33F859I567ZN9EQHU38SF1KBCZIHBE","A1OZPLHNIU1519","3FW4EL5A3LANKRP91N782LFHPY722Q","","530","img/animal2.png","75","530.6999999880791","2","1","3","0.5,0,1,1,0.5,0,0,1,0.5",""
"","html-keyboard-response","55","56250","0.0-55.0","33F859I567ZN9EQHU38SF1KBCZIHBE","A1OZPLHNIU1519","3FW4EL5A3LANKRP91N782LFHPY722Q","","null","<img src=""img/animal2.png"" style=""width:200px; border:14px solid green;"">","null","","","","","",""
"","image-keyboard-response","56","56635","0.0-56.0","33F859I567ZN9EQHU38SF1KBCZIHBE","A1OZPLHNIU1519","3FW4EL5A3LANKRP91N782LFHPY722Q","","384.89999997615814","img/animal2.png","75","385.5","2","1","3","0.5,0,1,1,0.5,0,0,1,0.5",""
"","html-keyboard-response","57","56938","0.0-57.0","33F859I567ZN9EQHU38SF1KBCZIHBE","A1OZPLHNIU1519","3FW4EL5A3LANKRP91N782LFHPY722Q","","null","<img src=""img/animal2.png"" style=""width:200px; border:14px solid green;"">","null","","","","","",""
"","image-keyboard-response","58","57332","0.0-58.0","33F859I567ZN9EQHU38SF1KBCZIHBE","A1OZPLHNIU1519","3FW4EL5A3LANKRP91N782LFHPY722Q","","393.19999998807907","img/animal2.png","75","393.80000001192093","2","1","3","0.5,0,1,1,0.5,0,0,1,0.5",""
"","html-keyboard-response","59","57633","0.0-59.0","33F859I567ZN9EQHU38SF1KBCZIHBE","A1OZPLHNIU1519","3FW4EL5A3LANKRP91N782LFHPY722Q","","null","<img src=""img/animal2.png"" style=""width:200px; border:14px solid green;"">","null","","","","","",""
"","image-keyboard-response","60","58014","0.0-60.0","33F859I567ZN9EQHU38SF1KBCZIHBE","A1OZPLHNIU1519","3FW4EL5A3LANKRP91N782LFHPY722Q","","380.19999998807907","img/animal2.png","75","380.80000001192093","2","1","3","0.5,0,1,1,0.5,0,0,1,0.5",""
"","html-keyboard-response","61","58316","0.0-61.0","33F859I567ZN9EQHU38SF1KBCZIHBE","A1OZPLHNIU1519","3FW4EL5A3LANKRP91N782LFHPY722Q","","null","<img src=""img/animal2.png"" style=""width:200px; border:14px solid green;"">","null","","","","","",""
"","image-keyboard-response","62","59043","0.0-62.0","33F859I567ZN9EQHU38SF1KBCZIHBE","A1OZPLHNIU1519","3FW4EL5A3LANKRP91N782LFHPY722Q","","726.5","img/animal1.png","74","727","1","1","2","0.5,0,1,1,0.5,0,0,1,0.5",""
"","html-keyboard-response","63","59344","0.0-63.0","33F859I567ZN9EQHU38SF1KBCZIHBE","A1OZPLHNIU1519","3FW4EL5A3LANKRP91N782LFHPY722Q","","null","<img src=""img/animal1.png"" style=""width:200px; border:14px solid green;"">","null","","","","","",""
"","image-keyboard-response","64","59940","0.0-64.0","33F859I567ZN9EQHU38SF1KBCZIHBE","A1OZPLHNIU1519","3FW4EL5A3LANKRP91N782LFHPY722Q","","594.8000000119209","img/animal2.png","75","595.5","2","1","3","0.5,0,1,1,0.5,0,0,1,0.5",""
"","html-keyboard-response","65","60242","0.0-65.0","33F859I567ZN9EQHU38SF1KBCZIHBE","A1OZPLHNIU1519","3FW4EL5A3LANKRP91N782LFHPY722Q","","null","<img src=""img/animal2.png"" style=""width:200px; border:14px solid green;"">","null","","","","","",""
"","image-keyboard-response","66","60628","0.0-66.0","33F859I567ZN9EQHU38SF1KBCZIHBE","A1OZPLHNIU1519","3FW4EL5A3LANKRP91N782LFHPY722Q","","384.89999997615814","img/animal2.png","75","385.5","2","1","3","0.5,0,1,1,0.5,0,0,1,0.5",""
"","html-keyboard-response","67","60929","0.0-67.0","33F859I567ZN9EQHU38SF1KBCZIHBE","A1OZPLHNIU1519","3FW4EL5A3LANKRP91N782LFHPY722Q","","null","<img src=""img/animal2.png"" style=""width:200px; border:14px solid green;"">","null","","","","","",""
"","image-keyboard-response","68","61436","0.0-68.0","33F859I567ZN9EQHU38SF1KBCZIHBE","A1OZPLHNIU1519","3FW4EL5A3LANKRP91N782LFHPY722Q","","505.5","img/animal1.png","74","506.10000002384186","1","1","2","0.5,0,1,1,0.5,0,0,1,0.5",""
"","html-keyboard-response","69","61737","0.0-69.0","33F859I567ZN9EQHU38SF1KBCZIHBE","A1OZPLHNIU1519","3FW4EL5A3LANKRP91N782LFHPY722Q","","null","<img src=""img/animal1.png"" style=""width:200px; border:14px solid green;"">","null","","","","","",""
"","image-keyboard-response","70","62284","0.0-70.0","33F859I567ZN9EQHU38SF1KBCZIHBE","A1OZPLHNIU1519","3FW4EL5A3LANKRP91N782LFHPY722Q","","545.6999999880791","img/animal2.png","75","546.3999999761581","2","1","3","0.5,0,1,1,0.5,0,0,1,0.5",""
"","html-keyboard-response","71","62586","0.0-71.0","33F859I567ZN9EQHU38SF1KBCZIHBE","A1OZPLHNIU1519","3FW4EL5A3LANKRP91N782LFHPY722Q","","null","<img src=""img/animal2.png"" style=""width:200px; border:14px solid green;"">","null","","","","","",""
"","image-keyboard-response","72","62916","0.0-72.0","33F859I567ZN9EQHU38SF1KBCZIHBE","A1OZPLHNIU1519","3FW4EL5A3LANKRP91N782LFHPY722Q","","328.60000002384186","img/animal2.png","75","329.30000001192093","2","1","3","0.5,0,1,1,0.5,0,0,1,0.5",""
"","html-keyboard-response","73","63217","0.0-73.0","33F859I567ZN9EQHU38SF1KBCZIHBE","A1OZPLHNIU1519","3FW4EL5A3LANKRP91N782LFHPY722Q","","null","<img src=""img/animal2.png"" style=""width:200px; border:14px solid green;"">","null","","","","","",""
"","image-keyboard-response","74","63596","0.0-74.0","33F859I567ZN9EQHU38SF1KBCZIHBE","A1OZPLHNIU1519","3FW4EL5A3LANKRP91N782LFHPY722Q","","377.7000000476837","img/animal2.png","75","378.30000001192093","2","1","3","0.5,0,1,1,0.5,0,0,1,0.5",""
"","html-keyboard-response","75","63897","0.0-75.0","33F859I567ZN9EQHU38SF1KBCZIHBE","A1OZPLHNIU1519","3FW4EL5A3LANKRP91N782LFHPY722Q","","null","<img src=""img/animal2.png"" style=""width:200px; border:14px solid green;"">","null","","","","","",""
"","image-keyboard-response","76","64387","0.0-76.0","33F859I567ZN9EQHU38SF1KBCZIHBE","A1OZPLHNIU1519","3FW4EL5A3LANKRP91N782LFHPY722Q","","490.0999999642372","img/animal1.png","74","490.7000000476837","1","1","2","0.5,0,1,1,0.5,0,0,1,0.5",""
"","html-keyboard-response","77","64690","0.0-77.0","33F859I567ZN9EQHU38SF1KBCZIHBE","A1OZPLHNIU1519","3FW4EL5A3LANKRP91N782LFHPY722Q","","null","<img src=""img/animal1.png"" style=""width:200px; border:14px solid green;"">","null","","","","","",""
"","image-keyboard-response","78","65316","0.0-78.0","33F859I567ZN9EQHU38SF1KBCZIHBE","A1OZPLHNIU1519","3FW4EL5A3LANKRP91N782LFHPY722Q","","624.7000000476837","img/animal3.png","76","625.4000000357628","3","1","1","0.5,0,1,1,0.5,0,0,1,0.5",""
"","html-keyboard-response","79","65618","0.0-79.0","33F859I567ZN9EQHU38SF1KBCZIHBE","A1OZPLHNIU1519","3FW4EL5A3LANKRP91N782LFHPY722Q","","null","<img src=""img/animal3.png"" style=""width:200px; border:14px solid green;"">","null","","","","","",""
"","image-keyboard-response","80","65980","0.0-80.0","33F859I567ZN9EQHU38SF1KBCZIHBE","A1OZPLHNIU1519","3FW4EL5A3LANKRP91N782LFHPY722Q","","361","img/animal3.png","76","361.5","3","1","1","0.5,0,1,1,0.5,0,0,1,0.5",""
"","html-keyboard-response","81","66282","0.0-81.0","33F859I567ZN9EQHU38SF1KBCZIHBE","A1OZPLHNIU1519","3FW4EL5A3LANKRP91N782LFHPY722Q","","null","<img src=""img/animal3.png"" style=""width:200px; border:14px solid green;"">","null","","","","","",""
"","image-keyboard-response","82","66923","0.0-82.0","33F859I567ZN9EQHU38SF1KBCZIHBE","A1OZPLHNIU1519","3FW4EL5A3LANKRP91N782LFHPY722Q","","641","img/animal1.png","74","641.5","1","1","2","0.5,0,1,1,0.5,0,0,1,0.5",""
"","html-keyboard-response","83","67224","0.0-83.0","33F859I567ZN9EQHU38SF1KBCZIHBE","A1OZPLHNIU1519","3FW4EL5A3LANKRP91N782LFHPY722Q","","null","<img src=""img/animal1.png"" style=""width:200px; border:14px solid green;"">","null","","","","","",""
"","image-keyboard-response","84","68011","0.0-84.0","33F859I567ZN9EQHU38SF1KBCZIHBE","A1OZPLHNIU1519","3FW4EL5A3LANKRP91N782LFHPY722Q","","786.6000000238419","img/animal3.png","76","787.1999999880791","3","1","1","0.5,0,1,1,0.5,0,0,1,0.5",""
"","html-keyboard-response","85","68313","0.0-85.0","33F859I567ZN9EQHU38SF1KBCZIHBE","A1OZPLHNIU1519","3FW4EL5A3LANKRP91N782LFHPY722Q","","null","<img src=""img/animal3.png"" style=""width:200px; border:14px solid green;"">","null","","","","","",""
"","image-keyboard-response","86","68726","0.0-86.0","33F859I567ZN9EQHU38SF1KBCZIHBE","A1OZPLHNIU1519","3FW4EL5A3LANKRP91N782LFHPY722Q","","412.10000002384186","img/animal3.png","76","412.5999999642372","3","1","1","0.5,0,1,1,0.5,0,0,1,0.5",""
"","html-keyboard-response","87","69028","0.0-87.0","33F859I567ZN9EQHU38SF1KBCZIHBE","A1OZPLHNIU1519","3FW4EL5A3LANKRP91N782LFHPY722Q","","null","<img src=""img/animal3.png"" style=""width:200px; border:14px solid green;"">","null","","","","","",""
"","image-keyboard-response","88","69523","0.0-88.0","33F859I567ZN9EQHU38SF1KBCZIHBE","A1OZPLHNIU1519","3FW4EL5A3LANKRP91N782LFHPY722Q","","494.9000000357628","img/animal2.png","75","495.5","2","1","3","0.5,0,1,1,0.5,0,0,1,0.5",""
"","html-keyboard-response","89","69825","0.0-89.0","33F859I567ZN9EQHU38SF1KBCZIHBE","A1OZPLHNIU1519","3FW4EL5A3LANKRP91N782LFHPY722Q","","null","<img src=""img/animal2.png"" style=""width:200px; border:14px solid green;"">","null","","","","","",""
"","image-keyboard-response","90","70203","0.0-90.0","33F859I567ZN9EQHU38SF1KBCZIHBE","A1OZPLHNIU1519","3FW4EL5A3LANKRP91N782LFHPY722Q","","377.60000002384186","img/animal2.png","75","378.10000002384186","2","1","3","0.5,0,1,1,0.5,0,0,1,0.5",""
"","html-keyboard-response","91","70505","0.0-91.0","33F859I567ZN9EQHU38SF1KBCZIHBE","A1OZPLHNIU1519","3FW4EL5A3LANKRP91N782LFHPY722Q","","null","<img src=""img/animal2.png"" style=""width:200px; border:14px solid green;"">","null","","","","","",""
"","image-keyboard-response","92","70836","0.0-92.0","33F859I567ZN9EQHU38SF1KBCZIHBE","A1OZPLHNIU1519","3FW4EL5A3LANKRP91N782LFHPY722Q","","330.0999999642372","img/animal2.png","75","330.7000000476837","2","1","3","0.5,0,1,1,0.5,0,0,1,0.5",""
"","html-keyboard-response","93","71138","0.0-93.0","33F859I567ZN9EQHU38SF1KBCZIHBE","A1OZPLHNIU1519","3FW4EL5A3LANKRP91N782LFHPY722Q","","null","<img src=""img/animal2.png"" style=""width:200px; border:14px solid green;"">","null","","","","","",""
"","image-keyboard-response","94","71683","0.0-94.0","33F859I567ZN9EQHU38SF1KBCZIHBE","A1OZPLHNIU1519","3FW4EL5A3LANKRP91N782LFHPY722Q","","544.2999999523163","img/animal1.png","74","545","1","1","2","0.5,0,1,1,0.5,0,0,1,0.5",""
"","html-keyboard-response","95","71985","0.0-95.0","33F859I567ZN9EQHU38SF1KBCZIHBE","A1OZPLHNIU1519","3FW4EL5A3LANKRP91N782LFHPY722Q","","null","<img src=""img/animal1.png"" style=""width:200px; border:14px solid green;"">","null","","","","","",""
"","image-keyboard-response","96","72643","0.0-96.0","33F859I567ZN9EQHU38SF1KBCZIHBE","A1OZPLHNIU1519","3FW4EL5A3LANKRP91N782LFHPY722Q","","657.1999999880791","img/animal3.png","76","657.7999999523163","3","1","1","0.5,0,1,1,0.5,0,0,1,0.5",""
"","html-keyboard-response","97","72944","0.0-97.0","33F859I567ZN9EQHU38SF1KBCZIHBE","A1OZPLHNIU1519","3FW4EL5A3LANKRP91N782LFHPY722Q","","null","<img src=""img/animal3.png"" style=""width:200px; border:14px solid green;"">","null","","","","","",""
"","image-keyboard-response","98","73316","0.0-98.0","33F859I567ZN9EQHU38SF1KBCZIHBE","A1OZPLHNIU1519","3FW4EL5A3LANKRP91N782LFHPY722Q","","370.39999997615814","img/animal3.png","76","371","3","1","1","0.5,0,1,1,0.5,0,0,1,0.5",""
"","html-keyboard-response","99","73618","0.0-99.0","33F859I567ZN9EQHU38SF1KBCZIHBE","A1OZPLHNIU1519","3FW4EL5A3LANKRP91N782LFHPY722Q","","null","<img src=""img/animal3.png"" style=""width:200px; border:14px solid green;"">","null","","","","","",""
"","image-keyboard-response","100","73988","0.0-100.0","33F859I567ZN9EQHU38SF1KBCZIHBE","A1OZPLHNIU1519","3FW4EL5A3LANKRP91N782LFHPY722Q","","369.10000002384186","img/animal3.png","76","369.80000001192093","3","1","1","0.5,0,1,1,0.5,0,0,1,0.5",""
"","html-keyboard-response","101","74289","0.0-101.0","33F859I567ZN9EQHU38SF1KBCZIHBE","A1OZPLHNIU1519","3FW4EL5A3LANKRP91N782LFHPY722Q","","null","<img src=""img/animal3.png"" style=""width:200px; border:14px solid green;"">","null","","","","","",""
"","image-keyboard-response","102","74780","0.0-102.0","33F859I567ZN9EQHU38SF1KBCZIHBE","A1OZPLHNIU1519","3FW4EL5A3LANKRP91N782LFHPY722Q","","489.69999998807907","img/animal1.png","74","490.30000001192093","1","1","2","0.5,0,1,1,0.5,0,0,1,0.5",""
"","html-keyboard-response","103","75081","0.0-103.0","33F859I567ZN9EQHU38SF1KBCZIHBE","A1OZPLHNIU1519","3FW4EL5A3LANKRP91N782LFHPY722Q","","null","<img src=""img/animal1.png"" style=""width:200px; border:14px solid green;"">","null","","","","","",""
"","image-keyboard-response","104","75668","0.0-104.0","33F859I567ZN9EQHU38SF1KBCZIHBE","A1OZPLHNIU1519","3FW4EL5A3LANKRP91N782LFHPY722Q","","585.5","img/animal3.png","76","586.0999999642372","3","1","1","0.5,0,1,1,0.5,0,0,1,0.5",""
"","html-keyboard-response","105","75969","0.0-105.0","33F859I567ZN9EQHU38SF1KBCZIHBE","A1OZPLHNIU1519","3FW4EL5A3LANKRP91N782LFHPY722Q","","null","<img src=""img/animal3.png"" style=""width:200px; border:14px solid green;"">","null","","","","","",""
"","image-keyboard-response","106","76563","0.0-106.0","33F859I567ZN9EQHU38SF1KBCZIHBE","A1OZPLHNIU1519","3FW4EL5A3LANKRP91N782LFHPY722Q","","593.1999999880791","img/animal1.png","74","593.7999999523163","1","1","2","0.5,0,1,1,0.5,0,0,1,0.5",""
"","html-keyboard-response","107","76864","0.0-107.0","33F859I567ZN9EQHU38SF1KBCZIHBE","A1OZPLHNIU1519","3FW4EL5A3LANKRP91N782LFHPY722Q","","null","<img src=""img/animal1.png"" style=""width:200px; border:14px solid green;"">","null","","","","","",""
"","image-keyboard-response","108","77540","0.0-108.0","33F859I567ZN9EQHU38SF1KBCZIHBE","A1OZPLHNIU1519","3FW4EL5A3LANKRP91N782LFHPY722Q","","674.7000000476837","img/animal2.png","75","675.3999999761581","2","1","3","0.5,0,1,1,0.5,0,0,1,0.5",""
"","html-keyboard-response","109","77842","0.0-109.0","33F859I567ZN9EQHU38SF1KBCZIHBE","A1OZPLHNIU1519","3FW4EL5A3LANKRP91N782LFHPY722Q","","null","<img src=""img/animal2.png"" style=""width:200px; border:14px solid green;"">","null","","","","","",""
"","image-keyboard-response","110","78991","0.0-110.0","33F859I567ZN9EQHU38SF1KBCZIHBE","A1OZPLHNIU1519","3FW4EL5A3LANKRP91N782LFHPY722Q","","1148.5","img/animal3.png","76","1149.0999999642372","3","1","1","0.5,0,1,1,0.5,0,0,1,0.5",""
"","html-keyboard-response","111","79293","0.0-111.0","33F859I567ZN9EQHU38SF1KBCZIHBE","A1OZPLHNIU1519","3FW4EL5A3LANKRP91N782LFHPY722Q","","null","<img src=""img/animal3.png"" style=""width:200px; border:14px solid green;"">","null","","","","","",""
"","image-keyboard-response","112","79860","0.0-112.0","33F859I567ZN9EQHU38SF1KBCZIHBE","A1OZPLHNIU1519","3FW4EL5A3LANKRP91N782LFHPY722Q","","565.8000000119209","img/animal2.png","75","566.5","2","1","3","0.5,0,1,1,0.5,0,0,1,0.5",""
"","html-keyboard-response","113","80161","0.0-113.0","33F859I567ZN9EQHU38SF1KBCZIHBE","A1OZPLHNIU1519","3FW4EL5A3LANKRP91N782LFHPY722Q","","null","<img src=""img/animal2.png"" style=""width:200px; border:14px solid green;"">","null","","","","","",""
"","image-keyboard-response","114","80780","0.0-114.0","33F859I567ZN9EQHU38SF1KBCZIHBE","A1OZPLHNIU1519","3FW4EL5A3LANKRP91N782LFHPY722Q","","617.6000000238419","img/animal3.png","76","618.1999999880791","3","1","1","0.5,0,1,1,0.5,0,0,1,0.5",""
"","html-keyboard-response","115","81081","0.0-115.0","33F859I567ZN9EQHU38SF1KBCZIHBE","A1OZPLHNIU1519","3FW4EL5A3LANKRP91N782LFHPY722Q","","null","<img src=""img/animal3.png"" style=""width:200px; border:14px solid green;"">","null","","","","","",""
"","image-keyboard-response","116","81644","0.0-116.0","33F859I567ZN9EQHU38SF1KBCZIHBE","A1OZPLHNIU1519","3FW4EL5A3LANKRP91N782LFHPY722Q","","561.5","img/animal2.png","75","562.0999999642372","2","1","3","0.5,0,1,1,0.5,0,0,1,0.5",""
"","html-keyboard-response","117","81945","0.0-117.0","33F859I567ZN9EQHU38SF1KBCZIHBE","A1OZPLHNIU1519","3FW4EL5A3LANKRP91N782LFHPY722Q","","null","<img src=""img/animal2.png"" style=""width:200px; border:14px solid green;"">","null","","","","","",""
"","image-keyboard-response","118","82412","0.0-118.0","33F859I567ZN9EQHU38SF1KBCZIHBE","A1OZPLHNIU1519","3FW4EL5A3LANKRP91N782LFHPY722Q","","465.80000001192093","img/animal1.png","74","466.5","1","1","2","0.5,0,1,1,0.5,0,0,1,0.5",""
"","html-keyboard-response","119","82721","0.0-119.0","33F859I567ZN9EQHU38SF1KBCZIHBE","A1OZPLHNIU1519","3FW4EL5A3LANKRP91N782LFHPY722Q","","null","<img src=""img/animal1.png"" style=""width:200px; border:14px solid green;"">","null","","","","","",""
"","image-keyboard-response","120","83412","0.0-120.0","33F859I567ZN9EQHU38SF1KBCZIHBE","A1OZPLHNIU1519","3FW4EL5A3LANKRP91N782LFHPY722Q","","689.8999999761581","img/animal3.png","76","690.6999999880791","3","1","1","0.5,0,1,1,0.5,0,0,1,0.5",""
"","html-keyboard-response","121","83713","0.0-121.0","33F859I567ZN9EQHU38SF1KBCZIHBE","A1OZPLHNIU1519","3FW4EL5A3LANKRP91N782LFHPY722Q","","null","<img src=""img/animal3.png"" style=""width:200px; border:14px solid green;"">","null","","","","","",""
"","image-keyboard-response","122","84316","0.0-122.0","33F859I567ZN9EQHU38SF1KBCZIHBE","A1OZPLHNIU1519","3FW4EL5A3LANKRP91N782LFHPY722Q","","602","img/animal1.png","74","602.6999999880791","1","1","2","0.5,0,1,1,0.5,0,0,1,0.5",""
"","html-keyboard-response","123","84617","0.0-123.0","33F859I567ZN9EQHU38SF1KBCZIHBE","A1OZPLHNIU1519","3FW4EL5A3LANKRP91N782LFHPY722Q","","null","<img src=""img/animal1.png"" style=""width:200px; border:14px solid green;"">","null","","","","","",""
"","image-keyboard-response","124","85083","0.0-124.0","33F859I567ZN9EQHU38SF1KBCZIHBE","A1OZPLHNIU1519","3FW4EL5A3LANKRP91N782LFHPY722Q","","466","img/animal2.png","75","466.5","2","1","3","0.5,0,1,1,0.5,0,0,1,0.5",""
"","html-keyboard-response","125","85391","0.0-125.0","33F859I567ZN9EQHU38SF1KBCZIHBE","A1OZPLHNIU1519","3FW4EL5A3LANKRP91N782LFHPY722Q","","null","<img src=""img/animal2.png"" style=""width:200px; border:14px solid green;"">","null","","","","","",""
"","image-keyboard-response","126","85868","0.0-126.0","33F859I567ZN9EQHU38SF1KBCZIHBE","A1OZPLHNIU1519","3FW4EL5A3LANKRP91N782LFHPY722Q","","475.9000000357628","img/animal2.png","75","476.5999999642372","2","1","3","0.5,0,1,1,0.5,0,0,1,0.5",""
"","html-keyboard-response","127","86169","0.0-127.0","33F859I567ZN9EQHU38SF1KBCZIHBE","A1OZPLHNIU1519","3FW4EL5A3LANKRP91N782LFHPY722Q","","null","<img src=""img/animal2.png"" style=""width:200px; border:14px solid green;"">","null","","","","","",""
"","image-keyboard-response","128","86956","0.0-128.0","33F859I567ZN9EQHU38SF1KBCZIHBE","A1OZPLHNIU1519","3FW4EL5A3LANKRP91N782LFHPY722Q","","785.3999999761581","img/animal3.png","76","786","3","1","1","0.5,0,1,1,0.5,0,0,1,0.5",""
"","html-keyboard-response","129","87257","0.0-129.0","33F859I567ZN9EQHU38SF1KBCZIHBE","A1OZPLHNIU1519","3FW4EL5A3LANKRP91N782LFHPY722Q","","null","<img src=""img/animal3.png"" style=""width:200px; border:14px solid green;"">","null","","","","","",""
"","image-keyboard-response","130","87876","0.0-130.0","33F859I567ZN9EQHU38SF1KBCZIHBE","A1OZPLHNIU1519","3FW4EL5A3LANKRP91N782LFHPY722Q","","617.8000000119209","img/animal2.png","75","618.5","2","1","3","0.5,0,1,1,0.5,0,0,1,0.5",""
"","html-keyboard-response","131","88177","0.0-131.0","33F859I567ZN9EQHU38SF1KBCZIHBE","A1OZPLHNIU1519","3FW4EL5A3LANKRP91N782LFHPY722Q","","null","<img src=""img/animal2.png"" style=""width:200px; border:14px solid green;"">","null","","","","","",""
"","image-keyboard-response","132","88811","0.0-132.0","33F859I567ZN9EQHU38SF1KBCZIHBE","A1OZPLHNIU1519","3FW4EL5A3LANKRP91N782LFHPY722Q","","633.8999999761581","img/animal3.png","76","634.4000000357628","3","1","1","0.5,0,1,1,0.5,0,0,1,0.5",""
"","html-keyboard-response","133","89113","0.0-133.0","33F859I567ZN9EQHU38SF1KBCZIHBE","A1OZPLHNIU1519","3FW4EL5A3LANKRP91N782LFHPY722Q","","null","<img src=""img/animal3.png"" style=""width:200px; border:14px solid green;"">","null","","","","","",""
"","image-keyboard-response","134","89807","0.0-134.0","33F859I567ZN9EQHU38SF1KBCZIHBE","A1OZPLHNIU1519","3FW4EL5A3LANKRP91N782LFHPY722Q","","692.6999999880791","img/animal1.png","74","693.3000000119209","1","1","2","0.5,0,1,1,0.5,0,0,1,0.5",""
"","html-keyboard-response","135","90109","0.0-135.0","33F859I567ZN9EQHU38SF1KBCZIHBE","A1OZPLHNIU1519","3FW4EL5A3LANKRP91N782LFHPY722Q","","null","<img src=""img/animal1.png"" style=""width:200px; border:14px solid green;"">","null","","","","","",""
"","image-keyboard-response","136","90475","0.0-136.0","33F859I567ZN9EQHU38SF1KBCZIHBE","A1OZPLHNIU1519","3FW4EL5A3LANKRP91N782LFHPY722Q","","366","img/animal1.png","74","366.7000000476837","1","1","2","0.5,0,1,1,0.5,0,0,1,0.5",""
"","html-keyboard-response","137","90776","0.0-137.0","33F859I567ZN9EQHU38SF1KBCZIHBE","A1OZPLHNIU1519","3FW4EL5A3LANKRP91N782LFHPY722Q","","null","<img src=""img/animal1.png"" style=""width:200px; border:14px solid green;"">","null","","","","","",""
"","image-keyboard-response","138","91252","0.0-138.0","33F859I567ZN9EQHU38SF1KBCZIHBE","A1OZPLHNIU1519","3FW4EL5A3LANKRP91N782LFHPY722Q","","474.39999997615814","img/animal1.png","74","475.10000002384186","1","1","2","0.5,0,1,1,0.5,0,0,1,0.5",""
"","html-keyboard-response","139","91554","0.0-139.0","33F859I567ZN9EQHU38SF1KBCZIHBE","A1OZPLHNIU1519","3FW4EL5A3LANKRP91N782LFHPY722Q","","null","<img src=""img/animal1.png"" style=""width:200px; border:14px solid green;"">","null","","","","","",""
"","image-keyboard-response","140","91972","0.0-140.0","33F859I567ZN9EQHU38SF1KBCZIHBE","A1OZPLHNIU1519","3FW4EL5A3LANKRP91N782LFHPY722Q","","416.69999998807907","img/animal1.png","74","417.39999997615814","1","1","2","0.5,0,1,1,0.5,0,0,1,0.5",""
"","html-keyboard-response","141","92274","0.0-141.0","33F859I567ZN9EQHU38SF1KBCZIHBE","A1OZPLHNIU1519","3FW4EL5A3LANKRP91N782LFHPY722Q","","null","<img src=""img/animal1.png"" style=""width:200px; border:14px solid green;"">","null","","","","","",""
"","image-keyboard-response","142","92916","0.0-142.0","33F859I567ZN9EQHU38SF1KBCZIHBE","A1OZPLHNIU1519","3FW4EL5A3LANKRP91N782LFHPY722Q","","641.1000000238419","img/animal3.png","76","641.8000000119209","3","1","1","0.5,0,1,1,0.5,0,0,1,0.5",""
"","html-keyboard-response","143","93217","0.0-143.0","33F859I567ZN9EQHU38SF1KBCZIHBE","A1OZPLHNIU1519","3FW4EL5A3LANKRP91N782LFHPY722Q","","null","<img src=""img/animal3.png"" style=""width:200px; border:14px solid green;"">","null","","","","","",""
"","image-keyboard-response","144","93732","0.0-144.0","33F859I567ZN9EQHU38SF1KBCZIHBE","A1OZPLHNIU1519","3FW4EL5A3LANKRP91N782LFHPY722Q","","513.5","img/animal2.png","75","514","2","1","3","0.5,0,1,1,0.5,0,0,1,0.5",""
"","html-keyboard-response","145","94033","0.0-145.0","33F859I567ZN9EQHU38SF1KBCZIHBE","A1OZPLHNIU1519","3FW4EL5A3LANKRP91N782LFHPY722Q","","null","<img src=""img/animal2.png"" style=""width:200px; border:14px solid green;"">","null","","","","","",""
"","image-keyboard-response","146","94572","0.0-146.0","33F859I567ZN9EQHU38SF1KBCZIHBE","A1OZPLHNIU1519","3FW4EL5A3LANKRP91N782LFHPY722Q","","537.6000000238419","img/animal1.png","74","538.1999999880791","1","1","2","0.5,0,1,1,0.5,0,0,1,0.5",""
"","html-keyboard-response","147","94874","0.0-147.0","33F859I567ZN9EQHU38SF1KBCZIHBE","A1OZPLHNIU1519","3FW4EL5A3LANKRP91N782LFHPY722Q","","null","<img src=""img/animal1.png"" style=""width:200px; border:14px solid green;"">","null","","","","","",""
"","image-keyboard-response","148","95708","0.0-148.0","33F859I567ZN9EQHU38SF1KBCZIHBE","A1OZPLHNIU1519","3FW4EL5A3LANKRP91N782LFHPY722Q","","833.3000000119209","img/animal2.png","75","833.8000000119209","2","1","3","0.5,0,1,1,0.5,0,0,1,0.5",""
"","html-keyboard-response","149","96009","0.0-149.0","33F859I567ZN9EQHU38SF1KBCZIHBE","A1OZPLHNIU1519","3FW4EL5A3LANKRP91N782LFHPY722Q","","null","<img src=""img/animal2.png"" style=""width:200px; border:14px solid green;"">","null","","","","","",""
"","image-keyboard-response","150","96541","0.0-150.0","33F859I567ZN9EQHU38SF1KBCZIHBE","A1OZPLHNIU1519","3FW4EL5A3LANKRP91N782LFHPY722Q","","531.3999999761581","img/animal3.png","76","532","3","1","1","0.5,0,1,1,0.5,0,0,1,0.5",""
"","html-keyboard-response","151","96843","0.0-151.0","33F859I567ZN9EQHU38SF1KBCZIHBE","A1OZPLHNIU1519","3FW4EL5A3LANKRP91N782LFHPY722Q","","null","<img src=""img/animal3.png"" style=""width:200px; border:14px solid green;"">","null","","","","","",""
"","image-keyboard-response","152","97340","0.0-152.0","33F859I567ZN9EQHU38SF1KBCZIHBE","A1OZPLHNIU1519","3FW4EL5A3LANKRP91N782LFHPY722Q","","495.69999998807907","img/animal2.png","75","496.2000000476837","2","1","3","0.5,0,1,1,0.5,0,0,1,0.5",""
"","html-keyboard-response","153","97641","0.0-153.0","33F859I567ZN9EQHU38SF1KBCZIHBE","A1OZPLHNIU1519","3FW4EL5A3LANKRP91N782LFHPY722Q","","null","<img src=""img/animal2.png"" style=""width:200px; border:14px solid green;"">","null","","","","","",""
"","image-keyboard-response","154","98068","0.0-154.0","33F859I567ZN9EQHU38SF1KBCZIHBE","A1OZPLHNIU1519","3FW4EL5A3LANKRP91N782LFHPY722Q","","425.7999999523163","img/animal2.png","75","426.39999997615814","2","1","3","0.5,0,1,1,0.5,0,0,1,0.5",""
"","html-keyboard-response","155","98370","0.0-155.0","33F859I567ZN9EQHU38SF1KBCZIHBE","A1OZPLHNIU1519","3FW4EL5A3LANKRP91N782LFHPY722Q","","null","<img src=""img/animal2.png"" style=""width:200px; border:14px solid green;"">","null","","","","","",""
"","image-keyboard-response","156","98980","0.0-156.0","33F859I567ZN9EQHU38SF1KBCZIHBE","A1OZPLHNIU1519","3FW4EL5A3LANKRP91N782LFHPY722Q","","609.3000000119209","img/animal1.png","74","609.8999999761581","1","1","2","0.5,0,1,1,0.5,0,0,1,0.5",""
"","html-keyboard-response","157","99282","0.0-157.0","33F859I567ZN9EQHU38SF1KBCZIHBE","A1OZPLHNIU1519","3FW4EL5A3LANKRP91N782LFHPY722Q","","null","<img src=""img/animal1.png"" style=""width:200px; border:14px solid green;"">","null","","","","","",""
"","image-keyboard-response","158","99668","0.0-158.0","33F859I567ZN9EQHU38SF1KBCZIHBE","A1OZPLHNIU1519","3FW4EL5A3LANKRP91N782LFHPY722Q","","385.30000001192093","img/animal1.png","74","385.80000001192093","1","1","2","0.5,0,1,1,0.5,0,0,1,0.5",""
"","html-keyboard-response","159","99969","0.0-159.0","33F859I567ZN9EQHU38SF1KBCZIHBE","A1OZPLHNIU1519","3FW4EL5A3LANKRP91N782LFHPY722Q","","null","<img src=""img/animal1.png"" style=""width:200px; border:14px solid green;"">","null","","","","","",""
"","image-keyboard-response","160","101382","0.0-160.0","33F859I567ZN9EQHU38SF1KBCZIHBE","A1OZPLHNIU1519","3FW4EL5A3LANKRP91N782LFHPY722Q","","1412.0999999642372","img/animal2.png","75","1412.800000011921","2","1","3","0.5,0,1,1,0.5,0,0,1,0.5",""
"","html-keyboard-response","161","101684","0.0-161.0","33F859I567ZN9EQHU38SF1KBCZIHBE","A1OZPLHNIU1519","3FW4EL5A3LANKRP91N782LFHPY722Q","","null","<img src=""img/animal2.png"" style=""width:200px; border:14px solid green;"">","null","","","","","",""
"","image-keyboard-response","162","102260","0.0-162.0","33F859I567ZN9EQHU38SF1KBCZIHBE","A1OZPLHNIU1519","3FW4EL5A3LANKRP91N782LFHPY722Q","","574.8000000119209","img/animal3.png","76","575.5","3","1","1","0.5,0,1,1,0.5,0,0,1,0.5",""
"","html-keyboard-response","163","102561","0.0-163.0","33F859I567ZN9EQHU38SF1KBCZIHBE","A1OZPLHNIU1519","3FW4EL5A3LANKRP91N782LFHPY722Q","","null","<img src=""img/animal3.png"" style=""width:200px; border:14px solid green;"">","null","","","","","",""
"","image-keyboard-response","164","102923","0.0-164.0","33F859I567ZN9EQHU38SF1KBCZIHBE","A1OZPLHNIU1519","3FW4EL5A3LANKRP91N782LFHPY722Q","","361.30000001192093","img/animal3.png","76","362","3","1","1","0.5,0,1,1,0.5,0,0,1,0.5",""
"","html-keyboard-response","165","103224","0.0-165.0","33F859I567ZN9EQHU38SF1KBCZIHBE","A1OZPLHNIU1519","3FW4EL5A3LANKRP91N782LFHPY722Q","","null","<img src=""img/animal3.png"" style=""width:200px; border:14px solid green;"">","null","","","","","",""
"","image-keyboard-response","166","103596","0.0-166.0","33F859I567ZN9EQHU38SF1KBCZIHBE","A1OZPLHNIU1519","3FW4EL5A3LANKRP91N782LFHPY722Q","","370.60000002384186","img/animal3.png","76","371.19999998807907","3","1","1","0.5,0,1,1,0.5,0,0,1,0.5",""
"","html-keyboard-response","167","103897","0.0-167.0","33F859I567ZN9EQHU38SF1KBCZIHBE","A1OZPLHNIU1519","3FW4EL5A3LANKRP91N782LFHPY722Q","","null","<img src=""img/animal3.png"" style=""width:200px; border:14px solid green;"">","null","","","","","",""
"","image-keyboard-response","168","104276","0.0-168.0","33F859I567ZN9EQHU38SF1KBCZIHBE","A1OZPLHNIU1519","3FW4EL5A3LANKRP91N782LFHPY722Q","","378.10000002384186","img/animal3.png","76","378.80000001192093","3","1","1","0.5,0,1,1,0.5,0,0,1,0.5",""
"","html-keyboard-response","169","104577","0.0-169.0","33F859I567ZN9EQHU38SF1KBCZIHBE","A1OZPLHNIU1519","3FW4EL5A3LANKRP91N782LFHPY722Q","","null","<img src=""img/animal3.png"" style=""width:200px; border:14px solid green;"">","null","","","","","",""
"","image-keyboard-response","170","105244","0.0-170.0","33F859I567ZN9EQHU38SF1KBCZIHBE","A1OZPLHNIU1519","3FW4EL5A3LANKRP91N782LFHPY722Q","","666.1999999880791","img/animal2.png","75","666.8999999761581","2","1","3","0.5,0,1,1,0.5,0,0,1,0.5",""
"","html-keyboard-response","171","105545","0.0-171.0","33F859I567ZN9EQHU38SF1KBCZIHBE","A1OZPLHNIU1519","3FW4EL5A3LANKRP91N782LFHPY722Q","","null","<img src=""img/animal2.png"" style=""width:200px; border:14px solid green;"">","null","","","","","",""
"","image-keyboard-response","172","105923","0.0-172.0","33F859I567ZN9EQHU38SF1KBCZIHBE","A1OZPLHNIU1519","3FW4EL5A3LANKRP91N782LFHPY722Q","","377.69999998807907","img/animal2.png","75","378.30000001192093","2","1","3","0.5,0,1,1,0.5,0,0,1,0.5",""
"","html-keyboard-response","173","106225","0.0-173.0","33F859I567ZN9EQHU38SF1KBCZIHBE","A1OZPLHNIU1519","3FW4EL5A3LANKRP91N782LFHPY722Q","","null","<img src=""img/animal2.png"" style=""width:200px; border:14px solid green;"">","null","","","","","",""
"","image-keyboard-response","174","106819","0.0-174.0","33F859I567ZN9EQHU38SF1KBCZIHBE","A1OZPLHNIU1519","3FW4EL5A3LANKRP91N782LFHPY722Q","","593.6999999880791","img/animal3.png","76","594.2000000476837","3","1","1","0.5,0,1,1,0.5,0,0,1,0.5",""
"","html-keyboard-response","175","107121","0.0-175.0","33F859I567ZN9EQHU38SF1KBCZIHBE","A1OZPLHNIU1519","3FW4EL5A3LANKRP91N782LFHPY722Q","","null","<img src=""img/animal3.png"" style=""width:200px; border:14px solid green;"">","null","","","","","",""
"","image-keyboard-response","176","107571","0.0-176.0","33F859I567ZN9EQHU38SF1KBCZIHBE","A1OZPLHNIU1519","3FW4EL5A3LANKRP91N782LFHPY722Q","","449.19999998807907","img/animal3.png","76","450","3","1","1","0.5,0,1,1,0.5,0,0,1,0.5",""
"","html-keyboard-response","177","107873","0.0-177.0","33F859I567ZN9EQHU38SF1KBCZIHBE","A1OZPLHNIU1519","3FW4EL5A3LANKRP91N782LFHPY722Q","","null","<img src=""img/animal3.png"" style=""width:200px; border:14px solid green;"">","null","","","","","",""
"","image-keyboard-response","178","108316","0.0-178.0","33F859I567ZN9EQHU38SF1KBCZIHBE","A1OZPLHNIU1519","3FW4EL5A3LANKRP91N782LFHPY722Q","","441.69999998807907","img/animal2.png","75","442.2999999523163","2","1","3","0.5,0,1,1,0.5,0,0,1,0.5",""
"","html-keyboard-response","179","108618","0.0-179.0","33F859I567ZN9EQHU38SF1KBCZIHBE","A1OZPLHNIU1519","3FW4EL5A3LANKRP91N782LFHPY722Q","","null","<img src=""img/animal2.png"" style=""width:200px; border:14px solid green;"">","null","","","","","",""
"","image-keyboard-response","180","109140","0.0-180.0","33F859I567ZN9EQHU38SF1KBCZIHBE","A1OZPLHNIU1519","3FW4EL5A3LANKRP91N782LFHPY722Q","","521","img/animal1.png","74","521.8999999761581","1","1","2","0.5,0,1,1,0.5,0,0,1,0.5",""
"","html-keyboard-response","181","109442","0.0-181.0","33F859I567ZN9EQHU38SF1KBCZIHBE","A1OZPLHNIU1519","3FW4EL5A3LANKRP91N782LFHPY722Q","","null","<img src=""img/animal1.png"" style=""width:200px; border:14px solid green;"">","null","","","","","",""
"","html-keyboard-response","182","113252","0.0-182.0","33F859I567ZN9EQHU38SF1KBCZIHBE","A1OZPLHNIU1519","3FW4EL5A3LANKRP91N782LFHPY722Q","","","","","","","","","",""
"","image-keyboard-response","183","115244","0.0-183.0","33F859I567ZN9EQHU38SF1KBCZIHBE","A1OZPLHNIU1519","3FW4EL5A3LANKRP91N782LFHPY722Q","","1990.699999988079","img/animal6.png","76","1991.5","3","0","3","0.7,0,0.8,0.7,0.8,0,0.7,0.8,0",""
"","html-keyboard-response","184","115545","0.0-184.0","33F859I567ZN9EQHU38SF1KBCZIHBE","A1OZPLHNIU1519","3FW4EL5A3LANKRP91N782LFHPY722Q","","null","<img src=""img/animal6.png"" style=""width:200px;border:14px solid red;"">","null","","","","","",""
"","image-keyboard-response","185","116564","0.0-185.0","33F859I567ZN9EQHU38SF1KBCZIHBE","A1OZPLHNIU1519","3FW4EL5A3LANKRP91N782LFHPY722Q","","1018.1999999880791","img/animal5.png","76","1018.6999999880791","3","0","2","0.7,0,0.8,0.7,0.8,0,0.7,0.8,0",""
"","html-keyboard-response","186","116865","0.0-186.0","33F859I567ZN9EQHU38SF1KBCZIHBE","A1OZPLHNIU1519","3FW4EL5A3LANKRP91N782LFHPY722Q","","null","<img src=""img/animal5.png"" style=""width:200px;border:14px solid red;"">","null","","","","","",""
"","image-keyboard-response","187","118532","0.0-187.0","33F859I567ZN9EQHU38SF1KBCZIHBE","A1OZPLHNIU1519","3FW4EL5A3LANKRP91N782LFHPY722Q","","1665.6000000238419","img/animal5.png","75","1666.199999988079","2","1","2","0.7,0,0.8,0.7,0.8,0,0.7,0.8,0",""
"","html-keyboard-response","188","118834","0.0-188.0","33F859I567ZN9EQHU38SF1KBCZIHBE","A1OZPLHNIU1519","3FW4EL5A3LANKRP91N782LFHPY722Q","","null","<img src=""img/animal5.png"" style=""width:200px; border:14px solid green;"">","null","","","","","",""
"","image-keyboard-response","189","119732","0.0-189.0","33F859I567ZN9EQHU38SF1KBCZIHBE","A1OZPLHNIU1519","3FW4EL5A3LANKRP91N782LFHPY722Q","","897.1999999880791","img/animal4.png","74","897.9000000357628","1","0","1","0.7,0,0.8,0.7,0.8,0,0.7,0.8,0",""
"","html-keyboard-response","190","120033","0.0-190.0","33F859I567ZN9EQHU38SF1KBCZIHBE","A1OZPLHNIU1519","3FW4EL5A3LANKRP91N782LFHPY722Q","","null","<img src=""img/animal4.png"" style=""width:200px;border:14px solid red;"">","null","","","","","",""
"","image-keyboard-response","191","120763","0.0-191.0","33F859I567ZN9EQHU38SF1KBCZIHBE","A1OZPLHNIU1519","3FW4EL5A3LANKRP91N782LFHPY722Q","","729.3999999761581","img/animal4.png","74","730.0999999642372","1","1","1","0.7,0,0.8,0.7,0.8,0,0.7,0.8,0",""
"","html-keyboard-response","192","121065","0.0-192.0","33F859I567ZN9EQHU38SF1KBCZIHBE","A1OZPLHNIU1519","3FW4EL5A3LANKRP91N782LFHPY722Q","","null","<img src=""img/animal4.png"" style=""width:200px; border:14px solid green;"">","null","","","","","",""
"","image-keyboard-response","193","122820","0.0-193.0","33F859I567ZN9EQHU38SF1KBCZIHBE","A1OZPLHNIU1519","3FW4EL5A3LANKRP91N782LFHPY722Q","","1753.800000011921","img/animal6.png","74","1754.5","1","0","3","0.7,0,0.8,0.7,0.8,0,0.7,0.8,0",""
"","html-keyboard-response","194","123122","0.0-194.0","33F859I567ZN9EQHU38SF1KBCZIHBE","A1OZPLHNIU1519","3FW4EL5A3LANKRP91N782LFHPY722Q","","null","<img src=""img/animal6.png"" style=""width:200px;border:14px solid red;"">","null","","","","","",""
"","image-keyboard-response","195","124943","0.0-195.0","33F859I567ZN9EQHU38SF1KBCZIHBE","A1OZPLHNIU1519","3FW4EL5A3LANKRP91N782LFHPY722Q","","1820.199999988079","img/animal4.png","74","1821","1","1","1","0.7,0,0.8,0.7,0.8,0,0.7,0.8,0",""
"","html-keyboard-response","196","125246","0.0-196.0","33F859I567ZN9EQHU38SF1KBCZIHBE","A1OZPLHNIU1519","3FW4EL5A3LANKRP91N782LFHPY722Q","","null","<img src=""img/animal4.png"" style=""width:200px; border:14px solid green;"">","null","","","","","",""
"","image-keyboard-response","197","125636","0.0-197.0","33F859I567ZN9EQHU38SF1KBCZIHBE","A1OZPLHNIU1519","3FW4EL5A3LANKRP91N782LFHPY722Q","","387.7000000476837","img/animal4.png","74","388.69999998807907","1","0","1","0.7,0,0.8,0.7,0.8,0,0.7,0.8,0",""
"","html-keyboard-response","198","125937","0.0-198.0","33F859I567ZN9EQHU38SF1KBCZIHBE","A1OZPLHNIU1519","3FW4EL5A3LANKRP91N782LFHPY722Q","","null","<img src=""img/animal4.png"" style=""width:200px;border:14px solid red;"">","null","","","","","",""
"","image-keyboard-response","199","126763","0.0-199.0","33F859I567ZN9EQHU38SF1KBCZIHBE","A1OZPLHNIU1519","3FW4EL5A3LANKRP91N782LFHPY722Q","","825.1999999880791","img/animal5.png","75","825.6999999880791","2","1","2","0.7,0,0.8,0.7,0.8,0,0.7,0.8,0",""
"","html-keyboard-response","200","127065","0.0-200.0","33F859I567ZN9EQHU38SF1KBCZIHBE","A1OZPLHNIU1519","3FW4EL5A3LANKRP91N782LFHPY722Q","","null","<img src=""img/animal5.png"" style=""width:200px; border:14px solid green;"">","null","","","","","",""
"","image-keyboard-response","201","127804","0.0-201.0","33F859I567ZN9EQHU38SF1KBCZIHBE","A1OZPLHNIU1519","3FW4EL5A3LANKRP91N782LFHPY722Q","","738.2000000476837","img/animal6.png","76","738.6999999880791","3","0","3","0.7,0,0.8,0.7,0.8,0,0.7,0.8,0",""
"","html-keyboard-response","202","128105","0.0-202.0","33F859I567ZN9EQHU38SF1KBCZIHBE","A1OZPLHNIU1519","3FW4EL5A3LANKRP91N782LFHPY722Q","","null","<img src=""img/animal6.png"" style=""width:200px;border:14px solid red;"">","null","","","","","",""
"","image-keyboard-response","203","128468","0.0-203.0","33F859I567ZN9EQHU38SF1KBCZIHBE","A1OZPLHNIU1519","3FW4EL5A3LANKRP91N782LFHPY722Q","","361.80000001192093","img/animal6.png","76","362.4000000357628","3","0","3","0.7,0,0.8,0.7,0.8,0,0.7,0.8,0",""
"","html-keyboard-response","204","128769","0.0-204.0","33F859I567ZN9EQHU38SF1KBCZIHBE","A1OZPLHNIU1519","3FW4EL5A3LANKRP91N782LFHPY722Q","","null","<img src=""img/animal6.png"" style=""width:200px;border:14px solid red;"">","null","","","","","",""
"","image-keyboard-response","205","129333","0.0-205.0","33F859I567ZN9EQHU38SF1KBCZIHBE","A1OZPLHNIU1519","3FW4EL5A3LANKRP91N782LFHPY722Q","","563.5","img/animal6.png","75","564","2","1","3","0.7,0,0.8,0.7,0.8,0,0.7,0.8,0",""
"","html-keyboard-response","206","129635","0.0-206.0","33F859I567ZN9EQHU38SF1KBCZIHBE","A1OZPLHNIU1519","3FW4EL5A3LANKRP91N782LFHPY722Q","","null","<img src=""img/animal6.png"" style=""width:200px; border:14px solid green;"">","null","","","","","",""
"","image-keyboard-response","207","130452","0.0-207.0","33F859I567ZN9EQHU38SF1KBCZIHBE","A1OZPLHNIU1519","3FW4EL5A3LANKRP91N782LFHPY722Q","","815.6999999880791","img/animal4.png","74","816.4000000357628","1","1","1","0.7,0,0.8,0.7,0.8,0,0.7,0.8,0",""
"","html-keyboard-response","208","130753","0.0-208.0","33F859I567ZN9EQHU38SF1KBCZIHBE","A1OZPLHNIU1519","3FW4EL5A3LANKRP91N782LFHPY722Q","","null","<img src=""img/animal4.png"" style=""width:200px; border:14px solid green;"">","null","","","","","",""
"","image-keyboard-response","209","131564","0.0-209.0","33F859I567ZN9EQHU38SF1KBCZIHBE","A1OZPLHNIU1519","3FW4EL5A3LANKRP91N782LFHPY722Q","","809.6999999880791","img/animal5.png","75","810.3999999761581","2","1","2","0.7,0,0.8,0.7,0.8,0,0.7,0.8,0",""
"","html-keyboard-response","210","131865","0.0-210.0","33F859I567ZN9EQHU38SF1KBCZIHBE","A1OZPLHNIU1519","3FW4EL5A3LANKRP91N782LFHPY722Q","","null","<img src=""img/animal5.png"" style=""width:200px; border:14px solid green;"">","null","","","","","",""
"","image-keyboard-response","211","132476","0.0-211.0","33F859I567ZN9EQHU38SF1KBCZIHBE","A1OZPLHNIU1519","3FW4EL5A3LANKRP91N782LFHPY722Q","","609.5","img/animal6.png","75","610","2","1","3","0.7,0,0.8,0.7,0.8,0,0.7,0.8,0",""
"","html-keyboard-response","212","132777","0.0-212.0","33F859I567ZN9EQHU38SF1KBCZIHBE","A1OZPLHNIU1519","3FW4EL5A3LANKRP91N782LFHPY722Q","","null","<img src=""img/animal6.png"" style=""width:200px; border:14px solid green;"">","null","","","","","",""
"","image-keyboard-response","213","133356","0.0-213.0","33F859I567ZN9EQHU38SF1KBCZIHBE","A1OZPLHNIU1519","3FW4EL5A3LANKRP91N782LFHPY722Q","","577.8999999761581","img/animal4.png","74","578.5","1","1","1","0.7,0,0.8,0.7,0.8,0,0.7,0.8,0",""
"","html-keyboard-response","214","133658","0.0-214.0","33F859I567ZN9EQHU38SF1KBCZIHBE","A1OZPLHNIU1519","3FW4EL5A3LANKRP91N782LFHPY722Q","","null","<img src=""img/animal4.png"" style=""width:200px; border:14px solid green;"">","null","","","","","",""
"","image-keyboard-response","215","134340","0.0-215.0","33F859I567ZN9EQHU38SF1KBCZIHBE","A1OZPLHNIU1519","3FW4EL5A3LANKRP91N782LFHPY722Q","","680.8000000119209","img/animal6.png","75","681.5999999642372","2","1","3","0.7,0,0.8,0.7,0.8,0,0.7,0.8,0",""
"","html-keyboard-response","216","134641","0.0-216.0","33F859I567ZN9EQHU38SF1KBCZIHBE","A1OZPLHNIU1519","3FW4EL5A3LANKRP91N782LFHPY722Q","","null","<img src=""img/animal6.png"" style=""width:200px; border:14px solid green;"">","null","","","","","",""
"","image-keyboard-response","217","135046","0.0-217.0","33F859I567ZN9EQHU38SF1KBCZIHBE","A1OZPLHNIU1519","3FW4EL5A3LANKRP91N782LFHPY722Q","","404.0999999642372","img/animal6.png","75","404.69999998807907","2","1","3","0.7,0,0.8,0.7,0.8,0,0.7,0.8,0",""
"","html-keyboard-response","218","135357","0.0-218.0","33F859I567ZN9EQHU38SF1KBCZIHBE","A1OZPLHNIU1519","3FW4EL5A3LANKRP91N782LFHPY722Q","","null","<img src=""img/animal6.png"" style=""width:200px; border:14px solid green;"">","null","","","","","",""
"","image-keyboard-response","219","135996","0.0-219.0","33F859I567ZN9EQHU38SF1KBCZIHBE","A1OZPLHNIU1519","3FW4EL5A3LANKRP91N782LFHPY722Q","","637.2000000476837","img/animal4.png","74","638","1","1","1","0.7,0,0.8,0.7,0.8,0,0.7,0.8,0",""
"","html-keyboard-response","220","136297","0.0-220.0","33F859I567ZN9EQHU38SF1KBCZIHBE","A1OZPLHNIU1519","3FW4EL5A3LANKRP91N782LFHPY722Q","","null","<img src=""img/animal4.png"" style=""width:200px; border:14px solid green;"">","null","","","","","",""
"","image-keyboard-response","221","136932","0.0-221.0","33F859I567ZN9EQHU38SF1KBCZIHBE","A1OZPLHNIU1519","3FW4EL5A3LANKRP91N782LFHPY722Q","","634.1999999880791","img/animal5.png","75","634.7999999523163","2","0","2","0.7,0,0.8,0.7,0.8,0,0.7,0.8,0",""
"","html-keyboard-response","222","137233","0.0-222.0","33F859I567ZN9EQHU38SF1KBCZIHBE","A1OZPLHNIU1519","3FW4EL5A3LANKRP91N782LFHPY722Q","","null","<img src=""img/animal5.png"" style=""width:200px;border:14px solid red;"">","null","","","","","",""
"","image-keyboard-response","223","137980","0.0-223.0","33F859I567ZN9EQHU38SF1KBCZIHBE","A1OZPLHNIU1519","3FW4EL5A3LANKRP91N782LFHPY722Q","","745.7000000476837","img/animal4.png","74","746.1999999880791","1","1","1","0.7,0,0.8,0.7,0.8,0,0.7,0.8,0",""
"","html-keyboard-response","224","138282","0.0-224.0","33F859I567ZN9EQHU38SF1KBCZIHBE","A1OZPLHNIU1519","3FW4EL5A3LANKRP91N782LFHPY722Q","","null","<img src=""img/animal4.png"" style=""width:200px; border:14px solid green;"">","null","","","","","",""
"","image-keyboard-response","225","138739","0.0-225.0","33F859I567ZN9EQHU38SF1KBCZIHBE","A1OZPLHNIU1519","3FW4EL5A3LANKRP91N782LFHPY722Q","","456.5","img/animal5.png","75","457.19999998807907","2","0","2","0.7,0,0.8,0.7,0.8,0,0.7,0.8,0",""
"","html-keyboard-response","226","139042","0.0-226.0","33F859I567ZN9EQHU38SF1KBCZIHBE","A1OZPLHNIU1519","3FW4EL5A3LANKRP91N782LFHPY722Q","","null","<img src=""img/animal5.png"" style=""width:200px;border:14px solid red;"">","null","","","","","",""
"","image-keyboard-response","227","139795","0.0-227.0","33F859I567ZN9EQHU38SF1KBCZIHBE","A1OZPLHNIU1519","3FW4EL5A3LANKRP91N782LFHPY722Q","","752.6999999880791","img/animal4.png","74","753.4000000357628","1","1","1","0.7,0,0.8,0.7,0.8,0,0.7,0.8,0",""
"","html-keyboard-response","228","140097","0.0-228.0","33F859I567ZN9EQHU38SF1KBCZIHBE","A1OZPLHNIU1519","3FW4EL5A3LANKRP91N782LFHPY722Q","","null","<img src=""img/animal4.png"" style=""width:200px; border:14px solid green;"">","null","","","","","",""
"","image-keyboard-response","229","141507","0.0-229.0","33F859I567ZN9EQHU38SF1KBCZIHBE","A1OZPLHNIU1519","3FW4EL5A3LANKRP91N782LFHPY722Q","","1409.5999999642372","img/animal6.png","75","1410.300000011921","2","1","3","0.7,0,0.8,0.7,0.8,0,0.7,0.8,0",""
"","html-keyboard-response","230","141810","0.0-230.0","33F859I567ZN9EQHU38SF1KBCZIHBE","A1OZPLHNIU1519","3FW4EL5A3LANKRP91N782LFHPY722Q","","null","<img src=""img/animal6.png"" style=""width:200px; border:14px solid green;"">","null","","","","","",""
"","image-keyboard-response","231","142380","0.0-231.0","33F859I567ZN9EQHU38SF1KBCZIHBE","A1OZPLHNIU1519","3FW4EL5A3LANKRP91N782LFHPY722Q","","568.8999999761581","img/animal5.png","76","569.5999999642372","3","0","2","0.7,0,0.8,0.7,0.8,0,0.7,0.8,0",""
"","html-keyboard-response","232","142681","0.0-232.0","33F859I567ZN9EQHU38SF1KBCZIHBE","A1OZPLHNIU1519","3FW4EL5A3LANKRP91N782LFHPY722Q","","null","<img src=""img/animal5.png"" style=""width:200px;border:14px solid red;"">","null","","","","","",""
"","image-keyboard-response","233","143556","0.0-233.0","33F859I567ZN9EQHU38SF1KBCZIHBE","A1OZPLHNIU1519","3FW4EL5A3LANKRP91N782LFHPY722Q","","873","img/animal4.png","74","873.6999999880791","1","0","1","0.7,0,0.8,0.7,0.8,0,0.7,0.8,0",""
"","html-keyboard-response","234","143857","0.0-234.0","33F859I567ZN9EQHU38SF1KBCZIHBE","A1OZPLHNIU1519","3FW4EL5A3LANKRP91N782LFHPY722Q","","null","<img src=""img/animal4.png"" style=""width:200px;border:14px solid red;"">","null","","","","","",""
"","image-keyboard-response","235","144900","0.0-235.0","33F859I567ZN9EQHU38SF1KBCZIHBE","A1OZPLHNIU1519","3FW4EL5A3LANKRP91N782LFHPY722Q","","1041.699999988079","img/animal5.png","76","1042.4000000357628","3","0","2","0.7,0,0.8,0.7,0.8,0,0.7,0.8,0",""
"","html-keyboard-response","236","145202","0.0-236.0","33F859I567ZN9EQHU38SF1KBCZIHBE","A1OZPLHNIU1519","3FW4EL5A3LANKRP91N782LFHPY722Q","","null","<img src=""img/animal5.png"" style=""width:200px;border:14px solid red;"">","null","","","","","",""
"","image-keyboard-response","237","145958","0.0-237.0","33F859I567ZN9EQHU38SF1KBCZIHBE","A1OZPLHNIU1519","3FW4EL5A3LANKRP91N782LFHPY722Q","","755.2999999523163","img/animal5.png","75","755.8000000119209","2","1","2","0.7,0,0.8,0.7,0.8,0,0.7,0.8,0",""
"","html-keyboard-response","238","146260","0.0-238.0","33F859I567ZN9EQHU38SF1KBCZIHBE","A1OZPLHNIU1519","3FW4EL5A3LANKRP91N782LFHPY722Q","","null","<img src=""img/animal5.png"" style=""width:200px; border:14px solid green;"">","null","","","","","",""
"","image-keyboard-response","239","146708","0.0-239.0","33F859I567ZN9EQHU38SF1KBCZIHBE","A1OZPLHNIU1519","3FW4EL5A3LANKRP91N782LFHPY722Q","","447.2000000476837","img/animal5.png","75","447.89999997615814","2","1","2","0.7,0,0.8,0.7,0.8,0,0.7,0.8,0",""
"","html-keyboard-response","240","147009","0.0-240.0","33F859I567ZN9EQHU38SF1KBCZIHBE","A1OZPLHNIU1519","3FW4EL5A3LANKRP91N782LFHPY722Q","","null","<img src=""img/animal5.png"" style=""width:200px; border:14px solid green;"">","null","","","","","",""
"","image-keyboard-response","241","147756","0.0-241.0","33F859I567ZN9EQHU38SF1KBCZIHBE","A1OZPLHNIU1519","3FW4EL5A3LANKRP91N782LFHPY722Q","","745.9000000357628","img/animal4.png","74","746.5","1","1","1","0.7,0,0.8,0.7,0.8,0,0.7,0.8,0",""
"","html-keyboard-response","242","148057","0.0-242.0","33F859I567ZN9EQHU38SF1KBCZIHBE","A1OZPLHNIU1519","3FW4EL5A3LANKRP91N782LFHPY722Q","","null","<img src=""img/animal4.png"" style=""width:200px; border:14px solid green;"">","null","","","","","",""
"","image-keyboard-response","243","148427","0.0-243.0","33F859I567ZN9EQHU38SF1KBCZIHBE","A1OZPLHNIU1519","3FW4EL5A3LANKRP91N782LFHPY722Q","","369.39999997615814","img/animal4.png","74","370","1","1","1","0.7,0,0.8,0.7,0.8,0,0.7,0.8,0",""
"","html-keyboard-response","244","148729","0.0-244.0","33F859I567ZN9EQHU38SF1KBCZIHBE","A1OZPLHNIU1519","3FW4EL5A3LANKRP91N782LFHPY722Q","","null","<img src=""img/animal4.png"" style=""width:200px; border:14px solid green;"">","null","","","","","",""
"","image-keyboard-response","245","149260","0.0-245.0","33F859I567ZN9EQHU38SF1KBCZIHBE","A1OZPLHNIU1519","3FW4EL5A3LANKRP91N782LFHPY722Q","","529.7000000476837","img/animal6.png","75","530.3000000119209","2","1","3","0.7,0,0.8,0.7,0.8,0,0.7,0.8,0",""
"","html-keyboard-response","246","149561","0.0-246.0","33F859I567ZN9EQHU38SF1KBCZIHBE","A1OZPLHNIU1519","3FW4EL5A3LANKRP91N782LFHPY722Q","","null","<img src=""img/animal6.png"" style=""width:200px; border:14px solid green;"">","null","","","","","",""
"","image-keyboard-response","247","149875","0.0-247.0","33F859I567ZN9EQHU38SF1KBCZIHBE","A1OZPLHNIU1519","3FW4EL5A3LANKRP91N782LFHPY722Q","","313.2000000476837","img/animal6.png","75","314","2","1","3","0.7,0,0.8,0.7,0.8,0,0.7,0.8,0",""
"","html-keyboard-response","248","150177","0.0-248.0","33F859I567ZN9EQHU38SF1KBCZIHBE","A1OZPLHNIU1519","3FW4EL5A3LANKRP91N782LFHPY722Q","","null","<img src=""img/animal6.png"" style=""width:200px; border:14px solid green;"">","null","","","","","",""
"","image-keyboard-response","249","150740","0.0-249.0","33F859I567ZN9EQHU38SF1KBCZIHBE","A1OZPLHNIU1519","3FW4EL5A3LANKRP91N782LFHPY722Q","","561.8000000119209","img/animal5.png","75","562.3999999761581","2","1","2","0.7,0,0.8,0.7,0.8,0,0.7,0.8,0",""
"","html-keyboard-response","250","151041","0.0-250.0","33F859I567ZN9EQHU38SF1KBCZIHBE","A1OZPLHNIU1519","3FW4EL5A3LANKRP91N782LFHPY722Q","","null","<img src=""img/animal5.png"" style=""width:200px; border:14px solid green;"">","null","","","","","",""
"","image-keyboard-response","251","151436","0.0-251.0","33F859I567ZN9EQHU38SF1KBCZIHBE","A1OZPLHNIU1519","3FW4EL5A3LANKRP91N782LFHPY722Q","","393.5","img/animal5.png","75","394.19999998807907","2","1","2","0.7,0,0.8,0.7,0.8,0,0.7,0.8,0",""
"","html-keyboard-response","252","151737","0.0-252.0","33F859I567ZN9EQHU38SF1KBCZIHBE","A1OZPLHNIU1519","3FW4EL5A3LANKRP91N782LFHPY722Q","","null","<img src=""img/animal5.png"" style=""width:200px; border:14px solid green;"">","null","","","","","",""
"","image-keyboard-response","253","152268","0.0-253.0","33F859I567ZN9EQHU38SF1KBCZIHBE","A1OZPLHNIU1519","3FW4EL5A3LANKRP91N782LFHPY722Q","","530.0999999642372","img/animal4.png","74","530.6999999880791","1","1","1","0.7,0,0.8,0.7,0.8,0,0.7,0.8,0",""
"","html-keyboard-response","254","152569","0.0-254.0","33F859I567ZN9EQHU38SF1KBCZIHBE","A1OZPLHNIU1519","3FW4EL5A3LANKRP91N782LFHPY722Q","","null","<img src=""img/animal4.png"" style=""width:200px; border:14px solid green;"">","null","","","","","",""
"","image-keyboard-response","255","153196","0.0-255.0","33F859I567ZN9EQHU38SF1KBCZIHBE","A1OZPLHNIU1519","3FW4EL5A3LANKRP91N782LFHPY722Q","","625.5","img/animal6.png","75","626.1000000238419","2","1","3","0.7,0,0.8,0.7,0.8,0,0.7,0.8,0",""
"","html-keyboard-response","256","153501","0.0-256.0","33F859I567ZN9EQHU38SF1KBCZIHBE","A1OZPLHNIU1519","3FW4EL5A3LANKRP91N782LFHPY722Q","","null","<img src=""img/animal6.png"" style=""width:200px; border:14px solid green;"">","null","","","","","",""
"","image-keyboard-response","257","153923","0.0-257.0","33F859I567ZN9EQHU38SF1KBCZIHBE","A1OZPLHNIU1519","3FW4EL5A3LANKRP91N782LFHPY722Q","","422","img/animal6.png","75","422.69999998807907","2","1","3","0.7,0,0.8,0.7,0.8,0,0.7,0.8,0",""
"","html-keyboard-response","258","154225","0.0-258.0","33F859I567ZN9EQHU38SF1KBCZIHBE","A1OZPLHNIU1519","3FW4EL5A3LANKRP91N782LFHPY722Q","","null","<img src=""img/animal6.png"" style=""width:200px; border:14px solid green;"">","null","","","","","",""
"","image-keyboard-response","259","154708","0.0-259.0","33F859I567ZN9EQHU38SF1KBCZIHBE","A1OZPLHNIU1519","3FW4EL5A3LANKRP91N782LFHPY722Q","","481.5","img/animal5.png","75","482.2999999523163","2","0","2","0.7,0,0.8,0.7,0.8,0,0.7,0.8,0",""
"","html-keyboard-response","260","155010","0.0-260.0","33F859I567ZN9EQHU38SF1KBCZIHBE","A1OZPLHNIU1519","3FW4EL5A3LANKRP91N782LFHPY722Q","","null","<img src=""img/animal5.png"" style=""width:200px;border:14px solid red;"">","null","","","","","",""
"","image-keyboard-response","261","155363","0.0-261.0","33F859I567ZN9EQHU38SF1KBCZIHBE","A1OZPLHNIU1519","3FW4EL5A3LANKRP91N782LFHPY722Q","","352.10000002384186","img/animal5.png","75","352.60000002384186","2","1","2","0.7,0,0.8,0.7,0.8,0,0.7,0.8,0",""
"","html-keyboard-response","262","155665","0.0-262.0","33F859I567ZN9EQHU38SF1KBCZIHBE","A1OZPLHNIU1519","3FW4EL5A3LANKRP91N782LFHPY722Q","","null","<img src=""img/animal5.png"" style=""width:200px; border:14px solid green;"">","null","","","","","",""
"","image-keyboard-response","263","156366","0.0-263.0","33F859I567ZN9EQHU38SF1KBCZIHBE","A1OZPLHNIU1519","3FW4EL5A3LANKRP91N782LFHPY722Q","","700.8000000119209","img/animal6.png","75","701.3999999761581","2","1","3","0.7,0,0.8,0.7,0.8,0,0.7,0.8,0",""
"","html-keyboard-response","264","156668","0.0-264.0","33F859I567ZN9EQHU38SF1KBCZIHBE","A1OZPLHNIU1519","3FW4EL5A3LANKRP91N782LFHPY722Q","","null","<img src=""img/animal6.png"" style=""width:200px; border:14px solid green;"">","null","","","","","",""
"","image-keyboard-response","265","157091","0.0-265.0","33F859I567ZN9EQHU38SF1KBCZIHBE","A1OZPLHNIU1519","3FW4EL5A3LANKRP91N782LFHPY722Q","","422.30000001192093","img/animal6.png","75","423","2","0","3","0.7,0,0.8,0.7,0.8,0,0.7,0.8,0",""
"","html-keyboard-response","266","157392","0.0-266.0","33F859I567ZN9EQHU38SF1KBCZIHBE","A1OZPLHNIU1519","3FW4EL5A3LANKRP91N782LFHPY722Q","","null","<img src=""img/animal6.png"" style=""width:200px;border:14px solid red;"">","null","","","","","",""
"","image-keyboard-response","267","157988","0.0-267.0","33F859I567ZN9EQHU38SF1KBCZIHBE","A1OZPLHNIU1519","3FW4EL5A3LANKRP91N782LFHPY722Q","","594.3999999761581","img/animal5.png","75","595","2","1","2","0.7,0,0.8,0.7,0.8,0,0.7,0.8,0",""
"","html-keyboard-response","268","158290","0.0-268.0","33F859I567ZN9EQHU38SF1KBCZIHBE","A1OZPLHNIU1519","3FW4EL5A3LANKRP91N782LFHPY722Q","","null","<img src=""img/animal5.png"" style=""width:200px; border:14px solid green;"">","null","","","","","",""
"","image-keyboard-response","269","159108","0.0-269.0","33F859I567ZN9EQHU38SF1KBCZIHBE","A1OZPLHNIU1519","3FW4EL5A3LANKRP91N782LFHPY722Q","","816.2000000476837","img/animal6.png","75","817.0999999642372","2","1","3","0.7,0,0.8,0.7,0.8,0,0.7,0.8,0",""
"","html-keyboard-response","270","159410","0.0-270.0","33F859I567ZN9EQHU38SF1KBCZIHBE","A1OZPLHNIU1519","3FW4EL5A3LANKRP91N782LFHPY722Q","","null","<img src=""img/animal6.png"" style=""width:200px; border:14px solid green;"">","null","","","","","",""
"","image-keyboard-response","271","159988","0.0-271.0","33F859I567ZN9EQHU38SF1KBCZIHBE","A1OZPLHNIU1519","3FW4EL5A3LANKRP91N782LFHPY722Q","","576.5","img/animal4.png","74","577.0999999642372","1","0","1","0.7,0,0.8,0.7,0.8,0,0.7,0.8,0",""
"","html-keyboard-response","272","160290","0.0-272.0","33F859I567ZN9EQHU38SF1KBCZIHBE","A1OZPLHNIU1519","3FW4EL5A3LANKRP91N782LFHPY722Q","","null","<img src=""img/animal4.png"" style=""width:200px;border:14px solid red;"">","null","","","","","",""
"","image-keyboard-response","273","160996","0.0-273.0","33F859I567ZN9EQHU38SF1KBCZIHBE","A1OZPLHNIU1519","3FW4EL5A3LANKRP91N782LFHPY722Q","","704.5999999642372","img/animal6.png","75","705.3999999761581","2","0","3","0.7,0,0.8,0.7,0.8,0,0.7,0.8,0",""
"","html-keyboard-response","274","161297","0.0-274.0","33F859I567ZN9EQHU38SF1KBCZIHBE","A1OZPLHNIU1519","3FW4EL5A3LANKRP91N782LFHPY722Q","","null","<img src=""img/animal6.png"" style=""width:200px;border:14px solid red;"">","null","","","","","",""
"","image-keyboard-response","275","162052","0.0-275.0","33F859I567ZN9EQHU38SF1KBCZIHBE","A1OZPLHNIU1519","3FW4EL5A3LANKRP91N782LFHPY722Q","","753.3999999761581","img/animal4.png","74","754","1","1","1","0.7,0,0.8,0.7,0.8,0,0.7,0.8,0",""
"","html-keyboard-response","276","162353","0.0-276.0","33F859I567ZN9EQHU38SF1KBCZIHBE","A1OZPLHNIU1519","3FW4EL5A3LANKRP91N782LFHPY722Q","","null","<img src=""img/animal4.png"" style=""width:200px; border:14px solid green;"">","null","","","","","",""
"","image-keyboard-response","277","162708","0.0-277.0","33F859I567ZN9EQHU38SF1KBCZIHBE","A1OZPLHNIU1519","3FW4EL5A3LANKRP91N782LFHPY722Q","","353.5","img/animal4.png","74","354.10000002384186","1","1","1","0.7,0,0.8,0.7,0.8,0,0.7,0.8,0",""
"","html-keyboard-response","278","163010","0.0-278.0","33F859I567ZN9EQHU38SF1KBCZIHBE","A1OZPLHNIU1519","3FW4EL5A3LANKRP91N782LFHPY722Q","","null","<img src=""img/animal4.png"" style=""width:200px; border:14px solid green;"">","null","","","","","",""
"","image-keyboard-response","279","163372","0.0-279.0","33F859I567ZN9EQHU38SF1KBCZIHBE","A1OZPLHNIU1519","3FW4EL5A3LANKRP91N782LFHPY722Q","","360.39999997615814","img/animal4.png","74","361","1","1","1","0.7,0,0.8,0.7,0.8,0,0.7,0.8,0",""
"","html-keyboard-response","280","163674","0.0-280.0","33F859I567ZN9EQHU38SF1KBCZIHBE","A1OZPLHNIU1519","3FW4EL5A3LANKRP91N782LFHPY722Q","","null","<img src=""img/animal4.png"" style=""width:200px; border:14px solid green;"">","null","","","","","",""
"","image-keyboard-response","281","164036","0.0-281.0","33F859I567ZN9EQHU38SF1KBCZIHBE","A1OZPLHNIU1519","3FW4EL5A3LANKRP91N782LFHPY722Q","","361.2000000476837","img/animal4.png","74","361.89999997615814","1","1","1","0.7,0,0.8,0.7,0.8,0,0.7,0.8,0",""
"","html-keyboard-response","282","164338","0.0-282.0","33F859I567ZN9EQHU38SF1KBCZIHBE","A1OZPLHNIU1519","3FW4EL5A3LANKRP91N782LFHPY722Q","","null","<img src=""img/animal4.png"" style=""width:200px; border:14px solid green;"">","null","","","","","",""
"","image-keyboard-response","283","164940","0.0-283.0","33F859I567ZN9EQHU38SF1KBCZIHBE","A1OZPLHNIU1519","3FW4EL5A3LANKRP91N782LFHPY722Q","","600.7000000476837","img/animal5.png","75","601.3999999761581","2","1","2","0.7,0,0.8,0.7,0.8,0,0.7,0.8,0",""
"","html-keyboard-response","284","165242","0.0-284.0","33F859I567ZN9EQHU38SF1KBCZIHBE","A1OZPLHNIU1519","3FW4EL5A3LANKRP91N782LFHPY722Q","","null","<img src=""img/animal5.png"" style=""width:200px; border:14px solid green;"">","null","","","","","",""
"","image-keyboard-response","285","165548","0.0-285.0","33F859I567ZN9EQHU38SF1KBCZIHBE","A1OZPLHNIU1519","3FW4EL5A3LANKRP91N782LFHPY722Q","","304.60000002384186","img/animal5.png","75","305.30000001192093","2","1","2","0.7,0,0.8,0.7,0.8,0,0.7,0.8,0",""
"","html-keyboard-response","286","165849","0.0-286.0","33F859I567ZN9EQHU38SF1KBCZIHBE","A1OZPLHNIU1519","3FW4EL5A3LANKRP91N782LFHPY722Q","","null","<img src=""img/animal5.png"" style=""width:200px; border:14px solid green;"">","null","","","","","",""
"","image-keyboard-response","287","166390","0.0-287.0","33F859I567ZN9EQHU38SF1KBCZIHBE","A1OZPLHNIU1519","3FW4EL5A3LANKRP91N782LFHPY722Q","","540","img/animal6.png","75","540.6000000238419","2","1","3","0.7,0,0.8,0.7,0.8,0,0.7,0.8,0",""
"","html-keyboard-response","288","166692","0.0-288.0","33F859I567ZN9EQHU38SF1KBCZIHBE","A1OZPLHNIU1519","3FW4EL5A3LANKRP91N782LFHPY722Q","","null","<img src=""img/animal6.png"" style=""width:200px; border:14px solid green;"">","null","","","","","",""
"","image-keyboard-response","289","167083","0.0-289.0","33F859I567ZN9EQHU38SF1KBCZIHBE","A1OZPLHNIU1519","3FW4EL5A3LANKRP91N782LFHPY722Q","","390.39999997615814","img/animal6.png","75","391","2","1","3","0.7,0,0.8,0.7,0.8,0,0.7,0.8,0",""
"","html-keyboard-response","290","167385","0.0-290.0","33F859I567ZN9EQHU38SF1KBCZIHBE","A1OZPLHNIU1519","3FW4EL5A3LANKRP91N782LFHPY722Q","","null","<img src=""img/animal6.png"" style=""width:200px; border:14px solid green;"">","null","","","","","",""
"","image-keyboard-response","291","168372","0.0-291.0","33F859I567ZN9EQHU38SF1KBCZIHBE","A1OZPLHNIU1519","3FW4EL5A3LANKRP91N782LFHPY722Q","","985.6000000238419","img/animal5.png","75","986.1999999880791","2","1","2","0.7,0,0.8,0.7,0.8,0,0.7,0.8,0",""
"","html-keyboard-response","292","168673","0.0-292.0","33F859I567ZN9EQHU38SF1KBCZIHBE","A1OZPLHNIU1519","3FW4EL5A3LANKRP91N782LFHPY722Q","","null","<img src=""img/animal5.png"" style=""width:200px; border:14px solid green;"">","null","","","","","",""
"","image-keyboard-response","293","169580","0.0-293.0","33F859I567ZN9EQHU38SF1KBCZIHBE","A1OZPLHNIU1519","3FW4EL5A3LANKRP91N782LFHPY722Q","","905.3999999761581","img/animal6.png","75","906.5","2","1","3","0.7,0,0.8,0.7,0.8,0,0.7,0.8,0",""
"","html-keyboard-response","294","169881","0.0-294.0","33F859I567ZN9EQHU38SF1KBCZIHBE","A1OZPLHNIU1519","3FW4EL5A3LANKRP91N782LFHPY722Q","","null","<img src=""img/animal6.png"" style=""width:200px; border:14px solid green;"">","null","","","","","",""
"","image-keyboard-response","295","170363","0.0-295.0","33F859I567ZN9EQHU38SF1KBCZIHBE","A1OZPLHNIU1519","3FW4EL5A3LANKRP91N782LFHPY722Q","","482","img/animal5.png","75","482.60000002384186","2","1","2","0.7,0,0.8,0.7,0.8,0,0.7,0.8,0",""
"","html-keyboard-response","296","170665","0.0-296.0","33F859I567ZN9EQHU38SF1KBCZIHBE","A1OZPLHNIU1519","3FW4EL5A3LANKRP91N782LFHPY722Q","","null","<img src=""img/animal5.png"" style=""width:200px; border:14px solid green;"">","null","","","","","",""
"","image-keyboard-response","297","171268","0.0-297.0","33F859I567ZN9EQHU38SF1KBCZIHBE","A1OZPLHNIU1519","3FW4EL5A3LANKRP91N782LFHPY722Q","","601.5","img/animal6.png","75","602.2999999523163","2","1","3","0.7,0,0.8,0.7,0.8,0,0.7,0.8,0",""
"","html-keyboard-response","298","171569","0.0-298.0","33F859I567ZN9EQHU38SF1KBCZIHBE","A1OZPLHNIU1519","3FW4EL5A3LANKRP91N782LFHPY722Q","","null","<img src=""img/animal6.png"" style=""width:200px; border:14px solid green;"">","null","","","","","",""
"","image-keyboard-response","299","171932","0.0-299.0","33F859I567ZN9EQHU38SF1KBCZIHBE","A1OZPLHNIU1519","3FW4EL5A3LANKRP91N782LFHPY722Q","","361.4000000357628","img/animal6.png","75","362.19999998807907","2","1","3","0.7,0,0.8,0.7,0.8,0,0.7,0.8,0",""
"","html-keyboard-response","300","172233","0.0-300.0","33F859I567ZN9EQHU38SF1KBCZIHBE","A1OZPLHNIU1519","3FW4EL5A3LANKRP91N782LFHPY722Q","","null","<img src=""img/animal6.png"" style=""width:200px; border:14px solid green;"">","null","","","","","",""
"","image-keyboard-response","301","172580","0.0-301.0","33F859I567ZN9EQHU38SF1KBCZIHBE","A1OZPLHNIU1519","3FW4EL5A3LANKRP91N782LFHPY722Q","","345.5999999642372","img/animal6.png","75","346.19999998807907","2","1","3","0.7,0,0.8,0.7,0.8,0,0.7,0.8,0",""
"","html-keyboard-response","302","172882","0.0-302.0","33F859I567ZN9EQHU38SF1KBCZIHBE","A1OZPLHNIU1519","3FW4EL5A3LANKRP91N782LFHPY722Q","","null","<img src=""img/animal6.png"" style=""width:200px; border:14px solid green;"">","null","","","","","",""
"","image-keyboard-response","303","173227","0.0-303.0","33F859I567ZN9EQHU38SF1KBCZIHBE","A1OZPLHNIU1519","3FW4EL5A3LANKRP91N782LFHPY722Q","","344.89999997615814","img/animal6.png","75","345.69999998807907","2","1","3","0.7,0,0.8,0.7,0.8,0,0.7,0.8,0",""
"","html-keyboard-response","304","173529","0.0-304.0","33F859I567ZN9EQHU38SF1KBCZIHBE","A1OZPLHNIU1519","3FW4EL5A3LANKRP91N782LFHPY722Q","","null","<img src=""img/animal6.png"" style=""width:200px; border:14px solid green;"">","null","","","","","",""
"","image-keyboard-response","305","174196","0.0-305.0","33F859I567ZN9EQHU38SF1KBCZIHBE","A1OZPLHNIU1519","3FW4EL5A3LANKRP91N782LFHPY722Q","","666","img/animal5.png","75","666.8000000119209","2","0","2","0.7,0,0.8,0.7,0.8,0,0.7,0.8,0",""
"","html-keyboard-response","306","174498","0.0-306.0","33F859I567ZN9EQHU38SF1KBCZIHBE","A1OZPLHNIU1519","3FW4EL5A3LANKRP91N782LFHPY722Q","","null","<img src=""img/animal5.png"" style=""width:200px;border:14px solid red;"">","null","","","","","",""
"","image-keyboard-response","307","174900","0.0-307.0","33F859I567ZN9EQHU38SF1KBCZIHBE","A1OZPLHNIU1519","3FW4EL5A3LANKRP91N782LFHPY722Q","","400.80000001192093","img/animal5.png","75","401.60000002384186","2","1","2","0.7,0,0.8,0.7,0.8,0,0.7,0.8,0",""
"","html-keyboard-response","308","175201","0.0-308.0","33F859I567ZN9EQHU38SF1KBCZIHBE","A1OZPLHNIU1519","3FW4EL5A3LANKRP91N782LFHPY722Q","","null","<img src=""img/animal5.png"" style=""width:200px; border:14px solid green;"">","null","","","","","",""
"","image-keyboard-response","309","175540","0.0-309.0","33F859I567ZN9EQHU38SF1KBCZIHBE","A1OZPLHNIU1519","3FW4EL5A3LANKRP91N782LFHPY722Q","","338.19999998807907","img/animal5.png","75","338.69999998807907","2","1","2","0.7,0,0.8,0.7,0.8,0,0.7,0.8,0",""
"","html-keyboard-response","310","175841","0.0-310.0","33F859I567ZN9EQHU38SF1KBCZIHBE","A1OZPLHNIU1519","3FW4EL5A3LANKRP91N782LFHPY722Q","","null","<img src=""img/animal5.png"" style=""width:200px; border:14px solid green;"">","null","","","","","",""
"","image-keyboard-response","311","176348","0.0-311.0","33F859I567ZN9EQHU38SF1KBCZIHBE","A1OZPLHNIU1519","3FW4EL5A3LANKRP91N782LFHPY722Q","","505.4000000357628","img/animal6.png","75","506.19999998807907","2","1","3","0.7,0,0.8,0.7,0.8,0,0.7,0.8,0",""
"","html-keyboard-response","312","176649","0.0-312.0","33F859I567ZN9EQHU38SF1KBCZIHBE","A1OZPLHNIU1519","3FW4EL5A3LANKRP91N782LFHPY722Q","","null","<img src=""img/animal6.png"" style=""width:200px; border:14px solid green;"">","null","","","","","",""
"","image-keyboard-response","313","177295","0.0-313.0","33F859I567ZN9EQHU38SF1KBCZIHBE","A1OZPLHNIU1519","3FW4EL5A3LANKRP91N782LFHPY722Q","","645.8000000119209","img/animal4.png","74","646.3999999761581","1","0","1","0.7,0,0.8,0.7,0.8,0,0.7,0.8,0",""
"","html-keyboard-response","314","177597","0.0-314.0","33F859I567ZN9EQHU38SF1KBCZIHBE","A1OZPLHNIU1519","3FW4EL5A3LANKRP91N782LFHPY722Q","","null","<img src=""img/animal4.png"" style=""width:200px;border:14px solid red;"">","null","","","","","",""
"","image-keyboard-response","315","178251","0.0-315.0","33F859I567ZN9EQHU38SF1KBCZIHBE","A1OZPLHNIU1519","3FW4EL5A3LANKRP91N782LFHPY722Q","","653.3000000119209","img/animal5.png","75","653.8000000119209","2","1","2","0.7,0,0.8,0.7,0.8,0,0.7,0.8,0",""
"","html-keyboard-response","316","178553","0.0-316.0","33F859I567ZN9EQHU38SF1KBCZIHBE","A1OZPLHNIU1519","3FW4EL5A3LANKRP91N782LFHPY722Q","","null","<img src=""img/animal5.png"" style=""width:200px; border:14px solid green;"">","null","","","","","",""
"","image-keyboard-response","317","179364","0.0-317.0","33F859I567ZN9EQHU38SF1KBCZIHBE","A1OZPLHNIU1519","3FW4EL5A3LANKRP91N782LFHPY722Q","","810","img/animal6.png","75","810.6000000238419","2","0","3","0.7,0,0.8,0.7,0.8,0,0.7,0.8,0",""
"","html-keyboard-response","318","179665","0.0-318.0","33F859I567ZN9EQHU38SF1KBCZIHBE","A1OZPLHNIU1519","3FW4EL5A3LANKRP91N782LFHPY722Q","","null","<img src=""img/animal6.png"" style=""width:200px;border:14px solid red;"">","null","","","","","",""
"","image-keyboard-response","319","180043","0.0-319.0","33F859I567ZN9EQHU38SF1KBCZIHBE","A1OZPLHNIU1519","3FW4EL5A3LANKRP91N782LFHPY722Q","","377.30000001192093","img/animal6.png","75","378","2","1","3","0.7,0,0.8,0.7,0.8,0,0.7,0.8,0",""
"","html-keyboard-response","320","180346","0.0-320.0","33F859I567ZN9EQHU38SF1KBCZIHBE","A1OZPLHNIU1519","3FW4EL5A3LANKRP91N782LFHPY722Q","","null","<img src=""img/animal6.png"" style=""width:200px; border:14px solid green;"">","null","","","","","",""
"","image-keyboard-response","321","181076","0.0-321.0","33F859I567ZN9EQHU38SF1KBCZIHBE","A1OZPLHNIU1519","3FW4EL5A3LANKRP91N782LFHPY722Q","","729.1999999880791","img/animal5.png","75","729.6999999880791","2","1","2","0.7,0,0.8,0.7,0.8,0,0.7,0.8,0",""
"","html-keyboard-response","322","181377","0.0-322.0","33F859I567ZN9EQHU38SF1KBCZIHBE","A1OZPLHNIU1519","3FW4EL5A3LANKRP91N782LFHPY722Q","","null","<img src=""img/animal5.png"" style=""width:200px; border:14px solid green;"">","null","","","","","",""
"","image-keyboard-response","323","181772","0.0-323.0","33F859I567ZN9EQHU38SF1KBCZIHBE","A1OZPLHNIU1519","3FW4EL5A3LANKRP91N782LFHPY722Q","","393.9000000357628","img/animal5.png","75","394.5999999642372","2","0","2","0.7,0,0.8,0.7,0.8,0,0.7,0.8,0",""
"","html-keyboard-response","324","182074","0.0-324.0","33F859I567ZN9EQHU38SF1KBCZIHBE","A1OZPLHNIU1519","3FW4EL5A3LANKRP91N782LFHPY722Q","","null","<img src=""img/animal5.png"" style=""width:200px;border:14px solid red;"">","null","","","","","",""
"","image-keyboard-response","325","182500","0.0-325.0","33F859I567ZN9EQHU38SF1KBCZIHBE","A1OZPLHNIU1519","3FW4EL5A3LANKRP91N782LFHPY722Q","","424.60000002384186","img/animal5.png","75","425.2999999523163","2","1","2","0.7,0,0.8,0.7,0.8,0,0.7,0.8,0",""
"","html-keyboard-response","326","182802","0.0-326.0","33F859I567ZN9EQHU38SF1KBCZIHBE","A1OZPLHNIU1519","3FW4EL5A3LANKRP91N782LFHPY722Q","","null","<img src=""img/animal5.png"" style=""width:200px; border:14px solid green;"">","null","","","","","",""
"","image-keyboard-response","327","183420","0.0-327.0","33F859I567ZN9EQHU38SF1KBCZIHBE","A1OZPLHNIU1519","3FW4EL5A3LANKRP91N782LFHPY722Q","","616.9000000357628","img/animal6.png","75","617.6000000238419","2","1","3","0.7,0,0.8,0.7,0.8,0,0.7,0.8,0",""
"","html-keyboard-response","328","183720","0.0-328.0","33F859I567ZN9EQHU38SF1KBCZIHBE","A1OZPLHNIU1519","3FW4EL5A3LANKRP91N782LFHPY722Q","","null","<img src=""img/animal6.png"" style=""width:200px; border:14px solid green;"">","null","","","","","",""
"","image-keyboard-response","329","184412","0.0-329.0","33F859I567ZN9EQHU38SF1KBCZIHBE","A1OZPLHNIU1519","3FW4EL5A3LANKRP91N782LFHPY722Q","","690.1999999880791","img/animal4.png","74","690.9000000357628","1","0","1","0.7,0,0.8,0.7,0.8,0,0.7,0.8,0",""
"","html-keyboard-response","330","184713","0.0-330.0","33F859I567ZN9EQHU38SF1KBCZIHBE","A1OZPLHNIU1519","3FW4EL5A3LANKRP91N782LFHPY722Q","","null","<img src=""img/animal4.png"" style=""width:200px;border:14px solid red;"">","null","","","","","",""
"","image-keyboard-response","331","185076","0.0-331.0","33F859I567ZN9EQHU38SF1KBCZIHBE","A1OZPLHNIU1519","3FW4EL5A3LANKRP91N782LFHPY722Q","","361.80000001192093","img/animal4.png","74","362.5","1","1","1","0.7,0,0.8,0.7,0.8,0,0.7,0.8,0",""
"","html-keyboard-response","332","185377","0.0-332.0","33F859I567ZN9EQHU38SF1KBCZIHBE","A1OZPLHNIU1519","3FW4EL5A3LANKRP91N782LFHPY722Q","","null","<img src=""img/animal4.png"" style=""width:200px; border:14px solid green;"">","null","","","","","",""
"","image-keyboard-response","333","185676","0.0-333.0","33F859I567ZN9EQHU38SF1KBCZIHBE","A1OZPLHNIU1519","3FW4EL5A3LANKRP91N782LFHPY722Q","","297.4000000357628","img/animal4.png","74","298.0999999642372","1","1","1","0.7,0,0.8,0.7,0.8,0,0.7,0.8,0",""
"","html-keyboard-response","334","185977","0.0-334.0","33F859I567ZN9EQHU38SF1KBCZIHBE","A1OZPLHNIU1519","3FW4EL5A3LANKRP91N782LFHPY722Q","","null","<img src=""img/animal4.png"" style=""width:200px; border:14px solid green;"">","null","","","","","",""
"","image-keyboard-response","335","186300","0.0-335.0","33F859I567ZN9EQHU38SF1KBCZIHBE","A1OZPLHNIU1519","3FW4EL5A3LANKRP91N782LFHPY722Q","","321.2000000476837","img/animal4.png","74","321.9000000357628","1","0","1","0.7,0,0.8,0.7,0.8,0,0.7,0.8,0",""
"","html-keyboard-response","336","186601","0.0-336.0","33F859I567ZN9EQHU38SF1KBCZIHBE","A1OZPLHNIU1519","3FW4EL5A3LANKRP91N782LFHPY722Q","","null","<img src=""img/animal4.png"" style=""width:200px;border:14px solid red;"">","null","","","","","",""
"","image-keyboard-response","337","186940","0.0-337.0","33F859I567ZN9EQHU38SF1KBCZIHBE","A1OZPLHNIU1519","3FW4EL5A3LANKRP91N782LFHPY722Q","","337.39999997615814","img/animal4.png","74","338.19999998807907","1","1","1","0.7,0,0.8,0.7,0.8,0,0.7,0.8,0",""
"","html-keyboard-response","338","187241","0.0-338.0","33F859I567ZN9EQHU38SF1KBCZIHBE","A1OZPLHNIU1519","3FW4EL5A3LANKRP91N782LFHPY722Q","","null","<img src=""img/animal4.png"" style=""width:200px; border:14px solid green;"">","null","","","","","",""
"","image-keyboard-response","339","188759","0.0-339.0","33F859I567ZN9EQHU38SF1KBCZIHBE","A1OZPLHNIU1519","3FW4EL5A3LANKRP91N782LFHPY722Q","","1517.1000000238419","img/animal5.png","75","1517.8999999761581","2","1","2","0.7,0,0.8,0.7,0.8,0,0.7,0.8,0",""
"","html-keyboard-response","340","189061","0.0-340.0","33F859I567ZN9EQHU38SF1KBCZIHBE","A1OZPLHNIU1519","3FW4EL5A3LANKRP91N782LFHPY722Q","","null","<img src=""img/animal5.png"" style=""width:200px; border:14px solid green;"">","null","","","","","",""
"","image-keyboard-response","341","189716","0.0-341.0","33F859I567ZN9EQHU38SF1KBCZIHBE","A1OZPLHNIU1519","3FW4EL5A3LANKRP91N782LFHPY722Q","","654","img/animal4.png","74","654.6999999880791","1","1","1","0.7,0,0.8,0.7,0.8,0,0.7,0.8,0",""
"","html-keyboard-response","342","190017","0.0-342.0","33F859I567ZN9EQHU38SF1KBCZIHBE","A1OZPLHNIU1519","3FW4EL5A3LANKRP91N782LFHPY722Q","","null","<img src=""img/animal4.png"" style=""width:200px; border:14px solid green;"">","null","","","","","",""
"","image-keyboard-response","343","190580","0.0-343.0","33F859I567ZN9EQHU38SF1KBCZIHBE","A1OZPLHNIU1519","3FW4EL5A3LANKRP91N782LFHPY722Q","","562","img/animal5.png","75","562.6000000238419","2","1","2","0.7,0,0.8,0.7,0.8,0,0.7,0.8,0",""
"","html-keyboard-response","344","190882","0.0-344.0","33F859I567ZN9EQHU38SF1KBCZIHBE","A1OZPLHNIU1519","3FW4EL5A3LANKRP91N782LFHPY722Q","","null","<img src=""img/animal5.png"" style=""width:200px; border:14px solid green;"">","null","","","","","",""
"","image-keyboard-response","345","191612","0.0-345.0","33F859I567ZN9EQHU38SF1KBCZIHBE","A1OZPLHNIU1519","3FW4EL5A3LANKRP91N782LFHPY722Q","","729.0999999642372","img/animal6.png","75","729.6999999880791","2","1","3","0.7,0,0.8,0.7,0.8,0,0.7,0.8,0",""
"","html-keyboard-response","346","191914","0.0-346.0","33F859I567ZN9EQHU38SF1KBCZIHBE","A1OZPLHNIU1519","3FW4EL5A3LANKRP91N782LFHPY722Q","","null","<img src=""img/animal6.png"" style=""width:200px; border:14px solid green;"">","null","","","","","",""
"","image-keyboard-response","347","192323","0.0-347.0","33F859I567ZN9EQHU38SF1KBCZIHBE","A1OZPLHNIU1519","3FW4EL5A3LANKRP91N782LFHPY722Q","","408.7999999523163","img/animal4.png","75","409.5999999642372","2","0","1","0.7,0,0.8,0.7,0.8,0,0.7,0.8,0",""
"","html-keyboard-response","348","192625","0.0-348.0","33F859I567ZN9EQHU38SF1KBCZIHBE","A1OZPLHNIU1519","3FW4EL5A3LANKRP91N782LFHPY722Q","","null","<img src=""img/animal4.png"" style=""width:200px;border:14px solid red;"">","null","","","","","",""
"","image-keyboard-response","349","192923","0.0-349.0","33F859I567ZN9EQHU38SF1KBCZIHBE","A1OZPLHNIU1519","3FW4EL5A3LANKRP91N782LFHPY722Q","","297.9000000357628","img/animal4.png","75","298.60000002384186","2","0","1","0.7,0,0.8,0.7,0.8,0,0.7,0.8,0",""
"","html-keyboard-response","350","193225","0.0-350.0","33F859I567ZN9EQHU38SF1KBCZIHBE","A1OZPLHNIU1519","3FW4EL5A3LANKRP91N782LFHPY722Q","","null","<img src=""img/animal4.png"" style=""width:200px;border:14px solid red;"">","null","","","","","",""
"","image-keyboard-response","351","193452","0.0-351.0","33F859I567ZN9EQHU38SF1KBCZIHBE","A1OZPLHNIU1519","3FW4EL5A3LANKRP91N782LFHPY722Q","","225.80000001192093","img/animal5.png","74","226.5","1","0","2","0.7,0,0.8,0.7,0.8,0,0.7,0.8,0",""
"","html-keyboard-response","352","193753","0.0-352.0","33F859I567ZN9EQHU38SF1KBCZIHBE","A1OZPLHNIU1519","3FW4EL5A3LANKRP91N782LFHPY722Q","","null","<img src=""img/animal5.png"" style=""width:200px;border:14px solid red;"">","null","","","","","",""
"","image-keyboard-response","353","194652","0.0-353.0","33F859I567ZN9EQHU38SF1KBCZIHBE","A1OZPLHNIU1519","3FW4EL5A3LANKRP91N782LFHPY722Q","","897.6000000238419","img/animal4.png","74","898.0999999642372","1","0","1","0.7,0,0.8,0.7,0.8,0,0.7,0.8,0",""
"","html-keyboard-response","354","194953","0.0-354.0","33F859I567ZN9EQHU38SF1KBCZIHBE","A1OZPLHNIU1519","3FW4EL5A3LANKRP91N782LFHPY722Q","","null","<img src=""img/animal4.png"" style=""width:200px;border:14px solid red;"">","null","","","","","",""
"","image-keyboard-response","355","195500","0.0-355.0","33F859I567ZN9EQHU38SF1KBCZIHBE","A1OZPLHNIU1519","3FW4EL5A3LANKRP91N782LFHPY722Q","","546.1999999880791","img/animal5.png","75","546.7999999523163","2","1","2","0.7,0,0.8,0.7,0.8,0,0.7,0.8,0",""
"","html-keyboard-response","356","195801","0.0-356.0","33F859I567ZN9EQHU38SF1KBCZIHBE","A1OZPLHNIU1519","3FW4EL5A3LANKRP91N782LFHPY722Q","","null","<img src=""img/animal5.png"" style=""width:200px; border:14px solid green;"">","null","","","","","",""
"","image-keyboard-response","357","196452","0.0-357.0","33F859I567ZN9EQHU38SF1KBCZIHBE","A1OZPLHNIU1519","3FW4EL5A3LANKRP91N782LFHPY722Q","","649.8999999761581","img/animal4.png","74","650.5","1","1","1","0.7,0,0.8,0.7,0.8,0,0.7,0.8,0",""
"","html-keyboard-response","358","196754","0.0-358.0","33F859I567ZN9EQHU38SF1KBCZIHBE","A1OZPLHNIU1519","3FW4EL5A3LANKRP91N782LFHPY722Q","","null","<img src=""img/animal4.png"" style=""width:200px; border:14px solid green;"">","null","","","","","",""
"","image-keyboard-response","359","197412","0.0-359.0","33F859I567ZN9EQHU38SF1KBCZIHBE","A1OZPLHNIU1519","3FW4EL5A3LANKRP91N782LFHPY722Q","","656.6000000238419","img/animal6.png","75","657.2999999523163","2","0","3","0.7,0,0.8,0.7,0.8,0,0.7,0.8,0",""
"","html-keyboard-response","360","197714","0.0-360.0","33F859I567ZN9EQHU38SF1KBCZIHBE","A1OZPLHNIU1519","3FW4EL5A3LANKRP91N782LFHPY722Q","","null","<img src=""img/animal6.png"" style=""width:200px;border:14px solid red;"">","null","","","","","",""
"","image-keyboard-response","361","198388","0.0-361.0","33F859I567ZN9EQHU38SF1KBCZIHBE","A1OZPLHNIU1519","3FW4EL5A3LANKRP91N782LFHPY722Q","","673","img/animal4.png","74","673.6999999880791","1","0","1","0.7,0,0.8,0.7,0.8,0,0.7,0.8,0",""
"","html-keyboard-response","362","198689","0.0-362.0","33F859I567ZN9EQHU38SF1KBCZIHBE","A1OZPLHNIU1519","3FW4EL5A3LANKRP91N782LFHPY722Q","","null","<img src=""img/animal4.png"" style=""width:200px;border:14px solid red;"">","null","","","","","",""
"","instructions","363","202174","0.0-363.0","33F859I567ZN9EQHU38SF1KBCZIHBE","A1OZPLHNIU1519","3FW4EL5A3LANKRP91N782LFHPY722Q","[{""page_index"":0,""viewing_time"":3484.400000035763}]","3484.600000023842","","","","","","","",""
"","survey-text","364","206221","0.0-364.0","33F859I567ZN9EQHU38SF1KBCZIHBE","A1OZPLHNIU1519","3FW4EL5A3LANKRP91N782LFHPY722Q","","4045.2000000476837","","","","","","","","{""Q0"":""A1OZPLHNIU1519""}"
