"success","trial_type","trial_index","time_elapsed","internal_node_id","assignmentID","mturkID","hitID","view_history","rt","stimulus","key_press","reactionTime","a","r","s","reward_cond","responses"
"true","fullscreen","0","2928","0.0-0.0","34X6J5FLPUK64QNW1L83M3VPBR8JQI","A1SPIAJZORHFT0","3WPCIUYH1AU470H2HRBLZRFBM3CTDN","","","","","","","","","",""
"","instructions","1","31810","0.0-1.0","34X6J5FLPUK64QNW1L83M3VPBR8JQI","A1SPIAJZORHFT0","3WPCIUYH1AU470H2HRBLZRFBM3CTDN","[{""page_index"":0,""viewing_time"":5900},{""page_index"":1,""viewing_time"":1982.6000000014901},{""page_index"":2,""viewing_time"":2431},{""page_index"":3,""viewing_time"":2482.8000000044703},{""page_index"":4,""viewing_time"":4335},{""page_index"":5,""viewing_time"":3718.39999999851},{""page_index"":6,""viewing_time"":6264.10000000149},{""page_index"":7,""viewing_time"":1765.5}]","28880","","","","","","","",""
"","image-keyboard-response","2","34484","0.0-2.0","34X6J5FLPUK64QNW1L83M3VPBR8JQI","A1SPIAJZORHFT0","3WPCIUYH1AU470H2HRBLZRFBM3CTDN","","2673.10000000149","img/animal5.png","76","2674.4000000059605","3","0","1","0.7,0,0.8,0.7,0.8,0,0.7,0.8,0",""
"","html-keyboard-response","3","34787","0.0-3.0","34X6J5FLPUK64QNW1L83M3VPBR8JQI","A1SPIAJZORHFT0","3WPCIUYH1AU470H2HRBLZRFBM3CTDN","","null","<img src=""img/animal5.png"" style=""width:200px;border:14px solid red;"">","null","","","","","",""
"","image-keyboard-response","4","36614","0.0-4.0","34X6J5FLPUK64QNW1L83M3VPBR8JQI","A1SPIAJZORHFT0","3WPCIUYH1AU470H2HRBLZRFBM3CTDN","","1826.0999999940395","img/animal1.png","75","1827.2000000029802","2","1","2","0.7,0,0.8,0.7,0.8,0,0.7,0.8,0",""
"","html-keyboard-response","5","36916","0.0-5.0","34X6J5FLPUK64QNW1L83M3VPBR8JQI","A1SPIAJZORHFT0","3WPCIUYH1AU470H2HRBLZRFBM3CTDN","","null","<img src=""img/animal1.png"" style=""width:200px; border:14px solid green;"">","null","","","","","",""
"","image-keyboard-response","6","38047","0.0-6.0","34X6J5FLPUK64QNW1L83M3VPBR8JQI","A1SPIAJZORHFT0","3WPCIUYH1AU470H2HRBLZRFBM3CTDN","","1130.6000000014901","img/animal5.png","74","1131.2000000029802","1","1","1","0.7,0,0.8,0.7,0.8,0,0.7,0.8,0",""
"","html-keyboard-response","7","38349","0.0-7.0","34X6J5FLPUK64QNW1L83M3VPBR8JQI","A1SPIAJZORHFT0","3WPCIUYH1AU470H2HRBLZRFBM3CTDN","","null","<img src=""img/animal5.png"" style=""width:200px; border:14px solid green;"">","null","","","","","",""
"","image-keyboard-response","8","38772","0.0-8.0","34X6J5FLPUK64QNW1L83M3VPBR8JQI","A1SPIAJZORHFT0","3WPCIUYH1AU470H2HRBLZRFBM3CTDN","","422","img/animal5.png","74","422.6000000014901","1","1","1","0.7,0,0.8,0.7,0.8,0,0.7,0.8,0",""
"","html-keyboard-response","9","39074","0.0-9.0","34X6J5FLPUK64QNW1L83M3VPBR8JQI","A1SPIAJZORHFT0","3WPCIUYH1AU470H2HRBLZRFBM3CTDN","","null","<img src=""img/animal5.png"" style=""width:200px; border:14px solid green;"">","null","","","","","",""
"","image-keyboard-response","10","39513","0.0-10.0","34X6J5FLPUK64QNW1L83M3VPBR8JQI","A1SPIAJZORHFT0","3WPCIUYH1AU470H2HRBLZRFBM3CTDN","","437.8999999985099","img/animal1.png","75","438.79999999701977","2","1","2","0.7,0,0.8,0.7,0.8,0,0.7,0.8,0",""
"","html-keyboard-response","11","39815","0.0-11.0","34X6J5FLPUK64QNW1L83M3VPBR8JQI","A1SPIAJZORHFT0","3WPCIUYH1AU470H2HRBLZRFBM3CTDN","","null","<img src=""img/animal1.png"" style=""width:200px; border:14px solid green;"">","null","","","","","",""
"","image-keyboard-response","12","40081","0.0-12.0","34X6J5FLPUK64QNW1L83M3VPBR8JQI","A1SPIAJZORHFT0","3WPCIUYH1AU470H2HRBLZRFBM3CTDN","","264.69999999552965","img/animal1.png","75","265.3999999985099","2","1","2","0.7,0,0.8,0.7,0.8,0,0.7,0.8,0",""
"","html-keyboard-response","13","40383","0.0-13.0","34X6J5FLPUK64QNW1L83M3VPBR8JQI","A1SPIAJZORHFT0","3WPCIUYH1AU470H2HRBLZRFBM3CTDN","","null","<img src=""img/animal1.png"" style=""width:200px; border:14px solid green;"">","null","","","","","",""
"","image-keyboard-response","14","40653","0.0-14.0","34X6J5FLPUK64QNW1L83M3VPBR8JQI","A1SPIAJZORHFT0","3WPCIUYH1AU470H2HRBLZRFBM3CTDN","","269.5","img/animal1.png","75","270.19999999552965","2","1","2","0.7,0,0.8,0.7,0.8,0,0.7,0.8,0",""
"","html-keyboard-response","15","40968","0.0-15.0","34X6J5FLPUK64QNW1L83M3VPBR8JQI","A1SPIAJZORHFT0","3WPCIUYH1AU470H2HRBLZRFBM3CTDN","","null","<img src=""img/animal1.png"" style=""width:200px; border:14px solid green;"">","null","","","","","",""
"","image-keyboard-response","16","41234","0.0-16.0","34X6J5FLPUK64QNW1L83M3VPBR8JQI","A1SPIAJZORHFT0","3WPCIUYH1AU470H2HRBLZRFBM3CTDN","","265.70000000298023","img/animal1.png","75","266.5","2","0","2","0.7,0,0.8,0.7,0.8,0,0.7,0.8,0",""
"","html-keyboard-response","17","41537","0.0-17.0","34X6J5FLPUK64QNW1L83M3VPBR8JQI","A1SPIAJZORHFT0","3WPCIUYH1AU470H2HRBLZRFBM3CTDN","","null","<img src=""img/animal1.png"" style=""width:200px;border:14px solid red;"">","null","","","","","",""
"","image-keyboard-response","18","42268","0.0-18.0","34X6J5FLPUK64QNW1L83M3VPBR8JQI","A1SPIAJZORHFT0","3WPCIUYH1AU470H2HRBLZRFBM3CTDN","","730.1000000014901","img/animal6.png","76","730.8999999985099","3","0","3","0.7,0,0.8,0.7,0.8,0,0.7,0.8,0",""
"","html-keyboard-response","19","42570","0.0-19.0","34X6J5FLPUK64QNW1L83M3VPBR8JQI","A1SPIAJZORHFT0","3WPCIUYH1AU470H2HRBLZRFBM3CTDN","","null","<img src=""img/animal6.png"" style=""width:200px;border:14px solid red;"">","null","","","","","",""
"","image-keyboard-response","20","42826","0.0-20.0","34X6J5FLPUK64QNW1L83M3VPBR8JQI","A1SPIAJZORHFT0","3WPCIUYH1AU470H2HRBLZRFBM3CTDN","","254.70000000298023","img/animal6.png","76","255.39999999850988","3","0","3","0.7,0,0.8,0.7,0.8,0,0.7,0.8,0",""
"","html-keyboard-response","21","43128","0.0-21.0","34X6J5FLPUK64QNW1L83M3VPBR8JQI","A1SPIAJZORHFT0","3WPCIUYH1AU470H2HRBLZRFBM3CTDN","","null","<img src=""img/animal6.png"" style=""width:200px;border:14px solid red;"">","null","","","","","",""
"","image-keyboard-response","22","43841","0.0-22.0","34X6J5FLPUK64QNW1L83M3VPBR8JQI","A1SPIAJZORHFT0","3WPCIUYH1AU470H2HRBLZRFBM3CTDN","","712.7000000029802","img/animal1.png","75","713.5","2","1","2","0.7,0,0.8,0.7,0.8,0,0.7,0.8,0",""
"","html-keyboard-response","23","44143","0.0-23.0","34X6J5FLPUK64QNW1L83M3VPBR8JQI","A1SPIAJZORHFT0","3WPCIUYH1AU470H2HRBLZRFBM3CTDN","","null","<img src=""img/animal1.png"" style=""width:200px; border:14px solid green;"">","null","","","","","",""
"","image-keyboard-response","24","44395","0.0-24.0","34X6J5FLPUK64QNW1L83M3VPBR8JQI","A1SPIAJZORHFT0","3WPCIUYH1AU470H2HRBLZRFBM3CTDN","","251.39999999850988","img/animal1.png","75","252.09999999403954","2","1","2","0.7,0,0.8,0.7,0.8,0,0.7,0.8,0",""
"","html-keyboard-response","25","44697","0.0-25.0","34X6J5FLPUK64QNW1L83M3VPBR8JQI","A1SPIAJZORHFT0","3WPCIUYH1AU470H2HRBLZRFBM3CTDN","","null","<img src=""img/animal1.png"" style=""width:200px; border:14px solid green;"">","null","","","","","",""
"","image-keyboard-response","26","44960","0.0-26.0","34X6J5FLPUK64QNW1L83M3VPBR8JQI","A1SPIAJZORHFT0","3WPCIUYH1AU470H2HRBLZRFBM3CTDN","","262.6000000014901","img/animal1.png","75","263.20000000298023","2","0","2","0.7,0,0.8,0.7,0.8,0,0.7,0.8,0",""
"","html-keyboard-response","27","45261","0.0-27.0","34X6J5FLPUK64QNW1L83M3VPBR8JQI","A1SPIAJZORHFT0","3WPCIUYH1AU470H2HRBLZRFBM3CTDN","","null","<img src=""img/animal1.png"" style=""width:200px;border:14px solid red;"">","null","","","","","",""
"","image-keyboard-response","28","45699","0.0-28.0","34X6J5FLPUK64QNW1L83M3VPBR8JQI","A1SPIAJZORHFT0","3WPCIUYH1AU470H2HRBLZRFBM3CTDN","","436.80000000447035","img/animal1.png","75","437.5","2","1","2","0.7,0,0.8,0.7,0.8,0,0.7,0.8,0",""
"","html-keyboard-response","29","46001","0.0-29.0","34X6J5FLPUK64QNW1L83M3VPBR8JQI","A1SPIAJZORHFT0","3WPCIUYH1AU470H2HRBLZRFBM3CTDN","","null","<img src=""img/animal1.png"" style=""width:200px; border:14px solid green;"">","null","","","","","",""
"","image-keyboard-response","30","46513","0.0-30.0","34X6J5FLPUK64QNW1L83M3VPBR8JQI","A1SPIAJZORHFT0","3WPCIUYH1AU470H2HRBLZRFBM3CTDN","","511","img/animal5.png","76","512.1000000014901","3","1","1","0.7,0,0.8,0.7,0.8,0,0.7,0.8,0",""
"","html-keyboard-response","31","46814","0.0-31.0","34X6J5FLPUK64QNW1L83M3VPBR8JQI","A1SPIAJZORHFT0","3WPCIUYH1AU470H2HRBLZRFBM3CTDN","","null","<img src=""img/animal5.png"" style=""width:200px; border:14px solid green;"">","null","","","","","",""
"","image-keyboard-response","32","49222","0.0-32.0","34X6J5FLPUK64QNW1L83M3VPBR8JQI","A1SPIAJZORHFT0","3WPCIUYH1AU470H2HRBLZRFBM3CTDN","","2406.7999999970198","img/animal6.png","74","2407.7000000029802","1","1","3","0.7,0,0.8,0.7,0.8,0,0.7,0.8,0",""
"","html-keyboard-response","33","49524","0.0-33.0","34X6J5FLPUK64QNW1L83M3VPBR8JQI","A1SPIAJZORHFT0","3WPCIUYH1AU470H2HRBLZRFBM3CTDN","","null","<img src=""img/animal6.png"" style=""width:200px; border:14px solid green;"">","null","","","","","",""
"","image-keyboard-response","34","49842","0.0-34.0","34X6J5FLPUK64QNW1L83M3VPBR8JQI","A1SPIAJZORHFT0","3WPCIUYH1AU470H2HRBLZRFBM3CTDN","","317","img/animal6.png","74","317.80000000447035","1","1","3","0.7,0,0.8,0.7,0.8,0,0.7,0.8,0",""
"","html-keyboard-response","35","50143","0.0-35.0","34X6J5FLPUK64QNW1L83M3VPBR8JQI","A1SPIAJZORHFT0","3WPCIUYH1AU470H2HRBLZRFBM3CTDN","","null","<img src=""img/animal6.png"" style=""width:200px; border:14px solid green;"">","null","","","","","",""
"","image-keyboard-response","36","51373","0.0-36.0","34X6J5FLPUK64QNW1L83M3VPBR8JQI","A1SPIAJZORHFT0","3WPCIUYH1AU470H2HRBLZRFBM3CTDN","","1229","img/animal5.png","76","1230","3","1","1","0.7,0,0.8,0.7,0.8,0,0.7,0.8,0",""
"","html-keyboard-response","37","51675","0.0-37.0","34X6J5FLPUK64QNW1L83M3VPBR8JQI","A1SPIAJZORHFT0","3WPCIUYH1AU470H2HRBLZRFBM3CTDN","","null","<img src=""img/animal5.png"" style=""width:200px; border:14px solid green;"">","null","","","","","",""
"","image-keyboard-response","38","52217","0.0-38.0","34X6J5FLPUK64QNW1L83M3VPBR8JQI","A1SPIAJZORHFT0","3WPCIUYH1AU470H2HRBLZRFBM3CTDN","","540.5","img/animal1.png","75","541.3000000044703","2","1","2","0.7,0,0.8,0.7,0.8,0,0.7,0.8,0",""
"","html-keyboard-response","39","52519","0.0-39.0","34X6J5FLPUK64QNW1L83M3VPBR8JQI","A1SPIAJZORHFT0","3WPCIUYH1AU470H2HRBLZRFBM3CTDN","","null","<img src=""img/animal1.png"" style=""width:200px; border:14px solid green;"">","null","","","","","",""
"","image-keyboard-response","40","52794","0.0-40.0","34X6J5FLPUK64QNW1L83M3VPBR8JQI","A1SPIAJZORHFT0","3WPCIUYH1AU470H2HRBLZRFBM3CTDN","","273.6000000014901","img/animal1.png","75","274.5","2","1","2","0.7,0,0.8,0.7,0.8,0,0.7,0.8,0",""
"","html-keyboard-response","41","53095","0.0-41.0","34X6J5FLPUK64QNW1L83M3VPBR8JQI","A1SPIAJZORHFT0","3WPCIUYH1AU470H2HRBLZRFBM3CTDN","","null","<img src=""img/animal1.png"" style=""width:200px; border:14px solid green;"">","null","","","","","",""
"","image-keyboard-response","42","53711","0.0-42.0","34X6J5FLPUK64QNW1L83M3VPBR8JQI","A1SPIAJZORHFT0","3WPCIUYH1AU470H2HRBLZRFBM3CTDN","","615.3999999985099","img/animal5.png","76","616","3","1","1","0.7,0,0.8,0.7,0.8,0,0.7,0.8,0",""
"","html-keyboard-response","43","54012","0.0-43.0","34X6J5FLPUK64QNW1L83M3VPBR8JQI","A1SPIAJZORHFT0","3WPCIUYH1AU470H2HRBLZRFBM3CTDN","","null","<img src=""img/animal5.png"" style=""width:200px; border:14px solid green;"">","null","","","","","",""
"","image-keyboard-response","44","54678","0.0-44.0","34X6J5FLPUK64QNW1L83M3VPBR8JQI","A1SPIAJZORHFT0","3WPCIUYH1AU470H2HRBLZRFBM3CTDN","","664.8999999985099","img/animal1.png","75","665.4000000059605","2","1","2","0.7,0,0.8,0.7,0.8,0,0.7,0.8,0",""
"","html-keyboard-response","45","54979","0.0-45.0","34X6J5FLPUK64QNW1L83M3VPBR8JQI","A1SPIAJZORHFT0","3WPCIUYH1AU470H2HRBLZRFBM3CTDN","","null","<img src=""img/animal1.png"" style=""width:200px; border:14px solid green;"">","null","","","","","",""
"","image-keyboard-response","46","55760","0.0-46.0","34X6J5FLPUK64QNW1L83M3VPBR8JQI","A1SPIAJZORHFT0","3WPCIUYH1AU470H2HRBLZRFBM3CTDN","","780.7000000029802","img/animal6.png","74","781.5","1","1","3","0.7,0,0.8,0.7,0.8,0,0.7,0.8,0",""
"","html-keyboard-response","47","56062","0.0-47.0","34X6J5FLPUK64QNW1L83M3VPBR8JQI","A1SPIAJZORHFT0","3WPCIUYH1AU470H2HRBLZRFBM3CTDN","","null","<img src=""img/animal6.png"" style=""width:200px; border:14px solid green;"">","null","","","","","",""
"","image-keyboard-response","48","56583","0.0-48.0","34X6J5FLPUK64QNW1L83M3VPBR8JQI","A1SPIAJZORHFT0","3WPCIUYH1AU470H2HRBLZRFBM3CTDN","","520.1999999955297","img/animal5.png","76","521","3","1","1","0.7,0,0.8,0.7,0.8,0,0.7,0.8,0",""
"","html-keyboard-response","49","56885","0.0-49.0","34X6J5FLPUK64QNW1L83M3VPBR8JQI","A1SPIAJZORHFT0","3WPCIUYH1AU470H2HRBLZRFBM3CTDN","","null","<img src=""img/animal5.png"" style=""width:200px; border:14px solid green;"">","null","","","","","",""
"","image-keyboard-response","50","57329","0.0-50.0","34X6J5FLPUK64QNW1L83M3VPBR8JQI","A1SPIAJZORHFT0","3WPCIUYH1AU470H2HRBLZRFBM3CTDN","","442.69999999552965","img/animal1.png","75","443.20000000298023","2","1","2","0.7,0,0.8,0.7,0.8,0,0.7,0.8,0",""
"","html-keyboard-response","51","57630","0.0-51.0","34X6J5FLPUK64QNW1L83M3VPBR8JQI","A1SPIAJZORHFT0","3WPCIUYH1AU470H2HRBLZRFBM3CTDN","","null","<img src=""img/animal1.png"" style=""width:200px; border:14px solid green;"">","null","","","","","",""
"","image-keyboard-response","52","58083","0.0-52.0","34X6J5FLPUK64QNW1L83M3VPBR8JQI","A1SPIAJZORHFT0","3WPCIUYH1AU470H2HRBLZRFBM3CTDN","","451.30000000447035","img/animal5.png","76","452.19999999552965","3","1","1","0.7,0,0.8,0.7,0.8,0,0.7,0.8,0",""
"","html-keyboard-response","53","58384","0.0-53.0","34X6J5FLPUK64QNW1L83M3VPBR8JQI","A1SPIAJZORHFT0","3WPCIUYH1AU470H2HRBLZRFBM3CTDN","","null","<img src=""img/animal5.png"" style=""width:200px; border:14px solid green;"">","null","","","","","",""
"","image-keyboard-response","54","59812","0.0-54.0","34X6J5FLPUK64QNW1L83M3VPBR8JQI","A1SPIAJZORHFT0","3WPCIUYH1AU470H2HRBLZRFBM3CTDN","","1427","img/animal6.png","74","1427.8999999985099","1","1","3","0.7,0,0.8,0.7,0.8,0,0.7,0.8,0",""
"","html-keyboard-response","55","60113","0.0-55.0","34X6J5FLPUK64QNW1L83M3VPBR8JQI","A1SPIAJZORHFT0","3WPCIUYH1AU470H2HRBLZRFBM3CTDN","","null","<img src=""img/animal6.png"" style=""width:200px; border:14px solid green;"">","null","","","","","",""
"","image-keyboard-response","56","60531","0.0-56.0","34X6J5FLPUK64QNW1L83M3VPBR8JQI","A1SPIAJZORHFT0","3WPCIUYH1AU470H2HRBLZRFBM3CTDN","","416.20000000298023","img/animal5.png","75","417","2","0","1","0.7,0,0.8,0.7,0.8,0,0.7,0.8,0",""
"","html-keyboard-response","57","60832","0.0-57.0","34X6J5FLPUK64QNW1L83M3VPBR8JQI","A1SPIAJZORHFT0","3WPCIUYH1AU470H2HRBLZRFBM3CTDN","","null","<img src=""img/animal5.png"" style=""width:200px;border:14px solid red;"">","null","","","","","",""
"","image-keyboard-response","58","61840","0.0-58.0","34X6J5FLPUK64QNW1L83M3VPBR8JQI","A1SPIAJZORHFT0","3WPCIUYH1AU470H2HRBLZRFBM3CTDN","","1007.6000000014901","img/animal6.png","74","1008.3000000044703","1","1","3","0.7,0,0.8,0.7,0.8,0,0.7,0.8,0",""
"","html-keyboard-response","59","62142","0.0-59.0","34X6J5FLPUK64QNW1L83M3VPBR8JQI","A1SPIAJZORHFT0","3WPCIUYH1AU470H2HRBLZRFBM3CTDN","","null","<img src=""img/animal6.png"" style=""width:200px; border:14px solid green;"">","null","","","","","",""
"","image-keyboard-response","60","62679","0.0-60.0","34X6J5FLPUK64QNW1L83M3VPBR8JQI","A1SPIAJZORHFT0","3WPCIUYH1AU470H2HRBLZRFBM3CTDN","","536.5","img/animal5.png","76","537.3999999985099","3","1","1","0.7,0,0.8,0.7,0.8,0,0.7,0.8,0",""
"","html-keyboard-response","61","62980","0.0-61.0","34X6J5FLPUK64QNW1L83M3VPBR8JQI","A1SPIAJZORHFT0","3WPCIUYH1AU470H2HRBLZRFBM3CTDN","","null","<img src=""img/animal5.png"" style=""width:200px; border:14px solid green;"">","null","","","","","",""
"","image-keyboard-response","62","63530","0.0-62.0","34X6J5FLPUK64QNW1L83M3VPBR8JQI","A1SPIAJZORHFT0","3WPCIUYH1AU470H2HRBLZRFBM3CTDN","","549.3999999985099","img/animal1.png","75","550.1000000014901","2","0","2","0.7,0,0.8,0.7,0.8,0,0.7,0.8,0",""
"","html-keyboard-response","63","63832","0.0-63.0","34X6J5FLPUK64QNW1L83M3VPBR8JQI","A1SPIAJZORHFT0","3WPCIUYH1AU470H2HRBLZRFBM3CTDN","","null","<img src=""img/animal1.png"" style=""width:200px;border:14px solid red;"">","null","","","","","",""
"","image-keyboard-response","64","64414","0.0-64.0","34X6J5FLPUK64QNW1L83M3VPBR8JQI","A1SPIAJZORHFT0","3WPCIUYH1AU470H2HRBLZRFBM3CTDN","","581.0999999940395","img/animal5.png","76","582.2000000029802","3","1","1","0.7,0,0.8,0.7,0.8,0,0.7,0.8,0",""
"","html-keyboard-response","65","64716","0.0-65.0","34X6J5FLPUK64QNW1L83M3VPBR8JQI","A1SPIAJZORHFT0","3WPCIUYH1AU470H2HRBLZRFBM3CTDN","","null","<img src=""img/animal5.png"" style=""width:200px; border:14px solid green;"">","null","","","","","",""
"","image-keyboard-response","66","65487","0.0-66.0","34X6J5FLPUK64QNW1L83M3VPBR8JQI","A1SPIAJZORHFT0","3WPCIUYH1AU470H2HRBLZRFBM3CTDN","","770","img/animal6.png","74","770.7000000029802","1","1","3","0.7,0,0.8,0.7,0.8,0,0.7,0.8,0",""
"","html-keyboard-response","67","65789","0.0-67.0","34X6J5FLPUK64QNW1L83M3VPBR8JQI","A1SPIAJZORHFT0","3WPCIUYH1AU470H2HRBLZRFBM3CTDN","","null","<img src=""img/animal6.png"" style=""width:200px; border:14px solid green;"">","null","","","","","",""
"","image-keyboard-response","68","66381","0.0-68.0","34X6J5FLPUK64QNW1L83M3VPBR8JQI","A1SPIAJZORHFT0","3WPCIUYH1AU470H2HRBLZRFBM3CTDN","","591.2999999970198","img/animal1.png","75","592","2","1","2","0.7,0,0.8,0.7,0.8,0,0.7,0.8,0",""
"","html-keyboard-response","69","66683","0.0-69.0","34X6J5FLPUK64QNW1L83M3VPBR8JQI","A1SPIAJZORHFT0","3WPCIUYH1AU470H2HRBLZRFBM3CTDN","","null","<img src=""img/animal1.png"" style=""width:200px; border:14px solid green;"">","null","","","","","",""
"","image-keyboard-response","70","67049","0.0-70.0","34X6J5FLPUK64QNW1L83M3VPBR8JQI","A1SPIAJZORHFT0","3WPCIUYH1AU470H2HRBLZRFBM3CTDN","","365.20000000298023","img/animal1.png","75","366","2","1","2","0.7,0,0.8,0.7,0.8,0,0.7,0.8,0",""
"","html-keyboard-response","71","67351","0.0-71.0","34X6J5FLPUK64QNW1L83M3VPBR8JQI","A1SPIAJZORHFT0","3WPCIUYH1AU470H2HRBLZRFBM3CTDN","","null","<img src=""img/animal1.png"" style=""width:200px; border:14px solid green;"">","null","","","","","",""
"","image-keyboard-response","72","67773","0.0-72.0","34X6J5FLPUK64QNW1L83M3VPBR8JQI","A1SPIAJZORHFT0","3WPCIUYH1AU470H2HRBLZRFBM3CTDN","","421","img/animal5.png","76","421.79999999701977","3","1","1","0.7,0,0.8,0.7,0.8,0,0.7,0.8,0",""
"","html-keyboard-response","73","68075","0.0-73.0","34X6J5FLPUK64QNW1L83M3VPBR8JQI","A1SPIAJZORHFT0","3WPCIUYH1AU470H2HRBLZRFBM3CTDN","","null","<img src=""img/animal5.png"" style=""width:200px; border:14px solid green;"">","null","","","","","",""
"","image-keyboard-response","74","70612","0.0-74.0","34X6J5FLPUK64QNW1L83M3VPBR8JQI","A1SPIAJZORHFT0","3WPCIUYH1AU470H2HRBLZRFBM3CTDN","","2536.89999999851","img/animal6.png","74","2537.60000000149","1","0","3","0.7,0,0.8,0.7,0.8,0,0.7,0.8,0",""
"","html-keyboard-response","75","70915","0.0-75.0","34X6J5FLPUK64QNW1L83M3VPBR8JQI","A1SPIAJZORHFT0","3WPCIUYH1AU470H2HRBLZRFBM3CTDN","","null","<img src=""img/animal6.png"" style=""width:200px;border:14px solid red;"">","null","","","","","",""
"","image-keyboard-response","76","71426","0.0-76.0","34X6J5FLPUK64QNW1L83M3VPBR8JQI","A1SPIAJZORHFT0","3WPCIUYH1AU470H2HRBLZRFBM3CTDN","","510.29999999701977","img/animal6.png","74","510.79999999701977","1","1","3","0.7,0,0.8,0.7,0.8,0,0.7,0.8,0",""
"","html-keyboard-response","77","71728","0.0-77.0","34X6J5FLPUK64QNW1L83M3VPBR8JQI","A1SPIAJZORHFT0","3WPCIUYH1AU470H2HRBLZRFBM3CTDN","","null","<img src=""img/animal6.png"" style=""width:200px; border:14px solid green;"">","null","","","","","",""
"","image-keyboard-response","78","72417","0.0-78.0","34X6J5FLPUK64QNW1L83M3VPBR8JQI","A1SPIAJZORHFT0","3WPCIUYH1AU470H2HRBLZRFBM3CTDN","","688.2999999970198","img/animal1.png","75","688.8999999985099","2","1","2","0.7,0,0.8,0.7,0.8,0,0.7,0.8,0",""
"","html-keyboard-response","79","72720","0.0-79.0","34X6J5FLPUK64QNW1L83M3VPBR8JQI","A1SPIAJZORHFT0","3WPCIUYH1AU470H2HRBLZRFBM3CTDN","","null","<img src=""img/animal1.png"" style=""width:200px; border:14px solid green;"">","null","","","","","",""
"","image-keyboard-response","80","73026","0.0-80.0","34X6J5FLPUK64QNW1L83M3VPBR8JQI","A1SPIAJZORHFT0","3WPCIUYH1AU470H2HRBLZRFBM3CTDN","","305.5","img/animal1.png","75","306.29999999701977","2","1","2","0.7,0,0.8,0.7,0.8,0,0.7,0.8,0",""
"","html-keyboard-response","81","73329","0.0-81.0","34X6J5FLPUK64QNW1L83M3VPBR8JQI","A1SPIAJZORHFT0","3WPCIUYH1AU470H2HRBLZRFBM3CTDN","","null","<img src=""img/animal1.png"" style=""width:200px; border:14px solid green;"">","null","","","","","",""
"","image-keyboard-response","82","73654","0.0-82.0","34X6J5FLPUK64QNW1L83M3VPBR8JQI","A1SPIAJZORHFT0","3WPCIUYH1AU470H2HRBLZRFBM3CTDN","","324.6000000014901","img/animal1.png","75","325.29999999701977","2","1","2","0.7,0,0.8,0.7,0.8,0,0.7,0.8,0",""
"","html-keyboard-response","83","73956","0.0-83.0","34X6J5FLPUK64QNW1L83M3VPBR8JQI","A1SPIAJZORHFT0","3WPCIUYH1AU470H2HRBLZRFBM3CTDN","","null","<img src=""img/animal1.png"" style=""width:200px; border:14px solid green;"">","null","","","","","",""
"","image-keyboard-response","84","74655","0.0-84.0","34X6J5FLPUK64QNW1L83M3VPBR8JQI","A1SPIAJZORHFT0","3WPCIUYH1AU470H2HRBLZRFBM3CTDN","","698.1000000014901","img/animal6.png","74","698.7999999970198","1","1","3","0.7,0,0.8,0.7,0.8,0,0.7,0.8,0",""
"","html-keyboard-response","85","74957","0.0-85.0","34X6J5FLPUK64QNW1L83M3VPBR8JQI","A1SPIAJZORHFT0","3WPCIUYH1AU470H2HRBLZRFBM3CTDN","","null","<img src=""img/animal6.png"" style=""width:200px; border:14px solid green;"">","null","","","","","",""
"","image-keyboard-response","86","75301","0.0-86.0","34X6J5FLPUK64QNW1L83M3VPBR8JQI","A1SPIAJZORHFT0","3WPCIUYH1AU470H2HRBLZRFBM3CTDN","","343.6000000014901","img/animal6.png","74","344.3999999985099","1","1","3","0.7,0,0.8,0.7,0.8,0,0.7,0.8,0",""
"","html-keyboard-response","87","75603","0.0-87.0","34X6J5FLPUK64QNW1L83M3VPBR8JQI","A1SPIAJZORHFT0","3WPCIUYH1AU470H2HRBLZRFBM3CTDN","","null","<img src=""img/animal6.png"" style=""width:200px; border:14px solid green;"">","null","","","","","",""
"","image-keyboard-response","88","76791","0.0-88.0","34X6J5FLPUK64QNW1L83M3VPBR8JQI","A1SPIAJZORHFT0","3WPCIUYH1AU470H2HRBLZRFBM3CTDN","","1187.1999999955297","img/animal5.png","76","1187.7000000029802","3","1","1","0.7,0,0.8,0.7,0.8,0,0.7,0.8,0",""
"","html-keyboard-response","89","77092","0.0-89.0","34X6J5FLPUK64QNW1L83M3VPBR8JQI","A1SPIAJZORHFT0","3WPCIUYH1AU470H2HRBLZRFBM3CTDN","","null","<img src=""img/animal5.png"" style=""width:200px; border:14px solid green;"">","null","","","","","",""
"","image-keyboard-response","90","77603","0.0-90.0","34X6J5FLPUK64QNW1L83M3VPBR8JQI","A1SPIAJZORHFT0","3WPCIUYH1AU470H2HRBLZRFBM3CTDN","","510.20000000298023","img/animal1.png","75","511","2","1","2","0.7,0,0.8,0.7,0.8,0,0.7,0.8,0",""
"","html-keyboard-response","91","77904","0.0-91.0","34X6J5FLPUK64QNW1L83M3VPBR8JQI","A1SPIAJZORHFT0","3WPCIUYH1AU470H2HRBLZRFBM3CTDN","","null","<img src=""img/animal1.png"" style=""width:200px; border:14px solid green;"">","null","","","","","",""
"","image-keyboard-response","92","78822","0.0-92.0","34X6J5FLPUK64QNW1L83M3VPBR8JQI","A1SPIAJZORHFT0","3WPCIUYH1AU470H2HRBLZRFBM3CTDN","","917.2000000029802","img/animal6.png","74","917.8000000044703","1","1","3","0.7,0,0.8,0.7,0.8,0,0.7,0.8,0",""
"","html-keyboard-response","93","79124","0.0-93.0","34X6J5FLPUK64QNW1L83M3VPBR8JQI","A1SPIAJZORHFT0","3WPCIUYH1AU470H2HRBLZRFBM3CTDN","","null","<img src=""img/animal6.png"" style=""width:200px; border:14px solid green;"">","null","","","","","",""
"","image-keyboard-response","94","79447","0.0-94.0","34X6J5FLPUK64QNW1L83M3VPBR8JQI","A1SPIAJZORHFT0","3WPCIUYH1AU470H2HRBLZRFBM3CTDN","","322.29999999701977","img/animal6.png","74","322.79999999701977","1","0","3","0.7,0,0.8,0.7,0.8,0,0.7,0.8,0",""
"","html-keyboard-response","95","79749","0.0-95.0","34X6J5FLPUK64QNW1L83M3VPBR8JQI","A1SPIAJZORHFT0","3WPCIUYH1AU470H2HRBLZRFBM3CTDN","","null","<img src=""img/animal6.png"" style=""width:200px;border:14px solid red;"">","null","","","","","",""
"","image-keyboard-response","96","80342","0.0-96.0","34X6J5FLPUK64QNW1L83M3VPBR8JQI","A1SPIAJZORHFT0","3WPCIUYH1AU470H2HRBLZRFBM3CTDN","","591.8999999985099","img/animal5.png","76","592.5","3","1","1","0.7,0,0.8,0.7,0.8,0,0.7,0.8,0",""
"","html-keyboard-response","97","80646","0.0-97.0","34X6J5FLPUK64QNW1L83M3VPBR8JQI","A1SPIAJZORHFT0","3WPCIUYH1AU470H2HRBLZRFBM3CTDN","","null","<img src=""img/animal5.png"" style=""width:200px; border:14px solid green;"">","null","","","","","",""
"","image-keyboard-response","98","81149","0.0-98.0","34X6J5FLPUK64QNW1L83M3VPBR8JQI","A1SPIAJZORHFT0","3WPCIUYH1AU470H2HRBLZRFBM3CTDN","","502","img/animal5.png","76","502.6000000014901","3","1","1","0.7,0,0.8,0.7,0.8,0,0.7,0.8,0",""
"","html-keyboard-response","99","81451","0.0-99.0","34X6J5FLPUK64QNW1L83M3VPBR8JQI","A1SPIAJZORHFT0","3WPCIUYH1AU470H2HRBLZRFBM3CTDN","","null","<img src=""img/animal5.png"" style=""width:200px; border:14px solid green;"">","null","","","","","",""
"","image-keyboard-response","100","81724","0.0-100.0","34X6J5FLPUK64QNW1L83M3VPBR8JQI","A1SPIAJZORHFT0","3WPCIUYH1AU470H2HRBLZRFBM3CTDN","","271.80000000447035","img/animal5.png","76","272.6000000014901","3","1","1","0.7,0,0.8,0.7,0.8,0,0.7,0.8,0",""
"","html-keyboard-response","101","82026","0.0-101.0","34X6J5FLPUK64QNW1L83M3VPBR8JQI","A1SPIAJZORHFT0","3WPCIUYH1AU470H2HRBLZRFBM3CTDN","","null","<img src=""img/animal5.png"" style=""width:200px; border:14px solid green;"">","null","","","","","",""
"","image-keyboard-response","102","82888","0.0-102.0","34X6J5FLPUK64QNW1L83M3VPBR8JQI","A1SPIAJZORHFT0","3WPCIUYH1AU470H2HRBLZRFBM3CTDN","","860.8999999985099","img/animal6.png","74","861.7999999970198","1","1","3","0.7,0,0.8,0.7,0.8,0,0.7,0.8,0",""
"","html-keyboard-response","103","83189","0.0-103.0","34X6J5FLPUK64QNW1L83M3VPBR8JQI","A1SPIAJZORHFT0","3WPCIUYH1AU470H2HRBLZRFBM3CTDN","","null","<img src=""img/animal6.png"" style=""width:200px; border:14px solid green;"">","null","","","","","",""
"","image-keyboard-response","104","83857","0.0-104.0","34X6J5FLPUK64QNW1L83M3VPBR8JQI","A1SPIAJZORHFT0","3WPCIUYH1AU470H2HRBLZRFBM3CTDN","","667.5","img/animal5.png","76","668.2999999970198","3","1","1","0.7,0,0.8,0.7,0.8,0,0.7,0.8,0",""
"","html-keyboard-response","105","84159","0.0-105.0","34X6J5FLPUK64QNW1L83M3VPBR8JQI","A1SPIAJZORHFT0","3WPCIUYH1AU470H2HRBLZRFBM3CTDN","","null","<img src=""img/animal5.png"" style=""width:200px; border:14px solid green;"">","null","","","","","",""
"","image-keyboard-response","106","84880","0.0-106.0","34X6J5FLPUK64QNW1L83M3VPBR8JQI","A1SPIAJZORHFT0","3WPCIUYH1AU470H2HRBLZRFBM3CTDN","","720.6000000014901","img/animal6.png","74","721.3999999985099","1","0","3","0.7,0,0.8,0.7,0.8,0,0.7,0.8,0",""
"","html-keyboard-response","107","85182","0.0-107.0","34X6J5FLPUK64QNW1L83M3VPBR8JQI","A1SPIAJZORHFT0","3WPCIUYH1AU470H2HRBLZRFBM3CTDN","","null","<img src=""img/animal6.png"" style=""width:200px;border:14px solid red;"">","null","","","","","",""
"","image-keyboard-response","108","85577","0.0-108.0","34X6J5FLPUK64QNW1L83M3VPBR8JQI","A1SPIAJZORHFT0","3WPCIUYH1AU470H2HRBLZRFBM3CTDN","","394","img/animal6.png","74","394.79999999701977","1","0","3","0.7,0,0.8,0.7,0.8,0,0.7,0.8,0",""
"","html-keyboard-response","109","85879","0.0-109.0","34X6J5FLPUK64QNW1L83M3VPBR8JQI","A1SPIAJZORHFT0","3WPCIUYH1AU470H2HRBLZRFBM3CTDN","","null","<img src=""img/animal6.png"" style=""width:200px;border:14px solid red;"">","null","","","","","",""
"","image-keyboard-response","110","86200","0.0-110.0","34X6J5FLPUK64QNW1L83M3VPBR8JQI","A1SPIAJZORHFT0","3WPCIUYH1AU470H2HRBLZRFBM3CTDN","","320.70000000298023","img/animal6.png","74","321.30000000447035","1","1","3","0.7,0,0.8,0.7,0.8,0,0.7,0.8,0",""
"","html-keyboard-response","111","86503","0.0-111.0","34X6J5FLPUK64QNW1L83M3VPBR8JQI","A1SPIAJZORHFT0","3WPCIUYH1AU470H2HRBLZRFBM3CTDN","","null","<img src=""img/animal6.png"" style=""width:200px; border:14px solid green;"">","null","","","","","",""
"","image-keyboard-response","112","86959","0.0-112.0","34X6J5FLPUK64QNW1L83M3VPBR8JQI","A1SPIAJZORHFT0","3WPCIUYH1AU470H2HRBLZRFBM3CTDN","","455.29999999701977","img/animal6.png","74","456.20000000298023","1","1","3","0.7,0,0.8,0.7,0.8,0,0.7,0.8,0",""
"","html-keyboard-response","113","87260","0.0-113.0","34X6J5FLPUK64QNW1L83M3VPBR8JQI","A1SPIAJZORHFT0","3WPCIUYH1AU470H2HRBLZRFBM3CTDN","","null","<img src=""img/animal6.png"" style=""width:200px; border:14px solid green;"">","null","","","","","",""
"","image-keyboard-response","114","87971","0.0-114.0","34X6J5FLPUK64QNW1L83M3VPBR8JQI","A1SPIAJZORHFT0","3WPCIUYH1AU470H2HRBLZRFBM3CTDN","","709.8999999985099","img/animal5.png","76","710.6000000014901","3","1","1","0.7,0,0.8,0.7,0.8,0,0.7,0.8,0",""
"","html-keyboard-response","115","88272","0.0-115.0","34X6J5FLPUK64QNW1L83M3VPBR8JQI","A1SPIAJZORHFT0","3WPCIUYH1AU470H2HRBLZRFBM3CTDN","","null","<img src=""img/animal5.png"" style=""width:200px; border:14px solid green;"">","null","","","","","",""
"","image-keyboard-response","116","88811","0.0-116.0","34X6J5FLPUK64QNW1L83M3VPBR8JQI","A1SPIAJZORHFT0","3WPCIUYH1AU470H2HRBLZRFBM3CTDN","","537.7000000029802","img/animal1.png","75","538.2999999970198","2","1","2","0.7,0,0.8,0.7,0.8,0,0.7,0.8,0",""
"","html-keyboard-response","117","89112","0.0-117.0","34X6J5FLPUK64QNW1L83M3VPBR8JQI","A1SPIAJZORHFT0","3WPCIUYH1AU470H2HRBLZRFBM3CTDN","","null","<img src=""img/animal1.png"" style=""width:200px; border:14px solid green;"">","null","","","","","",""
"","image-keyboard-response","118","89782","0.0-118.0","34X6J5FLPUK64QNW1L83M3VPBR8JQI","A1SPIAJZORHFT0","3WPCIUYH1AU470H2HRBLZRFBM3CTDN","","669.2999999970198","img/animal6.png","74","670.2000000029802","1","0","3","0.7,0,0.8,0.7,0.8,0,0.7,0.8,0",""
"","html-keyboard-response","119","90085","0.0-119.0","34X6J5FLPUK64QNW1L83M3VPBR8JQI","A1SPIAJZORHFT0","3WPCIUYH1AU470H2HRBLZRFBM3CTDN","","null","<img src=""img/animal6.png"" style=""width:200px;border:14px solid red;"">","null","","","","","",""
"","image-keyboard-response","120","91205","0.0-120.0","34X6J5FLPUK64QNW1L83M3VPBR8JQI","A1SPIAJZORHFT0","3WPCIUYH1AU470H2HRBLZRFBM3CTDN","","1118.5999999940395","img/animal1.png","75","1119.3999999985099","2","0","2","0.7,0,0.8,0.7,0.8,0,0.7,0.8,0",""
"","html-keyboard-response","121","91506","0.0-121.0","34X6J5FLPUK64QNW1L83M3VPBR8JQI","A1SPIAJZORHFT0","3WPCIUYH1AU470H2HRBLZRFBM3CTDN","","null","<img src=""img/animal1.png"" style=""width:200px;border:14px solid red;"">","null","","","","","",""
"","image-keyboard-response","122","91819","0.0-122.0","34X6J5FLPUK64QNW1L83M3VPBR8JQI","A1SPIAJZORHFT0","3WPCIUYH1AU470H2HRBLZRFBM3CTDN","","312.5","img/animal1.png","75","313.1000000014901","2","1","2","0.7,0,0.8,0.7,0.8,0,0.7,0.8,0",""
"","html-keyboard-response","123","92122","0.0-123.0","34X6J5FLPUK64QNW1L83M3VPBR8JQI","A1SPIAJZORHFT0","3WPCIUYH1AU470H2HRBLZRFBM3CTDN","","null","<img src=""img/animal1.png"" style=""width:200px; border:14px solid green;"">","null","","","","","",""
"","image-keyboard-response","124","92565","0.0-124.0","34X6J5FLPUK64QNW1L83M3VPBR8JQI","A1SPIAJZORHFT0","3WPCIUYH1AU470H2HRBLZRFBM3CTDN","","441.8999999985099","img/animal1.png","75","442.6000000014901","2","1","2","0.7,0,0.8,0.7,0.8,0,0.7,0.8,0",""
"","html-keyboard-response","125","92866","0.0-125.0","34X6J5FLPUK64QNW1L83M3VPBR8JQI","A1SPIAJZORHFT0","3WPCIUYH1AU470H2HRBLZRFBM3CTDN","","null","<img src=""img/animal1.png"" style=""width:200px; border:14px solid green;"">","null","","","","","",""
"","image-keyboard-response","126","93652","0.0-126.0","34X6J5FLPUK64QNW1L83M3VPBR8JQI","A1SPIAJZORHFT0","3WPCIUYH1AU470H2HRBLZRFBM3CTDN","","785.6000000014901","img/animal5.png","76","786.3999999985099","3","0","1","0.7,0,0.8,0.7,0.8,0,0.7,0.8,0",""
"","html-keyboard-response","127","93954","0.0-127.0","34X6J5FLPUK64QNW1L83M3VPBR8JQI","A1SPIAJZORHFT0","3WPCIUYH1AU470H2HRBLZRFBM3CTDN","","null","<img src=""img/animal5.png"" style=""width:200px;border:14px solid red;"">","null","","","","","",""
"","image-keyboard-response","128","94241","0.0-128.0","34X6J5FLPUK64QNW1L83M3VPBR8JQI","A1SPIAJZORHFT0","3WPCIUYH1AU470H2HRBLZRFBM3CTDN","","285.6000000014901","img/animal5.png","76","286.3999999985099","3","1","1","0.7,0,0.8,0.7,0.8,0,0.7,0.8,0",""
"","html-keyboard-response","129","94542","0.0-129.0","34X6J5FLPUK64QNW1L83M3VPBR8JQI","A1SPIAJZORHFT0","3WPCIUYH1AU470H2HRBLZRFBM3CTDN","","null","<img src=""img/animal5.png"" style=""width:200px; border:14px solid green;"">","null","","","","","",""
"","image-keyboard-response","130","94810","0.0-130.0","34X6J5FLPUK64QNW1L83M3VPBR8JQI","A1SPIAJZORHFT0","3WPCIUYH1AU470H2HRBLZRFBM3CTDN","","266.6000000014901","img/animal5.png","76","267.30000000447035","3","0","1","0.7,0,0.8,0.7,0.8,0,0.7,0.8,0",""
"","html-keyboard-response","131","95112","0.0-131.0","34X6J5FLPUK64QNW1L83M3VPBR8JQI","A1SPIAJZORHFT0","3WPCIUYH1AU470H2HRBLZRFBM3CTDN","","null","<img src=""img/animal5.png"" style=""width:200px;border:14px solid red;"">","null","","","","","",""
"","image-keyboard-response","132","95505","0.0-132.0","34X6J5FLPUK64QNW1L83M3VPBR8JQI","A1SPIAJZORHFT0","3WPCIUYH1AU470H2HRBLZRFBM3CTDN","","392.20000000298023","img/animal5.png","76","392.8999999985099","3","1","1","0.7,0,0.8,0.7,0.8,0,0.7,0.8,0",""
"","html-keyboard-response","133","95806","0.0-133.0","34X6J5FLPUK64QNW1L83M3VPBR8JQI","A1SPIAJZORHFT0","3WPCIUYH1AU470H2HRBLZRFBM3CTDN","","null","<img src=""img/animal5.png"" style=""width:200px; border:14px solid green;"">","null","","","","","",""
"","image-keyboard-response","134","96687","0.0-134.0","34X6J5FLPUK64QNW1L83M3VPBR8JQI","A1SPIAJZORHFT0","3WPCIUYH1AU470H2HRBLZRFBM3CTDN","","879.7000000029802","img/animal6.png","74","880.5","1","0","3","0.7,0,0.8,0.7,0.8,0,0.7,0.8,0",""
"","html-keyboard-response","135","96990","0.0-135.0","34X6J5FLPUK64QNW1L83M3VPBR8JQI","A1SPIAJZORHFT0","3WPCIUYH1AU470H2HRBLZRFBM3CTDN","","null","<img src=""img/animal6.png"" style=""width:200px;border:14px solid red;"">","null","","","","","",""
"","image-keyboard-response","136","97313","0.0-136.0","34X6J5FLPUK64QNW1L83M3VPBR8JQI","A1SPIAJZORHFT0","3WPCIUYH1AU470H2HRBLZRFBM3CTDN","","322.5","img/animal6.png","74","323.20000000298023","1","0","3","0.7,0,0.8,0.7,0.8,0,0.7,0.8,0",""
"","html-keyboard-response","137","97615","0.0-137.0","34X6J5FLPUK64QNW1L83M3VPBR8JQI","A1SPIAJZORHFT0","3WPCIUYH1AU470H2HRBLZRFBM3CTDN","","null","<img src=""img/animal6.png"" style=""width:200px;border:14px solid red;"">","null","","","","","",""
"","image-keyboard-response","138","97883","0.0-138.0","34X6J5FLPUK64QNW1L83M3VPBR8JQI","A1SPIAJZORHFT0","3WPCIUYH1AU470H2HRBLZRFBM3CTDN","","267.6000000014901","img/animal6.png","74","268.30000000447035","1","1","3","0.7,0,0.8,0.7,0.8,0,0.7,0.8,0",""
"","html-keyboard-response","139","98185","0.0-139.0","34X6J5FLPUK64QNW1L83M3VPBR8JQI","A1SPIAJZORHFT0","3WPCIUYH1AU470H2HRBLZRFBM3CTDN","","null","<img src=""img/animal6.png"" style=""width:200px; border:14px solid green;"">","null","","","","","",""
"","image-keyboard-response","140","99125","0.0-140.0","34X6J5FLPUK64QNW1L83M3VPBR8JQI","A1SPIAJZORHFT0","3WPCIUYH1AU470H2HRBLZRFBM3CTDN","","939.1000000014901","img/animal5.png","76","940.2000000029802","3","1","1","0.7,0,0.8,0.7,0.8,0,0.7,0.8,0",""
"","html-keyboard-response","141","99426","0.0-141.0","34X6J5FLPUK64QNW1L83M3VPBR8JQI","A1SPIAJZORHFT0","3WPCIUYH1AU470H2HRBLZRFBM3CTDN","","null","<img src=""img/animal5.png"" style=""width:200px; border:14px solid green;"">","null","","","","","",""
"","image-keyboard-response","142","100151","0.0-142.0","34X6J5FLPUK64QNW1L83M3VPBR8JQI","A1SPIAJZORHFT0","3WPCIUYH1AU470H2HRBLZRFBM3CTDN","","723.4000000059605","img/animal6.png","74","724.2999999970198","1","1","3","0.7,0,0.8,0.7,0.8,0,0.7,0.8,0",""
"","html-keyboard-response","143","100453","0.0-143.0","34X6J5FLPUK64QNW1L83M3VPBR8JQI","A1SPIAJZORHFT0","3WPCIUYH1AU470H2HRBLZRFBM3CTDN","","null","<img src=""img/animal6.png"" style=""width:200px; border:14px solid green;"">","null","","","","","",""
"","image-keyboard-response","144","101091","0.0-144.0","34X6J5FLPUK64QNW1L83M3VPBR8JQI","A1SPIAJZORHFT0","3WPCIUYH1AU470H2HRBLZRFBM3CTDN","","636.9000000059605","img/animal5.png","76","637.7000000029802","3","0","1","0.7,0,0.8,0.7,0.8,0,0.7,0.8,0",""
"","html-keyboard-response","145","101392","0.0-145.0","34X6J5FLPUK64QNW1L83M3VPBR8JQI","A1SPIAJZORHFT0","3WPCIUYH1AU470H2HRBLZRFBM3CTDN","","null","<img src=""img/animal5.png"" style=""width:200px;border:14px solid red;"">","null","","","","","",""
"","image-keyboard-response","146","102025","0.0-146.0","34X6J5FLPUK64QNW1L83M3VPBR8JQI","A1SPIAJZORHFT0","3WPCIUYH1AU470H2HRBLZRFBM3CTDN","","632","img/animal1.png","75","632.7000000029802","2","1","2","0.7,0,0.8,0.7,0.8,0,0.7,0.8,0",""
"","html-keyboard-response","147","102328","0.0-147.0","34X6J5FLPUK64QNW1L83M3VPBR8JQI","A1SPIAJZORHFT0","3WPCIUYH1AU470H2HRBLZRFBM3CTDN","","null","<img src=""img/animal1.png"" style=""width:200px; border:14px solid green;"">","null","","","","","",""
"","image-keyboard-response","148","102922","0.0-148.0","34X6J5FLPUK64QNW1L83M3VPBR8JQI","A1SPIAJZORHFT0","3WPCIUYH1AU470H2HRBLZRFBM3CTDN","","593.7999999970198","img/animal6.png","74","594.6000000014901","1","1","3","0.7,0,0.8,0.7,0.8,0,0.7,0.8,0",""
"","html-keyboard-response","149","103225","0.0-149.0","34X6J5FLPUK64QNW1L83M3VPBR8JQI","A1SPIAJZORHFT0","3WPCIUYH1AU470H2HRBLZRFBM3CTDN","","null","<img src=""img/animal6.png"" style=""width:200px; border:14px solid green;"">","null","","","","","",""
"","image-keyboard-response","150","103986","0.0-150.0","34X6J5FLPUK64QNW1L83M3VPBR8JQI","A1SPIAJZORHFT0","3WPCIUYH1AU470H2HRBLZRFBM3CTDN","","759.8999999985099","img/animal5.png","76","760.7000000029802","3","1","1","0.7,0,0.8,0.7,0.8,0,0.7,0.8,0",""
"","html-keyboard-response","151","104289","0.0-151.0","34X6J5FLPUK64QNW1L83M3VPBR8JQI","A1SPIAJZORHFT0","3WPCIUYH1AU470H2HRBLZRFBM3CTDN","","null","<img src=""img/animal5.png"" style=""width:200px; border:14px solid green;"">","null","","","","","",""
"","image-keyboard-response","152","104685","0.0-152.0","34X6J5FLPUK64QNW1L83M3VPBR8JQI","A1SPIAJZORHFT0","3WPCIUYH1AU470H2HRBLZRFBM3CTDN","","395.29999999701977","img/animal5.png","76","396","3","1","1","0.7,0,0.8,0.7,0.8,0,0.7,0.8,0",""
"","html-keyboard-response","153","104986","0.0-153.0","34X6J5FLPUK64QNW1L83M3VPBR8JQI","A1SPIAJZORHFT0","3WPCIUYH1AU470H2HRBLZRFBM3CTDN","","null","<img src=""img/animal5.png"" style=""width:200px; border:14px solid green;"">","null","","","","","",""
"","image-keyboard-response","154","105751","0.0-154.0","34X6J5FLPUK64QNW1L83M3VPBR8JQI","A1SPIAJZORHFT0","3WPCIUYH1AU470H2HRBLZRFBM3CTDN","","764.2999999970198","img/animal1.png","75","765","2","1","2","0.7,0,0.8,0.7,0.8,0,0.7,0.8,0",""
"","html-keyboard-response","155","106055","0.0-155.0","34X6J5FLPUK64QNW1L83M3VPBR8JQI","A1SPIAJZORHFT0","3WPCIUYH1AU470H2HRBLZRFBM3CTDN","","null","<img src=""img/animal1.png"" style=""width:200px; border:14px solid green;"">","null","","","","","",""
"","image-keyboard-response","156","106712","0.0-156.0","34X6J5FLPUK64QNW1L83M3VPBR8JQI","A1SPIAJZORHFT0","3WPCIUYH1AU470H2HRBLZRFBM3CTDN","","656.7000000029802","img/animal6.png","74","657.6000000014901","1","0","3","0.7,0,0.8,0.7,0.8,0,0.7,0.8,0",""
"","html-keyboard-response","157","107013","0.0-157.0","34X6J5FLPUK64QNW1L83M3VPBR8JQI","A1SPIAJZORHFT0","3WPCIUYH1AU470H2HRBLZRFBM3CTDN","","null","<img src=""img/animal6.png"" style=""width:200px;border:14px solid red;"">","null","","","","","",""
"","image-keyboard-response","158","107637","0.0-158.0","34X6J5FLPUK64QNW1L83M3VPBR8JQI","A1SPIAJZORHFT0","3WPCIUYH1AU470H2HRBLZRFBM3CTDN","","622.7999999970198","img/animal5.png","76","623.7000000029802","3","1","1","0.7,0,0.8,0.7,0.8,0,0.7,0.8,0",""
"","html-keyboard-response","159","107940","0.0-159.0","34X6J5FLPUK64QNW1L83M3VPBR8JQI","A1SPIAJZORHFT0","3WPCIUYH1AU470H2HRBLZRFBM3CTDN","","null","<img src=""img/animal5.png"" style=""width:200px; border:14px solid green;"">","null","","","","","",""
"","image-keyboard-response","160","108570","0.0-160.0","34X6J5FLPUK64QNW1L83M3VPBR8JQI","A1SPIAJZORHFT0","3WPCIUYH1AU470H2HRBLZRFBM3CTDN","","628.8000000044703","img/animal6.png","74","629.6999999955297","1","1","3","0.7,0,0.8,0.7,0.8,0,0.7,0.8,0",""
"","html-keyboard-response","161","108872","0.0-161.0","34X6J5FLPUK64QNW1L83M3VPBR8JQI","A1SPIAJZORHFT0","3WPCIUYH1AU470H2HRBLZRFBM3CTDN","","null","<img src=""img/animal6.png"" style=""width:200px; border:14px solid green;"">","null","","","","","",""
"","image-keyboard-response","162","109557","0.0-162.0","34X6J5FLPUK64QNW1L83M3VPBR8JQI","A1SPIAJZORHFT0","3WPCIUYH1AU470H2HRBLZRFBM3CTDN","","684.3000000044703","img/animal1.png","75","685.0999999940395","2","1","2","0.7,0,0.8,0.7,0.8,0,0.7,0.8,0",""
"","html-keyboard-response","163","109860","0.0-163.0","34X6J5FLPUK64QNW1L83M3VPBR8JQI","A1SPIAJZORHFT0","3WPCIUYH1AU470H2HRBLZRFBM3CTDN","","null","<img src=""img/animal1.png"" style=""width:200px; border:14px solid green;"">","null","","","","","",""
"","image-keyboard-response","164","110626","0.0-164.0","34X6J5FLPUK64QNW1L83M3VPBR8JQI","A1SPIAJZORHFT0","3WPCIUYH1AU470H2HRBLZRFBM3CTDN","","764.5","img/animal5.png","76","765.3999999985099","3","1","1","0.7,0,0.8,0.7,0.8,0,0.7,0.8,0",""
"","html-keyboard-response","165","110928","0.0-165.0","34X6J5FLPUK64QNW1L83M3VPBR8JQI","A1SPIAJZORHFT0","3WPCIUYH1AU470H2HRBLZRFBM3CTDN","","null","<img src=""img/animal5.png"" style=""width:200px; border:14px solid green;"">","null","","","","","",""
"","image-keyboard-response","166","111599","0.0-166.0","34X6J5FLPUK64QNW1L83M3VPBR8JQI","A1SPIAJZORHFT0","3WPCIUYH1AU470H2HRBLZRFBM3CTDN","","670.6999999955297","img/animal1.png","75","671.5","2","0","2","0.7,0,0.8,0.7,0.8,0,0.7,0.8,0",""
"","html-keyboard-response","167","111901","0.0-167.0","34X6J5FLPUK64QNW1L83M3VPBR8JQI","A1SPIAJZORHFT0","3WPCIUYH1AU470H2HRBLZRFBM3CTDN","","null","<img src=""img/animal1.png"" style=""width:200px;border:14px solid red;"">","null","","","","","",""
"","image-keyboard-response","168","112515","0.0-168.0","34X6J5FLPUK64QNW1L83M3VPBR8JQI","A1SPIAJZORHFT0","3WPCIUYH1AU470H2HRBLZRFBM3CTDN","","613.6000000014901","img/animal6.png","74","614.1000000014901","1","1","3","0.7,0,0.8,0.7,0.8,0,0.7,0.8,0",""
"","html-keyboard-response","169","112816","0.0-169.0","34X6J5FLPUK64QNW1L83M3VPBR8JQI","A1SPIAJZORHFT0","3WPCIUYH1AU470H2HRBLZRFBM3CTDN","","null","<img src=""img/animal6.png"" style=""width:200px; border:14px solid green;"">","null","","","","","",""
"","image-keyboard-response","170","113538","0.0-170.0","34X6J5FLPUK64QNW1L83M3VPBR8JQI","A1SPIAJZORHFT0","3WPCIUYH1AU470H2HRBLZRFBM3CTDN","","721.2000000029802","img/animal5.png","76","721.7999999970198","3","1","1","0.7,0,0.8,0.7,0.8,0,0.7,0.8,0",""
"","html-keyboard-response","171","113840","0.0-171.0","34X6J5FLPUK64QNW1L83M3VPBR8JQI","A1SPIAJZORHFT0","3WPCIUYH1AU470H2HRBLZRFBM3CTDN","","null","<img src=""img/animal5.png"" style=""width:200px; border:14px solid green;"">","null","","","","","",""
"","image-keyboard-response","172","114502","0.0-172.0","34X6J5FLPUK64QNW1L83M3VPBR8JQI","A1SPIAJZORHFT0","3WPCIUYH1AU470H2HRBLZRFBM3CTDN","","661.5","img/animal1.png","75","662","2","1","2","0.7,0,0.8,0.7,0.8,0,0.7,0.8,0",""
"","html-keyboard-response","173","114804","0.0-173.0","34X6J5FLPUK64QNW1L83M3VPBR8JQI","A1SPIAJZORHFT0","3WPCIUYH1AU470H2HRBLZRFBM3CTDN","","null","<img src=""img/animal1.png"" style=""width:200px; border:14px solid green;"">","null","","","","","",""
"","image-keyboard-response","174","115081","0.0-174.0","34X6J5FLPUK64QNW1L83M3VPBR8JQI","A1SPIAJZORHFT0","3WPCIUYH1AU470H2HRBLZRFBM3CTDN","","276","img/animal1.png","75","276.70000000298023","2","1","2","0.7,0,0.8,0.7,0.8,0,0.7,0.8,0",""
"","html-keyboard-response","175","115382","0.0-175.0","34X6J5FLPUK64QNW1L83M3VPBR8JQI","A1SPIAJZORHFT0","3WPCIUYH1AU470H2HRBLZRFBM3CTDN","","null","<img src=""img/animal1.png"" style=""width:200px; border:14px solid green;"">","null","","","","","",""
"","image-keyboard-response","176","116079","0.0-176.0","34X6J5FLPUK64QNW1L83M3VPBR8JQI","A1SPIAJZORHFT0","3WPCIUYH1AU470H2HRBLZRFBM3CTDN","","695.2999999970198","img/animal6.png","74","696.2000000029802","1","0","3","0.7,0,0.8,0.7,0.8,0,0.7,0.8,0",""
"","html-keyboard-response","177","116381","0.0-177.0","34X6J5FLPUK64QNW1L83M3VPBR8JQI","A1SPIAJZORHFT0","3WPCIUYH1AU470H2HRBLZRFBM3CTDN","","null","<img src=""img/animal6.png"" style=""width:200px;border:14px solid red;"">","null","","","","","",""
"","image-keyboard-response","178","116702","0.0-178.0","34X6J5FLPUK64QNW1L83M3VPBR8JQI","A1SPIAJZORHFT0","3WPCIUYH1AU470H2HRBLZRFBM3CTDN","","320.30000000447035","img/animal6.png","74","321","1","1","3","0.7,0,0.8,0.7,0.8,0,0.7,0.8,0",""
"","html-keyboard-response","179","117003","0.0-179.0","34X6J5FLPUK64QNW1L83M3VPBR8JQI","A1SPIAJZORHFT0","3WPCIUYH1AU470H2HRBLZRFBM3CTDN","","null","<img src=""img/animal6.png"" style=""width:200px; border:14px solid green;"">","null","","","","","",""
"","image-keyboard-response","180","117595","0.0-180.0","34X6J5FLPUK64QNW1L83M3VPBR8JQI","A1SPIAJZORHFT0","3WPCIUYH1AU470H2HRBLZRFBM3CTDN","","590.3000000044703","img/animal5.png","76","591.1000000014901","3","1","1","0.7,0,0.8,0.7,0.8,0,0.7,0.8,0",""
"","html-keyboard-response","181","117897","0.0-181.0","34X6J5FLPUK64QNW1L83M3VPBR8JQI","A1SPIAJZORHFT0","3WPCIUYH1AU470H2HRBLZRFBM3CTDN","","null","<img src=""img/animal5.png"" style=""width:200px; border:14px solid green;"">","null","","","","","",""
"","html-keyboard-response","182","211928","0.0-182.0","34X6J5FLPUK64QNW1L83M3VPBR8JQI","A1SPIAJZORHFT0","3WPCIUYH1AU470H2HRBLZRFBM3CTDN","","","","","","","","","",""
"","image-keyboard-response","183","213331","0.0-183.0","34X6J5FLPUK64QNW1L83M3VPBR8JQI","A1SPIAJZORHFT0","3WPCIUYH1AU470H2HRBLZRFBM3CTDN","","1401.8999999985099","img/animal4.png","75","1402.8000000044703","2","1","3","0.5,0,1,1,0.5,0,0,1,0.5",""
"","html-keyboard-response","184","213633","0.0-184.0","34X6J5FLPUK64QNW1L83M3VPBR8JQI","A1SPIAJZORHFT0","3WPCIUYH1AU470H2HRBLZRFBM3CTDN","","null","<img src=""img/animal4.png"" style=""width:200px; border:14px solid green;"">","null","","","","","",""
"","image-keyboard-response","185","214006","0.0-185.0","34X6J5FLPUK64QNW1L83M3VPBR8JQI","A1SPIAJZORHFT0","3WPCIUYH1AU470H2HRBLZRFBM3CTDN","","371.79999999701977","img/animal4.png","75","372.3999999985099","2","1","3","0.5,0,1,1,0.5,0,0,1,0.5",""
"","html-keyboard-response","186","214308","0.0-186.0","34X6J5FLPUK64QNW1L83M3VPBR8JQI","A1SPIAJZORHFT0","3WPCIUYH1AU470H2HRBLZRFBM3CTDN","","null","<img src=""img/animal4.png"" style=""width:200px; border:14px solid green;"">","null","","","","","",""
"","image-keyboard-response","187","214599","0.0-187.0","34X6J5FLPUK64QNW1L83M3VPBR8JQI","A1SPIAJZORHFT0","3WPCIUYH1AU470H2HRBLZRFBM3CTDN","","289.6000000014901","img/animal4.png","75","290.5","2","1","3","0.5,0,1,1,0.5,0,0,1,0.5",""
"","html-keyboard-response","188","214900","0.0-188.0","34X6J5FLPUK64QNW1L83M3VPBR8JQI","A1SPIAJZORHFT0","3WPCIUYH1AU470H2HRBLZRFBM3CTDN","","null","<img src=""img/animal4.png"" style=""width:200px; border:14px solid green;"">","null","","","","","",""
"","image-keyboard-response","189","215985","0.0-189.0","34X6J5FLPUK64QNW1L83M3VPBR8JQI","A1SPIAJZORHFT0","3WPCIUYH1AU470H2HRBLZRFBM3CTDN","","1083.7999999970198","img/animal3.png","74","1084.5999999940395","1","1","2","0.5,0,1,1,0.5,0,0,1,0.5",""
"","html-keyboard-response","190","216287","0.0-190.0","34X6J5FLPUK64QNW1L83M3VPBR8JQI","A1SPIAJZORHFT0","3WPCIUYH1AU470H2HRBLZRFBM3CTDN","","null","<img src=""img/animal3.png"" style=""width:200px; border:14px solid green;"">","null","","","","","",""
"","image-keyboard-response","191","216619","0.0-191.0","34X6J5FLPUK64QNW1L83M3VPBR8JQI","A1SPIAJZORHFT0","3WPCIUYH1AU470H2HRBLZRFBM3CTDN","","331.6000000014901","img/animal3.png","74","332.5","1","1","2","0.5,0,1,1,0.5,0,0,1,0.5",""
"","html-keyboard-response","192","216921","0.0-192.0","34X6J5FLPUK64QNW1L83M3VPBR8JQI","A1SPIAJZORHFT0","3WPCIUYH1AU470H2HRBLZRFBM3CTDN","","null","<img src=""img/animal3.png"" style=""width:200px; border:14px solid green;"">","null","","","","","",""
"","image-keyboard-response","193","217624","0.0-193.0","34X6J5FLPUK64QNW1L83M3VPBR8JQI","A1SPIAJZORHFT0","3WPCIUYH1AU470H2HRBLZRFBM3CTDN","","702.3000000044703","img/animal4.png","75","702.7999999970198","2","1","3","0.5,0,1,1,0.5,0,0,1,0.5",""
"","html-keyboard-response","194","217934","0.0-194.0","34X6J5FLPUK64QNW1L83M3VPBR8JQI","A1SPIAJZORHFT0","3WPCIUYH1AU470H2HRBLZRFBM3CTDN","","null","<img src=""img/animal4.png"" style=""width:200px; border:14px solid green;"">","null","","","","","",""
"","image-keyboard-response","195","218398","0.0-195.0","34X6J5FLPUK64QNW1L83M3VPBR8JQI","A1SPIAJZORHFT0","3WPCIUYH1AU470H2HRBLZRFBM3CTDN","","463.1000000014901","img/animal3.png","74","464","1","1","2","0.5,0,1,1,0.5,0,0,1,0.5",""
"","html-keyboard-response","196","218700","0.0-196.0","34X6J5FLPUK64QNW1L83M3VPBR8JQI","A1SPIAJZORHFT0","3WPCIUYH1AU470H2HRBLZRFBM3CTDN","","null","<img src=""img/animal3.png"" style=""width:200px; border:14px solid green;"">","null","","","","","",""
"","image-keyboard-response","197","219473","0.0-197.0","34X6J5FLPUK64QNW1L83M3VPBR8JQI","A1SPIAJZORHFT0","3WPCIUYH1AU470H2HRBLZRFBM3CTDN","","772.2999999970198","img/animal2.png","76","773.2000000029802","3","1","1","0.5,0,1,1,0.5,0,0,1,0.5",""
"","html-keyboard-response","198","219776","0.0-198.0","34X6J5FLPUK64QNW1L83M3VPBR8JQI","A1SPIAJZORHFT0","3WPCIUYH1AU470H2HRBLZRFBM3CTDN","","null","<img src=""img/animal2.png"" style=""width:200px; border:14px solid green;"">","null","","","","","",""
"","image-keyboard-response","199","221184","0.0-199.0","34X6J5FLPUK64QNW1L83M3VPBR8JQI","A1SPIAJZORHFT0","3WPCIUYH1AU470H2HRBLZRFBM3CTDN","","1406.2999999970198","img/animal4.png","75","1407.2000000029802","2","1","3","0.5,0,1,1,0.5,0,0,1,0.5",""
"","html-keyboard-response","200","221494","0.0-200.0","34X6J5FLPUK64QNW1L83M3VPBR8JQI","A1SPIAJZORHFT0","3WPCIUYH1AU470H2HRBLZRFBM3CTDN","","null","<img src=""img/animal4.png"" style=""width:200px; border:14px solid green;"">","null","","","","","",""
"","image-keyboard-response","201","222049","0.0-201.0","34X6J5FLPUK64QNW1L83M3VPBR8JQI","A1SPIAJZORHFT0","3WPCIUYH1AU470H2HRBLZRFBM3CTDN","","554.1000000014901","img/animal2.png","74","554.7999999970198","1","0","1","0.5,0,1,1,0.5,0,0,1,0.5",""
"","html-keyboard-response","202","222350","0.0-202.0","34X6J5FLPUK64QNW1L83M3VPBR8JQI","A1SPIAJZORHFT0","3WPCIUYH1AU470H2HRBLZRFBM3CTDN","","null","<img src=""img/animal2.png"" style=""width:200px;border:14px solid red;"">","null","","","","","",""
"","image-keyboard-response","203","222938","0.0-203.0","34X6J5FLPUK64QNW1L83M3VPBR8JQI","A1SPIAJZORHFT0","3WPCIUYH1AU470H2HRBLZRFBM3CTDN","","586.4000000059605","img/animal3.png","74","587.1000000014901","1","1","2","0.5,0,1,1,0.5,0,0,1,0.5",""
"","html-keyboard-response","204","223240","0.0-204.0","34X6J5FLPUK64QNW1L83M3VPBR8JQI","A1SPIAJZORHFT0","3WPCIUYH1AU470H2HRBLZRFBM3CTDN","","null","<img src=""img/animal3.png"" style=""width:200px; border:14px solid green;"">","null","","","","","",""
"","image-keyboard-response","205","224047","0.0-205.0","34X6J5FLPUK64QNW1L83M3VPBR8JQI","A1SPIAJZORHFT0","3WPCIUYH1AU470H2HRBLZRFBM3CTDN","","806.2000000029802","img/animal2.png","76","806.9000000059605","3","1","1","0.5,0,1,1,0.5,0,0,1,0.5",""
"","html-keyboard-response","206","224350","0.0-206.0","34X6J5FLPUK64QNW1L83M3VPBR8JQI","A1SPIAJZORHFT0","3WPCIUYH1AU470H2HRBLZRFBM3CTDN","","null","<img src=""img/animal2.png"" style=""width:200px; border:14px solid green;"">","null","","","","","",""
"","image-keyboard-response","207","224643","0.0-207.0","34X6J5FLPUK64QNW1L83M3VPBR8JQI","A1SPIAJZORHFT0","3WPCIUYH1AU470H2HRBLZRFBM3CTDN","","292.3999999985099","img/animal2.png","76","293.20000000298023","3","1","1","0.5,0,1,1,0.5,0,0,1,0.5",""
"","html-keyboard-response","208","224953","0.0-208.0","34X6J5FLPUK64QNW1L83M3VPBR8JQI","A1SPIAJZORHFT0","3WPCIUYH1AU470H2HRBLZRFBM3CTDN","","null","<img src=""img/animal2.png"" style=""width:200px; border:14px solid green;"">","null","","","","","",""
"","image-keyboard-response","209","225542","0.0-209.0","34X6J5FLPUK64QNW1L83M3VPBR8JQI","A1SPIAJZORHFT0","3WPCIUYH1AU470H2HRBLZRFBM3CTDN","","588","img/animal4.png","75","588.7999999970198","2","1","3","0.5,0,1,1,0.5,0,0,1,0.5",""
"","html-keyboard-response","210","225843","0.0-210.0","34X6J5FLPUK64QNW1L83M3VPBR8JQI","A1SPIAJZORHFT0","3WPCIUYH1AU470H2HRBLZRFBM3CTDN","","null","<img src=""img/animal4.png"" style=""width:200px; border:14px solid green;"">","null","","","","","",""
"","image-keyboard-response","211","226160","0.0-211.0","34X6J5FLPUK64QNW1L83M3VPBR8JQI","A1SPIAJZORHFT0","3WPCIUYH1AU470H2HRBLZRFBM3CTDN","","315.30000000447035","img/animal4.png","75","316","2","1","3","0.5,0,1,1,0.5,0,0,1,0.5",""
"","html-keyboard-response","212","226462","0.0-212.0","34X6J5FLPUK64QNW1L83M3VPBR8JQI","A1SPIAJZORHFT0","3WPCIUYH1AU470H2HRBLZRFBM3CTDN","","null","<img src=""img/animal4.png"" style=""width:200px; border:14px solid green;"">","null","","","","","",""
"","image-keyboard-response","213","226734","0.0-213.0","34X6J5FLPUK64QNW1L83M3VPBR8JQI","A1SPIAJZORHFT0","3WPCIUYH1AU470H2HRBLZRFBM3CTDN","","271.8999999985099","img/animal4.png","75","272.6000000014901","2","1","3","0.5,0,1,1,0.5,0,0,1,0.5",""
"","html-keyboard-response","214","227037","0.0-214.0","34X6J5FLPUK64QNW1L83M3VPBR8JQI","A1SPIAJZORHFT0","3WPCIUYH1AU470H2HRBLZRFBM3CTDN","","null","<img src=""img/animal4.png"" style=""width:200px; border:14px solid green;"">","null","","","","","",""
"","image-keyboard-response","215","227335","0.0-215.0","34X6J5FLPUK64QNW1L83M3VPBR8JQI","A1SPIAJZORHFT0","3WPCIUYH1AU470H2HRBLZRFBM3CTDN","","297.80000000447035","img/animal4.png","75","298.3999999985099","2","1","3","0.5,0,1,1,0.5,0,0,1,0.5",""
"","html-keyboard-response","216","227637","0.0-216.0","34X6J5FLPUK64QNW1L83M3VPBR8JQI","A1SPIAJZORHFT0","3WPCIUYH1AU470H2HRBLZRFBM3CTDN","","null","<img src=""img/animal4.png"" style=""width:200px; border:14px solid green;"">","null","","","","","",""
"","image-keyboard-response","217","228178","0.0-217.0","34X6J5FLPUK64QNW1L83M3VPBR8JQI","A1SPIAJZORHFT0","3WPCIUYH1AU470H2HRBLZRFBM3CTDN","","540.6000000014901","img/animal3.png","74","541.3999999985099","1","1","2","0.5,0,1,1,0.5,0,0,1,0.5",""
"","html-keyboard-response","218","228480","0.0-218.0","34X6J5FLPUK64QNW1L83M3VPBR8JQI","A1SPIAJZORHFT0","3WPCIUYH1AU470H2HRBLZRFBM3CTDN","","null","<img src=""img/animal3.png"" style=""width:200px; border:14px solid green;"">","null","","","","","",""
"","image-keyboard-response","219","228764","0.0-219.0","34X6J5FLPUK64QNW1L83M3VPBR8JQI","A1SPIAJZORHFT0","3WPCIUYH1AU470H2HRBLZRFBM3CTDN","","282.90000000596046","img/animal3.png","74","283.69999999552965","1","1","2","0.5,0,1,1,0.5,0,0,1,0.5",""
"","html-keyboard-response","220","229065","0.0-220.0","34X6J5FLPUK64QNW1L83M3VPBR8JQI","A1SPIAJZORHFT0","3WPCIUYH1AU470H2HRBLZRFBM3CTDN","","null","<img src=""img/animal3.png"" style=""width:200px; border:14px solid green;"">","null","","","","","",""
"","image-keyboard-response","221","229366","0.0-221.0","34X6J5FLPUK64QNW1L83M3VPBR8JQI","A1SPIAJZORHFT0","3WPCIUYH1AU470H2HRBLZRFBM3CTDN","","300.5","img/animal3.png","74","301.20000000298023","1","1","2","0.5,0,1,1,0.5,0,0,1,0.5",""
"","html-keyboard-response","222","229668","0.0-222.0","34X6J5FLPUK64QNW1L83M3VPBR8JQI","A1SPIAJZORHFT0","3WPCIUYH1AU470H2HRBLZRFBM3CTDN","","null","<img src=""img/animal3.png"" style=""width:200px; border:14px solid green;"">","null","","","","","",""
"","image-keyboard-response","223","230004","0.0-223.0","34X6J5FLPUK64QNW1L83M3VPBR8JQI","A1SPIAJZORHFT0","3WPCIUYH1AU470H2HRBLZRFBM3CTDN","","335.79999999701977","img/animal3.png","74","336.3999999985099","1","1","2","0.5,0,1,1,0.5,0,0,1,0.5",""
"","html-keyboard-response","224","230306","0.0-224.0","34X6J5FLPUK64QNW1L83M3VPBR8JQI","A1SPIAJZORHFT0","3WPCIUYH1AU470H2HRBLZRFBM3CTDN","","null","<img src=""img/animal3.png"" style=""width:200px; border:14px solid green;"">","null","","","","","",""
"","image-keyboard-response","225","231051","0.0-225.0","34X6J5FLPUK64QNW1L83M3VPBR8JQI","A1SPIAJZORHFT0","3WPCIUYH1AU470H2HRBLZRFBM3CTDN","","744.3999999985099","img/animal2.png","76","745.1000000014901","3","1","1","0.5,0,1,1,0.5,0,0,1,0.5",""
"","html-keyboard-response","226","231353","0.0-226.0","34X6J5FLPUK64QNW1L83M3VPBR8JQI","A1SPIAJZORHFT0","3WPCIUYH1AU470H2HRBLZRFBM3CTDN","","null","<img src=""img/animal2.png"" style=""width:200px; border:14px solid green;"">","null","","","","","",""
"","image-keyboard-response","227","232053","0.0-227.0","34X6J5FLPUK64QNW1L83M3VPBR8JQI","A1SPIAJZORHFT0","3WPCIUYH1AU470H2HRBLZRFBM3CTDN","","699.8999999985099","img/animal4.png","75","700.6000000014901","2","1","3","0.5,0,1,1,0.5,0,0,1,0.5",""
"","html-keyboard-response","228","232355","0.0-228.0","34X6J5FLPUK64QNW1L83M3VPBR8JQI","A1SPIAJZORHFT0","3WPCIUYH1AU470H2HRBLZRFBM3CTDN","","null","<img src=""img/animal4.png"" style=""width:200px; border:14px solid green;"">","null","","","","","",""
"","image-keyboard-response","229","233000","0.0-229.0","34X6J5FLPUK64QNW1L83M3VPBR8JQI","A1SPIAJZORHFT0","3WPCIUYH1AU470H2HRBLZRFBM3CTDN","","644.2000000029802","img/animal3.png","74","644.7000000029802","1","1","2","0.5,0,1,1,0.5,0,0,1,0.5",""
"","html-keyboard-response","230","233301","0.0-230.0","34X6J5FLPUK64QNW1L83M3VPBR8JQI","A1SPIAJZORHFT0","3WPCIUYH1AU470H2HRBLZRFBM3CTDN","","null","<img src=""img/animal3.png"" style=""width:200px; border:14px solid green;"">","null","","","","","",""
"","image-keyboard-response","231","233879","0.0-231.0","34X6J5FLPUK64QNW1L83M3VPBR8JQI","A1SPIAJZORHFT0","3WPCIUYH1AU470H2HRBLZRFBM3CTDN","","576.2999999970198","img/animal2.png","76","577","3","1","1","0.5,0,1,1,0.5,0,0,1,0.5",""
"","html-keyboard-response","232","234181","0.0-232.0","34X6J5FLPUK64QNW1L83M3VPBR8JQI","A1SPIAJZORHFT0","3WPCIUYH1AU470H2HRBLZRFBM3CTDN","","null","<img src=""img/animal2.png"" style=""width:200px; border:14px solid green;"">","null","","","","","",""
"","image-keyboard-response","233","234492","0.0-233.0","34X6J5FLPUK64QNW1L83M3VPBR8JQI","A1SPIAJZORHFT0","3WPCIUYH1AU470H2HRBLZRFBM3CTDN","","310.8999999985099","img/animal2.png","76","311.70000000298023","3","1","1","0.5,0,1,1,0.5,0,0,1,0.5",""
"","html-keyboard-response","234","234794","0.0-234.0","34X6J5FLPUK64QNW1L83M3VPBR8JQI","A1SPIAJZORHFT0","3WPCIUYH1AU470H2HRBLZRFBM3CTDN","","null","<img src=""img/animal2.png"" style=""width:200px; border:14px solid green;"">","null","","","","","",""
"","image-keyboard-response","235","235420","0.0-235.0","34X6J5FLPUK64QNW1L83M3VPBR8JQI","A1SPIAJZORHFT0","3WPCIUYH1AU470H2HRBLZRFBM3CTDN","","625.5","img/animal3.png","74","626.2000000029802","1","1","2","0.5,0,1,1,0.5,0,0,1,0.5",""
"","html-keyboard-response","236","235722","0.0-236.0","34X6J5FLPUK64QNW1L83M3VPBR8JQI","A1SPIAJZORHFT0","3WPCIUYH1AU470H2HRBLZRFBM3CTDN","","null","<img src=""img/animal3.png"" style=""width:200px; border:14px solid green;"">","null","","","","","",""
"","image-keyboard-response","237","236439","0.0-237.0","34X6J5FLPUK64QNW1L83M3VPBR8JQI","A1SPIAJZORHFT0","3WPCIUYH1AU470H2HRBLZRFBM3CTDN","","715.8999999985099","img/animal4.png","75","716.8000000044703","2","1","3","0.5,0,1,1,0.5,0,0,1,0.5",""
"","html-keyboard-response","238","236742","0.0-238.0","34X6J5FLPUK64QNW1L83M3VPBR8JQI","A1SPIAJZORHFT0","3WPCIUYH1AU470H2HRBLZRFBM3CTDN","","null","<img src=""img/animal4.png"" style=""width:200px; border:14px solid green;"">","null","","","","","",""
"","image-keyboard-response","239","237036","0.0-239.0","34X6J5FLPUK64QNW1L83M3VPBR8JQI","A1SPIAJZORHFT0","3WPCIUYH1AU470H2HRBLZRFBM3CTDN","","293.09999999403954","img/animal4.png","75","293.79999999701977","2","1","3","0.5,0,1,1,0.5,0,0,1,0.5",""
"","html-keyboard-response","240","237344","0.0-240.0","34X6J5FLPUK64QNW1L83M3VPBR8JQI","A1SPIAJZORHFT0","3WPCIUYH1AU470H2HRBLZRFBM3CTDN","","null","<img src=""img/animal4.png"" style=""width:200px; border:14px solid green;"">","null","","","","","",""
"","image-keyboard-response","241","238087","0.0-241.0","34X6J5FLPUK64QNW1L83M3VPBR8JQI","A1SPIAJZORHFT0","3WPCIUYH1AU470H2HRBLZRFBM3CTDN","","741.6000000014901","img/animal2.png","76","742.4000000059605","3","1","1","0.5,0,1,1,0.5,0,0,1,0.5",""
"","html-keyboard-response","242","238388","0.0-242.0","34X6J5FLPUK64QNW1L83M3VPBR8JQI","A1SPIAJZORHFT0","3WPCIUYH1AU470H2HRBLZRFBM3CTDN","","null","<img src=""img/animal2.png"" style=""width:200px; border:14px solid green;"">","null","","","","","",""
"","image-keyboard-response","243","238678","0.0-243.0","34X6J5FLPUK64QNW1L83M3VPBR8JQI","A1SPIAJZORHFT0","3WPCIUYH1AU470H2HRBLZRFBM3CTDN","","288.80000000447035","img/animal2.png","76","289.69999999552965","3","1","1","0.5,0,1,1,0.5,0,0,1,0.5",""
"","html-keyboard-response","244","238979","0.0-244.0","34X6J5FLPUK64QNW1L83M3VPBR8JQI","A1SPIAJZORHFT0","3WPCIUYH1AU470H2HRBLZRFBM3CTDN","","null","<img src=""img/animal2.png"" style=""width:200px; border:14px solid green;"">","null","","","","","",""
"","image-keyboard-response","245","239249","0.0-245.0","34X6J5FLPUK64QNW1L83M3VPBR8JQI","A1SPIAJZORHFT0","3WPCIUYH1AU470H2HRBLZRFBM3CTDN","","269.3999999985099","img/animal2.png","76","270.1000000014901","3","1","1","0.5,0,1,1,0.5,0,0,1,0.5",""
"","html-keyboard-response","246","239551","0.0-246.0","34X6J5FLPUK64QNW1L83M3VPBR8JQI","A1SPIAJZORHFT0","3WPCIUYH1AU470H2HRBLZRFBM3CTDN","","null","<img src=""img/animal2.png"" style=""width:200px; border:14px solid green;"">","null","","","","","",""
"","image-keyboard-response","247","239849","0.0-247.0","34X6J5FLPUK64QNW1L83M3VPBR8JQI","A1SPIAJZORHFT0","3WPCIUYH1AU470H2HRBLZRFBM3CTDN","","297","img/animal2.png","76","297.70000000298023","3","1","1","0.5,0,1,1,0.5,0,0,1,0.5",""
"","html-keyboard-response","248","240151","0.0-248.0","34X6J5FLPUK64QNW1L83M3VPBR8JQI","A1SPIAJZORHFT0","3WPCIUYH1AU470H2HRBLZRFBM3CTDN","","null","<img src=""img/animal2.png"" style=""width:200px; border:14px solid green;"">","null","","","","","",""
"","image-keyboard-response","249","240488","0.0-249.0","34X6J5FLPUK64QNW1L83M3VPBR8JQI","A1SPIAJZORHFT0","3WPCIUYH1AU470H2HRBLZRFBM3CTDN","","336.19999999552965","img/animal2.png","76","337.20000000298023","3","1","1","0.5,0,1,1,0.5,0,0,1,0.5",""
"","html-keyboard-response","250","240791","0.0-250.0","34X6J5FLPUK64QNW1L83M3VPBR8JQI","A1SPIAJZORHFT0","3WPCIUYH1AU470H2HRBLZRFBM3CTDN","","null","<img src=""img/animal2.png"" style=""width:200px; border:14px solid green;"">","null","","","","","",""
"","image-keyboard-response","251","241385","0.0-251.0","34X6J5FLPUK64QNW1L83M3VPBR8JQI","A1SPIAJZORHFT0","3WPCIUYH1AU470H2HRBLZRFBM3CTDN","","593.6000000014901","img/animal3.png","74","594.1999999955297","1","1","2","0.5,0,1,1,0.5,0,0,1,0.5",""
"","html-keyboard-response","252","241688","0.0-252.0","34X6J5FLPUK64QNW1L83M3VPBR8JQI","A1SPIAJZORHFT0","3WPCIUYH1AU470H2HRBLZRFBM3CTDN","","null","<img src=""img/animal3.png"" style=""width:200px; border:14px solid green;"">","null","","","","","",""
"","image-keyboard-response","253","242589","0.0-253.0","34X6J5FLPUK64QNW1L83M3VPBR8JQI","A1SPIAJZORHFT0","3WPCIUYH1AU470H2HRBLZRFBM3CTDN","","900.0999999940395","img/animal2.png","76","900.8999999985099","3","1","1","0.5,0,1,1,0.5,0,0,1,0.5",""
"","html-keyboard-response","254","242897","0.0-254.0","34X6J5FLPUK64QNW1L83M3VPBR8JQI","A1SPIAJZORHFT0","3WPCIUYH1AU470H2HRBLZRFBM3CTDN","","null","<img src=""img/animal2.png"" style=""width:200px; border:14px solid green;"">","null","","","","","",""
"","image-keyboard-response","255","243241","0.0-255.0","34X6J5FLPUK64QNW1L83M3VPBR8JQI","A1SPIAJZORHFT0","3WPCIUYH1AU470H2HRBLZRFBM3CTDN","","342.80000000447035","img/animal2.png","76","343.5","3","1","1","0.5,0,1,1,0.5,0,0,1,0.5",""
"","html-keyboard-response","256","243543","0.0-256.0","34X6J5FLPUK64QNW1L83M3VPBR8JQI","A1SPIAJZORHFT0","3WPCIUYH1AU470H2HRBLZRFBM3CTDN","","null","<img src=""img/animal2.png"" style=""width:200px; border:14px solid green;"">","null","","","","","",""
"","image-keyboard-response","257","244211","0.0-257.0","34X6J5FLPUK64QNW1L83M3VPBR8JQI","A1SPIAJZORHFT0","3WPCIUYH1AU470H2HRBLZRFBM3CTDN","","667.5999999940395","img/animal3.png","74","668.1000000014901","1","1","2","0.5,0,1,1,0.5,0,0,1,0.5",""
"","html-keyboard-response","258","244514","0.0-258.0","34X6J5FLPUK64QNW1L83M3VPBR8JQI","A1SPIAJZORHFT0","3WPCIUYH1AU470H2HRBLZRFBM3CTDN","","null","<img src=""img/animal3.png"" style=""width:200px; border:14px solid green;"">","null","","","","","",""
"","image-keyboard-response","259","244824","0.0-259.0","34X6J5FLPUK64QNW1L83M3VPBR8JQI","A1SPIAJZORHFT0","3WPCIUYH1AU470H2HRBLZRFBM3CTDN","","308.8999999985099","img/animal3.png","74","309.6000000014901","1","1","2","0.5,0,1,1,0.5,0,0,1,0.5",""
"","html-keyboard-response","260","245125","0.0-260.0","34X6J5FLPUK64QNW1L83M3VPBR8JQI","A1SPIAJZORHFT0","3WPCIUYH1AU470H2HRBLZRFBM3CTDN","","null","<img src=""img/animal3.png"" style=""width:200px; border:14px solid green;"">","null","","","","","",""
"","image-keyboard-response","261","246767","0.0-261.0","34X6J5FLPUK64QNW1L83M3VPBR8JQI","A1SPIAJZORHFT0","3WPCIUYH1AU470H2HRBLZRFBM3CTDN","","1641.2999999970198","img/animal2.png","76","1642","3","1","1","0.5,0,1,1,0.5,0,0,1,0.5",""
"","html-keyboard-response","262","247082","0.0-262.0","34X6J5FLPUK64QNW1L83M3VPBR8JQI","A1SPIAJZORHFT0","3WPCIUYH1AU470H2HRBLZRFBM3CTDN","","null","<img src=""img/animal2.png"" style=""width:200px; border:14px solid green;"">","null","","","","","",""
"","image-keyboard-response","263","247957","0.0-263.0","34X6J5FLPUK64QNW1L83M3VPBR8JQI","A1SPIAJZORHFT0","3WPCIUYH1AU470H2HRBLZRFBM3CTDN","","873.6000000014901","img/animal3.png","74","874.5","1","1","2","0.5,0,1,1,0.5,0,0,1,0.5",""
"","html-keyboard-response","264","248258","0.0-264.0","34X6J5FLPUK64QNW1L83M3VPBR8JQI","A1SPIAJZORHFT0","3WPCIUYH1AU470H2HRBLZRFBM3CTDN","","null","<img src=""img/animal3.png"" style=""width:200px; border:14px solid green;"">","null","","","","","",""
"","image-keyboard-response","265","248590","0.0-265.0","34X6J5FLPUK64QNW1L83M3VPBR8JQI","A1SPIAJZORHFT0","3WPCIUYH1AU470H2HRBLZRFBM3CTDN","","330.8999999985099","img/animal3.png","74","331.70000000298023","1","1","2","0.5,0,1,1,0.5,0,0,1,0.5",""
"","html-keyboard-response","266","248891","0.0-266.0","34X6J5FLPUK64QNW1L83M3VPBR8JQI","A1SPIAJZORHFT0","3WPCIUYH1AU470H2HRBLZRFBM3CTDN","","null","<img src=""img/animal3.png"" style=""width:200px; border:14px solid green;"">","null","","","","","",""
"","image-keyboard-response","267","249596","0.0-267.0","34X6J5FLPUK64QNW1L83M3VPBR8JQI","A1SPIAJZORHFT0","3WPCIUYH1AU470H2HRBLZRFBM3CTDN","","704.3999999985099","img/animal4.png","75","705.3000000044703","2","1","3","0.5,0,1,1,0.5,0,0,1,0.5",""
"","html-keyboard-response","268","249899","0.0-268.0","34X6J5FLPUK64QNW1L83M3VPBR8JQI","A1SPIAJZORHFT0","3WPCIUYH1AU470H2HRBLZRFBM3CTDN","","null","<img src=""img/animal4.png"" style=""width:200px; border:14px solid green;"">","null","","","","","",""
"","image-keyboard-response","269","250338","0.0-269.0","34X6J5FLPUK64QNW1L83M3VPBR8JQI","A1SPIAJZORHFT0","3WPCIUYH1AU470H2HRBLZRFBM3CTDN","","438.29999999701977","img/animal4.png","75","439.1000000014901","2","1","3","0.5,0,1,1,0.5,0,0,1,0.5",""
"","html-keyboard-response","270","250641","0.0-270.0","34X6J5FLPUK64QNW1L83M3VPBR8JQI","A1SPIAJZORHFT0","3WPCIUYH1AU470H2HRBLZRFBM3CTDN","","null","<img src=""img/animal4.png"" style=""width:200px; border:14px solid green;"">","null","","","","","",""
"","image-keyboard-response","271","250905","0.0-271.0","34X6J5FLPUK64QNW1L83M3VPBR8JQI","A1SPIAJZORHFT0","3WPCIUYH1AU470H2HRBLZRFBM3CTDN","","263.29999999701977","img/animal4.png","75","264","2","1","3","0.5,0,1,1,0.5,0,0,1,0.5",""
"","html-keyboard-response","272","251207","0.0-272.0","34X6J5FLPUK64QNW1L83M3VPBR8JQI","A1SPIAJZORHFT0","3WPCIUYH1AU470H2HRBLZRFBM3CTDN","","null","<img src=""img/animal4.png"" style=""width:200px; border:14px solid green;"">","null","","","","","",""
"","image-keyboard-response","273","251501","0.0-273.0","34X6J5FLPUK64QNW1L83M3VPBR8JQI","A1SPIAJZORHFT0","3WPCIUYH1AU470H2HRBLZRFBM3CTDN","","293.6000000014901","img/animal4.png","75","294.30000000447035","2","1","3","0.5,0,1,1,0.5,0,0,1,0.5",""
"","html-keyboard-response","274","251803","0.0-274.0","34X6J5FLPUK64QNW1L83M3VPBR8JQI","A1SPIAJZORHFT0","3WPCIUYH1AU470H2HRBLZRFBM3CTDN","","null","<img src=""img/animal4.png"" style=""width:200px; border:14px solid green;"">","null","","","","","",""
"","image-keyboard-response","275","252085","0.0-275.0","34X6J5FLPUK64QNW1L83M3VPBR8JQI","A1SPIAJZORHFT0","3WPCIUYH1AU470H2HRBLZRFBM3CTDN","","281.20000000298023","img/animal4.png","75","281.90000000596046","2","1","3","0.5,0,1,1,0.5,0,0,1,0.5",""
"","html-keyboard-response","276","252394","0.0-276.0","34X6J5FLPUK64QNW1L83M3VPBR8JQI","A1SPIAJZORHFT0","3WPCIUYH1AU470H2HRBLZRFBM3CTDN","","null","<img src=""img/animal4.png"" style=""width:200px; border:14px solid green;"">","null","","","","","",""
"","image-keyboard-response","277","252743","0.0-277.0","34X6J5FLPUK64QNW1L83M3VPBR8JQI","A1SPIAJZORHFT0","3WPCIUYH1AU470H2HRBLZRFBM3CTDN","","348","img/animal4.png","75","349.20000000298023","2","1","3","0.5,0,1,1,0.5,0,0,1,0.5",""
"","html-keyboard-response","278","253046","0.0-278.0","34X6J5FLPUK64QNW1L83M3VPBR8JQI","A1SPIAJZORHFT0","3WPCIUYH1AU470H2HRBLZRFBM3CTDN","","null","<img src=""img/animal4.png"" style=""width:200px; border:14px solid green;"">","null","","","","","",""
"","image-keyboard-response","279","253355","0.0-279.0","34X6J5FLPUK64QNW1L83M3VPBR8JQI","A1SPIAJZORHFT0","3WPCIUYH1AU470H2HRBLZRFBM3CTDN","","308.20000000298023","img/animal4.png","75","309","2","1","3","0.5,0,1,1,0.5,0,0,1,0.5",""
"","html-keyboard-response","280","253658","0.0-280.0","34X6J5FLPUK64QNW1L83M3VPBR8JQI","A1SPIAJZORHFT0","3WPCIUYH1AU470H2HRBLZRFBM3CTDN","","null","<img src=""img/animal4.png"" style=""width:200px; border:14px solid green;"">","null","","","","","",""
"","image-keyboard-response","281","254491","0.0-281.0","34X6J5FLPUK64QNW1L83M3VPBR8JQI","A1SPIAJZORHFT0","3WPCIUYH1AU470H2HRBLZRFBM3CTDN","","832.1999999955297","img/animal2.png","76","832.7999999970198","3","1","1","0.5,0,1,1,0.5,0,0,1,0.5",""
"","html-keyboard-response","282","254793","0.0-282.0","34X6J5FLPUK64QNW1L83M3VPBR8JQI","A1SPIAJZORHFT0","3WPCIUYH1AU470H2HRBLZRFBM3CTDN","","null","<img src=""img/animal2.png"" style=""width:200px; border:14px solid green;"">","null","","","","","",""
"","image-keyboard-response","283","255544","0.0-283.0","34X6J5FLPUK64QNW1L83M3VPBR8JQI","A1SPIAJZORHFT0","3WPCIUYH1AU470H2HRBLZRFBM3CTDN","","750.2999999970198","img/animal4.png","75","751","2","1","3","0.5,0,1,1,0.5,0,0,1,0.5",""
"","html-keyboard-response","284","255846","0.0-284.0","34X6J5FLPUK64QNW1L83M3VPBR8JQI","A1SPIAJZORHFT0","3WPCIUYH1AU470H2HRBLZRFBM3CTDN","","null","<img src=""img/animal4.png"" style=""width:200px; border:14px solid green;"">","null","","","","","",""
"","image-keyboard-response","285","256402","0.0-285.0","34X6J5FLPUK64QNW1L83M3VPBR8JQI","A1SPIAJZORHFT0","3WPCIUYH1AU470H2HRBLZRFBM3CTDN","","556","img/animal3.png","74","556.7000000029802","1","1","2","0.5,0,1,1,0.5,0,0,1,0.5",""
"","html-keyboard-response","286","256705","0.0-286.0","34X6J5FLPUK64QNW1L83M3VPBR8JQI","A1SPIAJZORHFT0","3WPCIUYH1AU470H2HRBLZRFBM3CTDN","","null","<img src=""img/animal3.png"" style=""width:200px; border:14px solid green;"">","null","","","","","",""
"","image-keyboard-response","287","257321","0.0-287.0","34X6J5FLPUK64QNW1L83M3VPBR8JQI","A1SPIAJZORHFT0","3WPCIUYH1AU470H2HRBLZRFBM3CTDN","","615.2000000029802","img/animal2.png","76","615.8999999985099","3","1","1","0.5,0,1,1,0.5,0,0,1,0.5",""
"","html-keyboard-response","288","257622","0.0-288.0","34X6J5FLPUK64QNW1L83M3VPBR8JQI","A1SPIAJZORHFT0","3WPCIUYH1AU470H2HRBLZRFBM3CTDN","","null","<img src=""img/animal2.png"" style=""width:200px; border:14px solid green;"">","null","","","","","",""
"","image-keyboard-response","289","258055","0.0-289.0","34X6J5FLPUK64QNW1L83M3VPBR8JQI","A1SPIAJZORHFT0","3WPCIUYH1AU470H2HRBLZRFBM3CTDN","","432.1000000014901","img/animal3.png","74","433","1","1","2","0.5,0,1,1,0.5,0,0,1,0.5",""
"","html-keyboard-response","290","258357","0.0-290.0","34X6J5FLPUK64QNW1L83M3VPBR8JQI","A1SPIAJZORHFT0","3WPCIUYH1AU470H2HRBLZRFBM3CTDN","","null","<img src=""img/animal3.png"" style=""width:200px; border:14px solid green;"">","null","","","","","",""
"","image-keyboard-response","291","259393","0.0-291.0","34X6J5FLPUK64QNW1L83M3VPBR8JQI","A1SPIAJZORHFT0","3WPCIUYH1AU470H2HRBLZRFBM3CTDN","","1035.3000000044703","img/animal4.png","75","1036","2","1","3","0.5,0,1,1,0.5,0,0,1,0.5",""
"","html-keyboard-response","292","259695","0.0-292.0","34X6J5FLPUK64QNW1L83M3VPBR8JQI","A1SPIAJZORHFT0","3WPCIUYH1AU470H2HRBLZRFBM3CTDN","","null","<img src=""img/animal4.png"" style=""width:200px; border:14px solid green;"">","null","","","","","",""
"","image-keyboard-response","293","260375","0.0-293.0","34X6J5FLPUK64QNW1L83M3VPBR8JQI","A1SPIAJZORHFT0","3WPCIUYH1AU470H2HRBLZRFBM3CTDN","","679.5","img/animal2.png","76","680.1000000014901","3","1","1","0.5,0,1,1,0.5,0,0,1,0.5",""
"","html-keyboard-response","294","260678","0.0-294.0","34X6J5FLPUK64QNW1L83M3VPBR8JQI","A1SPIAJZORHFT0","3WPCIUYH1AU470H2HRBLZRFBM3CTDN","","null","<img src=""img/animal2.png"" style=""width:200px; border:14px solid green;"">","null","","","","","",""
"","image-keyboard-response","295","260985","0.0-295.0","34X6J5FLPUK64QNW1L83M3VPBR8JQI","A1SPIAJZORHFT0","3WPCIUYH1AU470H2HRBLZRFBM3CTDN","","306.3999999985099","img/animal2.png","76","306.8999999985099","3","1","1","0.5,0,1,1,0.5,0,0,1,0.5",""
"","html-keyboard-response","296","261288","0.0-296.0","34X6J5FLPUK64QNW1L83M3VPBR8JQI","A1SPIAJZORHFT0","3WPCIUYH1AU470H2HRBLZRFBM3CTDN","","null","<img src=""img/animal2.png"" style=""width:200px; border:14px solid green;"">","null","","","","","",""
"","image-keyboard-response","297","261846","0.0-297.0","34X6J5FLPUK64QNW1L83M3VPBR8JQI","A1SPIAJZORHFT0","3WPCIUYH1AU470H2HRBLZRFBM3CTDN","","557.8000000044703","img/animal3.png","74","558.5","1","1","2","0.5,0,1,1,0.5,0,0,1,0.5",""
"","html-keyboard-response","298","262148","0.0-298.0","34X6J5FLPUK64QNW1L83M3VPBR8JQI","A1SPIAJZORHFT0","3WPCIUYH1AU470H2HRBLZRFBM3CTDN","","null","<img src=""img/animal3.png"" style=""width:200px; border:14px solid green;"">","null","","","","","",""
"","image-keyboard-response","299","262963","0.0-299.0","34X6J5FLPUK64QNW1L83M3VPBR8JQI","A1SPIAJZORHFT0","3WPCIUYH1AU470H2HRBLZRFBM3CTDN","","814.2000000029802","img/animal2.png","76","815.2999999970198","3","1","1","0.5,0,1,1,0.5,0,0,1,0.5",""
"","html-keyboard-response","300","263265","0.0-300.0","34X6J5FLPUK64QNW1L83M3VPBR8JQI","A1SPIAJZORHFT0","3WPCIUYH1AU470H2HRBLZRFBM3CTDN","","null","<img src=""img/animal2.png"" style=""width:200px; border:14px solid green;"">","null","","","","","",""
"","image-keyboard-response","301","263599","0.0-301.0","34X6J5FLPUK64QNW1L83M3VPBR8JQI","A1SPIAJZORHFT0","3WPCIUYH1AU470H2HRBLZRFBM3CTDN","","333.1000000014901","img/animal2.png","76","334","3","1","1","0.5,0,1,1,0.5,0,0,1,0.5",""
"","html-keyboard-response","302","263900","0.0-302.0","34X6J5FLPUK64QNW1L83M3VPBR8JQI","A1SPIAJZORHFT0","3WPCIUYH1AU470H2HRBLZRFBM3CTDN","","null","<img src=""img/animal2.png"" style=""width:200px; border:14px solid green;"">","null","","","","","",""
"","image-keyboard-response","303","264468","0.0-303.0","34X6J5FLPUK64QNW1L83M3VPBR8JQI","A1SPIAJZORHFT0","3WPCIUYH1AU470H2HRBLZRFBM3CTDN","","567.0999999940395","img/animal3.png","74","567.7999999970198","1","1","2","0.5,0,1,1,0.5,0,0,1,0.5",""
"","html-keyboard-response","304","264769","0.0-304.0","34X6J5FLPUK64QNW1L83M3VPBR8JQI","A1SPIAJZORHFT0","3WPCIUYH1AU470H2HRBLZRFBM3CTDN","","null","<img src=""img/animal3.png"" style=""width:200px; border:14px solid green;"">","null","","","","","",""
"","image-keyboard-response","305","265094","0.0-305.0","34X6J5FLPUK64QNW1L83M3VPBR8JQI","A1SPIAJZORHFT0","3WPCIUYH1AU470H2HRBLZRFBM3CTDN","","324.29999999701977","img/animal3.png","74","325","1","1","2","0.5,0,1,1,0.5,0,0,1,0.5",""
"","html-keyboard-response","306","265397","0.0-306.0","34X6J5FLPUK64QNW1L83M3VPBR8JQI","A1SPIAJZORHFT0","3WPCIUYH1AU470H2HRBLZRFBM3CTDN","","null","<img src=""img/animal3.png"" style=""width:200px; border:14px solid green;"">","null","","","","","",""
"","image-keyboard-response","307","265730","0.0-307.0","34X6J5FLPUK64QNW1L83M3VPBR8JQI","A1SPIAJZORHFT0","3WPCIUYH1AU470H2HRBLZRFBM3CTDN","","331.79999999701977","img/animal3.png","74","332.6000000014901","1","1","2","0.5,0,1,1,0.5,0,0,1,0.5",""
"","html-keyboard-response","308","266032","0.0-308.0","34X6J5FLPUK64QNW1L83M3VPBR8JQI","A1SPIAJZORHFT0","3WPCIUYH1AU470H2HRBLZRFBM3CTDN","","null","<img src=""img/animal3.png"" style=""width:200px; border:14px solid green;"">","null","","","","","",""
"","image-keyboard-response","309","266950","0.0-309.0","34X6J5FLPUK64QNW1L83M3VPBR8JQI","A1SPIAJZORHFT0","3WPCIUYH1AU470H2HRBLZRFBM3CTDN","","917","img/animal4.png","75","917.8999999985099","2","1","3","0.5,0,1,1,0.5,0,0,1,0.5",""
"","html-keyboard-response","310","267253","0.0-310.0","34X6J5FLPUK64QNW1L83M3VPBR8JQI","A1SPIAJZORHFT0","3WPCIUYH1AU470H2HRBLZRFBM3CTDN","","null","<img src=""img/animal4.png"" style=""width:200px; border:14px solid green;"">","null","","","","","",""
"","image-keyboard-response","311","268425","0.0-311.0","34X6J5FLPUK64QNW1L83M3VPBR8JQI","A1SPIAJZORHFT0","3WPCIUYH1AU470H2HRBLZRFBM3CTDN","","1170.8999999985099","img/animal3.png","74","1171.7000000029802","1","1","2","0.5,0,1,1,0.5,0,0,1,0.5",""
"","html-keyboard-response","312","268726","0.0-312.0","34X6J5FLPUK64QNW1L83M3VPBR8JQI","A1SPIAJZORHFT0","3WPCIUYH1AU470H2HRBLZRFBM3CTDN","","null","<img src=""img/animal3.png"" style=""width:200px; border:14px solid green;"">","null","","","","","",""
"","image-keyboard-response","313","269463","0.0-313.0","34X6J5FLPUK64QNW1L83M3VPBR8JQI","A1SPIAJZORHFT0","3WPCIUYH1AU470H2HRBLZRFBM3CTDN","","735.7000000029802","img/animal4.png","75","736.5","2","1","3","0.5,0,1,1,0.5,0,0,1,0.5",""
"","html-keyboard-response","314","269764","0.0-314.0","34X6J5FLPUK64QNW1L83M3VPBR8JQI","A1SPIAJZORHFT0","3WPCIUYH1AU470H2HRBLZRFBM3CTDN","","null","<img src=""img/animal4.png"" style=""width:200px; border:14px solid green;"">","null","","","","","",""
"","image-keyboard-response","315","270117","0.0-315.0","34X6J5FLPUK64QNW1L83M3VPBR8JQI","A1SPIAJZORHFT0","3WPCIUYH1AU470H2HRBLZRFBM3CTDN","","351.90000000596046","img/animal4.png","75","352.6000000014901","2","1","3","0.5,0,1,1,0.5,0,0,1,0.5",""
"","html-keyboard-response","316","270420","0.0-316.0","34X6J5FLPUK64QNW1L83M3VPBR8JQI","A1SPIAJZORHFT0","3WPCIUYH1AU470H2HRBLZRFBM3CTDN","","null","<img src=""img/animal4.png"" style=""width:200px; border:14px solid green;"">","null","","","","","",""
"","image-keyboard-response","317","271097","0.0-317.0","34X6J5FLPUK64QNW1L83M3VPBR8JQI","A1SPIAJZORHFT0","3WPCIUYH1AU470H2HRBLZRFBM3CTDN","","675.3000000044703","img/animal3.png","74","676.0999999940395","1","1","2","0.5,0,1,1,0.5,0,0,1,0.5",""
"","html-keyboard-response","318","271399","0.0-318.0","34X6J5FLPUK64QNW1L83M3VPBR8JQI","A1SPIAJZORHFT0","3WPCIUYH1AU470H2HRBLZRFBM3CTDN","","null","<img src=""img/animal3.png"" style=""width:200px; border:14px solid green;"">","null","","","","","",""
"","image-keyboard-response","319","271717","0.0-319.0","34X6J5FLPUK64QNW1L83M3VPBR8JQI","A1SPIAJZORHFT0","3WPCIUYH1AU470H2HRBLZRFBM3CTDN","","317.6000000014901","img/animal3.png","74","318.20000000298023","1","1","2","0.5,0,1,1,0.5,0,0,1,0.5",""
"","html-keyboard-response","320","272019","0.0-320.0","34X6J5FLPUK64QNW1L83M3VPBR8JQI","A1SPIAJZORHFT0","3WPCIUYH1AU470H2HRBLZRFBM3CTDN","","null","<img src=""img/animal3.png"" style=""width:200px; border:14px solid green;"">","null","","","","","",""
"","image-keyboard-response","321","272402","0.0-321.0","34X6J5FLPUK64QNW1L83M3VPBR8JQI","A1SPIAJZORHFT0","3WPCIUYH1AU470H2HRBLZRFBM3CTDN","","382.6000000014901","img/animal3.png","74","383.3999999985099","1","1","2","0.5,0,1,1,0.5,0,0,1,0.5",""
"","html-keyboard-response","322","272704","0.0-322.0","34X6J5FLPUK64QNW1L83M3VPBR8JQI","A1SPIAJZORHFT0","3WPCIUYH1AU470H2HRBLZRFBM3CTDN","","null","<img src=""img/animal3.png"" style=""width:200px; border:14px solid green;"">","null","","","","","",""
"","image-keyboard-response","323","273459","0.0-323.0","34X6J5FLPUK64QNW1L83M3VPBR8JQI","A1SPIAJZORHFT0","3WPCIUYH1AU470H2HRBLZRFBM3CTDN","","754.5","img/animal4.png","75","755.6000000014901","2","1","3","0.5,0,1,1,0.5,0,0,1,0.5",""
"","html-keyboard-response","324","273761","0.0-324.0","34X6J5FLPUK64QNW1L83M3VPBR8JQI","A1SPIAJZORHFT0","3WPCIUYH1AU470H2HRBLZRFBM3CTDN","","null","<img src=""img/animal4.png"" style=""width:200px; border:14px solid green;"">","null","","","","","",""
"","image-keyboard-response","325","274040","0.0-325.0","34X6J5FLPUK64QNW1L83M3VPBR8JQI","A1SPIAJZORHFT0","3WPCIUYH1AU470H2HRBLZRFBM3CTDN","","278.1000000014901","img/animal4.png","75","279","2","1","3","0.5,0,1,1,0.5,0,0,1,0.5",""
"","html-keyboard-response","326","274341","0.0-326.0","34X6J5FLPUK64QNW1L83M3VPBR8JQI","A1SPIAJZORHFT0","3WPCIUYH1AU470H2HRBLZRFBM3CTDN","","null","<img src=""img/animal4.png"" style=""width:200px; border:14px solid green;"">","null","","","","","",""
"","image-keyboard-response","327","274919","0.0-327.0","34X6J5FLPUK64QNW1L83M3VPBR8JQI","A1SPIAJZORHFT0","3WPCIUYH1AU470H2HRBLZRFBM3CTDN","","577","img/animal3.png","74","577.7999999970198","1","1","2","0.5,0,1,1,0.5,0,0,1,0.5",""
"","html-keyboard-response","328","275221","0.0-328.0","34X6J5FLPUK64QNW1L83M3VPBR8JQI","A1SPIAJZORHFT0","3WPCIUYH1AU470H2HRBLZRFBM3CTDN","","null","<img src=""img/animal3.png"" style=""width:200px; border:14px solid green;"">","null","","","","","",""
"","image-keyboard-response","329","275905","0.0-329.0","34X6J5FLPUK64QNW1L83M3VPBR8JQI","A1SPIAJZORHFT0","3WPCIUYH1AU470H2HRBLZRFBM3CTDN","","683.8999999985099","img/animal2.png","76","684.6000000014901","3","1","1","0.5,0,1,1,0.5,0,0,1,0.5",""
"","html-keyboard-response","330","276207","0.0-330.0","34X6J5FLPUK64QNW1L83M3VPBR8JQI","A1SPIAJZORHFT0","3WPCIUYH1AU470H2HRBLZRFBM3CTDN","","null","<img src=""img/animal2.png"" style=""width:200px; border:14px solid green;"">","null","","","","","",""
"","image-keyboard-response","331","276490","0.0-331.0","34X6J5FLPUK64QNW1L83M3VPBR8JQI","A1SPIAJZORHFT0","3WPCIUYH1AU470H2HRBLZRFBM3CTDN","","282.59999999403954","img/animal2.png","76","283.5","3","1","1","0.5,0,1,1,0.5,0,0,1,0.5",""
"","html-keyboard-response","332","276793","0.0-332.0","34X6J5FLPUK64QNW1L83M3VPBR8JQI","A1SPIAJZORHFT0","3WPCIUYH1AU470H2HRBLZRFBM3CTDN","","null","<img src=""img/animal2.png"" style=""width:200px; border:14px solid green;"">","null","","","","","",""
"","image-keyboard-response","333","277064","0.0-333.0","34X6J5FLPUK64QNW1L83M3VPBR8JQI","A1SPIAJZORHFT0","3WPCIUYH1AU470H2HRBLZRFBM3CTDN","","270.69999999552965","img/animal2.png","76","271.3999999985099","3","1","1","0.5,0,1,1,0.5,0,0,1,0.5",""
"","html-keyboard-response","334","277367","0.0-334.0","34X6J5FLPUK64QNW1L83M3VPBR8JQI","A1SPIAJZORHFT0","3WPCIUYH1AU470H2HRBLZRFBM3CTDN","","null","<img src=""img/animal2.png"" style=""width:200px; border:14px solid green;"">","null","","","","","",""
"","image-keyboard-response","335","277645","0.0-335.0","34X6J5FLPUK64QNW1L83M3VPBR8JQI","A1SPIAJZORHFT0","3WPCIUYH1AU470H2HRBLZRFBM3CTDN","","277.3999999985099","img/animal2.png","76","278.20000000298023","3","1","1","0.5,0,1,1,0.5,0,0,1,0.5",""
"","html-keyboard-response","336","277948","0.0-336.0","34X6J5FLPUK64QNW1L83M3VPBR8JQI","A1SPIAJZORHFT0","3WPCIUYH1AU470H2HRBLZRFBM3CTDN","","null","<img src=""img/animal2.png"" style=""width:200px; border:14px solid green;"">","null","","","","","",""
"","image-keyboard-response","337","278835","0.0-337.0","34X6J5FLPUK64QNW1L83M3VPBR8JQI","A1SPIAJZORHFT0","3WPCIUYH1AU470H2HRBLZRFBM3CTDN","","886.2999999970198","img/animal3.png","74","887","1","1","2","0.5,0,1,1,0.5,0,0,1,0.5",""
"","html-keyboard-response","338","279138","0.0-338.0","34X6J5FLPUK64QNW1L83M3VPBR8JQI","A1SPIAJZORHFT0","3WPCIUYH1AU470H2HRBLZRFBM3CTDN","","null","<img src=""img/animal3.png"" style=""width:200px; border:14px solid green;"">","null","","","","","",""
"","image-keyboard-response","339","279394","0.0-339.0","34X6J5FLPUK64QNW1L83M3VPBR8JQI","A1SPIAJZORHFT0","3WPCIUYH1AU470H2HRBLZRFBM3CTDN","","255.29999999701977","img/animal3.png","74","256.20000000298023","1","1","2","0.5,0,1,1,0.5,0,0,1,0.5",""
"","html-keyboard-response","340","279697","0.0-340.0","34X6J5FLPUK64QNW1L83M3VPBR8JQI","A1SPIAJZORHFT0","3WPCIUYH1AU470H2HRBLZRFBM3CTDN","","null","<img src=""img/animal3.png"" style=""width:200px; border:14px solid green;"">","null","","","","","",""
"","image-keyboard-response","341","280311","0.0-341.0","34X6J5FLPUK64QNW1L83M3VPBR8JQI","A1SPIAJZORHFT0","3WPCIUYH1AU470H2HRBLZRFBM3CTDN","","612.8000000044703","img/animal4.png","75","613.7999999970198","2","1","3","0.5,0,1,1,0.5,0,0,1,0.5",""
"","html-keyboard-response","342","280614","0.0-342.0","34X6J5FLPUK64QNW1L83M3VPBR8JQI","A1SPIAJZORHFT0","3WPCIUYH1AU470H2HRBLZRFBM3CTDN","","null","<img src=""img/animal4.png"" style=""width:200px; border:14px solid green;"">","null","","","","","",""
"","image-keyboard-response","343","280884","0.0-343.0","34X6J5FLPUK64QNW1L83M3VPBR8JQI","A1SPIAJZORHFT0","3WPCIUYH1AU470H2HRBLZRFBM3CTDN","","269.20000000298023","img/animal4.png","75","269.90000000596046","2","1","3","0.5,0,1,1,0.5,0,0,1,0.5",""
"","html-keyboard-response","344","281191","0.0-344.0","34X6J5FLPUK64QNW1L83M3VPBR8JQI","A1SPIAJZORHFT0","3WPCIUYH1AU470H2HRBLZRFBM3CTDN","","null","<img src=""img/animal4.png"" style=""width:200px; border:14px solid green;"">","null","","","","","",""
"","image-keyboard-response","345","281730","0.0-345.0","34X6J5FLPUK64QNW1L83M3VPBR8JQI","A1SPIAJZORHFT0","3WPCIUYH1AU470H2HRBLZRFBM3CTDN","","537.8000000044703","img/animal2.png","76","538.6999999955297","3","1","1","0.5,0,1,1,0.5,0,0,1,0.5",""
"","html-keyboard-response","346","282032","0.0-346.0","34X6J5FLPUK64QNW1L83M3VPBR8JQI","A1SPIAJZORHFT0","3WPCIUYH1AU470H2HRBLZRFBM3CTDN","","null","<img src=""img/animal2.png"" style=""width:200px; border:14px solid green;"">","null","","","","","",""
"","image-keyboard-response","347","282697","0.0-347.0","34X6J5FLPUK64QNW1L83M3VPBR8JQI","A1SPIAJZORHFT0","3WPCIUYH1AU470H2HRBLZRFBM3CTDN","","663.7999999970198","img/animal3.png","74","664.3999999985099","1","1","2","0.5,0,1,1,0.5,0,0,1,0.5",""
"","html-keyboard-response","348","282999","0.0-348.0","34X6J5FLPUK64QNW1L83M3VPBR8JQI","A1SPIAJZORHFT0","3WPCIUYH1AU470H2HRBLZRFBM3CTDN","","null","<img src=""img/animal3.png"" style=""width:200px; border:14px solid green;"">","null","","","","","",""
"","image-keyboard-response","349","283551","0.0-349.0","34X6J5FLPUK64QNW1L83M3VPBR8JQI","A1SPIAJZORHFT0","3WPCIUYH1AU470H2HRBLZRFBM3CTDN","","551.2999999970198","img/animal2.png","76","551.8999999985099","3","1","1","0.5,0,1,1,0.5,0,0,1,0.5",""
"","html-keyboard-response","350","283854","0.0-350.0","34X6J5FLPUK64QNW1L83M3VPBR8JQI","A1SPIAJZORHFT0","3WPCIUYH1AU470H2HRBLZRFBM3CTDN","","null","<img src=""img/animal2.png"" style=""width:200px; border:14px solid green;"">","null","","","","","",""
"","image-keyboard-response","351","284224","0.0-351.0","34X6J5FLPUK64QNW1L83M3VPBR8JQI","A1SPIAJZORHFT0","3WPCIUYH1AU470H2HRBLZRFBM3CTDN","","369.1000000014901","img/animal2.png","76","369.8999999985099","3","1","1","0.5,0,1,1,0.5,0,0,1,0.5",""
"","html-keyboard-response","352","284527","0.0-352.0","34X6J5FLPUK64QNW1L83M3VPBR8JQI","A1SPIAJZORHFT0","3WPCIUYH1AU470H2HRBLZRFBM3CTDN","","null","<img src=""img/animal2.png"" style=""width:200px; border:14px solid green;"">","null","","","","","",""
"","image-keyboard-response","353","284811","0.0-353.0","34X6J5FLPUK64QNW1L83M3VPBR8JQI","A1SPIAJZORHFT0","3WPCIUYH1AU470H2HRBLZRFBM3CTDN","","283.70000000298023","img/animal2.png","76","284.3999999985099","3","1","1","0.5,0,1,1,0.5,0,0,1,0.5",""
"","html-keyboard-response","354","285113","0.0-354.0","34X6J5FLPUK64QNW1L83M3VPBR8JQI","A1SPIAJZORHFT0","3WPCIUYH1AU470H2HRBLZRFBM3CTDN","","null","<img src=""img/animal2.png"" style=""width:200px; border:14px solid green;"">","null","","","","","",""
"","image-keyboard-response","355","285716","0.0-355.0","34X6J5FLPUK64QNW1L83M3VPBR8JQI","A1SPIAJZORHFT0","3WPCIUYH1AU470H2HRBLZRFBM3CTDN","","602.6000000014901","img/animal4.png","75","603.1000000014901","2","1","3","0.5,0,1,1,0.5,0,0,1,0.5",""
"","html-keyboard-response","356","286018","0.0-356.0","34X6J5FLPUK64QNW1L83M3VPBR8JQI","A1SPIAJZORHFT0","3WPCIUYH1AU470H2HRBLZRFBM3CTDN","","null","<img src=""img/animal4.png"" style=""width:200px; border:14px solid green;"">","null","","","","","",""
"","image-keyboard-response","357","286269","0.0-357.0","34X6J5FLPUK64QNW1L83M3VPBR8JQI","A1SPIAJZORHFT0","3WPCIUYH1AU470H2HRBLZRFBM3CTDN","","249.39999999850988","img/animal4.png","75","250.20000000298023","2","1","3","0.5,0,1,1,0.5,0,0,1,0.5",""
"","html-keyboard-response","358","286570","0.0-358.0","34X6J5FLPUK64QNW1L83M3VPBR8JQI","A1SPIAJZORHFT0","3WPCIUYH1AU470H2HRBLZRFBM3CTDN","","null","<img src=""img/animal4.png"" style=""width:200px; border:14px solid green;"">","null","","","","","",""
"","image-keyboard-response","359","287149","0.0-359.0","34X6J5FLPUK64QNW1L83M3VPBR8JQI","A1SPIAJZORHFT0","3WPCIUYH1AU470H2HRBLZRFBM3CTDN","","577.3000000044703","img/animal2.png","76","578.1000000014901","3","1","1","0.5,0,1,1,0.5,0,0,1,0.5",""
"","html-keyboard-response","360","287451","0.0-360.0","34X6J5FLPUK64QNW1L83M3VPBR8JQI","A1SPIAJZORHFT0","3WPCIUYH1AU470H2HRBLZRFBM3CTDN","","null","<img src=""img/animal2.png"" style=""width:200px; border:14px solid green;"">","null","","","","","",""
"","image-keyboard-response","361","288031","0.0-361.0","34X6J5FLPUK64QNW1L83M3VPBR8JQI","A1SPIAJZORHFT0","3WPCIUYH1AU470H2HRBLZRFBM3CTDN","","578.5999999940395","img/animal3.png","74","579.3999999985099","1","1","2","0.5,0,1,1,0.5,0,0,1,0.5",""
"","html-keyboard-response","362","288334","0.0-362.0","34X6J5FLPUK64QNW1L83M3VPBR8JQI","A1SPIAJZORHFT0","3WPCIUYH1AU470H2HRBLZRFBM3CTDN","","null","<img src=""img/animal3.png"" style=""width:200px; border:14px solid green;"">","null","","","","","",""
"","instructions","363","292847","0.0-363.0","34X6J5FLPUK64QNW1L83M3VPBR8JQI","A1SPIAJZORHFT0","3WPCIUYH1AU470H2HRBLZRFBM3CTDN","[{""page_index"":0,""viewing_time"":4512.60000000149}]","4512.9000000059605","","","","","","","",""
"","survey-text","364","300756","0.0-364.0","34X6J5FLPUK64QNW1L83M3VPBR8JQI","A1SPIAJZORHFT0","3WPCIUYH1AU470H2HRBLZRFBM3CTDN","","7907.30000000447","","","","","","","","{""Q0"":""A1SPIAJZORHFT0""}"
