"success","trial_type","trial_index","time_elapsed","internal_node_id","assignmentID","mturkID","hitID","view_history","rt","stimulus","key_press","reactionTime","a","r","s","reward_cond","responses"
"true","fullscreen","0","7012","0.0-0.0","3MTMREQS4W40NUGEJOUWLTASB5ZWAP","A1UOGYZFJF4BKW","329E6HTMSWO7MPPIUTRHLR63CI0K3O","","","","","","","","","",""
"","instructions","1","51795","0.0-1.0","3MTMREQS4W40NUGEJOUWLTASB5ZWAP","A1UOGYZFJF4BKW","329E6HTMSWO7MPPIUTRHLR63CI0K3O","[{""page_index"":0,""viewing_time"":13223.300000011921},{""page_index"":1,""viewing_time"":7101.79999999702},{""page_index"":2,""viewing_time"":5205.399999991059},{""page_index"":3,""viewing_time"":4645.300000011921},{""page_index"":4,""viewing_time"":2793.8999999910593},{""page_index"":5,""viewing_time"":5308},{""page_index"":6,""viewing_time"":4588.4000000059605},{""page_index"":7,""viewing_time"":1914}]","44781.10000000894","","","","","","","",""
"","image-keyboard-response","2","53469","0.0-2.0","3MTMREQS4W40NUGEJOUWLTASB5ZWAP","A1UOGYZFJF4BKW","329E6HTMSWO7MPPIUTRHLR63CI0K3O","","1672.0999999940395","img/animal6.png","74","1673.9000000059605","1","1","3","1,0.5,0,0,1,0.5,0.5,0,1",""
"","html-keyboard-response","3","53773","0.0-3.0","3MTMREQS4W40NUGEJOUWLTASB5ZWAP","A1UOGYZFJF4BKW","329E6HTMSWO7MPPIUTRHLR63CI0K3O","","null","<img src=""img/animal6.png"" style=""width:200px; border:14px solid green;"">","null","","","","","",""
"","image-keyboard-response","4","54302","0.0-4.0","3MTMREQS4W40NUGEJOUWLTASB5ZWAP","A1UOGYZFJF4BKW","329E6HTMSWO7MPPIUTRHLR63CI0K3O","","527.2000000029802","img/animal6.png","74","528.7000000029802","1","1","3","1,0.5,0,0,1,0.5,0.5,0,1",""
"","html-keyboard-response","5","54605","0.0-5.0","3MTMREQS4W40NUGEJOUWLTASB5ZWAP","A1UOGYZFJF4BKW","329E6HTMSWO7MPPIUTRHLR63CI0K3O","","null","<img src=""img/animal6.png"" style=""width:200px; border:14px solid green;"">","null","","","","","",""
"","image-keyboard-response","6","55500","0.0-6.0","3MTMREQS4W40NUGEJOUWLTASB5ZWAP","A1UOGYZFJF4BKW","329E6HTMSWO7MPPIUTRHLR63CI0K3O","","893.5","img/animal2.png","75","894.5999999940395","2","1","2","1,0.5,0,0,1,0.5,0.5,0,1",""
"","html-keyboard-response","7","55802","0.0-7.0","3MTMREQS4W40NUGEJOUWLTASB5ZWAP","A1UOGYZFJF4BKW","329E6HTMSWO7MPPIUTRHLR63CI0K3O","","null","<img src=""img/animal2.png"" style=""width:200px; border:14px solid green;"">","null","","","","","",""
"","image-keyboard-response","8","56743","0.0-8.0","3MTMREQS4W40NUGEJOUWLTASB5ZWAP","A1UOGYZFJF4BKW","329E6HTMSWO7MPPIUTRHLR63CI0K3O","","940.1000000089407","img/animal5.png","76","941.5","3","0","1","1,0.5,0,0,1,0.5,0.5,0,1",""
"","html-keyboard-response","9","57047","0.0-9.0","3MTMREQS4W40NUGEJOUWLTASB5ZWAP","A1UOGYZFJF4BKW","329E6HTMSWO7MPPIUTRHLR63CI0K3O","","null","<img src=""img/animal5.png"" style=""width:200px;border:14px solid red;"">","null","","","","","",""
"","image-keyboard-response","10","57484","0.0-10.0","3MTMREQS4W40NUGEJOUWLTASB5ZWAP","A1UOGYZFJF4BKW","329E6HTMSWO7MPPIUTRHLR63CI0K3O","","435.59999999403954","img/animal5.png","76","436.8999999910593","3","0","1","1,0.5,0,0,1,0.5,0.5,0,1",""
"","html-keyboard-response","11","57786","0.0-11.0","3MTMREQS4W40NUGEJOUWLTASB5ZWAP","A1UOGYZFJF4BKW","329E6HTMSWO7MPPIUTRHLR63CI0K3O","","null","<img src=""img/animal5.png"" style=""width:200px;border:14px solid red;"">","null","","","","","",""
"","image-keyboard-response","12","58975","0.0-12.0","3MTMREQS4W40NUGEJOUWLTASB5ZWAP","A1UOGYZFJF4BKW","329E6HTMSWO7MPPIUTRHLR63CI0K3O","","1186.7000000029802","img/animal2.png","74","1188","1","0","2","1,0.5,0,0,1,0.5,0.5,0,1",""
"","html-keyboard-response","13","59276","0.0-13.0","3MTMREQS4W40NUGEJOUWLTASB5ZWAP","A1UOGYZFJF4BKW","329E6HTMSWO7MPPIUTRHLR63CI0K3O","","null","<img src=""img/animal2.png"" style=""width:200px;border:14px solid red;"">","null","","","","","",""
"","image-keyboard-response","14","59902","0.0-14.0","3MTMREQS4W40NUGEJOUWLTASB5ZWAP","A1UOGYZFJF4BKW","329E6HTMSWO7MPPIUTRHLR63CI0K3O","","624.0999999940395","img/animal2.png","75","625.3000000119209","2","1","2","1,0.5,0,0,1,0.5,0.5,0,1",""
"","html-keyboard-response","15","60205","0.0-15.0","3MTMREQS4W40NUGEJOUWLTASB5ZWAP","A1UOGYZFJF4BKW","329E6HTMSWO7MPPIUTRHLR63CI0K3O","","null","<img src=""img/animal2.png"" style=""width:200px; border:14px solid green;"">","null","","","","","",""
"","image-keyboard-response","16","61065","0.0-16.0","3MTMREQS4W40NUGEJOUWLTASB5ZWAP","A1UOGYZFJF4BKW","329E6HTMSWO7MPPIUTRHLR63CI0K3O","","858.5","img/animal6.png","74","859.7999999970198","1","0","3","1,0.5,0,0,1,0.5,0.5,0,1",""
"","html-keyboard-response","17","61368","0.0-17.0","3MTMREQS4W40NUGEJOUWLTASB5ZWAP","A1UOGYZFJF4BKW","329E6HTMSWO7MPPIUTRHLR63CI0K3O","","null","<img src=""img/animal6.png"" style=""width:200px;border:14px solid red;"">","null","","","","","",""
"","image-keyboard-response","18","63486","0.0-18.0","3MTMREQS4W40NUGEJOUWLTASB5ZWAP","A1UOGYZFJF4BKW","329E6HTMSWO7MPPIUTRHLR63CI0K3O","","2116.7999999970198","img/animal5.png","75","2118.1000000089407","2","0","1","1,0.5,0,0,1,0.5,0.5,0,1",""
"","html-keyboard-response","19","63789","0.0-19.0","3MTMREQS4W40NUGEJOUWLTASB5ZWAP","A1UOGYZFJF4BKW","329E6HTMSWO7MPPIUTRHLR63CI0K3O","","null","<img src=""img/animal5.png"" style=""width:200px;border:14px solid red;"">","null","","","","","",""
"","image-keyboard-response","20","65758","0.0-20.0","3MTMREQS4W40NUGEJOUWLTASB5ZWAP","A1UOGYZFJF4BKW","329E6HTMSWO7MPPIUTRHLR63CI0K3O","","1967.7000000029802","img/animal6.png","75","1969.1000000089407","2","0","3","1,0.5,0,0,1,0.5,0.5,0,1",""
"","html-keyboard-response","21","66061","0.0-21.0","3MTMREQS4W40NUGEJOUWLTASB5ZWAP","A1UOGYZFJF4BKW","329E6HTMSWO7MPPIUTRHLR63CI0K3O","","null","<img src=""img/animal6.png"" style=""width:200px;border:14px solid red;"">","null","","","","","",""
"","image-keyboard-response","22","67194","0.0-22.0","3MTMREQS4W40NUGEJOUWLTASB5ZWAP","A1UOGYZFJF4BKW","329E6HTMSWO7MPPIUTRHLR63CI0K3O","","1131","img/animal5.png","74","1132.1000000089407","1","1","1","1,0.5,0,0,1,0.5,0.5,0,1",""
"","html-keyboard-response","23","67496","0.0-23.0","3MTMREQS4W40NUGEJOUWLTASB5ZWAP","A1UOGYZFJF4BKW","329E6HTMSWO7MPPIUTRHLR63CI0K3O","","null","<img src=""img/animal5.png"" style=""width:200px; border:14px solid green;"">","null","","","","","",""
"","image-keyboard-response","24","69251","0.0-24.0","3MTMREQS4W40NUGEJOUWLTASB5ZWAP","A1UOGYZFJF4BKW","329E6HTMSWO7MPPIUTRHLR63CI0K3O","","1754","img/animal6.png","74","1754.9000000059605","1","1","3","1,0.5,0,0,1,0.5,0.5,0,1",""
"","html-keyboard-response","25","69554","0.0-25.0","3MTMREQS4W40NUGEJOUWLTASB5ZWAP","A1UOGYZFJF4BKW","329E6HTMSWO7MPPIUTRHLR63CI0K3O","","null","<img src=""img/animal6.png"" style=""width:200px; border:14px solid green;"">","null","","","","","",""
"","image-keyboard-response","26","70376","0.0-26.0","3MTMREQS4W40NUGEJOUWLTASB5ZWAP","A1UOGYZFJF4BKW","329E6HTMSWO7MPPIUTRHLR63CI0K3O","","821.2000000029802","img/animal2.png","75","822.2999999970198","2","1","2","1,0.5,0,0,1,0.5,0.5,0,1",""
"","html-keyboard-response","27","70678","0.0-27.0","3MTMREQS4W40NUGEJOUWLTASB5ZWAP","A1UOGYZFJF4BKW","329E6HTMSWO7MPPIUTRHLR63CI0K3O","","null","<img src=""img/animal2.png"" style=""width:200px; border:14px solid green;"">","null","","","","","",""
"","image-keyboard-response","28","71293","0.0-28.0","3MTMREQS4W40NUGEJOUWLTASB5ZWAP","A1UOGYZFJF4BKW","329E6HTMSWO7MPPIUTRHLR63CI0K3O","","613.4000000059605","img/animal2.png","75","614.6000000089407","2","1","2","1,0.5,0,0,1,0.5,0.5,0,1",""
"","html-keyboard-response","29","71595","0.0-29.0","3MTMREQS4W40NUGEJOUWLTASB5ZWAP","A1UOGYZFJF4BKW","329E6HTMSWO7MPPIUTRHLR63CI0K3O","","null","<img src=""img/animal2.png"" style=""width:200px; border:14px solid green;"">","null","","","","","",""
"","image-keyboard-response","30","73983","0.0-30.0","3MTMREQS4W40NUGEJOUWLTASB5ZWAP","A1UOGYZFJF4BKW","329E6HTMSWO7MPPIUTRHLR63CI0K3O","","2386.7999999970198","img/animal5.png","74","2387.8999999910593","1","1","1","1,0.5,0,0,1,0.5,0.5,0,1",""
"","html-keyboard-response","31","74286","0.0-31.0","3MTMREQS4W40NUGEJOUWLTASB5ZWAP","A1UOGYZFJF4BKW","329E6HTMSWO7MPPIUTRHLR63CI0K3O","","null","<img src=""img/animal5.png"" style=""width:200px; border:14px solid green;"">","null","","","","","",""
"","image-keyboard-response","32","75547","0.0-32.0","3MTMREQS4W40NUGEJOUWLTASB5ZWAP","A1UOGYZFJF4BKW","329E6HTMSWO7MPPIUTRHLR63CI0K3O","","1260.5","img/animal2.png","75","1261.6000000089407","2","1","2","1,0.5,0,0,1,0.5,0.5,0,1",""
"","html-keyboard-response","33","75850","0.0-33.0","3MTMREQS4W40NUGEJOUWLTASB5ZWAP","A1UOGYZFJF4BKW","329E6HTMSWO7MPPIUTRHLR63CI0K3O","","null","<img src=""img/animal2.png"" style=""width:200px; border:14px solid green;"">","null","","","","","",""
"","image-keyboard-response","34","76360","0.0-34.0","3MTMREQS4W40NUGEJOUWLTASB5ZWAP","A1UOGYZFJF4BKW","329E6HTMSWO7MPPIUTRHLR63CI0K3O","","508.69999998807907","img/animal5.png","74","509.70000000298023","1","1","1","1,0.5,0,0,1,0.5,0.5,0,1",""
"","html-keyboard-response","35","76662","0.0-35.0","3MTMREQS4W40NUGEJOUWLTASB5ZWAP","A1UOGYZFJF4BKW","329E6HTMSWO7MPPIUTRHLR63CI0K3O","","null","<img src=""img/animal5.png"" style=""width:200px; border:14px solid green;"">","null","","","","","",""
"","image-keyboard-response","36","77445","0.0-36.0","3MTMREQS4W40NUGEJOUWLTASB5ZWAP","A1UOGYZFJF4BKW","329E6HTMSWO7MPPIUTRHLR63CI0K3O","","782.5","img/animal6.png","74","783.5","1","1","3","1,0.5,0,0,1,0.5,0.5,0,1",""
"","html-keyboard-response","37","77748","0.0-37.0","3MTMREQS4W40NUGEJOUWLTASB5ZWAP","A1UOGYZFJF4BKW","329E6HTMSWO7MPPIUTRHLR63CI0K3O","","null","<img src=""img/animal6.png"" style=""width:200px; border:14px solid green;"">","null","","","","","",""
"","image-keyboard-response","38","78180","0.0-38.0","3MTMREQS4W40NUGEJOUWLTASB5ZWAP","A1UOGYZFJF4BKW","329E6HTMSWO7MPPIUTRHLR63CI0K3O","","430.90000000596046","img/animal6.png","74","432.20000000298023","1","1","3","1,0.5,0,0,1,0.5,0.5,0,1",""
"","html-keyboard-response","39","78482","0.0-39.0","3MTMREQS4W40NUGEJOUWLTASB5ZWAP","A1UOGYZFJF4BKW","329E6HTMSWO7MPPIUTRHLR63CI0K3O","","null","<img src=""img/animal6.png"" style=""width:200px; border:14px solid green;"">","null","","","","","",""
"","image-keyboard-response","40","79227","0.0-40.0","3MTMREQS4W40NUGEJOUWLTASB5ZWAP","A1UOGYZFJF4BKW","329E6HTMSWO7MPPIUTRHLR63CI0K3O","","742.6999999880791","img/animal5.png","74","743.9000000059605","1","1","1","1,0.5,0,0,1,0.5,0.5,0,1",""
"","html-keyboard-response","41","79530","0.0-41.0","3MTMREQS4W40NUGEJOUWLTASB5ZWAP","A1UOGYZFJF4BKW","329E6HTMSWO7MPPIUTRHLR63CI0K3O","","null","<img src=""img/animal5.png"" style=""width:200px; border:14px solid green;"">","null","","","","","",""
"","image-keyboard-response","42","79913","0.0-42.0","3MTMREQS4W40NUGEJOUWLTASB5ZWAP","A1UOGYZFJF4BKW","329E6HTMSWO7MPPIUTRHLR63CI0K3O","","382.3999999910593","img/animal5.png","74","383.5","1","1","1","1,0.5,0,0,1,0.5,0.5,0,1",""
"","html-keyboard-response","43","80216","0.0-43.0","3MTMREQS4W40NUGEJOUWLTASB5ZWAP","A1UOGYZFJF4BKW","329E6HTMSWO7MPPIUTRHLR63CI0K3O","","null","<img src=""img/animal5.png"" style=""width:200px; border:14px solid green;"">","null","","","","","",""
"","image-keyboard-response","44","80792","0.0-44.0","3MTMREQS4W40NUGEJOUWLTASB5ZWAP","A1UOGYZFJF4BKW","329E6HTMSWO7MPPIUTRHLR63CI0K3O","","575.5","img/animal6.png","74","576.7000000029802","1","0","3","1,0.5,0,0,1,0.5,0.5,0,1",""
"","html-keyboard-response","45","81095","0.0-45.0","3MTMREQS4W40NUGEJOUWLTASB5ZWAP","A1UOGYZFJF4BKW","329E6HTMSWO7MPPIUTRHLR63CI0K3O","","null","<img src=""img/animal6.png"" style=""width:200px;border:14px solid red;"">","null","","","","","",""
"","image-keyboard-response","46","81843","0.0-46.0","3MTMREQS4W40NUGEJOUWLTASB5ZWAP","A1UOGYZFJF4BKW","329E6HTMSWO7MPPIUTRHLR63CI0K3O","","745.7999999970198","img/animal5.png","74","747","1","1","1","1,0.5,0,0,1,0.5,0.5,0,1",""
"","html-keyboard-response","47","82148","0.0-47.0","3MTMREQS4W40NUGEJOUWLTASB5ZWAP","A1UOGYZFJF4BKW","329E6HTMSWO7MPPIUTRHLR63CI0K3O","","null","<img src=""img/animal5.png"" style=""width:200px; border:14px solid green;"">","null","","","","","",""
"","image-keyboard-response","48","82726","0.0-48.0","3MTMREQS4W40NUGEJOUWLTASB5ZWAP","A1UOGYZFJF4BKW","329E6HTMSWO7MPPIUTRHLR63CI0K3O","","576.5","img/animal6.png","74","577.9000000059605","1","0","3","1,0.5,0,0,1,0.5,0.5,0,1",""
"","html-keyboard-response","49","83028","0.0-49.0","3MTMREQS4W40NUGEJOUWLTASB5ZWAP","A1UOGYZFJF4BKW","329E6HTMSWO7MPPIUTRHLR63CI0K3O","","null","<img src=""img/animal6.png"" style=""width:200px;border:14px solid red;"">","null","","","","","",""
"","image-keyboard-response","50","83510","0.0-50.0","3MTMREQS4W40NUGEJOUWLTASB5ZWAP","A1UOGYZFJF4BKW","329E6HTMSWO7MPPIUTRHLR63CI0K3O","","480.70000000298023","img/animal6.png","74","481.90000000596046","1","0","3","1,0.5,0,0,1,0.5,0.5,0,1",""
"","html-keyboard-response","51","83812","0.0-51.0","3MTMREQS4W40NUGEJOUWLTASB5ZWAP","A1UOGYZFJF4BKW","329E6HTMSWO7MPPIUTRHLR63CI0K3O","","null","<img src=""img/animal6.png"" style=""width:200px;border:14px solid red;"">","null","","","","","",""
"","image-keyboard-response","52","84641","0.0-52.0","3MTMREQS4W40NUGEJOUWLTASB5ZWAP","A1UOGYZFJF4BKW","329E6HTMSWO7MPPIUTRHLR63CI0K3O","","827.2000000029802","img/animal5.png","74","828.6000000089407","1","1","1","1,0.5,0,0,1,0.5,0.5,0,1",""
"","html-keyboard-response","53","84943","0.0-53.0","3MTMREQS4W40NUGEJOUWLTASB5ZWAP","A1UOGYZFJF4BKW","329E6HTMSWO7MPPIUTRHLR63CI0K3O","","null","<img src=""img/animal5.png"" style=""width:200px; border:14px solid green;"">","null","","","","","",""
"","image-keyboard-response","54","85658","0.0-54.0","3MTMREQS4W40NUGEJOUWLTASB5ZWAP","A1UOGYZFJF4BKW","329E6HTMSWO7MPPIUTRHLR63CI0K3O","","713.1000000089407","img/animal2.png","75","714.1000000089407","2","1","2","1,0.5,0,0,1,0.5,0.5,0,1",""
"","html-keyboard-response","55","85959","0.0-55.0","3MTMREQS4W40NUGEJOUWLTASB5ZWAP","A1UOGYZFJF4BKW","329E6HTMSWO7MPPIUTRHLR63CI0K3O","","null","<img src=""img/animal2.png"" style=""width:200px; border:14px solid green;"">","null","","","","","",""
"","image-keyboard-response","56","86347","0.0-56.0","3MTMREQS4W40NUGEJOUWLTASB5ZWAP","A1UOGYZFJF4BKW","329E6HTMSWO7MPPIUTRHLR63CI0K3O","","385.90000000596046","img/animal2.png","75","387.09999999403954","2","1","2","1,0.5,0,0,1,0.5,0.5,0,1",""
"","html-keyboard-response","57","86648","0.0-57.0","3MTMREQS4W40NUGEJOUWLTASB5ZWAP","A1UOGYZFJF4BKW","329E6HTMSWO7MPPIUTRHLR63CI0K3O","","null","<img src=""img/animal2.png"" style=""width:200px; border:14px solid green;"">","null","","","","","",""
"","image-keyboard-response","58","87261","0.0-58.0","3MTMREQS4W40NUGEJOUWLTASB5ZWAP","A1UOGYZFJF4BKW","329E6HTMSWO7MPPIUTRHLR63CI0K3O","","611.5","img/animal6.png","74","612.7999999970198","1","1","3","1,0.5,0,0,1,0.5,0.5,0,1",""
"","html-keyboard-response","59","87564","0.0-59.0","3MTMREQS4W40NUGEJOUWLTASB5ZWAP","A1UOGYZFJF4BKW","329E6HTMSWO7MPPIUTRHLR63CI0K3O","","null","<img src=""img/animal6.png"" style=""width:200px; border:14px solid green;"">","null","","","","","",""
"","image-keyboard-response","60","88056","0.0-60.0","3MTMREQS4W40NUGEJOUWLTASB5ZWAP","A1UOGYZFJF4BKW","329E6HTMSWO7MPPIUTRHLR63CI0K3O","","490","img/animal2.png","74","491.19999998807907","1","0","2","1,0.5,0,0,1,0.5,0.5,0,1",""
"","html-keyboard-response","61","88357","0.0-61.0","3MTMREQS4W40NUGEJOUWLTASB5ZWAP","A1UOGYZFJF4BKW","329E6HTMSWO7MPPIUTRHLR63CI0K3O","","null","<img src=""img/animal2.png"" style=""width:200px;border:14px solid red;"">","null","","","","","",""
"","image-keyboard-response","62","89205","0.0-62.0","3MTMREQS4W40NUGEJOUWLTASB5ZWAP","A1UOGYZFJF4BKW","329E6HTMSWO7MPPIUTRHLR63CI0K3O","","846","img/animal5.png","74","847.3000000119209","1","1","1","1,0.5,0,0,1,0.5,0.5,0,1",""
"","html-keyboard-response","63","89508","0.0-63.0","3MTMREQS4W40NUGEJOUWLTASB5ZWAP","A1UOGYZFJF4BKW","329E6HTMSWO7MPPIUTRHLR63CI0K3O","","null","<img src=""img/animal5.png"" style=""width:200px; border:14px solid green;"">","null","","","","","",""
"","image-keyboard-response","64","90141","0.0-64.0","3MTMREQS4W40NUGEJOUWLTASB5ZWAP","A1UOGYZFJF4BKW","329E6HTMSWO7MPPIUTRHLR63CI0K3O","","632.2999999970198","img/animal2.png","75","633.5","2","1","2","1,0.5,0,0,1,0.5,0.5,0,1",""
"","html-keyboard-response","65","90444","0.0-65.0","3MTMREQS4W40NUGEJOUWLTASB5ZWAP","A1UOGYZFJF4BKW","329E6HTMSWO7MPPIUTRHLR63CI0K3O","","null","<img src=""img/animal2.png"" style=""width:200px; border:14px solid green;"">","null","","","","","",""
"","image-keyboard-response","66","90835","0.0-66.0","3MTMREQS4W40NUGEJOUWLTASB5ZWAP","A1UOGYZFJF4BKW","329E6HTMSWO7MPPIUTRHLR63CI0K3O","","389.8999999910593","img/animal2.png","75","391","2","1","2","1,0.5,0,0,1,0.5,0.5,0,1",""
"","html-keyboard-response","67","91137","0.0-67.0","3MTMREQS4W40NUGEJOUWLTASB5ZWAP","A1UOGYZFJF4BKW","329E6HTMSWO7MPPIUTRHLR63CI0K3O","","null","<img src=""img/animal2.png"" style=""width:200px; border:14px solid green;"">","null","","","","","",""
"","image-keyboard-response","68","91736","0.0-68.0","3MTMREQS4W40NUGEJOUWLTASB5ZWAP","A1UOGYZFJF4BKW","329E6HTMSWO7MPPIUTRHLR63CI0K3O","","598.2999999970198","img/animal5.png","74","599.5","1","1","1","1,0.5,0,0,1,0.5,0.5,0,1",""
"","html-keyboard-response","69","92040","0.0-69.0","3MTMREQS4W40NUGEJOUWLTASB5ZWAP","A1UOGYZFJF4BKW","329E6HTMSWO7MPPIUTRHLR63CI0K3O","","null","<img src=""img/animal5.png"" style=""width:200px; border:14px solid green;"">","null","","","","","",""
"","image-keyboard-response","70","92447","0.0-70.0","3MTMREQS4W40NUGEJOUWLTASB5ZWAP","A1UOGYZFJF4BKW","329E6HTMSWO7MPPIUTRHLR63CI0K3O","","405.59999999403954","img/animal5.png","74","406.79999999701977","1","1","1","1,0.5,0,0,1,0.5,0.5,0,1",""
"","html-keyboard-response","71","92749","0.0-71.0","3MTMREQS4W40NUGEJOUWLTASB5ZWAP","A1UOGYZFJF4BKW","329E6HTMSWO7MPPIUTRHLR63CI0K3O","","null","<img src=""img/animal5.png"" style=""width:200px; border:14px solid green;"">","null","","","","","",""
"","image-keyboard-response","72","93122","0.0-72.0","3MTMREQS4W40NUGEJOUWLTASB5ZWAP","A1UOGYZFJF4BKW","329E6HTMSWO7MPPIUTRHLR63CI0K3O","","371.6000000089407","img/animal5.png","74","372.80000001192093","1","1","1","1,0.5,0,0,1,0.5,0.5,0,1",""
"","html-keyboard-response","73","93424","0.0-73.0","3MTMREQS4W40NUGEJOUWLTASB5ZWAP","A1UOGYZFJF4BKW","329E6HTMSWO7MPPIUTRHLR63CI0K3O","","null","<img src=""img/animal5.png"" style=""width:200px; border:14px solid green;"">","null","","","","","",""
"","image-keyboard-response","74","94003","0.0-74.0","3MTMREQS4W40NUGEJOUWLTASB5ZWAP","A1UOGYZFJF4BKW","329E6HTMSWO7MPPIUTRHLR63CI0K3O","","577.7000000029802","img/animal2.png","75","578.9000000059605","2","1","2","1,0.5,0,0,1,0.5,0.5,0,1",""
"","html-keyboard-response","75","94306","0.0-75.0","3MTMREQS4W40NUGEJOUWLTASB5ZWAP","A1UOGYZFJF4BKW","329E6HTMSWO7MPPIUTRHLR63CI0K3O","","null","<img src=""img/animal2.png"" style=""width:200px; border:14px solid green;"">","null","","","","","",""
"","image-keyboard-response","76","94978","0.0-76.0","3MTMREQS4W40NUGEJOUWLTASB5ZWAP","A1UOGYZFJF4BKW","329E6HTMSWO7MPPIUTRHLR63CI0K3O","","671.2000000029802","img/animal5.png","74","672.2999999970198","1","1","1","1,0.5,0,0,1,0.5,0.5,0,1",""
"","html-keyboard-response","77","95281","0.0-77.0","3MTMREQS4W40NUGEJOUWLTASB5ZWAP","A1UOGYZFJF4BKW","329E6HTMSWO7MPPIUTRHLR63CI0K3O","","null","<img src=""img/animal5.png"" style=""width:200px; border:14px solid green;"">","null","","","","","",""
"","image-keyboard-response","78","95925","0.0-78.0","3MTMREQS4W40NUGEJOUWLTASB5ZWAP","A1UOGYZFJF4BKW","329E6HTMSWO7MPPIUTRHLR63CI0K3O","","643.1999999880791","img/animal6.png","74","644.5","1","1","3","1,0.5,0,0,1,0.5,0.5,0,1",""
"","html-keyboard-response","79","96227","0.0-79.0","3MTMREQS4W40NUGEJOUWLTASB5ZWAP","A1UOGYZFJF4BKW","329E6HTMSWO7MPPIUTRHLR63CI0K3O","","null","<img src=""img/animal6.png"" style=""width:200px; border:14px solid green;"">","null","","","","","",""
"","image-keyboard-response","80","97081","0.0-80.0","3MTMREQS4W40NUGEJOUWLTASB5ZWAP","A1UOGYZFJF4BKW","329E6HTMSWO7MPPIUTRHLR63CI0K3O","","852.4000000059605","img/animal2.png","75","853.2999999970198","2","1","2","1,0.5,0,0,1,0.5,0.5,0,1",""
"","html-keyboard-response","81","97384","0.0-81.0","3MTMREQS4W40NUGEJOUWLTASB5ZWAP","A1UOGYZFJF4BKW","329E6HTMSWO7MPPIUTRHLR63CI0K3O","","null","<img src=""img/animal2.png"" style=""width:200px; border:14px solid green;"">","null","","","","","",""
"","image-keyboard-response","82","97997","0.0-82.0","3MTMREQS4W40NUGEJOUWLTASB5ZWAP","A1UOGYZFJF4BKW","329E6HTMSWO7MPPIUTRHLR63CI0K3O","","612.2999999970198","img/animal6.png","74","613.4000000059605","1","0","3","1,0.5,0,0,1,0.5,0.5,0,1",""
"","html-keyboard-response","83","98299","0.0-83.0","3MTMREQS4W40NUGEJOUWLTASB5ZWAP","A1UOGYZFJF4BKW","329E6HTMSWO7MPPIUTRHLR63CI0K3O","","null","<img src=""img/animal6.png"" style=""width:200px;border:14px solid red;"">","null","","","","","",""
"","image-keyboard-response","84","100768","0.0-84.0","3MTMREQS4W40NUGEJOUWLTASB5ZWAP","A1UOGYZFJF4BKW","329E6HTMSWO7MPPIUTRHLR63CI0K3O","","2467.2999999970198","img/animal5.png","74","2468.5","1","1","1","1,0.5,0,0,1,0.5,0.5,0,1",""
"","html-keyboard-response","85","101070","0.0-85.0","3MTMREQS4W40NUGEJOUWLTASB5ZWAP","A1UOGYZFJF4BKW","329E6HTMSWO7MPPIUTRHLR63CI0K3O","","null","<img src=""img/animal5.png"" style=""width:200px; border:14px solid green;"">","null","","","","","",""
"","image-keyboard-response","86","102247","0.0-86.0","3MTMREQS4W40NUGEJOUWLTASB5ZWAP","A1UOGYZFJF4BKW","329E6HTMSWO7MPPIUTRHLR63CI0K3O","","1175.5999999940395","img/animal6.png","76","1176.5","3","1","3","1,0.5,0,0,1,0.5,0.5,0,1",""
"","html-keyboard-response","87","102549","0.0-87.0","3MTMREQS4W40NUGEJOUWLTASB5ZWAP","A1UOGYZFJF4BKW","329E6HTMSWO7MPPIUTRHLR63CI0K3O","","null","<img src=""img/animal6.png"" style=""width:200px; border:14px solid green;"">","null","","","","","",""
"","image-keyboard-response","88","103524","0.0-88.0","3MTMREQS4W40NUGEJOUWLTASB5ZWAP","A1UOGYZFJF4BKW","329E6HTMSWO7MPPIUTRHLR63CI0K3O","","974.2999999970198","img/animal5.png","74","975.2000000029802","1","1","1","1,0.5,0,0,1,0.5,0.5,0,1",""
"","html-keyboard-response","89","103826","0.0-89.0","3MTMREQS4W40NUGEJOUWLTASB5ZWAP","A1UOGYZFJF4BKW","329E6HTMSWO7MPPIUTRHLR63CI0K3O","","null","<img src=""img/animal5.png"" style=""width:200px; border:14px solid green;"">","null","","","","","",""
"","image-keyboard-response","90","104504","0.0-90.0","3MTMREQS4W40NUGEJOUWLTASB5ZWAP","A1UOGYZFJF4BKW","329E6HTMSWO7MPPIUTRHLR63CI0K3O","","676.2999999970198","img/animal2.png","75","677.5","2","1","2","1,0.5,0,0,1,0.5,0.5,0,1",""
"","html-keyboard-response","91","104806","0.0-91.0","3MTMREQS4W40NUGEJOUWLTASB5ZWAP","A1UOGYZFJF4BKW","329E6HTMSWO7MPPIUTRHLR63CI0K3O","","null","<img src=""img/animal2.png"" style=""width:200px; border:14px solid green;"">","null","","","","","",""
"","image-keyboard-response","92","106019","0.0-92.0","3MTMREQS4W40NUGEJOUWLTASB5ZWAP","A1UOGYZFJF4BKW","329E6HTMSWO7MPPIUTRHLR63CI0K3O","","1211","img/animal6.png","76","1212.0999999940395","3","1","3","1,0.5,0,0,1,0.5,0.5,0,1",""
"","html-keyboard-response","93","106321","0.0-93.0","3MTMREQS4W40NUGEJOUWLTASB5ZWAP","A1UOGYZFJF4BKW","329E6HTMSWO7MPPIUTRHLR63CI0K3O","","null","<img src=""img/animal6.png"" style=""width:200px; border:14px solid green;"">","null","","","","","",""
"","image-keyboard-response","94","106806","0.0-94.0","3MTMREQS4W40NUGEJOUWLTASB5ZWAP","A1UOGYZFJF4BKW","329E6HTMSWO7MPPIUTRHLR63CI0K3O","","484","img/animal6.png","76","485.29999999701977","3","1","3","1,0.5,0,0,1,0.5,0.5,0,1",""
"","html-keyboard-response","95","107108","0.0-95.0","3MTMREQS4W40NUGEJOUWLTASB5ZWAP","A1UOGYZFJF4BKW","329E6HTMSWO7MPPIUTRHLR63CI0K3O","","null","<img src=""img/animal6.png"" style=""width:200px; border:14px solid green;"">","null","","","","","",""
"","image-keyboard-response","96","107932","0.0-96.0","3MTMREQS4W40NUGEJOUWLTASB5ZWAP","A1UOGYZFJF4BKW","329E6HTMSWO7MPPIUTRHLR63CI0K3O","","821.9000000059605","img/animal2.png","75","823.0999999940395","2","1","2","1,0.5,0,0,1,0.5,0.5,0,1",""
"","html-keyboard-response","97","108234","0.0-97.0","3MTMREQS4W40NUGEJOUWLTASB5ZWAP","A1UOGYZFJF4BKW","329E6HTMSWO7MPPIUTRHLR63CI0K3O","","null","<img src=""img/animal2.png"" style=""width:200px; border:14px solid green;"">","null","","","","","",""
"","image-keyboard-response","98","109304","0.0-98.0","3MTMREQS4W40NUGEJOUWLTASB5ZWAP","A1UOGYZFJF4BKW","329E6HTMSWO7MPPIUTRHLR63CI0K3O","","1068.2000000029802","img/animal6.png","76","1069.4000000059605","3","1","3","1,0.5,0,0,1,0.5,0.5,0,1",""
"","html-keyboard-response","99","109606","0.0-99.0","3MTMREQS4W40NUGEJOUWLTASB5ZWAP","A1UOGYZFJF4BKW","329E6HTMSWO7MPPIUTRHLR63CI0K3O","","null","<img src=""img/animal6.png"" style=""width:200px; border:14px solid green;"">","null","","","","","",""
"","image-keyboard-response","100","110046","0.0-100.0","3MTMREQS4W40NUGEJOUWLTASB5ZWAP","A1UOGYZFJF4BKW","329E6HTMSWO7MPPIUTRHLR63CI0K3O","","438.5","img/animal6.png","76","439.59999999403954","3","1","3","1,0.5,0,0,1,0.5,0.5,0,1",""
"","html-keyboard-response","101","110348","0.0-101.0","3MTMREQS4W40NUGEJOUWLTASB5ZWAP","A1UOGYZFJF4BKW","329E6HTMSWO7MPPIUTRHLR63CI0K3O","","null","<img src=""img/animal6.png"" style=""width:200px; border:14px solid green;"">","null","","","","","",""
"","image-keyboard-response","102","110969","0.0-102.0","3MTMREQS4W40NUGEJOUWLTASB5ZWAP","A1UOGYZFJF4BKW","329E6HTMSWO7MPPIUTRHLR63CI0K3O","","619.1999999880791","img/animal2.png","75","620.5","2","1","2","1,0.5,0,0,1,0.5,0.5,0,1",""
"","html-keyboard-response","103","111270","0.0-103.0","3MTMREQS4W40NUGEJOUWLTASB5ZWAP","A1UOGYZFJF4BKW","329E6HTMSWO7MPPIUTRHLR63CI0K3O","","null","<img src=""img/animal2.png"" style=""width:200px; border:14px solid green;"">","null","","","","","",""
"","image-keyboard-response","104","111615","0.0-104.0","3MTMREQS4W40NUGEJOUWLTASB5ZWAP","A1UOGYZFJF4BKW","329E6HTMSWO7MPPIUTRHLR63CI0K3O","","343.20000000298023","img/animal2.png","75","344.30000001192093","2","1","2","1,0.5,0,0,1,0.5,0.5,0,1",""
"","html-keyboard-response","105","111918","0.0-105.0","3MTMREQS4W40NUGEJOUWLTASB5ZWAP","A1UOGYZFJF4BKW","329E6HTMSWO7MPPIUTRHLR63CI0K3O","","null","<img src=""img/animal2.png"" style=""width:200px; border:14px solid green;"">","null","","","","","",""
"","image-keyboard-response","106","112252","0.0-106.0","3MTMREQS4W40NUGEJOUWLTASB5ZWAP","A1UOGYZFJF4BKW","329E6HTMSWO7MPPIUTRHLR63CI0K3O","","333.6000000089407","img/animal2.png","75","334.59999999403954","2","1","2","1,0.5,0,0,1,0.5,0.5,0,1",""
"","html-keyboard-response","107","112555","0.0-107.0","3MTMREQS4W40NUGEJOUWLTASB5ZWAP","A1UOGYZFJF4BKW","329E6HTMSWO7MPPIUTRHLR63CI0K3O","","null","<img src=""img/animal2.png"" style=""width:200px; border:14px solid green;"">","null","","","","","",""
"","image-keyboard-response","108","113607","0.0-108.0","3MTMREQS4W40NUGEJOUWLTASB5ZWAP","A1UOGYZFJF4BKW","329E6HTMSWO7MPPIUTRHLR63CI0K3O","","1050.3999999910593","img/animal5.png","74","1051.5","1","1","1","1,0.5,0,0,1,0.5,0.5,0,1",""
"","html-keyboard-response","109","113909","0.0-109.0","3MTMREQS4W40NUGEJOUWLTASB5ZWAP","A1UOGYZFJF4BKW","329E6HTMSWO7MPPIUTRHLR63CI0K3O","","null","<img src=""img/animal5.png"" style=""width:200px; border:14px solid green;"">","null","","","","","",""
"","image-keyboard-response","110","115811","0.0-110.0","3MTMREQS4W40NUGEJOUWLTASB5ZWAP","A1UOGYZFJF4BKW","329E6HTMSWO7MPPIUTRHLR63CI0K3O","","1900.6000000089407","img/animal6.png","76","1901.7999999970198","3","1","3","1,0.5,0,0,1,0.5,0.5,0,1",""
"","html-keyboard-response","111","116113","0.0-111.0","3MTMREQS4W40NUGEJOUWLTASB5ZWAP","A1UOGYZFJF4BKW","329E6HTMSWO7MPPIUTRHLR63CI0K3O","","null","<img src=""img/animal6.png"" style=""width:200px; border:14px solid green;"">","null","","","","","",""
"","image-keyboard-response","112","116466","0.0-112.0","3MTMREQS4W40NUGEJOUWLTASB5ZWAP","A1UOGYZFJF4BKW","329E6HTMSWO7MPPIUTRHLR63CI0K3O","","351.29999999701977","img/animal6.png","76","352.70000000298023","3","1","3","1,0.5,0,0,1,0.5,0.5,0,1",""
"","html-keyboard-response","113","116768","0.0-113.0","3MTMREQS4W40NUGEJOUWLTASB5ZWAP","A1UOGYZFJF4BKW","329E6HTMSWO7MPPIUTRHLR63CI0K3O","","null","<img src=""img/animal6.png"" style=""width:200px; border:14px solid green;"">","null","","","","","",""
"","image-keyboard-response","114","117913","0.0-114.0","3MTMREQS4W40NUGEJOUWLTASB5ZWAP","A1UOGYZFJF4BKW","329E6HTMSWO7MPPIUTRHLR63CI0K3O","","1144.300000011921","img/animal2.png","75","1145.2999999970198","2","1","2","1,0.5,0,0,1,0.5,0.5,0,1",""
"","html-keyboard-response","115","118216","0.0-115.0","3MTMREQS4W40NUGEJOUWLTASB5ZWAP","A1UOGYZFJF4BKW","329E6HTMSWO7MPPIUTRHLR63CI0K3O","","null","<img src=""img/animal2.png"" style=""width:200px; border:14px solid green;"">","null","","","","","",""
"","image-keyboard-response","116","118554","0.0-116.0","3MTMREQS4W40NUGEJOUWLTASB5ZWAP","A1UOGYZFJF4BKW","329E6HTMSWO7MPPIUTRHLR63CI0K3O","","336","img/animal2.png","75","337.09999999403954","2","1","2","1,0.5,0,0,1,0.5,0.5,0,1",""
"","html-keyboard-response","117","118856","0.0-117.0","3MTMREQS4W40NUGEJOUWLTASB5ZWAP","A1UOGYZFJF4BKW","329E6HTMSWO7MPPIUTRHLR63CI0K3O","","null","<img src=""img/animal2.png"" style=""width:200px; border:14px solid green;"">","null","","","","","",""
"","image-keyboard-response","118","119510","0.0-118.0","3MTMREQS4W40NUGEJOUWLTASB5ZWAP","A1UOGYZFJF4BKW","329E6HTMSWO7MPPIUTRHLR63CI0K3O","","652.4000000059605","img/animal5.png","74","653.5999999940395","1","1","1","1,0.5,0,0,1,0.5,0.5,0,1",""
"","html-keyboard-response","119","119812","0.0-119.0","3MTMREQS4W40NUGEJOUWLTASB5ZWAP","A1UOGYZFJF4BKW","329E6HTMSWO7MPPIUTRHLR63CI0K3O","","null","<img src=""img/animal5.png"" style=""width:200px; border:14px solid green;"">","null","","","","","",""
"","image-keyboard-response","120","120690","0.0-120.0","3MTMREQS4W40NUGEJOUWLTASB5ZWAP","A1UOGYZFJF4BKW","329E6HTMSWO7MPPIUTRHLR63CI0K3O","","877.2000000029802","img/animal6.png","76","878.2999999970198","3","1","3","1,0.5,0,0,1,0.5,0.5,0,1",""
"","html-keyboard-response","121","120992","0.0-121.0","3MTMREQS4W40NUGEJOUWLTASB5ZWAP","A1UOGYZFJF4BKW","329E6HTMSWO7MPPIUTRHLR63CI0K3O","","null","<img src=""img/animal6.png"" style=""width:200px; border:14px solid green;"">","null","","","","","",""
"","image-keyboard-response","122","121355","0.0-122.0","3MTMREQS4W40NUGEJOUWLTASB5ZWAP","A1UOGYZFJF4BKW","329E6HTMSWO7MPPIUTRHLR63CI0K3O","","360.70000000298023","img/animal6.png","76","362","3","1","3","1,0.5,0,0,1,0.5,0.5,0,1",""
"","html-keyboard-response","123","121657","0.0-123.0","3MTMREQS4W40NUGEJOUWLTASB5ZWAP","A1UOGYZFJF4BKW","329E6HTMSWO7MPPIUTRHLR63CI0K3O","","null","<img src=""img/animal6.png"" style=""width:200px; border:14px solid green;"">","null","","","","","",""
"","image-keyboard-response","124","122218","0.0-124.0","3MTMREQS4W40NUGEJOUWLTASB5ZWAP","A1UOGYZFJF4BKW","329E6HTMSWO7MPPIUTRHLR63CI0K3O","","559.7999999970198","img/animal2.png","75","561","2","1","2","1,0.5,0,0,1,0.5,0.5,0,1",""
"","html-keyboard-response","125","122520","0.0-125.0","3MTMREQS4W40NUGEJOUWLTASB5ZWAP","A1UOGYZFJF4BKW","329E6HTMSWO7MPPIUTRHLR63CI0K3O","","null","<img src=""img/animal2.png"" style=""width:200px; border:14px solid green;"">","null","","","","","",""
"","image-keyboard-response","126","124253","0.0-126.0","3MTMREQS4W40NUGEJOUWLTASB5ZWAP","A1UOGYZFJF4BKW","329E6HTMSWO7MPPIUTRHLR63CI0K3O","","1731.4000000059605","img/animal5.png","74","1732.5999999940395","1","1","1","1,0.5,0,0,1,0.5,0.5,0,1",""
"","html-keyboard-response","127","124556","0.0-127.0","3MTMREQS4W40NUGEJOUWLTASB5ZWAP","A1UOGYZFJF4BKW","329E6HTMSWO7MPPIUTRHLR63CI0K3O","","null","<img src=""img/animal5.png"" style=""width:200px; border:14px solid green;"">","null","","","","","",""
"","image-keyboard-response","128","125425","0.0-128.0","3MTMREQS4W40NUGEJOUWLTASB5ZWAP","A1UOGYZFJF4BKW","329E6HTMSWO7MPPIUTRHLR63CI0K3O","","867.1999999880791","img/animal2.png","75","868.2000000029802","2","1","2","1,0.5,0,0,1,0.5,0.5,0,1",""
"","html-keyboard-response","129","125727","0.0-129.0","3MTMREQS4W40NUGEJOUWLTASB5ZWAP","A1UOGYZFJF4BKW","329E6HTMSWO7MPPIUTRHLR63CI0K3O","","null","<img src=""img/animal2.png"" style=""width:200px; border:14px solid green;"">","null","","","","","",""
"","image-keyboard-response","130","126031","0.0-130.0","3MTMREQS4W40NUGEJOUWLTASB5ZWAP","A1UOGYZFJF4BKW","329E6HTMSWO7MPPIUTRHLR63CI0K3O","","302.80000001192093","img/animal2.png","75","304","2","1","2","1,0.5,0,0,1,0.5,0.5,0,1",""
"","html-keyboard-response","131","126334","0.0-131.0","3MTMREQS4W40NUGEJOUWLTASB5ZWAP","A1UOGYZFJF4BKW","329E6HTMSWO7MPPIUTRHLR63CI0K3O","","null","<img src=""img/animal2.png"" style=""width:200px; border:14px solid green;"">","null","","","","","",""
"","image-keyboard-response","132","126692","0.0-132.0","3MTMREQS4W40NUGEJOUWLTASB5ZWAP","A1UOGYZFJF4BKW","329E6HTMSWO7MPPIUTRHLR63CI0K3O","","356.59999999403954","img/animal2.png","75","357.90000000596046","2","1","2","1,0.5,0,0,1,0.5,0.5,0,1",""
"","html-keyboard-response","133","126995","0.0-133.0","3MTMREQS4W40NUGEJOUWLTASB5ZWAP","A1UOGYZFJF4BKW","329E6HTMSWO7MPPIUTRHLR63CI0K3O","","null","<img src=""img/animal2.png"" style=""width:200px; border:14px solid green;"">","null","","","","","",""
"","image-keyboard-response","134","127367","0.0-134.0","3MTMREQS4W40NUGEJOUWLTASB5ZWAP","A1UOGYZFJF4BKW","329E6HTMSWO7MPPIUTRHLR63CI0K3O","","370.5","img/animal2.png","75","371.5","2","1","2","1,0.5,0,0,1,0.5,0.5,0,1",""
"","html-keyboard-response","135","127671","0.0-135.0","3MTMREQS4W40NUGEJOUWLTASB5ZWAP","A1UOGYZFJF4BKW","329E6HTMSWO7MPPIUTRHLR63CI0K3O","","null","<img src=""img/animal2.png"" style=""width:200px; border:14px solid green;"">","null","","","","","",""
"","image-keyboard-response","136","127993","0.0-136.0","3MTMREQS4W40NUGEJOUWLTASB5ZWAP","A1UOGYZFJF4BKW","329E6HTMSWO7MPPIUTRHLR63CI0K3O","","321.1000000089407","img/animal2.png","75","322","2","1","2","1,0.5,0,0,1,0.5,0.5,0,1",""
"","html-keyboard-response","137","128295","0.0-137.0","3MTMREQS4W40NUGEJOUWLTASB5ZWAP","A1UOGYZFJF4BKW","329E6HTMSWO7MPPIUTRHLR63CI0K3O","","null","<img src=""img/animal2.png"" style=""width:200px; border:14px solid green;"">","null","","","","","",""
"","image-keyboard-response","138","128939","0.0-138.0","3MTMREQS4W40NUGEJOUWLTASB5ZWAP","A1UOGYZFJF4BKW","329E6HTMSWO7MPPIUTRHLR63CI0K3O","","642.2999999970198","img/animal6.png","76","643.5","3","1","3","1,0.5,0,0,1,0.5,0.5,0,1",""
"","html-keyboard-response","139","129240","0.0-139.0","3MTMREQS4W40NUGEJOUWLTASB5ZWAP","A1UOGYZFJF4BKW","329E6HTMSWO7MPPIUTRHLR63CI0K3O","","null","<img src=""img/animal6.png"" style=""width:200px; border:14px solid green;"">","null","","","","","",""
"","image-keyboard-response","140","129642","0.0-140.0","3MTMREQS4W40NUGEJOUWLTASB5ZWAP","A1UOGYZFJF4BKW","329E6HTMSWO7MPPIUTRHLR63CI0K3O","","400.29999999701977","img/animal6.png","76","401.40000000596046","3","1","3","1,0.5,0,0,1,0.5,0.5,0,1",""
"","html-keyboard-response","141","129944","0.0-141.0","3MTMREQS4W40NUGEJOUWLTASB5ZWAP","A1UOGYZFJF4BKW","329E6HTMSWO7MPPIUTRHLR63CI0K3O","","null","<img src=""img/animal6.png"" style=""width:200px; border:14px solid green;"">","null","","","","","",""
"","image-keyboard-response","142","130300","0.0-142.0","3MTMREQS4W40NUGEJOUWLTASB5ZWAP","A1UOGYZFJF4BKW","329E6HTMSWO7MPPIUTRHLR63CI0K3O","","354.3999999910593","img/animal6.png","76","355.5","3","1","3","1,0.5,0,0,1,0.5,0.5,0,1",""
"","html-keyboard-response","143","130603","0.0-143.0","3MTMREQS4W40NUGEJOUWLTASB5ZWAP","A1UOGYZFJF4BKW","329E6HTMSWO7MPPIUTRHLR63CI0K3O","","null","<img src=""img/animal6.png"" style=""width:200px; border:14px solid green;"">","null","","","","","",""
"","image-keyboard-response","144","131618","0.0-144.0","3MTMREQS4W40NUGEJOUWLTASB5ZWAP","A1UOGYZFJF4BKW","329E6HTMSWO7MPPIUTRHLR63CI0K3O","","1012.7999999970198","img/animal5.png","74","1014.2999999970198","1","1","1","1,0.5,0,0,1,0.5,0.5,0,1",""
"","html-keyboard-response","145","131920","0.0-145.0","3MTMREQS4W40NUGEJOUWLTASB5ZWAP","A1UOGYZFJF4BKW","329E6HTMSWO7MPPIUTRHLR63CI0K3O","","null","<img src=""img/animal5.png"" style=""width:200px; border:14px solid green;"">","null","","","","","",""
"","image-keyboard-response","146","132300","0.0-146.0","3MTMREQS4W40NUGEJOUWLTASB5ZWAP","A1UOGYZFJF4BKW","329E6HTMSWO7MPPIUTRHLR63CI0K3O","","378.40000000596046","img/animal5.png","74","379.5","1","1","1","1,0.5,0,0,1,0.5,0.5,0,1",""
"","html-keyboard-response","147","132602","0.0-147.0","3MTMREQS4W40NUGEJOUWLTASB5ZWAP","A1UOGYZFJF4BKW","329E6HTMSWO7MPPIUTRHLR63CI0K3O","","null","<img src=""img/animal5.png"" style=""width:200px; border:14px solid green;"">","null","","","","","",""
"","image-keyboard-response","148","132944","0.0-148.0","3MTMREQS4W40NUGEJOUWLTASB5ZWAP","A1UOGYZFJF4BKW","329E6HTMSWO7MPPIUTRHLR63CI0K3O","","341.20000000298023","img/animal5.png","74","342.29999999701977","1","1","1","1,0.5,0,0,1,0.5,0.5,0,1",""
"","html-keyboard-response","149","133246","0.0-149.0","3MTMREQS4W40NUGEJOUWLTASB5ZWAP","A1UOGYZFJF4BKW","329E6HTMSWO7MPPIUTRHLR63CI0K3O","","null","<img src=""img/animal5.png"" style=""width:200px; border:14px solid green;"">","null","","","","","",""
"","image-keyboard-response","150","133592","0.0-150.0","3MTMREQS4W40NUGEJOUWLTASB5ZWAP","A1UOGYZFJF4BKW","329E6HTMSWO7MPPIUTRHLR63CI0K3O","","344.20000000298023","img/animal5.png","74","345.5","1","1","1","1,0.5,0,0,1,0.5,0.5,0,1",""
"","html-keyboard-response","151","133894","0.0-151.0","3MTMREQS4W40NUGEJOUWLTASB5ZWAP","A1UOGYZFJF4BKW","329E6HTMSWO7MPPIUTRHLR63CI0K3O","","null","<img src=""img/animal5.png"" style=""width:200px; border:14px solid green;"">","null","","","","","",""
"","image-keyboard-response","152","134412","0.0-152.0","3MTMREQS4W40NUGEJOUWLTASB5ZWAP","A1UOGYZFJF4BKW","329E6HTMSWO7MPPIUTRHLR63CI0K3O","","517","img/animal6.png","75","518.0999999940395","2","0","3","1,0.5,0,0,1,0.5,0.5,0,1",""
"","html-keyboard-response","153","134714","0.0-153.0","3MTMREQS4W40NUGEJOUWLTASB5ZWAP","A1UOGYZFJF4BKW","329E6HTMSWO7MPPIUTRHLR63CI0K3O","","null","<img src=""img/animal6.png"" style=""width:200px;border:14px solid red;"">","null","","","","","",""
"","image-keyboard-response","154","136150","0.0-154.0","3MTMREQS4W40NUGEJOUWLTASB5ZWAP","A1UOGYZFJF4BKW","329E6HTMSWO7MPPIUTRHLR63CI0K3O","","1434.2999999970198","img/animal2.png","75","1435.5","2","1","2","1,0.5,0,0,1,0.5,0.5,0,1",""
"","html-keyboard-response","155","136453","0.0-155.0","3MTMREQS4W40NUGEJOUWLTASB5ZWAP","A1UOGYZFJF4BKW","329E6HTMSWO7MPPIUTRHLR63CI0K3O","","null","<img src=""img/animal2.png"" style=""width:200px; border:14px solid green;"">","null","","","","","",""
"","image-keyboard-response","156","137252","0.0-156.0","3MTMREQS4W40NUGEJOUWLTASB5ZWAP","A1UOGYZFJF4BKW","329E6HTMSWO7MPPIUTRHLR63CI0K3O","","796.8999999910593","img/animal5.png","74","798.1000000089407","1","1","1","1,0.5,0,0,1,0.5,0.5,0,1",""
"","html-keyboard-response","157","137554","0.0-157.0","3MTMREQS4W40NUGEJOUWLTASB5ZWAP","A1UOGYZFJF4BKW","329E6HTMSWO7MPPIUTRHLR63CI0K3O","","null","<img src=""img/animal5.png"" style=""width:200px; border:14px solid green;"">","null","","","","","",""
"","image-keyboard-response","158","137890","0.0-158.0","3MTMREQS4W40NUGEJOUWLTASB5ZWAP","A1UOGYZFJF4BKW","329E6HTMSWO7MPPIUTRHLR63CI0K3O","","335.20000000298023","img/animal5.png","74","336.29999999701977","1","1","1","1,0.5,0,0,1,0.5,0.5,0,1",""
"","html-keyboard-response","159","138193","0.0-159.0","3MTMREQS4W40NUGEJOUWLTASB5ZWAP","A1UOGYZFJF4BKW","329E6HTMSWO7MPPIUTRHLR63CI0K3O","","null","<img src=""img/animal5.png"" style=""width:200px; border:14px solid green;"">","null","","","","","",""
"","image-keyboard-response","160","138802","0.0-160.0","3MTMREQS4W40NUGEJOUWLTASB5ZWAP","A1UOGYZFJF4BKW","329E6HTMSWO7MPPIUTRHLR63CI0K3O","","607.7999999970198","img/animal6.png","76","608.9000000059605","3","1","3","1,0.5,0,0,1,0.5,0.5,0,1",""
"","html-keyboard-response","161","139106","0.0-161.0","3MTMREQS4W40NUGEJOUWLTASB5ZWAP","A1UOGYZFJF4BKW","329E6HTMSWO7MPPIUTRHLR63CI0K3O","","null","<img src=""img/animal6.png"" style=""width:200px; border:14px solid green;"">","null","","","","","",""
"","image-keyboard-response","162","139489","0.0-162.0","3MTMREQS4W40NUGEJOUWLTASB5ZWAP","A1UOGYZFJF4BKW","329E6HTMSWO7MPPIUTRHLR63CI0K3O","","381.79999999701977","img/animal6.png","76","383","3","1","3","1,0.5,0,0,1,0.5,0.5,0,1",""
"","html-keyboard-response","163","139792","0.0-163.0","3MTMREQS4W40NUGEJOUWLTASB5ZWAP","A1UOGYZFJF4BKW","329E6HTMSWO7MPPIUTRHLR63CI0K3O","","null","<img src=""img/animal6.png"" style=""width:200px; border:14px solid green;"">","null","","","","","",""
"","image-keyboard-response","164","141221","0.0-164.0","3MTMREQS4W40NUGEJOUWLTASB5ZWAP","A1UOGYZFJF4BKW","329E6HTMSWO7MPPIUTRHLR63CI0K3O","","1428.0999999940395","img/animal2.png","75","1429.5999999940395","2","1","2","1,0.5,0,0,1,0.5,0.5,0,1",""
"","html-keyboard-response","165","141523","0.0-165.0","3MTMREQS4W40NUGEJOUWLTASB5ZWAP","A1UOGYZFJF4BKW","329E6HTMSWO7MPPIUTRHLR63CI0K3O","","null","<img src=""img/animal2.png"" style=""width:200px; border:14px solid green;"">","null","","","","","",""
"","image-keyboard-response","166","141860","0.0-166.0","3MTMREQS4W40NUGEJOUWLTASB5ZWAP","A1UOGYZFJF4BKW","329E6HTMSWO7MPPIUTRHLR63CI0K3O","","335.20000000298023","img/animal2.png","75","336.20000000298023","2","1","2","1,0.5,0,0,1,0.5,0.5,0,1",""
"","html-keyboard-response","167","142162","0.0-167.0","3MTMREQS4W40NUGEJOUWLTASB5ZWAP","A1UOGYZFJF4BKW","329E6HTMSWO7MPPIUTRHLR63CI0K3O","","null","<img src=""img/animal2.png"" style=""width:200px; border:14px solid green;"">","null","","","","","",""
"","image-keyboard-response","168","143147","0.0-168.0","3MTMREQS4W40NUGEJOUWLTASB5ZWAP","A1UOGYZFJF4BKW","329E6HTMSWO7MPPIUTRHLR63CI0K3O","","983.2999999970198","img/animal6.png","76","984.5","3","1","3","1,0.5,0,0,1,0.5,0.5,0,1",""
"","html-keyboard-response","169","143449","0.0-169.0","3MTMREQS4W40NUGEJOUWLTASB5ZWAP","A1UOGYZFJF4BKW","329E6HTMSWO7MPPIUTRHLR63CI0K3O","","null","<img src=""img/animal6.png"" style=""width:200px; border:14px solid green;"">","null","","","","","",""
"","image-keyboard-response","170","144165","0.0-170.0","3MTMREQS4W40NUGEJOUWLTASB5ZWAP","A1UOGYZFJF4BKW","329E6HTMSWO7MPPIUTRHLR63CI0K3O","","714.8999999910593","img/animal5.png","74","716","1","1","1","1,0.5,0,0,1,0.5,0.5,0,1",""
"","html-keyboard-response","171","144468","0.0-171.0","3MTMREQS4W40NUGEJOUWLTASB5ZWAP","A1UOGYZFJF4BKW","329E6HTMSWO7MPPIUTRHLR63CI0K3O","","null","<img src=""img/animal5.png"" style=""width:200px; border:14px solid green;"">","null","","","","","",""
"","image-keyboard-response","172","145204","0.0-172.0","3MTMREQS4W40NUGEJOUWLTASB5ZWAP","A1UOGYZFJF4BKW","329E6HTMSWO7MPPIUTRHLR63CI0K3O","","734.7000000029802","img/animal6.png","76","735.7999999970198","3","1","3","1,0.5,0,0,1,0.5,0.5,0,1",""
"","html-keyboard-response","173","145506","0.0-173.0","3MTMREQS4W40NUGEJOUWLTASB5ZWAP","A1UOGYZFJF4BKW","329E6HTMSWO7MPPIUTRHLR63CI0K3O","","null","<img src=""img/animal6.png"" style=""width:200px; border:14px solid green;"">","null","","","","","",""
"","image-keyboard-response","174","146259","0.0-174.0","3MTMREQS4W40NUGEJOUWLTASB5ZWAP","A1UOGYZFJF4BKW","329E6HTMSWO7MPPIUTRHLR63CI0K3O","","751.8999999910593","img/animal5.png","74","753.0999999940395","1","1","1","1,0.5,0,0,1,0.5,0.5,0,1",""
"","html-keyboard-response","175","146561","0.0-175.0","3MTMREQS4W40NUGEJOUWLTASB5ZWAP","A1UOGYZFJF4BKW","329E6HTMSWO7MPPIUTRHLR63CI0K3O","","null","<img src=""img/animal5.png"" style=""width:200px; border:14px solid green;"">","null","","","","","",""
"","image-keyboard-response","176","147205","0.0-176.0","3MTMREQS4W40NUGEJOUWLTASB5ZWAP","A1UOGYZFJF4BKW","329E6HTMSWO7MPPIUTRHLR63CI0K3O","","642.5","img/animal5.png","74","643.7000000029802","1","1","1","1,0.5,0,0,1,0.5,0.5,0,1",""
"","html-keyboard-response","177","147506","0.0-177.0","3MTMREQS4W40NUGEJOUWLTASB5ZWAP","A1UOGYZFJF4BKW","329E6HTMSWO7MPPIUTRHLR63CI0K3O","","null","<img src=""img/animal5.png"" style=""width:200px; border:14px solid green;"">","null","","","","","",""
"","image-keyboard-response","178","148114","0.0-178.0","3MTMREQS4W40NUGEJOUWLTASB5ZWAP","A1UOGYZFJF4BKW","329E6HTMSWO7MPPIUTRHLR63CI0K3O","","606.3999999910593","img/animal2.png","75","607.5","2","1","2","1,0.5,0,0,1,0.5,0.5,0,1",""
"","html-keyboard-response","179","148416","0.0-179.0","3MTMREQS4W40NUGEJOUWLTASB5ZWAP","A1UOGYZFJF4BKW","329E6HTMSWO7MPPIUTRHLR63CI0K3O","","null","<img src=""img/animal2.png"" style=""width:200px; border:14px solid green;"">","null","","","","","",""
"","image-keyboard-response","180","149091","0.0-180.0","3MTMREQS4W40NUGEJOUWLTASB5ZWAP","A1UOGYZFJF4BKW","329E6HTMSWO7MPPIUTRHLR63CI0K3O","","674.5","img/animal5.png","74","675.7000000029802","1","1","1","1,0.5,0,0,1,0.5,0.5,0,1",""
"","html-keyboard-response","181","149394","0.0-181.0","3MTMREQS4W40NUGEJOUWLTASB5ZWAP","A1UOGYZFJF4BKW","329E6HTMSWO7MPPIUTRHLR63CI0K3O","","null","<img src=""img/animal5.png"" style=""width:200px; border:14px solid green;"">","null","","","","","",""
"","html-keyboard-response","182","151156","0.0-182.0","3MTMREQS4W40NUGEJOUWLTASB5ZWAP","A1UOGYZFJF4BKW","329E6HTMSWO7MPPIUTRHLR63CI0K3O","","","","","","","","","",""
"","image-keyboard-response","183","152264","0.0-183.0","3MTMREQS4W40NUGEJOUWLTASB5ZWAP","A1UOGYZFJF4BKW","329E6HTMSWO7MPPIUTRHLR63CI0K3O","","1106.8999999910593","img/animal1.png","74","1108.5999999940395","1","1","2","1,0.5,0,1,0.5,0,0.5,0,1",""
"","html-keyboard-response","184","152568","0.0-184.0","3MTMREQS4W40NUGEJOUWLTASB5ZWAP","A1UOGYZFJF4BKW","329E6HTMSWO7MPPIUTRHLR63CI0K3O","","null","<img src=""img/animal1.png"" style=""width:200px; border:14px solid green;"">","null","","","","","",""
"","image-keyboard-response","185","154108","0.0-185.0","3MTMREQS4W40NUGEJOUWLTASB5ZWAP","A1UOGYZFJF4BKW","329E6HTMSWO7MPPIUTRHLR63CI0K3O","","1538.2000000029802","img/animal3.png","76","1539.5","3","1","3","1,0.5,0,1,0.5,0,0.5,0,1",""
"","html-keyboard-response","186","154410","0.0-186.0","3MTMREQS4W40NUGEJOUWLTASB5ZWAP","A1UOGYZFJF4BKW","329E6HTMSWO7MPPIUTRHLR63CI0K3O","","null","<img src=""img/animal3.png"" style=""width:200px; border:14px solid green;"">","null","","","","","",""
"","image-keyboard-response","187","155538","0.0-187.0","3MTMREQS4W40NUGEJOUWLTASB5ZWAP","A1UOGYZFJF4BKW","329E6HTMSWO7MPPIUTRHLR63CI0K3O","","1126.4000000059605","img/animal4.png","75","1127.7000000029802","2","0","1","1,0.5,0,1,0.5,0,0.5,0,1",""
"","html-keyboard-response","188","155840","0.0-188.0","3MTMREQS4W40NUGEJOUWLTASB5ZWAP","A1UOGYZFJF4BKW","329E6HTMSWO7MPPIUTRHLR63CI0K3O","","null","<img src=""img/animal4.png"" style=""width:200px;border:14px solid red;"">","null","","","","","",""
"","image-keyboard-response","189","156825","0.0-189.0","3MTMREQS4W40NUGEJOUWLTASB5ZWAP","A1UOGYZFJF4BKW","329E6HTMSWO7MPPIUTRHLR63CI0K3O","","983.0999999940395","img/animal1.png","74","984.5","1","1","2","1,0.5,0,1,0.5,0,0.5,0,1",""
"","html-keyboard-response","190","157128","0.0-190.0","3MTMREQS4W40NUGEJOUWLTASB5ZWAP","A1UOGYZFJF4BKW","329E6HTMSWO7MPPIUTRHLR63CI0K3O","","null","<img src=""img/animal1.png"" style=""width:200px; border:14px solid green;"">","null","","","","","",""
"","image-keyboard-response","191","157663","0.0-191.0","3MTMREQS4W40NUGEJOUWLTASB5ZWAP","A1UOGYZFJF4BKW","329E6HTMSWO7MPPIUTRHLR63CI0K3O","","534.2000000029802","img/animal1.png","74","535.2999999970198","1","1","2","1,0.5,0,1,0.5,0,0.5,0,1",""
"","html-keyboard-response","192","157966","0.0-192.0","3MTMREQS4W40NUGEJOUWLTASB5ZWAP","A1UOGYZFJF4BKW","329E6HTMSWO7MPPIUTRHLR63CI0K3O","","null","<img src=""img/animal1.png"" style=""width:200px; border:14px solid green;"">","null","","","","","",""
"","image-keyboard-response","193","158914","0.0-193.0","3MTMREQS4W40NUGEJOUWLTASB5ZWAP","A1UOGYZFJF4BKW","329E6HTMSWO7MPPIUTRHLR63CI0K3O","","947","img/animal3.png","75","948.2000000029802","2","0","3","1,0.5,0,1,0.5,0,0.5,0,1",""
"","html-keyboard-response","194","159217","0.0-194.0","3MTMREQS4W40NUGEJOUWLTASB5ZWAP","A1UOGYZFJF4BKW","329E6HTMSWO7MPPIUTRHLR63CI0K3O","","null","<img src=""img/animal3.png"" style=""width:200px;border:14px solid red;"">","null","","","","","",""
"","image-keyboard-response","195","159682","0.0-195.0","3MTMREQS4W40NUGEJOUWLTASB5ZWAP","A1UOGYZFJF4BKW","329E6HTMSWO7MPPIUTRHLR63CI0K3O","","464","img/animal3.png","76","464.90000000596046","3","1","3","1,0.5,0,1,0.5,0,0.5,0,1",""
"","html-keyboard-response","196","159985","0.0-196.0","3MTMREQS4W40NUGEJOUWLTASB5ZWAP","A1UOGYZFJF4BKW","329E6HTMSWO7MPPIUTRHLR63CI0K3O","","null","<img src=""img/animal3.png"" style=""width:200px; border:14px solid green;"">","null","","","","","",""
"","image-keyboard-response","197","160723","0.0-197.0","3MTMREQS4W40NUGEJOUWLTASB5ZWAP","A1UOGYZFJF4BKW","329E6HTMSWO7MPPIUTRHLR63CI0K3O","","736","img/animal3.png","76","737.0999999940395","3","1","3","1,0.5,0,1,0.5,0,0.5,0,1",""
"","html-keyboard-response","198","161025","0.0-198.0","3MTMREQS4W40NUGEJOUWLTASB5ZWAP","A1UOGYZFJF4BKW","329E6HTMSWO7MPPIUTRHLR63CI0K3O","","null","<img src=""img/animal3.png"" style=""width:200px; border:14px solid green;"">","null","","","","","",""
"","image-keyboard-response","199","161390","0.0-199.0","3MTMREQS4W40NUGEJOUWLTASB5ZWAP","A1UOGYZFJF4BKW","329E6HTMSWO7MPPIUTRHLR63CI0K3O","","363.5","img/animal3.png","76","364.6000000089407","3","1","3","1,0.5,0,1,0.5,0,0.5,0,1",""
"","html-keyboard-response","200","161693","0.0-200.0","3MTMREQS4W40NUGEJOUWLTASB5ZWAP","A1UOGYZFJF4BKW","329E6HTMSWO7MPPIUTRHLR63CI0K3O","","null","<img src=""img/animal3.png"" style=""width:200px; border:14px solid green;"">","null","","","","","",""
"","image-keyboard-response","201","162450","0.0-201.0","3MTMREQS4W40NUGEJOUWLTASB5ZWAP","A1UOGYZFJF4BKW","329E6HTMSWO7MPPIUTRHLR63CI0K3O","","754.7999999970198","img/animal4.png","75","756.1000000089407","2","1","1","1,0.5,0,1,0.5,0,0.5,0,1",""
"","html-keyboard-response","202","162752","0.0-202.0","3MTMREQS4W40NUGEJOUWLTASB5ZWAP","A1UOGYZFJF4BKW","329E6HTMSWO7MPPIUTRHLR63CI0K3O","","null","<img src=""img/animal4.png"" style=""width:200px; border:14px solid green;"">","null","","","","","",""
"","image-keyboard-response","203","163220","0.0-203.0","3MTMREQS4W40NUGEJOUWLTASB5ZWAP","A1UOGYZFJF4BKW","329E6HTMSWO7MPPIUTRHLR63CI0K3O","","466.59999999403954","img/animal4.png","75","467.90000000596046","2","0","1","1,0.5,0,1,0.5,0,0.5,0,1",""
"","html-keyboard-response","204","163522","0.0-204.0","3MTMREQS4W40NUGEJOUWLTASB5ZWAP","A1UOGYZFJF4BKW","329E6HTMSWO7MPPIUTRHLR63CI0K3O","","null","<img src=""img/animal4.png"" style=""width:200px;border:14px solid red;"">","null","","","","","",""
"","image-keyboard-response","205","163970","0.0-205.0","3MTMREQS4W40NUGEJOUWLTASB5ZWAP","A1UOGYZFJF4BKW","329E6HTMSWO7MPPIUTRHLR63CI0K3O","","446.70000000298023","img/animal4.png","75","448","2","0","1","1,0.5,0,1,0.5,0,0.5,0,1",""
"","html-keyboard-response","206","164272","0.0-206.0","3MTMREQS4W40NUGEJOUWLTASB5ZWAP","A1UOGYZFJF4BKW","329E6HTMSWO7MPPIUTRHLR63CI0K3O","","null","<img src=""img/animal4.png"" style=""width:200px;border:14px solid red;"">","null","","","","","",""
"","image-keyboard-response","207","165372","0.0-207.0","3MTMREQS4W40NUGEJOUWLTASB5ZWAP","A1UOGYZFJF4BKW","329E6HTMSWO7MPPIUTRHLR63CI0K3O","","1098.199999988079","img/animal1.png","74","1099.4000000059605","1","1","2","1,0.5,0,1,0.5,0,0.5,0,1",""
"","html-keyboard-response","208","165674","0.0-208.0","3MTMREQS4W40NUGEJOUWLTASB5ZWAP","A1UOGYZFJF4BKW","329E6HTMSWO7MPPIUTRHLR63CI0K3O","","null","<img src=""img/animal1.png"" style=""width:200px; border:14px solid green;"">","null","","","","","",""
"","image-keyboard-response","209","166546","0.0-209.0","3MTMREQS4W40NUGEJOUWLTASB5ZWAP","A1UOGYZFJF4BKW","329E6HTMSWO7MPPIUTRHLR63CI0K3O","","870.5999999940395","img/animal3.png","76","871.9000000059605","3","1","3","1,0.5,0,1,0.5,0,0.5,0,1",""
"","html-keyboard-response","210","166858","0.0-210.0","3MTMREQS4W40NUGEJOUWLTASB5ZWAP","A1UOGYZFJF4BKW","329E6HTMSWO7MPPIUTRHLR63CI0K3O","","null","<img src=""img/animal3.png"" style=""width:200px; border:14px solid green;"">","null","","","","","",""
"","image-keyboard-response","211","167705","0.0-211.0","3MTMREQS4W40NUGEJOUWLTASB5ZWAP","A1UOGYZFJF4BKW","329E6HTMSWO7MPPIUTRHLR63CI0K3O","","845.1000000089407","img/animal1.png","75","846.5","2","0","2","1,0.5,0,1,0.5,0,0.5,0,1",""
"","html-keyboard-response","212","168007","0.0-212.0","3MTMREQS4W40NUGEJOUWLTASB5ZWAP","A1UOGYZFJF4BKW","329E6HTMSWO7MPPIUTRHLR63CI0K3O","","null","<img src=""img/animal1.png"" style=""width:200px;border:14px solid red;"">","null","","","","","",""
"","image-keyboard-response","213","169332","0.0-213.0","3MTMREQS4W40NUGEJOUWLTASB5ZWAP","A1UOGYZFJF4BKW","329E6HTMSWO7MPPIUTRHLR63CI0K3O","","1323.5999999940395","img/animal3.png","76","1324.7000000029802","3","1","3","1,0.5,0,1,0.5,0,0.5,0,1",""
"","html-keyboard-response","214","169635","0.0-214.0","3MTMREQS4W40NUGEJOUWLTASB5ZWAP","A1UOGYZFJF4BKW","329E6HTMSWO7MPPIUTRHLR63CI0K3O","","null","<img src=""img/animal3.png"" style=""width:200px; border:14px solid green;"">","null","","","","","",""
"","image-keyboard-response","215","170512","0.0-215.0","3MTMREQS4W40NUGEJOUWLTASB5ZWAP","A1UOGYZFJF4BKW","329E6HTMSWO7MPPIUTRHLR63CI0K3O","","875.4000000059605","img/animal1.png","76","877.7999999970198","3","0","2","1,0.5,0,1,0.5,0,0.5,0,1",""
"","html-keyboard-response","216","170816","0.0-216.0","3MTMREQS4W40NUGEJOUWLTASB5ZWAP","A1UOGYZFJF4BKW","329E6HTMSWO7MPPIUTRHLR63CI0K3O","","null","<img src=""img/animal1.png"" style=""width:200px;border:14px solid red;"">","null","","","","","",""
"","image-keyboard-response","217","172131","0.0-217.0","3MTMREQS4W40NUGEJOUWLTASB5ZWAP","A1UOGYZFJF4BKW","329E6HTMSWO7MPPIUTRHLR63CI0K3O","","1313.7000000029802","img/animal4.png","74","1315","1","1","1","1,0.5,0,1,0.5,0,0.5,0,1",""
"","html-keyboard-response","218","172434","0.0-218.0","3MTMREQS4W40NUGEJOUWLTASB5ZWAP","A1UOGYZFJF4BKW","329E6HTMSWO7MPPIUTRHLR63CI0K3O","","null","<img src=""img/animal4.png"" style=""width:200px; border:14px solid green;"">","null","","","","","",""
"","image-keyboard-response","219","172829","0.0-219.0","3MTMREQS4W40NUGEJOUWLTASB5ZWAP","A1UOGYZFJF4BKW","329E6HTMSWO7MPPIUTRHLR63CI0K3O","","394.1000000089407","img/animal4.png","74","395.29999999701977","1","1","1","1,0.5,0,1,0.5,0,0.5,0,1",""
"","html-keyboard-response","220","173133","0.0-220.0","3MTMREQS4W40NUGEJOUWLTASB5ZWAP","A1UOGYZFJF4BKW","329E6HTMSWO7MPPIUTRHLR63CI0K3O","","null","<img src=""img/animal4.png"" style=""width:200px; border:14px solid green;"">","null","","","","","",""
"","image-keyboard-response","221","173442","0.0-221.0","3MTMREQS4W40NUGEJOUWLTASB5ZWAP","A1UOGYZFJF4BKW","329E6HTMSWO7MPPIUTRHLR63CI0K3O","","308.3999999910593","img/animal4.png","74","309.5","1","1","1","1,0.5,0,1,0.5,0,0.5,0,1",""
"","html-keyboard-response","222","173746","0.0-222.0","3MTMREQS4W40NUGEJOUWLTASB5ZWAP","A1UOGYZFJF4BKW","329E6HTMSWO7MPPIUTRHLR63CI0K3O","","null","<img src=""img/animal4.png"" style=""width:200px; border:14px solid green;"">","null","","","","","",""
"","image-keyboard-response","223","174627","0.0-223.0","3MTMREQS4W40NUGEJOUWLTASB5ZWAP","A1UOGYZFJF4BKW","329E6HTMSWO7MPPIUTRHLR63CI0K3O","","879.7999999970198","img/animal1.png","74","881","1","1","2","1,0.5,0,1,0.5,0,0.5,0,1",""
"","html-keyboard-response","224","174930","0.0-224.0","3MTMREQS4W40NUGEJOUWLTASB5ZWAP","A1UOGYZFJF4BKW","329E6HTMSWO7MPPIUTRHLR63CI0K3O","","null","<img src=""img/animal1.png"" style=""width:200px; border:14px solid green;"">","null","","","","","",""
"","image-keyboard-response","225","175710","0.0-225.0","3MTMREQS4W40NUGEJOUWLTASB5ZWAP","A1UOGYZFJF4BKW","329E6HTMSWO7MPPIUTRHLR63CI0K3O","","779","img/animal3.png","76","780.1000000089407","3","1","3","1,0.5,0,1,0.5,0,0.5,0,1",""
"","html-keyboard-response","226","176012","0.0-226.0","3MTMREQS4W40NUGEJOUWLTASB5ZWAP","A1UOGYZFJF4BKW","329E6HTMSWO7MPPIUTRHLR63CI0K3O","","null","<img src=""img/animal3.png"" style=""width:200px; border:14px solid green;"">","null","","","","","",""
"","image-keyboard-response","227","176439","0.0-227.0","3MTMREQS4W40NUGEJOUWLTASB5ZWAP","A1UOGYZFJF4BKW","329E6HTMSWO7MPPIUTRHLR63CI0K3O","","426.09999999403954","img/animal3.png","76","427.30000001192093","3","1","3","1,0.5,0,1,0.5,0,0.5,0,1",""
"","html-keyboard-response","228","176741","0.0-228.0","3MTMREQS4W40NUGEJOUWLTASB5ZWAP","A1UOGYZFJF4BKW","329E6HTMSWO7MPPIUTRHLR63CI0K3O","","null","<img src=""img/animal3.png"" style=""width:200px; border:14px solid green;"">","null","","","","","",""
"","image-keyboard-response","229","177979","0.0-229.0","3MTMREQS4W40NUGEJOUWLTASB5ZWAP","A1UOGYZFJF4BKW","329E6HTMSWO7MPPIUTRHLR63CI0K3O","","1236.6000000089407","img/animal1.png","74","1237.7999999970198","1","1","2","1,0.5,0,1,0.5,0,0.5,0,1",""
"","html-keyboard-response","230","178281","0.0-230.0","3MTMREQS4W40NUGEJOUWLTASB5ZWAP","A1UOGYZFJF4BKW","329E6HTMSWO7MPPIUTRHLR63CI0K3O","","null","<img src=""img/animal1.png"" style=""width:200px; border:14px solid green;"">","null","","","","","",""
"","image-keyboard-response","231","178990","0.0-231.0","3MTMREQS4W40NUGEJOUWLTASB5ZWAP","A1UOGYZFJF4BKW","329E6HTMSWO7MPPIUTRHLR63CI0K3O","","707.7000000029802","img/animal4.png","74","709","1","1","1","1,0.5,0,1,0.5,0,0.5,0,1",""
"","html-keyboard-response","232","179292","0.0-232.0","3MTMREQS4W40NUGEJOUWLTASB5ZWAP","A1UOGYZFJF4BKW","329E6HTMSWO7MPPIUTRHLR63CI0K3O","","null","<img src=""img/animal4.png"" style=""width:200px; border:14px solid green;"">","null","","","","","",""
"","image-keyboard-response","233","179609","0.0-233.0","3MTMREQS4W40NUGEJOUWLTASB5ZWAP","A1UOGYZFJF4BKW","329E6HTMSWO7MPPIUTRHLR63CI0K3O","","316.09999999403954","img/animal4.png","74","317.29999999701977","1","1","1","1,0.5,0,1,0.5,0,0.5,0,1",""
"","html-keyboard-response","234","179912","0.0-234.0","3MTMREQS4W40NUGEJOUWLTASB5ZWAP","A1UOGYZFJF4BKW","329E6HTMSWO7MPPIUTRHLR63CI0K3O","","null","<img src=""img/animal4.png"" style=""width:200px; border:14px solid green;"">","null","","","","","",""
"","image-keyboard-response","235","180180","0.0-235.0","3MTMREQS4W40NUGEJOUWLTASB5ZWAP","A1UOGYZFJF4BKW","329E6HTMSWO7MPPIUTRHLR63CI0K3O","","266.5","img/animal4.png","74","267.70000000298023","1","1","1","1,0.5,0,1,0.5,0,0.5,0,1",""
"","html-keyboard-response","236","180482","0.0-236.0","3MTMREQS4W40NUGEJOUWLTASB5ZWAP","A1UOGYZFJF4BKW","329E6HTMSWO7MPPIUTRHLR63CI0K3O","","null","<img src=""img/animal4.png"" style=""width:200px; border:14px solid green;"">","null","","","","","",""
"","image-keyboard-response","237","180776","0.0-237.0","3MTMREQS4W40NUGEJOUWLTASB5ZWAP","A1UOGYZFJF4BKW","329E6HTMSWO7MPPIUTRHLR63CI0K3O","","292.20000000298023","img/animal4.png","74","293.29999999701977","1","1","1","1,0.5,0,1,0.5,0,0.5,0,1",""
"","html-keyboard-response","238","181078","0.0-238.0","3MTMREQS4W40NUGEJOUWLTASB5ZWAP","A1UOGYZFJF4BKW","329E6HTMSWO7MPPIUTRHLR63CI0K3O","","null","<img src=""img/animal4.png"" style=""width:200px; border:14px solid green;"">","null","","","","","",""
"","image-keyboard-response","239","181588","0.0-239.0","3MTMREQS4W40NUGEJOUWLTASB5ZWAP","A1UOGYZFJF4BKW","329E6HTMSWO7MPPIUTRHLR63CI0K3O","","508.59999999403954","img/animal3.png","76","509.6000000089407","3","1","3","1,0.5,0,1,0.5,0,0.5,0,1",""
"","html-keyboard-response","240","181890","0.0-240.0","3MTMREQS4W40NUGEJOUWLTASB5ZWAP","A1UOGYZFJF4BKW","329E6HTMSWO7MPPIUTRHLR63CI0K3O","","null","<img src=""img/animal3.png"" style=""width:200px; border:14px solid green;"">","null","","","","","",""
"","image-keyboard-response","241","182657","0.0-241.0","3MTMREQS4W40NUGEJOUWLTASB5ZWAP","A1UOGYZFJF4BKW","329E6HTMSWO7MPPIUTRHLR63CI0K3O","","765.7999999970198","img/animal1.png","74","767","1","1","2","1,0.5,0,1,0.5,0,0.5,0,1",""
"","html-keyboard-response","242","182959","0.0-242.0","3MTMREQS4W40NUGEJOUWLTASB5ZWAP","A1UOGYZFJF4BKW","329E6HTMSWO7MPPIUTRHLR63CI0K3O","","null","<img src=""img/animal1.png"" style=""width:200px; border:14px solid green;"">","null","","","","","",""
"","image-keyboard-response","243","183504","0.0-243.0","3MTMREQS4W40NUGEJOUWLTASB5ZWAP","A1UOGYZFJF4BKW","329E6HTMSWO7MPPIUTRHLR63CI0K3O","","542.8000000119209","img/animal3.png","76","544","3","1","3","1,0.5,0,1,0.5,0,0.5,0,1",""
"","html-keyboard-response","244","183805","0.0-244.0","3MTMREQS4W40NUGEJOUWLTASB5ZWAP","A1UOGYZFJF4BKW","329E6HTMSWO7MPPIUTRHLR63CI0K3O","","null","<img src=""img/animal3.png"" style=""width:200px; border:14px solid green;"">","null","","","","","",""
"","image-keyboard-response","245","184299","0.0-245.0","3MTMREQS4W40NUGEJOUWLTASB5ZWAP","A1UOGYZFJF4BKW","329E6HTMSWO7MPPIUTRHLR63CI0K3O","","492.40000000596046","img/animal1.png","74","493.80000001192093","1","1","2","1,0.5,0,1,0.5,0,0.5,0,1",""
"","html-keyboard-response","246","184601","0.0-246.0","3MTMREQS4W40NUGEJOUWLTASB5ZWAP","A1UOGYZFJF4BKW","329E6HTMSWO7MPPIUTRHLR63CI0K3O","","null","<img src=""img/animal1.png"" style=""width:200px; border:14px solid green;"">","null","","","","","",""
"","image-keyboard-response","247","185103","0.0-247.0","3MTMREQS4W40NUGEJOUWLTASB5ZWAP","A1UOGYZFJF4BKW","329E6HTMSWO7MPPIUTRHLR63CI0K3O","","500.40000000596046","img/animal3.png","76","501.5","3","1","3","1,0.5,0,1,0.5,0,0.5,0,1",""
"","html-keyboard-response","248","185405","0.0-248.0","3MTMREQS4W40NUGEJOUWLTASB5ZWAP","A1UOGYZFJF4BKW","329E6HTMSWO7MPPIUTRHLR63CI0K3O","","null","<img src=""img/animal3.png"" style=""width:200px; border:14px solid green;"">","null","","","","","",""
"","image-keyboard-response","249","185841","0.0-249.0","3MTMREQS4W40NUGEJOUWLTASB5ZWAP","A1UOGYZFJF4BKW","329E6HTMSWO7MPPIUTRHLR63CI0K3O","","435.20000000298023","img/animal3.png","76","436.20000000298023","3","1","3","1,0.5,0,1,0.5,0,0.5,0,1",""
"","html-keyboard-response","250","186143","0.0-250.0","3MTMREQS4W40NUGEJOUWLTASB5ZWAP","A1UOGYZFJF4BKW","329E6HTMSWO7MPPIUTRHLR63CI0K3O","","null","<img src=""img/animal3.png"" style=""width:200px; border:14px solid green;"">","null","","","","","",""
"","image-keyboard-response","251","186695","0.0-251.0","3MTMREQS4W40NUGEJOUWLTASB5ZWAP","A1UOGYZFJF4BKW","329E6HTMSWO7MPPIUTRHLR63CI0K3O","","550.7000000029802","img/animal4.png","74","551.9000000059605","1","1","1","1,0.5,0,1,0.5,0,0.5,0,1",""
"","html-keyboard-response","252","186997","0.0-252.0","3MTMREQS4W40NUGEJOUWLTASB5ZWAP","A1UOGYZFJF4BKW","329E6HTMSWO7MPPIUTRHLR63CI0K3O","","null","<img src=""img/animal4.png"" style=""width:200px; border:14px solid green;"">","null","","","","","",""
"","image-keyboard-response","253","187571","0.0-253.0","3MTMREQS4W40NUGEJOUWLTASB5ZWAP","A1UOGYZFJF4BKW","329E6HTMSWO7MPPIUTRHLR63CI0K3O","","572.7000000029802","img/animal1.png","74","574","1","1","2","1,0.5,0,1,0.5,0,0.5,0,1",""
"","html-keyboard-response","254","187874","0.0-254.0","3MTMREQS4W40NUGEJOUWLTASB5ZWAP","A1UOGYZFJF4BKW","329E6HTMSWO7MPPIUTRHLR63CI0K3O","","null","<img src=""img/animal1.png"" style=""width:200px; border:14px solid green;"">","null","","","","","",""
"","image-keyboard-response","255","188401","0.0-255.0","3MTMREQS4W40NUGEJOUWLTASB5ZWAP","A1UOGYZFJF4BKW","329E6HTMSWO7MPPIUTRHLR63CI0K3O","","526.5","img/animal4.png","74","527.6999999880791","1","1","1","1,0.5,0,1,0.5,0,0.5,0,1",""
"","html-keyboard-response","256","188703","0.0-256.0","3MTMREQS4W40NUGEJOUWLTASB5ZWAP","A1UOGYZFJF4BKW","329E6HTMSWO7MPPIUTRHLR63CI0K3O","","null","<img src=""img/animal4.png"" style=""width:200px; border:14px solid green;"">","null","","","","","",""
"","image-keyboard-response","257","189317","0.0-257.0","3MTMREQS4W40NUGEJOUWLTASB5ZWAP","A1UOGYZFJF4BKW","329E6HTMSWO7MPPIUTRHLR63CI0K3O","","612.3999999910593","img/animal3.png","76","613.5999999940395","3","1","3","1,0.5,0,1,0.5,0,0.5,0,1",""
"","html-keyboard-response","258","189619","0.0-258.0","3MTMREQS4W40NUGEJOUWLTASB5ZWAP","A1UOGYZFJF4BKW","329E6HTMSWO7MPPIUTRHLR63CI0K3O","","null","<img src=""img/animal3.png"" style=""width:200px; border:14px solid green;"">","null","","","","","",""
"","image-keyboard-response","259","190019","0.0-259.0","3MTMREQS4W40NUGEJOUWLTASB5ZWAP","A1UOGYZFJF4BKW","329E6HTMSWO7MPPIUTRHLR63CI0K3O","","399","img/animal3.png","76","400.19999998807907","3","1","3","1,0.5,0,1,0.5,0,0.5,0,1",""
"","html-keyboard-response","260","190322","0.0-260.0","3MTMREQS4W40NUGEJOUWLTASB5ZWAP","A1UOGYZFJF4BKW","329E6HTMSWO7MPPIUTRHLR63CI0K3O","","null","<img src=""img/animal3.png"" style=""width:200px; border:14px solid green;"">","null","","","","","",""
"","image-keyboard-response","261","190670","0.0-261.0","3MTMREQS4W40NUGEJOUWLTASB5ZWAP","A1UOGYZFJF4BKW","329E6HTMSWO7MPPIUTRHLR63CI0K3O","","346.5","img/animal3.png","76","347.70000000298023","3","1","3","1,0.5,0,1,0.5,0,0.5,0,1",""
"","html-keyboard-response","262","190972","0.0-262.0","3MTMREQS4W40NUGEJOUWLTASB5ZWAP","A1UOGYZFJF4BKW","329E6HTMSWO7MPPIUTRHLR63CI0K3O","","null","<img src=""img/animal3.png"" style=""width:200px; border:14px solid green;"">","null","","","","","",""
"","image-keyboard-response","263","191527","0.0-263.0","3MTMREQS4W40NUGEJOUWLTASB5ZWAP","A1UOGYZFJF4BKW","329E6HTMSWO7MPPIUTRHLR63CI0K3O","","553.7000000029802","img/animal4.png","74","554.7999999970198","1","1","1","1,0.5,0,1,0.5,0,0.5,0,1",""
"","html-keyboard-response","264","191829","0.0-264.0","3MTMREQS4W40NUGEJOUWLTASB5ZWAP","A1UOGYZFJF4BKW","329E6HTMSWO7MPPIUTRHLR63CI0K3O","","null","<img src=""img/animal4.png"" style=""width:200px; border:14px solid green;"">","null","","","","","",""
"","image-keyboard-response","265","192373","0.0-265.0","3MTMREQS4W40NUGEJOUWLTASB5ZWAP","A1UOGYZFJF4BKW","329E6HTMSWO7MPPIUTRHLR63CI0K3O","","542.7999999970198","img/animal3.png","76","543.9000000059605","3","1","3","1,0.5,0,1,0.5,0,0.5,0,1",""
"","html-keyboard-response","266","192675","0.0-266.0","3MTMREQS4W40NUGEJOUWLTASB5ZWAP","A1UOGYZFJF4BKW","329E6HTMSWO7MPPIUTRHLR63CI0K3O","","null","<img src=""img/animal3.png"" style=""width:200px; border:14px solid green;"">","null","","","","","",""
"","image-keyboard-response","267","193227","0.0-267.0","3MTMREQS4W40NUGEJOUWLTASB5ZWAP","A1UOGYZFJF4BKW","329E6HTMSWO7MPPIUTRHLR63CI0K3O","","550.5","img/animal4.png","74","551.7000000029802","1","1","1","1,0.5,0,1,0.5,0,0.5,0,1",""
"","html-keyboard-response","268","193529","0.0-268.0","3MTMREQS4W40NUGEJOUWLTASB5ZWAP","A1UOGYZFJF4BKW","329E6HTMSWO7MPPIUTRHLR63CI0K3O","","null","<img src=""img/animal4.png"" style=""width:200px; border:14px solid green;"">","null","","","","","",""
"","image-keyboard-response","269","194106","0.0-269.0","3MTMREQS4W40NUGEJOUWLTASB5ZWAP","A1UOGYZFJF4BKW","329E6HTMSWO7MPPIUTRHLR63CI0K3O","","575.7000000029802","img/animal1.png","74","576.8999999910593","1","1","2","1,0.5,0,1,0.5,0,0.5,0,1",""
"","html-keyboard-response","270","194409","0.0-270.0","3MTMREQS4W40NUGEJOUWLTASB5ZWAP","A1UOGYZFJF4BKW","329E6HTMSWO7MPPIUTRHLR63CI0K3O","","null","<img src=""img/animal1.png"" style=""width:200px; border:14px solid green;"">","null","","","","","",""
"","image-keyboard-response","271","194733","0.0-271.0","3MTMREQS4W40NUGEJOUWLTASB5ZWAP","A1UOGYZFJF4BKW","329E6HTMSWO7MPPIUTRHLR63CI0K3O","","323.19999998807907","img/animal1.png","74","324.29999999701977","1","1","2","1,0.5,0,1,0.5,0,0.5,0,1",""
"","html-keyboard-response","272","195036","0.0-272.0","3MTMREQS4W40NUGEJOUWLTASB5ZWAP","A1UOGYZFJF4BKW","329E6HTMSWO7MPPIUTRHLR63CI0K3O","","null","<img src=""img/animal1.png"" style=""width:200px; border:14px solid green;"">","null","","","","","",""
"","image-keyboard-response","273","195498","0.0-273.0","3MTMREQS4W40NUGEJOUWLTASB5ZWAP","A1UOGYZFJF4BKW","329E6HTMSWO7MPPIUTRHLR63CI0K3O","","461.5","img/animal3.png","76","462.6000000089407","3","1","3","1,0.5,0,1,0.5,0,0.5,0,1",""
"","html-keyboard-response","274","195801","0.0-274.0","3MTMREQS4W40NUGEJOUWLTASB5ZWAP","A1UOGYZFJF4BKW","329E6HTMSWO7MPPIUTRHLR63CI0K3O","","null","<img src=""img/animal3.png"" style=""width:200px; border:14px solid green;"">","null","","","","","",""
"","image-keyboard-response","275","196204","0.0-275.0","3MTMREQS4W40NUGEJOUWLTASB5ZWAP","A1UOGYZFJF4BKW","329E6HTMSWO7MPPIUTRHLR63CI0K3O","","401.20000000298023","img/animal3.png","76","402.5","3","1","3","1,0.5,0,1,0.5,0,0.5,0,1",""
"","html-keyboard-response","276","196506","0.0-276.0","3MTMREQS4W40NUGEJOUWLTASB5ZWAP","A1UOGYZFJF4BKW","329E6HTMSWO7MPPIUTRHLR63CI0K3O","","null","<img src=""img/animal3.png"" style=""width:200px; border:14px solid green;"">","null","","","","","",""
"","image-keyboard-response","277","196881","0.0-277.0","3MTMREQS4W40NUGEJOUWLTASB5ZWAP","A1UOGYZFJF4BKW","329E6HTMSWO7MPPIUTRHLR63CI0K3O","","372.3999999910593","img/animal3.png","76","373.79999999701977","3","1","3","1,0.5,0,1,0.5,0,0.5,0,1",""
"","html-keyboard-response","278","197183","0.0-278.0","3MTMREQS4W40NUGEJOUWLTASB5ZWAP","A1UOGYZFJF4BKW","329E6HTMSWO7MPPIUTRHLR63CI0K3O","","null","<img src=""img/animal3.png"" style=""width:200px; border:14px solid green;"">","null","","","","","",""
"","image-keyboard-response","279","197589","0.0-279.0","3MTMREQS4W40NUGEJOUWLTASB5ZWAP","A1UOGYZFJF4BKW","329E6HTMSWO7MPPIUTRHLR63CI0K3O","","404.5","img/animal3.png","76","405.90000000596046","3","1","3","1,0.5,0,1,0.5,0,0.5,0,1",""
"","html-keyboard-response","280","197891","0.0-280.0","3MTMREQS4W40NUGEJOUWLTASB5ZWAP","A1UOGYZFJF4BKW","329E6HTMSWO7MPPIUTRHLR63CI0K3O","","null","<img src=""img/animal3.png"" style=""width:200px; border:14px solid green;"">","null","","","","","",""
"","image-keyboard-response","281","198179","0.0-281.0","3MTMREQS4W40NUGEJOUWLTASB5ZWAP","A1UOGYZFJF4BKW","329E6HTMSWO7MPPIUTRHLR63CI0K3O","","286.20000000298023","img/animal3.png","76","287.40000000596046","3","1","3","1,0.5,0,1,0.5,0,0.5,0,1",""
"","html-keyboard-response","282","198481","0.0-282.0","3MTMREQS4W40NUGEJOUWLTASB5ZWAP","A1UOGYZFJF4BKW","329E6HTMSWO7MPPIUTRHLR63CI0K3O","","null","<img src=""img/animal3.png"" style=""width:200px; border:14px solid green;"">","null","","","","","",""
"","image-keyboard-response","283","198843","0.0-283.0","3MTMREQS4W40NUGEJOUWLTASB5ZWAP","A1UOGYZFJF4BKW","329E6HTMSWO7MPPIUTRHLR63CI0K3O","","360.5","img/animal3.png","76","361.79999999701977","3","1","3","1,0.5,0,1,0.5,0,0.5,0,1",""
"","html-keyboard-response","284","199146","0.0-284.0","3MTMREQS4W40NUGEJOUWLTASB5ZWAP","A1UOGYZFJF4BKW","329E6HTMSWO7MPPIUTRHLR63CI0K3O","","null","<img src=""img/animal3.png"" style=""width:200px; border:14px solid green;"">","null","","","","","",""
"","image-keyboard-response","285","199642","0.0-285.0","3MTMREQS4W40NUGEJOUWLTASB5ZWAP","A1UOGYZFJF4BKW","329E6HTMSWO7MPPIUTRHLR63CI0K3O","","494.80000001192093","img/animal1.png","74","496.09999999403954","1","1","2","1,0.5,0,1,0.5,0,0.5,0,1",""
"","html-keyboard-response","286","199944","0.0-286.0","3MTMREQS4W40NUGEJOUWLTASB5ZWAP","A1UOGYZFJF4BKW","329E6HTMSWO7MPPIUTRHLR63CI0K3O","","null","<img src=""img/animal1.png"" style=""width:200px; border:14px solid green;"">","null","","","","","",""
"","image-keyboard-response","287","200948","0.0-287.0","3MTMREQS4W40NUGEJOUWLTASB5ZWAP","A1UOGYZFJF4BKW","329E6HTMSWO7MPPIUTRHLR63CI0K3O","","1002.9000000059605","img/animal4.png","74","1004.1000000089407","1","1","1","1,0.5,0,1,0.5,0,0.5,0,1",""
"","html-keyboard-response","288","201251","0.0-288.0","3MTMREQS4W40NUGEJOUWLTASB5ZWAP","A1UOGYZFJF4BKW","329E6HTMSWO7MPPIUTRHLR63CI0K3O","","null","<img src=""img/animal4.png"" style=""width:200px; border:14px solid green;"">","null","","","","","",""
"","image-keyboard-response","289","201848","0.0-289.0","3MTMREQS4W40NUGEJOUWLTASB5ZWAP","A1UOGYZFJF4BKW","329E6HTMSWO7MPPIUTRHLR63CI0K3O","","595.7999999970198","img/animal3.png","76","597","3","1","3","1,0.5,0,1,0.5,0,0.5,0,1",""
"","html-keyboard-response","290","202151","0.0-290.0","3MTMREQS4W40NUGEJOUWLTASB5ZWAP","A1UOGYZFJF4BKW","329E6HTMSWO7MPPIUTRHLR63CI0K3O","","null","<img src=""img/animal3.png"" style=""width:200px; border:14px solid green;"">","null","","","","","",""
"","image-keyboard-response","291","203122","0.0-291.0","3MTMREQS4W40NUGEJOUWLTASB5ZWAP","A1UOGYZFJF4BKW","329E6HTMSWO7MPPIUTRHLR63CI0K3O","","970.5999999940395","img/animal4.png","74","971.7000000029802","1","1","1","1,0.5,0,1,0.5,0,0.5,0,1",""
"","html-keyboard-response","292","203426","0.0-292.0","3MTMREQS4W40NUGEJOUWLTASB5ZWAP","A1UOGYZFJF4BKW","329E6HTMSWO7MPPIUTRHLR63CI0K3O","","null","<img src=""img/animal4.png"" style=""width:200px; border:14px solid green;"">","null","","","","","",""
"","image-keyboard-response","293","203807","0.0-293.0","3MTMREQS4W40NUGEJOUWLTASB5ZWAP","A1UOGYZFJF4BKW","329E6HTMSWO7MPPIUTRHLR63CI0K3O","","379.3999999910593","img/animal4.png","74","380.40000000596046","1","1","1","1,0.5,0,1,0.5,0,0.5,0,1",""
"","html-keyboard-response","294","204109","0.0-294.0","3MTMREQS4W40NUGEJOUWLTASB5ZWAP","A1UOGYZFJF4BKW","329E6HTMSWO7MPPIUTRHLR63CI0K3O","","null","<img src=""img/animal4.png"" style=""width:200px; border:14px solid green;"">","null","","","","","",""
"","image-keyboard-response","295","204630","0.0-295.0","3MTMREQS4W40NUGEJOUWLTASB5ZWAP","A1UOGYZFJF4BKW","329E6HTMSWO7MPPIUTRHLR63CI0K3O","","519.7999999970198","img/animal3.png","76","521.0999999940395","3","1","3","1,0.5,0,1,0.5,0,0.5,0,1",""
"","html-keyboard-response","296","204942","0.0-296.0","3MTMREQS4W40NUGEJOUWLTASB5ZWAP","A1UOGYZFJF4BKW","329E6HTMSWO7MPPIUTRHLR63CI0K3O","","null","<img src=""img/animal3.png"" style=""width:200px; border:14px solid green;"">","null","","","","","",""
"","image-keyboard-response","297","205269","0.0-297.0","3MTMREQS4W40NUGEJOUWLTASB5ZWAP","A1UOGYZFJF4BKW","329E6HTMSWO7MPPIUTRHLR63CI0K3O","","325.3999999910593","img/animal3.png","76","326.70000000298023","3","1","3","1,0.5,0,1,0.5,0,0.5,0,1",""
"","html-keyboard-response","298","205572","0.0-298.0","3MTMREQS4W40NUGEJOUWLTASB5ZWAP","A1UOGYZFJF4BKW","329E6HTMSWO7MPPIUTRHLR63CI0K3O","","null","<img src=""img/animal3.png"" style=""width:200px; border:14px solid green;"">","null","","","","","",""
"","image-keyboard-response","299","206048","0.0-299.0","3MTMREQS4W40NUGEJOUWLTASB5ZWAP","A1UOGYZFJF4BKW","329E6HTMSWO7MPPIUTRHLR63CI0K3O","","475.29999999701977","img/animal1.png","74","476.5","1","1","2","1,0.5,0,1,0.5,0,0.5,0,1",""
"","html-keyboard-response","300","206351","0.0-300.0","3MTMREQS4W40NUGEJOUWLTASB5ZWAP","A1UOGYZFJF4BKW","329E6HTMSWO7MPPIUTRHLR63CI0K3O","","null","<img src=""img/animal1.png"" style=""width:200px; border:14px solid green;"">","null","","","","","",""
"","image-keyboard-response","301","206869","0.0-301.0","3MTMREQS4W40NUGEJOUWLTASB5ZWAP","A1UOGYZFJF4BKW","329E6HTMSWO7MPPIUTRHLR63CI0K3O","","516.5","img/animal1.png","74","518","1","1","2","1,0.5,0,1,0.5,0,0.5,0,1",""
"","html-keyboard-response","302","207177","0.0-302.0","3MTMREQS4W40NUGEJOUWLTASB5ZWAP","A1UOGYZFJF4BKW","329E6HTMSWO7MPPIUTRHLR63CI0K3O","","null","<img src=""img/animal1.png"" style=""width:200px; border:14px solid green;"">","null","","","","","",""
"","image-keyboard-response","303","207510","0.0-303.0","3MTMREQS4W40NUGEJOUWLTASB5ZWAP","A1UOGYZFJF4BKW","329E6HTMSWO7MPPIUTRHLR63CI0K3O","","331.20000000298023","img/animal1.png","74","332.40000000596046","1","1","2","1,0.5,0,1,0.5,0,0.5,0,1",""
"","html-keyboard-response","304","207812","0.0-304.0","3MTMREQS4W40NUGEJOUWLTASB5ZWAP","A1UOGYZFJF4BKW","329E6HTMSWO7MPPIUTRHLR63CI0K3O","","null","<img src=""img/animal1.png"" style=""width:200px; border:14px solid green;"">","null","","","","","",""
"","image-keyboard-response","305","208409","0.0-305.0","3MTMREQS4W40NUGEJOUWLTASB5ZWAP","A1UOGYZFJF4BKW","329E6HTMSWO7MPPIUTRHLR63CI0K3O","","594.9000000059605","img/animal4.png","74","596.0999999940395","1","1","1","1,0.5,0,1,0.5,0,0.5,0,1",""
"","html-keyboard-response","306","208711","0.0-306.0","3MTMREQS4W40NUGEJOUWLTASB5ZWAP","A1UOGYZFJF4BKW","329E6HTMSWO7MPPIUTRHLR63CI0K3O","","null","<img src=""img/animal4.png"" style=""width:200px; border:14px solid green;"">","null","","","","","",""
"","image-keyboard-response","307","209113","0.0-307.0","3MTMREQS4W40NUGEJOUWLTASB5ZWAP","A1UOGYZFJF4BKW","329E6HTMSWO7MPPIUTRHLR63CI0K3O","","399.79999999701977","img/animal4.png","74","401.09999999403954","1","1","1","1,0.5,0,1,0.5,0,0.5,0,1",""
"","html-keyboard-response","308","209416","0.0-308.0","3MTMREQS4W40NUGEJOUWLTASB5ZWAP","A1UOGYZFJF4BKW","329E6HTMSWO7MPPIUTRHLR63CI0K3O","","null","<img src=""img/animal4.png"" style=""width:200px; border:14px solid green;"">","null","","","","","",""
"","image-keyboard-response","309","209839","0.0-309.0","3MTMREQS4W40NUGEJOUWLTASB5ZWAP","A1UOGYZFJF4BKW","329E6HTMSWO7MPPIUTRHLR63CI0K3O","","421.8999999910593","img/animal1.png","74","423","1","1","2","1,0.5,0,1,0.5,0,0.5,0,1",""
"","html-keyboard-response","310","210156","0.0-310.0","3MTMREQS4W40NUGEJOUWLTASB5ZWAP","A1UOGYZFJF4BKW","329E6HTMSWO7MPPIUTRHLR63CI0K3O","","null","<img src=""img/animal1.png"" style=""width:200px; border:14px solid green;"">","null","","","","","",""
"","image-keyboard-response","311","210490","0.0-311.0","3MTMREQS4W40NUGEJOUWLTASB5ZWAP","A1UOGYZFJF4BKW","329E6HTMSWO7MPPIUTRHLR63CI0K3O","","332.20000000298023","img/animal1.png","74","333.29999999701977","1","1","2","1,0.5,0,1,0.5,0,0.5,0,1",""
"","html-keyboard-response","312","210792","0.0-312.0","3MTMREQS4W40NUGEJOUWLTASB5ZWAP","A1UOGYZFJF4BKW","329E6HTMSWO7MPPIUTRHLR63CI0K3O","","null","<img src=""img/animal1.png"" style=""width:200px; border:14px solid green;"">","null","","","","","",""
"","image-keyboard-response","313","211266","0.0-313.0","3MTMREQS4W40NUGEJOUWLTASB5ZWAP","A1UOGYZFJF4BKW","329E6HTMSWO7MPPIUTRHLR63CI0K3O","","473","img/animal3.png","76","474","3","1","3","1,0.5,0,1,0.5,0,0.5,0,1",""
"","html-keyboard-response","314","211570","0.0-314.0","3MTMREQS4W40NUGEJOUWLTASB5ZWAP","A1UOGYZFJF4BKW","329E6HTMSWO7MPPIUTRHLR63CI0K3O","","null","<img src=""img/animal3.png"" style=""width:200px; border:14px solid green;"">","null","","","","","",""
"","image-keyboard-response","315","212070","0.0-315.0","3MTMREQS4W40NUGEJOUWLTASB5ZWAP","A1UOGYZFJF4BKW","329E6HTMSWO7MPPIUTRHLR63CI0K3O","","498.29999999701977","img/animal4.png","74","499.5","1","1","1","1,0.5,0,1,0.5,0,0.5,0,1",""
"","html-keyboard-response","316","212372","0.0-316.0","3MTMREQS4W40NUGEJOUWLTASB5ZWAP","A1UOGYZFJF4BKW","329E6HTMSWO7MPPIUTRHLR63CI0K3O","","null","<img src=""img/animal4.png"" style=""width:200px; border:14px solid green;"">","null","","","","","",""
"","image-keyboard-response","317","212818","0.0-317.0","3MTMREQS4W40NUGEJOUWLTASB5ZWAP","A1UOGYZFJF4BKW","329E6HTMSWO7MPPIUTRHLR63CI0K3O","","445.09999999403954","img/animal4.png","74","446.1000000089407","1","1","1","1,0.5,0,1,0.5,0,0.5,0,1",""
"","html-keyboard-response","318","213120","0.0-318.0","3MTMREQS4W40NUGEJOUWLTASB5ZWAP","A1UOGYZFJF4BKW","329E6HTMSWO7MPPIUTRHLR63CI0K3O","","null","<img src=""img/animal4.png"" style=""width:200px; border:14px solid green;"">","null","","","","","",""
"","image-keyboard-response","319","213718","0.0-319.0","3MTMREQS4W40NUGEJOUWLTASB5ZWAP","A1UOGYZFJF4BKW","329E6HTMSWO7MPPIUTRHLR63CI0K3O","","596.5","img/animal1.png","74","597.8999999910593","1","1","2","1,0.5,0,1,0.5,0,0.5,0,1",""
"","html-keyboard-response","320","214021","0.0-320.0","3MTMREQS4W40NUGEJOUWLTASB5ZWAP","A1UOGYZFJF4BKW","329E6HTMSWO7MPPIUTRHLR63CI0K3O","","null","<img src=""img/animal1.png"" style=""width:200px; border:14px solid green;"">","null","","","","","",""
"","image-keyboard-response","321","214478","0.0-321.0","3MTMREQS4W40NUGEJOUWLTASB5ZWAP","A1UOGYZFJF4BKW","329E6HTMSWO7MPPIUTRHLR63CI0K3O","","455.5","img/animal4.png","74","456.70000000298023","1","1","1","1,0.5,0,1,0.5,0,0.5,0,1",""
"","html-keyboard-response","322","214780","0.0-322.0","3MTMREQS4W40NUGEJOUWLTASB5ZWAP","A1UOGYZFJF4BKW","329E6HTMSWO7MPPIUTRHLR63CI0K3O","","null","<img src=""img/animal4.png"" style=""width:200px; border:14px solid green;"">","null","","","","","",""
"","image-keyboard-response","323","215258","0.0-323.0","3MTMREQS4W40NUGEJOUWLTASB5ZWAP","A1UOGYZFJF4BKW","329E6HTMSWO7MPPIUTRHLR63CI0K3O","","476.79999999701977","img/animal1.png","74","477.90000000596046","1","1","2","1,0.5,0,1,0.5,0,0.5,0,1",""
"","html-keyboard-response","324","215561","0.0-324.0","3MTMREQS4W40NUGEJOUWLTASB5ZWAP","A1UOGYZFJF4BKW","329E6HTMSWO7MPPIUTRHLR63CI0K3O","","null","<img src=""img/animal1.png"" style=""width:200px; border:14px solid green;"">","null","","","","","",""
"","image-keyboard-response","325","215961","0.0-325.0","3MTMREQS4W40NUGEJOUWLTASB5ZWAP","A1UOGYZFJF4BKW","329E6HTMSWO7MPPIUTRHLR63CI0K3O","","398.70000000298023","img/animal1.png","74","400","1","1","2","1,0.5,0,1,0.5,0,0.5,0,1",""
"","html-keyboard-response","326","216263","0.0-326.0","3MTMREQS4W40NUGEJOUWLTASB5ZWAP","A1UOGYZFJF4BKW","329E6HTMSWO7MPPIUTRHLR63CI0K3O","","null","<img src=""img/animal1.png"" style=""width:200px; border:14px solid green;"">","null","","","","","",""
"","image-keyboard-response","327","216613","0.0-327.0","3MTMREQS4W40NUGEJOUWLTASB5ZWAP","A1UOGYZFJF4BKW","329E6HTMSWO7MPPIUTRHLR63CI0K3O","","348.59999999403954","img/animal1.png","74","349.90000000596046","1","1","2","1,0.5,0,1,0.5,0,0.5,0,1",""
"","html-keyboard-response","328","216916","0.0-328.0","3MTMREQS4W40NUGEJOUWLTASB5ZWAP","A1UOGYZFJF4BKW","329E6HTMSWO7MPPIUTRHLR63CI0K3O","","null","<img src=""img/animal1.png"" style=""width:200px; border:14px solid green;"">","null","","","","","",""
"","image-keyboard-response","329","217349","0.0-329.0","3MTMREQS4W40NUGEJOUWLTASB5ZWAP","A1UOGYZFJF4BKW","329E6HTMSWO7MPPIUTRHLR63CI0K3O","","431.40000000596046","img/animal4.png","74","432.70000000298023","1","1","1","1,0.5,0,1,0.5,0,0.5,0,1",""
"","html-keyboard-response","330","217650","0.0-330.0","3MTMREQS4W40NUGEJOUWLTASB5ZWAP","A1UOGYZFJF4BKW","329E6HTMSWO7MPPIUTRHLR63CI0K3O","","null","<img src=""img/animal4.png"" style=""width:200px; border:14px solid green;"">","null","","","","","",""
"","image-keyboard-response","331","218074","0.0-331.0","3MTMREQS4W40NUGEJOUWLTASB5ZWAP","A1UOGYZFJF4BKW","329E6HTMSWO7MPPIUTRHLR63CI0K3O","","422.70000000298023","img/animal1.png","74","423.8999999910593","1","1","2","1,0.5,0,1,0.5,0,0.5,0,1",""
"","html-keyboard-response","332","218376","0.0-332.0","3MTMREQS4W40NUGEJOUWLTASB5ZWAP","A1UOGYZFJF4BKW","329E6HTMSWO7MPPIUTRHLR63CI0K3O","","null","<img src=""img/animal1.png"" style=""width:200px; border:14px solid green;"">","null","","","","","",""
"","image-keyboard-response","333","218817","0.0-333.0","3MTMREQS4W40NUGEJOUWLTASB5ZWAP","A1UOGYZFJF4BKW","329E6HTMSWO7MPPIUTRHLR63CI0K3O","","439.79999999701977","img/animal4.png","74","440.90000000596046","1","1","1","1,0.5,0,1,0.5,0,0.5,0,1",""
"","html-keyboard-response","334","219119","0.0-334.0","3MTMREQS4W40NUGEJOUWLTASB5ZWAP","A1UOGYZFJF4BKW","329E6HTMSWO7MPPIUTRHLR63CI0K3O","","null","<img src=""img/animal4.png"" style=""width:200px; border:14px solid green;"">","null","","","","","",""
"","image-keyboard-response","335","219630","0.0-335.0","3MTMREQS4W40NUGEJOUWLTASB5ZWAP","A1UOGYZFJF4BKW","329E6HTMSWO7MPPIUTRHLR63CI0K3O","","508.79999999701977","img/animal3.png","76","509.90000000596046","3","1","3","1,0.5,0,1,0.5,0,0.5,0,1",""
"","html-keyboard-response","336","219932","0.0-336.0","3MTMREQS4W40NUGEJOUWLTASB5ZWAP","A1UOGYZFJF4BKW","329E6HTMSWO7MPPIUTRHLR63CI0K3O","","null","<img src=""img/animal3.png"" style=""width:200px; border:14px solid green;"">","null","","","","","",""
"","image-keyboard-response","337","220441","0.0-337.0","3MTMREQS4W40NUGEJOUWLTASB5ZWAP","A1UOGYZFJF4BKW","329E6HTMSWO7MPPIUTRHLR63CI0K3O","","507.90000000596046","img/animal1.png","74","509.09999999403954","1","1","2","1,0.5,0,1,0.5,0,0.5,0,1",""
"","html-keyboard-response","338","220743","0.0-338.0","3MTMREQS4W40NUGEJOUWLTASB5ZWAP","A1UOGYZFJF4BKW","329E6HTMSWO7MPPIUTRHLR63CI0K3O","","null","<img src=""img/animal1.png"" style=""width:200px; border:14px solid green;"">","null","","","","","",""
"","image-keyboard-response","339","221205","0.0-339.0","3MTMREQS4W40NUGEJOUWLTASB5ZWAP","A1UOGYZFJF4BKW","329E6HTMSWO7MPPIUTRHLR63CI0K3O","","460.70000000298023","img/animal1.png","74","462","1","1","2","1,0.5,0,1,0.5,0,0.5,0,1",""
"","html-keyboard-response","340","221508","0.0-340.0","3MTMREQS4W40NUGEJOUWLTASB5ZWAP","A1UOGYZFJF4BKW","329E6HTMSWO7MPPIUTRHLR63CI0K3O","","null","<img src=""img/animal1.png"" style=""width:200px; border:14px solid green;"">","null","","","","","",""
"","image-keyboard-response","341","222001","0.0-341.0","3MTMREQS4W40NUGEJOUWLTASB5ZWAP","A1UOGYZFJF4BKW","329E6HTMSWO7MPPIUTRHLR63CI0K3O","","491.90000000596046","img/animal3.png","76","493.1000000089407","3","1","3","1,0.5,0,1,0.5,0,0.5,0,1",""
"","html-keyboard-response","342","222303","0.0-342.0","3MTMREQS4W40NUGEJOUWLTASB5ZWAP","A1UOGYZFJF4BKW","329E6HTMSWO7MPPIUTRHLR63CI0K3O","","null","<img src=""img/animal3.png"" style=""width:200px; border:14px solid green;"">","null","","","","","",""
"","image-keyboard-response","343","222736","0.0-343.0","3MTMREQS4W40NUGEJOUWLTASB5ZWAP","A1UOGYZFJF4BKW","329E6HTMSWO7MPPIUTRHLR63CI0K3O","","431.20000000298023","img/animal1.png","74","432.29999999701977","1","1","2","1,0.5,0,1,0.5,0,0.5,0,1",""
"","html-keyboard-response","344","223038","0.0-344.0","3MTMREQS4W40NUGEJOUWLTASB5ZWAP","A1UOGYZFJF4BKW","329E6HTMSWO7MPPIUTRHLR63CI0K3O","","null","<img src=""img/animal1.png"" style=""width:200px; border:14px solid green;"">","null","","","","","",""
"","image-keyboard-response","345","223436","0.0-345.0","3MTMREQS4W40NUGEJOUWLTASB5ZWAP","A1UOGYZFJF4BKW","329E6HTMSWO7MPPIUTRHLR63CI0K3O","","397.40000000596046","img/animal1.png","74","398.5","1","1","2","1,0.5,0,1,0.5,0,0.5,0,1",""
"","html-keyboard-response","346","223740","0.0-346.0","3MTMREQS4W40NUGEJOUWLTASB5ZWAP","A1UOGYZFJF4BKW","329E6HTMSWO7MPPIUTRHLR63CI0K3O","","null","<img src=""img/animal1.png"" style=""width:200px; border:14px solid green;"">","null","","","","","",""
"","image-keyboard-response","347","224074","0.0-347.0","3MTMREQS4W40NUGEJOUWLTASB5ZWAP","A1UOGYZFJF4BKW","329E6HTMSWO7MPPIUTRHLR63CI0K3O","","333.40000000596046","img/animal1.png","74","334.59999999403954","1","1","2","1,0.5,0,1,0.5,0,0.5,0,1",""
"","html-keyboard-response","348","224387","0.0-348.0","3MTMREQS4W40NUGEJOUWLTASB5ZWAP","A1UOGYZFJF4BKW","329E6HTMSWO7MPPIUTRHLR63CI0K3O","","null","<img src=""img/animal1.png"" style=""width:200px; border:14px solid green;"">","null","","","","","",""
"","image-keyboard-response","349","224802","0.0-349.0","3MTMREQS4W40NUGEJOUWLTASB5ZWAP","A1UOGYZFJF4BKW","329E6HTMSWO7MPPIUTRHLR63CI0K3O","","414","img/animal3.png","76","415.20000000298023","3","1","3","1,0.5,0,1,0.5,0,0.5,0,1",""
"","html-keyboard-response","350","225105","0.0-350.0","3MTMREQS4W40NUGEJOUWLTASB5ZWAP","A1UOGYZFJF4BKW","329E6HTMSWO7MPPIUTRHLR63CI0K3O","","null","<img src=""img/animal3.png"" style=""width:200px; border:14px solid green;"">","null","","","","","",""
"","image-keyboard-response","351","225568","0.0-351.0","3MTMREQS4W40NUGEJOUWLTASB5ZWAP","A1UOGYZFJF4BKW","329E6HTMSWO7MPPIUTRHLR63CI0K3O","","461.5","img/animal1.png","74","462.69999998807907","1","1","2","1,0.5,0,1,0.5,0,0.5,0,1",""
"","html-keyboard-response","352","225870","0.0-352.0","3MTMREQS4W40NUGEJOUWLTASB5ZWAP","A1UOGYZFJF4BKW","329E6HTMSWO7MPPIUTRHLR63CI0K3O","","null","<img src=""img/animal1.png"" style=""width:200px; border:14px solid green;"">","null","","","","","",""
"","image-keyboard-response","353","226367","0.0-353.0","3MTMREQS4W40NUGEJOUWLTASB5ZWAP","A1UOGYZFJF4BKW","329E6HTMSWO7MPPIUTRHLR63CI0K3O","","496.3999999910593","img/animal4.png","74","497.5","1","1","1","1,0.5,0,1,0.5,0,0.5,0,1",""
"","html-keyboard-response","354","226670","0.0-354.0","3MTMREQS4W40NUGEJOUWLTASB5ZWAP","A1UOGYZFJF4BKW","329E6HTMSWO7MPPIUTRHLR63CI0K3O","","null","<img src=""img/animal4.png"" style=""width:200px; border:14px solid green;"">","null","","","","","",""
"","image-keyboard-response","355","227011","0.0-355.0","3MTMREQS4W40NUGEJOUWLTASB5ZWAP","A1UOGYZFJF4BKW","329E6HTMSWO7MPPIUTRHLR63CI0K3O","","340.1000000089407","img/animal4.png","74","341","1","1","1","1,0.5,0,1,0.5,0,0.5,0,1",""
"","html-keyboard-response","356","227314","0.0-356.0","3MTMREQS4W40NUGEJOUWLTASB5ZWAP","A1UOGYZFJF4BKW","329E6HTMSWO7MPPIUTRHLR63CI0K3O","","null","<img src=""img/animal4.png"" style=""width:200px; border:14px solid green;"">","null","","","","","",""
"","image-keyboard-response","357","227668","0.0-357.0","3MTMREQS4W40NUGEJOUWLTASB5ZWAP","A1UOGYZFJF4BKW","329E6HTMSWO7MPPIUTRHLR63CI0K3O","","352.40000000596046","img/animal4.png","74","353.59999999403954","1","1","1","1,0.5,0,1,0.5,0,0.5,0,1",""
"","html-keyboard-response","358","227969","0.0-358.0","3MTMREQS4W40NUGEJOUWLTASB5ZWAP","A1UOGYZFJF4BKW","329E6HTMSWO7MPPIUTRHLR63CI0K3O","","null","<img src=""img/animal4.png"" style=""width:200px; border:14px solid green;"">","null","","","","","",""
"","image-keyboard-response","359","228317","0.0-359.0","3MTMREQS4W40NUGEJOUWLTASB5ZWAP","A1UOGYZFJF4BKW","329E6HTMSWO7MPPIUTRHLR63CI0K3O","","345.79999999701977","img/animal4.png","74","346.8999999910593","1","1","1","1,0.5,0,1,0.5,0,0.5,0,1",""
"","html-keyboard-response","360","228618","0.0-360.0","3MTMREQS4W40NUGEJOUWLTASB5ZWAP","A1UOGYZFJF4BKW","329E6HTMSWO7MPPIUTRHLR63CI0K3O","","null","<img src=""img/animal4.png"" style=""width:200px; border:14px solid green;"">","null","","","","","",""
"","image-keyboard-response","361","228948","0.0-361.0","3MTMREQS4W40NUGEJOUWLTASB5ZWAP","A1UOGYZFJF4BKW","329E6HTMSWO7MPPIUTRHLR63CI0K3O","","328.20000000298023","img/animal4.png","74","329.5","1","1","1","1,0.5,0,1,0.5,0,0.5,0,1",""
"","html-keyboard-response","362","229252","0.0-362.0","3MTMREQS4W40NUGEJOUWLTASB5ZWAP","A1UOGYZFJF4BKW","329E6HTMSWO7MPPIUTRHLR63CI0K3O","","null","<img src=""img/animal4.png"" style=""width:200px; border:14px solid green;"">","null","","","","","",""
"","instructions","363","233631","0.0-363.0","3MTMREQS4W40NUGEJOUWLTASB5ZWAP","A1UOGYZFJF4BKW","329E6HTMSWO7MPPIUTRHLR63CI0K3O","[{""page_index"":0,""viewing_time"":4378}]","4378.4000000059605","","","","","","","",""
"","survey-text","364","238695","0.0-364.0","3MTMREQS4W40NUGEJOUWLTASB5ZWAP","A1UOGYZFJF4BKW","329E6HTMSWO7MPPIUTRHLR63CI0K3O","","5060.79999999702","","","","","","","","{""Q0"":""A1UOGYZFJF4BKW""}"
