"success","trial_type","trial_index","time_elapsed","internal_node_id","assignmentID","mturkID","hitID","view_history","rt","stimulus","key_press","reactionTime","a","r","s","reward_cond","responses"
"true","fullscreen","0","3185","0.0-0.0","36WLNQG780WBP4ZF420MUYNYLZWBEV","A1XODDMY1SJ0H9","3A3KKYU7P33Z3BR9PPFZ5194ZCQMWU","","","","","","","","","",""
"","instructions","1","35499","0.0-1.0","36WLNQG780WBP4ZF420MUYNYLZWBEV","A1XODDMY1SJ0H9","3A3KKYU7P33Z3BR9PPFZ5194ZCQMWU","[{""page_index"":0,""viewing_time"":2762},{""page_index"":1,""viewing_time"":3392},{""page_index"":2,""viewing_time"":1143},{""page_index"":3,""viewing_time"":7561},{""page_index"":4,""viewing_time"":11448},{""page_index"":5,""viewing_time"":2336},{""page_index"":6,""viewing_time"":1585},{""page_index"":7,""viewing_time"":2081}]","32310","","","","","","","",""
"","image-keyboard-response","2","40410","0.0-2.0","36WLNQG780WBP4ZF420MUYNYLZWBEV","A1XODDMY1SJ0H9","3A3KKYU7P33Z3BR9PPFZ5194ZCQMWU","","4904","img/animal1.png","74","4910","1","1","1","1,0.5,0,1,0,0.5,0.5,0,1",""
"","html-keyboard-response","3","40722","0.0-3.0","36WLNQG780WBP4ZF420MUYNYLZWBEV","A1XODDMY1SJ0H9","3A3KKYU7P33Z3BR9PPFZ5194ZCQMWU","","null","<img src=""img/animal1.png"" style=""width:200px; border:14px solid green;"">","null","","","","","",""
"","image-keyboard-response","4","42103","0.0-4.0","36WLNQG780WBP4ZF420MUYNYLZWBEV","A1XODDMY1SJ0H9","3A3KKYU7P33Z3BR9PPFZ5194ZCQMWU","","1377","img/animal1.png","74","1378","1","1","1","1,0.5,0,1,0,0.5,0.5,0,1",""
"","html-keyboard-response","5","42411","0.0-5.0","36WLNQG780WBP4ZF420MUYNYLZWBEV","A1XODDMY1SJ0H9","3A3KKYU7P33Z3BR9PPFZ5194ZCQMWU","","null","<img src=""img/animal1.png"" style=""width:200px; border:14px solid green;"">","null","","","","","",""
"","image-keyboard-response","6","43140","0.0-6.0","36WLNQG780WBP4ZF420MUYNYLZWBEV","A1XODDMY1SJ0H9","3A3KKYU7P33Z3BR9PPFZ5194ZCQMWU","","726","img/animal1.png","75","728","2","0","1","1,0.5,0,1,0,0.5,0.5,0,1",""
"","html-keyboard-response","7","43455","0.0-7.0","36WLNQG780WBP4ZF420MUYNYLZWBEV","A1XODDMY1SJ0H9","3A3KKYU7P33Z3BR9PPFZ5194ZCQMWU","","null","<img src=""img/animal1.png"" style=""width:200px;border:14px solid red;"">","null","","","","","",""
"","image-keyboard-response","8","44263","0.0-8.0","36WLNQG780WBP4ZF420MUYNYLZWBEV","A1XODDMY1SJ0H9","3A3KKYU7P33Z3BR9PPFZ5194ZCQMWU","","805","img/animal4.png","76","807","3","0","2","1,0.5,0,1,0,0.5,0.5,0,1",""
"","html-keyboard-response","9","44575","0.0-9.0","36WLNQG780WBP4ZF420MUYNYLZWBEV","A1XODDMY1SJ0H9","3A3KKYU7P33Z3BR9PPFZ5194ZCQMWU","","null","<img src=""img/animal4.png"" style=""width:200px;border:14px solid red;"">","null","","","","","",""
"","image-keyboard-response","10","45332","0.0-10.0","36WLNQG780WBP4ZF420MUYNYLZWBEV","A1XODDMY1SJ0H9","3A3KKYU7P33Z3BR9PPFZ5194ZCQMWU","","756","img/animal4.png","74","757","1","1","2","1,0.5,0,1,0,0.5,0.5,0,1",""
"","html-keyboard-response","11","45641","0.0-11.0","36WLNQG780WBP4ZF420MUYNYLZWBEV","A1XODDMY1SJ0H9","3A3KKYU7P33Z3BR9PPFZ5194ZCQMWU","","null","<img src=""img/animal4.png"" style=""width:200px; border:14px solid green;"">","null","","","","","",""
"","image-keyboard-response","12","46732","0.0-12.0","36WLNQG780WBP4ZF420MUYNYLZWBEV","A1XODDMY1SJ0H9","3A3KKYU7P33Z3BR9PPFZ5194ZCQMWU","","1089","img/animal4.png","74","1091","1","1","2","1,0.5,0,1,0,0.5,0.5,0,1",""
"","html-keyboard-response","13","47044","0.0-13.0","36WLNQG780WBP4ZF420MUYNYLZWBEV","A1XODDMY1SJ0H9","3A3KKYU7P33Z3BR9PPFZ5194ZCQMWU","","null","<img src=""img/animal4.png"" style=""width:200px; border:14px solid green;"">","null","","","","","",""
"","image-keyboard-response","14","48098","0.0-14.0","36WLNQG780WBP4ZF420MUYNYLZWBEV","A1XODDMY1SJ0H9","3A3KKYU7P33Z3BR9PPFZ5194ZCQMWU","","1047","img/animal3.png","74","1050","1","0","3","1,0.5,0,1,0,0.5,0.5,0,1",""
"","html-keyboard-response","15","48409","0.0-15.0","36WLNQG780WBP4ZF420MUYNYLZWBEV","A1XODDMY1SJ0H9","3A3KKYU7P33Z3BR9PPFZ5194ZCQMWU","","null","<img src=""img/animal3.png"" style=""width:200px;border:14px solid red;"">","null","","","","","",""
"","image-keyboard-response","16","49387","0.0-16.0","36WLNQG780WBP4ZF420MUYNYLZWBEV","A1XODDMY1SJ0H9","3A3KKYU7P33Z3BR9PPFZ5194ZCQMWU","","976","img/animal4.png","74","979","1","1","2","1,0.5,0,1,0,0.5,0.5,0,1",""
"","html-keyboard-response","17","49697","0.0-17.0","36WLNQG780WBP4ZF420MUYNYLZWBEV","A1XODDMY1SJ0H9","3A3KKYU7P33Z3BR9PPFZ5194ZCQMWU","","null","<img src=""img/animal4.png"" style=""width:200px; border:14px solid green;"">","null","","","","","",""
"","image-keyboard-response","18","50758","0.0-18.0","36WLNQG780WBP4ZF420MUYNYLZWBEV","A1XODDMY1SJ0H9","3A3KKYU7P33Z3BR9PPFZ5194ZCQMWU","","1057","img/animal1.png","74","1060","1","1","1","1,0.5,0,1,0,0.5,0.5,0,1",""
"","html-keyboard-response","19","51064","0.0-19.0","36WLNQG780WBP4ZF420MUYNYLZWBEV","A1XODDMY1SJ0H9","3A3KKYU7P33Z3BR9PPFZ5194ZCQMWU","","null","<img src=""img/animal1.png"" style=""width:200px; border:14px solid green;"">","null","","","","","",""
"","image-keyboard-response","20","51978","0.0-20.0","36WLNQG780WBP4ZF420MUYNYLZWBEV","A1XODDMY1SJ0H9","3A3KKYU7P33Z3BR9PPFZ5194ZCQMWU","","911","img/animal1.png","74","913","1","1","1","1,0.5,0,1,0,0.5,0.5,0,1",""
"","html-keyboard-response","21","52284","0.0-21.0","36WLNQG780WBP4ZF420MUYNYLZWBEV","A1XODDMY1SJ0H9","3A3KKYU7P33Z3BR9PPFZ5194ZCQMWU","","null","<img src=""img/animal1.png"" style=""width:200px; border:14px solid green;"">","null","","","","","",""
"","image-keyboard-response","22","52996","0.0-22.0","36WLNQG780WBP4ZF420MUYNYLZWBEV","A1XODDMY1SJ0H9","3A3KKYU7P33Z3BR9PPFZ5194ZCQMWU","","711","img/animal1.png","74","712","1","1","1","1,0.5,0,1,0,0.5,0.5,0,1",""
"","html-keyboard-response","23","53305","0.0-23.0","36WLNQG780WBP4ZF420MUYNYLZWBEV","A1XODDMY1SJ0H9","3A3KKYU7P33Z3BR9PPFZ5194ZCQMWU","","null","<img src=""img/animal1.png"" style=""width:200px; border:14px solid green;"">","null","","","","","",""
"","image-keyboard-response","24","54729","0.0-24.0","36WLNQG780WBP4ZF420MUYNYLZWBEV","A1XODDMY1SJ0H9","3A3KKYU7P33Z3BR9PPFZ5194ZCQMWU","","1422","img/animal3.png","75","1423","2","0","3","1,0.5,0,1,0,0.5,0.5,0,1",""
"","html-keyboard-response","25","55039","0.0-25.0","36WLNQG780WBP4ZF420MUYNYLZWBEV","A1XODDMY1SJ0H9","3A3KKYU7P33Z3BR9PPFZ5194ZCQMWU","","null","<img src=""img/animal3.png"" style=""width:200px;border:14px solid red;"">","null","","","","","",""
"","image-keyboard-response","26","56099","0.0-26.0","36WLNQG780WBP4ZF420MUYNYLZWBEV","A1XODDMY1SJ0H9","3A3KKYU7P33Z3BR9PPFZ5194ZCQMWU","","1058","img/animal1.png","74","1059","1","1","1","1,0.5,0,1,0,0.5,0.5,0,1",""
"","html-keyboard-response","27","56402","0.0-27.0","36WLNQG780WBP4ZF420MUYNYLZWBEV","A1XODDMY1SJ0H9","3A3KKYU7P33Z3BR9PPFZ5194ZCQMWU","","null","<img src=""img/animal1.png"" style=""width:200px; border:14px solid green;"">","null","","","","","",""
"","image-keyboard-response","28","57315","0.0-28.0","36WLNQG780WBP4ZF420MUYNYLZWBEV","A1XODDMY1SJ0H9","3A3KKYU7P33Z3BR9PPFZ5194ZCQMWU","","910","img/animal4.png","76","912","3","0","2","1,0.5,0,1,0,0.5,0.5,0,1",""
"","html-keyboard-response","29","57626","0.0-29.0","36WLNQG780WBP4ZF420MUYNYLZWBEV","A1XODDMY1SJ0H9","3A3KKYU7P33Z3BR9PPFZ5194ZCQMWU","","null","<img src=""img/animal4.png"" style=""width:200px;border:14px solid red;"">","null","","","","","",""
"","image-keyboard-response","30","58200","0.0-30.0","36WLNQG780WBP4ZF420MUYNYLZWBEV","A1XODDMY1SJ0H9","3A3KKYU7P33Z3BR9PPFZ5194ZCQMWU","","568","img/animal4.png","74","574","1","1","2","1,0.5,0,1,0,0.5,0.5,0,1",""
"","html-keyboard-response","31","58506","0.0-31.0","36WLNQG780WBP4ZF420MUYNYLZWBEV","A1XODDMY1SJ0H9","3A3KKYU7P33Z3BR9PPFZ5194ZCQMWU","","null","<img src=""img/animal4.png"" style=""width:200px; border:14px solid green;"">","null","","","","","",""
"","image-keyboard-response","32","59244","0.0-32.0","36WLNQG780WBP4ZF420MUYNYLZWBEV","A1XODDMY1SJ0H9","3A3KKYU7P33Z3BR9PPFZ5194ZCQMWU","","736","img/animal3.png","76","738","3","1","3","1,0.5,0,1,0,0.5,0.5,0,1",""
"","html-keyboard-response","33","59559","0.0-33.0","36WLNQG780WBP4ZF420MUYNYLZWBEV","A1XODDMY1SJ0H9","3A3KKYU7P33Z3BR9PPFZ5194ZCQMWU","","null","<img src=""img/animal3.png"" style=""width:200px; border:14px solid green;"">","null","","","","","",""
"","image-keyboard-response","34","60307","0.0-34.0","36WLNQG780WBP4ZF420MUYNYLZWBEV","A1XODDMY1SJ0H9","3A3KKYU7P33Z3BR9PPFZ5194ZCQMWU","","746","img/animal3.png","76","747","3","1","3","1,0.5,0,1,0,0.5,0.5,0,1",""
"","html-keyboard-response","35","60617","0.0-35.0","36WLNQG780WBP4ZF420MUYNYLZWBEV","A1XODDMY1SJ0H9","3A3KKYU7P33Z3BR9PPFZ5194ZCQMWU","","null","<img src=""img/animal3.png"" style=""width:200px; border:14px solid green;"">","null","","","","","",""
"","image-keyboard-response","36","62222","0.0-36.0","36WLNQG780WBP4ZF420MUYNYLZWBEV","A1XODDMY1SJ0H9","3A3KKYU7P33Z3BR9PPFZ5194ZCQMWU","","1602","img/animal1.png","74","1604","1","1","1","1,0.5,0,1,0,0.5,0.5,0,1",""
"","html-keyboard-response","37","62532","0.0-37.0","36WLNQG780WBP4ZF420MUYNYLZWBEV","A1XODDMY1SJ0H9","3A3KKYU7P33Z3BR9PPFZ5194ZCQMWU","","null","<img src=""img/animal1.png"" style=""width:200px; border:14px solid green;"">","null","","","","","",""
"","image-keyboard-response","38","63502","0.0-38.0","36WLNQG780WBP4ZF420MUYNYLZWBEV","A1XODDMY1SJ0H9","3A3KKYU7P33Z3BR9PPFZ5194ZCQMWU","","967","img/animal1.png","74","969","1","1","1","1,0.5,0,1,0,0.5,0.5,0,1",""
"","html-keyboard-response","39","63809","0.0-39.0","36WLNQG780WBP4ZF420MUYNYLZWBEV","A1XODDMY1SJ0H9","3A3KKYU7P33Z3BR9PPFZ5194ZCQMWU","","null","<img src=""img/animal1.png"" style=""width:200px; border:14px solid green;"">","null","","","","","",""
"","image-keyboard-response","40","64668","0.0-40.0","36WLNQG780WBP4ZF420MUYNYLZWBEV","A1XODDMY1SJ0H9","3A3KKYU7P33Z3BR9PPFZ5194ZCQMWU","","856","img/animal3.png","76","858","3","1","3","1,0.5,0,1,0,0.5,0.5,0,1",""
"","html-keyboard-response","41","64976","0.0-41.0","36WLNQG780WBP4ZF420MUYNYLZWBEV","A1XODDMY1SJ0H9","3A3KKYU7P33Z3BR9PPFZ5194ZCQMWU","","null","<img src=""img/animal3.png"" style=""width:200px; border:14px solid green;"">","null","","","","","",""
"","image-keyboard-response","42","66197","0.0-42.0","36WLNQG780WBP4ZF420MUYNYLZWBEV","A1XODDMY1SJ0H9","3A3KKYU7P33Z3BR9PPFZ5194ZCQMWU","","1220","img/animal4.png","74","1221","1","1","2","1,0.5,0,1,0,0.5,0.5,0,1",""
"","html-keyboard-response","43","66503","0.0-43.0","36WLNQG780WBP4ZF420MUYNYLZWBEV","A1XODDMY1SJ0H9","3A3KKYU7P33Z3BR9PPFZ5194ZCQMWU","","null","<img src=""img/animal4.png"" style=""width:200px; border:14px solid green;"">","null","","","","","",""
"","image-keyboard-response","44","68231","0.0-44.0","36WLNQG780WBP4ZF420MUYNYLZWBEV","A1XODDMY1SJ0H9","3A3KKYU7P33Z3BR9PPFZ5194ZCQMWU","","1727","img/animal4.png","74","1727","1","1","2","1,0.5,0,1,0,0.5,0.5,0,1",""
"","html-keyboard-response","45","68538","0.0-45.0","36WLNQG780WBP4ZF420MUYNYLZWBEV","A1XODDMY1SJ0H9","3A3KKYU7P33Z3BR9PPFZ5194ZCQMWU","","null","<img src=""img/animal4.png"" style=""width:200px; border:14px solid green;"">","null","","","","","",""
"","image-keyboard-response","46","69450","0.0-46.0","36WLNQG780WBP4ZF420MUYNYLZWBEV","A1XODDMY1SJ0H9","3A3KKYU7P33Z3BR9PPFZ5194ZCQMWU","","911","img/animal3.png","76","912","3","1","3","1,0.5,0,1,0,0.5,0.5,0,1",""
"","html-keyboard-response","47","69761","0.0-47.0","36WLNQG780WBP4ZF420MUYNYLZWBEV","A1XODDMY1SJ0H9","3A3KKYU7P33Z3BR9PPFZ5194ZCQMWU","","null","<img src=""img/animal3.png"" style=""width:200px; border:14px solid green;"">","null","","","","","",""
"","image-keyboard-response","48","70654","0.0-48.0","36WLNQG780WBP4ZF420MUYNYLZWBEV","A1XODDMY1SJ0H9","3A3KKYU7P33Z3BR9PPFZ5194ZCQMWU","","890","img/animal1.png","74","893","1","1","1","1,0.5,0,1,0,0.5,0.5,0,1",""
"","html-keyboard-response","49","70963","0.0-49.0","36WLNQG780WBP4ZF420MUYNYLZWBEV","A1XODDMY1SJ0H9","3A3KKYU7P33Z3BR9PPFZ5194ZCQMWU","","null","<img src=""img/animal1.png"" style=""width:200px; border:14px solid green;"">","null","","","","","",""
"","image-keyboard-response","50","71703","0.0-50.0","36WLNQG780WBP4ZF420MUYNYLZWBEV","A1XODDMY1SJ0H9","3A3KKYU7P33Z3BR9PPFZ5194ZCQMWU","","736","img/animal3.png","76","739","3","1","3","1,0.5,0,1,0,0.5,0.5,0,1",""
"","html-keyboard-response","51","72013","0.0-51.0","36WLNQG780WBP4ZF420MUYNYLZWBEV","A1XODDMY1SJ0H9","3A3KKYU7P33Z3BR9PPFZ5194ZCQMWU","","null","<img src=""img/animal3.png"" style=""width:200px; border:14px solid green;"">","null","","","","","",""
"","image-keyboard-response","52","73457","0.0-52.0","36WLNQG780WBP4ZF420MUYNYLZWBEV","A1XODDMY1SJ0H9","3A3KKYU7P33Z3BR9PPFZ5194ZCQMWU","","1441","img/animal4.png","74","1443","1","1","2","1,0.5,0,1,0,0.5,0.5,0,1",""
"","html-keyboard-response","53","73763","0.0-53.0","36WLNQG780WBP4ZF420MUYNYLZWBEV","A1XODDMY1SJ0H9","3A3KKYU7P33Z3BR9PPFZ5194ZCQMWU","","null","<img src=""img/animal4.png"" style=""width:200px; border:14px solid green;"">","null","","","","","",""
"","image-keyboard-response","54","76209","0.0-54.0","36WLNQG780WBP4ZF420MUYNYLZWBEV","A1XODDMY1SJ0H9","3A3KKYU7P33Z3BR9PPFZ5194ZCQMWU","","2444","img/animal3.png","76","2446","3","1","3","1,0.5,0,1,0,0.5,0.5,0,1",""
"","html-keyboard-response","55","76518","0.0-55.0","36WLNQG780WBP4ZF420MUYNYLZWBEV","A1XODDMY1SJ0H9","3A3KKYU7P33Z3BR9PPFZ5194ZCQMWU","","null","<img src=""img/animal3.png"" style=""width:200px; border:14px solid green;"">","null","","","","","",""
"","image-keyboard-response","56","78659","0.0-56.0","36WLNQG780WBP4ZF420MUYNYLZWBEV","A1XODDMY1SJ0H9","3A3KKYU7P33Z3BR9PPFZ5194ZCQMWU","","2140","img/animal4.png","74","2142","1","1","2","1,0.5,0,1,0,0.5,0.5,0,1",""
"","html-keyboard-response","57","78969","0.0-57.0","36WLNQG780WBP4ZF420MUYNYLZWBEV","A1XODDMY1SJ0H9","3A3KKYU7P33Z3BR9PPFZ5194ZCQMWU","","null","<img src=""img/animal4.png"" style=""width:200px; border:14px solid green;"">","null","","","","","",""
"","image-keyboard-response","58","79668","0.0-58.0","36WLNQG780WBP4ZF420MUYNYLZWBEV","A1XODDMY1SJ0H9","3A3KKYU7P33Z3BR9PPFZ5194ZCQMWU","","697","img/animal3.png","76","698","3","1","3","1,0.5,0,1,0,0.5,0.5,0,1",""
"","html-keyboard-response","59","79975","0.0-59.0","36WLNQG780WBP4ZF420MUYNYLZWBEV","A1XODDMY1SJ0H9","3A3KKYU7P33Z3BR9PPFZ5194ZCQMWU","","null","<img src=""img/animal3.png"" style=""width:200px; border:14px solid green;"">","null","","","","","",""
"","image-keyboard-response","60","80787","0.0-60.0","36WLNQG780WBP4ZF420MUYNYLZWBEV","A1XODDMY1SJ0H9","3A3KKYU7P33Z3BR9PPFZ5194ZCQMWU","","804","img/animal1.png","74","812","1","1","1","1,0.5,0,1,0,0.5,0.5,0,1",""
"","html-keyboard-response","61","81095","0.0-61.0","36WLNQG780WBP4ZF420MUYNYLZWBEV","A1XODDMY1SJ0H9","3A3KKYU7P33Z3BR9PPFZ5194ZCQMWU","","null","<img src=""img/animal1.png"" style=""width:200px; border:14px solid green;"">","null","","","","","",""
"","image-keyboard-response","62","81722","0.0-62.0","36WLNQG780WBP4ZF420MUYNYLZWBEV","A1XODDMY1SJ0H9","3A3KKYU7P33Z3BR9PPFZ5194ZCQMWU","","623","img/animal1.png","74","625","1","1","1","1,0.5,0,1,0,0.5,0.5,0,1",""
"","html-keyboard-response","63","82028","0.0-63.0","36WLNQG780WBP4ZF420MUYNYLZWBEV","A1XODDMY1SJ0H9","3A3KKYU7P33Z3BR9PPFZ5194ZCQMWU","","null","<img src=""img/animal1.png"" style=""width:200px; border:14px solid green;"">","null","","","","","",""
"","image-keyboard-response","64","82815","0.0-64.0","36WLNQG780WBP4ZF420MUYNYLZWBEV","A1XODDMY1SJ0H9","3A3KKYU7P33Z3BR9PPFZ5194ZCQMWU","","786","img/animal4.png","76","788","3","0","2","1,0.5,0,1,0,0.5,0.5,0,1",""
"","html-keyboard-response","65","83126","0.0-65.0","36WLNQG780WBP4ZF420MUYNYLZWBEV","A1XODDMY1SJ0H9","3A3KKYU7P33Z3BR9PPFZ5194ZCQMWU","","null","<img src=""img/animal4.png"" style=""width:200px;border:14px solid red;"">","null","","","","","",""
"","image-keyboard-response","66","83243","0.0-66.0","36WLNQG780WBP4ZF420MUYNYLZWBEV","A1XODDMY1SJ0H9","3A3KKYU7P33Z3BR9PPFZ5194ZCQMWU","","116","img/animal1.png","74","117","1","1","1","1,0.5,0,1,0,0.5,0.5,0,1",""
"","html-keyboard-response","67","83551","0.0-67.0","36WLNQG780WBP4ZF420MUYNYLZWBEV","A1XODDMY1SJ0H9","3A3KKYU7P33Z3BR9PPFZ5194ZCQMWU","","null","<img src=""img/animal1.png"" style=""width:200px; border:14px solid green;"">","null","","","","","",""
"","image-keyboard-response","68","84477","0.0-68.0","36WLNQG780WBP4ZF420MUYNYLZWBEV","A1XODDMY1SJ0H9","3A3KKYU7P33Z3BR9PPFZ5194ZCQMWU","","925","img/animal3.png","76","926","3","1","3","1,0.5,0,1,0,0.5,0.5,0,1",""
"","html-keyboard-response","69","84787","0.0-69.0","36WLNQG780WBP4ZF420MUYNYLZWBEV","A1XODDMY1SJ0H9","3A3KKYU7P33Z3BR9PPFZ5194ZCQMWU","","null","<img src=""img/animal3.png"" style=""width:200px; border:14px solid green;"">","null","","","","","",""
"","image-keyboard-response","70","85438","0.0-70.0","36WLNQG780WBP4ZF420MUYNYLZWBEV","A1XODDMY1SJ0H9","3A3KKYU7P33Z3BR9PPFZ5194ZCQMWU","","649","img/animal3.png","74","650","1","1","3","1,0.5,0,1,0,0.5,0.5,0,1",""
"","html-keyboard-response","71","85748","0.0-71.0","36WLNQG780WBP4ZF420MUYNYLZWBEV","A1XODDMY1SJ0H9","3A3KKYU7P33Z3BR9PPFZ5194ZCQMWU","","null","<img src=""img/animal3.png"" style=""width:200px; border:14px solid green;"">","null","","","","","",""
"","image-keyboard-response","72","87949","0.0-72.0","36WLNQG780WBP4ZF420MUYNYLZWBEV","A1XODDMY1SJ0H9","3A3KKYU7P33Z3BR9PPFZ5194ZCQMWU","","2199","img/animal1.png","74","2200","1","1","1","1,0.5,0,1,0,0.5,0.5,0,1",""
"","html-keyboard-response","73","88260","0.0-73.0","36WLNQG780WBP4ZF420MUYNYLZWBEV","A1XODDMY1SJ0H9","3A3KKYU7P33Z3BR9PPFZ5194ZCQMWU","","null","<img src=""img/animal1.png"" style=""width:200px; border:14px solid green;"">","null","","","","","",""
"","image-keyboard-response","74","89836","0.0-74.0","36WLNQG780WBP4ZF420MUYNYLZWBEV","A1XODDMY1SJ0H9","3A3KKYU7P33Z3BR9PPFZ5194ZCQMWU","","1574","img/animal4.png","76","1576","3","0","2","1,0.5,0,1,0,0.5,0.5,0,1",""
"","html-keyboard-response","75","90145","0.0-75.0","36WLNQG780WBP4ZF420MUYNYLZWBEV","A1XODDMY1SJ0H9","3A3KKYU7P33Z3BR9PPFZ5194ZCQMWU","","null","<img src=""img/animal4.png"" style=""width:200px;border:14px solid red;"">","null","","","","","",""
"","image-keyboard-response","76","90951","0.0-76.0","36WLNQG780WBP4ZF420MUYNYLZWBEV","A1XODDMY1SJ0H9","3A3KKYU7P33Z3BR9PPFZ5194ZCQMWU","","805","img/animal3.png","74","805","1","0","3","1,0.5,0,1,0,0.5,0.5,0,1",""
"","html-keyboard-response","77","91266","0.0-77.0","36WLNQG780WBP4ZF420MUYNYLZWBEV","A1XODDMY1SJ0H9","3A3KKYU7P33Z3BR9PPFZ5194ZCQMWU","","null","<img src=""img/animal3.png"" style=""width:200px;border:14px solid red;"">","null","","","","","",""
"","image-keyboard-response","78","92524","0.0-78.0","36WLNQG780WBP4ZF420MUYNYLZWBEV","A1XODDMY1SJ0H9","3A3KKYU7P33Z3BR9PPFZ5194ZCQMWU","","1256","img/animal1.png","74","1258","1","1","1","1,0.5,0,1,0,0.5,0.5,0,1",""
"","html-keyboard-response","79","92833","0.0-79.0","36WLNQG780WBP4ZF420MUYNYLZWBEV","A1XODDMY1SJ0H9","3A3KKYU7P33Z3BR9PPFZ5194ZCQMWU","","null","<img src=""img/animal1.png"" style=""width:200px; border:14px solid green;"">","null","","","","","",""
"","image-keyboard-response","80","93730","0.0-80.0","36WLNQG780WBP4ZF420MUYNYLZWBEV","A1XODDMY1SJ0H9","3A3KKYU7P33Z3BR9PPFZ5194ZCQMWU","","895","img/animal3.png","76","896","3","1","3","1,0.5,0,1,0,0.5,0.5,0,1",""
"","html-keyboard-response","81","94034","0.0-81.0","36WLNQG780WBP4ZF420MUYNYLZWBEV","A1XODDMY1SJ0H9","3A3KKYU7P33Z3BR9PPFZ5194ZCQMWU","","null","<img src=""img/animal3.png"" style=""width:200px; border:14px solid green;"">","null","","","","","",""
"","image-keyboard-response","82","94840","0.0-82.0","36WLNQG780WBP4ZF420MUYNYLZWBEV","A1XODDMY1SJ0H9","3A3KKYU7P33Z3BR9PPFZ5194ZCQMWU","","804","img/animal1.png","74","805","1","1","1","1,0.5,0,1,0,0.5,0.5,0,1",""
"","html-keyboard-response","83","95146","0.0-83.0","36WLNQG780WBP4ZF420MUYNYLZWBEV","A1XODDMY1SJ0H9","3A3KKYU7P33Z3BR9PPFZ5194ZCQMWU","","null","<img src=""img/animal1.png"" style=""width:200px; border:14px solid green;"">","null","","","","","",""
"","image-keyboard-response","84","95843","0.0-84.0","36WLNQG780WBP4ZF420MUYNYLZWBEV","A1XODDMY1SJ0H9","3A3KKYU7P33Z3BR9PPFZ5194ZCQMWU","","695","img/animal3.png","76","697","3","1","3","1,0.5,0,1,0,0.5,0.5,0,1",""
"","html-keyboard-response","85","96156","0.0-85.0","36WLNQG780WBP4ZF420MUYNYLZWBEV","A1XODDMY1SJ0H9","3A3KKYU7P33Z3BR9PPFZ5194ZCQMWU","","null","<img src=""img/animal3.png"" style=""width:200px; border:14px solid green;"">","null","","","","","",""
"","image-keyboard-response","86","97007","0.0-86.0","36WLNQG780WBP4ZF420MUYNYLZWBEV","A1XODDMY1SJ0H9","3A3KKYU7P33Z3BR9PPFZ5194ZCQMWU","","850","img/animal3.png","76","850","3","1","3","1,0.5,0,1,0,0.5,0.5,0,1",""
"","html-keyboard-response","87","97315","0.0-87.0","36WLNQG780WBP4ZF420MUYNYLZWBEV","A1XODDMY1SJ0H9","3A3KKYU7P33Z3BR9PPFZ5194ZCQMWU","","null","<img src=""img/animal3.png"" style=""width:200px; border:14px solid green;"">","null","","","","","",""
"","image-keyboard-response","88","98075","0.0-88.0","36WLNQG780WBP4ZF420MUYNYLZWBEV","A1XODDMY1SJ0H9","3A3KKYU7P33Z3BR9PPFZ5194ZCQMWU","","758","img/animal4.png","74","760","1","1","2","1,0.5,0,1,0,0.5,0.5,0,1",""
"","html-keyboard-response","89","98379","0.0-89.0","36WLNQG780WBP4ZF420MUYNYLZWBEV","A1XODDMY1SJ0H9","3A3KKYU7P33Z3BR9PPFZ5194ZCQMWU","","null","<img src=""img/animal4.png"" style=""width:200px; border:14px solid green;"">","null","","","","","",""
"","image-keyboard-response","90","99288","0.0-90.0","36WLNQG780WBP4ZF420MUYNYLZWBEV","A1XODDMY1SJ0H9","3A3KKYU7P33Z3BR9PPFZ5194ZCQMWU","","907","img/animal3.png","76","908","3","1","3","1,0.5,0,1,0,0.5,0.5,0,1",""
"","html-keyboard-response","91","99598","0.0-91.0","36WLNQG780WBP4ZF420MUYNYLZWBEV","A1XODDMY1SJ0H9","3A3KKYU7P33Z3BR9PPFZ5194ZCQMWU","","null","<img src=""img/animal3.png"" style=""width:200px; border:14px solid green;"">","null","","","","","",""
"","image-keyboard-response","92","100453","0.0-92.0","36WLNQG780WBP4ZF420MUYNYLZWBEV","A1XODDMY1SJ0H9","3A3KKYU7P33Z3BR9PPFZ5194ZCQMWU","","853","img/animal4.png","74","854","1","1","2","1,0.5,0,1,0,0.5,0.5,0,1",""
"","html-keyboard-response","93","100759","0.0-93.0","36WLNQG780WBP4ZF420MUYNYLZWBEV","A1XODDMY1SJ0H9","3A3KKYU7P33Z3BR9PPFZ5194ZCQMWU","","null","<img src=""img/animal4.png"" style=""width:200px; border:14px solid green;"">","null","","","","","",""
"","image-keyboard-response","94","104018","0.0-94.0","36WLNQG780WBP4ZF420MUYNYLZWBEV","A1XODDMY1SJ0H9","3A3KKYU7P33Z3BR9PPFZ5194ZCQMWU","","3254","img/animal3.png","76","3258","3","1","3","1,0.5,0,1,0,0.5,0.5,0,1",""
"","html-keyboard-response","95","104336","0.0-95.0","36WLNQG780WBP4ZF420MUYNYLZWBEV","A1XODDMY1SJ0H9","3A3KKYU7P33Z3BR9PPFZ5194ZCQMWU","","null","<img src=""img/animal3.png"" style=""width:200px; border:14px solid green;"">","null","","","","","",""
"","image-keyboard-response","96","105170","0.0-96.0","36WLNQG780WBP4ZF420MUYNYLZWBEV","A1XODDMY1SJ0H9","3A3KKYU7P33Z3BR9PPFZ5194ZCQMWU","","830","img/animal1.png","74","832","1","1","1","1,0.5,0,1,0,0.5,0.5,0,1",""
"","html-keyboard-response","97","105481","0.0-97.0","36WLNQG780WBP4ZF420MUYNYLZWBEV","A1XODDMY1SJ0H9","3A3KKYU7P33Z3BR9PPFZ5194ZCQMWU","","null","<img src=""img/animal1.png"" style=""width:200px; border:14px solid green;"">","null","","","","","",""
"","image-keyboard-response","98","106470","0.0-98.0","36WLNQG780WBP4ZF420MUYNYLZWBEV","A1XODDMY1SJ0H9","3A3KKYU7P33Z3BR9PPFZ5194ZCQMWU","","985","img/animal4.png","74","988","1","1","2","1,0.5,0,1,0,0.5,0.5,0,1",""
"","html-keyboard-response","99","106783","0.0-99.0","36WLNQG780WBP4ZF420MUYNYLZWBEV","A1XODDMY1SJ0H9","3A3KKYU7P33Z3BR9PPFZ5194ZCQMWU","","null","<img src=""img/animal4.png"" style=""width:200px; border:14px solid green;"">","null","","","","","",""
"","image-keyboard-response","100","107505","0.0-100.0","36WLNQG780WBP4ZF420MUYNYLZWBEV","A1XODDMY1SJ0H9","3A3KKYU7P33Z3BR9PPFZ5194ZCQMWU","","720","img/animal4.png","74","721","1","1","2","1,0.5,0,1,0,0.5,0.5,0,1",""
"","html-keyboard-response","101","107818","0.0-101.0","36WLNQG780WBP4ZF420MUYNYLZWBEV","A1XODDMY1SJ0H9","3A3KKYU7P33Z3BR9PPFZ5194ZCQMWU","","null","<img src=""img/animal4.png"" style=""width:200px; border:14px solid green;"">","null","","","","","",""
"","image-keyboard-response","102","108596","0.0-102.0","36WLNQG780WBP4ZF420MUYNYLZWBEV","A1XODDMY1SJ0H9","3A3KKYU7P33Z3BR9PPFZ5194ZCQMWU","","775","img/animal3.png","76","777","3","1","3","1,0.5,0,1,0,0.5,0.5,0,1",""
"","html-keyboard-response","103","108904","0.0-103.0","36WLNQG780WBP4ZF420MUYNYLZWBEV","A1XODDMY1SJ0H9","3A3KKYU7P33Z3BR9PPFZ5194ZCQMWU","","null","<img src=""img/animal3.png"" style=""width:200px; border:14px solid green;"">","null","","","","","",""
"","image-keyboard-response","104","109791","0.0-104.0","36WLNQG780WBP4ZF420MUYNYLZWBEV","A1XODDMY1SJ0H9","3A3KKYU7P33Z3BR9PPFZ5194ZCQMWU","","885","img/animal3.png","76","888","3","1","3","1,0.5,0,1,0,0.5,0.5,0,1",""
"","html-keyboard-response","105","110102","0.0-105.0","36WLNQG780WBP4ZF420MUYNYLZWBEV","A1XODDMY1SJ0H9","3A3KKYU7P33Z3BR9PPFZ5194ZCQMWU","","null","<img src=""img/animal3.png"" style=""width:200px; border:14px solid green;"">","null","","","","","",""
"","image-keyboard-response","106","110892","0.0-106.0","36WLNQG780WBP4ZF420MUYNYLZWBEV","A1XODDMY1SJ0H9","3A3KKYU7P33Z3BR9PPFZ5194ZCQMWU","","786","img/animal4.png","74","789","1","1","2","1,0.5,0,1,0,0.5,0.5,0,1",""
"","html-keyboard-response","107","111195","0.0-107.0","36WLNQG780WBP4ZF420MUYNYLZWBEV","A1XODDMY1SJ0H9","3A3KKYU7P33Z3BR9PPFZ5194ZCQMWU","","null","<img src=""img/animal4.png"" style=""width:200px; border:14px solid green;"">","null","","","","","",""
"","image-keyboard-response","108","112469","0.0-108.0","36WLNQG780WBP4ZF420MUYNYLZWBEV","A1XODDMY1SJ0H9","3A3KKYU7P33Z3BR9PPFZ5194ZCQMWU","","1271","img/animal1.png","74","1273","1","1","1","1,0.5,0,1,0,0.5,0.5,0,1",""
"","html-keyboard-response","109","112771","0.0-109.0","36WLNQG780WBP4ZF420MUYNYLZWBEV","A1XODDMY1SJ0H9","3A3KKYU7P33Z3BR9PPFZ5194ZCQMWU","","null","<img src=""img/animal1.png"" style=""width:200px; border:14px solid green;"">","null","","","","","",""
"","image-keyboard-response","110","116069","0.0-110.0","36WLNQG780WBP4ZF420MUYNYLZWBEV","A1XODDMY1SJ0H9","3A3KKYU7P33Z3BR9PPFZ5194ZCQMWU","","3288","img/animal3.png","76","3295","3","1","3","1,0.5,0,1,0,0.5,0.5,0,1",""
"","html-keyboard-response","111","116375","0.0-111.0","36WLNQG780WBP4ZF420MUYNYLZWBEV","A1XODDMY1SJ0H9","3A3KKYU7P33Z3BR9PPFZ5194ZCQMWU","","null","<img src=""img/animal3.png"" style=""width:200px; border:14px solid green;"">","null","","","","","",""
"","image-keyboard-response","112","117303","0.0-112.0","36WLNQG780WBP4ZF420MUYNYLZWBEV","A1XODDMY1SJ0H9","3A3KKYU7P33Z3BR9PPFZ5194ZCQMWU","","927","img/animal1.png","74","928","1","1","1","1,0.5,0,1,0,0.5,0.5,0,1",""
"","html-keyboard-response","113","117608","0.0-113.0","36WLNQG780WBP4ZF420MUYNYLZWBEV","A1XODDMY1SJ0H9","3A3KKYU7P33Z3BR9PPFZ5194ZCQMWU","","null","<img src=""img/animal1.png"" style=""width:200px; border:14px solid green;"">","null","","","","","",""
"","image-keyboard-response","114","118833","0.0-114.0","36WLNQG780WBP4ZF420MUYNYLZWBEV","A1XODDMY1SJ0H9","3A3KKYU7P33Z3BR9PPFZ5194ZCQMWU","","1222","img/animal1.png","74","1224","1","1","1","1,0.5,0,1,0,0.5,0.5,0,1",""
"","html-keyboard-response","115","119138","0.0-115.0","36WLNQG780WBP4ZF420MUYNYLZWBEV","A1XODDMY1SJ0H9","3A3KKYU7P33Z3BR9PPFZ5194ZCQMWU","","null","<img src=""img/animal1.png"" style=""width:200px; border:14px solid green;"">","null","","","","","",""
"","image-keyboard-response","116","121463","0.0-116.0","36WLNQG780WBP4ZF420MUYNYLZWBEV","A1XODDMY1SJ0H9","3A3KKYU7P33Z3BR9PPFZ5194ZCQMWU","","2320","img/animal3.png","76","2323","3","1","3","1,0.5,0,1,0,0.5,0.5,0,1",""
"","html-keyboard-response","117","121774","0.0-117.0","36WLNQG780WBP4ZF420MUYNYLZWBEV","A1XODDMY1SJ0H9","3A3KKYU7P33Z3BR9PPFZ5194ZCQMWU","","null","<img src=""img/animal3.png"" style=""width:200px; border:14px solid green;"">","null","","","","","",""
"","image-keyboard-response","118","122616","0.0-118.0","36WLNQG780WBP4ZF420MUYNYLZWBEV","A1XODDMY1SJ0H9","3A3KKYU7P33Z3BR9PPFZ5194ZCQMWU","","839","img/animal3.png","76","842","3","1","3","1,0.5,0,1,0,0.5,0.5,0,1",""
"","html-keyboard-response","119","122920","0.0-119.0","36WLNQG780WBP4ZF420MUYNYLZWBEV","A1XODDMY1SJ0H9","3A3KKYU7P33Z3BR9PPFZ5194ZCQMWU","","null","<img src=""img/animal3.png"" style=""width:200px; border:14px solid green;"">","null","","","","","",""
"","image-keyboard-response","120","123654","0.0-120.0","36WLNQG780WBP4ZF420MUYNYLZWBEV","A1XODDMY1SJ0H9","3A3KKYU7P33Z3BR9PPFZ5194ZCQMWU","","731","img/animal3.png","76","733","3","1","3","1,0.5,0,1,0,0.5,0.5,0,1",""
"","html-keyboard-response","121","123963","0.0-121.0","36WLNQG780WBP4ZF420MUYNYLZWBEV","A1XODDMY1SJ0H9","3A3KKYU7P33Z3BR9PPFZ5194ZCQMWU","","null","<img src=""img/animal3.png"" style=""width:200px; border:14px solid green;"">","null","","","","","",""
"","image-keyboard-response","122","124786","0.0-122.0","36WLNQG780WBP4ZF420MUYNYLZWBEV","A1XODDMY1SJ0H9","3A3KKYU7P33Z3BR9PPFZ5194ZCQMWU","","821","img/animal4.png","74","823","1","1","2","1,0.5,0,1,0,0.5,0.5,0,1",""
"","html-keyboard-response","123","125094","0.0-123.0","36WLNQG780WBP4ZF420MUYNYLZWBEV","A1XODDMY1SJ0H9","3A3KKYU7P33Z3BR9PPFZ5194ZCQMWU","","null","<img src=""img/animal4.png"" style=""width:200px; border:14px solid green;"">","null","","","","","",""
"","image-keyboard-response","124","126062","0.0-124.0","36WLNQG780WBP4ZF420MUYNYLZWBEV","A1XODDMY1SJ0H9","3A3KKYU7P33Z3BR9PPFZ5194ZCQMWU","","965","img/animal4.png","74","967","1","1","2","1,0.5,0,1,0,0.5,0.5,0,1",""
"","html-keyboard-response","125","126374","0.0-125.0","36WLNQG780WBP4ZF420MUYNYLZWBEV","A1XODDMY1SJ0H9","3A3KKYU7P33Z3BR9PPFZ5194ZCQMWU","","null","<img src=""img/animal4.png"" style=""width:200px; border:14px solid green;"">","null","","","","","",""
"","image-keyboard-response","126","127348","0.0-126.0","36WLNQG780WBP4ZF420MUYNYLZWBEV","A1XODDMY1SJ0H9","3A3KKYU7P33Z3BR9PPFZ5194ZCQMWU","","971","img/animal3.png","76","973","3","1","3","1,0.5,0,1,0,0.5,0.5,0,1",""
"","html-keyboard-response","127","127661","0.0-127.0","36WLNQG780WBP4ZF420MUYNYLZWBEV","A1XODDMY1SJ0H9","3A3KKYU7P33Z3BR9PPFZ5194ZCQMWU","","null","<img src=""img/animal3.png"" style=""width:200px; border:14px solid green;"">","null","","","","","",""
"","image-keyboard-response","128","128904","0.0-128.0","36WLNQG780WBP4ZF420MUYNYLZWBEV","A1XODDMY1SJ0H9","3A3KKYU7P33Z3BR9PPFZ5194ZCQMWU","","1240","img/animal3.png","76","1242","3","1","3","1,0.5,0,1,0,0.5,0.5,0,1",""
"","html-keyboard-response","129","129211","0.0-129.0","36WLNQG780WBP4ZF420MUYNYLZWBEV","A1XODDMY1SJ0H9","3A3KKYU7P33Z3BR9PPFZ5194ZCQMWU","","null","<img src=""img/animal3.png"" style=""width:200px; border:14px solid green;"">","null","","","","","",""
"","image-keyboard-response","130","130068","0.0-130.0","36WLNQG780WBP4ZF420MUYNYLZWBEV","A1XODDMY1SJ0H9","3A3KKYU7P33Z3BR9PPFZ5194ZCQMWU","","855","img/animal1.png","74","856","1","1","1","1,0.5,0,1,0,0.5,0.5,0,1",""
"","html-keyboard-response","131","130376","0.0-131.0","36WLNQG780WBP4ZF420MUYNYLZWBEV","A1XODDMY1SJ0H9","3A3KKYU7P33Z3BR9PPFZ5194ZCQMWU","","null","<img src=""img/animal1.png"" style=""width:200px; border:14px solid green;"">","null","","","","","",""
"","image-keyboard-response","132","131034","0.0-132.0","36WLNQG780WBP4ZF420MUYNYLZWBEV","A1XODDMY1SJ0H9","3A3KKYU7P33Z3BR9PPFZ5194ZCQMWU","","656","img/animal1.png","74","658","1","1","1","1,0.5,0,1,0,0.5,0.5,0,1",""
"","html-keyboard-response","133","131341","0.0-133.0","36WLNQG780WBP4ZF420MUYNYLZWBEV","A1XODDMY1SJ0H9","3A3KKYU7P33Z3BR9PPFZ5194ZCQMWU","","null","<img src=""img/animal1.png"" style=""width:200px; border:14px solid green;"">","null","","","","","",""
"","image-keyboard-response","134","132112","0.0-134.0","36WLNQG780WBP4ZF420MUYNYLZWBEV","A1XODDMY1SJ0H9","3A3KKYU7P33Z3BR9PPFZ5194ZCQMWU","","768","img/animal4.png","74","769","1","1","2","1,0.5,0,1,0,0.5,0.5,0,1",""
"","html-keyboard-response","135","132418","0.0-135.0","36WLNQG780WBP4ZF420MUYNYLZWBEV","A1XODDMY1SJ0H9","3A3KKYU7P33Z3BR9PPFZ5194ZCQMWU","","null","<img src=""img/animal4.png"" style=""width:200px; border:14px solid green;"">","null","","","","","",""
"","image-keyboard-response","136","133159","0.0-136.0","36WLNQG780WBP4ZF420MUYNYLZWBEV","A1XODDMY1SJ0H9","3A3KKYU7P33Z3BR9PPFZ5194ZCQMWU","","739","img/animal3.png","76","740","3","1","3","1,0.5,0,1,0,0.5,0.5,0,1",""
"","html-keyboard-response","137","133468","0.0-137.0","36WLNQG780WBP4ZF420MUYNYLZWBEV","A1XODDMY1SJ0H9","3A3KKYU7P33Z3BR9PPFZ5194ZCQMWU","","null","<img src=""img/animal3.png"" style=""width:200px; border:14px solid green;"">","null","","","","","",""
"","image-keyboard-response","138","134093","0.0-138.0","36WLNQG780WBP4ZF420MUYNYLZWBEV","A1XODDMY1SJ0H9","3A3KKYU7P33Z3BR9PPFZ5194ZCQMWU","","623","img/animal1.png","74","624","1","1","1","1,0.5,0,1,0,0.5,0.5,0,1",""
"","html-keyboard-response","139","134400","0.0-139.0","36WLNQG780WBP4ZF420MUYNYLZWBEV","A1XODDMY1SJ0H9","3A3KKYU7P33Z3BR9PPFZ5194ZCQMWU","","null","<img src=""img/animal1.png"" style=""width:200px; border:14px solid green;"">","null","","","","","",""
"","image-keyboard-response","140","135046","0.0-140.0","36WLNQG780WBP4ZF420MUYNYLZWBEV","A1XODDMY1SJ0H9","3A3KKYU7P33Z3BR9PPFZ5194ZCQMWU","","644","img/animal1.png","74","646","1","1","1","1,0.5,0,1,0,0.5,0.5,0,1",""
"","html-keyboard-response","141","135350","0.0-141.0","36WLNQG780WBP4ZF420MUYNYLZWBEV","A1XODDMY1SJ0H9","3A3KKYU7P33Z3BR9PPFZ5194ZCQMWU","","null","<img src=""img/animal1.png"" style=""width:200px; border:14px solid green;"">","null","","","","","",""
"","image-keyboard-response","142","135944","0.0-142.0","36WLNQG780WBP4ZF420MUYNYLZWBEV","A1XODDMY1SJ0H9","3A3KKYU7P33Z3BR9PPFZ5194ZCQMWU","","589","img/animal1.png","74","590","1","1","1","1,0.5,0,1,0,0.5,0.5,0,1",""
"","html-keyboard-response","143","136250","0.0-143.0","36WLNQG780WBP4ZF420MUYNYLZWBEV","A1XODDMY1SJ0H9","3A3KKYU7P33Z3BR9PPFZ5194ZCQMWU","","null","<img src=""img/animal1.png"" style=""width:200px; border:14px solid green;"">","null","","","","","",""
"","image-keyboard-response","144","137071","0.0-144.0","36WLNQG780WBP4ZF420MUYNYLZWBEV","A1XODDMY1SJ0H9","3A3KKYU7P33Z3BR9PPFZ5194ZCQMWU","","820","img/animal4.png","74","821","1","1","2","1,0.5,0,1,0,0.5,0.5,0,1",""
"","html-keyboard-response","145","137383","0.0-145.0","36WLNQG780WBP4ZF420MUYNYLZWBEV","A1XODDMY1SJ0H9","3A3KKYU7P33Z3BR9PPFZ5194ZCQMWU","","null","<img src=""img/animal4.png"" style=""width:200px; border:14px solid green;"">","null","","","","","",""
"","image-keyboard-response","146","138081","0.0-146.0","36WLNQG780WBP4ZF420MUYNYLZWBEV","A1XODDMY1SJ0H9","3A3KKYU7P33Z3BR9PPFZ5194ZCQMWU","","695","img/animal1.png","74","697","1","1","1","1,0.5,0,1,0,0.5,0.5,0,1",""
"","html-keyboard-response","147","138386","0.0-147.0","36WLNQG780WBP4ZF420MUYNYLZWBEV","A1XODDMY1SJ0H9","3A3KKYU7P33Z3BR9PPFZ5194ZCQMWU","","null","<img src=""img/animal1.png"" style=""width:200px; border:14px solid green;"">","null","","","","","",""
"","image-keyboard-response","148","139034","0.0-148.0","36WLNQG780WBP4ZF420MUYNYLZWBEV","A1XODDMY1SJ0H9","3A3KKYU7P33Z3BR9PPFZ5194ZCQMWU","","646","img/animal3.png","76","647","3","1","3","1,0.5,0,1,0,0.5,0.5,0,1",""
"","html-keyboard-response","149","139344","0.0-149.0","36WLNQG780WBP4ZF420MUYNYLZWBEV","A1XODDMY1SJ0H9","3A3KKYU7P33Z3BR9PPFZ5194ZCQMWU","","null","<img src=""img/animal3.png"" style=""width:200px; border:14px solid green;"">","null","","","","","",""
"","image-keyboard-response","150","140039","0.0-150.0","36WLNQG780WBP4ZF420MUYNYLZWBEV","A1XODDMY1SJ0H9","3A3KKYU7P33Z3BR9PPFZ5194ZCQMWU","","694","img/animal4.png","74","694","1","1","2","1,0.5,0,1,0,0.5,0.5,0,1",""
"","html-keyboard-response","151","140342","0.0-151.0","36WLNQG780WBP4ZF420MUYNYLZWBEV","A1XODDMY1SJ0H9","3A3KKYU7P33Z3BR9PPFZ5194ZCQMWU","","null","<img src=""img/animal4.png"" style=""width:200px; border:14px solid green;"">","null","","","","","",""
"","image-keyboard-response","152","141044","0.0-152.0","36WLNQG780WBP4ZF420MUYNYLZWBEV","A1XODDMY1SJ0H9","3A3KKYU7P33Z3BR9PPFZ5194ZCQMWU","","701","img/animal4.png","74","702","1","1","2","1,0.5,0,1,0,0.5,0.5,0,1",""
"","html-keyboard-response","153","141356","0.0-153.0","36WLNQG780WBP4ZF420MUYNYLZWBEV","A1XODDMY1SJ0H9","3A3KKYU7P33Z3BR9PPFZ5194ZCQMWU","","null","<img src=""img/animal4.png"" style=""width:200px; border:14px solid green;"">","null","","","","","",""
"","image-keyboard-response","154","141994","0.0-154.0","36WLNQG780WBP4ZF420MUYNYLZWBEV","A1XODDMY1SJ0H9","3A3KKYU7P33Z3BR9PPFZ5194ZCQMWU","","637","img/animal4.png","74","637","1","1","2","1,0.5,0,1,0,0.5,0.5,0,1",""
"","html-keyboard-response","155","142304","0.0-155.0","36WLNQG780WBP4ZF420MUYNYLZWBEV","A1XODDMY1SJ0H9","3A3KKYU7P33Z3BR9PPFZ5194ZCQMWU","","null","<img src=""img/animal4.png"" style=""width:200px; border:14px solid green;"">","null","","","","","",""
"","image-keyboard-response","156","142989","0.0-156.0","36WLNQG780WBP4ZF420MUYNYLZWBEV","A1XODDMY1SJ0H9","3A3KKYU7P33Z3BR9PPFZ5194ZCQMWU","","682","img/animal4.png","74","684","1","1","2","1,0.5,0,1,0,0.5,0.5,0,1",""
"","html-keyboard-response","157","143297","0.0-157.0","36WLNQG780WBP4ZF420MUYNYLZWBEV","A1XODDMY1SJ0H9","3A3KKYU7P33Z3BR9PPFZ5194ZCQMWU","","null","<img src=""img/animal4.png"" style=""width:200px; border:14px solid green;"">","null","","","","","",""
"","image-keyboard-response","158","144046","0.0-158.0","36WLNQG780WBP4ZF420MUYNYLZWBEV","A1XODDMY1SJ0H9","3A3KKYU7P33Z3BR9PPFZ5194ZCQMWU","","748","img/animal1.png","74","749","1","1","1","1,0.5,0,1,0,0.5,0.5,0,1",""
"","html-keyboard-response","159","144351","0.0-159.0","36WLNQG780WBP4ZF420MUYNYLZWBEV","A1XODDMY1SJ0H9","3A3KKYU7P33Z3BR9PPFZ5194ZCQMWU","","null","<img src=""img/animal1.png"" style=""width:200px; border:14px solid green;"">","null","","","","","",""
"","image-keyboard-response","160","144938","0.0-160.0","36WLNQG780WBP4ZF420MUYNYLZWBEV","A1XODDMY1SJ0H9","3A3KKYU7P33Z3BR9PPFZ5194ZCQMWU","","585","img/animal1.png","74","586","1","1","1","1,0.5,0,1,0,0.5,0.5,0,1",""
"","html-keyboard-response","161","145244","0.0-161.0","36WLNQG780WBP4ZF420MUYNYLZWBEV","A1XODDMY1SJ0H9","3A3KKYU7P33Z3BR9PPFZ5194ZCQMWU","","null","<img src=""img/animal1.png"" style=""width:200px; border:14px solid green;"">","null","","","","","",""
"","image-keyboard-response","162","146006","0.0-162.0","36WLNQG780WBP4ZF420MUYNYLZWBEV","A1XODDMY1SJ0H9","3A3KKYU7P33Z3BR9PPFZ5194ZCQMWU","","760","img/animal4.png","74","761","1","1","2","1,0.5,0,1,0,0.5,0.5,0,1",""
"","html-keyboard-response","163","146314","0.0-163.0","36WLNQG780WBP4ZF420MUYNYLZWBEV","A1XODDMY1SJ0H9","3A3KKYU7P33Z3BR9PPFZ5194ZCQMWU","","null","<img src=""img/animal4.png"" style=""width:200px; border:14px solid green;"">","null","","","","","",""
"","image-keyboard-response","164","146898","0.0-164.0","36WLNQG780WBP4ZF420MUYNYLZWBEV","A1XODDMY1SJ0H9","3A3KKYU7P33Z3BR9PPFZ5194ZCQMWU","","583","img/animal4.png","74","583","1","1","2","1,0.5,0,1,0,0.5,0.5,0,1",""
"","html-keyboard-response","165","147200","0.0-165.0","36WLNQG780WBP4ZF420MUYNYLZWBEV","A1XODDMY1SJ0H9","3A3KKYU7P33Z3BR9PPFZ5194ZCQMWU","","null","<img src=""img/animal4.png"" style=""width:200px; border:14px solid green;"">","null","","","","","",""
"","image-keyboard-response","166","148610","0.0-166.0","36WLNQG780WBP4ZF420MUYNYLZWBEV","A1XODDMY1SJ0H9","3A3KKYU7P33Z3BR9PPFZ5194ZCQMWU","","1409","img/animal3.png","76","1409","3","1","3","1,0.5,0,1,0,0.5,0.5,0,1",""
"","html-keyboard-response","167","148922","0.0-167.0","36WLNQG780WBP4ZF420MUYNYLZWBEV","A1XODDMY1SJ0H9","3A3KKYU7P33Z3BR9PPFZ5194ZCQMWU","","null","<img src=""img/animal3.png"" style=""width:200px; border:14px solid green;"">","null","","","","","",""
"","image-keyboard-response","168","150471","0.0-168.0","36WLNQG780WBP4ZF420MUYNYLZWBEV","A1XODDMY1SJ0H9","3A3KKYU7P33Z3BR9PPFZ5194ZCQMWU","","1546","img/animal3.png","76","1547","3","1","3","1,0.5,0,1,0,0.5,0.5,0,1",""
"","html-keyboard-response","169","150775","0.0-169.0","36WLNQG780WBP4ZF420MUYNYLZWBEV","A1XODDMY1SJ0H9","3A3KKYU7P33Z3BR9PPFZ5194ZCQMWU","","null","<img src=""img/animal3.png"" style=""width:200px; border:14px solid green;"">","null","","","","","",""
"","image-keyboard-response","170","151484","0.0-170.0","36WLNQG780WBP4ZF420MUYNYLZWBEV","A1XODDMY1SJ0H9","3A3KKYU7P33Z3BR9PPFZ5194ZCQMWU","","705","img/animal1.png","74","707","1","1","1","1,0.5,0,1,0,0.5,0.5,0,1",""
"","html-keyboard-response","171","151806","0.0-171.0","36WLNQG780WBP4ZF420MUYNYLZWBEV","A1XODDMY1SJ0H9","3A3KKYU7P33Z3BR9PPFZ5194ZCQMWU","","null","<img src=""img/animal1.png"" style=""width:200px; border:14px solid green;"">","null","","","","","",""
"","image-keyboard-response","172","152785","0.0-172.0","36WLNQG780WBP4ZF420MUYNYLZWBEV","A1XODDMY1SJ0H9","3A3KKYU7P33Z3BR9PPFZ5194ZCQMWU","","976","img/animal4.png","74","977","1","1","2","1,0.5,0,1,0,0.5,0.5,0,1",""
"","html-keyboard-response","173","153090","0.0-173.0","36WLNQG780WBP4ZF420MUYNYLZWBEV","A1XODDMY1SJ0H9","3A3KKYU7P33Z3BR9PPFZ5194ZCQMWU","","null","<img src=""img/animal4.png"" style=""width:200px; border:14px solid green;"">","null","","","","","",""
"","image-keyboard-response","174","153873","0.0-174.0","36WLNQG780WBP4ZF420MUYNYLZWBEV","A1XODDMY1SJ0H9","3A3KKYU7P33Z3BR9PPFZ5194ZCQMWU","","780","img/animal1.png","74","782","1","1","1","1,0.5,0,1,0,0.5,0.5,0,1",""
"","html-keyboard-response","175","154177","0.0-175.0","36WLNQG780WBP4ZF420MUYNYLZWBEV","A1XODDMY1SJ0H9","3A3KKYU7P33Z3BR9PPFZ5194ZCQMWU","","null","<img src=""img/animal1.png"" style=""width:200px; border:14px solid green;"">","null","","","","","",""
"","image-keyboard-response","176","155023","0.0-176.0","36WLNQG780WBP4ZF420MUYNYLZWBEV","A1XODDMY1SJ0H9","3A3KKYU7P33Z3BR9PPFZ5194ZCQMWU","","843","img/animal4.png","74","845","1","1","2","1,0.5,0,1,0,0.5,0.5,0,1",""
"","html-keyboard-response","177","155326","0.0-177.0","36WLNQG780WBP4ZF420MUYNYLZWBEV","A1XODDMY1SJ0H9","3A3KKYU7P33Z3BR9PPFZ5194ZCQMWU","","null","<img src=""img/animal4.png"" style=""width:200px; border:14px solid green;"">","null","","","","","",""
"","image-keyboard-response","178","156024","0.0-178.0","36WLNQG780WBP4ZF420MUYNYLZWBEV","A1XODDMY1SJ0H9","3A3KKYU7P33Z3BR9PPFZ5194ZCQMWU","","695","img/animal4.png","74","697","1","1","2","1,0.5,0,1,0,0.5,0.5,0,1",""
"","html-keyboard-response","179","156333","0.0-179.0","36WLNQG780WBP4ZF420MUYNYLZWBEV","A1XODDMY1SJ0H9","3A3KKYU7P33Z3BR9PPFZ5194ZCQMWU","","null","<img src=""img/animal4.png"" style=""width:200px; border:14px solid green;"">","null","","","","","",""
"","image-keyboard-response","180","157160","0.0-180.0","36WLNQG780WBP4ZF420MUYNYLZWBEV","A1XODDMY1SJ0H9","3A3KKYU7P33Z3BR9PPFZ5194ZCQMWU","","825","img/animal3.png","76","826","3","1","3","1,0.5,0,1,0,0.5,0.5,0,1",""
"","html-keyboard-response","181","157483","0.0-181.0","36WLNQG780WBP4ZF420MUYNYLZWBEV","A1XODDMY1SJ0H9","3A3KKYU7P33Z3BR9PPFZ5194ZCQMWU","","null","<img src=""img/animal3.png"" style=""width:200px; border:14px solid green;"">","null","","","","","",""
"","html-keyboard-response","182","166377","0.0-182.0","36WLNQG780WBP4ZF420MUYNYLZWBEV","A1XODDMY1SJ0H9","3A3KKYU7P33Z3BR9PPFZ5194ZCQMWU","","","","","","","","","",""
"","image-keyboard-response","183","170976","0.0-183.0","36WLNQG780WBP4ZF420MUYNYLZWBEV","A1XODDMY1SJ0H9","3A3KKYU7P33Z3BR9PPFZ5194ZCQMWU","","4594","img/animal5.png","75","4598","2","1","2","1,0.5,0,0,1,0.5,0.5,0,1",""
"","html-keyboard-response","184","171287","0.0-184.0","36WLNQG780WBP4ZF420MUYNYLZWBEV","A1XODDMY1SJ0H9","3A3KKYU7P33Z3BR9PPFZ5194ZCQMWU","","null","<img src=""img/animal5.png"" style=""width:200px; border:14px solid green;"">","null","","","","","",""
"","image-keyboard-response","185","174247","0.0-185.0","36WLNQG780WBP4ZF420MUYNYLZWBEV","A1XODDMY1SJ0H9","3A3KKYU7P33Z3BR9PPFZ5194ZCQMWU","","2957","img/animal6.png","75","2959","2","0","3","1,0.5,0,0,1,0.5,0.5,0,1",""
"","html-keyboard-response","186","174560","0.0-186.0","36WLNQG780WBP4ZF420MUYNYLZWBEV","A1XODDMY1SJ0H9","3A3KKYU7P33Z3BR9PPFZ5194ZCQMWU","","null","<img src=""img/animal6.png"" style=""width:200px;border:14px solid red;"">","null","","","","","",""
"","image-keyboard-response","187","175287","0.0-187.0","36WLNQG780WBP4ZF420MUYNYLZWBEV","A1XODDMY1SJ0H9","3A3KKYU7P33Z3BR9PPFZ5194ZCQMWU","","725","img/animal6.png","74","726","1","1","3","1,0.5,0,0,1,0.5,0.5,0,1",""
"","html-keyboard-response","188","175597","0.0-188.0","36WLNQG780WBP4ZF420MUYNYLZWBEV","A1XODDMY1SJ0H9","3A3KKYU7P33Z3BR9PPFZ5194ZCQMWU","","null","<img src=""img/animal6.png"" style=""width:200px; border:14px solid green;"">","null","","","","","",""
"","image-keyboard-response","189","176783","0.0-189.0","36WLNQG780WBP4ZF420MUYNYLZWBEV","A1XODDMY1SJ0H9","3A3KKYU7P33Z3BR9PPFZ5194ZCQMWU","","1182","img/animal5.png","75","1185","2","1","2","1,0.5,0,0,1,0.5,0.5,0,1",""
"","html-keyboard-response","190","177093","0.0-190.0","36WLNQG780WBP4ZF420MUYNYLZWBEV","A1XODDMY1SJ0H9","3A3KKYU7P33Z3BR9PPFZ5194ZCQMWU","","null","<img src=""img/animal5.png"" style=""width:200px; border:14px solid green;"">","null","","","","","",""
"","image-keyboard-response","191","177895","0.0-191.0","36WLNQG780WBP4ZF420MUYNYLZWBEV","A1XODDMY1SJ0H9","3A3KKYU7P33Z3BR9PPFZ5194ZCQMWU","","800","img/animal6.png","74","802","1","0","3","1,0.5,0,0,1,0.5,0.5,0,1",""
"","html-keyboard-response","192","178204","0.0-192.0","36WLNQG780WBP4ZF420MUYNYLZWBEV","A1XODDMY1SJ0H9","3A3KKYU7P33Z3BR9PPFZ5194ZCQMWU","","null","<img src=""img/animal6.png"" style=""width:200px;border:14px solid red;"">","null","","","","","",""
"","image-keyboard-response","193","179404","0.0-193.0","36WLNQG780WBP4ZF420MUYNYLZWBEV","A1XODDMY1SJ0H9","3A3KKYU7P33Z3BR9PPFZ5194ZCQMWU","","1199","img/animal5.png","75","1199","2","1","2","1,0.5,0,0,1,0.5,0.5,0,1",""
"","html-keyboard-response","194","179711","0.0-194.0","36WLNQG780WBP4ZF420MUYNYLZWBEV","A1XODDMY1SJ0H9","3A3KKYU7P33Z3BR9PPFZ5194ZCQMWU","","null","<img src=""img/animal5.png"" style=""width:200px; border:14px solid green;"">","null","","","","","",""
"","image-keyboard-response","195","180586","0.0-195.0","36WLNQG780WBP4ZF420MUYNYLZWBEV","A1XODDMY1SJ0H9","3A3KKYU7P33Z3BR9PPFZ5194ZCQMWU","","874","img/animal2.png","76","874","3","0","1","1,0.5,0,0,1,0.5,0.5,0,1",""
"","html-keyboard-response","196","180896","0.0-196.0","36WLNQG780WBP4ZF420MUYNYLZWBEV","A1XODDMY1SJ0H9","3A3KKYU7P33Z3BR9PPFZ5194ZCQMWU","","null","<img src=""img/animal2.png"" style=""width:200px;border:14px solid red;"">","null","","","","","",""
"","image-keyboard-response","197","183072","0.0-197.0","36WLNQG780WBP4ZF420MUYNYLZWBEV","A1XODDMY1SJ0H9","3A3KKYU7P33Z3BR9PPFZ5194ZCQMWU","","2172","img/animal5.png","75","2175","2","1","2","1,0.5,0,0,1,0.5,0.5,0,1",""
"","html-keyboard-response","198","183384","0.0-198.0","36WLNQG780WBP4ZF420MUYNYLZWBEV","A1XODDMY1SJ0H9","3A3KKYU7P33Z3BR9PPFZ5194ZCQMWU","","null","<img src=""img/animal5.png"" style=""width:200px; border:14px solid green;"">","null","","","","","",""
"","image-keyboard-response","199","185251","0.0-199.0","36WLNQG780WBP4ZF420MUYNYLZWBEV","A1XODDMY1SJ0H9","3A3KKYU7P33Z3BR9PPFZ5194ZCQMWU","","1863","img/animal6.png","74","1865","1","0","3","1,0.5,0,0,1,0.5,0.5,0,1",""
"","html-keyboard-response","200","185562","0.0-200.0","36WLNQG780WBP4ZF420MUYNYLZWBEV","A1XODDMY1SJ0H9","3A3KKYU7P33Z3BR9PPFZ5194ZCQMWU","","null","<img src=""img/animal6.png"" style=""width:200px;border:14px solid red;"">","null","","","","","",""
"","image-keyboard-response","201","186583","0.0-201.0","36WLNQG780WBP4ZF420MUYNYLZWBEV","A1XODDMY1SJ0H9","3A3KKYU7P33Z3BR9PPFZ5194ZCQMWU","","1020","img/animal5.png","75","1021","2","1","2","1,0.5,0,0,1,0.5,0.5,0,1",""
"","html-keyboard-response","202","186890","0.0-202.0","36WLNQG780WBP4ZF420MUYNYLZWBEV","A1XODDMY1SJ0H9","3A3KKYU7P33Z3BR9PPFZ5194ZCQMWU","","null","<img src=""img/animal5.png"" style=""width:200px; border:14px solid green;"">","null","","","","","",""
"","image-keyboard-response","203","187817","0.0-203.0","36WLNQG780WBP4ZF420MUYNYLZWBEV","A1XODDMY1SJ0H9","3A3KKYU7P33Z3BR9PPFZ5194ZCQMWU","","922","img/animal2.png","76","925","3","0","1","1,0.5,0,0,1,0.5,0.5,0,1",""
"","html-keyboard-response","204","188130","0.0-204.0","36WLNQG780WBP4ZF420MUYNYLZWBEV","A1XODDMY1SJ0H9","3A3KKYU7P33Z3BR9PPFZ5194ZCQMWU","","null","<img src=""img/animal2.png"" style=""width:200px;border:14px solid red;"">","null","","","","","",""
"","image-keyboard-response","205","189956","0.0-205.0","36WLNQG780WBP4ZF420MUYNYLZWBEV","A1XODDMY1SJ0H9","3A3KKYU7P33Z3BR9PPFZ5194ZCQMWU","","1824","img/animal6.png","75","1826","2","0","3","1,0.5,0,0,1,0.5,0.5,0,1",""
"","html-keyboard-response","206","190262","0.0-206.0","36WLNQG780WBP4ZF420MUYNYLZWBEV","A1XODDMY1SJ0H9","3A3KKYU7P33Z3BR9PPFZ5194ZCQMWU","","null","<img src=""img/animal6.png"" style=""width:200px;border:14px solid red;"">","null","","","","","",""
"","image-keyboard-response","207","191271","0.0-207.0","36WLNQG780WBP4ZF420MUYNYLZWBEV","A1XODDMY1SJ0H9","3A3KKYU7P33Z3BR9PPFZ5194ZCQMWU","","1006","img/animal6.png","74","1008","1","0","3","1,0.5,0,0,1,0.5,0.5,0,1",""
"","html-keyboard-response","208","191583","0.0-208.0","36WLNQG780WBP4ZF420MUYNYLZWBEV","A1XODDMY1SJ0H9","3A3KKYU7P33Z3BR9PPFZ5194ZCQMWU","","null","<img src=""img/animal6.png"" style=""width:200px;border:14px solid red;"">","null","","","","","",""
"","image-keyboard-response","209","194309","0.0-209.0","36WLNQG780WBP4ZF420MUYNYLZWBEV","A1XODDMY1SJ0H9","3A3KKYU7P33Z3BR9PPFZ5194ZCQMWU","","2723","img/animal5.png","75","2725","2","1","2","1,0.5,0,0,1,0.5,0.5,0,1",""
"","html-keyboard-response","210","194618","0.0-210.0","36WLNQG780WBP4ZF420MUYNYLZWBEV","A1XODDMY1SJ0H9","3A3KKYU7P33Z3BR9PPFZ5194ZCQMWU","","null","<img src=""img/animal5.png"" style=""width:200px; border:14px solid green;"">","null","","","","","",""
"","image-keyboard-response","211","196133","0.0-211.0","36WLNQG780WBP4ZF420MUYNYLZWBEV","A1XODDMY1SJ0H9","3A3KKYU7P33Z3BR9PPFZ5194ZCQMWU","","1513","img/animal2.png","74","1514","1","1","1","1,0.5,0,0,1,0.5,0.5,0,1",""
"","html-keyboard-response","212","196441","0.0-212.0","36WLNQG780WBP4ZF420MUYNYLZWBEV","A1XODDMY1SJ0H9","3A3KKYU7P33Z3BR9PPFZ5194ZCQMWU","","null","<img src=""img/animal2.png"" style=""width:200px; border:14px solid green;"">","null","","","","","",""
"","image-keyboard-response","213","197454","0.0-213.0","36WLNQG780WBP4ZF420MUYNYLZWBEV","A1XODDMY1SJ0H9","3A3KKYU7P33Z3BR9PPFZ5194ZCQMWU","","1012","img/animal6.png","76","1013","3","1","3","1,0.5,0,0,1,0.5,0.5,0,1",""
"","html-keyboard-response","214","197761","0.0-214.0","36WLNQG780WBP4ZF420MUYNYLZWBEV","A1XODDMY1SJ0H9","3A3KKYU7P33Z3BR9PPFZ5194ZCQMWU","","null","<img src=""img/animal6.png"" style=""width:200px; border:14px solid green;"">","null","","","","","",""
"","image-keyboard-response","215","198938","0.0-215.0","36WLNQG780WBP4ZF420MUYNYLZWBEV","A1XODDMY1SJ0H9","3A3KKYU7P33Z3BR9PPFZ5194ZCQMWU","","1175","img/animal2.png","74","1176","1","1","1","1,0.5,0,0,1,0.5,0.5,0,1",""
"","html-keyboard-response","216","199253","0.0-216.0","36WLNQG780WBP4ZF420MUYNYLZWBEV","A1XODDMY1SJ0H9","3A3KKYU7P33Z3BR9PPFZ5194ZCQMWU","","null","<img src=""img/animal2.png"" style=""width:200px; border:14px solid green;"">","null","","","","","",""
"","image-keyboard-response","217","200050","0.0-217.0","36WLNQG780WBP4ZF420MUYNYLZWBEV","A1XODDMY1SJ0H9","3A3KKYU7P33Z3BR9PPFZ5194ZCQMWU","","796","img/animal2.png","74","798","1","1","1","1,0.5,0,0,1,0.5,0.5,0,1",""
"","html-keyboard-response","218","200360","0.0-218.0","36WLNQG780WBP4ZF420MUYNYLZWBEV","A1XODDMY1SJ0H9","3A3KKYU7P33Z3BR9PPFZ5194ZCQMWU","","null","<img src=""img/animal2.png"" style=""width:200px; border:14px solid green;"">","null","","","","","",""
"","image-keyboard-response","219","201363","0.0-219.0","36WLNQG780WBP4ZF420MUYNYLZWBEV","A1XODDMY1SJ0H9","3A3KKYU7P33Z3BR9PPFZ5194ZCQMWU","","999","img/animal5.png","75","1000","2","1","2","1,0.5,0,0,1,0.5,0.5,0,1",""
"","html-keyboard-response","220","201667","0.0-220.0","36WLNQG780WBP4ZF420MUYNYLZWBEV","A1XODDMY1SJ0H9","3A3KKYU7P33Z3BR9PPFZ5194ZCQMWU","","null","<img src=""img/animal5.png"" style=""width:200px; border:14px solid green;"">","null","","","","","",""
"","image-keyboard-response","221","202335","0.0-221.0","36WLNQG780WBP4ZF420MUYNYLZWBEV","A1XODDMY1SJ0H9","3A3KKYU7P33Z3BR9PPFZ5194ZCQMWU","","666","img/animal5.png","75","668","2","1","2","1,0.5,0,0,1,0.5,0.5,0,1",""
"","html-keyboard-response","222","202651","0.0-222.0","36WLNQG780WBP4ZF420MUYNYLZWBEV","A1XODDMY1SJ0H9","3A3KKYU7P33Z3BR9PPFZ5194ZCQMWU","","null","<img src=""img/animal5.png"" style=""width:200px; border:14px solid green;"">","null","","","","","",""
"","image-keyboard-response","223","203548","0.0-223.0","36WLNQG780WBP4ZF420MUYNYLZWBEV","A1XODDMY1SJ0H9","3A3KKYU7P33Z3BR9PPFZ5194ZCQMWU","","894","img/animal2.png","74","895","1","1","1","1,0.5,0,0,1,0.5,0.5,0,1",""
"","html-keyboard-response","224","203851","0.0-224.0","36WLNQG780WBP4ZF420MUYNYLZWBEV","A1XODDMY1SJ0H9","3A3KKYU7P33Z3BR9PPFZ5194ZCQMWU","","null","<img src=""img/animal2.png"" style=""width:200px; border:14px solid green;"">","null","","","","","",""
"","image-keyboard-response","225","204664","0.0-225.0","36WLNQG780WBP4ZF420MUYNYLZWBEV","A1XODDMY1SJ0H9","3A3KKYU7P33Z3BR9PPFZ5194ZCQMWU","","810","img/animal2.png","74","810","1","1","1","1,0.5,0,0,1,0.5,0.5,0,1",""
"","html-keyboard-response","226","204969","0.0-226.0","36WLNQG780WBP4ZF420MUYNYLZWBEV","A1XODDMY1SJ0H9","3A3KKYU7P33Z3BR9PPFZ5194ZCQMWU","","null","<img src=""img/animal2.png"" style=""width:200px; border:14px solid green;"">","null","","","","","",""
"","image-keyboard-response","227","205778","0.0-227.0","36WLNQG780WBP4ZF420MUYNYLZWBEV","A1XODDMY1SJ0H9","3A3KKYU7P33Z3BR9PPFZ5194ZCQMWU","","807","img/animal5.png","75","808","2","1","2","1,0.5,0,0,1,0.5,0.5,0,1",""
"","html-keyboard-response","228","206090","0.0-228.0","36WLNQG780WBP4ZF420MUYNYLZWBEV","A1XODDMY1SJ0H9","3A3KKYU7P33Z3BR9PPFZ5194ZCQMWU","","null","<img src=""img/animal5.png"" style=""width:200px; border:14px solid green;"">","null","","","","","",""
"","image-keyboard-response","229","206771","0.0-229.0","36WLNQG780WBP4ZF420MUYNYLZWBEV","A1XODDMY1SJ0H9","3A3KKYU7P33Z3BR9PPFZ5194ZCQMWU","","678","img/animal5.png","75","680","2","1","2","1,0.5,0,0,1,0.5,0.5,0,1",""
"","html-keyboard-response","230","207077","0.0-230.0","36WLNQG780WBP4ZF420MUYNYLZWBEV","A1XODDMY1SJ0H9","3A3KKYU7P33Z3BR9PPFZ5194ZCQMWU","","null","<img src=""img/animal5.png"" style=""width:200px; border:14px solid green;"">","null","","","","","",""
"","image-keyboard-response","231","208008","0.0-231.0","36WLNQG780WBP4ZF420MUYNYLZWBEV","A1XODDMY1SJ0H9","3A3KKYU7P33Z3BR9PPFZ5194ZCQMWU","","928","img/animal2.png","74","930","1","1","1","1,0.5,0,0,1,0.5,0.5,0,1",""
"","html-keyboard-response","232","208313","0.0-232.0","36WLNQG780WBP4ZF420MUYNYLZWBEV","A1XODDMY1SJ0H9","3A3KKYU7P33Z3BR9PPFZ5194ZCQMWU","","null","<img src=""img/animal2.png"" style=""width:200px; border:14px solid green;"">","null","","","","","",""
"","image-keyboard-response","233","209318","0.0-233.0","36WLNQG780WBP4ZF420MUYNYLZWBEV","A1XODDMY1SJ0H9","3A3KKYU7P33Z3BR9PPFZ5194ZCQMWU","","1004","img/animal6.png","76","1005","3","1","3","1,0.5,0,0,1,0.5,0.5,0,1",""
"","html-keyboard-response","234","209621","0.0-234.0","36WLNQG780WBP4ZF420MUYNYLZWBEV","A1XODDMY1SJ0H9","3A3KKYU7P33Z3BR9PPFZ5194ZCQMWU","","null","<img src=""img/animal6.png"" style=""width:200px; border:14px solid green;"">","null","","","","","",""
"","image-keyboard-response","235","213283","0.0-235.0","36WLNQG780WBP4ZF420MUYNYLZWBEV","A1XODDMY1SJ0H9","3A3KKYU7P33Z3BR9PPFZ5194ZCQMWU","","3660","img/animal5.png","75","3661","2","1","2","1,0.5,0,0,1,0.5,0.5,0,1",""
"","html-keyboard-response","236","213594","0.0-236.0","36WLNQG780WBP4ZF420MUYNYLZWBEV","A1XODDMY1SJ0H9","3A3KKYU7P33Z3BR9PPFZ5194ZCQMWU","","null","<img src=""img/animal5.png"" style=""width:200px; border:14px solid green;"">","null","","","","","",""
"","image-keyboard-response","237","221727","0.0-237.0","36WLNQG780WBP4ZF420MUYNYLZWBEV","A1XODDMY1SJ0H9","3A3KKYU7P33Z3BR9PPFZ5194ZCQMWU","","8130","img/animal2.png","74","8132","1","1","1","1,0.5,0,0,1,0.5,0.5,0,1",""
"","html-keyboard-response","238","222036","0.0-238.0","36WLNQG780WBP4ZF420MUYNYLZWBEV","A1XODDMY1SJ0H9","3A3KKYU7P33Z3BR9PPFZ5194ZCQMWU","","null","<img src=""img/animal2.png"" style=""width:200px; border:14px solid green;"">","null","","","","","",""
"","image-keyboard-response","239","226704","0.0-239.0","36WLNQG780WBP4ZF420MUYNYLZWBEV","A1XODDMY1SJ0H9","3A3KKYU7P33Z3BR9PPFZ5194ZCQMWU","","4664","img/animal5.png","75","4667","2","1","2","1,0.5,0,0,1,0.5,0.5,0,1",""
"","html-keyboard-response","240","227020","0.0-240.0","36WLNQG780WBP4ZF420MUYNYLZWBEV","A1XODDMY1SJ0H9","3A3KKYU7P33Z3BR9PPFZ5194ZCQMWU","","null","<img src=""img/animal5.png"" style=""width:200px; border:14px solid green;"">","null","","","","","",""
"","image-keyboard-response","241","227892","0.0-241.0","36WLNQG780WBP4ZF420MUYNYLZWBEV","A1XODDMY1SJ0H9","3A3KKYU7P33Z3BR9PPFZ5194ZCQMWU","","871","img/animal6.png","76","872","3","1","3","1,0.5,0,0,1,0.5,0.5,0,1",""
"","html-keyboard-response","242","228212","0.0-242.0","36WLNQG780WBP4ZF420MUYNYLZWBEV","A1XODDMY1SJ0H9","3A3KKYU7P33Z3BR9PPFZ5194ZCQMWU","","null","<img src=""img/animal6.png"" style=""width:200px; border:14px solid green;"">","null","","","","","",""
"","image-keyboard-response","243","229162","0.0-243.0","36WLNQG780WBP4ZF420MUYNYLZWBEV","A1XODDMY1SJ0H9","3A3KKYU7P33Z3BR9PPFZ5194ZCQMWU","","948","img/animal2.png","74","949","1","1","1","1,0.5,0,0,1,0.5,0.5,0,1",""
"","html-keyboard-response","244","229471","0.0-244.0","36WLNQG780WBP4ZF420MUYNYLZWBEV","A1XODDMY1SJ0H9","3A3KKYU7P33Z3BR9PPFZ5194ZCQMWU","","null","<img src=""img/animal2.png"" style=""width:200px; border:14px solid green;"">","null","","","","","",""
"","image-keyboard-response","245","230659","0.0-245.0","36WLNQG780WBP4ZF420MUYNYLZWBEV","A1XODDMY1SJ0H9","3A3KKYU7P33Z3BR9PPFZ5194ZCQMWU","","1185","img/animal6.png","76","1187","3","1","3","1,0.5,0,0,1,0.5,0.5,0,1",""
"","html-keyboard-response","246","230968","0.0-246.0","36WLNQG780WBP4ZF420MUYNYLZWBEV","A1XODDMY1SJ0H9","3A3KKYU7P33Z3BR9PPFZ5194ZCQMWU","","null","<img src=""img/animal6.png"" style=""width:200px; border:14px solid green;"">","null","","","","","",""
"","image-keyboard-response","247","231635","0.0-247.0","36WLNQG780WBP4ZF420MUYNYLZWBEV","A1XODDMY1SJ0H9","3A3KKYU7P33Z3BR9PPFZ5194ZCQMWU","","663","img/animal6.png","76","666","3","1","3","1,0.5,0,0,1,0.5,0.5,0,1",""
"","html-keyboard-response","248","231947","0.0-248.0","36WLNQG780WBP4ZF420MUYNYLZWBEV","A1XODDMY1SJ0H9","3A3KKYU7P33Z3BR9PPFZ5194ZCQMWU","","null","<img src=""img/animal6.png"" style=""width:200px; border:14px solid green;"">","null","","","","","",""
"","image-keyboard-response","249","232809","0.0-249.0","36WLNQG780WBP4ZF420MUYNYLZWBEV","A1XODDMY1SJ0H9","3A3KKYU7P33Z3BR9PPFZ5194ZCQMWU","","860","img/animal2.png","74","862","1","1","1","1,0.5,0,0,1,0.5,0.5,0,1",""
"","html-keyboard-response","250","233125","0.0-250.0","36WLNQG780WBP4ZF420MUYNYLZWBEV","A1XODDMY1SJ0H9","3A3KKYU7P33Z3BR9PPFZ5194ZCQMWU","","null","<img src=""img/animal2.png"" style=""width:200px; border:14px solid green;"">","null","","","","","",""
"","image-keyboard-response","251","233738","0.0-251.0","36WLNQG780WBP4ZF420MUYNYLZWBEV","A1XODDMY1SJ0H9","3A3KKYU7P33Z3BR9PPFZ5194ZCQMWU","","608","img/animal2.png","74","611","1","1","1","1,0.5,0,0,1,0.5,0.5,0,1",""
"","html-keyboard-response","252","234040","0.0-252.0","36WLNQG780WBP4ZF420MUYNYLZWBEV","A1XODDMY1SJ0H9","3A3KKYU7P33Z3BR9PPFZ5194ZCQMWU","","null","<img src=""img/animal2.png"" style=""width:200px; border:14px solid green;"">","null","","","","","",""
"","image-keyboard-response","253","234778","0.0-253.0","36WLNQG780WBP4ZF420MUYNYLZWBEV","A1XODDMY1SJ0H9","3A3KKYU7P33Z3BR9PPFZ5194ZCQMWU","","735","img/animal2.png","74","736","1","1","1","1,0.5,0,0,1,0.5,0.5,0,1",""
"","html-keyboard-response","254","235085","0.0-254.0","36WLNQG780WBP4ZF420MUYNYLZWBEV","A1XODDMY1SJ0H9","3A3KKYU7P33Z3BR9PPFZ5194ZCQMWU","","null","<img src=""img/animal2.png"" style=""width:200px; border:14px solid green;"">","null","","","","","",""
"","image-keyboard-response","255","235831","0.0-255.0","36WLNQG780WBP4ZF420MUYNYLZWBEV","A1XODDMY1SJ0H9","3A3KKYU7P33Z3BR9PPFZ5194ZCQMWU","","744","img/animal2.png","74","745","1","1","1","1,0.5,0,0,1,0.5,0.5,0,1",""
"","html-keyboard-response","256","236138","0.0-256.0","36WLNQG780WBP4ZF420MUYNYLZWBEV","A1XODDMY1SJ0H9","3A3KKYU7P33Z3BR9PPFZ5194ZCQMWU","","null","<img src=""img/animal2.png"" style=""width:200px; border:14px solid green;"">","null","","","","","",""
"","image-keyboard-response","257","236993","0.0-257.0","36WLNQG780WBP4ZF420MUYNYLZWBEV","A1XODDMY1SJ0H9","3A3KKYU7P33Z3BR9PPFZ5194ZCQMWU","","852","img/animal2.png","74","854","1","1","1","1,0.5,0,0,1,0.5,0.5,0,1",""
"","html-keyboard-response","258","237298","0.0-258.0","36WLNQG780WBP4ZF420MUYNYLZWBEV","A1XODDMY1SJ0H9","3A3KKYU7P33Z3BR9PPFZ5194ZCQMWU","","null","<img src=""img/animal2.png"" style=""width:200px; border:14px solid green;"">","null","","","","","",""
"","image-keyboard-response","259","238026","0.0-259.0","36WLNQG780WBP4ZF420MUYNYLZWBEV","A1XODDMY1SJ0H9","3A3KKYU7P33Z3BR9PPFZ5194ZCQMWU","","723","img/animal2.png","74","725","1","1","1","1,0.5,0,0,1,0.5,0.5,0,1",""
"","html-keyboard-response","260","238334","0.0-260.0","36WLNQG780WBP4ZF420MUYNYLZWBEV","A1XODDMY1SJ0H9","3A3KKYU7P33Z3BR9PPFZ5194ZCQMWU","","null","<img src=""img/animal2.png"" style=""width:200px; border:14px solid green;"">","null","","","","","",""
"","image-keyboard-response","261","239136","0.0-261.0","36WLNQG780WBP4ZF420MUYNYLZWBEV","A1XODDMY1SJ0H9","3A3KKYU7P33Z3BR9PPFZ5194ZCQMWU","","798","img/animal5.png","75","801","2","1","2","1,0.5,0,0,1,0.5,0.5,0,1",""
"","html-keyboard-response","262","239447","0.0-262.0","36WLNQG780WBP4ZF420MUYNYLZWBEV","A1XODDMY1SJ0H9","3A3KKYU7P33Z3BR9PPFZ5194ZCQMWU","","null","<img src=""img/animal5.png"" style=""width:200px; border:14px solid green;"">","null","","","","","",""
"","image-keyboard-response","263","240260","0.0-263.0","36WLNQG780WBP4ZF420MUYNYLZWBEV","A1XODDMY1SJ0H9","3A3KKYU7P33Z3BR9PPFZ5194ZCQMWU","","810","img/animal2.png","74","813","1","1","1","1,0.5,0,0,1,0.5,0.5,0,1",""
"","html-keyboard-response","264","240564","0.0-264.0","36WLNQG780WBP4ZF420MUYNYLZWBEV","A1XODDMY1SJ0H9","3A3KKYU7P33Z3BR9PPFZ5194ZCQMWU","","null","<img src=""img/animal2.png"" style=""width:200px; border:14px solid green;"">","null","","","","","",""
"","image-keyboard-response","265","241550","0.0-265.0","36WLNQG780WBP4ZF420MUYNYLZWBEV","A1XODDMY1SJ0H9","3A3KKYU7P33Z3BR9PPFZ5194ZCQMWU","","983","img/animal2.png","74","985","1","1","1","1,0.5,0,0,1,0.5,0.5,0,1",""
"","html-keyboard-response","266","241853","0.0-266.0","36WLNQG780WBP4ZF420MUYNYLZWBEV","A1XODDMY1SJ0H9","3A3KKYU7P33Z3BR9PPFZ5194ZCQMWU","","null","<img src=""img/animal2.png"" style=""width:200px; border:14px solid green;"">","null","","","","","",""
"","image-keyboard-response","267","242964","0.0-267.0","36WLNQG780WBP4ZF420MUYNYLZWBEV","A1XODDMY1SJ0H9","3A3KKYU7P33Z3BR9PPFZ5194ZCQMWU","","1109","img/animal5.png","75","1111","2","1","2","1,0.5,0,0,1,0.5,0.5,0,1",""
"","html-keyboard-response","268","243277","0.0-268.0","36WLNQG780WBP4ZF420MUYNYLZWBEV","A1XODDMY1SJ0H9","3A3KKYU7P33Z3BR9PPFZ5194ZCQMWU","","null","<img src=""img/animal5.png"" style=""width:200px; border:14px solid green;"">","null","","","","","",""
"","image-keyboard-response","269","244458","0.0-269.0","36WLNQG780WBP4ZF420MUYNYLZWBEV","A1XODDMY1SJ0H9","3A3KKYU7P33Z3BR9PPFZ5194ZCQMWU","","1179","img/animal5.png","75","1180","2","1","2","1,0.5,0,0,1,0.5,0.5,0,1",""
"","html-keyboard-response","270","244767","0.0-270.0","36WLNQG780WBP4ZF420MUYNYLZWBEV","A1XODDMY1SJ0H9","3A3KKYU7P33Z3BR9PPFZ5194ZCQMWU","","null","<img src=""img/animal5.png"" style=""width:200px; border:14px solid green;"">","null","","","","","",""
"","image-keyboard-response","271","290567","0.0-271.0","36WLNQG780WBP4ZF420MUYNYLZWBEV","A1XODDMY1SJ0H9","3A3KKYU7P33Z3BR9PPFZ5194ZCQMWU","","45795","img/animal6.png","76","45800","3","1","3","1,0.5,0,0,1,0.5,0.5,0,1",""
"","html-keyboard-response","272","290884","0.0-272.0","36WLNQG780WBP4ZF420MUYNYLZWBEV","A1XODDMY1SJ0H9","3A3KKYU7P33Z3BR9PPFZ5194ZCQMWU","","null","<img src=""img/animal6.png"" style=""width:200px; border:14px solid green;"">","null","","","","","",""
"","image-keyboard-response","273","291739","0.0-273.0","36WLNQG780WBP4ZF420MUYNYLZWBEV","A1XODDMY1SJ0H9","3A3KKYU7P33Z3BR9PPFZ5194ZCQMWU","","852","img/animal2.png","74","854","1","1","1","1,0.5,0,0,1,0.5,0.5,0,1",""
"","html-keyboard-response","274","292045","0.0-274.0","36WLNQG780WBP4ZF420MUYNYLZWBEV","A1XODDMY1SJ0H9","3A3KKYU7P33Z3BR9PPFZ5194ZCQMWU","","null","<img src=""img/animal2.png"" style=""width:200px; border:14px solid green;"">","null","","","","","",""
"","image-keyboard-response","275","292949","0.0-275.0","36WLNQG780WBP4ZF420MUYNYLZWBEV","A1XODDMY1SJ0H9","3A3KKYU7P33Z3BR9PPFZ5194ZCQMWU","","902","img/animal5.png","75","903","2","1","2","1,0.5,0,0,1,0.5,0.5,0,1",""
"","html-keyboard-response","276","293252","0.0-276.0","36WLNQG780WBP4ZF420MUYNYLZWBEV","A1XODDMY1SJ0H9","3A3KKYU7P33Z3BR9PPFZ5194ZCQMWU","","null","<img src=""img/animal5.png"" style=""width:200px; border:14px solid green;"">","null","","","","","",""
"","image-keyboard-response","277","328859","0.0-277.0","36WLNQG780WBP4ZF420MUYNYLZWBEV","A1XODDMY1SJ0H9","3A3KKYU7P33Z3BR9PPFZ5194ZCQMWU","","35605","img/animal6.png","76","35608","3","1","3","1,0.5,0,0,1,0.5,0.5,0,1",""
"","html-keyboard-response","278","329172","0.0-278.0","36WLNQG780WBP4ZF420MUYNYLZWBEV","A1XODDMY1SJ0H9","3A3KKYU7P33Z3BR9PPFZ5194ZCQMWU","","null","<img src=""img/animal6.png"" style=""width:200px; border:14px solid green;"">","null","","","","","",""
"","image-keyboard-response","279","330094","0.0-279.0","36WLNQG780WBP4ZF420MUYNYLZWBEV","A1XODDMY1SJ0H9","3A3KKYU7P33Z3BR9PPFZ5194ZCQMWU","","919","img/animal2.png","74","921","1","1","1","1,0.5,0,0,1,0.5,0.5,0,1",""
"","html-keyboard-response","280","330404","0.0-280.0","36WLNQG780WBP4ZF420MUYNYLZWBEV","A1XODDMY1SJ0H9","3A3KKYU7P33Z3BR9PPFZ5194ZCQMWU","","null","<img src=""img/animal2.png"" style=""width:200px; border:14px solid green;"">","null","","","","","",""
"","image-keyboard-response","281","331373","0.0-281.0","36WLNQG780WBP4ZF420MUYNYLZWBEV","A1XODDMY1SJ0H9","3A3KKYU7P33Z3BR9PPFZ5194ZCQMWU","","967","img/animal6.png","76","968","3","1","3","1,0.5,0,0,1,0.5,0.5,0,1",""
"","html-keyboard-response","282","331692","0.0-282.0","36WLNQG780WBP4ZF420MUYNYLZWBEV","A1XODDMY1SJ0H9","3A3KKYU7P33Z3BR9PPFZ5194ZCQMWU","","null","<img src=""img/animal6.png"" style=""width:200px; border:14px solid green;"">","null","","","","","",""
"","image-keyboard-response","283","332765","0.0-283.0","36WLNQG780WBP4ZF420MUYNYLZWBEV","A1XODDMY1SJ0H9","3A3KKYU7P33Z3BR9PPFZ5194ZCQMWU","","1070","img/animal6.png","76","1072","3","1","3","1,0.5,0,0,1,0.5,0.5,0,1",""
"","html-keyboard-response","284","333072","0.0-284.0","36WLNQG780WBP4ZF420MUYNYLZWBEV","A1XODDMY1SJ0H9","3A3KKYU7P33Z3BR9PPFZ5194ZCQMWU","","null","<img src=""img/animal6.png"" style=""width:200px; border:14px solid green;"">","null","","","","","",""
"","image-keyboard-response","285","335004","0.0-285.0","36WLNQG780WBP4ZF420MUYNYLZWBEV","A1XODDMY1SJ0H9","3A3KKYU7P33Z3BR9PPFZ5194ZCQMWU","","1930","img/animal5.png","75","1931","2","1","2","1,0.5,0,0,1,0.5,0.5,0,1",""
"","html-keyboard-response","286","335313","0.0-286.0","36WLNQG780WBP4ZF420MUYNYLZWBEV","A1XODDMY1SJ0H9","3A3KKYU7P33Z3BR9PPFZ5194ZCQMWU","","null","<img src=""img/animal5.png"" style=""width:200px; border:14px solid green;"">","null","","","","","",""
"","image-keyboard-response","287","338465","0.0-287.0","36WLNQG780WBP4ZF420MUYNYLZWBEV","A1XODDMY1SJ0H9","3A3KKYU7P33Z3BR9PPFZ5194ZCQMWU","","3147","img/animal6.png","76","3150","3","1","3","1,0.5,0,0,1,0.5,0.5,0,1",""
"","html-keyboard-response","288","338776","0.0-288.0","36WLNQG780WBP4ZF420MUYNYLZWBEV","A1XODDMY1SJ0H9","3A3KKYU7P33Z3BR9PPFZ5194ZCQMWU","","null","<img src=""img/animal6.png"" style=""width:200px; border:14px solid green;"">","null","","","","","",""
"","image-keyboard-response","289","339751","0.0-289.0","36WLNQG780WBP4ZF420MUYNYLZWBEV","A1XODDMY1SJ0H9","3A3KKYU7P33Z3BR9PPFZ5194ZCQMWU","","970","img/animal5.png","75","975","2","1","2","1,0.5,0,0,1,0.5,0.5,0,1",""
"","html-keyboard-response","290","340057","0.0-290.0","36WLNQG780WBP4ZF420MUYNYLZWBEV","A1XODDMY1SJ0H9","3A3KKYU7P33Z3BR9PPFZ5194ZCQMWU","","null","<img src=""img/animal5.png"" style=""width:200px; border:14px solid green;"">","null","","","","","",""
"","image-keyboard-response","291","340805","0.0-291.0","36WLNQG780WBP4ZF420MUYNYLZWBEV","A1XODDMY1SJ0H9","3A3KKYU7P33Z3BR9PPFZ5194ZCQMWU","","744","img/animal2.png","74","746","1","1","1","1,0.5,0,0,1,0.5,0.5,0,1",""
"","html-keyboard-response","292","341116","0.0-292.0","36WLNQG780WBP4ZF420MUYNYLZWBEV","A1XODDMY1SJ0H9","3A3KKYU7P33Z3BR9PPFZ5194ZCQMWU","","null","<img src=""img/animal2.png"" style=""width:200px; border:14px solid green;"">","null","","","","","",""
"","image-keyboard-response","293","341972","0.0-293.0","36WLNQG780WBP4ZF420MUYNYLZWBEV","A1XODDMY1SJ0H9","3A3KKYU7P33Z3BR9PPFZ5194ZCQMWU","","852","img/animal2.png","74","855","1","1","1","1,0.5,0,0,1,0.5,0.5,0,1",""
"","html-keyboard-response","294","342284","0.0-294.0","36WLNQG780WBP4ZF420MUYNYLZWBEV","A1XODDMY1SJ0H9","3A3KKYU7P33Z3BR9PPFZ5194ZCQMWU","","null","<img src=""img/animal2.png"" style=""width:200px; border:14px solid green;"">","null","","","","","",""
"","image-keyboard-response","295","343223","0.0-295.0","36WLNQG780WBP4ZF420MUYNYLZWBEV","A1XODDMY1SJ0H9","3A3KKYU7P33Z3BR9PPFZ5194ZCQMWU","","938","img/animal6.png","76","939","3","1","3","1,0.5,0,0,1,0.5,0.5,0,1",""
"","html-keyboard-response","296","343528","0.0-296.0","36WLNQG780WBP4ZF420MUYNYLZWBEV","A1XODDMY1SJ0H9","3A3KKYU7P33Z3BR9PPFZ5194ZCQMWU","","null","<img src=""img/animal6.png"" style=""width:200px; border:14px solid green;"">","null","","","","","",""
"","image-keyboard-response","297","344310","0.0-297.0","36WLNQG780WBP4ZF420MUYNYLZWBEV","A1XODDMY1SJ0H9","3A3KKYU7P33Z3BR9PPFZ5194ZCQMWU","","778","img/animal5.png","75","781","2","1","2","1,0.5,0,0,1,0.5,0.5,0,1",""
"","html-keyboard-response","298","344623","0.0-298.0","36WLNQG780WBP4ZF420MUYNYLZWBEV","A1XODDMY1SJ0H9","3A3KKYU7P33Z3BR9PPFZ5194ZCQMWU","","null","<img src=""img/animal5.png"" style=""width:200px; border:14px solid green;"">","null","","","","","",""
"","image-keyboard-response","299","345360","0.0-299.0","36WLNQG780WBP4ZF420MUYNYLZWBEV","A1XODDMY1SJ0H9","3A3KKYU7P33Z3BR9PPFZ5194ZCQMWU","","733","img/animal2.png","74","736","1","1","1","1,0.5,0,0,1,0.5,0.5,0,1",""
"","html-keyboard-response","300","345669","0.0-300.0","36WLNQG780WBP4ZF420MUYNYLZWBEV","A1XODDMY1SJ0H9","3A3KKYU7P33Z3BR9PPFZ5194ZCQMWU","","null","<img src=""img/animal2.png"" style=""width:200px; border:14px solid green;"">","null","","","","","",""
"","image-keyboard-response","301","346368","0.0-301.0","36WLNQG780WBP4ZF420MUYNYLZWBEV","A1XODDMY1SJ0H9","3A3KKYU7P33Z3BR9PPFZ5194ZCQMWU","","697","img/animal6.png","76","699","3","1","3","1,0.5,0,0,1,0.5,0.5,0,1",""
"","html-keyboard-response","302","346673","0.0-302.0","36WLNQG780WBP4ZF420MUYNYLZWBEV","A1XODDMY1SJ0H9","3A3KKYU7P33Z3BR9PPFZ5194ZCQMWU","","null","<img src=""img/animal6.png"" style=""width:200px; border:14px solid green;"">","null","","","","","",""
"","image-keyboard-response","303","347436","0.0-303.0","36WLNQG780WBP4ZF420MUYNYLZWBEV","A1XODDMY1SJ0H9","3A3KKYU7P33Z3BR9PPFZ5194ZCQMWU","","761","img/animal6.png","76","762","3","1","3","1,0.5,0,0,1,0.5,0.5,0,1",""
"","html-keyboard-response","304","347747","0.0-304.0","36WLNQG780WBP4ZF420MUYNYLZWBEV","A1XODDMY1SJ0H9","3A3KKYU7P33Z3BR9PPFZ5194ZCQMWU","","null","<img src=""img/animal6.png"" style=""width:200px; border:14px solid green;"">","null","","","","","",""
"","image-keyboard-response","305","348365","0.0-305.0","36WLNQG780WBP4ZF420MUYNYLZWBEV","A1XODDMY1SJ0H9","3A3KKYU7P33Z3BR9PPFZ5194ZCQMWU","","615","img/animal6.png","76","617","3","1","3","1,0.5,0,0,1,0.5,0.5,0,1",""
"","html-keyboard-response","306","348673","0.0-306.0","36WLNQG780WBP4ZF420MUYNYLZWBEV","A1XODDMY1SJ0H9","3A3KKYU7P33Z3BR9PPFZ5194ZCQMWU","","null","<img src=""img/animal6.png"" style=""width:200px; border:14px solid green;"">","null","","","","","",""
"","image-keyboard-response","307","349442","0.0-307.0","36WLNQG780WBP4ZF420MUYNYLZWBEV","A1XODDMY1SJ0H9","3A3KKYU7P33Z3BR9PPFZ5194ZCQMWU","","767","img/animal2.png","74","768","1","1","1","1,0.5,0,0,1,0.5,0.5,0,1",""
"","html-keyboard-response","308","349751","0.0-308.0","36WLNQG780WBP4ZF420MUYNYLZWBEV","A1XODDMY1SJ0H9","3A3KKYU7P33Z3BR9PPFZ5194ZCQMWU","","null","<img src=""img/animal2.png"" style=""width:200px; border:14px solid green;"">","null","","","","","",""
"","image-keyboard-response","309","350459","0.0-309.0","36WLNQG780WBP4ZF420MUYNYLZWBEV","A1XODDMY1SJ0H9","3A3KKYU7P33Z3BR9PPFZ5194ZCQMWU","","705","img/animal5.png","75","707","2","1","2","1,0.5,0,0,1,0.5,0.5,0,1",""
"","html-keyboard-response","310","350763","0.0-310.0","36WLNQG780WBP4ZF420MUYNYLZWBEV","A1XODDMY1SJ0H9","3A3KKYU7P33Z3BR9PPFZ5194ZCQMWU","","null","<img src=""img/animal5.png"" style=""width:200px; border:14px solid green;"">","null","","","","","",""
"","image-keyboard-response","311","351382","0.0-311.0","36WLNQG780WBP4ZF420MUYNYLZWBEV","A1XODDMY1SJ0H9","3A3KKYU7P33Z3BR9PPFZ5194ZCQMWU","","617","img/animal5.png","75","619","2","1","2","1,0.5,0,0,1,0.5,0.5,0,1",""
"","html-keyboard-response","312","351684","0.0-312.0","36WLNQG780WBP4ZF420MUYNYLZWBEV","A1XODDMY1SJ0H9","3A3KKYU7P33Z3BR9PPFZ5194ZCQMWU","","null","<img src=""img/animal5.png"" style=""width:200px; border:14px solid green;"">","null","","","","","",""
"","image-keyboard-response","313","352369","0.0-313.0","36WLNQG780WBP4ZF420MUYNYLZWBEV","A1XODDMY1SJ0H9","3A3KKYU7P33Z3BR9PPFZ5194ZCQMWU","","682","img/animal6.png","74","684","1","0","3","1,0.5,0,0,1,0.5,0.5,0,1",""
"","html-keyboard-response","314","352681","0.0-314.0","36WLNQG780WBP4ZF420MUYNYLZWBEV","A1XODDMY1SJ0H9","3A3KKYU7P33Z3BR9PPFZ5194ZCQMWU","","null","<img src=""img/animal6.png"" style=""width:200px;border:14px solid red;"">","null","","","","","",""
"","image-keyboard-response","315","352970","0.0-315.0","36WLNQG780WBP4ZF420MUYNYLZWBEV","A1XODDMY1SJ0H9","3A3KKYU7P33Z3BR9PPFZ5194ZCQMWU","","288","img/animal6.png","76","288","3","1","3","1,0.5,0,0,1,0.5,0.5,0,1",""
"","html-keyboard-response","316","353290","0.0-316.0","36WLNQG780WBP4ZF420MUYNYLZWBEV","A1XODDMY1SJ0H9","3A3KKYU7P33Z3BR9PPFZ5194ZCQMWU","","null","<img src=""img/animal6.png"" style=""width:200px; border:14px solid green;"">","null","","","","","",""
"","image-keyboard-response","317","354682","0.0-317.0","36WLNQG780WBP4ZF420MUYNYLZWBEV","A1XODDMY1SJ0H9","3A3KKYU7P33Z3BR9PPFZ5194ZCQMWU","","1390","img/animal6.png","76","1391","3","1","3","1,0.5,0,0,1,0.5,0.5,0,1",""
"","html-keyboard-response","318","354984","0.0-318.0","36WLNQG780WBP4ZF420MUYNYLZWBEV","A1XODDMY1SJ0H9","3A3KKYU7P33Z3BR9PPFZ5194ZCQMWU","","null","<img src=""img/animal6.png"" style=""width:200px; border:14px solid green;"">","null","","","","","",""
"","image-keyboard-response","319","355877","0.0-319.0","36WLNQG780WBP4ZF420MUYNYLZWBEV","A1XODDMY1SJ0H9","3A3KKYU7P33Z3BR9PPFZ5194ZCQMWU","","891","img/animal5.png","75","893","2","1","2","1,0.5,0,0,1,0.5,0.5,0,1",""
"","html-keyboard-response","320","356185","0.0-320.0","36WLNQG780WBP4ZF420MUYNYLZWBEV","A1XODDMY1SJ0H9","3A3KKYU7P33Z3BR9PPFZ5194ZCQMWU","","null","<img src=""img/animal5.png"" style=""width:200px; border:14px solid green;"">","null","","","","","",""
"","image-keyboard-response","321","357018","0.0-321.0","36WLNQG780WBP4ZF420MUYNYLZWBEV","A1XODDMY1SJ0H9","3A3KKYU7P33Z3BR9PPFZ5194ZCQMWU","","830","img/animal5.png","75","832","2","1","2","1,0.5,0,0,1,0.5,0.5,0,1",""
"","html-keyboard-response","322","357325","0.0-322.0","36WLNQG780WBP4ZF420MUYNYLZWBEV","A1XODDMY1SJ0H9","3A3KKYU7P33Z3BR9PPFZ5194ZCQMWU","","null","<img src=""img/animal5.png"" style=""width:200px; border:14px solid green;"">","null","","","","","",""
"","image-keyboard-response","323","358133","0.0-323.0","36WLNQG780WBP4ZF420MUYNYLZWBEV","A1XODDMY1SJ0H9","3A3KKYU7P33Z3BR9PPFZ5194ZCQMWU","","806","img/animal2.png","74","808","1","1","1","1,0.5,0,0,1,0.5,0.5,0,1",""
"","html-keyboard-response","324","358444","0.0-324.0","36WLNQG780WBP4ZF420MUYNYLZWBEV","A1XODDMY1SJ0H9","3A3KKYU7P33Z3BR9PPFZ5194ZCQMWU","","null","<img src=""img/animal2.png"" style=""width:200px; border:14px solid green;"">","null","","","","","",""
"","image-keyboard-response","325","359423","0.0-325.0","36WLNQG780WBP4ZF420MUYNYLZWBEV","A1XODDMY1SJ0H9","3A3KKYU7P33Z3BR9PPFZ5194ZCQMWU","","977","img/animal5.png","75","979","2","1","2","1,0.5,0,0,1,0.5,0.5,0,1",""
"","html-keyboard-response","326","359732","0.0-326.0","36WLNQG780WBP4ZF420MUYNYLZWBEV","A1XODDMY1SJ0H9","3A3KKYU7P33Z3BR9PPFZ5194ZCQMWU","","null","<img src=""img/animal5.png"" style=""width:200px; border:14px solid green;"">","null","","","","","",""
"","image-keyboard-response","327","360593","0.0-327.0","36WLNQG780WBP4ZF420MUYNYLZWBEV","A1XODDMY1SJ0H9","3A3KKYU7P33Z3BR9PPFZ5194ZCQMWU","","859","img/animal5.png","75","861","2","1","2","1,0.5,0,0,1,0.5,0.5,0,1",""
"","html-keyboard-response","328","360902","0.0-328.0","36WLNQG780WBP4ZF420MUYNYLZWBEV","A1XODDMY1SJ0H9","3A3KKYU7P33Z3BR9PPFZ5194ZCQMWU","","null","<img src=""img/animal5.png"" style=""width:200px; border:14px solid green;"">","null","","","","","",""
"","image-keyboard-response","329","361712","0.0-329.0","36WLNQG780WBP4ZF420MUYNYLZWBEV","A1XODDMY1SJ0H9","3A3KKYU7P33Z3BR9PPFZ5194ZCQMWU","","807","img/animal6.png","76","809","3","1","3","1,0.5,0,0,1,0.5,0.5,0,1",""
"","html-keyboard-response","330","362020","0.0-330.0","36WLNQG780WBP4ZF420MUYNYLZWBEV","A1XODDMY1SJ0H9","3A3KKYU7P33Z3BR9PPFZ5194ZCQMWU","","null","<img src=""img/animal6.png"" style=""width:200px; border:14px solid green;"">","null","","","","","",""
"","image-keyboard-response","331","363832","0.0-331.0","36WLNQG780WBP4ZF420MUYNYLZWBEV","A1XODDMY1SJ0H9","3A3KKYU7P33Z3BR9PPFZ5194ZCQMWU","","1809","img/animal5.png","75","1811","2","1","2","1,0.5,0,0,1,0.5,0.5,0,1",""
"","html-keyboard-response","332","364140","0.0-332.0","36WLNQG780WBP4ZF420MUYNYLZWBEV","A1XODDMY1SJ0H9","3A3KKYU7P33Z3BR9PPFZ5194ZCQMWU","","null","<img src=""img/animal5.png"" style=""width:200px; border:14px solid green;"">","null","","","","","",""
"","image-keyboard-response","333","365008","0.0-333.0","36WLNQG780WBP4ZF420MUYNYLZWBEV","A1XODDMY1SJ0H9","3A3KKYU7P33Z3BR9PPFZ5194ZCQMWU","","866","img/animal2.png","74","868","1","1","1","1,0.5,0,0,1,0.5,0.5,0,1",""
"","html-keyboard-response","334","365314","0.0-334.0","36WLNQG780WBP4ZF420MUYNYLZWBEV","A1XODDMY1SJ0H9","3A3KKYU7P33Z3BR9PPFZ5194ZCQMWU","","null","<img src=""img/animal2.png"" style=""width:200px; border:14px solid green;"">","null","","","","","",""
"","image-keyboard-response","335","366177","0.0-335.0","36WLNQG780WBP4ZF420MUYNYLZWBEV","A1XODDMY1SJ0H9","3A3KKYU7P33Z3BR9PPFZ5194ZCQMWU","","860","img/animal2.png","74","862","1","1","1","1,0.5,0,0,1,0.5,0.5,0,1",""
"","html-keyboard-response","336","366490","0.0-336.0","36WLNQG780WBP4ZF420MUYNYLZWBEV","A1XODDMY1SJ0H9","3A3KKYU7P33Z3BR9PPFZ5194ZCQMWU","","null","<img src=""img/animal2.png"" style=""width:200px; border:14px solid green;"">","null","","","","","",""
"","image-keyboard-response","337","367702","0.0-337.0","36WLNQG780WBP4ZF420MUYNYLZWBEV","A1XODDMY1SJ0H9","3A3KKYU7P33Z3BR9PPFZ5194ZCQMWU","","1208","img/animal6.png","76","1210","3","1","3","1,0.5,0,0,1,0.5,0.5,0,1",""
"","html-keyboard-response","338","368014","0.0-338.0","36WLNQG780WBP4ZF420MUYNYLZWBEV","A1XODDMY1SJ0H9","3A3KKYU7P33Z3BR9PPFZ5194ZCQMWU","","null","<img src=""img/animal6.png"" style=""width:200px; border:14px solid green;"">","null","","","","","",""
"","image-keyboard-response","339","368732","0.0-339.0","36WLNQG780WBP4ZF420MUYNYLZWBEV","A1XODDMY1SJ0H9","3A3KKYU7P33Z3BR9PPFZ5194ZCQMWU","","714","img/animal5.png","75","716","2","1","2","1,0.5,0,0,1,0.5,0.5,0,1",""
"","html-keyboard-response","340","369047","0.0-340.0","36WLNQG780WBP4ZF420MUYNYLZWBEV","A1XODDMY1SJ0H9","3A3KKYU7P33Z3BR9PPFZ5194ZCQMWU","","null","<img src=""img/animal5.png"" style=""width:200px; border:14px solid green;"">","null","","","","","",""
"","image-keyboard-response","341","369732","0.0-341.0","36WLNQG780WBP4ZF420MUYNYLZWBEV","A1XODDMY1SJ0H9","3A3KKYU7P33Z3BR9PPFZ5194ZCQMWU","","683","img/animal6.png","74","684","1","1","3","1,0.5,0,0,1,0.5,0.5,0,1",""
"","html-keyboard-response","342","370039","0.0-342.0","36WLNQG780WBP4ZF420MUYNYLZWBEV","A1XODDMY1SJ0H9","3A3KKYU7P33Z3BR9PPFZ5194ZCQMWU","","null","<img src=""img/animal6.png"" style=""width:200px; border:14px solid green;"">","null","","","","","",""
"","image-keyboard-response","343","370077","0.0-343.0","36WLNQG780WBP4ZF420MUYNYLZWBEV","A1XODDMY1SJ0H9","3A3KKYU7P33Z3BR9PPFZ5194ZCQMWU","","36","img/animal5.png","76","37","3","1","2","1,0.5,0,0,1,0.5,0.5,0,1",""
"","html-keyboard-response","344","370382","0.0-344.0","36WLNQG780WBP4ZF420MUYNYLZWBEV","A1XODDMY1SJ0H9","3A3KKYU7P33Z3BR9PPFZ5194ZCQMWU","","null","<img src=""img/animal5.png"" style=""width:200px; border:14px solid green;"">","null","","","","","",""
"","image-keyboard-response","345","371722","0.0-345.0","36WLNQG780WBP4ZF420MUYNYLZWBEV","A1XODDMY1SJ0H9","3A3KKYU7P33Z3BR9PPFZ5194ZCQMWU","","1338","img/animal6.png","76","1339","3","1","3","1,0.5,0,0,1,0.5,0.5,0,1",""
"","html-keyboard-response","346","372045","0.0-346.0","36WLNQG780WBP4ZF420MUYNYLZWBEV","A1XODDMY1SJ0H9","3A3KKYU7P33Z3BR9PPFZ5194ZCQMWU","","null","<img src=""img/animal6.png"" style=""width:200px; border:14px solid green;"">","null","","","","","",""
"","image-keyboard-response","347","372932","0.0-347.0","36WLNQG780WBP4ZF420MUYNYLZWBEV","A1XODDMY1SJ0H9","3A3KKYU7P33Z3BR9PPFZ5194ZCQMWU","","882","img/animal2.png","74","884","1","1","1","1,0.5,0,0,1,0.5,0.5,0,1",""
"","html-keyboard-response","348","373243","0.0-348.0","36WLNQG780WBP4ZF420MUYNYLZWBEV","A1XODDMY1SJ0H9","3A3KKYU7P33Z3BR9PPFZ5194ZCQMWU","","null","<img src=""img/animal2.png"" style=""width:200px; border:14px solid green;"">","null","","","","","",""
"","image-keyboard-response","349","373881","0.0-349.0","36WLNQG780WBP4ZF420MUYNYLZWBEV","A1XODDMY1SJ0H9","3A3KKYU7P33Z3BR9PPFZ5194ZCQMWU","","635","img/animal2.png","76","637","3","0","1","1,0.5,0,0,1,0.5,0.5,0,1",""
"","html-keyboard-response","350","374189","0.0-350.0","36WLNQG780WBP4ZF420MUYNYLZWBEV","A1XODDMY1SJ0H9","3A3KKYU7P33Z3BR9PPFZ5194ZCQMWU","","null","<img src=""img/animal2.png"" style=""width:200px;border:14px solid red;"">","null","","","","","",""
"","image-keyboard-response","351","375381","0.0-351.0","36WLNQG780WBP4ZF420MUYNYLZWBEV","A1XODDMY1SJ0H9","3A3KKYU7P33Z3BR9PPFZ5194ZCQMWU","","1192","img/animal6.png","76","1193","3","1","3","1,0.5,0,0,1,0.5,0.5,0,1",""
"","html-keyboard-response","352","375686","0.0-352.0","36WLNQG780WBP4ZF420MUYNYLZWBEV","A1XODDMY1SJ0H9","3A3KKYU7P33Z3BR9PPFZ5194ZCQMWU","","null","<img src=""img/animal6.png"" style=""width:200px; border:14px solid green;"">","null","","","","","",""
"","image-keyboard-response","353","376410","0.0-353.0","36WLNQG780WBP4ZF420MUYNYLZWBEV","A1XODDMY1SJ0H9","3A3KKYU7P33Z3BR9PPFZ5194ZCQMWU","","719","img/animal6.png","76","722","3","1","3","1,0.5,0,0,1,0.5,0.5,0,1",""
"","html-keyboard-response","354","376730","0.0-354.0","36WLNQG780WBP4ZF420MUYNYLZWBEV","A1XODDMY1SJ0H9","3A3KKYU7P33Z3BR9PPFZ5194ZCQMWU","","null","<img src=""img/animal6.png"" style=""width:200px; border:14px solid green;"">","null","","","","","",""
"","image-keyboard-response","355","377490","0.0-355.0","36WLNQG780WBP4ZF420MUYNYLZWBEV","A1XODDMY1SJ0H9","3A3KKYU7P33Z3BR9PPFZ5194ZCQMWU","","755","img/animal5.png","75","759","2","1","2","1,0.5,0,0,1,0.5,0.5,0,1",""
"","html-keyboard-response","356","377796","0.0-356.0","36WLNQG780WBP4ZF420MUYNYLZWBEV","A1XODDMY1SJ0H9","3A3KKYU7P33Z3BR9PPFZ5194ZCQMWU","","null","<img src=""img/animal5.png"" style=""width:200px; border:14px solid green;"">","null","","","","","",""
"","image-keyboard-response","357","378616","0.0-357.0","36WLNQG780WBP4ZF420MUYNYLZWBEV","A1XODDMY1SJ0H9","3A3KKYU7P33Z3BR9PPFZ5194ZCQMWU","","818","img/animal5.png","75","819","2","1","2","1,0.5,0,0,1,0.5,0.5,0,1",""
"","html-keyboard-response","358","378921","0.0-358.0","36WLNQG780WBP4ZF420MUYNYLZWBEV","A1XODDMY1SJ0H9","3A3KKYU7P33Z3BR9PPFZ5194ZCQMWU","","null","<img src=""img/animal5.png"" style=""width:200px; border:14px solid green;"">","null","","","","","",""
"","image-keyboard-response","359","379741","0.0-359.0","36WLNQG780WBP4ZF420MUYNYLZWBEV","A1XODDMY1SJ0H9","3A3KKYU7P33Z3BR9PPFZ5194ZCQMWU","","818","img/animal2.png","74","820","1","1","1","1,0.5,0,0,1,0.5,0.5,0,1",""
"","html-keyboard-response","360","380052","0.0-360.0","36WLNQG780WBP4ZF420MUYNYLZWBEV","A1XODDMY1SJ0H9","3A3KKYU7P33Z3BR9PPFZ5194ZCQMWU","","null","<img src=""img/animal2.png"" style=""width:200px; border:14px solid green;"">","null","","","","","",""
"","image-keyboard-response","361","380985","0.0-361.0","36WLNQG780WBP4ZF420MUYNYLZWBEV","A1XODDMY1SJ0H9","3A3KKYU7P33Z3BR9PPFZ5194ZCQMWU","","930","img/animal6.png","76","932","3","1","3","1,0.5,0,0,1,0.5,0.5,0,1",""
"","html-keyboard-response","362","381292","0.0-362.0","36WLNQG780WBP4ZF420MUYNYLZWBEV","A1XODDMY1SJ0H9","3A3KKYU7P33Z3BR9PPFZ5194ZCQMWU","","null","<img src=""img/animal6.png"" style=""width:200px; border:14px solid green;"">","null","","","","","",""
"","instructions","363","386103","0.0-363.0","36WLNQG780WBP4ZF420MUYNYLZWBEV","A1XODDMY1SJ0H9","3A3KKYU7P33Z3BR9PPFZ5194ZCQMWU","[{""page_index"":0,""viewing_time"":4808}]","4809","","","","","","","",""
"","survey-text","364","398205","0.0-364.0","36WLNQG780WBP4ZF420MUYNYLZWBEV","A1XODDMY1SJ0H9","3A3KKYU7P33Z3BR9PPFZ5194ZCQMWU","","12095","","","","","","","","{""Q0"":""A1XODDMY1SJ0H9""}"
