"success","trial_type","trial_index","time_elapsed","internal_node_id","assignmentID","mturkID","hitID","view_history","rt","stimulus","key_press","reactionTime","a","r","s","reward_cond","responses"
"true","fullscreen","0","3606","0.0-0.0","3LRLIPTPERV9SUMXUABTXIGXOYRAK8","A1YSYI926BBOHW","30F94FBDNR6BS3JI3VKF41RBJN4TBU","","","","","","","","","",""
"","instructions","1","26358","0.0-1.0","3LRLIPTPERV9SUMXUABTXIGXOYRAK8","A1YSYI926BBOHW","30F94FBDNR6BS3JI3VKF41RBJN4TBU","[{""page_index"":0,""viewing_time"":3366.8999999910593},{""page_index"":1,""viewing_time"":2137},{""page_index"":2,""viewing_time"":3035.9000000059605},{""page_index"":3,""viewing_time"":6848.0999999940395},{""page_index"":4,""viewing_time"":1563.9000000059605},{""page_index"":5,""viewing_time"":3064.0999999940395},{""page_index"":6,""viewing_time"":1035.9000000059605},{""page_index"":7,""viewing_time"":1696.5999999940395}]","22748.89999999106","","","","","","","",""
"","image-keyboard-response","2","28329","0.0-2.0","3LRLIPTPERV9SUMXUABTXIGXOYRAK8","A1YSYI926BBOHW","30F94FBDNR6BS3JI3VKF41RBJN4TBU","","1968.9000000059605","img/animal5.png","74","1970.300000011921","1","0","2","1,0.5,0,0,1,0.5,0.5,0,1",""
"","html-keyboard-response","3","28638","0.0-3.0","3LRLIPTPERV9SUMXUABTXIGXOYRAK8","A1YSYI926BBOHW","30F94FBDNR6BS3JI3VKF41RBJN4TBU","","null","<img src=""img/animal5.png"" style=""width:200px;border:14px solid red;"">","null","","","","","",""
"","image-keyboard-response","4","29625","0.0-4.0","3LRLIPTPERV9SUMXUABTXIGXOYRAK8","A1YSYI926BBOHW","30F94FBDNR6BS3JI3VKF41RBJN4TBU","","986.1999999880791","img/animal2.png","75","987","2","0","1","1,0.5,0,0,1,0.5,0.5,0,1",""
"","html-keyboard-response","5","29927","0.0-5.0","3LRLIPTPERV9SUMXUABTXIGXOYRAK8","A1YSYI926BBOHW","30F94FBDNR6BS3JI3VKF41RBJN4TBU","","null","<img src=""img/animal2.png"" style=""width:200px;border:14px solid red;"">","null","","","","","",""
"","image-keyboard-response","6","30587","0.0-6.0","3LRLIPTPERV9SUMXUABTXIGXOYRAK8","A1YSYI926BBOHW","30F94FBDNR6BS3JI3VKF41RBJN4TBU","","659.2000000029802","img/animal2.png","75","660.2999999970198","2","0","1","1,0.5,0,0,1,0.5,0.5,0,1",""
"","html-keyboard-response","7","30889","0.0-7.0","3LRLIPTPERV9SUMXUABTXIGXOYRAK8","A1YSYI926BBOHW","30F94FBDNR6BS3JI3VKF41RBJN4TBU","","null","<img src=""img/animal2.png"" style=""width:200px;border:14px solid red;"">","null","","","","","",""
"","image-keyboard-response","8","31712","0.0-8.0","3LRLIPTPERV9SUMXUABTXIGXOYRAK8","A1YSYI926BBOHW","30F94FBDNR6BS3JI3VKF41RBJN4TBU","","821.4000000059605","img/animal5.png","74","822.5","1","0","2","1,0.5,0,0,1,0.5,0.5,0,1",""
"","html-keyboard-response","9","32013","0.0-9.0","3LRLIPTPERV9SUMXUABTXIGXOYRAK8","A1YSYI926BBOHW","30F94FBDNR6BS3JI3VKF41RBJN4TBU","","null","<img src=""img/animal5.png"" style=""width:200px;border:14px solid red;"">","null","","","","","",""
"","image-keyboard-response","10","33064","0.0-10.0","3LRLIPTPERV9SUMXUABTXIGXOYRAK8","A1YSYI926BBOHW","30F94FBDNR6BS3JI3VKF41RBJN4TBU","","1050.5","img/animal2.png","75","1051.1000000089407","2","1","1","1,0.5,0,0,1,0.5,0.5,0,1",""
"","html-keyboard-response","11","33366","0.0-11.0","3LRLIPTPERV9SUMXUABTXIGXOYRAK8","A1YSYI926BBOHW","30F94FBDNR6BS3JI3VKF41RBJN4TBU","","null","<img src=""img/animal2.png"" style=""width:200px; border:14px solid green;"">","null","","","","","",""
"","image-keyboard-response","12","33731","0.0-12.0","3LRLIPTPERV9SUMXUABTXIGXOYRAK8","A1YSYI926BBOHW","30F94FBDNR6BS3JI3VKF41RBJN4TBU","","364.40000000596046","img/animal2.png","75","365.09999999403954","2","1","1","1,0.5,0,0,1,0.5,0.5,0,1",""
"","html-keyboard-response","13","34033","0.0-13.0","3LRLIPTPERV9SUMXUABTXIGXOYRAK8","A1YSYI926BBOHW","30F94FBDNR6BS3JI3VKF41RBJN4TBU","","null","<img src=""img/animal2.png"" style=""width:200px; border:14px solid green;"">","null","","","","","",""
"","image-keyboard-response","14","34442","0.0-14.0","3LRLIPTPERV9SUMXUABTXIGXOYRAK8","A1YSYI926BBOHW","30F94FBDNR6BS3JI3VKF41RBJN4TBU","","408.09999999403954","img/animal2.png","75","408.69999998807907","2","0","1","1,0.5,0,0,1,0.5,0.5,0,1",""
"","html-keyboard-response","15","34745","0.0-15.0","3LRLIPTPERV9SUMXUABTXIGXOYRAK8","A1YSYI926BBOHW","30F94FBDNR6BS3JI3VKF41RBJN4TBU","","null","<img src=""img/animal2.png"" style=""width:200px;border:14px solid red;"">","null","","","","","",""
"","image-keyboard-response","16","35518","0.0-16.0","3LRLIPTPERV9SUMXUABTXIGXOYRAK8","A1YSYI926BBOHW","30F94FBDNR6BS3JI3VKF41RBJN4TBU","","772.0999999940395","img/animal3.png","76","773.2000000029802","3","1","3","1,0.5,0,0,1,0.5,0.5,0,1",""
"","html-keyboard-response","17","35821","0.0-17.0","3LRLIPTPERV9SUMXUABTXIGXOYRAK8","A1YSYI926BBOHW","30F94FBDNR6BS3JI3VKF41RBJN4TBU","","null","<img src=""img/animal3.png"" style=""width:200px; border:14px solid green;"">","null","","","","","",""
"","image-keyboard-response","18","36556","0.0-18.0","3LRLIPTPERV9SUMXUABTXIGXOYRAK8","A1YSYI926BBOHW","30F94FBDNR6BS3JI3VKF41RBJN4TBU","","734","img/animal2.png","75","735","2","1","1","1,0.5,0,0,1,0.5,0.5,0,1",""
"","html-keyboard-response","19","36858","0.0-19.0","3LRLIPTPERV9SUMXUABTXIGXOYRAK8","A1YSYI926BBOHW","30F94FBDNR6BS3JI3VKF41RBJN4TBU","","null","<img src=""img/animal2.png"" style=""width:200px; border:14px solid green;"">","null","","","","","",""
"","image-keyboard-response","20","37194","0.0-20.0","3LRLIPTPERV9SUMXUABTXIGXOYRAK8","A1YSYI926BBOHW","30F94FBDNR6BS3JI3VKF41RBJN4TBU","","333.70000000298023","img/animal2.png","75","335.5","2","1","1","1,0.5,0,0,1,0.5,0.5,0,1",""
"","html-keyboard-response","21","37497","0.0-21.0","3LRLIPTPERV9SUMXUABTXIGXOYRAK8","A1YSYI926BBOHW","30F94FBDNR6BS3JI3VKF41RBJN4TBU","","null","<img src=""img/animal2.png"" style=""width:200px; border:14px solid green;"">","null","","","","","",""
"","image-keyboard-response","22","38197","0.0-22.0","3LRLIPTPERV9SUMXUABTXIGXOYRAK8","A1YSYI926BBOHW","30F94FBDNR6BS3JI3VKF41RBJN4TBU","","699.5","img/animal3.png","76","700.1999999880791","3","1","3","1,0.5,0,0,1,0.5,0.5,0,1",""
"","html-keyboard-response","23","38499","0.0-23.0","3LRLIPTPERV9SUMXUABTXIGXOYRAK8","A1YSYI926BBOHW","30F94FBDNR6BS3JI3VKF41RBJN4TBU","","null","<img src=""img/animal3.png"" style=""width:200px; border:14px solid green;"">","null","","","","","",""
"","image-keyboard-response","24","38872","0.0-24.0","3LRLIPTPERV9SUMXUABTXIGXOYRAK8","A1YSYI926BBOHW","30F94FBDNR6BS3JI3VKF41RBJN4TBU","","371.09999999403954","img/animal3.png","76","372","3","1","3","1,0.5,0,0,1,0.5,0.5,0,1",""
"","html-keyboard-response","25","39174","0.0-25.0","3LRLIPTPERV9SUMXUABTXIGXOYRAK8","A1YSYI926BBOHW","30F94FBDNR6BS3JI3VKF41RBJN4TBU","","null","<img src=""img/animal3.png"" style=""width:200px; border:14px solid green;"">","null","","","","","",""
"","image-keyboard-response","26","39912","0.0-26.0","3LRLIPTPERV9SUMXUABTXIGXOYRAK8","A1YSYI926BBOHW","30F94FBDNR6BS3JI3VKF41RBJN4TBU","","736.6000000089407","img/animal2.png","75","737.5","2","0","1","1,0.5,0,0,1,0.5,0.5,0,1",""
"","html-keyboard-response","27","40214","0.0-27.0","3LRLIPTPERV9SUMXUABTXIGXOYRAK8","A1YSYI926BBOHW","30F94FBDNR6BS3JI3VKF41RBJN4TBU","","null","<img src=""img/animal2.png"" style=""width:200px;border:14px solid red;"">","null","","","","","",""
"","image-keyboard-response","28","40765","0.0-28.0","3LRLIPTPERV9SUMXUABTXIGXOYRAK8","A1YSYI926BBOHW","30F94FBDNR6BS3JI3VKF41RBJN4TBU","","550.7999999970198","img/animal5.png","76","551.7999999970198","3","0","2","1,0.5,0,0,1,0.5,0.5,0,1",""
"","html-keyboard-response","29","41068","0.0-29.0","3LRLIPTPERV9SUMXUABTXIGXOYRAK8","A1YSYI926BBOHW","30F94FBDNR6BS3JI3VKF41RBJN4TBU","","null","<img src=""img/animal5.png"" style=""width:200px;border:14px solid red;"">","null","","","","","",""
"","image-keyboard-response","30","41529","0.0-30.0","3LRLIPTPERV9SUMXUABTXIGXOYRAK8","A1YSYI926BBOHW","30F94FBDNR6BS3JI3VKF41RBJN4TBU","","459.20000000298023","img/animal5.png","74","460.1000000089407","1","0","2","1,0.5,0,0,1,0.5,0.5,0,1",""
"","html-keyboard-response","31","41831","0.0-31.0","3LRLIPTPERV9SUMXUABTXIGXOYRAK8","A1YSYI926BBOHW","30F94FBDNR6BS3JI3VKF41RBJN4TBU","","null","<img src=""img/animal5.png"" style=""width:200px;border:14px solid red;"">","null","","","","","",""
"","image-keyboard-response","32","42604","0.0-32.0","3LRLIPTPERV9SUMXUABTXIGXOYRAK8","A1YSYI926BBOHW","30F94FBDNR6BS3JI3VKF41RBJN4TBU","","771.5","img/animal3.png","76","772.7000000029802","3","1","3","1,0.5,0,0,1,0.5,0.5,0,1",""
"","html-keyboard-response","33","42907","0.0-33.0","3LRLIPTPERV9SUMXUABTXIGXOYRAK8","A1YSYI926BBOHW","30F94FBDNR6BS3JI3VKF41RBJN4TBU","","null","<img src=""img/animal3.png"" style=""width:200px; border:14px solid green;"">","null","","","","","",""
"","image-keyboard-response","34","43382","0.0-34.0","3LRLIPTPERV9SUMXUABTXIGXOYRAK8","A1YSYI926BBOHW","30F94FBDNR6BS3JI3VKF41RBJN4TBU","","473.59999999403954","img/animal3.png","76","474.79999999701977","3","1","3","1,0.5,0,0,1,0.5,0.5,0,1",""
"","html-keyboard-response","35","43685","0.0-35.0","3LRLIPTPERV9SUMXUABTXIGXOYRAK8","A1YSYI926BBOHW","30F94FBDNR6BS3JI3VKF41RBJN4TBU","","null","<img src=""img/animal3.png"" style=""width:200px; border:14px solid green;"">","null","","","","","",""
"","image-keyboard-response","36","44367","0.0-36.0","3LRLIPTPERV9SUMXUABTXIGXOYRAK8","A1YSYI926BBOHW","30F94FBDNR6BS3JI3VKF41RBJN4TBU","","681.1999999880791","img/animal2.png","75","682.3999999910593","2","0","1","1,0.5,0,0,1,0.5,0.5,0,1",""
"","html-keyboard-response","37","44670","0.0-37.0","3LRLIPTPERV9SUMXUABTXIGXOYRAK8","A1YSYI926BBOHW","30F94FBDNR6BS3JI3VKF41RBJN4TBU","","null","<img src=""img/animal2.png"" style=""width:200px;border:14px solid red;"">","null","","","","","",""
"","image-keyboard-response","38","44978","0.0-38.0","3LRLIPTPERV9SUMXUABTXIGXOYRAK8","A1YSYI926BBOHW","30F94FBDNR6BS3JI3VKF41RBJN4TBU","","306.70000000298023","img/animal2.png","75","308","2","0","1","1,0.5,0,0,1,0.5,0.5,0,1",""
"","html-keyboard-response","39","45279","0.0-39.0","3LRLIPTPERV9SUMXUABTXIGXOYRAK8","A1YSYI926BBOHW","30F94FBDNR6BS3JI3VKF41RBJN4TBU","","null","<img src=""img/animal2.png"" style=""width:200px;border:14px solid red;"">","null","","","","","",""
"","image-keyboard-response","40","45811","0.0-40.0","3LRLIPTPERV9SUMXUABTXIGXOYRAK8","A1YSYI926BBOHW","30F94FBDNR6BS3JI3VKF41RBJN4TBU","","529.2000000029802","img/animal5.png","76","530.5999999940395","3","0","2","1,0.5,0,0,1,0.5,0.5,0,1",""
"","html-keyboard-response","41","46113","0.0-41.0","3LRLIPTPERV9SUMXUABTXIGXOYRAK8","A1YSYI926BBOHW","30F94FBDNR6BS3JI3VKF41RBJN4TBU","","null","<img src=""img/animal5.png"" style=""width:200px;border:14px solid red;"">","null","","","","","",""
"","image-keyboard-response","42","46738","0.0-42.0","3LRLIPTPERV9SUMXUABTXIGXOYRAK8","A1YSYI926BBOHW","30F94FBDNR6BS3JI3VKF41RBJN4TBU","","623.7999999970198","img/animal3.png","76","624.6999999880791","3","1","3","1,0.5,0,0,1,0.5,0.5,0,1",""
"","html-keyboard-response","43","47041","0.0-43.0","3LRLIPTPERV9SUMXUABTXIGXOYRAK8","A1YSYI926BBOHW","30F94FBDNR6BS3JI3VKF41RBJN4TBU","","null","<img src=""img/animal3.png"" style=""width:200px; border:14px solid green;"">","null","","","","","",""
"","image-keyboard-response","44","47718","0.0-44.0","3LRLIPTPERV9SUMXUABTXIGXOYRAK8","A1YSYI926BBOHW","30F94FBDNR6BS3JI3VKF41RBJN4TBU","","676","img/animal2.png","75","677.0999999940395","2","0","1","1,0.5,0,0,1,0.5,0.5,0,1",""
"","html-keyboard-response","45","48021","0.0-45.0","3LRLIPTPERV9SUMXUABTXIGXOYRAK8","A1YSYI926BBOHW","30F94FBDNR6BS3JI3VKF41RBJN4TBU","","null","<img src=""img/animal2.png"" style=""width:200px;border:14px solid red;"">","null","","","","","",""
"","image-keyboard-response","46","48324","0.0-46.0","3LRLIPTPERV9SUMXUABTXIGXOYRAK8","A1YSYI926BBOHW","30F94FBDNR6BS3JI3VKF41RBJN4TBU","","302.59999999403954","img/animal2.png","75","303.40000000596046","2","1","1","1,0.5,0,0,1,0.5,0.5,0,1",""
"","html-keyboard-response","47","48626","0.0-47.0","3LRLIPTPERV9SUMXUABTXIGXOYRAK8","A1YSYI926BBOHW","30F94FBDNR6BS3JI3VKF41RBJN4TBU","","null","<img src=""img/animal2.png"" style=""width:200px; border:14px solid green;"">","null","","","","","",""
"","image-keyboard-response","48","49260","0.0-48.0","3LRLIPTPERV9SUMXUABTXIGXOYRAK8","A1YSYI926BBOHW","30F94FBDNR6BS3JI3VKF41RBJN4TBU","","632.0999999940395","img/animal2.png","75","633.7000000029802","2","0","1","1,0.5,0,0,1,0.5,0.5,0,1",""
"","html-keyboard-response","49","49561","0.0-49.0","3LRLIPTPERV9SUMXUABTXIGXOYRAK8","A1YSYI926BBOHW","30F94FBDNR6BS3JI3VKF41RBJN4TBU","","null","<img src=""img/animal2.png"" style=""width:200px;border:14px solid red;"">","null","","","","","",""
"","image-keyboard-response","50","50239","0.0-50.0","3LRLIPTPERV9SUMXUABTXIGXOYRAK8","A1YSYI926BBOHW","30F94FBDNR6BS3JI3VKF41RBJN4TBU","","676.6999999880791","img/animal3.png","76","677.2000000029802","3","1","3","1,0.5,0,0,1,0.5,0.5,0,1",""
"","html-keyboard-response","51","50540","0.0-51.0","3LRLIPTPERV9SUMXUABTXIGXOYRAK8","A1YSYI926BBOHW","30F94FBDNR6BS3JI3VKF41RBJN4TBU","","null","<img src=""img/animal3.png"" style=""width:200px; border:14px solid green;"">","null","","","","","",""
"","image-keyboard-response","52","51177","0.0-52.0","3LRLIPTPERV9SUMXUABTXIGXOYRAK8","A1YSYI926BBOHW","30F94FBDNR6BS3JI3VKF41RBJN4TBU","","635.4000000059605","img/animal5.png","74","637","1","0","2","1,0.5,0,0,1,0.5,0.5,0,1",""
"","html-keyboard-response","53","51479","0.0-53.0","3LRLIPTPERV9SUMXUABTXIGXOYRAK8","A1YSYI926BBOHW","30F94FBDNR6BS3JI3VKF41RBJN4TBU","","null","<img src=""img/animal5.png"" style=""width:200px;border:14px solid red;"">","null","","","","","",""
"","image-keyboard-response","54","52301","0.0-54.0","3LRLIPTPERV9SUMXUABTXIGXOYRAK8","A1YSYI926BBOHW","30F94FBDNR6BS3JI3VKF41RBJN4TBU","","820.2999999970198","img/animal2.png","75","821.5999999940395","2","1","1","1,0.5,0,0,1,0.5,0.5,0,1",""
"","html-keyboard-response","55","52604","0.0-55.0","3LRLIPTPERV9SUMXUABTXIGXOYRAK8","A1YSYI926BBOHW","30F94FBDNR6BS3JI3VKF41RBJN4TBU","","null","<img src=""img/animal2.png"" style=""width:200px; border:14px solid green;"">","null","","","","","",""
"","image-keyboard-response","56","52973","0.0-56.0","3LRLIPTPERV9SUMXUABTXIGXOYRAK8","A1YSYI926BBOHW","30F94FBDNR6BS3JI3VKF41RBJN4TBU","","367.5","img/animal2.png","75","368.80000001192093","2","1","1","1,0.5,0,0,1,0.5,0.5,0,1",""
"","html-keyboard-response","57","53275","0.0-57.0","3LRLIPTPERV9SUMXUABTXIGXOYRAK8","A1YSYI926BBOHW","30F94FBDNR6BS3JI3VKF41RBJN4TBU","","null","<img src=""img/animal2.png"" style=""width:200px; border:14px solid green;"">","null","","","","","",""
"","image-keyboard-response","58","53787","0.0-58.0","3LRLIPTPERV9SUMXUABTXIGXOYRAK8","A1YSYI926BBOHW","30F94FBDNR6BS3JI3VKF41RBJN4TBU","","512","img/animal5.png","74","512.7000000029802","1","0","2","1,0.5,0,0,1,0.5,0.5,0,1",""
"","html-keyboard-response","59","54090","0.0-59.0","3LRLIPTPERV9SUMXUABTXIGXOYRAK8","A1YSYI926BBOHW","30F94FBDNR6BS3JI3VKF41RBJN4TBU","","null","<img src=""img/animal5.png"" style=""width:200px;border:14px solid red;"">","null","","","","","",""
"","image-keyboard-response","60","54701","0.0-60.0","3LRLIPTPERV9SUMXUABTXIGXOYRAK8","A1YSYI926BBOHW","30F94FBDNR6BS3JI3VKF41RBJN4TBU","","610.3999999910593","img/animal3.png","76","611.2999999970198","3","1","3","1,0.5,0,0,1,0.5,0.5,0,1",""
"","html-keyboard-response","61","55004","0.0-61.0","3LRLIPTPERV9SUMXUABTXIGXOYRAK8","A1YSYI926BBOHW","30F94FBDNR6BS3JI3VKF41RBJN4TBU","","null","<img src=""img/animal3.png"" style=""width:200px; border:14px solid green;"">","null","","","","","",""
"","image-keyboard-response","62","55688","0.0-62.0","3LRLIPTPERV9SUMXUABTXIGXOYRAK8","A1YSYI926BBOHW","30F94FBDNR6BS3JI3VKF41RBJN4TBU","","682.2999999970198","img/animal2.png","75","683.3999999910593","2","0","1","1,0.5,0,0,1,0.5,0.5,0,1",""
"","html-keyboard-response","63","55991","0.0-63.0","3LRLIPTPERV9SUMXUABTXIGXOYRAK8","A1YSYI926BBOHW","30F94FBDNR6BS3JI3VKF41RBJN4TBU","","null","<img src=""img/animal2.png"" style=""width:200px;border:14px solid red;"">","null","","","","","",""
"","image-keyboard-response","64","56741","0.0-64.0","3LRLIPTPERV9SUMXUABTXIGXOYRAK8","A1YSYI926BBOHW","30F94FBDNR6BS3JI3VKF41RBJN4TBU","","749.7999999970198","img/animal5.png","74","750.7000000029802","1","0","2","1,0.5,0,0,1,0.5,0.5,0,1",""
"","html-keyboard-response","65","57044","0.0-65.0","3LRLIPTPERV9SUMXUABTXIGXOYRAK8","A1YSYI926BBOHW","30F94FBDNR6BS3JI3VKF41RBJN4TBU","","null","<img src=""img/animal5.png"" style=""width:200px;border:14px solid red;"">","null","","","","","",""
"","image-keyboard-response","66","57420","0.0-66.0","3LRLIPTPERV9SUMXUABTXIGXOYRAK8","A1YSYI926BBOHW","30F94FBDNR6BS3JI3VKF41RBJN4TBU","","375.3999999910593","img/animal5.png","74","376","1","0","2","1,0.5,0,0,1,0.5,0.5,0,1",""
"","html-keyboard-response","67","57721","0.0-67.0","3LRLIPTPERV9SUMXUABTXIGXOYRAK8","A1YSYI926BBOHW","30F94FBDNR6BS3JI3VKF41RBJN4TBU","","null","<img src=""img/animal5.png"" style=""width:200px;border:14px solid red;"">","null","","","","","",""
"","image-keyboard-response","68","58281","0.0-68.0","3LRLIPTPERV9SUMXUABTXIGXOYRAK8","A1YSYI926BBOHW","30F94FBDNR6BS3JI3VKF41RBJN4TBU","","558.8999999910593","img/animal5.png","76","559.8999999910593","3","1","2","1,0.5,0,0,1,0.5,0.5,0,1",""
"","html-keyboard-response","69","58585","0.0-69.0","3LRLIPTPERV9SUMXUABTXIGXOYRAK8","A1YSYI926BBOHW","30F94FBDNR6BS3JI3VKF41RBJN4TBU","","null","<img src=""img/animal5.png"" style=""width:200px; border:14px solid green;"">","null","","","","","",""
"","image-keyboard-response","70","59374","0.0-70.0","3LRLIPTPERV9SUMXUABTXIGXOYRAK8","A1YSYI926BBOHW","30F94FBDNR6BS3JI3VKF41RBJN4TBU","","787.6000000089407","img/animal2.png","75","789.1999999880791","2","1","1","1,0.5,0,0,1,0.5,0.5,0,1",""
"","html-keyboard-response","71","59677","0.0-71.0","3LRLIPTPERV9SUMXUABTXIGXOYRAK8","A1YSYI926BBOHW","30F94FBDNR6BS3JI3VKF41RBJN4TBU","","null","<img src=""img/animal2.png"" style=""width:200px; border:14px solid green;"">","null","","","","","",""
"","image-keyboard-response","72","60256","0.0-72.0","3LRLIPTPERV9SUMXUABTXIGXOYRAK8","A1YSYI926BBOHW","30F94FBDNR6BS3JI3VKF41RBJN4TBU","","577.5999999940395","img/animal3.png","76","579","3","1","3","1,0.5,0,0,1,0.5,0.5,0,1",""
"","html-keyboard-response","73","60558","0.0-73.0","3LRLIPTPERV9SUMXUABTXIGXOYRAK8","A1YSYI926BBOHW","30F94FBDNR6BS3JI3VKF41RBJN4TBU","","null","<img src=""img/animal3.png"" style=""width:200px; border:14px solid green;"">","null","","","","","",""
"","image-keyboard-response","74","61087","0.0-74.0","3LRLIPTPERV9SUMXUABTXIGXOYRAK8","A1YSYI926BBOHW","30F94FBDNR6BS3JI3VKF41RBJN4TBU","","528.2999999970198","img/animal5.png","76","529.2999999970198","3","0","2","1,0.5,0,0,1,0.5,0.5,0,1",""
"","html-keyboard-response","75","61390","0.0-75.0","3LRLIPTPERV9SUMXUABTXIGXOYRAK8","A1YSYI926BBOHW","30F94FBDNR6BS3JI3VKF41RBJN4TBU","","null","<img src=""img/animal5.png"" style=""width:200px;border:14px solid red;"">","null","","","","","",""
"","image-keyboard-response","76","61741","0.0-76.0","3LRLIPTPERV9SUMXUABTXIGXOYRAK8","A1YSYI926BBOHW","30F94FBDNR6BS3JI3VKF41RBJN4TBU","","350.40000000596046","img/animal5.png","76","351","3","1","2","1,0.5,0,0,1,0.5,0.5,0,1",""
"","html-keyboard-response","77","62043","0.0-77.0","3LRLIPTPERV9SUMXUABTXIGXOYRAK8","A1YSYI926BBOHW","30F94FBDNR6BS3JI3VKF41RBJN4TBU","","null","<img src=""img/animal5.png"" style=""width:200px; border:14px solid green;"">","null","","","","","",""
"","image-keyboard-response","78","62693","0.0-78.0","3LRLIPTPERV9SUMXUABTXIGXOYRAK8","A1YSYI926BBOHW","30F94FBDNR6BS3JI3VKF41RBJN4TBU","","649.5999999940395","img/animal3.png","76","650.5999999940395","3","1","3","1,0.5,0,0,1,0.5,0.5,0,1",""
"","html-keyboard-response","79","62997","0.0-79.0","3LRLIPTPERV9SUMXUABTXIGXOYRAK8","A1YSYI926BBOHW","30F94FBDNR6BS3JI3VKF41RBJN4TBU","","null","<img src=""img/animal3.png"" style=""width:200px; border:14px solid green;"">","null","","","","","",""
"","image-keyboard-response","80","63334","0.0-80.0","3LRLIPTPERV9SUMXUABTXIGXOYRAK8","A1YSYI926BBOHW","30F94FBDNR6BS3JI3VKF41RBJN4TBU","","337.09999999403954","img/animal3.png","76","337.70000000298023","3","1","3","1,0.5,0,0,1,0.5,0.5,0,1",""
"","html-keyboard-response","81","63636","0.0-81.0","3LRLIPTPERV9SUMXUABTXIGXOYRAK8","A1YSYI926BBOHW","30F94FBDNR6BS3JI3VKF41RBJN4TBU","","null","<img src=""img/animal3.png"" style=""width:200px; border:14px solid green;"">","null","","","","","",""
"","image-keyboard-response","82","64366","0.0-82.0","3LRLIPTPERV9SUMXUABTXIGXOYRAK8","A1YSYI926BBOHW","30F94FBDNR6BS3JI3VKF41RBJN4TBU","","729.2000000029802","img/animal5.png","76","730","3","1","2","1,0.5,0,0,1,0.5,0.5,0,1",""
"","html-keyboard-response","83","64668","0.0-83.0","3LRLIPTPERV9SUMXUABTXIGXOYRAK8","A1YSYI926BBOHW","30F94FBDNR6BS3JI3VKF41RBJN4TBU","","null","<img src=""img/animal5.png"" style=""width:200px; border:14px solid green;"">","null","","","","","",""
"","image-keyboard-response","84","64976","0.0-84.0","3LRLIPTPERV9SUMXUABTXIGXOYRAK8","A1YSYI926BBOHW","30F94FBDNR6BS3JI3VKF41RBJN4TBU","","306.5","img/animal5.png","76","307.79999999701977","3","0","2","1,0.5,0,0,1,0.5,0.5,0,1",""
"","html-keyboard-response","85","65278","0.0-85.0","3LRLIPTPERV9SUMXUABTXIGXOYRAK8","A1YSYI926BBOHW","30F94FBDNR6BS3JI3VKF41RBJN4TBU","","null","<img src=""img/animal5.png"" style=""width:200px;border:14px solid red;"">","null","","","","","",""
"","image-keyboard-response","86","65663","0.0-86.0","3LRLIPTPERV9SUMXUABTXIGXOYRAK8","A1YSYI926BBOHW","30F94FBDNR6BS3JI3VKF41RBJN4TBU","","384","img/animal5.png","76","384.79999999701977","3","0","2","1,0.5,0,0,1,0.5,0.5,0,1",""
"","html-keyboard-response","87","65965","0.0-87.0","3LRLIPTPERV9SUMXUABTXIGXOYRAK8","A1YSYI926BBOHW","30F94FBDNR6BS3JI3VKF41RBJN4TBU","","null","<img src=""img/animal5.png"" style=""width:200px;border:14px solid red;"">","null","","","","","",""
"","image-keyboard-response","88","66203","0.0-88.0","3LRLIPTPERV9SUMXUABTXIGXOYRAK8","A1YSYI926BBOHW","30F94FBDNR6BS3JI3VKF41RBJN4TBU","","236.5","img/animal5.png","76","237.6000000089407","3","0","2","1,0.5,0,0,1,0.5,0.5,0,1",""
"","html-keyboard-response","89","66505","0.0-89.0","3LRLIPTPERV9SUMXUABTXIGXOYRAK8","A1YSYI926BBOHW","30F94FBDNR6BS3JI3VKF41RBJN4TBU","","null","<img src=""img/animal5.png"" style=""width:200px;border:14px solid red;"">","null","","","","","",""
"","image-keyboard-response","90","66744","0.0-90.0","3LRLIPTPERV9SUMXUABTXIGXOYRAK8","A1YSYI926BBOHW","30F94FBDNR6BS3JI3VKF41RBJN4TBU","","238.59999999403954","img/animal5.png","76","239.19999998807907","3","0","2","1,0.5,0,0,1,0.5,0.5,0,1",""
"","html-keyboard-response","91","67045","0.0-91.0","3LRLIPTPERV9SUMXUABTXIGXOYRAK8","A1YSYI926BBOHW","30F94FBDNR6BS3JI3VKF41RBJN4TBU","","null","<img src=""img/animal5.png"" style=""width:200px;border:14px solid red;"">","null","","","","","",""
"","image-keyboard-response","92","67271","0.0-92.0","3LRLIPTPERV9SUMXUABTXIGXOYRAK8","A1YSYI926BBOHW","30F94FBDNR6BS3JI3VKF41RBJN4TBU","","225.20000000298023","img/animal3.png","76","225.70000000298023","3","1","3","1,0.5,0,0,1,0.5,0.5,0,1",""
"","html-keyboard-response","93","67573","0.0-93.0","3LRLIPTPERV9SUMXUABTXIGXOYRAK8","A1YSYI926BBOHW","30F94FBDNR6BS3JI3VKF41RBJN4TBU","","null","<img src=""img/animal3.png"" style=""width:200px; border:14px solid green;"">","null","","","","","",""
"","image-keyboard-response","94","68172","0.0-94.0","3LRLIPTPERV9SUMXUABTXIGXOYRAK8","A1YSYI926BBOHW","30F94FBDNR6BS3JI3VKF41RBJN4TBU","","597.5999999940395","img/animal2.png","75","598.6000000089407","2","1","1","1,0.5,0,0,1,0.5,0.5,0,1",""
"","html-keyboard-response","95","68474","0.0-95.0","3LRLIPTPERV9SUMXUABTXIGXOYRAK8","A1YSYI926BBOHW","30F94FBDNR6BS3JI3VKF41RBJN4TBU","","null","<img src=""img/animal2.png"" style=""width:200px; border:14px solid green;"">","null","","","","","",""
"","image-keyboard-response","96","68961","0.0-96.0","3LRLIPTPERV9SUMXUABTXIGXOYRAK8","A1YSYI926BBOHW","30F94FBDNR6BS3JI3VKF41RBJN4TBU","","486","img/animal5.png","76","487.40000000596046","3","0","2","1,0.5,0,0,1,0.5,0.5,0,1",""
"","html-keyboard-response","97","69264","0.0-97.0","3LRLIPTPERV9SUMXUABTXIGXOYRAK8","A1YSYI926BBOHW","30F94FBDNR6BS3JI3VKF41RBJN4TBU","","null","<img src=""img/animal5.png"" style=""width:200px;border:14px solid red;"">","null","","","","","",""
"","image-keyboard-response","98","69817","0.0-98.0","3LRLIPTPERV9SUMXUABTXIGXOYRAK8","A1YSYI926BBOHW","30F94FBDNR6BS3JI3VKF41RBJN4TBU","","550.9000000059605","img/animal2.png","75","552.7999999970198","2","1","1","1,0.5,0,0,1,0.5,0.5,0,1",""
"","html-keyboard-response","99","70119","0.0-99.0","3LRLIPTPERV9SUMXUABTXIGXOYRAK8","A1YSYI926BBOHW","30F94FBDNR6BS3JI3VKF41RBJN4TBU","","null","<img src=""img/animal2.png"" style=""width:200px; border:14px solid green;"">","null","","","","","",""
"","image-keyboard-response","100","70723","0.0-100.0","3LRLIPTPERV9SUMXUABTXIGXOYRAK8","A1YSYI926BBOHW","30F94FBDNR6BS3JI3VKF41RBJN4TBU","","603.5","img/animal3.png","76","604.4000000059605","3","1","3","1,0.5,0,0,1,0.5,0.5,0,1",""
"","html-keyboard-response","101","71025","0.0-101.0","3LRLIPTPERV9SUMXUABTXIGXOYRAK8","A1YSYI926BBOHW","30F94FBDNR6BS3JI3VKF41RBJN4TBU","","null","<img src=""img/animal3.png"" style=""width:200px; border:14px solid green;"">","null","","","","","",""
"","image-keyboard-response","102","71667","0.0-102.0","3LRLIPTPERV9SUMXUABTXIGXOYRAK8","A1YSYI926BBOHW","30F94FBDNR6BS3JI3VKF41RBJN4TBU","","639.9000000059605","img/animal5.png","75","641.2000000029802","2","1","2","1,0.5,0,0,1,0.5,0.5,0,1",""
"","html-keyboard-response","103","71968","0.0-103.0","3LRLIPTPERV9SUMXUABTXIGXOYRAK8","A1YSYI926BBOHW","30F94FBDNR6BS3JI3VKF41RBJN4TBU","","null","<img src=""img/animal5.png"" style=""width:200px; border:14px solid green;"">","null","","","","","",""
"","image-keyboard-response","104","72331","0.0-104.0","3LRLIPTPERV9SUMXUABTXIGXOYRAK8","A1YSYI926BBOHW","30F94FBDNR6BS3JI3VKF41RBJN4TBU","","361.3999999910593","img/animal5.png","75","362.20000000298023","2","1","2","1,0.5,0,0,1,0.5,0.5,0,1",""
"","html-keyboard-response","105","72632","0.0-105.0","3LRLIPTPERV9SUMXUABTXIGXOYRAK8","A1YSYI926BBOHW","30F94FBDNR6BS3JI3VKF41RBJN4TBU","","null","<img src=""img/animal5.png"" style=""width:200px; border:14px solid green;"">","null","","","","","",""
"","image-keyboard-response","106","73168","0.0-106.0","3LRLIPTPERV9SUMXUABTXIGXOYRAK8","A1YSYI926BBOHW","30F94FBDNR6BS3JI3VKF41RBJN4TBU","","534.2000000029802","img/animal3.png","76","535","3","1","3","1,0.5,0,0,1,0.5,0.5,0,1",""
"","html-keyboard-response","107","73470","0.0-107.0","3LRLIPTPERV9SUMXUABTXIGXOYRAK8","A1YSYI926BBOHW","30F94FBDNR6BS3JI3VKF41RBJN4TBU","","null","<img src=""img/animal3.png"" style=""width:200px; border:14px solid green;"">","null","","","","","",""
"","image-keyboard-response","108","73815","0.0-108.0","3LRLIPTPERV9SUMXUABTXIGXOYRAK8","A1YSYI926BBOHW","30F94FBDNR6BS3JI3VKF41RBJN4TBU","","344.30000001192093","img/animal3.png","76","345","3","1","3","1,0.5,0,0,1,0.5,0.5,0,1",""
"","html-keyboard-response","109","74117","0.0-109.0","3LRLIPTPERV9SUMXUABTXIGXOYRAK8","A1YSYI926BBOHW","30F94FBDNR6BS3JI3VKF41RBJN4TBU","","null","<img src=""img/animal3.png"" style=""width:200px; border:14px solid green;"">","null","","","","","",""
"","image-keyboard-response","110","74627","0.0-110.0","3LRLIPTPERV9SUMXUABTXIGXOYRAK8","A1YSYI926BBOHW","30F94FBDNR6BS3JI3VKF41RBJN4TBU","","508","img/animal2.png","75","509.1000000089407","2","1","1","1,0.5,0,0,1,0.5,0.5,0,1",""
"","html-keyboard-response","111","74930","0.0-111.0","3LRLIPTPERV9SUMXUABTXIGXOYRAK8","A1YSYI926BBOHW","30F94FBDNR6BS3JI3VKF41RBJN4TBU","","null","<img src=""img/animal2.png"" style=""width:200px; border:14px solid green;"">","null","","","","","",""
"","image-keyboard-response","112","75206","0.0-112.0","3LRLIPTPERV9SUMXUABTXIGXOYRAK8","A1YSYI926BBOHW","30F94FBDNR6BS3JI3VKF41RBJN4TBU","","275","img/animal2.png","75","276.29999999701977","2","1","1","1,0.5,0,0,1,0.5,0.5,0,1",""
"","html-keyboard-response","113","75509","0.0-113.0","3LRLIPTPERV9SUMXUABTXIGXOYRAK8","A1YSYI926BBOHW","30F94FBDNR6BS3JI3VKF41RBJN4TBU","","null","<img src=""img/animal2.png"" style=""width:200px; border:14px solid green;"">","null","","","","","",""
"","image-keyboard-response","114","76137","0.0-114.0","3LRLIPTPERV9SUMXUABTXIGXOYRAK8","A1YSYI926BBOHW","30F94FBDNR6BS3JI3VKF41RBJN4TBU","","627.5","img/animal5.png","75","628.2999999970198","2","1","2","1,0.5,0,0,1,0.5,0.5,0,1",""
"","html-keyboard-response","115","76440","0.0-115.0","3LRLIPTPERV9SUMXUABTXIGXOYRAK8","A1YSYI926BBOHW","30F94FBDNR6BS3JI3VKF41RBJN4TBU","","null","<img src=""img/animal5.png"" style=""width:200px; border:14px solid green;"">","null","","","","","",""
"","image-keyboard-response","116","76962","0.0-116.0","3LRLIPTPERV9SUMXUABTXIGXOYRAK8","A1YSYI926BBOHW","30F94FBDNR6BS3JI3VKF41RBJN4TBU","","521.2000000029802","img/animal2.png","75","522.1000000089407","2","1","1","1,0.5,0,0,1,0.5,0.5,0,1",""
"","html-keyboard-response","117","77264","0.0-117.0","3LRLIPTPERV9SUMXUABTXIGXOYRAK8","A1YSYI926BBOHW","30F94FBDNR6BS3JI3VKF41RBJN4TBU","","null","<img src=""img/animal2.png"" style=""width:200px; border:14px solid green;"">","null","","","","","",""
"","image-keyboard-response","118","77699","0.0-118.0","3LRLIPTPERV9SUMXUABTXIGXOYRAK8","A1YSYI926BBOHW","30F94FBDNR6BS3JI3VKF41RBJN4TBU","","433.70000000298023","img/animal5.png","75","434.90000000596046","2","1","2","1,0.5,0,0,1,0.5,0.5,0,1",""
"","html-keyboard-response","119","78001","0.0-119.0","3LRLIPTPERV9SUMXUABTXIGXOYRAK8","A1YSYI926BBOHW","30F94FBDNR6BS3JI3VKF41RBJN4TBU","","null","<img src=""img/animal5.png"" style=""width:200px; border:14px solid green;"">","null","","","","","",""
"","image-keyboard-response","120","78447","0.0-120.0","3LRLIPTPERV9SUMXUABTXIGXOYRAK8","A1YSYI926BBOHW","30F94FBDNR6BS3JI3VKF41RBJN4TBU","","445.20000000298023","img/animal5.png","75","445.90000000596046","2","1","2","1,0.5,0,0,1,0.5,0.5,0,1",""
"","html-keyboard-response","121","78749","0.0-121.0","3LRLIPTPERV9SUMXUABTXIGXOYRAK8","A1YSYI926BBOHW","30F94FBDNR6BS3JI3VKF41RBJN4TBU","","null","<img src=""img/animal5.png"" style=""width:200px; border:14px solid green;"">","null","","","","","",""
"","image-keyboard-response","122","79055","0.0-122.0","3LRLIPTPERV9SUMXUABTXIGXOYRAK8","A1YSYI926BBOHW","30F94FBDNR6BS3JI3VKF41RBJN4TBU","","304.69999998807907","img/animal5.png","75","305.79999999701977","2","1","2","1,0.5,0,0,1,0.5,0.5,0,1",""
"","html-keyboard-response","123","79357","0.0-123.0","3LRLIPTPERV9SUMXUABTXIGXOYRAK8","A1YSYI926BBOHW","30F94FBDNR6BS3JI3VKF41RBJN4TBU","","null","<img src=""img/animal5.png"" style=""width:200px; border:14px solid green;"">","null","","","","","",""
"","image-keyboard-response","124","79910","0.0-124.0","3LRLIPTPERV9SUMXUABTXIGXOYRAK8","A1YSYI926BBOHW","30F94FBDNR6BS3JI3VKF41RBJN4TBU","","550.7999999970198","img/animal3.png","76","552","3","1","3","1,0.5,0,0,1,0.5,0.5,0,1",""
"","html-keyboard-response","125","80213","0.0-125.0","3LRLIPTPERV9SUMXUABTXIGXOYRAK8","A1YSYI926BBOHW","30F94FBDNR6BS3JI3VKF41RBJN4TBU","","null","<img src=""img/animal3.png"" style=""width:200px; border:14px solid green;"">","null","","","","","",""
"","image-keyboard-response","126","80529","0.0-126.0","3LRLIPTPERV9SUMXUABTXIGXOYRAK8","A1YSYI926BBOHW","30F94FBDNR6BS3JI3VKF41RBJN4TBU","","314.09999999403954","img/animal3.png","76","315.5","3","1","3","1,0.5,0,0,1,0.5,0.5,0,1",""
"","html-keyboard-response","127","80830","0.0-127.0","3LRLIPTPERV9SUMXUABTXIGXOYRAK8","A1YSYI926BBOHW","30F94FBDNR6BS3JI3VKF41RBJN4TBU","","null","<img src=""img/animal3.png"" style=""width:200px; border:14px solid green;"">","null","","","","","",""
"","image-keyboard-response","128","81283","0.0-128.0","3LRLIPTPERV9SUMXUABTXIGXOYRAK8","A1YSYI926BBOHW","30F94FBDNR6BS3JI3VKF41RBJN4TBU","","451.30000001192093","img/animal2.png","75","452.70000000298023","2","0","1","1,0.5,0,0,1,0.5,0.5,0,1",""
"","html-keyboard-response","129","81593","0.0-129.0","3LRLIPTPERV9SUMXUABTXIGXOYRAK8","A1YSYI926BBOHW","30F94FBDNR6BS3JI3VKF41RBJN4TBU","","null","<img src=""img/animal2.png"" style=""width:200px;border:14px solid red;"">","null","","","","","",""
"","image-keyboard-response","130","81979","0.0-130.0","3LRLIPTPERV9SUMXUABTXIGXOYRAK8","A1YSYI926BBOHW","30F94FBDNR6BS3JI3VKF41RBJN4TBU","","385.30000001192093","img/animal2.png","75","386.40000000596046","2","0","1","1,0.5,0,0,1,0.5,0.5,0,1",""
"","html-keyboard-response","131","82282","0.0-131.0","3LRLIPTPERV9SUMXUABTXIGXOYRAK8","A1YSYI926BBOHW","30F94FBDNR6BS3JI3VKF41RBJN4TBU","","null","<img src=""img/animal2.png"" style=""width:200px;border:14px solid red;"">","null","","","","","",""
"","image-keyboard-response","132","82937","0.0-132.0","3LRLIPTPERV9SUMXUABTXIGXOYRAK8","A1YSYI926BBOHW","30F94FBDNR6BS3JI3VKF41RBJN4TBU","","653.7000000029802","img/animal5.png","75","654.5999999940395","2","1","2","1,0.5,0,0,1,0.5,0.5,0,1",""
"","html-keyboard-response","133","83238","0.0-133.0","3LRLIPTPERV9SUMXUABTXIGXOYRAK8","A1YSYI926BBOHW","30F94FBDNR6BS3JI3VKF41RBJN4TBU","","null","<img src=""img/animal5.png"" style=""width:200px; border:14px solid green;"">","null","","","","","",""
"","image-keyboard-response","134","83708","0.0-134.0","3LRLIPTPERV9SUMXUABTXIGXOYRAK8","A1YSYI926BBOHW","30F94FBDNR6BS3JI3VKF41RBJN4TBU","","469.5","img/animal3.png","75","469.90000000596046","2","0","3","1,0.5,0,0,1,0.5,0.5,0,1",""
"","html-keyboard-response","135","84009","0.0-135.0","3LRLIPTPERV9SUMXUABTXIGXOYRAK8","A1YSYI926BBOHW","30F94FBDNR6BS3JI3VKF41RBJN4TBU","","null","<img src=""img/animal3.png"" style=""width:200px;border:14px solid red;"">","null","","","","","",""
"","image-keyboard-response","136","84042","0.0-136.0","3LRLIPTPERV9SUMXUABTXIGXOYRAK8","A1YSYI926BBOHW","30F94FBDNR6BS3JI3VKF41RBJN4TBU","","31.700000002980232","img/animal3.png","76","32.3999999910593","3","1","3","1,0.5,0,0,1,0.5,0.5,0,1",""
"","html-keyboard-response","137","84343","0.0-137.0","3LRLIPTPERV9SUMXUABTXIGXOYRAK8","A1YSYI926BBOHW","30F94FBDNR6BS3JI3VKF41RBJN4TBU","","null","<img src=""img/animal3.png"" style=""width:200px; border:14px solid green;"">","null","","","","","",""
"","image-keyboard-response","138","84952","0.0-138.0","3LRLIPTPERV9SUMXUABTXIGXOYRAK8","A1YSYI926BBOHW","30F94FBDNR6BS3JI3VKF41RBJN4TBU","","608.7999999970198","img/animal2.png","75","609.3000000119209","2","0","1","1,0.5,0,0,1,0.5,0.5,0,1",""
"","html-keyboard-response","139","85254","0.0-139.0","3LRLIPTPERV9SUMXUABTXIGXOYRAK8","A1YSYI926BBOHW","30F94FBDNR6BS3JI3VKF41RBJN4TBU","","null","<img src=""img/animal2.png"" style=""width:200px;border:14px solid red;"">","null","","","","","",""
"","image-keyboard-response","140","85829","0.0-140.0","3LRLIPTPERV9SUMXUABTXIGXOYRAK8","A1YSYI926BBOHW","30F94FBDNR6BS3JI3VKF41RBJN4TBU","","574","img/animal3.png","76","575.2000000029802","3","1","3","1,0.5,0,0,1,0.5,0.5,0,1",""
"","html-keyboard-response","141","86133","0.0-141.0","3LRLIPTPERV9SUMXUABTXIGXOYRAK8","A1YSYI926BBOHW","30F94FBDNR6BS3JI3VKF41RBJN4TBU","","null","<img src=""img/animal3.png"" style=""width:200px; border:14px solid green;"">","null","","","","","",""
"","image-keyboard-response","142","86674","0.0-142.0","3LRLIPTPERV9SUMXUABTXIGXOYRAK8","A1YSYI926BBOHW","30F94FBDNR6BS3JI3VKF41RBJN4TBU","","539.3999999910593","img/animal5.png","75","540.9000000059605","2","1","2","1,0.5,0,0,1,0.5,0.5,0,1",""
"","html-keyboard-response","143","86976","0.0-143.0","3LRLIPTPERV9SUMXUABTXIGXOYRAK8","A1YSYI926BBOHW","30F94FBDNR6BS3JI3VKF41RBJN4TBU","","null","<img src=""img/animal5.png"" style=""width:200px; border:14px solid green;"">","null","","","","","",""
"","image-keyboard-response","144","87606","0.0-144.0","3LRLIPTPERV9SUMXUABTXIGXOYRAK8","A1YSYI926BBOHW","30F94FBDNR6BS3JI3VKF41RBJN4TBU","","628","img/animal2.png","75","629.3999999910593","2","0","1","1,0.5,0,0,1,0.5,0.5,0,1",""
"","html-keyboard-response","145","87907","0.0-145.0","3LRLIPTPERV9SUMXUABTXIGXOYRAK8","A1YSYI926BBOHW","30F94FBDNR6BS3JI3VKF41RBJN4TBU","","null","<img src=""img/animal2.png"" style=""width:200px;border:14px solid red;"">","null","","","","","",""
"","image-keyboard-response","146","88483","0.0-146.0","3LRLIPTPERV9SUMXUABTXIGXOYRAK8","A1YSYI926BBOHW","30F94FBDNR6BS3JI3VKF41RBJN4TBU","","573.8000000119209","img/animal3.png","76","575.3999999910593","3","1","3","1,0.5,0,0,1,0.5,0.5,0,1",""
"","html-keyboard-response","147","88785","0.0-147.0","3LRLIPTPERV9SUMXUABTXIGXOYRAK8","A1YSYI926BBOHW","30F94FBDNR6BS3JI3VKF41RBJN4TBU","","null","<img src=""img/animal3.png"" style=""width:200px; border:14px solid green;"">","null","","","","","",""
"","image-keyboard-response","148","89452","0.0-148.0","3LRLIPTPERV9SUMXUABTXIGXOYRAK8","A1YSYI926BBOHW","30F94FBDNR6BS3JI3VKF41RBJN4TBU","","665","img/animal2.png","74","666.0999999940395","1","1","1","1,0.5,0,0,1,0.5,0.5,0,1",""
"","html-keyboard-response","149","89753","0.0-149.0","3LRLIPTPERV9SUMXUABTXIGXOYRAK8","A1YSYI926BBOHW","30F94FBDNR6BS3JI3VKF41RBJN4TBU","","null","<img src=""img/animal2.png"" style=""width:200px; border:14px solid green;"">","null","","","","","",""
"","image-keyboard-response","150","90473","0.0-150.0","3LRLIPTPERV9SUMXUABTXIGXOYRAK8","A1YSYI926BBOHW","30F94FBDNR6BS3JI3VKF41RBJN4TBU","","719.2000000029802","img/animal3.png","76","720.4000000059605","3","1","3","1,0.5,0,0,1,0.5,0.5,0,1",""
"","html-keyboard-response","151","90776","0.0-151.0","3LRLIPTPERV9SUMXUABTXIGXOYRAK8","A1YSYI926BBOHW","30F94FBDNR6BS3JI3VKF41RBJN4TBU","","null","<img src=""img/animal3.png"" style=""width:200px; border:14px solid green;"">","null","","","","","",""
"","image-keyboard-response","152","91516","0.0-152.0","3LRLIPTPERV9SUMXUABTXIGXOYRAK8","A1YSYI926BBOHW","30F94FBDNR6BS3JI3VKF41RBJN4TBU","","738.0999999940395","img/animal2.png","74","739.5","1","1","1","1,0.5,0,0,1,0.5,0.5,0,1",""
"","html-keyboard-response","153","91818","0.0-153.0","3LRLIPTPERV9SUMXUABTXIGXOYRAK8","A1YSYI926BBOHW","30F94FBDNR6BS3JI3VKF41RBJN4TBU","","null","<img src=""img/animal2.png"" style=""width:200px; border:14px solid green;"">","null","","","","","",""
"","image-keyboard-response","154","92293","0.0-154.0","3LRLIPTPERV9SUMXUABTXIGXOYRAK8","A1YSYI926BBOHW","30F94FBDNR6BS3JI3VKF41RBJN4TBU","","473.09999999403954","img/animal2.png","74","474.70000000298023","1","1","1","1,0.5,0,0,1,0.5,0.5,0,1",""
"","html-keyboard-response","155","92596","0.0-155.0","3LRLIPTPERV9SUMXUABTXIGXOYRAK8","A1YSYI926BBOHW","30F94FBDNR6BS3JI3VKF41RBJN4TBU","","null","<img src=""img/animal2.png"" style=""width:200px; border:14px solid green;"">","null","","","","","",""
"","image-keyboard-response","156","93342","0.0-156.0","3LRLIPTPERV9SUMXUABTXIGXOYRAK8","A1YSYI926BBOHW","30F94FBDNR6BS3JI3VKF41RBJN4TBU","","744.8000000119209","img/animal5.png","75","745.9000000059605","2","1","2","1,0.5,0,0,1,0.5,0.5,0,1",""
"","html-keyboard-response","157","93644","0.0-157.0","3LRLIPTPERV9SUMXUABTXIGXOYRAK8","A1YSYI926BBOHW","30F94FBDNR6BS3JI3VKF41RBJN4TBU","","null","<img src=""img/animal5.png"" style=""width:200px; border:14px solid green;"">","null","","","","","",""
"","image-keyboard-response","158","93939","0.0-158.0","3LRLIPTPERV9SUMXUABTXIGXOYRAK8","A1YSYI926BBOHW","30F94FBDNR6BS3JI3VKF41RBJN4TBU","","293.5","img/animal5.png","75","294.59999999403954","2","1","2","1,0.5,0,0,1,0.5,0.5,0,1",""
"","html-keyboard-response","159","94240","0.0-159.0","3LRLIPTPERV9SUMXUABTXIGXOYRAK8","A1YSYI926BBOHW","30F94FBDNR6BS3JI3VKF41RBJN4TBU","","null","<img src=""img/animal5.png"" style=""width:200px; border:14px solid green;"">","null","","","","","",""
"","image-keyboard-response","160","94885","0.0-160.0","3LRLIPTPERV9SUMXUABTXIGXOYRAK8","A1YSYI926BBOHW","30F94FBDNR6BS3JI3VKF41RBJN4TBU","","643.8999999910593","img/animal3.png","76","644.9000000059605","3","1","3","1,0.5,0,0,1,0.5,0.5,0,1",""
"","html-keyboard-response","161","95187","0.0-161.0","3LRLIPTPERV9SUMXUABTXIGXOYRAK8","A1YSYI926BBOHW","30F94FBDNR6BS3JI3VKF41RBJN4TBU","","null","<img src=""img/animal3.png"" style=""width:200px; border:14px solid green;"">","null","","","","","",""
"","image-keyboard-response","162","95532","0.0-162.0","3LRLIPTPERV9SUMXUABTXIGXOYRAK8","A1YSYI926BBOHW","30F94FBDNR6BS3JI3VKF41RBJN4TBU","","342.79999999701977","img/animal3.png","76","344","3","1","3","1,0.5,0,0,1,0.5,0.5,0,1",""
"","html-keyboard-response","163","95833","0.0-163.0","3LRLIPTPERV9SUMXUABTXIGXOYRAK8","A1YSYI926BBOHW","30F94FBDNR6BS3JI3VKF41RBJN4TBU","","null","<img src=""img/animal3.png"" style=""width:200px; border:14px solid green;"">","null","","","","","",""
"","image-keyboard-response","164","96182","0.0-164.0","3LRLIPTPERV9SUMXUABTXIGXOYRAK8","A1YSYI926BBOHW","30F94FBDNR6BS3JI3VKF41RBJN4TBU","","348.29999999701977","img/animal3.png","76","349","3","1","3","1,0.5,0,0,1,0.5,0.5,0,1",""
"","html-keyboard-response","165","96492","0.0-165.0","3LRLIPTPERV9SUMXUABTXIGXOYRAK8","A1YSYI926BBOHW","30F94FBDNR6BS3JI3VKF41RBJN4TBU","","null","<img src=""img/animal3.png"" style=""width:200px; border:14px solid green;"">","null","","","","","",""
"","image-keyboard-response","166","97050","0.0-166.0","3LRLIPTPERV9SUMXUABTXIGXOYRAK8","A1YSYI926BBOHW","30F94FBDNR6BS3JI3VKF41RBJN4TBU","","556.9000000059605","img/animal5.png","74","557.5","1","0","2","1,0.5,0,0,1,0.5,0.5,0,1",""
"","html-keyboard-response","167","97351","0.0-167.0","3LRLIPTPERV9SUMXUABTXIGXOYRAK8","A1YSYI926BBOHW","30F94FBDNR6BS3JI3VKF41RBJN4TBU","","null","<img src=""img/animal5.png"" style=""width:200px;border:14px solid red;"">","null","","","","","",""
"","image-keyboard-response","168","98066","0.0-168.0","3LRLIPTPERV9SUMXUABTXIGXOYRAK8","A1YSYI926BBOHW","30F94FBDNR6BS3JI3VKF41RBJN4TBU","","712.8999999910593","img/animal3.png","76","714.8999999910593","3","1","3","1,0.5,0,0,1,0.5,0.5,0,1",""
"","html-keyboard-response","169","98368","0.0-169.0","3LRLIPTPERV9SUMXUABTXIGXOYRAK8","A1YSYI926BBOHW","30F94FBDNR6BS3JI3VKF41RBJN4TBU","","null","<img src=""img/animal3.png"" style=""width:200px; border:14px solid green;"">","null","","","","","",""
"","image-keyboard-response","170","99036","0.0-170.0","3LRLIPTPERV9SUMXUABTXIGXOYRAK8","A1YSYI926BBOHW","30F94FBDNR6BS3JI3VKF41RBJN4TBU","","666.6000000089407","img/animal2.png","75","667.6999999880791","2","0","1","1,0.5,0,0,1,0.5,0.5,0,1",""
"","html-keyboard-response","171","99337","0.0-171.0","3LRLIPTPERV9SUMXUABTXIGXOYRAK8","A1YSYI926BBOHW","30F94FBDNR6BS3JI3VKF41RBJN4TBU","","null","<img src=""img/animal2.png"" style=""width:200px;border:14px solid red;"">","null","","","","","",""
"","image-keyboard-response","172","100001","0.0-172.0","3LRLIPTPERV9SUMXUABTXIGXOYRAK8","A1YSYI926BBOHW","30F94FBDNR6BS3JI3VKF41RBJN4TBU","","663","img/animal3.png","76","663.5999999940395","3","1","3","1,0.5,0,0,1,0.5,0.5,0,1",""
"","html-keyboard-response","173","100302","0.0-173.0","3LRLIPTPERV9SUMXUABTXIGXOYRAK8","A1YSYI926BBOHW","30F94FBDNR6BS3JI3VKF41RBJN4TBU","","null","<img src=""img/animal3.png"" style=""width:200px; border:14px solid green;"">","null","","","","","",""
"","image-keyboard-response","174","101157","0.0-174.0","3LRLIPTPERV9SUMXUABTXIGXOYRAK8","A1YSYI926BBOHW","30F94FBDNR6BS3JI3VKF41RBJN4TBU","","854","img/animal5.png","75","855","2","1","2","1,0.5,0,0,1,0.5,0.5,0,1",""
"","html-keyboard-response","175","101460","0.0-175.0","3LRLIPTPERV9SUMXUABTXIGXOYRAK8","A1YSYI926BBOHW","30F94FBDNR6BS3JI3VKF41RBJN4TBU","","null","<img src=""img/animal5.png"" style=""width:200px; border:14px solid green;"">","null","","","","","",""
"","image-keyboard-response","176","102201","0.0-176.0","3LRLIPTPERV9SUMXUABTXIGXOYRAK8","A1YSYI926BBOHW","30F94FBDNR6BS3JI3VKF41RBJN4TBU","","739.4000000059605","img/animal3.png","76","741","3","1","3","1,0.5,0,0,1,0.5,0.5,0,1",""
"","html-keyboard-response","177","102503","0.0-177.0","3LRLIPTPERV9SUMXUABTXIGXOYRAK8","A1YSYI926BBOHW","30F94FBDNR6BS3JI3VKF41RBJN4TBU","","null","<img src=""img/animal3.png"" style=""width:200px; border:14px solid green;"">","null","","","","","",""
"","image-keyboard-response","178","102868","0.0-178.0","3LRLIPTPERV9SUMXUABTXIGXOYRAK8","A1YSYI926BBOHW","30F94FBDNR6BS3JI3VKF41RBJN4TBU","","363.40000000596046","img/animal3.png","76","364.90000000596046","3","1","3","1,0.5,0,0,1,0.5,0.5,0,1",""
"","html-keyboard-response","179","103170","0.0-179.0","3LRLIPTPERV9SUMXUABTXIGXOYRAK8","A1YSYI926BBOHW","30F94FBDNR6BS3JI3VKF41RBJN4TBU","","null","<img src=""img/animal3.png"" style=""width:200px; border:14px solid green;"">","null","","","","","",""
"","image-keyboard-response","180","103550","0.0-180.0","3LRLIPTPERV9SUMXUABTXIGXOYRAK8","A1YSYI926BBOHW","30F94FBDNR6BS3JI3VKF41RBJN4TBU","","378.90000000596046","img/animal3.png","76","380.09999999403954","3","1","3","1,0.5,0,0,1,0.5,0.5,0,1",""
"","html-keyboard-response","181","103853","0.0-181.0","3LRLIPTPERV9SUMXUABTXIGXOYRAK8","A1YSYI926BBOHW","30F94FBDNR6BS3JI3VKF41RBJN4TBU","","null","<img src=""img/animal3.png"" style=""width:200px; border:14px solid green;"">","null","","","","","",""
"","html-keyboard-response","182","106743","0.0-182.0","3LRLIPTPERV9SUMXUABTXIGXOYRAK8","A1YSYI926BBOHW","30F94FBDNR6BS3JI3VKF41RBJN4TBU","","","","","","","","","",""
"","image-keyboard-response","183","108181","0.0-183.0","3LRLIPTPERV9SUMXUABTXIGXOYRAK8","A1YSYI926BBOHW","30F94FBDNR6BS3JI3VKF41RBJN4TBU","","1437.9000000059605","img/animal4.png","74","1439.1000000089407","1","1","2","1,0.5,0,1,0.5,0,0.5,0,1",""
"","html-keyboard-response","184","108485","0.0-184.0","3LRLIPTPERV9SUMXUABTXIGXOYRAK8","A1YSYI926BBOHW","30F94FBDNR6BS3JI3VKF41RBJN4TBU","","null","<img src=""img/animal4.png"" style=""width:200px; border:14px solid green;"">","null","","","","","",""
"","image-keyboard-response","185","109357","0.0-185.0","3LRLIPTPERV9SUMXUABTXIGXOYRAK8","A1YSYI926BBOHW","30F94FBDNR6BS3JI3VKF41RBJN4TBU","","870.5999999940395","img/animal1.png","74","871.6000000089407","1","1","1","1,0.5,0,1,0.5,0,0.5,0,1",""
"","html-keyboard-response","186","109659","0.0-186.0","3LRLIPTPERV9SUMXUABTXIGXOYRAK8","A1YSYI926BBOHW","30F94FBDNR6BS3JI3VKF41RBJN4TBU","","null","<img src=""img/animal1.png"" style=""width:200px; border:14px solid green;"">","null","","","","","",""
"","image-keyboard-response","187","110130","0.0-187.0","3LRLIPTPERV9SUMXUABTXIGXOYRAK8","A1YSYI926BBOHW","30F94FBDNR6BS3JI3VKF41RBJN4TBU","","469.8999999910593","img/animal4.png","74","470.70000000298023","1","1","2","1,0.5,0,1,0.5,0,0.5,0,1",""
"","html-keyboard-response","188","110432","0.0-188.0","3LRLIPTPERV9SUMXUABTXIGXOYRAK8","A1YSYI926BBOHW","30F94FBDNR6BS3JI3VKF41RBJN4TBU","","null","<img src=""img/animal4.png"" style=""width:200px; border:14px solid green;"">","null","","","","","",""
"","image-keyboard-response","189","110847","0.0-189.0","3LRLIPTPERV9SUMXUABTXIGXOYRAK8","A1YSYI926BBOHW","30F94FBDNR6BS3JI3VKF41RBJN4TBU","","414.09999999403954","img/animal4.png","74","415","1","1","2","1,0.5,0,1,0.5,0,0.5,0,1",""
"","html-keyboard-response","190","111149","0.0-190.0","3LRLIPTPERV9SUMXUABTXIGXOYRAK8","A1YSYI926BBOHW","30F94FBDNR6BS3JI3VKF41RBJN4TBU","","null","<img src=""img/animal4.png"" style=""width:200px; border:14px solid green;"">","null","","","","","",""
"","image-keyboard-response","191","111602","0.0-191.0","3LRLIPTPERV9SUMXUABTXIGXOYRAK8","A1YSYI926BBOHW","30F94FBDNR6BS3JI3VKF41RBJN4TBU","","450.5","img/animal1.png","74","452","1","1","1","1,0.5,0,1,0.5,0,0.5,0,1",""
"","html-keyboard-response","192","111905","0.0-192.0","3LRLIPTPERV9SUMXUABTXIGXOYRAK8","A1YSYI926BBOHW","30F94FBDNR6BS3JI3VKF41RBJN4TBU","","null","<img src=""img/animal1.png"" style=""width:200px; border:14px solid green;"">","null","","","","","",""
"","image-keyboard-response","193","112396","0.0-193.0","3LRLIPTPERV9SUMXUABTXIGXOYRAK8","A1YSYI926BBOHW","30F94FBDNR6BS3JI3VKF41RBJN4TBU","","488.69999998807907","img/animal4.png","74","490.59999999403954","1","1","2","1,0.5,0,1,0.5,0,0.5,0,1",""
"","html-keyboard-response","194","112698","0.0-194.0","3LRLIPTPERV9SUMXUABTXIGXOYRAK8","A1YSYI926BBOHW","30F94FBDNR6BS3JI3VKF41RBJN4TBU","","null","<img src=""img/animal4.png"" style=""width:200px; border:14px solid green;"">","null","","","","","",""
"","image-keyboard-response","195","113137","0.0-195.0","3LRLIPTPERV9SUMXUABTXIGXOYRAK8","A1YSYI926BBOHW","30F94FBDNR6BS3JI3VKF41RBJN4TBU","","436.79999999701977","img/animal1.png","74","438","1","1","1","1,0.5,0,1,0.5,0,0.5,0,1",""
"","html-keyboard-response","196","113439","0.0-196.0","3LRLIPTPERV9SUMXUABTXIGXOYRAK8","A1YSYI926BBOHW","30F94FBDNR6BS3JI3VKF41RBJN4TBU","","null","<img src=""img/animal1.png"" style=""width:200px; border:14px solid green;"">","null","","","","","",""
"","image-keyboard-response","197","113751","0.0-197.0","3LRLIPTPERV9SUMXUABTXIGXOYRAK8","A1YSYI926BBOHW","30F94FBDNR6BS3JI3VKF41RBJN4TBU","","310.19999998807907","img/animal1.png","74","311.90000000596046","1","1","1","1,0.5,0,1,0.5,0,0.5,0,1",""
"","html-keyboard-response","198","114053","0.0-198.0","3LRLIPTPERV9SUMXUABTXIGXOYRAK8","A1YSYI926BBOHW","30F94FBDNR6BS3JI3VKF41RBJN4TBU","","null","<img src=""img/animal1.png"" style=""width:200px; border:14px solid green;"">","null","","","","","",""
"","image-keyboard-response","199","114592","0.0-199.0","3LRLIPTPERV9SUMXUABTXIGXOYRAK8","A1YSYI926BBOHW","30F94FBDNR6BS3JI3VKF41RBJN4TBU","","538.5","img/animal4.png","74","539.0999999940395","1","1","2","1,0.5,0,1,0.5,0,0.5,0,1",""
"","html-keyboard-response","200","114894","0.0-200.0","3LRLIPTPERV9SUMXUABTXIGXOYRAK8","A1YSYI926BBOHW","30F94FBDNR6BS3JI3VKF41RBJN4TBU","","null","<img src=""img/animal4.png"" style=""width:200px; border:14px solid green;"">","null","","","","","",""
"","image-keyboard-response","201","115180","0.0-201.0","3LRLIPTPERV9SUMXUABTXIGXOYRAK8","A1YSYI926BBOHW","30F94FBDNR6BS3JI3VKF41RBJN4TBU","","284.09999999403954","img/animal1.png","74","285.40000000596046","1","1","1","1,0.5,0,1,0.5,0,0.5,0,1",""
"","html-keyboard-response","202","115482","0.0-202.0","3LRLIPTPERV9SUMXUABTXIGXOYRAK8","A1YSYI926BBOHW","30F94FBDNR6BS3JI3VKF41RBJN4TBU","","null","<img src=""img/animal1.png"" style=""width:200px; border:14px solid green;"">","null","","","","","",""
"","image-keyboard-response","203","115716","0.0-203.0","3LRLIPTPERV9SUMXUABTXIGXOYRAK8","A1YSYI926BBOHW","30F94FBDNR6BS3JI3VKF41RBJN4TBU","","232.29999999701977","img/animal1.png","74","233.40000000596046","1","1","1","1,0.5,0,1,0.5,0,0.5,0,1",""
"","html-keyboard-response","204","116018","0.0-204.0","3LRLIPTPERV9SUMXUABTXIGXOYRAK8","A1YSYI926BBOHW","30F94FBDNR6BS3JI3VKF41RBJN4TBU","","null","<img src=""img/animal1.png"" style=""width:200px; border:14px solid green;"">","null","","","","","",""
"","image-keyboard-response","205","116420","0.0-205.0","3LRLIPTPERV9SUMXUABTXIGXOYRAK8","A1YSYI926BBOHW","30F94FBDNR6BS3JI3VKF41RBJN4TBU","","400.79999999701977","img/animal4.png","74","401.79999999701977","1","1","2","1,0.5,0,1,0.5,0,0.5,0,1",""
"","html-keyboard-response","206","116722","0.0-206.0","3LRLIPTPERV9SUMXUABTXIGXOYRAK8","A1YSYI926BBOHW","30F94FBDNR6BS3JI3VKF41RBJN4TBU","","null","<img src=""img/animal4.png"" style=""width:200px; border:14px solid green;"">","null","","","","","",""
"","image-keyboard-response","207","117037","0.0-207.0","3LRLIPTPERV9SUMXUABTXIGXOYRAK8","A1YSYI926BBOHW","30F94FBDNR6BS3JI3VKF41RBJN4TBU","","313.40000000596046","img/animal1.png","74","315","1","1","1","1,0.5,0,1,0.5,0,0.5,0,1",""
"","html-keyboard-response","208","117340","0.0-208.0","3LRLIPTPERV9SUMXUABTXIGXOYRAK8","A1YSYI926BBOHW","30F94FBDNR6BS3JI3VKF41RBJN4TBU","","null","<img src=""img/animal1.png"" style=""width:200px; border:14px solid green;"">","null","","","","","",""
"","image-keyboard-response","209","117535","0.0-209.0","3LRLIPTPERV9SUMXUABTXIGXOYRAK8","A1YSYI926BBOHW","30F94FBDNR6BS3JI3VKF41RBJN4TBU","","193.19999998807907","img/animal1.png","74","194.40000000596046","1","1","1","1,0.5,0,1,0.5,0,0.5,0,1",""
"","html-keyboard-response","210","117837","0.0-210.0","3LRLIPTPERV9SUMXUABTXIGXOYRAK8","A1YSYI926BBOHW","30F94FBDNR6BS3JI3VKF41RBJN4TBU","","null","<img src=""img/animal1.png"" style=""width:200px; border:14px solid green;"">","null","","","","","",""
"","image-keyboard-response","211","117976","0.0-211.0","3LRLIPTPERV9SUMXUABTXIGXOYRAK8","A1YSYI926BBOHW","30F94FBDNR6BS3JI3VKF41RBJN4TBU","","137.70000000298023","img/animal4.png","74","138.79999999701977","1","1","2","1,0.5,0,1,0.5,0,0.5,0,1",""
"","html-keyboard-response","212","118277","0.0-212.0","3LRLIPTPERV9SUMXUABTXIGXOYRAK8","A1YSYI926BBOHW","30F94FBDNR6BS3JI3VKF41RBJN4TBU","","null","<img src=""img/animal4.png"" style=""width:200px; border:14px solid green;"">","null","","","","","",""
"","image-keyboard-response","213","118371","0.0-213.0","3LRLIPTPERV9SUMXUABTXIGXOYRAK8","A1YSYI926BBOHW","30F94FBDNR6BS3JI3VKF41RBJN4TBU","","92.90000000596046","img/animal6.png","74","93.79999999701977","1","0","3","1,0.5,0,1,0.5,0,0.5,0,1",""
"","html-keyboard-response","214","118674","0.0-214.0","3LRLIPTPERV9SUMXUABTXIGXOYRAK8","A1YSYI926BBOHW","30F94FBDNR6BS3JI3VKF41RBJN4TBU","","null","<img src=""img/animal6.png"" style=""width:200px;border:14px solid red;"">","null","","","","","",""
"","image-keyboard-response","215","118677","0.0-215.0","3LRLIPTPERV9SUMXUABTXIGXOYRAK8","A1YSYI926BBOHW","30F94FBDNR6BS3JI3VKF41RBJN4TBU","","1","img/animal6.png","74","2.7999999970197678","1","0","3","1,0.5,0,1,0.5,0,0.5,0,1",""
"","html-keyboard-response","216","118980","0.0-216.0","3LRLIPTPERV9SUMXUABTXIGXOYRAK8","A1YSYI926BBOHW","30F94FBDNR6BS3JI3VKF41RBJN4TBU","","null","<img src=""img/animal6.png"" style=""width:200px;border:14px solid red;"">","null","","","","","",""
"","image-keyboard-response","217","119533","0.0-217.0","3LRLIPTPERV9SUMXUABTXIGXOYRAK8","A1YSYI926BBOHW","30F94FBDNR6BS3JI3VKF41RBJN4TBU","","553","img/animal6.png","75","554","2","0","3","1,0.5,0,1,0.5,0,0.5,0,1",""
"","html-keyboard-response","218","119837","0.0-218.0","3LRLIPTPERV9SUMXUABTXIGXOYRAK8","A1YSYI926BBOHW","30F94FBDNR6BS3JI3VKF41RBJN4TBU","","null","<img src=""img/animal6.png"" style=""width:200px;border:14px solid red;"">","null","","","","","",""
"","image-keyboard-response","219","120713","0.0-219.0","3LRLIPTPERV9SUMXUABTXIGXOYRAK8","A1YSYI926BBOHW","30F94FBDNR6BS3JI3VKF41RBJN4TBU","","874.5999999940395","img/animal4.png","74","875.7999999970198","1","1","2","1,0.5,0,1,0.5,0,0.5,0,1",""
"","html-keyboard-response","220","121017","0.0-220.0","3LRLIPTPERV9SUMXUABTXIGXOYRAK8","A1YSYI926BBOHW","30F94FBDNR6BS3JI3VKF41RBJN4TBU","","null","<img src=""img/animal4.png"" style=""width:200px; border:14px solid green;"">","null","","","","","",""
"","image-keyboard-response","221","121665","0.0-221.0","3LRLIPTPERV9SUMXUABTXIGXOYRAK8","A1YSYI926BBOHW","30F94FBDNR6BS3JI3VKF41RBJN4TBU","","647.7999999970198","img/animal1.png","74","648.5","1","1","1","1,0.5,0,1,0.5,0,0.5,0,1",""
"","html-keyboard-response","222","121967","0.0-222.0","3LRLIPTPERV9SUMXUABTXIGXOYRAK8","A1YSYI926BBOHW","30F94FBDNR6BS3JI3VKF41RBJN4TBU","","null","<img src=""img/animal1.png"" style=""width:200px; border:14px solid green;"">","null","","","","","",""
"","image-keyboard-response","223","122440","0.0-223.0","3LRLIPTPERV9SUMXUABTXIGXOYRAK8","A1YSYI926BBOHW","30F94FBDNR6BS3JI3VKF41RBJN4TBU","","471.70000000298023","img/animal6.png","75","472.6000000089407","2","0","3","1,0.5,0,1,0.5,0,0.5,0,1",""
"","html-keyboard-response","224","122743","0.0-224.0","3LRLIPTPERV9SUMXUABTXIGXOYRAK8","A1YSYI926BBOHW","30F94FBDNR6BS3JI3VKF41RBJN4TBU","","null","<img src=""img/animal6.png"" style=""width:200px;border:14px solid red;"">","null","","","","","",""
"","image-keyboard-response","225","123232","0.0-225.0","3LRLIPTPERV9SUMXUABTXIGXOYRAK8","A1YSYI926BBOHW","30F94FBDNR6BS3JI3VKF41RBJN4TBU","","487.6000000089407","img/animal6.png","76","488.90000000596046","3","1","3","1,0.5,0,1,0.5,0,0.5,0,1",""
"","html-keyboard-response","226","123534","0.0-226.0","3LRLIPTPERV9SUMXUABTXIGXOYRAK8","A1YSYI926BBOHW","30F94FBDNR6BS3JI3VKF41RBJN4TBU","","null","<img src=""img/animal6.png"" style=""width:200px; border:14px solid green;"">","null","","","","","",""
"","image-keyboard-response","227","124004","0.0-227.0","3LRLIPTPERV9SUMXUABTXIGXOYRAK8","A1YSYI926BBOHW","30F94FBDNR6BS3JI3VKF41RBJN4TBU","","470.09999999403954","img/animal1.png","74","470.59999999403954","1","1","1","1,0.5,0,1,0.5,0,0.5,0,1",""
"","html-keyboard-response","228","124306","0.0-228.0","3LRLIPTPERV9SUMXUABTXIGXOYRAK8","A1YSYI926BBOHW","30F94FBDNR6BS3JI3VKF41RBJN4TBU","","null","<img src=""img/animal1.png"" style=""width:200px; border:14px solid green;"">","null","","","","","",""
"","image-keyboard-response","229","124602","0.0-229.0","3LRLIPTPERV9SUMXUABTXIGXOYRAK8","A1YSYI926BBOHW","30F94FBDNR6BS3JI3VKF41RBJN4TBU","","295","img/animal1.png","74","296.20000000298023","1","1","1","1,0.5,0,1,0.5,0,0.5,0,1",""
"","html-keyboard-response","230","124905","0.0-230.0","3LRLIPTPERV9SUMXUABTXIGXOYRAK8","A1YSYI926BBOHW","30F94FBDNR6BS3JI3VKF41RBJN4TBU","","null","<img src=""img/animal1.png"" style=""width:200px; border:14px solid green;"">","null","","","","","",""
"","image-keyboard-response","231","125285","0.0-231.0","3LRLIPTPERV9SUMXUABTXIGXOYRAK8","A1YSYI926BBOHW","30F94FBDNR6BS3JI3VKF41RBJN4TBU","","379","img/animal6.png","76","379.79999999701977","3","1","3","1,0.5,0,1,0.5,0,0.5,0,1",""
"","html-keyboard-response","232","125586","0.0-232.0","3LRLIPTPERV9SUMXUABTXIGXOYRAK8","A1YSYI926BBOHW","30F94FBDNR6BS3JI3VKF41RBJN4TBU","","null","<img src=""img/animal6.png"" style=""width:200px; border:14px solid green;"">","null","","","","","",""
"","image-keyboard-response","233","126138","0.0-233.0","3LRLIPTPERV9SUMXUABTXIGXOYRAK8","A1YSYI926BBOHW","30F94FBDNR6BS3JI3VKF41RBJN4TBU","","549.7000000029802","img/animal1.png","74","551","1","1","1","1,0.5,0,1,0.5,0,0.5,0,1",""
"","html-keyboard-response","234","126441","0.0-234.0","3LRLIPTPERV9SUMXUABTXIGXOYRAK8","A1YSYI926BBOHW","30F94FBDNR6BS3JI3VKF41RBJN4TBU","","null","<img src=""img/animal1.png"" style=""width:200px; border:14px solid green;"">","null","","","","","",""
"","image-keyboard-response","235","126837","0.0-235.0","3LRLIPTPERV9SUMXUABTXIGXOYRAK8","A1YSYI926BBOHW","30F94FBDNR6BS3JI3VKF41RBJN4TBU","","394.20000000298023","img/animal6.png","76","395.8999999910593","3","1","3","1,0.5,0,1,0.5,0,0.5,0,1",""
"","html-keyboard-response","236","127139","0.0-236.0","3LRLIPTPERV9SUMXUABTXIGXOYRAK8","A1YSYI926BBOHW","30F94FBDNR6BS3JI3VKF41RBJN4TBU","","null","<img src=""img/animal6.png"" style=""width:200px; border:14px solid green;"">","null","","","","","",""
"","image-keyboard-response","237","127580","0.0-237.0","3LRLIPTPERV9SUMXUABTXIGXOYRAK8","A1YSYI926BBOHW","30F94FBDNR6BS3JI3VKF41RBJN4TBU","","440.20000000298023","img/animal1.png","74","440.80000001192093","1","1","1","1,0.5,0,1,0.5,0,0.5,0,1",""
"","html-keyboard-response","238","127883","0.0-238.0","3LRLIPTPERV9SUMXUABTXIGXOYRAK8","A1YSYI926BBOHW","30F94FBDNR6BS3JI3VKF41RBJN4TBU","","null","<img src=""img/animal1.png"" style=""width:200px; border:14px solid green;"">","null","","","","","",""
"","image-keyboard-response","239","128491","0.0-239.0","3LRLIPTPERV9SUMXUABTXIGXOYRAK8","A1YSYI926BBOHW","30F94FBDNR6BS3JI3VKF41RBJN4TBU","","607.1000000089407","img/animal4.png","74","608.2000000029802","1","1","2","1,0.5,0,1,0.5,0,0.5,0,1",""
"","html-keyboard-response","240","128793","0.0-240.0","3LRLIPTPERV9SUMXUABTXIGXOYRAK8","A1YSYI926BBOHW","30F94FBDNR6BS3JI3VKF41RBJN4TBU","","null","<img src=""img/animal4.png"" style=""width:200px; border:14px solid green;"">","null","","","","","",""
"","image-keyboard-response","241","129279","0.0-241.0","3LRLIPTPERV9SUMXUABTXIGXOYRAK8","A1YSYI926BBOHW","30F94FBDNR6BS3JI3VKF41RBJN4TBU","","484.3999999910593","img/animal6.png","76","485.3999999910593","3","1","3","1,0.5,0,1,0.5,0,0.5,0,1",""
"","html-keyboard-response","242","129580","0.0-242.0","3LRLIPTPERV9SUMXUABTXIGXOYRAK8","A1YSYI926BBOHW","30F94FBDNR6BS3JI3VKF41RBJN4TBU","","null","<img src=""img/animal6.png"" style=""width:200px; border:14px solid green;"">","null","","","","","",""
"","image-keyboard-response","243","130186","0.0-243.0","3LRLIPTPERV9SUMXUABTXIGXOYRAK8","A1YSYI926BBOHW","30F94FBDNR6BS3JI3VKF41RBJN4TBU","","604.0999999940395","img/animal4.png","74","605.7999999970198","1","1","2","1,0.5,0,1,0.5,0,0.5,0,1",""
"","html-keyboard-response","244","130489","0.0-244.0","3LRLIPTPERV9SUMXUABTXIGXOYRAK8","A1YSYI926BBOHW","30F94FBDNR6BS3JI3VKF41RBJN4TBU","","null","<img src=""img/animal4.png"" style=""width:200px; border:14px solid green;"">","null","","","","","",""
"","image-keyboard-response","245","131080","0.0-245.0","3LRLIPTPERV9SUMXUABTXIGXOYRAK8","A1YSYI926BBOHW","30F94FBDNR6BS3JI3VKF41RBJN4TBU","","589.5","img/animal6.png","76","590.5999999940395","3","1","3","1,0.5,0,1,0.5,0,0.5,0,1",""
"","html-keyboard-response","246","131381","0.0-246.0","3LRLIPTPERV9SUMXUABTXIGXOYRAK8","A1YSYI926BBOHW","30F94FBDNR6BS3JI3VKF41RBJN4TBU","","null","<img src=""img/animal6.png"" style=""width:200px; border:14px solid green;"">","null","","","","","",""
"","image-keyboard-response","247","131900","0.0-247.0","3LRLIPTPERV9SUMXUABTXIGXOYRAK8","A1YSYI926BBOHW","30F94FBDNR6BS3JI3VKF41RBJN4TBU","","517.5","img/animal1.png","74","518.7999999970198","1","1","1","1,0.5,0,1,0.5,0,0.5,0,1",""
"","html-keyboard-response","248","132203","0.0-248.0","3LRLIPTPERV9SUMXUABTXIGXOYRAK8","A1YSYI926BBOHW","30F94FBDNR6BS3JI3VKF41RBJN4TBU","","null","<img src=""img/animal1.png"" style=""width:200px; border:14px solid green;"">","null","","","","","",""
"","image-keyboard-response","249","132748","0.0-249.0","3LRLIPTPERV9SUMXUABTXIGXOYRAK8","A1YSYI926BBOHW","30F94FBDNR6BS3JI3VKF41RBJN4TBU","","544.5999999940395","img/animal1.png","74","546","1","1","1","1,0.5,0,1,0.5,0,0.5,0,1",""
"","html-keyboard-response","250","133051","0.0-250.0","3LRLIPTPERV9SUMXUABTXIGXOYRAK8","A1YSYI926BBOHW","30F94FBDNR6BS3JI3VKF41RBJN4TBU","","null","<img src=""img/animal1.png"" style=""width:200px; border:14px solid green;"">","null","","","","","",""
"","image-keyboard-response","251","133483","0.0-251.0","3LRLIPTPERV9SUMXUABTXIGXOYRAK8","A1YSYI926BBOHW","30F94FBDNR6BS3JI3VKF41RBJN4TBU","","431.40000000596046","img/animal4.png","74","432","1","1","2","1,0.5,0,1,0.5,0,0.5,0,1",""
"","html-keyboard-response","252","133785","0.0-252.0","3LRLIPTPERV9SUMXUABTXIGXOYRAK8","A1YSYI926BBOHW","30F94FBDNR6BS3JI3VKF41RBJN4TBU","","null","<img src=""img/animal4.png"" style=""width:200px; border:14px solid green;"">","null","","","","","",""
"","image-keyboard-response","253","134411","0.0-253.0","3LRLIPTPERV9SUMXUABTXIGXOYRAK8","A1YSYI926BBOHW","30F94FBDNR6BS3JI3VKF41RBJN4TBU","","624.5","img/animal6.png","76","626","3","1","3","1,0.5,0,1,0.5,0,0.5,0,1",""
"","html-keyboard-response","254","134713","0.0-254.0","3LRLIPTPERV9SUMXUABTXIGXOYRAK8","A1YSYI926BBOHW","30F94FBDNR6BS3JI3VKF41RBJN4TBU","","null","<img src=""img/animal6.png"" style=""width:200px; border:14px solid green;"">","null","","","","","",""
"","image-keyboard-response","255","135097","0.0-255.0","3LRLIPTPERV9SUMXUABTXIGXOYRAK8","A1YSYI926BBOHW","30F94FBDNR6BS3JI3VKF41RBJN4TBU","","382.8999999910593","img/animal6.png","76","383.5","3","1","3","1,0.5,0,1,0.5,0,0.5,0,1",""
"","html-keyboard-response","256","135398","0.0-256.0","3LRLIPTPERV9SUMXUABTXIGXOYRAK8","A1YSYI926BBOHW","30F94FBDNR6BS3JI3VKF41RBJN4TBU","","null","<img src=""img/animal6.png"" style=""width:200px; border:14px solid green;"">","null","","","","","",""
"","image-keyboard-response","257","135851","0.0-257.0","3LRLIPTPERV9SUMXUABTXIGXOYRAK8","A1YSYI926BBOHW","30F94FBDNR6BS3JI3VKF41RBJN4TBU","","452.1000000089407","img/animal1.png","74","453.09999999403954","1","1","1","1,0.5,0,1,0.5,0,0.5,0,1",""
"","html-keyboard-response","258","136154","0.0-258.0","3LRLIPTPERV9SUMXUABTXIGXOYRAK8","A1YSYI926BBOHW","30F94FBDNR6BS3JI3VKF41RBJN4TBU","","null","<img src=""img/animal1.png"" style=""width:200px; border:14px solid green;"">","null","","","","","",""
"","image-keyboard-response","259","136541","0.0-259.0","3LRLIPTPERV9SUMXUABTXIGXOYRAK8","A1YSYI926BBOHW","30F94FBDNR6BS3JI3VKF41RBJN4TBU","","385.20000000298023","img/animal4.png","74","386.40000000596046","1","1","2","1,0.5,0,1,0.5,0,0.5,0,1",""
"","html-keyboard-response","260","136844","0.0-260.0","3LRLIPTPERV9SUMXUABTXIGXOYRAK8","A1YSYI926BBOHW","30F94FBDNR6BS3JI3VKF41RBJN4TBU","","null","<img src=""img/animal4.png"" style=""width:200px; border:14px solid green;"">","null","","","","","",""
"","image-keyboard-response","261","137187","0.0-261.0","3LRLIPTPERV9SUMXUABTXIGXOYRAK8","A1YSYI926BBOHW","30F94FBDNR6BS3JI3VKF41RBJN4TBU","","341","img/animal4.png","74","342.20000000298023","1","1","2","1,0.5,0,1,0.5,0,0.5,0,1",""
"","html-keyboard-response","262","137489","0.0-262.0","3LRLIPTPERV9SUMXUABTXIGXOYRAK8","A1YSYI926BBOHW","30F94FBDNR6BS3JI3VKF41RBJN4TBU","","null","<img src=""img/animal4.png"" style=""width:200px; border:14px solid green;"">","null","","","","","",""
"","image-keyboard-response","263","137807","0.0-263.0","3LRLIPTPERV9SUMXUABTXIGXOYRAK8","A1YSYI926BBOHW","30F94FBDNR6BS3JI3VKF41RBJN4TBU","","317.70000000298023","img/animal4.png","74","318.59999999403954","1","1","2","1,0.5,0,1,0.5,0,0.5,0,1",""
"","html-keyboard-response","264","138110","0.0-264.0","3LRLIPTPERV9SUMXUABTXIGXOYRAK8","A1YSYI926BBOHW","30F94FBDNR6BS3JI3VKF41RBJN4TBU","","null","<img src=""img/animal4.png"" style=""width:200px; border:14px solid green;"">","null","","","","","",""
"","image-keyboard-response","265","138398","0.0-265.0","3LRLIPTPERV9SUMXUABTXIGXOYRAK8","A1YSYI926BBOHW","30F94FBDNR6BS3JI3VKF41RBJN4TBU","","287.6000000089407","img/animal4.png","74","288","1","1","2","1,0.5,0,1,0.5,0,0.5,0,1",""
"","html-keyboard-response","266","138700","0.0-266.0","3LRLIPTPERV9SUMXUABTXIGXOYRAK8","A1YSYI926BBOHW","30F94FBDNR6BS3JI3VKF41RBJN4TBU","","null","<img src=""img/animal4.png"" style=""width:200px; border:14px solid green;"">","null","","","","","",""
"","image-keyboard-response","267","139208","0.0-267.0","3LRLIPTPERV9SUMXUABTXIGXOYRAK8","A1YSYI926BBOHW","30F94FBDNR6BS3JI3VKF41RBJN4TBU","","506.20000000298023","img/animal6.png","76","507.40000000596046","3","1","3","1,0.5,0,1,0.5,0,0.5,0,1",""
"","html-keyboard-response","268","139510","0.0-268.0","3LRLIPTPERV9SUMXUABTXIGXOYRAK8","A1YSYI926BBOHW","30F94FBDNR6BS3JI3VKF41RBJN4TBU","","null","<img src=""img/animal6.png"" style=""width:200px; border:14px solid green;"">","null","","","","","",""
"","image-keyboard-response","269","140055","0.0-269.0","3LRLIPTPERV9SUMXUABTXIGXOYRAK8","A1YSYI926BBOHW","30F94FBDNR6BS3JI3VKF41RBJN4TBU","","544.1000000089407","img/animal4.png","74","545.2000000029802","1","1","2","1,0.5,0,1,0.5,0,0.5,0,1",""
"","html-keyboard-response","270","140359","0.0-270.0","3LRLIPTPERV9SUMXUABTXIGXOYRAK8","A1YSYI926BBOHW","30F94FBDNR6BS3JI3VKF41RBJN4TBU","","null","<img src=""img/animal4.png"" style=""width:200px; border:14px solid green;"">","null","","","","","",""
"","image-keyboard-response","271","140725","0.0-271.0","3LRLIPTPERV9SUMXUABTXIGXOYRAK8","A1YSYI926BBOHW","30F94FBDNR6BS3JI3VKF41RBJN4TBU","","362.69999998807907","img/animal4.png","74","365.40000000596046","1","1","2","1,0.5,0,1,0.5,0,0.5,0,1",""
"","html-keyboard-response","272","141027","0.0-272.0","3LRLIPTPERV9SUMXUABTXIGXOYRAK8","A1YSYI926BBOHW","30F94FBDNR6BS3JI3VKF41RBJN4TBU","","null","<img src=""img/animal4.png"" style=""width:200px; border:14px solid green;"">","null","","","","","",""
"","image-keyboard-response","273","141483","0.0-273.0","3LRLIPTPERV9SUMXUABTXIGXOYRAK8","A1YSYI926BBOHW","30F94FBDNR6BS3JI3VKF41RBJN4TBU","","454.59999999403954","img/animal6.png","76","455.29999999701977","3","1","3","1,0.5,0,1,0.5,0,0.5,0,1",""
"","html-keyboard-response","274","141784","0.0-274.0","3LRLIPTPERV9SUMXUABTXIGXOYRAK8","A1YSYI926BBOHW","30F94FBDNR6BS3JI3VKF41RBJN4TBU","","null","<img src=""img/animal6.png"" style=""width:200px; border:14px solid green;"">","null","","","","","",""
"","image-keyboard-response","275","142252","0.0-275.0","3LRLIPTPERV9SUMXUABTXIGXOYRAK8","A1YSYI926BBOHW","30F94FBDNR6BS3JI3VKF41RBJN4TBU","","465.8999999910593","img/animal1.png","74","467.69999998807907","1","1","1","1,0.5,0,1,0.5,0,0.5,0,1",""
"","html-keyboard-response","276","142554","0.0-276.0","3LRLIPTPERV9SUMXUABTXIGXOYRAK8","A1YSYI926BBOHW","30F94FBDNR6BS3JI3VKF41RBJN4TBU","","null","<img src=""img/animal1.png"" style=""width:200px; border:14px solid green;"">","null","","","","","",""
"","image-keyboard-response","277","142936","0.0-277.0","3LRLIPTPERV9SUMXUABTXIGXOYRAK8","A1YSYI926BBOHW","30F94FBDNR6BS3JI3VKF41RBJN4TBU","","381","img/animal4.png","74","382.29999999701977","1","1","2","1,0.5,0,1,0.5,0,0.5,0,1",""
"","html-keyboard-response","278","143240","0.0-278.0","3LRLIPTPERV9SUMXUABTXIGXOYRAK8","A1YSYI926BBOHW","30F94FBDNR6BS3JI3VKF41RBJN4TBU","","null","<img src=""img/animal4.png"" style=""width:200px; border:14px solid green;"">","null","","","","","",""
"","image-keyboard-response","279","143565","0.0-279.0","3LRLIPTPERV9SUMXUABTXIGXOYRAK8","A1YSYI926BBOHW","30F94FBDNR6BS3JI3VKF41RBJN4TBU","","322","img/animal4.png","74","323.40000000596046","1","1","2","1,0.5,0,1,0.5,0,0.5,0,1",""
"","html-keyboard-response","280","143867","0.0-280.0","3LRLIPTPERV9SUMXUABTXIGXOYRAK8","A1YSYI926BBOHW","30F94FBDNR6BS3JI3VKF41RBJN4TBU","","null","<img src=""img/animal4.png"" style=""width:200px; border:14px solid green;"">","null","","","","","",""
"","image-keyboard-response","281","144174","0.0-281.0","3LRLIPTPERV9SUMXUABTXIGXOYRAK8","A1YSYI926BBOHW","30F94FBDNR6BS3JI3VKF41RBJN4TBU","","304.79999999701977","img/animal4.png","74","306","1","1","2","1,0.5,0,1,0.5,0,0.5,0,1",""
"","html-keyboard-response","282","144475","0.0-282.0","3LRLIPTPERV9SUMXUABTXIGXOYRAK8","A1YSYI926BBOHW","30F94FBDNR6BS3JI3VKF41RBJN4TBU","","null","<img src=""img/animal4.png"" style=""width:200px; border:14px solid green;"">","null","","","","","",""
"","image-keyboard-response","283","144915","0.0-283.0","3LRLIPTPERV9SUMXUABTXIGXOYRAK8","A1YSYI926BBOHW","30F94FBDNR6BS3JI3VKF41RBJN4TBU","","439.09999999403954","img/animal1.png","76","439.8999999910593","3","0","1","1,0.5,0,1,0.5,0,0.5,0,1",""
"","html-keyboard-response","284","145217","0.0-284.0","3LRLIPTPERV9SUMXUABTXIGXOYRAK8","A1YSYI926BBOHW","30F94FBDNR6BS3JI3VKF41RBJN4TBU","","null","<img src=""img/animal1.png"" style=""width:200px;border:14px solid red;"">","null","","","","","",""
"","image-keyboard-response","285","145550","0.0-285.0","3LRLIPTPERV9SUMXUABTXIGXOYRAK8","A1YSYI926BBOHW","30F94FBDNR6BS3JI3VKF41RBJN4TBU","","330.79999999701977","img/animal1.png","74","332.90000000596046","1","1","1","1,0.5,0,1,0.5,0,0.5,0,1",""
"","html-keyboard-response","286","145854","0.0-286.0","3LRLIPTPERV9SUMXUABTXIGXOYRAK8","A1YSYI926BBOHW","30F94FBDNR6BS3JI3VKF41RBJN4TBU","","null","<img src=""img/animal1.png"" style=""width:200px; border:14px solid green;"">","null","","","","","",""
"","image-keyboard-response","287","146378","0.0-287.0","3LRLIPTPERV9SUMXUABTXIGXOYRAK8","A1YSYI926BBOHW","30F94FBDNR6BS3JI3VKF41RBJN4TBU","","522.2999999970198","img/animal4.png","74","523.9000000059605","1","1","2","1,0.5,0,1,0.5,0,0.5,0,1",""
"","html-keyboard-response","288","146681","0.0-288.0","3LRLIPTPERV9SUMXUABTXIGXOYRAK8","A1YSYI926BBOHW","30F94FBDNR6BS3JI3VKF41RBJN4TBU","","null","<img src=""img/animal4.png"" style=""width:200px; border:14px solid green;"">","null","","","","","",""
"","image-keyboard-response","289","146993","0.0-289.0","3LRLIPTPERV9SUMXUABTXIGXOYRAK8","A1YSYI926BBOHW","30F94FBDNR6BS3JI3VKF41RBJN4TBU","","311.90000000596046","img/animal4.png","74","312.59999999403954","1","1","2","1,0.5,0,1,0.5,0,0.5,0,1",""
"","html-keyboard-response","290","147295","0.0-290.0","3LRLIPTPERV9SUMXUABTXIGXOYRAK8","A1YSYI926BBOHW","30F94FBDNR6BS3JI3VKF41RBJN4TBU","","null","<img src=""img/animal4.png"" style=""width:200px; border:14px solid green;"">","null","","","","","",""
"","image-keyboard-response","291","147583","0.0-291.0","3LRLIPTPERV9SUMXUABTXIGXOYRAK8","A1YSYI926BBOHW","30F94FBDNR6BS3JI3VKF41RBJN4TBU","","285.8999999910593","img/animal4.png","74","286.8999999910593","1","1","2","1,0.5,0,1,0.5,0,0.5,0,1",""
"","html-keyboard-response","292","147884","0.0-292.0","3LRLIPTPERV9SUMXUABTXIGXOYRAK8","A1YSYI926BBOHW","30F94FBDNR6BS3JI3VKF41RBJN4TBU","","null","<img src=""img/animal4.png"" style=""width:200px; border:14px solid green;"">","null","","","","","",""
"","image-keyboard-response","293","148347","0.0-293.0","3LRLIPTPERV9SUMXUABTXIGXOYRAK8","A1YSYI926BBOHW","30F94FBDNR6BS3JI3VKF41RBJN4TBU","","461.09999999403954","img/animal1.png","76","462.70000000298023","3","0","1","1,0.5,0,1,0.5,0,0.5,0,1",""
"","html-keyboard-response","294","148650","0.0-294.0","3LRLIPTPERV9SUMXUABTXIGXOYRAK8","A1YSYI926BBOHW","30F94FBDNR6BS3JI3VKF41RBJN4TBU","","null","<img src=""img/animal1.png"" style=""width:200px;border:14px solid red;"">","null","","","","","",""
"","image-keyboard-response","295","149124","0.0-295.0","3LRLIPTPERV9SUMXUABTXIGXOYRAK8","A1YSYI926BBOHW","30F94FBDNR6BS3JI3VKF41RBJN4TBU","","473.20000000298023","img/animal1.png","74","474.1000000089407","1","1","1","1,0.5,0,1,0.5,0,0.5,0,1",""
"","html-keyboard-response","296","149426","0.0-296.0","3LRLIPTPERV9SUMXUABTXIGXOYRAK8","A1YSYI926BBOHW","30F94FBDNR6BS3JI3VKF41RBJN4TBU","","null","<img src=""img/animal1.png"" style=""width:200px; border:14px solid green;"">","null","","","","","",""
"","image-keyboard-response","297","149661","0.0-297.0","3LRLIPTPERV9SUMXUABTXIGXOYRAK8","A1YSYI926BBOHW","30F94FBDNR6BS3JI3VKF41RBJN4TBU","","233.5","img/animal4.png","74","234.29999999701977","1","1","2","1,0.5,0,1,0.5,0,0.5,0,1",""
"","html-keyboard-response","298","149962","0.0-298.0","3LRLIPTPERV9SUMXUABTXIGXOYRAK8","A1YSYI926BBOHW","30F94FBDNR6BS3JI3VKF41RBJN4TBU","","null","<img src=""img/animal4.png"" style=""width:200px; border:14px solid green;"">","null","","","","","",""
"","image-keyboard-response","299","150377","0.0-299.0","3LRLIPTPERV9SUMXUABTXIGXOYRAK8","A1YSYI926BBOHW","30F94FBDNR6BS3JI3VKF41RBJN4TBU","","412.79999999701977","img/animal1.png","74","414.3999999910593","1","1","1","1,0.5,0,1,0.5,0,0.5,0,1",""
"","html-keyboard-response","300","150680","0.0-300.0","3LRLIPTPERV9SUMXUABTXIGXOYRAK8","A1YSYI926BBOHW","30F94FBDNR6BS3JI3VKF41RBJN4TBU","","null","<img src=""img/animal1.png"" style=""width:200px; border:14px solid green;"">","null","","","","","",""
"","image-keyboard-response","301","151175","0.0-301.0","3LRLIPTPERV9SUMXUABTXIGXOYRAK8","A1YSYI926BBOHW","30F94FBDNR6BS3JI3VKF41RBJN4TBU","","493.6000000089407","img/animal6.png","74","494.6000000089407","1","0","3","1,0.5,0,1,0.5,0,0.5,0,1",""
"","html-keyboard-response","302","151478","0.0-302.0","3LRLIPTPERV9SUMXUABTXIGXOYRAK8","A1YSYI926BBOHW","30F94FBDNR6BS3JI3VKF41RBJN4TBU","","null","<img src=""img/animal6.png"" style=""width:200px;border:14px solid red;"">","null","","","","","",""
"","image-keyboard-response","303","151932","0.0-303.0","3LRLIPTPERV9SUMXUABTXIGXOYRAK8","A1YSYI926BBOHW","30F94FBDNR6BS3JI3VKF41RBJN4TBU","","452.69999998807907","img/animal4.png","74","453.90000000596046","1","1","2","1,0.5,0,1,0.5,0,0.5,0,1",""
"","html-keyboard-response","304","152236","0.0-304.0","3LRLIPTPERV9SUMXUABTXIGXOYRAK8","A1YSYI926BBOHW","30F94FBDNR6BS3JI3VKF41RBJN4TBU","","null","<img src=""img/animal4.png"" style=""width:200px; border:14px solid green;"">","null","","","","","",""
"","image-keyboard-response","305","152818","0.0-305.0","3LRLIPTPERV9SUMXUABTXIGXOYRAK8","A1YSYI926BBOHW","30F94FBDNR6BS3JI3VKF41RBJN4TBU","","580.8999999910593","img/animal6.png","76","581.8999999910593","3","1","3","1,0.5,0,1,0.5,0,0.5,0,1",""
"","html-keyboard-response","306","153121","0.0-306.0","3LRLIPTPERV9SUMXUABTXIGXOYRAK8","A1YSYI926BBOHW","30F94FBDNR6BS3JI3VKF41RBJN4TBU","","null","<img src=""img/animal6.png"" style=""width:200px; border:14px solid green;"">","null","","","","","",""
"","image-keyboard-response","307","153556","0.0-307.0","3LRLIPTPERV9SUMXUABTXIGXOYRAK8","A1YSYI926BBOHW","30F94FBDNR6BS3JI3VKF41RBJN4TBU","","433.8999999910593","img/animal4.png","74","435","1","1","2","1,0.5,0,1,0.5,0,0.5,0,1",""
"","html-keyboard-response","308","153858","0.0-308.0","3LRLIPTPERV9SUMXUABTXIGXOYRAK8","A1YSYI926BBOHW","30F94FBDNR6BS3JI3VKF41RBJN4TBU","","null","<img src=""img/animal4.png"" style=""width:200px; border:14px solid green;"">","null","","","","","",""
"","image-keyboard-response","309","154296","0.0-309.0","3LRLIPTPERV9SUMXUABTXIGXOYRAK8","A1YSYI926BBOHW","30F94FBDNR6BS3JI3VKF41RBJN4TBU","","436","img/animal1.png","74","437.30000001192093","1","1","1","1,0.5,0,1,0.5,0,0.5,0,1",""
"","html-keyboard-response","310","154597","0.0-310.0","3LRLIPTPERV9SUMXUABTXIGXOYRAK8","A1YSYI926BBOHW","30F94FBDNR6BS3JI3VKF41RBJN4TBU","","null","<img src=""img/animal1.png"" style=""width:200px; border:14px solid green;"">","null","","","","","",""
"","image-keyboard-response","311","155030","0.0-311.0","3LRLIPTPERV9SUMXUABTXIGXOYRAK8","A1YSYI926BBOHW","30F94FBDNR6BS3JI3VKF41RBJN4TBU","","431.59999999403954","img/animal6.png","76","432.20000000298023","3","1","3","1,0.5,0,1,0.5,0,0.5,0,1",""
"","html-keyboard-response","312","155331","0.0-312.0","3LRLIPTPERV9SUMXUABTXIGXOYRAK8","A1YSYI926BBOHW","30F94FBDNR6BS3JI3VKF41RBJN4TBU","","null","<img src=""img/animal6.png"" style=""width:200px; border:14px solid green;"">","null","","","","","",""
"","image-keyboard-response","313","155708","0.0-313.0","3LRLIPTPERV9SUMXUABTXIGXOYRAK8","A1YSYI926BBOHW","30F94FBDNR6BS3JI3VKF41RBJN4TBU","","375.8999999910593","img/animal6.png","76","376.79999999701977","3","1","3","1,0.5,0,1,0.5,0,0.5,0,1",""
"","html-keyboard-response","314","156010","0.0-314.0","3LRLIPTPERV9SUMXUABTXIGXOYRAK8","A1YSYI926BBOHW","30F94FBDNR6BS3JI3VKF41RBJN4TBU","","null","<img src=""img/animal6.png"" style=""width:200px; border:14px solid green;"">","null","","","","","",""
"","image-keyboard-response","315","156449","0.0-315.0","3LRLIPTPERV9SUMXUABTXIGXOYRAK8","A1YSYI926BBOHW","30F94FBDNR6BS3JI3VKF41RBJN4TBU","","437.8999999910593","img/animal4.png","74","439.20000000298023","1","1","2","1,0.5,0,1,0.5,0,0.5,0,1",""
"","html-keyboard-response","316","156752","0.0-316.0","3LRLIPTPERV9SUMXUABTXIGXOYRAK8","A1YSYI926BBOHW","30F94FBDNR6BS3JI3VKF41RBJN4TBU","","null","<img src=""img/animal4.png"" style=""width:200px; border:14px solid green;"">","null","","","","","",""
"","image-keyboard-response","317","157192","0.0-317.0","3LRLIPTPERV9SUMXUABTXIGXOYRAK8","A1YSYI926BBOHW","30F94FBDNR6BS3JI3VKF41RBJN4TBU","","439.6000000089407","img/animal6.png","76","440.29999999701977","3","1","3","1,0.5,0,1,0.5,0,0.5,0,1",""
"","html-keyboard-response","318","157505","0.0-318.0","3LRLIPTPERV9SUMXUABTXIGXOYRAK8","A1YSYI926BBOHW","30F94FBDNR6BS3JI3VKF41RBJN4TBU","","null","<img src=""img/animal6.png"" style=""width:200px; border:14px solid green;"">","null","","","","","",""
"","image-keyboard-response","319","157894","0.0-319.0","3LRLIPTPERV9SUMXUABTXIGXOYRAK8","A1YSYI926BBOHW","30F94FBDNR6BS3JI3VKF41RBJN4TBU","","388.1000000089407","img/animal6.png","76","389.3999999910593","3","1","3","1,0.5,0,1,0.5,0,0.5,0,1",""
"","html-keyboard-response","320","158196","0.0-320.0","3LRLIPTPERV9SUMXUABTXIGXOYRAK8","A1YSYI926BBOHW","30F94FBDNR6BS3JI3VKF41RBJN4TBU","","null","<img src=""img/animal6.png"" style=""width:200px; border:14px solid green;"">","null","","","","","",""
"","image-keyboard-response","321","158567","0.0-321.0","3LRLIPTPERV9SUMXUABTXIGXOYRAK8","A1YSYI926BBOHW","30F94FBDNR6BS3JI3VKF41RBJN4TBU","","369.20000000298023","img/animal6.png","76","370.69999998807907","3","1","3","1,0.5,0,1,0.5,0,0.5,0,1",""
"","html-keyboard-response","322","158869","0.0-322.0","3LRLIPTPERV9SUMXUABTXIGXOYRAK8","A1YSYI926BBOHW","30F94FBDNR6BS3JI3VKF41RBJN4TBU","","null","<img src=""img/animal6.png"" style=""width:200px; border:14px solid green;"">","null","","","","","",""
"","image-keyboard-response","323","159214","0.0-323.0","3LRLIPTPERV9SUMXUABTXIGXOYRAK8","A1YSYI926BBOHW","30F94FBDNR6BS3JI3VKF41RBJN4TBU","","344.70000000298023","img/animal6.png","76","345.70000000298023","3","1","3","1,0.5,0,1,0.5,0,0.5,0,1",""
"","html-keyboard-response","324","159516","0.0-324.0","3LRLIPTPERV9SUMXUABTXIGXOYRAK8","A1YSYI926BBOHW","30F94FBDNR6BS3JI3VKF41RBJN4TBU","","null","<img src=""img/animal6.png"" style=""width:200px; border:14px solid green;"">","null","","","","","",""
"","image-keyboard-response","325","159953","0.0-325.0","3LRLIPTPERV9SUMXUABTXIGXOYRAK8","A1YSYI926BBOHW","30F94FBDNR6BS3JI3VKF41RBJN4TBU","","435.40000000596046","img/animal1.png","74","436.40000000596046","1","1","1","1,0.5,0,1,0.5,0,0.5,0,1",""
"","html-keyboard-response","326","160255","0.0-326.0","3LRLIPTPERV9SUMXUABTXIGXOYRAK8","A1YSYI926BBOHW","30F94FBDNR6BS3JI3VKF41RBJN4TBU","","null","<img src=""img/animal1.png"" style=""width:200px; border:14px solid green;"">","null","","","","","",""
"","image-keyboard-response","327","160687","0.0-327.0","3LRLIPTPERV9SUMXUABTXIGXOYRAK8","A1YSYI926BBOHW","30F94FBDNR6BS3JI3VKF41RBJN4TBU","","430.1000000089407","img/animal4.png","74","431.90000000596046","1","1","2","1,0.5,0,1,0.5,0,0.5,0,1",""
"","html-keyboard-response","328","160989","0.0-328.0","3LRLIPTPERV9SUMXUABTXIGXOYRAK8","A1YSYI926BBOHW","30F94FBDNR6BS3JI3VKF41RBJN4TBU","","null","<img src=""img/animal4.png"" style=""width:200px; border:14px solid green;"">","null","","","","","",""
"","image-keyboard-response","329","161483","0.0-329.0","3LRLIPTPERV9SUMXUABTXIGXOYRAK8","A1YSYI926BBOHW","30F94FBDNR6BS3JI3VKF41RBJN4TBU","","492.90000000596046","img/animal6.png","76","493.70000000298023","3","1","3","1,0.5,0,1,0.5,0,0.5,0,1",""
"","html-keyboard-response","330","161785","0.0-330.0","3LRLIPTPERV9SUMXUABTXIGXOYRAK8","A1YSYI926BBOHW","30F94FBDNR6BS3JI3VKF41RBJN4TBU","","null","<img src=""img/animal6.png"" style=""width:200px; border:14px solid green;"">","null","","","","","",""
"","image-keyboard-response","331","162121","0.0-331.0","3LRLIPTPERV9SUMXUABTXIGXOYRAK8","A1YSYI926BBOHW","30F94FBDNR6BS3JI3VKF41RBJN4TBU","","334.1000000089407","img/animal6.png","76","335.90000000596046","3","1","3","1,0.5,0,1,0.5,0,0.5,0,1",""
"","html-keyboard-response","332","162424","0.0-332.0","3LRLIPTPERV9SUMXUABTXIGXOYRAK8","A1YSYI926BBOHW","30F94FBDNR6BS3JI3VKF41RBJN4TBU","","null","<img src=""img/animal6.png"" style=""width:200px; border:14px solid green;"">","null","","","","","",""
"","image-keyboard-response","333","162813","0.0-333.0","3LRLIPTPERV9SUMXUABTXIGXOYRAK8","A1YSYI926BBOHW","30F94FBDNR6BS3JI3VKF41RBJN4TBU","","388.59999999403954","img/animal6.png","76","389.5","3","1","3","1,0.5,0,1,0.5,0,0.5,0,1",""
"","html-keyboard-response","334","163115","0.0-334.0","3LRLIPTPERV9SUMXUABTXIGXOYRAK8","A1YSYI926BBOHW","30F94FBDNR6BS3JI3VKF41RBJN4TBU","","null","<img src=""img/animal6.png"" style=""width:200px; border:14px solid green;"">","null","","","","","",""
"","image-keyboard-response","335","163736","0.0-335.0","3LRLIPTPERV9SUMXUABTXIGXOYRAK8","A1YSYI926BBOHW","30F94FBDNR6BS3JI3VKF41RBJN4TBU","","619.5","img/animal1.png","74","620.7999999970198","1","1","1","1,0.5,0,1,0.5,0,0.5,0,1",""
"","html-keyboard-response","336","164039","0.0-336.0","3LRLIPTPERV9SUMXUABTXIGXOYRAK8","A1YSYI926BBOHW","30F94FBDNR6BS3JI3VKF41RBJN4TBU","","null","<img src=""img/animal1.png"" style=""width:200px; border:14px solid green;"">","null","","","","","",""
"","image-keyboard-response","337","164474","0.0-337.0","3LRLIPTPERV9SUMXUABTXIGXOYRAK8","A1YSYI926BBOHW","30F94FBDNR6BS3JI3VKF41RBJN4TBU","","434.90000000596046","img/animal6.png","74","435.79999999701977","1","0","3","1,0.5,0,1,0.5,0,0.5,0,1",""
"","html-keyboard-response","338","164777","0.0-338.0","3LRLIPTPERV9SUMXUABTXIGXOYRAK8","A1YSYI926BBOHW","30F94FBDNR6BS3JI3VKF41RBJN4TBU","","null","<img src=""img/animal6.png"" style=""width:200px;border:14px solid red;"">","null","","","","","",""
"","image-keyboard-response","339","165184","0.0-339.0","3LRLIPTPERV9SUMXUABTXIGXOYRAK8","A1YSYI926BBOHW","30F94FBDNR6BS3JI3VKF41RBJN4TBU","","405.79999999701977","img/animal6.png","76","406.90000000596046","3","1","3","1,0.5,0,1,0.5,0,0.5,0,1",""
"","html-keyboard-response","340","165487","0.0-340.0","3LRLIPTPERV9SUMXUABTXIGXOYRAK8","A1YSYI926BBOHW","30F94FBDNR6BS3JI3VKF41RBJN4TBU","","null","<img src=""img/animal6.png"" style=""width:200px; border:14px solid green;"">","null","","","","","",""
"","image-keyboard-response","341","165848","0.0-341.0","3LRLIPTPERV9SUMXUABTXIGXOYRAK8","A1YSYI926BBOHW","30F94FBDNR6BS3JI3VKF41RBJN4TBU","","359.70000000298023","img/animal6.png","76","360.79999999701977","3","1","3","1,0.5,0,1,0.5,0,0.5,0,1",""
"","html-keyboard-response","342","166150","0.0-342.0","3LRLIPTPERV9SUMXUABTXIGXOYRAK8","A1YSYI926BBOHW","30F94FBDNR6BS3JI3VKF41RBJN4TBU","","null","<img src=""img/animal6.png"" style=""width:200px; border:14px solid green;"">","null","","","","","",""
"","image-keyboard-response","343","166574","0.0-343.0","3LRLIPTPERV9SUMXUABTXIGXOYRAK8","A1YSYI926BBOHW","30F94FBDNR6BS3JI3VKF41RBJN4TBU","","422.40000000596046","img/animal1.png","74","423.79999999701977","1","1","1","1,0.5,0,1,0.5,0,0.5,0,1",""
"","html-keyboard-response","344","166876","0.0-344.0","3LRLIPTPERV9SUMXUABTXIGXOYRAK8","A1YSYI926BBOHW","30F94FBDNR6BS3JI3VKF41RBJN4TBU","","null","<img src=""img/animal1.png"" style=""width:200px; border:14px solid green;"">","null","","","","","",""
"","image-keyboard-response","345","167341","0.0-345.0","3LRLIPTPERV9SUMXUABTXIGXOYRAK8","A1YSYI926BBOHW","30F94FBDNR6BS3JI3VKF41RBJN4TBU","","463.90000000596046","img/animal6.png","76","464.79999999701977","3","1","3","1,0.5,0,1,0.5,0,0.5,0,1",""
"","html-keyboard-response","346","167642","0.0-346.0","3LRLIPTPERV9SUMXUABTXIGXOYRAK8","A1YSYI926BBOHW","30F94FBDNR6BS3JI3VKF41RBJN4TBU","","null","<img src=""img/animal6.png"" style=""width:200px; border:14px solid green;"">","null","","","","","",""
"","image-keyboard-response","347","168130","0.0-347.0","3LRLIPTPERV9SUMXUABTXIGXOYRAK8","A1YSYI926BBOHW","30F94FBDNR6BS3JI3VKF41RBJN4TBU","","486","img/animal4.png","74","487.70000000298023","1","1","2","1,0.5,0,1,0.5,0,0.5,0,1",""
"","html-keyboard-response","348","168433","0.0-348.0","3LRLIPTPERV9SUMXUABTXIGXOYRAK8","A1YSYI926BBOHW","30F94FBDNR6BS3JI3VKF41RBJN4TBU","","null","<img src=""img/animal4.png"" style=""width:200px; border:14px solid green;"">","null","","","","","",""
"","image-keyboard-response","349","169112","0.0-349.0","3LRLIPTPERV9SUMXUABTXIGXOYRAK8","A1YSYI926BBOHW","30F94FBDNR6BS3JI3VKF41RBJN4TBU","","678.2000000029802","img/animal1.png","74","679.1000000089407","1","1","1","1,0.5,0,1,0.5,0,0.5,0,1",""
"","html-keyboard-response","350","169415","0.0-350.0","3LRLIPTPERV9SUMXUABTXIGXOYRAK8","A1YSYI926BBOHW","30F94FBDNR6BS3JI3VKF41RBJN4TBU","","null","<img src=""img/animal1.png"" style=""width:200px; border:14px solid green;"">","null","","","","","",""
"","image-keyboard-response","351","169718","0.0-351.0","3LRLIPTPERV9SUMXUABTXIGXOYRAK8","A1YSYI926BBOHW","30F94FBDNR6BS3JI3VKF41RBJN4TBU","","302.1000000089407","img/animal1.png","74","303.20000000298023","1","1","1","1,0.5,0,1,0.5,0,0.5,0,1",""
"","html-keyboard-response","352","170020","0.0-352.0","3LRLIPTPERV9SUMXUABTXIGXOYRAK8","A1YSYI926BBOHW","30F94FBDNR6BS3JI3VKF41RBJN4TBU","","null","<img src=""img/animal1.png"" style=""width:200px; border:14px solid green;"">","null","","","","","",""
"","image-keyboard-response","353","170320","0.0-353.0","3LRLIPTPERV9SUMXUABTXIGXOYRAK8","A1YSYI926BBOHW","30F94FBDNR6BS3JI3VKF41RBJN4TBU","","298.29999999701977","img/animal1.png","74","299.09999999403954","1","1","1","1,0.5,0,1,0.5,0,0.5,0,1",""
"","html-keyboard-response","354","170621","0.0-354.0","3LRLIPTPERV9SUMXUABTXIGXOYRAK8","A1YSYI926BBOHW","30F94FBDNR6BS3JI3VKF41RBJN4TBU","","null","<img src=""img/animal1.png"" style=""width:200px; border:14px solid green;"">","null","","","","","",""
"","image-keyboard-response","355","170915","0.0-355.0","3LRLIPTPERV9SUMXUABTXIGXOYRAK8","A1YSYI926BBOHW","30F94FBDNR6BS3JI3VKF41RBJN4TBU","","291.59999999403954","img/animal1.png","74","292.90000000596046","1","1","1","1,0.5,0,1,0.5,0,0.5,0,1",""
"","html-keyboard-response","356","171216","0.0-356.0","3LRLIPTPERV9SUMXUABTXIGXOYRAK8","A1YSYI926BBOHW","30F94FBDNR6BS3JI3VKF41RBJN4TBU","","null","<img src=""img/animal1.png"" style=""width:200px; border:14px solid green;"">","null","","","","","",""
"","image-keyboard-response","357","171652","0.0-357.0","3LRLIPTPERV9SUMXUABTXIGXOYRAK8","A1YSYI926BBOHW","30F94FBDNR6BS3JI3VKF41RBJN4TBU","","434.80000001192093","img/animal6.png","76","435.70000000298023","3","1","3","1,0.5,0,1,0.5,0,0.5,0,1",""
"","html-keyboard-response","358","171956","0.0-358.0","3LRLIPTPERV9SUMXUABTXIGXOYRAK8","A1YSYI926BBOHW","30F94FBDNR6BS3JI3VKF41RBJN4TBU","","null","<img src=""img/animal6.png"" style=""width:200px; border:14px solid green;"">","null","","","","","",""
"","image-keyboard-response","359","172346","0.0-359.0","3LRLIPTPERV9SUMXUABTXIGXOYRAK8","A1YSYI926BBOHW","30F94FBDNR6BS3JI3VKF41RBJN4TBU","","389.19999998807907","img/animal6.png","76","389.90000000596046","3","1","3","1,0.5,0,1,0.5,0,0.5,0,1",""
"","html-keyboard-response","360","172648","0.0-360.0","3LRLIPTPERV9SUMXUABTXIGXOYRAK8","A1YSYI926BBOHW","30F94FBDNR6BS3JI3VKF41RBJN4TBU","","null","<img src=""img/animal6.png"" style=""width:200px; border:14px solid green;"">","null","","","","","",""
"","image-keyboard-response","361","173129","0.0-361.0","3LRLIPTPERV9SUMXUABTXIGXOYRAK8","A1YSYI926BBOHW","30F94FBDNR6BS3JI3VKF41RBJN4TBU","","480.29999999701977","img/animal4.png","74","481.29999999701977","1","1","2","1,0.5,0,1,0.5,0,0.5,0,1",""
"","html-keyboard-response","362","173431","0.0-362.0","3LRLIPTPERV9SUMXUABTXIGXOYRAK8","A1YSYI926BBOHW","30F94FBDNR6BS3JI3VKF41RBJN4TBU","","null","<img src=""img/animal4.png"" style=""width:200px; border:14px solid green;"">","null","","","","","",""
"","instructions","363","175965","0.0-363.0","3LRLIPTPERV9SUMXUABTXIGXOYRAK8","A1YSYI926BBOHW","30F94FBDNR6BS3JI3VKF41RBJN4TBU","[{""page_index"":0,""viewing_time"":2533.0999999940395}]","2533.199999988079","","","","","","","",""
"","survey-text","364","179305","0.0-364.0","3LRLIPTPERV9SUMXUABTXIGXOYRAK8","A1YSYI926BBOHW","30F94FBDNR6BS3JI3VKF41RBJN4TBU","","3339.0999999940395","","","","","","","","{""Q0"":""A1YSYI926BBOHW""}"
