"success","trial_type","trial_index","time_elapsed","internal_node_id","assignmentID","mturkID","hitID","view_history","rt","stimulus","key_press","reactionTime","chosenAction","reward","responses"
"true","fullscreen","0","27012","0.0-0.0","3GU1KF0O4JNFMVO5DGGXOAM2YO8PB3","A207IHY6GERCFO","3LN3BXKGC0HZB1VNEMH4SWP73O3GW1","","","","","","","",""
"","instructions","1","47819","0.0-1.0","3GU1KF0O4JNFMVO5DGGXOAM2YO8PB3","A207IHY6GERCFO","3LN3BXKGC0HZB1VNEMH4SWP73O3GW1","[{""page_index"":0,""viewing_time"":4390},{""page_index"":1,""viewing_time"":4160},{""page_index"":2,""viewing_time"":1192},{""page_index"":3,""viewing_time"":2472},{""page_index"":4,""viewing_time"":1928},{""page_index"":5,""viewing_time"":3384},{""page_index"":6,""viewing_time"":2272},{""page_index"":7,""viewing_time"":1008}]","20807","","","","","",""
"","image-keyboard-response","2","48653","0.0-2.0","3GU1KF0O4JNFMVO5DGGXOAM2YO8PB3","A207IHY6GERCFO","3LN3BXKGC0HZB1VNEMH4SWP73O3GW1","","832","img/animal4.png","74","834","74","0",""
"","html-keyboard-response","3","48957","0.0-3.0","3GU1KF0O4JNFMVO5DGGXOAM2YO8PB3","A207IHY6GERCFO","3LN3BXKGC0HZB1VNEMH4SWP73O3GW1","","null","<img src=""img/animal4.png"" style=""width:200px;border:14px solid red;"">","null","","","",""
"","image-keyboard-response","4","49428","0.0-4.0","3GU1KF0O4JNFMVO5DGGXOAM2YO8PB3","A207IHY6GERCFO","3LN3BXKGC0HZB1VNEMH4SWP73O3GW1","","468","img/animal4.png","74","471","74","1",""
"","html-keyboard-response","5","49732","0.0-5.0","3GU1KF0O4JNFMVO5DGGXOAM2YO8PB3","A207IHY6GERCFO","3LN3BXKGC0HZB1VNEMH4SWP73O3GW1","","null","<img src=""img/animal4.png"" style=""width:200px; border:14px solid green;"">","null","","","",""
"","image-keyboard-response","6","50308","0.0-6.0","3GU1KF0O4JNFMVO5DGGXOAM2YO8PB3","A207IHY6GERCFO","3LN3BXKGC0HZB1VNEMH4SWP73O3GW1","","574","img/animal4.png","75","576","75","1",""
"","html-keyboard-response","7","50611","0.0-7.0","3GU1KF0O4JNFMVO5DGGXOAM2YO8PB3","A207IHY6GERCFO","3LN3BXKGC0HZB1VNEMH4SWP73O3GW1","","null","<img src=""img/animal4.png"" style=""width:200px; border:14px solid green;"">","null","","","",""
"","image-keyboard-response","8","51812","0.0-8.0","3GU1KF0O4JNFMVO5DGGXOAM2YO8PB3","A207IHY6GERCFO","3LN3BXKGC0HZB1VNEMH4SWP73O3GW1","","1199","img/animal6.png","74","1202","74","1",""
"","html-keyboard-response","9","52114","0.0-9.0","3GU1KF0O4JNFMVO5DGGXOAM2YO8PB3","A207IHY6GERCFO","3LN3BXKGC0HZB1VNEMH4SWP73O3GW1","","null","<img src=""img/animal6.png"" style=""width:200px; border:14px solid green;"">","null","","","",""
"","image-keyboard-response","10","52747","0.0-10.0","3GU1KF0O4JNFMVO5DGGXOAM2YO8PB3","A207IHY6GERCFO","3LN3BXKGC0HZB1VNEMH4SWP73O3GW1","","630","img/animal4.png","75","632","75","1",""
"","html-keyboard-response","11","53049","0.0-11.0","3GU1KF0O4JNFMVO5DGGXOAM2YO8PB3","A207IHY6GERCFO","3LN3BXKGC0HZB1VNEMH4SWP73O3GW1","","null","<img src=""img/animal4.png"" style=""width:200px; border:14px solid green;"">","null","","","",""
"","image-keyboard-response","12","53596","0.0-12.0","3GU1KF0O4JNFMVO5DGGXOAM2YO8PB3","A207IHY6GERCFO","3LN3BXKGC0HZB1VNEMH4SWP73O3GW1","","545","img/animal2.png","76","546","76","1",""
"","html-keyboard-response","13","53898","0.0-13.0","3GU1KF0O4JNFMVO5DGGXOAM2YO8PB3","A207IHY6GERCFO","3LN3BXKGC0HZB1VNEMH4SWP73O3GW1","","null","<img src=""img/animal2.png"" style=""width:200px; border:14px solid green;"">","null","","","",""
"","image-keyboard-response","14","54467","0.0-14.0","3GU1KF0O4JNFMVO5DGGXOAM2YO8PB3","A207IHY6GERCFO","3LN3BXKGC0HZB1VNEMH4SWP73O3GW1","","567","img/animal2.png","76","568","76","1",""
"","html-keyboard-response","15","54768","0.0-15.0","3GU1KF0O4JNFMVO5DGGXOAM2YO8PB3","A207IHY6GERCFO","3LN3BXKGC0HZB1VNEMH4SWP73O3GW1","","null","<img src=""img/animal2.png"" style=""width:200px; border:14px solid green;"">","null","","","",""
"","image-keyboard-response","16","55436","0.0-16.0","3GU1KF0O4JNFMVO5DGGXOAM2YO8PB3","A207IHY6GERCFO","3LN3BXKGC0HZB1VNEMH4SWP73O3GW1","","665","img/animal6.png","74","668","74","1",""
"","html-keyboard-response","17","55739","0.0-17.0","3GU1KF0O4JNFMVO5DGGXOAM2YO8PB3","A207IHY6GERCFO","3LN3BXKGC0HZB1VNEMH4SWP73O3GW1","","null","<img src=""img/animal6.png"" style=""width:200px; border:14px solid green;"">","null","","","",""
"","image-keyboard-response","18","56299","0.0-18.0","3GU1KF0O4JNFMVO5DGGXOAM2YO8PB3","A207IHY6GERCFO","3LN3BXKGC0HZB1VNEMH4SWP73O3GW1","","558","img/animal4.png","75","560","75","1",""
"","html-keyboard-response","19","56602","0.0-19.0","3GU1KF0O4JNFMVO5DGGXOAM2YO8PB3","A207IHY6GERCFO","3LN3BXKGC0HZB1VNEMH4SWP73O3GW1","","null","<img src=""img/animal4.png"" style=""width:200px; border:14px solid green;"">","null","","","",""
"","image-keyboard-response","20","57106","0.0-20.0","3GU1KF0O4JNFMVO5DGGXOAM2YO8PB3","A207IHY6GERCFO","3LN3BXKGC0HZB1VNEMH4SWP73O3GW1","","501","img/animal2.png","76","503","76","1",""
"","html-keyboard-response","21","57407","0.0-21.0","3GU1KF0O4JNFMVO5DGGXOAM2YO8PB3","A207IHY6GERCFO","3LN3BXKGC0HZB1VNEMH4SWP73O3GW1","","null","<img src=""img/animal2.png"" style=""width:200px; border:14px solid green;"">","null","","","",""
"","image-keyboard-response","22","57938","0.0-22.0","3GU1KF0O4JNFMVO5DGGXOAM2YO8PB3","A207IHY6GERCFO","3LN3BXKGC0HZB1VNEMH4SWP73O3GW1","","530","img/animal2.png","76","531","76","1",""
"","html-keyboard-response","23","58241","0.0-23.0","3GU1KF0O4JNFMVO5DGGXOAM2YO8PB3","A207IHY6GERCFO","3LN3BXKGC0HZB1VNEMH4SWP73O3GW1","","null","<img src=""img/animal2.png"" style=""width:200px; border:14px solid green;"">","null","","","",""
"","image-keyboard-response","24","58915","0.0-24.0","3GU1KF0O4JNFMVO5DGGXOAM2YO8PB3","A207IHY6GERCFO","3LN3BXKGC0HZB1VNEMH4SWP73O3GW1","","673","img/animal6.png","74","675","74","1",""
"","html-keyboard-response","25","59219","0.0-25.0","3GU1KF0O4JNFMVO5DGGXOAM2YO8PB3","A207IHY6GERCFO","3LN3BXKGC0HZB1VNEMH4SWP73O3GW1","","null","<img src=""img/animal6.png"" style=""width:200px; border:14px solid green;"">","null","","","",""
"","image-keyboard-response","26","59771","0.0-26.0","3GU1KF0O4JNFMVO5DGGXOAM2YO8PB3","A207IHY6GERCFO","3LN3BXKGC0HZB1VNEMH4SWP73O3GW1","","550","img/animal2.png","76","551","76","1",""
"","html-keyboard-response","27","60074","0.0-27.0","3GU1KF0O4JNFMVO5DGGXOAM2YO8PB3","A207IHY6GERCFO","3LN3BXKGC0HZB1VNEMH4SWP73O3GW1","","null","<img src=""img/animal2.png"" style=""width:200px; border:14px solid green;"">","null","","","",""
"","image-keyboard-response","28","60506","0.0-28.0","3GU1KF0O4JNFMVO5DGGXOAM2YO8PB3","A207IHY6GERCFO","3LN3BXKGC0HZB1VNEMH4SWP73O3GW1","","429","img/animal2.png","76","431","76","1",""
"","html-keyboard-response","29","60809","0.0-29.0","3GU1KF0O4JNFMVO5DGGXOAM2YO8PB3","A207IHY6GERCFO","3LN3BXKGC0HZB1VNEMH4SWP73O3GW1","","null","<img src=""img/animal2.png"" style=""width:200px; border:14px solid green;"">","null","","","",""
"","image-keyboard-response","30","61434","0.0-30.0","3GU1KF0O4JNFMVO5DGGXOAM2YO8PB3","A207IHY6GERCFO","3LN3BXKGC0HZB1VNEMH4SWP73O3GW1","","623","img/animal4.png","75","626","75","1",""
"","html-keyboard-response","31","61737","0.0-31.0","3GU1KF0O4JNFMVO5DGGXOAM2YO8PB3","A207IHY6GERCFO","3LN3BXKGC0HZB1VNEMH4SWP73O3GW1","","null","<img src=""img/animal4.png"" style=""width:200px; border:14px solid green;"">","null","","","",""
"","image-keyboard-response","32","62083","0.0-32.0","3GU1KF0O4JNFMVO5DGGXOAM2YO8PB3","A207IHY6GERCFO","3LN3BXKGC0HZB1VNEMH4SWP73O3GW1","","344","img/animal4.png","75","346","75","1",""
"","html-keyboard-response","33","62385","0.0-33.0","3GU1KF0O4JNFMVO5DGGXOAM2YO8PB3","A207IHY6GERCFO","3LN3BXKGC0HZB1VNEMH4SWP73O3GW1","","null","<img src=""img/animal4.png"" style=""width:200px; border:14px solid green;"">","null","","","",""
"","image-keyboard-response","34","62699","0.0-34.0","3GU1KF0O4JNFMVO5DGGXOAM2YO8PB3","A207IHY6GERCFO","3LN3BXKGC0HZB1VNEMH4SWP73O3GW1","","312","img/animal4.png","75","313","75","1",""
"","html-keyboard-response","35","63002","0.0-35.0","3GU1KF0O4JNFMVO5DGGXOAM2YO8PB3","A207IHY6GERCFO","3LN3BXKGC0HZB1VNEMH4SWP73O3GW1","","null","<img src=""img/animal4.png"" style=""width:200px; border:14px solid green;"">","null","","","",""
"","image-keyboard-response","36","63291","0.0-36.0","3GU1KF0O4JNFMVO5DGGXOAM2YO8PB3","A207IHY6GERCFO","3LN3BXKGC0HZB1VNEMH4SWP73O3GW1","","287","img/animal4.png","75","290","75","1",""
"","html-keyboard-response","37","63593","0.0-37.0","3GU1KF0O4JNFMVO5DGGXOAM2YO8PB3","A207IHY6GERCFO","3LN3BXKGC0HZB1VNEMH4SWP73O3GW1","","null","<img src=""img/animal4.png"" style=""width:200px; border:14px solid green;"">","null","","","",""
"","image-keyboard-response","38","64179","0.0-38.0","3GU1KF0O4JNFMVO5DGGXOAM2YO8PB3","A207IHY6GERCFO","3LN3BXKGC0HZB1VNEMH4SWP73O3GW1","","584","img/animal6.png","74","586","74","1",""
"","html-keyboard-response","39","64482","0.0-39.0","3GU1KF0O4JNFMVO5DGGXOAM2YO8PB3","A207IHY6GERCFO","3LN3BXKGC0HZB1VNEMH4SWP73O3GW1","","null","<img src=""img/animal6.png"" style=""width:200px; border:14px solid green;"">","null","","","",""
"","image-keyboard-response","40","65075","0.0-40.0","3GU1KF0O4JNFMVO5DGGXOAM2YO8PB3","A207IHY6GERCFO","3LN3BXKGC0HZB1VNEMH4SWP73O3GW1","","591","img/animal4.png","75","592","75","1",""
"","html-keyboard-response","41","65377","0.0-41.0","3GU1KF0O4JNFMVO5DGGXOAM2YO8PB3","A207IHY6GERCFO","3LN3BXKGC0HZB1VNEMH4SWP73O3GW1","","null","<img src=""img/animal4.png"" style=""width:200px; border:14px solid green;"">","null","","","",""
"","image-keyboard-response","42","66228","0.0-42.0","3GU1KF0O4JNFMVO5DGGXOAM2YO8PB3","A207IHY6GERCFO","3LN3BXKGC0HZB1VNEMH4SWP73O3GW1","","847","img/animal6.png","74","850","74","1",""
"","html-keyboard-response","43","66530","0.0-43.0","3GU1KF0O4JNFMVO5DGGXOAM2YO8PB3","A207IHY6GERCFO","3LN3BXKGC0HZB1VNEMH4SWP73O3GW1","","null","<img src=""img/animal6.png"" style=""width:200px; border:14px solid green;"">","null","","","",""
"","image-keyboard-response","44","67139","0.0-44.0","3GU1KF0O4JNFMVO5DGGXOAM2YO8PB3","A207IHY6GERCFO","3LN3BXKGC0HZB1VNEMH4SWP73O3GW1","","607","img/animal4.png","75","609","75","1",""
"","html-keyboard-response","45","67441","0.0-45.0","3GU1KF0O4JNFMVO5DGGXOAM2YO8PB3","A207IHY6GERCFO","3LN3BXKGC0HZB1VNEMH4SWP73O3GW1","","null","<img src=""img/animal4.png"" style=""width:200px; border:14px solid green;"">","null","","","",""
"","image-keyboard-response","46","68067","0.0-46.0","3GU1KF0O4JNFMVO5DGGXOAM2YO8PB3","A207IHY6GERCFO","3LN3BXKGC0HZB1VNEMH4SWP73O3GW1","","624","img/animal2.png","76","626","76","0",""
"","html-keyboard-response","47","68371","0.0-47.0","3GU1KF0O4JNFMVO5DGGXOAM2YO8PB3","A207IHY6GERCFO","3LN3BXKGC0HZB1VNEMH4SWP73O3GW1","","null","<img src=""img/animal2.png"" style=""width:200px;border:14px solid red;"">","null","","","",""
"","image-keyboard-response","48","69323","0.0-48.0","3GU1KF0O4JNFMVO5DGGXOAM2YO8PB3","A207IHY6GERCFO","3LN3BXKGC0HZB1VNEMH4SWP73O3GW1","","950","img/animal4.png","75","952","75","1",""
"","html-keyboard-response","49","69625","0.0-49.0","3GU1KF0O4JNFMVO5DGGXOAM2YO8PB3","A207IHY6GERCFO","3LN3BXKGC0HZB1VNEMH4SWP73O3GW1","","null","<img src=""img/animal4.png"" style=""width:200px; border:14px solid green;"">","null","","","",""
"","image-keyboard-response","50","70483","0.0-50.0","3GU1KF0O4JNFMVO5DGGXOAM2YO8PB3","A207IHY6GERCFO","3LN3BXKGC0HZB1VNEMH4SWP73O3GW1","","856","img/animal6.png","74","858","74","1",""
"","html-keyboard-response","51","70785","0.0-51.0","3GU1KF0O4JNFMVO5DGGXOAM2YO8PB3","A207IHY6GERCFO","3LN3BXKGC0HZB1VNEMH4SWP73O3GW1","","null","<img src=""img/animal6.png"" style=""width:200px; border:14px solid green;"">","null","","","",""
"","image-keyboard-response","52","71419","0.0-52.0","3GU1KF0O4JNFMVO5DGGXOAM2YO8PB3","A207IHY6GERCFO","3LN3BXKGC0HZB1VNEMH4SWP73O3GW1","","631","img/animal2.png","76","633","76","1",""
"","html-keyboard-response","53","71721","0.0-53.0","3GU1KF0O4JNFMVO5DGGXOAM2YO8PB3","A207IHY6GERCFO","3LN3BXKGC0HZB1VNEMH4SWP73O3GW1","","null","<img src=""img/animal2.png"" style=""width:200px; border:14px solid green;"">","null","","","",""
"","image-keyboard-response","54","72762","0.0-54.0","3GU1KF0O4JNFMVO5DGGXOAM2YO8PB3","A207IHY6GERCFO","3LN3BXKGC0HZB1VNEMH4SWP73O3GW1","","1038","img/animal6.png","75","1040","75","1",""
"","html-keyboard-response","55","73064","0.0-55.0","3GU1KF0O4JNFMVO5DGGXOAM2YO8PB3","A207IHY6GERCFO","3LN3BXKGC0HZB1VNEMH4SWP73O3GW1","","null","<img src=""img/animal6.png"" style=""width:200px; border:14px solid green;"">","null","","","",""
"","image-keyboard-response","56","73675","0.0-56.0","3GU1KF0O4JNFMVO5DGGXOAM2YO8PB3","A207IHY6GERCFO","3LN3BXKGC0HZB1VNEMH4SWP73O3GW1","","609","img/animal2.png","76","611","76","1",""
"","html-keyboard-response","57","73977","0.0-57.0","3GU1KF0O4JNFMVO5DGGXOAM2YO8PB3","A207IHY6GERCFO","3LN3BXKGC0HZB1VNEMH4SWP73O3GW1","","null","<img src=""img/animal2.png"" style=""width:200px; border:14px solid green;"">","null","","","",""
"","image-keyboard-response","58","74530","0.0-58.0","3GU1KF0O4JNFMVO5DGGXOAM2YO8PB3","A207IHY6GERCFO","3LN3BXKGC0HZB1VNEMH4SWP73O3GW1","","552","img/animal4.png","75","552","75","0",""
"","html-keyboard-response","59","74831","0.0-59.0","3GU1KF0O4JNFMVO5DGGXOAM2YO8PB3","A207IHY6GERCFO","3LN3BXKGC0HZB1VNEMH4SWP73O3GW1","","null","<img src=""img/animal4.png"" style=""width:200px;border:14px solid red;"">","null","","","",""
"","image-keyboard-response","60","75355","0.0-60.0","3GU1KF0O4JNFMVO5DGGXOAM2YO8PB3","A207IHY6GERCFO","3LN3BXKGC0HZB1VNEMH4SWP73O3GW1","","522","img/animal4.png","75","523","75","1",""
"","html-keyboard-response","61","75657","0.0-61.0","3GU1KF0O4JNFMVO5DGGXOAM2YO8PB3","A207IHY6GERCFO","3LN3BXKGC0HZB1VNEMH4SWP73O3GW1","","null","<img src=""img/animal4.png"" style=""width:200px; border:14px solid green;"">","null","","","",""
"","image-keyboard-response","62","75963","0.0-62.0","3GU1KF0O4JNFMVO5DGGXOAM2YO8PB3","A207IHY6GERCFO","3LN3BXKGC0HZB1VNEMH4SWP73O3GW1","","303","img/animal4.png","75","305","75","0",""
"","html-keyboard-response","63","76265","0.0-63.0","3GU1KF0O4JNFMVO5DGGXOAM2YO8PB3","A207IHY6GERCFO","3LN3BXKGC0HZB1VNEMH4SWP73O3GW1","","null","<img src=""img/animal4.png"" style=""width:200px;border:14px solid red;"">","null","","","",""
"","image-keyboard-response","64","76931","0.0-64.0","3GU1KF0O4JNFMVO5DGGXOAM2YO8PB3","A207IHY6GERCFO","3LN3BXKGC0HZB1VNEMH4SWP73O3GW1","","662","img/animal6.png","74","666","74","1",""
"","html-keyboard-response","65","77234","0.0-65.0","3GU1KF0O4JNFMVO5DGGXOAM2YO8PB3","A207IHY6GERCFO","3LN3BXKGC0HZB1VNEMH4SWP73O3GW1","","null","<img src=""img/animal6.png"" style=""width:200px; border:14px solid green;"">","null","","","",""
"","image-keyboard-response","66","77603","0.0-66.0","3GU1KF0O4JNFMVO5DGGXOAM2YO8PB3","A207IHY6GERCFO","3LN3BXKGC0HZB1VNEMH4SWP73O3GW1","","367","img/animal6.png","74","368","74","0",""
"","html-keyboard-response","67","77905","0.0-67.0","3GU1KF0O4JNFMVO5DGGXOAM2YO8PB3","A207IHY6GERCFO","3LN3BXKGC0HZB1VNEMH4SWP73O3GW1","","null","<img src=""img/animal6.png"" style=""width:200px;border:14px solid red;"">","null","","","",""
"","image-keyboard-response","68","78538","0.0-68.0","3GU1KF0O4JNFMVO5DGGXOAM2YO8PB3","A207IHY6GERCFO","3LN3BXKGC0HZB1VNEMH4SWP73O3GW1","","631","img/animal2.png","76","632","76","1",""
"","html-keyboard-response","69","78839","0.0-69.0","3GU1KF0O4JNFMVO5DGGXOAM2YO8PB3","A207IHY6GERCFO","3LN3BXKGC0HZB1VNEMH4SWP73O3GW1","","null","<img src=""img/animal2.png"" style=""width:200px; border:14px solid green;"">","null","","","",""
"","image-keyboard-response","70","79251","0.0-70.0","3GU1KF0O4JNFMVO5DGGXOAM2YO8PB3","A207IHY6GERCFO","3LN3BXKGC0HZB1VNEMH4SWP73O3GW1","","410","img/animal2.png","76","412","76","0",""
"","html-keyboard-response","71","79554","0.0-71.0","3GU1KF0O4JNFMVO5DGGXOAM2YO8PB3","A207IHY6GERCFO","3LN3BXKGC0HZB1VNEMH4SWP73O3GW1","","null","<img src=""img/animal2.png"" style=""width:200px;border:14px solid red;"">","null","","","",""
"","image-keyboard-response","72","80131","0.0-72.0","3GU1KF0O4JNFMVO5DGGXOAM2YO8PB3","A207IHY6GERCFO","3LN3BXKGC0HZB1VNEMH4SWP73O3GW1","","576","img/animal4.png","75","577","75","1",""
"","html-keyboard-response","73","80434","0.0-73.0","3GU1KF0O4JNFMVO5DGGXOAM2YO8PB3","A207IHY6GERCFO","3LN3BXKGC0HZB1VNEMH4SWP73O3GW1","","null","<img src=""img/animal4.png"" style=""width:200px; border:14px solid green;"">","null","","","",""
"","image-keyboard-response","74","81187","0.0-74.0","3GU1KF0O4JNFMVO5DGGXOAM2YO8PB3","A207IHY6GERCFO","3LN3BXKGC0HZB1VNEMH4SWP73O3GW1","","750","img/animal2.png","76","753","76","1",""
"","html-keyboard-response","75","81489","0.0-75.0","3GU1KF0O4JNFMVO5DGGXOAM2YO8PB3","A207IHY6GERCFO","3LN3BXKGC0HZB1VNEMH4SWP73O3GW1","","null","<img src=""img/animal2.png"" style=""width:200px; border:14px solid green;"">","null","","","",""
"","image-keyboard-response","76","82251","0.0-76.0","3GU1KF0O4JNFMVO5DGGXOAM2YO8PB3","A207IHY6GERCFO","3LN3BXKGC0HZB1VNEMH4SWP73O3GW1","","760","img/animal6.png","74","762","74","0",""
"","html-keyboard-response","77","82554","0.0-77.0","3GU1KF0O4JNFMVO5DGGXOAM2YO8PB3","A207IHY6GERCFO","3LN3BXKGC0HZB1VNEMH4SWP73O3GW1","","null","<img src=""img/animal6.png"" style=""width:200px;border:14px solid red;"">","null","","","",""
"","image-keyboard-response","78","83147","0.0-78.0","3GU1KF0O4JNFMVO5DGGXOAM2YO8PB3","A207IHY6GERCFO","3LN3BXKGC0HZB1VNEMH4SWP73O3GW1","","593","img/animal4.png","75","594","75","0",""
"","html-keyboard-response","79","83450","0.0-79.0","3GU1KF0O4JNFMVO5DGGXOAM2YO8PB3","A207IHY6GERCFO","3LN3BXKGC0HZB1VNEMH4SWP73O3GW1","","null","<img src=""img/animal4.png"" style=""width:200px;border:14px solid red;"">","null","","","",""
"","image-keyboard-response","80","84019","0.0-80.0","3GU1KF0O4JNFMVO5DGGXOAM2YO8PB3","A207IHY6GERCFO","3LN3BXKGC0HZB1VNEMH4SWP73O3GW1","","567","img/animal2.png","76","570","76","1",""
"","html-keyboard-response","81","84321","0.0-81.0","3GU1KF0O4JNFMVO5DGGXOAM2YO8PB3","A207IHY6GERCFO","3LN3BXKGC0HZB1VNEMH4SWP73O3GW1","","null","<img src=""img/animal2.png"" style=""width:200px; border:14px solid green;"">","null","","","",""
"","image-keyboard-response","82","84891","0.0-82.0","3GU1KF0O4JNFMVO5DGGXOAM2YO8PB3","A207IHY6GERCFO","3LN3BXKGC0HZB1VNEMH4SWP73O3GW1","","567","img/animal4.png","75","569","75","1",""
"","html-keyboard-response","83","85193","0.0-83.0","3GU1KF0O4JNFMVO5DGGXOAM2YO8PB3","A207IHY6GERCFO","3LN3BXKGC0HZB1VNEMH4SWP73O3GW1","","null","<img src=""img/animal4.png"" style=""width:200px; border:14px solid green;"">","null","","","",""
"","image-keyboard-response","84","85538","0.0-84.0","3GU1KF0O4JNFMVO5DGGXOAM2YO8PB3","A207IHY6GERCFO","3LN3BXKGC0HZB1VNEMH4SWP73O3GW1","","343","img/animal4.png","75","345","75","1",""
"","html-keyboard-response","85","85841","0.0-85.0","3GU1KF0O4JNFMVO5DGGXOAM2YO8PB3","A207IHY6GERCFO","3LN3BXKGC0HZB1VNEMH4SWP73O3GW1","","null","<img src=""img/animal4.png"" style=""width:200px; border:14px solid green;"">","null","","","",""
"","image-keyboard-response","86","86483","0.0-86.0","3GU1KF0O4JNFMVO5DGGXOAM2YO8PB3","A207IHY6GERCFO","3LN3BXKGC0HZB1VNEMH4SWP73O3GW1","","641","img/animal6.png","74","642","74","1",""
"","html-keyboard-response","87","86786","0.0-87.0","3GU1KF0O4JNFMVO5DGGXOAM2YO8PB3","A207IHY6GERCFO","3LN3BXKGC0HZB1VNEMH4SWP73O3GW1","","null","<img src=""img/animal6.png"" style=""width:200px; border:14px solid green;"">","null","","","",""
"","image-keyboard-response","88","87140","0.0-88.0","3GU1KF0O4JNFMVO5DGGXOAM2YO8PB3","A207IHY6GERCFO","3LN3BXKGC0HZB1VNEMH4SWP73O3GW1","","351","img/animal6.png","74","352","74","1",""
"","html-keyboard-response","89","87442","0.0-89.0","3GU1KF0O4JNFMVO5DGGXOAM2YO8PB3","A207IHY6GERCFO","3LN3BXKGC0HZB1VNEMH4SWP73O3GW1","","null","<img src=""img/animal6.png"" style=""width:200px; border:14px solid green;"">","null","","","",""
"","image-keyboard-response","90","88059","0.0-90.0","3GU1KF0O4JNFMVO5DGGXOAM2YO8PB3","A207IHY6GERCFO","3LN3BXKGC0HZB1VNEMH4SWP73O3GW1","","615","img/animal4.png","75","617","75","0",""
"","html-keyboard-response","91","88362","0.0-91.0","3GU1KF0O4JNFMVO5DGGXOAM2YO8PB3","A207IHY6GERCFO","3LN3BXKGC0HZB1VNEMH4SWP73O3GW1","","null","<img src=""img/animal4.png"" style=""width:200px;border:14px solid red;"">","null","","","",""
"","image-keyboard-response","92","89051","0.0-92.0","3GU1KF0O4JNFMVO5DGGXOAM2YO8PB3","A207IHY6GERCFO","3LN3BXKGC0HZB1VNEMH4SWP73O3GW1","","687","img/animal6.png","74","687","74","1",""
"","html-keyboard-response","93","89354","0.0-93.0","3GU1KF0O4JNFMVO5DGGXOAM2YO8PB3","A207IHY6GERCFO","3LN3BXKGC0HZB1VNEMH4SWP73O3GW1","","null","<img src=""img/animal6.png"" style=""width:200px; border:14px solid green;"">","null","","","",""
"","image-keyboard-response","94","89923","0.0-94.0","3GU1KF0O4JNFMVO5DGGXOAM2YO8PB3","A207IHY6GERCFO","3LN3BXKGC0HZB1VNEMH4SWP73O3GW1","","568","img/animal2.png","76","568","76","1",""
"","html-keyboard-response","95","90226","0.0-95.0","3GU1KF0O4JNFMVO5DGGXOAM2YO8PB3","A207IHY6GERCFO","3LN3BXKGC0HZB1VNEMH4SWP73O3GW1","","null","<img src=""img/animal2.png"" style=""width:200px; border:14px solid green;"">","null","","","",""
"","image-keyboard-response","96","91107","0.0-96.0","3GU1KF0O4JNFMVO5DGGXOAM2YO8PB3","A207IHY6GERCFO","3LN3BXKGC0HZB1VNEMH4SWP73O3GW1","","878","img/animal6.png","74","881","74","1",""
"","html-keyboard-response","97","91409","0.0-97.0","3GU1KF0O4JNFMVO5DGGXOAM2YO8PB3","A207IHY6GERCFO","3LN3BXKGC0HZB1VNEMH4SWP73O3GW1","","null","<img src=""img/animal6.png"" style=""width:200px; border:14px solid green;"">","null","","","",""
"","image-keyboard-response","98","92020","0.0-98.0","3GU1KF0O4JNFMVO5DGGXOAM2YO8PB3","A207IHY6GERCFO","3LN3BXKGC0HZB1VNEMH4SWP73O3GW1","","609","img/animal2.png","76","610","76","1",""
"","html-keyboard-response","99","92323","0.0-99.0","3GU1KF0O4JNFMVO5DGGXOAM2YO8PB3","A207IHY6GERCFO","3LN3BXKGC0HZB1VNEMH4SWP73O3GW1","","null","<img src=""img/animal2.png"" style=""width:200px; border:14px solid green;"">","null","","","",""
"","image-keyboard-response","100","93043","0.0-100.0","3GU1KF0O4JNFMVO5DGGXOAM2YO8PB3","A207IHY6GERCFO","3LN3BXKGC0HZB1VNEMH4SWP73O3GW1","","718","img/animal6.png","74","720","74","0",""
"","html-keyboard-response","101","93346","0.0-101.0","3GU1KF0O4JNFMVO5DGGXOAM2YO8PB3","A207IHY6GERCFO","3LN3BXKGC0HZB1VNEMH4SWP73O3GW1","","null","<img src=""img/animal6.png"" style=""width:200px;border:14px solid red;"">","null","","","",""
"","image-keyboard-response","102","93659","0.0-102.0","3GU1KF0O4JNFMVO5DGGXOAM2YO8PB3","A207IHY6GERCFO","3LN3BXKGC0HZB1VNEMH4SWP73O3GW1","","311","img/animal6.png","74","312","74","1",""
"","html-keyboard-response","103","93963","0.0-103.0","3GU1KF0O4JNFMVO5DGGXOAM2YO8PB3","A207IHY6GERCFO","3LN3BXKGC0HZB1VNEMH4SWP73O3GW1","","null","<img src=""img/animal6.png"" style=""width:200px; border:14px solid green;"">","null","","","",""
"","image-keyboard-response","104","94538","0.0-104.0","3GU1KF0O4JNFMVO5DGGXOAM2YO8PB3","A207IHY6GERCFO","3LN3BXKGC0HZB1VNEMH4SWP73O3GW1","","573","img/animal4.png","75","574","75","1",""
"","html-keyboard-response","105","94840","0.0-105.0","3GU1KF0O4JNFMVO5DGGXOAM2YO8PB3","A207IHY6GERCFO","3LN3BXKGC0HZB1VNEMH4SWP73O3GW1","","null","<img src=""img/animal4.png"" style=""width:200px; border:14px solid green;"">","null","","","",""
"","image-keyboard-response","106","95652","0.0-106.0","3GU1KF0O4JNFMVO5DGGXOAM2YO8PB3","A207IHY6GERCFO","3LN3BXKGC0HZB1VNEMH4SWP73O3GW1","","808","img/animal6.png","74","810","74","1",""
"","html-keyboard-response","107","95955","0.0-107.0","3GU1KF0O4JNFMVO5DGGXOAM2YO8PB3","A207IHY6GERCFO","3LN3BXKGC0HZB1VNEMH4SWP73O3GW1","","null","<img src=""img/animal6.png"" style=""width:200px; border:14px solid green;"">","null","","","",""
"","image-keyboard-response","108","96379","0.0-108.0","3GU1KF0O4JNFMVO5DGGXOAM2YO8PB3","A207IHY6GERCFO","3LN3BXKGC0HZB1VNEMH4SWP73O3GW1","","423","img/animal6.png","74","424","74","0",""
"","html-keyboard-response","109","96681","0.0-109.0","3GU1KF0O4JNFMVO5DGGXOAM2YO8PB3","A207IHY6GERCFO","3LN3BXKGC0HZB1VNEMH4SWP73O3GW1","","null","<img src=""img/animal6.png"" style=""width:200px;border:14px solid red;"">","null","","","",""
"","image-keyboard-response","110","97228","0.0-110.0","3GU1KF0O4JNFMVO5DGGXOAM2YO8PB3","A207IHY6GERCFO","3LN3BXKGC0HZB1VNEMH4SWP73O3GW1","","543","img/animal4.png","75","546","75","1",""
"","html-keyboard-response","111","97530","0.0-111.0","3GU1KF0O4JNFMVO5DGGXOAM2YO8PB3","A207IHY6GERCFO","3LN3BXKGC0HZB1VNEMH4SWP73O3GW1","","null","<img src=""img/animal4.png"" style=""width:200px; border:14px solid green;"">","null","","","",""
"","image-keyboard-response","112","97843","0.0-112.0","3GU1KF0O4JNFMVO5DGGXOAM2YO8PB3","A207IHY6GERCFO","3LN3BXKGC0HZB1VNEMH4SWP73O3GW1","","312","img/animal4.png","75","312","75","1",""
"","html-keyboard-response","113","98146","0.0-113.0","3GU1KF0O4JNFMVO5DGGXOAM2YO8PB3","A207IHY6GERCFO","3LN3BXKGC0HZB1VNEMH4SWP73O3GW1","","null","<img src=""img/animal4.png"" style=""width:200px; border:14px solid green;"">","null","","","",""
"","image-keyboard-response","114","98491","0.0-114.0","3GU1KF0O4JNFMVO5DGGXOAM2YO8PB3","A207IHY6GERCFO","3LN3BXKGC0HZB1VNEMH4SWP73O3GW1","","340","img/animal4.png","75","344","75","1",""
"","html-keyboard-response","115","98794","0.0-115.0","3GU1KF0O4JNFMVO5DGGXOAM2YO8PB3","A207IHY6GERCFO","3LN3BXKGC0HZB1VNEMH4SWP73O3GW1","","null","<img src=""img/animal4.png"" style=""width:200px; border:14px solid green;"">","null","","","",""
"","image-keyboard-response","116","99419","0.0-116.0","3GU1KF0O4JNFMVO5DGGXOAM2YO8PB3","A207IHY6GERCFO","3LN3BXKGC0HZB1VNEMH4SWP73O3GW1","","623","img/animal6.png","74","625","74","1",""
"","html-keyboard-response","117","99721","0.0-117.0","3GU1KF0O4JNFMVO5DGGXOAM2YO8PB3","A207IHY6GERCFO","3LN3BXKGC0HZB1VNEMH4SWP73O3GW1","","null","<img src=""img/animal6.png"" style=""width:200px; border:14px solid green;"">","null","","","",""
"","image-keyboard-response","118","100290","0.0-118.0","3GU1KF0O4JNFMVO5DGGXOAM2YO8PB3","A207IHY6GERCFO","3LN3BXKGC0HZB1VNEMH4SWP73O3GW1","","567","img/animal4.png","75","569","75","0",""
"","html-keyboard-response","119","100591","0.0-119.0","3GU1KF0O4JNFMVO5DGGXOAM2YO8PB3","A207IHY6GERCFO","3LN3BXKGC0HZB1VNEMH4SWP73O3GW1","","null","<img src=""img/animal4.png"" style=""width:200px;border:14px solid red;"">","null","","","",""
"","image-keyboard-response","120","100955","0.0-120.0","3GU1KF0O4JNFMVO5DGGXOAM2YO8PB3","A207IHY6GERCFO","3LN3BXKGC0HZB1VNEMH4SWP73O3GW1","","362","img/animal4.png","75","363","75","1",""
"","html-keyboard-response","121","101257","0.0-121.0","3GU1KF0O4JNFMVO5DGGXOAM2YO8PB3","A207IHY6GERCFO","3LN3BXKGC0HZB1VNEMH4SWP73O3GW1","","null","<img src=""img/animal4.png"" style=""width:200px; border:14px solid green;"">","null","","","",""
"","image-keyboard-response","122","101843","0.0-122.0","3GU1KF0O4JNFMVO5DGGXOAM2YO8PB3","A207IHY6GERCFO","3LN3BXKGC0HZB1VNEMH4SWP73O3GW1","","583","img/animal2.png","76","585","76","1",""
"","html-keyboard-response","123","102146","0.0-123.0","3GU1KF0O4JNFMVO5DGGXOAM2YO8PB3","A207IHY6GERCFO","3LN3BXKGC0HZB1VNEMH4SWP73O3GW1","","null","<img src=""img/animal2.png"" style=""width:200px; border:14px solid green;"">","null","","","",""
"","image-keyboard-response","124","102715","0.0-124.0","3GU1KF0O4JNFMVO5DGGXOAM2YO8PB3","A207IHY6GERCFO","3LN3BXKGC0HZB1VNEMH4SWP73O3GW1","","568","img/animal6.png","74","570","74","1",""
"","html-keyboard-response","125","103018","0.0-125.0","3GU1KF0O4JNFMVO5DGGXOAM2YO8PB3","A207IHY6GERCFO","3LN3BXKGC0HZB1VNEMH4SWP73O3GW1","","null","<img src=""img/animal6.png"" style=""width:200px; border:14px solid green;"">","null","","","",""
"","image-keyboard-response","126","103627","0.0-126.0","3GU1KF0O4JNFMVO5DGGXOAM2YO8PB3","A207IHY6GERCFO","3LN3BXKGC0HZB1VNEMH4SWP73O3GW1","","607","img/animal2.png","76","610","76","0",""
"","html-keyboard-response","127","103930","0.0-127.0","3GU1KF0O4JNFMVO5DGGXOAM2YO8PB3","A207IHY6GERCFO","3LN3BXKGC0HZB1VNEMH4SWP73O3GW1","","null","<img src=""img/animal2.png"" style=""width:200px;border:14px solid red;"">","null","","","",""
"","image-keyboard-response","128","104291","0.0-128.0","3GU1KF0O4JNFMVO5DGGXOAM2YO8PB3","A207IHY6GERCFO","3LN3BXKGC0HZB1VNEMH4SWP73O3GW1","","359","img/animal2.png","76","362","76","1",""
"","html-keyboard-response","129","104594","0.0-129.0","3GU1KF0O4JNFMVO5DGGXOAM2YO8PB3","A207IHY6GERCFO","3LN3BXKGC0HZB1VNEMH4SWP73O3GW1","","null","<img src=""img/animal2.png"" style=""width:200px; border:14px solid green;"">","null","","","",""
"","image-keyboard-response","130","105275","0.0-130.0","3GU1KF0O4JNFMVO5DGGXOAM2YO8PB3","A207IHY6GERCFO","3LN3BXKGC0HZB1VNEMH4SWP73O3GW1","","680","img/animal6.png","74","680","74","1",""
"","html-keyboard-response","131","105578","0.0-131.0","3GU1KF0O4JNFMVO5DGGXOAM2YO8PB3","A207IHY6GERCFO","3LN3BXKGC0HZB1VNEMH4SWP73O3GW1","","null","<img src=""img/animal6.png"" style=""width:200px; border:14px solid green;"">","null","","","",""
"","image-keyboard-response","132","106299","0.0-132.0","3GU1KF0O4JNFMVO5DGGXOAM2YO8PB3","A207IHY6GERCFO","3LN3BXKGC0HZB1VNEMH4SWP73O3GW1","","720","img/animal2.png","76","721","76","0",""
"","html-keyboard-response","133","106601","0.0-133.0","3GU1KF0O4JNFMVO5DGGXOAM2YO8PB3","A207IHY6GERCFO","3LN3BXKGC0HZB1VNEMH4SWP73O3GW1","","null","<img src=""img/animal2.png"" style=""width:200px;border:14px solid red;"">","null","","","",""
"","image-keyboard-response","134","107026","0.0-134.0","3GU1KF0O4JNFMVO5DGGXOAM2YO8PB3","A207IHY6GERCFO","3LN3BXKGC0HZB1VNEMH4SWP73O3GW1","","423","img/animal2.png","76","425","76","1",""
"","html-keyboard-response","135","107328","0.0-135.0","3GU1KF0O4JNFMVO5DGGXOAM2YO8PB3","A207IHY6GERCFO","3LN3BXKGC0HZB1VNEMH4SWP73O3GW1","","null","<img src=""img/animal2.png"" style=""width:200px; border:14px solid green;"">","null","","","",""
"","image-keyboard-response","136","107668","0.0-136.0","3GU1KF0O4JNFMVO5DGGXOAM2YO8PB3","A207IHY6GERCFO","3LN3BXKGC0HZB1VNEMH4SWP73O3GW1","","337","img/animal2.png","76","339","76","0",""
"","html-keyboard-response","137","107970","0.0-137.0","3GU1KF0O4JNFMVO5DGGXOAM2YO8PB3","A207IHY6GERCFO","3LN3BXKGC0HZB1VNEMH4SWP73O3GW1","","null","<img src=""img/animal2.png"" style=""width:200px;border:14px solid red;"">","null","","","",""
"","image-keyboard-response","138","108291","0.0-138.0","3GU1KF0O4JNFMVO5DGGXOAM2YO8PB3","A207IHY6GERCFO","3LN3BXKGC0HZB1VNEMH4SWP73O3GW1","","319","img/animal2.png","76","320","76","1",""
"","html-keyboard-response","139","108594","0.0-139.0","3GU1KF0O4JNFMVO5DGGXOAM2YO8PB3","A207IHY6GERCFO","3LN3BXKGC0HZB1VNEMH4SWP73O3GW1","","null","<img src=""img/animal2.png"" style=""width:200px; border:14px solid green;"">","null","","","",""
"","image-keyboard-response","140","109059","0.0-140.0","3GU1KF0O4JNFMVO5DGGXOAM2YO8PB3","A207IHY6GERCFO","3LN3BXKGC0HZB1VNEMH4SWP73O3GW1","","464","img/animal6.png","74","464","74","0",""
"","html-keyboard-response","141","109361","0.0-141.0","3GU1KF0O4JNFMVO5DGGXOAM2YO8PB3","A207IHY6GERCFO","3LN3BXKGC0HZB1VNEMH4SWP73O3GW1","","null","<img src=""img/animal6.png"" style=""width:200px;border:14px solid red;"">","null","","","",""
"","image-keyboard-response","142","109667","0.0-142.0","3GU1KF0O4JNFMVO5DGGXOAM2YO8PB3","A207IHY6GERCFO","3LN3BXKGC0HZB1VNEMH4SWP73O3GW1","","304","img/animal6.png","74","305","74","0",""
"","html-keyboard-response","143","109969","0.0-143.0","3GU1KF0O4JNFMVO5DGGXOAM2YO8PB3","A207IHY6GERCFO","3LN3BXKGC0HZB1VNEMH4SWP73O3GW1","","null","<img src=""img/animal6.png"" style=""width:200px;border:14px solid red;"">","null","","","",""
"","image-keyboard-response","144","110891","0.0-144.0","3GU1KF0O4JNFMVO5DGGXOAM2YO8PB3","A207IHY6GERCFO","3LN3BXKGC0HZB1VNEMH4SWP73O3GW1","","920","img/animal4.png","75","921","75","0",""
"","html-keyboard-response","145","111194","0.0-145.0","3GU1KF0O4JNFMVO5DGGXOAM2YO8PB3","A207IHY6GERCFO","3LN3BXKGC0HZB1VNEMH4SWP73O3GW1","","null","<img src=""img/animal4.png"" style=""width:200px;border:14px solid red;"">","null","","","",""
"","image-keyboard-response","146","111732","0.0-146.0","3GU1KF0O4JNFMVO5DGGXOAM2YO8PB3","A207IHY6GERCFO","3LN3BXKGC0HZB1VNEMH4SWP73O3GW1","","536","img/animal2.png","76","538","76","0",""
"","html-keyboard-response","147","112035","0.0-147.0","3GU1KF0O4JNFMVO5DGGXOAM2YO8PB3","A207IHY6GERCFO","3LN3BXKGC0HZB1VNEMH4SWP73O3GW1","","null","<img src=""img/animal2.png"" style=""width:200px;border:14px solid red;"">","null","","","",""
"","image-keyboard-response","148","112595","0.0-148.0","3GU1KF0O4JNFMVO5DGGXOAM2YO8PB3","A207IHY6GERCFO","3LN3BXKGC0HZB1VNEMH4SWP73O3GW1","","556","img/animal4.png","75","560","75","0",""
"","html-keyboard-response","149","112898","0.0-149.0","3GU1KF0O4JNFMVO5DGGXOAM2YO8PB3","A207IHY6GERCFO","3LN3BXKGC0HZB1VNEMH4SWP73O3GW1","","null","<img src=""img/animal4.png"" style=""width:200px;border:14px solid red;"">","null","","","",""
"","image-keyboard-response","150","113203","0.0-150.0","3GU1KF0O4JNFMVO5DGGXOAM2YO8PB3","A207IHY6GERCFO","3LN3BXKGC0HZB1VNEMH4SWP73O3GW1","","304","img/animal4.png","75","305","75","0",""
"","html-keyboard-response","151","113504","0.0-151.0","3GU1KF0O4JNFMVO5DGGXOAM2YO8PB3","A207IHY6GERCFO","3LN3BXKGC0HZB1VNEMH4SWP73O3GW1","","null","<img src=""img/animal4.png"" style=""width:200px;border:14px solid red;"">","null","","","",""
"","image-keyboard-response","152","114043","0.0-152.0","3GU1KF0O4JNFMVO5DGGXOAM2YO8PB3","A207IHY6GERCFO","3LN3BXKGC0HZB1VNEMH4SWP73O3GW1","","536","img/animal2.png","76","538","76","1",""
"","html-keyboard-response","153","114345","0.0-153.0","3GU1KF0O4JNFMVO5DGGXOAM2YO8PB3","A207IHY6GERCFO","3LN3BXKGC0HZB1VNEMH4SWP73O3GW1","","null","<img src=""img/animal2.png"" style=""width:200px; border:14px solid green;"">","null","","","",""
"","image-keyboard-response","154","114963","0.0-154.0","3GU1KF0O4JNFMVO5DGGXOAM2YO8PB3","A207IHY6GERCFO","3LN3BXKGC0HZB1VNEMH4SWP73O3GW1","","616","img/animal6.png","74","618","74","0",""
"","html-keyboard-response","155","115267","0.0-155.0","3GU1KF0O4JNFMVO5DGGXOAM2YO8PB3","A207IHY6GERCFO","3LN3BXKGC0HZB1VNEMH4SWP73O3GW1","","null","<img src=""img/animal6.png"" style=""width:200px;border:14px solid red;"">","null","","","",""
"","image-keyboard-response","156","115850","0.0-156.0","3GU1KF0O4JNFMVO5DGGXOAM2YO8PB3","A207IHY6GERCFO","3LN3BXKGC0HZB1VNEMH4SWP73O3GW1","","584","img/animal2.png","76","584","76","1",""
"","html-keyboard-response","157","116152","0.0-157.0","3GU1KF0O4JNFMVO5DGGXOAM2YO8PB3","A207IHY6GERCFO","3LN3BXKGC0HZB1VNEMH4SWP73O3GW1","","null","<img src=""img/animal2.png"" style=""width:200px; border:14px solid green;"">","null","","","",""
"","image-keyboard-response","158","116699","0.0-158.0","3GU1KF0O4JNFMVO5DGGXOAM2YO8PB3","A207IHY6GERCFO","3LN3BXKGC0HZB1VNEMH4SWP73O3GW1","","544","img/animal6.png","74","545","74","1",""
"","html-keyboard-response","159","117001","0.0-159.0","3GU1KF0O4JNFMVO5DGGXOAM2YO8PB3","A207IHY6GERCFO","3LN3BXKGC0HZB1VNEMH4SWP73O3GW1","","null","<img src=""img/animal6.png"" style=""width:200px; border:14px solid green;"">","null","","","",""
"","image-keyboard-response","160","117586","0.0-160.0","3GU1KF0O4JNFMVO5DGGXOAM2YO8PB3","A207IHY6GERCFO","3LN3BXKGC0HZB1VNEMH4SWP73O3GW1","","585","img/animal2.png","76","586","76","1",""
"","html-keyboard-response","161","117888","0.0-161.0","3GU1KF0O4JNFMVO5DGGXOAM2YO8PB3","A207IHY6GERCFO","3LN3BXKGC0HZB1VNEMH4SWP73O3GW1","","null","<img src=""img/animal2.png"" style=""width:200px; border:14px solid green;"">","null","","","",""
"","image-keyboard-response","162","118396","0.0-162.0","3GU1KF0O4JNFMVO5DGGXOAM2YO8PB3","A207IHY6GERCFO","3LN3BXKGC0HZB1VNEMH4SWP73O3GW1","","507","img/animal6.png","74","508","74","0",""
"","html-keyboard-response","163","118698","0.0-163.0","3GU1KF0O4JNFMVO5DGGXOAM2YO8PB3","A207IHY6GERCFO","3LN3BXKGC0HZB1VNEMH4SWP73O3GW1","","null","<img src=""img/animal6.png"" style=""width:200px;border:14px solid red;"">","null","","","",""
"","image-keyboard-response","164","119235","0.0-164.0","3GU1KF0O4JNFMVO5DGGXOAM2YO8PB3","A207IHY6GERCFO","3LN3BXKGC0HZB1VNEMH4SWP73O3GW1","","534","img/animal2.png","76","536","76","1",""
"","html-keyboard-response","165","119538","0.0-165.0","3GU1KF0O4JNFMVO5DGGXOAM2YO8PB3","A207IHY6GERCFO","3LN3BXKGC0HZB1VNEMH4SWP73O3GW1","","null","<img src=""img/animal2.png"" style=""width:200px; border:14px solid green;"">","null","","","",""
"","image-keyboard-response","166","120099","0.0-166.0","3GU1KF0O4JNFMVO5DGGXOAM2YO8PB3","A207IHY6GERCFO","3LN3BXKGC0HZB1VNEMH4SWP73O3GW1","","560","img/animal6.png","74","560","74","1",""
"","html-keyboard-response","167","120401","0.0-167.0","3GU1KF0O4JNFMVO5DGGXOAM2YO8PB3","A207IHY6GERCFO","3LN3BXKGC0HZB1VNEMH4SWP73O3GW1","","null","<img src=""img/animal6.png"" style=""width:200px; border:14px solid green;"">","null","","","",""
"","image-keyboard-response","168","121011","0.0-168.0","3GU1KF0O4JNFMVO5DGGXOAM2YO8PB3","A207IHY6GERCFO","3LN3BXKGC0HZB1VNEMH4SWP73O3GW1","","608","img/animal2.png","76","610","76","1",""
"","html-keyboard-response","169","121321","0.0-169.0","3GU1KF0O4JNFMVO5DGGXOAM2YO8PB3","A207IHY6GERCFO","3LN3BXKGC0HZB1VNEMH4SWP73O3GW1","","null","<img src=""img/animal2.png"" style=""width:200px; border:14px solid green;"">","null","","","",""
"","image-keyboard-response","170","121915","0.0-170.0","3GU1KF0O4JNFMVO5DGGXOAM2YO8PB3","A207IHY6GERCFO","3LN3BXKGC0HZB1VNEMH4SWP73O3GW1","","592","img/animal4.png","75","594","75","0",""
"","html-keyboard-response","171","122218","0.0-171.0","3GU1KF0O4JNFMVO5DGGXOAM2YO8PB3","A207IHY6GERCFO","3LN3BXKGC0HZB1VNEMH4SWP73O3GW1","","null","<img src=""img/animal4.png"" style=""width:200px;border:14px solid red;"">","null","","","",""
"","image-keyboard-response","172","122891","0.0-172.0","3GU1KF0O4JNFMVO5DGGXOAM2YO8PB3","A207IHY6GERCFO","3LN3BXKGC0HZB1VNEMH4SWP73O3GW1","","671","img/animal6.png","74","673","74","1",""
"","html-keyboard-response","173","123194","0.0-173.0","3GU1KF0O4JNFMVO5DGGXOAM2YO8PB3","A207IHY6GERCFO","3LN3BXKGC0HZB1VNEMH4SWP73O3GW1","","null","<img src=""img/animal6.png"" style=""width:200px; border:14px solid green;"">","null","","","",""
"","image-keyboard-response","174","123660","0.0-174.0","3GU1KF0O4JNFMVO5DGGXOAM2YO8PB3","A207IHY6GERCFO","3LN3BXKGC0HZB1VNEMH4SWP73O3GW1","","463","img/animal6.png","74","467","74","0",""
"","html-keyboard-response","175","123963","0.0-175.0","3GU1KF0O4JNFMVO5DGGXOAM2YO8PB3","A207IHY6GERCFO","3LN3BXKGC0HZB1VNEMH4SWP73O3GW1","","null","<img src=""img/animal6.png"" style=""width:200px;border:14px solid red;"">","null","","","",""
"","image-keyboard-response","176","124506","0.0-176.0","3GU1KF0O4JNFMVO5DGGXOAM2YO8PB3","A207IHY6GERCFO","3LN3BXKGC0HZB1VNEMH4SWP73O3GW1","","542","img/animal6.png","74","543","74","0",""
"","html-keyboard-response","177","124808","0.0-177.0","3GU1KF0O4JNFMVO5DGGXOAM2YO8PB3","A207IHY6GERCFO","3LN3BXKGC0HZB1VNEMH4SWP73O3GW1","","null","<img src=""img/animal6.png"" style=""width:200px;border:14px solid red;"">","null","","","",""
"","image-keyboard-response","178","125388","0.0-178.0","3GU1KF0O4JNFMVO5DGGXOAM2YO8PB3","A207IHY6GERCFO","3LN3BXKGC0HZB1VNEMH4SWP73O3GW1","","578","img/animal2.png","76","580","76","1",""
"","html-keyboard-response","179","125691","0.0-179.0","3GU1KF0O4JNFMVO5DGGXOAM2YO8PB3","A207IHY6GERCFO","3LN3BXKGC0HZB1VNEMH4SWP73O3GW1","","null","<img src=""img/animal2.png"" style=""width:200px; border:14px solid green;"">","null","","","",""
"","image-keyboard-response","180","126044","0.0-180.0","3GU1KF0O4JNFMVO5DGGXOAM2YO8PB3","A207IHY6GERCFO","3LN3BXKGC0HZB1VNEMH4SWP73O3GW1","","351","img/animal2.png","76","352","76","1",""
"","html-keyboard-response","181","126347","0.0-181.0","3GU1KF0O4JNFMVO5DGGXOAM2YO8PB3","A207IHY6GERCFO","3LN3BXKGC0HZB1VNEMH4SWP73O3GW1","","null","<img src=""img/animal2.png"" style=""width:200px; border:14px solid green;"">","null","","","",""
"","html-keyboard-response","182","129650","0.0-182.0","3GU1KF0O4JNFMVO5DGGXOAM2YO8PB3","A207IHY6GERCFO","3LN3BXKGC0HZB1VNEMH4SWP73O3GW1","","","","","","","",""
"","image-keyboard-response","183","130796","0.0-183.0","3GU1KF0O4JNFMVO5DGGXOAM2YO8PB3","A207IHY6GERCFO","3LN3BXKGC0HZB1VNEMH4SWP73O3GW1","","1144","img/animal3.png","74","1145","74","1",""
"","html-keyboard-response","184","131099","0.0-184.0","3GU1KF0O4JNFMVO5DGGXOAM2YO8PB3","A207IHY6GERCFO","3LN3BXKGC0HZB1VNEMH4SWP73O3GW1","","null","<img src=""img/animal3.png"" style=""width:200px; border:14px solid green;"">","null","","","",""
"","image-keyboard-response","185","131842","0.0-185.0","3GU1KF0O4JNFMVO5DGGXOAM2YO8PB3","A207IHY6GERCFO","3LN3BXKGC0HZB1VNEMH4SWP73O3GW1","","740","img/animal5.png","75","743","75","1",""
"","html-keyboard-response","186","132144","0.0-186.0","3GU1KF0O4JNFMVO5DGGXOAM2YO8PB3","A207IHY6GERCFO","3LN3BXKGC0HZB1VNEMH4SWP73O3GW1","","null","<img src=""img/animal5.png"" style=""width:200px; border:14px solid green;"">","null","","","",""
"","image-keyboard-response","187","132795","0.0-187.0","3GU1KF0O4JNFMVO5DGGXOAM2YO8PB3","A207IHY6GERCFO","3LN3BXKGC0HZB1VNEMH4SWP73O3GW1","","648","img/animal1.png","76","651","76","1",""
"","html-keyboard-response","188","133099","0.0-188.0","3GU1KF0O4JNFMVO5DGGXOAM2YO8PB3","A207IHY6GERCFO","3LN3BXKGC0HZB1VNEMH4SWP73O3GW1","","null","<img src=""img/animal1.png"" style=""width:200px; border:14px solid green;"">","null","","","",""
"","image-keyboard-response","189","133740","0.0-189.0","3GU1KF0O4JNFMVO5DGGXOAM2YO8PB3","A207IHY6GERCFO","3LN3BXKGC0HZB1VNEMH4SWP73O3GW1","","639","img/animal3.png","74","641","74","1",""
"","html-keyboard-response","190","134043","0.0-190.0","3GU1KF0O4JNFMVO5DGGXOAM2YO8PB3","A207IHY6GERCFO","3LN3BXKGC0HZB1VNEMH4SWP73O3GW1","","null","<img src=""img/animal3.png"" style=""width:200px; border:14px solid green;"">","null","","","",""
"","image-keyboard-response","191","134476","0.0-191.0","3GU1KF0O4JNFMVO5DGGXOAM2YO8PB3","A207IHY6GERCFO","3LN3BXKGC0HZB1VNEMH4SWP73O3GW1","","429","img/animal5.png","75","433","75","1",""
"","html-keyboard-response","192","134779","0.0-192.0","3GU1KF0O4JNFMVO5DGGXOAM2YO8PB3","A207IHY6GERCFO","3LN3BXKGC0HZB1VNEMH4SWP73O3GW1","","null","<img src=""img/animal5.png"" style=""width:200px; border:14px solid green;"">","null","","","",""
"","image-keyboard-response","193","135340","0.0-193.0","3GU1KF0O4JNFMVO5DGGXOAM2YO8PB3","A207IHY6GERCFO","3LN3BXKGC0HZB1VNEMH4SWP73O3GW1","","558","img/animal5.png","75","561","75","1",""
"","html-keyboard-response","194","135642","0.0-194.0","3GU1KF0O4JNFMVO5DGGXOAM2YO8PB3","A207IHY6GERCFO","3LN3BXKGC0HZB1VNEMH4SWP73O3GW1","","null","<img src=""img/animal5.png"" style=""width:200px; border:14px solid green;"">","null","","","",""
"","image-keyboard-response","195","135971","0.0-195.0","3GU1KF0O4JNFMVO5DGGXOAM2YO8PB3","A207IHY6GERCFO","3LN3BXKGC0HZB1VNEMH4SWP73O3GW1","","327","img/animal5.png","75","328","75","1",""
"","html-keyboard-response","196","136274","0.0-196.0","3GU1KF0O4JNFMVO5DGGXOAM2YO8PB3","A207IHY6GERCFO","3LN3BXKGC0HZB1VNEMH4SWP73O3GW1","","null","<img src=""img/animal5.png"" style=""width:200px; border:14px solid green;"">","null","","","",""
"","image-keyboard-response","197","136908","0.0-197.0","3GU1KF0O4JNFMVO5DGGXOAM2YO8PB3","A207IHY6GERCFO","3LN3BXKGC0HZB1VNEMH4SWP73O3GW1","","632","img/animal3.png","74","635","74","1",""
"","html-keyboard-response","198","137211","0.0-198.0","3GU1KF0O4JNFMVO5DGGXOAM2YO8PB3","A207IHY6GERCFO","3LN3BXKGC0HZB1VNEMH4SWP73O3GW1","","null","<img src=""img/animal3.png"" style=""width:200px; border:14px solid green;"">","null","","","",""
"","image-keyboard-response","199","137844","0.0-199.0","3GU1KF0O4JNFMVO5DGGXOAM2YO8PB3","A207IHY6GERCFO","3LN3BXKGC0HZB1VNEMH4SWP73O3GW1","","631","img/animal1.png","76","632","76","1",""
"","html-keyboard-response","200","138146","0.0-200.0","3GU1KF0O4JNFMVO5DGGXOAM2YO8PB3","A207IHY6GERCFO","3LN3BXKGC0HZB1VNEMH4SWP73O3GW1","","null","<img src=""img/animal1.png"" style=""width:200px; border:14px solid green;"">","null","","","",""
"","image-keyboard-response","201","138708","0.0-201.0","3GU1KF0O4JNFMVO5DGGXOAM2YO8PB3","A207IHY6GERCFO","3LN3BXKGC0HZB1VNEMH4SWP73O3GW1","","560","img/animal3.png","74","560","74","1",""
"","html-keyboard-response","202","139011","0.0-202.0","3GU1KF0O4JNFMVO5DGGXOAM2YO8PB3","A207IHY6GERCFO","3LN3BXKGC0HZB1VNEMH4SWP73O3GW1","","null","<img src=""img/animal3.png"" style=""width:200px; border:14px solid green;"">","null","","","",""
"","image-keyboard-response","203","139612","0.0-203.0","3GU1KF0O4JNFMVO5DGGXOAM2YO8PB3","A207IHY6GERCFO","3LN3BXKGC0HZB1VNEMH4SWP73O3GW1","","599","img/animal5.png","75","600","75","1",""
"","html-keyboard-response","204","139914","0.0-204.0","3GU1KF0O4JNFMVO5DGGXOAM2YO8PB3","A207IHY6GERCFO","3LN3BXKGC0HZB1VNEMH4SWP73O3GW1","","null","<img src=""img/animal5.png"" style=""width:200px; border:14px solid green;"">","null","","","",""
"","image-keyboard-response","205","140284","0.0-205.0","3GU1KF0O4JNFMVO5DGGXOAM2YO8PB3","A207IHY6GERCFO","3LN3BXKGC0HZB1VNEMH4SWP73O3GW1","","368","img/animal5.png","75","369","75","1",""
"","html-keyboard-response","206","140586","0.0-206.0","3GU1KF0O4JNFMVO5DGGXOAM2YO8PB3","A207IHY6GERCFO","3LN3BXKGC0HZB1VNEMH4SWP73O3GW1","","null","<img src=""img/animal5.png"" style=""width:200px; border:14px solid green;"">","null","","","",""
"","image-keyboard-response","207","141172","0.0-207.0","3GU1KF0O4JNFMVO5DGGXOAM2YO8PB3","A207IHY6GERCFO","3LN3BXKGC0HZB1VNEMH4SWP73O3GW1","","583","img/animal3.png","74","584","74","1",""
"","html-keyboard-response","208","141474","0.0-208.0","3GU1KF0O4JNFMVO5DGGXOAM2YO8PB3","A207IHY6GERCFO","3LN3BXKGC0HZB1VNEMH4SWP73O3GW1","","null","<img src=""img/animal3.png"" style=""width:200px; border:14px solid green;"">","null","","","",""
"","image-keyboard-response","209","142051","0.0-209.0","3GU1KF0O4JNFMVO5DGGXOAM2YO8PB3","A207IHY6GERCFO","3LN3BXKGC0HZB1VNEMH4SWP73O3GW1","","576","img/animal1.png","76","577","76","1",""
"","html-keyboard-response","210","142354","0.0-210.0","3GU1KF0O4JNFMVO5DGGXOAM2YO8PB3","A207IHY6GERCFO","3LN3BXKGC0HZB1VNEMH4SWP73O3GW1","","null","<img src=""img/animal1.png"" style=""width:200px; border:14px solid green;"">","null","","","",""
"","image-keyboard-response","211","143132","0.0-211.0","3GU1KF0O4JNFMVO5DGGXOAM2YO8PB3","A207IHY6GERCFO","3LN3BXKGC0HZB1VNEMH4SWP73O3GW1","","775","img/animal5.png","75","776","75","1",""
"","html-keyboard-response","212","143434","0.0-212.0","3GU1KF0O4JNFMVO5DGGXOAM2YO8PB3","A207IHY6GERCFO","3LN3BXKGC0HZB1VNEMH4SWP73O3GW1","","null","<img src=""img/animal5.png"" style=""width:200px; border:14px solid green;"">","null","","","",""
"","image-keyboard-response","213","143956","0.0-213.0","3GU1KF0O4JNFMVO5DGGXOAM2YO8PB3","A207IHY6GERCFO","3LN3BXKGC0HZB1VNEMH4SWP73O3GW1","","519","img/animal5.png","75","521","75","1",""
"","html-keyboard-response","214","144258","0.0-214.0","3GU1KF0O4JNFMVO5DGGXOAM2YO8PB3","A207IHY6GERCFO","3LN3BXKGC0HZB1VNEMH4SWP73O3GW1","","null","<img src=""img/animal5.png"" style=""width:200px; border:14px solid green;"">","null","","","",""
"","image-keyboard-response","215","144586","0.0-215.0","3GU1KF0O4JNFMVO5DGGXOAM2YO8PB3","A207IHY6GERCFO","3LN3BXKGC0HZB1VNEMH4SWP73O3GW1","","325","img/animal5.png","75","328","75","1",""
"","html-keyboard-response","216","144888","0.0-216.0","3GU1KF0O4JNFMVO5DGGXOAM2YO8PB3","A207IHY6GERCFO","3LN3BXKGC0HZB1VNEMH4SWP73O3GW1","","null","<img src=""img/animal5.png"" style=""width:200px; border:14px solid green;"">","null","","","",""
"","image-keyboard-response","217","145228","0.0-217.0","3GU1KF0O4JNFMVO5DGGXOAM2YO8PB3","A207IHY6GERCFO","3LN3BXKGC0HZB1VNEMH4SWP73O3GW1","","337","img/animal5.png","75","340","75","1",""
"","html-keyboard-response","218","145531","0.0-218.0","3GU1KF0O4JNFMVO5DGGXOAM2YO8PB3","A207IHY6GERCFO","3LN3BXKGC0HZB1VNEMH4SWP73O3GW1","","null","<img src=""img/animal5.png"" style=""width:200px; border:14px solid green;"">","null","","","",""
"","image-keyboard-response","219","145844","0.0-219.0","3GU1KF0O4JNFMVO5DGGXOAM2YO8PB3","A207IHY6GERCFO","3LN3BXKGC0HZB1VNEMH4SWP73O3GW1","","311","img/animal5.png","75","313","75","1",""
"","html-keyboard-response","220","146146","0.0-220.0","3GU1KF0O4JNFMVO5DGGXOAM2YO8PB3","A207IHY6GERCFO","3LN3BXKGC0HZB1VNEMH4SWP73O3GW1","","null","<img src=""img/animal5.png"" style=""width:200px; border:14px solid green;"">","null","","","",""
"","image-keyboard-response","221","146802","0.0-221.0","3GU1KF0O4JNFMVO5DGGXOAM2YO8PB3","A207IHY6GERCFO","3LN3BXKGC0HZB1VNEMH4SWP73O3GW1","","653","img/animal1.png","76","656","76","1",""
"","html-keyboard-response","222","147105","0.0-222.0","3GU1KF0O4JNFMVO5DGGXOAM2YO8PB3","A207IHY6GERCFO","3LN3BXKGC0HZB1VNEMH4SWP73O3GW1","","null","<img src=""img/animal1.png"" style=""width:200px; border:14px solid green;"">","null","","","",""
"","image-keyboard-response","223","147650","0.0-223.0","3GU1KF0O4JNFMVO5DGGXOAM2YO8PB3","A207IHY6GERCFO","3LN3BXKGC0HZB1VNEMH4SWP73O3GW1","","544","img/animal3.png","74","545","74","1",""
"","html-keyboard-response","224","147952","0.0-224.0","3GU1KF0O4JNFMVO5DGGXOAM2YO8PB3","A207IHY6GERCFO","3LN3BXKGC0HZB1VNEMH4SWP73O3GW1","","null","<img src=""img/animal3.png"" style=""width:200px; border:14px solid green;"">","null","","","",""
"","image-keyboard-response","225","148332","0.0-225.0","3GU1KF0O4JNFMVO5DGGXOAM2YO8PB3","A207IHY6GERCFO","3LN3BXKGC0HZB1VNEMH4SWP73O3GW1","","378","img/animal3.png","74","379","74","1",""
"","html-keyboard-response","226","148634","0.0-226.0","3GU1KF0O4JNFMVO5DGGXOAM2YO8PB3","A207IHY6GERCFO","3LN3BXKGC0HZB1VNEMH4SWP73O3GW1","","null","<img src=""img/animal3.png"" style=""width:200px; border:14px solid green;"">","null","","","",""
"","image-keyboard-response","227","148996","0.0-227.0","3GU1KF0O4JNFMVO5DGGXOAM2YO8PB3","A207IHY6GERCFO","3LN3BXKGC0HZB1VNEMH4SWP73O3GW1","","360","img/animal3.png","74","361","74","1",""
"","html-keyboard-response","228","149298","0.0-228.0","3GU1KF0O4JNFMVO5DGGXOAM2YO8PB3","A207IHY6GERCFO","3LN3BXKGC0HZB1VNEMH4SWP73O3GW1","","null","<img src=""img/animal3.png"" style=""width:200px; border:14px solid green;"">","null","","","",""
"","image-keyboard-response","229","149842","0.0-229.0","3GU1KF0O4JNFMVO5DGGXOAM2YO8PB3","A207IHY6GERCFO","3LN3BXKGC0HZB1VNEMH4SWP73O3GW1","","543","img/animal5.png","75","544","75","1",""
"","html-keyboard-response","230","150144","0.0-230.0","3GU1KF0O4JNFMVO5DGGXOAM2YO8PB3","A207IHY6GERCFO","3LN3BXKGC0HZB1VNEMH4SWP73O3GW1","","null","<img src=""img/animal5.png"" style=""width:200px; border:14px solid green;"">","null","","","",""
"","image-keyboard-response","231","150724","0.0-231.0","3GU1KF0O4JNFMVO5DGGXOAM2YO8PB3","A207IHY6GERCFO","3LN3BXKGC0HZB1VNEMH4SWP73O3GW1","","578","img/animal1.png","76","578","76","1",""
"","html-keyboard-response","232","151027","0.0-232.0","3GU1KF0O4JNFMVO5DGGXOAM2YO8PB3","A207IHY6GERCFO","3LN3BXKGC0HZB1VNEMH4SWP73O3GW1","","null","<img src=""img/animal1.png"" style=""width:200px; border:14px solid green;"">","null","","","",""
"","image-keyboard-response","233","151628","0.0-233.0","3GU1KF0O4JNFMVO5DGGXOAM2YO8PB3","A207IHY6GERCFO","3LN3BXKGC0HZB1VNEMH4SWP73O3GW1","","599","img/animal3.png","74","601","74","1",""
"","html-keyboard-response","234","151930","0.0-234.0","3GU1KF0O4JNFMVO5DGGXOAM2YO8PB3","A207IHY6GERCFO","3LN3BXKGC0HZB1VNEMH4SWP73O3GW1","","null","<img src=""img/animal3.png"" style=""width:200px; border:14px solid green;"">","null","","","",""
"","image-keyboard-response","235","152476","0.0-235.0","3GU1KF0O4JNFMVO5DGGXOAM2YO8PB3","A207IHY6GERCFO","3LN3BXKGC0HZB1VNEMH4SWP73O3GW1","","543","img/animal1.png","76","546","76","1",""
"","html-keyboard-response","236","152778","0.0-236.0","3GU1KF0O4JNFMVO5DGGXOAM2YO8PB3","A207IHY6GERCFO","3LN3BXKGC0HZB1VNEMH4SWP73O3GW1","","null","<img src=""img/animal1.png"" style=""width:200px; border:14px solid green;"">","null","","","",""
"","image-keyboard-response","237","153380","0.0-237.0","3GU1KF0O4JNFMVO5DGGXOAM2YO8PB3","A207IHY6GERCFO","3LN3BXKGC0HZB1VNEMH4SWP73O3GW1","","599","img/animal5.png","75","601","75","1",""
"","html-keyboard-response","238","153682","0.0-238.0","3GU1KF0O4JNFMVO5DGGXOAM2YO8PB3","A207IHY6GERCFO","3LN3BXKGC0HZB1VNEMH4SWP73O3GW1","","null","<img src=""img/animal5.png"" style=""width:200px; border:14px solid green;"">","null","","","",""
"","image-keyboard-response","239","154212","0.0-239.0","3GU1KF0O4JNFMVO5DGGXOAM2YO8PB3","A207IHY6GERCFO","3LN3BXKGC0HZB1VNEMH4SWP73O3GW1","","528","img/animal3.png","74","529","74","1",""
"","html-keyboard-response","240","154514","0.0-240.0","3GU1KF0O4JNFMVO5DGGXOAM2YO8PB3","A207IHY6GERCFO","3LN3BXKGC0HZB1VNEMH4SWP73O3GW1","","null","<img src=""img/animal3.png"" style=""width:200px; border:14px solid green;"">","null","","","",""
"","image-keyboard-response","241","155132","0.0-241.0","3GU1KF0O4JNFMVO5DGGXOAM2YO8PB3","A207IHY6GERCFO","3LN3BXKGC0HZB1VNEMH4SWP73O3GW1","","615","img/animal1.png","76","617","76","1",""
"","html-keyboard-response","242","155434","0.0-242.0","3GU1KF0O4JNFMVO5DGGXOAM2YO8PB3","A207IHY6GERCFO","3LN3BXKGC0HZB1VNEMH4SWP73O3GW1","","null","<img src=""img/animal1.png"" style=""width:200px; border:14px solid green;"">","null","","","",""
"","image-keyboard-response","243","155794","0.0-243.0","3GU1KF0O4JNFMVO5DGGXOAM2YO8PB3","A207IHY6GERCFO","3LN3BXKGC0HZB1VNEMH4SWP73O3GW1","","359","img/animal1.png","76","360","76","1",""
"","html-keyboard-response","244","156096","0.0-244.0","3GU1KF0O4JNFMVO5DGGXOAM2YO8PB3","A207IHY6GERCFO","3LN3BXKGC0HZB1VNEMH4SWP73O3GW1","","null","<img src=""img/animal1.png"" style=""width:200px; border:14px solid green;"">","null","","","",""
"","image-keyboard-response","245","156652","0.0-245.0","3GU1KF0O4JNFMVO5DGGXOAM2YO8PB3","A207IHY6GERCFO","3LN3BXKGC0HZB1VNEMH4SWP73O3GW1","","553","img/animal3.png","74","556","74","1",""
"","html-keyboard-response","246","156954","0.0-246.0","3GU1KF0O4JNFMVO5DGGXOAM2YO8PB3","A207IHY6GERCFO","3LN3BXKGC0HZB1VNEMH4SWP73O3GW1","","null","<img src=""img/animal3.png"" style=""width:200px; border:14px solid green;"">","null","","","",""
"","image-keyboard-response","247","157364","0.0-247.0","3GU1KF0O4JNFMVO5DGGXOAM2YO8PB3","A207IHY6GERCFO","3LN3BXKGC0HZB1VNEMH4SWP73O3GW1","","408","img/animal3.png","74","409","74","1",""
"","html-keyboard-response","248","157667","0.0-248.0","3GU1KF0O4JNFMVO5DGGXOAM2YO8PB3","A207IHY6GERCFO","3LN3BXKGC0HZB1VNEMH4SWP73O3GW1","","null","<img src=""img/animal3.png"" style=""width:200px; border:14px solid green;"">","null","","","",""
"","image-keyboard-response","249","158260","0.0-249.0","3GU1KF0O4JNFMVO5DGGXOAM2YO8PB3","A207IHY6GERCFO","3LN3BXKGC0HZB1VNEMH4SWP73O3GW1","","591","img/animal1.png","76","592","76","1",""
"","html-keyboard-response","250","158563","0.0-250.0","3GU1KF0O4JNFMVO5DGGXOAM2YO8PB3","A207IHY6GERCFO","3LN3BXKGC0HZB1VNEMH4SWP73O3GW1","","null","<img src=""img/animal1.png"" style=""width:200px; border:14px solid green;"">","null","","","",""
"","image-keyboard-response","251","159012","0.0-251.0","3GU1KF0O4JNFMVO5DGGXOAM2YO8PB3","A207IHY6GERCFO","3LN3BXKGC0HZB1VNEMH4SWP73O3GW1","","446","img/animal3.png","74","449","74","1",""
"","html-keyboard-response","252","159314","0.0-252.0","3GU1KF0O4JNFMVO5DGGXOAM2YO8PB3","A207IHY6GERCFO","3LN3BXKGC0HZB1VNEMH4SWP73O3GW1","","null","<img src=""img/animal3.png"" style=""width:200px; border:14px solid green;"">","null","","","",""
"","image-keyboard-response","253","159675","0.0-253.0","3GU1KF0O4JNFMVO5DGGXOAM2YO8PB3","A207IHY6GERCFO","3LN3BXKGC0HZB1VNEMH4SWP73O3GW1","","359","img/animal3.png","74","359","74","1",""
"","html-keyboard-response","254","159977","0.0-254.0","3GU1KF0O4JNFMVO5DGGXOAM2YO8PB3","A207IHY6GERCFO","3LN3BXKGC0HZB1VNEMH4SWP73O3GW1","","null","<img src=""img/animal3.png"" style=""width:200px; border:14px solid green;"">","null","","","",""
"","image-keyboard-response","255","160300","0.0-255.0","3GU1KF0O4JNFMVO5DGGXOAM2YO8PB3","A207IHY6GERCFO","3LN3BXKGC0HZB1VNEMH4SWP73O3GW1","","321","img/animal3.png","74","323","74","1",""
"","html-keyboard-response","256","160604","0.0-256.0","3GU1KF0O4JNFMVO5DGGXOAM2YO8PB3","A207IHY6GERCFO","3LN3BXKGC0HZB1VNEMH4SWP73O3GW1","","null","<img src=""img/animal3.png"" style=""width:200px; border:14px solid green;"">","null","","","",""
"","image-keyboard-response","257","161156","0.0-257.0","3GU1KF0O4JNFMVO5DGGXOAM2YO8PB3","A207IHY6GERCFO","3LN3BXKGC0HZB1VNEMH4SWP73O3GW1","","550","img/animal5.png","75","551","75","1",""
"","html-keyboard-response","258","161458","0.0-258.0","3GU1KF0O4JNFMVO5DGGXOAM2YO8PB3","A207IHY6GERCFO","3LN3BXKGC0HZB1VNEMH4SWP73O3GW1","","null","<img src=""img/animal5.png"" style=""width:200px; border:14px solid green;"">","null","","","",""
"","image-keyboard-response","259","162019","0.0-259.0","3GU1KF0O4JNFMVO5DGGXOAM2YO8PB3","A207IHY6GERCFO","3LN3BXKGC0HZB1VNEMH4SWP73O3GW1","","559","img/animal1.png","76","561","76","1",""
"","html-keyboard-response","260","162322","0.0-260.0","3GU1KF0O4JNFMVO5DGGXOAM2YO8PB3","A207IHY6GERCFO","3LN3BXKGC0HZB1VNEMH4SWP73O3GW1","","null","<img src=""img/animal1.png"" style=""width:200px; border:14px solid green;"">","null","","","",""
"","image-keyboard-response","261","162988","0.0-261.0","3GU1KF0O4JNFMVO5DGGXOAM2YO8PB3","A207IHY6GERCFO","3LN3BXKGC0HZB1VNEMH4SWP73O3GW1","","663","img/animal3.png","74","666","74","1",""
"","html-keyboard-response","262","163292","0.0-262.0","3GU1KF0O4JNFMVO5DGGXOAM2YO8PB3","A207IHY6GERCFO","3LN3BXKGC0HZB1VNEMH4SWP73O3GW1","","null","<img src=""img/animal3.png"" style=""width:200px; border:14px solid green;"">","null","","","",""
"","image-keyboard-response","263","163915","0.0-263.0","3GU1KF0O4JNFMVO5DGGXOAM2YO8PB3","A207IHY6GERCFO","3LN3BXKGC0HZB1VNEMH4SWP73O3GW1","","621","img/animal5.png","76","623","76","0",""
"","html-keyboard-response","264","164218","0.0-264.0","3GU1KF0O4JNFMVO5DGGXOAM2YO8PB3","A207IHY6GERCFO","3LN3BXKGC0HZB1VNEMH4SWP73O3GW1","","null","<img src=""img/animal5.png"" style=""width:200px;border:14px solid red;"">","null","","","",""
"","image-keyboard-response","265","164828","0.0-265.0","3GU1KF0O4JNFMVO5DGGXOAM2YO8PB3","A207IHY6GERCFO","3LN3BXKGC0HZB1VNEMH4SWP73O3GW1","","608","img/animal1.png","76","610","76","1",""
"","html-keyboard-response","266","165130","0.0-266.0","3GU1KF0O4JNFMVO5DGGXOAM2YO8PB3","A207IHY6GERCFO","3LN3BXKGC0HZB1VNEMH4SWP73O3GW1","","null","<img src=""img/animal1.png"" style=""width:200px; border:14px solid green;"">","null","","","",""
"","image-keyboard-response","267","165690","0.0-267.0","3GU1KF0O4JNFMVO5DGGXOAM2YO8PB3","A207IHY6GERCFO","3LN3BXKGC0HZB1VNEMH4SWP73O3GW1","","559","img/animal1.png","76","560","76","1",""
"","html-keyboard-response","268","165992","0.0-268.0","3GU1KF0O4JNFMVO5DGGXOAM2YO8PB3","A207IHY6GERCFO","3LN3BXKGC0HZB1VNEMH4SWP73O3GW1","","null","<img src=""img/animal1.png"" style=""width:200px; border:14px solid green;"">","null","","","",""
"","image-keyboard-response","269","166371","0.0-269.0","3GU1KF0O4JNFMVO5DGGXOAM2YO8PB3","A207IHY6GERCFO","3LN3BXKGC0HZB1VNEMH4SWP73O3GW1","","377","img/animal1.png","76","378","76","1",""
"","html-keyboard-response","270","166674","0.0-270.0","3GU1KF0O4JNFMVO5DGGXOAM2YO8PB3","A207IHY6GERCFO","3LN3BXKGC0HZB1VNEMH4SWP73O3GW1","","null","<img src=""img/animal1.png"" style=""width:200px; border:14px solid green;"">","null","","","",""
"","image-keyboard-response","271","167021","0.0-271.0","3GU1KF0O4JNFMVO5DGGXOAM2YO8PB3","A207IHY6GERCFO","3LN3BXKGC0HZB1VNEMH4SWP73O3GW1","","345","img/animal1.png","76","346","76","1",""
"","html-keyboard-response","272","167324","0.0-272.0","3GU1KF0O4JNFMVO5DGGXOAM2YO8PB3","A207IHY6GERCFO","3LN3BXKGC0HZB1VNEMH4SWP73O3GW1","","null","<img src=""img/animal1.png"" style=""width:200px; border:14px solid green;"">","null","","","",""
"","image-keyboard-response","273","167668","0.0-273.0","3GU1KF0O4JNFMVO5DGGXOAM2YO8PB3","A207IHY6GERCFO","3LN3BXKGC0HZB1VNEMH4SWP73O3GW1","","342","img/animal1.png","76","343","76","1",""
"","html-keyboard-response","274","167970","0.0-274.0","3GU1KF0O4JNFMVO5DGGXOAM2YO8PB3","A207IHY6GERCFO","3LN3BXKGC0HZB1VNEMH4SWP73O3GW1","","null","<img src=""img/animal1.png"" style=""width:200px; border:14px solid green;"">","null","","","",""
"","image-keyboard-response","275","168292","0.0-275.0","3GU1KF0O4JNFMVO5DGGXOAM2YO8PB3","A207IHY6GERCFO","3LN3BXKGC0HZB1VNEMH4SWP73O3GW1","","319","img/animal1.png","76","320","76","1",""
"","html-keyboard-response","276","168594","0.0-276.0","3GU1KF0O4JNFMVO5DGGXOAM2YO8PB3","A207IHY6GERCFO","3LN3BXKGC0HZB1VNEMH4SWP73O3GW1","","null","<img src=""img/animal1.png"" style=""width:200px; border:14px solid green;"">","null","","","",""
"","image-keyboard-response","277","169147","0.0-277.0","3GU1KF0O4JNFMVO5DGGXOAM2YO8PB3","A207IHY6GERCFO","3LN3BXKGC0HZB1VNEMH4SWP73O3GW1","","551","img/animal5.png","75","553","75","1",""
"","html-keyboard-response","278","169450","0.0-278.0","3GU1KF0O4JNFMVO5DGGXOAM2YO8PB3","A207IHY6GERCFO","3LN3BXKGC0HZB1VNEMH4SWP73O3GW1","","null","<img src=""img/animal5.png"" style=""width:200px; border:14px solid green;"">","null","","","",""
"","image-keyboard-response","279","170068","0.0-279.0","3GU1KF0O4JNFMVO5DGGXOAM2YO8PB3","A207IHY6GERCFO","3LN3BXKGC0HZB1VNEMH4SWP73O3GW1","","616","img/animal3.png","74","617","74","1",""
"","html-keyboard-response","280","170371","0.0-280.0","3GU1KF0O4JNFMVO5DGGXOAM2YO8PB3","A207IHY6GERCFO","3LN3BXKGC0HZB1VNEMH4SWP73O3GW1","","null","<img src=""img/animal3.png"" style=""width:200px; border:14px solid green;"">","null","","","",""
"","image-keyboard-response","281","170700","0.0-281.0","3GU1KF0O4JNFMVO5DGGXOAM2YO8PB3","A207IHY6GERCFO","3LN3BXKGC0HZB1VNEMH4SWP73O3GW1","","326","img/animal3.png","74","328","74","1",""
"","html-keyboard-response","282","171003","0.0-282.0","3GU1KF0O4JNFMVO5DGGXOAM2YO8PB3","A207IHY6GERCFO","3LN3BXKGC0HZB1VNEMH4SWP73O3GW1","","null","<img src=""img/animal3.png"" style=""width:200px; border:14px solid green;"">","null","","","",""
"","image-keyboard-response","283","171628","0.0-283.0","3GU1KF0O4JNFMVO5DGGXOAM2YO8PB3","A207IHY6GERCFO","3LN3BXKGC0HZB1VNEMH4SWP73O3GW1","","622","img/animal1.png","76","625","76","1",""
"","html-keyboard-response","284","171931","0.0-284.0","3GU1KF0O4JNFMVO5DGGXOAM2YO8PB3","A207IHY6GERCFO","3LN3BXKGC0HZB1VNEMH4SWP73O3GW1","","null","<img src=""img/animal1.png"" style=""width:200px; border:14px solid green;"">","null","","","",""
"","image-keyboard-response","285","172420","0.0-285.0","3GU1KF0O4JNFMVO5DGGXOAM2YO8PB3","A207IHY6GERCFO","3LN3BXKGC0HZB1VNEMH4SWP73O3GW1","","488","img/animal3.png","75","489","75","1",""
"","html-keyboard-response","286","172723","0.0-286.0","3GU1KF0O4JNFMVO5DGGXOAM2YO8PB3","A207IHY6GERCFO","3LN3BXKGC0HZB1VNEMH4SWP73O3GW1","","null","<img src=""img/animal3.png"" style=""width:200px; border:14px solid green;"">","null","","","",""
"","image-keyboard-response","287","173115","0.0-287.0","3GU1KF0O4JNFMVO5DGGXOAM2YO8PB3","A207IHY6GERCFO","3LN3BXKGC0HZB1VNEMH4SWP73O3GW1","","391","img/animal3.png","74","392","74","1",""
"","html-keyboard-response","288","173418","0.0-288.0","3GU1KF0O4JNFMVO5DGGXOAM2YO8PB3","A207IHY6GERCFO","3LN3BXKGC0HZB1VNEMH4SWP73O3GW1","","null","<img src=""img/animal3.png"" style=""width:200px; border:14px solid green;"">","null","","","",""
"","image-keyboard-response","289","174147","0.0-289.0","3GU1KF0O4JNFMVO5DGGXOAM2YO8PB3","A207IHY6GERCFO","3LN3BXKGC0HZB1VNEMH4SWP73O3GW1","","727","img/animal5.png","75","729","75","1",""
"","html-keyboard-response","290","174450","0.0-290.0","3GU1KF0O4JNFMVO5DGGXOAM2YO8PB3","A207IHY6GERCFO","3LN3BXKGC0HZB1VNEMH4SWP73O3GW1","","null","<img src=""img/animal5.png"" style=""width:200px; border:14px solid green;"">","null","","","",""
"","image-keyboard-response","291","175051","0.0-291.0","3GU1KF0O4JNFMVO5DGGXOAM2YO8PB3","A207IHY6GERCFO","3LN3BXKGC0HZB1VNEMH4SWP73O3GW1","","599","img/animal1.png","76","601","76","1",""
"","html-keyboard-response","292","175354","0.0-292.0","3GU1KF0O4JNFMVO5DGGXOAM2YO8PB3","A207IHY6GERCFO","3LN3BXKGC0HZB1VNEMH4SWP73O3GW1","","null","<img src=""img/animal1.png"" style=""width:200px; border:14px solid green;"">","null","","","",""
"","image-keyboard-response","293","175892","0.0-293.0","3GU1KF0O4JNFMVO5DGGXOAM2YO8PB3","A207IHY6GERCFO","3LN3BXKGC0HZB1VNEMH4SWP73O3GW1","","535","img/animal3.png","74","539","74","1",""
"","html-keyboard-response","294","176194","0.0-294.0","3GU1KF0O4JNFMVO5DGGXOAM2YO8PB3","A207IHY6GERCFO","3LN3BXKGC0HZB1VNEMH4SWP73O3GW1","","null","<img src=""img/animal3.png"" style=""width:200px; border:14px solid green;"">","null","","","",""
"","image-keyboard-response","295","176835","0.0-295.0","3GU1KF0O4JNFMVO5DGGXOAM2YO8PB3","A207IHY6GERCFO","3LN3BXKGC0HZB1VNEMH4SWP73O3GW1","","640","img/animal1.png","76","641","76","1",""
"","html-keyboard-response","296","177138","0.0-296.0","3GU1KF0O4JNFMVO5DGGXOAM2YO8PB3","A207IHY6GERCFO","3LN3BXKGC0HZB1VNEMH4SWP73O3GW1","","null","<img src=""img/animal1.png"" style=""width:200px; border:14px solid green;"">","null","","","",""
"","image-keyboard-response","297","177731","0.0-297.0","3GU1KF0O4JNFMVO5DGGXOAM2YO8PB3","A207IHY6GERCFO","3LN3BXKGC0HZB1VNEMH4SWP73O3GW1","","591","img/animal5.png","75","593","75","1",""
"","html-keyboard-response","298","178034","0.0-298.0","3GU1KF0O4JNFMVO5DGGXOAM2YO8PB3","A207IHY6GERCFO","3LN3BXKGC0HZB1VNEMH4SWP73O3GW1","","null","<img src=""img/animal5.png"" style=""width:200px; border:14px solid green;"">","null","","","",""
"","image-keyboard-response","299","178506","0.0-299.0","3GU1KF0O4JNFMVO5DGGXOAM2YO8PB3","A207IHY6GERCFO","3LN3BXKGC0HZB1VNEMH4SWP73O3GW1","","471","img/animal1.png","74","472","74","0",""
"","html-keyboard-response","300","178807","0.0-300.0","3GU1KF0O4JNFMVO5DGGXOAM2YO8PB3","A207IHY6GERCFO","3LN3BXKGC0HZB1VNEMH4SWP73O3GW1","","null","<img src=""img/animal1.png"" style=""width:200px;border:14px solid red;"">","null","","","",""
"","image-keyboard-response","301","179587","0.0-301.0","3GU1KF0O4JNFMVO5DGGXOAM2YO8PB3","A207IHY6GERCFO","3LN3BXKGC0HZB1VNEMH4SWP73O3GW1","","776","img/animal5.png","75","779","75","1",""
"","html-keyboard-response","302","179891","0.0-302.0","3GU1KF0O4JNFMVO5DGGXOAM2YO8PB3","A207IHY6GERCFO","3LN3BXKGC0HZB1VNEMH4SWP73O3GW1","","null","<img src=""img/animal5.png"" style=""width:200px; border:14px solid green;"">","null","","","",""
"","image-keyboard-response","303","180395","0.0-303.0","3GU1KF0O4JNFMVO5DGGXOAM2YO8PB3","A207IHY6GERCFO","3LN3BXKGC0HZB1VNEMH4SWP73O3GW1","","501","img/animal1.png","76","503","76","1",""
"","html-keyboard-response","304","180696","0.0-304.0","3GU1KF0O4JNFMVO5DGGXOAM2YO8PB3","A207IHY6GERCFO","3LN3BXKGC0HZB1VNEMH4SWP73O3GW1","","null","<img src=""img/animal1.png"" style=""width:200px; border:14px solid green;"">","null","","","",""
"","image-keyboard-response","305","181268","0.0-305.0","3GU1KF0O4JNFMVO5DGGXOAM2YO8PB3","A207IHY6GERCFO","3LN3BXKGC0HZB1VNEMH4SWP73O3GW1","","570","img/animal5.png","75","571","75","1",""
"","html-keyboard-response","306","181571","0.0-306.0","3GU1KF0O4JNFMVO5DGGXOAM2YO8PB3","A207IHY6GERCFO","3LN3BXKGC0HZB1VNEMH4SWP73O3GW1","","null","<img src=""img/animal5.png"" style=""width:200px; border:14px solid green;"">","null","","","",""
"","image-keyboard-response","307","181915","0.0-307.0","3GU1KF0O4JNFMVO5DGGXOAM2YO8PB3","A207IHY6GERCFO","3LN3BXKGC0HZB1VNEMH4SWP73O3GW1","","341","img/animal5.png","75","344","75","1",""
"","html-keyboard-response","308","182218","0.0-308.0","3GU1KF0O4JNFMVO5DGGXOAM2YO8PB3","A207IHY6GERCFO","3LN3BXKGC0HZB1VNEMH4SWP73O3GW1","","null","<img src=""img/animal5.png"" style=""width:200px; border:14px solid green;"">","null","","","",""
"","image-keyboard-response","309","182794","0.0-309.0","3GU1KF0O4JNFMVO5DGGXOAM2YO8PB3","A207IHY6GERCFO","3LN3BXKGC0HZB1VNEMH4SWP73O3GW1","","574","img/animal1.png","76","575","76","1",""
"","html-keyboard-response","310","183096","0.0-310.0","3GU1KF0O4JNFMVO5DGGXOAM2YO8PB3","A207IHY6GERCFO","3LN3BXKGC0HZB1VNEMH4SWP73O3GW1","","null","<img src=""img/animal1.png"" style=""width:200px; border:14px solid green;"">","null","","","",""
"","image-keyboard-response","311","183419","0.0-311.0","3GU1KF0O4JNFMVO5DGGXOAM2YO8PB3","A207IHY6GERCFO","3LN3BXKGC0HZB1VNEMH4SWP73O3GW1","","321","img/animal1.png","76","323","76","1",""
"","html-keyboard-response","312","183722","0.0-312.0","3GU1KF0O4JNFMVO5DGGXOAM2YO8PB3","A207IHY6GERCFO","3LN3BXKGC0HZB1VNEMH4SWP73O3GW1","","null","<img src=""img/animal1.png"" style=""width:200px; border:14px solid green;"">","null","","","",""
"","image-keyboard-response","313","184307","0.0-313.0","3GU1KF0O4JNFMVO5DGGXOAM2YO8PB3","A207IHY6GERCFO","3LN3BXKGC0HZB1VNEMH4SWP73O3GW1","","583","img/animal3.png","74","587","74","1",""
"","html-keyboard-response","314","184610","0.0-314.0","3GU1KF0O4JNFMVO5DGGXOAM2YO8PB3","A207IHY6GERCFO","3LN3BXKGC0HZB1VNEMH4SWP73O3GW1","","null","<img src=""img/animal3.png"" style=""width:200px; border:14px solid green;"">","null","","","",""
"","image-keyboard-response","315","185179","0.0-315.0","3GU1KF0O4JNFMVO5DGGXOAM2YO8PB3","A207IHY6GERCFO","3LN3BXKGC0HZB1VNEMH4SWP73O3GW1","","567","img/animal1.png","76","568","76","1",""
"","html-keyboard-response","316","185482","0.0-316.0","3GU1KF0O4JNFMVO5DGGXOAM2YO8PB3","A207IHY6GERCFO","3LN3BXKGC0HZB1VNEMH4SWP73O3GW1","","null","<img src=""img/animal1.png"" style=""width:200px; border:14px solid green;"">","null","","","",""
"","image-keyboard-response","317","185811","0.0-317.0","3GU1KF0O4JNFMVO5DGGXOAM2YO8PB3","A207IHY6GERCFO","3LN3BXKGC0HZB1VNEMH4SWP73O3GW1","","326","img/animal1.png","76","328","76","1",""
"","html-keyboard-response","318","186113","0.0-318.0","3GU1KF0O4JNFMVO5DGGXOAM2YO8PB3","A207IHY6GERCFO","3LN3BXKGC0HZB1VNEMH4SWP73O3GW1","","null","<img src=""img/animal1.png"" style=""width:200px; border:14px solid green;"">","null","","","",""
"","image-keyboard-response","319","186714","0.0-319.0","3GU1KF0O4JNFMVO5DGGXOAM2YO8PB3","A207IHY6GERCFO","3LN3BXKGC0HZB1VNEMH4SWP73O3GW1","","598","img/animal5.png","75","599","75","1",""
"","html-keyboard-response","320","187015","0.0-320.0","3GU1KF0O4JNFMVO5DGGXOAM2YO8PB3","A207IHY6GERCFO","3LN3BXKGC0HZB1VNEMH4SWP73O3GW1","","null","<img src=""img/animal5.png"" style=""width:200px; border:14px solid green;"">","null","","","",""
"","image-keyboard-response","321","187339","0.0-321.0","3GU1KF0O4JNFMVO5DGGXOAM2YO8PB3","A207IHY6GERCFO","3LN3BXKGC0HZB1VNEMH4SWP73O3GW1","","321","img/animal5.png","75","323","75","1",""
"","html-keyboard-response","322","187643","0.0-322.0","3GU1KF0O4JNFMVO5DGGXOAM2YO8PB3","A207IHY6GERCFO","3LN3BXKGC0HZB1VNEMH4SWP73O3GW1","","null","<img src=""img/animal5.png"" style=""width:200px; border:14px solid green;"">","null","","","",""
"","image-keyboard-response","323","188227","0.0-323.0","3GU1KF0O4JNFMVO5DGGXOAM2YO8PB3","A207IHY6GERCFO","3LN3BXKGC0HZB1VNEMH4SWP73O3GW1","","582","img/animal1.png","76","584","76","1",""
"","html-keyboard-response","324","188530","0.0-324.0","3GU1KF0O4JNFMVO5DGGXOAM2YO8PB3","A207IHY6GERCFO","3LN3BXKGC0HZB1VNEMH4SWP73O3GW1","","null","<img src=""img/animal1.png"" style=""width:200px; border:14px solid green;"">","null","","","",""
"","image-keyboard-response","325","189211","0.0-325.0","3GU1KF0O4JNFMVO5DGGXOAM2YO8PB3","A207IHY6GERCFO","3LN3BXKGC0HZB1VNEMH4SWP73O3GW1","","681","img/animal5.png","75","682","75","1",""
"","html-keyboard-response","326","189513","0.0-326.0","3GU1KF0O4JNFMVO5DGGXOAM2YO8PB3","A207IHY6GERCFO","3LN3BXKGC0HZB1VNEMH4SWP73O3GW1","","null","<img src=""img/animal5.png"" style=""width:200px; border:14px solid green;"">","null","","","",""
"","image-keyboard-response","327","190411","0.0-327.0","3GU1KF0O4JNFMVO5DGGXOAM2YO8PB3","A207IHY6GERCFO","3LN3BXKGC0HZB1VNEMH4SWP73O3GW1","","896","img/animal1.png","76","898","76","1",""
"","html-keyboard-response","328","190714","0.0-328.0","3GU1KF0O4JNFMVO5DGGXOAM2YO8PB3","A207IHY6GERCFO","3LN3BXKGC0HZB1VNEMH4SWP73O3GW1","","null","<img src=""img/animal1.png"" style=""width:200px; border:14px solid green;"">","null","","","",""
"","image-keyboard-response","329","191203","0.0-329.0","3GU1KF0O4JNFMVO5DGGXOAM2YO8PB3","A207IHY6GERCFO","3LN3BXKGC0HZB1VNEMH4SWP73O3GW1","","488","img/animal5.png","75","490","75","1",""
"","html-keyboard-response","330","191514","0.0-330.0","3GU1KF0O4JNFMVO5DGGXOAM2YO8PB3","A207IHY6GERCFO","3LN3BXKGC0HZB1VNEMH4SWP73O3GW1","","null","<img src=""img/animal5.png"" style=""width:200px; border:14px solid green;"">","null","","","",""
"","image-keyboard-response","331","192140","0.0-331.0","3GU1KF0O4JNFMVO5DGGXOAM2YO8PB3","A207IHY6GERCFO","3LN3BXKGC0HZB1VNEMH4SWP73O3GW1","","622","img/animal1.png","76","625","76","1",""
"","html-keyboard-response","332","192443","0.0-332.0","3GU1KF0O4JNFMVO5DGGXOAM2YO8PB3","A207IHY6GERCFO","3LN3BXKGC0HZB1VNEMH4SWP73O3GW1","","null","<img src=""img/animal1.png"" style=""width:200px; border:14px solid green;"">","null","","","",""
"","image-keyboard-response","333","193083","0.0-333.0","3GU1KF0O4JNFMVO5DGGXOAM2YO8PB3","A207IHY6GERCFO","3LN3BXKGC0HZB1VNEMH4SWP73O3GW1","","637","img/animal3.png","74","640","74","1",""
"","html-keyboard-response","334","193386","0.0-334.0","3GU1KF0O4JNFMVO5DGGXOAM2YO8PB3","A207IHY6GERCFO","3LN3BXKGC0HZB1VNEMH4SWP73O3GW1","","null","<img src=""img/animal3.png"" style=""width:200px; border:14px solid green;"">","null","","","",""
"","image-keyboard-response","335","193731","0.0-335.0","3GU1KF0O4JNFMVO5DGGXOAM2YO8PB3","A207IHY6GERCFO","3LN3BXKGC0HZB1VNEMH4SWP73O3GW1","","344","img/animal3.png","74","345","74","1",""
"","html-keyboard-response","336","194034","0.0-336.0","3GU1KF0O4JNFMVO5DGGXOAM2YO8PB3","A207IHY6GERCFO","3LN3BXKGC0HZB1VNEMH4SWP73O3GW1","","null","<img src=""img/animal3.png"" style=""width:200px; border:14px solid green;"">","null","","","",""
"","image-keyboard-response","337","194651","0.0-337.0","3GU1KF0O4JNFMVO5DGGXOAM2YO8PB3","A207IHY6GERCFO","3LN3BXKGC0HZB1VNEMH4SWP73O3GW1","","614","img/animal5.png","76","617","76","0",""
"","html-keyboard-response","338","194954","0.0-338.0","3GU1KF0O4JNFMVO5DGGXOAM2YO8PB3","A207IHY6GERCFO","3LN3BXKGC0HZB1VNEMH4SWP73O3GW1","","null","<img src=""img/animal5.png"" style=""width:200px;border:14px solid red;"">","null","","","",""
"","image-keyboard-response","339","196282","0.0-339.0","3GU1KF0O4JNFMVO5DGGXOAM2YO8PB3","A207IHY6GERCFO","3LN3BXKGC0HZB1VNEMH4SWP73O3GW1","","1326","img/animal1.png","76","1328","76","1",""
"","html-keyboard-response","340","196583","0.0-340.0","3GU1KF0O4JNFMVO5DGGXOAM2YO8PB3","A207IHY6GERCFO","3LN3BXKGC0HZB1VNEMH4SWP73O3GW1","","null","<img src=""img/animal1.png"" style=""width:200px; border:14px solid green;"">","null","","","",""
"","image-keyboard-response","341","197082","0.0-341.0","3GU1KF0O4JNFMVO5DGGXOAM2YO8PB3","A207IHY6GERCFO","3LN3BXKGC0HZB1VNEMH4SWP73O3GW1","","498","img/animal5.png","75","499","75","1",""
"","html-keyboard-response","342","197383","0.0-342.0","3GU1KF0O4JNFMVO5DGGXOAM2YO8PB3","A207IHY6GERCFO","3LN3BXKGC0HZB1VNEMH4SWP73O3GW1","","null","<img src=""img/animal5.png"" style=""width:200px; border:14px solid green;"">","null","","","",""
"","image-keyboard-response","343","197715","0.0-343.0","3GU1KF0O4JNFMVO5DGGXOAM2YO8PB3","A207IHY6GERCFO","3LN3BXKGC0HZB1VNEMH4SWP73O3GW1","","330","img/animal5.png","75","333","75","1",""
"","html-keyboard-response","344","198018","0.0-344.0","3GU1KF0O4JNFMVO5DGGXOAM2YO8PB3","A207IHY6GERCFO","3LN3BXKGC0HZB1VNEMH4SWP73O3GW1","","null","<img src=""img/animal5.png"" style=""width:200px; border:14px solid green;"">","null","","","",""
"","image-keyboard-response","345","198594","0.0-345.0","3GU1KF0O4JNFMVO5DGGXOAM2YO8PB3","A207IHY6GERCFO","3LN3BXKGC0HZB1VNEMH4SWP73O3GW1","","574","img/animal3.png","74","577","74","1",""
"","html-keyboard-response","346","198900","0.0-346.0","3GU1KF0O4JNFMVO5DGGXOAM2YO8PB3","A207IHY6GERCFO","3LN3BXKGC0HZB1VNEMH4SWP73O3GW1","","null","<img src=""img/animal3.png"" style=""width:200px; border:14px solid green;"">","null","","","",""
"","image-keyboard-response","347","199267","0.0-347.0","3GU1KF0O4JNFMVO5DGGXOAM2YO8PB3","A207IHY6GERCFO","3LN3BXKGC0HZB1VNEMH4SWP73O3GW1","","362","img/animal3.png","74","366","74","1",""
"","html-keyboard-response","348","199570","0.0-348.0","3GU1KF0O4JNFMVO5DGGXOAM2YO8PB3","A207IHY6GERCFO","3LN3BXKGC0HZB1VNEMH4SWP73O3GW1","","null","<img src=""img/animal3.png"" style=""width:200px; border:14px solid green;"">","null","","","",""
"","image-keyboard-response","349","200075","0.0-349.0","3GU1KF0O4JNFMVO5DGGXOAM2YO8PB3","A207IHY6GERCFO","3LN3BXKGC0HZB1VNEMH4SWP73O3GW1","","502","img/animal5.png","75","505","75","1",""
"","html-keyboard-response","350","200378","0.0-350.0","3GU1KF0O4JNFMVO5DGGXOAM2YO8PB3","A207IHY6GERCFO","3LN3BXKGC0HZB1VNEMH4SWP73O3GW1","","null","<img src=""img/animal5.png"" style=""width:200px; border:14px solid green;"">","null","","","",""
"","image-keyboard-response","351","200635","0.0-351.0","3GU1KF0O4JNFMVO5DGGXOAM2YO8PB3","A207IHY6GERCFO","3LN3BXKGC0HZB1VNEMH4SWP73O3GW1","","255","img/animal5.png","75","257","75","1",""
"","html-keyboard-response","352","200938","0.0-352.0","3GU1KF0O4JNFMVO5DGGXOAM2YO8PB3","A207IHY6GERCFO","3LN3BXKGC0HZB1VNEMH4SWP73O3GW1","","null","<img src=""img/animal5.png"" style=""width:200px; border:14px solid green;"">","null","","","",""
"","image-keyboard-response","353","201530","0.0-353.0","3GU1KF0O4JNFMVO5DGGXOAM2YO8PB3","A207IHY6GERCFO","3LN3BXKGC0HZB1VNEMH4SWP73O3GW1","","591","img/animal3.png","74","592","74","1",""
"","html-keyboard-response","354","201832","0.0-354.0","3GU1KF0O4JNFMVO5DGGXOAM2YO8PB3","A207IHY6GERCFO","3LN3BXKGC0HZB1VNEMH4SWP73O3GW1","","null","<img src=""img/animal3.png"" style=""width:200px; border:14px solid green;"">","null","","","",""
"","image-keyboard-response","355","202164","0.0-355.0","3GU1KF0O4JNFMVO5DGGXOAM2YO8PB3","A207IHY6GERCFO","3LN3BXKGC0HZB1VNEMH4SWP73O3GW1","","330","img/animal3.png","74","332","74","1",""
"","html-keyboard-response","356","202467","0.0-356.0","3GU1KF0O4JNFMVO5DGGXOAM2YO8PB3","A207IHY6GERCFO","3LN3BXKGC0HZB1VNEMH4SWP73O3GW1","","null","<img src=""img/animal3.png"" style=""width:200px; border:14px solid green;"">","null","","","",""
"","image-keyboard-response","357","202819","0.0-357.0","3GU1KF0O4JNFMVO5DGGXOAM2YO8PB3","A207IHY6GERCFO","3LN3BXKGC0HZB1VNEMH4SWP73O3GW1","","349","img/animal3.png","74","352","74","1",""
"","html-keyboard-response","358","203122","0.0-358.0","3GU1KF0O4JNFMVO5DGGXOAM2YO8PB3","A207IHY6GERCFO","3LN3BXKGC0HZB1VNEMH4SWP73O3GW1","","null","<img src=""img/animal3.png"" style=""width:200px; border:14px solid green;"">","null","","","",""
"","image-keyboard-response","359","203675","0.0-359.0","3GU1KF0O4JNFMVO5DGGXOAM2YO8PB3","A207IHY6GERCFO","3LN3BXKGC0HZB1VNEMH4SWP73O3GW1","","551","img/animal1.png","76","552","76","1",""
"","html-keyboard-response","360","203978","0.0-360.0","3GU1KF0O4JNFMVO5DGGXOAM2YO8PB3","A207IHY6GERCFO","3LN3BXKGC0HZB1VNEMH4SWP73O3GW1","","null","<img src=""img/animal1.png"" style=""width:200px; border:14px solid green;"">","null","","","",""
"","image-keyboard-response","361","204483","0.0-361.0","3GU1KF0O4JNFMVO5DGGXOAM2YO8PB3","A207IHY6GERCFO","3LN3BXKGC0HZB1VNEMH4SWP73O3GW1","","504","img/animal3.png","74","506","74","1",""
"","html-keyboard-response","362","204786","0.0-362.0","3GU1KF0O4JNFMVO5DGGXOAM2YO8PB3","A207IHY6GERCFO","3LN3BXKGC0HZB1VNEMH4SWP73O3GW1","","null","<img src=""img/animal3.png"" style=""width:200px; border:14px solid green;"">","null","","","",""
"","instructions","363","207738","0.0-363.0","3GU1KF0O4JNFMVO5DGGXOAM2YO8PB3","A207IHY6GERCFO","3LN3BXKGC0HZB1VNEMH4SWP73O3GW1","[{""page_index"":0,""viewing_time"":2950}]","2950","","","","","",""
"","survey-text","364","209923","0.0-364.0","3GU1KF0O4JNFMVO5DGGXOAM2YO8PB3","A207IHY6GERCFO","3LN3BXKGC0HZB1VNEMH4SWP73O3GW1","","2183","","","","","","{""Q0"":""A207IHY6GERCFO""}"
