"success","trial_type","trial_index","time_elapsed","internal_node_id","assignmentID","mturkID","hitID","view_history","rt","stimulus","key_press","reactionTime","a","r","s","reward_cond","responses"
"true","fullscreen","0","9709","0.0-0.0","3RANCT1ZVG3SE0W1U2FRYG917NPUBU","A227W90ZO5I9RZ","3H6W48L9F4B5OEOMH57RM53Z4H1WP0","","","","","","","","","",""
"","instructions","1","66190","0.0-1.0","3RANCT1ZVG3SE0W1U2FRYG917NPUBU","A227W90ZO5I9RZ","3H6W48L9F4B5OEOMH57RM53Z4H1WP0","[{""page_index"":0,""viewing_time"":9792.800000011921},{""page_index"":1,""viewing_time"":7077.399999976158},{""page_index"":2,""viewing_time"":10180},{""page_index"":3,""viewing_time"":9998.899999976158},{""page_index"":4,""viewing_time"":8949.300000011921},{""page_index"":5,""viewing_time"":4238.600000023842},{""page_index"":6,""viewing_time"":3450.699999988079},{""page_index"":7,""viewing_time"":2793.199999988079}]","56481.69999998808","","","","","","","",""
"","image-keyboard-response","2","72426","0.0-2.0","3RANCT1ZVG3SE0W1U2FRYG917NPUBU","A227W90ZO5I9RZ","3H6W48L9F4B5OEOMH57RM53Z4H1WP0","","6233.800000011921","img/animal3.png","76","6236.199999988079","3","0","1","1,0.5,0,1,0,0.5,0.5,0,1",""
"","html-keyboard-response","3","72731","0.0-3.0","3RANCT1ZVG3SE0W1U2FRYG917NPUBU","A227W90ZO5I9RZ","3H6W48L9F4B5OEOMH57RM53Z4H1WP0","","null","<img src=""img/animal3.png"" style=""width:200px;border:14px solid red;"">","null","","","","","",""
"","image-keyboard-response","4","74775","0.0-4.0","3RANCT1ZVG3SE0W1U2FRYG917NPUBU","A227W90ZO5I9RZ","3H6W48L9F4B5OEOMH57RM53Z4H1WP0","","2042.2000000476837","img/animal1.png","74","2043.7999999523163","1","1","2","1,0.5,0,1,0,0.5,0.5,0,1",""
"","html-keyboard-response","5","75080","0.0-5.0","3RANCT1ZVG3SE0W1U2FRYG917NPUBU","A227W90ZO5I9RZ","3H6W48L9F4B5OEOMH57RM53Z4H1WP0","","null","<img src=""img/animal1.png"" style=""width:200px; border:14px solid green;"">","null","","","","","",""
"","image-keyboard-response","6","79006","0.0-6.0","3RANCT1ZVG3SE0W1U2FRYG917NPUBU","A227W90ZO5I9RZ","3H6W48L9F4B5OEOMH57RM53Z4H1WP0","","3924.699999988079","img/animal3.png","75","3926","2","1","1","1,0.5,0,1,0,0.5,0.5,0,1",""
"","html-keyboard-response","7","79314","0.0-7.0","3RANCT1ZVG3SE0W1U2FRYG917NPUBU","A227W90ZO5I9RZ","3H6W48L9F4B5OEOMH57RM53Z4H1WP0","","null","<img src=""img/animal3.png"" style=""width:200px; border:14px solid green;"">","null","","","","","",""
"","image-keyboard-response","8","81482","0.0-8.0","3RANCT1ZVG3SE0W1U2FRYG917NPUBU","A227W90ZO5I9RZ","3H6W48L9F4B5OEOMH57RM53Z4H1WP0","","2166.800000011921","img/animal3.png","75","2168","2","0","1","1,0.5,0,1,0,0.5,0.5,0,1",""
"","html-keyboard-response","9","81788","0.0-9.0","3RANCT1ZVG3SE0W1U2FRYG917NPUBU","A227W90ZO5I9RZ","3H6W48L9F4B5OEOMH57RM53Z4H1WP0","","null","<img src=""img/animal3.png"" style=""width:200px;border:14px solid red;"">","null","","","","","",""
"","image-keyboard-response","10","84296","0.0-10.0","3RANCT1ZVG3SE0W1U2FRYG917NPUBU","A227W90ZO5I9RZ","3H6W48L9F4B5OEOMH57RM53Z4H1WP0","","2506.100000023842","img/animal3.png","76","2507.199999988079","3","0","1","1,0.5,0,1,0,0.5,0.5,0,1",""
"","html-keyboard-response","11","84604","0.0-11.0","3RANCT1ZVG3SE0W1U2FRYG917NPUBU","A227W90ZO5I9RZ","3H6W48L9F4B5OEOMH57RM53Z4H1WP0","","null","<img src=""img/animal3.png"" style=""width:200px;border:14px solid red;"">","null","","","","","",""
"","image-keyboard-response","12","85586","0.0-12.0","3RANCT1ZVG3SE0W1U2FRYG917NPUBU","A227W90ZO5I9RZ","3H6W48L9F4B5OEOMH57RM53Z4H1WP0","","981.1000000238419","img/animal3.png","74","982.3000000119209","1","1","1","1,0.5,0,1,0,0.5,0.5,0,1",""
"","html-keyboard-response","13","85901","0.0-13.0","3RANCT1ZVG3SE0W1U2FRYG917NPUBU","A227W90ZO5I9RZ","3H6W48L9F4B5OEOMH57RM53Z4H1WP0","","null","<img src=""img/animal3.png"" style=""width:200px; border:14px solid green;"">","null","","","","","",""
"","image-keyboard-response","14","86635","0.0-14.0","3RANCT1ZVG3SE0W1U2FRYG917NPUBU","A227W90ZO5I9RZ","3H6W48L9F4B5OEOMH57RM53Z4H1WP0","","732.8000000119209","img/animal3.png","74","734","1","1","1","1,0.5,0,1,0,0.5,0.5,0,1",""
"","html-keyboard-response","15","86940","0.0-15.0","3RANCT1ZVG3SE0W1U2FRYG917NPUBU","A227W90ZO5I9RZ","3H6W48L9F4B5OEOMH57RM53Z4H1WP0","","null","<img src=""img/animal3.png"" style=""width:200px; border:14px solid green;"">","null","","","","","",""
"","image-keyboard-response","16","89371","0.0-16.0","3RANCT1ZVG3SE0W1U2FRYG917NPUBU","A227W90ZO5I9RZ","3H6W48L9F4B5OEOMH57RM53Z4H1WP0","","2430.199999988079","img/animal1.png","75","2431.199999988079","2","0","2","1,0.5,0,1,0,0.5,0.5,0,1",""
"","html-keyboard-response","17","89681","0.0-17.0","3RANCT1ZVG3SE0W1U2FRYG917NPUBU","A227W90ZO5I9RZ","3H6W48L9F4B5OEOMH57RM53Z4H1WP0","","null","<img src=""img/animal1.png"" style=""width:200px;border:14px solid red;"">","null","","","","","",""
"","image-keyboard-response","18","90799","0.0-18.0","3RANCT1ZVG3SE0W1U2FRYG917NPUBU","A227W90ZO5I9RZ","3H6W48L9F4B5OEOMH57RM53Z4H1WP0","","1116.800000011921","img/animal5.png","75","1117.8999999761581","2","0","3","1,0.5,0,1,0,0.5,0.5,0,1",""
"","html-keyboard-response","19","91111","0.0-19.0","3RANCT1ZVG3SE0W1U2FRYG917NPUBU","A227W90ZO5I9RZ","3H6W48L9F4B5OEOMH57RM53Z4H1WP0","","null","<img src=""img/animal5.png"" style=""width:200px;border:14px solid red;"">","null","","","","","",""
"","image-keyboard-response","20","92115","0.0-20.0","3RANCT1ZVG3SE0W1U2FRYG917NPUBU","A227W90ZO5I9RZ","3H6W48L9F4B5OEOMH57RM53Z4H1WP0","","1002.6999999880791","img/animal5.png","76","1003.6999999880791","3","1","3","1,0.5,0,1,0,0.5,0.5,0,1",""
"","html-keyboard-response","21","92426","0.0-21.0","3RANCT1ZVG3SE0W1U2FRYG917NPUBU","A227W90ZO5I9RZ","3H6W48L9F4B5OEOMH57RM53Z4H1WP0","","null","<img src=""img/animal5.png"" style=""width:200px; border:14px solid green;"">","null","","","","","",""
"","image-keyboard-response","22","93090","0.0-22.0","3RANCT1ZVG3SE0W1U2FRYG917NPUBU","A227W90ZO5I9RZ","3H6W48L9F4B5OEOMH57RM53Z4H1WP0","","663.0999999642372","img/animal5.png","76","664.1999999880791","3","1","3","1,0.5,0,1,0,0.5,0.5,0,1",""
"","html-keyboard-response","23","93394","0.0-23.0","3RANCT1ZVG3SE0W1U2FRYG917NPUBU","A227W90ZO5I9RZ","3H6W48L9F4B5OEOMH57RM53Z4H1WP0","","null","<img src=""img/animal5.png"" style=""width:200px; border:14px solid green;"">","null","","","","","",""
"","image-keyboard-response","24","94843","0.0-24.0","3RANCT1ZVG3SE0W1U2FRYG917NPUBU","A227W90ZO5I9RZ","3H6W48L9F4B5OEOMH57RM53Z4H1WP0","","1446.800000011921","img/animal1.png","76","1448.7999999523163","3","0","2","1,0.5,0,1,0,0.5,0.5,0,1",""
"","html-keyboard-response","25","95160","0.0-25.0","3RANCT1ZVG3SE0W1U2FRYG917NPUBU","A227W90ZO5I9RZ","3H6W48L9F4B5OEOMH57RM53Z4H1WP0","","null","<img src=""img/animal1.png"" style=""width:200px;border:14px solid red;"">","null","","","","","",""
"","image-keyboard-response","26","95924","0.0-26.0","3RANCT1ZVG3SE0W1U2FRYG917NPUBU","A227W90ZO5I9RZ","3H6W48L9F4B5OEOMH57RM53Z4H1WP0","","762.5999999642372","img/animal1.png","75","763.7999999523163","2","0","2","1,0.5,0,1,0,0.5,0.5,0,1",""
"","html-keyboard-response","27","96229","0.0-27.0","3RANCT1ZVG3SE0W1U2FRYG917NPUBU","A227W90ZO5I9RZ","3H6W48L9F4B5OEOMH57RM53Z4H1WP0","","null","<img src=""img/animal1.png"" style=""width:200px;border:14px solid red;"">","null","","","","","",""
"","image-keyboard-response","28","96663","0.0-28.0","3RANCT1ZVG3SE0W1U2FRYG917NPUBU","A227W90ZO5I9RZ","3H6W48L9F4B5OEOMH57RM53Z4H1WP0","","432.80000001192093","img/animal1.png","74","434","1","1","2","1,0.5,0,1,0,0.5,0.5,0,1",""
"","html-keyboard-response","29","96966","0.0-29.0","3RANCT1ZVG3SE0W1U2FRYG917NPUBU","A227W90ZO5I9RZ","3H6W48L9F4B5OEOMH57RM53Z4H1WP0","","null","<img src=""img/animal1.png"" style=""width:200px; border:14px solid green;"">","null","","","","","",""
"","image-keyboard-response","30","101435","0.0-30.0","3RANCT1ZVG3SE0W1U2FRYG917NPUBU","A227W90ZO5I9RZ","3H6W48L9F4B5OEOMH57RM53Z4H1WP0","","4467.200000047684","img/animal3.png","74","4468.299999952316","1","1","1","1,0.5,0,1,0,0.5,0.5,0,1",""
"","html-keyboard-response","31","101742","0.0-31.0","3RANCT1ZVG3SE0W1U2FRYG917NPUBU","A227W90ZO5I9RZ","3H6W48L9F4B5OEOMH57RM53Z4H1WP0","","null","<img src=""img/animal3.png"" style=""width:200px; border:14px solid green;"">","null","","","","","",""
"","image-keyboard-response","32","102684","0.0-32.0","3RANCT1ZVG3SE0W1U2FRYG917NPUBU","A227W90ZO5I9RZ","3H6W48L9F4B5OEOMH57RM53Z4H1WP0","","941.0999999642372","img/animal5.png","74","942.1000000238419","1","0","3","1,0.5,0,1,0,0.5,0.5,0,1",""
"","html-keyboard-response","33","102991","0.0-33.0","3RANCT1ZVG3SE0W1U2FRYG917NPUBU","A227W90ZO5I9RZ","3H6W48L9F4B5OEOMH57RM53Z4H1WP0","","null","<img src=""img/animal5.png"" style=""width:200px;border:14px solid red;"">","null","","","","","",""
"","image-keyboard-response","34","103876","0.0-34.0","3RANCT1ZVG3SE0W1U2FRYG917NPUBU","A227W90ZO5I9RZ","3H6W48L9F4B5OEOMH57RM53Z4H1WP0","","883.5","img/animal3.png","74","884.5","1","1","1","1,0.5,0,1,0,0.5,0.5,0,1",""
"","html-keyboard-response","35","104181","0.0-35.0","3RANCT1ZVG3SE0W1U2FRYG917NPUBU","A227W90ZO5I9RZ","3H6W48L9F4B5OEOMH57RM53Z4H1WP0","","null","<img src=""img/animal3.png"" style=""width:200px; border:14px solid green;"">","null","","","","","",""
"","image-keyboard-response","36","106145","0.0-36.0","3RANCT1ZVG3SE0W1U2FRYG917NPUBU","A227W90ZO5I9RZ","3H6W48L9F4B5OEOMH57RM53Z4H1WP0","","1959","img/animal1.png","75","1962.8999999761581","2","0","2","1,0.5,0,1,0,0.5,0.5,0,1",""
"","html-keyboard-response","37","106448","0.0-37.0","3RANCT1ZVG3SE0W1U2FRYG917NPUBU","A227W90ZO5I9RZ","3H6W48L9F4B5OEOMH57RM53Z4H1WP0","","null","<img src=""img/animal1.png"" style=""width:200px;border:14px solid red;"">","null","","","","","",""
"","image-keyboard-response","38","107003","0.0-38.0","3RANCT1ZVG3SE0W1U2FRYG917NPUBU","A227W90ZO5I9RZ","3H6W48L9F4B5OEOMH57RM53Z4H1WP0","","553.1000000238419","img/animal1.png","76","554.3000000119209","3","0","2","1,0.5,0,1,0,0.5,0.5,0,1",""
"","html-keyboard-response","39","107309","0.0-39.0","3RANCT1ZVG3SE0W1U2FRYG917NPUBU","A227W90ZO5I9RZ","3H6W48L9F4B5OEOMH57RM53Z4H1WP0","","null","<img src=""img/animal1.png"" style=""width:200px;border:14px solid red;"">","null","","","","","",""
"","image-keyboard-response","40","108250","0.0-40.0","3RANCT1ZVG3SE0W1U2FRYG917NPUBU","A227W90ZO5I9RZ","3H6W48L9F4B5OEOMH57RM53Z4H1WP0","","940","img/animal5.png","74","941.5","1","0","3","1,0.5,0,1,0,0.5,0.5,0,1",""
"","html-keyboard-response","41","108560","0.0-41.0","3RANCT1ZVG3SE0W1U2FRYG917NPUBU","A227W90ZO5I9RZ","3H6W48L9F4B5OEOMH57RM53Z4H1WP0","","null","<img src=""img/animal5.png"" style=""width:200px;border:14px solid red;"">","null","","","","","",""
"","image-keyboard-response","42","110327","0.0-42.0","3RANCT1ZVG3SE0W1U2FRYG917NPUBU","A227W90ZO5I9RZ","3H6W48L9F4B5OEOMH57RM53Z4H1WP0","","1766.2999999523163","img/animal5.png","75","1767.5","2","0","3","1,0.5,0,1,0,0.5,0.5,0,1",""
"","html-keyboard-response","43","110635","0.0-43.0","3RANCT1ZVG3SE0W1U2FRYG917NPUBU","A227W90ZO5I9RZ","3H6W48L9F4B5OEOMH57RM53Z4H1WP0","","null","<img src=""img/animal5.png"" style=""width:200px;border:14px solid red;"">","null","","","","","",""
"","image-keyboard-response","44","111191","0.0-44.0","3RANCT1ZVG3SE0W1U2FRYG917NPUBU","A227W90ZO5I9RZ","3H6W48L9F4B5OEOMH57RM53Z4H1WP0","","554.3000000119209","img/animal5.png","74","555.6999999880791","1","0","3","1,0.5,0,1,0,0.5,0.5,0,1",""
"","html-keyboard-response","45","111493","0.0-45.0","3RANCT1ZVG3SE0W1U2FRYG917NPUBU","A227W90ZO5I9RZ","3H6W48L9F4B5OEOMH57RM53Z4H1WP0","","null","<img src=""img/animal5.png"" style=""width:200px;border:14px solid red;"">","null","","","","","",""
"","image-keyboard-response","46","112766","0.0-46.0","3RANCT1ZVG3SE0W1U2FRYG917NPUBU","A227W90ZO5I9RZ","3H6W48L9F4B5OEOMH57RM53Z4H1WP0","","1271.3999999761581","img/animal3.png","74","1272.5999999642372","1","1","1","1,0.5,0,1,0,0.5,0.5,0,1",""
"","html-keyboard-response","47","113079","0.0-47.0","3RANCT1ZVG3SE0W1U2FRYG917NPUBU","A227W90ZO5I9RZ","3H6W48L9F4B5OEOMH57RM53Z4H1WP0","","null","<img src=""img/animal3.png"" style=""width:200px; border:14px solid green;"">","null","","","","","",""
"","image-keyboard-response","48","113898","0.0-48.0","3RANCT1ZVG3SE0W1U2FRYG917NPUBU","A227W90ZO5I9RZ","3H6W48L9F4B5OEOMH57RM53Z4H1WP0","","818","img/animal3.png","74","819.2999999523163","1","1","1","1,0.5,0,1,0,0.5,0.5,0,1",""
"","html-keyboard-response","49","114204","0.0-49.0","3RANCT1ZVG3SE0W1U2FRYG917NPUBU","A227W90ZO5I9RZ","3H6W48L9F4B5OEOMH57RM53Z4H1WP0","","null","<img src=""img/animal3.png"" style=""width:200px; border:14px solid green;"">","null","","","","","",""
"","image-keyboard-response","50","115612","0.0-50.0","3RANCT1ZVG3SE0W1U2FRYG917NPUBU","A227W90ZO5I9RZ","3H6W48L9F4B5OEOMH57RM53Z4H1WP0","","1406.699999988079","img/animal1.png","76","1407.699999988079","3","0","2","1,0.5,0,1,0,0.5,0.5,0,1",""
"","html-keyboard-response","51","115917","0.0-51.0","3RANCT1ZVG3SE0W1U2FRYG917NPUBU","A227W90ZO5I9RZ","3H6W48L9F4B5OEOMH57RM53Z4H1WP0","","null","<img src=""img/animal1.png"" style=""width:200px;border:14px solid red;"">","null","","","","","",""
"","image-keyboard-response","52","118257","0.0-52.0","3RANCT1ZVG3SE0W1U2FRYG917NPUBU","A227W90ZO5I9RZ","3H6W48L9F4B5OEOMH57RM53Z4H1WP0","","2337.300000011921","img/animal5.png","75","2338.399999976158","2","0","3","1,0.5,0,1,0,0.5,0.5,0,1",""
"","html-keyboard-response","53","118561","0.0-53.0","3RANCT1ZVG3SE0W1U2FRYG917NPUBU","A227W90ZO5I9RZ","3H6W48L9F4B5OEOMH57RM53Z4H1WP0","","null","<img src=""img/animal5.png"" style=""width:200px;border:14px solid red;"">","null","","","","","",""
"","image-keyboard-response","54","120201","0.0-54.0","3RANCT1ZVG3SE0W1U2FRYG917NPUBU","A227W90ZO5I9RZ","3H6W48L9F4B5OEOMH57RM53Z4H1WP0","","1639.199999988079","img/animal1.png","74","1640.199999988079","1","1","2","1,0.5,0,1,0,0.5,0.5,0,1",""
"","html-keyboard-response","55","120507","0.0-55.0","3RANCT1ZVG3SE0W1U2FRYG917NPUBU","A227W90ZO5I9RZ","3H6W48L9F4B5OEOMH57RM53Z4H1WP0","","null","<img src=""img/animal1.png"" style=""width:200px; border:14px solid green;"">","null","","","","","",""
"","image-keyboard-response","56","121264","0.0-56.0","3RANCT1ZVG3SE0W1U2FRYG917NPUBU","A227W90ZO5I9RZ","3H6W48L9F4B5OEOMH57RM53Z4H1WP0","","755.1999999880791","img/animal5.png","74","756.3999999761581","1","1","3","1,0.5,0,1,0,0.5,0.5,0,1",""
"","html-keyboard-response","57","121568","0.0-57.0","3RANCT1ZVG3SE0W1U2FRYG917NPUBU","A227W90ZO5I9RZ","3H6W48L9F4B5OEOMH57RM53Z4H1WP0","","null","<img src=""img/animal5.png"" style=""width:200px; border:14px solid green;"">","null","","","","","",""
"","image-keyboard-response","58","122333","0.0-58.0","3RANCT1ZVG3SE0W1U2FRYG917NPUBU","A227W90ZO5I9RZ","3H6W48L9F4B5OEOMH57RM53Z4H1WP0","","763.3000000119209","img/animal3.png","74","764.6999999880791","1","1","1","1,0.5,0,1,0,0.5,0.5,0,1",""
"","html-keyboard-response","59","122642","0.0-59.0","3RANCT1ZVG3SE0W1U2FRYG917NPUBU","A227W90ZO5I9RZ","3H6W48L9F4B5OEOMH57RM53Z4H1WP0","","null","<img src=""img/animal3.png"" style=""width:200px; border:14px solid green;"">","null","","","","","",""
"","image-keyboard-response","60","123387","0.0-60.0","3RANCT1ZVG3SE0W1U2FRYG917NPUBU","A227W90ZO5I9RZ","3H6W48L9F4B5OEOMH57RM53Z4H1WP0","","743.6999999880791","img/animal3.png","74","745.0999999642372","1","1","1","1,0.5,0,1,0,0.5,0.5,0,1",""
"","html-keyboard-response","61","123696","0.0-61.0","3RANCT1ZVG3SE0W1U2FRYG917NPUBU","A227W90ZO5I9RZ","3H6W48L9F4B5OEOMH57RM53Z4H1WP0","","null","<img src=""img/animal3.png"" style=""width:200px; border:14px solid green;"">","null","","","","","",""
"","image-keyboard-response","62","124446","0.0-62.0","3RANCT1ZVG3SE0W1U2FRYG917NPUBU","A227W90ZO5I9RZ","3H6W48L9F4B5OEOMH57RM53Z4H1WP0","","748.9000000357628","img/animal5.png","74","750.1999999880791","1","0","3","1,0.5,0,1,0,0.5,0.5,0,1",""
"","html-keyboard-response","63","124752","0.0-63.0","3RANCT1ZVG3SE0W1U2FRYG917NPUBU","A227W90ZO5I9RZ","3H6W48L9F4B5OEOMH57RM53Z4H1WP0","","null","<img src=""img/animal5.png"" style=""width:200px;border:14px solid red;"">","null","","","","","",""
"","image-keyboard-response","64","125815","0.0-64.0","3RANCT1ZVG3SE0W1U2FRYG917NPUBU","A227W90ZO5I9RZ","3H6W48L9F4B5OEOMH57RM53Z4H1WP0","","1062","img/animal5.png","76","1063.2000000476837","3","1","3","1,0.5,0,1,0,0.5,0.5,0,1",""
"","html-keyboard-response","65","126123","0.0-65.0","3RANCT1ZVG3SE0W1U2FRYG917NPUBU","A227W90ZO5I9RZ","3H6W48L9F4B5OEOMH57RM53Z4H1WP0","","null","<img src=""img/animal5.png"" style=""width:200px; border:14px solid green;"">","null","","","","","",""
"","image-keyboard-response","66","128123","0.0-66.0","3RANCT1ZVG3SE0W1U2FRYG917NPUBU","A227W90ZO5I9RZ","3H6W48L9F4B5OEOMH57RM53Z4H1WP0","","1999","img/animal3.png","74","2000","1","1","1","1,0.5,0,1,0,0.5,0.5,0,1",""
"","html-keyboard-response","67","128429","0.0-67.0","3RANCT1ZVG3SE0W1U2FRYG917NPUBU","A227W90ZO5I9RZ","3H6W48L9F4B5OEOMH57RM53Z4H1WP0","","null","<img src=""img/animal3.png"" style=""width:200px; border:14px solid green;"">","null","","","","","",""
"","image-keyboard-response","68","129922","0.0-68.0","3RANCT1ZVG3SE0W1U2FRYG917NPUBU","A227W90ZO5I9RZ","3H6W48L9F4B5OEOMH57RM53Z4H1WP0","","1492","img/animal1.png","75","1493.1000000238419","2","0","2","1,0.5,0,1,0,0.5,0.5,0,1",""
"","html-keyboard-response","69","130229","0.0-69.0","3RANCT1ZVG3SE0W1U2FRYG917NPUBU","A227W90ZO5I9RZ","3H6W48L9F4B5OEOMH57RM53Z4H1WP0","","null","<img src=""img/animal1.png"" style=""width:200px;border:14px solid red;"">","null","","","","","",""
"","image-keyboard-response","70","130582","0.0-70.0","3RANCT1ZVG3SE0W1U2FRYG917NPUBU","A227W90ZO5I9RZ","3H6W48L9F4B5OEOMH57RM53Z4H1WP0","","351.10000002384186","img/animal1.png","76","352.30000001192093","3","1","2","1,0.5,0,1,0,0.5,0.5,0,1",""
"","html-keyboard-response","71","130899","0.0-71.0","3RANCT1ZVG3SE0W1U2FRYG917NPUBU","A227W90ZO5I9RZ","3H6W48L9F4B5OEOMH57RM53Z4H1WP0","","null","<img src=""img/animal1.png"" style=""width:200px; border:14px solid green;"">","null","","","","","",""
"","image-keyboard-response","72","131481","0.0-72.0","3RANCT1ZVG3SE0W1U2FRYG917NPUBU","A227W90ZO5I9RZ","3H6W48L9F4B5OEOMH57RM53Z4H1WP0","","580.4000000357628","img/animal1.png","76","581.5","3","1","2","1,0.5,0,1,0,0.5,0.5,0,1",""
"","html-keyboard-response","73","131788","0.0-73.0","3RANCT1ZVG3SE0W1U2FRYG917NPUBU","A227W90ZO5I9RZ","3H6W48L9F4B5OEOMH57RM53Z4H1WP0","","null","<img src=""img/animal1.png"" style=""width:200px; border:14px solid green;"">","null","","","","","",""
"","image-keyboard-response","74","132916","0.0-74.0","3RANCT1ZVG3SE0W1U2FRYG917NPUBU","A227W90ZO5I9RZ","3H6W48L9F4B5OEOMH57RM53Z4H1WP0","","1125.8999999761581","img/animal5.png","76","1127.699999988079","3","1","3","1,0.5,0,1,0,0.5,0.5,0,1",""
"","html-keyboard-response","75","133224","0.0-75.0","3RANCT1ZVG3SE0W1U2FRYG917NPUBU","A227W90ZO5I9RZ","3H6W48L9F4B5OEOMH57RM53Z4H1WP0","","null","<img src=""img/animal5.png"" style=""width:200px; border:14px solid green;"">","null","","","","","",""
"","image-keyboard-response","76","135363","0.0-76.0","3RANCT1ZVG3SE0W1U2FRYG917NPUBU","A227W90ZO5I9RZ","3H6W48L9F4B5OEOMH57RM53Z4H1WP0","","2137.399999976158","img/animal3.png","74","2138.699999988079","1","1","1","1,0.5,0,1,0,0.5,0.5,0,1",""
"","html-keyboard-response","77","135665","0.0-77.0","3RANCT1ZVG3SE0W1U2FRYG917NPUBU","A227W90ZO5I9RZ","3H6W48L9F4B5OEOMH57RM53Z4H1WP0","","null","<img src=""img/animal3.png"" style=""width:200px; border:14px solid green;"">","null","","","","","",""
"","image-keyboard-response","78","136650","0.0-78.0","3RANCT1ZVG3SE0W1U2FRYG917NPUBU","A227W90ZO5I9RZ","3H6W48L9F4B5OEOMH57RM53Z4H1WP0","","984.1999999880791","img/animal5.png","76","985.3999999761581","3","1","3","1,0.5,0,1,0,0.5,0.5,0,1",""
"","html-keyboard-response","79","136958","0.0-79.0","3RANCT1ZVG3SE0W1U2FRYG917NPUBU","A227W90ZO5I9RZ","3H6W48L9F4B5OEOMH57RM53Z4H1WP0","","null","<img src=""img/animal5.png"" style=""width:200px; border:14px solid green;"">","null","","","","","",""
"","image-keyboard-response","80","137810","0.0-80.0","3RANCT1ZVG3SE0W1U2FRYG917NPUBU","A227W90ZO5I9RZ","3H6W48L9F4B5OEOMH57RM53Z4H1WP0","","851.1000000238419","img/animal1.png","76","852.1999999880791","3","0","2","1,0.5,0,1,0,0.5,0.5,0,1",""
"","html-keyboard-response","81","138115","0.0-81.0","3RANCT1ZVG3SE0W1U2FRYG917NPUBU","A227W90ZO5I9RZ","3H6W48L9F4B5OEOMH57RM53Z4H1WP0","","null","<img src=""img/animal1.png"" style=""width:200px;border:14px solid red;"">","null","","","","","",""
"","image-keyboard-response","82","138772","0.0-82.0","3RANCT1ZVG3SE0W1U2FRYG917NPUBU","A227W90ZO5I9RZ","3H6W48L9F4B5OEOMH57RM53Z4H1WP0","","654.7999999523163","img/animal5.png","74","656.1999999880791","1","1","3","1,0.5,0,1,0,0.5,0.5,0,1",""
"","html-keyboard-response","83","139074","0.0-83.0","3RANCT1ZVG3SE0W1U2FRYG917NPUBU","A227W90ZO5I9RZ","3H6W48L9F4B5OEOMH57RM53Z4H1WP0","","null","<img src=""img/animal5.png"" style=""width:200px; border:14px solid green;"">","null","","","","","",""
"","image-keyboard-response","84","140236","0.0-84.0","3RANCT1ZVG3SE0W1U2FRYG917NPUBU","A227W90ZO5I9RZ","3H6W48L9F4B5OEOMH57RM53Z4H1WP0","","1161.300000011921","img/animal1.png","75","1162.5","2","0","2","1,0.5,0,1,0,0.5,0.5,0,1",""
"","html-keyboard-response","85","140551","0.0-85.0","3RANCT1ZVG3SE0W1U2FRYG917NPUBU","A227W90ZO5I9RZ","3H6W48L9F4B5OEOMH57RM53Z4H1WP0","","null","<img src=""img/animal1.png"" style=""width:200px;border:14px solid red;"">","null","","","","","",""
"","image-keyboard-response","86","141319","0.0-86.0","3RANCT1ZVG3SE0W1U2FRYG917NPUBU","A227W90ZO5I9RZ","3H6W48L9F4B5OEOMH57RM53Z4H1WP0","","766.5","img/animal3.png","74","768","1","1","1","1,0.5,0,1,0,0.5,0.5,0,1",""
"","html-keyboard-response","87","141627","0.0-87.0","3RANCT1ZVG3SE0W1U2FRYG917NPUBU","A227W90ZO5I9RZ","3H6W48L9F4B5OEOMH57RM53Z4H1WP0","","null","<img src=""img/animal3.png"" style=""width:200px; border:14px solid green;"">","null","","","","","",""
"","image-keyboard-response","88","142070","0.0-88.0","3RANCT1ZVG3SE0W1U2FRYG917NPUBU","A227W90ZO5I9RZ","3H6W48L9F4B5OEOMH57RM53Z4H1WP0","","441.69999998807907","img/animal1.png","74","442.9000000357628","1","1","2","1,0.5,0,1,0,0.5,0.5,0,1",""
"","html-keyboard-response","89","142377","0.0-89.0","3RANCT1ZVG3SE0W1U2FRYG917NPUBU","A227W90ZO5I9RZ","3H6W48L9F4B5OEOMH57RM53Z4H1WP0","","null","<img src=""img/animal1.png"" style=""width:200px; border:14px solid green;"">","null","","","","","",""
"","image-keyboard-response","90","143454","0.0-90.0","3RANCT1ZVG3SE0W1U2FRYG917NPUBU","A227W90ZO5I9RZ","3H6W48L9F4B5OEOMH57RM53Z4H1WP0","","1076.300000011921","img/animal5.png","76","1077.3999999761581","3","1","3","1,0.5,0,1,0,0.5,0.5,0,1",""
"","html-keyboard-response","91","143756","0.0-91.0","3RANCT1ZVG3SE0W1U2FRYG917NPUBU","A227W90ZO5I9RZ","3H6W48L9F4B5OEOMH57RM53Z4H1WP0","","null","<img src=""img/animal5.png"" style=""width:200px; border:14px solid green;"">","null","","","","","",""
"","image-keyboard-response","92","144702","0.0-92.0","3RANCT1ZVG3SE0W1U2FRYG917NPUBU","A227W90ZO5I9RZ","3H6W48L9F4B5OEOMH57RM53Z4H1WP0","","944.3000000119209","img/animal3.png","74","945.3000000119209","1","1","1","1,0.5,0,1,0,0.5,0.5,0,1",""
"","html-keyboard-response","93","145009","0.0-93.0","3RANCT1ZVG3SE0W1U2FRYG917NPUBU","A227W90ZO5I9RZ","3H6W48L9F4B5OEOMH57RM53Z4H1WP0","","null","<img src=""img/animal3.png"" style=""width:200px; border:14px solid green;"">","null","","","","","",""
"","image-keyboard-response","94","145616","0.0-94.0","3RANCT1ZVG3SE0W1U2FRYG917NPUBU","A227W90ZO5I9RZ","3H6W48L9F4B5OEOMH57RM53Z4H1WP0","","605.1999999880791","img/animal3.png","74","606.2999999523163","1","1","1","1,0.5,0,1,0,0.5,0.5,0,1",""
"","html-keyboard-response","95","145918","0.0-95.0","3RANCT1ZVG3SE0W1U2FRYG917NPUBU","A227W90ZO5I9RZ","3H6W48L9F4B5OEOMH57RM53Z4H1WP0","","null","<img src=""img/animal3.png"" style=""width:200px; border:14px solid green;"">","null","","","","","",""
"","image-keyboard-response","96","146727","0.0-96.0","3RANCT1ZVG3SE0W1U2FRYG917NPUBU","A227W90ZO5I9RZ","3H6W48L9F4B5OEOMH57RM53Z4H1WP0","","807.8000000119209","img/animal1.png","74","808.8999999761581","1","1","2","1,0.5,0,1,0,0.5,0.5,0,1",""
"","html-keyboard-response","97","147046","0.0-97.0","3RANCT1ZVG3SE0W1U2FRYG917NPUBU","A227W90ZO5I9RZ","3H6W48L9F4B5OEOMH57RM53Z4H1WP0","","null","<img src=""img/animal1.png"" style=""width:200px; border:14px solid green;"">","null","","","","","",""
"","image-keyboard-response","98","147829","0.0-98.0","3RANCT1ZVG3SE0W1U2FRYG917NPUBU","A227W90ZO5I9RZ","3H6W48L9F4B5OEOMH57RM53Z4H1WP0","","781.1000000238419","img/animal1.png","74","782.8000000119209","1","1","2","1,0.5,0,1,0,0.5,0.5,0,1",""
"","html-keyboard-response","99","148131","0.0-99.0","3RANCT1ZVG3SE0W1U2FRYG917NPUBU","A227W90ZO5I9RZ","3H6W48L9F4B5OEOMH57RM53Z4H1WP0","","null","<img src=""img/animal1.png"" style=""width:200px; border:14px solid green;"">","null","","","","","",""
"","image-keyboard-response","100","149267","0.0-100.0","3RANCT1ZVG3SE0W1U2FRYG917NPUBU","A227W90ZO5I9RZ","3H6W48L9F4B5OEOMH57RM53Z4H1WP0","","1134.5999999642372","img/animal3.png","74","1135.699999988079","1","1","1","1,0.5,0,1,0,0.5,0.5,0,1",""
"","html-keyboard-response","101","149574","0.0-101.0","3RANCT1ZVG3SE0W1U2FRYG917NPUBU","A227W90ZO5I9RZ","3H6W48L9F4B5OEOMH57RM53Z4H1WP0","","null","<img src=""img/animal3.png"" style=""width:200px; border:14px solid green;"">","null","","","","","",""
"","image-keyboard-response","102","150560","0.0-102.0","3RANCT1ZVG3SE0W1U2FRYG917NPUBU","A227W90ZO5I9RZ","3H6W48L9F4B5OEOMH57RM53Z4H1WP0","","984.5","img/animal1.png","74","986.0999999642372","1","1","2","1,0.5,0,1,0,0.5,0.5,0,1",""
"","html-keyboard-response","103","150868","0.0-103.0","3RANCT1ZVG3SE0W1U2FRYG917NPUBU","A227W90ZO5I9RZ","3H6W48L9F4B5OEOMH57RM53Z4H1WP0","","null","<img src=""img/animal1.png"" style=""width:200px; border:14px solid green;"">","null","","","","","",""
"","image-keyboard-response","104","153112","0.0-104.0","3RANCT1ZVG3SE0W1U2FRYG917NPUBU","A227W90ZO5I9RZ","3H6W48L9F4B5OEOMH57RM53Z4H1WP0","","2243.5","img/animal5.png","74","2244.600000023842","1","1","3","1,0.5,0,1,0,0.5,0.5,0,1",""
"","html-keyboard-response","105","153421","0.0-105.0","3RANCT1ZVG3SE0W1U2FRYG917NPUBU","A227W90ZO5I9RZ","3H6W48L9F4B5OEOMH57RM53Z4H1WP0","","null","<img src=""img/animal5.png"" style=""width:200px; border:14px solid green;"">","null","","","","","",""
"","image-keyboard-response","106","154143","0.0-106.0","3RANCT1ZVG3SE0W1U2FRYG917NPUBU","A227W90ZO5I9RZ","3H6W48L9F4B5OEOMH57RM53Z4H1WP0","","720.8999999761581","img/animal3.png","74","722.2999999523163","1","1","1","1,0.5,0,1,0,0.5,0.5,0,1",""
"","html-keyboard-response","107","154450","0.0-107.0","3RANCT1ZVG3SE0W1U2FRYG917NPUBU","A227W90ZO5I9RZ","3H6W48L9F4B5OEOMH57RM53Z4H1WP0","","null","<img src=""img/animal3.png"" style=""width:200px; border:14px solid green;"">","null","","","","","",""
"","image-keyboard-response","108","155288","0.0-108.0","3RANCT1ZVG3SE0W1U2FRYG917NPUBU","A227W90ZO5I9RZ","3H6W48L9F4B5OEOMH57RM53Z4H1WP0","","836.1999999880791","img/animal1.png","74","837.2999999523163","1","1","2","1,0.5,0,1,0,0.5,0.5,0,1",""
"","html-keyboard-response","109","155592","0.0-109.0","3RANCT1ZVG3SE0W1U2FRYG917NPUBU","A227W90ZO5I9RZ","3H6W48L9F4B5OEOMH57RM53Z4H1WP0","","null","<img src=""img/animal1.png"" style=""width:200px; border:14px solid green;"">","null","","","","","",""
"","image-keyboard-response","110","156150","0.0-110.0","3RANCT1ZVG3SE0W1U2FRYG917NPUBU","A227W90ZO5I9RZ","3H6W48L9F4B5OEOMH57RM53Z4H1WP0","","556.5999999642372","img/animal1.png","74","557.7999999523163","1","1","2","1,0.5,0,1,0,0.5,0.5,0,1",""
"","html-keyboard-response","111","156466","0.0-111.0","3RANCT1ZVG3SE0W1U2FRYG917NPUBU","A227W90ZO5I9RZ","3H6W48L9F4B5OEOMH57RM53Z4H1WP0","","null","<img src=""img/animal1.png"" style=""width:200px; border:14px solid green;"">","null","","","","","",""
"","image-keyboard-response","112","157117","0.0-112.0","3RANCT1ZVG3SE0W1U2FRYG917NPUBU","A227W90ZO5I9RZ","3H6W48L9F4B5OEOMH57RM53Z4H1WP0","","649.5","img/animal5.png","74","650.7000000476837","1","1","3","1,0.5,0,1,0,0.5,0.5,0,1",""
"","html-keyboard-response","113","157421","0.0-113.0","3RANCT1ZVG3SE0W1U2FRYG917NPUBU","A227W90ZO5I9RZ","3H6W48L9F4B5OEOMH57RM53Z4H1WP0","","null","<img src=""img/animal5.png"" style=""width:200px; border:14px solid green;"">","null","","","","","",""
"","image-keyboard-response","114","157928","0.0-114.0","3RANCT1ZVG3SE0W1U2FRYG917NPUBU","A227W90ZO5I9RZ","3H6W48L9F4B5OEOMH57RM53Z4H1WP0","","505","img/animal1.png","74","506.2999999523163","1","1","2","1,0.5,0,1,0,0.5,0.5,0,1",""
"","html-keyboard-response","115","158232","0.0-115.0","3RANCT1ZVG3SE0W1U2FRYG917NPUBU","A227W90ZO5I9RZ","3H6W48L9F4B5OEOMH57RM53Z4H1WP0","","null","<img src=""img/animal1.png"" style=""width:200px; border:14px solid green;"">","null","","","","","",""
"","image-keyboard-response","116","158782","0.0-116.0","3RANCT1ZVG3SE0W1U2FRYG917NPUBU","A227W90ZO5I9RZ","3H6W48L9F4B5OEOMH57RM53Z4H1WP0","","548.6000000238419","img/animal3.png","74","550","1","1","1","1,0.5,0,1,0,0.5,0.5,0,1",""
"","html-keyboard-response","117","159088","0.0-117.0","3RANCT1ZVG3SE0W1U2FRYG917NPUBU","A227W90ZO5I9RZ","3H6W48L9F4B5OEOMH57RM53Z4H1WP0","","null","<img src=""img/animal3.png"" style=""width:200px; border:14px solid green;"">","null","","","","","",""
"","image-keyboard-response","118","159596","0.0-118.0","3RANCT1ZVG3SE0W1U2FRYG917NPUBU","A227W90ZO5I9RZ","3H6W48L9F4B5OEOMH57RM53Z4H1WP0","","507","img/animal1.png","74","507.89999997615814","1","1","2","1,0.5,0,1,0,0.5,0.5,0,1",""
"","html-keyboard-response","119","159903","0.0-119.0","3RANCT1ZVG3SE0W1U2FRYG917NPUBU","A227W90ZO5I9RZ","3H6W48L9F4B5OEOMH57RM53Z4H1WP0","","null","<img src=""img/animal1.png"" style=""width:200px; border:14px solid green;"">","null","","","","","",""
"","image-keyboard-response","120","160687","0.0-120.0","3RANCT1ZVG3SE0W1U2FRYG917NPUBU","A227W90ZO5I9RZ","3H6W48L9F4B5OEOMH57RM53Z4H1WP0","","782.3999999761581","img/animal5.png","74","783.6000000238419","1","0","3","1,0.5,0,1,0,0.5,0.5,0,1",""
"","html-keyboard-response","121","160995","0.0-121.0","3RANCT1ZVG3SE0W1U2FRYG917NPUBU","A227W90ZO5I9RZ","3H6W48L9F4B5OEOMH57RM53Z4H1WP0","","null","<img src=""img/animal5.png"" style=""width:200px;border:14px solid red;"">","null","","","","","",""
"","image-keyboard-response","122","161576","0.0-122.0","3RANCT1ZVG3SE0W1U2FRYG917NPUBU","A227W90ZO5I9RZ","3H6W48L9F4B5OEOMH57RM53Z4H1WP0","","579.5","img/animal5.png","76","580.8000000119209","3","1","3","1,0.5,0,1,0,0.5,0.5,0,1",""
"","html-keyboard-response","123","161884","0.0-123.0","3RANCT1ZVG3SE0W1U2FRYG917NPUBU","A227W90ZO5I9RZ","3H6W48L9F4B5OEOMH57RM53Z4H1WP0","","null","<img src=""img/animal5.png"" style=""width:200px; border:14px solid green;"">","null","","","","","",""
"","image-keyboard-response","124","163412","0.0-124.0","3RANCT1ZVG3SE0W1U2FRYG917NPUBU","A227W90ZO5I9RZ","3H6W48L9F4B5OEOMH57RM53Z4H1WP0","","1527.5","img/animal1.png","74","1528.5999999642372","1","1","2","1,0.5,0,1,0,0.5,0.5,0,1",""
"","html-keyboard-response","125","163717","0.0-125.0","3RANCT1ZVG3SE0W1U2FRYG917NPUBU","A227W90ZO5I9RZ","3H6W48L9F4B5OEOMH57RM53Z4H1WP0","","null","<img src=""img/animal1.png"" style=""width:200px; border:14px solid green;"">","null","","","","","",""
"","image-keyboard-response","126","164428","0.0-126.0","3RANCT1ZVG3SE0W1U2FRYG917NPUBU","A227W90ZO5I9RZ","3H6W48L9F4B5OEOMH57RM53Z4H1WP0","","709","img/animal3.png","74","710.1999999880791","1","1","1","1,0.5,0,1,0,0.5,0.5,0,1",""
"","html-keyboard-response","127","164733","0.0-127.0","3RANCT1ZVG3SE0W1U2FRYG917NPUBU","A227W90ZO5I9RZ","3H6W48L9F4B5OEOMH57RM53Z4H1WP0","","null","<img src=""img/animal3.png"" style=""width:200px; border:14px solid green;"">","null","","","","","",""
"","image-keyboard-response","128","165378","0.0-128.0","3RANCT1ZVG3SE0W1U2FRYG917NPUBU","A227W90ZO5I9RZ","3H6W48L9F4B5OEOMH57RM53Z4H1WP0","","643.5999999642372","img/animal3.png","74","644.7000000476837","1","1","1","1,0.5,0,1,0,0.5,0.5,0,1",""
"","html-keyboard-response","129","165683","0.0-129.0","3RANCT1ZVG3SE0W1U2FRYG917NPUBU","A227W90ZO5I9RZ","3H6W48L9F4B5OEOMH57RM53Z4H1WP0","","null","<img src=""img/animal3.png"" style=""width:200px; border:14px solid green;"">","null","","","","","",""
"","image-keyboard-response","130","166235","0.0-130.0","3RANCT1ZVG3SE0W1U2FRYG917NPUBU","A227W90ZO5I9RZ","3H6W48L9F4B5OEOMH57RM53Z4H1WP0","","551.3000000119209","img/animal3.png","74","552.3999999761581","1","1","1","1,0.5,0,1,0,0.5,0.5,0,1",""
"","html-keyboard-response","131","166545","0.0-131.0","3RANCT1ZVG3SE0W1U2FRYG917NPUBU","A227W90ZO5I9RZ","3H6W48L9F4B5OEOMH57RM53Z4H1WP0","","null","<img src=""img/animal3.png"" style=""width:200px; border:14px solid green;"">","null","","","","","",""
"","image-keyboard-response","132","167387","0.0-132.0","3RANCT1ZVG3SE0W1U2FRYG917NPUBU","A227W90ZO5I9RZ","3H6W48L9F4B5OEOMH57RM53Z4H1WP0","","840.3000000119209","img/animal5.png","76","841.6000000238419","3","1","3","1,0.5,0,1,0,0.5,0.5,0,1",""
"","html-keyboard-response","133","167696","0.0-133.0","3RANCT1ZVG3SE0W1U2FRYG917NPUBU","A227W90ZO5I9RZ","3H6W48L9F4B5OEOMH57RM53Z4H1WP0","","null","<img src=""img/animal5.png"" style=""width:200px; border:14px solid green;"">","null","","","","","",""
"","image-keyboard-response","134","168311","0.0-134.0","3RANCT1ZVG3SE0W1U2FRYG917NPUBU","A227W90ZO5I9RZ","3H6W48L9F4B5OEOMH57RM53Z4H1WP0","","613.7999999523163","img/animal5.png","76","614.8000000119209","3","1","3","1,0.5,0,1,0,0.5,0.5,0,1",""
"","html-keyboard-response","135","168615","0.0-135.0","3RANCT1ZVG3SE0W1U2FRYG917NPUBU","A227W90ZO5I9RZ","3H6W48L9F4B5OEOMH57RM53Z4H1WP0","","null","<img src=""img/animal5.png"" style=""width:200px; border:14px solid green;"">","null","","","","","",""
"","image-keyboard-response","136","169329","0.0-136.0","3RANCT1ZVG3SE0W1U2FRYG917NPUBU","A227W90ZO5I9RZ","3H6W48L9F4B5OEOMH57RM53Z4H1WP0","","712.5999999642372","img/animal3.png","74","713.8000000119209","1","1","1","1,0.5,0,1,0,0.5,0.5,0,1",""
"","html-keyboard-response","137","169638","0.0-137.0","3RANCT1ZVG3SE0W1U2FRYG917NPUBU","A227W90ZO5I9RZ","3H6W48L9F4B5OEOMH57RM53Z4H1WP0","","null","<img src=""img/animal3.png"" style=""width:200px; border:14px solid green;"">","null","","","","","",""
"","image-keyboard-response","138","170269","0.0-138.0","3RANCT1ZVG3SE0W1U2FRYG917NPUBU","A227W90ZO5I9RZ","3H6W48L9F4B5OEOMH57RM53Z4H1WP0","","629.3000000119209","img/animal3.png","74","630.7999999523163","1","1","1","1,0.5,0,1,0,0.5,0.5,0,1",""
"","html-keyboard-response","139","170576","0.0-139.0","3RANCT1ZVG3SE0W1U2FRYG917NPUBU","A227W90ZO5I9RZ","3H6W48L9F4B5OEOMH57RM53Z4H1WP0","","null","<img src=""img/animal3.png"" style=""width:200px; border:14px solid green;"">","null","","","","","",""
"","image-keyboard-response","140","171061","0.0-140.0","3RANCT1ZVG3SE0W1U2FRYG917NPUBU","A227W90ZO5I9RZ","3H6W48L9F4B5OEOMH57RM53Z4H1WP0","","483.39999997615814","img/animal3.png","74","484.60000002384186","1","1","1","1,0.5,0,1,0,0.5,0.5,0,1",""
"","html-keyboard-response","141","171371","0.0-141.0","3RANCT1ZVG3SE0W1U2FRYG917NPUBU","A227W90ZO5I9RZ","3H6W48L9F4B5OEOMH57RM53Z4H1WP0","","null","<img src=""img/animal3.png"" style=""width:200px; border:14px solid green;"">","null","","","","","",""
"","image-keyboard-response","142","172156","0.0-142.0","3RANCT1ZVG3SE0W1U2FRYG917NPUBU","A227W90ZO5I9RZ","3H6W48L9F4B5OEOMH57RM53Z4H1WP0","","783.9000000357628","img/animal5.png","76","785.1000000238419","3","1","3","1,0.5,0,1,0,0.5,0.5,0,1",""
"","html-keyboard-response","143","172465","0.0-143.0","3RANCT1ZVG3SE0W1U2FRYG917NPUBU","A227W90ZO5I9RZ","3H6W48L9F4B5OEOMH57RM53Z4H1WP0","","null","<img src=""img/animal5.png"" style=""width:200px; border:14px solid green;"">","null","","","","","",""
"","image-keyboard-response","144","172975","0.0-144.0","3RANCT1ZVG3SE0W1U2FRYG917NPUBU","A227W90ZO5I9RZ","3H6W48L9F4B5OEOMH57RM53Z4H1WP0","","508.10000002384186","img/animal5.png","76","509.10000002384186","3","1","3","1,0.5,0,1,0,0.5,0.5,0,1",""
"","html-keyboard-response","145","173278","0.0-145.0","3RANCT1ZVG3SE0W1U2FRYG917NPUBU","A227W90ZO5I9RZ","3H6W48L9F4B5OEOMH57RM53Z4H1WP0","","null","<img src=""img/animal5.png"" style=""width:200px; border:14px solid green;"">","null","","","","","",""
"","image-keyboard-response","146","174269","0.0-146.0","3RANCT1ZVG3SE0W1U2FRYG917NPUBU","A227W90ZO5I9RZ","3H6W48L9F4B5OEOMH57RM53Z4H1WP0","","989.1999999880791","img/animal1.png","74","990.3000000119209","1","1","2","1,0.5,0,1,0,0.5,0.5,0,1",""
"","html-keyboard-response","147","174571","0.0-147.0","3RANCT1ZVG3SE0W1U2FRYG917NPUBU","A227W90ZO5I9RZ","3H6W48L9F4B5OEOMH57RM53Z4H1WP0","","null","<img src=""img/animal1.png"" style=""width:200px; border:14px solid green;"">","null","","","","","",""
"","image-keyboard-response","148","176256","0.0-148.0","3RANCT1ZVG3SE0W1U2FRYG917NPUBU","A227W90ZO5I9RZ","3H6W48L9F4B5OEOMH57RM53Z4H1WP0","","1683.6000000238419","img/animal5.png","76","1684.8999999761581","3","1","3","1,0.5,0,1,0,0.5,0.5,0,1",""
"","html-keyboard-response","149","176564","0.0-149.0","3RANCT1ZVG3SE0W1U2FRYG917NPUBU","A227W90ZO5I9RZ","3H6W48L9F4B5OEOMH57RM53Z4H1WP0","","null","<img src=""img/animal5.png"" style=""width:200px; border:14px solid green;"">","null","","","","","",""
"","image-keyboard-response","150","177194","0.0-150.0","3RANCT1ZVG3SE0W1U2FRYG917NPUBU","A227W90ZO5I9RZ","3H6W48L9F4B5OEOMH57RM53Z4H1WP0","","628.4000000357628","img/animal5.png","76","629.6000000238419","3","1","3","1,0.5,0,1,0,0.5,0.5,0,1",""
"","html-keyboard-response","151","177500","0.0-151.0","3RANCT1ZVG3SE0W1U2FRYG917NPUBU","A227W90ZO5I9RZ","3H6W48L9F4B5OEOMH57RM53Z4H1WP0","","null","<img src=""img/animal5.png"" style=""width:200px; border:14px solid green;"">","null","","","","","",""
"","image-keyboard-response","152","178256","0.0-152.0","3RANCT1ZVG3SE0W1U2FRYG917NPUBU","A227W90ZO5I9RZ","3H6W48L9F4B5OEOMH57RM53Z4H1WP0","","754.6000000238419","img/animal3.png","74","755.6000000238419","1","1","1","1,0.5,0,1,0,0.5,0.5,0,1",""
"","html-keyboard-response","153","178554","0.0-153.0","3RANCT1ZVG3SE0W1U2FRYG917NPUBU","A227W90ZO5I9RZ","3H6W48L9F4B5OEOMH57RM53Z4H1WP0","","null","<img src=""img/animal3.png"" style=""width:200px; border:14px solid green;"">","null","","","","","",""
"","image-keyboard-response","154","180157","0.0-154.0","3RANCT1ZVG3SE0W1U2FRYG917NPUBU","A227W90ZO5I9RZ","3H6W48L9F4B5OEOMH57RM53Z4H1WP0","","1601.3999999761581","img/animal5.png","76","1602.6000000238419","3","1","3","1,0.5,0,1,0,0.5,0.5,0,1",""
"","html-keyboard-response","155","180465","0.0-155.0","3RANCT1ZVG3SE0W1U2FRYG917NPUBU","A227W90ZO5I9RZ","3H6W48L9F4B5OEOMH57RM53Z4H1WP0","","null","<img src=""img/animal5.png"" style=""width:200px; border:14px solid green;"">","null","","","","","",""
"","image-keyboard-response","156","181107","0.0-156.0","3RANCT1ZVG3SE0W1U2FRYG917NPUBU","A227W90ZO5I9RZ","3H6W48L9F4B5OEOMH57RM53Z4H1WP0","","640.5999999642372","img/animal3.png","74","641.6999999880791","1","1","1","1,0.5,0,1,0,0.5,0.5,0,1",""
"","html-keyboard-response","157","181410","0.0-157.0","3RANCT1ZVG3SE0W1U2FRYG917NPUBU","A227W90ZO5I9RZ","3H6W48L9F4B5OEOMH57RM53Z4H1WP0","","null","<img src=""img/animal3.png"" style=""width:200px; border:14px solid green;"">","null","","","","","",""
"","image-keyboard-response","158","182067","0.0-158.0","3RANCT1ZVG3SE0W1U2FRYG917NPUBU","A227W90ZO5I9RZ","3H6W48L9F4B5OEOMH57RM53Z4H1WP0","","656.3000000119209","img/animal3.png","74","657.5","1","1","1","1,0.5,0,1,0,0.5,0.5,0,1",""
"","html-keyboard-response","159","182375","0.0-159.0","3RANCT1ZVG3SE0W1U2FRYG917NPUBU","A227W90ZO5I9RZ","3H6W48L9F4B5OEOMH57RM53Z4H1WP0","","null","<img src=""img/animal3.png"" style=""width:200px; border:14px solid green;"">","null","","","","","",""
"","image-keyboard-response","160","183123","0.0-160.0","3RANCT1ZVG3SE0W1U2FRYG917NPUBU","A227W90ZO5I9RZ","3H6W48L9F4B5OEOMH57RM53Z4H1WP0","","746.3000000119209","img/animal1.png","76","747.6999999880791","3","0","2","1,0.5,0,1,0,0.5,0.5,0,1",""
"","html-keyboard-response","161","183426","0.0-161.0","3RANCT1ZVG3SE0W1U2FRYG917NPUBU","A227W90ZO5I9RZ","3H6W48L9F4B5OEOMH57RM53Z4H1WP0","","null","<img src=""img/animal1.png"" style=""width:200px;border:14px solid red;"">","null","","","","","",""
"","image-keyboard-response","162","183846","0.0-162.0","3RANCT1ZVG3SE0W1U2FRYG917NPUBU","A227W90ZO5I9RZ","3H6W48L9F4B5OEOMH57RM53Z4H1WP0","","419.5","img/animal1.png","74","420.5","1","1","2","1,0.5,0,1,0,0.5,0.5,0,1",""
"","html-keyboard-response","163","184154","0.0-163.0","3RANCT1ZVG3SE0W1U2FRYG917NPUBU","A227W90ZO5I9RZ","3H6W48L9F4B5OEOMH57RM53Z4H1WP0","","null","<img src=""img/animal1.png"" style=""width:200px; border:14px solid green;"">","null","","","","","",""
"","image-keyboard-response","164","184589","0.0-164.0","3RANCT1ZVG3SE0W1U2FRYG917NPUBU","A227W90ZO5I9RZ","3H6W48L9F4B5OEOMH57RM53Z4H1WP0","","433.0999999642372","img/animal1.png","74","434.60000002384186","1","1","2","1,0.5,0,1,0,0.5,0.5,0,1",""
"","html-keyboard-response","165","184900","0.0-165.0","3RANCT1ZVG3SE0W1U2FRYG917NPUBU","A227W90ZO5I9RZ","3H6W48L9F4B5OEOMH57RM53Z4H1WP0","","null","<img src=""img/animal1.png"" style=""width:200px; border:14px solid green;"">","null","","","","","",""
"","image-keyboard-response","166","186164","0.0-166.0","3RANCT1ZVG3SE0W1U2FRYG917NPUBU","A227W90ZO5I9RZ","3H6W48L9F4B5OEOMH57RM53Z4H1WP0","","1261.8999999761581","img/animal5.png","76","1263.1000000238419","3","1","3","1,0.5,0,1,0,0.5,0.5,0,1",""
"","html-keyboard-response","167","186467","0.0-167.0","3RANCT1ZVG3SE0W1U2FRYG917NPUBU","A227W90ZO5I9RZ","3H6W48L9F4B5OEOMH57RM53Z4H1WP0","","null","<img src=""img/animal5.png"" style=""width:200px; border:14px solid green;"">","null","","","","","",""
"","image-keyboard-response","168","187225","0.0-168.0","3RANCT1ZVG3SE0W1U2FRYG917NPUBU","A227W90ZO5I9RZ","3H6W48L9F4B5OEOMH57RM53Z4H1WP0","","756.3000000119209","img/animal3.png","74","757.4000000357628","1","1","1","1,0.5,0,1,0,0.5,0.5,0,1",""
"","html-keyboard-response","169","187533","0.0-169.0","3RANCT1ZVG3SE0W1U2FRYG917NPUBU","A227W90ZO5I9RZ","3H6W48L9F4B5OEOMH57RM53Z4H1WP0","","null","<img src=""img/animal3.png"" style=""width:200px; border:14px solid green;"">","null","","","","","",""
"","image-keyboard-response","170","188898","0.0-170.0","3RANCT1ZVG3SE0W1U2FRYG917NPUBU","A227W90ZO5I9RZ","3H6W48L9F4B5OEOMH57RM53Z4H1WP0","","1363.5","img/animal5.png","76","1364.699999988079","3","1","3","1,0.5,0,1,0,0.5,0.5,0,1",""
"","html-keyboard-response","171","189204","0.0-171.0","3RANCT1ZVG3SE0W1U2FRYG917NPUBU","A227W90ZO5I9RZ","3H6W48L9F4B5OEOMH57RM53Z4H1WP0","","null","<img src=""img/animal5.png"" style=""width:200px; border:14px solid green;"">","null","","","","","",""
"","image-keyboard-response","172","190458","0.0-172.0","3RANCT1ZVG3SE0W1U2FRYG917NPUBU","A227W90ZO5I9RZ","3H6W48L9F4B5OEOMH57RM53Z4H1WP0","","1253.2999999523163","img/animal1.png","74","1254.300000011921","1","1","2","1,0.5,0,1,0,0.5,0.5,0,1",""
"","html-keyboard-response","173","190774","0.0-173.0","3RANCT1ZVG3SE0W1U2FRYG917NPUBU","A227W90ZO5I9RZ","3H6W48L9F4B5OEOMH57RM53Z4H1WP0","","null","<img src=""img/animal1.png"" style=""width:200px; border:14px solid green;"">","null","","","","","",""
"","image-keyboard-response","174","191178","0.0-174.0","3RANCT1ZVG3SE0W1U2FRYG917NPUBU","A227W90ZO5I9RZ","3H6W48L9F4B5OEOMH57RM53Z4H1WP0","","401.4000000357628","img/animal1.png","74","402.69999998807907","1","1","2","1,0.5,0,1,0,0.5,0.5,0,1",""
"","html-keyboard-response","175","191482","0.0-175.0","3RANCT1ZVG3SE0W1U2FRYG917NPUBU","A227W90ZO5I9RZ","3H6W48L9F4B5OEOMH57RM53Z4H1WP0","","null","<img src=""img/animal1.png"" style=""width:200px; border:14px solid green;"">","null","","","","","",""
"","image-keyboard-response","176","192086","0.0-176.0","3RANCT1ZVG3SE0W1U2FRYG917NPUBU","A227W90ZO5I9RZ","3H6W48L9F4B5OEOMH57RM53Z4H1WP0","","602.6999999880791","img/animal5.png","76","604.0999999642372","3","1","3","1,0.5,0,1,0,0.5,0.5,0,1",""
"","html-keyboard-response","177","192402","0.0-177.0","3RANCT1ZVG3SE0W1U2FRYG917NPUBU","A227W90ZO5I9RZ","3H6W48L9F4B5OEOMH57RM53Z4H1WP0","","null","<img src=""img/animal5.png"" style=""width:200px; border:14px solid green;"">","null","","","","","",""
"","image-keyboard-response","178","193197","0.0-178.0","3RANCT1ZVG3SE0W1U2FRYG917NPUBU","A227W90ZO5I9RZ","3H6W48L9F4B5OEOMH57RM53Z4H1WP0","","794.4000000357628","img/animal5.png","76","795.5999999642372","3","1","3","1,0.5,0,1,0,0.5,0.5,0,1",""
"","html-keyboard-response","179","193500","0.0-179.0","3RANCT1ZVG3SE0W1U2FRYG917NPUBU","A227W90ZO5I9RZ","3H6W48L9F4B5OEOMH57RM53Z4H1WP0","","null","<img src=""img/animal5.png"" style=""width:200px; border:14px solid green;"">","null","","","","","",""
"","image-keyboard-response","180","194399","0.0-180.0","3RANCT1ZVG3SE0W1U2FRYG917NPUBU","A227W90ZO5I9RZ","3H6W48L9F4B5OEOMH57RM53Z4H1WP0","","898","img/animal1.png","74","899.0999999642372","1","1","2","1,0.5,0,1,0,0.5,0.5,0,1",""
"","html-keyboard-response","181","194711","0.0-181.0","3RANCT1ZVG3SE0W1U2FRYG917NPUBU","A227W90ZO5I9RZ","3H6W48L9F4B5OEOMH57RM53Z4H1WP0","","null","<img src=""img/animal1.png"" style=""width:200px; border:14px solid green;"">","null","","","","","",""
"","html-keyboard-response","182","198428","0.0-182.0","3RANCT1ZVG3SE0W1U2FRYG917NPUBU","A227W90ZO5I9RZ","3H6W48L9F4B5OEOMH57RM53Z4H1WP0","","","","","","","","","",""
"","image-keyboard-response","183","202993","0.0-183.0","3RANCT1ZVG3SE0W1U2FRYG917NPUBU","A227W90ZO5I9RZ","3H6W48L9F4B5OEOMH57RM53Z4H1WP0","","4564","img/animal4.png","74","4564.900000035763","1","0","3","1,0.5,0,0,1,0.5,0.5,0,1",""
"","html-keyboard-response","184","203296","0.0-184.0","3RANCT1ZVG3SE0W1U2FRYG917NPUBU","A227W90ZO5I9RZ","3H6W48L9F4B5OEOMH57RM53Z4H1WP0","","null","<img src=""img/animal4.png"" style=""width:200px;border:14px solid red;"">","null","","","","","",""
"","image-keyboard-response","185","203690","0.0-185.0","3RANCT1ZVG3SE0W1U2FRYG917NPUBU","A227W90ZO5I9RZ","3H6W48L9F4B5OEOMH57RM53Z4H1WP0","","393","img/animal4.png","76","394.30000001192093","3","1","3","1,0.5,0,0,1,0.5,0.5,0,1",""
"","html-keyboard-response","186","203998","0.0-186.0","3RANCT1ZVG3SE0W1U2FRYG917NPUBU","A227W90ZO5I9RZ","3H6W48L9F4B5OEOMH57RM53Z4H1WP0","","null","<img src=""img/animal4.png"" style=""width:200px; border:14px solid green;"">","null","","","","","",""
"","image-keyboard-response","187","204679","0.0-187.0","3RANCT1ZVG3SE0W1U2FRYG917NPUBU","A227W90ZO5I9RZ","3H6W48L9F4B5OEOMH57RM53Z4H1WP0","","679.6000000238419","img/animal4.png","76","680.8999999761581","3","1","3","1,0.5,0,0,1,0.5,0.5,0,1",""
"","html-keyboard-response","188","204982","0.0-188.0","3RANCT1ZVG3SE0W1U2FRYG917NPUBU","A227W90ZO5I9RZ","3H6W48L9F4B5OEOMH57RM53Z4H1WP0","","null","<img src=""img/animal4.png"" style=""width:200px; border:14px solid green;"">","null","","","","","",""
"","image-keyboard-response","189","210878","0.0-189.0","3RANCT1ZVG3SE0W1U2FRYG917NPUBU","A227W90ZO5I9RZ","3H6W48L9F4B5OEOMH57RM53Z4H1WP0","","5893.700000047684","img/animal6.png","74","5894.899999976158","1","0","2","1,0.5,0,0,1,0.5,0.5,0,1",""
"","html-keyboard-response","190","211190","0.0-190.0","3RANCT1ZVG3SE0W1U2FRYG917NPUBU","A227W90ZO5I9RZ","3H6W48L9F4B5OEOMH57RM53Z4H1WP0","","null","<img src=""img/animal6.png"" style=""width:200px;border:14px solid red;"">","null","","","","","",""
"","image-keyboard-response","191","211443","0.0-191.0","3RANCT1ZVG3SE0W1U2FRYG917NPUBU","A227W90ZO5I9RZ","3H6W48L9F4B5OEOMH57RM53Z4H1WP0","","251.5","img/animal2.png","76","252.80000001192093","3","0","1","1,0.5,0,0,1,0.5,0.5,0,1",""
"","html-keyboard-response","192","211751","0.0-192.0","3RANCT1ZVG3SE0W1U2FRYG917NPUBU","A227W90ZO5I9RZ","3H6W48L9F4B5OEOMH57RM53Z4H1WP0","","null","<img src=""img/animal2.png"" style=""width:200px;border:14px solid red;"">","null","","","","","",""
"","image-keyboard-response","193","212458","0.0-193.0","3RANCT1ZVG3SE0W1U2FRYG917NPUBU","A227W90ZO5I9RZ","3H6W48L9F4B5OEOMH57RM53Z4H1WP0","","705.3000000119209","img/animal4.png","76","706.6999999880791","3","1","3","1,0.5,0,0,1,0.5,0.5,0,1",""
"","html-keyboard-response","194","212763","0.0-194.0","3RANCT1ZVG3SE0W1U2FRYG917NPUBU","A227W90ZO5I9RZ","3H6W48L9F4B5OEOMH57RM53Z4H1WP0","","null","<img src=""img/animal4.png"" style=""width:200px; border:14px solid green;"">","null","","","","","",""
"","image-keyboard-response","195","213515","0.0-195.0","3RANCT1ZVG3SE0W1U2FRYG917NPUBU","A227W90ZO5I9RZ","3H6W48L9F4B5OEOMH57RM53Z4H1WP0","","750","img/animal6.png","76","751.1999999880791","3","1","2","1,0.5,0,0,1,0.5,0.5,0,1",""
"","html-keyboard-response","196","213824","0.0-196.0","3RANCT1ZVG3SE0W1U2FRYG917NPUBU","A227W90ZO5I9RZ","3H6W48L9F4B5OEOMH57RM53Z4H1WP0","","null","<img src=""img/animal6.png"" style=""width:200px; border:14px solid green;"">","null","","","","","",""
"","image-keyboard-response","197","214219","0.0-197.0","3RANCT1ZVG3SE0W1U2FRYG917NPUBU","A227W90ZO5I9RZ","3H6W48L9F4B5OEOMH57RM53Z4H1WP0","","392.5","img/animal6.png","76","394","3","1","2","1,0.5,0,0,1,0.5,0.5,0,1",""
"","html-keyboard-response","198","214531","0.0-198.0","3RANCT1ZVG3SE0W1U2FRYG917NPUBU","A227W90ZO5I9RZ","3H6W48L9F4B5OEOMH57RM53Z4H1WP0","","null","<img src=""img/animal6.png"" style=""width:200px; border:14px solid green;"">","null","","","","","",""
"","image-keyboard-response","199","214990","0.0-199.0","3RANCT1ZVG3SE0W1U2FRYG917NPUBU","A227W90ZO5I9RZ","3H6W48L9F4B5OEOMH57RM53Z4H1WP0","","458.60000002384186","img/animal6.png","76","459.80000001192093","3","0","2","1,0.5,0,0,1,0.5,0.5,0,1",""
"","html-keyboard-response","200","215296","0.0-200.0","3RANCT1ZVG3SE0W1U2FRYG917NPUBU","A227W90ZO5I9RZ","3H6W48L9F4B5OEOMH57RM53Z4H1WP0","","null","<img src=""img/animal6.png"" style=""width:200px;border:14px solid red;"">","null","","","","","",""
"","image-keyboard-response","201","216608","0.0-201.0","3RANCT1ZVG3SE0W1U2FRYG917NPUBU","A227W90ZO5I9RZ","3H6W48L9F4B5OEOMH57RM53Z4H1WP0","","1310.5999999642372","img/animal2.png","75","1312","2","0","1","1,0.5,0,0,1,0.5,0.5,0,1",""
"","html-keyboard-response","202","216916","0.0-202.0","3RANCT1ZVG3SE0W1U2FRYG917NPUBU","A227W90ZO5I9RZ","3H6W48L9F4B5OEOMH57RM53Z4H1WP0","","null","<img src=""img/animal2.png"" style=""width:200px;border:14px solid red;"">","null","","","","","",""
"","image-keyboard-response","203","217488","0.0-203.0","3RANCT1ZVG3SE0W1U2FRYG917NPUBU","A227W90ZO5I9RZ","3H6W48L9F4B5OEOMH57RM53Z4H1WP0","","569.9000000357628","img/animal2.png","74","571.2000000476837","1","1","1","1,0.5,0,0,1,0.5,0.5,0,1",""
"","html-keyboard-response","204","217793","0.0-204.0","3RANCT1ZVG3SE0W1U2FRYG917NPUBU","A227W90ZO5I9RZ","3H6W48L9F4B5OEOMH57RM53Z4H1WP0","","null","<img src=""img/animal2.png"" style=""width:200px; border:14px solid green;"">","null","","","","","",""
"","image-keyboard-response","205","219937","0.0-205.0","3RANCT1ZVG3SE0W1U2FRYG917NPUBU","A227W90ZO5I9RZ","3H6W48L9F4B5OEOMH57RM53Z4H1WP0","","2142.800000011921","img/animal6.png","74","2144.099999964237","1","0","2","1,0.5,0,0,1,0.5,0.5,0,1",""
"","html-keyboard-response","206","220245","0.0-206.0","3RANCT1ZVG3SE0W1U2FRYG917NPUBU","A227W90ZO5I9RZ","3H6W48L9F4B5OEOMH57RM53Z4H1WP0","","null","<img src=""img/animal6.png"" style=""width:200px;border:14px solid red;"">","null","","","","","",""
"","image-keyboard-response","207","221757","0.0-207.0","3RANCT1ZVG3SE0W1U2FRYG917NPUBU","A227W90ZO5I9RZ","3H6W48L9F4B5OEOMH57RM53Z4H1WP0","","1510.7999999523163","img/animal4.png","76","1511.8999999761581","3","1","3","1,0.5,0,0,1,0.5,0.5,0,1",""
"","html-keyboard-response","208","222058","0.0-208.0","3RANCT1ZVG3SE0W1U2FRYG917NPUBU","A227W90ZO5I9RZ","3H6W48L9F4B5OEOMH57RM53Z4H1WP0","","null","<img src=""img/animal4.png"" style=""width:200px; border:14px solid green;"">","null","","","","","",""
"","image-keyboard-response","209","222744","0.0-209.0","3RANCT1ZVG3SE0W1U2FRYG917NPUBU","A227W90ZO5I9RZ","3H6W48L9F4B5OEOMH57RM53Z4H1WP0","","684.3000000119209","img/animal4.png","76","685.5","3","1","3","1,0.5,0,0,1,0.5,0.5,0,1",""
"","html-keyboard-response","210","223053","0.0-210.0","3RANCT1ZVG3SE0W1U2FRYG917NPUBU","A227W90ZO5I9RZ","3H6W48L9F4B5OEOMH57RM53Z4H1WP0","","null","<img src=""img/animal4.png"" style=""width:200px; border:14px solid green;"">","null","","","","","",""
"","image-keyboard-response","211","223938","0.0-211.0","3RANCT1ZVG3SE0W1U2FRYG917NPUBU","A227W90ZO5I9RZ","3H6W48L9F4B5OEOMH57RM53Z4H1WP0","","884","img/animal2.png","76","885.3000000119209","3","0","1","1,0.5,0,0,1,0.5,0.5,0,1",""
"","html-keyboard-response","212","224257","0.0-212.0","3RANCT1ZVG3SE0W1U2FRYG917NPUBU","A227W90ZO5I9RZ","3H6W48L9F4B5OEOMH57RM53Z4H1WP0","","null","<img src=""img/animal2.png"" style=""width:200px;border:14px solid red;"">","null","","","","","",""
"","image-keyboard-response","213","225716","0.0-213.0","3RANCT1ZVG3SE0W1U2FRYG917NPUBU","A227W90ZO5I9RZ","3H6W48L9F4B5OEOMH57RM53Z4H1WP0","","1457.3999999761581","img/animal6.png","74","1459.0999999642372","1","0","2","1,0.5,0,0,1,0.5,0.5,0,1",""
"","html-keyboard-response","214","226023","0.0-214.0","3RANCT1ZVG3SE0W1U2FRYG917NPUBU","A227W90ZO5I9RZ","3H6W48L9F4B5OEOMH57RM53Z4H1WP0","","null","<img src=""img/animal6.png"" style=""width:200px;border:14px solid red;"">","null","","","","","",""
"","image-keyboard-response","215","226557","0.0-215.0","3RANCT1ZVG3SE0W1U2FRYG917NPUBU","A227W90ZO5I9RZ","3H6W48L9F4B5OEOMH57RM53Z4H1WP0","","532.1999999880791","img/animal2.png","76","533.6000000238419","3","0","1","1,0.5,0,0,1,0.5,0.5,0,1",""
"","html-keyboard-response","216","226864","0.0-216.0","3RANCT1ZVG3SE0W1U2FRYG917NPUBU","A227W90ZO5I9RZ","3H6W48L9F4B5OEOMH57RM53Z4H1WP0","","null","<img src=""img/animal2.png"" style=""width:200px;border:14px solid red;"">","null","","","","","",""
"","image-keyboard-response","217","227661","0.0-217.0","3RANCT1ZVG3SE0W1U2FRYG917NPUBU","A227W90ZO5I9RZ","3H6W48L9F4B5OEOMH57RM53Z4H1WP0","","796.1999999880791","img/animal2.png","75","797.3000000119209","2","1","1","1,0.5,0,0,1,0.5,0.5,0,1",""
"","html-keyboard-response","218","227972","0.0-218.0","3RANCT1ZVG3SE0W1U2FRYG917NPUBU","A227W90ZO5I9RZ","3H6W48L9F4B5OEOMH57RM53Z4H1WP0","","null","<img src=""img/animal2.png"" style=""width:200px; border:14px solid green;"">","null","","","","","",""
"","image-keyboard-response","219","229096","0.0-219.0","3RANCT1ZVG3SE0W1U2FRYG917NPUBU","A227W90ZO5I9RZ","3H6W48L9F4B5OEOMH57RM53Z4H1WP0","","1123","img/animal6.png","75","1124.300000011921","2","1","2","1,0.5,0,0,1,0.5,0.5,0,1",""
"","html-keyboard-response","220","229399","0.0-220.0","3RANCT1ZVG3SE0W1U2FRYG917NPUBU","A227W90ZO5I9RZ","3H6W48L9F4B5OEOMH57RM53Z4H1WP0","","null","<img src=""img/animal6.png"" style=""width:200px; border:14px solid green;"">","null","","","","","",""
"","image-keyboard-response","221","229877","0.0-221.0","3RANCT1ZVG3SE0W1U2FRYG917NPUBU","A227W90ZO5I9RZ","3H6W48L9F4B5OEOMH57RM53Z4H1WP0","","476.69999998807907","img/animal6.png","75","478","2","1","2","1,0.5,0,0,1,0.5,0.5,0,1",""
"","html-keyboard-response","222","230187","0.0-222.0","3RANCT1ZVG3SE0W1U2FRYG917NPUBU","A227W90ZO5I9RZ","3H6W48L9F4B5OEOMH57RM53Z4H1WP0","","null","<img src=""img/animal6.png"" style=""width:200px; border:14px solid green;"">","null","","","","","",""
"","image-keyboard-response","223","231306","0.0-223.0","3RANCT1ZVG3SE0W1U2FRYG917NPUBU","A227W90ZO5I9RZ","3H6W48L9F4B5OEOMH57RM53Z4H1WP0","","1118.4000000357628","img/animal2.png","75","1119.5","2","1","1","1,0.5,0,0,1,0.5,0.5,0,1",""
"","html-keyboard-response","224","231609","0.0-224.0","3RANCT1ZVG3SE0W1U2FRYG917NPUBU","A227W90ZO5I9RZ","3H6W48L9F4B5OEOMH57RM53Z4H1WP0","","null","<img src=""img/animal2.png"" style=""width:200px; border:14px solid green;"">","null","","","","","",""
"","image-keyboard-response","225","234738","0.0-225.0","3RANCT1ZVG3SE0W1U2FRYG917NPUBU","A227W90ZO5I9RZ","3H6W48L9F4B5OEOMH57RM53Z4H1WP0","","3127.5","img/animal4.png","74","3128.5","1","1","3","1,0.5,0,0,1,0.5,0.5,0,1",""
"","html-keyboard-response","226","235040","0.0-226.0","3RANCT1ZVG3SE0W1U2FRYG917NPUBU","A227W90ZO5I9RZ","3H6W48L9F4B5OEOMH57RM53Z4H1WP0","","null","<img src=""img/animal4.png"" style=""width:200px; border:14px solid green;"">","null","","","","","",""
"","image-keyboard-response","227","236201","0.0-227.0","3RANCT1ZVG3SE0W1U2FRYG917NPUBU","A227W90ZO5I9RZ","3H6W48L9F4B5OEOMH57RM53Z4H1WP0","","1159.0999999642372","img/animal2.png","75","1160.300000011921","2","0","1","1,0.5,0,0,1,0.5,0.5,0,1",""
"","html-keyboard-response","228","236505","0.0-228.0","3RANCT1ZVG3SE0W1U2FRYG917NPUBU","A227W90ZO5I9RZ","3H6W48L9F4B5OEOMH57RM53Z4H1WP0","","null","<img src=""img/animal2.png"" style=""width:200px;border:14px solid red;"">","null","","","","","",""
"","image-keyboard-response","229","237550","0.0-229.0","3RANCT1ZVG3SE0W1U2FRYG917NPUBU","A227W90ZO5I9RZ","3H6W48L9F4B5OEOMH57RM53Z4H1WP0","","1043.800000011921","img/animal6.png","76","1045","3","0","2","1,0.5,0,0,1,0.5,0.5,0,1",""
"","html-keyboard-response","230","237856","0.0-230.0","3RANCT1ZVG3SE0W1U2FRYG917NPUBU","A227W90ZO5I9RZ","3H6W48L9F4B5OEOMH57RM53Z4H1WP0","","null","<img src=""img/animal6.png"" style=""width:200px;border:14px solid red;"">","null","","","","","",""
"","image-keyboard-response","231","238720","0.0-231.0","3RANCT1ZVG3SE0W1U2FRYG917NPUBU","A227W90ZO5I9RZ","3H6W48L9F4B5OEOMH57RM53Z4H1WP0","","861.3000000119209","img/animal4.png","74","862.4000000357628","1","0","3","1,0.5,0,0,1,0.5,0.5,0,1",""
"","html-keyboard-response","232","239036","0.0-232.0","3RANCT1ZVG3SE0W1U2FRYG917NPUBU","A227W90ZO5I9RZ","3H6W48L9F4B5OEOMH57RM53Z4H1WP0","","null","<img src=""img/animal4.png"" style=""width:200px;border:14px solid red;"">","null","","","","","",""
"","image-keyboard-response","233","240197","0.0-233.0","3RANCT1ZVG3SE0W1U2FRYG917NPUBU","A227W90ZO5I9RZ","3H6W48L9F4B5OEOMH57RM53Z4H1WP0","","1159","img/animal2.png","75","1160.199999988079","2","0","1","1,0.5,0,0,1,0.5,0.5,0,1",""
"","html-keyboard-response","234","240504","0.0-234.0","3RANCT1ZVG3SE0W1U2FRYG917NPUBU","A227W90ZO5I9RZ","3H6W48L9F4B5OEOMH57RM53Z4H1WP0","","null","<img src=""img/animal2.png"" style=""width:200px;border:14px solid red;"">","null","","","","","",""
"","image-keyboard-response","235","241076","0.0-235.0","3RANCT1ZVG3SE0W1U2FRYG917NPUBU","A227W90ZO5I9RZ","3H6W48L9F4B5OEOMH57RM53Z4H1WP0","","571","img/animal6.png","74","572.0999999642372","1","0","2","1,0.5,0,0,1,0.5,0.5,0,1",""
"","html-keyboard-response","236","241383","0.0-236.0","3RANCT1ZVG3SE0W1U2FRYG917NPUBU","A227W90ZO5I9RZ","3H6W48L9F4B5OEOMH57RM53Z4H1WP0","","null","<img src=""img/animal6.png"" style=""width:200px;border:14px solid red;"">","null","","","","","",""
"","image-keyboard-response","237","243601","0.0-237.0","3RANCT1ZVG3SE0W1U2FRYG917NPUBU","A227W90ZO5I9RZ","3H6W48L9F4B5OEOMH57RM53Z4H1WP0","","2216.199999988079","img/animal4.png","76","2217.399999976158","3","1","3","1,0.5,0,0,1,0.5,0.5,0,1",""
"","html-keyboard-response","238","243906","0.0-238.0","3RANCT1ZVG3SE0W1U2FRYG917NPUBU","A227W90ZO5I9RZ","3H6W48L9F4B5OEOMH57RM53Z4H1WP0","","null","<img src=""img/animal4.png"" style=""width:200px; border:14px solid green;"">","null","","","","","",""
"","image-keyboard-response","239","244385","0.0-239.0","3RANCT1ZVG3SE0W1U2FRYG917NPUBU","A227W90ZO5I9RZ","3H6W48L9F4B5OEOMH57RM53Z4H1WP0","","477.69999998807907","img/animal4.png","76","478.80000001192093","3","1","3","1,0.5,0,0,1,0.5,0.5,0,1",""
"","html-keyboard-response","240","244689","0.0-240.0","3RANCT1ZVG3SE0W1U2FRYG917NPUBU","A227W90ZO5I9RZ","3H6W48L9F4B5OEOMH57RM53Z4H1WP0","","null","<img src=""img/animal4.png"" style=""width:200px; border:14px solid green;"">","null","","","","","",""
"","image-keyboard-response","241","246140","0.0-241.0","3RANCT1ZVG3SE0W1U2FRYG917NPUBU","A227W90ZO5I9RZ","3H6W48L9F4B5OEOMH57RM53Z4H1WP0","","1450.0999999642372","img/animal2.png","76","1451.300000011921","3","0","1","1,0.5,0,0,1,0.5,0.5,0,1",""
"","html-keyboard-response","242","246444","0.0-242.0","3RANCT1ZVG3SE0W1U2FRYG917NPUBU","A227W90ZO5I9RZ","3H6W48L9F4B5OEOMH57RM53Z4H1WP0","","null","<img src=""img/animal2.png"" style=""width:200px;border:14px solid red;"">","null","","","","","",""
"","image-keyboard-response","243","247812","0.0-243.0","3RANCT1ZVG3SE0W1U2FRYG917NPUBU","A227W90ZO5I9RZ","3H6W48L9F4B5OEOMH57RM53Z4H1WP0","","1366.5999999642372","img/animal6.png","74","1368","1","0","2","1,0.5,0,0,1,0.5,0.5,0,1",""
"","html-keyboard-response","244","248118","0.0-244.0","3RANCT1ZVG3SE0W1U2FRYG917NPUBU","A227W90ZO5I9RZ","3H6W48L9F4B5OEOMH57RM53Z4H1WP0","","null","<img src=""img/animal6.png"" style=""width:200px;border:14px solid red;"">","null","","","","","",""
"","image-keyboard-response","245","248749","0.0-245.0","3RANCT1ZVG3SE0W1U2FRYG917NPUBU","A227W90ZO5I9RZ","3H6W48L9F4B5OEOMH57RM53Z4H1WP0","","628.9000000357628","img/animal2.png","75","630.1999999880791","2","0","1","1,0.5,0,0,1,0.5,0.5,0,1",""
"","html-keyboard-response","246","249058","0.0-246.0","3RANCT1ZVG3SE0W1U2FRYG917NPUBU","A227W90ZO5I9RZ","3H6W48L9F4B5OEOMH57RM53Z4H1WP0","","null","<img src=""img/animal2.png"" style=""width:200px;border:14px solid red;"">","null","","","","","",""
"","image-keyboard-response","247","249747","0.0-247.0","3RANCT1ZVG3SE0W1U2FRYG917NPUBU","A227W90ZO5I9RZ","3H6W48L9F4B5OEOMH57RM53Z4H1WP0","","687.5","img/animal2.png","76","688.8000000119209","3","0","1","1,0.5,0,0,1,0.5,0.5,0,1",""
"","html-keyboard-response","248","250063","0.0-248.0","3RANCT1ZVG3SE0W1U2FRYG917NPUBU","A227W90ZO5I9RZ","3H6W48L9F4B5OEOMH57RM53Z4H1WP0","","null","<img src=""img/animal2.png"" style=""width:200px;border:14px solid red;"">","null","","","","","",""
"","image-keyboard-response","249","250758","0.0-249.0","3RANCT1ZVG3SE0W1U2FRYG917NPUBU","A227W90ZO5I9RZ","3H6W48L9F4B5OEOMH57RM53Z4H1WP0","","692.8999999761581","img/animal4.png","74","694.3999999761581","1","0","3","1,0.5,0,0,1,0.5,0.5,0,1",""
"","html-keyboard-response","250","251066","0.0-250.0","3RANCT1ZVG3SE0W1U2FRYG917NPUBU","A227W90ZO5I9RZ","3H6W48L9F4B5OEOMH57RM53Z4H1WP0","","null","<img src=""img/animal4.png"" style=""width:200px;border:14px solid red;"">","null","","","","","",""
"","image-keyboard-response","251","251573","0.0-251.0","3RANCT1ZVG3SE0W1U2FRYG917NPUBU","A227W90ZO5I9RZ","3H6W48L9F4B5OEOMH57RM53Z4H1WP0","","505.69999998807907","img/animal4.png","74","507.19999998807907","1","0","3","1,0.5,0,0,1,0.5,0.5,0,1",""
"","html-keyboard-response","252","251885","0.0-252.0","3RANCT1ZVG3SE0W1U2FRYG917NPUBU","A227W90ZO5I9RZ","3H6W48L9F4B5OEOMH57RM53Z4H1WP0","","null","<img src=""img/animal4.png"" style=""width:200px;border:14px solid red;"">","null","","","","","",""
"","image-keyboard-response","253","252188","0.0-253.0","3RANCT1ZVG3SE0W1U2FRYG917NPUBU","A227W90ZO5I9RZ","3H6W48L9F4B5OEOMH57RM53Z4H1WP0","","301.60000002384186","img/animal6.png","75","302.80000001192093","2","1","2","1,0.5,0,0,1,0.5,0.5,0,1",""
"","html-keyboard-response","254","252497","0.0-254.0","3RANCT1ZVG3SE0W1U2FRYG917NPUBU","A227W90ZO5I9RZ","3H6W48L9F4B5OEOMH57RM53Z4H1WP0","","null","<img src=""img/animal6.png"" style=""width:200px; border:14px solid green;"">","null","","","","","",""
"","image-keyboard-response","255","252921","0.0-255.0","3RANCT1ZVG3SE0W1U2FRYG917NPUBU","A227W90ZO5I9RZ","3H6W48L9F4B5OEOMH57RM53Z4H1WP0","","422.80000001192093","img/animal6.png","75","424","2","1","2","1,0.5,0,0,1,0.5,0.5,0,1",""
"","html-keyboard-response","256","253225","0.0-256.0","3RANCT1ZVG3SE0W1U2FRYG917NPUBU","A227W90ZO5I9RZ","3H6W48L9F4B5OEOMH57RM53Z4H1WP0","","null","<img src=""img/animal6.png"" style=""width:200px; border:14px solid green;"">","null","","","","","",""
"","image-keyboard-response","257","254050","0.0-257.0","3RANCT1ZVG3SE0W1U2FRYG917NPUBU","A227W90ZO5I9RZ","3H6W48L9F4B5OEOMH57RM53Z4H1WP0","","824.1000000238419","img/animal4.png","75","825.3000000119209","2","0","3","1,0.5,0,0,1,0.5,0.5,0,1",""
"","html-keyboard-response","258","254361","0.0-258.0","3RANCT1ZVG3SE0W1U2FRYG917NPUBU","A227W90ZO5I9RZ","3H6W48L9F4B5OEOMH57RM53Z4H1WP0","","null","<img src=""img/animal4.png"" style=""width:200px;border:14px solid red;"">","null","","","","","",""
"","image-keyboard-response","259","255322","0.0-259.0","3RANCT1ZVG3SE0W1U2FRYG917NPUBU","A227W90ZO5I9RZ","3H6W48L9F4B5OEOMH57RM53Z4H1WP0","","960","img/animal2.png","75","961.3999999761581","2","0","1","1,0.5,0,0,1,0.5,0.5,0,1",""
"","html-keyboard-response","260","255632","0.0-260.0","3RANCT1ZVG3SE0W1U2FRYG917NPUBU","A227W90ZO5I9RZ","3H6W48L9F4B5OEOMH57RM53Z4H1WP0","","null","<img src=""img/animal2.png"" style=""width:200px;border:14px solid red;"">","null","","","","","",""
"","image-keyboard-response","261","256093","0.0-261.0","3RANCT1ZVG3SE0W1U2FRYG917NPUBU","A227W90ZO5I9RZ","3H6W48L9F4B5OEOMH57RM53Z4H1WP0","","458.9000000357628","img/animal2.png","74","460.39999997615814","1","1","1","1,0.5,0,0,1,0.5,0.5,0,1",""
"","html-keyboard-response","262","256411","0.0-262.0","3RANCT1ZVG3SE0W1U2FRYG917NPUBU","A227W90ZO5I9RZ","3H6W48L9F4B5OEOMH57RM53Z4H1WP0","","null","<img src=""img/animal2.png"" style=""width:200px; border:14px solid green;"">","null","","","","","",""
"","image-keyboard-response","263","257502","0.0-263.0","3RANCT1ZVG3SE0W1U2FRYG917NPUBU","A227W90ZO5I9RZ","3H6W48L9F4B5OEOMH57RM53Z4H1WP0","","1090","img/animal6.png","74","1092.199999988079","1","0","2","1,0.5,0,0,1,0.5,0.5,0,1",""
"","html-keyboard-response","264","257807","0.0-264.0","3RANCT1ZVG3SE0W1U2FRYG917NPUBU","A227W90ZO5I9RZ","3H6W48L9F4B5OEOMH57RM53Z4H1WP0","","null","<img src=""img/animal6.png"" style=""width:200px;border:14px solid red;"">","null","","","","","",""
"","image-keyboard-response","265","258656","0.0-265.0","3RANCT1ZVG3SE0W1U2FRYG917NPUBU","A227W90ZO5I9RZ","3H6W48L9F4B5OEOMH57RM53Z4H1WP0","","848.3999999761581","img/animal2.png","74","849.5","1","1","1","1,0.5,0,0,1,0.5,0.5,0,1",""
"","html-keyboard-response","266","258965","0.0-266.0","3RANCT1ZVG3SE0W1U2FRYG917NPUBU","A227W90ZO5I9RZ","3H6W48L9F4B5OEOMH57RM53Z4H1WP0","","null","<img src=""img/animal2.png"" style=""width:200px; border:14px solid green;"">","null","","","","","",""
"","image-keyboard-response","267","260410","0.0-267.0","3RANCT1ZVG3SE0W1U2FRYG917NPUBU","A227W90ZO5I9RZ","3H6W48L9F4B5OEOMH57RM53Z4H1WP0","","1443.3999999761581","img/animal4.png","74","1444.5","1","0","3","1,0.5,0,0,1,0.5,0.5,0,1",""
"","html-keyboard-response","268","260723","0.0-268.0","3RANCT1ZVG3SE0W1U2FRYG917NPUBU","A227W90ZO5I9RZ","3H6W48L9F4B5OEOMH57RM53Z4H1WP0","","null","<img src=""img/animal4.png"" style=""width:200px;border:14px solid red;"">","null","","","","","",""
"","image-keyboard-response","269","261861","0.0-269.0","3RANCT1ZVG3SE0W1U2FRYG917NPUBU","A227W90ZO5I9RZ","3H6W48L9F4B5OEOMH57RM53Z4H1WP0","","1137","img/animal2.png","74","1138.0999999642372","1","1","1","1,0.5,0,0,1,0.5,0.5,0,1",""
"","html-keyboard-response","270","262167","0.0-270.0","3RANCT1ZVG3SE0W1U2FRYG917NPUBU","A227W90ZO5I9RZ","3H6W48L9F4B5OEOMH57RM53Z4H1WP0","","null","<img src=""img/animal2.png"" style=""width:200px; border:14px solid green;"">","null","","","","","",""
"","image-keyboard-response","271","264308","0.0-271.0","3RANCT1ZVG3SE0W1U2FRYG917NPUBU","A227W90ZO5I9RZ","3H6W48L9F4B5OEOMH57RM53Z4H1WP0","","2138.800000011921","img/animal6.png","75","2140","2","1","2","1,0.5,0,0,1,0.5,0.5,0,1",""
"","html-keyboard-response","272","264614","0.0-272.0","3RANCT1ZVG3SE0W1U2FRYG917NPUBU","A227W90ZO5I9RZ","3H6W48L9F4B5OEOMH57RM53Z4H1WP0","","null","<img src=""img/animal6.png"" style=""width:200px; border:14px solid green;"">","null","","","","","",""
"","image-keyboard-response","273","265277","0.0-273.0","3RANCT1ZVG3SE0W1U2FRYG917NPUBU","A227W90ZO5I9RZ","3H6W48L9F4B5OEOMH57RM53Z4H1WP0","","661.8999999761581","img/animal6.png","75","663.0999999642372","2","1","2","1,0.5,0,0,1,0.5,0.5,0,1",""
"","html-keyboard-response","274","265580","0.0-274.0","3RANCT1ZVG3SE0W1U2FRYG917NPUBU","A227W90ZO5I9RZ","3H6W48L9F4B5OEOMH57RM53Z4H1WP0","","null","<img src=""img/animal6.png"" style=""width:200px; border:14px solid green;"">","null","","","","","",""
"","image-keyboard-response","275","266965","0.0-275.0","3RANCT1ZVG3SE0W1U2FRYG917NPUBU","A227W90ZO5I9RZ","3H6W48L9F4B5OEOMH57RM53Z4H1WP0","","1383.0999999642372","img/animal2.png","74","1384.300000011921","1","1","1","1,0.5,0,0,1,0.5,0.5,0,1",""
"","html-keyboard-response","276","267275","0.0-276.0","3RANCT1ZVG3SE0W1U2FRYG917NPUBU","A227W90ZO5I9RZ","3H6W48L9F4B5OEOMH57RM53Z4H1WP0","","null","<img src=""img/animal2.png"" style=""width:200px; border:14px solid green;"">","null","","","","","",""
"","image-keyboard-response","277","268852","0.0-277.0","3RANCT1ZVG3SE0W1U2FRYG917NPUBU","A227W90ZO5I9RZ","3H6W48L9F4B5OEOMH57RM53Z4H1WP0","","1576","img/animal4.png","75","1577.3999999761581","2","0","3","1,0.5,0,0,1,0.5,0.5,0,1",""
"","html-keyboard-response","278","269155","0.0-278.0","3RANCT1ZVG3SE0W1U2FRYG917NPUBU","A227W90ZO5I9RZ","3H6W48L9F4B5OEOMH57RM53Z4H1WP0","","null","<img src=""img/animal4.png"" style=""width:200px;border:14px solid red;"">","null","","","","","",""
"","image-keyboard-response","279","269689","0.0-279.0","3RANCT1ZVG3SE0W1U2FRYG917NPUBU","A227W90ZO5I9RZ","3H6W48L9F4B5OEOMH57RM53Z4H1WP0","","532.1999999880791","img/animal2.png","74","533.6000000238419","1","1","1","1,0.5,0,0,1,0.5,0.5,0,1",""
"","html-keyboard-response","280","270002","0.0-280.0","3RANCT1ZVG3SE0W1U2FRYG917NPUBU","A227W90ZO5I9RZ","3H6W48L9F4B5OEOMH57RM53Z4H1WP0","","null","<img src=""img/animal2.png"" style=""width:200px; border:14px solid green;"">","null","","","","","",""
"","image-keyboard-response","281","270504","0.0-281.0","3RANCT1ZVG3SE0W1U2FRYG917NPUBU","A227W90ZO5I9RZ","3H6W48L9F4B5OEOMH57RM53Z4H1WP0","","499.69999998807907","img/animal4.png","74","501.30000001192093","1","1","3","1,0.5,0,0,1,0.5,0.5,0,1",""
"","html-keyboard-response","282","270812","0.0-282.0","3RANCT1ZVG3SE0W1U2FRYG917NPUBU","A227W90ZO5I9RZ","3H6W48L9F4B5OEOMH57RM53Z4H1WP0","","null","<img src=""img/animal4.png"" style=""width:200px; border:14px solid green;"">","null","","","","","",""
"","image-keyboard-response","283","272261","0.0-283.0","3RANCT1ZVG3SE0W1U2FRYG917NPUBU","A227W90ZO5I9RZ","3H6W48L9F4B5OEOMH57RM53Z4H1WP0","","1447.800000011921","img/animal6.png","75","1448.9000000357628","2","1","2","1,0.5,0,0,1,0.5,0.5,0,1",""
"","html-keyboard-response","284","272567","0.0-284.0","3RANCT1ZVG3SE0W1U2FRYG917NPUBU","A227W90ZO5I9RZ","3H6W48L9F4B5OEOMH57RM53Z4H1WP0","","null","<img src=""img/animal6.png"" style=""width:200px; border:14px solid green;"">","null","","","","","",""
"","image-keyboard-response","285","273269","0.0-285.0","3RANCT1ZVG3SE0W1U2FRYG917NPUBU","A227W90ZO5I9RZ","3H6W48L9F4B5OEOMH57RM53Z4H1WP0","","700.8000000119209","img/animal2.png","74","701.8999999761581","1","1","1","1,0.5,0,0,1,0.5,0.5,0,1",""
"","html-keyboard-response","286","273577","0.0-286.0","3RANCT1ZVG3SE0W1U2FRYG917NPUBU","A227W90ZO5I9RZ","3H6W48L9F4B5OEOMH57RM53Z4H1WP0","","null","<img src=""img/animal2.png"" style=""width:200px; border:14px solid green;"">","null","","","","","",""
"","image-keyboard-response","287","274140","0.0-287.0","3RANCT1ZVG3SE0W1U2FRYG917NPUBU","A227W90ZO5I9RZ","3H6W48L9F4B5OEOMH57RM53Z4H1WP0","","562.3999999761581","img/animal6.png","74","563.7000000476837","1","0","2","1,0.5,0,0,1,0.5,0.5,0,1",""
"","html-keyboard-response","288","274450","0.0-288.0","3RANCT1ZVG3SE0W1U2FRYG917NPUBU","A227W90ZO5I9RZ","3H6W48L9F4B5OEOMH57RM53Z4H1WP0","","null","<img src=""img/animal6.png"" style=""width:200px;border:14px solid red;"">","null","","","","","",""
"","image-keyboard-response","289","275250","0.0-289.0","3RANCT1ZVG3SE0W1U2FRYG917NPUBU","A227W90ZO5I9RZ","3H6W48L9F4B5OEOMH57RM53Z4H1WP0","","798","img/animal6.png","75","799.3000000119209","2","1","2","1,0.5,0,0,1,0.5,0.5,0,1",""
"","html-keyboard-response","290","275558","0.0-290.0","3RANCT1ZVG3SE0W1U2FRYG917NPUBU","A227W90ZO5I9RZ","3H6W48L9F4B5OEOMH57RM53Z4H1WP0","","null","<img src=""img/animal6.png"" style=""width:200px; border:14px solid green;"">","null","","","","","",""
"","image-keyboard-response","291","276481","0.0-291.0","3RANCT1ZVG3SE0W1U2FRYG917NPUBU","A227W90ZO5I9RZ","3H6W48L9F4B5OEOMH57RM53Z4H1WP0","","921.4000000357628","img/animal4.png","75","922.6999999880791","2","0","3","1,0.5,0,0,1,0.5,0.5,0,1",""
"","html-keyboard-response","292","276791","0.0-292.0","3RANCT1ZVG3SE0W1U2FRYG917NPUBU","A227W90ZO5I9RZ","3H6W48L9F4B5OEOMH57RM53Z4H1WP0","","null","<img src=""img/animal4.png"" style=""width:200px;border:14px solid red;"">","null","","","","","",""
"","image-keyboard-response","293","277457","0.0-293.0","3RANCT1ZVG3SE0W1U2FRYG917NPUBU","A227W90ZO5I9RZ","3H6W48L9F4B5OEOMH57RM53Z4H1WP0","","665.1999999880791","img/animal4.png","74","666.4000000357628","1","0","3","1,0.5,0,0,1,0.5,0.5,0,1",""
"","html-keyboard-response","294","277767","0.0-294.0","3RANCT1ZVG3SE0W1U2FRYG917NPUBU","A227W90ZO5I9RZ","3H6W48L9F4B5OEOMH57RM53Z4H1WP0","","null","<img src=""img/animal4.png"" style=""width:200px;border:14px solid red;"">","null","","","","","",""
"","image-keyboard-response","295","278347","0.0-295.0","3RANCT1ZVG3SE0W1U2FRYG917NPUBU","A227W90ZO5I9RZ","3H6W48L9F4B5OEOMH57RM53Z4H1WP0","","578.5","img/animal2.png","76","579.8000000119209","3","0","1","1,0.5,0,0,1,0.5,0.5,0,1",""
"","html-keyboard-response","296","278651","0.0-296.0","3RANCT1ZVG3SE0W1U2FRYG917NPUBU","A227W90ZO5I9RZ","3H6W48L9F4B5OEOMH57RM53Z4H1WP0","","null","<img src=""img/animal2.png"" style=""width:200px;border:14px solid red;"">","null","","","","","",""
"","image-keyboard-response","297","279289","0.0-297.0","3RANCT1ZVG3SE0W1U2FRYG917NPUBU","A227W90ZO5I9RZ","3H6W48L9F4B5OEOMH57RM53Z4H1WP0","","637.2999999523163","img/animal2.png","74","638.4000000357628","1","1","1","1,0.5,0,0,1,0.5,0.5,0,1",""
"","html-keyboard-response","298","279593","0.0-298.0","3RANCT1ZVG3SE0W1U2FRYG917NPUBU","A227W90ZO5I9RZ","3H6W48L9F4B5OEOMH57RM53Z4H1WP0","","null","<img src=""img/animal2.png"" style=""width:200px; border:14px solid green;"">","null","","","","","",""
"","image-keyboard-response","299","281171","0.0-299.0","3RANCT1ZVG3SE0W1U2FRYG917NPUBU","A227W90ZO5I9RZ","3H6W48L9F4B5OEOMH57RM53Z4H1WP0","","1576.199999988079","img/animal6.png","75","1577.3999999761581","2","1","2","1,0.5,0,0,1,0.5,0.5,0,1",""
"","html-keyboard-response","300","281486","0.0-300.0","3RANCT1ZVG3SE0W1U2FRYG917NPUBU","A227W90ZO5I9RZ","3H6W48L9F4B5OEOMH57RM53Z4H1WP0","","null","<img src=""img/animal6.png"" style=""width:200px; border:14px solid green;"">","null","","","","","",""
"","image-keyboard-response","301","283517","0.0-301.0","3RANCT1ZVG3SE0W1U2FRYG917NPUBU","A227W90ZO5I9RZ","3H6W48L9F4B5OEOMH57RM53Z4H1WP0","","2029.699999988079","img/animal4.png","76","2031","3","1","3","1,0.5,0,0,1,0.5,0.5,0,1",""
"","html-keyboard-response","302","283820","0.0-302.0","3RANCT1ZVG3SE0W1U2FRYG917NPUBU","A227W90ZO5I9RZ","3H6W48L9F4B5OEOMH57RM53Z4H1WP0","","null","<img src=""img/animal4.png"" style=""width:200px; border:14px solid green;"">","null","","","","","",""
"","image-keyboard-response","303","284345","0.0-303.0","3RANCT1ZVG3SE0W1U2FRYG917NPUBU","A227W90ZO5I9RZ","3H6W48L9F4B5OEOMH57RM53Z4H1WP0","","523.5","img/animal4.png","76","524.6000000238419","3","1","3","1,0.5,0,0,1,0.5,0.5,0,1",""
"","html-keyboard-response","304","284654","0.0-304.0","3RANCT1ZVG3SE0W1U2FRYG917NPUBU","A227W90ZO5I9RZ","3H6W48L9F4B5OEOMH57RM53Z4H1WP0","","null","<img src=""img/animal4.png"" style=""width:200px; border:14px solid green;"">","null","","","","","",""
"","image-keyboard-response","305","285530","0.0-305.0","3RANCT1ZVG3SE0W1U2FRYG917NPUBU","A227W90ZO5I9RZ","3H6W48L9F4B5OEOMH57RM53Z4H1WP0","","875.0999999642372","img/animal2.png","74","876.3999999761581","1","1","1","1,0.5,0,0,1,0.5,0.5,0,1",""
"","html-keyboard-response","306","285833","0.0-306.0","3RANCT1ZVG3SE0W1U2FRYG917NPUBU","A227W90ZO5I9RZ","3H6W48L9F4B5OEOMH57RM53Z4H1WP0","","null","<img src=""img/animal2.png"" style=""width:200px; border:14px solid green;"">","null","","","","","",""
"","image-keyboard-response","307","286874","0.0-307.0","3RANCT1ZVG3SE0W1U2FRYG917NPUBU","A227W90ZO5I9RZ","3H6W48L9F4B5OEOMH57RM53Z4H1WP0","","1040.199999988079","img/animal4.png","76","1041.4000000357628","3","1","3","1,0.5,0,0,1,0.5,0.5,0,1",""
"","html-keyboard-response","308","287177","0.0-308.0","3RANCT1ZVG3SE0W1U2FRYG917NPUBU","A227W90ZO5I9RZ","3H6W48L9F4B5OEOMH57RM53Z4H1WP0","","null","<img src=""img/animal4.png"" style=""width:200px; border:14px solid green;"">","null","","","","","",""
"","image-keyboard-response","309","287867","0.0-309.0","3RANCT1ZVG3SE0W1U2FRYG917NPUBU","A227W90ZO5I9RZ","3H6W48L9F4B5OEOMH57RM53Z4H1WP0","","688.3999999761581","img/animal2.png","74","689.6999999880791","1","1","1","1,0.5,0,0,1,0.5,0.5,0,1",""
"","html-keyboard-response","310","288180","0.0-310.0","3RANCT1ZVG3SE0W1U2FRYG917NPUBU","A227W90ZO5I9RZ","3H6W48L9F4B5OEOMH57RM53Z4H1WP0","","null","<img src=""img/animal2.png"" style=""width:200px; border:14px solid green;"">","null","","","","","",""
"","image-keyboard-response","311","289148","0.0-311.0","3RANCT1ZVG3SE0W1U2FRYG917NPUBU","A227W90ZO5I9RZ","3H6W48L9F4B5OEOMH57RM53Z4H1WP0","","966.3000000119209","img/animal2.png","74","967.6000000238419","1","1","1","1,0.5,0,0,1,0.5,0.5,0,1",""
"","html-keyboard-response","312","289455","0.0-312.0","3RANCT1ZVG3SE0W1U2FRYG917NPUBU","A227W90ZO5I9RZ","3H6W48L9F4B5OEOMH57RM53Z4H1WP0","","null","<img src=""img/animal2.png"" style=""width:200px; border:14px solid green;"">","null","","","","","",""
"","image-keyboard-response","313","290761","0.0-313.0","3RANCT1ZVG3SE0W1U2FRYG917NPUBU","A227W90ZO5I9RZ","3H6W48L9F4B5OEOMH57RM53Z4H1WP0","","1304.1000000238419","img/animal6.png","75","1305.3999999761581","2","1","2","1,0.5,0,0,1,0.5,0.5,0,1",""
"","html-keyboard-response","314","291080","0.0-314.0","3RANCT1ZVG3SE0W1U2FRYG917NPUBU","A227W90ZO5I9RZ","3H6W48L9F4B5OEOMH57RM53Z4H1WP0","","null","<img src=""img/animal6.png"" style=""width:200px; border:14px solid green;"">","null","","","","","",""
"","image-keyboard-response","315","292076","0.0-315.0","3RANCT1ZVG3SE0W1U2FRYG917NPUBU","A227W90ZO5I9RZ","3H6W48L9F4B5OEOMH57RM53Z4H1WP0","","994.7999999523163","img/animal4.png","76","996.0999999642372","3","1","3","1,0.5,0,0,1,0.5,0.5,0,1",""
"","html-keyboard-response","316","292383","0.0-316.0","3RANCT1ZVG3SE0W1U2FRYG917NPUBU","A227W90ZO5I9RZ","3H6W48L9F4B5OEOMH57RM53Z4H1WP0","","null","<img src=""img/animal4.png"" style=""width:200px; border:14px solid green;"">","null","","","","","",""
"","image-keyboard-response","317","293451","0.0-317.0","3RANCT1ZVG3SE0W1U2FRYG917NPUBU","A227W90ZO5I9RZ","3H6W48L9F4B5OEOMH57RM53Z4H1WP0","","1066","img/animal6.png","75","1067.2000000476837","2","1","2","1,0.5,0,0,1,0.5,0.5,0,1",""
"","html-keyboard-response","318","293760","0.0-318.0","3RANCT1ZVG3SE0W1U2FRYG917NPUBU","A227W90ZO5I9RZ","3H6W48L9F4B5OEOMH57RM53Z4H1WP0","","null","<img src=""img/animal6.png"" style=""width:200px; border:14px solid green;"">","null","","","","","",""
"","image-keyboard-response","319","294406","0.0-319.0","3RANCT1ZVG3SE0W1U2FRYG917NPUBU","A227W90ZO5I9RZ","3H6W48L9F4B5OEOMH57RM53Z4H1WP0","","644.3999999761581","img/animal2.png","74","645.6999999880791","1","1","1","1,0.5,0,0,1,0.5,0.5,0,1",""
"","html-keyboard-response","320","294717","0.0-320.0","3RANCT1ZVG3SE0W1U2FRYG917NPUBU","A227W90ZO5I9RZ","3H6W48L9F4B5OEOMH57RM53Z4H1WP0","","null","<img src=""img/animal2.png"" style=""width:200px; border:14px solid green;"">","null","","","","","",""
"","image-keyboard-response","321","295325","0.0-321.0","3RANCT1ZVG3SE0W1U2FRYG917NPUBU","A227W90ZO5I9RZ","3H6W48L9F4B5OEOMH57RM53Z4H1WP0","","607.3999999761581","img/animal2.png","74","608.5999999642372","1","1","1","1,0.5,0,0,1,0.5,0.5,0,1",""
"","html-keyboard-response","322","295631","0.0-322.0","3RANCT1ZVG3SE0W1U2FRYG917NPUBU","A227W90ZO5I9RZ","3H6W48L9F4B5OEOMH57RM53Z4H1WP0","","null","<img src=""img/animal2.png"" style=""width:200px; border:14px solid green;"">","null","","","","","",""
"","image-keyboard-response","323","296406","0.0-323.0","3RANCT1ZVG3SE0W1U2FRYG917NPUBU","A227W90ZO5I9RZ","3H6W48L9F4B5OEOMH57RM53Z4H1WP0","","774.3999999761581","img/animal4.png","76","775.5","3","1","3","1,0.5,0,0,1,0.5,0.5,0,1",""
"","html-keyboard-response","324","296712","0.0-324.0","3RANCT1ZVG3SE0W1U2FRYG917NPUBU","A227W90ZO5I9RZ","3H6W48L9F4B5OEOMH57RM53Z4H1WP0","","null","<img src=""img/animal4.png"" style=""width:200px; border:14px solid green;"">","null","","","","","",""
"","image-keyboard-response","325","297779","0.0-325.0","3RANCT1ZVG3SE0W1U2FRYG917NPUBU","A227W90ZO5I9RZ","3H6W48L9F4B5OEOMH57RM53Z4H1WP0","","1064.9000000357628","img/animal4.png","76","1066.1000000238419","3","1","3","1,0.5,0,0,1,0.5,0.5,0,1",""
"","html-keyboard-response","326","298084","0.0-326.0","3RANCT1ZVG3SE0W1U2FRYG917NPUBU","A227W90ZO5I9RZ","3H6W48L9F4B5OEOMH57RM53Z4H1WP0","","null","<img src=""img/animal4.png"" style=""width:200px; border:14px solid green;"">","null","","","","","",""
"","image-keyboard-response","327","298871","0.0-327.0","3RANCT1ZVG3SE0W1U2FRYG917NPUBU","A227W90ZO5I9RZ","3H6W48L9F4B5OEOMH57RM53Z4H1WP0","","781.7000000476837","img/animal2.png","74","782.9000000357628","1","1","1","1,0.5,0,0,1,0.5,0.5,0,1",""
"","html-keyboard-response","328","299178","0.0-328.0","3RANCT1ZVG3SE0W1U2FRYG917NPUBU","A227W90ZO5I9RZ","3H6W48L9F4B5OEOMH57RM53Z4H1WP0","","null","<img src=""img/animal2.png"" style=""width:200px; border:14px solid green;"">","null","","","","","",""
"","image-keyboard-response","329","300010","0.0-329.0","3RANCT1ZVG3SE0W1U2FRYG917NPUBU","A227W90ZO5I9RZ","3H6W48L9F4B5OEOMH57RM53Z4H1WP0","","829.9000000357628","img/animal4.png","74","831.2000000476837","1","0","3","1,0.5,0,0,1,0.5,0.5,0,1",""
"","html-keyboard-response","330","300327","0.0-330.0","3RANCT1ZVG3SE0W1U2FRYG917NPUBU","A227W90ZO5I9RZ","3H6W48L9F4B5OEOMH57RM53Z4H1WP0","","null","<img src=""img/animal4.png"" style=""width:200px;border:14px solid red;"">","null","","","","","",""
"","image-keyboard-response","331","300837","0.0-331.0","3RANCT1ZVG3SE0W1U2FRYG917NPUBU","A227W90ZO5I9RZ","3H6W48L9F4B5OEOMH57RM53Z4H1WP0","","508.4000000357628","img/animal4.png","76","509.80000001192093","3","1","3","1,0.5,0,0,1,0.5,0.5,0,1",""
"","html-keyboard-response","332","301142","0.0-332.0","3RANCT1ZVG3SE0W1U2FRYG917NPUBU","A227W90ZO5I9RZ","3H6W48L9F4B5OEOMH57RM53Z4H1WP0","","null","<img src=""img/animal4.png"" style=""width:200px; border:14px solid green;"">","null","","","","","",""
"","image-keyboard-response","333","302251","0.0-333.0","3RANCT1ZVG3SE0W1U2FRYG917NPUBU","A227W90ZO5I9RZ","3H6W48L9F4B5OEOMH57RM53Z4H1WP0","","1107.300000011921","img/animal2.png","74","1108.699999988079","1","1","1","1,0.5,0,0,1,0.5,0.5,0,1",""
"","html-keyboard-response","334","302559","0.0-334.0","3RANCT1ZVG3SE0W1U2FRYG917NPUBU","A227W90ZO5I9RZ","3H6W48L9F4B5OEOMH57RM53Z4H1WP0","","null","<img src=""img/animal2.png"" style=""width:200px; border:14px solid green;"">","null","","","","","",""
"","image-keyboard-response","335","303110","0.0-335.0","3RANCT1ZVG3SE0W1U2FRYG917NPUBU","A227W90ZO5I9RZ","3H6W48L9F4B5OEOMH57RM53Z4H1WP0","","550.1999999880791","img/animal2.png","74","551.7999999523163","1","1","1","1,0.5,0,0,1,0.5,0.5,0,1",""
"","html-keyboard-response","336","303418","0.0-336.0","3RANCT1ZVG3SE0W1U2FRYG917NPUBU","A227W90ZO5I9RZ","3H6W48L9F4B5OEOMH57RM53Z4H1WP0","","null","<img src=""img/animal2.png"" style=""width:200px; border:14px solid green;"">","null","","","","","",""
"","image-keyboard-response","337","304325","0.0-337.0","3RANCT1ZVG3SE0W1U2FRYG917NPUBU","A227W90ZO5I9RZ","3H6W48L9F4B5OEOMH57RM53Z4H1WP0","","905.2000000476837","img/animal6.png","75","906.6999999880791","2","1","2","1,0.5,0,0,1,0.5,0.5,0,1",""
"","html-keyboard-response","338","304631","0.0-338.0","3RANCT1ZVG3SE0W1U2FRYG917NPUBU","A227W90ZO5I9RZ","3H6W48L9F4B5OEOMH57RM53Z4H1WP0","","null","<img src=""img/animal6.png"" style=""width:200px; border:14px solid green;"">","null","","","","","",""
"","image-keyboard-response","339","305089","0.0-339.0","3RANCT1ZVG3SE0W1U2FRYG917NPUBU","A227W90ZO5I9RZ","3H6W48L9F4B5OEOMH57RM53Z4H1WP0","","456.69999998807907","img/animal6.png","75","457.89999997615814","2","1","2","1,0.5,0,0,1,0.5,0.5,0,1",""
"","html-keyboard-response","340","305404","0.0-340.0","3RANCT1ZVG3SE0W1U2FRYG917NPUBU","A227W90ZO5I9RZ","3H6W48L9F4B5OEOMH57RM53Z4H1WP0","","null","<img src=""img/animal6.png"" style=""width:200px; border:14px solid green;"">","null","","","","","",""
"","image-keyboard-response","341","305893","0.0-341.0","3RANCT1ZVG3SE0W1U2FRYG917NPUBU","A227W90ZO5I9RZ","3H6W48L9F4B5OEOMH57RM53Z4H1WP0","","487.9000000357628","img/animal6.png","75","489.10000002384186","2","1","2","1,0.5,0,0,1,0.5,0.5,0,1",""
"","html-keyboard-response","342","306204","0.0-342.0","3RANCT1ZVG3SE0W1U2FRYG917NPUBU","A227W90ZO5I9RZ","3H6W48L9F4B5OEOMH57RM53Z4H1WP0","","null","<img src=""img/animal6.png"" style=""width:200px; border:14px solid green;"">","null","","","","","",""
"","image-keyboard-response","343","307152","0.0-343.0","3RANCT1ZVG3SE0W1U2FRYG917NPUBU","A227W90ZO5I9RZ","3H6W48L9F4B5OEOMH57RM53Z4H1WP0","","946.5","img/animal2.png","74","947.8000000119209","1","1","1","1,0.5,0,0,1,0.5,0.5,0,1",""
"","html-keyboard-response","344","307459","0.0-344.0","3RANCT1ZVG3SE0W1U2FRYG917NPUBU","A227W90ZO5I9RZ","3H6W48L9F4B5OEOMH57RM53Z4H1WP0","","null","<img src=""img/animal2.png"" style=""width:200px; border:14px solid green;"">","null","","","","","",""
"","image-keyboard-response","345","308330","0.0-345.0","3RANCT1ZVG3SE0W1U2FRYG917NPUBU","A227W90ZO5I9RZ","3H6W48L9F4B5OEOMH57RM53Z4H1WP0","","869.7000000476837","img/animal6.png","75","871","2","1","2","1,0.5,0,0,1,0.5,0.5,0,1",""
"","html-keyboard-response","346","308637","0.0-346.0","3RANCT1ZVG3SE0W1U2FRYG917NPUBU","A227W90ZO5I9RZ","3H6W48L9F4B5OEOMH57RM53Z4H1WP0","","null","<img src=""img/animal6.png"" style=""width:200px; border:14px solid green;"">","null","","","","","",""
"","image-keyboard-response","347","309052","0.0-347.0","3RANCT1ZVG3SE0W1U2FRYG917NPUBU","A227W90ZO5I9RZ","3H6W48L9F4B5OEOMH57RM53Z4H1WP0","","413.69999998807907","img/animal6.png","75","415","2","1","2","1,0.5,0,0,1,0.5,0.5,0,1",""
"","html-keyboard-response","348","309363","0.0-348.0","3RANCT1ZVG3SE0W1U2FRYG917NPUBU","A227W90ZO5I9RZ","3H6W48L9F4B5OEOMH57RM53Z4H1WP0","","null","<img src=""img/animal6.png"" style=""width:200px; border:14px solid green;"">","null","","","","","",""
"","image-keyboard-response","349","310323","0.0-349.0","3RANCT1ZVG3SE0W1U2FRYG917NPUBU","A227W90ZO5I9RZ","3H6W48L9F4B5OEOMH57RM53Z4H1WP0","","959.2000000476837","img/animal4.png","76","960.5","3","1","3","1,0.5,0,0,1,0.5,0.5,0,1",""
"","html-keyboard-response","350","310636","0.0-350.0","3RANCT1ZVG3SE0W1U2FRYG917NPUBU","A227W90ZO5I9RZ","3H6W48L9F4B5OEOMH57RM53Z4H1WP0","","null","<img src=""img/animal4.png"" style=""width:200px; border:14px solid green;"">","null","","","","","",""
"","image-keyboard-response","351","311615","0.0-351.0","3RANCT1ZVG3SE0W1U2FRYG917NPUBU","A227W90ZO5I9RZ","3H6W48L9F4B5OEOMH57RM53Z4H1WP0","","977.6999999880791","img/animal6.png","75","978.7000000476837","2","1","2","1,0.5,0,0,1,0.5,0.5,0,1",""
"","html-keyboard-response","352","311923","0.0-352.0","3RANCT1ZVG3SE0W1U2FRYG917NPUBU","A227W90ZO5I9RZ","3H6W48L9F4B5OEOMH57RM53Z4H1WP0","","null","<img src=""img/animal6.png"" style=""width:200px; border:14px solid green;"">","null","","","","","",""
"","image-keyboard-response","353","312894","0.0-353.0","3RANCT1ZVG3SE0W1U2FRYG917NPUBU","A227W90ZO5I9RZ","3H6W48L9F4B5OEOMH57RM53Z4H1WP0","","969.5","img/animal4.png","76","970.6999999880791","3","1","3","1,0.5,0,0,1,0.5,0.5,0,1",""
"","html-keyboard-response","354","313208","0.0-354.0","3RANCT1ZVG3SE0W1U2FRYG917NPUBU","A227W90ZO5I9RZ","3H6W48L9F4B5OEOMH57RM53Z4H1WP0","","null","<img src=""img/animal4.png"" style=""width:200px; border:14px solid green;"">","null","","","","","",""
"","image-keyboard-response","355","314115","0.0-355.0","3RANCT1ZVG3SE0W1U2FRYG917NPUBU","A227W90ZO5I9RZ","3H6W48L9F4B5OEOMH57RM53Z4H1WP0","","905","img/animal4.png","76","906.5","3","1","3","1,0.5,0,0,1,0.5,0.5,0,1",""
"","html-keyboard-response","356","314423","0.0-356.0","3RANCT1ZVG3SE0W1U2FRYG917NPUBU","A227W90ZO5I9RZ","3H6W48L9F4B5OEOMH57RM53Z4H1WP0","","null","<img src=""img/animal4.png"" style=""width:200px; border:14px solid green;"">","null","","","","","",""
"","image-keyboard-response","357","315120","0.0-357.0","3RANCT1ZVG3SE0W1U2FRYG917NPUBU","A227W90ZO5I9RZ","3H6W48L9F4B5OEOMH57RM53Z4H1WP0","","694.8000000119209","img/animal6.png","75","696.1999999880791","2","1","2","1,0.5,0,0,1,0.5,0.5,0,1",""
"","html-keyboard-response","358","315429","0.0-358.0","3RANCT1ZVG3SE0W1U2FRYG917NPUBU","A227W90ZO5I9RZ","3H6W48L9F4B5OEOMH57RM53Z4H1WP0","","null","<img src=""img/animal6.png"" style=""width:200px; border:14px solid green;"">","null","","","","","",""
"","image-keyboard-response","359","316218","0.0-359.0","3RANCT1ZVG3SE0W1U2FRYG917NPUBU","A227W90ZO5I9RZ","3H6W48L9F4B5OEOMH57RM53Z4H1WP0","","787","img/animal4.png","76","787.8999999761581","3","1","3","1,0.5,0,0,1,0.5,0.5,0,1",""
"","html-keyboard-response","360","316527","0.0-360.0","3RANCT1ZVG3SE0W1U2FRYG917NPUBU","A227W90ZO5I9RZ","3H6W48L9F4B5OEOMH57RM53Z4H1WP0","","null","<img src=""img/animal4.png"" style=""width:200px; border:14px solid green;"">","null","","","","","",""
"","image-keyboard-response","361","317689","0.0-361.0","3RANCT1ZVG3SE0W1U2FRYG917NPUBU","A227W90ZO5I9RZ","3H6W48L9F4B5OEOMH57RM53Z4H1WP0","","1160.800000011921","img/animal6.png","75","1161.9000000357628","2","1","2","1,0.5,0,0,1,0.5,0.5,0,1",""
"","html-keyboard-response","362","317997","0.0-362.0","3RANCT1ZVG3SE0W1U2FRYG917NPUBU","A227W90ZO5I9RZ","3H6W48L9F4B5OEOMH57RM53Z4H1WP0","","null","<img src=""img/animal6.png"" style=""width:200px; border:14px solid green;"">","null","","","","","",""
"","instructions","363","320784","0.0-363.0","3RANCT1ZVG3SE0W1U2FRYG917NPUBU","A227W90ZO5I9RZ","3H6W48L9F4B5OEOMH57RM53Z4H1WP0","[{""page_index"":0,""viewing_time"":2785.100000023842}]","2785.400000035763","","","","","","","",""
"","survey-text","364","328267","0.0-364.0","3RANCT1ZVG3SE0W1U2FRYG917NPUBU","A227W90ZO5I9RZ","3H6W48L9F4B5OEOMH57RM53Z4H1WP0","","7480.900000035763","","","","","","","","{""Q0"":""A227W90ZO5I9RZ""}"
