"success","trial_type","trial_index","time_elapsed","internal_node_id","assignmentID","mturkID","hitID","view_history","rt","stimulus","key_press","reactionTime","a","r","s","reward_cond","responses"
"true","fullscreen","0","2863","0.0-0.0","3DYGAII7PMU2Q1QUWYDNJZH1N2TPQU","A24G8GL5FX1KAW","3KVQ0UJWPX71V463XQYDOZYIDLRW5D","","","","","","","","","",""
"","instructions","1","25384","0.0-1.0","3DYGAII7PMU2Q1QUWYDNJZH1N2TPQU","A24G8GL5FX1KAW","3KVQ0UJWPX71V463XQYDOZYIDLRW5D","[{""page_index"":0,""viewing_time"":3054.900000035763},{""page_index"":1,""viewing_time"":1578.3999999761581},{""page_index"":2,""viewing_time"":1893.1000000238419},{""page_index"":3,""viewing_time"":3637.899999976158},{""page_index"":4,""viewing_time"":5918.900000035763},{""page_index"":5,""viewing_time"":3009},{""page_index"":6,""viewing_time"":2071.699999988079},{""page_index"":7,""viewing_time"":1352.5999999642372}]","22518.100000023842","","","","","","","",""
"","image-keyboard-response","2","26720","0.0-2.0","3DYGAII7PMU2Q1QUWYDNJZH1N2TPQU","A24G8GL5FX1KAW","3KVQ0UJWPX71V463XQYDOZYIDLRW5D","","1332.800000011921","img/animal4.png","76","1335.4000000357628","3","0","2","1,0.7,0,1,0.7,0,0.7,0,1",""
"","html-keyboard-response","3","27029","0.0-3.0","3DYGAII7PMU2Q1QUWYDNJZH1N2TPQU","A24G8GL5FX1KAW","3KVQ0UJWPX71V463XQYDOZYIDLRW5D","","null","<img src=""img/animal4.png"" style=""width:200px;border:14px solid red;"">","null","","","","","",""
"","image-keyboard-response","4","28161","0.0-4.0","3DYGAII7PMU2Q1QUWYDNJZH1N2TPQU","A24G8GL5FX1KAW","3KVQ0UJWPX71V463XQYDOZYIDLRW5D","","1129.9000000357628","img/animal5.png","75","1131.800000011921","2","0","3","1,0.7,0,1,0.7,0,0.7,0,1",""
"","html-keyboard-response","5","28469","0.0-5.0","3DYGAII7PMU2Q1QUWYDNJZH1N2TPQU","A24G8GL5FX1KAW","3KVQ0UJWPX71V463XQYDOZYIDLRW5D","","null","<img src=""img/animal5.png"" style=""width:200px;border:14px solid red;"">","null","","","","","",""
"","image-keyboard-response","6","29915","0.0-6.0","3DYGAII7PMU2Q1QUWYDNJZH1N2TPQU","A24G8GL5FX1KAW","3KVQ0UJWPX71V463XQYDOZYIDLRW5D","","1444.4000000357628","img/animal4.png","74","1445.800000011921","1","1","2","1,0.7,0,1,0.7,0,0.7,0,1",""
"","html-keyboard-response","7","30221","0.0-7.0","3DYGAII7PMU2Q1QUWYDNJZH1N2TPQU","A24G8GL5FX1KAW","3KVQ0UJWPX71V463XQYDOZYIDLRW5D","","null","<img src=""img/animal4.png"" style=""width:200px; border:14px solid green;"">","null","","","","","",""
"","image-keyboard-response","8","31102","0.0-8.0","3DYGAII7PMU2Q1QUWYDNJZH1N2TPQU","A24G8GL5FX1KAW","3KVQ0UJWPX71V463XQYDOZYIDLRW5D","","878.3999999761581","img/animal5.png","75","880.6000000238419","2","0","3","1,0.7,0,1,0.7,0,0.7,0,1",""
"","html-keyboard-response","9","31405","0.0-9.0","3DYGAII7PMU2Q1QUWYDNJZH1N2TPQU","A24G8GL5FX1KAW","3KVQ0UJWPX71V463XQYDOZYIDLRW5D","","null","<img src=""img/animal5.png"" style=""width:200px;border:14px solid red;"">","null","","","","","",""
"","image-keyboard-response","10","32042","0.0-10.0","3DYGAII7PMU2Q1QUWYDNJZH1N2TPQU","A24G8GL5FX1KAW","3KVQ0UJWPX71V463XQYDOZYIDLRW5D","","634.3000000119209","img/animal4.png","74","636","1","1","2","1,0.7,0,1,0.7,0,0.7,0,1",""
"","html-keyboard-response","11","32349","0.0-11.0","3DYGAII7PMU2Q1QUWYDNJZH1N2TPQU","A24G8GL5FX1KAW","3KVQ0UJWPX71V463XQYDOZYIDLRW5D","","null","<img src=""img/animal4.png"" style=""width:200px; border:14px solid green;"">","null","","","","","",""
"","image-keyboard-response","12","32789","0.0-12.0","3DYGAII7PMU2Q1QUWYDNJZH1N2TPQU","A24G8GL5FX1KAW","3KVQ0UJWPX71V463XQYDOZYIDLRW5D","","437.19999998807907","img/animal5.png","74","439.10000002384186","1","0","3","1,0.7,0,1,0.7,0,0.7,0,1",""
"","html-keyboard-response","13","33093","0.0-13.0","3DYGAII7PMU2Q1QUWYDNJZH1N2TPQU","A24G8GL5FX1KAW","3KVQ0UJWPX71V463XQYDOZYIDLRW5D","","null","<img src=""img/animal5.png"" style=""width:200px;border:14px solid red;"">","null","","","","","",""
"","image-keyboard-response","14","34258","0.0-14.0","3DYGAII7PMU2Q1QUWYDNJZH1N2TPQU","A24G8GL5FX1KAW","3KVQ0UJWPX71V463XQYDOZYIDLRW5D","","1162.7999999523163","img/animal1.png","74","1164.3999999761581","1","1","1","1,0.7,0,1,0.7,0,0.7,0,1",""
"","html-keyboard-response","15","34565","0.0-15.0","3DYGAII7PMU2Q1QUWYDNJZH1N2TPQU","A24G8GL5FX1KAW","3KVQ0UJWPX71V463XQYDOZYIDLRW5D","","null","<img src=""img/animal1.png"" style=""width:200px; border:14px solid green;"">","null","","","","","",""
"","image-keyboard-response","16","35379","0.0-16.0","3DYGAII7PMU2Q1QUWYDNJZH1N2TPQU","A24G8GL5FX1KAW","3KVQ0UJWPX71V463XQYDOZYIDLRW5D","","812.3999999761581","img/animal5.png","76","814","3","1","3","1,0.7,0,1,0.7,0,0.7,0,1",""
"","html-keyboard-response","17","35685","0.0-17.0","3DYGAII7PMU2Q1QUWYDNJZH1N2TPQU","A24G8GL5FX1KAW","3KVQ0UJWPX71V463XQYDOZYIDLRW5D","","null","<img src=""img/animal5.png"" style=""width:200px; border:14px solid green;"">","null","","","","","",""
"","image-keyboard-response","18","36475","0.0-18.0","3DYGAII7PMU2Q1QUWYDNJZH1N2TPQU","A24G8GL5FX1KAW","3KVQ0UJWPX71V463XQYDOZYIDLRW5D","","787.6999999880791","img/animal1.png","74","789.3000000119209","1","1","1","1,0.7,0,1,0.7,0,0.7,0,1",""
"","html-keyboard-response","19","36781","0.0-19.0","3DYGAII7PMU2Q1QUWYDNJZH1N2TPQU","A24G8GL5FX1KAW","3KVQ0UJWPX71V463XQYDOZYIDLRW5D","","null","<img src=""img/animal1.png"" style=""width:200px; border:14px solid green;"">","null","","","","","",""
"","image-keyboard-response","20","37616","0.0-20.0","3DYGAII7PMU2Q1QUWYDNJZH1N2TPQU","A24G8GL5FX1KAW","3KVQ0UJWPX71V463XQYDOZYIDLRW5D","","833.0999999642372","img/animal4.png","75","834.7999999523163","2","1","2","1,0.7,0,1,0.7,0,0.7,0,1",""
"","html-keyboard-response","21","37925","0.0-21.0","3DYGAII7PMU2Q1QUWYDNJZH1N2TPQU","A24G8GL5FX1KAW","3KVQ0UJWPX71V463XQYDOZYIDLRW5D","","null","<img src=""img/animal4.png"" style=""width:200px; border:14px solid green;"">","null","","","","","",""
"","image-keyboard-response","22","38644","0.0-22.0","3DYGAII7PMU2Q1QUWYDNJZH1N2TPQU","A24G8GL5FX1KAW","3KVQ0UJWPX71V463XQYDOZYIDLRW5D","","716.6999999880791","img/animal4.png","75","718.3000000119209","2","1","2","1,0.7,0,1,0.7,0,0.7,0,1",""
"","html-keyboard-response","23","38949","0.0-23.0","3DYGAII7PMU2Q1QUWYDNJZH1N2TPQU","A24G8GL5FX1KAW","3KVQ0UJWPX71V463XQYDOZYIDLRW5D","","null","<img src=""img/animal4.png"" style=""width:200px; border:14px solid green;"">","null","","","","","",""
"","image-keyboard-response","24","39810","0.0-24.0","3DYGAII7PMU2Q1QUWYDNJZH1N2TPQU","A24G8GL5FX1KAW","3KVQ0UJWPX71V463XQYDOZYIDLRW5D","","859.4000000357628","img/animal5.png","76","861","3","1","3","1,0.7,0,1,0.7,0,0.7,0,1",""
"","html-keyboard-response","25","40117","0.0-25.0","3DYGAII7PMU2Q1QUWYDNJZH1N2TPQU","A24G8GL5FX1KAW","3KVQ0UJWPX71V463XQYDOZYIDLRW5D","","null","<img src=""img/animal5.png"" style=""width:200px; border:14px solid green;"">","null","","","","","",""
"","image-keyboard-response","26","41423","0.0-26.0","3DYGAII7PMU2Q1QUWYDNJZH1N2TPQU","A24G8GL5FX1KAW","3KVQ0UJWPX71V463XQYDOZYIDLRW5D","","1303.9000000357628","img/animal4.png","74","1305.6000000238419","1","1","2","1,0.7,0,1,0.7,0,0.7,0,1",""
"","html-keyboard-response","27","41733","0.0-27.0","3DYGAII7PMU2Q1QUWYDNJZH1N2TPQU","A24G8GL5FX1KAW","3KVQ0UJWPX71V463XQYDOZYIDLRW5D","","null","<img src=""img/animal4.png"" style=""width:200px; border:14px solid green;"">","null","","","","","",""
"","image-keyboard-response","28","42399","0.0-28.0","3DYGAII7PMU2Q1QUWYDNJZH1N2TPQU","A24G8GL5FX1KAW","3KVQ0UJWPX71V463XQYDOZYIDLRW5D","","664.6000000238419","img/animal4.png","74","666.3000000119209","1","1","2","1,0.7,0,1,0.7,0,0.7,0,1",""
"","html-keyboard-response","29","42708","0.0-29.0","3DYGAII7PMU2Q1QUWYDNJZH1N2TPQU","A24G8GL5FX1KAW","3KVQ0UJWPX71V463XQYDOZYIDLRW5D","","null","<img src=""img/animal4.png"" style=""width:200px; border:14px solid green;"">","null","","","","","",""
"","image-keyboard-response","30","44136","0.0-30.0","3DYGAII7PMU2Q1QUWYDNJZH1N2TPQU","A24G8GL5FX1KAW","3KVQ0UJWPX71V463XQYDOZYIDLRW5D","","1425.699999988079","img/animal5.png","76","1427.2000000476837","3","1","3","1,0.7,0,1,0.7,0,0.7,0,1",""
"","html-keyboard-response","31","44445","0.0-31.0","3DYGAII7PMU2Q1QUWYDNJZH1N2TPQU","A24G8GL5FX1KAW","3KVQ0UJWPX71V463XQYDOZYIDLRW5D","","null","<img src=""img/animal5.png"" style=""width:200px; border:14px solid green;"">","null","","","","","",""
"","image-keyboard-response","32","45544","0.0-32.0","3DYGAII7PMU2Q1QUWYDNJZH1N2TPQU","A24G8GL5FX1KAW","3KVQ0UJWPX71V463XQYDOZYIDLRW5D","","1096.8999999761581","img/animal1.png","74","1098.5999999642372","1","1","1","1,0.7,0,1,0.7,0,0.7,0,1",""
"","html-keyboard-response","33","45860","0.0-33.0","3DYGAII7PMU2Q1QUWYDNJZH1N2TPQU","A24G8GL5FX1KAW","3KVQ0UJWPX71V463XQYDOZYIDLRW5D","","null","<img src=""img/animal1.png"" style=""width:200px; border:14px solid green;"">","null","","","","","",""
"","image-keyboard-response","34","46776","0.0-34.0","3DYGAII7PMU2Q1QUWYDNJZH1N2TPQU","A24G8GL5FX1KAW","3KVQ0UJWPX71V463XQYDOZYIDLRW5D","","909.5","img/animal5.png","76","915.1999999880791","3","1","3","1,0.7,0,1,0.7,0,0.7,0,1",""
"","html-keyboard-response","35","47084","0.0-35.0","3DYGAII7PMU2Q1QUWYDNJZH1N2TPQU","A24G8GL5FX1KAW","3KVQ0UJWPX71V463XQYDOZYIDLRW5D","","null","<img src=""img/animal5.png"" style=""width:200px; border:14px solid green;"">","null","","","","","",""
"","image-keyboard-response","36","47879","0.0-36.0","3DYGAII7PMU2Q1QUWYDNJZH1N2TPQU","A24G8GL5FX1KAW","3KVQ0UJWPX71V463XQYDOZYIDLRW5D","","792.9000000357628","img/animal4.png","74","794.5","1","1","2","1,0.7,0,1,0.7,0,0.7,0,1",""
"","html-keyboard-response","37","48188","0.0-37.0","3DYGAII7PMU2Q1QUWYDNJZH1N2TPQU","A24G8GL5FX1KAW","3KVQ0UJWPX71V463XQYDOZYIDLRW5D","","null","<img src=""img/animal4.png"" style=""width:200px; border:14px solid green;"">","null","","","","","",""
"","image-keyboard-response","38","49369","0.0-38.0","3DYGAII7PMU2Q1QUWYDNJZH1N2TPQU","A24G8GL5FX1KAW","3KVQ0UJWPX71V463XQYDOZYIDLRW5D","","1179.199999988079","img/animal5.png","76","1180.5999999642372","3","1","3","1,0.7,0,1,0.7,0,0.7,0,1",""
"","html-keyboard-response","39","49676","0.0-39.0","3DYGAII7PMU2Q1QUWYDNJZH1N2TPQU","A24G8GL5FX1KAW","3KVQ0UJWPX71V463XQYDOZYIDLRW5D","","null","<img src=""img/animal5.png"" style=""width:200px; border:14px solid green;"">","null","","","","","",""
"","image-keyboard-response","40","50407","0.0-40.0","3DYGAII7PMU2Q1QUWYDNJZH1N2TPQU","A24G8GL5FX1KAW","3KVQ0UJWPX71V463XQYDOZYIDLRW5D","","728.3999999761581","img/animal1.png","74","730.1000000238419","1","1","1","1,0.7,0,1,0.7,0,0.7,0,1",""
"","html-keyboard-response","41","50716","0.0-41.0","3DYGAII7PMU2Q1QUWYDNJZH1N2TPQU","A24G8GL5FX1KAW","3KVQ0UJWPX71V463XQYDOZYIDLRW5D","","null","<img src=""img/animal1.png"" style=""width:200px; border:14px solid green;"">","null","","","","","",""
"","image-keyboard-response","42","51194","0.0-42.0","3DYGAII7PMU2Q1QUWYDNJZH1N2TPQU","A24G8GL5FX1KAW","3KVQ0UJWPX71V463XQYDOZYIDLRW5D","","476.10000002384186","img/animal1.png","74","477.69999998807907","1","1","1","1,0.7,0,1,0.7,0,0.7,0,1",""
"","html-keyboard-response","43","51500","0.0-43.0","3DYGAII7PMU2Q1QUWYDNJZH1N2TPQU","A24G8GL5FX1KAW","3KVQ0UJWPX71V463XQYDOZYIDLRW5D","","null","<img src=""img/animal1.png"" style=""width:200px; border:14px solid green;"">","null","","","","","",""
"","image-keyboard-response","44","51858","0.0-44.0","3DYGAII7PMU2Q1QUWYDNJZH1N2TPQU","A24G8GL5FX1KAW","3KVQ0UJWPX71V463XQYDOZYIDLRW5D","","356.2000000476837","img/animal1.png","74","357.69999998807907","1","1","1","1,0.7,0,1,0.7,0,0.7,0,1",""
"","html-keyboard-response","45","52165","0.0-45.0","3DYGAII7PMU2Q1QUWYDNJZH1N2TPQU","A24G8GL5FX1KAW","3KVQ0UJWPX71V463XQYDOZYIDLRW5D","","null","<img src=""img/animal1.png"" style=""width:200px; border:14px solid green;"">","null","","","","","",""
"","image-keyboard-response","46","52904","0.0-46.0","3DYGAII7PMU2Q1QUWYDNJZH1N2TPQU","A24G8GL5FX1KAW","3KVQ0UJWPX71V463XQYDOZYIDLRW5D","","737.6000000238419","img/animal4.png","76","739.3999999761581","3","0","2","1,0.7,0,1,0.7,0,0.7,0,1",""
"","html-keyboard-response","47","53213","0.0-47.0","3DYGAII7PMU2Q1QUWYDNJZH1N2TPQU","A24G8GL5FX1KAW","3KVQ0UJWPX71V463XQYDOZYIDLRW5D","","null","<img src=""img/animal4.png"" style=""width:200px;border:14px solid red;"">","null","","","","","",""
"","image-keyboard-response","48","53995","0.0-48.0","3DYGAII7PMU2Q1QUWYDNJZH1N2TPQU","A24G8GL5FX1KAW","3KVQ0UJWPX71V463XQYDOZYIDLRW5D","","780.1000000238419","img/animal4.png","74","781.8000000119209","1","1","2","1,0.7,0,1,0.7,0,0.7,0,1",""
"","html-keyboard-response","49","54300","0.0-49.0","3DYGAII7PMU2Q1QUWYDNJZH1N2TPQU","A24G8GL5FX1KAW","3KVQ0UJWPX71V463XQYDOZYIDLRW5D","","null","<img src=""img/animal4.png"" style=""width:200px; border:14px solid green;"">","null","","","","","",""
"","image-keyboard-response","50","54724","0.0-50.0","3DYGAII7PMU2Q1QUWYDNJZH1N2TPQU","A24G8GL5FX1KAW","3KVQ0UJWPX71V463XQYDOZYIDLRW5D","","421.80000001192093","img/animal4.png","74","423.60000002384186","1","1","2","1,0.7,0,1,0.7,0,0.7,0,1",""
"","html-keyboard-response","51","55028","0.0-51.0","3DYGAII7PMU2Q1QUWYDNJZH1N2TPQU","A24G8GL5FX1KAW","3KVQ0UJWPX71V463XQYDOZYIDLRW5D","","null","<img src=""img/animal4.png"" style=""width:200px; border:14px solid green;"">","null","","","","","",""
"","image-keyboard-response","52","55887","0.0-52.0","3DYGAII7PMU2Q1QUWYDNJZH1N2TPQU","A24G8GL5FX1KAW","3KVQ0UJWPX71V463XQYDOZYIDLRW5D","","857","img/animal5.png","76","858.8999999761581","3","1","3","1,0.7,0,1,0.7,0,0.7,0,1",""
"","html-keyboard-response","53","56196","0.0-53.0","3DYGAII7PMU2Q1QUWYDNJZH1N2TPQU","A24G8GL5FX1KAW","3KVQ0UJWPX71V463XQYDOZYIDLRW5D","","null","<img src=""img/animal5.png"" style=""width:200px; border:14px solid green;"">","null","","","","","",""
"","image-keyboard-response","54","56891","0.0-54.0","3DYGAII7PMU2Q1QUWYDNJZH1N2TPQU","A24G8GL5FX1KAW","3KVQ0UJWPX71V463XQYDOZYIDLRW5D","","693.2999999523163","img/animal4.png","74","694.8999999761581","1","1","2","1,0.7,0,1,0.7,0,0.7,0,1",""
"","html-keyboard-response","55","57196","0.0-55.0","3DYGAII7PMU2Q1QUWYDNJZH1N2TPQU","A24G8GL5FX1KAW","3KVQ0UJWPX71V463XQYDOZYIDLRW5D","","null","<img src=""img/animal4.png"" style=""width:200px; border:14px solid green;"">","null","","","","","",""
"","image-keyboard-response","56","57617","0.0-56.0","3DYGAII7PMU2Q1QUWYDNJZH1N2TPQU","A24G8GL5FX1KAW","3KVQ0UJWPX71V463XQYDOZYIDLRW5D","","419.10000002384186","img/animal4.png","74","421.0999999642372","1","1","2","1,0.7,0,1,0.7,0,0.7,0,1",""
"","html-keyboard-response","57","57928","0.0-57.0","3DYGAII7PMU2Q1QUWYDNJZH1N2TPQU","A24G8GL5FX1KAW","3KVQ0UJWPX71V463XQYDOZYIDLRW5D","","null","<img src=""img/animal4.png"" style=""width:200px; border:14px solid green;"">","null","","","","","",""
"","image-keyboard-response","58","58304","0.0-58.0","3DYGAII7PMU2Q1QUWYDNJZH1N2TPQU","A24G8GL5FX1KAW","3KVQ0UJWPX71V463XQYDOZYIDLRW5D","","374.5","img/animal4.png","74","375.80000001192093","1","1","2","1,0.7,0,1,0.7,0,0.7,0,1",""
"","html-keyboard-response","59","58613","0.0-59.0","3DYGAII7PMU2Q1QUWYDNJZH1N2TPQU","A24G8GL5FX1KAW","3KVQ0UJWPX71V463XQYDOZYIDLRW5D","","null","<img src=""img/animal4.png"" style=""width:200px; border:14px solid green;"">","null","","","","","",""
"","image-keyboard-response","60","59363","0.0-60.0","3DYGAII7PMU2Q1QUWYDNJZH1N2TPQU","A24G8GL5FX1KAW","3KVQ0UJWPX71V463XQYDOZYIDLRW5D","","748.9000000357628","img/animal1.png","74","750.6999999880791","1","1","1","1,0.7,0,1,0.7,0,0.7,0,1",""
"","html-keyboard-response","61","59669","0.0-61.0","3DYGAII7PMU2Q1QUWYDNJZH1N2TPQU","A24G8GL5FX1KAW","3KVQ0UJWPX71V463XQYDOZYIDLRW5D","","null","<img src=""img/animal1.png"" style=""width:200px; border:14px solid green;"">","null","","","","","",""
"","image-keyboard-response","62","60021","0.0-62.0","3DYGAII7PMU2Q1QUWYDNJZH1N2TPQU","A24G8GL5FX1KAW","3KVQ0UJWPX71V463XQYDOZYIDLRW5D","","350.69999998807907","img/animal1.png","74","352.2000000476837","1","1","1","1,0.7,0,1,0.7,0,0.7,0,1",""
"","html-keyboard-response","63","60333","0.0-63.0","3DYGAII7PMU2Q1QUWYDNJZH1N2TPQU","A24G8GL5FX1KAW","3KVQ0UJWPX71V463XQYDOZYIDLRW5D","","null","<img src=""img/animal1.png"" style=""width:200px; border:14px solid green;"">","null","","","","","",""
"","image-keyboard-response","64","60673","0.0-64.0","3DYGAII7PMU2Q1QUWYDNJZH1N2TPQU","A24G8GL5FX1KAW","3KVQ0UJWPX71V463XQYDOZYIDLRW5D","","337.89999997615814","img/animal1.png","74","339.5","1","1","1","1,0.7,0,1,0.7,0,0.7,0,1",""
"","html-keyboard-response","65","60981","0.0-65.0","3DYGAII7PMU2Q1QUWYDNJZH1N2TPQU","A24G8GL5FX1KAW","3KVQ0UJWPX71V463XQYDOZYIDLRW5D","","null","<img src=""img/animal1.png"" style=""width:200px; border:14px solid green;"">","null","","","","","",""
"","image-keyboard-response","66","61685","0.0-66.0","3DYGAII7PMU2Q1QUWYDNJZH1N2TPQU","A24G8GL5FX1KAW","3KVQ0UJWPX71V463XQYDOZYIDLRW5D","","702.4000000357628","img/animal4.png","74","704","1","1","2","1,0.7,0,1,0.7,0,0.7,0,1",""
"","html-keyboard-response","67","61989","0.0-67.0","3DYGAII7PMU2Q1QUWYDNJZH1N2TPQU","A24G8GL5FX1KAW","3KVQ0UJWPX71V463XQYDOZYIDLRW5D","","null","<img src=""img/animal4.png"" style=""width:200px; border:14px solid green;"">","null","","","","","",""
"","image-keyboard-response","68","62740","0.0-68.0","3DYGAII7PMU2Q1QUWYDNJZH1N2TPQU","A24G8GL5FX1KAW","3KVQ0UJWPX71V463XQYDOZYIDLRW5D","","750","img/animal5.png","76","751.5","3","1","3","1,0.7,0,1,0.7,0,0.7,0,1",""
"","html-keyboard-response","69","63045","0.0-69.0","3DYGAII7PMU2Q1QUWYDNJZH1N2TPQU","A24G8GL5FX1KAW","3KVQ0UJWPX71V463XQYDOZYIDLRW5D","","null","<img src=""img/animal5.png"" style=""width:200px; border:14px solid green;"">","null","","","","","",""
"","image-keyboard-response","70","63743","0.0-70.0","3DYGAII7PMU2Q1QUWYDNJZH1N2TPQU","A24G8GL5FX1KAW","3KVQ0UJWPX71V463XQYDOZYIDLRW5D","","696.7000000476837","img/animal1.png","74","698.3000000119209","1","1","1","1,0.7,0,1,0.7,0,0.7,0,1",""
"","html-keyboard-response","71","64052","0.0-71.0","3DYGAII7PMU2Q1QUWYDNJZH1N2TPQU","A24G8GL5FX1KAW","3KVQ0UJWPX71V463XQYDOZYIDLRW5D","","null","<img src=""img/animal1.png"" style=""width:200px; border:14px solid green;"">","null","","","","","",""
"","image-keyboard-response","72","65064","0.0-72.0","3DYGAII7PMU2Q1QUWYDNJZH1N2TPQU","A24G8GL5FX1KAW","3KVQ0UJWPX71V463XQYDOZYIDLRW5D","","1010.3000000119209","img/animal5.png","76","1012","3","1","3","1,0.7,0,1,0.7,0,0.7,0,1",""
"","html-keyboard-response","73","65373","0.0-73.0","3DYGAII7PMU2Q1QUWYDNJZH1N2TPQU","A24G8GL5FX1KAW","3KVQ0UJWPX71V463XQYDOZYIDLRW5D","","null","<img src=""img/animal5.png"" style=""width:200px; border:14px solid green;"">","null","","","","","",""
"","image-keyboard-response","74","66148","0.0-74.0","3DYGAII7PMU2Q1QUWYDNJZH1N2TPQU","A24G8GL5FX1KAW","3KVQ0UJWPX71V463XQYDOZYIDLRW5D","","773.5","img/animal1.png","74","775","1","1","1","1,0.7,0,1,0.7,0,0.7,0,1",""
"","html-keyboard-response","75","66453","0.0-75.0","3DYGAII7PMU2Q1QUWYDNJZH1N2TPQU","A24G8GL5FX1KAW","3KVQ0UJWPX71V463XQYDOZYIDLRW5D","","null","<img src=""img/animal1.png"" style=""width:200px; border:14px solid green;"">","null","","","","","",""
"","image-keyboard-response","76","67375","0.0-76.0","3DYGAII7PMU2Q1QUWYDNJZH1N2TPQU","A24G8GL5FX1KAW","3KVQ0UJWPX71V463XQYDOZYIDLRW5D","","920.6999999880791","img/animal5.png","76","922","3","1","3","1,0.7,0,1,0.7,0,0.7,0,1",""
"","html-keyboard-response","77","67694","0.0-77.0","3DYGAII7PMU2Q1QUWYDNJZH1N2TPQU","A24G8GL5FX1KAW","3KVQ0UJWPX71V463XQYDOZYIDLRW5D","","null","<img src=""img/animal5.png"" style=""width:200px; border:14px solid green;"">","null","","","","","",""
"","image-keyboard-response","78","68179","0.0-78.0","3DYGAII7PMU2Q1QUWYDNJZH1N2TPQU","A24G8GL5FX1KAW","3KVQ0UJWPX71V463XQYDOZYIDLRW5D","","477.39999997615814","img/animal5.png","76","479.89999997615814","3","1","3","1,0.7,0,1,0.7,0,0.7,0,1",""
"","html-keyboard-response","79","68484","0.0-79.0","3DYGAII7PMU2Q1QUWYDNJZH1N2TPQU","A24G8GL5FX1KAW","3KVQ0UJWPX71V463XQYDOZYIDLRW5D","","null","<img src=""img/animal5.png"" style=""width:200px; border:14px solid green;"">","null","","","","","",""
"","image-keyboard-response","80","69223","0.0-80.0","3DYGAII7PMU2Q1QUWYDNJZH1N2TPQU","A24G8GL5FX1KAW","3KVQ0UJWPX71V463XQYDOZYIDLRW5D","","736.5","img/animal4.png","74","738.2000000476837","1","1","2","1,0.7,0,1,0.7,0,0.7,0,1",""
"","html-keyboard-response","81","69533","0.0-81.0","3DYGAII7PMU2Q1QUWYDNJZH1N2TPQU","A24G8GL5FX1KAW","3KVQ0UJWPX71V463XQYDOZYIDLRW5D","","null","<img src=""img/animal4.png"" style=""width:200px; border:14px solid green;"">","null","","","","","",""
"","image-keyboard-response","82","70300","0.0-82.0","3DYGAII7PMU2Q1QUWYDNJZH1N2TPQU","A24G8GL5FX1KAW","3KVQ0UJWPX71V463XQYDOZYIDLRW5D","","765.6000000238419","img/animal1.png","74","767.5","1","1","1","1,0.7,0,1,0.7,0,0.7,0,1",""
"","html-keyboard-response","83","70605","0.0-83.0","3DYGAII7PMU2Q1QUWYDNJZH1N2TPQU","A24G8GL5FX1KAW","3KVQ0UJWPX71V463XQYDOZYIDLRW5D","","null","<img src=""img/animal1.png"" style=""width:200px; border:14px solid green;"">","null","","","","","",""
"","image-keyboard-response","84","71294","0.0-84.0","3DYGAII7PMU2Q1QUWYDNJZH1N2TPQU","A24G8GL5FX1KAW","3KVQ0UJWPX71V463XQYDOZYIDLRW5D","","686.8999999761581","img/animal5.png","76","688.8000000119209","3","1","3","1,0.7,0,1,0.7,0,0.7,0,1",""
"","html-keyboard-response","85","71605","0.0-85.0","3DYGAII7PMU2Q1QUWYDNJZH1N2TPQU","A24G8GL5FX1KAW","3KVQ0UJWPX71V463XQYDOZYIDLRW5D","","null","<img src=""img/animal5.png"" style=""width:200px; border:14px solid green;"">","null","","","","","",""
"","image-keyboard-response","86","72539","0.0-86.0","3DYGAII7PMU2Q1QUWYDNJZH1N2TPQU","A24G8GL5FX1KAW","3KVQ0UJWPX71V463XQYDOZYIDLRW5D","","932","img/animal4.png","74","933.5","1","1","2","1,0.7,0,1,0.7,0,0.7,0,1",""
"","html-keyboard-response","87","72844","0.0-87.0","3DYGAII7PMU2Q1QUWYDNJZH1N2TPQU","A24G8GL5FX1KAW","3KVQ0UJWPX71V463XQYDOZYIDLRW5D","","null","<img src=""img/animal4.png"" style=""width:200px; border:14px solid green;"">","null","","","","","",""
"","image-keyboard-response","88","73516","0.0-88.0","3DYGAII7PMU2Q1QUWYDNJZH1N2TPQU","A24G8GL5FX1KAW","3KVQ0UJWPX71V463XQYDOZYIDLRW5D","","669.6999999880791","img/animal1.png","74","671.3000000119209","1","1","1","1,0.7,0,1,0.7,0,0.7,0,1",""
"","html-keyboard-response","89","73820","0.0-89.0","3DYGAII7PMU2Q1QUWYDNJZH1N2TPQU","A24G8GL5FX1KAW","3KVQ0UJWPX71V463XQYDOZYIDLRW5D","","null","<img src=""img/animal1.png"" style=""width:200px; border:14px solid green;"">","null","","","","","",""
"","image-keyboard-response","90","74881","0.0-90.0","3DYGAII7PMU2Q1QUWYDNJZH1N2TPQU","A24G8GL5FX1KAW","3KVQ0UJWPX71V463XQYDOZYIDLRW5D","","1059.199999988079","img/animal4.png","74","1060.8999999761581","1","1","2","1,0.7,0,1,0.7,0,0.7,0,1",""
"","html-keyboard-response","91","75188","0.0-91.0","3DYGAII7PMU2Q1QUWYDNJZH1N2TPQU","A24G8GL5FX1KAW","3KVQ0UJWPX71V463XQYDOZYIDLRW5D","","null","<img src=""img/animal4.png"" style=""width:200px; border:14px solid green;"">","null","","","","","",""
"","image-keyboard-response","92","75900","0.0-92.0","3DYGAII7PMU2Q1QUWYDNJZH1N2TPQU","A24G8GL5FX1KAW","3KVQ0UJWPX71V463XQYDOZYIDLRW5D","","709.5","img/animal5.png","76","711.1000000238419","3","1","3","1,0.7,0,1,0.7,0,0.7,0,1",""
"","html-keyboard-response","93","76204","0.0-93.0","3DYGAII7PMU2Q1QUWYDNJZH1N2TPQU","A24G8GL5FX1KAW","3KVQ0UJWPX71V463XQYDOZYIDLRW5D","","null","<img src=""img/animal5.png"" style=""width:200px; border:14px solid green;"">","null","","","","","",""
"","image-keyboard-response","94","76663","0.0-94.0","3DYGAII7PMU2Q1QUWYDNJZH1N2TPQU","A24G8GL5FX1KAW","3KVQ0UJWPX71V463XQYDOZYIDLRW5D","","456.89999997615814","img/animal5.png","76","458.5","3","1","3","1,0.7,0,1,0.7,0,0.7,0,1",""
"","html-keyboard-response","95","76972","0.0-95.0","3DYGAII7PMU2Q1QUWYDNJZH1N2TPQU","A24G8GL5FX1KAW","3KVQ0UJWPX71V463XQYDOZYIDLRW5D","","null","<img src=""img/animal5.png"" style=""width:200px; border:14px solid green;"">","null","","","","","",""
"","image-keyboard-response","96","77626","0.0-96.0","3DYGAII7PMU2Q1QUWYDNJZH1N2TPQU","A24G8GL5FX1KAW","3KVQ0UJWPX71V463XQYDOZYIDLRW5D","","652","img/animal1.png","74","653.3999999761581","1","1","1","1,0.7,0,1,0.7,0,0.7,0,1",""
"","html-keyboard-response","97","77932","0.0-97.0","3DYGAII7PMU2Q1QUWYDNJZH1N2TPQU","A24G8GL5FX1KAW","3KVQ0UJWPX71V463XQYDOZYIDLRW5D","","null","<img src=""img/animal1.png"" style=""width:200px; border:14px solid green;"">","null","","","","","",""
"","image-keyboard-response","98","79043","0.0-98.0","3DYGAII7PMU2Q1QUWYDNJZH1N2TPQU","A24G8GL5FX1KAW","3KVQ0UJWPX71V463XQYDOZYIDLRW5D","","1109.5","img/animal4.png","74","1111.300000011921","1","1","2","1,0.7,0,1,0.7,0,0.7,0,1",""
"","html-keyboard-response","99","79348","0.0-99.0","3DYGAII7PMU2Q1QUWYDNJZH1N2TPQU","A24G8GL5FX1KAW","3KVQ0UJWPX71V463XQYDOZYIDLRW5D","","null","<img src=""img/animal4.png"" style=""width:200px; border:14px solid green;"">","null","","","","","",""
"","image-keyboard-response","100","80081","0.0-100.0","3DYGAII7PMU2Q1QUWYDNJZH1N2TPQU","A24G8GL5FX1KAW","3KVQ0UJWPX71V463XQYDOZYIDLRW5D","","730.3999999761581","img/animal1.png","74","732.0999999642372","1","1","1","1,0.7,0,1,0.7,0,0.7,0,1",""
"","html-keyboard-response","101","80388","0.0-101.0","3DYGAII7PMU2Q1QUWYDNJZH1N2TPQU","A24G8GL5FX1KAW","3KVQ0UJWPX71V463XQYDOZYIDLRW5D","","null","<img src=""img/animal1.png"" style=""width:200px; border:14px solid green;"">","null","","","","","",""
"","image-keyboard-response","102","80795","0.0-102.0","3DYGAII7PMU2Q1QUWYDNJZH1N2TPQU","A24G8GL5FX1KAW","3KVQ0UJWPX71V463XQYDOZYIDLRW5D","","405.39999997615814","img/animal1.png","74","407","1","1","1","1,0.7,0,1,0.7,0,0.7,0,1",""
"","html-keyboard-response","103","81100","0.0-103.0","3DYGAII7PMU2Q1QUWYDNJZH1N2TPQU","A24G8GL5FX1KAW","3KVQ0UJWPX71V463XQYDOZYIDLRW5D","","null","<img src=""img/animal1.png"" style=""width:200px; border:14px solid green;"">","null","","","","","",""
"","image-keyboard-response","104","82160","0.0-104.0","3DYGAII7PMU2Q1QUWYDNJZH1N2TPQU","A24G8GL5FX1KAW","3KVQ0UJWPX71V463XQYDOZYIDLRW5D","","1058","img/animal5.png","76","1059.5999999642372","3","1","3","1,0.7,0,1,0.7,0,0.7,0,1",""
"","html-keyboard-response","105","82468","0.0-105.0","3DYGAII7PMU2Q1QUWYDNJZH1N2TPQU","A24G8GL5FX1KAW","3KVQ0UJWPX71V463XQYDOZYIDLRW5D","","null","<img src=""img/animal5.png"" style=""width:200px; border:14px solid green;"">","null","","","","","",""
"","image-keyboard-response","106","83048","0.0-106.0","3DYGAII7PMU2Q1QUWYDNJZH1N2TPQU","A24G8GL5FX1KAW","3KVQ0UJWPX71V463XQYDOZYIDLRW5D","","578.1000000238419","img/animal4.png","74","579.5","1","1","2","1,0.7,0,1,0.7,0,0.7,0,1",""
"","html-keyboard-response","107","83357","0.0-107.0","3DYGAII7PMU2Q1QUWYDNJZH1N2TPQU","A24G8GL5FX1KAW","3KVQ0UJWPX71V463XQYDOZYIDLRW5D","","null","<img src=""img/animal4.png"" style=""width:200px; border:14px solid green;"">","null","","","","","",""
"","image-keyboard-response","108","84299","0.0-108.0","3DYGAII7PMU2Q1QUWYDNJZH1N2TPQU","A24G8GL5FX1KAW","3KVQ0UJWPX71V463XQYDOZYIDLRW5D","","940.9000000357628","img/animal1.png","74","942.5999999642372","1","1","1","1,0.7,0,1,0.7,0,0.7,0,1",""
"","html-keyboard-response","109","84604","0.0-109.0","3DYGAII7PMU2Q1QUWYDNJZH1N2TPQU","A24G8GL5FX1KAW","3KVQ0UJWPX71V463XQYDOZYIDLRW5D","","null","<img src=""img/animal1.png"" style=""width:200px; border:14px solid green;"">","null","","","","","",""
"","image-keyboard-response","110","85054","0.0-110.0","3DYGAII7PMU2Q1QUWYDNJZH1N2TPQU","A24G8GL5FX1KAW","3KVQ0UJWPX71V463XQYDOZYIDLRW5D","","447.30000001192093","img/animal1.png","74","448.9000000357628","1","1","1","1,0.7,0,1,0.7,0,0.7,0,1",""
"","html-keyboard-response","111","85364","0.0-111.0","3DYGAII7PMU2Q1QUWYDNJZH1N2TPQU","A24G8GL5FX1KAW","3KVQ0UJWPX71V463XQYDOZYIDLRW5D","","null","<img src=""img/animal1.png"" style=""width:200px; border:14px solid green;"">","null","","","","","",""
"","image-keyboard-response","112","85692","0.0-112.0","3DYGAII7PMU2Q1QUWYDNJZH1N2TPQU","A24G8GL5FX1KAW","3KVQ0UJWPX71V463XQYDOZYIDLRW5D","","326.10000002384186","img/animal1.png","74","327.5999999642372","1","1","1","1,0.7,0,1,0.7,0,0.7,0,1",""
"","html-keyboard-response","113","85996","0.0-113.0","3DYGAII7PMU2Q1QUWYDNJZH1N2TPQU","A24G8GL5FX1KAW","3KVQ0UJWPX71V463XQYDOZYIDLRW5D","","null","<img src=""img/animal1.png"" style=""width:200px; border:14px solid green;"">","null","","","","","",""
"","image-keyboard-response","114","86653","0.0-114.0","3DYGAII7PMU2Q1QUWYDNJZH1N2TPQU","A24G8GL5FX1KAW","3KVQ0UJWPX71V463XQYDOZYIDLRW5D","","654.2999999523163","img/animal5.png","76","656.1000000238419","3","1","3","1,0.7,0,1,0.7,0,0.7,0,1",""
"","html-keyboard-response","115","86956","0.0-115.0","3DYGAII7PMU2Q1QUWYDNJZH1N2TPQU","A24G8GL5FX1KAW","3KVQ0UJWPX71V463XQYDOZYIDLRW5D","","null","<img src=""img/animal5.png"" style=""width:200px; border:14px solid green;"">","null","","","","","",""
"","image-keyboard-response","116","87584","0.0-116.0","3DYGAII7PMU2Q1QUWYDNJZH1N2TPQU","A24G8GL5FX1KAW","3KVQ0UJWPX71V463XQYDOZYIDLRW5D","","626.0999999642372","img/animal4.png","74","627.8000000119209","1","1","2","1,0.7,0,1,0.7,0,0.7,0,1",""
"","html-keyboard-response","117","87892","0.0-117.0","3DYGAII7PMU2Q1QUWYDNJZH1N2TPQU","A24G8GL5FX1KAW","3KVQ0UJWPX71V463XQYDOZYIDLRW5D","","null","<img src=""img/animal4.png"" style=""width:200px; border:14px solid green;"">","null","","","","","",""
"","image-keyboard-response","118","88222","0.0-118.0","3DYGAII7PMU2Q1QUWYDNJZH1N2TPQU","A24G8GL5FX1KAW","3KVQ0UJWPX71V463XQYDOZYIDLRW5D","","327.5","img/animal4.png","74","329.30000001192093","1","1","2","1,0.7,0,1,0.7,0,0.7,0,1",""
"","html-keyboard-response","119","88532","0.0-119.0","3DYGAII7PMU2Q1QUWYDNJZH1N2TPQU","A24G8GL5FX1KAW","3KVQ0UJWPX71V463XQYDOZYIDLRW5D","","null","<img src=""img/animal4.png"" style=""width:200px; border:14px solid green;"">","null","","","","","",""
"","image-keyboard-response","120","88901","0.0-120.0","3DYGAII7PMU2Q1QUWYDNJZH1N2TPQU","A24G8GL5FX1KAW","3KVQ0UJWPX71V463XQYDOZYIDLRW5D","","367.30000001192093","img/animal4.png","74","369","1","1","2","1,0.7,0,1,0.7,0,0.7,0,1",""
"","html-keyboard-response","121","89212","0.0-121.0","3DYGAII7PMU2Q1QUWYDNJZH1N2TPQU","A24G8GL5FX1KAW","3KVQ0UJWPX71V463XQYDOZYIDLRW5D","","null","<img src=""img/animal4.png"" style=""width:200px; border:14px solid green;"">","null","","","","","",""
"","image-keyboard-response","122","89550","0.0-122.0","3DYGAII7PMU2Q1QUWYDNJZH1N2TPQU","A24G8GL5FX1KAW","3KVQ0UJWPX71V463XQYDOZYIDLRW5D","","335.7000000476837","img/animal4.png","74","337.10000002384186","1","1","2","1,0.7,0,1,0.7,0,0.7,0,1",""
"","html-keyboard-response","123","89861","0.0-123.0","3DYGAII7PMU2Q1QUWYDNJZH1N2TPQU","A24G8GL5FX1KAW","3KVQ0UJWPX71V463XQYDOZYIDLRW5D","","null","<img src=""img/animal4.png"" style=""width:200px; border:14px solid green;"">","null","","","","","",""
"","image-keyboard-response","124","90458","0.0-124.0","3DYGAII7PMU2Q1QUWYDNJZH1N2TPQU","A24G8GL5FX1KAW","3KVQ0UJWPX71V463XQYDOZYIDLRW5D","","595.7000000476837","img/animal5.png","76","597.3000000119209","3","1","3","1,0.7,0,1,0.7,0,0.7,0,1",""
"","html-keyboard-response","125","90764","0.0-125.0","3DYGAII7PMU2Q1QUWYDNJZH1N2TPQU","A24G8GL5FX1KAW","3KVQ0UJWPX71V463XQYDOZYIDLRW5D","","null","<img src=""img/animal5.png"" style=""width:200px; border:14px solid green;"">","null","","","","","",""
"","image-keyboard-response","126","91127","0.0-126.0","3DYGAII7PMU2Q1QUWYDNJZH1N2TPQU","A24G8GL5FX1KAW","3KVQ0UJWPX71V463XQYDOZYIDLRW5D","","361.19999998807907","img/animal5.png","76","362.7999999523163","3","1","3","1,0.7,0,1,0.7,0,0.7,0,1",""
"","html-keyboard-response","127","91436","0.0-127.0","3DYGAII7PMU2Q1QUWYDNJZH1N2TPQU","A24G8GL5FX1KAW","3KVQ0UJWPX71V463XQYDOZYIDLRW5D","","null","<img src=""img/animal5.png"" style=""width:200px; border:14px solid green;"">","null","","","","","",""
"","image-keyboard-response","128","91796","0.0-128.0","3DYGAII7PMU2Q1QUWYDNJZH1N2TPQU","A24G8GL5FX1KAW","3KVQ0UJWPX71V463XQYDOZYIDLRW5D","","358.7999999523163","img/animal5.png","76","360.4000000357628","3","1","3","1,0.7,0,1,0.7,0,0.7,0,1",""
"","html-keyboard-response","129","92100","0.0-129.0","3DYGAII7PMU2Q1QUWYDNJZH1N2TPQU","A24G8GL5FX1KAW","3KVQ0UJWPX71V463XQYDOZYIDLRW5D","","null","<img src=""img/animal5.png"" style=""width:200px; border:14px solid green;"">","null","","","","","",""
"","image-keyboard-response","130","92551","0.0-130.0","3DYGAII7PMU2Q1QUWYDNJZH1N2TPQU","A24G8GL5FX1KAW","3KVQ0UJWPX71V463XQYDOZYIDLRW5D","","449.30000001192093","img/animal1.png","74","450.89999997615814","1","1","1","1,0.7,0,1,0.7,0,0.7,0,1",""
"","html-keyboard-response","131","92864","0.0-131.0","3DYGAII7PMU2Q1QUWYDNJZH1N2TPQU","A24G8GL5FX1KAW","3KVQ0UJWPX71V463XQYDOZYIDLRW5D","","null","<img src=""img/animal1.png"" style=""width:200px; border:14px solid green;"">","null","","","","","",""
"","image-keyboard-response","132","93244","0.0-132.0","3DYGAII7PMU2Q1QUWYDNJZH1N2TPQU","A24G8GL5FX1KAW","3KVQ0UJWPX71V463XQYDOZYIDLRW5D","","378.2000000476837","img/animal1.png","74","379.69999998807907","1","1","1","1,0.7,0,1,0.7,0,0.7,0,1",""
"","html-keyboard-response","133","93549","0.0-133.0","3DYGAII7PMU2Q1QUWYDNJZH1N2TPQU","A24G8GL5FX1KAW","3KVQ0UJWPX71V463XQYDOZYIDLRW5D","","null","<img src=""img/animal1.png"" style=""width:200px; border:14px solid green;"">","null","","","","","",""
"","image-keyboard-response","134","93889","0.0-134.0","3DYGAII7PMU2Q1QUWYDNJZH1N2TPQU","A24G8GL5FX1KAW","3KVQ0UJWPX71V463XQYDOZYIDLRW5D","","338.5","img/animal1.png","74","340.4000000357628","1","1","1","1,0.7,0,1,0.7,0,0.7,0,1",""
"","html-keyboard-response","135","94196","0.0-135.0","3DYGAII7PMU2Q1QUWYDNJZH1N2TPQU","A24G8GL5FX1KAW","3KVQ0UJWPX71V463XQYDOZYIDLRW5D","","null","<img src=""img/animal1.png"" style=""width:200px; border:14px solid green;"">","null","","","","","",""
"","image-keyboard-response","136","94861","0.0-136.0","3DYGAII7PMU2Q1QUWYDNJZH1N2TPQU","A24G8GL5FX1KAW","3KVQ0UJWPX71V463XQYDOZYIDLRW5D","","662.8999999761581","img/animal4.png","74","664.5999999642372","1","1","2","1,0.7,0,1,0.7,0,0.7,0,1",""
"","html-keyboard-response","137","95164","0.0-137.0","3DYGAII7PMU2Q1QUWYDNJZH1N2TPQU","A24G8GL5FX1KAW","3KVQ0UJWPX71V463XQYDOZYIDLRW5D","","null","<img src=""img/animal4.png"" style=""width:200px; border:14px solid green;"">","null","","","","","",""
"","image-keyboard-response","138","95805","0.0-138.0","3DYGAII7PMU2Q1QUWYDNJZH1N2TPQU","A24G8GL5FX1KAW","3KVQ0UJWPX71V463XQYDOZYIDLRW5D","","639.3000000119209","img/animal5.png","76","640.8000000119209","3","1","3","1,0.7,0,1,0.7,0,0.7,0,1",""
"","html-keyboard-response","139","96140","0.0-139.0","3DYGAII7PMU2Q1QUWYDNJZH1N2TPQU","A24G8GL5FX1KAW","3KVQ0UJWPX71V463XQYDOZYIDLRW5D","","null","<img src=""img/animal5.png"" style=""width:200px; border:14px solid green;"">","null","","","","","",""
"","image-keyboard-response","140","96859","0.0-140.0","3DYGAII7PMU2Q1QUWYDNJZH1N2TPQU","A24G8GL5FX1KAW","3KVQ0UJWPX71V463XQYDOZYIDLRW5D","","694.6999999880791","img/animal4.png","74","718.8999999761581","1","1","2","1,0.7,0,1,0.7,0,0.7,0,1",""
"","html-keyboard-response","141","97163","0.0-141.0","3DYGAII7PMU2Q1QUWYDNJZH1N2TPQU","A24G8GL5FX1KAW","3KVQ0UJWPX71V463XQYDOZYIDLRW5D","","null","<img src=""img/animal4.png"" style=""width:200px; border:14px solid green;"">","null","","","","","",""
"","image-keyboard-response","142","97798","0.0-142.0","3DYGAII7PMU2Q1QUWYDNJZH1N2TPQU","A24G8GL5FX1KAW","3KVQ0UJWPX71V463XQYDOZYIDLRW5D","","632.4000000357628","img/animal1.png","74","634.3000000119209","1","1","1","1,0.7,0,1,0.7,0,0.7,0,1",""
"","html-keyboard-response","143","98109","0.0-143.0","3DYGAII7PMU2Q1QUWYDNJZH1N2TPQU","A24G8GL5FX1KAW","3KVQ0UJWPX71V463XQYDOZYIDLRW5D","","null","<img src=""img/animal1.png"" style=""width:200px; border:14px solid green;"">","null","","","","","",""
"","image-keyboard-response","144","98749","0.0-144.0","3DYGAII7PMU2Q1QUWYDNJZH1N2TPQU","A24G8GL5FX1KAW","3KVQ0UJWPX71V463XQYDOZYIDLRW5D","","637.6000000238419","img/animal4.png","74","639.3000000119209","1","1","2","1,0.7,0,1,0.7,0,0.7,0,1",""
"","html-keyboard-response","145","99052","0.0-145.0","3DYGAII7PMU2Q1QUWYDNJZH1N2TPQU","A24G8GL5FX1KAW","3KVQ0UJWPX71V463XQYDOZYIDLRW5D","","null","<img src=""img/animal4.png"" style=""width:200px; border:14px solid green;"">","null","","","","","",""
"","image-keyboard-response","146","99764","0.0-146.0","3DYGAII7PMU2Q1QUWYDNJZH1N2TPQU","A24G8GL5FX1KAW","3KVQ0UJWPX71V463XQYDOZYIDLRW5D","","709.8000000119209","img/animal5.png","76","711.5","3","1","3","1,0.7,0,1,0.7,0,0.7,0,1",""
"","html-keyboard-response","147","100069","0.0-147.0","3DYGAII7PMU2Q1QUWYDNJZH1N2TPQU","A24G8GL5FX1KAW","3KVQ0UJWPX71V463XQYDOZYIDLRW5D","","null","<img src=""img/animal5.png"" style=""width:200px; border:14px solid green;"">","null","","","","","",""
"","image-keyboard-response","148","100625","0.0-148.0","3DYGAII7PMU2Q1QUWYDNJZH1N2TPQU","A24G8GL5FX1KAW","3KVQ0UJWPX71V463XQYDOZYIDLRW5D","","554.1000000238419","img/animal1.png","74","555.6999999880791","1","1","1","1,0.7,0,1,0.7,0,0.7,0,1",""
"","html-keyboard-response","149","100932","0.0-149.0","3DYGAII7PMU2Q1QUWYDNJZH1N2TPQU","A24G8GL5FX1KAW","3KVQ0UJWPX71V463XQYDOZYIDLRW5D","","null","<img src=""img/animal1.png"" style=""width:200px; border:14px solid green;"">","null","","","","","",""
"","image-keyboard-response","150","101851","0.0-150.0","3DYGAII7PMU2Q1QUWYDNJZH1N2TPQU","A24G8GL5FX1KAW","3KVQ0UJWPX71V463XQYDOZYIDLRW5D","","917.8999999761581","img/animal5.png","76","919.5999999642372","3","1","3","1,0.7,0,1,0.7,0,0.7,0,1",""
"","html-keyboard-response","151","102156","0.0-151.0","3DYGAII7PMU2Q1QUWYDNJZH1N2TPQU","A24G8GL5FX1KAW","3KVQ0UJWPX71V463XQYDOZYIDLRW5D","","null","<img src=""img/animal5.png"" style=""width:200px; border:14px solid green;"">","null","","","","","",""
"","image-keyboard-response","152","103543","0.0-152.0","3DYGAII7PMU2Q1QUWYDNJZH1N2TPQU","A24G8GL5FX1KAW","3KVQ0UJWPX71V463XQYDOZYIDLRW5D","","1384.8999999761581","img/animal1.png","74","1386.3999999761581","1","1","1","1,0.7,0,1,0.7,0,0.7,0,1",""
"","html-keyboard-response","153","103853","0.0-153.0","3DYGAII7PMU2Q1QUWYDNJZH1N2TPQU","A24G8GL5FX1KAW","3KVQ0UJWPX71V463XQYDOZYIDLRW5D","","null","<img src=""img/animal1.png"" style=""width:200px; border:14px solid green;"">","null","","","","","",""
"","image-keyboard-response","154","104951","0.0-154.0","3DYGAII7PMU2Q1QUWYDNJZH1N2TPQU","A24G8GL5FX1KAW","3KVQ0UJWPX71V463XQYDOZYIDLRW5D","","1096.199999988079","img/animal4.png","74","1097.300000011921","1","1","2","1,0.7,0,1,0.7,0,0.7,0,1",""
"","html-keyboard-response","155","105260","0.0-155.0","3DYGAII7PMU2Q1QUWYDNJZH1N2TPQU","A24G8GL5FX1KAW","3KVQ0UJWPX71V463XQYDOZYIDLRW5D","","null","<img src=""img/animal4.png"" style=""width:200px; border:14px solid green;"">","null","","","","","",""
"","image-keyboard-response","156","105898","0.0-156.0","3DYGAII7PMU2Q1QUWYDNJZH1N2TPQU","A24G8GL5FX1KAW","3KVQ0UJWPX71V463XQYDOZYIDLRW5D","","635.9000000357628","img/animal1.png","74","637.6000000238419","1","1","1","1,0.7,0,1,0.7,0,0.7,0,1",""
"","html-keyboard-response","157","106205","0.0-157.0","3DYGAII7PMU2Q1QUWYDNJZH1N2TPQU","A24G8GL5FX1KAW","3KVQ0UJWPX71V463XQYDOZYIDLRW5D","","null","<img src=""img/animal1.png"" style=""width:200px; border:14px solid green;"">","null","","","","","",""
"","image-keyboard-response","158","106909","0.0-158.0","3DYGAII7PMU2Q1QUWYDNJZH1N2TPQU","A24G8GL5FX1KAW","3KVQ0UJWPX71V463XQYDOZYIDLRW5D","","702.1999999880791","img/animal4.png","74","703.8000000119209","1","1","2","1,0.7,0,1,0.7,0,0.7,0,1",""
"","html-keyboard-response","159","107220","0.0-159.0","3DYGAII7PMU2Q1QUWYDNJZH1N2TPQU","A24G8GL5FX1KAW","3KVQ0UJWPX71V463XQYDOZYIDLRW5D","","null","<img src=""img/animal4.png"" style=""width:200px; border:14px solid green;"">","null","","","","","",""
"","image-keyboard-response","160","107849","0.0-160.0","3DYGAII7PMU2Q1QUWYDNJZH1N2TPQU","A24G8GL5FX1KAW","3KVQ0UJWPX71V463XQYDOZYIDLRW5D","","627.6000000238419","img/animal5.png","76","629.1999999880791","3","1","3","1,0.7,0,1,0.7,0,0.7,0,1",""
"","html-keyboard-response","161","108167","0.0-161.0","3DYGAII7PMU2Q1QUWYDNJZH1N2TPQU","A24G8GL5FX1KAW","3KVQ0UJWPX71V463XQYDOZYIDLRW5D","","null","<img src=""img/animal5.png"" style=""width:200px; border:14px solid green;"">","null","","","","","",""
"","image-keyboard-response","162","108694","0.0-162.0","3DYGAII7PMU2Q1QUWYDNJZH1N2TPQU","A24G8GL5FX1KAW","3KVQ0UJWPX71V463XQYDOZYIDLRW5D","","507.69999998807907","img/animal5.png","76","517.6999999880791","3","1","3","1,0.7,0,1,0.7,0,0.7,0,1",""
"","html-keyboard-response","163","109004","0.0-163.0","3DYGAII7PMU2Q1QUWYDNJZH1N2TPQU","A24G8GL5FX1KAW","3KVQ0UJWPX71V463XQYDOZYIDLRW5D","","null","<img src=""img/animal5.png"" style=""width:200px; border:14px solid green;"">","null","","","","","",""
"","image-keyboard-response","164","109563","0.0-164.0","3DYGAII7PMU2Q1QUWYDNJZH1N2TPQU","A24G8GL5FX1KAW","3KVQ0UJWPX71V463XQYDOZYIDLRW5D","","556.6999999880791","img/animal1.png","74","558.1999999880791","1","1","1","1,0.7,0,1,0.7,0,0.7,0,1",""
"","html-keyboard-response","165","109868","0.0-165.0","3DYGAII7PMU2Q1QUWYDNJZH1N2TPQU","A24G8GL5FX1KAW","3KVQ0UJWPX71V463XQYDOZYIDLRW5D","","null","<img src=""img/animal1.png"" style=""width:200px; border:14px solid green;"">","null","","","","","",""
"","image-keyboard-response","166","110649","0.0-166.0","3DYGAII7PMU2Q1QUWYDNJZH1N2TPQU","A24G8GL5FX1KAW","3KVQ0UJWPX71V463XQYDOZYIDLRW5D","","778.8999999761581","img/animal5.png","76","780.6999999880791","3","1","3","1,0.7,0,1,0.7,0,0.7,0,1",""
"","html-keyboard-response","167","110957","0.0-167.0","3DYGAII7PMU2Q1QUWYDNJZH1N2TPQU","A24G8GL5FX1KAW","3KVQ0UJWPX71V463XQYDOZYIDLRW5D","","null","<img src=""img/animal5.png"" style=""width:200px; border:14px solid green;"">","null","","","","","",""
"","image-keyboard-response","168","111561","0.0-168.0","3DYGAII7PMU2Q1QUWYDNJZH1N2TPQU","A24G8GL5FX1KAW","3KVQ0UJWPX71V463XQYDOZYIDLRW5D","","601.6999999880791","img/animal1.png","74","603.3999999761581","1","1","1","1,0.7,0,1,0.7,0,0.7,0,1",""
"","html-keyboard-response","169","111868","0.0-169.0","3DYGAII7PMU2Q1QUWYDNJZH1N2TPQU","A24G8GL5FX1KAW","3KVQ0UJWPX71V463XQYDOZYIDLRW5D","","null","<img src=""img/animal1.png"" style=""width:200px; border:14px solid green;"">","null","","","","","",""
"","image-keyboard-response","170","112374","0.0-170.0","3DYGAII7PMU2Q1QUWYDNJZH1N2TPQU","A24G8GL5FX1KAW","3KVQ0UJWPX71V463XQYDOZYIDLRW5D","","504.19999998807907","img/animal1.png","74","505.9000000357628","1","1","1","1,0.7,0,1,0.7,0,0.7,0,1",""
"","html-keyboard-response","171","112685","0.0-171.0","3DYGAII7PMU2Q1QUWYDNJZH1N2TPQU","A24G8GL5FX1KAW","3KVQ0UJWPX71V463XQYDOZYIDLRW5D","","null","<img src=""img/animal1.png"" style=""width:200px; border:14px solid green;"">","null","","","","","",""
"","image-keyboard-response","172","113376","0.0-172.0","3DYGAII7PMU2Q1QUWYDNJZH1N2TPQU","A24G8GL5FX1KAW","3KVQ0UJWPX71V463XQYDOZYIDLRW5D","","689.6999999880791","img/animal4.png","74","691.3000000119209","1","1","2","1,0.7,0,1,0.7,0,0.7,0,1",""
"","html-keyboard-response","173","113684","0.0-173.0","3DYGAII7PMU2Q1QUWYDNJZH1N2TPQU","A24G8GL5FX1KAW","3KVQ0UJWPX71V463XQYDOZYIDLRW5D","","null","<img src=""img/animal4.png"" style=""width:200px; border:14px solid green;"">","null","","","","","",""
"","image-keyboard-response","174","114451","0.0-174.0","3DYGAII7PMU2Q1QUWYDNJZH1N2TPQU","A24G8GL5FX1KAW","3KVQ0UJWPX71V463XQYDOZYIDLRW5D","","764.8000000119209","img/animal1.png","74","766.3999999761581","1","1","1","1,0.7,0,1,0.7,0,0.7,0,1",""
"","html-keyboard-response","175","114761","0.0-175.0","3DYGAII7PMU2Q1QUWYDNJZH1N2TPQU","A24G8GL5FX1KAW","3KVQ0UJWPX71V463XQYDOZYIDLRW5D","","null","<img src=""img/animal1.png"" style=""width:200px; border:14px solid green;"">","null","","","","","",""
"","image-keyboard-response","176","115350","0.0-176.0","3DYGAII7PMU2Q1QUWYDNJZH1N2TPQU","A24G8GL5FX1KAW","3KVQ0UJWPX71V463XQYDOZYIDLRW5D","","585.4000000357628","img/animal5.png","76","588.3000000119209","3","1","3","1,0.7,0,1,0.7,0,0.7,0,1",""
"","html-keyboard-response","177","115660","0.0-177.0","3DYGAII7PMU2Q1QUWYDNJZH1N2TPQU","A24G8GL5FX1KAW","3KVQ0UJWPX71V463XQYDOZYIDLRW5D","","null","<img src=""img/animal5.png"" style=""width:200px; border:14px solid green;"">","null","","","","","",""
"","image-keyboard-response","178","116165","0.0-178.0","3DYGAII7PMU2Q1QUWYDNJZH1N2TPQU","A24G8GL5FX1KAW","3KVQ0UJWPX71V463XQYDOZYIDLRW5D","","502.5","img/animal5.png","76","504.19999998807907","3","1","3","1,0.7,0,1,0.7,0,0.7,0,1",""
"","html-keyboard-response","179","116476","0.0-179.0","3DYGAII7PMU2Q1QUWYDNJZH1N2TPQU","A24G8GL5FX1KAW","3KVQ0UJWPX71V463XQYDOZYIDLRW5D","","null","<img src=""img/animal5.png"" style=""width:200px; border:14px solid green;"">","null","","","","","",""
"","image-keyboard-response","180","116834","0.0-180.0","3DYGAII7PMU2Q1QUWYDNJZH1N2TPQU","A24G8GL5FX1KAW","3KVQ0UJWPX71V463XQYDOZYIDLRW5D","","356","img/animal5.png","76","357.89999997615814","3","1","3","1,0.7,0,1,0.7,0,0.7,0,1",""
"","html-keyboard-response","181","117140","0.0-181.0","3DYGAII7PMU2Q1QUWYDNJZH1N2TPQU","A24G8GL5FX1KAW","3KVQ0UJWPX71V463XQYDOZYIDLRW5D","","null","<img src=""img/animal5.png"" style=""width:200px; border:14px solid green;"">","null","","","","","",""
"","html-keyboard-response","182","119477","0.0-182.0","3DYGAII7PMU2Q1QUWYDNJZH1N2TPQU","A24G8GL5FX1KAW","3KVQ0UJWPX71V463XQYDOZYIDLRW5D","","","","","","","","","",""
"","image-keyboard-response","183","120552","0.0-183.0","3DYGAII7PMU2Q1QUWYDNJZH1N2TPQU","A24G8GL5FX1KAW","3KVQ0UJWPX71V463XQYDOZYIDLRW5D","","1069.199999988079","img/animal3.png","74","1074.5999999642372","1","0","3","1,0.7,0,0,1,0.7,0.7,0,1",""
"","html-keyboard-response","184","120861","0.0-184.0","3DYGAII7PMU2Q1QUWYDNJZH1N2TPQU","A24G8GL5FX1KAW","3KVQ0UJWPX71V463XQYDOZYIDLRW5D","","null","<img src=""img/animal3.png"" style=""width:200px;border:14px solid red;"">","null","","","","","",""
"","image-keyboard-response","185","121908","0.0-185.0","3DYGAII7PMU2Q1QUWYDNJZH1N2TPQU","A24G8GL5FX1KAW","3KVQ0UJWPX71V463XQYDOZYIDLRW5D","","1045.199999988079","img/animal6.png","75","1047.199999988079","2","1","1","1,0.7,0,0,1,0.7,0.7,0,1",""
"","html-keyboard-response","186","122212","0.0-186.0","3DYGAII7PMU2Q1QUWYDNJZH1N2TPQU","A24G8GL5FX1KAW","3KVQ0UJWPX71V463XQYDOZYIDLRW5D","","null","<img src=""img/animal6.png"" style=""width:200px; border:14px solid green;"">","null","","","","","",""
"","image-keyboard-response","187","122838","0.0-187.0","3DYGAII7PMU2Q1QUWYDNJZH1N2TPQU","A24G8GL5FX1KAW","3KVQ0UJWPX71V463XQYDOZYIDLRW5D","","623.6000000238419","img/animal6.png","75","625.4000000357628","2","1","1","1,0.7,0,0,1,0.7,0.7,0,1",""
"","html-keyboard-response","188","123148","0.0-188.0","3DYGAII7PMU2Q1QUWYDNJZH1N2TPQU","A24G8GL5FX1KAW","3KVQ0UJWPX71V463XQYDOZYIDLRW5D","","null","<img src=""img/animal6.png"" style=""width:200px; border:14px solid green;"">","null","","","","","",""
"","image-keyboard-response","189","124081","0.0-189.0","3DYGAII7PMU2Q1QUWYDNJZH1N2TPQU","A24G8GL5FX1KAW","3KVQ0UJWPX71V463XQYDOZYIDLRW5D","","930.1999999880791","img/animal3.png","76","932","3","1","3","1,0.7,0,0,1,0.7,0.7,0,1",""
"","html-keyboard-response","190","124387","0.0-190.0","3DYGAII7PMU2Q1QUWYDNJZH1N2TPQU","A24G8GL5FX1KAW","3KVQ0UJWPX71V463XQYDOZYIDLRW5D","","null","<img src=""img/animal3.png"" style=""width:200px; border:14px solid green;"">","null","","","","","",""
"","image-keyboard-response","191","125189","0.0-191.0","3DYGAII7PMU2Q1QUWYDNJZH1N2TPQU","A24G8GL5FX1KAW","3KVQ0UJWPX71V463XQYDOZYIDLRW5D","","799.1000000238419","img/animal2.png","74","801","1","0","2","1,0.7,0,0,1,0.7,0.7,0,1",""
"","html-keyboard-response","192","125500","0.0-192.0","3DYGAII7PMU2Q1QUWYDNJZH1N2TPQU","A24G8GL5FX1KAW","3KVQ0UJWPX71V463XQYDOZYIDLRW5D","","null","<img src=""img/animal2.png"" style=""width:200px;border:14px solid red;"">","null","","","","","",""
"","image-keyboard-response","193","126555","0.0-193.0","3DYGAII7PMU2Q1QUWYDNJZH1N2TPQU","A24G8GL5FX1KAW","3KVQ0UJWPX71V463XQYDOZYIDLRW5D","","1053.699999988079","img/animal6.png","75","1054.8999999761581","2","0","1","1,0.7,0,0,1,0.7,0.7,0,1",""
"","html-keyboard-response","194","126860","0.0-194.0","3DYGAII7PMU2Q1QUWYDNJZH1N2TPQU","A24G8GL5FX1KAW","3KVQ0UJWPX71V463XQYDOZYIDLRW5D","","null","<img src=""img/animal6.png"" style=""width:200px;border:14px solid red;"">","null","","","","","",""
"","image-keyboard-response","195","127934","0.0-195.0","3DYGAII7PMU2Q1QUWYDNJZH1N2TPQU","A24G8GL5FX1KAW","3KVQ0UJWPX71V463XQYDOZYIDLRW5D","","1072.5999999642372","img/animal2.png","76","1073.699999988079","3","1","2","1,0.7,0,0,1,0.7,0.7,0,1",""
"","html-keyboard-response","196","128245","0.0-196.0","3DYGAII7PMU2Q1QUWYDNJZH1N2TPQU","A24G8GL5FX1KAW","3KVQ0UJWPX71V463XQYDOZYIDLRW5D","","null","<img src=""img/animal2.png"" style=""width:200px; border:14px solid green;"">","null","","","","","",""
"","image-keyboard-response","197","129543","0.0-197.0","3DYGAII7PMU2Q1QUWYDNJZH1N2TPQU","A24G8GL5FX1KAW","3KVQ0UJWPX71V463XQYDOZYIDLRW5D","","1296.0999999642372","img/animal3.png","75","1297.8999999761581","2","0","3","1,0.7,0,0,1,0.7,0.7,0,1",""
"","html-keyboard-response","198","129852","0.0-198.0","3DYGAII7PMU2Q1QUWYDNJZH1N2TPQU","A24G8GL5FX1KAW","3KVQ0UJWPX71V463XQYDOZYIDLRW5D","","null","<img src=""img/animal3.png"" style=""width:200px;border:14px solid red;"">","null","","","","","",""
"","image-keyboard-response","199","130566","0.0-199.0","3DYGAII7PMU2Q1QUWYDNJZH1N2TPQU","A24G8GL5FX1KAW","3KVQ0UJWPX71V463XQYDOZYIDLRW5D","","712.2000000476837","img/animal3.png","74","713.9000000357628","1","1","3","1,0.7,0,0,1,0.7,0.7,0,1",""
"","html-keyboard-response","200","130876","0.0-200.0","3DYGAII7PMU2Q1QUWYDNJZH1N2TPQU","A24G8GL5FX1KAW","3KVQ0UJWPX71V463XQYDOZYIDLRW5D","","null","<img src=""img/animal3.png"" style=""width:200px; border:14px solid green;"">","null","","","","","",""
"","image-keyboard-response","201","131907","0.0-201.0","3DYGAII7PMU2Q1QUWYDNJZH1N2TPQU","A24G8GL5FX1KAW","3KVQ0UJWPX71V463XQYDOZYIDLRW5D","","1029.300000011921","img/animal3.png","74","1031","1","1","3","1,0.7,0,0,1,0.7,0.7,0,1",""
"","html-keyboard-response","202","132226","0.0-202.0","3DYGAII7PMU2Q1QUWYDNJZH1N2TPQU","A24G8GL5FX1KAW","3KVQ0UJWPX71V463XQYDOZYIDLRW5D","","null","<img src=""img/animal3.png"" style=""width:200px; border:14px solid green;"">","null","","","","","",""
"","image-keyboard-response","203","133595","0.0-203.0","3DYGAII7PMU2Q1QUWYDNJZH1N2TPQU","A24G8GL5FX1KAW","3KVQ0UJWPX71V463XQYDOZYIDLRW5D","","1367.5","img/animal2.png","75","1369.199999988079","2","1","2","1,0.7,0,0,1,0.7,0.7,0,1",""
"","html-keyboard-response","204","133900","0.0-204.0","3DYGAII7PMU2Q1QUWYDNJZH1N2TPQU","A24G8GL5FX1KAW","3KVQ0UJWPX71V463XQYDOZYIDLRW5D","","null","<img src=""img/animal2.png"" style=""width:200px; border:14px solid green;"">","null","","","","","",""
"","image-keyboard-response","205","135361","0.0-205.0","3DYGAII7PMU2Q1QUWYDNJZH1N2TPQU","A24G8GL5FX1KAW","3KVQ0UJWPX71V463XQYDOZYIDLRW5D","","1458.9000000357628","img/animal6.png","75","1460.6000000238419","2","1","1","1,0.7,0,0,1,0.7,0.7,0,1",""
"","html-keyboard-response","206","135668","0.0-206.0","3DYGAII7PMU2Q1QUWYDNJZH1N2TPQU","A24G8GL5FX1KAW","3KVQ0UJWPX71V463XQYDOZYIDLRW5D","","null","<img src=""img/animal6.png"" style=""width:200px; border:14px solid green;"">","null","","","","","",""
"","image-keyboard-response","207","136230","0.0-207.0","3DYGAII7PMU2Q1QUWYDNJZH1N2TPQU","A24G8GL5FX1KAW","3KVQ0UJWPX71V463XQYDOZYIDLRW5D","","560","img/animal6.png","75","561.7000000476837","2","0","1","1,0.7,0,0,1,0.7,0.7,0,1",""
"","html-keyboard-response","208","136540","0.0-208.0","3DYGAII7PMU2Q1QUWYDNJZH1N2TPQU","A24G8GL5FX1KAW","3KVQ0UJWPX71V463XQYDOZYIDLRW5D","","null","<img src=""img/animal6.png"" style=""width:200px;border:14px solid red;"">","null","","","","","",""
"","image-keyboard-response","209","137793","0.0-209.0","3DYGAII7PMU2Q1QUWYDNJZH1N2TPQU","A24G8GL5FX1KAW","3KVQ0UJWPX71V463XQYDOZYIDLRW5D","","1250.1000000238419","img/animal2.png","75","1251.6000000238419","2","1","2","1,0.7,0,0,1,0.7,0.7,0,1",""
"","html-keyboard-response","210","138101","0.0-210.0","3DYGAII7PMU2Q1QUWYDNJZH1N2TPQU","A24G8GL5FX1KAW","3KVQ0UJWPX71V463XQYDOZYIDLRW5D","","null","<img src=""img/animal2.png"" style=""width:200px; border:14px solid green;"">","null","","","","","",""
"","image-keyboard-response","211","138839","0.0-211.0","3DYGAII7PMU2Q1QUWYDNJZH1N2TPQU","A24G8GL5FX1KAW","3KVQ0UJWPX71V463XQYDOZYIDLRW5D","","735.9000000357628","img/animal6.png","76","737.5","3","0","1","1,0.7,0,0,1,0.7,0.7,0,1",""
"","html-keyboard-response","212","139149","0.0-212.0","3DYGAII7PMU2Q1QUWYDNJZH1N2TPQU","A24G8GL5FX1KAW","3KVQ0UJWPX71V463XQYDOZYIDLRW5D","","null","<img src=""img/animal6.png"" style=""width:200px;border:14px solid red;"">","null","","","","","",""
"","image-keyboard-response","213","139597","0.0-213.0","3DYGAII7PMU2Q1QUWYDNJZH1N2TPQU","A24G8GL5FX1KAW","3KVQ0UJWPX71V463XQYDOZYIDLRW5D","","445.5999999642372","img/animal6.png","74","447.5","1","1","1","1,0.7,0,0,1,0.7,0.7,0,1",""
"","html-keyboard-response","214","139906","0.0-214.0","3DYGAII7PMU2Q1QUWYDNJZH1N2TPQU","A24G8GL5FX1KAW","3KVQ0UJWPX71V463XQYDOZYIDLRW5D","","null","<img src=""img/animal6.png"" style=""width:200px; border:14px solid green;"">","null","","","","","",""
"","image-keyboard-response","215","141423","0.0-215.0","3DYGAII7PMU2Q1QUWYDNJZH1N2TPQU","A24G8GL5FX1KAW","3KVQ0UJWPX71V463XQYDOZYIDLRW5D","","1515.5999999642372","img/animal6.png","75","1517.2000000476837","2","1","1","1,0.7,0,0,1,0.7,0.7,0,1",""
"","html-keyboard-response","216","141733","0.0-216.0","3DYGAII7PMU2Q1QUWYDNJZH1N2TPQU","A24G8GL5FX1KAW","3KVQ0UJWPX71V463XQYDOZYIDLRW5D","","null","<img src=""img/animal6.png"" style=""width:200px; border:14px solid green;"">","null","","","","","",""
"","image-keyboard-response","217","142517","0.0-217.0","3DYGAII7PMU2Q1QUWYDNJZH1N2TPQU","A24G8GL5FX1KAW","3KVQ0UJWPX71V463XQYDOZYIDLRW5D","","781.8999999761581","img/animal6.png","74","783.6000000238419","1","1","1","1,0.7,0,0,1,0.7,0.7,0,1",""
"","html-keyboard-response","218","142821","0.0-218.0","3DYGAII7PMU2Q1QUWYDNJZH1N2TPQU","A24G8GL5FX1KAW","3KVQ0UJWPX71V463XQYDOZYIDLRW5D","","null","<img src=""img/animal6.png"" style=""width:200px; border:14px solid green;"">","null","","","","","",""
"","image-keyboard-response","219","144141","0.0-219.0","3DYGAII7PMU2Q1QUWYDNJZH1N2TPQU","A24G8GL5FX1KAW","3KVQ0UJWPX71V463XQYDOZYIDLRW5D","","1318.3999999761581","img/animal3.png","74","1320.300000011921","1","0","3","1,0.7,0,0,1,0.7,0.7,0,1",""
"","html-keyboard-response","220","144444","0.0-220.0","3DYGAII7PMU2Q1QUWYDNJZH1N2TPQU","A24G8GL5FX1KAW","3KVQ0UJWPX71V463XQYDOZYIDLRW5D","","null","<img src=""img/animal3.png"" style=""width:200px;border:14px solid red;"">","null","","","","","",""
"","image-keyboard-response","221","145432","0.0-221.0","3DYGAII7PMU2Q1QUWYDNJZH1N2TPQU","A24G8GL5FX1KAW","3KVQ0UJWPX71V463XQYDOZYIDLRW5D","","975.2999999523163","img/animal2.png","76","988.3000000119209","3","0","2","1,0.7,0,0,1,0.7,0.7,0,1",""
"","html-keyboard-response","222","145741","0.0-222.0","3DYGAII7PMU2Q1QUWYDNJZH1N2TPQU","A24G8GL5FX1KAW","3KVQ0UJWPX71V463XQYDOZYIDLRW5D","","null","<img src=""img/animal2.png"" style=""width:200px;border:14px solid red;"">","null","","","","","",""
"","image-keyboard-response","223","146601","0.0-223.0","3DYGAII7PMU2Q1QUWYDNJZH1N2TPQU","A24G8GL5FX1KAW","3KVQ0UJWPX71V463XQYDOZYIDLRW5D","","858.3000000119209","img/animal3.png","75","860","2","0","3","1,0.7,0,0,1,0.7,0.7,0,1",""
"","html-keyboard-response","224","146909","0.0-224.0","3DYGAII7PMU2Q1QUWYDNJZH1N2TPQU","A24G8GL5FX1KAW","3KVQ0UJWPX71V463XQYDOZYIDLRW5D","","null","<img src=""img/animal3.png"" style=""width:200px;border:14px solid red;"">","null","","","","","",""
"","image-keyboard-response","225","148453","0.0-225.0","3DYGAII7PMU2Q1QUWYDNJZH1N2TPQU","A24G8GL5FX1KAW","3KVQ0UJWPX71V463XQYDOZYIDLRW5D","","1541.8999999761581","img/animal6.png","74","1543.5999999642372","1","1","1","1,0.7,0,0,1,0.7,0.7,0,1",""
"","html-keyboard-response","226","148756","0.0-226.0","3DYGAII7PMU2Q1QUWYDNJZH1N2TPQU","A24G8GL5FX1KAW","3KVQ0UJWPX71V463XQYDOZYIDLRW5D","","null","<img src=""img/animal6.png"" style=""width:200px; border:14px solid green;"">","null","","","","","",""
"","image-keyboard-response","227","149861","0.0-227.0","3DYGAII7PMU2Q1QUWYDNJZH1N2TPQU","A24G8GL5FX1KAW","3KVQ0UJWPX71V463XQYDOZYIDLRW5D","","1104","img/animal2.png","76","1105.2000000476837","3","1","2","1,0.7,0,0,1,0.7,0.7,0,1",""
"","html-keyboard-response","228","150165","0.0-228.0","3DYGAII7PMU2Q1QUWYDNJZH1N2TPQU","A24G8GL5FX1KAW","3KVQ0UJWPX71V463XQYDOZYIDLRW5D","","null","<img src=""img/animal2.png"" style=""width:200px; border:14px solid green;"">","null","","","","","",""
"","image-keyboard-response","229","151024","0.0-229.0","3DYGAII7PMU2Q1QUWYDNJZH1N2TPQU","A24G8GL5FX1KAW","3KVQ0UJWPX71V463XQYDOZYIDLRW5D","","856.7000000476837","img/animal2.png","76","858.8999999761581","3","1","2","1,0.7,0,0,1,0.7,0.7,0,1",""
"","html-keyboard-response","230","151333","0.0-230.0","3DYGAII7PMU2Q1QUWYDNJZH1N2TPQU","A24G8GL5FX1KAW","3KVQ0UJWPX71V463XQYDOZYIDLRW5D","","null","<img src=""img/animal2.png"" style=""width:200px; border:14px solid green;"">","null","","","","","",""
"","image-keyboard-response","231","152266","0.0-231.0","3DYGAII7PMU2Q1QUWYDNJZH1N2TPQU","A24G8GL5FX1KAW","3KVQ0UJWPX71V463XQYDOZYIDLRW5D","","931.2999999523163","img/animal6.png","75","933.1000000238419","2","1","1","1,0.7,0,0,1,0.7,0.7,0,1",""
"","html-keyboard-response","232","152572","0.0-232.0","3DYGAII7PMU2Q1QUWYDNJZH1N2TPQU","A24G8GL5FX1KAW","3KVQ0UJWPX71V463XQYDOZYIDLRW5D","","null","<img src=""img/animal6.png"" style=""width:200px; border:14px solid green;"">","null","","","","","",""
"","image-keyboard-response","233","153411","0.0-233.0","3DYGAII7PMU2Q1QUWYDNJZH1N2TPQU","A24G8GL5FX1KAW","3KVQ0UJWPX71V463XQYDOZYIDLRW5D","","836.6999999880791","img/animal2.png","76","838.3999999761581","3","1","2","1,0.7,0,0,1,0.7,0.7,0,1",""
"","html-keyboard-response","234","153717","0.0-234.0","3DYGAII7PMU2Q1QUWYDNJZH1N2TPQU","A24G8GL5FX1KAW","3KVQ0UJWPX71V463XQYDOZYIDLRW5D","","null","<img src=""img/animal2.png"" style=""width:200px; border:14px solid green;"">","null","","","","","",""
"","image-keyboard-response","235","154350","0.0-235.0","3DYGAII7PMU2Q1QUWYDNJZH1N2TPQU","A24G8GL5FX1KAW","3KVQ0UJWPX71V463XQYDOZYIDLRW5D","","630.6999999880791","img/animal6.png","75","632.5","2","1","1","1,0.7,0,0,1,0.7,0.7,0,1",""
"","html-keyboard-response","236","154660","0.0-236.0","3DYGAII7PMU2Q1QUWYDNJZH1N2TPQU","A24G8GL5FX1KAW","3KVQ0UJWPX71V463XQYDOZYIDLRW5D","","null","<img src=""img/animal6.png"" style=""width:200px; border:14px solid green;"">","null","","","","","",""
"","image-keyboard-response","237","155191","0.0-237.0","3DYGAII7PMU2Q1QUWYDNJZH1N2TPQU","A24G8GL5FX1KAW","3KVQ0UJWPX71V463XQYDOZYIDLRW5D","","528.3000000119209","img/animal2.png","76","530.1999999880791","3","1","2","1,0.7,0,0,1,0.7,0.7,0,1",""
"","html-keyboard-response","238","155501","0.0-238.0","3DYGAII7PMU2Q1QUWYDNJZH1N2TPQU","A24G8GL5FX1KAW","3KVQ0UJWPX71V463XQYDOZYIDLRW5D","","null","<img src=""img/animal2.png"" style=""width:200px; border:14px solid green;"">","null","","","","","",""
"","image-keyboard-response","239","156001","0.0-239.0","3DYGAII7PMU2Q1QUWYDNJZH1N2TPQU","A24G8GL5FX1KAW","3KVQ0UJWPX71V463XQYDOZYIDLRW5D","","498.69999998807907","img/animal6.png","75","500.60000002384186","2","1","1","1,0.7,0,0,1,0.7,0.7,0,1",""
"","html-keyboard-response","240","156310","0.0-240.0","3DYGAII7PMU2Q1QUWYDNJZH1N2TPQU","A24G8GL5FX1KAW","3KVQ0UJWPX71V463XQYDOZYIDLRW5D","","null","<img src=""img/animal6.png"" style=""width:200px; border:14px solid green;"">","null","","","","","",""
"","image-keyboard-response","241","157391","0.0-241.0","3DYGAII7PMU2Q1QUWYDNJZH1N2TPQU","A24G8GL5FX1KAW","3KVQ0UJWPX71V463XQYDOZYIDLRW5D","","1079.2999999523163","img/animal3.png","74","1081.300000011921","1","1","3","1,0.7,0,0,1,0.7,0.7,0,1",""
"","html-keyboard-response","242","157701","0.0-242.0","3DYGAII7PMU2Q1QUWYDNJZH1N2TPQU","A24G8GL5FX1KAW","3KVQ0UJWPX71V463XQYDOZYIDLRW5D","","null","<img src=""img/animal3.png"" style=""width:200px; border:14px solid green;"">","null","","","","","",""
"","image-keyboard-response","243","158609","0.0-243.0","3DYGAII7PMU2Q1QUWYDNJZH1N2TPQU","A24G8GL5FX1KAW","3KVQ0UJWPX71V463XQYDOZYIDLRW5D","","906.6000000238419","img/animal2.png","76","907.8999999761581","3","1","2","1,0.7,0,0,1,0.7,0.7,0,1",""
"","html-keyboard-response","244","158917","0.0-244.0","3DYGAII7PMU2Q1QUWYDNJZH1N2TPQU","A24G8GL5FX1KAW","3KVQ0UJWPX71V463XQYDOZYIDLRW5D","","null","<img src=""img/animal2.png"" style=""width:200px; border:14px solid green;"">","null","","","","","",""
"","image-keyboard-response","245","159397","0.0-245.0","3DYGAII7PMU2Q1QUWYDNJZH1N2TPQU","A24G8GL5FX1KAW","3KVQ0UJWPX71V463XQYDOZYIDLRW5D","","477.89999997615814","img/animal2.png","76","479.5999999642372","3","1","2","1,0.7,0,0,1,0.7,0.7,0,1",""
"","html-keyboard-response","246","159707","0.0-246.0","3DYGAII7PMU2Q1QUWYDNJZH1N2TPQU","A24G8GL5FX1KAW","3KVQ0UJWPX71V463XQYDOZYIDLRW5D","","null","<img src=""img/animal2.png"" style=""width:200px; border:14px solid green;"">","null","","","","","",""
"","image-keyboard-response","247","160067","0.0-247.0","3DYGAII7PMU2Q1QUWYDNJZH1N2TPQU","A24G8GL5FX1KAW","3KVQ0UJWPX71V463XQYDOZYIDLRW5D","","358.30000001192093","img/animal2.png","76","359.69999998807907","3","1","2","1,0.7,0,0,1,0.7,0.7,0,1",""
"","html-keyboard-response","248","160372","0.0-248.0","3DYGAII7PMU2Q1QUWYDNJZH1N2TPQU","A24G8GL5FX1KAW","3KVQ0UJWPX71V463XQYDOZYIDLRW5D","","null","<img src=""img/animal2.png"" style=""width:200px; border:14px solid green;"">","null","","","","","",""
"","image-keyboard-response","249","160797","0.0-249.0","3DYGAII7PMU2Q1QUWYDNJZH1N2TPQU","A24G8GL5FX1KAW","3KVQ0UJWPX71V463XQYDOZYIDLRW5D","","423","img/animal6.png","75","424.60000002384186","2","0","1","1,0.7,0,0,1,0.7,0.7,0,1",""
"","html-keyboard-response","250","161101","0.0-250.0","3DYGAII7PMU2Q1QUWYDNJZH1N2TPQU","A24G8GL5FX1KAW","3KVQ0UJWPX71V463XQYDOZYIDLRW5D","","null","<img src=""img/animal6.png"" style=""width:200px;border:14px solid red;"">","null","","","","","",""
"","image-keyboard-response","251","162151","0.0-251.0","3DYGAII7PMU2Q1QUWYDNJZH1N2TPQU","A24G8GL5FX1KAW","3KVQ0UJWPX71V463XQYDOZYIDLRW5D","","1048.5","img/animal6.png","75","1050.1000000238419","2","1","1","1,0.7,0,0,1,0.7,0.7,0,1",""
"","html-keyboard-response","252","162461","0.0-252.0","3DYGAII7PMU2Q1QUWYDNJZH1N2TPQU","A24G8GL5FX1KAW","3KVQ0UJWPX71V463XQYDOZYIDLRW5D","","null","<img src=""img/animal6.png"" style=""width:200px; border:14px solid green;"">","null","","","","","",""
"","image-keyboard-response","253","163115","0.0-253.0","3DYGAII7PMU2Q1QUWYDNJZH1N2TPQU","A24G8GL5FX1KAW","3KVQ0UJWPX71V463XQYDOZYIDLRW5D","","652.4000000357628","img/animal3.png","74","654.0999999642372","1","1","3","1,0.7,0,0,1,0.7,0.7,0,1",""
"","html-keyboard-response","254","163421","0.0-254.0","3DYGAII7PMU2Q1QUWYDNJZH1N2TPQU","A24G8GL5FX1KAW","3KVQ0UJWPX71V463XQYDOZYIDLRW5D","","null","<img src=""img/animal3.png"" style=""width:200px; border:14px solid green;"">","null","","","","","",""
"","image-keyboard-response","255","163834","0.0-255.0","3DYGAII7PMU2Q1QUWYDNJZH1N2TPQU","A24G8GL5FX1KAW","3KVQ0UJWPX71V463XQYDOZYIDLRW5D","","411.19999998807907","img/animal3.png","74","413","1","1","3","1,0.7,0,0,1,0.7,0.7,0,1",""
"","html-keyboard-response","256","164141","0.0-256.0","3DYGAII7PMU2Q1QUWYDNJZH1N2TPQU","A24G8GL5FX1KAW","3KVQ0UJWPX71V463XQYDOZYIDLRW5D","","null","<img src=""img/animal3.png"" style=""width:200px; border:14px solid green;"">","null","","","","","",""
"","image-keyboard-response","257","164809","0.0-257.0","3DYGAII7PMU2Q1QUWYDNJZH1N2TPQU","A24G8GL5FX1KAW","3KVQ0UJWPX71V463XQYDOZYIDLRW5D","","666.2999999523163","img/animal2.png","76","668.0999999642372","3","0","2","1,0.7,0,0,1,0.7,0.7,0,1",""
"","html-keyboard-response","258","165145","0.0-258.0","3DYGAII7PMU2Q1QUWYDNJZH1N2TPQU","A24G8GL5FX1KAW","3KVQ0UJWPX71V463XQYDOZYIDLRW5D","","null","<img src=""img/animal2.png"" style=""width:200px;border:14px solid red;"">","null","","","","","",""
"","image-keyboard-response","259","165609","0.0-259.0","3DYGAII7PMU2Q1QUWYDNJZH1N2TPQU","A24G8GL5FX1KAW","3KVQ0UJWPX71V463XQYDOZYIDLRW5D","","419.60000002384186","img/animal2.png","76","453.4000000357628","3","1","2","1,0.7,0,0,1,0.7,0.7,0,1",""
"","html-keyboard-response","260","165917","0.0-260.0","3DYGAII7PMU2Q1QUWYDNJZH1N2TPQU","A24G8GL5FX1KAW","3KVQ0UJWPX71V463XQYDOZYIDLRW5D","","null","<img src=""img/animal2.png"" style=""width:200px; border:14px solid green;"">","null","","","","","",""
"","image-keyboard-response","261","166743","0.0-261.0","3DYGAII7PMU2Q1QUWYDNJZH1N2TPQU","A24G8GL5FX1KAW","3KVQ0UJWPX71V463XQYDOZYIDLRW5D","","823.2000000476837","img/animal3.png","74","824.8999999761581","1","1","3","1,0.7,0,0,1,0.7,0.7,0,1",""
"","html-keyboard-response","262","167053","0.0-262.0","3DYGAII7PMU2Q1QUWYDNJZH1N2TPQU","A24G8GL5FX1KAW","3KVQ0UJWPX71V463XQYDOZYIDLRW5D","","null","<img src=""img/animal3.png"" style=""width:200px; border:14px solid green;"">","null","","","","","",""
"","image-keyboard-response","263","167620","0.0-263.0","3DYGAII7PMU2Q1QUWYDNJZH1N2TPQU","A24G8GL5FX1KAW","3KVQ0UJWPX71V463XQYDOZYIDLRW5D","","564.8999999761581","img/animal6.png","75","566.6999999880791","2","1","1","1,0.7,0,0,1,0.7,0.7,0,1",""
"","html-keyboard-response","264","167925","0.0-264.0","3DYGAII7PMU2Q1QUWYDNJZH1N2TPQU","A24G8GL5FX1KAW","3KVQ0UJWPX71V463XQYDOZYIDLRW5D","","null","<img src=""img/animal6.png"" style=""width:200px; border:14px solid green;"">","null","","","","","",""
"","image-keyboard-response","265","168636","0.0-265.0","3DYGAII7PMU2Q1QUWYDNJZH1N2TPQU","A24G8GL5FX1KAW","3KVQ0UJWPX71V463XQYDOZYIDLRW5D","","709.6999999880791","img/animal2.png","76","711.5","3","1","2","1,0.7,0,0,1,0.7,0.7,0,1",""
"","html-keyboard-response","266","168941","0.0-266.0","3DYGAII7PMU2Q1QUWYDNJZH1N2TPQU","A24G8GL5FX1KAW","3KVQ0UJWPX71V463XQYDOZYIDLRW5D","","null","<img src=""img/animal2.png"" style=""width:200px; border:14px solid green;"">","null","","","","","",""
"","image-keyboard-response","267","169669","0.0-267.0","3DYGAII7PMU2Q1QUWYDNJZH1N2TPQU","A24G8GL5FX1KAW","3KVQ0UJWPX71V463XQYDOZYIDLRW5D","","726.4000000357628","img/animal3.png","74","728.1000000238419","1","1","3","1,0.7,0,0,1,0.7,0.7,0,1",""
"","html-keyboard-response","268","169973","0.0-268.0","3DYGAII7PMU2Q1QUWYDNJZH1N2TPQU","A24G8GL5FX1KAW","3KVQ0UJWPX71V463XQYDOZYIDLRW5D","","null","<img src=""img/animal3.png"" style=""width:200px; border:14px solid green;"">","null","","","","","",""
"","image-keyboard-response","269","170642","0.0-269.0","3DYGAII7PMU2Q1QUWYDNJZH1N2TPQU","A24G8GL5FX1KAW","3KVQ0UJWPX71V463XQYDOZYIDLRW5D","","663.1999999880791","img/animal2.png","76","668.6999999880791","3","1","2","1,0.7,0,0,1,0.7,0.7,0,1",""
"","html-keyboard-response","270","170950","0.0-270.0","3DYGAII7PMU2Q1QUWYDNJZH1N2TPQU","A24G8GL5FX1KAW","3KVQ0UJWPX71V463XQYDOZYIDLRW5D","","null","<img src=""img/animal2.png"" style=""width:200px; border:14px solid green;"">","null","","","","","",""
"","image-keyboard-response","271","171630","0.0-271.0","3DYGAII7PMU2Q1QUWYDNJZH1N2TPQU","A24G8GL5FX1KAW","3KVQ0UJWPX71V463XQYDOZYIDLRW5D","","678","img/animal3.png","74","679.8999999761581","1","1","3","1,0.7,0,0,1,0.7,0.7,0,1",""
"","html-keyboard-response","272","171941","0.0-272.0","3DYGAII7PMU2Q1QUWYDNJZH1N2TPQU","A24G8GL5FX1KAW","3KVQ0UJWPX71V463XQYDOZYIDLRW5D","","null","<img src=""img/animal3.png"" style=""width:200px; border:14px solid green;"">","null","","","","","",""
"","image-keyboard-response","273","172544","0.0-273.0","3DYGAII7PMU2Q1QUWYDNJZH1N2TPQU","A24G8GL5FX1KAW","3KVQ0UJWPX71V463XQYDOZYIDLRW5D","","601.6999999880791","img/animal6.png","75","603.5","2","0","1","1,0.7,0,0,1,0.7,0.7,0,1",""
"","html-keyboard-response","274","172852","0.0-274.0","3DYGAII7PMU2Q1QUWYDNJZH1N2TPQU","A24G8GL5FX1KAW","3KVQ0UJWPX71V463XQYDOZYIDLRW5D","","null","<img src=""img/animal6.png"" style=""width:200px;border:14px solid red;"">","null","","","","","",""
"","image-keyboard-response","275","174063","0.0-275.0","3DYGAII7PMU2Q1QUWYDNJZH1N2TPQU","A24G8GL5FX1KAW","3KVQ0UJWPX71V463XQYDOZYIDLRW5D","","1209","img/animal3.png","74","1210.5","1","1","3","1,0.7,0,0,1,0.7,0.7,0,1",""
"","html-keyboard-response","276","174372","0.0-276.0","3DYGAII7PMU2Q1QUWYDNJZH1N2TPQU","A24G8GL5FX1KAW","3KVQ0UJWPX71V463XQYDOZYIDLRW5D","","null","<img src=""img/animal3.png"" style=""width:200px; border:14px solid green;"">","null","","","","","",""
"","image-keyboard-response","277","175060","0.0-277.0","3DYGAII7PMU2Q1QUWYDNJZH1N2TPQU","A24G8GL5FX1KAW","3KVQ0UJWPX71V463XQYDOZYIDLRW5D","","686.1000000238419","img/animal6.png","75","687.6999999880791","2","0","1","1,0.7,0,0,1,0.7,0.7,0,1",""
"","html-keyboard-response","278","175365","0.0-278.0","3DYGAII7PMU2Q1QUWYDNJZH1N2TPQU","A24G8GL5FX1KAW","3KVQ0UJWPX71V463XQYDOZYIDLRW5D","","null","<img src=""img/animal6.png"" style=""width:200px;border:14px solid red;"">","null","","","","","",""
"","image-keyboard-response","279","176060","0.0-279.0","3DYGAII7PMU2Q1QUWYDNJZH1N2TPQU","A24G8GL5FX1KAW","3KVQ0UJWPX71V463XQYDOZYIDLRW5D","","692.8000000119209","img/animal3.png","74","694.4000000357628","1","0","3","1,0.7,0,0,1,0.7,0.7,0,1",""
"","html-keyboard-response","280","176364","0.0-280.0","3DYGAII7PMU2Q1QUWYDNJZH1N2TPQU","A24G8GL5FX1KAW","3KVQ0UJWPX71V463XQYDOZYIDLRW5D","","null","<img src=""img/animal3.png"" style=""width:200px;border:14px solid red;"">","null","","","","","",""
"","image-keyboard-response","281","177262","0.0-281.0","3DYGAII7PMU2Q1QUWYDNJZH1N2TPQU","A24G8GL5FX1KAW","3KVQ0UJWPX71V463XQYDOZYIDLRW5D","","896.0999999642372","img/animal2.png","76","897.6999999880791","3","0","2","1,0.7,0,0,1,0.7,0.7,0,1",""
"","html-keyboard-response","282","177573","0.0-282.0","3DYGAII7PMU2Q1QUWYDNJZH1N2TPQU","A24G8GL5FX1KAW","3KVQ0UJWPX71V463XQYDOZYIDLRW5D","","null","<img src=""img/animal2.png"" style=""width:200px;border:14px solid red;"">","null","","","","","",""
"","image-keyboard-response","283","178788","0.0-283.0","3DYGAII7PMU2Q1QUWYDNJZH1N2TPQU","A24G8GL5FX1KAW","3KVQ0UJWPX71V463XQYDOZYIDLRW5D","","1212.8999999761581","img/animal3.png","76","1214.800000011921","3","1","3","1,0.7,0,0,1,0.7,0.7,0,1",""
"","html-keyboard-response","284","179093","0.0-284.0","3DYGAII7PMU2Q1QUWYDNJZH1N2TPQU","A24G8GL5FX1KAW","3KVQ0UJWPX71V463XQYDOZYIDLRW5D","","null","<img src=""img/animal3.png"" style=""width:200px; border:14px solid green;"">","null","","","","","",""
"","image-keyboard-response","285","179783","0.0-285.0","3DYGAII7PMU2Q1QUWYDNJZH1N2TPQU","A24G8GL5FX1KAW","3KVQ0UJWPX71V463XQYDOZYIDLRW5D","","687.6999999880791","img/animal3.png","76","689.6000000238419","3","1","3","1,0.7,0,0,1,0.7,0.7,0,1",""
"","html-keyboard-response","286","180093","0.0-286.0","3DYGAII7PMU2Q1QUWYDNJZH1N2TPQU","A24G8GL5FX1KAW","3KVQ0UJWPX71V463XQYDOZYIDLRW5D","","null","<img src=""img/animal3.png"" style=""width:200px; border:14px solid green;"">","null","","","","","",""
"","image-keyboard-response","287","180980","0.0-287.0","3DYGAII7PMU2Q1QUWYDNJZH1N2TPQU","A24G8GL5FX1KAW","3KVQ0UJWPX71V463XQYDOZYIDLRW5D","","884.6000000238419","img/animal6.png","75","886.5","2","1","1","1,0.7,0,0,1,0.7,0.7,0,1",""
"","html-keyboard-response","288","181284","0.0-288.0","3DYGAII7PMU2Q1QUWYDNJZH1N2TPQU","A24G8GL5FX1KAW","3KVQ0UJWPX71V463XQYDOZYIDLRW5D","","null","<img src=""img/animal6.png"" style=""width:200px; border:14px solid green;"">","null","","","","","",""
"","image-keyboard-response","289","181850","0.0-289.0","3DYGAII7PMU2Q1QUWYDNJZH1N2TPQU","A24G8GL5FX1KAW","3KVQ0UJWPX71V463XQYDOZYIDLRW5D","","563.2000000476837","img/animal2.png","74","565","1","0","2","1,0.7,0,0,1,0.7,0.7,0,1",""
"","html-keyboard-response","290","182156","0.0-290.0","3DYGAII7PMU2Q1QUWYDNJZH1N2TPQU","A24G8GL5FX1KAW","3KVQ0UJWPX71V463XQYDOZYIDLRW5D","","null","<img src=""img/animal2.png"" style=""width:200px;border:14px solid red;"">","null","","","","","",""
"","image-keyboard-response","291","183022","0.0-291.0","3DYGAII7PMU2Q1QUWYDNJZH1N2TPQU","A24G8GL5FX1KAW","3KVQ0UJWPX71V463XQYDOZYIDLRW5D","","863.5","img/animal3.png","74","865.5","1","0","3","1,0.7,0,0,1,0.7,0.7,0,1",""
"","html-keyboard-response","292","183333","0.0-292.0","3DYGAII7PMU2Q1QUWYDNJZH1N2TPQU","A24G8GL5FX1KAW","3KVQ0UJWPX71V463XQYDOZYIDLRW5D","","null","<img src=""img/animal3.png"" style=""width:200px;border:14px solid red;"">","null","","","","","",""
"","image-keyboard-response","293","184030","0.0-293.0","3DYGAII7PMU2Q1QUWYDNJZH1N2TPQU","A24G8GL5FX1KAW","3KVQ0UJWPX71V463XQYDOZYIDLRW5D","","695","img/animal3.png","76","697.0999999642372","3","1","3","1,0.7,0,0,1,0.7,0.7,0,1",""
"","html-keyboard-response","294","184341","0.0-294.0","3DYGAII7PMU2Q1QUWYDNJZH1N2TPQU","A24G8GL5FX1KAW","3KVQ0UJWPX71V463XQYDOZYIDLRW5D","","null","<img src=""img/animal3.png"" style=""width:200px; border:14px solid green;"">","null","","","","","",""
"","image-keyboard-response","295","185028","0.0-295.0","3DYGAII7PMU2Q1QUWYDNJZH1N2TPQU","A24G8GL5FX1KAW","3KVQ0UJWPX71V463XQYDOZYIDLRW5D","","684.8999999761581","img/animal6.png","75","686.8000000119209","2","1","1","1,0.7,0,0,1,0.7,0.7,0,1",""
"","html-keyboard-response","296","185333","0.0-296.0","3DYGAII7PMU2Q1QUWYDNJZH1N2TPQU","A24G8GL5FX1KAW","3KVQ0UJWPX71V463XQYDOZYIDLRW5D","","null","<img src=""img/animal6.png"" style=""width:200px; border:14px solid green;"">","null","","","","","",""
"","image-keyboard-response","297","185942","0.0-297.0","3DYGAII7PMU2Q1QUWYDNJZH1N2TPQU","A24G8GL5FX1KAW","3KVQ0UJWPX71V463XQYDOZYIDLRW5D","","604.0999999642372","img/animal6.png","75","615","2","1","1","1,0.7,0,0,1,0.7,0.7,0,1",""
"","html-keyboard-response","298","186262","0.0-298.0","3DYGAII7PMU2Q1QUWYDNJZH1N2TPQU","A24G8GL5FX1KAW","3KVQ0UJWPX71V463XQYDOZYIDLRW5D","","null","<img src=""img/animal6.png"" style=""width:200px; border:14px solid green;"">","null","","","","","",""
"","image-keyboard-response","299","187225","0.0-299.0","3DYGAII7PMU2Q1QUWYDNJZH1N2TPQU","A24G8GL5FX1KAW","3KVQ0UJWPX71V463XQYDOZYIDLRW5D","","961.8000000119209","img/animal2.png","76","963.6999999880791","3","1","2","1,0.7,0,0,1,0.7,0.7,0,1",""
"","html-keyboard-response","300","187532","0.0-300.0","3DYGAII7PMU2Q1QUWYDNJZH1N2TPQU","A24G8GL5FX1KAW","3KVQ0UJWPX71V463XQYDOZYIDLRW5D","","null","<img src=""img/animal2.png"" style=""width:200px; border:14px solid green;"">","null","","","","","",""
"","image-keyboard-response","301","188180","0.0-301.0","3DYGAII7PMU2Q1QUWYDNJZH1N2TPQU","A24G8GL5FX1KAW","3KVQ0UJWPX71V463XQYDOZYIDLRW5D","","645.6000000238419","img/animal6.png","75","646.8000000119209","2","1","1","1,0.7,0,0,1,0.7,0.7,0,1",""
"","html-keyboard-response","302","188485","0.0-302.0","3DYGAII7PMU2Q1QUWYDNJZH1N2TPQU","A24G8GL5FX1KAW","3KVQ0UJWPX71V463XQYDOZYIDLRW5D","","null","<img src=""img/animal6.png"" style=""width:200px; border:14px solid green;"">","null","","","","","",""
"","image-keyboard-response","303","189171","0.0-303.0","3DYGAII7PMU2Q1QUWYDNJZH1N2TPQU","A24G8GL5FX1KAW","3KVQ0UJWPX71V463XQYDOZYIDLRW5D","","684.5999999642372","img/animal2.png","76","686.1999999880791","3","0","2","1,0.7,0,0,1,0.7,0.7,0,1",""
"","html-keyboard-response","304","189476","0.0-304.0","3DYGAII7PMU2Q1QUWYDNJZH1N2TPQU","A24G8GL5FX1KAW","3KVQ0UJWPX71V463XQYDOZYIDLRW5D","","null","<img src=""img/animal2.png"" style=""width:200px;border:14px solid red;"">","null","","","","","",""
"","image-keyboard-response","305","190161","0.0-305.0","3DYGAII7PMU2Q1QUWYDNJZH1N2TPQU","A24G8GL5FX1KAW","3KVQ0UJWPX71V463XQYDOZYIDLRW5D","","682.6000000238419","img/animal6.png","75","684.5","2","0","1","1,0.7,0,0,1,0.7,0.7,0,1",""
"","html-keyboard-response","306","190469","0.0-306.0","3DYGAII7PMU2Q1QUWYDNJZH1N2TPQU","A24G8GL5FX1KAW","3KVQ0UJWPX71V463XQYDOZYIDLRW5D","","null","<img src=""img/animal6.png"" style=""width:200px;border:14px solid red;"">","null","","","","","",""
"","image-keyboard-response","307","191432","0.0-307.0","3DYGAII7PMU2Q1QUWYDNJZH1N2TPQU","A24G8GL5FX1KAW","3KVQ0UJWPX71V463XQYDOZYIDLRW5D","","961.2000000476837","img/animal2.png","74","962.6999999880791","1","0","2","1,0.7,0,0,1,0.7,0.7,0,1",""
"","html-keyboard-response","308","191741","0.0-308.0","3DYGAII7PMU2Q1QUWYDNJZH1N2TPQU","A24G8GL5FX1KAW","3KVQ0UJWPX71V463XQYDOZYIDLRW5D","","null","<img src=""img/animal2.png"" style=""width:200px;border:14px solid red;"">","null","","","","","",""
"","image-keyboard-response","309","192447","0.0-309.0","3DYGAII7PMU2Q1QUWYDNJZH1N2TPQU","A24G8GL5FX1KAW","3KVQ0UJWPX71V463XQYDOZYIDLRW5D","","705.1000000238419","img/animal3.png","74","706.5999999642372","1","0","3","1,0.7,0,0,1,0.7,0.7,0,1",""
"","html-keyboard-response","310","192757","0.0-310.0","3DYGAII7PMU2Q1QUWYDNJZH1N2TPQU","A24G8GL5FX1KAW","3KVQ0UJWPX71V463XQYDOZYIDLRW5D","","null","<img src=""img/animal3.png"" style=""width:200px;border:14px solid red;"">","null","","","","","",""
"","image-keyboard-response","311","193485","0.0-311.0","3DYGAII7PMU2Q1QUWYDNJZH1N2TPQU","A24G8GL5FX1KAW","3KVQ0UJWPX71V463XQYDOZYIDLRW5D","","727","img/animal2.png","76","728.3000000119209","3","1","2","1,0.7,0,0,1,0.7,0.7,0,1",""
"","html-keyboard-response","312","193789","0.0-312.0","3DYGAII7PMU2Q1QUWYDNJZH1N2TPQU","A24G8GL5FX1KAW","3KVQ0UJWPX71V463XQYDOZYIDLRW5D","","null","<img src=""img/animal2.png"" style=""width:200px; border:14px solid green;"">","null","","","","","",""
"","image-keyboard-response","313","194350","0.0-313.0","3DYGAII7PMU2Q1QUWYDNJZH1N2TPQU","A24G8GL5FX1KAW","3KVQ0UJWPX71V463XQYDOZYIDLRW5D","","559.7999999523163","img/animal2.png","76","561.5","3","1","2","1,0.7,0,0,1,0.7,0.7,0,1",""
"","html-keyboard-response","314","194661","0.0-314.0","3DYGAII7PMU2Q1QUWYDNJZH1N2TPQU","A24G8GL5FX1KAW","3KVQ0UJWPX71V463XQYDOZYIDLRW5D","","null","<img src=""img/animal2.png"" style=""width:200px; border:14px solid green;"">","null","","","","","",""
"","image-keyboard-response","315","195055","0.0-315.0","3DYGAII7PMU2Q1QUWYDNJZH1N2TPQU","A24G8GL5FX1KAW","3KVQ0UJWPX71V463XQYDOZYIDLRW5D","","391.5999999642372","img/animal2.png","76","393.80000001192093","3","1","2","1,0.7,0,0,1,0.7,0.7,0,1",""
"","html-keyboard-response","316","195364","0.0-316.0","3DYGAII7PMU2Q1QUWYDNJZH1N2TPQU","A24G8GL5FX1KAW","3KVQ0UJWPX71V463XQYDOZYIDLRW5D","","null","<img src=""img/animal2.png"" style=""width:200px; border:14px solid green;"">","null","","","","","",""
"","image-keyboard-response","317","196142","0.0-317.0","3DYGAII7PMU2Q1QUWYDNJZH1N2TPQU","A24G8GL5FX1KAW","3KVQ0UJWPX71V463XQYDOZYIDLRW5D","","775.6000000238419","img/animal3.png","74","777.3000000119209","1","1","3","1,0.7,0,0,1,0.7,0.7,0,1",""
"","html-keyboard-response","318","196453","0.0-318.0","3DYGAII7PMU2Q1QUWYDNJZH1N2TPQU","A24G8GL5FX1KAW","3KVQ0UJWPX71V463XQYDOZYIDLRW5D","","null","<img src=""img/animal3.png"" style=""width:200px; border:14px solid green;"">","null","","","","","",""
"","image-keyboard-response","319","196805","0.0-319.0","3DYGAII7PMU2Q1QUWYDNJZH1N2TPQU","A24G8GL5FX1KAW","3KVQ0UJWPX71V463XQYDOZYIDLRW5D","","350.10000002384186","img/animal3.png","74","351.89999997615814","1","1","3","1,0.7,0,0,1,0.7,0.7,0,1",""
"","html-keyboard-response","320","197109","0.0-320.0","3DYGAII7PMU2Q1QUWYDNJZH1N2TPQU","A24G8GL5FX1KAW","3KVQ0UJWPX71V463XQYDOZYIDLRW5D","","null","<img src=""img/animal3.png"" style=""width:200px; border:14px solid green;"">","null","","","","","",""
"","image-keyboard-response","321","197695","0.0-321.0","3DYGAII7PMU2Q1QUWYDNJZH1N2TPQU","A24G8GL5FX1KAW","3KVQ0UJWPX71V463XQYDOZYIDLRW5D","","584.3000000119209","img/animal6.png","75","586","2","1","1","1,0.7,0,0,1,0.7,0.7,0,1",""
"","html-keyboard-response","322","198014","0.0-322.0","3DYGAII7PMU2Q1QUWYDNJZH1N2TPQU","A24G8GL5FX1KAW","3KVQ0UJWPX71V463XQYDOZYIDLRW5D","","null","<img src=""img/animal6.png"" style=""width:200px; border:14px solid green;"">","null","","","","","",""
"","image-keyboard-response","323","198918","0.0-323.0","3DYGAII7PMU2Q1QUWYDNJZH1N2TPQU","A24G8GL5FX1KAW","3KVQ0UJWPX71V463XQYDOZYIDLRW5D","","900.5","img/animal3.png","74","901.9000000357628","1","0","3","1,0.7,0,0,1,0.7,0.7,0,1",""
"","html-keyboard-response","324","199227","0.0-324.0","3DYGAII7PMU2Q1QUWYDNJZH1N2TPQU","A24G8GL5FX1KAW","3KVQ0UJWPX71V463XQYDOZYIDLRW5D","","null","<img src=""img/animal3.png"" style=""width:200px;border:14px solid red;"">","null","","","","","",""
"","image-keyboard-response","325","199999","0.0-325.0","3DYGAII7PMU2Q1QUWYDNJZH1N2TPQU","A24G8GL5FX1KAW","3KVQ0UJWPX71V463XQYDOZYIDLRW5D","","770.1999999880791","img/animal2.png","76","771.7999999523163","3","1","2","1,0.7,0,0,1,0.7,0.7,0,1",""
"","html-keyboard-response","326","200308","0.0-326.0","3DYGAII7PMU2Q1QUWYDNJZH1N2TPQU","A24G8GL5FX1KAW","3KVQ0UJWPX71V463XQYDOZYIDLRW5D","","null","<img src=""img/animal2.png"" style=""width:200px; border:14px solid green;"">","null","","","","","",""
"","image-keyboard-response","327","200750","0.0-327.0","3DYGAII7PMU2Q1QUWYDNJZH1N2TPQU","A24G8GL5FX1KAW","3KVQ0UJWPX71V463XQYDOZYIDLRW5D","","440.9000000357628","img/animal2.png","76","442.60000002384186","3","0","2","1,0.7,0,0,1,0.7,0.7,0,1",""
"","html-keyboard-response","328","201059","0.0-328.0","3DYGAII7PMU2Q1QUWYDNJZH1N2TPQU","A24G8GL5FX1KAW","3KVQ0UJWPX71V463XQYDOZYIDLRW5D","","null","<img src=""img/animal2.png"" style=""width:200px;border:14px solid red;"">","null","","","","","",""
"","image-keyboard-response","329","201915","0.0-329.0","3DYGAII7PMU2Q1QUWYDNJZH1N2TPQU","A24G8GL5FX1KAW","3KVQ0UJWPX71V463XQYDOZYIDLRW5D","","853.3000000119209","img/animal3.png","75","855","2","0","3","1,0.7,0,0,1,0.7,0.7,0,1",""
"","html-keyboard-response","330","202219","0.0-330.0","3DYGAII7PMU2Q1QUWYDNJZH1N2TPQU","A24G8GL5FX1KAW","3KVQ0UJWPX71V463XQYDOZYIDLRW5D","","null","<img src=""img/animal3.png"" style=""width:200px;border:14px solid red;"">","null","","","","","",""
"","image-keyboard-response","331","202976","0.0-331.0","3DYGAII7PMU2Q1QUWYDNJZH1N2TPQU","A24G8GL5FX1KAW","3KVQ0UJWPX71V463XQYDOZYIDLRW5D","","754.8999999761581","img/animal2.png","76","756.6999999880791","3","1","2","1,0.7,0,0,1,0.7,0.7,0,1",""
"","html-keyboard-response","332","203283","0.0-332.0","3DYGAII7PMU2Q1QUWYDNJZH1N2TPQU","A24G8GL5FX1KAW","3KVQ0UJWPX71V463XQYDOZYIDLRW5D","","null","<img src=""img/animal2.png"" style=""width:200px; border:14px solid green;"">","null","","","","","",""
"","image-keyboard-response","333","203965","0.0-333.0","3DYGAII7PMU2Q1QUWYDNJZH1N2TPQU","A24G8GL5FX1KAW","3KVQ0UJWPX71V463XQYDOZYIDLRW5D","","679.6000000238419","img/animal6.png","75","681.3000000119209","2","1","1","1,0.7,0,0,1,0.7,0.7,0,1",""
"","html-keyboard-response","334","204276","0.0-334.0","3DYGAII7PMU2Q1QUWYDNJZH1N2TPQU","A24G8GL5FX1KAW","3KVQ0UJWPX71V463XQYDOZYIDLRW5D","","null","<img src=""img/animal6.png"" style=""width:200px; border:14px solid green;"">","null","","","","","",""
"","image-keyboard-response","335","205025","0.0-335.0","3DYGAII7PMU2Q1QUWYDNJZH1N2TPQU","A24G8GL5FX1KAW","3KVQ0UJWPX71V463XQYDOZYIDLRW5D","","747.3999999761581","img/animal2.png","76","749.1999999880791","3","1","2","1,0.7,0,0,1,0.7,0.7,0,1",""
"","html-keyboard-response","336","205332","0.0-336.0","3DYGAII7PMU2Q1QUWYDNJZH1N2TPQU","A24G8GL5FX1KAW","3KVQ0UJWPX71V463XQYDOZYIDLRW5D","","null","<img src=""img/animal2.png"" style=""width:200px; border:14px solid green;"">","null","","","","","",""
"","image-keyboard-response","337","206021","0.0-337.0","3DYGAII7PMU2Q1QUWYDNJZH1N2TPQU","A24G8GL5FX1KAW","3KVQ0UJWPX71V463XQYDOZYIDLRW5D","","687.0999999642372","img/animal3.png","74","688.7000000476837","1","1","3","1,0.7,0,0,1,0.7,0.7,0,1",""
"","html-keyboard-response","338","206325","0.0-338.0","3DYGAII7PMU2Q1QUWYDNJZH1N2TPQU","A24G8GL5FX1KAW","3KVQ0UJWPX71V463XQYDOZYIDLRW5D","","null","<img src=""img/animal3.png"" style=""width:200px; border:14px solid green;"">","null","","","","","",""
"","image-keyboard-response","339","206943","0.0-339.0","3DYGAII7PMU2Q1QUWYDNJZH1N2TPQU","A24G8GL5FX1KAW","3KVQ0UJWPX71V463XQYDOZYIDLRW5D","","616.3999999761581","img/animal6.png","75","618.1000000238419","2","1","1","1,0.7,0,0,1,0.7,0.7,0,1",""
"","html-keyboard-response","340","207252","0.0-340.0","3DYGAII7PMU2Q1QUWYDNJZH1N2TPQU","A24G8GL5FX1KAW","3KVQ0UJWPX71V463XQYDOZYIDLRW5D","","null","<img src=""img/animal6.png"" style=""width:200px; border:14px solid green;"">","null","","","","","",""
"","image-keyboard-response","341","207648","0.0-341.0","3DYGAII7PMU2Q1QUWYDNJZH1N2TPQU","A24G8GL5FX1KAW","3KVQ0UJWPX71V463XQYDOZYIDLRW5D","","394","img/animal6.png","75","395.80000001192093","2","1","1","1,0.7,0,0,1,0.7,0.7,0,1",""
"","html-keyboard-response","342","207956","0.0-342.0","3DYGAII7PMU2Q1QUWYDNJZH1N2TPQU","A24G8GL5FX1KAW","3KVQ0UJWPX71V463XQYDOZYIDLRW5D","","null","<img src=""img/animal6.png"" style=""width:200px; border:14px solid green;"">","null","","","","","",""
"","image-keyboard-response","343","208422","0.0-343.0","3DYGAII7PMU2Q1QUWYDNJZH1N2TPQU","A24G8GL5FX1KAW","3KVQ0UJWPX71V463XQYDOZYIDLRW5D","","465.30000001192093","img/animal6.png","75","466.5999999642372","2","1","1","1,0.7,0,0,1,0.7,0.7,0,1",""
"","html-keyboard-response","344","208732","0.0-344.0","3DYGAII7PMU2Q1QUWYDNJZH1N2TPQU","A24G8GL5FX1KAW","3KVQ0UJWPX71V463XQYDOZYIDLRW5D","","null","<img src=""img/animal6.png"" style=""width:200px; border:14px solid green;"">","null","","","","","",""
"","image-keyboard-response","345","209350","0.0-345.0","3DYGAII7PMU2Q1QUWYDNJZH1N2TPQU","A24G8GL5FX1KAW","3KVQ0UJWPX71V463XQYDOZYIDLRW5D","","616.0999999642372","img/animal2.png","76","617.8999999761581","3","0","2","1,0.7,0,0,1,0.7,0.7,0,1",""
"","html-keyboard-response","346","209659","0.0-346.0","3DYGAII7PMU2Q1QUWYDNJZH1N2TPQU","A24G8GL5FX1KAW","3KVQ0UJWPX71V463XQYDOZYIDLRW5D","","null","<img src=""img/animal2.png"" style=""width:200px;border:14px solid red;"">","null","","","","","",""
"","image-keyboard-response","347","210537","0.0-347.0","3DYGAII7PMU2Q1QUWYDNJZH1N2TPQU","A24G8GL5FX1KAW","3KVQ0UJWPX71V463XQYDOZYIDLRW5D","","875.6000000238419","img/animal6.png","75","877","2","1","1","1,0.7,0,0,1,0.7,0.7,0,1",""
"","html-keyboard-response","348","210844","0.0-348.0","3DYGAII7PMU2Q1QUWYDNJZH1N2TPQU","A24G8GL5FX1KAW","3KVQ0UJWPX71V463XQYDOZYIDLRW5D","","null","<img src=""img/animal6.png"" style=""width:200px; border:14px solid green;"">","null","","","","","",""
"","image-keyboard-response","349","211209","0.0-349.0","3DYGAII7PMU2Q1QUWYDNJZH1N2TPQU","A24G8GL5FX1KAW","3KVQ0UJWPX71V463XQYDOZYIDLRW5D","","363.80000001192093","img/animal6.png","75","365.0999999642372","2","1","1","1,0.7,0,0,1,0.7,0.7,0,1",""
"","html-keyboard-response","350","211516","0.0-350.0","3DYGAII7PMU2Q1QUWYDNJZH1N2TPQU","A24G8GL5FX1KAW","3KVQ0UJWPX71V463XQYDOZYIDLRW5D","","null","<img src=""img/animal6.png"" style=""width:200px; border:14px solid green;"">","null","","","","","",""
"","image-keyboard-response","351","212177","0.0-351.0","3DYGAII7PMU2Q1QUWYDNJZH1N2TPQU","A24G8GL5FX1KAW","3KVQ0UJWPX71V463XQYDOZYIDLRW5D","","659.7000000476837","img/animal2.png","76","661","3","0","2","1,0.7,0,0,1,0.7,0.7,0,1",""
"","html-keyboard-response","352","212483","0.0-352.0","3DYGAII7PMU2Q1QUWYDNJZH1N2TPQU","A24G8GL5FX1KAW","3KVQ0UJWPX71V463XQYDOZYIDLRW5D","","null","<img src=""img/animal2.png"" style=""width:200px;border:14px solid red;"">","null","","","","","",""
"","image-keyboard-response","353","213236","0.0-353.0","3DYGAII7PMU2Q1QUWYDNJZH1N2TPQU","A24G8GL5FX1KAW","3KVQ0UJWPX71V463XQYDOZYIDLRW5D","","751.8999999761581","img/animal3.png","74","753","1","1","3","1,0.7,0,0,1,0.7,0.7,0,1",""
"","html-keyboard-response","354","213540","0.0-354.0","3DYGAII7PMU2Q1QUWYDNJZH1N2TPQU","A24G8GL5FX1KAW","3KVQ0UJWPX71V463XQYDOZYIDLRW5D","","null","<img src=""img/animal3.png"" style=""width:200px; border:14px solid green;"">","null","","","","","",""
"","image-keyboard-response","355","214161","0.0-355.0","3DYGAII7PMU2Q1QUWYDNJZH1N2TPQU","A24G8GL5FX1KAW","3KVQ0UJWPX71V463XQYDOZYIDLRW5D","","619.2000000476837","img/animal3.png","74","620.9000000357628","1","1","3","1,0.7,0,0,1,0.7,0.7,0,1",""
"","html-keyboard-response","356","214474","0.0-356.0","3DYGAII7PMU2Q1QUWYDNJZH1N2TPQU","A24G8GL5FX1KAW","3KVQ0UJWPX71V463XQYDOZYIDLRW5D","","null","<img src=""img/animal3.png"" style=""width:200px; border:14px solid green;"">","null","","","","","",""
"","image-keyboard-response","357","214904","0.0-357.0","3DYGAII7PMU2Q1QUWYDNJZH1N2TPQU","A24G8GL5FX1KAW","3KVQ0UJWPX71V463XQYDOZYIDLRW5D","","428.39999997615814","img/animal3.png","74","429.9000000357628","1","1","3","1,0.7,0,0,1,0.7,0.7,0,1",""
"","html-keyboard-response","358","215212","0.0-358.0","3DYGAII7PMU2Q1QUWYDNJZH1N2TPQU","A24G8GL5FX1KAW","3KVQ0UJWPX71V463XQYDOZYIDLRW5D","","null","<img src=""img/animal3.png"" style=""width:200px; border:14px solid green;"">","null","","","","","",""
"","image-keyboard-response","359","215652","0.0-359.0","3DYGAII7PMU2Q1QUWYDNJZH1N2TPQU","A24G8GL5FX1KAW","3KVQ0UJWPX71V463XQYDOZYIDLRW5D","","437.69999998807907","img/animal3.png","74","439.4000000357628","1","1","3","1,0.7,0,0,1,0.7,0.7,0,1",""
"","html-keyboard-response","360","215956","0.0-360.0","3DYGAII7PMU2Q1QUWYDNJZH1N2TPQU","A24G8GL5FX1KAW","3KVQ0UJWPX71V463XQYDOZYIDLRW5D","","null","<img src=""img/animal3.png"" style=""width:200px; border:14px solid green;"">","null","","","","","",""
"","image-keyboard-response","361","216713","0.0-361.0","3DYGAII7PMU2Q1QUWYDNJZH1N2TPQU","A24G8GL5FX1KAW","3KVQ0UJWPX71V463XQYDOZYIDLRW5D","","755.3999999761581","img/animal3.png","74","757.1999999880791","1","1","3","1,0.7,0,0,1,0.7,0.7,0,1",""
"","html-keyboard-response","362","217020","0.0-362.0","3DYGAII7PMU2Q1QUWYDNJZH1N2TPQU","A24G8GL5FX1KAW","3KVQ0UJWPX71V463XQYDOZYIDLRW5D","","null","<img src=""img/animal3.png"" style=""width:200px; border:14px solid green;"">","null","","","","","",""
"","instructions","363","219214","0.0-363.0","3DYGAII7PMU2Q1QUWYDNJZH1N2TPQU","A24G8GL5FX1KAW","3KVQ0UJWPX71V463XQYDOZYIDLRW5D","[{""page_index"":0,""viewing_time"":2192.599999964237}]","2193.399999976158","","","","","","","",""
"","survey-text","364","224146","0.0-364.0","3DYGAII7PMU2Q1QUWYDNJZH1N2TPQU","A24G8GL5FX1KAW","3KVQ0UJWPX71V463XQYDOZYIDLRW5D","","4916.399999976158","","","","","","","","{""Q0"":""A24G8GL5FX1KAW""}"
