"success","trial_type","trial_index","time_elapsed","internal_node_id","assignmentID","mturkID","hitID","view_history","rt","stimulus","key_press","reactionTime","chosenAction","reward","responses"
"true","fullscreen","0","2367","0.0-0.0","3180JW2OT5YHB44YHTK0OS0YFUT5JX","A24LB89P1BPKKF","3LN3BXKGC0HZB1VNEMH4SWP73O3GW1","","","","","","","",""
"","instructions","1","36753","0.0-1.0","3180JW2OT5YHB44YHTK0OS0YFUT5JX","A24LB89P1BPKKF","3LN3BXKGC0HZB1VNEMH4SWP73O3GW1","[{""page_index"":0,""viewing_time"":7462.9000000059605},{""page_index"":1,""viewing_time"":3432.2000000178814},{""page_index"":2,""viewing_time"":2585.7999999821186},{""page_index"":3,""viewing_time"":5320},{""page_index"":4,""viewing_time"":9224},{""page_index"":5,""viewing_time"":4200},{""page_index"":6,""viewing_time"":1248.4000000059605},{""page_index"":7,""viewing_time"":908}]","34382.40000000596","","","","","",""
"","image-keyboard-response","2","38857","0.0-2.0","3180JW2OT5YHB44YHTK0OS0YFUT5JX","A24LB89P1BPKKF","3LN3BXKGC0HZB1VNEMH4SWP73O3GW1","","2102.4000000059605","img/animal1.png","74","2104.4000000059605","74","1",""
"","html-keyboard-response","3","39166","0.0-3.0","3180JW2OT5YHB44YHTK0OS0YFUT5JX","A24LB89P1BPKKF","3LN3BXKGC0HZB1VNEMH4SWP73O3GW1","","null","<img src=""img/animal1.png"" style=""width:200px; border:14px solid green;"">","null","","","",""
"","image-keyboard-response","4","39747","0.0-4.0","3180JW2OT5YHB44YHTK0OS0YFUT5JX","A24LB89P1BPKKF","3LN3BXKGC0HZB1VNEMH4SWP73O3GW1","","579.5999999940395","img/animal1.png","74","580.5999999940395","74","1",""
"","html-keyboard-response","5","40049","0.0-5.0","3180JW2OT5YHB44YHTK0OS0YFUT5JX","A24LB89P1BPKKF","3LN3BXKGC0HZB1VNEMH4SWP73O3GW1","","null","<img src=""img/animal1.png"" style=""width:200px; border:14px solid green;"">","null","","","",""
"","image-keyboard-response","6","40909","0.0-6.0","3180JW2OT5YHB44YHTK0OS0YFUT5JX","A24LB89P1BPKKF","3LN3BXKGC0HZB1VNEMH4SWP73O3GW1","","857.0999999940395","img/animal5.png","75","859.2999999821186","75","1",""
"","html-keyboard-response","7","41212","0.0-7.0","3180JW2OT5YHB44YHTK0OS0YFUT5JX","A24LB89P1BPKKF","3LN3BXKGC0HZB1VNEMH4SWP73O3GW1","","null","<img src=""img/animal5.png"" style=""width:200px; border:14px solid green;"">","null","","","",""
"","image-keyboard-response","8","41560","0.0-8.0","3180JW2OT5YHB44YHTK0OS0YFUT5JX","A24LB89P1BPKKF","3LN3BXKGC0HZB1VNEMH4SWP73O3GW1","","345.09999999403954","img/animal5.png","75","347.30000001192093","75","1",""
"","html-keyboard-response","9","41867","0.0-9.0","3180JW2OT5YHB44YHTK0OS0YFUT5JX","A24LB89P1BPKKF","3LN3BXKGC0HZB1VNEMH4SWP73O3GW1","","null","<img src=""img/animal5.png"" style=""width:200px; border:14px solid green;"">","null","","","",""
"","image-keyboard-response","10","42501","0.0-10.0","3180JW2OT5YHB44YHTK0OS0YFUT5JX","A24LB89P1BPKKF","3LN3BXKGC0HZB1VNEMH4SWP73O3GW1","","631.6999999880791","img/animal1.png","74","633.3999999761581","74","1",""
"","html-keyboard-response","11","42804","0.0-11.0","3180JW2OT5YHB44YHTK0OS0YFUT5JX","A24LB89P1BPKKF","3LN3BXKGC0HZB1VNEMH4SWP73O3GW1","","null","<img src=""img/animal1.png"" style=""width:200px; border:14px solid green;"">","null","","","",""
"","image-keyboard-response","12","43474","0.0-12.0","3180JW2OT5YHB44YHTK0OS0YFUT5JX","A24LB89P1BPKKF","3LN3BXKGC0HZB1VNEMH4SWP73O3GW1","","668.0999999940395","img/animal2.png","76","669.5","76","1",""
"","html-keyboard-response","13","43776","0.0-13.0","3180JW2OT5YHB44YHTK0OS0YFUT5JX","A24LB89P1BPKKF","3LN3BXKGC0HZB1VNEMH4SWP73O3GW1","","null","<img src=""img/animal2.png"" style=""width:200px; border:14px solid green;"">","null","","","",""
"","image-keyboard-response","14","44148","0.0-14.0","3180JW2OT5YHB44YHTK0OS0YFUT5JX","A24LB89P1BPKKF","3LN3BXKGC0HZB1VNEMH4SWP73O3GW1","","370.59999999403954","img/animal2.png","76","371.40000000596046","76","1",""
"","html-keyboard-response","15","44454","0.0-15.0","3180JW2OT5YHB44YHTK0OS0YFUT5JX","A24LB89P1BPKKF","3LN3BXKGC0HZB1VNEMH4SWP73O3GW1","","null","<img src=""img/animal2.png"" style=""width:200px; border:14px solid green;"">","null","","","",""
"","image-keyboard-response","16","45828","0.0-16.0","3180JW2OT5YHB44YHTK0OS0YFUT5JX","A24LB89P1BPKKF","3LN3BXKGC0HZB1VNEMH4SWP73O3GW1","","1368.800000011921","img/animal5.png","75","1371.800000011921","75","1",""
"","html-keyboard-response","17","46130","0.0-17.0","3180JW2OT5YHB44YHTK0OS0YFUT5JX","A24LB89P1BPKKF","3LN3BXKGC0HZB1VNEMH4SWP73O3GW1","","null","<img src=""img/animal5.png"" style=""width:200px; border:14px solid green;"">","null","","","",""
"","image-keyboard-response","18","46830","0.0-18.0","3180JW2OT5YHB44YHTK0OS0YFUT5JX","A24LB89P1BPKKF","3LN3BXKGC0HZB1VNEMH4SWP73O3GW1","","697.5999999940395","img/animal1.png","74","699.5","74","1",""
"","html-keyboard-response","19","47132","0.0-19.0","3180JW2OT5YHB44YHTK0OS0YFUT5JX","A24LB89P1BPKKF","3LN3BXKGC0HZB1VNEMH4SWP73O3GW1","","null","<img src=""img/animal1.png"" style=""width:200px; border:14px solid green;"">","null","","","",""
"","image-keyboard-response","20","47631","0.0-20.0","3180JW2OT5YHB44YHTK0OS0YFUT5JX","A24LB89P1BPKKF","3LN3BXKGC0HZB1VNEMH4SWP73O3GW1","","496.39999997615814","img/animal1.png","74","498.7000000178814","74","1",""
"","html-keyboard-response","21","47934","0.0-21.0","3180JW2OT5YHB44YHTK0OS0YFUT5JX","A24LB89P1BPKKF","3LN3BXKGC0HZB1VNEMH4SWP73O3GW1","","null","<img src=""img/animal1.png"" style=""width:200px; border:14px solid green;"">","null","","","",""
"","image-keyboard-response","22","48664","0.0-22.0","3180JW2OT5YHB44YHTK0OS0YFUT5JX","A24LB89P1BPKKF","3LN3BXKGC0HZB1VNEMH4SWP73O3GW1","","727.5","img/animal5.png","75","729.0999999940395","75","1",""
"","html-keyboard-response","23","48966","0.0-23.0","3180JW2OT5YHB44YHTK0OS0YFUT5JX","A24LB89P1BPKKF","3LN3BXKGC0HZB1VNEMH4SWP73O3GW1","","null","<img src=""img/animal5.png"" style=""width:200px; border:14px solid green;"">","null","","","",""
"","image-keyboard-response","24","49595","0.0-24.0","3180JW2OT5YHB44YHTK0OS0YFUT5JX","A24LB89P1BPKKF","3LN3BXKGC0HZB1VNEMH4SWP73O3GW1","","626.4000000059605","img/animal2.png","76","628.4000000059605","76","1",""
"","html-keyboard-response","25","49913","0.0-25.0","3180JW2OT5YHB44YHTK0OS0YFUT5JX","A24LB89P1BPKKF","3LN3BXKGC0HZB1VNEMH4SWP73O3GW1","","null","<img src=""img/animal2.png"" style=""width:200px; border:14px solid green;"">","null","","","",""
"","image-keyboard-response","26","50259","0.0-26.0","3180JW2OT5YHB44YHTK0OS0YFUT5JX","A24LB89P1BPKKF","3LN3BXKGC0HZB1VNEMH4SWP73O3GW1","","345.09999999403954","img/animal2.png","76","345.90000000596046","76","1",""
"","html-keyboard-response","27","50561","0.0-27.0","3180JW2OT5YHB44YHTK0OS0YFUT5JX","A24LB89P1BPKKF","3LN3BXKGC0HZB1VNEMH4SWP73O3GW1","","null","<img src=""img/animal2.png"" style=""width:200px; border:14px solid green;"">","null","","","",""
"","image-keyboard-response","28","51078","0.0-28.0","3180JW2OT5YHB44YHTK0OS0YFUT5JX","A24LB89P1BPKKF","3LN3BXKGC0HZB1VNEMH4SWP73O3GW1","","515.4000000059605","img/animal5.png","74","516.4000000059605","74","0",""
"","html-keyboard-response","29","51380","0.0-29.0","3180JW2OT5YHB44YHTK0OS0YFUT5JX","A24LB89P1BPKKF","3LN3BXKGC0HZB1VNEMH4SWP73O3GW1","","null","<img src=""img/animal5.png"" style=""width:200px;border:14px solid red;"">","null","","","",""
"","image-keyboard-response","30","52168","0.0-30.0","3180JW2OT5YHB44YHTK0OS0YFUT5JX","A24LB89P1BPKKF","3LN3BXKGC0HZB1VNEMH4SWP73O3GW1","","787.1000000238419","img/animal2.png","76","788.5","76","1",""
"","html-keyboard-response","31","52471","0.0-31.0","3180JW2OT5YHB44YHTK0OS0YFUT5JX","A24LB89P1BPKKF","3LN3BXKGC0HZB1VNEMH4SWP73O3GW1","","null","<img src=""img/animal2.png"" style=""width:200px; border:14px solid green;"">","null","","","",""
"","image-keyboard-response","32","52874","0.0-32.0","3180JW2OT5YHB44YHTK0OS0YFUT5JX","A24LB89P1BPKKF","3LN3BXKGC0HZB1VNEMH4SWP73O3GW1","","401.30000001192093","img/animal2.png","76","402.80000001192093","76","1",""
"","html-keyboard-response","33","53177","0.0-33.0","3180JW2OT5YHB44YHTK0OS0YFUT5JX","A24LB89P1BPKKF","3LN3BXKGC0HZB1VNEMH4SWP73O3GW1","","null","<img src=""img/animal2.png"" style=""width:200px; border:14px solid green;"">","null","","","",""
"","image-keyboard-response","34","54131","0.0-34.0","3180JW2OT5YHB44YHTK0OS0YFUT5JX","A24LB89P1BPKKF","3LN3BXKGC0HZB1VNEMH4SWP73O3GW1","","951.0999999940395","img/animal5.png","75","953.2999999821186","75","1",""
"","html-keyboard-response","35","54435","0.0-35.0","3180JW2OT5YHB44YHTK0OS0YFUT5JX","A24LB89P1BPKKF","3LN3BXKGC0HZB1VNEMH4SWP73O3GW1","","null","<img src=""img/animal5.png"" style=""width:200px; border:14px solid green;"">","null","","","",""
"","image-keyboard-response","36","54776","0.0-36.0","3180JW2OT5YHB44YHTK0OS0YFUT5JX","A24LB89P1BPKKF","3LN3BXKGC0HZB1VNEMH4SWP73O3GW1","","339.30000001192093","img/animal5.png","75","341.30000001192093","75","1",""
"","html-keyboard-response","37","55079","0.0-37.0","3180JW2OT5YHB44YHTK0OS0YFUT5JX","A24LB89P1BPKKF","3LN3BXKGC0HZB1VNEMH4SWP73O3GW1","","null","<img src=""img/animal5.png"" style=""width:200px; border:14px solid green;"">","null","","","",""
"","image-keyboard-response","38","55462","0.0-38.0","3180JW2OT5YHB44YHTK0OS0YFUT5JX","A24LB89P1BPKKF","3LN3BXKGC0HZB1VNEMH4SWP73O3GW1","","381.7999999821186","img/animal5.png","75","382.7999999821186","75","1",""
"","html-keyboard-response","39","55765","0.0-39.0","3180JW2OT5YHB44YHTK0OS0YFUT5JX","A24LB89P1BPKKF","3LN3BXKGC0HZB1VNEMH4SWP73O3GW1","","null","<img src=""img/animal5.png"" style=""width:200px; border:14px solid green;"">","null","","","",""
"","image-keyboard-response","40","56345","0.0-40.0","3180JW2OT5YHB44YHTK0OS0YFUT5JX","A24LB89P1BPKKF","3LN3BXKGC0HZB1VNEMH4SWP73O3GW1","","578.1999999880791","img/animal2.png","76","580","76","1",""
"","html-keyboard-response","41","56647","0.0-41.0","3180JW2OT5YHB44YHTK0OS0YFUT5JX","A24LB89P1BPKKF","3LN3BXKGC0HZB1VNEMH4SWP73O3GW1","","null","<img src=""img/animal2.png"" style=""width:200px; border:14px solid green;"">","null","","","",""
"","image-keyboard-response","42","57140","0.0-42.0","3180JW2OT5YHB44YHTK0OS0YFUT5JX","A24LB89P1BPKKF","3LN3BXKGC0HZB1VNEMH4SWP73O3GW1","","490.2000000178814","img/animal1.png","74","492.09999999403954","74","1",""
"","html-keyboard-response","43","57442","0.0-43.0","3180JW2OT5YHB44YHTK0OS0YFUT5JX","A24LB89P1BPKKF","3LN3BXKGC0HZB1VNEMH4SWP73O3GW1","","null","<img src=""img/animal1.png"" style=""width:200px; border:14px solid green;"">","null","","","",""
"","image-keyboard-response","44","57769","0.0-44.0","3180JW2OT5YHB44YHTK0OS0YFUT5JX","A24LB89P1BPKKF","3LN3BXKGC0HZB1VNEMH4SWP73O3GW1","","325","img/animal1.png","74","326.90000000596046","74","1",""
"","html-keyboard-response","45","58073","0.0-45.0","3180JW2OT5YHB44YHTK0OS0YFUT5JX","A24LB89P1BPKKF","3LN3BXKGC0HZB1VNEMH4SWP73O3GW1","","null","<img src=""img/animal1.png"" style=""width:200px; border:14px solid green;"">","null","","","",""
"","image-keyboard-response","46","58420","0.0-46.0","3180JW2OT5YHB44YHTK0OS0YFUT5JX","A24LB89P1BPKKF","3LN3BXKGC0HZB1VNEMH4SWP73O3GW1","","344.7999999821186","img/animal1.png","74","346.2999999821186","74","1",""
"","html-keyboard-response","47","58722","0.0-47.0","3180JW2OT5YHB44YHTK0OS0YFUT5JX","A24LB89P1BPKKF","3LN3BXKGC0HZB1VNEMH4SWP73O3GW1","","null","<img src=""img/animal1.png"" style=""width:200px; border:14px solid green;"">","null","","","",""
"","image-keyboard-response","48","60109","0.0-48.0","3180JW2OT5YHB44YHTK0OS0YFUT5JX","A24LB89P1BPKKF","3LN3BXKGC0HZB1VNEMH4SWP73O3GW1","","1385.2000000178814","img/animal2.png","76","1386.3999999761581","76","1",""
"","html-keyboard-response","49","60412","0.0-49.0","3180JW2OT5YHB44YHTK0OS0YFUT5JX","A24LB89P1BPKKF","3LN3BXKGC0HZB1VNEMH4SWP73O3GW1","","null","<img src=""img/animal2.png"" style=""width:200px; border:14px solid green;"">","null","","","",""
"","image-keyboard-response","50","60723","0.0-50.0","3180JW2OT5YHB44YHTK0OS0YFUT5JX","A24LB89P1BPKKF","3LN3BXKGC0HZB1VNEMH4SWP73O3GW1","","309.59999999403954","img/animal2.png","76","310.90000000596046","76","1",""
"","html-keyboard-response","51","61025","0.0-51.0","3180JW2OT5YHB44YHTK0OS0YFUT5JX","A24LB89P1BPKKF","3LN3BXKGC0HZB1VNEMH4SWP73O3GW1","","null","<img src=""img/animal2.png"" style=""width:200px; border:14px solid green;"">","null","","","",""
"","image-keyboard-response","52","61365","0.0-52.0","3180JW2OT5YHB44YHTK0OS0YFUT5JX","A24LB89P1BPKKF","3LN3BXKGC0HZB1VNEMH4SWP73O3GW1","","336.69999998807907","img/animal2.png","76","338.7999999821186","76","1",""
"","html-keyboard-response","53","61668","0.0-53.0","3180JW2OT5YHB44YHTK0OS0YFUT5JX","A24LB89P1BPKKF","3LN3BXKGC0HZB1VNEMH4SWP73O3GW1","","null","<img src=""img/animal2.png"" style=""width:200px; border:14px solid green;"">","null","","","",""
"","image-keyboard-response","54","62469","0.0-54.0","3180JW2OT5YHB44YHTK0OS0YFUT5JX","A24LB89P1BPKKF","3LN3BXKGC0HZB1VNEMH4SWP73O3GW1","","799.5999999940395","img/animal1.png","74","801","74","1",""
"","html-keyboard-response","55","62772","0.0-55.0","3180JW2OT5YHB44YHTK0OS0YFUT5JX","A24LB89P1BPKKF","3LN3BXKGC0HZB1VNEMH4SWP73O3GW1","","null","<img src=""img/animal1.png"" style=""width:200px; border:14px solid green;"">","null","","","",""
"","image-keyboard-response","56","63396","0.0-56.0","3180JW2OT5YHB44YHTK0OS0YFUT5JX","A24LB89P1BPKKF","3LN3BXKGC0HZB1VNEMH4SWP73O3GW1","","621.5999999940395","img/animal2.png","76","623.4000000059605","76","1",""
"","html-keyboard-response","57","63700","0.0-57.0","3180JW2OT5YHB44YHTK0OS0YFUT5JX","A24LB89P1BPKKF","3LN3BXKGC0HZB1VNEMH4SWP73O3GW1","","null","<img src=""img/animal2.png"" style=""width:200px; border:14px solid green;"">","null","","","",""
"","image-keyboard-response","58","64335","0.0-58.0","3180JW2OT5YHB44YHTK0OS0YFUT5JX","A24LB89P1BPKKF","3LN3BXKGC0HZB1VNEMH4SWP73O3GW1","","633.3000000119209","img/animal5.png","75","634.8000000119209","75","1",""
"","html-keyboard-response","59","64637","0.0-59.0","3180JW2OT5YHB44YHTK0OS0YFUT5JX","A24LB89P1BPKKF","3LN3BXKGC0HZB1VNEMH4SWP73O3GW1","","null","<img src=""img/animal5.png"" style=""width:200px; border:14px solid green;"">","null","","","",""
"","image-keyboard-response","60","65331","0.0-60.0","3180JW2OT5YHB44YHTK0OS0YFUT5JX","A24LB89P1BPKKF","3LN3BXKGC0HZB1VNEMH4SWP73O3GW1","","691.5","img/animal2.png","76","693.8000000119209","76","1",""
"","html-keyboard-response","61","65634","0.0-61.0","3180JW2OT5YHB44YHTK0OS0YFUT5JX","A24LB89P1BPKKF","3LN3BXKGC0HZB1VNEMH4SWP73O3GW1","","null","<img src=""img/animal2.png"" style=""width:200px; border:14px solid green;"">","null","","","",""
"","image-keyboard-response","62","66033","0.0-62.0","3180JW2OT5YHB44YHTK0OS0YFUT5JX","A24LB89P1BPKKF","3LN3BXKGC0HZB1VNEMH4SWP73O3GW1","","396.80000001192093","img/animal2.png","76","398.80000001192093","76","1",""
"","html-keyboard-response","63","66336","0.0-63.0","3180JW2OT5YHB44YHTK0OS0YFUT5JX","A24LB89P1BPKKF","3LN3BXKGC0HZB1VNEMH4SWP73O3GW1","","null","<img src=""img/animal2.png"" style=""width:200px; border:14px solid green;"">","null","","","",""
"","image-keyboard-response","64","67044","0.0-64.0","3180JW2OT5YHB44YHTK0OS0YFUT5JX","A24LB89P1BPKKF","3LN3BXKGC0HZB1VNEMH4SWP73O3GW1","","706.3000000119209","img/animal1.png","74","707.9000000059605","74","1",""
"","html-keyboard-response","65","67346","0.0-65.0","3180JW2OT5YHB44YHTK0OS0YFUT5JX","A24LB89P1BPKKF","3LN3BXKGC0HZB1VNEMH4SWP73O3GW1","","null","<img src=""img/animal1.png"" style=""width:200px; border:14px solid green;"">","null","","","",""
"","image-keyboard-response","66","67980","0.0-66.0","3180JW2OT5YHB44YHTK0OS0YFUT5JX","A24LB89P1BPKKF","3LN3BXKGC0HZB1VNEMH4SWP73O3GW1","","631.8999999761581","img/animal2.png","76","633.2999999821186","76","1",""
"","html-keyboard-response","67","68284","0.0-67.0","3180JW2OT5YHB44YHTK0OS0YFUT5JX","A24LB89P1BPKKF","3LN3BXKGC0HZB1VNEMH4SWP73O3GW1","","null","<img src=""img/animal2.png"" style=""width:200px; border:14px solid green;"">","null","","","",""
"","image-keyboard-response","68","68842","0.0-68.0","3180JW2OT5YHB44YHTK0OS0YFUT5JX","A24LB89P1BPKKF","3LN3BXKGC0HZB1VNEMH4SWP73O3GW1","","557.0999999940395","img/animal1.png","74","558.4000000059605","74","1",""
"","html-keyboard-response","69","69145","0.0-69.0","3180JW2OT5YHB44YHTK0OS0YFUT5JX","A24LB89P1BPKKF","3LN3BXKGC0HZB1VNEMH4SWP73O3GW1","","null","<img src=""img/animal1.png"" style=""width:200px; border:14px solid green;"">","null","","","",""
"","image-keyboard-response","70","69525","0.0-70.0","3180JW2OT5YHB44YHTK0OS0YFUT5JX","A24LB89P1BPKKF","3LN3BXKGC0HZB1VNEMH4SWP73O3GW1","","378.19999998807907","img/animal1.png","74","380.09999999403954","74","1",""
"","html-keyboard-response","71","69828","0.0-71.0","3180JW2OT5YHB44YHTK0OS0YFUT5JX","A24LB89P1BPKKF","3LN3BXKGC0HZB1VNEMH4SWP73O3GW1","","null","<img src=""img/animal1.png"" style=""width:200px; border:14px solid green;"">","null","","","",""
"","image-keyboard-response","72","70208","0.0-72.0","3180JW2OT5YHB44YHTK0OS0YFUT5JX","A24LB89P1BPKKF","3LN3BXKGC0HZB1VNEMH4SWP73O3GW1","","378.7999999821186","img/animal1.png","74","379.7999999821186","74","1",""
"","html-keyboard-response","73","70509","0.0-73.0","3180JW2OT5YHB44YHTK0OS0YFUT5JX","A24LB89P1BPKKF","3LN3BXKGC0HZB1VNEMH4SWP73O3GW1","","null","<img src=""img/animal1.png"" style=""width:200px; border:14px solid green;"">","null","","","",""
"","image-keyboard-response","74","71141","0.0-74.0","3180JW2OT5YHB44YHTK0OS0YFUT5JX","A24LB89P1BPKKF","3LN3BXKGC0HZB1VNEMH4SWP73O3GW1","","630.0999999940395","img/animal2.png","76","631.4000000059605","76","1",""
"","html-keyboard-response","75","71448","0.0-75.0","3180JW2OT5YHB44YHTK0OS0YFUT5JX","A24LB89P1BPKKF","3LN3BXKGC0HZB1VNEMH4SWP73O3GW1","","null","<img src=""img/animal2.png"" style=""width:200px; border:14px solid green;"">","null","","","",""
"","image-keyboard-response","76","71972","0.0-76.0","3180JW2OT5YHB44YHTK0OS0YFUT5JX","A24LB89P1BPKKF","3LN3BXKGC0HZB1VNEMH4SWP73O3GW1","","522.4000000059605","img/animal5.png","75","524","75","1",""
"","html-keyboard-response","77","72274","0.0-77.0","3180JW2OT5YHB44YHTK0OS0YFUT5JX","A24LB89P1BPKKF","3LN3BXKGC0HZB1VNEMH4SWP73O3GW1","","null","<img src=""img/animal5.png"" style=""width:200px; border:14px solid green;"">","null","","","",""
"","image-keyboard-response","78","72586","0.0-78.0","3180JW2OT5YHB44YHTK0OS0YFUT5JX","A24LB89P1BPKKF","3LN3BXKGC0HZB1VNEMH4SWP73O3GW1","","309.5","img/animal5.png","75","311.2999999821186","75","1",""
"","html-keyboard-response","79","72889","0.0-79.0","3180JW2OT5YHB44YHTK0OS0YFUT5JX","A24LB89P1BPKKF","3LN3BXKGC0HZB1VNEMH4SWP73O3GW1","","null","<img src=""img/animal5.png"" style=""width:200px; border:14px solid green;"">","null","","","",""
"","image-keyboard-response","80","73491","0.0-80.0","3180JW2OT5YHB44YHTK0OS0YFUT5JX","A24LB89P1BPKKF","3LN3BXKGC0HZB1VNEMH4SWP73O3GW1","","599.9000000059605","img/animal1.png","74","601.8000000119209","74","1",""
"","html-keyboard-response","81","73794","0.0-81.0","3180JW2OT5YHB44YHTK0OS0YFUT5JX","A24LB89P1BPKKF","3LN3BXKGC0HZB1VNEMH4SWP73O3GW1","","null","<img src=""img/animal1.png"" style=""width:200px; border:14px solid green;"">","null","","","",""
"","image-keyboard-response","82","74275","0.0-82.0","3180JW2OT5YHB44YHTK0OS0YFUT5JX","A24LB89P1BPKKF","3LN3BXKGC0HZB1VNEMH4SWP73O3GW1","","479.90000000596046","img/animal2.png","76","480.7999999821186","76","1",""
"","html-keyboard-response","83","74576","0.0-83.0","3180JW2OT5YHB44YHTK0OS0YFUT5JX","A24LB89P1BPKKF","3LN3BXKGC0HZB1VNEMH4SWP73O3GW1","","null","<img src=""img/animal2.png"" style=""width:200px; border:14px solid green;"">","null","","","",""
"","image-keyboard-response","84","75341","0.0-84.0","3180JW2OT5YHB44YHTK0OS0YFUT5JX","A24LB89P1BPKKF","3LN3BXKGC0HZB1VNEMH4SWP73O3GW1","","763.1999999880791","img/animal5.png","75","765","75","1",""
"","html-keyboard-response","85","75644","0.0-85.0","3180JW2OT5YHB44YHTK0OS0YFUT5JX","A24LB89P1BPKKF","3LN3BXKGC0HZB1VNEMH4SWP73O3GW1","","null","<img src=""img/animal5.png"" style=""width:200px; border:14px solid green;"">","null","","","",""
"","image-keyboard-response","86","77041","0.0-86.0","3180JW2OT5YHB44YHTK0OS0YFUT5JX","A24LB89P1BPKKF","3LN3BXKGC0HZB1VNEMH4SWP73O3GW1","","1394.699999988079","img/animal1.png","74","1396.4000000059605","74","1",""
"","html-keyboard-response","87","77344","0.0-87.0","3180JW2OT5YHB44YHTK0OS0YFUT5JX","A24LB89P1BPKKF","3LN3BXKGC0HZB1VNEMH4SWP73O3GW1","","null","<img src=""img/animal1.png"" style=""width:200px; border:14px solid green;"">","null","","","",""
"","image-keyboard-response","88","77850","0.0-88.0","3180JW2OT5YHB44YHTK0OS0YFUT5JX","A24LB89P1BPKKF","3LN3BXKGC0HZB1VNEMH4SWP73O3GW1","","504.19999998807907","img/animal2.png","76","505.5","76","1",""
"","html-keyboard-response","89","78153","0.0-89.0","3180JW2OT5YHB44YHTK0OS0YFUT5JX","A24LB89P1BPKKF","3LN3BXKGC0HZB1VNEMH4SWP73O3GW1","","null","<img src=""img/animal2.png"" style=""width:200px; border:14px solid green;"">","null","","","",""
"","image-keyboard-response","90","78599","0.0-90.0","3180JW2OT5YHB44YHTK0OS0YFUT5JX","A24LB89P1BPKKF","3LN3BXKGC0HZB1VNEMH4SWP73O3GW1","","444.90000000596046","img/animal1.png","74","446.10000002384186","74","1",""
"","html-keyboard-response","91","78901","0.0-91.0","3180JW2OT5YHB44YHTK0OS0YFUT5JX","A24LB89P1BPKKF","3LN3BXKGC0HZB1VNEMH4SWP73O3GW1","","null","<img src=""img/animal1.png"" style=""width:200px; border:14px solid green;"">","null","","","",""
"","image-keyboard-response","92","79231","0.0-92.0","3180JW2OT5YHB44YHTK0OS0YFUT5JX","A24LB89P1BPKKF","3LN3BXKGC0HZB1VNEMH4SWP73O3GW1","","328.40000000596046","img/animal1.png","74","329.90000000596046","74","1",""
"","html-keyboard-response","93","79549","0.0-93.0","3180JW2OT5YHB44YHTK0OS0YFUT5JX","A24LB89P1BPKKF","3LN3BXKGC0HZB1VNEMH4SWP73O3GW1","","null","<img src=""img/animal1.png"" style=""width:200px; border:14px solid green;"">","null","","","",""
"","image-keyboard-response","94","80135","0.0-94.0","3180JW2OT5YHB44YHTK0OS0YFUT5JX","A24LB89P1BPKKF","3LN3BXKGC0HZB1VNEMH4SWP73O3GW1","","584.7000000178814","img/animal2.png","76","586.4000000059605","76","1",""
"","html-keyboard-response","95","80438","0.0-95.0","3180JW2OT5YHB44YHTK0OS0YFUT5JX","A24LB89P1BPKKF","3LN3BXKGC0HZB1VNEMH4SWP73O3GW1","","null","<img src=""img/animal2.png"" style=""width:200px; border:14px solid green;"">","null","","","",""
"","image-keyboard-response","96","80780","0.0-96.0","3180JW2OT5YHB44YHTK0OS0YFUT5JX","A24LB89P1BPKKF","3LN3BXKGC0HZB1VNEMH4SWP73O3GW1","","340.80000001192093","img/animal2.png","76","342.30000001192093","76","1",""
"","html-keyboard-response","97","81084","0.0-97.0","3180JW2OT5YHB44YHTK0OS0YFUT5JX","A24LB89P1BPKKF","3LN3BXKGC0HZB1VNEMH4SWP73O3GW1","","null","<img src=""img/animal2.png"" style=""width:200px; border:14px solid green;"">","null","","","",""
"","image-keyboard-response","98","81687","0.0-98.0","3180JW2OT5YHB44YHTK0OS0YFUT5JX","A24LB89P1BPKKF","3LN3BXKGC0HZB1VNEMH4SWP73O3GW1","","600","img/animal5.png","75","602.0999999940395","75","1",""
"","html-keyboard-response","99","81990","0.0-99.0","3180JW2OT5YHB44YHTK0OS0YFUT5JX","A24LB89P1BPKKF","3LN3BXKGC0HZB1VNEMH4SWP73O3GW1","","null","<img src=""img/animal5.png"" style=""width:200px; border:14px solid green;"">","null","","","",""
"","image-keyboard-response","100","82309","0.0-100.0","3180JW2OT5YHB44YHTK0OS0YFUT5JX","A24LB89P1BPKKF","3LN3BXKGC0HZB1VNEMH4SWP73O3GW1","","316.89999997615814","img/animal5.png","75","318.59999999403954","75","1",""
"","html-keyboard-response","101","82614","0.0-101.0","3180JW2OT5YHB44YHTK0OS0YFUT5JX","A24LB89P1BPKKF","3LN3BXKGC0HZB1VNEMH4SWP73O3GW1","","null","<img src=""img/animal5.png"" style=""width:200px; border:14px solid green;"">","null","","","",""
"","image-keyboard-response","102","83125","0.0-102.0","3180JW2OT5YHB44YHTK0OS0YFUT5JX","A24LB89P1BPKKF","3LN3BXKGC0HZB1VNEMH4SWP73O3GW1","","508.90000000596046","img/animal2.png","74","510.90000000596046","74","0",""
"","html-keyboard-response","103","83428","0.0-103.0","3180JW2OT5YHB44YHTK0OS0YFUT5JX","A24LB89P1BPKKF","3LN3BXKGC0HZB1VNEMH4SWP73O3GW1","","null","<img src=""img/animal2.png"" style=""width:200px;border:14px solid red;"">","null","","","",""
"","image-keyboard-response","104","83865","0.0-104.0","3180JW2OT5YHB44YHTK0OS0YFUT5JX","A24LB89P1BPKKF","3LN3BXKGC0HZB1VNEMH4SWP73O3GW1","","434.09999999403954","img/animal2.png","76","436.09999999403954","76","1",""
"","html-keyboard-response","105","84168","0.0-105.0","3180JW2OT5YHB44YHTK0OS0YFUT5JX","A24LB89P1BPKKF","3LN3BXKGC0HZB1VNEMH4SWP73O3GW1","","null","<img src=""img/animal2.png"" style=""width:200px; border:14px solid green;"">","null","","","",""
"","image-keyboard-response","106","85317","0.0-106.0","3180JW2OT5YHB44YHTK0OS0YFUT5JX","A24LB89P1BPKKF","3LN3BXKGC0HZB1VNEMH4SWP73O3GW1","","1147.2000000178814","img/animal5.png","75","1148.5","75","1",""
"","html-keyboard-response","107","85620","0.0-107.0","3180JW2OT5YHB44YHTK0OS0YFUT5JX","A24LB89P1BPKKF","3LN3BXKGC0HZB1VNEMH4SWP73O3GW1","","null","<img src=""img/animal5.png"" style=""width:200px; border:14px solid green;"">","null","","","",""
"","image-keyboard-response","108","86314","0.0-108.0","3180JW2OT5YHB44YHTK0OS0YFUT5JX","A24LB89P1BPKKF","3LN3BXKGC0HZB1VNEMH4SWP73O3GW1","","692.5999999940395","img/animal2.png","76","694","76","1",""
"","html-keyboard-response","109","86616","0.0-109.0","3180JW2OT5YHB44YHTK0OS0YFUT5JX","A24LB89P1BPKKF","3LN3BXKGC0HZB1VNEMH4SWP73O3GW1","","null","<img src=""img/animal2.png"" style=""width:200px; border:14px solid green;"">","null","","","",""
"","image-keyboard-response","110","87434","0.0-110.0","3180JW2OT5YHB44YHTK0OS0YFUT5JX","A24LB89P1BPKKF","3LN3BXKGC0HZB1VNEMH4SWP73O3GW1","","815.2999999821186","img/animal5.png","75","817.7000000178814","75","1",""
"","html-keyboard-response","111","87737","0.0-111.0","3180JW2OT5YHB44YHTK0OS0YFUT5JX","A24LB89P1BPKKF","3LN3BXKGC0HZB1VNEMH4SWP73O3GW1","","null","<img src=""img/animal5.png"" style=""width:200px; border:14px solid green;"">","null","","","",""
"","image-keyboard-response","112","88260","0.0-112.0","3180JW2OT5YHB44YHTK0OS0YFUT5JX","A24LB89P1BPKKF","3LN3BXKGC0HZB1VNEMH4SWP73O3GW1","","521","img/animal1.png","74","522.5","74","1",""
"","html-keyboard-response","113","88562","0.0-113.0","3180JW2OT5YHB44YHTK0OS0YFUT5JX","A24LB89P1BPKKF","3LN3BXKGC0HZB1VNEMH4SWP73O3GW1","","null","<img src=""img/animal1.png"" style=""width:200px; border:14px solid green;"">","null","","","",""
"","image-keyboard-response","114","88887","0.0-114.0","3180JW2OT5YHB44YHTK0OS0YFUT5JX","A24LB89P1BPKKF","3LN3BXKGC0HZB1VNEMH4SWP73O3GW1","","324.5","img/animal1.png","74","325.5","74","1",""
"","html-keyboard-response","115","89190","0.0-115.0","3180JW2OT5YHB44YHTK0OS0YFUT5JX","A24LB89P1BPKKF","3LN3BXKGC0HZB1VNEMH4SWP73O3GW1","","null","<img src=""img/animal1.png"" style=""width:200px; border:14px solid green;"">","null","","","",""
"","image-keyboard-response","116","89724","0.0-116.0","3180JW2OT5YHB44YHTK0OS0YFUT5JX","A24LB89P1BPKKF","3LN3BXKGC0HZB1VNEMH4SWP73O3GW1","","531.4000000059605","img/animal2.png","76","533.7000000178814","76","1",""
"","html-keyboard-response","117","90027","0.0-117.0","3180JW2OT5YHB44YHTK0OS0YFUT5JX","A24LB89P1BPKKF","3LN3BXKGC0HZB1VNEMH4SWP73O3GW1","","null","<img src=""img/animal2.png"" style=""width:200px; border:14px solid green;"">","null","","","",""
"","image-keyboard-response","118","90621","0.0-118.0","3180JW2OT5YHB44YHTK0OS0YFUT5JX","A24LB89P1BPKKF","3LN3BXKGC0HZB1VNEMH4SWP73O3GW1","","593.0999999940395","img/animal1.png","74","594.1999999880791","74","1",""
"","html-keyboard-response","119","90923","0.0-119.0","3180JW2OT5YHB44YHTK0OS0YFUT5JX","A24LB89P1BPKKF","3LN3BXKGC0HZB1VNEMH4SWP73O3GW1","","null","<img src=""img/animal1.png"" style=""width:200px; border:14px solid green;"">","null","","","",""
"","image-keyboard-response","120","91272","0.0-120.0","3180JW2OT5YHB44YHTK0OS0YFUT5JX","A24LB89P1BPKKF","3LN3BXKGC0HZB1VNEMH4SWP73O3GW1","","343.5","img/animal1.png","74","345.5","74","1",""
"","html-keyboard-response","121","91575","0.0-121.0","3180JW2OT5YHB44YHTK0OS0YFUT5JX","A24LB89P1BPKKF","3LN3BXKGC0HZB1VNEMH4SWP73O3GW1","","null","<img src=""img/animal1.png"" style=""width:200px; border:14px solid green;"">","null","","","",""
"","image-keyboard-response","122","92158","0.0-122.0","3180JW2OT5YHB44YHTK0OS0YFUT5JX","A24LB89P1BPKKF","3LN3BXKGC0HZB1VNEMH4SWP73O3GW1","","581.3000000119209","img/animal2.png","76","583.1000000238419","76","1",""
"","html-keyboard-response","123","92461","0.0-123.0","3180JW2OT5YHB44YHTK0OS0YFUT5JX","A24LB89P1BPKKF","3LN3BXKGC0HZB1VNEMH4SWP73O3GW1","","null","<img src=""img/animal2.png"" style=""width:200px; border:14px solid green;"">","null","","","",""
"","image-keyboard-response","124","92895","0.0-124.0","3180JW2OT5YHB44YHTK0OS0YFUT5JX","A24LB89P1BPKKF","3LN3BXKGC0HZB1VNEMH4SWP73O3GW1","","432.69999998807907","img/animal5.png","75","434","75","1",""
"","html-keyboard-response","125","93198","0.0-125.0","3180JW2OT5YHB44YHTK0OS0YFUT5JX","A24LB89P1BPKKF","3LN3BXKGC0HZB1VNEMH4SWP73O3GW1","","null","<img src=""img/animal5.png"" style=""width:200px; border:14px solid green;"">","null","","","",""
"","image-keyboard-response","126","93519","0.0-126.0","3180JW2OT5YHB44YHTK0OS0YFUT5JX","A24LB89P1BPKKF","3LN3BXKGC0HZB1VNEMH4SWP73O3GW1","","317.7999999821186","img/animal5.png","75","320.19999998807907","75","1",""
"","html-keyboard-response","127","93822","0.0-127.0","3180JW2OT5YHB44YHTK0OS0YFUT5JX","A24LB89P1BPKKF","3LN3BXKGC0HZB1VNEMH4SWP73O3GW1","","null","<img src=""img/animal5.png"" style=""width:200px; border:14px solid green;"">","null","","","",""
"","image-keyboard-response","128","94359","0.0-128.0","3180JW2OT5YHB44YHTK0OS0YFUT5JX","A24LB89P1BPKKF","3LN3BXKGC0HZB1VNEMH4SWP73O3GW1","","535.4000000059605","img/animal1.png","74","536.4000000059605","74","1",""
"","html-keyboard-response","129","94661","0.0-129.0","3180JW2OT5YHB44YHTK0OS0YFUT5JX","A24LB89P1BPKKF","3LN3BXKGC0HZB1VNEMH4SWP73O3GW1","","null","<img src=""img/animal1.png"" style=""width:200px; border:14px solid green;"">","null","","","",""
"","image-keyboard-response","130","95664","0.0-130.0","3180JW2OT5YHB44YHTK0OS0YFUT5JX","A24LB89P1BPKKF","3LN3BXKGC0HZB1VNEMH4SWP73O3GW1","","1001.1000000238419","img/animal5.png","75","1003.2000000178814","75","1",""
"","html-keyboard-response","131","95967","0.0-131.0","3180JW2OT5YHB44YHTK0OS0YFUT5JX","A24LB89P1BPKKF","3LN3BXKGC0HZB1VNEMH4SWP73O3GW1","","null","<img src=""img/animal5.png"" style=""width:200px; border:14px solid green;"">","null","","","",""
"","image-keyboard-response","132","96479","0.0-132.0","3180JW2OT5YHB44YHTK0OS0YFUT5JX","A24LB89P1BPKKF","3LN3BXKGC0HZB1VNEMH4SWP73O3GW1","","509.80000001192093","img/animal2.png","76","511.2999999821186","76","1",""
"","html-keyboard-response","133","96781","0.0-133.0","3180JW2OT5YHB44YHTK0OS0YFUT5JX","A24LB89P1BPKKF","3LN3BXKGC0HZB1VNEMH4SWP73O3GW1","","null","<img src=""img/animal2.png"" style=""width:200px; border:14px solid green;"">","null","","","",""
"","image-keyboard-response","134","97378","0.0-134.0","3180JW2OT5YHB44YHTK0OS0YFUT5JX","A24LB89P1BPKKF","3LN3BXKGC0HZB1VNEMH4SWP73O3GW1","","596.0999999940395","img/animal1.png","74","597","74","1",""
"","html-keyboard-response","135","97680","0.0-135.0","3180JW2OT5YHB44YHTK0OS0YFUT5JX","A24LB89P1BPKKF","3LN3BXKGC0HZB1VNEMH4SWP73O3GW1","","null","<img src=""img/animal1.png"" style=""width:200px; border:14px solid green;"">","null","","","",""
"","image-keyboard-response","136","98156","0.0-136.0","3180JW2OT5YHB44YHTK0OS0YFUT5JX","A24LB89P1BPKKF","3LN3BXKGC0HZB1VNEMH4SWP73O3GW1","","474.69999998807907","img/animal5.png","75","475.69999998807907","75","1",""
"","html-keyboard-response","137","98458","0.0-137.0","3180JW2OT5YHB44YHTK0OS0YFUT5JX","A24LB89P1BPKKF","3LN3BXKGC0HZB1VNEMH4SWP73O3GW1","","null","<img src=""img/animal5.png"" style=""width:200px; border:14px solid green;"">","null","","","",""
"","image-keyboard-response","138","99062","0.0-138.0","3180JW2OT5YHB44YHTK0OS0YFUT5JX","A24LB89P1BPKKF","3LN3BXKGC0HZB1VNEMH4SWP73O3GW1","","602.1999999880791","img/animal1.png","74","603.4000000059605","74","1",""
"","html-keyboard-response","139","99364","0.0-139.0","3180JW2OT5YHB44YHTK0OS0YFUT5JX","A24LB89P1BPKKF","3LN3BXKGC0HZB1VNEMH4SWP73O3GW1","","null","<img src=""img/animal1.png"" style=""width:200px; border:14px solid green;"">","null","","","",""
"","image-keyboard-response","140","99854","0.0-140.0","3180JW2OT5YHB44YHTK0OS0YFUT5JX","A24LB89P1BPKKF","3LN3BXKGC0HZB1VNEMH4SWP73O3GW1","","487.5","img/animal5.png","75","489.69999998807907","75","1",""
"","html-keyboard-response","141","100156","0.0-141.0","3180JW2OT5YHB44YHTK0OS0YFUT5JX","A24LB89P1BPKKF","3LN3BXKGC0HZB1VNEMH4SWP73O3GW1","","null","<img src=""img/animal5.png"" style=""width:200px; border:14px solid green;"">","null","","","",""
"","image-keyboard-response","142","100524","0.0-142.0","3180JW2OT5YHB44YHTK0OS0YFUT5JX","A24LB89P1BPKKF","3LN3BXKGC0HZB1VNEMH4SWP73O3GW1","","366.30000001192093","img/animal5.png","75","367.39999997615814","75","1",""
"","html-keyboard-response","143","100825","0.0-143.0","3180JW2OT5YHB44YHTK0OS0YFUT5JX","A24LB89P1BPKKF","3LN3BXKGC0HZB1VNEMH4SWP73O3GW1","","null","<img src=""img/animal5.png"" style=""width:200px; border:14px solid green;"">","null","","","",""
"","image-keyboard-response","144","101160","0.0-144.0","3180JW2OT5YHB44YHTK0OS0YFUT5JX","A24LB89P1BPKKF","3LN3BXKGC0HZB1VNEMH4SWP73O3GW1","","332","img/animal5.png","75","333.59999999403954","75","1",""
"","html-keyboard-response","145","101463","0.0-145.0","3180JW2OT5YHB44YHTK0OS0YFUT5JX","A24LB89P1BPKKF","3LN3BXKGC0HZB1VNEMH4SWP73O3GW1","","null","<img src=""img/animal5.png"" style=""width:200px; border:14px solid green;"">","null","","","",""
"","image-keyboard-response","146","102149","0.0-146.0","3180JW2OT5YHB44YHTK0OS0YFUT5JX","A24LB89P1BPKKF","3LN3BXKGC0HZB1VNEMH4SWP73O3GW1","","683.4000000059605","img/animal1.png","74","685.4000000059605","74","1",""
"","html-keyboard-response","147","102452","0.0-147.0","3180JW2OT5YHB44YHTK0OS0YFUT5JX","A24LB89P1BPKKF","3LN3BXKGC0HZB1VNEMH4SWP73O3GW1","","null","<img src=""img/animal1.png"" style=""width:200px; border:14px solid green;"">","null","","","",""
"","image-keyboard-response","148","102915","0.0-148.0","3180JW2OT5YHB44YHTK0OS0YFUT5JX","A24LB89P1BPKKF","3LN3BXKGC0HZB1VNEMH4SWP73O3GW1","","461.7999999821186","img/animal2.png","76","463.09999999403954","76","1",""
"","html-keyboard-response","149","103221","0.0-149.0","3180JW2OT5YHB44YHTK0OS0YFUT5JX","A24LB89P1BPKKF","3LN3BXKGC0HZB1VNEMH4SWP73O3GW1","","null","<img src=""img/animal2.png"" style=""width:200px; border:14px solid green;"">","null","","","",""
"","image-keyboard-response","150","103824","0.0-150.0","3180JW2OT5YHB44YHTK0OS0YFUT5JX","A24LB89P1BPKKF","3LN3BXKGC0HZB1VNEMH4SWP73O3GW1","","601.5999999940395","img/animal1.png","74","603.1999999880791","74","1",""
"","html-keyboard-response","151","104127","0.0-151.0","3180JW2OT5YHB44YHTK0OS0YFUT5JX","A24LB89P1BPKKF","3LN3BXKGC0HZB1VNEMH4SWP73O3GW1","","null","<img src=""img/animal1.png"" style=""width:200px; border:14px solid green;"">","null","","","",""
"","image-keyboard-response","152","104493","0.0-152.0","3180JW2OT5YHB44YHTK0OS0YFUT5JX","A24LB89P1BPKKF","3LN3BXKGC0HZB1VNEMH4SWP73O3GW1","","365","img/animal1.png","74","366.19999998807907","74","1",""
"","html-keyboard-response","153","104795","0.0-153.0","3180JW2OT5YHB44YHTK0OS0YFUT5JX","A24LB89P1BPKKF","3LN3BXKGC0HZB1VNEMH4SWP73O3GW1","","null","<img src=""img/animal1.png"" style=""width:200px; border:14px solid green;"">","null","","","",""
"","image-keyboard-response","154","105253","0.0-154.0","3180JW2OT5YHB44YHTK0OS0YFUT5JX","A24LB89P1BPKKF","3LN3BXKGC0HZB1VNEMH4SWP73O3GW1","","455.09999999403954","img/animal5.png","75","457.2999999821186","75","1",""
"","html-keyboard-response","155","105557","0.0-155.0","3180JW2OT5YHB44YHTK0OS0YFUT5JX","A24LB89P1BPKKF","3LN3BXKGC0HZB1VNEMH4SWP73O3GW1","","null","<img src=""img/animal5.png"" style=""width:200px; border:14px solid green;"">","null","","","",""
"","image-keyboard-response","156","105874","0.0-156.0","3180JW2OT5YHB44YHTK0OS0YFUT5JX","A24LB89P1BPKKF","3LN3BXKGC0HZB1VNEMH4SWP73O3GW1","","315.09999999403954","img/animal5.png","75","316.59999999403954","75","1",""
"","html-keyboard-response","157","106176","0.0-157.0","3180JW2OT5YHB44YHTK0OS0YFUT5JX","A24LB89P1BPKKF","3LN3BXKGC0HZB1VNEMH4SWP73O3GW1","","null","<img src=""img/animal5.png"" style=""width:200px; border:14px solid green;"">","null","","","",""
"","image-keyboard-response","158","106706","0.0-158.0","3180JW2OT5YHB44YHTK0OS0YFUT5JX","A24LB89P1BPKKF","3LN3BXKGC0HZB1VNEMH4SWP73O3GW1","","528.7000000178814","img/animal1.png","74","530.5","74","1",""
"","html-keyboard-response","159","107011","0.0-159.0","3180JW2OT5YHB44YHTK0OS0YFUT5JX","A24LB89P1BPKKF","3LN3BXKGC0HZB1VNEMH4SWP73O3GW1","","null","<img src=""img/animal1.png"" style=""width:200px; border:14px solid green;"">","null","","","",""
"","image-keyboard-response","160","107469","0.0-160.0","3180JW2OT5YHB44YHTK0OS0YFUT5JX","A24LB89P1BPKKF","3LN3BXKGC0HZB1VNEMH4SWP73O3GW1","","455.7999999821186","img/animal5.png","75","457.90000000596046","75","1",""
"","html-keyboard-response","161","107780","0.0-161.0","3180JW2OT5YHB44YHTK0OS0YFUT5JX","A24LB89P1BPKKF","3LN3BXKGC0HZB1VNEMH4SWP73O3GW1","","null","<img src=""img/animal5.png"" style=""width:200px; border:14px solid green;"">","null","","","",""
"","image-keyboard-response","162","108374","0.0-162.0","3180JW2OT5YHB44YHTK0OS0YFUT5JX","A24LB89P1BPKKF","3LN3BXKGC0HZB1VNEMH4SWP73O3GW1","","592","img/animal2.png","76","593.5","76","1",""
"","html-keyboard-response","163","108677","0.0-163.0","3180JW2OT5YHB44YHTK0OS0YFUT5JX","A24LB89P1BPKKF","3LN3BXKGC0HZB1VNEMH4SWP73O3GW1","","null","<img src=""img/animal2.png"" style=""width:200px; border:14px solid green;"">","null","","","",""
"","image-keyboard-response","164","109412","0.0-164.0","3180JW2OT5YHB44YHTK0OS0YFUT5JX","A24LB89P1BPKKF","3LN3BXKGC0HZB1VNEMH4SWP73O3GW1","","733.3999999761581","img/animal1.png","74","734.8999999761581","74","1",""
"","html-keyboard-response","165","109715","0.0-165.0","3180JW2OT5YHB44YHTK0OS0YFUT5JX","A24LB89P1BPKKF","3LN3BXKGC0HZB1VNEMH4SWP73O3GW1","","null","<img src=""img/animal1.png"" style=""width:200px; border:14px solid green;"">","null","","","",""
"","image-keyboard-response","166","110039","0.0-166.0","3180JW2OT5YHB44YHTK0OS0YFUT5JX","A24LB89P1BPKKF","3LN3BXKGC0HZB1VNEMH4SWP73O3GW1","","321.80000001192093","img/animal1.png","74","323.80000001192093","74","1",""
"","html-keyboard-response","167","110346","0.0-167.0","3180JW2OT5YHB44YHTK0OS0YFUT5JX","A24LB89P1BPKKF","3LN3BXKGC0HZB1VNEMH4SWP73O3GW1","","null","<img src=""img/animal1.png"" style=""width:200px; border:14px solid green;"">","null","","","",""
"","image-keyboard-response","168","110760","0.0-168.0","3180JW2OT5YHB44YHTK0OS0YFUT5JX","A24LB89P1BPKKF","3LN3BXKGC0HZB1VNEMH4SWP73O3GW1","","413.09999999403954","img/animal5.png","75","414.59999999403954","75","1",""
"","html-keyboard-response","169","111063","0.0-169.0","3180JW2OT5YHB44YHTK0OS0YFUT5JX","A24LB89P1BPKKF","3LN3BXKGC0HZB1VNEMH4SWP73O3GW1","","null","<img src=""img/animal5.png"" style=""width:200px; border:14px solid green;"">","null","","","",""
"","image-keyboard-response","170","111576","0.0-170.0","3180JW2OT5YHB44YHTK0OS0YFUT5JX","A24LB89P1BPKKF","3LN3BXKGC0HZB1VNEMH4SWP73O3GW1","","510.19999998807907","img/animal2.png","76","512.3999999761581","76","1",""
"","html-keyboard-response","171","111879","0.0-171.0","3180JW2OT5YHB44YHTK0OS0YFUT5JX","A24LB89P1BPKKF","3LN3BXKGC0HZB1VNEMH4SWP73O3GW1","","null","<img src=""img/animal2.png"" style=""width:200px; border:14px solid green;"">","null","","","",""
"","image-keyboard-response","172","112408","0.0-172.0","3180JW2OT5YHB44YHTK0OS0YFUT5JX","A24LB89P1BPKKF","3LN3BXKGC0HZB1VNEMH4SWP73O3GW1","","528.3000000119209","img/animal5.png","75","529.4000000059605","75","1",""
"","html-keyboard-response","173","112712","0.0-173.0","3180JW2OT5YHB44YHTK0OS0YFUT5JX","A24LB89P1BPKKF","3LN3BXKGC0HZB1VNEMH4SWP73O3GW1","","null","<img src=""img/animal5.png"" style=""width:200px; border:14px solid green;"">","null","","","",""
"","image-keyboard-response","174","113015","0.0-174.0","3180JW2OT5YHB44YHTK0OS0YFUT5JX","A24LB89P1BPKKF","3LN3BXKGC0HZB1VNEMH4SWP73O3GW1","","302","img/animal5.png","75","303.40000000596046","75","1",""
"","html-keyboard-response","175","113317","0.0-175.0","3180JW2OT5YHB44YHTK0OS0YFUT5JX","A24LB89P1BPKKF","3LN3BXKGC0HZB1VNEMH4SWP73O3GW1","","null","<img src=""img/animal5.png"" style=""width:200px; border:14px solid green;"">","null","","","",""
"","image-keyboard-response","176","113692","0.0-176.0","3180JW2OT5YHB44YHTK0OS0YFUT5JX","A24LB89P1BPKKF","3LN3BXKGC0HZB1VNEMH4SWP73O3GW1","","371.90000000596046","img/animal5.png","75","373.59999999403954","75","1",""
"","html-keyboard-response","177","113993","0.0-177.0","3180JW2OT5YHB44YHTK0OS0YFUT5JX","A24LB89P1BPKKF","3LN3BXKGC0HZB1VNEMH4SWP73O3GW1","","null","<img src=""img/animal5.png"" style=""width:200px; border:14px solid green;"">","null","","","",""
"","image-keyboard-response","178","114882","0.0-178.0","3180JW2OT5YHB44YHTK0OS0YFUT5JX","A24LB89P1BPKKF","3LN3BXKGC0HZB1VNEMH4SWP73O3GW1","","886.3000000119209","img/animal2.png","76","887.9000000059605","76","1",""
"","html-keyboard-response","179","115184","0.0-179.0","3180JW2OT5YHB44YHTK0OS0YFUT5JX","A24LB89P1BPKKF","3LN3BXKGC0HZB1VNEMH4SWP73O3GW1","","null","<img src=""img/animal2.png"" style=""width:200px; border:14px solid green;"">","null","","","",""
"","image-keyboard-response","180","115492","0.0-180.0","3180JW2OT5YHB44YHTK0OS0YFUT5JX","A24LB89P1BPKKF","3LN3BXKGC0HZB1VNEMH4SWP73O3GW1","","305.60000002384186","img/animal2.png","76","307.2999999821186","76","1",""
"","html-keyboard-response","181","115794","0.0-181.0","3180JW2OT5YHB44YHTK0OS0YFUT5JX","A24LB89P1BPKKF","3LN3BXKGC0HZB1VNEMH4SWP73O3GW1","","null","<img src=""img/animal2.png"" style=""width:200px; border:14px solid green;"">","null","","","",""
"","html-keyboard-response","182","117767","0.0-182.0","3180JW2OT5YHB44YHTK0OS0YFUT5JX","A24LB89P1BPKKF","3LN3BXKGC0HZB1VNEMH4SWP73O3GW1","","","","","","","",""
"","image-keyboard-response","183","119848","0.0-183.0","3180JW2OT5YHB44YHTK0OS0YFUT5JX","A24LB89P1BPKKF","3LN3BXKGC0HZB1VNEMH4SWP73O3GW1","","2078.699999988079","img/animal3.png","74","2080.9000000059605","74","1",""
"","html-keyboard-response","184","120153","0.0-184.0","3180JW2OT5YHB44YHTK0OS0YFUT5JX","A24LB89P1BPKKF","3LN3BXKGC0HZB1VNEMH4SWP73O3GW1","","null","<img src=""img/animal3.png"" style=""width:200px; border:14px solid green;"">","null","","","",""
"","image-keyboard-response","185","120930","0.0-185.0","3180JW2OT5YHB44YHTK0OS0YFUT5JX","A24LB89P1BPKKF","3LN3BXKGC0HZB1VNEMH4SWP73O3GW1","","776.0999999940395","img/animal4.png","75","777.7999999821186","75","0",""
"","html-keyboard-response","186","121233","0.0-186.0","3180JW2OT5YHB44YHTK0OS0YFUT5JX","A24LB89P1BPKKF","3LN3BXKGC0HZB1VNEMH4SWP73O3GW1","","null","<img src=""img/animal4.png"" style=""width:200px;border:14px solid red;"">","null","","","",""
"","image-keyboard-response","187","121679","0.0-187.0","3180JW2OT5YHB44YHTK0OS0YFUT5JX","A24LB89P1BPKKF","3LN3BXKGC0HZB1VNEMH4SWP73O3GW1","","443","img/animal4.png","76","445.5","76","1",""
"","html-keyboard-response","188","121982","0.0-188.0","3180JW2OT5YHB44YHTK0OS0YFUT5JX","A24LB89P1BPKKF","3LN3BXKGC0HZB1VNEMH4SWP73O3GW1","","null","<img src=""img/animal4.png"" style=""width:200px; border:14px solid green;"">","null","","","",""
"","image-keyboard-response","189","122745","0.0-189.0","3180JW2OT5YHB44YHTK0OS0YFUT5JX","A24LB89P1BPKKF","3LN3BXKGC0HZB1VNEMH4SWP73O3GW1","","762.2000000178814","img/animal6.png","75","763.1999999880791","75","1",""
"","html-keyboard-response","190","123047","0.0-190.0","3180JW2OT5YHB44YHTK0OS0YFUT5JX","A24LB89P1BPKKF","3LN3BXKGC0HZB1VNEMH4SWP73O3GW1","","null","<img src=""img/animal6.png"" style=""width:200px; border:14px solid green;"">","null","","","",""
"","image-keyboard-response","191","123813","0.0-191.0","3180JW2OT5YHB44YHTK0OS0YFUT5JX","A24LB89P1BPKKF","3LN3BXKGC0HZB1VNEMH4SWP73O3GW1","","763.6000000238419","img/animal3.png","74","765.5","74","1",""
"","html-keyboard-response","192","124119","0.0-192.0","3180JW2OT5YHB44YHTK0OS0YFUT5JX","A24LB89P1BPKKF","3LN3BXKGC0HZB1VNEMH4SWP73O3GW1","","null","<img src=""img/animal3.png"" style=""width:200px; border:14px solid green;"">","null","","","",""
"","image-keyboard-response","193","124709","0.0-193.0","3180JW2OT5YHB44YHTK0OS0YFUT5JX","A24LB89P1BPKKF","3LN3BXKGC0HZB1VNEMH4SWP73O3GW1","","586.8999999761581","img/animal4.png","76","589","76","0",""
"","html-keyboard-response","194","125012","0.0-194.0","3180JW2OT5YHB44YHTK0OS0YFUT5JX","A24LB89P1BPKKF","3LN3BXKGC0HZB1VNEMH4SWP73O3GW1","","null","<img src=""img/animal4.png"" style=""width:200px;border:14px solid red;"">","null","","","",""
"","image-keyboard-response","195","125408","0.0-195.0","3180JW2OT5YHB44YHTK0OS0YFUT5JX","A24LB89P1BPKKF","3LN3BXKGC0HZB1VNEMH4SWP73O3GW1","","393.5","img/animal4.png","76","395.2999999821186","76","1",""
"","html-keyboard-response","196","125711","0.0-196.0","3180JW2OT5YHB44YHTK0OS0YFUT5JX","A24LB89P1BPKKF","3LN3BXKGC0HZB1VNEMH4SWP73O3GW1","","null","<img src=""img/animal4.png"" style=""width:200px; border:14px solid green;"">","null","","","",""
"","image-keyboard-response","197","126926","0.0-197.0","3180JW2OT5YHB44YHTK0OS0YFUT5JX","A24LB89P1BPKKF","3LN3BXKGC0HZB1VNEMH4SWP73O3GW1","","1212.300000011921","img/animal3.png","74","1214","74","0",""
"","html-keyboard-response","198","127230","0.0-198.0","3180JW2OT5YHB44YHTK0OS0YFUT5JX","A24LB89P1BPKKF","3LN3BXKGC0HZB1VNEMH4SWP73O3GW1","","null","<img src=""img/animal3.png"" style=""width:200px;border:14px solid red;"">","null","","","",""
"","image-keyboard-response","199","128201","0.0-199.0","3180JW2OT5YHB44YHTK0OS0YFUT5JX","A24LB89P1BPKKF","3LN3BXKGC0HZB1VNEMH4SWP73O3GW1","","969.5","img/animal6.png","75","971.0999999940395","75","1",""
"","html-keyboard-response","200","128504","0.0-200.0","3180JW2OT5YHB44YHTK0OS0YFUT5JX","A24LB89P1BPKKF","3LN3BXKGC0HZB1VNEMH4SWP73O3GW1","","null","<img src=""img/animal6.png"" style=""width:200px; border:14px solid green;"">","null","","","",""
"","image-keyboard-response","201","129382","0.0-201.0","3180JW2OT5YHB44YHTK0OS0YFUT5JX","A24LB89P1BPKKF","3LN3BXKGC0HZB1VNEMH4SWP73O3GW1","","875.6999999880791","img/animal3.png","76","878.5","76","0",""
"","html-keyboard-response","202","129685","0.0-202.0","3180JW2OT5YHB44YHTK0OS0YFUT5JX","A24LB89P1BPKKF","3LN3BXKGC0HZB1VNEMH4SWP73O3GW1","","null","<img src=""img/animal3.png"" style=""width:200px;border:14px solid red;"">","null","","","",""
"","image-keyboard-response","203","130377","0.0-203.0","3180JW2OT5YHB44YHTK0OS0YFUT5JX","A24LB89P1BPKKF","3LN3BXKGC0HZB1VNEMH4SWP73O3GW1","","689.6999999880791","img/animal6.png","75","691","75","1",""
"","html-keyboard-response","204","130679","0.0-204.0","3180JW2OT5YHB44YHTK0OS0YFUT5JX","A24LB89P1BPKKF","3LN3BXKGC0HZB1VNEMH4SWP73O3GW1","","null","<img src=""img/animal6.png"" style=""width:200px; border:14px solid green;"">","null","","","",""
"","image-keyboard-response","205","131543","0.0-205.0","3180JW2OT5YHB44YHTK0OS0YFUT5JX","A24LB89P1BPKKF","3LN3BXKGC0HZB1VNEMH4SWP73O3GW1","","861.9000000059605","img/animal3.png","74","863.5999999940395","74","1",""
"","html-keyboard-response","206","131854","0.0-206.0","3180JW2OT5YHB44YHTK0OS0YFUT5JX","A24LB89P1BPKKF","3LN3BXKGC0HZB1VNEMH4SWP73O3GW1","","null","<img src=""img/animal3.png"" style=""width:200px; border:14px solid green;"">","null","","","",""
"","image-keyboard-response","207","132460","0.0-207.0","3180JW2OT5YHB44YHTK0OS0YFUT5JX","A24LB89P1BPKKF","3LN3BXKGC0HZB1VNEMH4SWP73O3GW1","","604.4000000059605","img/animal6.png","75","606","75","1",""
"","html-keyboard-response","208","132762","0.0-208.0","3180JW2OT5YHB44YHTK0OS0YFUT5JX","A24LB89P1BPKKF","3LN3BXKGC0HZB1VNEMH4SWP73O3GW1","","null","<img src=""img/animal6.png"" style=""width:200px; border:14px solid green;"">","null","","","",""
"","image-keyboard-response","209","133455","0.0-209.0","3180JW2OT5YHB44YHTK0OS0YFUT5JX","A24LB89P1BPKKF","3LN3BXKGC0HZB1VNEMH4SWP73O3GW1","","691","img/animal4.png","76","693.4000000059605","76","0",""
"","html-keyboard-response","210","133758","0.0-210.0","3180JW2OT5YHB44YHTK0OS0YFUT5JX","A24LB89P1BPKKF","3LN3BXKGC0HZB1VNEMH4SWP73O3GW1","","null","<img src=""img/animal4.png"" style=""width:200px;border:14px solid red;"">","null","","","",""
"","image-keyboard-response","211","134422","0.0-211.0","3180JW2OT5YHB44YHTK0OS0YFUT5JX","A24LB89P1BPKKF","3LN3BXKGC0HZB1VNEMH4SWP73O3GW1","","662.1999999880791","img/animal6.png","75","663.5","75","1",""
"","html-keyboard-response","212","134724","0.0-212.0","3180JW2OT5YHB44YHTK0OS0YFUT5JX","A24LB89P1BPKKF","3LN3BXKGC0HZB1VNEMH4SWP73O3GW1","","null","<img src=""img/animal6.png"" style=""width:200px; border:14px solid green;"">","null","","","",""
"","image-keyboard-response","213","135326","0.0-213.0","3180JW2OT5YHB44YHTK0OS0YFUT5JX","A24LB89P1BPKKF","3LN3BXKGC0HZB1VNEMH4SWP73O3GW1","","599.2999999821186","img/animal3.png","74","601.3999999761581","74","1",""
"","html-keyboard-response","214","135629","0.0-214.0","3180JW2OT5YHB44YHTK0OS0YFUT5JX","A24LB89P1BPKKF","3LN3BXKGC0HZB1VNEMH4SWP73O3GW1","","null","<img src=""img/animal3.png"" style=""width:200px; border:14px solid green;"">","null","","","",""
"","image-keyboard-response","215","136280","0.0-215.0","3180JW2OT5YHB44YHTK0OS0YFUT5JX","A24LB89P1BPKKF","3LN3BXKGC0HZB1VNEMH4SWP73O3GW1","","649.4000000059605","img/animal4.png","76","650.3999999761581","76","0",""
"","html-keyboard-response","216","136582","0.0-216.0","3180JW2OT5YHB44YHTK0OS0YFUT5JX","A24LB89P1BPKKF","3LN3BXKGC0HZB1VNEMH4SWP73O3GW1","","null","<img src=""img/animal4.png"" style=""width:200px;border:14px solid red;"">","null","","","",""
"","image-keyboard-response","217","137688","0.0-217.0","3180JW2OT5YHB44YHTK0OS0YFUT5JX","A24LB89P1BPKKF","3LN3BXKGC0HZB1VNEMH4SWP73O3GW1","","1104","img/animal6.png","75","1105.4000000059605","75","1",""
"","html-keyboard-response","218","137991","0.0-218.0","3180JW2OT5YHB44YHTK0OS0YFUT5JX","A24LB89P1BPKKF","3LN3BXKGC0HZB1VNEMH4SWP73O3GW1","","null","<img src=""img/animal6.png"" style=""width:200px; border:14px solid green;"">","null","","","",""
"","image-keyboard-response","219","139330","0.0-219.0","3180JW2OT5YHB44YHTK0OS0YFUT5JX","A24LB89P1BPKKF","3LN3BXKGC0HZB1VNEMH4SWP73O3GW1","","1335.7999999821186","img/animal4.png","76","1338.300000011921","76","1",""
"","html-keyboard-response","220","139632","0.0-220.0","3180JW2OT5YHB44YHTK0OS0YFUT5JX","A24LB89P1BPKKF","3LN3BXKGC0HZB1VNEMH4SWP73O3GW1","","null","<img src=""img/animal4.png"" style=""width:200px; border:14px solid green;"">","null","","","",""
"","image-keyboard-response","221","140221","0.0-221.0","3180JW2OT5YHB44YHTK0OS0YFUT5JX","A24LB89P1BPKKF","3LN3BXKGC0HZB1VNEMH4SWP73O3GW1","","586.5","img/animal3.png","74","588.0999999940395","74","1",""
"","html-keyboard-response","222","140522","0.0-222.0","3180JW2OT5YHB44YHTK0OS0YFUT5JX","A24LB89P1BPKKF","3LN3BXKGC0HZB1VNEMH4SWP73O3GW1","","null","<img src=""img/animal3.png"" style=""width:200px; border:14px solid green;"">","null","","","",""
"","image-keyboard-response","223","140994","0.0-223.0","3180JW2OT5YHB44YHTK0OS0YFUT5JX","A24LB89P1BPKKF","3LN3BXKGC0HZB1VNEMH4SWP73O3GW1","","470.2999999821186","img/animal4.png","76","471.2999999821186","76","0",""
"","html-keyboard-response","224","141296","0.0-224.0","3180JW2OT5YHB44YHTK0OS0YFUT5JX","A24LB89P1BPKKF","3LN3BXKGC0HZB1VNEMH4SWP73O3GW1","","null","<img src=""img/animal4.png"" style=""width:200px;border:14px solid red;"">","null","","","",""
"","image-keyboard-response","225","141662","0.0-225.0","3180JW2OT5YHB44YHTK0OS0YFUT5JX","A24LB89P1BPKKF","3LN3BXKGC0HZB1VNEMH4SWP73O3GW1","","364.2999999821186","img/animal4.png","76","366.2999999821186","76","0",""
"","html-keyboard-response","226","141966","0.0-226.0","3180JW2OT5YHB44YHTK0OS0YFUT5JX","A24LB89P1BPKKF","3LN3BXKGC0HZB1VNEMH4SWP73O3GW1","","null","<img src=""img/animal4.png"" style=""width:200px;border:14px solid red;"">","null","","","",""
"","image-keyboard-response","227","142589","0.0-227.0","3180JW2OT5YHB44YHTK0OS0YFUT5JX","A24LB89P1BPKKF","3LN3BXKGC0HZB1VNEMH4SWP73O3GW1","","621.2999999821186","img/animal6.png","75","623.3000000119209","75","1",""
"","html-keyboard-response","228","142891","0.0-228.0","3180JW2OT5YHB44YHTK0OS0YFUT5JX","A24LB89P1BPKKF","3LN3BXKGC0HZB1VNEMH4SWP73O3GW1","","null","<img src=""img/animal6.png"" style=""width:200px; border:14px solid green;"">","null","","","",""
"","image-keyboard-response","229","143762","0.0-229.0","3180JW2OT5YHB44YHTK0OS0YFUT5JX","A24LB89P1BPKKF","3LN3BXKGC0HZB1VNEMH4SWP73O3GW1","","868.0999999940395","img/animal4.png","76","870.1999999880791","76","1",""
"","html-keyboard-response","230","144065","0.0-230.0","3180JW2OT5YHB44YHTK0OS0YFUT5JX","A24LB89P1BPKKF","3LN3BXKGC0HZB1VNEMH4SWP73O3GW1","","null","<img src=""img/animal4.png"" style=""width:200px; border:14px solid green;"">","null","","","",""
"","image-keyboard-response","231","144611","0.0-231.0","3180JW2OT5YHB44YHTK0OS0YFUT5JX","A24LB89P1BPKKF","3LN3BXKGC0HZB1VNEMH4SWP73O3GW1","","544","img/animal4.png","76","545.5","76","0",""
"","html-keyboard-response","232","144914","0.0-232.0","3180JW2OT5YHB44YHTK0OS0YFUT5JX","A24LB89P1BPKKF","3LN3BXKGC0HZB1VNEMH4SWP73O3GW1","","null","<img src=""img/animal4.png"" style=""width:200px;border:14px solid red;"">","null","","","",""
"","image-keyboard-response","233","145759","0.0-233.0","3180JW2OT5YHB44YHTK0OS0YFUT5JX","A24LB89P1BPKKF","3LN3BXKGC0HZB1VNEMH4SWP73O3GW1","","843.1999999880791","img/animal6.png","75","844.5999999940395","75","0",""
"","html-keyboard-response","234","146060","0.0-234.0","3180JW2OT5YHB44YHTK0OS0YFUT5JX","A24LB89P1BPKKF","3LN3BXKGC0HZB1VNEMH4SWP73O3GW1","","null","<img src=""img/animal6.png"" style=""width:200px;border:14px solid red;"">","null","","","",""
"","image-keyboard-response","235","146606","0.0-235.0","3180JW2OT5YHB44YHTK0OS0YFUT5JX","A24LB89P1BPKKF","3LN3BXKGC0HZB1VNEMH4SWP73O3GW1","","543.0999999940395","img/animal3.png","74","545.2000000178814","74","0",""
"","html-keyboard-response","236","146910","0.0-236.0","3180JW2OT5YHB44YHTK0OS0YFUT5JX","A24LB89P1BPKKF","3LN3BXKGC0HZB1VNEMH4SWP73O3GW1","","null","<img src=""img/animal3.png"" style=""width:200px;border:14px solid red;"">","null","","","",""
"","image-keyboard-response","237","147658","0.0-237.0","3180JW2OT5YHB44YHTK0OS0YFUT5JX","A24LB89P1BPKKF","3LN3BXKGC0HZB1VNEMH4SWP73O3GW1","","745.7000000178814","img/animal4.png","76","747.5999999940395","76","1",""
"","html-keyboard-response","238","147961","0.0-238.0","3180JW2OT5YHB44YHTK0OS0YFUT5JX","A24LB89P1BPKKF","3LN3BXKGC0HZB1VNEMH4SWP73O3GW1","","null","<img src=""img/animal4.png"" style=""width:200px; border:14px solid green;"">","null","","","",""
"","image-keyboard-response","239","148283","0.0-239.0","3180JW2OT5YHB44YHTK0OS0YFUT5JX","A24LB89P1BPKKF","3LN3BXKGC0HZB1VNEMH4SWP73O3GW1","","320","img/animal4.png","76","321.30000001192093","76","1",""
"","html-keyboard-response","240","148586","0.0-240.0","3180JW2OT5YHB44YHTK0OS0YFUT5JX","A24LB89P1BPKKF","3LN3BXKGC0HZB1VNEMH4SWP73O3GW1","","null","<img src=""img/animal4.png"" style=""width:200px; border:14px solid green;"">","null","","","",""
"","image-keyboard-response","241","149179","0.0-241.0","3180JW2OT5YHB44YHTK0OS0YFUT5JX","A24LB89P1BPKKF","3LN3BXKGC0HZB1VNEMH4SWP73O3GW1","","591.0999999940395","img/animal3.png","74","592.4000000059605","74","0",""
"","html-keyboard-response","242","149481","0.0-242.0","3180JW2OT5YHB44YHTK0OS0YFUT5JX","A24LB89P1BPKKF","3LN3BXKGC0HZB1VNEMH4SWP73O3GW1","","null","<img src=""img/animal3.png"" style=""width:200px;border:14px solid red;"">","null","","","",""
"","image-keyboard-response","243","149808","0.0-243.0","3180JW2OT5YHB44YHTK0OS0YFUT5JX","A24LB89P1BPKKF","3LN3BXKGC0HZB1VNEMH4SWP73O3GW1","","324.59999999403954","img/animal3.png","74","326.09999999403954","74","0",""
"","html-keyboard-response","244","150111","0.0-244.0","3180JW2OT5YHB44YHTK0OS0YFUT5JX","A24LB89P1BPKKF","3LN3BXKGC0HZB1VNEMH4SWP73O3GW1","","null","<img src=""img/animal3.png"" style=""width:200px;border:14px solid red;"">","null","","","",""
"","image-keyboard-response","245","150608","0.0-245.0","3180JW2OT5YHB44YHTK0OS0YFUT5JX","A24LB89P1BPKKF","3LN3BXKGC0HZB1VNEMH4SWP73O3GW1","","494.40000000596046","img/animal3.png","75","496.19999998807907","75","0",""
"","html-keyboard-response","246","150910","0.0-246.0","3180JW2OT5YHB44YHTK0OS0YFUT5JX","A24LB89P1BPKKF","3LN3BXKGC0HZB1VNEMH4SWP73O3GW1","","null","<img src=""img/animal3.png"" style=""width:200px;border:14px solid red;"">","null","","","",""
"","image-keyboard-response","247","151208","0.0-247.0","3180JW2OT5YHB44YHTK0OS0YFUT5JX","A24LB89P1BPKKF","3LN3BXKGC0HZB1VNEMH4SWP73O3GW1","","295.89999997615814","img/animal3.png","75","297.90000000596046","75","1",""
"","html-keyboard-response","248","151511","0.0-248.0","3180JW2OT5YHB44YHTK0OS0YFUT5JX","A24LB89P1BPKKF","3LN3BXKGC0HZB1VNEMH4SWP73O3GW1","","null","<img src=""img/animal3.png"" style=""width:200px; border:14px solid green;"">","null","","","",""
"","image-keyboard-response","249","152074","0.0-249.0","3180JW2OT5YHB44YHTK0OS0YFUT5JX","A24LB89P1BPKKF","3LN3BXKGC0HZB1VNEMH4SWP73O3GW1","","560.5","img/animal3.png","75","562.7999999821186","75","0",""
"","html-keyboard-response","250","152378","0.0-250.0","3180JW2OT5YHB44YHTK0OS0YFUT5JX","A24LB89P1BPKKF","3LN3BXKGC0HZB1VNEMH4SWP73O3GW1","","null","<img src=""img/animal3.png"" style=""width:200px;border:14px solid red;"">","null","","","",""
"","image-keyboard-response","251","153109","0.0-251.0","3180JW2OT5YHB44YHTK0OS0YFUT5JX","A24LB89P1BPKKF","3LN3BXKGC0HZB1VNEMH4SWP73O3GW1","","729.0999999940395","img/animal4.png","76","730.9000000059605","76","1",""
"","html-keyboard-response","252","153413","0.0-252.0","3180JW2OT5YHB44YHTK0OS0YFUT5JX","A24LB89P1BPKKF","3LN3BXKGC0HZB1VNEMH4SWP73O3GW1","","null","<img src=""img/animal4.png"" style=""width:200px; border:14px solid green;"">","null","","","",""
"","image-keyboard-response","253","154091","0.0-253.0","3180JW2OT5YHB44YHTK0OS0YFUT5JX","A24LB89P1BPKKF","3LN3BXKGC0HZB1VNEMH4SWP73O3GW1","","675.5999999940395","img/animal6.png","75","677.1000000238419","75","1",""
"","html-keyboard-response","254","154412","0.0-254.0","3180JW2OT5YHB44YHTK0OS0YFUT5JX","A24LB89P1BPKKF","3LN3BXKGC0HZB1VNEMH4SWP73O3GW1","","null","<img src=""img/animal6.png"" style=""width:200px; border:14px solid green;"">","null","","","",""
"","image-keyboard-response","255","154983","0.0-255.0","3180JW2OT5YHB44YHTK0OS0YFUT5JX","A24LB89P1BPKKF","3LN3BXKGC0HZB1VNEMH4SWP73O3GW1","","569.7000000178814","img/animal3.png","74","571.0999999940395","74","0",""
"","html-keyboard-response","256","155284","0.0-256.0","3180JW2OT5YHB44YHTK0OS0YFUT5JX","A24LB89P1BPKKF","3LN3BXKGC0HZB1VNEMH4SWP73O3GW1","","null","<img src=""img/animal3.png"" style=""width:200px;border:14px solid red;"">","null","","","",""
"","image-keyboard-response","257","156040","0.0-257.0","3180JW2OT5YHB44YHTK0OS0YFUT5JX","A24LB89P1BPKKF","3LN3BXKGC0HZB1VNEMH4SWP73O3GW1","","752.8000000119209","img/animal4.png","76","754.6999999880791","76","1",""
"","html-keyboard-response","258","156352","0.0-258.0","3180JW2OT5YHB44YHTK0OS0YFUT5JX","A24LB89P1BPKKF","3LN3BXKGC0HZB1VNEMH4SWP73O3GW1","","null","<img src=""img/animal4.png"" style=""width:200px; border:14px solid green;"">","null","","","",""
"","image-keyboard-response","259","157445","0.0-259.0","3180JW2OT5YHB44YHTK0OS0YFUT5JX","A24LB89P1BPKKF","3LN3BXKGC0HZB1VNEMH4SWP73O3GW1","","1090.5999999940395","img/animal6.png","75","1092.0999999940395","75","1",""
"","html-keyboard-response","260","157747","0.0-260.0","3180JW2OT5YHB44YHTK0OS0YFUT5JX","A24LB89P1BPKKF","3LN3BXKGC0HZB1VNEMH4SWP73O3GW1","","null","<img src=""img/animal6.png"" style=""width:200px; border:14px solid green;"">","null","","","",""
"","image-keyboard-response","261","158173","0.0-261.0","3180JW2OT5YHB44YHTK0OS0YFUT5JX","A24LB89P1BPKKF","3LN3BXKGC0HZB1VNEMH4SWP73O3GW1","","423.59999999403954","img/animal4.png","76","425.7999999821186","76","1",""
"","html-keyboard-response","262","158476","0.0-262.0","3180JW2OT5YHB44YHTK0OS0YFUT5JX","A24LB89P1BPKKF","3LN3BXKGC0HZB1VNEMH4SWP73O3GW1","","null","<img src=""img/animal4.png"" style=""width:200px; border:14px solid green;"">","null","","","",""
"","image-keyboard-response","263","158918","0.0-263.0","3180JW2OT5YHB44YHTK0OS0YFUT5JX","A24LB89P1BPKKF","3LN3BXKGC0HZB1VNEMH4SWP73O3GW1","","441.2999999821186","img/animal6.png","75","442.7999999821186","75","1",""
"","html-keyboard-response","264","159221","0.0-264.0","3180JW2OT5YHB44YHTK0OS0YFUT5JX","A24LB89P1BPKKF","3LN3BXKGC0HZB1VNEMH4SWP73O3GW1","","null","<img src=""img/animal6.png"" style=""width:200px; border:14px solid green;"">","null","","","",""
"","image-keyboard-response","265","159588","0.0-265.0","3180JW2OT5YHB44YHTK0OS0YFUT5JX","A24LB89P1BPKKF","3LN3BXKGC0HZB1VNEMH4SWP73O3GW1","","364.19999998807907","img/animal6.png","75","365.80000001192093","75","1",""
"","html-keyboard-response","266","159889","0.0-266.0","3180JW2OT5YHB44YHTK0OS0YFUT5JX","A24LB89P1BPKKF","3LN3BXKGC0HZB1VNEMH4SWP73O3GW1","","null","<img src=""img/animal6.png"" style=""width:200px; border:14px solid green;"">","null","","","",""
"","image-keyboard-response","267","160554","0.0-267.0","3180JW2OT5YHB44YHTK0OS0YFUT5JX","A24LB89P1BPKKF","3LN3BXKGC0HZB1VNEMH4SWP73O3GW1","","662.9000000059605","img/animal3.png","74","664.1999999880791","74","0",""
"","html-keyboard-response","268","160855","0.0-268.0","3180JW2OT5YHB44YHTK0OS0YFUT5JX","A24LB89P1BPKKF","3LN3BXKGC0HZB1VNEMH4SWP73O3GW1","","null","<img src=""img/animal3.png"" style=""width:200px;border:14px solid red;"">","null","","","",""
"","image-keyboard-response","269","161545","0.0-269.0","3180JW2OT5YHB44YHTK0OS0YFUT5JX","A24LB89P1BPKKF","3LN3BXKGC0HZB1VNEMH4SWP73O3GW1","","687.3000000119209","img/animal6.png","75","689.0999999940395","75","1",""
"","html-keyboard-response","270","161847","0.0-270.0","3180JW2OT5YHB44YHTK0OS0YFUT5JX","A24LB89P1BPKKF","3LN3BXKGC0HZB1VNEMH4SWP73O3GW1","","null","<img src=""img/animal6.png"" style=""width:200px; border:14px solid green;"">","null","","","",""
"","image-keyboard-response","271","162468","0.0-271.0","3180JW2OT5YHB44YHTK0OS0YFUT5JX","A24LB89P1BPKKF","3LN3BXKGC0HZB1VNEMH4SWP73O3GW1","","619","img/animal4.png","76","620.1999999880791","76","1",""
"","html-keyboard-response","272","162770","0.0-272.0","3180JW2OT5YHB44YHTK0OS0YFUT5JX","A24LB89P1BPKKF","3LN3BXKGC0HZB1VNEMH4SWP73O3GW1","","null","<img src=""img/animal4.png"" style=""width:200px; border:14px solid green;"">","null","","","",""
"","image-keyboard-response","273","163995","0.0-273.0","3180JW2OT5YHB44YHTK0OS0YFUT5JX","A24LB89P1BPKKF","3LN3BXKGC0HZB1VNEMH4SWP73O3GW1","","1222.2999999821186","img/animal3.png","74","1224.7999999821186","74","1",""
"","html-keyboard-response","274","164298","0.0-274.0","3180JW2OT5YHB44YHTK0OS0YFUT5JX","A24LB89P1BPKKF","3LN3BXKGC0HZB1VNEMH4SWP73O3GW1","","null","<img src=""img/animal3.png"" style=""width:200px; border:14px solid green;"">","null","","","",""
"","image-keyboard-response","275","164910","0.0-275.0","3180JW2OT5YHB44YHTK0OS0YFUT5JX","A24LB89P1BPKKF","3LN3BXKGC0HZB1VNEMH4SWP73O3GW1","","609.4000000059605","img/animal6.png","75","611.5999999940395","75","1",""
"","html-keyboard-response","276","165213","0.0-276.0","3180JW2OT5YHB44YHTK0OS0YFUT5JX","A24LB89P1BPKKF","3LN3BXKGC0HZB1VNEMH4SWP73O3GW1","","null","<img src=""img/animal6.png"" style=""width:200px; border:14px solid green;"">","null","","","",""
"","image-keyboard-response","277","165609","0.0-277.0","3180JW2OT5YHB44YHTK0OS0YFUT5JX","A24LB89P1BPKKF","3LN3BXKGC0HZB1VNEMH4SWP73O3GW1","","393.40000000596046","img/animal6.png","75","395.60000002384186","75","1",""
"","html-keyboard-response","278","165912","0.0-278.0","3180JW2OT5YHB44YHTK0OS0YFUT5JX","A24LB89P1BPKKF","3LN3BXKGC0HZB1VNEMH4SWP73O3GW1","","null","<img src=""img/animal6.png"" style=""width:200px; border:14px solid green;"">","null","","","",""
"","image-keyboard-response","279","166307","0.0-279.0","3180JW2OT5YHB44YHTK0OS0YFUT5JX","A24LB89P1BPKKF","3LN3BXKGC0HZB1VNEMH4SWP73O3GW1","","392.60000002384186","img/animal6.png","75","394","75","1",""
"","html-keyboard-response","280","166609","0.0-280.0","3180JW2OT5YHB44YHTK0OS0YFUT5JX","A24LB89P1BPKKF","3LN3BXKGC0HZB1VNEMH4SWP73O3GW1","","null","<img src=""img/animal6.png"" style=""width:200px; border:14px solid green;"">","null","","","",""
"","image-keyboard-response","281","167024","0.0-281.0","3180JW2OT5YHB44YHTK0OS0YFUT5JX","A24LB89P1BPKKF","3LN3BXKGC0HZB1VNEMH4SWP73O3GW1","","406.19999998807907","img/animal6.png","75","410.7999999821186","75","1",""
"","html-keyboard-response","282","167325","0.0-282.0","3180JW2OT5YHB44YHTK0OS0YFUT5JX","A24LB89P1BPKKF","3LN3BXKGC0HZB1VNEMH4SWP73O3GW1","","null","<img src=""img/animal6.png"" style=""width:200px; border:14px solid green;"">","null","","","",""
"","image-keyboard-response","283","167831","0.0-283.0","3180JW2OT5YHB44YHTK0OS0YFUT5JX","A24LB89P1BPKKF","3LN3BXKGC0HZB1VNEMH4SWP73O3GW1","","502.59999999403954","img/animal4.png","76","504.80000001192093","76","1",""
"","html-keyboard-response","284","168133","0.0-284.0","3180JW2OT5YHB44YHTK0OS0YFUT5JX","A24LB89P1BPKKF","3LN3BXKGC0HZB1VNEMH4SWP73O3GW1","","null","<img src=""img/animal4.png"" style=""width:200px; border:14px solid green;"">","null","","","",""
"","image-keyboard-response","285","168698","0.0-285.0","3180JW2OT5YHB44YHTK0OS0YFUT5JX","A24LB89P1BPKKF","3LN3BXKGC0HZB1VNEMH4SWP73O3GW1","","563","img/animal3.png","74","564.5999999940395","74","1",""
"","html-keyboard-response","286","169002","0.0-286.0","3180JW2OT5YHB44YHTK0OS0YFUT5JX","A24LB89P1BPKKF","3LN3BXKGC0HZB1VNEMH4SWP73O3GW1","","null","<img src=""img/animal3.png"" style=""width:200px; border:14px solid green;"">","null","","","",""
"","image-keyboard-response","287","169472","0.0-287.0","3180JW2OT5YHB44YHTK0OS0YFUT5JX","A24LB89P1BPKKF","3LN3BXKGC0HZB1VNEMH4SWP73O3GW1","","467.5","img/animal6.png","75","469.19999998807907","75","1",""
"","html-keyboard-response","288","169774","0.0-288.0","3180JW2OT5YHB44YHTK0OS0YFUT5JX","A24LB89P1BPKKF","3LN3BXKGC0HZB1VNEMH4SWP73O3GW1","","null","<img src=""img/animal6.png"" style=""width:200px; border:14px solid green;"">","null","","","",""
"","image-keyboard-response","289","170396","0.0-289.0","3180JW2OT5YHB44YHTK0OS0YFUT5JX","A24LB89P1BPKKF","3LN3BXKGC0HZB1VNEMH4SWP73O3GW1","","620.9000000059605","img/animal3.png","74","622.5","74","0",""
"","html-keyboard-response","290","170700","0.0-290.0","3180JW2OT5YHB44YHTK0OS0YFUT5JX","A24LB89P1BPKKF","3LN3BXKGC0HZB1VNEMH4SWP73O3GW1","","null","<img src=""img/animal3.png"" style=""width:200px;border:14px solid red;"">","null","","","",""
"","image-keyboard-response","291","171329","0.0-291.0","3180JW2OT5YHB44YHTK0OS0YFUT5JX","A24LB89P1BPKKF","3LN3BXKGC0HZB1VNEMH4SWP73O3GW1","","627.9000000059605","img/animal6.png","75","629.7999999821186","75","1",""
"","html-keyboard-response","292","171638","0.0-292.0","3180JW2OT5YHB44YHTK0OS0YFUT5JX","A24LB89P1BPKKF","3LN3BXKGC0HZB1VNEMH4SWP73O3GW1","","null","<img src=""img/animal6.png"" style=""width:200px; border:14px solid green;"">","null","","","",""
"","image-keyboard-response","293","172188","0.0-293.0","3180JW2OT5YHB44YHTK0OS0YFUT5JX","A24LB89P1BPKKF","3LN3BXKGC0HZB1VNEMH4SWP73O3GW1","","547.6999999880791","img/animal3.png","74","549.5","74","1",""
"","html-keyboard-response","294","172489","0.0-294.0","3180JW2OT5YHB44YHTK0OS0YFUT5JX","A24LB89P1BPKKF","3LN3BXKGC0HZB1VNEMH4SWP73O3GW1","","null","<img src=""img/animal3.png"" style=""width:200px; border:14px solid green;"">","null","","","",""
"","image-keyboard-response","295","172973","0.0-295.0","3180JW2OT5YHB44YHTK0OS0YFUT5JX","A24LB89P1BPKKF","3LN3BXKGC0HZB1VNEMH4SWP73O3GW1","","482.5","img/animal3.png","74","483.5","74","1",""
"","html-keyboard-response","296","173275","0.0-296.0","3180JW2OT5YHB44YHTK0OS0YFUT5JX","A24LB89P1BPKKF","3LN3BXKGC0HZB1VNEMH4SWP73O3GW1","","null","<img src=""img/animal3.png"" style=""width:200px; border:14px solid green;"">","null","","","",""
"","image-keyboard-response","297","173823","0.0-297.0","3180JW2OT5YHB44YHTK0OS0YFUT5JX","A24LB89P1BPKKF","3LN3BXKGC0HZB1VNEMH4SWP73O3GW1","","544.9000000059605","img/animal4.png","76","546.9000000059605","76","1",""
"","html-keyboard-response","298","174132","0.0-298.0","3180JW2OT5YHB44YHTK0OS0YFUT5JX","A24LB89P1BPKKF","3LN3BXKGC0HZB1VNEMH4SWP73O3GW1","","null","<img src=""img/animal4.png"" style=""width:200px; border:14px solid green;"">","null","","","",""
"","image-keyboard-response","299","174594","0.0-299.0","3180JW2OT5YHB44YHTK0OS0YFUT5JX","A24LB89P1BPKKF","3LN3BXKGC0HZB1VNEMH4SWP73O3GW1","","460.7000000178814","img/animal6.png","75","461.80000001192093","75","1",""
"","html-keyboard-response","300","174896","0.0-300.0","3180JW2OT5YHB44YHTK0OS0YFUT5JX","A24LB89P1BPKKF","3LN3BXKGC0HZB1VNEMH4SWP73O3GW1","","null","<img src=""img/animal6.png"" style=""width:200px; border:14px solid green;"">","null","","","",""
"","image-keyboard-response","301","175342","0.0-301.0","3180JW2OT5YHB44YHTK0OS0YFUT5JX","A24LB89P1BPKKF","3LN3BXKGC0HZB1VNEMH4SWP73O3GW1","","444.09999999403954","img/animal4.png","76","445.80000001192093","76","1",""
"","html-keyboard-response","302","175645","0.0-302.0","3180JW2OT5YHB44YHTK0OS0YFUT5JX","A24LB89P1BPKKF","3LN3BXKGC0HZB1VNEMH4SWP73O3GW1","","null","<img src=""img/animal4.png"" style=""width:200px; border:14px solid green;"">","null","","","",""
"","image-keyboard-response","303","176121","0.0-303.0","3180JW2OT5YHB44YHTK0OS0YFUT5JX","A24LB89P1BPKKF","3LN3BXKGC0HZB1VNEMH4SWP73O3GW1","","474","img/animal4.png","76","476.09999999403954","76","1",""
"","html-keyboard-response","304","176424","0.0-304.0","3180JW2OT5YHB44YHTK0OS0YFUT5JX","A24LB89P1BPKKF","3LN3BXKGC0HZB1VNEMH4SWP73O3GW1","","null","<img src=""img/animal4.png"" style=""width:200px; border:14px solid green;"">","null","","","",""
"","image-keyboard-response","305","177120","0.0-305.0","3180JW2OT5YHB44YHTK0OS0YFUT5JX","A24LB89P1BPKKF","3LN3BXKGC0HZB1VNEMH4SWP73O3GW1","","693.5999999940395","img/animal3.png","74","695.9000000059605","74","1",""
"","html-keyboard-response","306","177422","0.0-306.0","3180JW2OT5YHB44YHTK0OS0YFUT5JX","A24LB89P1BPKKF","3LN3BXKGC0HZB1VNEMH4SWP73O3GW1","","null","<img src=""img/animal3.png"" style=""width:200px; border:14px solid green;"">","null","","","",""
"","image-keyboard-response","307","177754","0.0-307.0","3180JW2OT5YHB44YHTK0OS0YFUT5JX","A24LB89P1BPKKF","3LN3BXKGC0HZB1VNEMH4SWP73O3GW1","","330","img/animal3.png","74","331.80000001192093","74","0",""
"","html-keyboard-response","308","178056","0.0-308.0","3180JW2OT5YHB44YHTK0OS0YFUT5JX","A24LB89P1BPKKF","3LN3BXKGC0HZB1VNEMH4SWP73O3GW1","","null","<img src=""img/animal3.png"" style=""width:200px;border:14px solid red;"">","null","","","",""
"","image-keyboard-response","309","178901","0.0-309.0","3180JW2OT5YHB44YHTK0OS0YFUT5JX","A24LB89P1BPKKF","3LN3BXKGC0HZB1VNEMH4SWP73O3GW1","","841.8000000119209","img/animal4.png","75","843.9000000059605","75","0",""
"","html-keyboard-response","310","179204","0.0-310.0","3180JW2OT5YHB44YHTK0OS0YFUT5JX","A24LB89P1BPKKF","3LN3BXKGC0HZB1VNEMH4SWP73O3GW1","","null","<img src=""img/animal4.png"" style=""width:200px;border:14px solid red;"">","null","","","",""
"","image-keyboard-response","311","181429","0.0-311.0","3180JW2OT5YHB44YHTK0OS0YFUT5JX","A24LB89P1BPKKF","3LN3BXKGC0HZB1VNEMH4SWP73O3GW1","","2223.699999988079","img/animal6.png","75","2225.5","75","0",""
"","html-keyboard-response","312","181733","0.0-312.0","3180JW2OT5YHB44YHTK0OS0YFUT5JX","A24LB89P1BPKKF","3LN3BXKGC0HZB1VNEMH4SWP73O3GW1","","null","<img src=""img/animal6.png"" style=""width:200px;border:14px solid red;"">","null","","","",""
"","image-keyboard-response","313","182274","0.0-313.0","3180JW2OT5YHB44YHTK0OS0YFUT5JX","A24LB89P1BPKKF","3LN3BXKGC0HZB1VNEMH4SWP73O3GW1","","538.8000000119209","img/animal4.png","76","540.3000000119209","76","0",""
"","html-keyboard-response","314","182576","0.0-314.0","3180JW2OT5YHB44YHTK0OS0YFUT5JX","A24LB89P1BPKKF","3LN3BXKGC0HZB1VNEMH4SWP73O3GW1","","null","<img src=""img/animal4.png"" style=""width:200px;border:14px solid red;"">","null","","","",""
"","image-keyboard-response","315","182773","0.0-315.0","3180JW2OT5YHB44YHTK0OS0YFUT5JX","A24LB89P1BPKKF","3LN3BXKGC0HZB1VNEMH4SWP73O3GW1","","193.7999999821186","img/animal4.png","76","195.7999999821186","76","1",""
"","html-keyboard-response","316","183076","0.0-316.0","3180JW2OT5YHB44YHTK0OS0YFUT5JX","A24LB89P1BPKKF","3LN3BXKGC0HZB1VNEMH4SWP73O3GW1","","null","<img src=""img/animal4.png"" style=""width:200px; border:14px solid green;"">","null","","","",""
"","image-keyboard-response","317","183563","0.0-317.0","3180JW2OT5YHB44YHTK0OS0YFUT5JX","A24LB89P1BPKKF","3LN3BXKGC0HZB1VNEMH4SWP73O3GW1","","485.19999998807907","img/animal4.png","76","487.19999998807907","76","1",""
"","html-keyboard-response","318","183866","0.0-318.0","3180JW2OT5YHB44YHTK0OS0YFUT5JX","A24LB89P1BPKKF","3LN3BXKGC0HZB1VNEMH4SWP73O3GW1","","null","<img src=""img/animal4.png"" style=""width:200px; border:14px solid green;"">","null","","","",""
"","image-keyboard-response","319","184522","0.0-319.0","3180JW2OT5YHB44YHTK0OS0YFUT5JX","A24LB89P1BPKKF","3LN3BXKGC0HZB1VNEMH4SWP73O3GW1","","653.3999999761581","img/animal6.png","75","654.7999999821186","75","0",""
"","html-keyboard-response","320","184824","0.0-320.0","3180JW2OT5YHB44YHTK0OS0YFUT5JX","A24LB89P1BPKKF","3LN3BXKGC0HZB1VNEMH4SWP73O3GW1","","null","<img src=""img/animal6.png"" style=""width:200px;border:14px solid red;"">","null","","","",""
"","image-keyboard-response","321","185148","0.0-321.0","3180JW2OT5YHB44YHTK0OS0YFUT5JX","A24LB89P1BPKKF","3LN3BXKGC0HZB1VNEMH4SWP73O3GW1","","322.69999998807907","img/animal6.png","75","324.40000000596046","75","1",""
"","html-keyboard-response","322","185451","0.0-322.0","3180JW2OT5YHB44YHTK0OS0YFUT5JX","A24LB89P1BPKKF","3LN3BXKGC0HZB1VNEMH4SWP73O3GW1","","null","<img src=""img/animal6.png"" style=""width:200px; border:14px solid green;"">","null","","","",""
"","image-keyboard-response","323","185834","0.0-323.0","3180JW2OT5YHB44YHTK0OS0YFUT5JX","A24LB89P1BPKKF","3LN3BXKGC0HZB1VNEMH4SWP73O3GW1","","380.39999997615814","img/animal6.png","75","382.2999999821186","75","1",""
"","html-keyboard-response","324","186137","0.0-324.0","3180JW2OT5YHB44YHTK0OS0YFUT5JX","A24LB89P1BPKKF","3LN3BXKGC0HZB1VNEMH4SWP73O3GW1","","null","<img src=""img/animal6.png"" style=""width:200px; border:14px solid green;"">","null","","","",""
"","image-keyboard-response","325","186847","0.0-325.0","3180JW2OT5YHB44YHTK0OS0YFUT5JX","A24LB89P1BPKKF","3LN3BXKGC0HZB1VNEMH4SWP73O3GW1","","708.5999999940395","img/animal3.png","76","709.5","76","0",""
"","html-keyboard-response","326","187149","0.0-326.0","3180JW2OT5YHB44YHTK0OS0YFUT5JX","A24LB89P1BPKKF","3LN3BXKGC0HZB1VNEMH4SWP73O3GW1","","null","<img src=""img/animal3.png"" style=""width:200px;border:14px solid red;"">","null","","","",""
"","image-keyboard-response","327","188028","0.0-327.0","3180JW2OT5YHB44YHTK0OS0YFUT5JX","A24LB89P1BPKKF","3LN3BXKGC0HZB1VNEMH4SWP73O3GW1","","876.5","img/animal6.png","75","878.4000000059605","75","1",""
"","html-keyboard-response","328","188330","0.0-328.0","3180JW2OT5YHB44YHTK0OS0YFUT5JX","A24LB89P1BPKKF","3LN3BXKGC0HZB1VNEMH4SWP73O3GW1","","null","<img src=""img/animal6.png"" style=""width:200px; border:14px solid green;"">","null","","","",""
"","image-keyboard-response","329","188641","0.0-329.0","3180JW2OT5YHB44YHTK0OS0YFUT5JX","A24LB89P1BPKKF","3LN3BXKGC0HZB1VNEMH4SWP73O3GW1","","309.30000001192093","img/animal6.png","75","310.80000001192093","75","1",""
"","html-keyboard-response","330","188944","0.0-330.0","3180JW2OT5YHB44YHTK0OS0YFUT5JX","A24LB89P1BPKKF","3LN3BXKGC0HZB1VNEMH4SWP73O3GW1","","null","<img src=""img/animal6.png"" style=""width:200px; border:14px solid green;"">","null","","","",""
"","image-keyboard-response","331","189514","0.0-331.0","3180JW2OT5YHB44YHTK0OS0YFUT5JX","A24LB89P1BPKKF","3LN3BXKGC0HZB1VNEMH4SWP73O3GW1","","567","img/animal4.png","76","569","76","1",""
"","html-keyboard-response","332","189817","0.0-332.0","3180JW2OT5YHB44YHTK0OS0YFUT5JX","A24LB89P1BPKKF","3LN3BXKGC0HZB1VNEMH4SWP73O3GW1","","null","<img src=""img/animal4.png"" style=""width:200px; border:14px solid green;"">","null","","","",""
"","image-keyboard-response","333","190124","0.0-333.0","3180JW2OT5YHB44YHTK0OS0YFUT5JX","A24LB89P1BPKKF","3LN3BXKGC0HZB1VNEMH4SWP73O3GW1","","306.09999999403954","img/animal4.png","75","307.30000001192093","75","0",""
"","html-keyboard-response","334","190426","0.0-334.0","3180JW2OT5YHB44YHTK0OS0YFUT5JX","A24LB89P1BPKKF","3LN3BXKGC0HZB1VNEMH4SWP73O3GW1","","null","<img src=""img/animal4.png"" style=""width:200px;border:14px solid red;"">","null","","","",""
"","image-keyboard-response","335","190681","0.0-335.0","3180JW2OT5YHB44YHTK0OS0YFUT5JX","A24LB89P1BPKKF","3LN3BXKGC0HZB1VNEMH4SWP73O3GW1","","252.80000001192093","img/animal6.png","76","254.30000001192093","76","0",""
"","html-keyboard-response","336","190984","0.0-336.0","3180JW2OT5YHB44YHTK0OS0YFUT5JX","A24LB89P1BPKKF","3LN3BXKGC0HZB1VNEMH4SWP73O3GW1","","null","<img src=""img/animal6.png"" style=""width:200px;border:14px solid red;"">","null","","","",""
"","image-keyboard-response","337","191825","0.0-337.0","3180JW2OT5YHB44YHTK0OS0YFUT5JX","A24LB89P1BPKKF","3LN3BXKGC0HZB1VNEMH4SWP73O3GW1","","839.4000000059605","img/animal4.png","76","841.5","76","1",""
"","html-keyboard-response","338","192130","0.0-338.0","3180JW2OT5YHB44YHTK0OS0YFUT5JX","A24LB89P1BPKKF","3LN3BXKGC0HZB1VNEMH4SWP73O3GW1","","null","<img src=""img/animal4.png"" style=""width:200px; border:14px solid green;"">","null","","","",""
"","image-keyboard-response","339","192598","0.0-339.0","3180JW2OT5YHB44YHTK0OS0YFUT5JX","A24LB89P1BPKKF","3LN3BXKGC0HZB1VNEMH4SWP73O3GW1","","466.59999999403954","img/animal6.png","75","467.69999998807907","75","0",""
"","html-keyboard-response","340","192899","0.0-340.0","3180JW2OT5YHB44YHTK0OS0YFUT5JX","A24LB89P1BPKKF","3LN3BXKGC0HZB1VNEMH4SWP73O3GW1","","null","<img src=""img/animal6.png"" style=""width:200px;border:14px solid red;"">","null","","","",""
"","image-keyboard-response","341","193747","0.0-341.0","3180JW2OT5YHB44YHTK0OS0YFUT5JX","A24LB89P1BPKKF","3LN3BXKGC0HZB1VNEMH4SWP73O3GW1","","846.5999999940395","img/animal3.png","75","848.1999999880791","75","1",""
"","html-keyboard-response","342","194051","0.0-342.0","3180JW2OT5YHB44YHTK0OS0YFUT5JX","A24LB89P1BPKKF","3LN3BXKGC0HZB1VNEMH4SWP73O3GW1","","null","<img src=""img/animal3.png"" style=""width:200px; border:14px solid green;"">","null","","","",""
"","image-keyboard-response","343","194380","0.0-343.0","3180JW2OT5YHB44YHTK0OS0YFUT5JX","A24LB89P1BPKKF","3LN3BXKGC0HZB1VNEMH4SWP73O3GW1","","327.40000000596046","img/animal3.png","75","328.7000000178814","75","1",""
"","html-keyboard-response","344","194682","0.0-344.0","3180JW2OT5YHB44YHTK0OS0YFUT5JX","A24LB89P1BPKKF","3LN3BXKGC0HZB1VNEMH4SWP73O3GW1","","null","<img src=""img/animal3.png"" style=""width:200px; border:14px solid green;"">","null","","","",""
"","image-keyboard-response","345","194997","0.0-345.0","3180JW2OT5YHB44YHTK0OS0YFUT5JX","A24LB89P1BPKKF","3LN3BXKGC0HZB1VNEMH4SWP73O3GW1","","313.19999998807907","img/animal3.png","75","314.2000000178814","75","1",""
"","html-keyboard-response","346","195299","0.0-346.0","3180JW2OT5YHB44YHTK0OS0YFUT5JX","A24LB89P1BPKKF","3LN3BXKGC0HZB1VNEMH4SWP73O3GW1","","null","<img src=""img/animal3.png"" style=""width:200px; border:14px solid green;"">","null","","","",""
"","image-keyboard-response","347","195605","0.0-347.0","3180JW2OT5YHB44YHTK0OS0YFUT5JX","A24LB89P1BPKKF","3LN3BXKGC0HZB1VNEMH4SWP73O3GW1","","303.40000000596046","img/animal3.png","75","305.39999997615814","75","1",""
"","html-keyboard-response","348","195908","0.0-348.0","3180JW2OT5YHB44YHTK0OS0YFUT5JX","A24LB89P1BPKKF","3LN3BXKGC0HZB1VNEMH4SWP73O3GW1","","null","<img src=""img/animal3.png"" style=""width:200px; border:14px solid green;"">","null","","","",""
"","image-keyboard-response","349","196725","0.0-349.0","3180JW2OT5YHB44YHTK0OS0YFUT5JX","A24LB89P1BPKKF","3LN3BXKGC0HZB1VNEMH4SWP73O3GW1","","814","img/animal6.png","75","817","75","0",""
"","html-keyboard-response","350","197027","0.0-350.0","3180JW2OT5YHB44YHTK0OS0YFUT5JX","A24LB89P1BPKKF","3LN3BXKGC0HZB1VNEMH4SWP73O3GW1","","null","<img src=""img/animal6.png"" style=""width:200px;border:14px solid red;"">","null","","","",""
"","image-keyboard-response","351","197230","0.0-351.0","3180JW2OT5YHB44YHTK0OS0YFUT5JX","A24LB89P1BPKKF","3LN3BXKGC0HZB1VNEMH4SWP73O3GW1","","200.69999998807907","img/animal4.png","75","202.2000000178814","75","0",""
"","html-keyboard-response","352","197533","0.0-352.0","3180JW2OT5YHB44YHTK0OS0YFUT5JX","A24LB89P1BPKKF","3LN3BXKGC0HZB1VNEMH4SWP73O3GW1","","null","<img src=""img/animal4.png"" style=""width:200px;border:14px solid red;"">","null","","","",""
"","image-keyboard-response","353","198342","0.0-353.0","3180JW2OT5YHB44YHTK0OS0YFUT5JX","A24LB89P1BPKKF","3LN3BXKGC0HZB1VNEMH4SWP73O3GW1","","806.9000000059605","img/animal3.png","75","808.5","75","1",""
"","html-keyboard-response","354","198644","0.0-354.0","3180JW2OT5YHB44YHTK0OS0YFUT5JX","A24LB89P1BPKKF","3LN3BXKGC0HZB1VNEMH4SWP73O3GW1","","null","<img src=""img/animal3.png"" style=""width:200px; border:14px solid green;"">","null","","","",""
"","image-keyboard-response","355","199429","0.0-355.0","3180JW2OT5YHB44YHTK0OS0YFUT5JX","A24LB89P1BPKKF","3LN3BXKGC0HZB1VNEMH4SWP73O3GW1","","782.7999999821186","img/animal6.png","75","784.3999999761581","75","0",""
"","html-keyboard-response","356","199732","0.0-356.0","3180JW2OT5YHB44YHTK0OS0YFUT5JX","A24LB89P1BPKKF","3LN3BXKGC0HZB1VNEMH4SWP73O3GW1","","null","<img src=""img/animal6.png"" style=""width:200px;border:14px solid red;"">","null","","","",""
"","image-keyboard-response","357","200409","0.0-357.0","3180JW2OT5YHB44YHTK0OS0YFUT5JX","A24LB89P1BPKKF","3LN3BXKGC0HZB1VNEMH4SWP73O3GW1","","674.6000000238419","img/animal3.png","75","676.1000000238419","75","1",""
"","html-keyboard-response","358","200710","0.0-358.0","3180JW2OT5YHB44YHTK0OS0YFUT5JX","A24LB89P1BPKKF","3LN3BXKGC0HZB1VNEMH4SWP73O3GW1","","null","<img src=""img/animal3.png"" style=""width:200px; border:14px solid green;"">","null","","","",""
"","image-keyboard-response","359","201112","0.0-359.0","3180JW2OT5YHB44YHTK0OS0YFUT5JX","A24LB89P1BPKKF","3LN3BXKGC0HZB1VNEMH4SWP73O3GW1","","399.2999999821186","img/animal3.png","75","401.5","75","1",""
"","html-keyboard-response","360","201415","0.0-360.0","3180JW2OT5YHB44YHTK0OS0YFUT5JX","A24LB89P1BPKKF","3LN3BXKGC0HZB1VNEMH4SWP73O3GW1","","null","<img src=""img/animal3.png"" style=""width:200px; border:14px solid green;"">","null","","","",""
"","image-keyboard-response","361","201976","0.0-361.0","3180JW2OT5YHB44YHTK0OS0YFUT5JX","A24LB89P1BPKKF","3LN3BXKGC0HZB1VNEMH4SWP73O3GW1","","560.1999999880791","img/animal4.png","76","561.7999999821186","76","1",""
"","html-keyboard-response","362","202280","0.0-362.0","3180JW2OT5YHB44YHTK0OS0YFUT5JX","A24LB89P1BPKKF","3LN3BXKGC0HZB1VNEMH4SWP73O3GW1","","null","<img src=""img/animal4.png"" style=""width:200px; border:14px solid green;"">","null","","","",""
"","instructions","363","209124","0.0-363.0","3180JW2OT5YHB44YHTK0OS0YFUT5JX","A24LB89P1BPKKF","3LN3BXKGC0HZB1VNEMH4SWP73O3GW1","[{""page_index"":0,""viewing_time"":6842.200000017881}]","6842.5","","","","","",""
"","survey-text","364","211552","0.0-364.0","3180JW2OT5YHB44YHTK0OS0YFUT5JX","A24LB89P1BPKKF","3LN3BXKGC0HZB1VNEMH4SWP73O3GW1","","2424.2999999821186","","","","","","{""Q0"":""A24LB89P1BPKKF""}"
