"success","trial_type","trial_index","time_elapsed","internal_node_id","assignmentID","mturkID","hitID","view_history","rt","stimulus","key_press","reactionTime","chosenAction","reward","responses"
"true","fullscreen","0","6869","0.0-0.0","3QHK8ZVMIN4PVA97LONQ7TDITE7LB1","A24MNMHSFYW6B","3SBNLSTU6UR0TCQ1NJ03LFGS7YQZDZ","","","","","","","",""
"","instructions","1","308436","0.0-1.0","3QHK8ZVMIN4PVA97LONQ7TDITE7LB1","A24MNMHSFYW6B","3SBNLSTU6UR0TCQ1NJ03LFGS7YQZDZ","[{""page_index"":0,""viewing_time"":2413.7999999970198},{""page_index"":1,""viewing_time"":4503.20000000298},{""page_index"":2,""viewing_time"":1511.5999999940395},{""page_index"":3,""viewing_time"":275440.90000000596},{""page_index"":4,""viewing_time"":6527.9000000059605},{""page_index"":5,""viewing_time"":7515.199999988079},{""page_index"":6,""viewing_time"":1684.2000000029802},{""page_index"":7,""viewing_time"":1960.4000000059605}]","301558","","","","","",""
"","image-keyboard-response","2","313828","0.0-2.0","3QHK8ZVMIN4PVA97LONQ7TDITE7LB1","A24MNMHSFYW6B","3SBNLSTU6UR0TCQ1NJ03LFGS7YQZDZ","","5390.5999999940395","img/animal2.png","75","5391.9000000059605","75","1",""
"","html-keyboard-response","3","314131","0.0-3.0","3QHK8ZVMIN4PVA97LONQ7TDITE7LB1","A24MNMHSFYW6B","3SBNLSTU6UR0TCQ1NJ03LFGS7YQZDZ","","null","<img src=""img/animal2.png"" style=""width:200px; border:14px solid green;"">","null","","","",""
"","image-keyboard-response","4","315835","0.0-4.0","3QHK8ZVMIN4PVA97LONQ7TDITE7LB1","A24MNMHSFYW6B","3SBNLSTU6UR0TCQ1NJ03LFGS7YQZDZ","","1702.6000000089407","img/animal2.png","75","1703.5999999940395","75","1",""
"","html-keyboard-response","5","316137","0.0-5.0","3QHK8ZVMIN4PVA97LONQ7TDITE7LB1","A24MNMHSFYW6B","3SBNLSTU6UR0TCQ1NJ03LFGS7YQZDZ","","null","<img src=""img/animal2.png"" style=""width:200px; border:14px solid green;"">","null","","","",""
"","image-keyboard-response","6","316947","0.0-6.0","3QHK8ZVMIN4PVA97LONQ7TDITE7LB1","A24MNMHSFYW6B","3SBNLSTU6UR0TCQ1NJ03LFGS7YQZDZ","","808.1999999880791","img/animal2.png","75","809","75","1",""
"","html-keyboard-response","7","317249","0.0-7.0","3QHK8ZVMIN4PVA97LONQ7TDITE7LB1","A24MNMHSFYW6B","3SBNLSTU6UR0TCQ1NJ03LFGS7YQZDZ","","null","<img src=""img/animal2.png"" style=""width:200px; border:14px solid green;"">","null","","","",""
"","image-keyboard-response","8","319042","0.0-8.0","3QHK8ZVMIN4PVA97LONQ7TDITE7LB1","A24MNMHSFYW6B","3SBNLSTU6UR0TCQ1NJ03LFGS7YQZDZ","","1792.4000000059605","img/animal3.png","76","1793.2999999970198","76","1",""
"","html-keyboard-response","9","319344","0.0-9.0","3QHK8ZVMIN4PVA97LONQ7TDITE7LB1","A24MNMHSFYW6B","3SBNLSTU6UR0TCQ1NJ03LFGS7YQZDZ","","null","<img src=""img/animal3.png"" style=""width:200px; border:14px solid green;"">","null","","","",""
"","image-keyboard-response","10","324354","0.0-10.0","3QHK8ZVMIN4PVA97LONQ7TDITE7LB1","A24MNMHSFYW6B","3SBNLSTU6UR0TCQ1NJ03LFGS7YQZDZ","","5008.5999999940395","img/animal4.png","76","5009.600000008941","76","1",""
"","html-keyboard-response","11","324657","0.0-11.0","3QHK8ZVMIN4PVA97LONQ7TDITE7LB1","A24MNMHSFYW6B","3SBNLSTU6UR0TCQ1NJ03LFGS7YQZDZ","","null","<img src=""img/animal4.png"" style=""width:200px; border:14px solid green;"">","null","","","",""
"","image-keyboard-response","12","326432","0.0-12.0","3QHK8ZVMIN4PVA97LONQ7TDITE7LB1","A24MNMHSFYW6B","3SBNLSTU6UR0TCQ1NJ03LFGS7YQZDZ","","1774.1000000089407","img/animal3.png","76","1775","76","1",""
"","html-keyboard-response","13","326734","0.0-13.0","3QHK8ZVMIN4PVA97LONQ7TDITE7LB1","A24MNMHSFYW6B","3SBNLSTU6UR0TCQ1NJ03LFGS7YQZDZ","","null","<img src=""img/animal3.png"" style=""width:200px; border:14px solid green;"">","null","","","",""
"","image-keyboard-response","14","328786","0.0-14.0","3QHK8ZVMIN4PVA97LONQ7TDITE7LB1","A24MNMHSFYW6B","3SBNLSTU6UR0TCQ1NJ03LFGS7YQZDZ","","2051.5","img/animal2.png","75","2052.4000000059605","75","0",""
"","html-keyboard-response","15","329089","0.0-15.0","3QHK8ZVMIN4PVA97LONQ7TDITE7LB1","A24MNMHSFYW6B","3SBNLSTU6UR0TCQ1NJ03LFGS7YQZDZ","","null","<img src=""img/animal2.png"" style=""width:200px;border:14px solid red;"">","null","","","",""
"","image-keyboard-response","16","330602","0.0-16.0","3QHK8ZVMIN4PVA97LONQ7TDITE7LB1","A24MNMHSFYW6B","3SBNLSTU6UR0TCQ1NJ03LFGS7YQZDZ","","1512.2000000029802","img/animal2.png","74","1513","74","1",""
"","html-keyboard-response","17","330905","0.0-17.0","3QHK8ZVMIN4PVA97LONQ7TDITE7LB1","A24MNMHSFYW6B","3SBNLSTU6UR0TCQ1NJ03LFGS7YQZDZ","","null","<img src=""img/animal2.png"" style=""width:200px; border:14px solid green;"">","null","","","",""
"","image-keyboard-response","18","332245","0.0-18.0","3QHK8ZVMIN4PVA97LONQ7TDITE7LB1","A24MNMHSFYW6B","3SBNLSTU6UR0TCQ1NJ03LFGS7YQZDZ","","1339.5999999940395","img/animal4.png","76","1340.5","76","1",""
"","html-keyboard-response","19","332547","0.0-19.0","3QHK8ZVMIN4PVA97LONQ7TDITE7LB1","A24MNMHSFYW6B","3SBNLSTU6UR0TCQ1NJ03LFGS7YQZDZ","","null","<img src=""img/animal4.png"" style=""width:200px; border:14px solid green;"">","null","","","",""
"","image-keyboard-response","20","333834","0.0-20.0","3QHK8ZVMIN4PVA97LONQ7TDITE7LB1","A24MNMHSFYW6B","3SBNLSTU6UR0TCQ1NJ03LFGS7YQZDZ","","1286.2000000029802","img/animal2.png","75","1287.2000000029802","75","1",""
"","html-keyboard-response","21","334137","0.0-21.0","3QHK8ZVMIN4PVA97LONQ7TDITE7LB1","A24MNMHSFYW6B","3SBNLSTU6UR0TCQ1NJ03LFGS7YQZDZ","","null","<img src=""img/animal2.png"" style=""width:200px; border:14px solid green;"">","null","","","",""
"","image-keyboard-response","22","335154","0.0-22.0","3QHK8ZVMIN4PVA97LONQ7TDITE7LB1","A24MNMHSFYW6B","3SBNLSTU6UR0TCQ1NJ03LFGS7YQZDZ","","1016.7000000029802","img/animal2.png","74","1017.5","74","1",""
"","html-keyboard-response","23","335457","0.0-23.0","3QHK8ZVMIN4PVA97LONQ7TDITE7LB1","A24MNMHSFYW6B","3SBNLSTU6UR0TCQ1NJ03LFGS7YQZDZ","","null","<img src=""img/animal2.png"" style=""width:200px; border:14px solid green;"">","null","","","",""
"","image-keyboard-response","24","336874","0.0-24.0","3QHK8ZVMIN4PVA97LONQ7TDITE7LB1","A24MNMHSFYW6B","3SBNLSTU6UR0TCQ1NJ03LFGS7YQZDZ","","1415.8999999910593","img/animal3.png","76","1416.7000000029802","76","1",""
"","html-keyboard-response","25","337176","0.0-25.0","3QHK8ZVMIN4PVA97LONQ7TDITE7LB1","A24MNMHSFYW6B","3SBNLSTU6UR0TCQ1NJ03LFGS7YQZDZ","","null","<img src=""img/animal3.png"" style=""width:200px; border:14px solid green;"">","null","","","",""
"","image-keyboard-response","26","338090","0.0-26.0","3QHK8ZVMIN4PVA97LONQ7TDITE7LB1","A24MNMHSFYW6B","3SBNLSTU6UR0TCQ1NJ03LFGS7YQZDZ","","913.8000000119209","img/animal3.png","76","914.4000000059605","76","1",""
"","html-keyboard-response","27","338392","0.0-27.0","3QHK8ZVMIN4PVA97LONQ7TDITE7LB1","A24MNMHSFYW6B","3SBNLSTU6UR0TCQ1NJ03LFGS7YQZDZ","","null","<img src=""img/animal3.png"" style=""width:200px; border:14px solid green;"">","null","","","",""
"","image-keyboard-response","28","339618","0.0-28.0","3QHK8ZVMIN4PVA97LONQ7TDITE7LB1","A24MNMHSFYW6B","3SBNLSTU6UR0TCQ1NJ03LFGS7YQZDZ","","1225.0999999940395","img/animal2.png","75","1225.9000000059605","75","0",""
"","html-keyboard-response","29","339921","0.0-29.0","3QHK8ZVMIN4PVA97LONQ7TDITE7LB1","A24MNMHSFYW6B","3SBNLSTU6UR0TCQ1NJ03LFGS7YQZDZ","","null","<img src=""img/animal2.png"" style=""width:200px;border:14px solid red;"">","null","","","",""
"","image-keyboard-response","30","341106","0.0-30.0","3QHK8ZVMIN4PVA97LONQ7TDITE7LB1","A24MNMHSFYW6B","3SBNLSTU6UR0TCQ1NJ03LFGS7YQZDZ","","1184.2999999970198","img/animal4.png","76","1185","76","1",""
"","html-keyboard-response","31","341408","0.0-31.0","3QHK8ZVMIN4PVA97LONQ7TDITE7LB1","A24MNMHSFYW6B","3SBNLSTU6UR0TCQ1NJ03LFGS7YQZDZ","","null","<img src=""img/animal4.png"" style=""width:200px; border:14px solid green;"">","null","","","",""
"","image-keyboard-response","32","342682","0.0-32.0","3QHK8ZVMIN4PVA97LONQ7TDITE7LB1","A24MNMHSFYW6B","3SBNLSTU6UR0TCQ1NJ03LFGS7YQZDZ","","1272.5","img/animal3.png","76","1273.2000000029802","76","1",""
"","html-keyboard-response","33","342984","0.0-33.0","3QHK8ZVMIN4PVA97LONQ7TDITE7LB1","A24MNMHSFYW6B","3SBNLSTU6UR0TCQ1NJ03LFGS7YQZDZ","","null","<img src=""img/animal3.png"" style=""width:200px; border:14px solid green;"">","null","","","",""
"","image-keyboard-response","34","344258","0.0-34.0","3QHK8ZVMIN4PVA97LONQ7TDITE7LB1","A24MNMHSFYW6B","3SBNLSTU6UR0TCQ1NJ03LFGS7YQZDZ","","1273.0999999940395","img/animal4.png","76","1273.9000000059605","76","1",""
"","html-keyboard-response","35","344560","0.0-35.0","3QHK8ZVMIN4PVA97LONQ7TDITE7LB1","A24MNMHSFYW6B","3SBNLSTU6UR0TCQ1NJ03LFGS7YQZDZ","","null","<img src=""img/animal4.png"" style=""width:200px; border:14px solid green;"">","null","","","",""
"","image-keyboard-response","36","345778","0.0-36.0","3QHK8ZVMIN4PVA97LONQ7TDITE7LB1","A24MNMHSFYW6B","3SBNLSTU6UR0TCQ1NJ03LFGS7YQZDZ","","1216.6000000089407","img/animal2.png","74","1217.4000000059605","74","1",""
"","html-keyboard-response","37","346080","0.0-37.0","3QHK8ZVMIN4PVA97LONQ7TDITE7LB1","A24MNMHSFYW6B","3SBNLSTU6UR0TCQ1NJ03LFGS7YQZDZ","","null","<img src=""img/animal2.png"" style=""width:200px; border:14px solid green;"">","null","","","",""
"","image-keyboard-response","38","347018","0.0-38.0","3QHK8ZVMIN4PVA97LONQ7TDITE7LB1","A24MNMHSFYW6B","3SBNLSTU6UR0TCQ1NJ03LFGS7YQZDZ","","937.7000000029802","img/animal2.png","75","938.3999999910593","75","0",""
"","html-keyboard-response","39","347320","0.0-39.0","3QHK8ZVMIN4PVA97LONQ7TDITE7LB1","A24MNMHSFYW6B","3SBNLSTU6UR0TCQ1NJ03LFGS7YQZDZ","","null","<img src=""img/animal2.png"" style=""width:200px;border:14px solid red;"">","null","","","",""
"","image-keyboard-response","40","348178","0.0-40.0","3QHK8ZVMIN4PVA97LONQ7TDITE7LB1","A24MNMHSFYW6B","3SBNLSTU6UR0TCQ1NJ03LFGS7YQZDZ","","856.5","img/animal2.png","74","857.2999999970198","74","1",""
"","html-keyboard-response","41","348480","0.0-41.0","3QHK8ZVMIN4PVA97LONQ7TDITE7LB1","A24MNMHSFYW6B","3SBNLSTU6UR0TCQ1NJ03LFGS7YQZDZ","","null","<img src=""img/animal2.png"" style=""width:200px; border:14px solid green;"">","null","","","",""
"","image-keyboard-response","42","349651","0.0-42.0","3QHK8ZVMIN4PVA97LONQ7TDITE7LB1","A24MNMHSFYW6B","3SBNLSTU6UR0TCQ1NJ03LFGS7YQZDZ","","1169.2000000029802","img/animal4.png","76","1170.0999999940395","76","1",""
"","html-keyboard-response","43","349954","0.0-43.0","3QHK8ZVMIN4PVA97LONQ7TDITE7LB1","A24MNMHSFYW6B","3SBNLSTU6UR0TCQ1NJ03LFGS7YQZDZ","","null","<img src=""img/animal4.png"" style=""width:200px; border:14px solid green;"">","null","","","",""
"","image-keyboard-response","44","351091","0.0-44.0","3QHK8ZVMIN4PVA97LONQ7TDITE7LB1","A24MNMHSFYW6B","3SBNLSTU6UR0TCQ1NJ03LFGS7YQZDZ","","1136.300000011921","img/animal3.png","76","1137.0999999940395","76","0",""
"","html-keyboard-response","45","351393","0.0-45.0","3QHK8ZVMIN4PVA97LONQ7TDITE7LB1","A24MNMHSFYW6B","3SBNLSTU6UR0TCQ1NJ03LFGS7YQZDZ","","null","<img src=""img/animal3.png"" style=""width:200px;border:14px solid red;"">","null","","","",""
"","image-keyboard-response","46","352531","0.0-46.0","3QHK8ZVMIN4PVA97LONQ7TDITE7LB1","A24MNMHSFYW6B","3SBNLSTU6UR0TCQ1NJ03LFGS7YQZDZ","","1136.5","img/animal4.png","76","1137.2999999970198","76","1",""
"","html-keyboard-response","47","352833","0.0-47.0","3QHK8ZVMIN4PVA97LONQ7TDITE7LB1","A24MNMHSFYW6B","3SBNLSTU6UR0TCQ1NJ03LFGS7YQZDZ","","null","<img src=""img/animal4.png"" style=""width:200px; border:14px solid green;"">","null","","","",""
"","image-keyboard-response","48","353675","0.0-48.0","3QHK8ZVMIN4PVA97LONQ7TDITE7LB1","A24MNMHSFYW6B","3SBNLSTU6UR0TCQ1NJ03LFGS7YQZDZ","","841","img/animal4.png","76","841.7999999970198","76","1",""
"","html-keyboard-response","49","353977","0.0-49.0","3QHK8ZVMIN4PVA97LONQ7TDITE7LB1","A24MNMHSFYW6B","3SBNLSTU6UR0TCQ1NJ03LFGS7YQZDZ","","null","<img src=""img/animal4.png"" style=""width:200px; border:14px solid green;"">","null","","","",""
"","image-keyboard-response","50","354787","0.0-50.0","3QHK8ZVMIN4PVA97LONQ7TDITE7LB1","A24MNMHSFYW6B","3SBNLSTU6UR0TCQ1NJ03LFGS7YQZDZ","","808.3999999910593","img/animal4.png","76","809.2000000029802","76","1",""
"","html-keyboard-response","51","355089","0.0-51.0","3QHK8ZVMIN4PVA97LONQ7TDITE7LB1","A24MNMHSFYW6B","3SBNLSTU6UR0TCQ1NJ03LFGS7YQZDZ","","null","<img src=""img/animal4.png"" style=""width:200px; border:14px solid green;"">","null","","","",""
"","image-keyboard-response","52","355883","0.0-52.0","3QHK8ZVMIN4PVA97LONQ7TDITE7LB1","A24MNMHSFYW6B","3SBNLSTU6UR0TCQ1NJ03LFGS7YQZDZ","","793","img/animal4.png","76","793.7000000029802","76","1",""
"","html-keyboard-response","53","356186","0.0-53.0","3QHK8ZVMIN4PVA97LONQ7TDITE7LB1","A24MNMHSFYW6B","3SBNLSTU6UR0TCQ1NJ03LFGS7YQZDZ","","null","<img src=""img/animal4.png"" style=""width:200px; border:14px solid green;"">","null","","","",""
"","image-keyboard-response","54","357371","0.0-54.0","3QHK8ZVMIN4PVA97LONQ7TDITE7LB1","A24MNMHSFYW6B","3SBNLSTU6UR0TCQ1NJ03LFGS7YQZDZ","","1184.2999999970198","img/animal2.png","76","1185","76","0",""
"","html-keyboard-response","55","357673","0.0-55.0","3QHK8ZVMIN4PVA97LONQ7TDITE7LB1","A24MNMHSFYW6B","3SBNLSTU6UR0TCQ1NJ03LFGS7YQZDZ","","null","<img src=""img/animal2.png"" style=""width:200px;border:14px solid red;"">","null","","","",""
"","image-keyboard-response","56","358971","0.0-56.0","3QHK8ZVMIN4PVA97LONQ7TDITE7LB1","A24MNMHSFYW6B","3SBNLSTU6UR0TCQ1NJ03LFGS7YQZDZ","","1296.6000000089407","img/animal4.png","76","1297.5","76","1",""
"","html-keyboard-response","57","359273","0.0-57.0","3QHK8ZVMIN4PVA97LONQ7TDITE7LB1","A24MNMHSFYW6B","3SBNLSTU6UR0TCQ1NJ03LFGS7YQZDZ","","null","<img src=""img/animal4.png"" style=""width:200px; border:14px solid green;"">","null","","","",""
"","image-keyboard-response","58","364282","0.0-58.0","3QHK8ZVMIN4PVA97LONQ7TDITE7LB1","A24MNMHSFYW6B","3SBNLSTU6UR0TCQ1NJ03LFGS7YQZDZ","","5008.79999999702","img/animal3.png","75","5009.5","75","1",""
"","html-keyboard-response","59","364585","0.0-59.0","3QHK8ZVMIN4PVA97LONQ7TDITE7LB1","A24MNMHSFYW6B","3SBNLSTU6UR0TCQ1NJ03LFGS7YQZDZ","","null","<img src=""img/animal3.png"" style=""width:200px; border:14px solid green;"">","null","","","",""
"","image-keyboard-response","60","367811","0.0-60.0","3QHK8ZVMIN4PVA97LONQ7TDITE7LB1","A24MNMHSFYW6B","3SBNLSTU6UR0TCQ1NJ03LFGS7YQZDZ","","3224.5","img/animal2.png","74","3225.3999999910593","74","1",""
"","html-keyboard-response","61","368113","0.0-61.0","3QHK8ZVMIN4PVA97LONQ7TDITE7LB1","A24MNMHSFYW6B","3SBNLSTU6UR0TCQ1NJ03LFGS7YQZDZ","","null","<img src=""img/animal2.png"" style=""width:200px; border:14px solid green;"">","null","","","",""
"","image-keyboard-response","62","369603","0.0-62.0","3QHK8ZVMIN4PVA97LONQ7TDITE7LB1","A24MNMHSFYW6B","3SBNLSTU6UR0TCQ1NJ03LFGS7YQZDZ","","1489.4000000059605","img/animal2.png","75","1490.0999999940395","75","1",""
"","html-keyboard-response","63","369906","0.0-63.0","3QHK8ZVMIN4PVA97LONQ7TDITE7LB1","A24MNMHSFYW6B","3SBNLSTU6UR0TCQ1NJ03LFGS7YQZDZ","","null","<img src=""img/animal2.png"" style=""width:200px; border:14px solid green;"">","null","","","",""
"","image-keyboard-response","64","370970","0.0-64.0","3QHK8ZVMIN4PVA97LONQ7TDITE7LB1","A24MNMHSFYW6B","3SBNLSTU6UR0TCQ1NJ03LFGS7YQZDZ","","1062.7000000029802","img/animal2.png","74","1063.6000000089407","74","1",""
"","html-keyboard-response","65","371273","0.0-65.0","3QHK8ZVMIN4PVA97LONQ7TDITE7LB1","A24MNMHSFYW6B","3SBNLSTU6UR0TCQ1NJ03LFGS7YQZDZ","","null","<img src=""img/animal2.png"" style=""width:200px; border:14px solid green;"">","null","","","",""
"","image-keyboard-response","66","372346","0.0-66.0","3QHK8ZVMIN4PVA97LONQ7TDITE7LB1","A24MNMHSFYW6B","3SBNLSTU6UR0TCQ1NJ03LFGS7YQZDZ","","1072.5","img/animal3.png","75","1073.300000011921","75","1",""
"","html-keyboard-response","67","372648","0.0-67.0","3QHK8ZVMIN4PVA97LONQ7TDITE7LB1","A24MNMHSFYW6B","3SBNLSTU6UR0TCQ1NJ03LFGS7YQZDZ","","null","<img src=""img/animal3.png"" style=""width:200px; border:14px solid green;"">","null","","","",""
"","image-keyboard-response","68","373867","0.0-68.0","3QHK8ZVMIN4PVA97LONQ7TDITE7LB1","A24MNMHSFYW6B","3SBNLSTU6UR0TCQ1NJ03LFGS7YQZDZ","","1217.2999999970198","img/animal4.png","76","1218.0999999940395","76","1",""
"","html-keyboard-response","69","374169","0.0-69.0","3QHK8ZVMIN4PVA97LONQ7TDITE7LB1","A24MNMHSFYW6B","3SBNLSTU6UR0TCQ1NJ03LFGS7YQZDZ","","null","<img src=""img/animal4.png"" style=""width:200px; border:14px solid green;"">","null","","","",""
"","image-keyboard-response","70","375659","0.0-70.0","3QHK8ZVMIN4PVA97LONQ7TDITE7LB1","A24MNMHSFYW6B","3SBNLSTU6UR0TCQ1NJ03LFGS7YQZDZ","","1488.7000000029802","img/animal2.png","75","1489.2999999970198","75","0",""
"","html-keyboard-response","71","375960","0.0-71.0","3QHK8ZVMIN4PVA97LONQ7TDITE7LB1","A24MNMHSFYW6B","3SBNLSTU6UR0TCQ1NJ03LFGS7YQZDZ","","null","<img src=""img/animal2.png"" style=""width:200px;border:14px solid red;"">","null","","","",""
"","image-keyboard-response","72","376874","0.0-72.0","3QHK8ZVMIN4PVA97LONQ7TDITE7LB1","A24MNMHSFYW6B","3SBNLSTU6UR0TCQ1NJ03LFGS7YQZDZ","","912.2000000029802","img/animal4.png","76","913","76","1",""
"","html-keyboard-response","73","377176","0.0-73.0","3QHK8ZVMIN4PVA97LONQ7TDITE7LB1","A24MNMHSFYW6B","3SBNLSTU6UR0TCQ1NJ03LFGS7YQZDZ","","null","<img src=""img/animal4.png"" style=""width:200px; border:14px solid green;"">","null","","","",""
"","image-keyboard-response","74","378378","0.0-74.0","3QHK8ZVMIN4PVA97LONQ7TDITE7LB1","A24MNMHSFYW6B","3SBNLSTU6UR0TCQ1NJ03LFGS7YQZDZ","","1200.9000000059605","img/animal3.png","75","1201.5999999940395","75","1",""
"","html-keyboard-response","75","378681","0.0-75.0","3QHK8ZVMIN4PVA97LONQ7TDITE7LB1","A24MNMHSFYW6B","3SBNLSTU6UR0TCQ1NJ03LFGS7YQZDZ","","null","<img src=""img/animal3.png"" style=""width:200px; border:14px solid green;"">","null","","","",""
"","image-keyboard-response","76","379778","0.0-76.0","3QHK8ZVMIN4PVA97LONQ7TDITE7LB1","A24MNMHSFYW6B","3SBNLSTU6UR0TCQ1NJ03LFGS7YQZDZ","","1096.5","img/animal2.png","74","1097.5","74","1",""
"","html-keyboard-response","77","380080","0.0-77.0","3QHK8ZVMIN4PVA97LONQ7TDITE7LB1","A24MNMHSFYW6B","3SBNLSTU6UR0TCQ1NJ03LFGS7YQZDZ","","null","<img src=""img/animal2.png"" style=""width:200px; border:14px solid green;"">","null","","","",""
"","image-keyboard-response","78","380930","0.0-78.0","3QHK8ZVMIN4PVA97LONQ7TDITE7LB1","A24MNMHSFYW6B","3SBNLSTU6UR0TCQ1NJ03LFGS7YQZDZ","","849","img/animal2.png","74","849.7000000029802","74","1",""
"","html-keyboard-response","79","381233","0.0-79.0","3QHK8ZVMIN4PVA97LONQ7TDITE7LB1","A24MNMHSFYW6B","3SBNLSTU6UR0TCQ1NJ03LFGS7YQZDZ","","null","<img src=""img/animal2.png"" style=""width:200px; border:14px solid green;"">","null","","","",""
"","image-keyboard-response","80","382354","0.0-80.0","3QHK8ZVMIN4PVA97LONQ7TDITE7LB1","A24MNMHSFYW6B","3SBNLSTU6UR0TCQ1NJ03LFGS7YQZDZ","","1120.2999999970198","img/animal3.png","75","1120.8999999910593","75","1",""
"","html-keyboard-response","81","382656","0.0-81.0","3QHK8ZVMIN4PVA97LONQ7TDITE7LB1","A24MNMHSFYW6B","3SBNLSTU6UR0TCQ1NJ03LFGS7YQZDZ","","null","<img src=""img/animal3.png"" style=""width:200px; border:14px solid green;"">","null","","","",""
"","image-keyboard-response","82","383626","0.0-82.0","3QHK8ZVMIN4PVA97LONQ7TDITE7LB1","A24MNMHSFYW6B","3SBNLSTU6UR0TCQ1NJ03LFGS7YQZDZ","","969.2000000029802","img/animal4.png","76","970","76","1",""
"","html-keyboard-response","83","383929","0.0-83.0","3QHK8ZVMIN4PVA97LONQ7TDITE7LB1","A24MNMHSFYW6B","3SBNLSTU6UR0TCQ1NJ03LFGS7YQZDZ","","null","<img src=""img/animal4.png"" style=""width:200px; border:14px solid green;"">","null","","","",""
"","image-keyboard-response","84","385234","0.0-84.0","3QHK8ZVMIN4PVA97LONQ7TDITE7LB1","A24MNMHSFYW6B","3SBNLSTU6UR0TCQ1NJ03LFGS7YQZDZ","","1304","img/animal3.png","75","1304.800000011921","75","1",""
"","html-keyboard-response","85","385536","0.0-85.0","3QHK8ZVMIN4PVA97LONQ7TDITE7LB1","A24MNMHSFYW6B","3SBNLSTU6UR0TCQ1NJ03LFGS7YQZDZ","","null","<img src=""img/animal3.png"" style=""width:200px; border:14px solid green;"">","null","","","",""
"","image-keyboard-response","86","386521","0.0-86.0","3QHK8ZVMIN4PVA97LONQ7TDITE7LB1","A24MNMHSFYW6B","3SBNLSTU6UR0TCQ1NJ03LFGS7YQZDZ","","983.9000000059605","img/animal3.png","75","984.7000000029802","75","1",""
"","html-keyboard-response","87","386824","0.0-87.0","3QHK8ZVMIN4PVA97LONQ7TDITE7LB1","A24MNMHSFYW6B","3SBNLSTU6UR0TCQ1NJ03LFGS7YQZDZ","","null","<img src=""img/animal3.png"" style=""width:200px; border:14px solid green;"">","null","","","",""
"","image-keyboard-response","88","387842","0.0-88.0","3QHK8ZVMIN4PVA97LONQ7TDITE7LB1","A24MNMHSFYW6B","3SBNLSTU6UR0TCQ1NJ03LFGS7YQZDZ","","1016.7999999970198","img/animal4.png","76","1017.6000000089407","76","1",""
"","html-keyboard-response","89","388144","0.0-89.0","3QHK8ZVMIN4PVA97LONQ7TDITE7LB1","A24MNMHSFYW6B","3SBNLSTU6UR0TCQ1NJ03LFGS7YQZDZ","","null","<img src=""img/animal4.png"" style=""width:200px; border:14px solid green;"">","null","","","",""
"","image-keyboard-response","90","389466","0.0-90.0","3QHK8ZVMIN4PVA97LONQ7TDITE7LB1","A24MNMHSFYW6B","3SBNLSTU6UR0TCQ1NJ03LFGS7YQZDZ","","1321.5999999940395","img/animal2.png","74","1322.2999999970198","74","1",""
"","html-keyboard-response","91","389768","0.0-91.0","3QHK8ZVMIN4PVA97LONQ7TDITE7LB1","A24MNMHSFYW6B","3SBNLSTU6UR0TCQ1NJ03LFGS7YQZDZ","","null","<img src=""img/animal2.png"" style=""width:200px; border:14px solid green;"">","null","","","",""
"","image-keyboard-response","92","390794","0.0-92.0","3QHK8ZVMIN4PVA97LONQ7TDITE7LB1","A24MNMHSFYW6B","3SBNLSTU6UR0TCQ1NJ03LFGS7YQZDZ","","1025.2000000029802","img/animal3.png","75","1026","75","1",""
"","html-keyboard-response","93","391097","0.0-93.0","3QHK8ZVMIN4PVA97LONQ7TDITE7LB1","A24MNMHSFYW6B","3SBNLSTU6UR0TCQ1NJ03LFGS7YQZDZ","","null","<img src=""img/animal3.png"" style=""width:200px; border:14px solid green;"">","null","","","",""
"","image-keyboard-response","94","392081","0.0-94.0","3QHK8ZVMIN4PVA97LONQ7TDITE7LB1","A24MNMHSFYW6B","3SBNLSTU6UR0TCQ1NJ03LFGS7YQZDZ","","983.8999999910593","img/animal4.png","76","984.7000000029802","76","1",""
"","html-keyboard-response","95","392384","0.0-95.0","3QHK8ZVMIN4PVA97LONQ7TDITE7LB1","A24MNMHSFYW6B","3SBNLSTU6UR0TCQ1NJ03LFGS7YQZDZ","","null","<img src=""img/animal4.png"" style=""width:200px; border:14px solid green;"">","null","","","",""
"","image-keyboard-response","96","393449","0.0-96.0","3QHK8ZVMIN4PVA97LONQ7TDITE7LB1","A24MNMHSFYW6B","3SBNLSTU6UR0TCQ1NJ03LFGS7YQZDZ","","1064.3999999910593","img/animal2.png","74","1065.0999999940395","74","1",""
"","html-keyboard-response","97","393752","0.0-97.0","3QHK8ZVMIN4PVA97LONQ7TDITE7LB1","A24MNMHSFYW6B","3SBNLSTU6UR0TCQ1NJ03LFGS7YQZDZ","","null","<img src=""img/animal2.png"" style=""width:200px; border:14px solid green;"">","null","","","",""
"","image-keyboard-response","98","394690","0.0-98.0","3QHK8ZVMIN4PVA97LONQ7TDITE7LB1","A24MNMHSFYW6B","3SBNLSTU6UR0TCQ1NJ03LFGS7YQZDZ","","936.8999999910593","img/animal4.png","76","937.6999999880791","76","1",""
"","html-keyboard-response","99","394992","0.0-99.0","3QHK8ZVMIN4PVA97LONQ7TDITE7LB1","A24MNMHSFYW6B","3SBNLSTU6UR0TCQ1NJ03LFGS7YQZDZ","","null","<img src=""img/animal4.png"" style=""width:200px; border:14px solid green;"">","null","","","",""
"","image-keyboard-response","100","395970","0.0-100.0","3QHK8ZVMIN4PVA97LONQ7TDITE7LB1","A24MNMHSFYW6B","3SBNLSTU6UR0TCQ1NJ03LFGS7YQZDZ","","976.5","img/animal3.png","75","977.5","75","1",""
"","html-keyboard-response","101","396272","0.0-101.0","3QHK8ZVMIN4PVA97LONQ7TDITE7LB1","A24MNMHSFYW6B","3SBNLSTU6UR0TCQ1NJ03LFGS7YQZDZ","","null","<img src=""img/animal3.png"" style=""width:200px; border:14px solid green;"">","null","","","",""
"","image-keyboard-response","102","397209","0.0-102.0","3QHK8ZVMIN4PVA97LONQ7TDITE7LB1","A24MNMHSFYW6B","3SBNLSTU6UR0TCQ1NJ03LFGS7YQZDZ","","936.2000000029802","img/animal3.png","75","937.1000000089407","75","1",""
"","html-keyboard-response","103","397512","0.0-103.0","3QHK8ZVMIN4PVA97LONQ7TDITE7LB1","A24MNMHSFYW6B","3SBNLSTU6UR0TCQ1NJ03LFGS7YQZDZ","","null","<img src=""img/animal3.png"" style=""width:200px; border:14px solid green;"">","null","","","",""
"","image-keyboard-response","104","398386","0.0-104.0","3QHK8ZVMIN4PVA97LONQ7TDITE7LB1","A24MNMHSFYW6B","3SBNLSTU6UR0TCQ1NJ03LFGS7YQZDZ","","873.6000000089407","img/animal4.png","76","874.2000000029802","76","1",""
"","html-keyboard-response","105","398688","0.0-105.0","3QHK8ZVMIN4PVA97LONQ7TDITE7LB1","A24MNMHSFYW6B","3SBNLSTU6UR0TCQ1NJ03LFGS7YQZDZ","","null","<img src=""img/animal4.png"" style=""width:200px; border:14px solid green;"">","null","","","",""
"","image-keyboard-response","106","399697","0.0-106.0","3QHK8ZVMIN4PVA97LONQ7TDITE7LB1","A24MNMHSFYW6B","3SBNLSTU6UR0TCQ1NJ03LFGS7YQZDZ","","1008.3999999910593","img/animal3.png","76","1009.0999999940395","76","1",""
"","html-keyboard-response","107","400000","0.0-107.0","3QHK8ZVMIN4PVA97LONQ7TDITE7LB1","A24MNMHSFYW6B","3SBNLSTU6UR0TCQ1NJ03LFGS7YQZDZ","","null","<img src=""img/animal3.png"" style=""width:200px; border:14px solid green;"">","null","","","",""
"","image-keyboard-response","108","401201","0.0-108.0","3QHK8ZVMIN4PVA97LONQ7TDITE7LB1","A24MNMHSFYW6B","3SBNLSTU6UR0TCQ1NJ03LFGS7YQZDZ","","1200.5999999940395","img/animal2.png","74","1201.3999999910593","74","1",""
"","html-keyboard-response","109","401503","0.0-109.0","3QHK8ZVMIN4PVA97LONQ7TDITE7LB1","A24MNMHSFYW6B","3SBNLSTU6UR0TCQ1NJ03LFGS7YQZDZ","","null","<img src=""img/animal2.png"" style=""width:200px; border:14px solid green;"">","null","","","",""
"","image-keyboard-response","110","402698","0.0-110.0","3QHK8ZVMIN4PVA97LONQ7TDITE7LB1","A24MNMHSFYW6B","3SBNLSTU6UR0TCQ1NJ03LFGS7YQZDZ","","1193.4000000059605","img/animal2.png","74","1194.0999999940395","74","1",""
"","html-keyboard-response","111","403000","0.0-111.0","3QHK8ZVMIN4PVA97LONQ7TDITE7LB1","A24MNMHSFYW6B","3SBNLSTU6UR0TCQ1NJ03LFGS7YQZDZ","","null","<img src=""img/animal2.png"" style=""width:200px; border:14px solid green;"">","null","","","",""
"","image-keyboard-response","112","403921","0.0-112.0","3QHK8ZVMIN4PVA97LONQ7TDITE7LB1","A24MNMHSFYW6B","3SBNLSTU6UR0TCQ1NJ03LFGS7YQZDZ","","920.7000000029802","img/animal2.png","74","921.5","74","1",""
"","html-keyboard-response","113","404223","0.0-113.0","3QHK8ZVMIN4PVA97LONQ7TDITE7LB1","A24MNMHSFYW6B","3SBNLSTU6UR0TCQ1NJ03LFGS7YQZDZ","","null","<img src=""img/animal2.png"" style=""width:200px; border:14px solid green;"">","null","","","",""
"","image-keyboard-response","114","405170","0.0-114.0","3QHK8ZVMIN4PVA97LONQ7TDITE7LB1","A24MNMHSFYW6B","3SBNLSTU6UR0TCQ1NJ03LFGS7YQZDZ","","945.2000000029802","img/animal3.png","75","946","75","1",""
"","html-keyboard-response","115","405472","0.0-115.0","3QHK8ZVMIN4PVA97LONQ7TDITE7LB1","A24MNMHSFYW6B","3SBNLSTU6UR0TCQ1NJ03LFGS7YQZDZ","","null","<img src=""img/animal3.png"" style=""width:200px; border:14px solid green;"">","null","","","",""
"","image-keyboard-response","116","406434","0.0-116.0","3QHK8ZVMIN4PVA97LONQ7TDITE7LB1","A24MNMHSFYW6B","3SBNLSTU6UR0TCQ1NJ03LFGS7YQZDZ","","960.7000000029802","img/animal4.png","76","961.3999999910593","76","1",""
"","html-keyboard-response","117","406736","0.0-117.0","3QHK8ZVMIN4PVA97LONQ7TDITE7LB1","A24MNMHSFYW6B","3SBNLSTU6UR0TCQ1NJ03LFGS7YQZDZ","","null","<img src=""img/animal4.png"" style=""width:200px; border:14px solid green;"">","null","","","",""
"","image-keyboard-response","118","407761","0.0-118.0","3QHK8ZVMIN4PVA97LONQ7TDITE7LB1","A24MNMHSFYW6B","3SBNLSTU6UR0TCQ1NJ03LFGS7YQZDZ","","1024.5","img/animal3.png","75","1025.2000000029802","75","1",""
"","html-keyboard-response","119","408063","0.0-119.0","3QHK8ZVMIN4PVA97LONQ7TDITE7LB1","A24MNMHSFYW6B","3SBNLSTU6UR0TCQ1NJ03LFGS7YQZDZ","","null","<img src=""img/animal3.png"" style=""width:200px; border:14px solid green;"">","null","","","",""
"","image-keyboard-response","120","409025","0.0-120.0","3QHK8ZVMIN4PVA97LONQ7TDITE7LB1","A24MNMHSFYW6B","3SBNLSTU6UR0TCQ1NJ03LFGS7YQZDZ","","961.0999999940395","img/animal4.png","76","962","76","1",""
"","html-keyboard-response","121","409328","0.0-121.0","3QHK8ZVMIN4PVA97LONQ7TDITE7LB1","A24MNMHSFYW6B","3SBNLSTU6UR0TCQ1NJ03LFGS7YQZDZ","","null","<img src=""img/animal4.png"" style=""width:200px; border:14px solid green;"">","null","","","",""
"","image-keyboard-response","122","410658","0.0-122.0","3QHK8ZVMIN4PVA97LONQ7TDITE7LB1","A24MNMHSFYW6B","3SBNLSTU6UR0TCQ1NJ03LFGS7YQZDZ","","1328.2000000029802","img/animal2.png","74","1329","74","1",""
"","html-keyboard-response","123","410961","0.0-123.0","3QHK8ZVMIN4PVA97LONQ7TDITE7LB1","A24MNMHSFYW6B","3SBNLSTU6UR0TCQ1NJ03LFGS7YQZDZ","","null","<img src=""img/animal2.png"" style=""width:200px; border:14px solid green;"">","null","","","",""
"","image-keyboard-response","124","411987","0.0-124.0","3QHK8ZVMIN4PVA97LONQ7TDITE7LB1","A24MNMHSFYW6B","3SBNLSTU6UR0TCQ1NJ03LFGS7YQZDZ","","1025.0999999940395","img/animal4.png","76","1026","76","1",""
"","html-keyboard-response","125","412289","0.0-125.0","3QHK8ZVMIN4PVA97LONQ7TDITE7LB1","A24MNMHSFYW6B","3SBNLSTU6UR0TCQ1NJ03LFGS7YQZDZ","","null","<img src=""img/animal4.png"" style=""width:200px; border:14px solid green;"">","null","","","",""
"","image-keyboard-response","126","413563","0.0-126.0","3QHK8ZVMIN4PVA97LONQ7TDITE7LB1","A24MNMHSFYW6B","3SBNLSTU6UR0TCQ1NJ03LFGS7YQZDZ","","1272.4000000059605","img/animal2.png","74","1273.2000000029802","74","1",""
"","html-keyboard-response","127","413865","0.0-127.0","3QHK8ZVMIN4PVA97LONQ7TDITE7LB1","A24MNMHSFYW6B","3SBNLSTU6UR0TCQ1NJ03LFGS7YQZDZ","","null","<img src=""img/animal2.png"" style=""width:200px; border:14px solid green;"">","null","","","",""
"","image-keyboard-response","128","415002","0.0-128.0","3QHK8ZVMIN4PVA97LONQ7TDITE7LB1","A24MNMHSFYW6B","3SBNLSTU6UR0TCQ1NJ03LFGS7YQZDZ","","1136.5999999940395","img/animal4.png","76","1137.4000000059605","76","1",""
"","html-keyboard-response","129","415303","0.0-129.0","3QHK8ZVMIN4PVA97LONQ7TDITE7LB1","A24MNMHSFYW6B","3SBNLSTU6UR0TCQ1NJ03LFGS7YQZDZ","","null","<img src=""img/animal4.png"" style=""width:200px; border:14px solid green;"">","null","","","",""
"","image-keyboard-response","130","416426","0.0-130.0","3QHK8ZVMIN4PVA97LONQ7TDITE7LB1","A24MNMHSFYW6B","3SBNLSTU6UR0TCQ1NJ03LFGS7YQZDZ","","1122.2000000029802","img/animal4.png","76","1123","76","1",""
"","html-keyboard-response","131","416729","0.0-131.0","3QHK8ZVMIN4PVA97LONQ7TDITE7LB1","A24MNMHSFYW6B","3SBNLSTU6UR0TCQ1NJ03LFGS7YQZDZ","","null","<img src=""img/animal4.png"" style=""width:200px; border:14px solid green;"">","null","","","",""
"","image-keyboard-response","132","417722","0.0-132.0","3QHK8ZVMIN4PVA97LONQ7TDITE7LB1","A24MNMHSFYW6B","3SBNLSTU6UR0TCQ1NJ03LFGS7YQZDZ","","992.7000000029802","img/animal3.png","75","993.5","75","1",""
"","html-keyboard-response","133","418024","0.0-133.0","3QHK8ZVMIN4PVA97LONQ7TDITE7LB1","A24MNMHSFYW6B","3SBNLSTU6UR0TCQ1NJ03LFGS7YQZDZ","","null","<img src=""img/animal3.png"" style=""width:200px; border:14px solid green;"">","null","","","",""
"","image-keyboard-response","134","418947","0.0-134.0","3QHK8ZVMIN4PVA97LONQ7TDITE7LB1","A24MNMHSFYW6B","3SBNLSTU6UR0TCQ1NJ03LFGS7YQZDZ","","921.2999999970198","img/animal3.png","75","922.1000000089407","75","1",""
"","html-keyboard-response","135","419249","0.0-135.0","3QHK8ZVMIN4PVA97LONQ7TDITE7LB1","A24MNMHSFYW6B","3SBNLSTU6UR0TCQ1NJ03LFGS7YQZDZ","","null","<img src=""img/animal3.png"" style=""width:200px; border:14px solid green;"">","null","","","",""
"","image-keyboard-response","136","420355","0.0-136.0","3QHK8ZVMIN4PVA97LONQ7TDITE7LB1","A24MNMHSFYW6B","3SBNLSTU6UR0TCQ1NJ03LFGS7YQZDZ","","1104.6000000089407","img/animal2.png","74","1105.4000000059605","74","1",""
"","html-keyboard-response","137","420657","0.0-137.0","3QHK8ZVMIN4PVA97LONQ7TDITE7LB1","A24MNMHSFYW6B","3SBNLSTU6UR0TCQ1NJ03LFGS7YQZDZ","","null","<img src=""img/animal2.png"" style=""width:200px; border:14px solid green;"">","null","","","",""
"","image-keyboard-response","138","421722","0.0-138.0","3QHK8ZVMIN4PVA97LONQ7TDITE7LB1","A24MNMHSFYW6B","3SBNLSTU6UR0TCQ1NJ03LFGS7YQZDZ","","1064.8999999910593","img/animal3.png","75","1065.7000000029802","75","1",""
"","html-keyboard-response","139","422025","0.0-139.0","3QHK8ZVMIN4PVA97LONQ7TDITE7LB1","A24MNMHSFYW6B","3SBNLSTU6UR0TCQ1NJ03LFGS7YQZDZ","","null","<img src=""img/animal3.png"" style=""width:200px; border:14px solid green;"">","null","","","",""
"","image-keyboard-response","140","423098","0.0-140.0","3QHK8ZVMIN4PVA97LONQ7TDITE7LB1","A24MNMHSFYW6B","3SBNLSTU6UR0TCQ1NJ03LFGS7YQZDZ","","1071.8999999910593","img/animal3.png","75","1072.5999999940395","75","1",""
"","html-keyboard-response","141","423401","0.0-141.0","3QHK8ZVMIN4PVA97LONQ7TDITE7LB1","A24MNMHSFYW6B","3SBNLSTU6UR0TCQ1NJ03LFGS7YQZDZ","","null","<img src=""img/animal3.png"" style=""width:200px; border:14px solid green;"">","null","","","",""
"","image-keyboard-response","142","424346","0.0-142.0","3QHK8ZVMIN4PVA97LONQ7TDITE7LB1","A24MNMHSFYW6B","3SBNLSTU6UR0TCQ1NJ03LFGS7YQZDZ","","944.2000000029802","img/animal3.png","75","944.7999999970198","75","1",""
"","html-keyboard-response","143","424648","0.0-143.0","3QHK8ZVMIN4PVA97LONQ7TDITE7LB1","A24MNMHSFYW6B","3SBNLSTU6UR0TCQ1NJ03LFGS7YQZDZ","","null","<img src=""img/animal3.png"" style=""width:200px; border:14px solid green;"">","null","","","",""
"","image-keyboard-response","144","425827","0.0-144.0","3QHK8ZVMIN4PVA97LONQ7TDITE7LB1","A24MNMHSFYW6B","3SBNLSTU6UR0TCQ1NJ03LFGS7YQZDZ","","1177.2999999970198","img/animal2.png","74","1178.1000000089407","74","1",""
"","html-keyboard-response","145","426129","0.0-145.0","3QHK8ZVMIN4PVA97LONQ7TDITE7LB1","A24MNMHSFYW6B","3SBNLSTU6UR0TCQ1NJ03LFGS7YQZDZ","","null","<img src=""img/animal2.png"" style=""width:200px; border:14px solid green;"">","null","","","",""
"","image-keyboard-response","146","427235","0.0-146.0","3QHK8ZVMIN4PVA97LONQ7TDITE7LB1","A24MNMHSFYW6B","3SBNLSTU6UR0TCQ1NJ03LFGS7YQZDZ","","1104.7999999970198","img/animal4.png","76","1105.6000000089407","76","1",""
"","html-keyboard-response","147","427537","0.0-147.0","3QHK8ZVMIN4PVA97LONQ7TDITE7LB1","A24MNMHSFYW6B","3SBNLSTU6UR0TCQ1NJ03LFGS7YQZDZ","","null","<img src=""img/animal4.png"" style=""width:200px; border:14px solid green;"">","null","","","",""
"","image-keyboard-response","148","428666","0.0-148.0","3QHK8ZVMIN4PVA97LONQ7TDITE7LB1","A24MNMHSFYW6B","3SBNLSTU6UR0TCQ1NJ03LFGS7YQZDZ","","1127.7000000029802","img/animal4.png","76","1128.5","76","1",""
"","html-keyboard-response","149","428968","0.0-149.0","3QHK8ZVMIN4PVA97LONQ7TDITE7LB1","A24MNMHSFYW6B","3SBNLSTU6UR0TCQ1NJ03LFGS7YQZDZ","","null","<img src=""img/animal4.png"" style=""width:200px; border:14px solid green;"">","null","","","",""
"","image-keyboard-response","150","430202","0.0-150.0","3QHK8ZVMIN4PVA97LONQ7TDITE7LB1","A24MNMHSFYW6B","3SBNLSTU6UR0TCQ1NJ03LFGS7YQZDZ","","1233.7000000029802","img/animal2.png","74","1234.5","74","1",""
"","html-keyboard-response","151","430504","0.0-151.0","3QHK8ZVMIN4PVA97LONQ7TDITE7LB1","A24MNMHSFYW6B","3SBNLSTU6UR0TCQ1NJ03LFGS7YQZDZ","","null","<img src=""img/animal2.png"" style=""width:200px; border:14px solid green;"">","null","","","",""
"","image-keyboard-response","152","431410","0.0-152.0","3QHK8ZVMIN4PVA97LONQ7TDITE7LB1","A24MNMHSFYW6B","3SBNLSTU6UR0TCQ1NJ03LFGS7YQZDZ","","904.6000000089407","img/animal2.png","74","905.3999999910593","74","1",""
"","html-keyboard-response","153","431712","0.0-153.0","3QHK8ZVMIN4PVA97LONQ7TDITE7LB1","A24MNMHSFYW6B","3SBNLSTU6UR0TCQ1NJ03LFGS7YQZDZ","","null","<img src=""img/animal2.png"" style=""width:200px; border:14px solid green;"">","null","","","",""
"","image-keyboard-response","154","433246","0.0-154.0","3QHK8ZVMIN4PVA97LONQ7TDITE7LB1","A24MNMHSFYW6B","3SBNLSTU6UR0TCQ1NJ03LFGS7YQZDZ","","1532.7000000029802","img/animal4.png","76","1533.4000000059605","76","1",""
"","html-keyboard-response","155","433548","0.0-155.0","3QHK8ZVMIN4PVA97LONQ7TDITE7LB1","A24MNMHSFYW6B","3SBNLSTU6UR0TCQ1NJ03LFGS7YQZDZ","","null","<img src=""img/animal4.png"" style=""width:200px; border:14px solid green;"">","null","","","",""
"","image-keyboard-response","156","434698","0.0-156.0","3QHK8ZVMIN4PVA97LONQ7TDITE7LB1","A24MNMHSFYW6B","3SBNLSTU6UR0TCQ1NJ03LFGS7YQZDZ","","1148.7999999970198","img/animal3.png","75","1149.5999999940395","75","1",""
"","html-keyboard-response","157","435001","0.0-157.0","3QHK8ZVMIN4PVA97LONQ7TDITE7LB1","A24MNMHSFYW6B","3SBNLSTU6UR0TCQ1NJ03LFGS7YQZDZ","","null","<img src=""img/animal3.png"" style=""width:200px; border:14px solid green;"">","null","","","",""
"","image-keyboard-response","158","435890","0.0-158.0","3QHK8ZVMIN4PVA97LONQ7TDITE7LB1","A24MNMHSFYW6B","3SBNLSTU6UR0TCQ1NJ03LFGS7YQZDZ","","888.4000000059605","img/animal3.png","75","889","75","1",""
"","html-keyboard-response","159","436193","0.0-159.0","3QHK8ZVMIN4PVA97LONQ7TDITE7LB1","A24MNMHSFYW6B","3SBNLSTU6UR0TCQ1NJ03LFGS7YQZDZ","","null","<img src=""img/animal3.png"" style=""width:200px; border:14px solid green;"">","null","","","",""
"","image-keyboard-response","160","437138","0.0-160.0","3QHK8ZVMIN4PVA97LONQ7TDITE7LB1","A24MNMHSFYW6B","3SBNLSTU6UR0TCQ1NJ03LFGS7YQZDZ","","944.5999999940395","img/animal3.png","75","945.6000000089407","75","1",""
"","html-keyboard-response","161","437440","0.0-161.0","3QHK8ZVMIN4PVA97LONQ7TDITE7LB1","A24MNMHSFYW6B","3SBNLSTU6UR0TCQ1NJ03LFGS7YQZDZ","","null","<img src=""img/animal3.png"" style=""width:200px; border:14px solid green;"">","null","","","",""
"","image-keyboard-response","162","438378","0.0-162.0","3QHK8ZVMIN4PVA97LONQ7TDITE7LB1","A24MNMHSFYW6B","3SBNLSTU6UR0TCQ1NJ03LFGS7YQZDZ","","936.4000000059605","img/animal3.png","75","937.2000000029802","75","1",""
"","html-keyboard-response","163","438680","0.0-163.0","3QHK8ZVMIN4PVA97LONQ7TDITE7LB1","A24MNMHSFYW6B","3SBNLSTU6UR0TCQ1NJ03LFGS7YQZDZ","","null","<img src=""img/animal3.png"" style=""width:200px; border:14px solid green;"">","null","","","",""
"","image-keyboard-response","164","439578","0.0-164.0","3QHK8ZVMIN4PVA97LONQ7TDITE7LB1","A24MNMHSFYW6B","3SBNLSTU6UR0TCQ1NJ03LFGS7YQZDZ","","896.5999999940395","img/animal3.png","75","897.5","75","1",""
"","html-keyboard-response","165","439879","0.0-165.0","3QHK8ZVMIN4PVA97LONQ7TDITE7LB1","A24MNMHSFYW6B","3SBNLSTU6UR0TCQ1NJ03LFGS7YQZDZ","","null","<img src=""img/animal3.png"" style=""width:200px; border:14px solid green;"">","null","","","",""
"","image-keyboard-response","166","440777","0.0-166.0","3QHK8ZVMIN4PVA97LONQ7TDITE7LB1","A24MNMHSFYW6B","3SBNLSTU6UR0TCQ1NJ03LFGS7YQZDZ","","896.8999999910593","img/animal3.png","75","897.7999999970198","75","1",""
"","html-keyboard-response","167","441080","0.0-167.0","3QHK8ZVMIN4PVA97LONQ7TDITE7LB1","A24MNMHSFYW6B","3SBNLSTU6UR0TCQ1NJ03LFGS7YQZDZ","","null","<img src=""img/animal3.png"" style=""width:200px; border:14px solid green;"">","null","","","",""
"","image-keyboard-response","168","442106","0.0-168.0","3QHK8ZVMIN4PVA97LONQ7TDITE7LB1","A24MNMHSFYW6B","3SBNLSTU6UR0TCQ1NJ03LFGS7YQZDZ","","1024.8999999910593","img/animal4.png","76","1025.7999999970198","76","1",""
"","html-keyboard-response","169","442409","0.0-169.0","3QHK8ZVMIN4PVA97LONQ7TDITE7LB1","A24MNMHSFYW6B","3SBNLSTU6UR0TCQ1NJ03LFGS7YQZDZ","","null","<img src=""img/animal4.png"" style=""width:200px; border:14px solid green;"">","null","","","",""
"","image-keyboard-response","170","443354","0.0-170.0","3QHK8ZVMIN4PVA97LONQ7TDITE7LB1","A24MNMHSFYW6B","3SBNLSTU6UR0TCQ1NJ03LFGS7YQZDZ","","944.2999999970198","img/animal4.png","76","945","76","1",""
"","html-keyboard-response","171","443656","0.0-171.0","3QHK8ZVMIN4PVA97LONQ7TDITE7LB1","A24MNMHSFYW6B","3SBNLSTU6UR0TCQ1NJ03LFGS7YQZDZ","","null","<img src=""img/animal4.png"" style=""width:200px; border:14px solid green;"">","null","","","",""
"","image-keyboard-response","172","444674","0.0-172.0","3QHK8ZVMIN4PVA97LONQ7TDITE7LB1","A24MNMHSFYW6B","3SBNLSTU6UR0TCQ1NJ03LFGS7YQZDZ","","1016.5","img/animal2.png","74","1017.2999999970198","74","1",""
"","html-keyboard-response","173","444976","0.0-173.0","3QHK8ZVMIN4PVA97LONQ7TDITE7LB1","A24MNMHSFYW6B","3SBNLSTU6UR0TCQ1NJ03LFGS7YQZDZ","","null","<img src=""img/animal2.png"" style=""width:200px; border:14px solid green;"">","null","","","",""
"","image-keyboard-response","174","446185","0.0-174.0","3QHK8ZVMIN4PVA97LONQ7TDITE7LB1","A24MNMHSFYW6B","3SBNLSTU6UR0TCQ1NJ03LFGS7YQZDZ","","1208.800000011921","img/animal4.png","76","1209.5","76","1",""
"","html-keyboard-response","175","446488","0.0-175.0","3QHK8ZVMIN4PVA97LONQ7TDITE7LB1","A24MNMHSFYW6B","3SBNLSTU6UR0TCQ1NJ03LFGS7YQZDZ","","null","<img src=""img/animal4.png"" style=""width:200px; border:14px solid green;"">","null","","","",""
"","image-keyboard-response","176","448122","0.0-176.0","3QHK8ZVMIN4PVA97LONQ7TDITE7LB1","A24MNMHSFYW6B","3SBNLSTU6UR0TCQ1NJ03LFGS7YQZDZ","","1632.800000011921","img/animal3.png","75","1633.5999999940395","75","1",""
"","html-keyboard-response","177","448425","0.0-177.0","3QHK8ZVMIN4PVA97LONQ7TDITE7LB1","A24MNMHSFYW6B","3SBNLSTU6UR0TCQ1NJ03LFGS7YQZDZ","","null","<img src=""img/animal3.png"" style=""width:200px; border:14px solid green;"">","null","","","",""
"","image-keyboard-response","178","449746","0.0-178.0","3QHK8ZVMIN4PVA97LONQ7TDITE7LB1","A24MNMHSFYW6B","3SBNLSTU6UR0TCQ1NJ03LFGS7YQZDZ","","1319.7000000029802","img/animal4.png","76","1320.5","76","1",""
"","html-keyboard-response","179","450048","0.0-179.0","3QHK8ZVMIN4PVA97LONQ7TDITE7LB1","A24MNMHSFYW6B","3SBNLSTU6UR0TCQ1NJ03LFGS7YQZDZ","","null","<img src=""img/animal4.png"" style=""width:200px; border:14px solid green;"">","null","","","",""
"","image-keyboard-response","180","451210","0.0-180.0","3QHK8ZVMIN4PVA97LONQ7TDITE7LB1","A24MNMHSFYW6B","3SBNLSTU6UR0TCQ1NJ03LFGS7YQZDZ","","1160.5","img/animal4.png","76","1161.3999999910593","76","1",""
"","html-keyboard-response","181","451513","0.0-181.0","3QHK8ZVMIN4PVA97LONQ7TDITE7LB1","A24MNMHSFYW6B","3SBNLSTU6UR0TCQ1NJ03LFGS7YQZDZ","","null","<img src=""img/animal4.png"" style=""width:200px; border:14px solid green;"">","null","","","",""
"","html-keyboard-response","182","457706","0.0-182.0","3QHK8ZVMIN4PVA97LONQ7TDITE7LB1","A24MNMHSFYW6B","3SBNLSTU6UR0TCQ1NJ03LFGS7YQZDZ","","","","","","","",""
"","image-keyboard-response","183","465500","0.0-183.0","3QHK8ZVMIN4PVA97LONQ7TDITE7LB1","A24MNMHSFYW6B","3SBNLSTU6UR0TCQ1NJ03LFGS7YQZDZ","","7792.70000000298","img/animal5.png","76","7793.79999999702","76","0",""
"","html-keyboard-response","184","465802","0.0-184.0","3QHK8ZVMIN4PVA97LONQ7TDITE7LB1","A24MNMHSFYW6B","3SBNLSTU6UR0TCQ1NJ03LFGS7YQZDZ","","null","<img src=""img/animal5.png"" style=""width:200px;border:14px solid red;"">","null","","","",""
"","image-keyboard-response","185","466889","0.0-185.0","3QHK8ZVMIN4PVA97LONQ7TDITE7LB1","A24MNMHSFYW6B","3SBNLSTU6UR0TCQ1NJ03LFGS7YQZDZ","","1086","img/animal1.png","75","1086.9000000059605","75","1",""
"","html-keyboard-response","186","467192","0.0-186.0","3QHK8ZVMIN4PVA97LONQ7TDITE7LB1","A24MNMHSFYW6B","3SBNLSTU6UR0TCQ1NJ03LFGS7YQZDZ","","null","<img src=""img/animal1.png"" style=""width:200px; border:14px solid green;"">","null","","","",""
"","image-keyboard-response","187","468617","0.0-187.0","3QHK8ZVMIN4PVA97LONQ7TDITE7LB1","A24MNMHSFYW6B","3SBNLSTU6UR0TCQ1NJ03LFGS7YQZDZ","","1424.1000000089407","img/animal5.png","74","1425","74","1",""
"","html-keyboard-response","188","468919","0.0-188.0","3QHK8ZVMIN4PVA97LONQ7TDITE7LB1","A24MNMHSFYW6B","3SBNLSTU6UR0TCQ1NJ03LFGS7YQZDZ","","null","<img src=""img/animal5.png"" style=""width:200px; border:14px solid green;"">","null","","","",""
"","image-keyboard-response","189","471563","0.0-189.0","3QHK8ZVMIN4PVA97LONQ7TDITE7LB1","A24MNMHSFYW6B","3SBNLSTU6UR0TCQ1NJ03LFGS7YQZDZ","","2641.2999999970198","img/animal6.png","76","2642.199999988079","76","0",""
"","html-keyboard-response","190","471866","0.0-190.0","3QHK8ZVMIN4PVA97LONQ7TDITE7LB1","A24MNMHSFYW6B","3SBNLSTU6UR0TCQ1NJ03LFGS7YQZDZ","","null","<img src=""img/animal6.png"" style=""width:200px;border:14px solid red;"">","null","","","",""
"","image-keyboard-response","191","473027","0.0-191.0","3QHK8ZVMIN4PVA97LONQ7TDITE7LB1","A24MNMHSFYW6B","3SBNLSTU6UR0TCQ1NJ03LFGS7YQZDZ","","1160","img/animal5.png","74","1160.7999999970198","74","1",""
"","html-keyboard-response","192","473330","0.0-192.0","3QHK8ZVMIN4PVA97LONQ7TDITE7LB1","A24MNMHSFYW6B","3SBNLSTU6UR0TCQ1NJ03LFGS7YQZDZ","","null","<img src=""img/animal5.png"" style=""width:200px; border:14px solid green;"">","null","","","",""
"","image-keyboard-response","193","474483","0.0-193.0","3QHK8ZVMIN4PVA97LONQ7TDITE7LB1","A24MNMHSFYW6B","3SBNLSTU6UR0TCQ1NJ03LFGS7YQZDZ","","1152.4000000059605","img/animal1.png","75","1153.2999999970198","75","1",""
"","html-keyboard-response","194","474785","0.0-194.0","3QHK8ZVMIN4PVA97LONQ7TDITE7LB1","A24MNMHSFYW6B","3SBNLSTU6UR0TCQ1NJ03LFGS7YQZDZ","","null","<img src=""img/animal1.png"" style=""width:200px; border:14px solid green;"">","null","","","",""
"","image-keyboard-response","195","476011","0.0-195.0","3QHK8ZVMIN4PVA97LONQ7TDITE7LB1","A24MNMHSFYW6B","3SBNLSTU6UR0TCQ1NJ03LFGS7YQZDZ","","1225","img/animal6.png","75","1225.7000000029802","75","0",""
"","html-keyboard-response","196","476314","0.0-196.0","3QHK8ZVMIN4PVA97LONQ7TDITE7LB1","A24MNMHSFYW6B","3SBNLSTU6UR0TCQ1NJ03LFGS7YQZDZ","","null","<img src=""img/animal6.png"" style=""width:200px;border:14px solid red;"">","null","","","",""
"","image-keyboard-response","197","477395","0.0-197.0","3QHK8ZVMIN4PVA97LONQ7TDITE7LB1","A24MNMHSFYW6B","3SBNLSTU6UR0TCQ1NJ03LFGS7YQZDZ","","1080.300000011921","img/animal5.png","74","1081.0999999940395","74","1",""
"","html-keyboard-response","198","477697","0.0-198.0","3QHK8ZVMIN4PVA97LONQ7TDITE7LB1","A24MNMHSFYW6B","3SBNLSTU6UR0TCQ1NJ03LFGS7YQZDZ","","null","<img src=""img/animal5.png"" style=""width:200px; border:14px solid green;"">","null","","","",""
"","image-keyboard-response","199","478939","0.0-199.0","3QHK8ZVMIN4PVA97LONQ7TDITE7LB1","A24MNMHSFYW6B","3SBNLSTU6UR0TCQ1NJ03LFGS7YQZDZ","","1240.3999999910593","img/animal1.png","75","1241.2999999970198","75","1",""
"","html-keyboard-response","200","479241","0.0-200.0","3QHK8ZVMIN4PVA97LONQ7TDITE7LB1","A24MNMHSFYW6B","3SBNLSTU6UR0TCQ1NJ03LFGS7YQZDZ","","null","<img src=""img/animal1.png"" style=""width:200px; border:14px solid green;"">","null","","","",""
"","image-keyboard-response","201","480435","0.0-201.0","3QHK8ZVMIN4PVA97LONQ7TDITE7LB1","A24MNMHSFYW6B","3SBNLSTU6UR0TCQ1NJ03LFGS7YQZDZ","","1193.0999999940395","img/animal1.png","75","1193.9000000059605","75","1",""
"","html-keyboard-response","202","480737","0.0-202.0","3QHK8ZVMIN4PVA97LONQ7TDITE7LB1","A24MNMHSFYW6B","3SBNLSTU6UR0TCQ1NJ03LFGS7YQZDZ","","null","<img src=""img/animal1.png"" style=""width:200px; border:14px solid green;"">","null","","","",""
"","image-keyboard-response","203","481682","0.0-203.0","3QHK8ZVMIN4PVA97LONQ7TDITE7LB1","A24MNMHSFYW6B","3SBNLSTU6UR0TCQ1NJ03LFGS7YQZDZ","","944.2999999970198","img/animal1.png","75","945.1000000089407","75","1",""
"","html-keyboard-response","204","481985","0.0-204.0","3QHK8ZVMIN4PVA97LONQ7TDITE7LB1","A24MNMHSFYW6B","3SBNLSTU6UR0TCQ1NJ03LFGS7YQZDZ","","null","<img src=""img/animal1.png"" style=""width:200px; border:14px solid green;"">","null","","","",""
"","image-keyboard-response","205","482947","0.0-205.0","3QHK8ZVMIN4PVA97LONQ7TDITE7LB1","A24MNMHSFYW6B","3SBNLSTU6UR0TCQ1NJ03LFGS7YQZDZ","","961.1000000089407","img/animal6.png","74","962","74","1",""
"","html-keyboard-response","206","483249","0.0-206.0","3QHK8ZVMIN4PVA97LONQ7TDITE7LB1","A24MNMHSFYW6B","3SBNLSTU6UR0TCQ1NJ03LFGS7YQZDZ","","null","<img src=""img/animal6.png"" style=""width:200px; border:14px solid green;"">","null","","","",""
"","image-keyboard-response","207","484427","0.0-207.0","3QHK8ZVMIN4PVA97LONQ7TDITE7LB1","A24MNMHSFYW6B","3SBNLSTU6UR0TCQ1NJ03LFGS7YQZDZ","","1176.199999988079","img/animal5.png","74","1177","74","1",""
"","html-keyboard-response","208","484729","0.0-208.0","3QHK8ZVMIN4PVA97LONQ7TDITE7LB1","A24MNMHSFYW6B","3SBNLSTU6UR0TCQ1NJ03LFGS7YQZDZ","","null","<img src=""img/animal5.png"" style=""width:200px; border:14px solid green;"">","null","","","",""
"","image-keyboard-response","209","486642","0.0-209.0","3QHK8ZVMIN4PVA97LONQ7TDITE7LB1","A24MNMHSFYW6B","3SBNLSTU6UR0TCQ1NJ03LFGS7YQZDZ","","1912.7000000029802","img/animal6.png","74","1913.4000000059605","74","0",""
"","html-keyboard-response","210","486945","0.0-210.0","3QHK8ZVMIN4PVA97LONQ7TDITE7LB1","A24MNMHSFYW6B","3SBNLSTU6UR0TCQ1NJ03LFGS7YQZDZ","","null","<img src=""img/animal6.png"" style=""width:200px;border:14px solid red;"">","null","","","",""
"","image-keyboard-response","211","488242","0.0-211.0","3QHK8ZVMIN4PVA97LONQ7TDITE7LB1","A24MNMHSFYW6B","3SBNLSTU6UR0TCQ1NJ03LFGS7YQZDZ","","1296.2000000029802","img/animal5.png","74","1297.2000000029802","74","1",""
"","html-keyboard-response","212","488545","0.0-212.0","3QHK8ZVMIN4PVA97LONQ7TDITE7LB1","A24MNMHSFYW6B","3SBNLSTU6UR0TCQ1NJ03LFGS7YQZDZ","","null","<img src=""img/animal5.png"" style=""width:200px; border:14px solid green;"">","null","","","",""
"","image-keyboard-response","213","489834","0.0-213.0","3QHK8ZVMIN4PVA97LONQ7TDITE7LB1","A24MNMHSFYW6B","3SBNLSTU6UR0TCQ1NJ03LFGS7YQZDZ","","1288.7999999970198","img/animal1.png","75","1289.7000000029802","75","1",""
"","html-keyboard-response","214","490137","0.0-214.0","3QHK8ZVMIN4PVA97LONQ7TDITE7LB1","A24MNMHSFYW6B","3SBNLSTU6UR0TCQ1NJ03LFGS7YQZDZ","","null","<img src=""img/animal1.png"" style=""width:200px; border:14px solid green;"">","null","","","",""
"","image-keyboard-response","215","491298","0.0-215.0","3QHK8ZVMIN4PVA97LONQ7TDITE7LB1","A24MNMHSFYW6B","3SBNLSTU6UR0TCQ1NJ03LFGS7YQZDZ","","1160.4000000059605","img/animal1.png","75","1161","75","0",""
"","html-keyboard-response","216","491601","0.0-216.0","3QHK8ZVMIN4PVA97LONQ7TDITE7LB1","A24MNMHSFYW6B","3SBNLSTU6UR0TCQ1NJ03LFGS7YQZDZ","","null","<img src=""img/animal1.png"" style=""width:200px;border:14px solid red;"">","null","","","",""
"","image-keyboard-response","217","492714","0.0-217.0","3QHK8ZVMIN4PVA97LONQ7TDITE7LB1","A24MNMHSFYW6B","3SBNLSTU6UR0TCQ1NJ03LFGS7YQZDZ","","1112.2999999970198","img/animal1.png","76","1113.300000011921","76","0",""
"","html-keyboard-response","218","493016","0.0-218.0","3QHK8ZVMIN4PVA97LONQ7TDITE7LB1","A24MNMHSFYW6B","3SBNLSTU6UR0TCQ1NJ03LFGS7YQZDZ","","null","<img src=""img/animal1.png"" style=""width:200px;border:14px solid red;"">","null","","","",""
"","image-keyboard-response","219","494258","0.0-219.0","3QHK8ZVMIN4PVA97LONQ7TDITE7LB1","A24MNMHSFYW6B","3SBNLSTU6UR0TCQ1NJ03LFGS7YQZDZ","","1241.2000000029802","img/animal6.png","76","1242","76","1",""
"","html-keyboard-response","220","494561","0.0-220.0","3QHK8ZVMIN4PVA97LONQ7TDITE7LB1","A24MNMHSFYW6B","3SBNLSTU6UR0TCQ1NJ03LFGS7YQZDZ","","null","<img src=""img/animal6.png"" style=""width:200px; border:14px solid green;"">","null","","","",""
"","image-keyboard-response","221","495570","0.0-221.0","3QHK8ZVMIN4PVA97LONQ7TDITE7LB1","A24MNMHSFYW6B","3SBNLSTU6UR0TCQ1NJ03LFGS7YQZDZ","","1008","img/animal6.png","76","1008.7999999970198","76","1",""
"","html-keyboard-response","222","495872","0.0-222.0","3QHK8ZVMIN4PVA97LONQ7TDITE7LB1","A24MNMHSFYW6B","3SBNLSTU6UR0TCQ1NJ03LFGS7YQZDZ","","null","<img src=""img/animal6.png"" style=""width:200px; border:14px solid green;"">","null","","","",""
"","image-keyboard-response","223","496730","0.0-223.0","3QHK8ZVMIN4PVA97LONQ7TDITE7LB1","A24MNMHSFYW6B","3SBNLSTU6UR0TCQ1NJ03LFGS7YQZDZ","","856.7999999970198","img/animal6.png","76","857.7000000029802","76","1",""
"","html-keyboard-response","224","497033","0.0-224.0","3QHK8ZVMIN4PVA97LONQ7TDITE7LB1","A24MNMHSFYW6B","3SBNLSTU6UR0TCQ1NJ03LFGS7YQZDZ","","null","<img src=""img/animal6.png"" style=""width:200px; border:14px solid green;"">","null","","","",""
"","image-keyboard-response","225","498426","0.0-225.0","3QHK8ZVMIN4PVA97LONQ7TDITE7LB1","A24MNMHSFYW6B","3SBNLSTU6UR0TCQ1NJ03LFGS7YQZDZ","","1392.2000000029802","img/animal1.png","74","1393.0999999940395","74","1",""
"","html-keyboard-response","226","498728","0.0-226.0","3QHK8ZVMIN4PVA97LONQ7TDITE7LB1","A24MNMHSFYW6B","3SBNLSTU6UR0TCQ1NJ03LFGS7YQZDZ","","null","<img src=""img/animal1.png"" style=""width:200px; border:14px solid green;"">","null","","","",""
"","image-keyboard-response","227","499826","0.0-227.0","3QHK8ZVMIN4PVA97LONQ7TDITE7LB1","A24MNMHSFYW6B","3SBNLSTU6UR0TCQ1NJ03LFGS7YQZDZ","","1096.2000000029802","img/animal6.png","76","1096.8999999910593","76","1",""
"","html-keyboard-response","228","500128","0.0-228.0","3QHK8ZVMIN4PVA97LONQ7TDITE7LB1","A24MNMHSFYW6B","3SBNLSTU6UR0TCQ1NJ03LFGS7YQZDZ","","null","<img src=""img/animal6.png"" style=""width:200px; border:14px solid green;"">","null","","","",""
"","image-keyboard-response","229","501098","0.0-229.0","3QHK8ZVMIN4PVA97LONQ7TDITE7LB1","A24MNMHSFYW6B","3SBNLSTU6UR0TCQ1NJ03LFGS7YQZDZ","","968.9000000059605","img/animal1.png","74","969.6999999880791","74","1",""
"","html-keyboard-response","230","501401","0.0-230.0","3QHK8ZVMIN4PVA97LONQ7TDITE7LB1","A24MNMHSFYW6B","3SBNLSTU6UR0TCQ1NJ03LFGS7YQZDZ","","null","<img src=""img/animal1.png"" style=""width:200px; border:14px solid green;"">","null","","","",""
"","image-keyboard-response","231","502682","0.0-231.0","3QHK8ZVMIN4PVA97LONQ7TDITE7LB1","A24MNMHSFYW6B","3SBNLSTU6UR0TCQ1NJ03LFGS7YQZDZ","","1280.7000000029802","img/animal5.png","75","1281.4000000059605","75","1",""
"","html-keyboard-response","232","502984","0.0-232.0","3QHK8ZVMIN4PVA97LONQ7TDITE7LB1","A24MNMHSFYW6B","3SBNLSTU6UR0TCQ1NJ03LFGS7YQZDZ","","null","<img src=""img/animal5.png"" style=""width:200px; border:14px solid green;"">","null","","","",""
"","image-keyboard-response","233","504162","0.0-233.0","3QHK8ZVMIN4PVA97LONQ7TDITE7LB1","A24MNMHSFYW6B","3SBNLSTU6UR0TCQ1NJ03LFGS7YQZDZ","","1177","img/animal1.png","74","1177.9000000059605","74","0",""
"","html-keyboard-response","234","504464","0.0-234.0","3QHK8ZVMIN4PVA97LONQ7TDITE7LB1","A24MNMHSFYW6B","3SBNLSTU6UR0TCQ1NJ03LFGS7YQZDZ","","null","<img src=""img/animal1.png"" style=""width:200px;border:14px solid red;"">","null","","","",""
"","image-keyboard-response","235","505578","0.0-235.0","3QHK8ZVMIN4PVA97LONQ7TDITE7LB1","A24MNMHSFYW6B","3SBNLSTU6UR0TCQ1NJ03LFGS7YQZDZ","","1112.7999999970198","img/animal6.png","76","1113.7999999970198","76","0",""
"","html-keyboard-response","236","505880","0.0-236.0","3QHK8ZVMIN4PVA97LONQ7TDITE7LB1","A24MNMHSFYW6B","3SBNLSTU6UR0TCQ1NJ03LFGS7YQZDZ","","null","<img src=""img/animal6.png"" style=""width:200px;border:14px solid red;"">","null","","","",""
"","image-keyboard-response","237","506866","0.0-237.0","3QHK8ZVMIN4PVA97LONQ7TDITE7LB1","A24MNMHSFYW6B","3SBNLSTU6UR0TCQ1NJ03LFGS7YQZDZ","","984.7999999970198","img/animal1.png","75","985.5999999940395","75","1",""
"","html-keyboard-response","238","507169","0.0-238.0","3QHK8ZVMIN4PVA97LONQ7TDITE7LB1","A24MNMHSFYW6B","3SBNLSTU6UR0TCQ1NJ03LFGS7YQZDZ","","null","<img src=""img/animal1.png"" style=""width:200px; border:14px solid green;"">","null","","","",""
"","image-keyboard-response","239","508258","0.0-239.0","3QHK8ZVMIN4PVA97LONQ7TDITE7LB1","A24MNMHSFYW6B","3SBNLSTU6UR0TCQ1NJ03LFGS7YQZDZ","","1088.4000000059605","img/animal1.png","75","1089.2999999970198","75","1",""
"","html-keyboard-response","240","508560","0.0-240.0","3QHK8ZVMIN4PVA97LONQ7TDITE7LB1","A24MNMHSFYW6B","3SBNLSTU6UR0TCQ1NJ03LFGS7YQZDZ","","null","<img src=""img/animal1.png"" style=""width:200px; border:14px solid green;"">","null","","","",""
"","image-keyboard-response","241","509378","0.0-241.0","3QHK8ZVMIN4PVA97LONQ7TDITE7LB1","A24MNMHSFYW6B","3SBNLSTU6UR0TCQ1NJ03LFGS7YQZDZ","","816.7999999970198","img/animal1.png","75","817.5999999940395","75","1",""
"","html-keyboard-response","242","509680","0.0-242.0","3QHK8ZVMIN4PVA97LONQ7TDITE7LB1","A24MNMHSFYW6B","3SBNLSTU6UR0TCQ1NJ03LFGS7YQZDZ","","null","<img src=""img/animal1.png"" style=""width:200px; border:14px solid green;"">","null","","","",""
"","image-keyboard-response","243","510890","0.0-243.0","3QHK8ZVMIN4PVA97LONQ7TDITE7LB1","A24MNMHSFYW6B","3SBNLSTU6UR0TCQ1NJ03LFGS7YQZDZ","","1208.5999999940395","img/animal5.png","74","1209.5","74","1",""
"","html-keyboard-response","244","511193","0.0-244.0","3QHK8ZVMIN4PVA97LONQ7TDITE7LB1","A24MNMHSFYW6B","3SBNLSTU6UR0TCQ1NJ03LFGS7YQZDZ","","null","<img src=""img/animal5.png"" style=""width:200px; border:14px solid green;"">","null","","","",""
"","image-keyboard-response","245","512610","0.0-245.0","3QHK8ZVMIN4PVA97LONQ7TDITE7LB1","A24MNMHSFYW6B","3SBNLSTU6UR0TCQ1NJ03LFGS7YQZDZ","","1415.9000000059605","img/animal6.png","76","1416.7999999970198","76","1",""
"","html-keyboard-response","246","512912","0.0-246.0","3QHK8ZVMIN4PVA97LONQ7TDITE7LB1","A24MNMHSFYW6B","3SBNLSTU6UR0TCQ1NJ03LFGS7YQZDZ","","null","<img src=""img/animal6.png"" style=""width:200px; border:14px solid green;"">","null","","","",""
"","image-keyboard-response","247","514209","0.0-247.0","3QHK8ZVMIN4PVA97LONQ7TDITE7LB1","A24MNMHSFYW6B","3SBNLSTU6UR0TCQ1NJ03LFGS7YQZDZ","","1296.199999988079","img/animal6.png","74","1296.8999999910593","74","0",""
"","html-keyboard-response","248","514512","0.0-248.0","3QHK8ZVMIN4PVA97LONQ7TDITE7LB1","A24MNMHSFYW6B","3SBNLSTU6UR0TCQ1NJ03LFGS7YQZDZ","","null","<img src=""img/animal6.png"" style=""width:200px;border:14px solid red;"">","null","","","",""
"","image-keyboard-response","249","515378","0.0-249.0","3QHK8ZVMIN4PVA97LONQ7TDITE7LB1","A24MNMHSFYW6B","3SBNLSTU6UR0TCQ1NJ03LFGS7YQZDZ","","865","img/animal5.png","75","865.7999999970198","75","1",""
"","html-keyboard-response","250","515680","0.0-250.0","3QHK8ZVMIN4PVA97LONQ7TDITE7LB1","A24MNMHSFYW6B","3SBNLSTU6UR0TCQ1NJ03LFGS7YQZDZ","","null","<img src=""img/animal5.png"" style=""width:200px; border:14px solid green;"">","null","","","",""
"","image-keyboard-response","251","516562","0.0-251.0","3QHK8ZVMIN4PVA97LONQ7TDITE7LB1","A24MNMHSFYW6B","3SBNLSTU6UR0TCQ1NJ03LFGS7YQZDZ","","880.0999999940395","img/animal5.png","75","881","75","1",""
"","html-keyboard-response","252","516864","0.0-252.0","3QHK8ZVMIN4PVA97LONQ7TDITE7LB1","A24MNMHSFYW6B","3SBNLSTU6UR0TCQ1NJ03LFGS7YQZDZ","","null","<img src=""img/animal5.png"" style=""width:200px; border:14px solid green;"">","null","","","",""
"","image-keyboard-response","253","517914","0.0-253.0","3QHK8ZVMIN4PVA97LONQ7TDITE7LB1","A24MNMHSFYW6B","3SBNLSTU6UR0TCQ1NJ03LFGS7YQZDZ","","1048.800000011921","img/animal5.png","75","1049.6000000089407","75","1",""
"","html-keyboard-response","254","518217","0.0-254.0","3QHK8ZVMIN4PVA97LONQ7TDITE7LB1","A24MNMHSFYW6B","3SBNLSTU6UR0TCQ1NJ03LFGS7YQZDZ","","null","<img src=""img/animal5.png"" style=""width:200px; border:14px solid green;"">","null","","","",""
"","image-keyboard-response","255","519009","0.0-255.0","3QHK8ZVMIN4PVA97LONQ7TDITE7LB1","A24MNMHSFYW6B","3SBNLSTU6UR0TCQ1NJ03LFGS7YQZDZ","","791.7999999970198","img/animal5.png","75","792.6000000089407","75","0",""
"","html-keyboard-response","256","519311","0.0-256.0","3QHK8ZVMIN4PVA97LONQ7TDITE7LB1","A24MNMHSFYW6B","3SBNLSTU6UR0TCQ1NJ03LFGS7YQZDZ","","null","<img src=""img/animal5.png"" style=""width:200px;border:14px solid red;"">","null","","","",""
"","image-keyboard-response","257","520049","0.0-257.0","3QHK8ZVMIN4PVA97LONQ7TDITE7LB1","A24MNMHSFYW6B","3SBNLSTU6UR0TCQ1NJ03LFGS7YQZDZ","","736","img/animal5.png","74","737.6000000089407","74","1",""
"","html-keyboard-response","258","520351","0.0-258.0","3QHK8ZVMIN4PVA97LONQ7TDITE7LB1","A24MNMHSFYW6B","3SBNLSTU6UR0TCQ1NJ03LFGS7YQZDZ","","null","<img src=""img/animal5.png"" style=""width:200px; border:14px solid green;"">","null","","","",""
"","image-keyboard-response","259","521377","0.0-259.0","3QHK8ZVMIN4PVA97LONQ7TDITE7LB1","A24MNMHSFYW6B","3SBNLSTU6UR0TCQ1NJ03LFGS7YQZDZ","","1025.5","img/animal6.png","74","1026.5","74","1",""
"","html-keyboard-response","260","521680","0.0-260.0","3QHK8ZVMIN4PVA97LONQ7TDITE7LB1","A24MNMHSFYW6B","3SBNLSTU6UR0TCQ1NJ03LFGS7YQZDZ","","null","<img src=""img/animal6.png"" style=""width:200px; border:14px solid green;"">","null","","","",""
"","image-keyboard-response","261","522425","0.0-261.0","3QHK8ZVMIN4PVA97LONQ7TDITE7LB1","A24MNMHSFYW6B","3SBNLSTU6UR0TCQ1NJ03LFGS7YQZDZ","","744.3000000119209","img/animal6.png","74","745.2000000029802","74","1",""
"","html-keyboard-response","262","522727","0.0-262.0","3QHK8ZVMIN4PVA97LONQ7TDITE7LB1","A24MNMHSFYW6B","3SBNLSTU6UR0TCQ1NJ03LFGS7YQZDZ","","null","<img src=""img/animal6.png"" style=""width:200px; border:14px solid green;"">","null","","","",""
"","image-keyboard-response","263","523498","0.0-263.0","3QHK8ZVMIN4PVA97LONQ7TDITE7LB1","A24MNMHSFYW6B","3SBNLSTU6UR0TCQ1NJ03LFGS7YQZDZ","","769.5","img/animal5.png","76","770.2000000029802","76","0",""
"","html-keyboard-response","264","523800","0.0-264.0","3QHK8ZVMIN4PVA97LONQ7TDITE7LB1","A24MNMHSFYW6B","3SBNLSTU6UR0TCQ1NJ03LFGS7YQZDZ","","null","<img src=""img/animal5.png"" style=""width:200px;border:14px solid red;"">","null","","","",""
"","image-keyboard-response","265","524505","0.0-265.0","3QHK8ZVMIN4PVA97LONQ7TDITE7LB1","A24MNMHSFYW6B","3SBNLSTU6UR0TCQ1NJ03LFGS7YQZDZ","","704.5999999940395","img/animal6.png","75","705.3999999910593","75","0",""
"","html-keyboard-response","266","524808","0.0-266.0","3QHK8ZVMIN4PVA97LONQ7TDITE7LB1","A24MNMHSFYW6B","3SBNLSTU6UR0TCQ1NJ03LFGS7YQZDZ","","null","<img src=""img/animal6.png"" style=""width:200px;border:14px solid red;"">","null","","","",""
"","image-keyboard-response","267","524826","0.0-267.0","3QHK8ZVMIN4PVA97LONQ7TDITE7LB1","A24MNMHSFYW6B","3SBNLSTU6UR0TCQ1NJ03LFGS7YQZDZ","","17","img/animal5.png","74","17.900000005960464","74","0",""
"","html-keyboard-response","268","525128","0.0-268.0","3QHK8ZVMIN4PVA97LONQ7TDITE7LB1","A24MNMHSFYW6B","3SBNLSTU6UR0TCQ1NJ03LFGS7YQZDZ","","null","<img src=""img/animal5.png"" style=""width:200px;border:14px solid red;"">","null","","","",""
"","image-keyboard-response","269","525881","0.0-269.0","3QHK8ZVMIN4PVA97LONQ7TDITE7LB1","A24MNMHSFYW6B","3SBNLSTU6UR0TCQ1NJ03LFGS7YQZDZ","","751.5","img/animal5.png","76","752.3999999910593","76","0",""
"","html-keyboard-response","270","526183","0.0-270.0","3QHK8ZVMIN4PVA97LONQ7TDITE7LB1","A24MNMHSFYW6B","3SBNLSTU6UR0TCQ1NJ03LFGS7YQZDZ","","null","<img src=""img/animal5.png"" style=""width:200px;border:14px solid red;"">","null","","","",""
"","image-keyboard-response","271","526857","0.0-271.0","3QHK8ZVMIN4PVA97LONQ7TDITE7LB1","A24MNMHSFYW6B","3SBNLSTU6UR0TCQ1NJ03LFGS7YQZDZ","","673.1000000089407","img/animal1.png","75","673.9000000059605","75","1",""
"","html-keyboard-response","272","527159","0.0-272.0","3QHK8ZVMIN4PVA97LONQ7TDITE7LB1","A24MNMHSFYW6B","3SBNLSTU6UR0TCQ1NJ03LFGS7YQZDZ","","null","<img src=""img/animal1.png"" style=""width:200px; border:14px solid green;"">","null","","","",""
"","image-keyboard-response","273","527897","0.0-273.0","3QHK8ZVMIN4PVA97LONQ7TDITE7LB1","A24MNMHSFYW6B","3SBNLSTU6UR0TCQ1NJ03LFGS7YQZDZ","","737.2000000029802","img/animal5.png","76","738","76","0",""
"","html-keyboard-response","274","528198","0.0-274.0","3QHK8ZVMIN4PVA97LONQ7TDITE7LB1","A24MNMHSFYW6B","3SBNLSTU6UR0TCQ1NJ03LFGS7YQZDZ","","null","<img src=""img/animal5.png"" style=""width:200px;border:14px solid red;"">","null","","","",""
"","image-keyboard-response","275","528953","0.0-275.0","3QHK8ZVMIN4PVA97LONQ7TDITE7LB1","A24MNMHSFYW6B","3SBNLSTU6UR0TCQ1NJ03LFGS7YQZDZ","","753.8000000119209","img/animal1.png","75","754.6999999880791","75","1",""
"","html-keyboard-response","276","529255","0.0-276.0","3QHK8ZVMIN4PVA97LONQ7TDITE7LB1","A24MNMHSFYW6B","3SBNLSTU6UR0TCQ1NJ03LFGS7YQZDZ","","null","<img src=""img/animal1.png"" style=""width:200px; border:14px solid green;"">","null","","","",""
"","image-keyboard-response","277","530049","0.0-277.0","3QHK8ZVMIN4PVA97LONQ7TDITE7LB1","A24MNMHSFYW6B","3SBNLSTU6UR0TCQ1NJ03LFGS7YQZDZ","","792.5","img/animal5.png","76","793.2000000029802","76","0",""
"","html-keyboard-response","278","530351","0.0-278.0","3QHK8ZVMIN4PVA97LONQ7TDITE7LB1","A24MNMHSFYW6B","3SBNLSTU6UR0TCQ1NJ03LFGS7YQZDZ","","null","<img src=""img/animal5.png"" style=""width:200px;border:14px solid red;"">","null","","","",""
"","image-keyboard-response","279","531113","0.0-279.0","3QHK8ZVMIN4PVA97LONQ7TDITE7LB1","A24MNMHSFYW6B","3SBNLSTU6UR0TCQ1NJ03LFGS7YQZDZ","","761.3999999910593","img/animal6.png","76","762.2000000029802","76","1",""
"","html-keyboard-response","280","531415","0.0-280.0","3QHK8ZVMIN4PVA97LONQ7TDITE7LB1","A24MNMHSFYW6B","3SBNLSTU6UR0TCQ1NJ03LFGS7YQZDZ","","null","<img src=""img/animal6.png"" style=""width:200px; border:14px solid green;"">","null","","","",""
"","image-keyboard-response","281","532483","0.0-281.0","3QHK8ZVMIN4PVA97LONQ7TDITE7LB1","A24MNMHSFYW6B","3SBNLSTU6UR0TCQ1NJ03LFGS7YQZDZ","","1065","img/animal6.png","76","1065.8999999910593","76","1",""
"","html-keyboard-response","282","532785","0.0-282.0","3QHK8ZVMIN4PVA97LONQ7TDITE7LB1","A24MNMHSFYW6B","3SBNLSTU6UR0TCQ1NJ03LFGS7YQZDZ","","null","<img src=""img/animal6.png"" style=""width:200px; border:14px solid green;"">","null","","","",""
"","image-keyboard-response","283","533563","0.0-283.0","3QHK8ZVMIN4PVA97LONQ7TDITE7LB1","A24MNMHSFYW6B","3SBNLSTU6UR0TCQ1NJ03LFGS7YQZDZ","","776.2999999970198","img/animal6.png","76","777.2000000029802","76","0",""
"","html-keyboard-response","284","533865","0.0-284.0","3QHK8ZVMIN4PVA97LONQ7TDITE7LB1","A24MNMHSFYW6B","3SBNLSTU6UR0TCQ1NJ03LFGS7YQZDZ","","null","<img src=""img/animal6.png"" style=""width:200px;border:14px solid red;"">","null","","","",""
"","image-keyboard-response","285","534762","0.0-285.0","3QHK8ZVMIN4PVA97LONQ7TDITE7LB1","A24MNMHSFYW6B","3SBNLSTU6UR0TCQ1NJ03LFGS7YQZDZ","","896.5","img/animal5.png","74","897.2999999970198","74","1",""
"","html-keyboard-response","286","535065","0.0-286.0","3QHK8ZVMIN4PVA97LONQ7TDITE7LB1","A24MNMHSFYW6B","3SBNLSTU6UR0TCQ1NJ03LFGS7YQZDZ","","null","<img src=""img/animal5.png"" style=""width:200px; border:14px solid green;"">","null","","","",""
"","image-keyboard-response","287","535898","0.0-287.0","3QHK8ZVMIN4PVA97LONQ7TDITE7LB1","A24MNMHSFYW6B","3SBNLSTU6UR0TCQ1NJ03LFGS7YQZDZ","","832.2999999970198","img/animal6.png","76","833.2000000029802","76","1",""
"","html-keyboard-response","288","536200","0.0-288.0","3QHK8ZVMIN4PVA97LONQ7TDITE7LB1","A24MNMHSFYW6B","3SBNLSTU6UR0TCQ1NJ03LFGS7YQZDZ","","null","<img src=""img/animal6.png"" style=""width:200px; border:14px solid green;"">","null","","","",""
"","image-keyboard-response","289","537076","0.0-289.0","3QHK8ZVMIN4PVA97LONQ7TDITE7LB1","A24MNMHSFYW6B","3SBNLSTU6UR0TCQ1NJ03LFGS7YQZDZ","","874.5","img/animal6.png","75","875.1999999880791","75","0",""
"","html-keyboard-response","290","537378","0.0-290.0","3QHK8ZVMIN4PVA97LONQ7TDITE7LB1","A24MNMHSFYW6B","3SBNLSTU6UR0TCQ1NJ03LFGS7YQZDZ","","null","<img src=""img/animal6.png"" style=""width:200px;border:14px solid red;"">","null","","","",""
"","image-keyboard-response","291","538290","0.0-291.0","3QHK8ZVMIN4PVA97LONQ7TDITE7LB1","A24MNMHSFYW6B","3SBNLSTU6UR0TCQ1NJ03LFGS7YQZDZ","","911.1000000089407","img/animal1.png","74","912","74","1",""
"","html-keyboard-response","292","538592","0.0-292.0","3QHK8ZVMIN4PVA97LONQ7TDITE7LB1","A24MNMHSFYW6B","3SBNLSTU6UR0TCQ1NJ03LFGS7YQZDZ","","null","<img src=""img/animal1.png"" style=""width:200px; border:14px solid green;"">","null","","","",""
"","image-keyboard-response","293","539402","0.0-293.0","3QHK8ZVMIN4PVA97LONQ7TDITE7LB1","A24MNMHSFYW6B","3SBNLSTU6UR0TCQ1NJ03LFGS7YQZDZ","","809","img/animal1.png","76","809.7999999970198","76","0",""
"","html-keyboard-response","294","539705","0.0-294.0","3QHK8ZVMIN4PVA97LONQ7TDITE7LB1","A24MNMHSFYW6B","3SBNLSTU6UR0TCQ1NJ03LFGS7YQZDZ","","null","<img src=""img/animal1.png"" style=""width:200px;border:14px solid red;"">","null","","","",""
"","image-keyboard-response","295","540506","0.0-295.0","3QHK8ZVMIN4PVA97LONQ7TDITE7LB1","A24MNMHSFYW6B","3SBNLSTU6UR0TCQ1NJ03LFGS7YQZDZ","","799.7999999970198","img/animal1.png","74","800.7000000029802","74","1",""
"","html-keyboard-response","296","540809","0.0-296.0","3QHK8ZVMIN4PVA97LONQ7TDITE7LB1","A24MNMHSFYW6B","3SBNLSTU6UR0TCQ1NJ03LFGS7YQZDZ","","null","<img src=""img/animal1.png"" style=""width:200px; border:14px solid green;"">","null","","","",""
"","image-keyboard-response","297","544002","0.0-297.0","3QHK8ZVMIN4PVA97LONQ7TDITE7LB1","A24MNMHSFYW6B","3SBNLSTU6UR0TCQ1NJ03LFGS7YQZDZ","","3192.5","img/animal6.png","74","3193.3999999910593","74","1",""
"","html-keyboard-response","298","544305","0.0-298.0","3QHK8ZVMIN4PVA97LONQ7TDITE7LB1","A24MNMHSFYW6B","3SBNLSTU6UR0TCQ1NJ03LFGS7YQZDZ","","null","<img src=""img/animal6.png"" style=""width:200px; border:14px solid green;"">","null","","","",""
"","image-keyboard-response","299","545362","0.0-299.0","3QHK8ZVMIN4PVA97LONQ7TDITE7LB1","A24MNMHSFYW6B","3SBNLSTU6UR0TCQ1NJ03LFGS7YQZDZ","","1056.3999999910593","img/animal1.png","75","1057.2000000029802","75","1",""
"","html-keyboard-response","300","545664","0.0-300.0","3QHK8ZVMIN4PVA97LONQ7TDITE7LB1","A24MNMHSFYW6B","3SBNLSTU6UR0TCQ1NJ03LFGS7YQZDZ","","null","<img src=""img/animal1.png"" style=""width:200px; border:14px solid green;"">","null","","","",""
"","image-keyboard-response","301","546514","0.0-301.0","3QHK8ZVMIN4PVA97LONQ7TDITE7LB1","A24MNMHSFYW6B","3SBNLSTU6UR0TCQ1NJ03LFGS7YQZDZ","","849.0999999940395","img/animal1.png","75","849.7999999970198","75","1",""
"","html-keyboard-response","302","546817","0.0-302.0","3QHK8ZVMIN4PVA97LONQ7TDITE7LB1","A24MNMHSFYW6B","3SBNLSTU6UR0TCQ1NJ03LFGS7YQZDZ","","null","<img src=""img/animal1.png"" style=""width:200px; border:14px solid green;"">","null","","","",""
"","image-keyboard-response","303","547794","0.0-303.0","3QHK8ZVMIN4PVA97LONQ7TDITE7LB1","A24MNMHSFYW6B","3SBNLSTU6UR0TCQ1NJ03LFGS7YQZDZ","","976","img/animal6.png","74","976.7999999970198","74","1",""
"","html-keyboard-response","304","548096","0.0-304.0","3QHK8ZVMIN4PVA97LONQ7TDITE7LB1","A24MNMHSFYW6B","3SBNLSTU6UR0TCQ1NJ03LFGS7YQZDZ","","null","<img src=""img/animal6.png"" style=""width:200px; border:14px solid green;"">","null","","","",""
"","image-keyboard-response","305","548914","0.0-305.0","3QHK8ZVMIN4PVA97LONQ7TDITE7LB1","A24MNMHSFYW6B","3SBNLSTU6UR0TCQ1NJ03LFGS7YQZDZ","","816.5","img/animal6.png","74","817.3000000119209","74","1",""
"","html-keyboard-response","306","549216","0.0-306.0","3QHK8ZVMIN4PVA97LONQ7TDITE7LB1","A24MNMHSFYW6B","3SBNLSTU6UR0TCQ1NJ03LFGS7YQZDZ","","null","<img src=""img/animal6.png"" style=""width:200px; border:14px solid green;"">","null","","","",""
"","image-keyboard-response","307","550081","0.0-307.0","3QHK8ZVMIN4PVA97LONQ7TDITE7LB1","A24MNMHSFYW6B","3SBNLSTU6UR0TCQ1NJ03LFGS7YQZDZ","","864.3999999910593","img/animal1.png","75","865.3999999910593","75","1",""
"","html-keyboard-response","308","550384","0.0-308.0","3QHK8ZVMIN4PVA97LONQ7TDITE7LB1","A24MNMHSFYW6B","3SBNLSTU6UR0TCQ1NJ03LFGS7YQZDZ","","null","<img src=""img/animal1.png"" style=""width:200px; border:14px solid green;"">","null","","","",""
"","image-keyboard-response","309","551218","0.0-309.0","3QHK8ZVMIN4PVA97LONQ7TDITE7LB1","A24MNMHSFYW6B","3SBNLSTU6UR0TCQ1NJ03LFGS7YQZDZ","","833.0999999940395","img/animal6.png","74","834.1000000089407","74","1",""
"","html-keyboard-response","310","551520","0.0-310.0","3QHK8ZVMIN4PVA97LONQ7TDITE7LB1","A24MNMHSFYW6B","3SBNLSTU6UR0TCQ1NJ03LFGS7YQZDZ","","null","<img src=""img/animal6.png"" style=""width:200px; border:14px solid green;"">","null","","","",""
"","image-keyboard-response","311","552346","0.0-311.0","3QHK8ZVMIN4PVA97LONQ7TDITE7LB1","A24MNMHSFYW6B","3SBNLSTU6UR0TCQ1NJ03LFGS7YQZDZ","","824.7999999970198","img/animal6.png","74","825.5999999940395","74","1",""
"","html-keyboard-response","312","552649","0.0-312.0","3QHK8ZVMIN4PVA97LONQ7TDITE7LB1","A24MNMHSFYW6B","3SBNLSTU6UR0TCQ1NJ03LFGS7YQZDZ","","null","<img src=""img/animal6.png"" style=""width:200px; border:14px solid green;"">","null","","","",""
"","image-keyboard-response","313","554074","0.0-313.0","3QHK8ZVMIN4PVA97LONQ7TDITE7LB1","A24MNMHSFYW6B","3SBNLSTU6UR0TCQ1NJ03LFGS7YQZDZ","","1423.7999999970198","img/animal5.png","74","1424.5999999940395","74","0",""
"","html-keyboard-response","314","554376","0.0-314.0","3QHK8ZVMIN4PVA97LONQ7TDITE7LB1","A24MNMHSFYW6B","3SBNLSTU6UR0TCQ1NJ03LFGS7YQZDZ","","null","<img src=""img/animal5.png"" style=""width:200px;border:14px solid red;"">","null","","","",""
"","image-keyboard-response","315","555273","0.0-315.0","3QHK8ZVMIN4PVA97LONQ7TDITE7LB1","A24MNMHSFYW6B","3SBNLSTU6UR0TCQ1NJ03LFGS7YQZDZ","","896.0999999940395","img/animal5.png","76","896.8000000119209","76","0",""
"","html-keyboard-response","316","555576","0.0-316.0","3QHK8ZVMIN4PVA97LONQ7TDITE7LB1","A24MNMHSFYW6B","3SBNLSTU6UR0TCQ1NJ03LFGS7YQZDZ","","null","<img src=""img/animal5.png"" style=""width:200px;border:14px solid red;"">","null","","","",""
"","image-keyboard-response","317","556274","0.0-317.0","3QHK8ZVMIN4PVA97LONQ7TDITE7LB1","A24MNMHSFYW6B","3SBNLSTU6UR0TCQ1NJ03LFGS7YQZDZ","","696.6999999880791","img/animal5.png","75","697.5","75","1",""
"","html-keyboard-response","318","556576","0.0-318.0","3QHK8ZVMIN4PVA97LONQ7TDITE7LB1","A24MNMHSFYW6B","3SBNLSTU6UR0TCQ1NJ03LFGS7YQZDZ","","null","<img src=""img/animal5.png"" style=""width:200px; border:14px solid green;"">","null","","","",""
"","image-keyboard-response","319","557426","0.0-319.0","3QHK8ZVMIN4PVA97LONQ7TDITE7LB1","A24MNMHSFYW6B","3SBNLSTU6UR0TCQ1NJ03LFGS7YQZDZ","","849","img/animal5.png","75","849.7999999970198","75","1",""
"","html-keyboard-response","320","557728","0.0-320.0","3QHK8ZVMIN4PVA97LONQ7TDITE7LB1","A24MNMHSFYW6B","3SBNLSTU6UR0TCQ1NJ03LFGS7YQZDZ","","null","<img src=""img/animal5.png"" style=""width:200px; border:14px solid green;"">","null","","","",""
"","image-keyboard-response","321","558777","0.0-321.0","3QHK8ZVMIN4PVA97LONQ7TDITE7LB1","A24MNMHSFYW6B","3SBNLSTU6UR0TCQ1NJ03LFGS7YQZDZ","","1047.9000000059605","img/animal5.png","75","1048.7999999970198","75","0",""
"","html-keyboard-response","322","559080","0.0-322.0","3QHK8ZVMIN4PVA97LONQ7TDITE7LB1","A24MNMHSFYW6B","3SBNLSTU6UR0TCQ1NJ03LFGS7YQZDZ","","null","<img src=""img/animal5.png"" style=""width:200px;border:14px solid red;"">","null","","","",""
"","image-keyboard-response","323","560178","0.0-323.0","3QHK8ZVMIN4PVA97LONQ7TDITE7LB1","A24MNMHSFYW6B","3SBNLSTU6UR0TCQ1NJ03LFGS7YQZDZ","","1096.8999999910593","img/animal6.png","74","1097.800000011921","74","1",""
"","html-keyboard-response","324","560480","0.0-324.0","3QHK8ZVMIN4PVA97LONQ7TDITE7LB1","A24MNMHSFYW6B","3SBNLSTU6UR0TCQ1NJ03LFGS7YQZDZ","","null","<img src=""img/animal6.png"" style=""width:200px; border:14px solid green;"">","null","","","",""
"","image-keyboard-response","325","561369","0.0-325.0","3QHK8ZVMIN4PVA97LONQ7TDITE7LB1","A24MNMHSFYW6B","3SBNLSTU6UR0TCQ1NJ03LFGS7YQZDZ","","887.5","img/animal6.png","74","888.2999999970198","74","1",""
"","html-keyboard-response","326","561671","0.0-326.0","3QHK8ZVMIN4PVA97LONQ7TDITE7LB1","A24MNMHSFYW6B","3SBNLSTU6UR0TCQ1NJ03LFGS7YQZDZ","","null","<img src=""img/animal6.png"" style=""width:200px; border:14px solid green;"">","null","","","",""
"","image-keyboard-response","327","562545","0.0-327.0","3QHK8ZVMIN4PVA97LONQ7TDITE7LB1","A24MNMHSFYW6B","3SBNLSTU6UR0TCQ1NJ03LFGS7YQZDZ","","873.2000000029802","img/animal6.png","74","874.0999999940395","74","1",""
"","html-keyboard-response","328","562848","0.0-328.0","3QHK8ZVMIN4PVA97LONQ7TDITE7LB1","A24MNMHSFYW6B","3SBNLSTU6UR0TCQ1NJ03LFGS7YQZDZ","","null","<img src=""img/animal6.png"" style=""width:200px; border:14px solid green;"">","null","","","",""
"","image-keyboard-response","329","564787","0.0-329.0","3QHK8ZVMIN4PVA97LONQ7TDITE7LB1","A24MNMHSFYW6B","3SBNLSTU6UR0TCQ1NJ03LFGS7YQZDZ","","1938.0999999940395","img/animal5.png","74","1939","74","1",""
"","html-keyboard-response","330","565090","0.0-330.0","3QHK8ZVMIN4PVA97LONQ7TDITE7LB1","A24MNMHSFYW6B","3SBNLSTU6UR0TCQ1NJ03LFGS7YQZDZ","","null","<img src=""img/animal5.png"" style=""width:200px; border:14px solid green;"">","null","","","",""
"","image-keyboard-response","331","566042","0.0-331.0","3QHK8ZVMIN4PVA97LONQ7TDITE7LB1","A24MNMHSFYW6B","3SBNLSTU6UR0TCQ1NJ03LFGS7YQZDZ","","950.5","img/animal1.png","75","951.5","75","1",""
"","html-keyboard-response","332","566344","0.0-332.0","3QHK8ZVMIN4PVA97LONQ7TDITE7LB1","A24MNMHSFYW6B","3SBNLSTU6UR0TCQ1NJ03LFGS7YQZDZ","","null","<img src=""img/animal1.png"" style=""width:200px; border:14px solid green;"">","null","","","",""
"","image-keyboard-response","333","567282","0.0-333.0","3QHK8ZVMIN4PVA97LONQ7TDITE7LB1","A24MNMHSFYW6B","3SBNLSTU6UR0TCQ1NJ03LFGS7YQZDZ","","936.8999999910593","img/animal5.png","74","937.8999999910593","74","1",""
"","html-keyboard-response","334","567584","0.0-334.0","3QHK8ZVMIN4PVA97LONQ7TDITE7LB1","A24MNMHSFYW6B","3SBNLSTU6UR0TCQ1NJ03LFGS7YQZDZ","","null","<img src=""img/animal5.png"" style=""width:200px; border:14px solid green;"">","null","","","",""
"","image-keyboard-response","335","568577","0.0-335.0","3QHK8ZVMIN4PVA97LONQ7TDITE7LB1","A24MNMHSFYW6B","3SBNLSTU6UR0TCQ1NJ03LFGS7YQZDZ","","992.0999999940395","img/animal1.png","75","992.8999999910593","75","0",""
"","html-keyboard-response","336","568880","0.0-336.0","3QHK8ZVMIN4PVA97LONQ7TDITE7LB1","A24MNMHSFYW6B","3SBNLSTU6UR0TCQ1NJ03LFGS7YQZDZ","","null","<img src=""img/animal1.png"" style=""width:200px;border:14px solid red;"">","null","","","",""
"","image-keyboard-response","337","569681","0.0-337.0","3QHK8ZVMIN4PVA97LONQ7TDITE7LB1","A24MNMHSFYW6B","3SBNLSTU6UR0TCQ1NJ03LFGS7YQZDZ","","800.5999999940395","img/animal1.png","74","801.5","74","0",""
"","html-keyboard-response","338","569983","0.0-338.0","3QHK8ZVMIN4PVA97LONQ7TDITE7LB1","A24MNMHSFYW6B","3SBNLSTU6UR0TCQ1NJ03LFGS7YQZDZ","","null","<img src=""img/animal1.png"" style=""width:200px;border:14px solid red;"">","null","","","",""
"","image-keyboard-response","339","571169","0.0-339.0","3QHK8ZVMIN4PVA97LONQ7TDITE7LB1","A24MNMHSFYW6B","3SBNLSTU6UR0TCQ1NJ03LFGS7YQZDZ","","1184.800000011921","img/animal6.png","74","1185.5","74","0",""
"","html-keyboard-response","340","571472","0.0-340.0","3QHK8ZVMIN4PVA97LONQ7TDITE7LB1","A24MNMHSFYW6B","3SBNLSTU6UR0TCQ1NJ03LFGS7YQZDZ","","null","<img src=""img/animal6.png"" style=""width:200px;border:14px solid red;"">","null","","","",""
"","image-keyboard-response","341","572233","0.0-341.0","3QHK8ZVMIN4PVA97LONQ7TDITE7LB1","A24MNMHSFYW6B","3SBNLSTU6UR0TCQ1NJ03LFGS7YQZDZ","","760","img/animal1.png","76","760.8000000119209","76","0",""
"","html-keyboard-response","342","572536","0.0-342.0","3QHK8ZVMIN4PVA97LONQ7TDITE7LB1","A24MNMHSFYW6B","3SBNLSTU6UR0TCQ1NJ03LFGS7YQZDZ","","null","<img src=""img/animal1.png"" style=""width:200px;border:14px solid red;"">","null","","","",""
"","image-keyboard-response","343","573161","0.0-343.0","3QHK8ZVMIN4PVA97LONQ7TDITE7LB1","A24MNMHSFYW6B","3SBNLSTU6UR0TCQ1NJ03LFGS7YQZDZ","","625","img/animal6.png","75","625.7999999970198","75","0",""
"","html-keyboard-response","344","573464","0.0-344.0","3QHK8ZVMIN4PVA97LONQ7TDITE7LB1","A24MNMHSFYW6B","3SBNLSTU6UR0TCQ1NJ03LFGS7YQZDZ","","null","<img src=""img/animal6.png"" style=""width:200px;border:14px solid red;"">","null","","","",""
"","image-keyboard-response","345","574137","0.0-345.0","3QHK8ZVMIN4PVA97LONQ7TDITE7LB1","A24MNMHSFYW6B","3SBNLSTU6UR0TCQ1NJ03LFGS7YQZDZ","","671.6000000089407","img/animal6.png","74","672.4000000059605","74","1",""
"","html-keyboard-response","346","574439","0.0-346.0","3QHK8ZVMIN4PVA97LONQ7TDITE7LB1","A24MNMHSFYW6B","3SBNLSTU6UR0TCQ1NJ03LFGS7YQZDZ","","null","<img src=""img/animal6.png"" style=""width:200px; border:14px solid green;"">","null","","","",""
"","image-keyboard-response","347","575353","0.0-347.0","3QHK8ZVMIN4PVA97LONQ7TDITE7LB1","A24MNMHSFYW6B","3SBNLSTU6UR0TCQ1NJ03LFGS7YQZDZ","","913.1000000089407","img/animal1.png","74","913.8999999910593","74","1",""
"","html-keyboard-response","348","575656","0.0-348.0","3QHK8ZVMIN4PVA97LONQ7TDITE7LB1","A24MNMHSFYW6B","3SBNLSTU6UR0TCQ1NJ03LFGS7YQZDZ","","null","<img src=""img/animal1.png"" style=""width:200px; border:14px solid green;"">","null","","","",""
"","image-keyboard-response","349","576723","0.0-349.0","3QHK8ZVMIN4PVA97LONQ7TDITE7LB1","A24MNMHSFYW6B","3SBNLSTU6UR0TCQ1NJ03LFGS7YQZDZ","","1066.2999999970198","img/animal5.png","74","1067","74","1",""
"","html-keyboard-response","350","577025","0.0-350.0","3QHK8ZVMIN4PVA97LONQ7TDITE7LB1","A24MNMHSFYW6B","3SBNLSTU6UR0TCQ1NJ03LFGS7YQZDZ","","null","<img src=""img/animal5.png"" style=""width:200px; border:14px solid green;"">","null","","","",""
"","image-keyboard-response","351","577881","0.0-351.0","3QHK8ZVMIN4PVA97LONQ7TDITE7LB1","A24MNMHSFYW6B","3SBNLSTU6UR0TCQ1NJ03LFGS7YQZDZ","","855.0999999940395","img/animal5.png","74","856.1000000089407","74","1",""
"","html-keyboard-response","352","578184","0.0-352.0","3QHK8ZVMIN4PVA97LONQ7TDITE7LB1","A24MNMHSFYW6B","3SBNLSTU6UR0TCQ1NJ03LFGS7YQZDZ","","null","<img src=""img/animal5.png"" style=""width:200px; border:14px solid green;"">","null","","","",""
"","image-keyboard-response","353","579037","0.0-353.0","3QHK8ZVMIN4PVA97LONQ7TDITE7LB1","A24MNMHSFYW6B","3SBNLSTU6UR0TCQ1NJ03LFGS7YQZDZ","","852.5","img/animal5.png","74","853.2000000029802","74","1",""
"","html-keyboard-response","354","579339","0.0-354.0","3QHK8ZVMIN4PVA97LONQ7TDITE7LB1","A24MNMHSFYW6B","3SBNLSTU6UR0TCQ1NJ03LFGS7YQZDZ","","null","<img src=""img/animal5.png"" style=""width:200px; border:14px solid green;"">","null","","","",""
"","image-keyboard-response","355","580488","0.0-355.0","3QHK8ZVMIN4PVA97LONQ7TDITE7LB1","A24MNMHSFYW6B","3SBNLSTU6UR0TCQ1NJ03LFGS7YQZDZ","","1148","img/animal1.png","75","1148.9000000059605","75","1",""
"","html-keyboard-response","356","580791","0.0-356.0","3QHK8ZVMIN4PVA97LONQ7TDITE7LB1","A24MNMHSFYW6B","3SBNLSTU6UR0TCQ1NJ03LFGS7YQZDZ","","null","<img src=""img/animal1.png"" style=""width:200px; border:14px solid green;"">","null","","","",""
"","image-keyboard-response","357","581697","0.0-357.0","3QHK8ZVMIN4PVA97LONQ7TDITE7LB1","A24MNMHSFYW6B","3SBNLSTU6UR0TCQ1NJ03LFGS7YQZDZ","","905.1000000089407","img/animal5.png","74","906.1000000089407","74","1",""
"","html-keyboard-response","358","582000","0.0-358.0","3QHK8ZVMIN4PVA97LONQ7TDITE7LB1","A24MNMHSFYW6B","3SBNLSTU6UR0TCQ1NJ03LFGS7YQZDZ","","null","<img src=""img/animal5.png"" style=""width:200px; border:14px solid green;"">","null","","","",""
"","image-keyboard-response","359","582889","0.0-359.0","3QHK8ZVMIN4PVA97LONQ7TDITE7LB1","A24MNMHSFYW6B","3SBNLSTU6UR0TCQ1NJ03LFGS7YQZDZ","","888.5","img/animal1.png","74","889.5","74","1",""
"","html-keyboard-response","360","583191","0.0-360.0","3QHK8ZVMIN4PVA97LONQ7TDITE7LB1","A24MNMHSFYW6B","3SBNLSTU6UR0TCQ1NJ03LFGS7YQZDZ","","null","<img src=""img/animal1.png"" style=""width:200px; border:14px solid green;"">","null","","","",""
"","image-keyboard-response","361","584128","0.0-361.0","3QHK8ZVMIN4PVA97LONQ7TDITE7LB1","A24MNMHSFYW6B","3SBNLSTU6UR0TCQ1NJ03LFGS7YQZDZ","","936.4000000059605","img/animal1.png","74","937.1999999880791","74","1",""
"","html-keyboard-response","362","584431","0.0-362.0","3QHK8ZVMIN4PVA97LONQ7TDITE7LB1","A24MNMHSFYW6B","3SBNLSTU6UR0TCQ1NJ03LFGS7YQZDZ","","null","<img src=""img/animal1.png"" style=""width:200px; border:14px solid green;"">","null","","","",""
"","instructions","363","587577","0.0-363.0","3QHK8ZVMIN4PVA97LONQ7TDITE7LB1","A24MNMHSFYW6B","3SBNLSTU6UR0TCQ1NJ03LFGS7YQZDZ","[{""page_index"":0,""viewing_time"":3145.3999999910593}]","3145.5999999940395","","","","","",""
"","survey-text","364","592946","0.0-364.0","3QHK8ZVMIN4PVA97LONQ7TDITE7LB1","A24MNMHSFYW6B","3SBNLSTU6UR0TCQ1NJ03LFGS7YQZDZ","","5365.79999999702","","","","","","{""Q0"":""A24MNMHSFYW6B""}"
