"success","trial_type","trial_index","time_elapsed","internal_node_id","assignmentID","mturkID","hitID","view_history","rt","stimulus","key_press","reactionTime","a","r","s","reward_cond","responses"
"true","fullscreen","0","6069","0.0-0.0","3BQU611VFQ6B6FT1Y764BERX7MX99Y","A25PFSORDO3SWQ","31ANT7FQN8OJYEBE2RCDNWOVYXNH57","","","","","","","","","",""
"","instructions","1","40211","0.0-1.0","3BQU611VFQ6B6FT1Y764BERX7MX99Y","A25PFSORDO3SWQ","31ANT7FQN8OJYEBE2RCDNWOVYXNH57","[{""page_index"":0,""viewing_time"":5205},{""page_index"":1,""viewing_time"":3404},{""page_index"":2,""viewing_time"":4708},{""page_index"":3,""viewing_time"":8120},{""page_index"":4,""viewing_time"":3465},{""page_index"":5,""viewing_time"":2767},{""page_index"":6,""viewing_time"":3369},{""page_index"":7,""viewing_time"":3103}]","34142","","","","","","","",""
"","image-keyboard-response","2","41714","0.0-2.0","3BQU611VFQ6B6FT1Y764BERX7MX99Y","A25PFSORDO3SWQ","31ANT7FQN8OJYEBE2RCDNWOVYXNH57","","1502","img/animal2.png","75","1503","2","0","2","1,0.5,0,1,0.5,0,0.5,0,1",""
"","html-keyboard-response","3","42024","0.0-3.0","3BQU611VFQ6B6FT1Y764BERX7MX99Y","A25PFSORDO3SWQ","31ANT7FQN8OJYEBE2RCDNWOVYXNH57","","null","<img src=""img/animal2.png"" style=""width:200px;border:14px solid red;"">","null","","","","","",""
"","image-keyboard-response","4","42692","0.0-4.0","3BQU611VFQ6B6FT1Y764BERX7MX99Y","A25PFSORDO3SWQ","31ANT7FQN8OJYEBE2RCDNWOVYXNH57","","666","img/animal2.png","76","668","3","0","2","1,0.5,0,1,0.5,0,0.5,0,1",""
"","html-keyboard-response","5","43005","0.0-5.0","3BQU611VFQ6B6FT1Y764BERX7MX99Y","A25PFSORDO3SWQ","31ANT7FQN8OJYEBE2RCDNWOVYXNH57","","null","<img src=""img/animal2.png"" style=""width:200px;border:14px solid red;"">","null","","","","","",""
"","image-keyboard-response","6","44075","0.0-6.0","3BQU611VFQ6B6FT1Y764BERX7MX99Y","A25PFSORDO3SWQ","31ANT7FQN8OJYEBE2RCDNWOVYXNH57","","1068","img/animal4.png","75","1068","2","1","1","1,0.5,0,1,0.5,0,0.5,0,1",""
"","html-keyboard-response","7","44379","0.0-7.0","3BQU611VFQ6B6FT1Y764BERX7MX99Y","A25PFSORDO3SWQ","31ANT7FQN8OJYEBE2RCDNWOVYXNH57","","null","<img src=""img/animal4.png"" style=""width:200px; border:14px solid green;"">","null","","","","","",""
"","image-keyboard-response","8","45315","0.0-8.0","3BQU611VFQ6B6FT1Y764BERX7MX99Y","A25PFSORDO3SWQ","31ANT7FQN8OJYEBE2RCDNWOVYXNH57","","935","img/animal6.png","74","936","1","1","3","1,0.5,0,1,0.5,0,0.5,0,1",""
"","html-keyboard-response","9","45625","0.0-9.0","3BQU611VFQ6B6FT1Y764BERX7MX99Y","A25PFSORDO3SWQ","31ANT7FQN8OJYEBE2RCDNWOVYXNH57","","null","<img src=""img/animal6.png"" style=""width:200px; border:14px solid green;"">","null","","","","","",""
"","image-keyboard-response","10","46372","0.0-10.0","3BQU611VFQ6B6FT1Y764BERX7MX99Y","A25PFSORDO3SWQ","31ANT7FQN8OJYEBE2RCDNWOVYXNH57","","745","img/animal4.png","75","746","2","0","1","1,0.5,0,1,0.5,0,0.5,0,1",""
"","html-keyboard-response","11","46687","0.0-11.0","3BQU611VFQ6B6FT1Y764BERX7MX99Y","A25PFSORDO3SWQ","31ANT7FQN8OJYEBE2RCDNWOVYXNH57","","null","<img src=""img/animal4.png"" style=""width:200px;border:14px solid red;"">","null","","","","","",""
"","image-keyboard-response","12","47956","0.0-12.0","3BQU611VFQ6B6FT1Y764BERX7MX99Y","A25PFSORDO3SWQ","31ANT7FQN8OJYEBE2RCDNWOVYXNH57","","1269","img/animal6.png","74","1269","1","0","3","1,0.5,0,1,0.5,0,0.5,0,1",""
"","html-keyboard-response","13","48263","0.0-13.0","3BQU611VFQ6B6FT1Y764BERX7MX99Y","A25PFSORDO3SWQ","31ANT7FQN8OJYEBE2RCDNWOVYXNH57","","null","<img src=""img/animal6.png"" style=""width:200px;border:14px solid red;"">","null","","","","","",""
"","image-keyboard-response","14","49097","0.0-14.0","3BQU611VFQ6B6FT1Y764BERX7MX99Y","A25PFSORDO3SWQ","31ANT7FQN8OJYEBE2RCDNWOVYXNH57","","832","img/animal4.png","75","834","2","1","1","1,0.5,0,1,0.5,0,0.5,0,1",""
"","html-keyboard-response","15","49406","0.0-15.0","3BQU611VFQ6B6FT1Y764BERX7MX99Y","A25PFSORDO3SWQ","31ANT7FQN8OJYEBE2RCDNWOVYXNH57","","null","<img src=""img/animal4.png"" style=""width:200px; border:14px solid green;"">","null","","","","","",""
"","image-keyboard-response","16","50052","0.0-16.0","3BQU611VFQ6B6FT1Y764BERX7MX99Y","A25PFSORDO3SWQ","31ANT7FQN8OJYEBE2RCDNWOVYXNH57","","645","img/animal6.png","74","646","1","0","3","1,0.5,0,1,0.5,0,0.5,0,1",""
"","html-keyboard-response","17","50365","0.0-17.0","3BQU611VFQ6B6FT1Y764BERX7MX99Y","A25PFSORDO3SWQ","31ANT7FQN8OJYEBE2RCDNWOVYXNH57","","null","<img src=""img/animal6.png"" style=""width:200px;border:14px solid red;"">","null","","","","","",""
"","image-keyboard-response","18","51496","0.0-18.0","3BQU611VFQ6B6FT1Y764BERX7MX99Y","A25PFSORDO3SWQ","31ANT7FQN8OJYEBE2RCDNWOVYXNH57","","1131","img/animal2.png","76","1131","3","0","2","1,0.5,0,1,0.5,0,0.5,0,1",""
"","html-keyboard-response","19","51810","0.0-19.0","3BQU611VFQ6B6FT1Y764BERX7MX99Y","A25PFSORDO3SWQ","31ANT7FQN8OJYEBE2RCDNWOVYXNH57","","null","<img src=""img/animal2.png"" style=""width:200px;border:14px solid red;"">","null","","","","","",""
"","image-keyboard-response","20","52776","0.0-20.0","3BQU611VFQ6B6FT1Y764BERX7MX99Y","A25PFSORDO3SWQ","31ANT7FQN8OJYEBE2RCDNWOVYXNH57","","967","img/animal4.png","75","967","2","0","1","1,0.5,0,1,0.5,0,0.5,0,1",""
"","html-keyboard-response","21","53087","0.0-21.0","3BQU611VFQ6B6FT1Y764BERX7MX99Y","A25PFSORDO3SWQ","31ANT7FQN8OJYEBE2RCDNWOVYXNH57","","null","<img src=""img/animal4.png"" style=""width:200px;border:14px solid red;"">","null","","","","","",""
"","image-keyboard-response","22","53794","0.0-22.0","3BQU611VFQ6B6FT1Y764BERX7MX99Y","A25PFSORDO3SWQ","31ANT7FQN8OJYEBE2RCDNWOVYXNH57","","704","img/animal2.png","75","706","2","0","2","1,0.5,0,1,0.5,0,0.5,0,1",""
"","html-keyboard-response","23","54095","0.0-23.0","3BQU611VFQ6B6FT1Y764BERX7MX99Y","A25PFSORDO3SWQ","31ANT7FQN8OJYEBE2RCDNWOVYXNH57","","null","<img src=""img/animal2.png"" style=""width:200px;border:14px solid red;"">","null","","","","","",""
"","image-keyboard-response","24","54995","0.0-24.0","3BQU611VFQ6B6FT1Y764BERX7MX99Y","A25PFSORDO3SWQ","31ANT7FQN8OJYEBE2RCDNWOVYXNH57","","898","img/animal4.png","74","899","1","1","1","1,0.5,0,1,0.5,0,0.5,0,1",""
"","html-keyboard-response","25","55312","0.0-25.0","3BQU611VFQ6B6FT1Y764BERX7MX99Y","A25PFSORDO3SWQ","31ANT7FQN8OJYEBE2RCDNWOVYXNH57","","null","<img src=""img/animal4.png"" style=""width:200px; border:14px solid green;"">","null","","","","","",""
"","image-keyboard-response","26","56112","0.0-26.0","3BQU611VFQ6B6FT1Y764BERX7MX99Y","A25PFSORDO3SWQ","31ANT7FQN8OJYEBE2RCDNWOVYXNH57","","799","img/animal6.png","74","800","1","1","3","1,0.5,0,1,0.5,0,0.5,0,1",""
"","html-keyboard-response","27","56427","0.0-27.0","3BQU611VFQ6B6FT1Y764BERX7MX99Y","A25PFSORDO3SWQ","31ANT7FQN8OJYEBE2RCDNWOVYXNH57","","null","<img src=""img/animal6.png"" style=""width:200px; border:14px solid green;"">","null","","","","","",""
"","image-keyboard-response","28","57087","0.0-28.0","3BQU611VFQ6B6FT1Y764BERX7MX99Y","A25PFSORDO3SWQ","31ANT7FQN8OJYEBE2RCDNWOVYXNH57","","660","img/animal6.png","74","661","1","0","3","1,0.5,0,1,0.5,0,0.5,0,1",""
"","html-keyboard-response","29","57401","0.0-29.0","3BQU611VFQ6B6FT1Y764BERX7MX99Y","A25PFSORDO3SWQ","31ANT7FQN8OJYEBE2RCDNWOVYXNH57","","null","<img src=""img/animal6.png"" style=""width:200px;border:14px solid red;"">","null","","","","","",""
"","image-keyboard-response","30","58226","0.0-30.0","3BQU611VFQ6B6FT1Y764BERX7MX99Y","A25PFSORDO3SWQ","31ANT7FQN8OJYEBE2RCDNWOVYXNH57","","824","img/animal6.png","74","824","1","0","3","1,0.5,0,1,0.5,0,0.5,0,1",""
"","html-keyboard-response","31","58531","0.0-31.0","3BQU611VFQ6B6FT1Y764BERX7MX99Y","A25PFSORDO3SWQ","31ANT7FQN8OJYEBE2RCDNWOVYXNH57","","null","<img src=""img/animal6.png"" style=""width:200px;border:14px solid red;"">","null","","","","","",""
"","image-keyboard-response","32","59003","0.0-32.0","3BQU611VFQ6B6FT1Y764BERX7MX99Y","A25PFSORDO3SWQ","31ANT7FQN8OJYEBE2RCDNWOVYXNH57","","471","img/animal6.png","74","472","1","1","3","1,0.5,0,1,0.5,0,0.5,0,1",""
"","html-keyboard-response","33","59315","0.0-33.0","3BQU611VFQ6B6FT1Y764BERX7MX99Y","A25PFSORDO3SWQ","31ANT7FQN8OJYEBE2RCDNWOVYXNH57","","null","<img src=""img/animal6.png"" style=""width:200px; border:14px solid green;"">","null","","","","","",""
"","image-keyboard-response","34","59999","0.0-34.0","3BQU611VFQ6B6FT1Y764BERX7MX99Y","A25PFSORDO3SWQ","31ANT7FQN8OJYEBE2RCDNWOVYXNH57","","683","img/animal2.png","74","684","1","1","2","1,0.5,0,1,0.5,0,0.5,0,1",""
"","html-keyboard-response","35","60313","0.0-35.0","3BQU611VFQ6B6FT1Y764BERX7MX99Y","A25PFSORDO3SWQ","31ANT7FQN8OJYEBE2RCDNWOVYXNH57","","null","<img src=""img/animal2.png"" style=""width:200px; border:14px solid green;"">","null","","","","","",""
"","image-keyboard-response","36","61019","0.0-36.0","3BQU611VFQ6B6FT1Y764BERX7MX99Y","A25PFSORDO3SWQ","31ANT7FQN8OJYEBE2RCDNWOVYXNH57","","705","img/animal6.png","74","706","1","0","3","1,0.5,0,1,0.5,0,0.5,0,1",""
"","html-keyboard-response","37","61328","0.0-37.0","3BQU611VFQ6B6FT1Y764BERX7MX99Y","A25PFSORDO3SWQ","31ANT7FQN8OJYEBE2RCDNWOVYXNH57","","null","<img src=""img/animal6.png"" style=""width:200px;border:14px solid red;"">","null","","","","","",""
"","image-keyboard-response","38","61954","0.0-38.0","3BQU611VFQ6B6FT1Y764BERX7MX99Y","A25PFSORDO3SWQ","31ANT7FQN8OJYEBE2RCDNWOVYXNH57","","625","img/animal2.png","74","625","1","1","2","1,0.5,0,1,0.5,0,0.5,0,1",""
"","html-keyboard-response","39","62267","0.0-39.0","3BQU611VFQ6B6FT1Y764BERX7MX99Y","A25PFSORDO3SWQ","31ANT7FQN8OJYEBE2RCDNWOVYXNH57","","null","<img src=""img/animal2.png"" style=""width:200px; border:14px solid green;"">","null","","","","","",""
"","image-keyboard-response","40","62668","0.0-40.0","3BQU611VFQ6B6FT1Y764BERX7MX99Y","A25PFSORDO3SWQ","31ANT7FQN8OJYEBE2RCDNWOVYXNH57","","401","img/animal2.png","74","401","1","1","2","1,0.5,0,1,0.5,0,0.5,0,1",""
"","html-keyboard-response","41","62972","0.0-41.0","3BQU611VFQ6B6FT1Y764BERX7MX99Y","A25PFSORDO3SWQ","31ANT7FQN8OJYEBE2RCDNWOVYXNH57","","null","<img src=""img/animal2.png"" style=""width:200px; border:14px solid green;"">","null","","","","","",""
"","image-keyboard-response","42","63424","0.0-42.0","3BQU611VFQ6B6FT1Y764BERX7MX99Y","A25PFSORDO3SWQ","31ANT7FQN8OJYEBE2RCDNWOVYXNH57","","451","img/animal6.png","74","452","1","1","3","1,0.5,0,1,0.5,0,0.5,0,1",""
"","html-keyboard-response","43","63737","0.0-43.0","3BQU611VFQ6B6FT1Y764BERX7MX99Y","A25PFSORDO3SWQ","31ANT7FQN8OJYEBE2RCDNWOVYXNH57","","null","<img src=""img/animal6.png"" style=""width:200px; border:14px solid green;"">","null","","","","","",""
"","image-keyboard-response","44","64847","0.0-44.0","3BQU611VFQ6B6FT1Y764BERX7MX99Y","A25PFSORDO3SWQ","31ANT7FQN8OJYEBE2RCDNWOVYXNH57","","1109","img/animal4.png","76","1110","3","0","1","1,0.5,0,1,0.5,0,0.5,0,1",""
"","html-keyboard-response","45","65152","0.0-45.0","3BQU611VFQ6B6FT1Y764BERX7MX99Y","A25PFSORDO3SWQ","31ANT7FQN8OJYEBE2RCDNWOVYXNH57","","null","<img src=""img/animal4.png"" style=""width:200px;border:14px solid red;"">","null","","","","","",""
"","image-keyboard-response","46","65903","0.0-46.0","3BQU611VFQ6B6FT1Y764BERX7MX99Y","A25PFSORDO3SWQ","31ANT7FQN8OJYEBE2RCDNWOVYXNH57","","750","img/animal2.png","74","750","1","1","2","1,0.5,0,1,0.5,0,0.5,0,1",""
"","html-keyboard-response","47","66213","0.0-47.0","3BQU611VFQ6B6FT1Y764BERX7MX99Y","A25PFSORDO3SWQ","31ANT7FQN8OJYEBE2RCDNWOVYXNH57","","null","<img src=""img/animal2.png"" style=""width:200px; border:14px solid green;"">","null","","","","","",""
"","image-keyboard-response","48","67327","0.0-48.0","3BQU611VFQ6B6FT1Y764BERX7MX99Y","A25PFSORDO3SWQ","31ANT7FQN8OJYEBE2RCDNWOVYXNH57","","1111","img/animal4.png","74","1113","1","1","1","1,0.5,0,1,0.5,0,0.5,0,1",""
"","html-keyboard-response","49","67631","0.0-49.0","3BQU611VFQ6B6FT1Y764BERX7MX99Y","A25PFSORDO3SWQ","31ANT7FQN8OJYEBE2RCDNWOVYXNH57","","null","<img src=""img/animal4.png"" style=""width:200px; border:14px solid green;"">","null","","","","","",""
"","image-keyboard-response","50","68222","0.0-50.0","3BQU611VFQ6B6FT1Y764BERX7MX99Y","A25PFSORDO3SWQ","31ANT7FQN8OJYEBE2RCDNWOVYXNH57","","589","img/animal6.png","74","591","1","0","3","1,0.5,0,1,0.5,0,0.5,0,1",""
"","html-keyboard-response","51","68530","0.0-51.0","3BQU611VFQ6B6FT1Y764BERX7MX99Y","A25PFSORDO3SWQ","31ANT7FQN8OJYEBE2RCDNWOVYXNH57","","null","<img src=""img/animal6.png"" style=""width:200px;border:14px solid red;"">","null","","","","","",""
"","image-keyboard-response","52","69159","0.0-52.0","3BQU611VFQ6B6FT1Y764BERX7MX99Y","A25PFSORDO3SWQ","31ANT7FQN8OJYEBE2RCDNWOVYXNH57","","627","img/animal6.png","74","628","1","0","3","1,0.5,0,1,0.5,0,0.5,0,1",""
"","html-keyboard-response","53","69474","0.0-53.0","3BQU611VFQ6B6FT1Y764BERX7MX99Y","A25PFSORDO3SWQ","31ANT7FQN8OJYEBE2RCDNWOVYXNH57","","null","<img src=""img/animal6.png"" style=""width:200px;border:14px solid red;"">","null","","","","","",""
"","image-keyboard-response","54","69994","0.0-54.0","3BQU611VFQ6B6FT1Y764BERX7MX99Y","A25PFSORDO3SWQ","31ANT7FQN8OJYEBE2RCDNWOVYXNH57","","519","img/animal2.png","74","519","1","1","2","1,0.5,0,1,0.5,0,0.5,0,1",""
"","html-keyboard-response","55","70308","0.0-55.0","3BQU611VFQ6B6FT1Y764BERX7MX99Y","A25PFSORDO3SWQ","31ANT7FQN8OJYEBE2RCDNWOVYXNH57","","null","<img src=""img/animal2.png"" style=""width:200px; border:14px solid green;"">","null","","","","","",""
"","image-keyboard-response","56","71296","0.0-56.0","3BQU611VFQ6B6FT1Y764BERX7MX99Y","A25PFSORDO3SWQ","31ANT7FQN8OJYEBE2RCDNWOVYXNH57","","986","img/animal4.png","74","988","1","1","1","1,0.5,0,1,0.5,0,0.5,0,1",""
"","html-keyboard-response","57","71606","0.0-57.0","3BQU611VFQ6B6FT1Y764BERX7MX99Y","A25PFSORDO3SWQ","31ANT7FQN8OJYEBE2RCDNWOVYXNH57","","null","<img src=""img/animal4.png"" style=""width:200px; border:14px solid green;"">","null","","","","","",""
"","image-keyboard-response","58","72130","0.0-58.0","3BQU611VFQ6B6FT1Y764BERX7MX99Y","A25PFSORDO3SWQ","31ANT7FQN8OJYEBE2RCDNWOVYXNH57","","522","img/animal6.png","74","523","1","0","3","1,0.5,0,1,0.5,0,0.5,0,1",""
"","html-keyboard-response","59","72446","0.0-59.0","3BQU611VFQ6B6FT1Y764BERX7MX99Y","A25PFSORDO3SWQ","31ANT7FQN8OJYEBE2RCDNWOVYXNH57","","null","<img src=""img/animal6.png"" style=""width:200px;border:14px solid red;"">","null","","","","","",""
"","image-keyboard-response","60","72926","0.0-60.0","3BQU611VFQ6B6FT1Y764BERX7MX99Y","A25PFSORDO3SWQ","31ANT7FQN8OJYEBE2RCDNWOVYXNH57","","478","img/animal4.png","74","479","1","1","1","1,0.5,0,1,0.5,0,0.5,0,1",""
"","html-keyboard-response","61","73239","0.0-61.0","3BQU611VFQ6B6FT1Y764BERX7MX99Y","A25PFSORDO3SWQ","31ANT7FQN8OJYEBE2RCDNWOVYXNH57","","null","<img src=""img/animal4.png"" style=""width:200px; border:14px solid green;"">","null","","","","","",""
"","image-keyboard-response","62","73621","0.0-62.0","3BQU611VFQ6B6FT1Y764BERX7MX99Y","A25PFSORDO3SWQ","31ANT7FQN8OJYEBE2RCDNWOVYXNH57","","381","img/animal2.png","74","382","1","1","2","1,0.5,0,1,0.5,0,0.5,0,1",""
"","html-keyboard-response","63","73924","0.0-63.0","3BQU611VFQ6B6FT1Y764BERX7MX99Y","A25PFSORDO3SWQ","31ANT7FQN8OJYEBE2RCDNWOVYXNH57","","null","<img src=""img/animal2.png"" style=""width:200px; border:14px solid green;"">","null","","","","","",""
"","image-keyboard-response","64","74414","0.0-64.0","3BQU611VFQ6B6FT1Y764BERX7MX99Y","A25PFSORDO3SWQ","31ANT7FQN8OJYEBE2RCDNWOVYXNH57","","489","img/animal6.png","74","490","1","1","3","1,0.5,0,1,0.5,0,0.5,0,1",""
"","html-keyboard-response","65","74722","0.0-65.0","3BQU611VFQ6B6FT1Y764BERX7MX99Y","A25PFSORDO3SWQ","31ANT7FQN8OJYEBE2RCDNWOVYXNH57","","null","<img src=""img/animal6.png"" style=""width:200px; border:14px solid green;"">","null","","","","","",""
"","image-keyboard-response","66","75107","0.0-66.0","3BQU611VFQ6B6FT1Y764BERX7MX99Y","A25PFSORDO3SWQ","31ANT7FQN8OJYEBE2RCDNWOVYXNH57","","387","img/animal2.png","74","387","1","1","2","1,0.5,0,1,0.5,0,0.5,0,1",""
"","html-keyboard-response","67","75412","0.0-67.0","3BQU611VFQ6B6FT1Y764BERX7MX99Y","A25PFSORDO3SWQ","31ANT7FQN8OJYEBE2RCDNWOVYXNH57","","null","<img src=""img/animal2.png"" style=""width:200px; border:14px solid green;"">","null","","","","","",""
"","image-keyboard-response","68","75720","0.0-68.0","3BQU611VFQ6B6FT1Y764BERX7MX99Y","A25PFSORDO3SWQ","31ANT7FQN8OJYEBE2RCDNWOVYXNH57","","308","img/animal2.png","74","308","1","1","2","1,0.5,0,1,0.5,0,0.5,0,1",""
"","html-keyboard-response","69","76039","0.0-69.0","3BQU611VFQ6B6FT1Y764BERX7MX99Y","A25PFSORDO3SWQ","31ANT7FQN8OJYEBE2RCDNWOVYXNH57","","null","<img src=""img/animal2.png"" style=""width:200px; border:14px solid green;"">","null","","","","","",""
"","image-keyboard-response","70","76333","0.0-70.0","3BQU611VFQ6B6FT1Y764BERX7MX99Y","A25PFSORDO3SWQ","31ANT7FQN8OJYEBE2RCDNWOVYXNH57","","292","img/animal2.png","74","292","1","1","2","1,0.5,0,1,0.5,0,0.5,0,1",""
"","html-keyboard-response","71","76637","0.0-71.0","3BQU611VFQ6B6FT1Y764BERX7MX99Y","A25PFSORDO3SWQ","31ANT7FQN8OJYEBE2RCDNWOVYXNH57","","null","<img src=""img/animal2.png"" style=""width:200px; border:14px solid green;"">","null","","","","","",""
"","image-keyboard-response","72","76987","0.0-72.0","3BQU611VFQ6B6FT1Y764BERX7MX99Y","A25PFSORDO3SWQ","31ANT7FQN8OJYEBE2RCDNWOVYXNH57","","348","img/animal2.png","74","349","1","1","2","1,0.5,0,1,0.5,0,0.5,0,1",""
"","html-keyboard-response","73","77294","0.0-73.0","3BQU611VFQ6B6FT1Y764BERX7MX99Y","A25PFSORDO3SWQ","31ANT7FQN8OJYEBE2RCDNWOVYXNH57","","null","<img src=""img/animal2.png"" style=""width:200px; border:14px solid green;"">","null","","","","","",""
"","image-keyboard-response","74","77581","0.0-74.0","3BQU611VFQ6B6FT1Y764BERX7MX99Y","A25PFSORDO3SWQ","31ANT7FQN8OJYEBE2RCDNWOVYXNH57","","285","img/animal2.png","74","285","1","1","2","1,0.5,0,1,0.5,0,0.5,0,1",""
"","html-keyboard-response","75","77890","0.0-75.0","3BQU611VFQ6B6FT1Y764BERX7MX99Y","A25PFSORDO3SWQ","31ANT7FQN8OJYEBE2RCDNWOVYXNH57","","null","<img src=""img/animal2.png"" style=""width:200px; border:14px solid green;"">","null","","","","","",""
"","image-keyboard-response","76","79348","0.0-76.0","3BQU611VFQ6B6FT1Y764BERX7MX99Y","A25PFSORDO3SWQ","31ANT7FQN8OJYEBE2RCDNWOVYXNH57","","1457","img/animal6.png","75","1457","2","0","3","1,0.5,0,1,0.5,0,0.5,0,1",""
"","html-keyboard-response","77","79658","0.0-77.0","3BQU611VFQ6B6FT1Y764BERX7MX99Y","A25PFSORDO3SWQ","31ANT7FQN8OJYEBE2RCDNWOVYXNH57","","null","<img src=""img/animal6.png"" style=""width:200px;border:14px solid red;"">","null","","","","","",""
"","image-keyboard-response","78","80387","0.0-78.0","3BQU611VFQ6B6FT1Y764BERX7MX99Y","A25PFSORDO3SWQ","31ANT7FQN8OJYEBE2RCDNWOVYXNH57","","729","img/animal2.png","75","729","2","0","2","1,0.5,0,1,0.5,0,0.5,0,1",""
"","html-keyboard-response","79","80694","0.0-79.0","3BQU611VFQ6B6FT1Y764BERX7MX99Y","A25PFSORDO3SWQ","31ANT7FQN8OJYEBE2RCDNWOVYXNH57","","null","<img src=""img/animal2.png"" style=""width:200px;border:14px solid red;"">","null","","","","","",""
"","image-keyboard-response","80","81932","0.0-80.0","3BQU611VFQ6B6FT1Y764BERX7MX99Y","A25PFSORDO3SWQ","31ANT7FQN8OJYEBE2RCDNWOVYXNH57","","1238","img/animal6.png","76","1238","3","1","3","1,0.5,0,1,0.5,0,0.5,0,1",""
"","html-keyboard-response","81","82233","0.0-81.0","3BQU611VFQ6B6FT1Y764BERX7MX99Y","A25PFSORDO3SWQ","31ANT7FQN8OJYEBE2RCDNWOVYXNH57","","null","<img src=""img/animal6.png"" style=""width:200px; border:14px solid green;"">","null","","","","","",""
"","image-keyboard-response","82","82666","0.0-82.0","3BQU611VFQ6B6FT1Y764BERX7MX99Y","A25PFSORDO3SWQ","31ANT7FQN8OJYEBE2RCDNWOVYXNH57","","432","img/animal6.png","76","433","3","1","3","1,0.5,0,1,0.5,0,0.5,0,1",""
"","html-keyboard-response","83","82981","0.0-83.0","3BQU611VFQ6B6FT1Y764BERX7MX99Y","A25PFSORDO3SWQ","31ANT7FQN8OJYEBE2RCDNWOVYXNH57","","null","<img src=""img/animal6.png"" style=""width:200px; border:14px solid green;"">","null","","","","","",""
"","image-keyboard-response","84","83523","0.0-84.0","3BQU611VFQ6B6FT1Y764BERX7MX99Y","A25PFSORDO3SWQ","31ANT7FQN8OJYEBE2RCDNWOVYXNH57","","542","img/animal2.png","76","542","3","0","2","1,0.5,0,1,0.5,0,0.5,0,1",""
"","html-keyboard-response","85","83823","0.0-85.0","3BQU611VFQ6B6FT1Y764BERX7MX99Y","A25PFSORDO3SWQ","31ANT7FQN8OJYEBE2RCDNWOVYXNH57","","null","<img src=""img/animal2.png"" style=""width:200px;border:14px solid red;"">","null","","","","","",""
"","image-keyboard-response","86","85148","0.0-86.0","3BQU611VFQ6B6FT1Y764BERX7MX99Y","A25PFSORDO3SWQ","31ANT7FQN8OJYEBE2RCDNWOVYXNH57","","1323","img/animal6.png","74","1324","1","1","3","1,0.5,0,1,0.5,0,0.5,0,1",""
"","html-keyboard-response","87","85453","0.0-87.0","3BQU611VFQ6B6FT1Y764BERX7MX99Y","A25PFSORDO3SWQ","31ANT7FQN8OJYEBE2RCDNWOVYXNH57","","null","<img src=""img/animal6.png"" style=""width:200px; border:14px solid green;"">","null","","","","","",""
"","image-keyboard-response","88","85961","0.0-88.0","3BQU611VFQ6B6FT1Y764BERX7MX99Y","A25PFSORDO3SWQ","31ANT7FQN8OJYEBE2RCDNWOVYXNH57","","508","img/animal6.png","74","508","1","0","3","1,0.5,0,1,0.5,0,0.5,0,1",""
"","html-keyboard-response","89","86267","0.0-89.0","3BQU611VFQ6B6FT1Y764BERX7MX99Y","A25PFSORDO3SWQ","31ANT7FQN8OJYEBE2RCDNWOVYXNH57","","null","<img src=""img/animal6.png"" style=""width:200px;border:14px solid red;"">","null","","","","","",""
"","image-keyboard-response","90","86818","0.0-90.0","3BQU611VFQ6B6FT1Y764BERX7MX99Y","A25PFSORDO3SWQ","31ANT7FQN8OJYEBE2RCDNWOVYXNH57","","549","img/animal6.png","74","549","1","0","3","1,0.5,0,1,0.5,0,0.5,0,1",""
"","html-keyboard-response","91","87157","0.0-91.0","3BQU611VFQ6B6FT1Y764BERX7MX99Y","A25PFSORDO3SWQ","31ANT7FQN8OJYEBE2RCDNWOVYXNH57","","null","<img src=""img/animal6.png"" style=""width:200px;border:14px solid red;"">","null","","","","","",""
"","image-keyboard-response","92","88406","0.0-92.0","3BQU611VFQ6B6FT1Y764BERX7MX99Y","A25PFSORDO3SWQ","31ANT7FQN8OJYEBE2RCDNWOVYXNH57","","1248","img/animal2.png","75","1248","2","1","2","1,0.5,0,1,0.5,0,0.5,0,1",""
"","html-keyboard-response","93","88715","0.0-93.0","3BQU611VFQ6B6FT1Y764BERX7MX99Y","A25PFSORDO3SWQ","31ANT7FQN8OJYEBE2RCDNWOVYXNH57","","null","<img src=""img/animal2.png"" style=""width:200px; border:14px solid green;"">","null","","","","","",""
"","image-keyboard-response","94","91205","0.0-94.0","3BQU611VFQ6B6FT1Y764BERX7MX99Y","A25PFSORDO3SWQ","31ANT7FQN8OJYEBE2RCDNWOVYXNH57","","2489","img/animal4.png","75","2490","2","0","1","1,0.5,0,1,0.5,0,0.5,0,1",""
"","html-keyboard-response","95","91518","0.0-95.0","3BQU611VFQ6B6FT1Y764BERX7MX99Y","A25PFSORDO3SWQ","31ANT7FQN8OJYEBE2RCDNWOVYXNH57","","null","<img src=""img/animal4.png"" style=""width:200px;border:14px solid red;"">","null","","","","","",""
"","image-keyboard-response","96","92263","0.0-96.0","3BQU611VFQ6B6FT1Y764BERX7MX99Y","A25PFSORDO3SWQ","31ANT7FQN8OJYEBE2RCDNWOVYXNH57","","744","img/animal2.png","74","745","1","1","2","1,0.5,0,1,0.5,0,0.5,0,1",""
"","html-keyboard-response","97","92570","0.0-97.0","3BQU611VFQ6B6FT1Y764BERX7MX99Y","A25PFSORDO3SWQ","31ANT7FQN8OJYEBE2RCDNWOVYXNH57","","null","<img src=""img/animal2.png"" style=""width:200px; border:14px solid green;"">","null","","","","","",""
"","image-keyboard-response","98","93282","0.0-98.0","3BQU611VFQ6B6FT1Y764BERX7MX99Y","A25PFSORDO3SWQ","31ANT7FQN8OJYEBE2RCDNWOVYXNH57","","709","img/animal6.png","74","710","1","0","3","1,0.5,0,1,0.5,0,0.5,0,1",""
"","html-keyboard-response","99","93591","0.0-99.0","3BQU611VFQ6B6FT1Y764BERX7MX99Y","A25PFSORDO3SWQ","31ANT7FQN8OJYEBE2RCDNWOVYXNH57","","null","<img src=""img/animal6.png"" style=""width:200px;border:14px solid red;"">","null","","","","","",""
"","image-keyboard-response","100","94220","0.0-100.0","3BQU611VFQ6B6FT1Y764BERX7MX99Y","A25PFSORDO3SWQ","31ANT7FQN8OJYEBE2RCDNWOVYXNH57","","629","img/animal2.png","74","630","1","1","2","1,0.5,0,1,0.5,0,0.5,0,1",""
"","html-keyboard-response","101","94532","0.0-101.0","3BQU611VFQ6B6FT1Y764BERX7MX99Y","A25PFSORDO3SWQ","31ANT7FQN8OJYEBE2RCDNWOVYXNH57","","null","<img src=""img/animal2.png"" style=""width:200px; border:14px solid green;"">","null","","","","","",""
"","image-keyboard-response","102","94954","0.0-102.0","3BQU611VFQ6B6FT1Y764BERX7MX99Y","A25PFSORDO3SWQ","31ANT7FQN8OJYEBE2RCDNWOVYXNH57","","422","img/animal2.png","74","423","1","1","2","1,0.5,0,1,0.5,0,0.5,0,1",""
"","html-keyboard-response","103","95285","0.0-103.0","3BQU611VFQ6B6FT1Y764BERX7MX99Y","A25PFSORDO3SWQ","31ANT7FQN8OJYEBE2RCDNWOVYXNH57","","null","<img src=""img/animal2.png"" style=""width:200px; border:14px solid green;"">","null","","","","","",""
"","image-keyboard-response","104","96604","0.0-104.0","3BQU611VFQ6B6FT1Y764BERX7MX99Y","A25PFSORDO3SWQ","31ANT7FQN8OJYEBE2RCDNWOVYXNH57","","1318","img/animal4.png","76","1318","3","0","1","1,0.5,0,1,0.5,0,0.5,0,1",""
"","html-keyboard-response","105","96913","0.0-105.0","3BQU611VFQ6B6FT1Y764BERX7MX99Y","A25PFSORDO3SWQ","31ANT7FQN8OJYEBE2RCDNWOVYXNH57","","null","<img src=""img/animal4.png"" style=""width:200px;border:14px solid red;"">","null","","","","","",""
"","image-keyboard-response","106","97883","0.0-106.0","3BQU611VFQ6B6FT1Y764BERX7MX99Y","A25PFSORDO3SWQ","31ANT7FQN8OJYEBE2RCDNWOVYXNH57","","969","img/animal4.png","76","970","3","0","1","1,0.5,0,1,0.5,0,0.5,0,1",""
"","html-keyboard-response","107","98193","0.0-107.0","3BQU611VFQ6B6FT1Y764BERX7MX99Y","A25PFSORDO3SWQ","31ANT7FQN8OJYEBE2RCDNWOVYXNH57","","null","<img src=""img/animal4.png"" style=""width:200px;border:14px solid red;"">","null","","","","","",""
"","image-keyboard-response","108","98679","0.0-108.0","3BQU611VFQ6B6FT1Y764BERX7MX99Y","A25PFSORDO3SWQ","31ANT7FQN8OJYEBE2RCDNWOVYXNH57","","484","img/animal4.png","75","486","2","0","1","1,0.5,0,1,0.5,0,0.5,0,1",""
"","html-keyboard-response","109","98988","0.0-109.0","3BQU611VFQ6B6FT1Y764BERX7MX99Y","A25PFSORDO3SWQ","31ANT7FQN8OJYEBE2RCDNWOVYXNH57","","null","<img src=""img/animal4.png"" style=""width:200px;border:14px solid red;"">","null","","","","","",""
"","image-keyboard-response","110","99674","0.0-110.0","3BQU611VFQ6B6FT1Y764BERX7MX99Y","A25PFSORDO3SWQ","31ANT7FQN8OJYEBE2RCDNWOVYXNH57","","686","img/animal6.png","74","687","1","1","3","1,0.5,0,1,0.5,0,0.5,0,1",""
"","html-keyboard-response","111","99979","0.0-111.0","3BQU611VFQ6B6FT1Y764BERX7MX99Y","A25PFSORDO3SWQ","31ANT7FQN8OJYEBE2RCDNWOVYXNH57","","null","<img src=""img/animal6.png"" style=""width:200px; border:14px solid green;"">","null","","","","","",""
"","image-keyboard-response","112","100817","0.0-112.0","3BQU611VFQ6B6FT1Y764BERX7MX99Y","A25PFSORDO3SWQ","31ANT7FQN8OJYEBE2RCDNWOVYXNH57","","837","img/animal6.png","74","838","1","1","3","1,0.5,0,1,0.5,0,0.5,0,1",""
"","html-keyboard-response","113","101126","0.0-113.0","3BQU611VFQ6B6FT1Y764BERX7MX99Y","A25PFSORDO3SWQ","31ANT7FQN8OJYEBE2RCDNWOVYXNH57","","null","<img src=""img/animal6.png"" style=""width:200px; border:14px solid green;"">","null","","","","","",""
"","image-keyboard-response","114","103334","0.0-114.0","3BQU611VFQ6B6FT1Y764BERX7MX99Y","A25PFSORDO3SWQ","31ANT7FQN8OJYEBE2RCDNWOVYXNH57","","2205","img/animal4.png","74","2206","1","1","1","1,0.5,0,1,0.5,0,0.5,0,1",""
"","html-keyboard-response","115","103648","0.0-115.0","3BQU611VFQ6B6FT1Y764BERX7MX99Y","A25PFSORDO3SWQ","31ANT7FQN8OJYEBE2RCDNWOVYXNH57","","null","<img src=""img/animal4.png"" style=""width:200px; border:14px solid green;"">","null","","","","","",""
"","image-keyboard-response","116","104250","0.0-116.0","3BQU611VFQ6B6FT1Y764BERX7MX99Y","A25PFSORDO3SWQ","31ANT7FQN8OJYEBE2RCDNWOVYXNH57","","602","img/animal6.png","74","602","1","1","3","1,0.5,0,1,0.5,0,0.5,0,1",""
"","html-keyboard-response","117","104555","0.0-117.0","3BQU611VFQ6B6FT1Y764BERX7MX99Y","A25PFSORDO3SWQ","31ANT7FQN8OJYEBE2RCDNWOVYXNH57","","null","<img src=""img/animal6.png"" style=""width:200px; border:14px solid green;"">","null","","","","","",""
"","image-keyboard-response","118","104904","0.0-118.0","3BQU611VFQ6B6FT1Y764BERX7MX99Y","A25PFSORDO3SWQ","31ANT7FQN8OJYEBE2RCDNWOVYXNH57","","348","img/animal4.png","74","348","1","1","1","1,0.5,0,1,0.5,0,0.5,0,1",""
"","html-keyboard-response","119","105211","0.0-119.0","3BQU611VFQ6B6FT1Y764BERX7MX99Y","A25PFSORDO3SWQ","31ANT7FQN8OJYEBE2RCDNWOVYXNH57","","null","<img src=""img/animal4.png"" style=""width:200px; border:14px solid green;"">","null","","","","","",""
"","image-keyboard-response","120","105537","0.0-120.0","3BQU611VFQ6B6FT1Y764BERX7MX99Y","A25PFSORDO3SWQ","31ANT7FQN8OJYEBE2RCDNWOVYXNH57","","325","img/animal2.png","74","325","1","1","2","1,0.5,0,1,0.5,0,0.5,0,1",""
"","html-keyboard-response","121","105838","0.0-121.0","3BQU611VFQ6B6FT1Y764BERX7MX99Y","A25PFSORDO3SWQ","31ANT7FQN8OJYEBE2RCDNWOVYXNH57","","null","<img src=""img/animal2.png"" style=""width:200px; border:14px solid green;"">","null","","","","","",""
"","image-keyboard-response","122","106090","0.0-122.0","3BQU611VFQ6B6FT1Y764BERX7MX99Y","A25PFSORDO3SWQ","31ANT7FQN8OJYEBE2RCDNWOVYXNH57","","251","img/animal2.png","74","251","1","1","2","1,0.5,0,1,0.5,0,0.5,0,1",""
"","html-keyboard-response","123","106404","0.0-123.0","3BQU611VFQ6B6FT1Y764BERX7MX99Y","A25PFSORDO3SWQ","31ANT7FQN8OJYEBE2RCDNWOVYXNH57","","null","<img src=""img/animal2.png"" style=""width:200px; border:14px solid green;"">","null","","","","","",""
"","image-keyboard-response","124","106642","0.0-124.0","3BQU611VFQ6B6FT1Y764BERX7MX99Y","A25PFSORDO3SWQ","31ANT7FQN8OJYEBE2RCDNWOVYXNH57","","237","img/animal2.png","74","237","1","1","2","1,0.5,0,1,0.5,0,0.5,0,1",""
"","html-keyboard-response","125","106957","0.0-125.0","3BQU611VFQ6B6FT1Y764BERX7MX99Y","A25PFSORDO3SWQ","31ANT7FQN8OJYEBE2RCDNWOVYXNH57","","null","<img src=""img/animal2.png"" style=""width:200px; border:14px solid green;"">","null","","","","","",""
"","image-keyboard-response","126","107114","0.0-126.0","3BQU611VFQ6B6FT1Y764BERX7MX99Y","A25PFSORDO3SWQ","31ANT7FQN8OJYEBE2RCDNWOVYXNH57","","156","img/animal6.png","74","156","1","0","3","1,0.5,0,1,0.5,0,0.5,0,1",""
"","html-keyboard-response","127","107429","0.0-127.0","3BQU611VFQ6B6FT1Y764BERX7MX99Y","A25PFSORDO3SWQ","31ANT7FQN8OJYEBE2RCDNWOVYXNH57","","null","<img src=""img/animal6.png"" style=""width:200px;border:14px solid red;"">","null","","","","","",""
"","image-keyboard-response","128","107748","0.0-128.0","3BQU611VFQ6B6FT1Y764BERX7MX99Y","A25PFSORDO3SWQ","31ANT7FQN8OJYEBE2RCDNWOVYXNH57","","318","img/animal4.png","74","318","1","1","1","1,0.5,0,1,0.5,0,0.5,0,1",""
"","html-keyboard-response","129","108054","0.0-129.0","3BQU611VFQ6B6FT1Y764BERX7MX99Y","A25PFSORDO3SWQ","31ANT7FQN8OJYEBE2RCDNWOVYXNH57","","null","<img src=""img/animal4.png"" style=""width:200px; border:14px solid green;"">","null","","","","","",""
"","image-keyboard-response","130","108260","0.0-130.0","3BQU611VFQ6B6FT1Y764BERX7MX99Y","A25PFSORDO3SWQ","31ANT7FQN8OJYEBE2RCDNWOVYXNH57","","205","img/animal4.png","74","205","1","1","1","1,0.5,0,1,0.5,0,0.5,0,1",""
"","html-keyboard-response","131","108573","0.0-131.0","3BQU611VFQ6B6FT1Y764BERX7MX99Y","A25PFSORDO3SWQ","31ANT7FQN8OJYEBE2RCDNWOVYXNH57","","null","<img src=""img/animal4.png"" style=""width:200px; border:14px solid green;"">","null","","","","","",""
"","image-keyboard-response","132","108833","0.0-132.0","3BQU611VFQ6B6FT1Y764BERX7MX99Y","A25PFSORDO3SWQ","31ANT7FQN8OJYEBE2RCDNWOVYXNH57","","258","img/animal4.png","74","259","1","1","1","1,0.5,0,1,0.5,0,0.5,0,1",""
"","html-keyboard-response","133","109137","0.0-133.0","3BQU611VFQ6B6FT1Y764BERX7MX99Y","A25PFSORDO3SWQ","31ANT7FQN8OJYEBE2RCDNWOVYXNH57","","null","<img src=""img/animal4.png"" style=""width:200px; border:14px solid green;"">","null","","","","","",""
"","image-keyboard-response","134","109428","0.0-134.0","3BQU611VFQ6B6FT1Y764BERX7MX99Y","A25PFSORDO3SWQ","31ANT7FQN8OJYEBE2RCDNWOVYXNH57","","291","img/animal4.png","74","291","1","1","1","1,0.5,0,1,0.5,0,0.5,0,1",""
"","html-keyboard-response","135","109731","0.0-135.0","3BQU611VFQ6B6FT1Y764BERX7MX99Y","A25PFSORDO3SWQ","31ANT7FQN8OJYEBE2RCDNWOVYXNH57","","null","<img src=""img/animal4.png"" style=""width:200px; border:14px solid green;"">","null","","","","","",""
"","image-keyboard-response","136","110041","0.0-136.0","3BQU611VFQ6B6FT1Y764BERX7MX99Y","A25PFSORDO3SWQ","31ANT7FQN8OJYEBE2RCDNWOVYXNH57","","311","img/animal4.png","74","311","1","1","1","1,0.5,0,1,0.5,0,0.5,0,1",""
"","html-keyboard-response","137","110352","0.0-137.0","3BQU611VFQ6B6FT1Y764BERX7MX99Y","A25PFSORDO3SWQ","31ANT7FQN8OJYEBE2RCDNWOVYXNH57","","null","<img src=""img/animal4.png"" style=""width:200px; border:14px solid green;"">","null","","","","","",""
"","image-keyboard-response","138","110635","0.0-138.0","3BQU611VFQ6B6FT1Y764BERX7MX99Y","A25PFSORDO3SWQ","31ANT7FQN8OJYEBE2RCDNWOVYXNH57","","282","img/animal4.png","74","283","1","1","1","1,0.5,0,1,0.5,0,0.5,0,1",""
"","html-keyboard-response","139","110950","0.0-139.0","3BQU611VFQ6B6FT1Y764BERX7MX99Y","A25PFSORDO3SWQ","31ANT7FQN8OJYEBE2RCDNWOVYXNH57","","null","<img src=""img/animal4.png"" style=""width:200px; border:14px solid green;"">","null","","","","","",""
"","image-keyboard-response","140","111207","0.0-140.0","3BQU611VFQ6B6FT1Y764BERX7MX99Y","A25PFSORDO3SWQ","31ANT7FQN8OJYEBE2RCDNWOVYXNH57","","257","img/animal4.png","74","257","1","1","1","1,0.5,0,1,0.5,0,0.5,0,1",""
"","html-keyboard-response","141","111515","0.0-141.0","3BQU611VFQ6B6FT1Y764BERX7MX99Y","A25PFSORDO3SWQ","31ANT7FQN8OJYEBE2RCDNWOVYXNH57","","null","<img src=""img/animal4.png"" style=""width:200px; border:14px solid green;"">","null","","","","","",""
"","image-keyboard-response","142","111740","0.0-142.0","3BQU611VFQ6B6FT1Y764BERX7MX99Y","A25PFSORDO3SWQ","31ANT7FQN8OJYEBE2RCDNWOVYXNH57","","223","img/animal2.png","74","225","1","1","2","1,0.5,0,1,0.5,0,0.5,0,1",""
"","html-keyboard-response","143","112047","0.0-143.0","3BQU611VFQ6B6FT1Y764BERX7MX99Y","A25PFSORDO3SWQ","31ANT7FQN8OJYEBE2RCDNWOVYXNH57","","null","<img src=""img/animal2.png"" style=""width:200px; border:14px solid green;"">","null","","","","","",""
"","image-keyboard-response","144","112332","0.0-144.0","3BQU611VFQ6B6FT1Y764BERX7MX99Y","A25PFSORDO3SWQ","31ANT7FQN8OJYEBE2RCDNWOVYXNH57","","285","img/animal2.png","74","285","1","1","2","1,0.5,0,1,0.5,0,0.5,0,1",""
"","html-keyboard-response","145","112641","0.0-145.0","3BQU611VFQ6B6FT1Y764BERX7MX99Y","A25PFSORDO3SWQ","31ANT7FQN8OJYEBE2RCDNWOVYXNH57","","null","<img src=""img/animal2.png"" style=""width:200px; border:14px solid green;"">","null","","","","","",""
"","image-keyboard-response","146","113007","0.0-146.0","3BQU611VFQ6B6FT1Y764BERX7MX99Y","A25PFSORDO3SWQ","31ANT7FQN8OJYEBE2RCDNWOVYXNH57","","365","img/animal2.png","74","366","1","1","2","1,0.5,0,1,0.5,0,0.5,0,1",""
"","html-keyboard-response","147","113318","0.0-147.0","3BQU611VFQ6B6FT1Y764BERX7MX99Y","A25PFSORDO3SWQ","31ANT7FQN8OJYEBE2RCDNWOVYXNH57","","null","<img src=""img/animal2.png"" style=""width:200px; border:14px solid green;"">","null","","","","","",""
"","image-keyboard-response","148","113988","0.0-148.0","3BQU611VFQ6B6FT1Y764BERX7MX99Y","A25PFSORDO3SWQ","31ANT7FQN8OJYEBE2RCDNWOVYXNH57","","668","img/animal6.png","75","668","2","0","3","1,0.5,0,1,0.5,0,0.5,0,1",""
"","html-keyboard-response","149","114296","0.0-149.0","3BQU611VFQ6B6FT1Y764BERX7MX99Y","A25PFSORDO3SWQ","31ANT7FQN8OJYEBE2RCDNWOVYXNH57","","null","<img src=""img/animal6.png"" style=""width:200px;border:14px solid red;"">","null","","","","","",""
"","image-keyboard-response","150","115552","0.0-150.0","3BQU611VFQ6B6FT1Y764BERX7MX99Y","A25PFSORDO3SWQ","31ANT7FQN8OJYEBE2RCDNWOVYXNH57","","1254","img/animal2.png","75","1256","2","1","2","1,0.5,0,1,0.5,0,0.5,0,1",""
"","html-keyboard-response","151","115860","0.0-151.0","3BQU611VFQ6B6FT1Y764BERX7MX99Y","A25PFSORDO3SWQ","31ANT7FQN8OJYEBE2RCDNWOVYXNH57","","null","<img src=""img/animal2.png"" style=""width:200px; border:14px solid green;"">","null","","","","","",""
"","image-keyboard-response","152","116591","0.0-152.0","3BQU611VFQ6B6FT1Y764BERX7MX99Y","A25PFSORDO3SWQ","31ANT7FQN8OJYEBE2RCDNWOVYXNH57","","731","img/animal6.png","75","732","2","0","3","1,0.5,0,1,0.5,0,0.5,0,1",""
"","html-keyboard-response","153","116904","0.0-153.0","3BQU611VFQ6B6FT1Y764BERX7MX99Y","A25PFSORDO3SWQ","31ANT7FQN8OJYEBE2RCDNWOVYXNH57","","null","<img src=""img/animal6.png"" style=""width:200px;border:14px solid red;"">","null","","","","","",""
"","image-keyboard-response","154","117529","0.0-154.0","3BQU611VFQ6B6FT1Y764BERX7MX99Y","A25PFSORDO3SWQ","31ANT7FQN8OJYEBE2RCDNWOVYXNH57","","623","img/animal6.png","76","624","3","1","3","1,0.5,0,1,0.5,0,0.5,0,1",""
"","html-keyboard-response","155","117833","0.0-155.0","3BQU611VFQ6B6FT1Y764BERX7MX99Y","A25PFSORDO3SWQ","31ANT7FQN8OJYEBE2RCDNWOVYXNH57","","null","<img src=""img/animal6.png"" style=""width:200px; border:14px solid green;"">","null","","","","","",""
"","image-keyboard-response","156","118627","0.0-156.0","3BQU611VFQ6B6FT1Y764BERX7MX99Y","A25PFSORDO3SWQ","31ANT7FQN8OJYEBE2RCDNWOVYXNH57","","794","img/animal6.png","76","794","3","1","3","1,0.5,0,1,0.5,0,0.5,0,1",""
"","html-keyboard-response","157","118932","0.0-157.0","3BQU611VFQ6B6FT1Y764BERX7MX99Y","A25PFSORDO3SWQ","31ANT7FQN8OJYEBE2RCDNWOVYXNH57","","null","<img src=""img/animal6.png"" style=""width:200px; border:14px solid green;"">","null","","","","","",""
"","image-keyboard-response","158","120476","0.0-158.0","3BQU611VFQ6B6FT1Y764BERX7MX99Y","A25PFSORDO3SWQ","31ANT7FQN8OJYEBE2RCDNWOVYXNH57","","1542","img/animal4.png","76","1542","3","0","1","1,0.5,0,1,0.5,0,0.5,0,1",""
"","html-keyboard-response","159","120783","0.0-159.0","3BQU611VFQ6B6FT1Y764BERX7MX99Y","A25PFSORDO3SWQ","31ANT7FQN8OJYEBE2RCDNWOVYXNH57","","null","<img src=""img/animal4.png"" style=""width:200px;border:14px solid red;"">","null","","","","","",""
"","image-keyboard-response","160","121594","0.0-160.0","3BQU611VFQ6B6FT1Y764BERX7MX99Y","A25PFSORDO3SWQ","31ANT7FQN8OJYEBE2RCDNWOVYXNH57","","810","img/animal2.png","74","811","1","1","2","1,0.5,0,1,0.5,0,0.5,0,1",""
"","html-keyboard-response","161","121909","0.0-161.0","3BQU611VFQ6B6FT1Y764BERX7MX99Y","A25PFSORDO3SWQ","31ANT7FQN8OJYEBE2RCDNWOVYXNH57","","null","<img src=""img/animal2.png"" style=""width:200px; border:14px solid green;"">","null","","","","","",""
"","image-keyboard-response","162","123159","0.0-162.0","3BQU611VFQ6B6FT1Y764BERX7MX99Y","A25PFSORDO3SWQ","31ANT7FQN8OJYEBE2RCDNWOVYXNH57","","1248","img/animal4.png","74","1248","1","1","1","1,0.5,0,1,0.5,0,0.5,0,1",""
"","html-keyboard-response","163","123466","0.0-163.0","3BQU611VFQ6B6FT1Y764BERX7MX99Y","A25PFSORDO3SWQ","31ANT7FQN8OJYEBE2RCDNWOVYXNH57","","null","<img src=""img/animal4.png"" style=""width:200px; border:14px solid green;"">","null","","","","","",""
"","image-keyboard-response","164","124603","0.0-164.0","3BQU611VFQ6B6FT1Y764BERX7MX99Y","A25PFSORDO3SWQ","31ANT7FQN8OJYEBE2RCDNWOVYXNH57","","1136","img/animal6.png","75","1137","2","0","3","1,0.5,0,1,0.5,0,0.5,0,1",""
"","html-keyboard-response","165","124910","0.0-165.0","3BQU611VFQ6B6FT1Y764BERX7MX99Y","A25PFSORDO3SWQ","31ANT7FQN8OJYEBE2RCDNWOVYXNH57","","null","<img src=""img/animal6.png"" style=""width:200px;border:14px solid red;"">","null","","","","","",""
"","image-keyboard-response","166","126089","0.0-166.0","3BQU611VFQ6B6FT1Y764BERX7MX99Y","A25PFSORDO3SWQ","31ANT7FQN8OJYEBE2RCDNWOVYXNH57","","1178","img/animal4.png","74","1179","1","1","1","1,0.5,0,1,0.5,0,0.5,0,1",""
"","html-keyboard-response","167","126404","0.0-167.0","3BQU611VFQ6B6FT1Y764BERX7MX99Y","A25PFSORDO3SWQ","31ANT7FQN8OJYEBE2RCDNWOVYXNH57","","null","<img src=""img/animal4.png"" style=""width:200px; border:14px solid green;"">","null","","","","","",""
"","image-keyboard-response","168","126799","0.0-168.0","3BQU611VFQ6B6FT1Y764BERX7MX99Y","A25PFSORDO3SWQ","31ANT7FQN8OJYEBE2RCDNWOVYXNH57","","395","img/animal4.png","74","395","1","1","1","1,0.5,0,1,0.5,0,0.5,0,1",""
"","html-keyboard-response","169","127108","0.0-169.0","3BQU611VFQ6B6FT1Y764BERX7MX99Y","A25PFSORDO3SWQ","31ANT7FQN8OJYEBE2RCDNWOVYXNH57","","null","<img src=""img/animal4.png"" style=""width:200px; border:14px solid green;"">","null","","","","","",""
"","image-keyboard-response","170","127617","0.0-170.0","3BQU611VFQ6B6FT1Y764BERX7MX99Y","A25PFSORDO3SWQ","31ANT7FQN8OJYEBE2RCDNWOVYXNH57","","509","img/animal4.png","74","509","1","1","1","1,0.5,0,1,0.5,0,0.5,0,1",""
"","html-keyboard-response","171","127920","0.0-171.0","3BQU611VFQ6B6FT1Y764BERX7MX99Y","A25PFSORDO3SWQ","31ANT7FQN8OJYEBE2RCDNWOVYXNH57","","null","<img src=""img/animal4.png"" style=""width:200px; border:14px solid green;"">","null","","","","","",""
"","image-keyboard-response","172","128452","0.0-172.0","3BQU611VFQ6B6FT1Y764BERX7MX99Y","A25PFSORDO3SWQ","31ANT7FQN8OJYEBE2RCDNWOVYXNH57","","532","img/animal2.png","75","532","2","0","2","1,0.5,0,1,0.5,0,0.5,0,1",""
"","html-keyboard-response","173","128755","0.0-173.0","3BQU611VFQ6B6FT1Y764BERX7MX99Y","A25PFSORDO3SWQ","31ANT7FQN8OJYEBE2RCDNWOVYXNH57","","null","<img src=""img/animal2.png"" style=""width:200px;border:14px solid red;"">","null","","","","","",""
"","image-keyboard-response","174","129409","0.0-174.0","3BQU611VFQ6B6FT1Y764BERX7MX99Y","A25PFSORDO3SWQ","31ANT7FQN8OJYEBE2RCDNWOVYXNH57","","653","img/animal6.png","74","654","1","0","3","1,0.5,0,1,0.5,0,0.5,0,1",""
"","html-keyboard-response","175","129718","0.0-175.0","3BQU611VFQ6B6FT1Y764BERX7MX99Y","A25PFSORDO3SWQ","31ANT7FQN8OJYEBE2RCDNWOVYXNH57","","null","<img src=""img/animal6.png"" style=""width:200px;border:14px solid red;"">","null","","","","","",""
"","image-keyboard-response","176","131723","0.0-176.0","3BQU611VFQ6B6FT1Y764BERX7MX99Y","A25PFSORDO3SWQ","31ANT7FQN8OJYEBE2RCDNWOVYXNH57","","2005","img/animal4.png","74","2006","1","1","1","1,0.5,0,1,0.5,0,0.5,0,1",""
"","html-keyboard-response","177","132039","0.0-177.0","3BQU611VFQ6B6FT1Y764BERX7MX99Y","A25PFSORDO3SWQ","31ANT7FQN8OJYEBE2RCDNWOVYXNH57","","null","<img src=""img/animal4.png"" style=""width:200px; border:14px solid green;"">","null","","","","","",""
"","image-keyboard-response","178","132461","0.0-178.0","3BQU611VFQ6B6FT1Y764BERX7MX99Y","A25PFSORDO3SWQ","31ANT7FQN8OJYEBE2RCDNWOVYXNH57","","420","img/animal4.png","74","422","1","1","1","1,0.5,0,1,0.5,0,0.5,0,1",""
"","html-keyboard-response","179","132770","0.0-179.0","3BQU611VFQ6B6FT1Y764BERX7MX99Y","A25PFSORDO3SWQ","31ANT7FQN8OJYEBE2RCDNWOVYXNH57","","null","<img src=""img/animal4.png"" style=""width:200px; border:14px solid green;"">","null","","","","","",""
"","image-keyboard-response","180","133397","0.0-180.0","3BQU611VFQ6B6FT1Y764BERX7MX99Y","A25PFSORDO3SWQ","31ANT7FQN8OJYEBE2RCDNWOVYXNH57","","627","img/animal4.png","75","627","2","0","1","1,0.5,0,1,0.5,0,0.5,0,1",""
"","html-keyboard-response","181","133703","0.0-181.0","3BQU611VFQ6B6FT1Y764BERX7MX99Y","A25PFSORDO3SWQ","31ANT7FQN8OJYEBE2RCDNWOVYXNH57","","null","<img src=""img/animal4.png"" style=""width:200px;border:14px solid red;"">","null","","","","","",""
"","html-keyboard-response","182","138056","0.0-182.0","3BQU611VFQ6B6FT1Y764BERX7MX99Y","A25PFSORDO3SWQ","31ANT7FQN8OJYEBE2RCDNWOVYXNH57","","","","","","","","","",""
"","image-keyboard-response","183","139812","0.0-183.0","3BQU611VFQ6B6FT1Y764BERX7MX99Y","A25PFSORDO3SWQ","31ANT7FQN8OJYEBE2RCDNWOVYXNH57","","1754","img/animal5.png","75","1756","2","0","3","1,0.5,0,0,1,0.5,0.5,0,1",""
"","html-keyboard-response","184","140127","0.0-184.0","3BQU611VFQ6B6FT1Y764BERX7MX99Y","A25PFSORDO3SWQ","31ANT7FQN8OJYEBE2RCDNWOVYXNH57","","null","<img src=""img/animal5.png"" style=""width:200px;border:14px solid red;"">","null","","","","","",""
"","image-keyboard-response","185","141234","0.0-185.0","3BQU611VFQ6B6FT1Y764BERX7MX99Y","A25PFSORDO3SWQ","31ANT7FQN8OJYEBE2RCDNWOVYXNH57","","1107","img/animal3.png","75","1108","2","1","1","1,0.5,0,0,1,0.5,0.5,0,1",""
"","html-keyboard-response","186","141537","0.0-186.0","3BQU611VFQ6B6FT1Y764BERX7MX99Y","A25PFSORDO3SWQ","31ANT7FQN8OJYEBE2RCDNWOVYXNH57","","null","<img src=""img/animal3.png"" style=""width:200px; border:14px solid green;"">","null","","","","","",""
"","image-keyboard-response","187","142496","0.0-187.0","3BQU611VFQ6B6FT1Y764BERX7MX99Y","A25PFSORDO3SWQ","31ANT7FQN8OJYEBE2RCDNWOVYXNH57","","958","img/animal1.png","75","959","2","1","2","1,0.5,0,0,1,0.5,0.5,0,1",""
"","html-keyboard-response","188","142802","0.0-188.0","3BQU611VFQ6B6FT1Y764BERX7MX99Y","A25PFSORDO3SWQ","31ANT7FQN8OJYEBE2RCDNWOVYXNH57","","null","<img src=""img/animal1.png"" style=""width:200px; border:14px solid green;"">","null","","","","","",""
"","image-keyboard-response","189","143636","0.0-189.0","3BQU611VFQ6B6FT1Y764BERX7MX99Y","A25PFSORDO3SWQ","31ANT7FQN8OJYEBE2RCDNWOVYXNH57","","832","img/animal3.png","75","834","2","1","1","1,0.5,0,0,1,0.5,0.5,0,1",""
"","html-keyboard-response","190","143942","0.0-190.0","3BQU611VFQ6B6FT1Y764BERX7MX99Y","A25PFSORDO3SWQ","31ANT7FQN8OJYEBE2RCDNWOVYXNH57","","null","<img src=""img/animal3.png"" style=""width:200px; border:14px solid green;"">","null","","","","","",""
"","image-keyboard-response","191","144612","0.0-191.0","3BQU611VFQ6B6FT1Y764BERX7MX99Y","A25PFSORDO3SWQ","31ANT7FQN8OJYEBE2RCDNWOVYXNH57","","671","img/animal5.png","75","671","2","0","3","1,0.5,0,0,1,0.5,0.5,0,1",""
"","html-keyboard-response","192","144926","0.0-192.0","3BQU611VFQ6B6FT1Y764BERX7MX99Y","A25PFSORDO3SWQ","31ANT7FQN8OJYEBE2RCDNWOVYXNH57","","null","<img src=""img/animal5.png"" style=""width:200px;border:14px solid red;"">","null","","","","","",""
"","image-keyboard-response","193","146280","0.0-193.0","3BQU611VFQ6B6FT1Y764BERX7MX99Y","A25PFSORDO3SWQ","31ANT7FQN8OJYEBE2RCDNWOVYXNH57","","1353","img/animal1.png","76","1353","3","1","2","1,0.5,0,0,1,0.5,0.5,0,1",""
"","html-keyboard-response","194","146582","0.0-194.0","3BQU611VFQ6B6FT1Y764BERX7MX99Y","A25PFSORDO3SWQ","31ANT7FQN8OJYEBE2RCDNWOVYXNH57","","null","<img src=""img/animal1.png"" style=""width:200px; border:14px solid green;"">","null","","","","","",""
"","image-keyboard-response","195","147480","0.0-195.0","3BQU611VFQ6B6FT1Y764BERX7MX99Y","A25PFSORDO3SWQ","31ANT7FQN8OJYEBE2RCDNWOVYXNH57","","898","img/animal3.png","75","898","2","1","1","1,0.5,0,0,1,0.5,0.5,0,1",""
"","html-keyboard-response","196","147789","0.0-196.0","3BQU611VFQ6B6FT1Y764BERX7MX99Y","A25PFSORDO3SWQ","31ANT7FQN8OJYEBE2RCDNWOVYXNH57","","null","<img src=""img/animal3.png"" style=""width:200px; border:14px solid green;"">","null","","","","","",""
"","image-keyboard-response","197","148396","0.0-197.0","3BQU611VFQ6B6FT1Y764BERX7MX99Y","A25PFSORDO3SWQ","31ANT7FQN8OJYEBE2RCDNWOVYXNH57","","604","img/animal3.png","75","607","2","1","1","1,0.5,0,0,1,0.5,0.5,0,1",""
"","html-keyboard-response","198","148697","0.0-198.0","3BQU611VFQ6B6FT1Y764BERX7MX99Y","A25PFSORDO3SWQ","31ANT7FQN8OJYEBE2RCDNWOVYXNH57","","null","<img src=""img/animal3.png"" style=""width:200px; border:14px solid green;"">","null","","","","","",""
"","image-keyboard-response","199","149619","0.0-199.0","3BQU611VFQ6B6FT1Y764BERX7MX99Y","A25PFSORDO3SWQ","31ANT7FQN8OJYEBE2RCDNWOVYXNH57","","920","img/animal1.png","76","921","3","0","2","1,0.5,0,0,1,0.5,0.5,0,1",""
"","html-keyboard-response","200","149923","0.0-200.0","3BQU611VFQ6B6FT1Y764BERX7MX99Y","A25PFSORDO3SWQ","31ANT7FQN8OJYEBE2RCDNWOVYXNH57","","null","<img src=""img/animal1.png"" style=""width:200px;border:14px solid red;"">","null","","","","","",""
"","image-keyboard-response","201","150698","0.0-201.0","3BQU611VFQ6B6FT1Y764BERX7MX99Y","A25PFSORDO3SWQ","31ANT7FQN8OJYEBE2RCDNWOVYXNH57","","773","img/animal3.png","75","773","2","0","1","1,0.5,0,0,1,0.5,0.5,0,1",""
"","html-keyboard-response","202","151005","0.0-202.0","3BQU611VFQ6B6FT1Y764BERX7MX99Y","A25PFSORDO3SWQ","31ANT7FQN8OJYEBE2RCDNWOVYXNH57","","null","<img src=""img/animal3.png"" style=""width:200px;border:14px solid red;"">","null","","","","","",""
"","image-keyboard-response","203","151919","0.0-203.0","3BQU611VFQ6B6FT1Y764BERX7MX99Y","A25PFSORDO3SWQ","31ANT7FQN8OJYEBE2RCDNWOVYXNH57","","912","img/animal3.png","75","913","2","0","1","1,0.5,0,0,1,0.5,0.5,0,1",""
"","html-keyboard-response","204","152224","0.0-204.0","3BQU611VFQ6B6FT1Y764BERX7MX99Y","A25PFSORDO3SWQ","31ANT7FQN8OJYEBE2RCDNWOVYXNH57","","null","<img src=""img/animal3.png"" style=""width:200px;border:14px solid red;"">","null","","","","","",""
"","image-keyboard-response","205","152732","0.0-205.0","3BQU611VFQ6B6FT1Y764BERX7MX99Y","A25PFSORDO3SWQ","31ANT7FQN8OJYEBE2RCDNWOVYXNH57","","508","img/animal3.png","75","508","2","1","1","1,0.5,0,0,1,0.5,0.5,0,1",""
"","html-keyboard-response","206","153038","0.0-206.0","3BQU611VFQ6B6FT1Y764BERX7MX99Y","A25PFSORDO3SWQ","31ANT7FQN8OJYEBE2RCDNWOVYXNH57","","null","<img src=""img/animal3.png"" style=""width:200px; border:14px solid green;"">","null","","","","","",""
"","image-keyboard-response","207","154016","0.0-207.0","3BQU611VFQ6B6FT1Y764BERX7MX99Y","A25PFSORDO3SWQ","31ANT7FQN8OJYEBE2RCDNWOVYXNH57","","977","img/animal5.png","75","978","2","0","3","1,0.5,0,0,1,0.5,0.5,0,1",""
"","html-keyboard-response","208","154329","0.0-208.0","3BQU611VFQ6B6FT1Y764BERX7MX99Y","A25PFSORDO3SWQ","31ANT7FQN8OJYEBE2RCDNWOVYXNH57","","null","<img src=""img/animal5.png"" style=""width:200px;border:14px solid red;"">","null","","","","","",""
"","image-keyboard-response","209","155296","0.0-209.0","3BQU611VFQ6B6FT1Y764BERX7MX99Y","A25PFSORDO3SWQ","31ANT7FQN8OJYEBE2RCDNWOVYXNH57","","966","img/animal1.png","76","967","3","0","2","1,0.5,0,0,1,0.5,0.5,0,1",""
"","html-keyboard-response","210","155612","0.0-210.0","3BQU611VFQ6B6FT1Y764BERX7MX99Y","A25PFSORDO3SWQ","31ANT7FQN8OJYEBE2RCDNWOVYXNH57","","null","<img src=""img/animal1.png"" style=""width:200px;border:14px solid red;"">","null","","","","","",""
"","image-keyboard-response","211","156416","0.0-211.0","3BQU611VFQ6B6FT1Y764BERX7MX99Y","A25PFSORDO3SWQ","31ANT7FQN8OJYEBE2RCDNWOVYXNH57","","802","img/animal3.png","75","802","2","0","1","1,0.5,0,0,1,0.5,0.5,0,1",""
"","html-keyboard-response","212","156724","0.0-212.0","3BQU611VFQ6B6FT1Y764BERX7MX99Y","A25PFSORDO3SWQ","31ANT7FQN8OJYEBE2RCDNWOVYXNH57","","null","<img src=""img/animal3.png"" style=""width:200px;border:14px solid red;"">","null","","","","","",""
"","image-keyboard-response","213","157352","0.0-213.0","3BQU611VFQ6B6FT1Y764BERX7MX99Y","A25PFSORDO3SWQ","31ANT7FQN8OJYEBE2RCDNWOVYXNH57","","627","img/animal3.png","75","627","2","0","1","1,0.5,0,0,1,0.5,0.5,0,1",""
"","html-keyboard-response","214","157665","0.0-214.0","3BQU611VFQ6B6FT1Y764BERX7MX99Y","A25PFSORDO3SWQ","31ANT7FQN8OJYEBE2RCDNWOVYXNH57","","null","<img src=""img/animal3.png"" style=""width:200px;border:14px solid red;"">","null","","","","","",""
"","image-keyboard-response","215","158130","0.0-215.0","3BQU611VFQ6B6FT1Y764BERX7MX99Y","A25PFSORDO3SWQ","31ANT7FQN8OJYEBE2RCDNWOVYXNH57","","463","img/animal3.png","75","465","2","0","1","1,0.5,0,0,1,0.5,0.5,0,1",""
"","html-keyboard-response","216","158444","0.0-216.0","3BQU611VFQ6B6FT1Y764BERX7MX99Y","A25PFSORDO3SWQ","31ANT7FQN8OJYEBE2RCDNWOVYXNH57","","null","<img src=""img/animal3.png"" style=""width:200px;border:14px solid red;"">","null","","","","","",""
"","image-keyboard-response","217","159532","0.0-217.0","3BQU611VFQ6B6FT1Y764BERX7MX99Y","A25PFSORDO3SWQ","31ANT7FQN8OJYEBE2RCDNWOVYXNH57","","1087","img/animal5.png","75","1088","2","0","3","1,0.5,0,0,1,0.5,0.5,0,1",""
"","html-keyboard-response","218","159840","0.0-218.0","3BQU611VFQ6B6FT1Y764BERX7MX99Y","A25PFSORDO3SWQ","31ANT7FQN8OJYEBE2RCDNWOVYXNH57","","null","<img src=""img/animal5.png"" style=""width:200px;border:14px solid red;"">","null","","","","","",""
"","image-keyboard-response","219","160227","0.0-219.0","3BQU611VFQ6B6FT1Y764BERX7MX99Y","A25PFSORDO3SWQ","31ANT7FQN8OJYEBE2RCDNWOVYXNH57","","387","img/animal5.png","75","387","2","0","3","1,0.5,0,0,1,0.5,0.5,0,1",""
"","html-keyboard-response","220","160541","0.0-220.0","3BQU611VFQ6B6FT1Y764BERX7MX99Y","A25PFSORDO3SWQ","31ANT7FQN8OJYEBE2RCDNWOVYXNH57","","null","<img src=""img/animal5.png"" style=""width:200px;border:14px solid red;"">","null","","","","","",""
"","image-keyboard-response","221","160960","0.0-221.0","3BQU611VFQ6B6FT1Y764BERX7MX99Y","A25PFSORDO3SWQ","31ANT7FQN8OJYEBE2RCDNWOVYXNH57","","419","img/animal5.png","75","419","2","0","3","1,0.5,0,0,1,0.5,0.5,0,1",""
"","html-keyboard-response","222","161262","0.0-222.0","3BQU611VFQ6B6FT1Y764BERX7MX99Y","A25PFSORDO3SWQ","31ANT7FQN8OJYEBE2RCDNWOVYXNH57","","null","<img src=""img/animal5.png"" style=""width:200px;border:14px solid red;"">","null","","","","","",""
"","image-keyboard-response","223","161696","0.0-223.0","3BQU611VFQ6B6FT1Y764BERX7MX99Y","A25PFSORDO3SWQ","31ANT7FQN8OJYEBE2RCDNWOVYXNH57","","432","img/animal5.png","75","433","2","0","3","1,0.5,0,0,1,0.5,0.5,0,1",""
"","html-keyboard-response","224","162011","0.0-224.0","3BQU611VFQ6B6FT1Y764BERX7MX99Y","A25PFSORDO3SWQ","31ANT7FQN8OJYEBE2RCDNWOVYXNH57","","null","<img src=""img/animal5.png"" style=""width:200px;border:14px solid red;"">","null","","","","","",""
"","image-keyboard-response","225","162511","0.0-225.0","3BQU611VFQ6B6FT1Y764BERX7MX99Y","A25PFSORDO3SWQ","31ANT7FQN8OJYEBE2RCDNWOVYXNH57","","500","img/animal5.png","74","500","1","0","3","1,0.5,0,0,1,0.5,0.5,0,1",""
"","html-keyboard-response","226","162818","0.0-226.0","3BQU611VFQ6B6FT1Y764BERX7MX99Y","A25PFSORDO3SWQ","31ANT7FQN8OJYEBE2RCDNWOVYXNH57","","null","<img src=""img/animal5.png"" style=""width:200px;border:14px solid red;"">","null","","","","","",""
"","image-keyboard-response","227","163672","0.0-227.0","3BQU611VFQ6B6FT1Y764BERX7MX99Y","A25PFSORDO3SWQ","31ANT7FQN8OJYEBE2RCDNWOVYXNH57","","855","img/animal1.png","76","856","3","1","2","1,0.5,0,0,1,0.5,0.5,0,1",""
"","html-keyboard-response","228","163976","0.0-228.0","3BQU611VFQ6B6FT1Y764BERX7MX99Y","A25PFSORDO3SWQ","31ANT7FQN8OJYEBE2RCDNWOVYXNH57","","null","<img src=""img/animal1.png"" style=""width:200px; border:14px solid green;"">","null","","","","","",""
"","image-keyboard-response","229","164813","0.0-229.0","3BQU611VFQ6B6FT1Y764BERX7MX99Y","A25PFSORDO3SWQ","31ANT7FQN8OJYEBE2RCDNWOVYXNH57","","836","img/animal3.png","75","837","2","0","1","1,0.5,0,0,1,0.5,0.5,0,1",""
"","html-keyboard-response","230","165119","0.0-230.0","3BQU611VFQ6B6FT1Y764BERX7MX99Y","A25PFSORDO3SWQ","31ANT7FQN8OJYEBE2RCDNWOVYXNH57","","null","<img src=""img/animal3.png"" style=""width:200px;border:14px solid red;"">","null","","","","","",""
"","image-keyboard-response","231","165586","0.0-231.0","3BQU611VFQ6B6FT1Y764BERX7MX99Y","A25PFSORDO3SWQ","31ANT7FQN8OJYEBE2RCDNWOVYXNH57","","466","img/animal3.png","75","466","2","1","1","1,0.5,0,0,1,0.5,0.5,0,1",""
"","html-keyboard-response","232","165900","0.0-232.0","3BQU611VFQ6B6FT1Y764BERX7MX99Y","A25PFSORDO3SWQ","31ANT7FQN8OJYEBE2RCDNWOVYXNH57","","null","<img src=""img/animal3.png"" style=""width:200px; border:14px solid green;"">","null","","","","","",""
"","image-keyboard-response","233","166932","0.0-233.0","3BQU611VFQ6B6FT1Y764BERX7MX99Y","A25PFSORDO3SWQ","31ANT7FQN8OJYEBE2RCDNWOVYXNH57","","1029","img/animal1.png","76","1031","3","0","2","1,0.5,0,0,1,0.5,0.5,0,1",""
"","html-keyboard-response","234","167245","0.0-234.0","3BQU611VFQ6B6FT1Y764BERX7MX99Y","A25PFSORDO3SWQ","31ANT7FQN8OJYEBE2RCDNWOVYXNH57","","null","<img src=""img/animal1.png"" style=""width:200px;border:14px solid red;"">","null","","","","","",""
"","image-keyboard-response","235","168252","0.0-235.0","3BQU611VFQ6B6FT1Y764BERX7MX99Y","A25PFSORDO3SWQ","31ANT7FQN8OJYEBE2RCDNWOVYXNH57","","1005","img/animal5.png","74","1006","1","0","3","1,0.5,0,0,1,0.5,0.5,0,1",""
"","html-keyboard-response","236","168561","0.0-236.0","3BQU611VFQ6B6FT1Y764BERX7MX99Y","A25PFSORDO3SWQ","31ANT7FQN8OJYEBE2RCDNWOVYXNH57","","null","<img src=""img/animal5.png"" style=""width:200px;border:14px solid red;"">","null","","","","","",""
"","image-keyboard-response","237","169210","0.0-237.0","3BQU611VFQ6B6FT1Y764BERX7MX99Y","A25PFSORDO3SWQ","31ANT7FQN8OJYEBE2RCDNWOVYXNH57","","649","img/animal5.png","76","649","3","1","3","1,0.5,0,0,1,0.5,0.5,0,1",""
"","html-keyboard-response","238","169513","0.0-238.0","3BQU611VFQ6B6FT1Y764BERX7MX99Y","A25PFSORDO3SWQ","31ANT7FQN8OJYEBE2RCDNWOVYXNH57","","null","<img src=""img/animal5.png"" style=""width:200px; border:14px solid green;"">","null","","","","","",""
"","image-keyboard-response","239","169986","0.0-239.0","3BQU611VFQ6B6FT1Y764BERX7MX99Y","A25PFSORDO3SWQ","31ANT7FQN8OJYEBE2RCDNWOVYXNH57","","472","img/animal5.png","76","473","3","1","3","1,0.5,0,0,1,0.5,0.5,0,1",""
"","html-keyboard-response","240","170294","0.0-240.0","3BQU611VFQ6B6FT1Y764BERX7MX99Y","A25PFSORDO3SWQ","31ANT7FQN8OJYEBE2RCDNWOVYXNH57","","null","<img src=""img/animal5.png"" style=""width:200px; border:14px solid green;"">","null","","","","","",""
"","image-keyboard-response","241","171046","0.0-241.0","3BQU611VFQ6B6FT1Y764BERX7MX99Y","A25PFSORDO3SWQ","31ANT7FQN8OJYEBE2RCDNWOVYXNH57","","752","img/animal5.png","76","752","3","1","3","1,0.5,0,0,1,0.5,0.5,0,1",""
"","html-keyboard-response","242","171356","0.0-242.0","3BQU611VFQ6B6FT1Y764BERX7MX99Y","A25PFSORDO3SWQ","31ANT7FQN8OJYEBE2RCDNWOVYXNH57","","null","<img src=""img/animal5.png"" style=""width:200px; border:14px solid green;"">","null","","","","","",""
"","image-keyboard-response","243","171740","0.0-243.0","3BQU611VFQ6B6FT1Y764BERX7MX99Y","A25PFSORDO3SWQ","31ANT7FQN8OJYEBE2RCDNWOVYXNH57","","383","img/animal5.png","76","384","3","1","3","1,0.5,0,0,1,0.5,0.5,0,1",""
"","html-keyboard-response","244","172043","0.0-244.0","3BQU611VFQ6B6FT1Y764BERX7MX99Y","A25PFSORDO3SWQ","31ANT7FQN8OJYEBE2RCDNWOVYXNH57","","null","<img src=""img/animal5.png"" style=""width:200px; border:14px solid green;"">","null","","","","","",""
"","image-keyboard-response","245","172820","0.0-245.0","3BQU611VFQ6B6FT1Y764BERX7MX99Y","A25PFSORDO3SWQ","31ANT7FQN8OJYEBE2RCDNWOVYXNH57","","775","img/animal1.png","76","777","3","0","2","1,0.5,0,0,1,0.5,0.5,0,1",""
"","html-keyboard-response","246","173129","0.0-246.0","3BQU611VFQ6B6FT1Y764BERX7MX99Y","A25PFSORDO3SWQ","31ANT7FQN8OJYEBE2RCDNWOVYXNH57","","null","<img src=""img/animal1.png"" style=""width:200px;border:14px solid red;"">","null","","","","","",""
"","image-keyboard-response","247","173737","0.0-247.0","3BQU611VFQ6B6FT1Y764BERX7MX99Y","A25PFSORDO3SWQ","31ANT7FQN8OJYEBE2RCDNWOVYXNH57","","607","img/animal5.png","76","608","3","1","3","1,0.5,0,0,1,0.5,0.5,0,1",""
"","html-keyboard-response","248","174057","0.0-248.0","3BQU611VFQ6B6FT1Y764BERX7MX99Y","A25PFSORDO3SWQ","31ANT7FQN8OJYEBE2RCDNWOVYXNH57","","null","<img src=""img/animal5.png"" style=""width:200px; border:14px solid green;"">","null","","","","","",""
"","image-keyboard-response","249","174693","0.0-249.0","3BQU611VFQ6B6FT1Y764BERX7MX99Y","A25PFSORDO3SWQ","31ANT7FQN8OJYEBE2RCDNWOVYXNH57","","634","img/animal1.png","76","635","3","0","2","1,0.5,0,0,1,0.5,0.5,0,1",""
"","html-keyboard-response","250","174995","0.0-250.0","3BQU611VFQ6B6FT1Y764BERX7MX99Y","A25PFSORDO3SWQ","31ANT7FQN8OJYEBE2RCDNWOVYXNH57","","null","<img src=""img/animal1.png"" style=""width:200px;border:14px solid red;"">","null","","","","","",""
"","image-keyboard-response","251","175732","0.0-251.0","3BQU611VFQ6B6FT1Y764BERX7MX99Y","A25PFSORDO3SWQ","31ANT7FQN8OJYEBE2RCDNWOVYXNH57","","735","img/animal5.png","76","737","3","1","3","1,0.5,0,0,1,0.5,0.5,0,1",""
"","html-keyboard-response","252","176040","0.0-252.0","3BQU611VFQ6B6FT1Y764BERX7MX99Y","A25PFSORDO3SWQ","31ANT7FQN8OJYEBE2RCDNWOVYXNH57","","null","<img src=""img/animal5.png"" style=""width:200px; border:14px solid green;"">","null","","","","","",""
"","image-keyboard-response","253","176668","0.0-253.0","3BQU611VFQ6B6FT1Y764BERX7MX99Y","A25PFSORDO3SWQ","31ANT7FQN8OJYEBE2RCDNWOVYXNH57","","627","img/animal1.png","76","627","3","1","2","1,0.5,0,0,1,0.5,0.5,0,1",""
"","html-keyboard-response","254","176977","0.0-254.0","3BQU611VFQ6B6FT1Y764BERX7MX99Y","A25PFSORDO3SWQ","31ANT7FQN8OJYEBE2RCDNWOVYXNH57","","null","<img src=""img/animal1.png"" style=""width:200px; border:14px solid green;"">","null","","","","","",""
"","image-keyboard-response","255","177666","0.0-255.0","3BQU611VFQ6B6FT1Y764BERX7MX99Y","A25PFSORDO3SWQ","31ANT7FQN8OJYEBE2RCDNWOVYXNH57","","688","img/animal3.png","75","688","2","1","1","1,0.5,0,0,1,0.5,0.5,0,1",""
"","html-keyboard-response","256","177973","0.0-256.0","3BQU611VFQ6B6FT1Y764BERX7MX99Y","A25PFSORDO3SWQ","31ANT7FQN8OJYEBE2RCDNWOVYXNH57","","null","<img src=""img/animal3.png"" style=""width:200px; border:14px solid green;"">","null","","","","","",""
"","image-keyboard-response","257","178727","0.0-257.0","3BQU611VFQ6B6FT1Y764BERX7MX99Y","A25PFSORDO3SWQ","31ANT7FQN8OJYEBE2RCDNWOVYXNH57","","754","img/animal5.png","76","754","3","1","3","1,0.5,0,0,1,0.5,0.5,0,1",""
"","html-keyboard-response","258","179038","0.0-258.0","3BQU611VFQ6B6FT1Y764BERX7MX99Y","A25PFSORDO3SWQ","31ANT7FQN8OJYEBE2RCDNWOVYXNH57","","null","<img src=""img/animal5.png"" style=""width:200px; border:14px solid green;"">","null","","","","","",""
"","image-keyboard-response","259","179847","0.0-259.0","3BQU611VFQ6B6FT1Y764BERX7MX99Y","A25PFSORDO3SWQ","31ANT7FQN8OJYEBE2RCDNWOVYXNH57","","807","img/animal1.png","76","808","3","1","2","1,0.5,0,0,1,0.5,0.5,0,1",""
"","html-keyboard-response","260","180159","0.0-260.0","3BQU611VFQ6B6FT1Y764BERX7MX99Y","A25PFSORDO3SWQ","31ANT7FQN8OJYEBE2RCDNWOVYXNH57","","null","<img src=""img/animal1.png"" style=""width:200px; border:14px solid green;"">","null","","","","","",""
"","image-keyboard-response","261","180986","0.0-261.0","3BQU611VFQ6B6FT1Y764BERX7MX99Y","A25PFSORDO3SWQ","31ANT7FQN8OJYEBE2RCDNWOVYXNH57","","825","img/animal3.png","75","826","2","0","1","1,0.5,0,0,1,0.5,0.5,0,1",""
"","html-keyboard-response","262","181297","0.0-262.0","3BQU611VFQ6B6FT1Y764BERX7MX99Y","A25PFSORDO3SWQ","31ANT7FQN8OJYEBE2RCDNWOVYXNH57","","null","<img src=""img/animal3.png"" style=""width:200px;border:14px solid red;"">","null","","","","","",""
"","image-keyboard-response","263","182531","0.0-263.0","3BQU611VFQ6B6FT1Y764BERX7MX99Y","A25PFSORDO3SWQ","31ANT7FQN8OJYEBE2RCDNWOVYXNH57","","1232","img/animal1.png","76","1234","3","0","2","1,0.5,0,0,1,0.5,0.5,0,1",""
"","html-keyboard-response","264","182832","0.0-264.0","3BQU611VFQ6B6FT1Y764BERX7MX99Y","A25PFSORDO3SWQ","31ANT7FQN8OJYEBE2RCDNWOVYXNH57","","null","<img src=""img/animal1.png"" style=""width:200px;border:14px solid red;"">","null","","","","","",""
"","image-keyboard-response","265","183430","0.0-265.0","3BQU611VFQ6B6FT1Y764BERX7MX99Y","A25PFSORDO3SWQ","31ANT7FQN8OJYEBE2RCDNWOVYXNH57","","596","img/animal5.png","76","597","3","1","3","1,0.5,0,0,1,0.5,0.5,0,1",""
"","html-keyboard-response","266","183737","0.0-266.0","3BQU611VFQ6B6FT1Y764BERX7MX99Y","A25PFSORDO3SWQ","31ANT7FQN8OJYEBE2RCDNWOVYXNH57","","null","<img src=""img/animal5.png"" style=""width:200px; border:14px solid green;"">","null","","","","","",""
"","image-keyboard-response","267","184446","0.0-267.0","3BQU611VFQ6B6FT1Y764BERX7MX99Y","A25PFSORDO3SWQ","31ANT7FQN8OJYEBE2RCDNWOVYXNH57","","708","img/animal1.png","76","709","3","0","2","1,0.5,0,0,1,0.5,0.5,0,1",""
"","html-keyboard-response","268","184752","0.0-268.0","3BQU611VFQ6B6FT1Y764BERX7MX99Y","A25PFSORDO3SWQ","31ANT7FQN8OJYEBE2RCDNWOVYXNH57","","null","<img src=""img/animal1.png"" style=""width:200px;border:14px solid red;"">","null","","","","","",""
"","image-keyboard-response","269","185730","0.0-269.0","3BQU611VFQ6B6FT1Y764BERX7MX99Y","A25PFSORDO3SWQ","31ANT7FQN8OJYEBE2RCDNWOVYXNH57","","977","img/animal5.png","76","978","3","1","3","1,0.5,0,0,1,0.5,0.5,0,1",""
"","html-keyboard-response","270","186036","0.0-270.0","3BQU611VFQ6B6FT1Y764BERX7MX99Y","A25PFSORDO3SWQ","31ANT7FQN8OJYEBE2RCDNWOVYXNH57","","null","<img src=""img/animal5.png"" style=""width:200px; border:14px solid green;"">","null","","","","","",""
"","image-keyboard-response","271","186565","0.0-271.0","3BQU611VFQ6B6FT1Y764BERX7MX99Y","A25PFSORDO3SWQ","31ANT7FQN8OJYEBE2RCDNWOVYXNH57","","529","img/animal1.png","76","529","3","0","2","1,0.5,0,0,1,0.5,0.5,0,1",""
"","html-keyboard-response","272","186868","0.0-272.0","3BQU611VFQ6B6FT1Y764BERX7MX99Y","A25PFSORDO3SWQ","31ANT7FQN8OJYEBE2RCDNWOVYXNH57","","null","<img src=""img/animal1.png"" style=""width:200px;border:14px solid red;"">","null","","","","","",""
"","image-keyboard-response","273","187463","0.0-273.0","3BQU611VFQ6B6FT1Y764BERX7MX99Y","A25PFSORDO3SWQ","31ANT7FQN8OJYEBE2RCDNWOVYXNH57","","593","img/animal5.png","76","594","3","1","3","1,0.5,0,0,1,0.5,0.5,0,1",""
"","html-keyboard-response","274","187777","0.0-274.0","3BQU611VFQ6B6FT1Y764BERX7MX99Y","A25PFSORDO3SWQ","31ANT7FQN8OJYEBE2RCDNWOVYXNH57","","null","<img src=""img/animal5.png"" style=""width:200px; border:14px solid green;"">","null","","","","","",""
"","image-keyboard-response","275","188500","0.0-275.0","3BQU611VFQ6B6FT1Y764BERX7MX99Y","A25PFSORDO3SWQ","31ANT7FQN8OJYEBE2RCDNWOVYXNH57","","722","img/animal3.png","75","724","2","0","1","1,0.5,0,0,1,0.5,0.5,0,1",""
"","html-keyboard-response","276","188810","0.0-276.0","3BQU611VFQ6B6FT1Y764BERX7MX99Y","A25PFSORDO3SWQ","31ANT7FQN8OJYEBE2RCDNWOVYXNH57","","null","<img src=""img/animal3.png"" style=""width:200px;border:14px solid red;"">","null","","","","","",""
"","image-keyboard-response","277","189337","0.0-277.0","3BQU611VFQ6B6FT1Y764BERX7MX99Y","A25PFSORDO3SWQ","31ANT7FQN8OJYEBE2RCDNWOVYXNH57","","526","img/animal3.png","75","527","2","1","1","1,0.5,0,0,1,0.5,0.5,0,1",""
"","html-keyboard-response","278","189643","0.0-278.0","3BQU611VFQ6B6FT1Y764BERX7MX99Y","A25PFSORDO3SWQ","31ANT7FQN8OJYEBE2RCDNWOVYXNH57","","null","<img src=""img/animal3.png"" style=""width:200px; border:14px solid green;"">","null","","","","","",""
"","image-keyboard-response","279","190355","0.0-279.0","3BQU611VFQ6B6FT1Y764BERX7MX99Y","A25PFSORDO3SWQ","31ANT7FQN8OJYEBE2RCDNWOVYXNH57","","711","img/animal3.png","75","711","2","0","1","1,0.5,0,0,1,0.5,0.5,0,1",""
"","html-keyboard-response","280","190657","0.0-280.0","3BQU611VFQ6B6FT1Y764BERX7MX99Y","A25PFSORDO3SWQ","31ANT7FQN8OJYEBE2RCDNWOVYXNH57","","null","<img src=""img/animal3.png"" style=""width:200px;border:14px solid red;"">","null","","","","","",""
"","image-keyboard-response","281","191233","0.0-281.0","3BQU611VFQ6B6FT1Y764BERX7MX99Y","A25PFSORDO3SWQ","31ANT7FQN8OJYEBE2RCDNWOVYXNH57","","575","img/animal3.png","75","576","2","0","1","1,0.5,0,0,1,0.5,0.5,0,1",""
"","html-keyboard-response","282","191548","0.0-282.0","3BQU611VFQ6B6FT1Y764BERX7MX99Y","A25PFSORDO3SWQ","31ANT7FQN8OJYEBE2RCDNWOVYXNH57","","null","<img src=""img/animal3.png"" style=""width:200px;border:14px solid red;"">","null","","","","","",""
"","image-keyboard-response","283","193509","0.0-283.0","3BQU611VFQ6B6FT1Y764BERX7MX99Y","A25PFSORDO3SWQ","31ANT7FQN8OJYEBE2RCDNWOVYXNH57","","1959","img/animal1.png","75","1960","2","1","2","1,0.5,0,0,1,0.5,0.5,0,1",""
"","html-keyboard-response","284","193810","0.0-284.0","3BQU611VFQ6B6FT1Y764BERX7MX99Y","A25PFSORDO3SWQ","31ANT7FQN8OJYEBE2RCDNWOVYXNH57","","null","<img src=""img/animal1.png"" style=""width:200px; border:14px solid green;"">","null","","","","","",""
"","image-keyboard-response","285","194746","0.0-285.0","3BQU611VFQ6B6FT1Y764BERX7MX99Y","A25PFSORDO3SWQ","31ANT7FQN8OJYEBE2RCDNWOVYXNH57","","935","img/animal3.png","74","935","1","1","1","1,0.5,0,0,1,0.5,0.5,0,1",""
"","html-keyboard-response","286","195057","0.0-286.0","3BQU611VFQ6B6FT1Y764BERX7MX99Y","A25PFSORDO3SWQ","31ANT7FQN8OJYEBE2RCDNWOVYXNH57","","null","<img src=""img/animal3.png"" style=""width:200px; border:14px solid green;"">","null","","","","","",""
"","image-keyboard-response","287","197205","0.0-287.0","3BQU611VFQ6B6FT1Y764BERX7MX99Y","A25PFSORDO3SWQ","31ANT7FQN8OJYEBE2RCDNWOVYXNH57","","2148","img/animal1.png","76","2148","3","0","2","1,0.5,0,0,1,0.5,0.5,0,1",""
"","html-keyboard-response","288","197511","0.0-288.0","3BQU611VFQ6B6FT1Y764BERX7MX99Y","A25PFSORDO3SWQ","31ANT7FQN8OJYEBE2RCDNWOVYXNH57","","null","<img src=""img/animal1.png"" style=""width:200px;border:14px solid red;"">","null","","","","","",""
"","image-keyboard-response","289","198547","0.0-289.0","3BQU611VFQ6B6FT1Y764BERX7MX99Y","A25PFSORDO3SWQ","31ANT7FQN8OJYEBE2RCDNWOVYXNH57","","1035","img/animal3.png","74","1035","1","1","1","1,0.5,0,0,1,0.5,0.5,0,1",""
"","html-keyboard-response","290","198849","0.0-290.0","3BQU611VFQ6B6FT1Y764BERX7MX99Y","A25PFSORDO3SWQ","31ANT7FQN8OJYEBE2RCDNWOVYXNH57","","null","<img src=""img/animal3.png"" style=""width:200px; border:14px solid green;"">","null","","","","","",""
"","image-keyboard-response","291","199402","0.0-291.0","3BQU611VFQ6B6FT1Y764BERX7MX99Y","A25PFSORDO3SWQ","31ANT7FQN8OJYEBE2RCDNWOVYXNH57","","551","img/animal1.png","76","553","3","1","2","1,0.5,0,0,1,0.5,0.5,0,1",""
"","html-keyboard-response","292","199711","0.0-292.0","3BQU611VFQ6B6FT1Y764BERX7MX99Y","A25PFSORDO3SWQ","31ANT7FQN8OJYEBE2RCDNWOVYXNH57","","null","<img src=""img/animal1.png"" style=""width:200px; border:14px solid green;"">","null","","","","","",""
"","image-keyboard-response","293","200297","0.0-293.0","3BQU611VFQ6B6FT1Y764BERX7MX99Y","A25PFSORDO3SWQ","31ANT7FQN8OJYEBE2RCDNWOVYXNH57","","586","img/animal1.png","76","586","3","0","2","1,0.5,0,0,1,0.5,0.5,0,1",""
"","html-keyboard-response","294","200599","0.0-294.0","3BQU611VFQ6B6FT1Y764BERX7MX99Y","A25PFSORDO3SWQ","31ANT7FQN8OJYEBE2RCDNWOVYXNH57","","null","<img src=""img/animal1.png"" style=""width:200px;border:14px solid red;"">","null","","","","","",""
"","image-keyboard-response","295","200993","0.0-295.0","3BQU611VFQ6B6FT1Y764BERX7MX99Y","A25PFSORDO3SWQ","31ANT7FQN8OJYEBE2RCDNWOVYXNH57","","394","img/animal1.png","76","394","3","0","2","1,0.5,0,0,1,0.5,0.5,0,1",""
"","html-keyboard-response","296","201304","0.0-296.0","3BQU611VFQ6B6FT1Y764BERX7MX99Y","A25PFSORDO3SWQ","31ANT7FQN8OJYEBE2RCDNWOVYXNH57","","null","<img src=""img/animal1.png"" style=""width:200px;border:14px solid red;"">","null","","","","","",""
"","image-keyboard-response","297","201606","0.0-297.0","3BQU611VFQ6B6FT1Y764BERX7MX99Y","A25PFSORDO3SWQ","31ANT7FQN8OJYEBE2RCDNWOVYXNH57","","301","img/animal1.png","76","302","3","1","2","1,0.5,0,0,1,0.5,0.5,0,1",""
"","html-keyboard-response","298","201915","0.0-298.0","3BQU611VFQ6B6FT1Y764BERX7MX99Y","A25PFSORDO3SWQ","31ANT7FQN8OJYEBE2RCDNWOVYXNH57","","null","<img src=""img/animal1.png"" style=""width:200px; border:14px solid green;"">","null","","","","","",""
"","image-keyboard-response","299","202300","0.0-299.0","3BQU611VFQ6B6FT1Y764BERX7MX99Y","A25PFSORDO3SWQ","31ANT7FQN8OJYEBE2RCDNWOVYXNH57","","385","img/animal1.png","76","386","3","0","2","1,0.5,0,0,1,0.5,0.5,0,1",""
"","html-keyboard-response","300","202603","0.0-300.0","3BQU611VFQ6B6FT1Y764BERX7MX99Y","A25PFSORDO3SWQ","31ANT7FQN8OJYEBE2RCDNWOVYXNH57","","null","<img src=""img/animal1.png"" style=""width:200px;border:14px solid red;"">","null","","","","","",""
"","image-keyboard-response","301","203175","0.0-301.0","3BQU611VFQ6B6FT1Y764BERX7MX99Y","A25PFSORDO3SWQ","31ANT7FQN8OJYEBE2RCDNWOVYXNH57","","571","img/animal5.png","76","571","3","1","3","1,0.5,0,0,1,0.5,0.5,0,1",""
"","html-keyboard-response","302","203490","0.0-302.0","3BQU611VFQ6B6FT1Y764BERX7MX99Y","A25PFSORDO3SWQ","31ANT7FQN8OJYEBE2RCDNWOVYXNH57","","null","<img src=""img/animal5.png"" style=""width:200px; border:14px solid green;"">","null","","","","","",""
"","image-keyboard-response","303","204657","0.0-303.0","3BQU611VFQ6B6FT1Y764BERX7MX99Y","A25PFSORDO3SWQ","31ANT7FQN8OJYEBE2RCDNWOVYXNH57","","1167","img/animal3.png","74","1168","1","1","1","1,0.5,0,0,1,0.5,0.5,0,1",""
"","html-keyboard-response","304","204960","0.0-304.0","3BQU611VFQ6B6FT1Y764BERX7MX99Y","A25PFSORDO3SWQ","31ANT7FQN8OJYEBE2RCDNWOVYXNH57","","null","<img src=""img/animal3.png"" style=""width:200px; border:14px solid green;"">","null","","","","","",""
"","image-keyboard-response","305","205577","0.0-305.0","3BQU611VFQ6B6FT1Y764BERX7MX99Y","A25PFSORDO3SWQ","31ANT7FQN8OJYEBE2RCDNWOVYXNH57","","615","img/animal5.png","76","616","3","1","3","1,0.5,0,0,1,0.5,0.5,0,1",""
"","html-keyboard-response","306","205880","0.0-306.0","3BQU611VFQ6B6FT1Y764BERX7MX99Y","A25PFSORDO3SWQ","31ANT7FQN8OJYEBE2RCDNWOVYXNH57","","null","<img src=""img/animal5.png"" style=""width:200px; border:14px solid green;"">","null","","","","","",""
"","image-keyboard-response","307","206373","0.0-307.0","3BQU611VFQ6B6FT1Y764BERX7MX99Y","A25PFSORDO3SWQ","31ANT7FQN8OJYEBE2RCDNWOVYXNH57","","493","img/animal1.png","76","493","3","1","2","1,0.5,0,0,1,0.5,0.5,0,1",""
"","html-keyboard-response","308","206677","0.0-308.0","3BQU611VFQ6B6FT1Y764BERX7MX99Y","A25PFSORDO3SWQ","31ANT7FQN8OJYEBE2RCDNWOVYXNH57","","null","<img src=""img/animal1.png"" style=""width:200px; border:14px solid green;"">","null","","","","","",""
"","image-keyboard-response","309","207188","0.0-309.0","3BQU611VFQ6B6FT1Y764BERX7MX99Y","A25PFSORDO3SWQ","31ANT7FQN8OJYEBE2RCDNWOVYXNH57","","510","img/animal5.png","76","511","3","1","3","1,0.5,0,0,1,0.5,0.5,0,1",""
"","html-keyboard-response","310","207509","0.0-310.0","3BQU611VFQ6B6FT1Y764BERX7MX99Y","A25PFSORDO3SWQ","31ANT7FQN8OJYEBE2RCDNWOVYXNH57","","null","<img src=""img/animal5.png"" style=""width:200px; border:14px solid green;"">","null","","","","","",""
"","image-keyboard-response","311","208123","0.0-311.0","3BQU611VFQ6B6FT1Y764BERX7MX99Y","A25PFSORDO3SWQ","31ANT7FQN8OJYEBE2RCDNWOVYXNH57","","613","img/animal1.png","76","614","3","0","2","1,0.5,0,0,1,0.5,0.5,0,1",""
"","html-keyboard-response","312","208430","0.0-312.0","3BQU611VFQ6B6FT1Y764BERX7MX99Y","A25PFSORDO3SWQ","31ANT7FQN8OJYEBE2RCDNWOVYXNH57","","null","<img src=""img/animal1.png"" style=""width:200px;border:14px solid red;"">","null","","","","","",""
"","image-keyboard-response","313","209021","0.0-313.0","3BQU611VFQ6B6FT1Y764BERX7MX99Y","A25PFSORDO3SWQ","31ANT7FQN8OJYEBE2RCDNWOVYXNH57","","589","img/animal3.png","76","590","3","0","1","1,0.5,0,0,1,0.5,0.5,0,1",""
"","html-keyboard-response","314","209336","0.0-314.0","3BQU611VFQ6B6FT1Y764BERX7MX99Y","A25PFSORDO3SWQ","31ANT7FQN8OJYEBE2RCDNWOVYXNH57","","null","<img src=""img/animal3.png"" style=""width:200px;border:14px solid red;"">","null","","","","","",""
"","image-keyboard-response","315","210116","0.0-315.0","3BQU611VFQ6B6FT1Y764BERX7MX99Y","A25PFSORDO3SWQ","31ANT7FQN8OJYEBE2RCDNWOVYXNH57","","779","img/animal3.png","74","779","1","1","1","1,0.5,0,0,1,0.5,0.5,0,1",""
"","html-keyboard-response","316","210428","0.0-316.0","3BQU611VFQ6B6FT1Y764BERX7MX99Y","A25PFSORDO3SWQ","31ANT7FQN8OJYEBE2RCDNWOVYXNH57","","null","<img src=""img/animal3.png"" style=""width:200px; border:14px solid green;"">","null","","","","","",""
"","image-keyboard-response","317","210954","0.0-317.0","3BQU611VFQ6B6FT1Y764BERX7MX99Y","A25PFSORDO3SWQ","31ANT7FQN8OJYEBE2RCDNWOVYXNH57","","524","img/animal3.png","74","525","1","1","1","1,0.5,0,0,1,0.5,0.5,0,1",""
"","html-keyboard-response","318","211257","0.0-318.0","3BQU611VFQ6B6FT1Y764BERX7MX99Y","A25PFSORDO3SWQ","31ANT7FQN8OJYEBE2RCDNWOVYXNH57","","null","<img src=""img/animal3.png"" style=""width:200px; border:14px solid green;"">","null","","","","","",""
"","image-keyboard-response","319","211628","0.0-319.0","3BQU611VFQ6B6FT1Y764BERX7MX99Y","A25PFSORDO3SWQ","31ANT7FQN8OJYEBE2RCDNWOVYXNH57","","370","img/animal3.png","74","371","1","1","1","1,0.5,0,0,1,0.5,0.5,0,1",""
"","html-keyboard-response","320","211931","0.0-320.0","3BQU611VFQ6B6FT1Y764BERX7MX99Y","A25PFSORDO3SWQ","31ANT7FQN8OJYEBE2RCDNWOVYXNH57","","null","<img src=""img/animal3.png"" style=""width:200px; border:14px solid green;"">","null","","","","","",""
"","image-keyboard-response","321","213617","0.0-321.0","3BQU611VFQ6B6FT1Y764BERX7MX99Y","A25PFSORDO3SWQ","31ANT7FQN8OJYEBE2RCDNWOVYXNH57","","1686","img/animal5.png","76","1687","3","1","3","1,0.5,0,0,1,0.5,0.5,0,1",""
"","html-keyboard-response","322","213920","0.0-322.0","3BQU611VFQ6B6FT1Y764BERX7MX99Y","A25PFSORDO3SWQ","31ANT7FQN8OJYEBE2RCDNWOVYXNH57","","null","<img src=""img/animal5.png"" style=""width:200px; border:14px solid green;"">","null","","","","","",""
"","image-keyboard-response","323","214411","0.0-323.0","3BQU611VFQ6B6FT1Y764BERX7MX99Y","A25PFSORDO3SWQ","31ANT7FQN8OJYEBE2RCDNWOVYXNH57","","491","img/animal5.png","76","492","3","1","3","1,0.5,0,0,1,0.5,0.5,0,1",""
"","html-keyboard-response","324","214716","0.0-324.0","3BQU611VFQ6B6FT1Y764BERX7MX99Y","A25PFSORDO3SWQ","31ANT7FQN8OJYEBE2RCDNWOVYXNH57","","null","<img src=""img/animal5.png"" style=""width:200px; border:14px solid green;"">","null","","","","","",""
"","image-keyboard-response","325","215450","0.0-325.0","3BQU611VFQ6B6FT1Y764BERX7MX99Y","A25PFSORDO3SWQ","31ANT7FQN8OJYEBE2RCDNWOVYXNH57","","732","img/animal1.png","76","732","3","0","2","1,0.5,0,0,1,0.5,0.5,0,1",""
"","html-keyboard-response","326","215752","0.0-326.0","3BQU611VFQ6B6FT1Y764BERX7MX99Y","A25PFSORDO3SWQ","31ANT7FQN8OJYEBE2RCDNWOVYXNH57","","null","<img src=""img/animal1.png"" style=""width:200px;border:14px solid red;"">","null","","","","","",""
"","image-keyboard-response","327","216427","0.0-327.0","3BQU611VFQ6B6FT1Y764BERX7MX99Y","A25PFSORDO3SWQ","31ANT7FQN8OJYEBE2RCDNWOVYXNH57","","676","img/animal5.png","76","676","3","1","3","1,0.5,0,0,1,0.5,0.5,0,1",""
"","html-keyboard-response","328","216733","0.0-328.0","3BQU611VFQ6B6FT1Y764BERX7MX99Y","A25PFSORDO3SWQ","31ANT7FQN8OJYEBE2RCDNWOVYXNH57","","null","<img src=""img/animal5.png"" style=""width:200px; border:14px solid green;"">","null","","","","","",""
"","image-keyboard-response","329","217344","0.0-329.0","3BQU611VFQ6B6FT1Y764BERX7MX99Y","A25PFSORDO3SWQ","31ANT7FQN8OJYEBE2RCDNWOVYXNH57","","610","img/animal5.png","76","611","3","1","3","1,0.5,0,0,1,0.5,0.5,0,1",""
"","html-keyboard-response","330","217657","0.0-330.0","3BQU611VFQ6B6FT1Y764BERX7MX99Y","A25PFSORDO3SWQ","31ANT7FQN8OJYEBE2RCDNWOVYXNH57","","null","<img src=""img/animal5.png"" style=""width:200px; border:14px solid green;"">","null","","","","","",""
"","image-keyboard-response","331","218460","0.0-331.0","3BQU611VFQ6B6FT1Y764BERX7MX99Y","A25PFSORDO3SWQ","31ANT7FQN8OJYEBE2RCDNWOVYXNH57","","801","img/animal3.png","74","802","1","1","1","1,0.5,0,0,1,0.5,0.5,0,1",""
"","html-keyboard-response","332","218770","0.0-332.0","3BQU611VFQ6B6FT1Y764BERX7MX99Y","A25PFSORDO3SWQ","31ANT7FQN8OJYEBE2RCDNWOVYXNH57","","null","<img src=""img/animal3.png"" style=""width:200px; border:14px solid green;"">","null","","","","","",""
"","image-keyboard-response","333","219336","0.0-333.0","3BQU611VFQ6B6FT1Y764BERX7MX99Y","A25PFSORDO3SWQ","31ANT7FQN8OJYEBE2RCDNWOVYXNH57","","564","img/animal3.png","74","565","1","1","1","1,0.5,0,0,1,0.5,0.5,0,1",""
"","html-keyboard-response","334","219645","0.0-334.0","3BQU611VFQ6B6FT1Y764BERX7MX99Y","A25PFSORDO3SWQ","31ANT7FQN8OJYEBE2RCDNWOVYXNH57","","null","<img src=""img/animal3.png"" style=""width:200px; border:14px solid green;"">","null","","","","","",""
"","image-keyboard-response","335","220028","0.0-335.0","3BQU611VFQ6B6FT1Y764BERX7MX99Y","A25PFSORDO3SWQ","31ANT7FQN8OJYEBE2RCDNWOVYXNH57","","382","img/animal3.png","74","382","1","1","1","1,0.5,0,0,1,0.5,0.5,0,1",""
"","html-keyboard-response","336","220329","0.0-336.0","3BQU611VFQ6B6FT1Y764BERX7MX99Y","A25PFSORDO3SWQ","31ANT7FQN8OJYEBE2RCDNWOVYXNH57","","null","<img src=""img/animal3.png"" style=""width:200px; border:14px solid green;"">","null","","","","","",""
"","image-keyboard-response","337","220803","0.0-337.0","3BQU611VFQ6B6FT1Y764BERX7MX99Y","A25PFSORDO3SWQ","31ANT7FQN8OJYEBE2RCDNWOVYXNH57","","472","img/animal3.png","74","475","1","1","1","1,0.5,0,0,1,0.5,0.5,0,1",""
"","html-keyboard-response","338","221108","0.0-338.0","3BQU611VFQ6B6FT1Y764BERX7MX99Y","A25PFSORDO3SWQ","31ANT7FQN8OJYEBE2RCDNWOVYXNH57","","null","<img src=""img/animal3.png"" style=""width:200px; border:14px solid green;"">","null","","","","","",""
"","image-keyboard-response","339","222227","0.0-339.0","3BQU611VFQ6B6FT1Y764BERX7MX99Y","A25PFSORDO3SWQ","31ANT7FQN8OJYEBE2RCDNWOVYXNH57","","1119","img/animal5.png","76","1119","3","1","3","1,0.5,0,0,1,0.5,0.5,0,1",""
"","html-keyboard-response","340","222530","0.0-340.0","3BQU611VFQ6B6FT1Y764BERX7MX99Y","A25PFSORDO3SWQ","31ANT7FQN8OJYEBE2RCDNWOVYXNH57","","null","<img src=""img/animal5.png"" style=""width:200px; border:14px solid green;"">","null","","","","","",""
"","image-keyboard-response","341","223042","0.0-341.0","3BQU611VFQ6B6FT1Y764BERX7MX99Y","A25PFSORDO3SWQ","31ANT7FQN8OJYEBE2RCDNWOVYXNH57","","512","img/animal1.png","76","512","3","0","2","1,0.5,0,0,1,0.5,0.5,0,1",""
"","html-keyboard-response","342","223348","0.0-342.0","3BQU611VFQ6B6FT1Y764BERX7MX99Y","A25PFSORDO3SWQ","31ANT7FQN8OJYEBE2RCDNWOVYXNH57","","null","<img src=""img/animal1.png"" style=""width:200px;border:14px solid red;"">","null","","","","","",""
"","image-keyboard-response","343","224524","0.0-343.0","3BQU611VFQ6B6FT1Y764BERX7MX99Y","A25PFSORDO3SWQ","31ANT7FQN8OJYEBE2RCDNWOVYXNH57","","1175","img/animal5.png","74","1176","1","1","3","1,0.5,0,0,1,0.5,0.5,0,1",""
"","html-keyboard-response","344","224836","0.0-344.0","3BQU611VFQ6B6FT1Y764BERX7MX99Y","A25PFSORDO3SWQ","31ANT7FQN8OJYEBE2RCDNWOVYXNH57","","null","<img src=""img/animal5.png"" style=""width:200px; border:14px solid green;"">","null","","","","","",""
"","image-keyboard-response","345","225646","0.0-345.0","3BQU611VFQ6B6FT1Y764BERX7MX99Y","A25PFSORDO3SWQ","31ANT7FQN8OJYEBE2RCDNWOVYXNH57","","808","img/animal1.png","75","810","2","1","2","1,0.5,0,0,1,0.5,0.5,0,1",""
"","html-keyboard-response","346","225961","0.0-346.0","3BQU611VFQ6B6FT1Y764BERX7MX99Y","A25PFSORDO3SWQ","31ANT7FQN8OJYEBE2RCDNWOVYXNH57","","null","<img src=""img/animal1.png"" style=""width:200px; border:14px solid green;"">","null","","","","","",""
"","image-keyboard-response","347","227086","0.0-347.0","3BQU611VFQ6B6FT1Y764BERX7MX99Y","A25PFSORDO3SWQ","31ANT7FQN8OJYEBE2RCDNWOVYXNH57","","1124","img/animal3.png","74","1125","1","1","1","1,0.5,0,0,1,0.5,0.5,0,1",""
"","html-keyboard-response","348","227392","0.0-348.0","3BQU611VFQ6B6FT1Y764BERX7MX99Y","A25PFSORDO3SWQ","31ANT7FQN8OJYEBE2RCDNWOVYXNH57","","null","<img src=""img/animal3.png"" style=""width:200px; border:14px solid green;"">","null","","","","","",""
"","image-keyboard-response","349","228411","0.0-349.0","3BQU611VFQ6B6FT1Y764BERX7MX99Y","A25PFSORDO3SWQ","31ANT7FQN8OJYEBE2RCDNWOVYXNH57","","1018","img/animal5.png","76","1020","3","1","3","1,0.5,0,0,1,0.5,0.5,0,1",""
"","html-keyboard-response","350","228725","0.0-350.0","3BQU611VFQ6B6FT1Y764BERX7MX99Y","A25PFSORDO3SWQ","31ANT7FQN8OJYEBE2RCDNWOVYXNH57","","null","<img src=""img/animal5.png"" style=""width:200px; border:14px solid green;"">","null","","","","","",""
"","image-keyboard-response","351","229246","0.0-351.0","3BQU611VFQ6B6FT1Y764BERX7MX99Y","A25PFSORDO3SWQ","31ANT7FQN8OJYEBE2RCDNWOVYXNH57","","520","img/animal5.png","76","521","3","1","3","1,0.5,0,0,1,0.5,0.5,0,1",""
"","html-keyboard-response","352","229559","0.0-352.0","3BQU611VFQ6B6FT1Y764BERX7MX99Y","A25PFSORDO3SWQ","31ANT7FQN8OJYEBE2RCDNWOVYXNH57","","null","<img src=""img/animal5.png"" style=""width:200px; border:14px solid green;"">","null","","","","","",""
"","image-keyboard-response","353","230242","0.0-353.0","3BQU611VFQ6B6FT1Y764BERX7MX99Y","A25PFSORDO3SWQ","31ANT7FQN8OJYEBE2RCDNWOVYXNH57","","682","img/animal1.png","75","682","2","1","2","1,0.5,0,0,1,0.5,0.5,0,1",""
"","html-keyboard-response","354","230546","0.0-354.0","3BQU611VFQ6B6FT1Y764BERX7MX99Y","A25PFSORDO3SWQ","31ANT7FQN8OJYEBE2RCDNWOVYXNH57","","null","<img src=""img/animal1.png"" style=""width:200px; border:14px solid green;"">","null","","","","","",""
"","image-keyboard-response","355","231058","0.0-355.0","3BQU611VFQ6B6FT1Y764BERX7MX99Y","A25PFSORDO3SWQ","31ANT7FQN8OJYEBE2RCDNWOVYXNH57","","510","img/animal1.png","75","512","2","1","2","1,0.5,0,0,1,0.5,0.5,0,1",""
"","html-keyboard-response","356","231363","0.0-356.0","3BQU611VFQ6B6FT1Y764BERX7MX99Y","A25PFSORDO3SWQ","31ANT7FQN8OJYEBE2RCDNWOVYXNH57","","null","<img src=""img/animal1.png"" style=""width:200px; border:14px solid green;"">","null","","","","","",""
"","image-keyboard-response","357","231772","0.0-357.0","3BQU611VFQ6B6FT1Y764BERX7MX99Y","A25PFSORDO3SWQ","31ANT7FQN8OJYEBE2RCDNWOVYXNH57","","408","img/animal1.png","75","409","2","1","2","1,0.5,0,0,1,0.5,0.5,0,1",""
"","html-keyboard-response","358","232085","0.0-358.0","3BQU611VFQ6B6FT1Y764BERX7MX99Y","A25PFSORDO3SWQ","31ANT7FQN8OJYEBE2RCDNWOVYXNH57","","null","<img src=""img/animal1.png"" style=""width:200px; border:14px solid green;"">","null","","","","","",""
"","image-keyboard-response","359","232426","0.0-359.0","3BQU611VFQ6B6FT1Y764BERX7MX99Y","A25PFSORDO3SWQ","31ANT7FQN8OJYEBE2RCDNWOVYXNH57","","339","img/animal1.png","75","341","2","1","2","1,0.5,0,0,1,0.5,0.5,0,1",""
"","html-keyboard-response","360","232742","0.0-360.0","3BQU611VFQ6B6FT1Y764BERX7MX99Y","A25PFSORDO3SWQ","31ANT7FQN8OJYEBE2RCDNWOVYXNH57","","null","<img src=""img/animal1.png"" style=""width:200px; border:14px solid green;"">","null","","","","","",""
"","image-keyboard-response","361","233100","0.0-361.0","3BQU611VFQ6B6FT1Y764BERX7MX99Y","A25PFSORDO3SWQ","31ANT7FQN8OJYEBE2RCDNWOVYXNH57","","357","img/animal1.png","75","357","2","1","2","1,0.5,0,0,1,0.5,0.5,0,1",""
"","html-keyboard-response","362","233413","0.0-362.0","3BQU611VFQ6B6FT1Y764BERX7MX99Y","A25PFSORDO3SWQ","31ANT7FQN8OJYEBE2RCDNWOVYXNH57","","null","<img src=""img/animal1.png"" style=""width:200px; border:14px solid green;"">","null","","","","","",""
"","instructions","363","243030","0.0-363.0","3BQU611VFQ6B6FT1Y764BERX7MX99Y","A25PFSORDO3SWQ","31ANT7FQN8OJYEBE2RCDNWOVYXNH57","[{""page_index"":0,""viewing_time"":9615}]","9615","","","","","","","",""
"","survey-text","364","258447","0.0-364.0","3BQU611VFQ6B6FT1Y764BERX7MX99Y","A25PFSORDO3SWQ","31ANT7FQN8OJYEBE2RCDNWOVYXNH57","","15415","","","","","","","","{""Q0"":""A25PFSORDO3SWQ""}"
