"success","trial_type","trial_index","time_elapsed","internal_node_id","assignmentID","mturkID","hitID","view_history","rt","stimulus","key_press","reactionTime","a","r","s","reward_cond","responses"
"true","fullscreen","0","2336","0.0-0.0","3ERMJ6L4DZEMZGO28JCP246BCVHM7Z","A29N5E8YC6DB9Q","30F94FBDNR6BS3JI3VKF41RBJN4TBU","","","","","","","","","",""
"","instructions","1","17133","0.0-1.0","3ERMJ6L4DZEMZGO28JCP246BCVHM7Z","A29N5E8YC6DB9Q","30F94FBDNR6BS3JI3VKF41RBJN4TBU","[{""page_index"":0,""viewing_time"":1626.0999999996275},{""page_index"":1,""viewing_time"":1231.6000000014901},{""page_index"":2,""viewing_time"":440},{""page_index"":3,""viewing_time"":5632.0999999996275},{""page_index"":4,""viewing_time"":1951.9000000003725},{""page_index"":5,""viewing_time"":1000},{""page_index"":6,""viewing_time"":1967.8999999985099},{""page_index"":7,""viewing_time"":944}]","14794.5","","","","","","","",""
"","image-keyboard-response","2","18265","0.0-2.0","3ERMJ6L4DZEMZGO28JCP246BCVHM7Z","A29N5E8YC6DB9Q","30F94FBDNR6BS3JI3VKF41RBJN4TBU","","1129.9000000003725","img/animal6.png","74","1131.7000000011176","1","1","2","1,0.5,0,1,0.5,0,0.5,0,1",""
"","html-keyboard-response","3","18575","0.0-3.0","3ERMJ6L4DZEMZGO28JCP246BCVHM7Z","A29N5E8YC6DB9Q","30F94FBDNR6BS3JI3VKF41RBJN4TBU","","null","<img src=""img/animal6.png"" style=""width:200px; border:14px solid green;"">","null","","","","","",""
"","image-keyboard-response","4","19936","0.0-4.0","3ERMJ6L4DZEMZGO28JCP246BCVHM7Z","A29N5E8YC6DB9Q","30F94FBDNR6BS3JI3VKF41RBJN4TBU","","1359.4000000003725","img/animal4.png","75","1360.7999999988824","2","0","1","1,0.5,0,1,0.5,0,0.5,0,1",""
"","html-keyboard-response","5","20240","0.0-5.0","3ERMJ6L4DZEMZGO28JCP246BCVHM7Z","A29N5E8YC6DB9Q","30F94FBDNR6BS3JI3VKF41RBJN4TBU","","null","<img src=""img/animal4.png"" style=""width:200px;border:14px solid red;"">","null","","","","","",""
"","image-keyboard-response","6","20840","0.0-6.0","3ERMJ6L4DZEMZGO28JCP246BCVHM7Z","A29N5E8YC6DB9Q","30F94FBDNR6BS3JI3VKF41RBJN4TBU","","598.5999999996275","img/animal6.png","76","599.6999999992549","3","0","2","1,0.5,0,1,0.5,0,0.5,0,1",""
"","html-keyboard-response","7","21151","0.0-7.0","3ERMJ6L4DZEMZGO28JCP246BCVHM7Z","A29N5E8YC6DB9Q","30F94FBDNR6BS3JI3VKF41RBJN4TBU","","null","<img src=""img/animal6.png"" style=""width:200px;border:14px solid red;"">","null","","","","","",""
"","image-keyboard-response","8","21704","0.0-8.0","3ERMJ6L4DZEMZGO28JCP246BCVHM7Z","A29N5E8YC6DB9Q","30F94FBDNR6BS3JI3VKF41RBJN4TBU","","552.3000000007451","img/animal6.png","74","553.4000000003725","1","1","2","1,0.5,0,1,0.5,0,0.5,0,1",""
"","html-keyboard-response","9","22010","0.0-9.0","3ERMJ6L4DZEMZGO28JCP246BCVHM7Z","A29N5E8YC6DB9Q","30F94FBDNR6BS3JI3VKF41RBJN4TBU","","null","<img src=""img/animal6.png"" style=""width:200px; border:14px solid green;"">","null","","","","","",""
"","image-keyboard-response","10","22936","0.0-10.0","3ERMJ6L4DZEMZGO28JCP246BCVHM7Z","A29N5E8YC6DB9Q","30F94FBDNR6BS3JI3VKF41RBJN4TBU","","924.4000000003725","img/animal4.png","76","925.5999999996275","3","0","1","1,0.5,0,1,0.5,0,0.5,0,1",""
"","html-keyboard-response","11","23241","0.0-11.0","3ERMJ6L4DZEMZGO28JCP246BCVHM7Z","A29N5E8YC6DB9Q","30F94FBDNR6BS3JI3VKF41RBJN4TBU","","null","<img src=""img/animal4.png"" style=""width:200px;border:14px solid red;"">","null","","","","","",""
"","image-keyboard-response","12","24952","0.0-12.0","3ERMJ6L4DZEMZGO28JCP246BCVHM7Z","A29N5E8YC6DB9Q","30F94FBDNR6BS3JI3VKF41RBJN4TBU","","1710.4000000003725","img/animal4.png","75","1711.300000000745","2","1","1","1,0.5,0,1,0.5,0,0.5,0,1",""
"","html-keyboard-response","13","25261","0.0-13.0","3ERMJ6L4DZEMZGO28JCP246BCVHM7Z","A29N5E8YC6DB9Q","30F94FBDNR6BS3JI3VKF41RBJN4TBU","","null","<img src=""img/animal4.png"" style=""width:200px; border:14px solid green;"">","null","","","","","",""
"","image-keyboard-response","14","27096","0.0-14.0","3ERMJ6L4DZEMZGO28JCP246BCVHM7Z","A29N5E8YC6DB9Q","30F94FBDNR6BS3JI3VKF41RBJN4TBU","","1834","img/animal4.png","75","1835.2000000011176","2","0","1","1,0.5,0,1,0.5,0,0.5,0,1",""
"","html-keyboard-response","15","27398","0.0-15.0","3ERMJ6L4DZEMZGO28JCP246BCVHM7Z","A29N5E8YC6DB9Q","30F94FBDNR6BS3JI3VKF41RBJN4TBU","","null","<img src=""img/animal4.png"" style=""width:200px;border:14px solid red;"">","null","","","","","",""
"","image-keyboard-response","16","27992","0.0-16.0","3ERMJ6L4DZEMZGO28JCP246BCVHM7Z","A29N5E8YC6DB9Q","30F94FBDNR6BS3JI3VKF41RBJN4TBU","","592.5","img/animal4.png","75","593.5999999996275","2","0","1","1,0.5,0,1,0.5,0,0.5,0,1",""
"","html-keyboard-response","17","28300","0.0-17.0","3ERMJ6L4DZEMZGO28JCP246BCVHM7Z","A29N5E8YC6DB9Q","30F94FBDNR6BS3JI3VKF41RBJN4TBU","","null","<img src=""img/animal4.png"" style=""width:200px;border:14px solid red;"">","null","","","","","",""
"","image-keyboard-response","18","28472","0.0-18.0","3ERMJ6L4DZEMZGO28JCP246BCVHM7Z","A29N5E8YC6DB9Q","30F94FBDNR6BS3JI3VKF41RBJN4TBU","","170.30000000074506","img/animal4.png","76","171.2999999988824","3","0","1","1,0.5,0,1,0.5,0,0.5,0,1",""
"","html-keyboard-response","19","28775","0.0-19.0","3ERMJ6L4DZEMZGO28JCP246BCVHM7Z","A29N5E8YC6DB9Q","30F94FBDNR6BS3JI3VKF41RBJN4TBU","","null","<img src=""img/animal4.png"" style=""width:200px;border:14px solid red;"">","null","","","","","",""
"","image-keyboard-response","20","29008","0.0-20.0","3ERMJ6L4DZEMZGO28JCP246BCVHM7Z","A29N5E8YC6DB9Q","30F94FBDNR6BS3JI3VKF41RBJN4TBU","","231.90000000037253","img/animal5.png","76","232.7000000011176","3","1","3","1,0.5,0,1,0.5,0,0.5,0,1",""
"","html-keyboard-response","21","29311","0.0-21.0","3ERMJ6L4DZEMZGO28JCP246BCVHM7Z","A29N5E8YC6DB9Q","30F94FBDNR6BS3JI3VKF41RBJN4TBU","","null","<img src=""img/animal5.png"" style=""width:200px; border:14px solid green;"">","null","","","","","",""
"","image-keyboard-response","22","29392","0.0-22.0","3ERMJ6L4DZEMZGO28JCP246BCVHM7Z","A29N5E8YC6DB9Q","30F94FBDNR6BS3JI3VKF41RBJN4TBU","","80.40000000037253","img/animal6.png","75","81.70000000111759","2","0","2","1,0.5,0,1,0.5,0,0.5,0,1",""
"","html-keyboard-response","23","29695","0.0-23.0","3ERMJ6L4DZEMZGO28JCP246BCVHM7Z","A29N5E8YC6DB9Q","30F94FBDNR6BS3JI3VKF41RBJN4TBU","","null","<img src=""img/animal6.png"" style=""width:200px;border:14px solid red;"">","null","","","","","",""
"","image-keyboard-response","24","29696","0.0-24.0","3ERMJ6L4DZEMZGO28JCP246BCVHM7Z","A29N5E8YC6DB9Q","30F94FBDNR6BS3JI3VKF41RBJN4TBU","","0.40000000037252903","img/animal4.png","76","1.199999999254942","3","0","1","1,0.5,0,1,0.5,0,0.5,0,1",""
"","html-keyboard-response","25","29999","0.0-25.0","3ERMJ6L4DZEMZGO28JCP246BCVHM7Z","A29N5E8YC6DB9Q","30F94FBDNR6BS3JI3VKF41RBJN4TBU","","null","<img src=""img/animal4.png"" style=""width:200px;border:14px solid red;"">","null","","","","","",""
"","image-keyboard-response","26","30088","0.0-26.0","3ERMJ6L4DZEMZGO28JCP246BCVHM7Z","A29N5E8YC6DB9Q","30F94FBDNR6BS3JI3VKF41RBJN4TBU","","87.80000000074506","img/animal5.png","74","88.90000000037253","1","0","3","1,0.5,0,1,0.5,0,0.5,0,1",""
"","html-keyboard-response","27","30390","0.0-27.0","3ERMJ6L4DZEMZGO28JCP246BCVHM7Z","A29N5E8YC6DB9Q","30F94FBDNR6BS3JI3VKF41RBJN4TBU","","null","<img src=""img/animal5.png"" style=""width:200px;border:14px solid red;"">","null","","","","","",""
"","image-keyboard-response","28","30480","0.0-28.0","3ERMJ6L4DZEMZGO28JCP246BCVHM7Z","A29N5E8YC6DB9Q","30F94FBDNR6BS3JI3VKF41RBJN4TBU","","88.59999999962747","img/animal5.png","75","89.69999999925494","2","0","3","1,0.5,0,1,0.5,0,0.5,0,1",""
"","html-keyboard-response","29","30781","0.0-29.0","3ERMJ6L4DZEMZGO28JCP246BCVHM7Z","A29N5E8YC6DB9Q","30F94FBDNR6BS3JI3VKF41RBJN4TBU","","null","<img src=""img/animal5.png"" style=""width:200px;border:14px solid red;"">","null","","","","","",""
"","image-keyboard-response","30","30904","0.0-30.0","3ERMJ6L4DZEMZGO28JCP246BCVHM7Z","A29N5E8YC6DB9Q","30F94FBDNR6BS3JI3VKF41RBJN4TBU","","121.90000000037253","img/animal6.png","74","122.59999999962747","1","1","2","1,0.5,0,1,0.5,0,0.5,0,1",""
"","html-keyboard-response","31","31206","0.0-31.0","3ERMJ6L4DZEMZGO28JCP246BCVHM7Z","A29N5E8YC6DB9Q","30F94FBDNR6BS3JI3VKF41RBJN4TBU","","null","<img src=""img/animal6.png"" style=""width:200px; border:14px solid green;"">","null","","","","","",""
"","image-keyboard-response","32","31256","0.0-32.0","3ERMJ6L4DZEMZGO28JCP246BCVHM7Z","A29N5E8YC6DB9Q","30F94FBDNR6BS3JI3VKF41RBJN4TBU","","48.90000000037253","img/animal5.png","74","49.69999999925494","1","1","3","1,0.5,0,1,0.5,0,0.5,0,1",""
"","html-keyboard-response","33","31557","0.0-33.0","3ERMJ6L4DZEMZGO28JCP246BCVHM7Z","A29N5E8YC6DB9Q","30F94FBDNR6BS3JI3VKF41RBJN4TBU","","null","<img src=""img/animal5.png"" style=""width:200px; border:14px solid green;"">","null","","","","","",""
"","image-keyboard-response","34","31624","0.0-34.0","3ERMJ6L4DZEMZGO28JCP246BCVHM7Z","A29N5E8YC6DB9Q","30F94FBDNR6BS3JI3VKF41RBJN4TBU","","65.5","img/animal6.png","74","66.5","1","1","2","1,0.5,0,1,0.5,0,0.5,0,1",""
"","html-keyboard-response","35","31927","0.0-35.0","3ERMJ6L4DZEMZGO28JCP246BCVHM7Z","A29N5E8YC6DB9Q","30F94FBDNR6BS3JI3VKF41RBJN4TBU","","null","<img src=""img/animal6.png"" style=""width:200px; border:14px solid green;"">","null","","","","","",""
"","image-keyboard-response","36","32056","0.0-36.0","3ERMJ6L4DZEMZGO28JCP246BCVHM7Z","A29N5E8YC6DB9Q","30F94FBDNR6BS3JI3VKF41RBJN4TBU","","127.70000000111759","img/animal5.png","76","128.5","3","1","3","1,0.5,0,1,0.5,0,0.5,0,1",""
"","html-keyboard-response","37","32357","0.0-37.0","3ERMJ6L4DZEMZGO28JCP246BCVHM7Z","A29N5E8YC6DB9Q","30F94FBDNR6BS3JI3VKF41RBJN4TBU","","null","<img src=""img/animal5.png"" style=""width:200px; border:14px solid green;"">","null","","","","","",""
"","image-keyboard-response","38","32456","0.0-38.0","3ERMJ6L4DZEMZGO28JCP246BCVHM7Z","A29N5E8YC6DB9Q","30F94FBDNR6BS3JI3VKF41RBJN4TBU","","97.5","img/animal4.png","75","98.40000000037253","2","1","1","1,0.5,0,1,0.5,0,0.5,0,1",""
"","html-keyboard-response","39","32759","0.0-39.0","3ERMJ6L4DZEMZGO28JCP246BCVHM7Z","A29N5E8YC6DB9Q","30F94FBDNR6BS3JI3VKF41RBJN4TBU","","null","<img src=""img/animal4.png"" style=""width:200px; border:14px solid green;"">","null","","","","","",""
"","image-keyboard-response","40","32840","0.0-40.0","3ERMJ6L4DZEMZGO28JCP246BCVHM7Z","A29N5E8YC6DB9Q","30F94FBDNR6BS3JI3VKF41RBJN4TBU","","79.89999999850988","img/animal6.png","74","80.89999999850988","1","1","2","1,0.5,0,1,0.5,0,0.5,0,1",""
"","html-keyboard-response","41","33142","0.0-41.0","3ERMJ6L4DZEMZGO28JCP246BCVHM7Z","A29N5E8YC6DB9Q","30F94FBDNR6BS3JI3VKF41RBJN4TBU","","null","<img src=""img/animal6.png"" style=""width:200px; border:14px solid green;"">","null","","","","","",""
"","image-keyboard-response","42","33208","0.0-42.0","3ERMJ6L4DZEMZGO28JCP246BCVHM7Z","A29N5E8YC6DB9Q","30F94FBDNR6BS3JI3VKF41RBJN4TBU","","65.09999999962747","img/animal5.png","76","66.09999999962747","3","1","3","1,0.5,0,1,0.5,0,0.5,0,1",""
"","html-keyboard-response","43","33510","0.0-43.0","3ERMJ6L4DZEMZGO28JCP246BCVHM7Z","A29N5E8YC6DB9Q","30F94FBDNR6BS3JI3VKF41RBJN4TBU","","null","<img src=""img/animal5.png"" style=""width:200px; border:14px solid green;"">","null","","","","","",""
"","image-keyboard-response","44","33512","0.0-44.0","3ERMJ6L4DZEMZGO28JCP246BCVHM7Z","A29N5E8YC6DB9Q","30F94FBDNR6BS3JI3VKF41RBJN4TBU","","1.300000000745058","img/animal4.png","75","2.099999999627471","2","0","1","1,0.5,0,1,0.5,0,0.5,0,1",""
"","html-keyboard-response","45","33815","0.0-45.0","3ERMJ6L4DZEMZGO28JCP246BCVHM7Z","A29N5E8YC6DB9Q","30F94FBDNR6BS3JI3VKF41RBJN4TBU","","null","<img src=""img/animal4.png"" style=""width:200px;border:14px solid red;"">","null","","","","","",""
"","image-keyboard-response","46","33880","0.0-46.0","3ERMJ6L4DZEMZGO28JCP246BCVHM7Z","A29N5E8YC6DB9Q","30F94FBDNR6BS3JI3VKF41RBJN4TBU","","63.90000000037253","img/animal5.png","74","64.89999999850988","1","1","3","1,0.5,0,1,0.5,0,0.5,0,1",""
"","html-keyboard-response","47","34184","0.0-47.0","3ERMJ6L4DZEMZGO28JCP246BCVHM7Z","A29N5E8YC6DB9Q","30F94FBDNR6BS3JI3VKF41RBJN4TBU","","null","<img src=""img/animal5.png"" style=""width:200px; border:14px solid green;"">","null","","","","","",""
"","image-keyboard-response","48","34232","0.0-48.0","3ERMJ6L4DZEMZGO28JCP246BCVHM7Z","A29N5E8YC6DB9Q","30F94FBDNR6BS3JI3VKF41RBJN4TBU","","46.69999999925494","img/animal5.png","74","47.79999999888241","1","1","3","1,0.5,0,1,0.5,0,0.5,0,1",""
"","html-keyboard-response","49","34535","0.0-49.0","3ERMJ6L4DZEMZGO28JCP246BCVHM7Z","A29N5E8YC6DB9Q","30F94FBDNR6BS3JI3VKF41RBJN4TBU","","null","<img src=""img/animal5.png"" style=""width:200px; border:14px solid green;"">","null","","","","","",""
"","image-keyboard-response","50","34592","0.0-50.0","3ERMJ6L4DZEMZGO28JCP246BCVHM7Z","A29N5E8YC6DB9Q","30F94FBDNR6BS3JI3VKF41RBJN4TBU","","55.79999999888241","img/animal5.png","74","56.90000000037253","1","1","3","1,0.5,0,1,0.5,0,0.5,0,1",""
"","html-keyboard-response","51","34893","0.0-51.0","3ERMJ6L4DZEMZGO28JCP246BCVHM7Z","A29N5E8YC6DB9Q","30F94FBDNR6BS3JI3VKF41RBJN4TBU","","null","<img src=""img/animal5.png"" style=""width:200px; border:14px solid green;"">","null","","","","","",""
"","image-keyboard-response","52","35016","0.0-52.0","3ERMJ6L4DZEMZGO28JCP246BCVHM7Z","A29N5E8YC6DB9Q","30F94FBDNR6BS3JI3VKF41RBJN4TBU","","121.60000000149012","img/animal4.png","76","122.5","3","0","1","1,0.5,0,1,0.5,0,0.5,0,1",""
"","html-keyboard-response","53","35318","0.0-53.0","3ERMJ6L4DZEMZGO28JCP246BCVHM7Z","A29N5E8YC6DB9Q","30F94FBDNR6BS3JI3VKF41RBJN4TBU","","null","<img src=""img/animal4.png"" style=""width:200px;border:14px solid red;"">","null","","","","","",""
"","image-keyboard-response","54","35768","0.0-54.0","3ERMJ6L4DZEMZGO28JCP246BCVHM7Z","A29N5E8YC6DB9Q","30F94FBDNR6BS3JI3VKF41RBJN4TBU","","448.5","img/animal6.png","76","449.2999999988824","3","0","2","1,0.5,0,1,0.5,0,0.5,0,1",""
"","html-keyboard-response","55","36069","0.0-55.0","3ERMJ6L4DZEMZGO28JCP246BCVHM7Z","A29N5E8YC6DB9Q","30F94FBDNR6BS3JI3VKF41RBJN4TBU","","null","<img src=""img/animal6.png"" style=""width:200px;border:14px solid red;"">","null","","","","","",""
"","image-keyboard-response","56","36112","0.0-56.0","3ERMJ6L4DZEMZGO28JCP246BCVHM7Z","A29N5E8YC6DB9Q","30F94FBDNR6BS3JI3VKF41RBJN4TBU","","41.600000001490116","img/animal4.png","75","42.40000000037253","2","0","1","1,0.5,0,1,0.5,0,0.5,0,1",""
"","html-keyboard-response","57","36413","0.0-57.0","3ERMJ6L4DZEMZGO28JCP246BCVHM7Z","A29N5E8YC6DB9Q","30F94FBDNR6BS3JI3VKF41RBJN4TBU","","null","<img src=""img/animal4.png"" style=""width:200px;border:14px solid red;"">","null","","","","","",""
"","image-keyboard-response","58","36456","0.0-58.0","3ERMJ6L4DZEMZGO28JCP246BCVHM7Z","A29N5E8YC6DB9Q","30F94FBDNR6BS3JI3VKF41RBJN4TBU","","41.20000000111759","img/animal6.png","75","42.09999999962747","2","0","2","1,0.5,0,1,0.5,0,0.5,0,1",""
"","html-keyboard-response","59","36758","0.0-59.0","3ERMJ6L4DZEMZGO28JCP246BCVHM7Z","A29N5E8YC6DB9Q","30F94FBDNR6BS3JI3VKF41RBJN4TBU","","null","<img src=""img/animal6.png"" style=""width:200px;border:14px solid red;"">","null","","","","","",""
"","image-keyboard-response","60","36872","0.0-60.0","3ERMJ6L4DZEMZGO28JCP246BCVHM7Z","A29N5E8YC6DB9Q","30F94FBDNR6BS3JI3VKF41RBJN4TBU","","111.30000000074506","img/animal6.png","74","112.29999999888241","1","1","2","1,0.5,0,1,0.5,0,0.5,0,1",""
"","html-keyboard-response","61","37174","0.0-61.0","3ERMJ6L4DZEMZGO28JCP246BCVHM7Z","A29N5E8YC6DB9Q","30F94FBDNR6BS3JI3VKF41RBJN4TBU","","null","<img src=""img/animal6.png"" style=""width:200px; border:14px solid green;"">","null","","","","","",""
"","image-keyboard-response","62","37256","0.0-62.0","3ERMJ6L4DZEMZGO28JCP246BCVHM7Z","A29N5E8YC6DB9Q","30F94FBDNR6BS3JI3VKF41RBJN4TBU","","81","img/animal6.png","75","81.80000000074506","2","0","2","1,0.5,0,1,0.5,0,0.5,0,1",""
"","html-keyboard-response","63","37558","0.0-63.0","3ERMJ6L4DZEMZGO28JCP246BCVHM7Z","A29N5E8YC6DB9Q","30F94FBDNR6BS3JI3VKF41RBJN4TBU","","null","<img src=""img/animal6.png"" style=""width:200px;border:14px solid red;"">","null","","","","","",""
"","image-keyboard-response","64","37600","0.0-64.0","3ERMJ6L4DZEMZGO28JCP246BCVHM7Z","A29N5E8YC6DB9Q","30F94FBDNR6BS3JI3VKF41RBJN4TBU","","40.59999999962747","img/animal4.png","74","41.40000000037253","1","1","1","1,0.5,0,1,0.5,0,0.5,0,1",""
"","html-keyboard-response","65","37901","0.0-65.0","3ERMJ6L4DZEMZGO28JCP246BCVHM7Z","A29N5E8YC6DB9Q","30F94FBDNR6BS3JI3VKF41RBJN4TBU","","null","<img src=""img/animal4.png"" style=""width:200px; border:14px solid green;"">","null","","","","","",""
"","image-keyboard-response","66","37968","0.0-66.0","3ERMJ6L4DZEMZGO28JCP246BCVHM7Z","A29N5E8YC6DB9Q","30F94FBDNR6BS3JI3VKF41RBJN4TBU","","65.59999999962747","img/animal4.png","75","66.40000000037253","2","1","1","1,0.5,0,1,0.5,0,0.5,0,1",""
"","html-keyboard-response","67","38270","0.0-67.0","3ERMJ6L4DZEMZGO28JCP246BCVHM7Z","A29N5E8YC6DB9Q","30F94FBDNR6BS3JI3VKF41RBJN4TBU","","null","<img src=""img/animal4.png"" style=""width:200px; border:14px solid green;"">","null","","","","","",""
"","image-keyboard-response","68","38296","0.0-68.0","3ERMJ6L4DZEMZGO28JCP246BCVHM7Z","A29N5E8YC6DB9Q","30F94FBDNR6BS3JI3VKF41RBJN4TBU","","24.09999999962747","img/animal5.png","74","25.09999999962747","1","0","3","1,0.5,0,1,0.5,0,0.5,0,1",""
"","html-keyboard-response","69","38597","0.0-69.0","3ERMJ6L4DZEMZGO28JCP246BCVHM7Z","A29N5E8YC6DB9Q","30F94FBDNR6BS3JI3VKF41RBJN4TBU","","null","<img src=""img/animal5.png"" style=""width:200px;border:14px solid red;"">","null","","","","","",""
"","image-keyboard-response","70","38824","0.0-70.0","3ERMJ6L4DZEMZGO28JCP246BCVHM7Z","A29N5E8YC6DB9Q","30F94FBDNR6BS3JI3VKF41RBJN4TBU","","226.09999999962747","img/animal6.png","74","227.10000000149012","1","1","2","1,0.5,0,1,0.5,0,0.5,0,1",""
"","html-keyboard-response","71","39126","0.0-71.0","3ERMJ6L4DZEMZGO28JCP246BCVHM7Z","A29N5E8YC6DB9Q","30F94FBDNR6BS3JI3VKF41RBJN4TBU","","null","<img src=""img/animal6.png"" style=""width:200px; border:14px solid green;"">","null","","","","","",""
"","image-keyboard-response","72","39224","0.0-72.0","3ERMJ6L4DZEMZGO28JCP246BCVHM7Z","A29N5E8YC6DB9Q","30F94FBDNR6BS3JI3VKF41RBJN4TBU","","96.29999999888241","img/animal5.png","74","97.5","1","1","3","1,0.5,0,1,0.5,0,0.5,0,1",""
"","html-keyboard-response","73","39527","0.0-73.0","3ERMJ6L4DZEMZGO28JCP246BCVHM7Z","A29N5E8YC6DB9Q","30F94FBDNR6BS3JI3VKF41RBJN4TBU","","null","<img src=""img/animal5.png"" style=""width:200px; border:14px solid green;"">","null","","","","","",""
"","image-keyboard-response","74","39568","0.0-74.0","3ERMJ6L4DZEMZGO28JCP246BCVHM7Z","A29N5E8YC6DB9Q","30F94FBDNR6BS3JI3VKF41RBJN4TBU","","38.29999999888241","img/animal6.png","74","39.90000000037253","1","1","2","1,0.5,0,1,0.5,0,0.5,0,1",""
"","html-keyboard-response","75","39869","0.0-75.0","3ERMJ6L4DZEMZGO28JCP246BCVHM7Z","A29N5E8YC6DB9Q","30F94FBDNR6BS3JI3VKF41RBJN4TBU","","null","<img src=""img/animal6.png"" style=""width:200px; border:14px solid green;"">","null","","","","","",""
"","image-keyboard-response","76","39920","0.0-76.0","3ERMJ6L4DZEMZGO28JCP246BCVHM7Z","A29N5E8YC6DB9Q","30F94FBDNR6BS3JI3VKF41RBJN4TBU","","49.70000000111759","img/animal6.png","74","50.5","1","1","2","1,0.5,0,1,0.5,0,0.5,0,1",""
"","html-keyboard-response","77","40222","0.0-77.0","3ERMJ6L4DZEMZGO28JCP246BCVHM7Z","A29N5E8YC6DB9Q","30F94FBDNR6BS3JI3VKF41RBJN4TBU","","null","<img src=""img/animal6.png"" style=""width:200px; border:14px solid green;"">","null","","","","","",""
"","image-keyboard-response","78","40240","0.0-78.0","3ERMJ6L4DZEMZGO28JCP246BCVHM7Z","A29N5E8YC6DB9Q","30F94FBDNR6BS3JI3VKF41RBJN4TBU","","16.799999998882413","img/animal4.png","74","17.5","1","1","1","1,0.5,0,1,0.5,0,0.5,0,1",""
"","html-keyboard-response","79","40541","0.0-79.0","3ERMJ6L4DZEMZGO28JCP246BCVHM7Z","A29N5E8YC6DB9Q","30F94FBDNR6BS3JI3VKF41RBJN4TBU","","null","<img src=""img/animal4.png"" style=""width:200px; border:14px solid green;"">","null","","","","","",""
"","image-keyboard-response","80","40696","0.0-80.0","3ERMJ6L4DZEMZGO28JCP246BCVHM7Z","A29N5E8YC6DB9Q","30F94FBDNR6BS3JI3VKF41RBJN4TBU","","153.09999999962747","img/animal4.png","75","154.09999999962747","2","1","1","1,0.5,0,1,0.5,0,0.5,0,1",""
"","html-keyboard-response","81","40997","0.0-81.0","3ERMJ6L4DZEMZGO28JCP246BCVHM7Z","A29N5E8YC6DB9Q","30F94FBDNR6BS3JI3VKF41RBJN4TBU","","null","<img src=""img/animal4.png"" style=""width:200px; border:14px solid green;"">","null","","","","","",""
"","image-keyboard-response","82","41040","0.0-82.0","3ERMJ6L4DZEMZGO28JCP246BCVHM7Z","A29N5E8YC6DB9Q","30F94FBDNR6BS3JI3VKF41RBJN4TBU","","41.40000000037253","img/animal6.png","76","42","3","0","2","1,0.5,0,1,0.5,0,0.5,0,1",""
"","html-keyboard-response","83","41341","0.0-83.0","3ERMJ6L4DZEMZGO28JCP246BCVHM7Z","A29N5E8YC6DB9Q","30F94FBDNR6BS3JI3VKF41RBJN4TBU","","null","<img src=""img/animal6.png"" style=""width:200px;border:14px solid red;"">","null","","","","","",""
"","image-keyboard-response","84","41600","0.0-84.0","3ERMJ6L4DZEMZGO28JCP246BCVHM7Z","A29N5E8YC6DB9Q","30F94FBDNR6BS3JI3VKF41RBJN4TBU","","257.7999999988824","img/animal5.png","74","258.5","1","1","3","1,0.5,0,1,0.5,0,0.5,0,1",""
"","html-keyboard-response","85","41902","0.0-85.0","3ERMJ6L4DZEMZGO28JCP246BCVHM7Z","A29N5E8YC6DB9Q","30F94FBDNR6BS3JI3VKF41RBJN4TBU","","null","<img src=""img/animal5.png"" style=""width:200px; border:14px solid green;"">","null","","","","","",""
"","image-keyboard-response","86","42160","0.0-86.0","3ERMJ6L4DZEMZGO28JCP246BCVHM7Z","A29N5E8YC6DB9Q","30F94FBDNR6BS3JI3VKF41RBJN4TBU","","257.19999999925494","img/animal4.png","76","258","3","0","1","1,0.5,0,1,0.5,0,0.5,0,1",""
"","html-keyboard-response","87","42463","0.0-87.0","3ERMJ6L4DZEMZGO28JCP246BCVHM7Z","A29N5E8YC6DB9Q","30F94FBDNR6BS3JI3VKF41RBJN4TBU","","null","<img src=""img/animal4.png"" style=""width:200px;border:14px solid red;"">","null","","","","","",""
"","image-keyboard-response","88","42472","0.0-88.0","3ERMJ6L4DZEMZGO28JCP246BCVHM7Z","A29N5E8YC6DB9Q","30F94FBDNR6BS3JI3VKF41RBJN4TBU","","8","img/animal5.png","74","9","1","0","3","1,0.5,0,1,0.5,0,0.5,0,1",""
"","html-keyboard-response","89","42773","0.0-89.0","3ERMJ6L4DZEMZGO28JCP246BCVHM7Z","A29N5E8YC6DB9Q","30F94FBDNR6BS3JI3VKF41RBJN4TBU","","null","<img src=""img/animal5.png"" style=""width:200px;border:14px solid red;"">","null","","","","","",""
"","image-keyboard-response","90","42960","0.0-90.0","3ERMJ6L4DZEMZGO28JCP246BCVHM7Z","A29N5E8YC6DB9Q","30F94FBDNR6BS3JI3VKF41RBJN4TBU","","185.40000000037253","img/animal6.png","76","186.30000000074506","3","0","2","1,0.5,0,1,0.5,0,0.5,0,1",""
"","html-keyboard-response","91","43261","0.0-91.0","3ERMJ6L4DZEMZGO28JCP246BCVHM7Z","A29N5E8YC6DB9Q","30F94FBDNR6BS3JI3VKF41RBJN4TBU","","null","<img src=""img/animal6.png"" style=""width:200px;border:14px solid red;"">","null","","","","","",""
"","image-keyboard-response","92","43368","0.0-92.0","3ERMJ6L4DZEMZGO28JCP246BCVHM7Z","A29N5E8YC6DB9Q","30F94FBDNR6BS3JI3VKF41RBJN4TBU","","105.5","img/animal4.png","75","106.40000000037253","2","1","1","1,0.5,0,1,0.5,0,0.5,0,1",""
"","html-keyboard-response","93","43671","0.0-93.0","3ERMJ6L4DZEMZGO28JCP246BCVHM7Z","A29N5E8YC6DB9Q","30F94FBDNR6BS3JI3VKF41RBJN4TBU","","null","<img src=""img/animal4.png"" style=""width:200px; border:14px solid green;"">","null","","","","","",""
"","image-keyboard-response","94","43736","0.0-94.0","3ERMJ6L4DZEMZGO28JCP246BCVHM7Z","A29N5E8YC6DB9Q","30F94FBDNR6BS3JI3VKF41RBJN4TBU","","64.19999999925494","img/animal4.png","76","65","3","0","1","1,0.5,0,1,0.5,0,0.5,0,1",""
"","html-keyboard-response","95","44037","0.0-95.0","3ERMJ6L4DZEMZGO28JCP246BCVHM7Z","A29N5E8YC6DB9Q","30F94FBDNR6BS3JI3VKF41RBJN4TBU","","null","<img src=""img/animal4.png"" style=""width:200px;border:14px solid red;"">","null","","","","","",""
"","image-keyboard-response","96","44232","0.0-96.0","3ERMJ6L4DZEMZGO28JCP246BCVHM7Z","A29N5E8YC6DB9Q","30F94FBDNR6BS3JI3VKF41RBJN4TBU","","193.19999999925494","img/animal4.png","75","194.09999999962747","2","0","1","1,0.5,0,1,0.5,0,0.5,0,1",""
"","html-keyboard-response","97","44534","0.0-97.0","3ERMJ6L4DZEMZGO28JCP246BCVHM7Z","A29N5E8YC6DB9Q","30F94FBDNR6BS3JI3VKF41RBJN4TBU","","null","<img src=""img/animal4.png"" style=""width:200px;border:14px solid red;"">","null","","","","","",""
"","image-keyboard-response","98","44624","0.0-98.0","3ERMJ6L4DZEMZGO28JCP246BCVHM7Z","A29N5E8YC6DB9Q","30F94FBDNR6BS3JI3VKF41RBJN4TBU","","87.79999999888241","img/animal5.png","76","88.90000000037253","3","1","3","1,0.5,0,1,0.5,0,0.5,0,1",""
"","html-keyboard-response","99","44926","0.0-99.0","3ERMJ6L4DZEMZGO28JCP246BCVHM7Z","A29N5E8YC6DB9Q","30F94FBDNR6BS3JI3VKF41RBJN4TBU","","null","<img src=""img/animal5.png"" style=""width:200px; border:14px solid green;"">","null","","","","","",""
"","image-keyboard-response","100","45560","0.0-100.0","3ERMJ6L4DZEMZGO28JCP246BCVHM7Z","A29N5E8YC6DB9Q","30F94FBDNR6BS3JI3VKF41RBJN4TBU","","633.1999999992549","img/animal5.png","74","634.0999999996275","1","1","3","1,0.5,0,1,0.5,0,0.5,0,1",""
"","html-keyboard-response","101","45863","0.0-101.0","3ERMJ6L4DZEMZGO28JCP246BCVHM7Z","A29N5E8YC6DB9Q","30F94FBDNR6BS3JI3VKF41RBJN4TBU","","null","<img src=""img/animal5.png"" style=""width:200px; border:14px solid green;"">","null","","","","","",""
"","image-keyboard-response","102","46000","0.0-102.0","3ERMJ6L4DZEMZGO28JCP246BCVHM7Z","A29N5E8YC6DB9Q","30F94FBDNR6BS3JI3VKF41RBJN4TBU","","135.5","img/animal6.png","76","136.59999999962747","3","0","2","1,0.5,0,1,0.5,0,0.5,0,1",""
"","html-keyboard-response","103","46302","0.0-103.0","3ERMJ6L4DZEMZGO28JCP246BCVHM7Z","A29N5E8YC6DB9Q","30F94FBDNR6BS3JI3VKF41RBJN4TBU","","null","<img src=""img/animal6.png"" style=""width:200px;border:14px solid red;"">","null","","","","","",""
"","image-keyboard-response","104","46424","0.0-104.0","3ERMJ6L4DZEMZGO28JCP246BCVHM7Z","A29N5E8YC6DB9Q","30F94FBDNR6BS3JI3VKF41RBJN4TBU","","120.90000000037253","img/animal6.png","75","121.80000000074506","2","1","2","1,0.5,0,1,0.5,0,0.5,0,1",""
"","html-keyboard-response","105","46725","0.0-105.0","3ERMJ6L4DZEMZGO28JCP246BCVHM7Z","A29N5E8YC6DB9Q","30F94FBDNR6BS3JI3VKF41RBJN4TBU","","null","<img src=""img/animal6.png"" style=""width:200px; border:14px solid green;"">","null","","","","","",""
"","image-keyboard-response","106","48168","0.0-106.0","3ERMJ6L4DZEMZGO28JCP246BCVHM7Z","A29N5E8YC6DB9Q","30F94FBDNR6BS3JI3VKF41RBJN4TBU","","1441.5","img/animal6.png","74","1442.5","1","1","2","1,0.5,0,1,0.5,0,0.5,0,1",""
"","html-keyboard-response","107","48469","0.0-107.0","3ERMJ6L4DZEMZGO28JCP246BCVHM7Z","A29N5E8YC6DB9Q","30F94FBDNR6BS3JI3VKF41RBJN4TBU","","null","<img src=""img/animal6.png"" style=""width:200px; border:14px solid green;"">","null","","","","","",""
"","image-keyboard-response","108","49032","0.0-108.0","3ERMJ6L4DZEMZGO28JCP246BCVHM7Z","A29N5E8YC6DB9Q","30F94FBDNR6BS3JI3VKF41RBJN4TBU","","561.3000000007451","img/animal6.png","74","562.2000000011176","1","1","2","1,0.5,0,1,0.5,0,0.5,0,1",""
"","html-keyboard-response","109","49334","0.0-109.0","3ERMJ6L4DZEMZGO28JCP246BCVHM7Z","A29N5E8YC6DB9Q","30F94FBDNR6BS3JI3VKF41RBJN4TBU","","null","<img src=""img/animal6.png"" style=""width:200px; border:14px solid green;"">","null","","","","","",""
"","image-keyboard-response","110","49408","0.0-110.0","3ERMJ6L4DZEMZGO28JCP246BCVHM7Z","A29N5E8YC6DB9Q","30F94FBDNR6BS3JI3VKF41RBJN4TBU","","72.40000000037253","img/animal5.png","74","73.5","1","1","3","1,0.5,0,1,0.5,0,0.5,0,1",""
"","html-keyboard-response","111","49710","0.0-111.0","3ERMJ6L4DZEMZGO28JCP246BCVHM7Z","A29N5E8YC6DB9Q","30F94FBDNR6BS3JI3VKF41RBJN4TBU","","null","<img src=""img/animal5.png"" style=""width:200px; border:14px solid green;"">","null","","","","","",""
"","image-keyboard-response","112","50728","0.0-112.0","3ERMJ6L4DZEMZGO28JCP246BCVHM7Z","A29N5E8YC6DB9Q","30F94FBDNR6BS3JI3VKF41RBJN4TBU","","1016.5","img/animal4.png","75","1017.4000000003725","2","0","1","1,0.5,0,1,0.5,0,0.5,0,1",""
"","html-keyboard-response","113","51030","0.0-113.0","3ERMJ6L4DZEMZGO28JCP246BCVHM7Z","A29N5E8YC6DB9Q","30F94FBDNR6BS3JI3VKF41RBJN4TBU","","null","<img src=""img/animal4.png"" style=""width:200px;border:14px solid red;"">","null","","","","","",""
"","image-keyboard-response","114","51408","0.0-114.0","3ERMJ6L4DZEMZGO28JCP246BCVHM7Z","A29N5E8YC6DB9Q","30F94FBDNR6BS3JI3VKF41RBJN4TBU","","376.69999999925494","img/animal4.png","76","377.59999999962747","3","0","1","1,0.5,0,1,0.5,0,0.5,0,1",""
"","html-keyboard-response","115","51709","0.0-115.0","3ERMJ6L4DZEMZGO28JCP246BCVHM7Z","A29N5E8YC6DB9Q","30F94FBDNR6BS3JI3VKF41RBJN4TBU","","null","<img src=""img/animal4.png"" style=""width:200px;border:14px solid red;"">","null","","","","","",""
"","image-keyboard-response","116","51824","0.0-116.0","3ERMJ6L4DZEMZGO28JCP246BCVHM7Z","A29N5E8YC6DB9Q","30F94FBDNR6BS3JI3VKF41RBJN4TBU","","113.09999999962747","img/animal5.png","74","113.90000000037253","1","1","3","1,0.5,0,1,0.5,0,0.5,0,1",""
"","html-keyboard-response","117","52126","0.0-117.0","3ERMJ6L4DZEMZGO28JCP246BCVHM7Z","A29N5E8YC6DB9Q","30F94FBDNR6BS3JI3VKF41RBJN4TBU","","null","<img src=""img/animal5.png"" style=""width:200px; border:14px solid green;"">","null","","","","","",""
"","image-keyboard-response","118","52168","0.0-118.0","3ERMJ6L4DZEMZGO28JCP246BCVHM7Z","A29N5E8YC6DB9Q","30F94FBDNR6BS3JI3VKF41RBJN4TBU","","41","img/animal6.png","74","41.90000000037253","1","1","2","1,0.5,0,1,0.5,0,0.5,0,1",""
"","html-keyboard-response","119","52471","0.0-119.0","3ERMJ6L4DZEMZGO28JCP246BCVHM7Z","A29N5E8YC6DB9Q","30F94FBDNR6BS3JI3VKF41RBJN4TBU","","null","<img src=""img/animal6.png"" style=""width:200px; border:14px solid green;"">","null","","","","","",""
"","image-keyboard-response","120","52544","0.0-120.0","3ERMJ6L4DZEMZGO28JCP246BCVHM7Z","A29N5E8YC6DB9Q","30F94FBDNR6BS3JI3VKF41RBJN4TBU","","71.90000000037253","img/animal5.png","76","73.09999999962747","3","1","3","1,0.5,0,1,0.5,0,0.5,0,1",""
"","html-keyboard-response","121","52846","0.0-121.0","3ERMJ6L4DZEMZGO28JCP246BCVHM7Z","A29N5E8YC6DB9Q","30F94FBDNR6BS3JI3VKF41RBJN4TBU","","null","<img src=""img/animal5.png"" style=""width:200px; border:14px solid green;"">","null","","","","","",""
"","image-keyboard-response","122","53088","0.0-122.0","3ERMJ6L4DZEMZGO28JCP246BCVHM7Z","A29N5E8YC6DB9Q","30F94FBDNR6BS3JI3VKF41RBJN4TBU","","241.09999999962747","img/animal5.png","75","241.80000000074506","2","0","3","1,0.5,0,1,0.5,0,0.5,0,1",""
"","html-keyboard-response","123","53390","0.0-123.0","3ERMJ6L4DZEMZGO28JCP246BCVHM7Z","A29N5E8YC6DB9Q","30F94FBDNR6BS3JI3VKF41RBJN4TBU","","null","<img src=""img/animal5.png"" style=""width:200px;border:14px solid red;"">","null","","","","","",""
"","image-keyboard-response","124","53464","0.0-124.0","3ERMJ6L4DZEMZGO28JCP246BCVHM7Z","A29N5E8YC6DB9Q","30F94FBDNR6BS3JI3VKF41RBJN4TBU","","72.69999999925494","img/animal6.png","76","73.69999999925494","3","0","2","1,0.5,0,1,0.5,0,0.5,0,1",""
"","html-keyboard-response","125","53766","0.0-125.0","3ERMJ6L4DZEMZGO28JCP246BCVHM7Z","A29N5E8YC6DB9Q","30F94FBDNR6BS3JI3VKF41RBJN4TBU","","null","<img src=""img/animal6.png"" style=""width:200px;border:14px solid red;"">","null","","","","","",""
"","image-keyboard-response","126","53952","0.0-126.0","3ERMJ6L4DZEMZGO28JCP246BCVHM7Z","A29N5E8YC6DB9Q","30F94FBDNR6BS3JI3VKF41RBJN4TBU","","184.7999999988824","img/animal6.png","74","185.69999999925494","1","1","2","1,0.5,0,1,0.5,0,0.5,0,1",""
"","html-keyboard-response","127","54254","0.0-127.0","3ERMJ6L4DZEMZGO28JCP246BCVHM7Z","A29N5E8YC6DB9Q","30F94FBDNR6BS3JI3VKF41RBJN4TBU","","null","<img src=""img/animal6.png"" style=""width:200px; border:14px solid green;"">","null","","","","","",""
"","image-keyboard-response","128","54256","0.0-128.0","3ERMJ6L4DZEMZGO28JCP246BCVHM7Z","A29N5E8YC6DB9Q","30F94FBDNR6BS3JI3VKF41RBJN4TBU","","1.299999998882413","img/animal5.png","74","2.300000000745058","1","1","3","1,0.5,0,1,0.5,0,0.5,0,1",""
"","html-keyboard-response","129","54560","0.0-129.0","3ERMJ6L4DZEMZGO28JCP246BCVHM7Z","A29N5E8YC6DB9Q","30F94FBDNR6BS3JI3VKF41RBJN4TBU","","null","<img src=""img/animal5.png"" style=""width:200px; border:14px solid green;"">","null","","","","","",""
"","image-keyboard-response","130","54639","0.0-130.0","3ERMJ6L4DZEMZGO28JCP246BCVHM7Z","A29N5E8YC6DB9Q","30F94FBDNR6BS3JI3VKF41RBJN4TBU","","78.80000000074506","img/animal4.png","74","79.80000000074506","1","1","1","1,0.5,0,1,0.5,0,0.5,0,1",""
"","html-keyboard-response","131","54942","0.0-131.0","3ERMJ6L4DZEMZGO28JCP246BCVHM7Z","A29N5E8YC6DB9Q","30F94FBDNR6BS3JI3VKF41RBJN4TBU","","null","<img src=""img/animal4.png"" style=""width:200px; border:14px solid green;"">","null","","","","","",""
"","image-keyboard-response","132","55088","0.0-132.0","3ERMJ6L4DZEMZGO28JCP246BCVHM7Z","A29N5E8YC6DB9Q","30F94FBDNR6BS3JI3VKF41RBJN4TBU","","144.19999999925494","img/animal6.png","75","145.09999999962747","2","1","2","1,0.5,0,1,0.5,0,0.5,0,1",""
"","html-keyboard-response","133","55389","0.0-133.0","3ERMJ6L4DZEMZGO28JCP246BCVHM7Z","A29N5E8YC6DB9Q","30F94FBDNR6BS3JI3VKF41RBJN4TBU","","null","<img src=""img/animal6.png"" style=""width:200px; border:14px solid green;"">","null","","","","","",""
"","image-keyboard-response","134","55496","0.0-134.0","3ERMJ6L4DZEMZGO28JCP246BCVHM7Z","A29N5E8YC6DB9Q","30F94FBDNR6BS3JI3VKF41RBJN4TBU","","105.90000000037253","img/animal4.png","74","106.60000000149012","1","1","1","1,0.5,0,1,0.5,0,0.5,0,1",""
"","html-keyboard-response","135","55797","0.0-135.0","3ERMJ6L4DZEMZGO28JCP246BCVHM7Z","A29N5E8YC6DB9Q","30F94FBDNR6BS3JI3VKF41RBJN4TBU","","null","<img src=""img/animal4.png"" style=""width:200px; border:14px solid green;"">","null","","","","","",""
"","image-keyboard-response","136","55888","0.0-136.0","3ERMJ6L4DZEMZGO28JCP246BCVHM7Z","A29N5E8YC6DB9Q","30F94FBDNR6BS3JI3VKF41RBJN4TBU","","89.19999999925494","img/animal5.png","76","90","3","1","3","1,0.5,0,1,0.5,0,0.5,0,1",""
"","html-keyboard-response","137","56190","0.0-137.0","3ERMJ6L4DZEMZGO28JCP246BCVHM7Z","A29N5E8YC6DB9Q","30F94FBDNR6BS3JI3VKF41RBJN4TBU","","null","<img src=""img/animal5.png"" style=""width:200px; border:14px solid green;"">","null","","","","","",""
"","image-keyboard-response","138","56279","0.0-138.0","3ERMJ6L4DZEMZGO28JCP246BCVHM7Z","A29N5E8YC6DB9Q","30F94FBDNR6BS3JI3VKF41RBJN4TBU","","88.90000000037253","img/animal4.png","74","89.80000000074506","1","1","1","1,0.5,0,1,0.5,0,0.5,0,1",""
"","html-keyboard-response","139","56581","0.0-139.0","3ERMJ6L4DZEMZGO28JCP246BCVHM7Z","A29N5E8YC6DB9Q","30F94FBDNR6BS3JI3VKF41RBJN4TBU","","null","<img src=""img/animal4.png"" style=""width:200px; border:14px solid green;"">","null","","","","","",""
"","image-keyboard-response","140","56712","0.0-140.0","3ERMJ6L4DZEMZGO28JCP246BCVHM7Z","A29N5E8YC6DB9Q","30F94FBDNR6BS3JI3VKF41RBJN4TBU","","129.90000000037253","img/animal4.png","75","130.7000000011176","2","0","1","1,0.5,0,1,0.5,0,0.5,0,1",""
"","html-keyboard-response","141","57013","0.0-141.0","3ERMJ6L4DZEMZGO28JCP246BCVHM7Z","A29N5E8YC6DB9Q","30F94FBDNR6BS3JI3VKF41RBJN4TBU","","null","<img src=""img/animal4.png"" style=""width:200px;border:14px solid red;"">","null","","","","","",""
"","image-keyboard-response","142","57112","0.0-142.0","3ERMJ6L4DZEMZGO28JCP246BCVHM7Z","A29N5E8YC6DB9Q","30F94FBDNR6BS3JI3VKF41RBJN4TBU","","97","img/animal5.png","74","97.90000000037253","1","1","3","1,0.5,0,1,0.5,0,0.5,0,1",""
"","html-keyboard-response","143","57414","0.0-143.0","3ERMJ6L4DZEMZGO28JCP246BCVHM7Z","A29N5E8YC6DB9Q","30F94FBDNR6BS3JI3VKF41RBJN4TBU","","null","<img src=""img/animal5.png"" style=""width:200px; border:14px solid green;"">","null","","","","","",""
"","image-keyboard-response","144","57479","0.0-144.0","3ERMJ6L4DZEMZGO28JCP246BCVHM7Z","A29N5E8YC6DB9Q","30F94FBDNR6BS3JI3VKF41RBJN4TBU","","64.90000000037253","img/animal4.png","76","65.69999999925494","3","0","1","1,0.5,0,1,0.5,0,0.5,0,1",""
"","html-keyboard-response","145","57782","0.0-145.0","3ERMJ6L4DZEMZGO28JCP246BCVHM7Z","A29N5E8YC6DB9Q","30F94FBDNR6BS3JI3VKF41RBJN4TBU","","null","<img src=""img/animal4.png"" style=""width:200px;border:14px solid red;"">","null","","","","","",""
"","image-keyboard-response","146","57879","0.0-146.0","3ERMJ6L4DZEMZGO28JCP246BCVHM7Z","A29N5E8YC6DB9Q","30F94FBDNR6BS3JI3VKF41RBJN4TBU","","96.30000000074506","img/animal5.png","74","97.30000000074506","1","1","3","1,0.5,0,1,0.5,0,0.5,0,1",""
"","html-keyboard-response","147","58182","0.0-147.0","3ERMJ6L4DZEMZGO28JCP246BCVHM7Z","A29N5E8YC6DB9Q","30F94FBDNR6BS3JI3VKF41RBJN4TBU","","null","<img src=""img/animal5.png"" style=""width:200px; border:14px solid green;"">","null","","","","","",""
"","image-keyboard-response","148","58424","0.0-148.0","3ERMJ6L4DZEMZGO28JCP246BCVHM7Z","A29N5E8YC6DB9Q","30F94FBDNR6BS3JI3VKF41RBJN4TBU","","240","img/animal5.png","74","240.90000000037253","1","0","3","1,0.5,0,1,0.5,0,0.5,0,1",""
"","html-keyboard-response","149","58726","0.0-149.0","3ERMJ6L4DZEMZGO28JCP246BCVHM7Z","A29N5E8YC6DB9Q","30F94FBDNR6BS3JI3VKF41RBJN4TBU","","null","<img src=""img/animal5.png"" style=""width:200px;border:14px solid red;"">","null","","","","","",""
"","image-keyboard-response","150","58887","0.0-150.0","3ERMJ6L4DZEMZGO28JCP246BCVHM7Z","A29N5E8YC6DB9Q","30F94FBDNR6BS3JI3VKF41RBJN4TBU","","159.90000000037253","img/animal5.png","76","160.7999999988824","3","1","3","1,0.5,0,1,0.5,0,0.5,0,1",""
"","html-keyboard-response","151","59189","0.0-151.0","3ERMJ6L4DZEMZGO28JCP246BCVHM7Z","A29N5E8YC6DB9Q","30F94FBDNR6BS3JI3VKF41RBJN4TBU","","null","<img src=""img/animal5.png"" style=""width:200px; border:14px solid green;"">","null","","","","","",""
"","image-keyboard-response","152","59240","0.0-152.0","3ERMJ6L4DZEMZGO28JCP246BCVHM7Z","A29N5E8YC6DB9Q","30F94FBDNR6BS3JI3VKF41RBJN4TBU","","49.30000000074506","img/animal4.png","75","50.30000000074506","2","1","1","1,0.5,0,1,0.5,0,0.5,0,1",""
"","html-keyboard-response","153","59542","0.0-153.0","3ERMJ6L4DZEMZGO28JCP246BCVHM7Z","A29N5E8YC6DB9Q","30F94FBDNR6BS3JI3VKF41RBJN4TBU","","null","<img src=""img/animal4.png"" style=""width:200px; border:14px solid green;"">","null","","","","","",""
"","image-keyboard-response","154","59920","0.0-154.0","3ERMJ6L4DZEMZGO28JCP246BCVHM7Z","A29N5E8YC6DB9Q","30F94FBDNR6BS3JI3VKF41RBJN4TBU","","376.90000000037253","img/animal4.png","76","377.7000000011176","3","0","1","1,0.5,0,1,0.5,0,0.5,0,1",""
"","html-keyboard-response","155","60223","0.0-155.0","3ERMJ6L4DZEMZGO28JCP246BCVHM7Z","A29N5E8YC6DB9Q","30F94FBDNR6BS3JI3VKF41RBJN4TBU","","null","<img src=""img/animal4.png"" style=""width:200px;border:14px solid red;"">","null","","","","","",""
"","image-keyboard-response","156","60239","0.0-156.0","3ERMJ6L4DZEMZGO28JCP246BCVHM7Z","A29N5E8YC6DB9Q","30F94FBDNR6BS3JI3VKF41RBJN4TBU","","15.599999999627471","img/animal6.png","75","16.399999998509884","2","1","2","1,0.5,0,1,0.5,0,0.5,0,1",""
"","html-keyboard-response","157","60541","0.0-157.0","3ERMJ6L4DZEMZGO28JCP246BCVHM7Z","A29N5E8YC6DB9Q","30F94FBDNR6BS3JI3VKF41RBJN4TBU","","null","<img src=""img/animal6.png"" style=""width:200px; border:14px solid green;"">","null","","","","","",""
"","image-keyboard-response","158","61039","0.0-158.0","3ERMJ6L4DZEMZGO28JCP246BCVHM7Z","A29N5E8YC6DB9Q","30F94FBDNR6BS3JI3VKF41RBJN4TBU","","496.90000000037253","img/animal5.png","74","497.69999999925494","1","1","3","1,0.5,0,1,0.5,0,0.5,0,1",""
"","html-keyboard-response","159","61342","0.0-159.0","3ERMJ6L4DZEMZGO28JCP246BCVHM7Z","A29N5E8YC6DB9Q","30F94FBDNR6BS3JI3VKF41RBJN4TBU","","null","<img src=""img/animal5.png"" style=""width:200px; border:14px solid green;"">","null","","","","","",""
"","image-keyboard-response","160","61615","0.0-160.0","3ERMJ6L4DZEMZGO28JCP246BCVHM7Z","A29N5E8YC6DB9Q","30F94FBDNR6BS3JI3VKF41RBJN4TBU","","272.90000000037253","img/animal5.png","76","273.80000000074506","3","1","3","1,0.5,0,1,0.5,0,0.5,0,1",""
"","html-keyboard-response","161","61917","0.0-161.0","3ERMJ6L4DZEMZGO28JCP246BCVHM7Z","A29N5E8YC6DB9Q","30F94FBDNR6BS3JI3VKF41RBJN4TBU","","null","<img src=""img/animal5.png"" style=""width:200px; border:14px solid green;"">","null","","","","","",""
"","image-keyboard-response","162","62448","0.0-162.0","3ERMJ6L4DZEMZGO28JCP246BCVHM7Z","A29N5E8YC6DB9Q","30F94FBDNR6BS3JI3VKF41RBJN4TBU","","529.1999999992549","img/animal5.png","75","530","2","0","3","1,0.5,0,1,0.5,0,0.5,0,1",""
"","html-keyboard-response","163","62749","0.0-163.0","3ERMJ6L4DZEMZGO28JCP246BCVHM7Z","A29N5E8YC6DB9Q","30F94FBDNR6BS3JI3VKF41RBJN4TBU","","null","<img src=""img/animal5.png"" style=""width:200px;border:14px solid red;"">","null","","","","","",""
"","image-keyboard-response","164","63023","0.0-164.0","3ERMJ6L4DZEMZGO28JCP246BCVHM7Z","A29N5E8YC6DB9Q","30F94FBDNR6BS3JI3VKF41RBJN4TBU","","273","img/animal4.png","74","273.90000000037253","1","1","1","1,0.5,0,1,0.5,0,0.5,0,1",""
"","html-keyboard-response","165","63326","0.0-165.0","3ERMJ6L4DZEMZGO28JCP246BCVHM7Z","A29N5E8YC6DB9Q","30F94FBDNR6BS3JI3VKF41RBJN4TBU","","null","<img src=""img/animal4.png"" style=""width:200px; border:14px solid green;"">","null","","","","","",""
"","image-keyboard-response","166","63447","0.0-166.0","3ERMJ6L4DZEMZGO28JCP246BCVHM7Z","A29N5E8YC6DB9Q","30F94FBDNR6BS3JI3VKF41RBJN4TBU","","120.40000000037253","img/animal6.png","74","121.19999999925494","1","1","2","1,0.5,0,1,0.5,0,0.5,0,1",""
"","html-keyboard-response","167","63751","0.0-167.0","3ERMJ6L4DZEMZGO28JCP246BCVHM7Z","A29N5E8YC6DB9Q","30F94FBDNR6BS3JI3VKF41RBJN4TBU","","null","<img src=""img/animal6.png"" style=""width:200px; border:14px solid green;"">","null","","","","","",""
"","image-keyboard-response","168","63927","0.0-168.0","3ERMJ6L4DZEMZGO28JCP246BCVHM7Z","A29N5E8YC6DB9Q","30F94FBDNR6BS3JI3VKF41RBJN4TBU","","175.5","img/animal5.png","75","176.69999999925494","2","0","3","1,0.5,0,1,0.5,0,0.5,0,1",""
"","html-keyboard-response","169","64229","0.0-169.0","3ERMJ6L4DZEMZGO28JCP246BCVHM7Z","A29N5E8YC6DB9Q","30F94FBDNR6BS3JI3VKF41RBJN4TBU","","null","<img src=""img/animal5.png"" style=""width:200px;border:14px solid red;"">","null","","","","","",""
"","image-keyboard-response","170","64407","0.0-170.0","3ERMJ6L4DZEMZGO28JCP246BCVHM7Z","A29N5E8YC6DB9Q","30F94FBDNR6BS3JI3VKF41RBJN4TBU","","176.90000000037253","img/animal6.png","74","177.7999999988824","1","1","2","1,0.5,0,1,0.5,0,0.5,0,1",""
"","html-keyboard-response","171","64710","0.0-171.0","3ERMJ6L4DZEMZGO28JCP246BCVHM7Z","A29N5E8YC6DB9Q","30F94FBDNR6BS3JI3VKF41RBJN4TBU","","null","<img src=""img/animal6.png"" style=""width:200px; border:14px solid green;"">","null","","","","","",""
"","image-keyboard-response","172","64943","0.0-172.0","3ERMJ6L4DZEMZGO28JCP246BCVHM7Z","A29N5E8YC6DB9Q","30F94FBDNR6BS3JI3VKF41RBJN4TBU","","232.09999999962747","img/animal5.png","76","233.09999999962747","3","1","3","1,0.5,0,1,0.5,0,0.5,0,1",""
"","html-keyboard-response","173","65245","0.0-173.0","3ERMJ6L4DZEMZGO28JCP246BCVHM7Z","A29N5E8YC6DB9Q","30F94FBDNR6BS3JI3VKF41RBJN4TBU","","null","<img src=""img/animal5.png"" style=""width:200px; border:14px solid green;"">","null","","","","","",""
"","image-keyboard-response","174","65455","0.0-174.0","3ERMJ6L4DZEMZGO28JCP246BCVHM7Z","A29N5E8YC6DB9Q","30F94FBDNR6BS3JI3VKF41RBJN4TBU","","209.2000000011176","img/animal6.png","75","210.09999999962747","2","1","2","1,0.5,0,1,0.5,0,0.5,0,1",""
"","html-keyboard-response","175","65758","0.0-175.0","3ERMJ6L4DZEMZGO28JCP246BCVHM7Z","A29N5E8YC6DB9Q","30F94FBDNR6BS3JI3VKF41RBJN4TBU","","null","<img src=""img/animal6.png"" style=""width:200px; border:14px solid green;"">","null","","","","","",""
"","image-keyboard-response","176","65959","0.0-176.0","3ERMJ6L4DZEMZGO28JCP246BCVHM7Z","A29N5E8YC6DB9Q","30F94FBDNR6BS3JI3VKF41RBJN4TBU","","200.80000000074506","img/animal4.png","74","201.59999999962747","1","1","1","1,0.5,0,1,0.5,0,0.5,0,1",""
"","html-keyboard-response","177","66262","0.0-177.0","3ERMJ6L4DZEMZGO28JCP246BCVHM7Z","A29N5E8YC6DB9Q","30F94FBDNR6BS3JI3VKF41RBJN4TBU","","null","<img src=""img/animal4.png"" style=""width:200px; border:14px solid green;"">","null","","","","","",""
"","image-keyboard-response","178","66440","0.0-178.0","3ERMJ6L4DZEMZGO28JCP246BCVHM7Z","A29N5E8YC6DB9Q","30F94FBDNR6BS3JI3VKF41RBJN4TBU","","176.7000000011176","img/animal6.png","74","177.7000000011176","1","1","2","1,0.5,0,1,0.5,0,0.5,0,1",""
"","html-keyboard-response","179","66742","0.0-179.0","3ERMJ6L4DZEMZGO28JCP246BCVHM7Z","A29N5E8YC6DB9Q","30F94FBDNR6BS3JI3VKF41RBJN4TBU","","null","<img src=""img/animal6.png"" style=""width:200px; border:14px solid green;"">","null","","","","","",""
"","image-keyboard-response","180","66760","0.0-180.0","3ERMJ6L4DZEMZGO28JCP246BCVHM7Z","A29N5E8YC6DB9Q","30F94FBDNR6BS3JI3VKF41RBJN4TBU","","16.90000000037253","img/animal6.png","74","17.700000001117587","1","1","2","1,0.5,0,1,0.5,0,0.5,0,1",""
"","html-keyboard-response","181","67062","0.0-181.0","3ERMJ6L4DZEMZGO28JCP246BCVHM7Z","A29N5E8YC6DB9Q","30F94FBDNR6BS3JI3VKF41RBJN4TBU","","null","<img src=""img/animal6.png"" style=""width:200px; border:14px solid green;"">","null","","","","","",""
"","html-keyboard-response","182","69180","0.0-182.0","3ERMJ6L4DZEMZGO28JCP246BCVHM7Z","A29N5E8YC6DB9Q","30F94FBDNR6BS3JI3VKF41RBJN4TBU","","","","","","","","","",""
"","image-keyboard-response","183","70407","0.0-183.0","3ERMJ6L4DZEMZGO28JCP246BCVHM7Z","A29N5E8YC6DB9Q","30F94FBDNR6BS3JI3VKF41RBJN4TBU","","1225.9000000003725","img/animal3.png","74","1227.5999999996275","1","0","3","1,0.5,0,0,1,0.5,0.5,0,1",""
"","html-keyboard-response","184","70710","0.0-184.0","3ERMJ6L4DZEMZGO28JCP246BCVHM7Z","A29N5E8YC6DB9Q","30F94FBDNR6BS3JI3VKF41RBJN4TBU","","null","<img src=""img/animal3.png"" style=""width:200px;border:14px solid red;"">","null","","","","","",""
"","image-keyboard-response","185","70927","0.0-185.0","3ERMJ6L4DZEMZGO28JCP246BCVHM7Z","A29N5E8YC6DB9Q","30F94FBDNR6BS3JI3VKF41RBJN4TBU","","216.2000000011176","img/animal3.png","76","217.59999999962747","3","1","3","1,0.5,0,0,1,0.5,0.5,0,1",""
"","html-keyboard-response","186","71230","0.0-186.0","3ERMJ6L4DZEMZGO28JCP246BCVHM7Z","A29N5E8YC6DB9Q","30F94FBDNR6BS3JI3VKF41RBJN4TBU","","null","<img src=""img/animal3.png"" style=""width:200px; border:14px solid green;"">","null","","","","","",""
"","image-keyboard-response","187","72231","0.0-187.0","3ERMJ6L4DZEMZGO28JCP246BCVHM7Z","A29N5E8YC6DB9Q","30F94FBDNR6BS3JI3VKF41RBJN4TBU","","1000.8000000007451","img/animal3.png","76","1001.5999999996275","3","1","3","1,0.5,0,0,1,0.5,0.5,0,1",""
"","html-keyboard-response","188","72535","0.0-188.0","3ERMJ6L4DZEMZGO28JCP246BCVHM7Z","A29N5E8YC6DB9Q","30F94FBDNR6BS3JI3VKF41RBJN4TBU","","null","<img src=""img/animal3.png"" style=""width:200px; border:14px solid green;"">","null","","","","","",""
"","image-keyboard-response","189","72575","0.0-189.0","3ERMJ6L4DZEMZGO28JCP246BCVHM7Z","A29N5E8YC6DB9Q","30F94FBDNR6BS3JI3VKF41RBJN4TBU","","39.90000000037253","img/animal1.png","76","40.69999999925494","3","1","2","1,0.5,0,0,1,0.5,0.5,0,1",""
"","html-keyboard-response","190","72877","0.0-190.0","3ERMJ6L4DZEMZGO28JCP246BCVHM7Z","A29N5E8YC6DB9Q","30F94FBDNR6BS3JI3VKF41RBJN4TBU","","null","<img src=""img/animal1.png"" style=""width:200px; border:14px solid green;"">","null","","","","","",""
"","image-keyboard-response","191","73239","0.0-191.0","3ERMJ6L4DZEMZGO28JCP246BCVHM7Z","A29N5E8YC6DB9Q","30F94FBDNR6BS3JI3VKF41RBJN4TBU","","361.1000000014901","img/animal3.png","76","362","3","1","3","1,0.5,0,0,1,0.5,0.5,0,1",""
"","html-keyboard-response","192","73556","0.0-192.0","3ERMJ6L4DZEMZGO28JCP246BCVHM7Z","A29N5E8YC6DB9Q","30F94FBDNR6BS3JI3VKF41RBJN4TBU","","null","<img src=""img/animal3.png"" style=""width:200px; border:14px solid green;"">","null","","","","","",""
"","image-keyboard-response","193","73599","0.0-193.0","3ERMJ6L4DZEMZGO28JCP246BCVHM7Z","A29N5E8YC6DB9Q","30F94FBDNR6BS3JI3VKF41RBJN4TBU","","42.80000000074506","img/animal2.png","76","43.600000001490116","3","0","1","1,0.5,0,0,1,0.5,0.5,0,1",""
"","html-keyboard-response","194","73902","0.0-194.0","3ERMJ6L4DZEMZGO28JCP246BCVHM7Z","A29N5E8YC6DB9Q","30F94FBDNR6BS3JI3VKF41RBJN4TBU","","null","<img src=""img/animal2.png"" style=""width:200px;border:14px solid red;"">","null","","","","","",""
"","image-keyboard-response","195","74279","0.0-195.0","3ERMJ6L4DZEMZGO28JCP246BCVHM7Z","A29N5E8YC6DB9Q","30F94FBDNR6BS3JI3VKF41RBJN4TBU","","376.40000000037253","img/animal3.png","76","377.6000000014901","3","1","3","1,0.5,0,0,1,0.5,0.5,0,1",""
"","html-keyboard-response","196","74582","0.0-196.0","3ERMJ6L4DZEMZGO28JCP246BCVHM7Z","A29N5E8YC6DB9Q","30F94FBDNR6BS3JI3VKF41RBJN4TBU","","null","<img src=""img/animal3.png"" style=""width:200px; border:14px solid green;"">","null","","","","","",""
"","image-keyboard-response","197","74584","0.0-197.0","3ERMJ6L4DZEMZGO28JCP246BCVHM7Z","A29N5E8YC6DB9Q","30F94FBDNR6BS3JI3VKF41RBJN4TBU","","0.5","img/animal1.png","76","1.599999999627471","3","1","2","1,0.5,0,0,1,0.5,0.5,0,1",""
"","html-keyboard-response","198","74886","0.0-198.0","3ERMJ6L4DZEMZGO28JCP246BCVHM7Z","A29N5E8YC6DB9Q","30F94FBDNR6BS3JI3VKF41RBJN4TBU","","null","<img src=""img/animal1.png"" style=""width:200px; border:14px solid green;"">","null","","","","","",""
"","image-keyboard-response","199","75679","0.0-199.0","3ERMJ6L4DZEMZGO28JCP246BCVHM7Z","A29N5E8YC6DB9Q","30F94FBDNR6BS3JI3VKF41RBJN4TBU","","791.7999999988824","img/animal1.png","76","792.6999999992549","3","0","2","1,0.5,0,0,1,0.5,0.5,0,1",""
"","html-keyboard-response","200","75981","0.0-200.0","3ERMJ6L4DZEMZGO28JCP246BCVHM7Z","A29N5E8YC6DB9Q","30F94FBDNR6BS3JI3VKF41RBJN4TBU","","null","<img src=""img/animal1.png"" style=""width:200px;border:14px solid red;"">","null","","","","","",""
"","image-keyboard-response","201","76127","0.0-201.0","3ERMJ6L4DZEMZGO28JCP246BCVHM7Z","A29N5E8YC6DB9Q","30F94FBDNR6BS3JI3VKF41RBJN4TBU","","145","img/animal1.png","74","145.89999999850988","1","0","2","1,0.5,0,0,1,0.5,0.5,0,1",""
"","html-keyboard-response","202","76430","0.0-202.0","3ERMJ6L4DZEMZGO28JCP246BCVHM7Z","A29N5E8YC6DB9Q","30F94FBDNR6BS3JI3VKF41RBJN4TBU","","null","<img src=""img/animal1.png"" style=""width:200px;border:14px solid red;"">","null","","","","","",""
"","image-keyboard-response","203","76847","0.0-203.0","3ERMJ6L4DZEMZGO28JCP246BCVHM7Z","A29N5E8YC6DB9Q","30F94FBDNR6BS3JI3VKF41RBJN4TBU","","416.2000000011176","img/animal1.png","75","417.2999999988824","2","1","2","1,0.5,0,0,1,0.5,0.5,0,1",""
"","html-keyboard-response","204","77149","0.0-204.0","3ERMJ6L4DZEMZGO28JCP246BCVHM7Z","A29N5E8YC6DB9Q","30F94FBDNR6BS3JI3VKF41RBJN4TBU","","null","<img src=""img/animal1.png"" style=""width:200px; border:14px solid green;"">","null","","","","","",""
"","image-keyboard-response","205","78023","0.0-205.0","3ERMJ6L4DZEMZGO28JCP246BCVHM7Z","A29N5E8YC6DB9Q","30F94FBDNR6BS3JI3VKF41RBJN4TBU","","873.4000000003725","img/animal2.png","74","874.2999999988824","1","1","1","1,0.5,0,0,1,0.5,0.5,0,1",""
"","html-keyboard-response","206","78325","0.0-206.0","3ERMJ6L4DZEMZGO28JCP246BCVHM7Z","A29N5E8YC6DB9Q","30F94FBDNR6BS3JI3VKF41RBJN4TBU","","null","<img src=""img/animal2.png"" style=""width:200px; border:14px solid green;"">","null","","","","","",""
"","image-keyboard-response","207","79143","0.0-207.0","3ERMJ6L4DZEMZGO28JCP246BCVHM7Z","A29N5E8YC6DB9Q","30F94FBDNR6BS3JI3VKF41RBJN4TBU","","817.6000000014901","img/animal2.png","74","818.3999999985099","1","1","1","1,0.5,0,0,1,0.5,0.5,0,1",""
"","html-keyboard-response","208","79446","0.0-208.0","3ERMJ6L4DZEMZGO28JCP246BCVHM7Z","A29N5E8YC6DB9Q","30F94FBDNR6BS3JI3VKF41RBJN4TBU","","null","<img src=""img/animal2.png"" style=""width:200px; border:14px solid green;"">","null","","","","","",""
"","image-keyboard-response","209","79535","0.0-209.0","3ERMJ6L4DZEMZGO28JCP246BCVHM7Z","A29N5E8YC6DB9Q","30F94FBDNR6BS3JI3VKF41RBJN4TBU","","88","img/animal1.png","74","89","1","0","2","1,0.5,0,0,1,0.5,0.5,0,1",""
"","html-keyboard-response","210","79838","0.0-210.0","3ERMJ6L4DZEMZGO28JCP246BCVHM7Z","A29N5E8YC6DB9Q","30F94FBDNR6BS3JI3VKF41RBJN4TBU","","null","<img src=""img/animal1.png"" style=""width:200px;border:14px solid red;"">","null","","","","","",""
"","image-keyboard-response","211","80199","0.0-211.0","3ERMJ6L4DZEMZGO28JCP246BCVHM7Z","A29N5E8YC6DB9Q","30F94FBDNR6BS3JI3VKF41RBJN4TBU","","360.09999999962747","img/animal1.png","74","360.90000000037253","1","0","2","1,0.5,0,0,1,0.5,0.5,0,1",""
"","html-keyboard-response","212","80502","0.0-212.0","3ERMJ6L4DZEMZGO28JCP246BCVHM7Z","A29N5E8YC6DB9Q","30F94FBDNR6BS3JI3VKF41RBJN4TBU","","null","<img src=""img/animal1.png"" style=""width:200px;border:14px solid red;"">","null","","","","","",""
"","image-keyboard-response","213","81431","0.0-213.0","3ERMJ6L4DZEMZGO28JCP246BCVHM7Z","A29N5E8YC6DB9Q","30F94FBDNR6BS3JI3VKF41RBJN4TBU","","928.4000000003725","img/animal2.png","74","929.1999999992549","1","1","1","1,0.5,0,0,1,0.5,0.5,0,1",""
"","html-keyboard-response","214","81733","0.0-214.0","3ERMJ6L4DZEMZGO28JCP246BCVHM7Z","A29N5E8YC6DB9Q","30F94FBDNR6BS3JI3VKF41RBJN4TBU","","null","<img src=""img/animal2.png"" style=""width:200px; border:14px solid green;"">","null","","","","","",""
"","image-keyboard-response","215","82135","0.0-215.0","3ERMJ6L4DZEMZGO28JCP246BCVHM7Z","A29N5E8YC6DB9Q","30F94FBDNR6BS3JI3VKF41RBJN4TBU","","401.30000000074506","img/animal2.png","74","402.19999999925494","1","1","1","1,0.5,0,0,1,0.5,0.5,0,1",""
"","html-keyboard-response","216","82437","0.0-216.0","3ERMJ6L4DZEMZGO28JCP246BCVHM7Z","A29N5E8YC6DB9Q","30F94FBDNR6BS3JI3VKF41RBJN4TBU","","null","<img src=""img/animal2.png"" style=""width:200px; border:14px solid green;"">","null","","","","","",""
"","image-keyboard-response","217","83151","0.0-217.0","3ERMJ6L4DZEMZGO28JCP246BCVHM7Z","A29N5E8YC6DB9Q","30F94FBDNR6BS3JI3VKF41RBJN4TBU","","712.8000000007451","img/animal3.png","76","713.5999999996275","3","1","3","1,0.5,0,0,1,0.5,0.5,0,1",""
"","html-keyboard-response","218","83454","0.0-218.0","3ERMJ6L4DZEMZGO28JCP246BCVHM7Z","A29N5E8YC6DB9Q","30F94FBDNR6BS3JI3VKF41RBJN4TBU","","null","<img src=""img/animal3.png"" style=""width:200px; border:14px solid green;"">","null","","","","","",""
"","image-keyboard-response","219","83719","0.0-219.0","3ERMJ6L4DZEMZGO28JCP246BCVHM7Z","A29N5E8YC6DB9Q","30F94FBDNR6BS3JI3VKF41RBJN4TBU","","264","img/animal3.png","76","264.80000000074506","3","1","3","1,0.5,0,0,1,0.5,0.5,0,1",""
"","html-keyboard-response","220","84021","0.0-220.0","3ERMJ6L4DZEMZGO28JCP246BCVHM7Z","A29N5E8YC6DB9Q","30F94FBDNR6BS3JI3VKF41RBJN4TBU","","null","<img src=""img/animal3.png"" style=""width:200px; border:14px solid green;"">","null","","","","","",""
"","image-keyboard-response","221","84279","0.0-221.0","3ERMJ6L4DZEMZGO28JCP246BCVHM7Z","A29N5E8YC6DB9Q","30F94FBDNR6BS3JI3VKF41RBJN4TBU","","257.19999999925494","img/animal1.png","76","258.09999999962747","3","1","2","1,0.5,0,0,1,0.5,0.5,0,1",""
"","html-keyboard-response","222","84583","0.0-222.0","3ERMJ6L4DZEMZGO28JCP246BCVHM7Z","A29N5E8YC6DB9Q","30F94FBDNR6BS3JI3VKF41RBJN4TBU","","null","<img src=""img/animal1.png"" style=""width:200px; border:14px solid green;"">","null","","","","","",""
"","image-keyboard-response","223","85655","0.0-223.0","3ERMJ6L4DZEMZGO28JCP246BCVHM7Z","A29N5E8YC6DB9Q","30F94FBDNR6BS3JI3VKF41RBJN4TBU","","1071.199999999255","img/animal2.png","75","1072.300000000745","2","0","1","1,0.5,0,0,1,0.5,0.5,0,1",""
"","html-keyboard-response","224","85957","0.0-224.0","3ERMJ6L4DZEMZGO28JCP246BCVHM7Z","A29N5E8YC6DB9Q","30F94FBDNR6BS3JI3VKF41RBJN4TBU","","null","<img src=""img/animal2.png"" style=""width:200px;border:14px solid red;"">","null","","","","","",""
"","image-keyboard-response","225","86263","0.0-225.0","3ERMJ6L4DZEMZGO28JCP246BCVHM7Z","A29N5E8YC6DB9Q","30F94FBDNR6BS3JI3VKF41RBJN4TBU","","304.7999999988824","img/animal1.png","75","305.7999999988824","2","1","2","1,0.5,0,0,1,0.5,0.5,0,1",""
"","html-keyboard-response","226","86566","0.0-226.0","3ERMJ6L4DZEMZGO28JCP246BCVHM7Z","A29N5E8YC6DB9Q","30F94FBDNR6BS3JI3VKF41RBJN4TBU","","null","<img src=""img/animal1.png"" style=""width:200px; border:14px solid green;"">","null","","","","","",""
"","image-keyboard-response","227","86839","0.0-227.0","3ERMJ6L4DZEMZGO28JCP246BCVHM7Z","A29N5E8YC6DB9Q","30F94FBDNR6BS3JI3VKF41RBJN4TBU","","272.2999999988824","img/animal3.png","75","273.30000000074506","2","0","3","1,0.5,0,0,1,0.5,0.5,0,1",""
"","html-keyboard-response","228","87141","0.0-228.0","3ERMJ6L4DZEMZGO28JCP246BCVHM7Z","A29N5E8YC6DB9Q","30F94FBDNR6BS3JI3VKF41RBJN4TBU","","null","<img src=""img/animal3.png"" style=""width:200px;border:14px solid red;"">","null","","","","","",""
"","image-keyboard-response","229","87847","0.0-229.0","3ERMJ6L4DZEMZGO28JCP246BCVHM7Z","A29N5E8YC6DB9Q","30F94FBDNR6BS3JI3VKF41RBJN4TBU","","705.3999999985099","img/animal2.png","74","706","1","1","1","1,0.5,0,0,1,0.5,0.5,0,1",""
"","html-keyboard-response","230","88150","0.0-230.0","3ERMJ6L4DZEMZGO28JCP246BCVHM7Z","A29N5E8YC6DB9Q","30F94FBDNR6BS3JI3VKF41RBJN4TBU","","null","<img src=""img/animal2.png"" style=""width:200px; border:14px solid green;"">","null","","","","","",""
"","image-keyboard-response","231","88191","0.0-231.0","3ERMJ6L4DZEMZGO28JCP246BCVHM7Z","A29N5E8YC6DB9Q","30F94FBDNR6BS3JI3VKF41RBJN4TBU","","40","img/animal2.png","75","40.80000000074506","2","0","1","1,0.5,0,0,1,0.5,0.5,0,1",""
"","html-keyboard-response","232","88493","0.0-232.0","3ERMJ6L4DZEMZGO28JCP246BCVHM7Z","A29N5E8YC6DB9Q","30F94FBDNR6BS3JI3VKF41RBJN4TBU","","null","<img src=""img/animal2.png"" style=""width:200px;border:14px solid red;"">","null","","","","","",""
"","image-keyboard-response","233","88655","0.0-233.0","3ERMJ6L4DZEMZGO28JCP246BCVHM7Z","A29N5E8YC6DB9Q","30F94FBDNR6BS3JI3VKF41RBJN4TBU","","160.59999999962747","img/animal2.png","74","161.59999999962747","1","1","1","1,0.5,0,0,1,0.5,0.5,0,1",""
"","html-keyboard-response","234","88957","0.0-234.0","3ERMJ6L4DZEMZGO28JCP246BCVHM7Z","A29N5E8YC6DB9Q","30F94FBDNR6BS3JI3VKF41RBJN4TBU","","null","<img src=""img/animal2.png"" style=""width:200px; border:14px solid green;"">","null","","","","","",""
"","image-keyboard-response","235","89023","0.0-235.0","3ERMJ6L4DZEMZGO28JCP246BCVHM7Z","A29N5E8YC6DB9Q","30F94FBDNR6BS3JI3VKF41RBJN4TBU","","64.69999999925494","img/animal2.png","75","65.80000000074506","2","0","1","1,0.5,0,0,1,0.5,0.5,0,1",""
"","html-keyboard-response","236","89325","0.0-236.0","3ERMJ6L4DZEMZGO28JCP246BCVHM7Z","A29N5E8YC6DB9Q","30F94FBDNR6BS3JI3VKF41RBJN4TBU","","null","<img src=""img/animal2.png"" style=""width:200px;border:14px solid red;"">","null","","","","","",""
"","image-keyboard-response","237","89479","0.0-237.0","3ERMJ6L4DZEMZGO28JCP246BCVHM7Z","A29N5E8YC6DB9Q","30F94FBDNR6BS3JI3VKF41RBJN4TBU","","152.7999999988824","img/animal3.png","74","153.69999999925494","1","0","3","1,0.5,0,0,1,0.5,0.5,0,1",""
"","html-keyboard-response","238","89782","0.0-238.0","3ERMJ6L4DZEMZGO28JCP246BCVHM7Z","A29N5E8YC6DB9Q","30F94FBDNR6BS3JI3VKF41RBJN4TBU","","null","<img src=""img/animal3.png"" style=""width:200px;border:14px solid red;"">","null","","","","","",""
"","image-keyboard-response","239","90839","0.0-239.0","3ERMJ6L4DZEMZGO28JCP246BCVHM7Z","A29N5E8YC6DB9Q","30F94FBDNR6BS3JI3VKF41RBJN4TBU","","1056.4000000003725","img/animal1.png","75","1057.300000000745","2","1","2","1,0.5,0,0,1,0.5,0.5,0,1",""
"","html-keyboard-response","240","91141","0.0-240.0","3ERMJ6L4DZEMZGO28JCP246BCVHM7Z","A29N5E8YC6DB9Q","30F94FBDNR6BS3JI3VKF41RBJN4TBU","","null","<img src=""img/animal1.png"" style=""width:200px; border:14px solid green;"">","null","","","","","",""
"","image-keyboard-response","241","91775","0.0-241.0","3ERMJ6L4DZEMZGO28JCP246BCVHM7Z","A29N5E8YC6DB9Q","30F94FBDNR6BS3JI3VKF41RBJN4TBU","","633.1999999992549","img/animal3.png","76","634.1999999992549","3","1","3","1,0.5,0,0,1,0.5,0.5,0,1",""
"","html-keyboard-response","242","92077","0.0-242.0","3ERMJ6L4DZEMZGO28JCP246BCVHM7Z","A29N5E8YC6DB9Q","30F94FBDNR6BS3JI3VKF41RBJN4TBU","","null","<img src=""img/animal3.png"" style=""width:200px; border:14px solid green;"">","null","","","","","",""
"","image-keyboard-response","243","93039","0.0-243.0","3ERMJ6L4DZEMZGO28JCP246BCVHM7Z","A29N5E8YC6DB9Q","30F94FBDNR6BS3JI3VKF41RBJN4TBU","","961","img/animal1.png","75","962","2","1","2","1,0.5,0,0,1,0.5,0.5,0,1",""
"","html-keyboard-response","244","93342","0.0-244.0","3ERMJ6L4DZEMZGO28JCP246BCVHM7Z","A29N5E8YC6DB9Q","30F94FBDNR6BS3JI3VKF41RBJN4TBU","","null","<img src=""img/animal1.png"" style=""width:200px; border:14px solid green;"">","null","","","","","",""
"","image-keyboard-response","245","94015","0.0-245.0","3ERMJ6L4DZEMZGO28JCP246BCVHM7Z","A29N5E8YC6DB9Q","30F94FBDNR6BS3JI3VKF41RBJN4TBU","","672.4000000003725","img/animal2.png","74","673.2000000011176","1","1","1","1,0.5,0,0,1,0.5,0.5,0,1",""
"","html-keyboard-response","246","94318","0.0-246.0","3ERMJ6L4DZEMZGO28JCP246BCVHM7Z","A29N5E8YC6DB9Q","30F94FBDNR6BS3JI3VKF41RBJN4TBU","","null","<img src=""img/animal2.png"" style=""width:200px; border:14px solid green;"">","null","","","","","",""
"","image-keyboard-response","247","94983","0.0-247.0","3ERMJ6L4DZEMZGO28JCP246BCVHM7Z","A29N5E8YC6DB9Q","30F94FBDNR6BS3JI3VKF41RBJN4TBU","","663.5999999996275","img/animal3.png","76","664.7000000011176","3","1","3","1,0.5,0,0,1,0.5,0.5,0,1",""
"","html-keyboard-response","248","95285","0.0-248.0","3ERMJ6L4DZEMZGO28JCP246BCVHM7Z","A29N5E8YC6DB9Q","30F94FBDNR6BS3JI3VKF41RBJN4TBU","","null","<img src=""img/animal3.png"" style=""width:200px; border:14px solid green;"">","null","","","","","",""
"","image-keyboard-response","249","96159","0.0-249.0","3ERMJ6L4DZEMZGO28JCP246BCVHM7Z","A29N5E8YC6DB9Q","30F94FBDNR6BS3JI3VKF41RBJN4TBU","","872.9000000003725","img/animal1.png","74","873.7000000011176","1","0","2","1,0.5,0,0,1,0.5,0.5,0,1",""
"","html-keyboard-response","250","96461","0.0-250.0","3ERMJ6L4DZEMZGO28JCP246BCVHM7Z","A29N5E8YC6DB9Q","30F94FBDNR6BS3JI3VKF41RBJN4TBU","","null","<img src=""img/animal1.png"" style=""width:200px;border:14px solid red;"">","null","","","","","",""
"","image-keyboard-response","251","97399","0.0-251.0","3ERMJ6L4DZEMZGO28JCP246BCVHM7Z","A29N5E8YC6DB9Q","30F94FBDNR6BS3JI3VKF41RBJN4TBU","","936.9000000003725","img/animal2.png","74","938","1","1","1","1,0.5,0,0,1,0.5,0.5,0,1",""
"","html-keyboard-response","252","97701","0.0-252.0","3ERMJ6L4DZEMZGO28JCP246BCVHM7Z","A29N5E8YC6DB9Q","30F94FBDNR6BS3JI3VKF41RBJN4TBU","","null","<img src=""img/animal2.png"" style=""width:200px; border:14px solid green;"">","null","","","","","",""
"","image-keyboard-response","253","97847","0.0-253.0","3ERMJ6L4DZEMZGO28JCP246BCVHM7Z","A29N5E8YC6DB9Q","30F94FBDNR6BS3JI3VKF41RBJN4TBU","","144.59999999962747","img/animal3.png","74","145.40000000037253","1","0","3","1,0.5,0,0,1,0.5,0.5,0,1",""
"","html-keyboard-response","254","98148","0.0-254.0","3ERMJ6L4DZEMZGO28JCP246BCVHM7Z","A29N5E8YC6DB9Q","30F94FBDNR6BS3JI3VKF41RBJN4TBU","","null","<img src=""img/animal3.png"" style=""width:200px;border:14px solid red;"">","null","","","","","",""
"","image-keyboard-response","255","99383","0.0-255.0","3ERMJ6L4DZEMZGO28JCP246BCVHM7Z","A29N5E8YC6DB9Q","30F94FBDNR6BS3JI3VKF41RBJN4TBU","","1233.5999999996275","img/animal2.png","74","1234.5","1","1","1","1,0.5,0,0,1,0.5,0.5,0,1",""
"","html-keyboard-response","256","99685","0.0-256.0","3ERMJ6L4DZEMZGO28JCP246BCVHM7Z","A29N5E8YC6DB9Q","30F94FBDNR6BS3JI3VKF41RBJN4TBU","","null","<img src=""img/animal2.png"" style=""width:200px; border:14px solid green;"">","null","","","","","",""
"","image-keyboard-response","257","99831","0.0-257.0","3ERMJ6L4DZEMZGO28JCP246BCVHM7Z","A29N5E8YC6DB9Q","30F94FBDNR6BS3JI3VKF41RBJN4TBU","","145.2000000011176","img/animal1.png","74","146.10000000149012","1","0","2","1,0.5,0,0,1,0.5,0.5,0,1",""
"","html-keyboard-response","258","100134","0.0-258.0","3ERMJ6L4DZEMZGO28JCP246BCVHM7Z","A29N5E8YC6DB9Q","30F94FBDNR6BS3JI3VKF41RBJN4TBU","","null","<img src=""img/animal1.png"" style=""width:200px;border:14px solid red;"">","null","","","","","",""
"","image-keyboard-response","259","100207","0.0-259.0","3ERMJ6L4DZEMZGO28JCP246BCVHM7Z","A29N5E8YC6DB9Q","30F94FBDNR6BS3JI3VKF41RBJN4TBU","","72.30000000074506","img/animal2.png","75","73.20000000111759","2","1","1","1,0.5,0,0,1,0.5,0.5,0,1",""
"","html-keyboard-response","260","100509","0.0-260.0","3ERMJ6L4DZEMZGO28JCP246BCVHM7Z","A29N5E8YC6DB9Q","30F94FBDNR6BS3JI3VKF41RBJN4TBU","","null","<img src=""img/animal2.png"" style=""width:200px; border:14px solid green;"">","null","","","","","",""
"","image-keyboard-response","261","100623","0.0-261.0","3ERMJ6L4DZEMZGO28JCP246BCVHM7Z","A29N5E8YC6DB9Q","30F94FBDNR6BS3JI3VKF41RBJN4TBU","","112.90000000037253","img/animal3.png","76","113.80000000074506","3","1","3","1,0.5,0,0,1,0.5,0.5,0,1",""
"","html-keyboard-response","262","100925","0.0-262.0","3ERMJ6L4DZEMZGO28JCP246BCVHM7Z","A29N5E8YC6DB9Q","30F94FBDNR6BS3JI3VKF41RBJN4TBU","","null","<img src=""img/animal3.png"" style=""width:200px; border:14px solid green;"">","null","","","","","",""
"","image-keyboard-response","263","100983","0.0-263.0","3ERMJ6L4DZEMZGO28JCP246BCVHM7Z","A29N5E8YC6DB9Q","30F94FBDNR6BS3JI3VKF41RBJN4TBU","","57","img/animal1.png","75","57.90000000037253","2","1","2","1,0.5,0,0,1,0.5,0.5,0,1",""
"","html-keyboard-response","264","101285","0.0-264.0","3ERMJ6L4DZEMZGO28JCP246BCVHM7Z","A29N5E8YC6DB9Q","30F94FBDNR6BS3JI3VKF41RBJN4TBU","","null","<img src=""img/animal1.png"" style=""width:200px; border:14px solid green;"">","null","","","","","",""
"","image-keyboard-response","265","101471","0.0-265.0","3ERMJ6L4DZEMZGO28JCP246BCVHM7Z","A29N5E8YC6DB9Q","30F94FBDNR6BS3JI3VKF41RBJN4TBU","","184.40000000037253","img/animal3.png","74","185.19999999925494","1","1","3","1,0.5,0,0,1,0.5,0.5,0,1",""
"","html-keyboard-response","266","101773","0.0-266.0","3ERMJ6L4DZEMZGO28JCP246BCVHM7Z","A29N5E8YC6DB9Q","30F94FBDNR6BS3JI3VKF41RBJN4TBU","","null","<img src=""img/animal3.png"" style=""width:200px; border:14px solid green;"">","null","","","","","",""
"","image-keyboard-response","267","101783","0.0-267.0","3ERMJ6L4DZEMZGO28JCP246BCVHM7Z","A29N5E8YC6DB9Q","30F94FBDNR6BS3JI3VKF41RBJN4TBU","","8.5","img/animal1.png","76","9.399999998509884","3","1","2","1,0.5,0,0,1,0.5,0.5,0,1",""
"","html-keyboard-response","268","102085","0.0-268.0","3ERMJ6L4DZEMZGO28JCP246BCVHM7Z","A29N5E8YC6DB9Q","30F94FBDNR6BS3JI3VKF41RBJN4TBU","","null","<img src=""img/animal1.png"" style=""width:200px; border:14px solid green;"">","null","","","","","",""
"","image-keyboard-response","269","102087","0.0-269.0","3ERMJ6L4DZEMZGO28JCP246BCVHM7Z","A29N5E8YC6DB9Q","30F94FBDNR6BS3JI3VKF41RBJN4TBU","","1.199999999254942","img/animal3.png","76","2.199999999254942","3","1","3","1,0.5,0,0,1,0.5,0.5,0,1",""
"","html-keyboard-response","270","102390","0.0-270.0","3ERMJ6L4DZEMZGO28JCP246BCVHM7Z","A29N5E8YC6DB9Q","30F94FBDNR6BS3JI3VKF41RBJN4TBU","","null","<img src=""img/animal3.png"" style=""width:200px; border:14px solid green;"">","null","","","","","",""
"","image-keyboard-response","271","102463","0.0-271.0","3ERMJ6L4DZEMZGO28JCP246BCVHM7Z","A29N5E8YC6DB9Q","30F94FBDNR6BS3JI3VKF41RBJN4TBU","","71.80000000074506","img/animal2.png","74","72.59999999962747","1","1","1","1,0.5,0,0,1,0.5,0.5,0,1",""
"","html-keyboard-response","272","102766","0.0-272.0","3ERMJ6L4DZEMZGO28JCP246BCVHM7Z","A29N5E8YC6DB9Q","30F94FBDNR6BS3JI3VKF41RBJN4TBU","","null","<img src=""img/animal2.png"" style=""width:200px; border:14px solid green;"">","null","","","","","",""
"","image-keyboard-response","273","102791","0.0-273.0","3ERMJ6L4DZEMZGO28JCP246BCVHM7Z","A29N5E8YC6DB9Q","30F94FBDNR6BS3JI3VKF41RBJN4TBU","","23.90000000037253","img/animal3.png","74","24.699999999254942","1","1","3","1,0.5,0,0,1,0.5,0.5,0,1",""
"","html-keyboard-response","274","103092","0.0-274.0","3ERMJ6L4DZEMZGO28JCP246BCVHM7Z","A29N5E8YC6DB9Q","30F94FBDNR6BS3JI3VKF41RBJN4TBU","","null","<img src=""img/animal3.png"" style=""width:200px; border:14px solid green;"">","null","","","","","",""
"","image-keyboard-response","275","103119","0.0-275.0","3ERMJ6L4DZEMZGO28JCP246BCVHM7Z","A29N5E8YC6DB9Q","30F94FBDNR6BS3JI3VKF41RBJN4TBU","","26","img/animal3.png","74","26.90000000037253","1","1","3","1,0.5,0,0,1,0.5,0.5,0,1",""
"","html-keyboard-response","276","103421","0.0-276.0","3ERMJ6L4DZEMZGO28JCP246BCVHM7Z","A29N5E8YC6DB9Q","30F94FBDNR6BS3JI3VKF41RBJN4TBU","","null","<img src=""img/animal3.png"" style=""width:200px; border:14px solid green;"">","null","","","","","",""
"","image-keyboard-response","277","103431","0.0-277.0","3ERMJ6L4DZEMZGO28JCP246BCVHM7Z","A29N5E8YC6DB9Q","30F94FBDNR6BS3JI3VKF41RBJN4TBU","","9.200000001117587","img/animal2.png","74","10.099999999627471","1","1","1","1,0.5,0,0,1,0.5,0.5,0,1",""
"","html-keyboard-response","278","103733","0.0-278.0","3ERMJ6L4DZEMZGO28JCP246BCVHM7Z","A29N5E8YC6DB9Q","30F94FBDNR6BS3JI3VKF41RBJN4TBU","","null","<img src=""img/animal2.png"" style=""width:200px; border:14px solid green;"">","null","","","","","",""
"","image-keyboard-response","279","103743","0.0-279.0","3ERMJ6L4DZEMZGO28JCP246BCVHM7Z","A29N5E8YC6DB9Q","30F94FBDNR6BS3JI3VKF41RBJN4TBU","","9.400000000372529","img/animal3.png","74","10.200000001117587","1","1","3","1,0.5,0,0,1,0.5,0.5,0,1",""
"","html-keyboard-response","280","104045","0.0-280.0","3ERMJ6L4DZEMZGO28JCP246BCVHM7Z","A29N5E8YC6DB9Q","30F94FBDNR6BS3JI3VKF41RBJN4TBU","","null","<img src=""img/animal3.png"" style=""width:200px; border:14px solid green;"">","null","","","","","",""
"","image-keyboard-response","281","104127","0.0-281.0","3ERMJ6L4DZEMZGO28JCP246BCVHM7Z","A29N5E8YC6DB9Q","30F94FBDNR6BS3JI3VKF41RBJN4TBU","","81","img/animal2.png","75","81.90000000037253","2","1","1","1,0.5,0,0,1,0.5,0.5,0,1",""
"","html-keyboard-response","282","104429","0.0-282.0","3ERMJ6L4DZEMZGO28JCP246BCVHM7Z","A29N5E8YC6DB9Q","30F94FBDNR6BS3JI3VKF41RBJN4TBU","","null","<img src=""img/animal2.png"" style=""width:200px; border:14px solid green;"">","null","","","","","",""
"","image-keyboard-response","283","104503","0.0-283.0","3ERMJ6L4DZEMZGO28JCP246BCVHM7Z","A29N5E8YC6DB9Q","30F94FBDNR6BS3JI3VKF41RBJN4TBU","","72.80000000074506","img/animal3.png","74","73.90000000037253","1","0","3","1,0.5,0,0,1,0.5,0.5,0,1",""
"","html-keyboard-response","284","104806","0.0-284.0","3ERMJ6L4DZEMZGO28JCP246BCVHM7Z","A29N5E8YC6DB9Q","30F94FBDNR6BS3JI3VKF41RBJN4TBU","","null","<img src=""img/animal3.png"" style=""width:200px;border:14px solid red;"">","null","","","","","",""
"","image-keyboard-response","285","105031","0.0-285.0","3ERMJ6L4DZEMZGO28JCP246BCVHM7Z","A29N5E8YC6DB9Q","30F94FBDNR6BS3JI3VKF41RBJN4TBU","","224.09999999962747","img/animal1.png","76","225.09999999962747","3","0","2","1,0.5,0,0,1,0.5,0.5,0,1",""
"","html-keyboard-response","286","105334","0.0-286.0","3ERMJ6L4DZEMZGO28JCP246BCVHM7Z","A29N5E8YC6DB9Q","30F94FBDNR6BS3JI3VKF41RBJN4TBU","","null","<img src=""img/animal1.png"" style=""width:200px;border:14px solid red;"">","null","","","","","",""
"","image-keyboard-response","287","105543","0.0-287.0","3ERMJ6L4DZEMZGO28JCP246BCVHM7Z","A29N5E8YC6DB9Q","30F94FBDNR6BS3JI3VKF41RBJN4TBU","","207.90000000037253","img/animal3.png","74","208.90000000037253","1","1","3","1,0.5,0,0,1,0.5,0.5,0,1",""
"","html-keyboard-response","288","105845","0.0-288.0","3ERMJ6L4DZEMZGO28JCP246BCVHM7Z","A29N5E8YC6DB9Q","30F94FBDNR6BS3JI3VKF41RBJN4TBU","","null","<img src=""img/animal3.png"" style=""width:200px; border:14px solid green;"">","null","","","","","",""
"","image-keyboard-response","289","105847","0.0-289.0","3ERMJ6L4DZEMZGO28JCP246BCVHM7Z","A29N5E8YC6DB9Q","30F94FBDNR6BS3JI3VKF41RBJN4TBU","","1.5","img/animal1.png","74","2.700000001117587","1","0","2","1,0.5,0,0,1,0.5,0.5,0,1",""
"","html-keyboard-response","290","106151","0.0-290.0","3ERMJ6L4DZEMZGO28JCP246BCVHM7Z","A29N5E8YC6DB9Q","30F94FBDNR6BS3JI3VKF41RBJN4TBU","","null","<img src=""img/animal1.png"" style=""width:200px;border:14px solid red;"">","null","","","","","",""
"","image-keyboard-response","291","106327","0.0-291.0","3ERMJ6L4DZEMZGO28JCP246BCVHM7Z","A29N5E8YC6DB9Q","30F94FBDNR6BS3JI3VKF41RBJN4TBU","","174.80000000074506","img/animal1.png","76","175.90000000037253","3","0","2","1,0.5,0,0,1,0.5,0.5,0,1",""
"","html-keyboard-response","292","106629","0.0-292.0","3ERMJ6L4DZEMZGO28JCP246BCVHM7Z","A29N5E8YC6DB9Q","30F94FBDNR6BS3JI3VKF41RBJN4TBU","","null","<img src=""img/animal1.png"" style=""width:200px;border:14px solid red;"">","null","","","","","",""
"","image-keyboard-response","293","106671","0.0-293.0","3ERMJ6L4DZEMZGO28JCP246BCVHM7Z","A29N5E8YC6DB9Q","30F94FBDNR6BS3JI3VKF41RBJN4TBU","","40.70000000111759","img/animal1.png","75","41.70000000111759","2","1","2","1,0.5,0,0,1,0.5,0.5,0,1",""
"","html-keyboard-response","294","106973","0.0-294.0","3ERMJ6L4DZEMZGO28JCP246BCVHM7Z","A29N5E8YC6DB9Q","30F94FBDNR6BS3JI3VKF41RBJN4TBU","","null","<img src=""img/animal1.png"" style=""width:200px; border:14px solid green;"">","null","","","","","",""
"","image-keyboard-response","295","107127","0.0-295.0","3ERMJ6L4DZEMZGO28JCP246BCVHM7Z","A29N5E8YC6DB9Q","30F94FBDNR6BS3JI3VKF41RBJN4TBU","","152.59999999962747","img/animal1.png","74","153.5","1","0","2","1,0.5,0,0,1,0.5,0.5,0,1",""
"","html-keyboard-response","296","107429","0.0-296.0","3ERMJ6L4DZEMZGO28JCP246BCVHM7Z","A29N5E8YC6DB9Q","30F94FBDNR6BS3JI3VKF41RBJN4TBU","","null","<img src=""img/animal1.png"" style=""width:200px;border:14px solid red;"">","null","","","","","",""
"","image-keyboard-response","297","107527","0.0-297.0","3ERMJ6L4DZEMZGO28JCP246BCVHM7Z","A29N5E8YC6DB9Q","30F94FBDNR6BS3JI3VKF41RBJN4TBU","","97.10000000149012","img/animal3.png","74","98","1","1","3","1,0.5,0,0,1,0.5,0.5,0,1",""
"","html-keyboard-response","298","107829","0.0-298.0","3ERMJ6L4DZEMZGO28JCP246BCVHM7Z","A29N5E8YC6DB9Q","30F94FBDNR6BS3JI3VKF41RBJN4TBU","","null","<img src=""img/animal3.png"" style=""width:200px; border:14px solid green;"">","null","","","","","",""
"","image-keyboard-response","299","107879","0.0-299.0","3ERMJ6L4DZEMZGO28JCP246BCVHM7Z","A29N5E8YC6DB9Q","30F94FBDNR6BS3JI3VKF41RBJN4TBU","","48.80000000074506","img/animal2.png","74","49.80000000074506","1","1","1","1,0.5,0,0,1,0.5,0.5,0,1",""
"","html-keyboard-response","300","108181","0.0-300.0","3ERMJ6L4DZEMZGO28JCP246BCVHM7Z","A29N5E8YC6DB9Q","30F94FBDNR6BS3JI3VKF41RBJN4TBU","","null","<img src=""img/animal2.png"" style=""width:200px; border:14px solid green;"">","null","","","","","",""
"","image-keyboard-response","301","108375","0.0-301.0","3ERMJ6L4DZEMZGO28JCP246BCVHM7Z","A29N5E8YC6DB9Q","30F94FBDNR6BS3JI3VKF41RBJN4TBU","","192.60000000149012","img/animal3.png","74","193.5","1","1","3","1,0.5,0,0,1,0.5,0.5,0,1",""
"","html-keyboard-response","302","108677","0.0-302.0","3ERMJ6L4DZEMZGO28JCP246BCVHM7Z","A29N5E8YC6DB9Q","30F94FBDNR6BS3JI3VKF41RBJN4TBU","","null","<img src=""img/animal3.png"" style=""width:200px; border:14px solid green;"">","null","","","","","",""
"","image-keyboard-response","303","108727","0.0-303.0","3ERMJ6L4DZEMZGO28JCP246BCVHM7Z","A29N5E8YC6DB9Q","30F94FBDNR6BS3JI3VKF41RBJN4TBU","","48.40000000037253","img/animal2.png","74","49.5","1","1","1","1,0.5,0,0,1,0.5,0.5,0,1",""
"","html-keyboard-response","304","109029","0.0-304.0","3ERMJ6L4DZEMZGO28JCP246BCVHM7Z","A29N5E8YC6DB9Q","30F94FBDNR6BS3JI3VKF41RBJN4TBU","","null","<img src=""img/animal2.png"" style=""width:200px; border:14px solid green;"">","null","","","","","",""
"","image-keyboard-response","305","109071","0.0-305.0","3ERMJ6L4DZEMZGO28JCP246BCVHM7Z","A29N5E8YC6DB9Q","30F94FBDNR6BS3JI3VKF41RBJN4TBU","","41","img/animal1.png","75","41.79999999888241","2","1","2","1,0.5,0,0,1,0.5,0.5,0,1",""
"","html-keyboard-response","306","109374","0.0-306.0","3ERMJ6L4DZEMZGO28JCP246BCVHM7Z","A29N5E8YC6DB9Q","30F94FBDNR6BS3JI3VKF41RBJN4TBU","","null","<img src=""img/animal1.png"" style=""width:200px; border:14px solid green;"">","null","","","","","",""
"","image-keyboard-response","307","109631","0.0-307.0","3ERMJ6L4DZEMZGO28JCP246BCVHM7Z","A29N5E8YC6DB9Q","30F94FBDNR6BS3JI3VKF41RBJN4TBU","","256","img/animal1.png","76","257","3","0","2","1,0.5,0,0,1,0.5,0.5,0,1",""
"","html-keyboard-response","308","109933","0.0-308.0","3ERMJ6L4DZEMZGO28JCP246BCVHM7Z","A29N5E8YC6DB9Q","30F94FBDNR6BS3JI3VKF41RBJN4TBU","","null","<img src=""img/animal1.png"" style=""width:200px;border:14px solid red;"">","null","","","","","",""
"","image-keyboard-response","309","110183","0.0-309.0","3ERMJ6L4DZEMZGO28JCP246BCVHM7Z","A29N5E8YC6DB9Q","30F94FBDNR6BS3JI3VKF41RBJN4TBU","","248.30000000074506","img/animal3.png","74","249.19999999925494","1","1","3","1,0.5,0,0,1,0.5,0.5,0,1",""
"","html-keyboard-response","310","110484","0.0-310.0","3ERMJ6L4DZEMZGO28JCP246BCVHM7Z","A29N5E8YC6DB9Q","30F94FBDNR6BS3JI3VKF41RBJN4TBU","","null","<img src=""img/animal3.png"" style=""width:200px; border:14px solid green;"">","null","","","","","",""
"","image-keyboard-response","311","110543","0.0-311.0","3ERMJ6L4DZEMZGO28JCP246BCVHM7Z","A29N5E8YC6DB9Q","30F94FBDNR6BS3JI3VKF41RBJN4TBU","","57.600000001490116","img/animal3.png","75","58.5","2","0","3","1,0.5,0,0,1,0.5,0.5,0,1",""
"","html-keyboard-response","312","110844","0.0-312.0","3ERMJ6L4DZEMZGO28JCP246BCVHM7Z","A29N5E8YC6DB9Q","30F94FBDNR6BS3JI3VKF41RBJN4TBU","","null","<img src=""img/animal3.png"" style=""width:200px;border:14px solid red;"">","null","","","","","",""
"","image-keyboard-response","313","110895","0.0-313.0","3ERMJ6L4DZEMZGO28JCP246BCVHM7Z","A29N5E8YC6DB9Q","30F94FBDNR6BS3JI3VKF41RBJN4TBU","","49.600000001490116","img/animal2.png","74","50.70000000111759","1","1","1","1,0.5,0,0,1,0.5,0.5,0,1",""
"","html-keyboard-response","314","111197","0.0-314.0","3ERMJ6L4DZEMZGO28JCP246BCVHM7Z","A29N5E8YC6DB9Q","30F94FBDNR6BS3JI3VKF41RBJN4TBU","","null","<img src=""img/animal2.png"" style=""width:200px; border:14px solid green;"">","null","","","","","",""
"","image-keyboard-response","315","111295","0.0-315.0","3ERMJ6L4DZEMZGO28JCP246BCVHM7Z","A29N5E8YC6DB9Q","30F94FBDNR6BS3JI3VKF41RBJN4TBU","","97.10000000149012","img/animal1.png","75","98","2","1","2","1,0.5,0,0,1,0.5,0.5,0,1",""
"","html-keyboard-response","316","111597","0.0-316.0","3ERMJ6L4DZEMZGO28JCP246BCVHM7Z","A29N5E8YC6DB9Q","30F94FBDNR6BS3JI3VKF41RBJN4TBU","","null","<img src=""img/animal1.png"" style=""width:200px; border:14px solid green;"">","null","","","","","",""
"","image-keyboard-response","317","111655","0.0-317.0","3ERMJ6L4DZEMZGO28JCP246BCVHM7Z","A29N5E8YC6DB9Q","30F94FBDNR6BS3JI3VKF41RBJN4TBU","","57.100000001490116","img/animal1.png","74","58.09999999962747","1","0","2","1,0.5,0,0,1,0.5,0.5,0,1",""
"","html-keyboard-response","318","111956","0.0-318.0","3ERMJ6L4DZEMZGO28JCP246BCVHM7Z","A29N5E8YC6DB9Q","30F94FBDNR6BS3JI3VKF41RBJN4TBU","","null","<img src=""img/animal1.png"" style=""width:200px;border:14px solid red;"">","null","","","","","",""
"","image-keyboard-response","319","112047","0.0-319.0","3ERMJ6L4DZEMZGO28JCP246BCVHM7Z","A29N5E8YC6DB9Q","30F94FBDNR6BS3JI3VKF41RBJN4TBU","","89.59999999962747","img/animal2.png","75","90.5","2","0","1","1,0.5,0,0,1,0.5,0.5,0,1",""
"","html-keyboard-response","320","112349","0.0-320.0","3ERMJ6L4DZEMZGO28JCP246BCVHM7Z","A29N5E8YC6DB9Q","30F94FBDNR6BS3JI3VKF41RBJN4TBU","","null","<img src=""img/animal2.png"" style=""width:200px;border:14px solid red;"">","null","","","","","",""
"","image-keyboard-response","321","112511","0.0-321.0","3ERMJ6L4DZEMZGO28JCP246BCVHM7Z","A29N5E8YC6DB9Q","30F94FBDNR6BS3JI3VKF41RBJN4TBU","","161.2000000011176","img/animal3.png","75","162","2","0","3","1,0.5,0,0,1,0.5,0.5,0,1",""
"","html-keyboard-response","322","112813","0.0-322.0","3ERMJ6L4DZEMZGO28JCP246BCVHM7Z","A29N5E8YC6DB9Q","30F94FBDNR6BS3JI3VKF41RBJN4TBU","","null","<img src=""img/animal3.png"" style=""width:200px;border:14px solid red;"">","null","","","","","",""
"","image-keyboard-response","323","113303","0.0-323.0","3ERMJ6L4DZEMZGO28JCP246BCVHM7Z","A29N5E8YC6DB9Q","30F94FBDNR6BS3JI3VKF41RBJN4TBU","","488.7000000011176","img/animal3.png","76","489.5","3","1","3","1,0.5,0,0,1,0.5,0.5,0,1",""
"","html-keyboard-response","324","113605","0.0-324.0","3ERMJ6L4DZEMZGO28JCP246BCVHM7Z","A29N5E8YC6DB9Q","30F94FBDNR6BS3JI3VKF41RBJN4TBU","","null","<img src=""img/animal3.png"" style=""width:200px; border:14px solid green;"">","null","","","","","",""
"","image-keyboard-response","325","113607","0.0-325.0","3ERMJ6L4DZEMZGO28JCP246BCVHM7Z","A29N5E8YC6DB9Q","30F94FBDNR6BS3JI3VKF41RBJN4TBU","","0.5","img/animal2.png","75","1.299999998882413","2","0","1","1,0.5,0,0,1,0.5,0.5,0,1",""
"","html-keyboard-response","326","113908","0.0-326.0","3ERMJ6L4DZEMZGO28JCP246BCVHM7Z","A29N5E8YC6DB9Q","30F94FBDNR6BS3JI3VKF41RBJN4TBU","","null","<img src=""img/animal2.png"" style=""width:200px;border:14px solid red;"">","null","","","","","",""
"","image-keyboard-response","327","114415","0.0-327.0","3ERMJ6L4DZEMZGO28JCP246BCVHM7Z","A29N5E8YC6DB9Q","30F94FBDNR6BS3JI3VKF41RBJN4TBU","","505.5","img/animal1.png","74","506.6000000014901","1","0","2","1,0.5,0,0,1,0.5,0.5,0,1",""
"","html-keyboard-response","328","114717","0.0-328.0","3ERMJ6L4DZEMZGO28JCP246BCVHM7Z","A29N5E8YC6DB9Q","30F94FBDNR6BS3JI3VKF41RBJN4TBU","","null","<img src=""img/animal1.png"" style=""width:200px;border:14px solid red;"">","null","","","","","",""
"","image-keyboard-response","329","114743","0.0-329.0","3ERMJ6L4DZEMZGO28JCP246BCVHM7Z","A29N5E8YC6DB9Q","30F94FBDNR6BS3JI3VKF41RBJN4TBU","","24.59999999962747","img/animal2.png","75","25.5","2","0","1","1,0.5,0,0,1,0.5,0.5,0,1",""
"","html-keyboard-response","330","115045","0.0-330.0","3ERMJ6L4DZEMZGO28JCP246BCVHM7Z","A29N5E8YC6DB9Q","30F94FBDNR6BS3JI3VKF41RBJN4TBU","","null","<img src=""img/animal2.png"" style=""width:200px;border:14px solid red;"">","null","","","","","",""
"","image-keyboard-response","331","115295","0.0-331.0","3ERMJ6L4DZEMZGO28JCP246BCVHM7Z","A29N5E8YC6DB9Q","30F94FBDNR6BS3JI3VKF41RBJN4TBU","","248.40000000037253","img/animal1.png","74","249.09999999962747","1","0","2","1,0.5,0,0,1,0.5,0.5,0,1",""
"","html-keyboard-response","332","115596","0.0-332.0","3ERMJ6L4DZEMZGO28JCP246BCVHM7Z","A29N5E8YC6DB9Q","30F94FBDNR6BS3JI3VKF41RBJN4TBU","","null","<img src=""img/animal1.png"" style=""width:200px;border:14px solid red;"">","null","","","","","",""
"","image-keyboard-response","333","115839","0.0-333.0","3ERMJ6L4DZEMZGO28JCP246BCVHM7Z","A29N5E8YC6DB9Q","30F94FBDNR6BS3JI3VKF41RBJN4TBU","","241.80000000074506","img/animal3.png","76","242.69999999925494","3","1","3","1,0.5,0,0,1,0.5,0.5,0,1",""
"","html-keyboard-response","334","116140","0.0-334.0","3ERMJ6L4DZEMZGO28JCP246BCVHM7Z","A29N5E8YC6DB9Q","30F94FBDNR6BS3JI3VKF41RBJN4TBU","","null","<img src=""img/animal3.png"" style=""width:200px; border:14px solid green;"">","null","","","","","",""
"","image-keyboard-response","335","116279","0.0-335.0","3ERMJ6L4DZEMZGO28JCP246BCVHM7Z","A29N5E8YC6DB9Q","30F94FBDNR6BS3JI3VKF41RBJN4TBU","","137.2999999988824","img/animal3.png","75","138.19999999925494","2","0","3","1,0.5,0,0,1,0.5,0.5,0,1",""
"","html-keyboard-response","336","116581","0.0-336.0","3ERMJ6L4DZEMZGO28JCP246BCVHM7Z","A29N5E8YC6DB9Q","30F94FBDNR6BS3JI3VKF41RBJN4TBU","","null","<img src=""img/animal3.png"" style=""width:200px;border:14px solid red;"">","null","","","","","",""
"","image-keyboard-response","337","116823","0.0-337.0","3ERMJ6L4DZEMZGO28JCP246BCVHM7Z","A29N5E8YC6DB9Q","30F94FBDNR6BS3JI3VKF41RBJN4TBU","","240.19999999925494","img/animal2.png","74","241.39999999850988","1","1","1","1,0.5,0,0,1,0.5,0.5,0,1",""
"","html-keyboard-response","338","117125","0.0-338.0","3ERMJ6L4DZEMZGO28JCP246BCVHM7Z","A29N5E8YC6DB9Q","30F94FBDNR6BS3JI3VKF41RBJN4TBU","","null","<img src=""img/animal2.png"" style=""width:200px; border:14px solid green;"">","null","","","","","",""
"","image-keyboard-response","339","117327","0.0-339.0","3ERMJ6L4DZEMZGO28JCP246BCVHM7Z","A29N5E8YC6DB9Q","30F94FBDNR6BS3JI3VKF41RBJN4TBU","","201","img/animal1.png","76","201.90000000037253","3","1","2","1,0.5,0,0,1,0.5,0.5,0,1",""
"","html-keyboard-response","340","117628","0.0-340.0","3ERMJ6L4DZEMZGO28JCP246BCVHM7Z","A29N5E8YC6DB9Q","30F94FBDNR6BS3JI3VKF41RBJN4TBU","","null","<img src=""img/animal1.png"" style=""width:200px; border:14px solid green;"">","null","","","","","",""
"","image-keyboard-response","341","117647","0.0-341.0","3ERMJ6L4DZEMZGO28JCP246BCVHM7Z","A29N5E8YC6DB9Q","30F94FBDNR6BS3JI3VKF41RBJN4TBU","","17.09999999962747","img/animal1.png","74","17.90000000037253","1","0","2","1,0.5,0,0,1,0.5,0.5,0,1",""
"","html-keyboard-response","342","117948","0.0-342.0","3ERMJ6L4DZEMZGO28JCP246BCVHM7Z","A29N5E8YC6DB9Q","30F94FBDNR6BS3JI3VKF41RBJN4TBU","","null","<img src=""img/animal1.png"" style=""width:200px;border:14px solid red;"">","null","","","","","",""
"","image-keyboard-response","343","118023","0.0-343.0","3ERMJ6L4DZEMZGO28JCP246BCVHM7Z","A29N5E8YC6DB9Q","30F94FBDNR6BS3JI3VKF41RBJN4TBU","","74","img/animal2.png","75","74.89999999850988","2","1","1","1,0.5,0,0,1,0.5,0.5,0,1",""
"","html-keyboard-response","344","118325","0.0-344.0","3ERMJ6L4DZEMZGO28JCP246BCVHM7Z","A29N5E8YC6DB9Q","30F94FBDNR6BS3JI3VKF41RBJN4TBU","","null","<img src=""img/animal2.png"" style=""width:200px; border:14px solid green;"">","null","","","","","",""
"","image-keyboard-response","345","118335","0.0-345.0","3ERMJ6L4DZEMZGO28JCP246BCVHM7Z","A29N5E8YC6DB9Q","30F94FBDNR6BS3JI3VKF41RBJN4TBU","","8.599999999627471","img/animal3.png","76","9.5","3","1","3","1,0.5,0,0,1,0.5,0.5,0,1",""
"","html-keyboard-response","346","118637","0.0-346.0","3ERMJ6L4DZEMZGO28JCP246BCVHM7Z","A29N5E8YC6DB9Q","30F94FBDNR6BS3JI3VKF41RBJN4TBU","","null","<img src=""img/animal3.png"" style=""width:200px; border:14px solid green;"">","null","","","","","",""
"","image-keyboard-response","347","118639","0.0-347.0","3ERMJ6L4DZEMZGO28JCP246BCVHM7Z","A29N5E8YC6DB9Q","30F94FBDNR6BS3JI3VKF41RBJN4TBU","","0.6000000014901161","img/animal2.png","74","2","1","1","1","1,0.5,0,0,1,0.5,0.5,0,1",""
"","html-keyboard-response","348","118941","0.0-348.0","3ERMJ6L4DZEMZGO28JCP246BCVHM7Z","A29N5E8YC6DB9Q","30F94FBDNR6BS3JI3VKF41RBJN4TBU","","null","<img src=""img/animal2.png"" style=""width:200px; border:14px solid green;"">","null","","","","","",""
"","image-keyboard-response","349","119223","0.0-349.0","3ERMJ6L4DZEMZGO28JCP246BCVHM7Z","A29N5E8YC6DB9Q","30F94FBDNR6BS3JI3VKF41RBJN4TBU","","280.30000000074506","img/animal3.png","76","281.5","3","1","3","1,0.5,0,0,1,0.5,0.5,0,1",""
"","html-keyboard-response","350","119525","0.0-350.0","3ERMJ6L4DZEMZGO28JCP246BCVHM7Z","A29N5E8YC6DB9Q","30F94FBDNR6BS3JI3VKF41RBJN4TBU","","null","<img src=""img/animal3.png"" style=""width:200px; border:14px solid green;"">","null","","","","","",""
"","image-keyboard-response","351","119535","0.0-351.0","3ERMJ6L4DZEMZGO28JCP246BCVHM7Z","A29N5E8YC6DB9Q","30F94FBDNR6BS3JI3VKF41RBJN4TBU","","8.199999999254942","img/animal2.png","74","9","1","1","1","1,0.5,0,0,1,0.5,0.5,0,1",""
"","html-keyboard-response","352","119851","0.0-352.0","3ERMJ6L4DZEMZGO28JCP246BCVHM7Z","A29N5E8YC6DB9Q","30F94FBDNR6BS3JI3VKF41RBJN4TBU","","null","<img src=""img/animal2.png"" style=""width:200px; border:14px solid green;"">","null","","","","","",""
"","image-keyboard-response","353","120119","0.0-353.0","3ERMJ6L4DZEMZGO28JCP246BCVHM7Z","A29N5E8YC6DB9Q","30F94FBDNR6BS3JI3VKF41RBJN4TBU","","266.59999999962747","img/animal1.png","76","267.59999999962747","3","0","2","1,0.5,0,0,1,0.5,0.5,0,1",""
"","html-keyboard-response","354","120421","0.0-354.0","3ERMJ6L4DZEMZGO28JCP246BCVHM7Z","A29N5E8YC6DB9Q","30F94FBDNR6BS3JI3VKF41RBJN4TBU","","null","<img src=""img/animal1.png"" style=""width:200px;border:14px solid red;"">","null","","","","","",""
"","image-keyboard-response","355","120447","0.0-355.0","3ERMJ6L4DZEMZGO28JCP246BCVHM7Z","A29N5E8YC6DB9Q","30F94FBDNR6BS3JI3VKF41RBJN4TBU","","25.100000001490116","img/animal2.png","74","26.09999999962747","1","1","1","1,0.5,0,0,1,0.5,0.5,0,1",""
"","html-keyboard-response","356","120749","0.0-356.0","3ERMJ6L4DZEMZGO28JCP246BCVHM7Z","A29N5E8YC6DB9Q","30F94FBDNR6BS3JI3VKF41RBJN4TBU","","null","<img src=""img/animal2.png"" style=""width:200px; border:14px solid green;"">","null","","","","","",""
"","image-keyboard-response","357","121127","0.0-357.0","3ERMJ6L4DZEMZGO28JCP246BCVHM7Z","A29N5E8YC6DB9Q","30F94FBDNR6BS3JI3VKF41RBJN4TBU","","376.80000000074506","img/animal2.png","76","377.8999999985099","3","0","1","1,0.5,0,0,1,0.5,0.5,0,1",""
"","html-keyboard-response","358","121429","0.0-358.0","3ERMJ6L4DZEMZGO28JCP246BCVHM7Z","A29N5E8YC6DB9Q","30F94FBDNR6BS3JI3VKF41RBJN4TBU","","null","<img src=""img/animal2.png"" style=""width:200px;border:14px solid red;"">","null","","","","","",""
"","image-keyboard-response","359","122263","0.0-359.0","3ERMJ6L4DZEMZGO28JCP246BCVHM7Z","A29N5E8YC6DB9Q","30F94FBDNR6BS3JI3VKF41RBJN4TBU","","832.5999999996275","img/animal2.png","75","833.5999999996275","2","1","1","1,0.5,0,0,1,0.5,0.5,0,1",""
"","html-keyboard-response","360","122565","0.0-360.0","3ERMJ6L4DZEMZGO28JCP246BCVHM7Z","A29N5E8YC6DB9Q","30F94FBDNR6BS3JI3VKF41RBJN4TBU","","null","<img src=""img/animal2.png"" style=""width:200px; border:14px solid green;"">","null","","","","","",""
"","image-keyboard-response","361","122575","0.0-361.0","3ERMJ6L4DZEMZGO28JCP246BCVHM7Z","A29N5E8YC6DB9Q","30F94FBDNR6BS3JI3VKF41RBJN4TBU","","8.5","img/animal1.png","76","9.199999999254942","3","1","2","1,0.5,0,0,1,0.5,0.5,0,1",""
"","html-keyboard-response","362","122876","0.0-362.0","3ERMJ6L4DZEMZGO28JCP246BCVHM7Z","A29N5E8YC6DB9Q","30F94FBDNR6BS3JI3VKF41RBJN4TBU","","null","<img src=""img/animal1.png"" style=""width:200px; border:14px solid green;"">","null","","","","","",""
"","instructions","363","125483","0.0-363.0","3ERMJ6L4DZEMZGO28JCP246BCVHM7Z","A29N5E8YC6DB9Q","30F94FBDNR6BS3JI3VKF41RBJN4TBU","[{""page_index"":0,""viewing_time"":2605.9000000003725}]","2606.2999999988824","","","","","","","",""
"","survey-text","364","128147","0.0-364.0","3ERMJ6L4DZEMZGO28JCP246BCVHM7Z","A29N5E8YC6DB9Q","30F94FBDNR6BS3JI3VKF41RBJN4TBU","","2660.7000000011176","","","","","","","","{""Q0"":""A29N5E8YC6DB9Q""}"
