"success","trial_type","trial_index","time_elapsed","internal_node_id","assignmentID","mturkID","hitID","view_history","rt","stimulus","key_press","reactionTime","a","r","s","reward_cond","responses"
"true","fullscreen","0","5907","0.0-0.0","3DIP6YHAPDESN6181QGC3WXXCDQ8EB","A2BK9RMC0NOIH8","3TZDZ3Y0JSSRVQSC3SM97PDQ3Z7196","","","","","","","","","",""
"","instructions","1","74059","0.0-1.0","3DIP6YHAPDESN6181QGC3WXXCDQ8EB","A2BK9RMC0NOIH8","3TZDZ3Y0JSSRVQSC3SM97PDQ3Z7196","[{""page_index"":0,""viewing_time"":14986.29999999702},{""page_index"":1,""viewing_time"":8126.79999999702},{""page_index"":2,""viewing_time"":7432},{""page_index"":3,""viewing_time"":4223.100000008941},{""page_index"":4,""viewing_time"":9822.39999999106},{""page_index"":5,""viewing_time"":19465.60000000894},{""page_index"":6,""viewing_time"":1403.2000000029802},{""page_index"":7,""viewing_time"":2691.699999988079}]","68151.59999999404","","","","","","","",""
"","image-keyboard-response","2","74747","0.0-2.0","3DIP6YHAPDESN6181QGC3WXXCDQ8EB","A2BK9RMC0NOIH8","3TZDZ3Y0JSSRVQSC3SM97PDQ3Z7196","","686.9000000059605","img/animal1.png","75","687.6999999880791","2","1","3","0.5,0,1,1,0.5,0,0,1,0.5",""
"","html-keyboard-response","3","75048","0.0-3.0","3DIP6YHAPDESN6181QGC3WXXCDQ8EB","A2BK9RMC0NOIH8","3TZDZ3Y0JSSRVQSC3SM97PDQ3Z7196","","null","<img src=""img/animal1.png"" style=""width:200px; border:14px solid green;"">","null","","","","","",""
"","image-keyboard-response","4","75315","0.0-4.0","3DIP6YHAPDESN6181QGC3WXXCDQ8EB","A2BK9RMC0NOIH8","3TZDZ3Y0JSSRVQSC3SM97PDQ3Z7196","","266","img/animal1.png","75","266.5","2","1","3","0.5,0,1,1,0.5,0,0,1,0.5",""
"","html-keyboard-response","5","75617","0.0-5.0","3DIP6YHAPDESN6181QGC3WXXCDQ8EB","A2BK9RMC0NOIH8","3TZDZ3Y0JSSRVQSC3SM97PDQ3Z7196","","null","<img src=""img/animal1.png"" style=""width:200px; border:14px solid green;"">","null","","","","","",""
"","image-keyboard-response","6","75682","0.0-6.0","3DIP6YHAPDESN6181QGC3WXXCDQ8EB","A2BK9RMC0NOIH8","3TZDZ3Y0JSSRVQSC3SM97PDQ3Z7196","","65.20000000298023","img/animal6.png","75","65.70000000298023","2","0","1","0.5,0,1,1,0.5,0,0,1,0.5",""
"","html-keyboard-response","7","75985","0.0-7.0","3DIP6YHAPDESN6181QGC3WXXCDQ8EB","A2BK9RMC0NOIH8","3TZDZ3Y0JSSRVQSC3SM97PDQ3Z7196","","null","<img src=""img/animal6.png"" style=""width:200px;border:14px solid red;"">","null","","","","","",""
"","image-keyboard-response","8","76122","0.0-8.0","3DIP6YHAPDESN6181QGC3WXXCDQ8EB","A2BK9RMC0NOIH8","3TZDZ3Y0JSSRVQSC3SM97PDQ3Z7196","","136.79999999701977","img/animal2.png","74","137.40000000596046","1","1","2","0.5,0,1,1,0.5,0,0,1,0.5",""
"","html-keyboard-response","9","76424","0.0-9.0","3DIP6YHAPDESN6181QGC3WXXCDQ8EB","A2BK9RMC0NOIH8","3TZDZ3Y0JSSRVQSC3SM97PDQ3Z7196","","null","<img src=""img/animal2.png"" style=""width:200px; border:14px solid green;"">","null","","","","","",""
"","image-keyboard-response","10","76602","0.0-10.0","3DIP6YHAPDESN6181QGC3WXXCDQ8EB","A2BK9RMC0NOIH8","3TZDZ3Y0JSSRVQSC3SM97PDQ3Z7196","","177.3999999910593","img/animal2.png","74","178","1","1","2","0.5,0,1,1,0.5,0,0,1,0.5",""
"","html-keyboard-response","11","76904","0.0-11.0","3DIP6YHAPDESN6181QGC3WXXCDQ8EB","A2BK9RMC0NOIH8","3TZDZ3Y0JSSRVQSC3SM97PDQ3Z7196","","null","<img src=""img/animal2.png"" style=""width:200px; border:14px solid green;"">","null","","","","","",""
"","image-keyboard-response","12","76970","0.0-12.0","3DIP6YHAPDESN6181QGC3WXXCDQ8EB","A2BK9RMC0NOIH8","3TZDZ3Y0JSSRVQSC3SM97PDQ3Z7196","","66.20000000298023","img/animal6.png","75","66.70000000298023","2","0","1","0.5,0,1,1,0.5,0,0,1,0.5",""
"","html-keyboard-response","13","77272","0.0-13.0","3DIP6YHAPDESN6181QGC3WXXCDQ8EB","A2BK9RMC0NOIH8","3TZDZ3Y0JSSRVQSC3SM97PDQ3Z7196","","null","<img src=""img/animal6.png"" style=""width:200px;border:14px solid red;"">","null","","","","","",""
"","image-keyboard-response","14","77402","0.0-14.0","3DIP6YHAPDESN6181QGC3WXXCDQ8EB","A2BK9RMC0NOIH8","3TZDZ3Y0JSSRVQSC3SM97PDQ3Z7196","","130.20000000298023","img/animal6.png","76","130.59999999403954","3","1","1","0.5,0,1,1,0.5,0,0,1,0.5",""
"","html-keyboard-response","15","77703","0.0-15.0","3DIP6YHAPDESN6181QGC3WXXCDQ8EB","A2BK9RMC0NOIH8","3TZDZ3Y0JSSRVQSC3SM97PDQ3Z7196","","null","<img src=""img/animal6.png"" style=""width:200px; border:14px solid green;"">","null","","","","","",""
"","image-keyboard-response","16","77818","0.0-16.0","3DIP6YHAPDESN6181QGC3WXXCDQ8EB","A2BK9RMC0NOIH8","3TZDZ3Y0JSSRVQSC3SM97PDQ3Z7196","","114.69999998807907","img/animal6.png","75","115.20000000298023","2","0","1","0.5,0,1,1,0.5,0,0,1,0.5",""
"","html-keyboard-response","17","78121","0.0-17.0","3DIP6YHAPDESN6181QGC3WXXCDQ8EB","A2BK9RMC0NOIH8","3TZDZ3Y0JSSRVQSC3SM97PDQ3Z7196","","null","<img src=""img/animal6.png"" style=""width:200px;border:14px solid red;"">","null","","","","","",""
"","image-keyboard-response","18","78251","0.0-18.0","3DIP6YHAPDESN6181QGC3WXXCDQ8EB","A2BK9RMC0NOIH8","3TZDZ3Y0JSSRVQSC3SM97PDQ3Z7196","","129.59999999403954","img/animal2.png","74","130.1000000089407","1","1","2","0.5,0,1,1,0.5,0,0,1,0.5",""
"","html-keyboard-response","19","78553","0.0-19.0","3DIP6YHAPDESN6181QGC3WXXCDQ8EB","A2BK9RMC0NOIH8","3TZDZ3Y0JSSRVQSC3SM97PDQ3Z7196","","null","<img src=""img/animal2.png"" style=""width:200px; border:14px solid green;"">","null","","","","","",""
"","image-keyboard-response","20","78699","0.0-20.0","3DIP6YHAPDESN6181QGC3WXXCDQ8EB","A2BK9RMC0NOIH8","3TZDZ3Y0JSSRVQSC3SM97PDQ3Z7196","","145.20000000298023","img/animal6.png","75","145.6000000089407","2","0","1","0.5,0,1,1,0.5,0,0,1,0.5",""
"","html-keyboard-response","21","79011","0.0-21.0","3DIP6YHAPDESN6181QGC3WXXCDQ8EB","A2BK9RMC0NOIH8","3TZDZ3Y0JSSRVQSC3SM97PDQ3Z7196","","null","<img src=""img/animal6.png"" style=""width:200px;border:14px solid red;"">","null","","","","","",""
"","image-keyboard-response","22","79162","0.0-22.0","3DIP6YHAPDESN6181QGC3WXXCDQ8EB","A2BK9RMC0NOIH8","3TZDZ3Y0JSSRVQSC3SM97PDQ3Z7196","","151.20000000298023","img/animal1.png","76","151.5","3","0","3","0.5,0,1,1,0.5,0,0,1,0.5",""
"","html-keyboard-response","23","79463","0.0-23.0","3DIP6YHAPDESN6181QGC3WXXCDQ8EB","A2BK9RMC0NOIH8","3TZDZ3Y0JSSRVQSC3SM97PDQ3Z7196","","null","<img src=""img/animal1.png"" style=""width:200px;border:14px solid red;"">","null","","","","","",""
"","image-keyboard-response","24","79778","0.0-24.0","3DIP6YHAPDESN6181QGC3WXXCDQ8EB","A2BK9RMC0NOIH8","3TZDZ3Y0JSSRVQSC3SM97PDQ3Z7196","","315","img/animal1.png","75","315.29999999701977","2","1","3","0.5,0,1,1,0.5,0,0,1,0.5",""
"","html-keyboard-response","25","80091","0.0-25.0","3DIP6YHAPDESN6181QGC3WXXCDQ8EB","A2BK9RMC0NOIH8","3TZDZ3Y0JSSRVQSC3SM97PDQ3Z7196","","null","<img src=""img/animal1.png"" style=""width:200px; border:14px solid green;"">","null","","","","","",""
"","image-keyboard-response","26","80218","0.0-26.0","3DIP6YHAPDESN6181QGC3WXXCDQ8EB","A2BK9RMC0NOIH8","3TZDZ3Y0JSSRVQSC3SM97PDQ3Z7196","","127.1000000089407","img/animal1.png","74","127.5","1","0","3","0.5,0,1,1,0.5,0,0,1,0.5",""
"","html-keyboard-response","27","80537","0.0-27.0","3DIP6YHAPDESN6181QGC3WXXCDQ8EB","A2BK9RMC0NOIH8","3TZDZ3Y0JSSRVQSC3SM97PDQ3Z7196","","null","<img src=""img/animal1.png"" style=""width:200px;border:14px solid red;"">","null","","","","","",""
"","image-keyboard-response","28","80619","0.0-28.0","3DIP6YHAPDESN6181QGC3WXXCDQ8EB","A2BK9RMC0NOIH8","3TZDZ3Y0JSSRVQSC3SM97PDQ3Z7196","","80.5","img/animal1.png","74","81.29999999701977","1","0","3","0.5,0,1,1,0.5,0,0,1,0.5",""
"","html-keyboard-response","29","80920","0.0-29.0","3DIP6YHAPDESN6181QGC3WXXCDQ8EB","A2BK9RMC0NOIH8","3TZDZ3Y0JSSRVQSC3SM97PDQ3Z7196","","null","<img src=""img/animal1.png"" style=""width:200px;border:14px solid red;"">","null","","","","","",""
"","image-keyboard-response","30","81019","0.0-30.0","3DIP6YHAPDESN6181QGC3WXXCDQ8EB","A2BK9RMC0NOIH8","3TZDZ3Y0JSSRVQSC3SM97PDQ3Z7196","","97.90000000596046","img/animal6.png","75","98.5","2","0","1","0.5,0,1,1,0.5,0,0,1,0.5",""
"","html-keyboard-response","31","81319","0.0-31.0","3DIP6YHAPDESN6181QGC3WXXCDQ8EB","A2BK9RMC0NOIH8","3TZDZ3Y0JSSRVQSC3SM97PDQ3Z7196","","null","<img src=""img/animal6.png"" style=""width:200px;border:14px solid red;"">","null","","","","","",""
"","image-keyboard-response","32","81418","0.0-32.0","3DIP6YHAPDESN6181QGC3WXXCDQ8EB","A2BK9RMC0NOIH8","3TZDZ3Y0JSSRVQSC3SM97PDQ3Z7196","","98.29999999701977","img/animal1.png","76","98.70000000298023","3","1","3","0.5,0,1,1,0.5,0,0,1,0.5",""
"","html-keyboard-response","33","81719","0.0-33.0","3DIP6YHAPDESN6181QGC3WXXCDQ8EB","A2BK9RMC0NOIH8","3TZDZ3Y0JSSRVQSC3SM97PDQ3Z7196","","null","<img src=""img/animal1.png"" style=""width:200px; border:14px solid green;"">","null","","","","","",""
"","image-keyboard-response","34","81932","0.0-34.0","3DIP6YHAPDESN6181QGC3WXXCDQ8EB","A2BK9RMC0NOIH8","3TZDZ3Y0JSSRVQSC3SM97PDQ3Z7196","","211.70000000298023","img/animal2.png","75","212.3999999910593","2","0","2","0.5,0,1,1,0.5,0,0,1,0.5",""
"","html-keyboard-response","35","82233","0.0-35.0","3DIP6YHAPDESN6181QGC3WXXCDQ8EB","A2BK9RMC0NOIH8","3TZDZ3Y0JSSRVQSC3SM97PDQ3Z7196","","null","<img src=""img/animal2.png"" style=""width:200px;border:14px solid red;"">","null","","","","","",""
"","image-keyboard-response","36","82275","0.0-36.0","3DIP6YHAPDESN6181QGC3WXXCDQ8EB","A2BK9RMC0NOIH8","3TZDZ3Y0JSSRVQSC3SM97PDQ3Z7196","","40.80000001192093","img/animal2.png","74","41.3999999910593","1","1","2","0.5,0,1,1,0.5,0,0,1,0.5",""
"","html-keyboard-response","37","82576","0.0-37.0","3DIP6YHAPDESN6181QGC3WXXCDQ8EB","A2BK9RMC0NOIH8","3TZDZ3Y0JSSRVQSC3SM97PDQ3Z7196","","null","<img src=""img/animal2.png"" style=""width:200px; border:14px solid green;"">","null","","","","","",""
"","image-keyboard-response","38","82634","0.0-38.0","3DIP6YHAPDESN6181QGC3WXXCDQ8EB","A2BK9RMC0NOIH8","3TZDZ3Y0JSSRVQSC3SM97PDQ3Z7196","","57.400000005960464","img/animal1.png","74","57.8999999910593","1","0","3","0.5,0,1,1,0.5,0,0,1,0.5",""
"","html-keyboard-response","39","82936","0.0-39.0","3DIP6YHAPDESN6181QGC3WXXCDQ8EB","A2BK9RMC0NOIH8","3TZDZ3Y0JSSRVQSC3SM97PDQ3Z7196","","null","<img src=""img/animal1.png"" style=""width:200px;border:14px solid red;"">","null","","","","","",""
"","image-keyboard-response","40","83051","0.0-40.0","3DIP6YHAPDESN6181QGC3WXXCDQ8EB","A2BK9RMC0NOIH8","3TZDZ3Y0JSSRVQSC3SM97PDQ3Z7196","","114.3999999910593","img/animal6.png","75","114.80000001192093","2","0","1","0.5,0,1,1,0.5,0,0,1,0.5",""
"","html-keyboard-response","41","83352","0.0-41.0","3DIP6YHAPDESN6181QGC3WXXCDQ8EB","A2BK9RMC0NOIH8","3TZDZ3Y0JSSRVQSC3SM97PDQ3Z7196","","null","<img src=""img/animal6.png"" style=""width:200px;border:14px solid red;"">","null","","","","","",""
"","image-keyboard-response","42","83474","0.0-42.0","3DIP6YHAPDESN6181QGC3WXXCDQ8EB","A2BK9RMC0NOIH8","3TZDZ3Y0JSSRVQSC3SM97PDQ3Z7196","","121.59999999403954","img/animal1.png","76","122","3","0","3","0.5,0,1,1,0.5,0,0,1,0.5",""
"","html-keyboard-response","43","83777","0.0-43.0","3DIP6YHAPDESN6181QGC3WXXCDQ8EB","A2BK9RMC0NOIH8","3TZDZ3Y0JSSRVQSC3SM97PDQ3Z7196","","null","<img src=""img/animal1.png"" style=""width:200px;border:14px solid red;"">","null","","","","","",""
"","image-keyboard-response","44","83842","0.0-44.0","3DIP6YHAPDESN6181QGC3WXXCDQ8EB","A2BK9RMC0NOIH8","3TZDZ3Y0JSSRVQSC3SM97PDQ3Z7196","","65.29999999701977","img/animal1.png","76","65.70000000298023","3","0","3","0.5,0,1,1,0.5,0,0,1,0.5",""
"","html-keyboard-response","45","84144","0.0-45.0","3DIP6YHAPDESN6181QGC3WXXCDQ8EB","A2BK9RMC0NOIH8","3TZDZ3Y0JSSRVQSC3SM97PDQ3Z7196","","null","<img src=""img/animal1.png"" style=""width:200px;border:14px solid red;"">","null","","","","","",""
"","image-keyboard-response","46","84251","0.0-46.0","3DIP6YHAPDESN6181QGC3WXXCDQ8EB","A2BK9RMC0NOIH8","3TZDZ3Y0JSSRVQSC3SM97PDQ3Z7196","","106.5","img/animal1.png","75","106.90000000596046","2","1","3","0.5,0,1,1,0.5,0,0,1,0.5",""
"","html-keyboard-response","47","84553","0.0-47.0","3DIP6YHAPDESN6181QGC3WXXCDQ8EB","A2BK9RMC0NOIH8","3TZDZ3Y0JSSRVQSC3SM97PDQ3Z7196","","null","<img src=""img/animal1.png"" style=""width:200px; border:14px solid green;"">","null","","","","","",""
"","image-keyboard-response","48","84626","0.0-48.0","3DIP6YHAPDESN6181QGC3WXXCDQ8EB","A2BK9RMC0NOIH8","3TZDZ3Y0JSSRVQSC3SM97PDQ3Z7196","","73.09999999403954","img/animal1.png","74","73.6000000089407","1","0","3","0.5,0,1,1,0.5,0,0,1,0.5",""
"","html-keyboard-response","49","84928","0.0-49.0","3DIP6YHAPDESN6181QGC3WXXCDQ8EB","A2BK9RMC0NOIH8","3TZDZ3Y0JSSRVQSC3SM97PDQ3Z7196","","null","<img src=""img/animal1.png"" style=""width:200px;border:14px solid red;"">","null","","","","","",""
"","image-keyboard-response","50","85035","0.0-50.0","3DIP6YHAPDESN6181QGC3WXXCDQ8EB","A2BK9RMC0NOIH8","3TZDZ3Y0JSSRVQSC3SM97PDQ3Z7196","","106.19999998807907","img/animal6.png","74","106.59999999403954","1","1","1","0.5,0,1,1,0.5,0,0,1,0.5",""
"","html-keyboard-response","51","85336","0.0-51.0","3DIP6YHAPDESN6181QGC3WXXCDQ8EB","A2BK9RMC0NOIH8","3TZDZ3Y0JSSRVQSC3SM97PDQ3Z7196","","null","<img src=""img/animal6.png"" style=""width:200px; border:14px solid green;"">","null","","","","","",""
"","image-keyboard-response","52","85443","0.0-52.0","3DIP6YHAPDESN6181QGC3WXXCDQ8EB","A2BK9RMC0NOIH8","3TZDZ3Y0JSSRVQSC3SM97PDQ3Z7196","","105.90000000596046","img/animal2.png","75","106.29999999701977","2","1","2","0.5,0,1,1,0.5,0,0,1,0.5",""
"","html-keyboard-response","53","85745","0.0-53.0","3DIP6YHAPDESN6181QGC3WXXCDQ8EB","A2BK9RMC0NOIH8","3TZDZ3Y0JSSRVQSC3SM97PDQ3Z7196","","null","<img src=""img/animal2.png"" style=""width:200px; border:14px solid green;"">","null","","","","","",""
"","image-keyboard-response","54","85890","0.0-54.0","3DIP6YHAPDESN6181QGC3WXXCDQ8EB","A2BK9RMC0NOIH8","3TZDZ3Y0JSSRVQSC3SM97PDQ3Z7196","","145.40000000596046","img/animal2.png","76","145.70000000298023","3","0","2","0.5,0,1,1,0.5,0,0,1,0.5",""
"","html-keyboard-response","55","86198","0.0-55.0","3DIP6YHAPDESN6181QGC3WXXCDQ8EB","A2BK9RMC0NOIH8","3TZDZ3Y0JSSRVQSC3SM97PDQ3Z7196","","null","<img src=""img/animal2.png"" style=""width:200px;border:14px solid red;"">","null","","","","","",""
"","image-keyboard-response","56","86691","0.0-56.0","3DIP6YHAPDESN6181QGC3WXXCDQ8EB","A2BK9RMC0NOIH8","3TZDZ3Y0JSSRVQSC3SM97PDQ3Z7196","","492.40000000596046","img/animal6.png","75","492.8999999910593","2","0","1","0.5,0,1,1,0.5,0,0,1,0.5",""
"","html-keyboard-response","57","86993","0.0-57.0","3DIP6YHAPDESN6181QGC3WXXCDQ8EB","A2BK9RMC0NOIH8","3TZDZ3Y0JSSRVQSC3SM97PDQ3Z7196","","null","<img src=""img/animal6.png"" style=""width:200px;border:14px solid red;"">","null","","","","","",""
"","image-keyboard-response","58","87083","0.0-58.0","3DIP6YHAPDESN6181QGC3WXXCDQ8EB","A2BK9RMC0NOIH8","3TZDZ3Y0JSSRVQSC3SM97PDQ3Z7196","","89","img/animal6.png","74","89.5","1","0","1","0.5,0,1,1,0.5,0,0,1,0.5",""
"","html-keyboard-response","59","87384","0.0-59.0","3DIP6YHAPDESN6181QGC3WXXCDQ8EB","A2BK9RMC0NOIH8","3TZDZ3Y0JSSRVQSC3SM97PDQ3Z7196","","null","<img src=""img/animal6.png"" style=""width:200px;border:14px solid red;"">","null","","","","","",""
"","image-keyboard-response","60","87451","0.0-60.0","3DIP6YHAPDESN6181QGC3WXXCDQ8EB","A2BK9RMC0NOIH8","3TZDZ3Y0JSSRVQSC3SM97PDQ3Z7196","","66.29999999701977","img/animal2.png","74","67","1","1","2","0.5,0,1,1,0.5,0,0,1,0.5",""
"","html-keyboard-response","61","87754","0.0-61.0","3DIP6YHAPDESN6181QGC3WXXCDQ8EB","A2BK9RMC0NOIH8","3TZDZ3Y0JSSRVQSC3SM97PDQ3Z7196","","null","<img src=""img/animal2.png"" style=""width:200px; border:14px solid green;"">","null","","","","","",""
"","image-keyboard-response","62","87810","0.0-62.0","3DIP6YHAPDESN6181QGC3WXXCDQ8EB","A2BK9RMC0NOIH8","3TZDZ3Y0JSSRVQSC3SM97PDQ3Z7196","","56.29999999701977","img/animal6.png","75","56.6000000089407","2","0","1","0.5,0,1,1,0.5,0,0,1,0.5",""
"","html-keyboard-response","63","88112","0.0-63.0","3DIP6YHAPDESN6181QGC3WXXCDQ8EB","A2BK9RMC0NOIH8","3TZDZ3Y0JSSRVQSC3SM97PDQ3Z7196","","null","<img src=""img/animal6.png"" style=""width:200px;border:14px solid red;"">","null","","","","","",""
"","image-keyboard-response","64","88242","0.0-64.0","3DIP6YHAPDESN6181QGC3WXXCDQ8EB","A2BK9RMC0NOIH8","3TZDZ3Y0JSSRVQSC3SM97PDQ3Z7196","","129.5","img/animal1.png","76","130","3","0","3","0.5,0,1,1,0.5,0,0,1,0.5",""
"","html-keyboard-response","65","88544","0.0-65.0","3DIP6YHAPDESN6181QGC3WXXCDQ8EB","A2BK9RMC0NOIH8","3TZDZ3Y0JSSRVQSC3SM97PDQ3Z7196","","null","<img src=""img/animal1.png"" style=""width:200px;border:14px solid red;"">","null","","","","","",""
"","image-keyboard-response","66","88642","0.0-66.0","3DIP6YHAPDESN6181QGC3WXXCDQ8EB","A2BK9RMC0NOIH8","3TZDZ3Y0JSSRVQSC3SM97PDQ3Z7196","","98.29999999701977","img/animal2.png","76","98.80000001192093","3","0","2","0.5,0,1,1,0.5,0,0,1,0.5",""
"","html-keyboard-response","67","88944","0.0-67.0","3DIP6YHAPDESN6181QGC3WXXCDQ8EB","A2BK9RMC0NOIH8","3TZDZ3Y0JSSRVQSC3SM97PDQ3Z7196","","null","<img src=""img/animal2.png"" style=""width:200px;border:14px solid red;"">","null","","","","","",""
"","image-keyboard-response","68","89043","0.0-68.0","3DIP6YHAPDESN6181QGC3WXXCDQ8EB","A2BK9RMC0NOIH8","3TZDZ3Y0JSSRVQSC3SM97PDQ3Z7196","","98.09999999403954","img/animal6.png","75","98.5","2","0","1","0.5,0,1,1,0.5,0,0,1,0.5",""
"","html-keyboard-response","69","89344","0.0-69.0","3DIP6YHAPDESN6181QGC3WXXCDQ8EB","A2BK9RMC0NOIH8","3TZDZ3Y0JSSRVQSC3SM97PDQ3Z7196","","null","<img src=""img/animal6.png"" style=""width:200px;border:14px solid red;"">","null","","","","","",""
"","image-keyboard-response","70","89451","0.0-70.0","3DIP6YHAPDESN6181QGC3WXXCDQ8EB","A2BK9RMC0NOIH8","3TZDZ3Y0JSSRVQSC3SM97PDQ3Z7196","","106","img/animal1.png","74","106.29999999701977","1","0","3","0.5,0,1,1,0.5,0,0,1,0.5",""
"","html-keyboard-response","71","89752","0.0-71.0","3DIP6YHAPDESN6181QGC3WXXCDQ8EB","A2BK9RMC0NOIH8","3TZDZ3Y0JSSRVQSC3SM97PDQ3Z7196","","null","<img src=""img/animal1.png"" style=""width:200px;border:14px solid red;"">","null","","","","","",""
"","image-keyboard-response","72","89810","0.0-72.0","3DIP6YHAPDESN6181QGC3WXXCDQ8EB","A2BK9RMC0NOIH8","3TZDZ3Y0JSSRVQSC3SM97PDQ3Z7196","","57.5","img/animal2.png","74","58","1","1","2","0.5,0,1,1,0.5,0,0,1,0.5",""
"","html-keyboard-response","73","90113","0.0-73.0","3DIP6YHAPDESN6181QGC3WXXCDQ8EB","A2BK9RMC0NOIH8","3TZDZ3Y0JSSRVQSC3SM97PDQ3Z7196","","null","<img src=""img/animal2.png"" style=""width:200px; border:14px solid green;"">","null","","","","","",""
"","image-keyboard-response","74","90202","0.0-74.0","3DIP6YHAPDESN6181QGC3WXXCDQ8EB","A2BK9RMC0NOIH8","3TZDZ3Y0JSSRVQSC3SM97PDQ3Z7196","","89.5","img/animal1.png","75","89.90000000596046","2","1","3","0.5,0,1,1,0.5,0,0,1,0.5",""
"","html-keyboard-response","75","90505","0.0-75.0","3DIP6YHAPDESN6181QGC3WXXCDQ8EB","A2BK9RMC0NOIH8","3TZDZ3Y0JSSRVQSC3SM97PDQ3Z7196","","null","<img src=""img/animal1.png"" style=""width:200px; border:14px solid green;"">","null","","","","","",""
"","image-keyboard-response","76","90634","0.0-76.0","3DIP6YHAPDESN6181QGC3WXXCDQ8EB","A2BK9RMC0NOIH8","3TZDZ3Y0JSSRVQSC3SM97PDQ3Z7196","","128.79999999701977","img/animal1.png","76","129.20000000298023","3","1","3","0.5,0,1,1,0.5,0,0,1,0.5",""
"","html-keyboard-response","77","90936","0.0-77.0","3DIP6YHAPDESN6181QGC3WXXCDQ8EB","A2BK9RMC0NOIH8","3TZDZ3Y0JSSRVQSC3SM97PDQ3Z7196","","null","<img src=""img/animal1.png"" style=""width:200px; border:14px solid green;"">","null","","","","","",""
"","image-keyboard-response","78","91099","0.0-78.0","3DIP6YHAPDESN6181QGC3WXXCDQ8EB","A2BK9RMC0NOIH8","3TZDZ3Y0JSSRVQSC3SM97PDQ3Z7196","","161.90000000596046","img/animal6.png","75","162.40000000596046","2","0","1","0.5,0,1,1,0.5,0,0,1,0.5",""
"","html-keyboard-response","79","91399","0.0-79.0","3DIP6YHAPDESN6181QGC3WXXCDQ8EB","A2BK9RMC0NOIH8","3TZDZ3Y0JSSRVQSC3SM97PDQ3Z7196","","null","<img src=""img/animal6.png"" style=""width:200px;border:14px solid red;"">","null","","","","","",""
"","image-keyboard-response","80","91443","0.0-80.0","3DIP6YHAPDESN6181QGC3WXXCDQ8EB","A2BK9RMC0NOIH8","3TZDZ3Y0JSSRVQSC3SM97PDQ3Z7196","","42.6000000089407","img/animal6.png","74","43","1","1","1","0.5,0,1,1,0.5,0,0,1,0.5",""
"","html-keyboard-response","81","91744","0.0-81.0","3DIP6YHAPDESN6181QGC3WXXCDQ8EB","A2BK9RMC0NOIH8","3TZDZ3Y0JSSRVQSC3SM97PDQ3Z7196","","null","<img src=""img/animal6.png"" style=""width:200px; border:14px solid green;"">","null","","","","","",""
"","image-keyboard-response","82","91898","0.0-82.0","3DIP6YHAPDESN6181QGC3WXXCDQ8EB","A2BK9RMC0NOIH8","3TZDZ3Y0JSSRVQSC3SM97PDQ3Z7196","","153.79999999701977","img/animal1.png","74","154.20000000298023","1","0","3","0.5,0,1,1,0.5,0,0,1,0.5",""
"","html-keyboard-response","83","92200","0.0-83.0","3DIP6YHAPDESN6181QGC3WXXCDQ8EB","A2BK9RMC0NOIH8","3TZDZ3Y0JSSRVQSC3SM97PDQ3Z7196","","null","<img src=""img/animal1.png"" style=""width:200px;border:14px solid red;"">","null","","","","","",""
"","image-keyboard-response","84","92251","0.0-84.0","3DIP6YHAPDESN6181QGC3WXXCDQ8EB","A2BK9RMC0NOIH8","3TZDZ3Y0JSSRVQSC3SM97PDQ3Z7196","","50.3999999910593","img/animal2.png","74","50.79999999701977","1","1","2","0.5,0,1,1,0.5,0,0,1,0.5",""
"","html-keyboard-response","85","92553","0.0-85.0","3DIP6YHAPDESN6181QGC3WXXCDQ8EB","A2BK9RMC0NOIH8","3TZDZ3Y0JSSRVQSC3SM97PDQ3Z7196","","null","<img src=""img/animal2.png"" style=""width:200px; border:14px solid green;"">","null","","","","","",""
"","image-keyboard-response","86","92618","0.0-86.0","3DIP6YHAPDESN6181QGC3WXXCDQ8EB","A2BK9RMC0NOIH8","3TZDZ3Y0JSSRVQSC3SM97PDQ3Z7196","","64.70000000298023","img/animal6.png","75","65.3999999910593","2","0","1","0.5,0,1,1,0.5,0,0,1,0.5",""
"","html-keyboard-response","87","92921","0.0-87.0","3DIP6YHAPDESN6181QGC3WXXCDQ8EB","A2BK9RMC0NOIH8","3TZDZ3Y0JSSRVQSC3SM97PDQ3Z7196","","null","<img src=""img/animal6.png"" style=""width:200px;border:14px solid red;"">","null","","","","","",""
"","image-keyboard-response","88","93067","0.0-88.0","3DIP6YHAPDESN6181QGC3WXXCDQ8EB","A2BK9RMC0NOIH8","3TZDZ3Y0JSSRVQSC3SM97PDQ3Z7196","","145.70000000298023","img/animal6.png","75","146.20000000298023","2","0","1","0.5,0,1,1,0.5,0,0,1,0.5",""
"","html-keyboard-response","89","93368","0.0-89.0","3DIP6YHAPDESN6181QGC3WXXCDQ8EB","A2BK9RMC0NOIH8","3TZDZ3Y0JSSRVQSC3SM97PDQ3Z7196","","null","<img src=""img/animal6.png"" style=""width:200px;border:14px solid red;"">","null","","","","","",""
"","image-keyboard-response","90","93418","0.0-90.0","3DIP6YHAPDESN6181QGC3WXXCDQ8EB","A2BK9RMC0NOIH8","3TZDZ3Y0JSSRVQSC3SM97PDQ3Z7196","","49.79999999701977","img/animal1.png","74","50.20000000298023","1","0","3","0.5,0,1,1,0.5,0,0,1,0.5",""
"","html-keyboard-response","91","93720","0.0-91.0","3DIP6YHAPDESN6181QGC3WXXCDQ8EB","A2BK9RMC0NOIH8","3TZDZ3Y0JSSRVQSC3SM97PDQ3Z7196","","null","<img src=""img/animal1.png"" style=""width:200px;border:14px solid red;"">","null","","","","","",""
"","image-keyboard-response","92","93875","0.0-92.0","3DIP6YHAPDESN6181QGC3WXXCDQ8EB","A2BK9RMC0NOIH8","3TZDZ3Y0JSSRVQSC3SM97PDQ3Z7196","","154.5","img/animal1.png","76","154.80000001192093","3","1","3","0.5,0,1,1,0.5,0,0,1,0.5",""
"","html-keyboard-response","93","94183","0.0-93.0","3DIP6YHAPDESN6181QGC3WXXCDQ8EB","A2BK9RMC0NOIH8","3TZDZ3Y0JSSRVQSC3SM97PDQ3Z7196","","null","<img src=""img/animal1.png"" style=""width:200px; border:14px solid green;"">","null","","","","","",""
"","image-keyboard-response","94","94226","0.0-94.0","3DIP6YHAPDESN6181QGC3WXXCDQ8EB","A2BK9RMC0NOIH8","3TZDZ3Y0JSSRVQSC3SM97PDQ3Z7196","","42.599999994039536","img/animal6.png","74","43.1000000089407","1","1","1","0.5,0,1,1,0.5,0,0,1,0.5",""
"","html-keyboard-response","95","94529","0.0-95.0","3DIP6YHAPDESN6181QGC3WXXCDQ8EB","A2BK9RMC0NOIH8","3TZDZ3Y0JSSRVQSC3SM97PDQ3Z7196","","null","<img src=""img/animal6.png"" style=""width:200px; border:14px solid green;"">","null","","","","","",""
"","image-keyboard-response","96","94683","0.0-96.0","3DIP6YHAPDESN6181QGC3WXXCDQ8EB","A2BK9RMC0NOIH8","3TZDZ3Y0JSSRVQSC3SM97PDQ3Z7196","","154","img/animal2.png","76","154.5","3","0","2","0.5,0,1,1,0.5,0,0,1,0.5",""
"","html-keyboard-response","97","94984","0.0-97.0","3DIP6YHAPDESN6181QGC3WXXCDQ8EB","A2BK9RMC0NOIH8","3TZDZ3Y0JSSRVQSC3SM97PDQ3Z7196","","null","<img src=""img/animal2.png"" style=""width:200px;border:14px solid red;"">","null","","","","","",""
"","image-keyboard-response","98","95058","0.0-98.0","3DIP6YHAPDESN6181QGC3WXXCDQ8EB","A2BK9RMC0NOIH8","3TZDZ3Y0JSSRVQSC3SM97PDQ3Z7196","","73.5","img/animal2.png","74","73.90000000596046","1","1","2","0.5,0,1,1,0.5,0,0,1,0.5",""
"","html-keyboard-response","99","95360","0.0-99.0","3DIP6YHAPDESN6181QGC3WXXCDQ8EB","A2BK9RMC0NOIH8","3TZDZ3Y0JSSRVQSC3SM97PDQ3Z7196","","null","<img src=""img/animal2.png"" style=""width:200px; border:14px solid green;"">","null","","","","","",""
"","image-keyboard-response","100","95619","0.0-100.0","3DIP6YHAPDESN6181QGC3WXXCDQ8EB","A2BK9RMC0NOIH8","3TZDZ3Y0JSSRVQSC3SM97PDQ3Z7196","","258.19999998807907","img/animal1.png","76","258.59999999403954","3","0","3","0.5,0,1,1,0.5,0,0,1,0.5",""
"","html-keyboard-response","101","95920","0.0-101.0","3DIP6YHAPDESN6181QGC3WXXCDQ8EB","A2BK9RMC0NOIH8","3TZDZ3Y0JSSRVQSC3SM97PDQ3Z7196","","null","<img src=""img/animal1.png"" style=""width:200px;border:14px solid red;"">","null","","","","","",""
"","image-keyboard-response","102","95922","0.0-102.0","3DIP6YHAPDESN6181QGC3WXXCDQ8EB","A2BK9RMC0NOIH8","3TZDZ3Y0JSSRVQSC3SM97PDQ3Z7196","","1.5","img/animal6.png","74","2","1","1","1","0.5,0,1,1,0.5,0,0,1,0.5",""
"","html-keyboard-response","103","96229","0.0-103.0","3DIP6YHAPDESN6181QGC3WXXCDQ8EB","A2BK9RMC0NOIH8","3TZDZ3Y0JSSRVQSC3SM97PDQ3Z7196","","null","<img src=""img/animal6.png"" style=""width:200px; border:14px solid green;"">","null","","","","","",""
"","image-keyboard-response","104","96314","0.0-104.0","3DIP6YHAPDESN6181QGC3WXXCDQ8EB","A2BK9RMC0NOIH8","3TZDZ3Y0JSSRVQSC3SM97PDQ3Z7196","","84.5","img/animal6.png","75","84.79999999701977","2","0","1","0.5,0,1,1,0.5,0,0,1,0.5",""
"","html-keyboard-response","105","96616","0.0-105.0","3DIP6YHAPDESN6181QGC3WXXCDQ8EB","A2BK9RMC0NOIH8","3TZDZ3Y0JSSRVQSC3SM97PDQ3Z7196","","null","<img src=""img/animal6.png"" style=""width:200px;border:14px solid red;"">","null","","","","","",""
"","image-keyboard-response","106","97010","0.0-106.0","3DIP6YHAPDESN6181QGC3WXXCDQ8EB","A2BK9RMC0NOIH8","3TZDZ3Y0JSSRVQSC3SM97PDQ3Z7196","","394.09999999403954","img/animal1.png","76","394.40000000596046","3","0","3","0.5,0,1,1,0.5,0,0,1,0.5",""
"","html-keyboard-response","107","97313","0.0-107.0","3DIP6YHAPDESN6181QGC3WXXCDQ8EB","A2BK9RMC0NOIH8","3TZDZ3Y0JSSRVQSC3SM97PDQ3Z7196","","null","<img src=""img/animal1.png"" style=""width:200px;border:14px solid red;"">","null","","","","","",""
"","image-keyboard-response","108","97434","0.0-108.0","3DIP6YHAPDESN6181QGC3WXXCDQ8EB","A2BK9RMC0NOIH8","3TZDZ3Y0JSSRVQSC3SM97PDQ3Z7196","","121.20000000298023","img/animal6.png","74","121.59999999403954","1","1","1","0.5,0,1,1,0.5,0,0,1,0.5",""
"","html-keyboard-response","109","97737","0.0-109.0","3DIP6YHAPDESN6181QGC3WXXCDQ8EB","A2BK9RMC0NOIH8","3TZDZ3Y0JSSRVQSC3SM97PDQ3Z7196","","null","<img src=""img/animal6.png"" style=""width:200px; border:14px solid green;"">","null","","","","","",""
"","image-keyboard-response","110","97819","0.0-110.0","3DIP6YHAPDESN6181QGC3WXXCDQ8EB","A2BK9RMC0NOIH8","3TZDZ3Y0JSSRVQSC3SM97PDQ3Z7196","","81.5","img/animal2.png","74","82","1","1","2","0.5,0,1,1,0.5,0,0,1,0.5",""
"","html-keyboard-response","111","98120","0.0-111.0","3DIP6YHAPDESN6181QGC3WXXCDQ8EB","A2BK9RMC0NOIH8","3TZDZ3Y0JSSRVQSC3SM97PDQ3Z7196","","null","<img src=""img/animal2.png"" style=""width:200px; border:14px solid green;"">","null","","","","","",""
"","image-keyboard-response","112","98234","0.0-112.0","3DIP6YHAPDESN6181QGC3WXXCDQ8EB","A2BK9RMC0NOIH8","3TZDZ3Y0JSSRVQSC3SM97PDQ3Z7196","","113.5","img/animal6.png","75","114","2","0","1","0.5,0,1,1,0.5,0,0,1,0.5",""
"","html-keyboard-response","113","98537","0.0-113.0","3DIP6YHAPDESN6181QGC3WXXCDQ8EB","A2BK9RMC0NOIH8","3TZDZ3Y0JSSRVQSC3SM97PDQ3Z7196","","null","<img src=""img/animal6.png"" style=""width:200px;border:14px solid red;"">","null","","","","","",""
"","image-keyboard-response","114","98675","0.0-114.0","3DIP6YHAPDESN6181QGC3WXXCDQ8EB","A2BK9RMC0NOIH8","3TZDZ3Y0JSSRVQSC3SM97PDQ3Z7196","","137.59999999403954","img/animal1.png","76","138.20000000298023","3","1","3","0.5,0,1,1,0.5,0,0,1,0.5",""
"","html-keyboard-response","115","98976","0.0-115.0","3DIP6YHAPDESN6181QGC3WXXCDQ8EB","A2BK9RMC0NOIH8","3TZDZ3Y0JSSRVQSC3SM97PDQ3Z7196","","null","<img src=""img/animal1.png"" style=""width:200px; border:14px solid green;"">","null","","","","","",""
"","image-keyboard-response","116","99083","0.0-116.0","3DIP6YHAPDESN6181QGC3WXXCDQ8EB","A2BK9RMC0NOIH8","3TZDZ3Y0JSSRVQSC3SM97PDQ3Z7196","","105.09999999403954","img/animal1.png","75","105.5","2","1","3","0.5,0,1,1,0.5,0,0,1,0.5",""
"","html-keyboard-response","117","99399","0.0-117.0","3DIP6YHAPDESN6181QGC3WXXCDQ8EB","A2BK9RMC0NOIH8","3TZDZ3Y0JSSRVQSC3SM97PDQ3Z7196","","null","<img src=""img/animal1.png"" style=""width:200px; border:14px solid green;"">","null","","","","","",""
"","image-keyboard-response","118","99418","0.0-118.0","3DIP6YHAPDESN6181QGC3WXXCDQ8EB","A2BK9RMC0NOIH8","3TZDZ3Y0JSSRVQSC3SM97PDQ3Z7196","","19","img/animal2.png","74","19.5","1","1","2","0.5,0,1,1,0.5,0,0,1,0.5",""
"","html-keyboard-response","119","99721","0.0-119.0","3DIP6YHAPDESN6181QGC3WXXCDQ8EB","A2BK9RMC0NOIH8","3TZDZ3Y0JSSRVQSC3SM97PDQ3Z7196","","null","<img src=""img/animal2.png"" style=""width:200px; border:14px solid green;"">","null","","","","","",""
"","image-keyboard-response","120","99914","0.0-120.0","3DIP6YHAPDESN6181QGC3WXXCDQ8EB","A2BK9RMC0NOIH8","3TZDZ3Y0JSSRVQSC3SM97PDQ3Z7196","","193.20000000298023","img/animal2.png","75","193.70000000298023","2","1","2","0.5,0,1,1,0.5,0,0,1,0.5",""
"","html-keyboard-response","121","100216","0.0-121.0","3DIP6YHAPDESN6181QGC3WXXCDQ8EB","A2BK9RMC0NOIH8","3TZDZ3Y0JSSRVQSC3SM97PDQ3Z7196","","null","<img src=""img/animal2.png"" style=""width:200px; border:14px solid green;"">","null","","","","","",""
"","image-keyboard-response","122","100650","0.0-122.0","3DIP6YHAPDESN6181QGC3WXXCDQ8EB","A2BK9RMC0NOIH8","3TZDZ3Y0JSSRVQSC3SM97PDQ3Z7196","","434.29999999701977","img/animal6.png","76","434.79999999701977","3","1","1","0.5,0,1,1,0.5,0,0,1,0.5",""
"","html-keyboard-response","123","100952","0.0-123.0","3DIP6YHAPDESN6181QGC3WXXCDQ8EB","A2BK9RMC0NOIH8","3TZDZ3Y0JSSRVQSC3SM97PDQ3Z7196","","null","<img src=""img/animal6.png"" style=""width:200px; border:14px solid green;"">","null","","","","","",""
"","image-keyboard-response","124","101107","0.0-124.0","3DIP6YHAPDESN6181QGC3WXXCDQ8EB","A2BK9RMC0NOIH8","3TZDZ3Y0JSSRVQSC3SM97PDQ3Z7196","","154.40000000596046","img/animal2.png","74","154.90000000596046","1","1","2","0.5,0,1,1,0.5,0,0,1,0.5",""
"","html-keyboard-response","125","101408","0.0-125.0","3DIP6YHAPDESN6181QGC3WXXCDQ8EB","A2BK9RMC0NOIH8","3TZDZ3Y0JSSRVQSC3SM97PDQ3Z7196","","null","<img src=""img/animal2.png"" style=""width:200px; border:14px solid green;"">","null","","","","","",""
"","image-keyboard-response","126","101418","0.0-126.0","3DIP6YHAPDESN6181QGC3WXXCDQ8EB","A2BK9RMC0NOIH8","3TZDZ3Y0JSSRVQSC3SM97PDQ3Z7196","","9.700000002980232","img/animal6.png","74","10","1","1","1","0.5,0,1,1,0.5,0,0,1,0.5",""
"","html-keyboard-response","127","101720","0.0-127.0","3DIP6YHAPDESN6181QGC3WXXCDQ8EB","A2BK9RMC0NOIH8","3TZDZ3Y0JSSRVQSC3SM97PDQ3Z7196","","null","<img src=""img/animal6.png"" style=""width:200px; border:14px solid green;"">","null","","","","","",""
"","image-keyboard-response","128","101802","0.0-128.0","3DIP6YHAPDESN6181QGC3WXXCDQ8EB","A2BK9RMC0NOIH8","3TZDZ3Y0JSSRVQSC3SM97PDQ3Z7196","","82","img/animal1.png","75","82.5","2","1","3","0.5,0,1,1,0.5,0,0,1,0.5",""
"","html-keyboard-response","129","102104","0.0-129.0","3DIP6YHAPDESN6181QGC3WXXCDQ8EB","A2BK9RMC0NOIH8","3TZDZ3Y0JSSRVQSC3SM97PDQ3Z7196","","null","<img src=""img/animal1.png"" style=""width:200px; border:14px solid green;"">","null","","","","","",""
"","image-keyboard-response","130","102307","0.0-130.0","3DIP6YHAPDESN6181QGC3WXXCDQ8EB","A2BK9RMC0NOIH8","3TZDZ3Y0JSSRVQSC3SM97PDQ3Z7196","","201.6000000089407","img/animal6.png","76","202.20000000298023","3","1","1","0.5,0,1,1,0.5,0,0,1,0.5",""
"","html-keyboard-response","131","102608","0.0-131.0","3DIP6YHAPDESN6181QGC3WXXCDQ8EB","A2BK9RMC0NOIH8","3TZDZ3Y0JSSRVQSC3SM97PDQ3Z7196","","null","<img src=""img/animal6.png"" style=""width:200px; border:14px solid green;"">","null","","","","","",""
"","image-keyboard-response","132","102714","0.0-132.0","3DIP6YHAPDESN6181QGC3WXXCDQ8EB","A2BK9RMC0NOIH8","3TZDZ3Y0JSSRVQSC3SM97PDQ3Z7196","","105.40000000596046","img/animal1.png","76","106","3","1","3","0.5,0,1,1,0.5,0,0,1,0.5",""
"","html-keyboard-response","133","103016","0.0-133.0","3DIP6YHAPDESN6181QGC3WXXCDQ8EB","A2BK9RMC0NOIH8","3TZDZ3Y0JSSRVQSC3SM97PDQ3Z7196","","null","<img src=""img/animal1.png"" style=""width:200px; border:14px solid green;"">","null","","","","","",""
"","image-keyboard-response","134","103051","0.0-134.0","3DIP6YHAPDESN6181QGC3WXXCDQ8EB","A2BK9RMC0NOIH8","3TZDZ3Y0JSSRVQSC3SM97PDQ3Z7196","","34.1000000089407","img/animal6.png","75","34.5","2","0","1","0.5,0,1,1,0.5,0,0,1,0.5",""
"","html-keyboard-response","135","103352","0.0-135.0","3DIP6YHAPDESN6181QGC3WXXCDQ8EB","A2BK9RMC0NOIH8","3TZDZ3Y0JSSRVQSC3SM97PDQ3Z7196","","null","<img src=""img/animal6.png"" style=""width:200px;border:14px solid red;"">","null","","","","","",""
"","image-keyboard-response","136","103491","0.0-136.0","3DIP6YHAPDESN6181QGC3WXXCDQ8EB","A2BK9RMC0NOIH8","3TZDZ3Y0JSSRVQSC3SM97PDQ3Z7196","","138.40000000596046","img/animal1.png","74","138.69999998807907","1","0","3","0.5,0,1,1,0.5,0,0,1,0.5",""
"","html-keyboard-response","137","103792","0.0-137.0","3DIP6YHAPDESN6181QGC3WXXCDQ8EB","A2BK9RMC0NOIH8","3TZDZ3Y0JSSRVQSC3SM97PDQ3Z7196","","null","<img src=""img/animal1.png"" style=""width:200px;border:14px solid red;"">","null","","","","","",""
"","image-keyboard-response","138","103850","0.0-138.0","3DIP6YHAPDESN6181QGC3WXXCDQ8EB","A2BK9RMC0NOIH8","3TZDZ3Y0JSSRVQSC3SM97PDQ3Z7196","","58","img/animal1.png","74","58.400000005960464","1","0","3","0.5,0,1,1,0.5,0,0,1,0.5",""
"","html-keyboard-response","139","104152","0.0-139.0","3DIP6YHAPDESN6181QGC3WXXCDQ8EB","A2BK9RMC0NOIH8","3TZDZ3Y0JSSRVQSC3SM97PDQ3Z7196","","null","<img src=""img/animal1.png"" style=""width:200px;border:14px solid red;"">","null","","","","","",""
"","image-keyboard-response","140","104242","0.0-140.0","3DIP6YHAPDESN6181QGC3WXXCDQ8EB","A2BK9RMC0NOIH8","3TZDZ3Y0JSSRVQSC3SM97PDQ3Z7196","","90","img/animal6.png","75","90.5","2","0","1","0.5,0,1,1,0.5,0,0,1,0.5",""
"","html-keyboard-response","141","104544","0.0-141.0","3DIP6YHAPDESN6181QGC3WXXCDQ8EB","A2BK9RMC0NOIH8","3TZDZ3Y0JSSRVQSC3SM97PDQ3Z7196","","null","<img src=""img/animal6.png"" style=""width:200px;border:14px solid red;"">","null","","","","","",""
"","image-keyboard-response","142","104698","0.0-142.0","3DIP6YHAPDESN6181QGC3WXXCDQ8EB","A2BK9RMC0NOIH8","3TZDZ3Y0JSSRVQSC3SM97PDQ3Z7196","","153.1000000089407","img/animal2.png","76","153.69999998807907","3","0","2","0.5,0,1,1,0.5,0,0,1,0.5",""
"","html-keyboard-response","143","105000","0.0-143.0","3DIP6YHAPDESN6181QGC3WXXCDQ8EB","A2BK9RMC0NOIH8","3TZDZ3Y0JSSRVQSC3SM97PDQ3Z7196","","null","<img src=""img/animal2.png"" style=""width:200px;border:14px solid red;"">","null","","","","","",""
"","image-keyboard-response","144","105091","0.0-144.0","3DIP6YHAPDESN6181QGC3WXXCDQ8EB","A2BK9RMC0NOIH8","3TZDZ3Y0JSSRVQSC3SM97PDQ3Z7196","","90.19999998807907","img/animal2.png","75","90.70000000298023","2","1","2","0.5,0,1,1,0.5,0,0,1,0.5",""
"","html-keyboard-response","145","105393","0.0-145.0","3DIP6YHAPDESN6181QGC3WXXCDQ8EB","A2BK9RMC0NOIH8","3TZDZ3Y0JSSRVQSC3SM97PDQ3Z7196","","null","<img src=""img/animal2.png"" style=""width:200px; border:14px solid green;"">","null","","","","","",""
"","image-keyboard-response","146","105418","0.0-146.0","3DIP6YHAPDESN6181QGC3WXXCDQ8EB","A2BK9RMC0NOIH8","3TZDZ3Y0JSSRVQSC3SM97PDQ3Z7196","","25","img/animal2.png","74","25.600000008940697","1","1","2","0.5,0,1,1,0.5,0,0,1,0.5",""
"","html-keyboard-response","147","105720","0.0-147.0","3DIP6YHAPDESN6181QGC3WXXCDQ8EB","A2BK9RMC0NOIH8","3TZDZ3Y0JSSRVQSC3SM97PDQ3Z7196","","null","<img src=""img/animal2.png"" style=""width:200px; border:14px solid green;"">","null","","","","","",""
"","image-keyboard-response","148","105899","0.0-148.0","3DIP6YHAPDESN6181QGC3WXXCDQ8EB","A2BK9RMC0NOIH8","3TZDZ3Y0JSSRVQSC3SM97PDQ3Z7196","","178.79999999701977","img/animal2.png","74","179.20000000298023","1","1","2","0.5,0,1,1,0.5,0,0,1,0.5",""
"","html-keyboard-response","149","106214","0.0-149.0","3DIP6YHAPDESN6181QGC3WXXCDQ8EB","A2BK9RMC0NOIH8","3TZDZ3Y0JSSRVQSC3SM97PDQ3Z7196","","null","<img src=""img/animal2.png"" style=""width:200px; border:14px solid green;"">","null","","","","","",""
"","image-keyboard-response","150","106259","0.0-150.0","3DIP6YHAPDESN6181QGC3WXXCDQ8EB","A2BK9RMC0NOIH8","3TZDZ3Y0JSSRVQSC3SM97PDQ3Z7196","","44.20000000298023","img/animal2.png","75","44.70000000298023","2","1","2","0.5,0,1,1,0.5,0,0,1,0.5",""
"","html-keyboard-response","151","106560","0.0-151.0","3DIP6YHAPDESN6181QGC3WXXCDQ8EB","A2BK9RMC0NOIH8","3TZDZ3Y0JSSRVQSC3SM97PDQ3Z7196","","null","<img src=""img/animal2.png"" style=""width:200px; border:14px solid green;"">","null","","","","","",""
"","image-keyboard-response","152","106667","0.0-152.0","3DIP6YHAPDESN6181QGC3WXXCDQ8EB","A2BK9RMC0NOIH8","3TZDZ3Y0JSSRVQSC3SM97PDQ3Z7196","","106.29999999701977","img/animal6.png","76","106.90000000596046","3","1","1","0.5,0,1,1,0.5,0,0,1,0.5",""
"","html-keyboard-response","153","106968","0.0-153.0","3DIP6YHAPDESN6181QGC3WXXCDQ8EB","A2BK9RMC0NOIH8","3TZDZ3Y0JSSRVQSC3SM97PDQ3Z7196","","null","<img src=""img/animal6.png"" style=""width:200px; border:14px solid green;"">","null","","","","","",""
"","image-keyboard-response","154","107083","0.0-154.0","3DIP6YHAPDESN6181QGC3WXXCDQ8EB","A2BK9RMC0NOIH8","3TZDZ3Y0JSSRVQSC3SM97PDQ3Z7196","","114","img/animal2.png","76","114.29999999701977","3","0","2","0.5,0,1,1,0.5,0,0,1,0.5",""
"","html-keyboard-response","155","107387","0.0-155.0","3DIP6YHAPDESN6181QGC3WXXCDQ8EB","A2BK9RMC0NOIH8","3TZDZ3Y0JSSRVQSC3SM97PDQ3Z7196","","null","<img src=""img/animal2.png"" style=""width:200px;border:14px solid red;"">","null","","","","","",""
"","image-keyboard-response","156","107469","0.0-156.0","3DIP6YHAPDESN6181QGC3WXXCDQ8EB","A2BK9RMC0NOIH8","3TZDZ3Y0JSSRVQSC3SM97PDQ3Z7196","","81.6000000089407","img/animal1.png","75","82","2","1","3","0.5,0,1,1,0.5,0,0,1,0.5",""
"","html-keyboard-response","157","107771","0.0-157.0","3DIP6YHAPDESN6181QGC3WXXCDQ8EB","A2BK9RMC0NOIH8","3TZDZ3Y0JSSRVQSC3SM97PDQ3Z7196","","null","<img src=""img/animal1.png"" style=""width:200px; border:14px solid green;"">","null","","","","","",""
"","image-keyboard-response","158","107827","0.0-158.0","3DIP6YHAPDESN6181QGC3WXXCDQ8EB","A2BK9RMC0NOIH8","3TZDZ3Y0JSSRVQSC3SM97PDQ3Z7196","","55","img/animal1.png","74","55.5","1","0","3","0.5,0,1,1,0.5,0,0,1,0.5",""
"","html-keyboard-response","159","108128","0.0-159.0","3DIP6YHAPDESN6181QGC3WXXCDQ8EB","A2BK9RMC0NOIH8","3TZDZ3Y0JSSRVQSC3SM97PDQ3Z7196","","null","<img src=""img/animal1.png"" style=""width:200px;border:14px solid red;"">","null","","","","","",""
"","image-keyboard-response","160","108218","0.0-160.0","3DIP6YHAPDESN6181QGC3WXXCDQ8EB","A2BK9RMC0NOIH8","3TZDZ3Y0JSSRVQSC3SM97PDQ3Z7196","","89.59999999403954","img/animal2.png","74","90.1000000089407","1","1","2","0.5,0,1,1,0.5,0,0,1,0.5",""
"","html-keyboard-response","161","108520","0.0-161.0","3DIP6YHAPDESN6181QGC3WXXCDQ8EB","A2BK9RMC0NOIH8","3TZDZ3Y0JSSRVQSC3SM97PDQ3Z7196","","null","<img src=""img/animal2.png"" style=""width:200px; border:14px solid green;"">","null","","","","","",""
"","image-keyboard-response","162","108690","0.0-162.0","3DIP6YHAPDESN6181QGC3WXXCDQ8EB","A2BK9RMC0NOIH8","3TZDZ3Y0JSSRVQSC3SM97PDQ3Z7196","","169.6000000089407","img/animal6.png","75","170.20000000298023","2","0","1","0.5,0,1,1,0.5,0,0,1,0.5",""
"","html-keyboard-response","163","108993","0.0-163.0","3DIP6YHAPDESN6181QGC3WXXCDQ8EB","A2BK9RMC0NOIH8","3TZDZ3Y0JSSRVQSC3SM97PDQ3Z7196","","null","<img src=""img/animal6.png"" style=""width:200px;border:14px solid red;"">","null","","","","","",""
"","image-keyboard-response","164","109082","0.0-164.0","3DIP6YHAPDESN6181QGC3WXXCDQ8EB","A2BK9RMC0NOIH8","3TZDZ3Y0JSSRVQSC3SM97PDQ3Z7196","","89","img/animal2.png","76","89.20000000298023","3","0","2","0.5,0,1,1,0.5,0,0,1,0.5",""
"","html-keyboard-response","165","109384","0.0-165.0","3DIP6YHAPDESN6181QGC3WXXCDQ8EB","A2BK9RMC0NOIH8","3TZDZ3Y0JSSRVQSC3SM97PDQ3Z7196","","null","<img src=""img/animal2.png"" style=""width:200px;border:14px solid red;"">","null","","","","","",""
"","image-keyboard-response","166","109531","0.0-166.0","3DIP6YHAPDESN6181QGC3WXXCDQ8EB","A2BK9RMC0NOIH8","3TZDZ3Y0JSSRVQSC3SM97PDQ3Z7196","","145.8999999910593","img/animal6.png","75","146.3999999910593","2","0","1","0.5,0,1,1,0.5,0,0,1,0.5",""
"","html-keyboard-response","167","109832","0.0-167.0","3DIP6YHAPDESN6181QGC3WXXCDQ8EB","A2BK9RMC0NOIH8","3TZDZ3Y0JSSRVQSC3SM97PDQ3Z7196","","null","<img src=""img/animal6.png"" style=""width:200px;border:14px solid red;"">","null","","","","","",""
"","image-keyboard-response","168","109946","0.0-168.0","3DIP6YHAPDESN6181QGC3WXXCDQ8EB","A2BK9RMC0NOIH8","3TZDZ3Y0JSSRVQSC3SM97PDQ3Z7196","","114","img/animal2.png","74","114.40000000596046","1","1","2","0.5,0,1,1,0.5,0,0,1,0.5",""
"","html-keyboard-response","169","110247","0.0-169.0","3DIP6YHAPDESN6181QGC3WXXCDQ8EB","A2BK9RMC0NOIH8","3TZDZ3Y0JSSRVQSC3SM97PDQ3Z7196","","null","<img src=""img/animal2.png"" style=""width:200px; border:14px solid green;"">","null","","","","","",""
"","image-keyboard-response","170","110682","0.0-170.0","3DIP6YHAPDESN6181QGC3WXXCDQ8EB","A2BK9RMC0NOIH8","3TZDZ3Y0JSSRVQSC3SM97PDQ3Z7196","","434.8999999910593","img/animal2.png","75","435.30000001192093","2","0","2","0.5,0,1,1,0.5,0,0,1,0.5",""
"","html-keyboard-response","171","110983","0.0-171.0","3DIP6YHAPDESN6181QGC3WXXCDQ8EB","A2BK9RMC0NOIH8","3TZDZ3Y0JSSRVQSC3SM97PDQ3Z7196","","null","<img src=""img/animal2.png"" style=""width:200px;border:14px solid red;"">","null","","","","","",""
"","image-keyboard-response","172","111075","0.0-172.0","3DIP6YHAPDESN6181QGC3WXXCDQ8EB","A2BK9RMC0NOIH8","3TZDZ3Y0JSSRVQSC3SM97PDQ3Z7196","","90.70000000298023","img/animal2.png","75","91.19999998807907","2","1","2","0.5,0,1,1,0.5,0,0,1,0.5",""
"","html-keyboard-response","173","111377","0.0-173.0","3DIP6YHAPDESN6181QGC3WXXCDQ8EB","A2BK9RMC0NOIH8","3TZDZ3Y0JSSRVQSC3SM97PDQ3Z7196","","null","<img src=""img/animal2.png"" style=""width:200px; border:14px solid green;"">","null","","","","","",""
"","image-keyboard-response","174","111466","0.0-174.0","3DIP6YHAPDESN6181QGC3WXXCDQ8EB","A2BK9RMC0NOIH8","3TZDZ3Y0JSSRVQSC3SM97PDQ3Z7196","","89","img/animal6.png","76","89.70000000298023","3","1","1","0.5,0,1,1,0.5,0,0,1,0.5",""
"","html-keyboard-response","175","111769","0.0-175.0","3DIP6YHAPDESN6181QGC3WXXCDQ8EB","A2BK9RMC0NOIH8","3TZDZ3Y0JSSRVQSC3SM97PDQ3Z7196","","null","<img src=""img/animal6.png"" style=""width:200px; border:14px solid green;"">","null","","","","","",""
"","image-keyboard-response","176","111859","0.0-176.0","3DIP6YHAPDESN6181QGC3WXXCDQ8EB","A2BK9RMC0NOIH8","3TZDZ3Y0JSSRVQSC3SM97PDQ3Z7196","","89","img/animal2.png","75","89.30000001192093","2","1","2","0.5,0,1,1,0.5,0,0,1,0.5",""
"","html-keyboard-response","177","112161","0.0-177.0","3DIP6YHAPDESN6181QGC3WXXCDQ8EB","A2BK9RMC0NOIH8","3TZDZ3Y0JSSRVQSC3SM97PDQ3Z7196","","null","<img src=""img/animal2.png"" style=""width:200px; border:14px solid green;"">","null","","","","","",""
"","image-keyboard-response","178","112290","0.0-178.0","3DIP6YHAPDESN6181QGC3WXXCDQ8EB","A2BK9RMC0NOIH8","3TZDZ3Y0JSSRVQSC3SM97PDQ3Z7196","","129.29999999701977","img/animal1.png","74","129.6000000089407","1","0","3","0.5,0,1,1,0.5,0,0,1,0.5",""
"","html-keyboard-response","179","112592","0.0-179.0","3DIP6YHAPDESN6181QGC3WXXCDQ8EB","A2BK9RMC0NOIH8","3TZDZ3Y0JSSRVQSC3SM97PDQ3Z7196","","null","<img src=""img/animal1.png"" style=""width:200px;border:14px solid red;"">","null","","","","","",""
"","image-keyboard-response","180","112650","0.0-180.0","3DIP6YHAPDESN6181QGC3WXXCDQ8EB","A2BK9RMC0NOIH8","3TZDZ3Y0JSSRVQSC3SM97PDQ3Z7196","","58","img/animal2.png","74","58.5","1","1","2","0.5,0,1,1,0.5,0,0,1,0.5",""
"","html-keyboard-response","181","112953","0.0-181.0","3DIP6YHAPDESN6181QGC3WXXCDQ8EB","A2BK9RMC0NOIH8","3TZDZ3Y0JSSRVQSC3SM97PDQ3Z7196","","null","<img src=""img/animal2.png"" style=""width:200px; border:14px solid green;"">","null","","","","","",""
"","html-keyboard-response","182","117135","0.0-182.0","3DIP6YHAPDESN6181QGC3WXXCDQ8EB","A2BK9RMC0NOIH8","3TZDZ3Y0JSSRVQSC3SM97PDQ3Z7196","","","","","","","","","",""
"","image-keyboard-response","183","117442","0.0-183.0","3DIP6YHAPDESN6181QGC3WXXCDQ8EB","A2BK9RMC0NOIH8","3TZDZ3Y0JSSRVQSC3SM97PDQ3Z7196","","306.40000000596046","img/animal3.png","74","307","1","1","3","0.7,0,0.8,0.7,0.8,0,0.7,0.8,0",""
"","html-keyboard-response","184","117744","0.0-184.0","3DIP6YHAPDESN6181QGC3WXXCDQ8EB","A2BK9RMC0NOIH8","3TZDZ3Y0JSSRVQSC3SM97PDQ3Z7196","","null","<img src=""img/animal3.png"" style=""width:200px; border:14px solid green;"">","null","","","","","",""
"","image-keyboard-response","185","117835","0.0-185.0","3DIP6YHAPDESN6181QGC3WXXCDQ8EB","A2BK9RMC0NOIH8","3TZDZ3Y0JSSRVQSC3SM97PDQ3Z7196","","89.70000000298023","img/animal3.png","74","90.20000000298023","1","1","3","0.7,0,0.8,0.7,0.8,0,0.7,0.8,0",""
"","html-keyboard-response","186","118143","0.0-186.0","3DIP6YHAPDESN6181QGC3WXXCDQ8EB","A2BK9RMC0NOIH8","3TZDZ3Y0JSSRVQSC3SM97PDQ3Z7196","","null","<img src=""img/animal3.png"" style=""width:200px; border:14px solid green;"">","null","","","","","",""
"","image-keyboard-response","187","118218","0.0-187.0","3DIP6YHAPDESN6181QGC3WXXCDQ8EB","A2BK9RMC0NOIH8","3TZDZ3Y0JSSRVQSC3SM97PDQ3Z7196","","74.59999999403954","img/animal5.png","74","75.09999999403954","1","0","1","0.7,0,0.8,0.7,0.8,0,0.7,0.8,0",""
"","html-keyboard-response","188","118520","0.0-188.0","3DIP6YHAPDESN6181QGC3WXXCDQ8EB","A2BK9RMC0NOIH8","3TZDZ3Y0JSSRVQSC3SM97PDQ3Z7196","","null","<img src=""img/animal5.png"" style=""width:200px;border:14px solid red;"">","null","","","","","",""
"","image-keyboard-response","189","118611","0.0-189.0","3DIP6YHAPDESN6181QGC3WXXCDQ8EB","A2BK9RMC0NOIH8","3TZDZ3Y0JSSRVQSC3SM97PDQ3Z7196","","89.5","img/animal4.png","75","90.20000000298023","2","1","2","0.7,0,0.8,0.7,0.8,0,0.7,0.8,0",""
"","html-keyboard-response","190","118912","0.0-190.0","3DIP6YHAPDESN6181QGC3WXXCDQ8EB","A2BK9RMC0NOIH8","3TZDZ3Y0JSSRVQSC3SM97PDQ3Z7196","","null","<img src=""img/animal4.png"" style=""width:200px; border:14px solid green;"">","null","","","","","",""
"","image-keyboard-response","191","119003","0.0-191.0","3DIP6YHAPDESN6181QGC3WXXCDQ8EB","A2BK9RMC0NOIH8","3TZDZ3Y0JSSRVQSC3SM97PDQ3Z7196","","89.40000000596046","img/animal5.png","76","90","3","1","1","0.7,0,0.8,0.7,0.8,0,0.7,0.8,0",""
"","html-keyboard-response","192","119317","0.0-192.0","3DIP6YHAPDESN6181QGC3WXXCDQ8EB","A2BK9RMC0NOIH8","3TZDZ3Y0JSSRVQSC3SM97PDQ3Z7196","","null","<img src=""img/animal5.png"" style=""width:200px; border:14px solid green;"">","null","","","","","",""
"","image-keyboard-response","193","119523","0.0-193.0","3DIP6YHAPDESN6181QGC3WXXCDQ8EB","A2BK9RMC0NOIH8","3TZDZ3Y0JSSRVQSC3SM97PDQ3Z7196","","205.09999999403954","img/animal5.png","75","206","2","0","1","0.7,0,0.8,0.7,0.8,0,0.7,0.8,0",""
"","html-keyboard-response","194","119826","0.0-194.0","3DIP6YHAPDESN6181QGC3WXXCDQ8EB","A2BK9RMC0NOIH8","3TZDZ3Y0JSSRVQSC3SM97PDQ3Z7196","","null","<img src=""img/animal5.png"" style=""width:200px;border:14px solid red;"">","null","","","","","",""
"","image-keyboard-response","195","119891","0.0-195.0","3DIP6YHAPDESN6181QGC3WXXCDQ8EB","A2BK9RMC0NOIH8","3TZDZ3Y0JSSRVQSC3SM97PDQ3Z7196","","64.5","img/animal4.png","74","65","1","1","2","0.7,0,0.8,0.7,0.8,0,0.7,0.8,0",""
"","html-keyboard-response","196","120192","0.0-196.0","3DIP6YHAPDESN6181QGC3WXXCDQ8EB","A2BK9RMC0NOIH8","3TZDZ3Y0JSSRVQSC3SM97PDQ3Z7196","","null","<img src=""img/animal4.png"" style=""width:200px; border:14px solid green;"">","null","","","","","",""
"","image-keyboard-response","197","120298","0.0-197.0","3DIP6YHAPDESN6181QGC3WXXCDQ8EB","A2BK9RMC0NOIH8","3TZDZ3Y0JSSRVQSC3SM97PDQ3Z7196","","105.79999999701977","img/animal5.png","75","106.20000000298023","2","0","1","0.7,0,0.8,0.7,0.8,0,0.7,0.8,0",""
"","html-keyboard-response","198","120614","0.0-198.0","3DIP6YHAPDESN6181QGC3WXXCDQ8EB","A2BK9RMC0NOIH8","3TZDZ3Y0JSSRVQSC3SM97PDQ3Z7196","","null","<img src=""img/animal5.png"" style=""width:200px;border:14px solid red;"">","null","","","","","",""
"","image-keyboard-response","199","120658","0.0-199.0","3DIP6YHAPDESN6181QGC3WXXCDQ8EB","A2BK9RMC0NOIH8","3TZDZ3Y0JSSRVQSC3SM97PDQ3Z7196","","43.6000000089407","img/animal4.png","75","44.1000000089407","2","1","2","0.7,0,0.8,0.7,0.8,0,0.7,0.8,0",""
"","html-keyboard-response","200","120960","0.0-200.0","3DIP6YHAPDESN6181QGC3WXXCDQ8EB","A2BK9RMC0NOIH8","3TZDZ3Y0JSSRVQSC3SM97PDQ3Z7196","","null","<img src=""img/animal4.png"" style=""width:200px; border:14px solid green;"">","null","","","","","",""
"","image-keyboard-response","201","121002","0.0-201.0","3DIP6YHAPDESN6181QGC3WXXCDQ8EB","A2BK9RMC0NOIH8","3TZDZ3Y0JSSRVQSC3SM97PDQ3Z7196","","42.20000000298023","img/animal5.png","76","42.70000000298023","3","0","1","0.7,0,0.8,0.7,0.8,0,0.7,0.8,0",""
"","html-keyboard-response","202","121304","0.0-202.0","3DIP6YHAPDESN6181QGC3WXXCDQ8EB","A2BK9RMC0NOIH8","3TZDZ3Y0JSSRVQSC3SM97PDQ3Z7196","","null","<img src=""img/animal5.png"" style=""width:200px;border:14px solid red;"">","null","","","","","",""
"","image-keyboard-response","203","121427","0.0-203.0","3DIP6YHAPDESN6181QGC3WXXCDQ8EB","A2BK9RMC0NOIH8","3TZDZ3Y0JSSRVQSC3SM97PDQ3Z7196","","122.30000001192093","img/animal5.png","74","122.79999999701977","1","1","1","0.7,0,0.8,0.7,0.8,0,0.7,0.8,0",""
"","html-keyboard-response","204","121728","0.0-204.0","3DIP6YHAPDESN6181QGC3WXXCDQ8EB","A2BK9RMC0NOIH8","3TZDZ3Y0JSSRVQSC3SM97PDQ3Z7196","","null","<img src=""img/animal5.png"" style=""width:200px; border:14px solid green;"">","null","","","","","",""
"","image-keyboard-response","205","121802","0.0-205.0","3DIP6YHAPDESN6181QGC3WXXCDQ8EB","A2BK9RMC0NOIH8","3TZDZ3Y0JSSRVQSC3SM97PDQ3Z7196","","73.8999999910593","img/animal5.png","74","74.20000000298023","1","1","1","0.7,0,0.8,0.7,0.8,0,0.7,0.8,0",""
"","html-keyboard-response","206","122104","0.0-206.0","3DIP6YHAPDESN6181QGC3WXXCDQ8EB","A2BK9RMC0NOIH8","3TZDZ3Y0JSSRVQSC3SM97PDQ3Z7196","","null","<img src=""img/animal5.png"" style=""width:200px; border:14px solid green;"">","null","","","","","",""
"","image-keyboard-response","207","122202","0.0-207.0","3DIP6YHAPDESN6181QGC3WXXCDQ8EB","A2BK9RMC0NOIH8","3TZDZ3Y0JSSRVQSC3SM97PDQ3Z7196","","98.5","img/animal3.png","75","98.70000000298023","2","1","3","0.7,0,0.8,0.7,0.8,0,0.7,0.8,0",""
"","html-keyboard-response","208","122505","0.0-208.0","3DIP6YHAPDESN6181QGC3WXXCDQ8EB","A2BK9RMC0NOIH8","3TZDZ3Y0JSSRVQSC3SM97PDQ3Z7196","","null","<img src=""img/animal3.png"" style=""width:200px; border:14px solid green;"">","null","","","","","",""
"","image-keyboard-response","209","122666","0.0-209.0","3DIP6YHAPDESN6181QGC3WXXCDQ8EB","A2BK9RMC0NOIH8","3TZDZ3Y0JSSRVQSC3SM97PDQ3Z7196","","160.79999999701977","img/animal4.png","76","161.40000000596046","3","0","2","0.7,0,0.8,0.7,0.8,0,0.7,0.8,0",""
"","html-keyboard-response","210","122968","0.0-210.0","3DIP6YHAPDESN6181QGC3WXXCDQ8EB","A2BK9RMC0NOIH8","3TZDZ3Y0JSSRVQSC3SM97PDQ3Z7196","","null","<img src=""img/animal4.png"" style=""width:200px;border:14px solid red;"">","null","","","","","",""
"","image-keyboard-response","211","123162","0.0-211.0","3DIP6YHAPDESN6181QGC3WXXCDQ8EB","A2BK9RMC0NOIH8","3TZDZ3Y0JSSRVQSC3SM97PDQ3Z7196","","193.59999999403954","img/animal4.png","74","194.1000000089407","1","1","2","0.7,0,0.8,0.7,0.8,0,0.7,0.8,0",""
"","html-keyboard-response","212","123464","0.0-212.0","3DIP6YHAPDESN6181QGC3WXXCDQ8EB","A2BK9RMC0NOIH8","3TZDZ3Y0JSSRVQSC3SM97PDQ3Z7196","","null","<img src=""img/animal4.png"" style=""width:200px; border:14px solid green;"">","null","","","","","",""
"","image-keyboard-response","213","123514","0.0-213.0","3DIP6YHAPDESN6181QGC3WXXCDQ8EB","A2BK9RMC0NOIH8","3TZDZ3Y0JSSRVQSC3SM97PDQ3Z7196","","49.79999999701977","img/animal4.png","76","50.20000000298023","3","0","2","0.7,0,0.8,0.7,0.8,0,0.7,0.8,0",""
"","html-keyboard-response","214","123816","0.0-214.0","3DIP6YHAPDESN6181QGC3WXXCDQ8EB","A2BK9RMC0NOIH8","3TZDZ3Y0JSSRVQSC3SM97PDQ3Z7196","","null","<img src=""img/animal4.png"" style=""width:200px;border:14px solid red;"">","null","","","","","",""
"","image-keyboard-response","215","123835","0.0-215.0","3DIP6YHAPDESN6181QGC3WXXCDQ8EB","A2BK9RMC0NOIH8","3TZDZ3Y0JSSRVQSC3SM97PDQ3Z7196","","18.599999994039536","img/animal3.png","74","19","1","1","3","0.7,0,0.8,0.7,0.8,0,0.7,0.8,0",""
"","html-keyboard-response","216","124137","0.0-216.0","3DIP6YHAPDESN6181QGC3WXXCDQ8EB","A2BK9RMC0NOIH8","3TZDZ3Y0JSSRVQSC3SM97PDQ3Z7196","","null","<img src=""img/animal3.png"" style=""width:200px; border:14px solid green;"">","null","","","","","",""
"","image-keyboard-response","217","124274","0.0-217.0","3DIP6YHAPDESN6181QGC3WXXCDQ8EB","A2BK9RMC0NOIH8","3TZDZ3Y0JSSRVQSC3SM97PDQ3Z7196","","136.79999999701977","img/animal4.png","76","137.40000000596046","3","0","2","0.7,0,0.8,0.7,0.8,0,0.7,0.8,0",""
"","html-keyboard-response","218","124577","0.0-218.0","3DIP6YHAPDESN6181QGC3WXXCDQ8EB","A2BK9RMC0NOIH8","3TZDZ3Y0JSSRVQSC3SM97PDQ3Z7196","","null","<img src=""img/animal4.png"" style=""width:200px;border:14px solid red;"">","null","","","","","",""
"","image-keyboard-response","219","124635","0.0-219.0","3DIP6YHAPDESN6181QGC3WXXCDQ8EB","A2BK9RMC0NOIH8","3TZDZ3Y0JSSRVQSC3SM97PDQ3Z7196","","57.8999999910593","img/animal5.png","75","58.20000000298023","2","0","1","0.7,0,0.8,0.7,0.8,0,0.7,0.8,0",""
"","html-keyboard-response","220","124937","0.0-220.0","3DIP6YHAPDESN6181QGC3WXXCDQ8EB","A2BK9RMC0NOIH8","3TZDZ3Y0JSSRVQSC3SM97PDQ3Z7196","","null","<img src=""img/animal5.png"" style=""width:200px;border:14px solid red;"">","null","","","","","",""
"","image-keyboard-response","221","125035","0.0-221.0","3DIP6YHAPDESN6181QGC3WXXCDQ8EB","A2BK9RMC0NOIH8","3TZDZ3Y0JSSRVQSC3SM97PDQ3Z7196","","97.20000000298023","img/animal5.png","74","97.70000000298023","1","1","1","0.7,0,0.8,0.7,0.8,0,0.7,0.8,0",""
"","html-keyboard-response","222","125336","0.0-222.0","3DIP6YHAPDESN6181QGC3WXXCDQ8EB","A2BK9RMC0NOIH8","3TZDZ3Y0JSSRVQSC3SM97PDQ3Z7196","","null","<img src=""img/animal5.png"" style=""width:200px; border:14px solid green;"">","null","","","","","",""
"","image-keyboard-response","223","125427","0.0-223.0","3DIP6YHAPDESN6181QGC3WXXCDQ8EB","A2BK9RMC0NOIH8","3TZDZ3Y0JSSRVQSC3SM97PDQ3Z7196","","90.3999999910593","img/animal5.png","74","90.90000000596046","1","0","1","0.7,0,0.8,0.7,0.8,0,0.7,0.8,0",""
"","html-keyboard-response","224","125728","0.0-224.0","3DIP6YHAPDESN6181QGC3WXXCDQ8EB","A2BK9RMC0NOIH8","3TZDZ3Y0JSSRVQSC3SM97PDQ3Z7196","","null","<img src=""img/animal5.png"" style=""width:200px;border:14px solid red;"">","null","","","","","",""
"","image-keyboard-response","225","125843","0.0-225.0","3DIP6YHAPDESN6181QGC3WXXCDQ8EB","A2BK9RMC0NOIH8","3TZDZ3Y0JSSRVQSC3SM97PDQ3Z7196","","114.20000000298023","img/animal3.png","75","114.70000000298023","2","1","3","0.7,0,0.8,0.7,0.8,0,0.7,0.8,0",""
"","html-keyboard-response","226","126145","0.0-226.0","3DIP6YHAPDESN6181QGC3WXXCDQ8EB","A2BK9RMC0NOIH8","3TZDZ3Y0JSSRVQSC3SM97PDQ3Z7196","","null","<img src=""img/animal3.png"" style=""width:200px; border:14px solid green;"">","null","","","","","",""
"","image-keyboard-response","227","126292","0.0-227.0","3DIP6YHAPDESN6181QGC3WXXCDQ8EB","A2BK9RMC0NOIH8","3TZDZ3Y0JSSRVQSC3SM97PDQ3Z7196","","147","img/animal3.png","76","147.5","3","0","3","0.7,0,0.8,0.7,0.8,0,0.7,0.8,0",""
"","html-keyboard-response","228","126595","0.0-228.0","3DIP6YHAPDESN6181QGC3WXXCDQ8EB","A2BK9RMC0NOIH8","3TZDZ3Y0JSSRVQSC3SM97PDQ3Z7196","","null","<img src=""img/animal3.png"" style=""width:200px;border:14px solid red;"">","null","","","","","",""
"","image-keyboard-response","229","126739","0.0-229.0","3DIP6YHAPDESN6181QGC3WXXCDQ8EB","A2BK9RMC0NOIH8","3TZDZ3Y0JSSRVQSC3SM97PDQ3Z7196","","143.1000000089407","img/animal4.png","75","143.90000000596046","2","0","2","0.7,0,0.8,0.7,0.8,0,0.7,0.8,0",""
"","html-keyboard-response","230","127040","0.0-230.0","3DIP6YHAPDESN6181QGC3WXXCDQ8EB","A2BK9RMC0NOIH8","3TZDZ3Y0JSSRVQSC3SM97PDQ3Z7196","","null","<img src=""img/animal4.png"" style=""width:200px;border:14px solid red;"">","null","","","","","",""
"","image-keyboard-response","231","127067","0.0-231.0","3DIP6YHAPDESN6181QGC3WXXCDQ8EB","A2BK9RMC0NOIH8","3TZDZ3Y0JSSRVQSC3SM97PDQ3Z7196","","25.899999991059303","img/animal5.png","74","26.600000008940697","1","1","1","0.7,0,0.8,0.7,0.8,0,0.7,0.8,0",""
"","html-keyboard-response","232","127368","0.0-232.0","3DIP6YHAPDESN6181QGC3WXXCDQ8EB","A2BK9RMC0NOIH8","3TZDZ3Y0JSSRVQSC3SM97PDQ3Z7196","","null","<img src=""img/animal5.png"" style=""width:200px; border:14px solid green;"">","null","","","","","",""
"","image-keyboard-response","233","127435","0.0-233.0","3DIP6YHAPDESN6181QGC3WXXCDQ8EB","A2BK9RMC0NOIH8","3TZDZ3Y0JSSRVQSC3SM97PDQ3Z7196","","66.70000000298023","img/animal3.png","75","67.19999998807907","2","1","3","0.7,0,0.8,0.7,0.8,0,0.7,0.8,0",""
"","html-keyboard-response","234","127736","0.0-234.0","3DIP6YHAPDESN6181QGC3WXXCDQ8EB","A2BK9RMC0NOIH8","3TZDZ3Y0JSSRVQSC3SM97PDQ3Z7196","","null","<img src=""img/animal3.png"" style=""width:200px; border:14px solid green;"">","null","","","","","",""
"","image-keyboard-response","235","127852","0.0-235.0","3DIP6YHAPDESN6181QGC3WXXCDQ8EB","A2BK9RMC0NOIH8","3TZDZ3Y0JSSRVQSC3SM97PDQ3Z7196","","115.70000000298023","img/animal4.png","76","116.09999999403954","3","0","2","0.7,0,0.8,0.7,0.8,0,0.7,0.8,0",""
"","html-keyboard-response","236","128153","0.0-236.0","3DIP6YHAPDESN6181QGC3WXXCDQ8EB","A2BK9RMC0NOIH8","3TZDZ3Y0JSSRVQSC3SM97PDQ3Z7196","","null","<img src=""img/animal4.png"" style=""width:200px;border:14px solid red;"">","null","","","","","",""
"","image-keyboard-response","237","128163","0.0-237.0","3DIP6YHAPDESN6181QGC3WXXCDQ8EB","A2BK9RMC0NOIH8","3TZDZ3Y0JSSRVQSC3SM97PDQ3Z7196","","9.700000002980232","img/animal3.png","76","10","3","0","3","0.7,0,0.8,0.7,0.8,0,0.7,0.8,0",""
"","html-keyboard-response","238","128464","0.0-238.0","3DIP6YHAPDESN6181QGC3WXXCDQ8EB","A2BK9RMC0NOIH8","3TZDZ3Y0JSSRVQSC3SM97PDQ3Z7196","","null","<img src=""img/animal3.png"" style=""width:200px;border:14px solid red;"">","null","","","","","",""
"","image-keyboard-response","239","128619","0.0-239.0","3DIP6YHAPDESN6181QGC3WXXCDQ8EB","A2BK9RMC0NOIH8","3TZDZ3Y0JSSRVQSC3SM97PDQ3Z7196","","154.30000001192093","img/animal5.png","74","154.70000000298023","1","0","1","0.7,0,0.8,0.7,0.8,0,0.7,0.8,0",""
"","html-keyboard-response","240","128920","0.0-240.0","3DIP6YHAPDESN6181QGC3WXXCDQ8EB","A2BK9RMC0NOIH8","3TZDZ3Y0JSSRVQSC3SM97PDQ3Z7196","","null","<img src=""img/animal5.png"" style=""width:200px;border:14px solid red;"">","null","","","","","",""
"","image-keyboard-response","241","128980","0.0-241.0","3DIP6YHAPDESN6181QGC3WXXCDQ8EB","A2BK9RMC0NOIH8","3TZDZ3Y0JSSRVQSC3SM97PDQ3Z7196","","59.3999999910593","img/animal4.png","74","60","1","1","2","0.7,0,0.8,0.7,0.8,0,0.7,0.8,0",""
"","html-keyboard-response","242","129282","0.0-242.0","3DIP6YHAPDESN6181QGC3WXXCDQ8EB","A2BK9RMC0NOIH8","3TZDZ3Y0JSSRVQSC3SM97PDQ3Z7196","","null","<img src=""img/animal4.png"" style=""width:200px; border:14px solid green;"">","null","","","","","",""
"","image-keyboard-response","243","129451","0.0-243.0","3DIP6YHAPDESN6181QGC3WXXCDQ8EB","A2BK9RMC0NOIH8","3TZDZ3Y0JSSRVQSC3SM97PDQ3Z7196","","168.40000000596046","img/animal4.png","75","168.79999999701977","2","0","2","0.7,0,0.8,0.7,0.8,0,0.7,0.8,0",""
"","html-keyboard-response","244","129752","0.0-244.0","3DIP6YHAPDESN6181QGC3WXXCDQ8EB","A2BK9RMC0NOIH8","3TZDZ3Y0JSSRVQSC3SM97PDQ3Z7196","","null","<img src=""img/animal4.png"" style=""width:200px;border:14px solid red;"">","null","","","","","",""
"","image-keyboard-response","245","129843","0.0-245.0","3DIP6YHAPDESN6181QGC3WXXCDQ8EB","A2BK9RMC0NOIH8","3TZDZ3Y0JSSRVQSC3SM97PDQ3Z7196","","90.79999999701977","img/animal5.png","76","91.1000000089407","3","1","1","0.7,0,0.8,0.7,0.8,0,0.7,0.8,0",""
"","html-keyboard-response","246","130145","0.0-246.0","3DIP6YHAPDESN6181QGC3WXXCDQ8EB","A2BK9RMC0NOIH8","3TZDZ3Y0JSSRVQSC3SM97PDQ3Z7196","","null","<img src=""img/animal5.png"" style=""width:200px; border:14px solid green;"">","null","","","","","",""
"","image-keyboard-response","247","130283","0.0-247.0","3DIP6YHAPDESN6181QGC3WXXCDQ8EB","A2BK9RMC0NOIH8","3TZDZ3Y0JSSRVQSC3SM97PDQ3Z7196","","137.59999999403954","img/animal4.png","74","138.20000000298023","1","1","2","0.7,0,0.8,0.7,0.8,0,0.7,0.8,0",""
"","html-keyboard-response","248","130599","0.0-248.0","3DIP6YHAPDESN6181QGC3WXXCDQ8EB","A2BK9RMC0NOIH8","3TZDZ3Y0JSSRVQSC3SM97PDQ3Z7196","","null","<img src=""img/animal4.png"" style=""width:200px; border:14px solid green;"">","null","","","","","",""
"","image-keyboard-response","249","130739","0.0-249.0","3DIP6YHAPDESN6181QGC3WXXCDQ8EB","A2BK9RMC0NOIH8","3TZDZ3Y0JSSRVQSC3SM97PDQ3Z7196","","139.3999999910593","img/animal5.png","74","139.90000000596046","1","0","1","0.7,0,0.8,0.7,0.8,0,0.7,0.8,0",""
"","html-keyboard-response","250","131041","0.0-250.0","3DIP6YHAPDESN6181QGC3WXXCDQ8EB","A2BK9RMC0NOIH8","3TZDZ3Y0JSSRVQSC3SM97PDQ3Z7196","","null","<img src=""img/animal5.png"" style=""width:200px;border:14px solid red;"">","null","","","","","",""
"","image-keyboard-response","251","131443","0.0-251.0","3DIP6YHAPDESN6181QGC3WXXCDQ8EB","A2BK9RMC0NOIH8","3TZDZ3Y0JSSRVQSC3SM97PDQ3Z7196","","401.70000000298023","img/animal3.png","76","402.20000000298023","3","0","3","0.7,0,0.8,0.7,0.8,0,0.7,0.8,0",""
"","html-keyboard-response","252","131745","0.0-252.0","3DIP6YHAPDESN6181QGC3WXXCDQ8EB","A2BK9RMC0NOIH8","3TZDZ3Y0JSSRVQSC3SM97PDQ3Z7196","","null","<img src=""img/animal3.png"" style=""width:200px;border:14px solid red;"">","null","","","","","",""
"","image-keyboard-response","253","131843","0.0-253.0","3DIP6YHAPDESN6181QGC3WXXCDQ8EB","A2BK9RMC0NOIH8","3TZDZ3Y0JSSRVQSC3SM97PDQ3Z7196","","97.79999999701977","img/animal4.png","74","98.30000001192093","1","1","2","0.7,0,0.8,0.7,0.8,0,0.7,0.8,0",""
"","html-keyboard-response","254","132145","0.0-254.0","3DIP6YHAPDESN6181QGC3WXXCDQ8EB","A2BK9RMC0NOIH8","3TZDZ3Y0JSSRVQSC3SM97PDQ3Z7196","","null","<img src=""img/animal4.png"" style=""width:200px; border:14px solid green;"">","null","","","","","",""
"","image-keyboard-response","255","132203","0.0-255.0","3DIP6YHAPDESN6181QGC3WXXCDQ8EB","A2BK9RMC0NOIH8","3TZDZ3Y0JSSRVQSC3SM97PDQ3Z7196","","57.79999999701977","img/animal5.png","74","58.099999994039536","1","1","1","0.7,0,0.8,0.7,0.8,0,0.7,0.8,0",""
"","html-keyboard-response","256","132504","0.0-256.0","3DIP6YHAPDESN6181QGC3WXXCDQ8EB","A2BK9RMC0NOIH8","3TZDZ3Y0JSSRVQSC3SM97PDQ3Z7196","","null","<img src=""img/animal5.png"" style=""width:200px; border:14px solid green;"">","null","","","","","",""
"","image-keyboard-response","257","132603","0.0-257.0","3DIP6YHAPDESN6181QGC3WXXCDQ8EB","A2BK9RMC0NOIH8","3TZDZ3Y0JSSRVQSC3SM97PDQ3Z7196","","98.40000000596046","img/animal4.png","75","99","2","1","2","0.7,0,0.8,0.7,0.8,0,0.7,0.8,0",""
"","html-keyboard-response","258","132905","0.0-258.0","3DIP6YHAPDESN6181QGC3WXXCDQ8EB","A2BK9RMC0NOIH8","3TZDZ3Y0JSSRVQSC3SM97PDQ3Z7196","","null","<img src=""img/animal4.png"" style=""width:200px; border:14px solid green;"">","null","","","","","",""
"","image-keyboard-response","259","133067","0.0-259.0","3DIP6YHAPDESN6181QGC3WXXCDQ8EB","A2BK9RMC0NOIH8","3TZDZ3Y0JSSRVQSC3SM97PDQ3Z7196","","161.20000000298023","img/animal5.png","76","161.80000001192093","3","1","1","0.7,0,0.8,0.7,0.8,0,0.7,0.8,0",""
"","html-keyboard-response","260","133369","0.0-260.0","3DIP6YHAPDESN6181QGC3WXXCDQ8EB","A2BK9RMC0NOIH8","3TZDZ3Y0JSSRVQSC3SM97PDQ3Z7196","","null","<img src=""img/animal5.png"" style=""width:200px; border:14px solid green;"">","null","","","","","",""
"","image-keyboard-response","261","133477","0.0-261.0","3DIP6YHAPDESN6181QGC3WXXCDQ8EB","A2BK9RMC0NOIH8","3TZDZ3Y0JSSRVQSC3SM97PDQ3Z7196","","108.09999999403954","img/animal5.png","75","108.5","2","0","1","0.7,0,0.8,0.7,0.8,0,0.7,0.8,0",""
"","html-keyboard-response","262","133778","0.0-262.0","3DIP6YHAPDESN6181QGC3WXXCDQ8EB","A2BK9RMC0NOIH8","3TZDZ3Y0JSSRVQSC3SM97PDQ3Z7196","","null","<img src=""img/animal5.png"" style=""width:200px;border:14px solid red;"">","null","","","","","",""
"","image-keyboard-response","263","133860","0.0-263.0","3DIP6YHAPDESN6181QGC3WXXCDQ8EB","A2BK9RMC0NOIH8","3TZDZ3Y0JSSRVQSC3SM97PDQ3Z7196","","80.1000000089407","img/animal5.png","74","81.19999998807907","1","1","1","0.7,0,0.8,0.7,0.8,0,0.7,0.8,0",""
"","html-keyboard-response","264","134162","0.0-264.0","3DIP6YHAPDESN6181QGC3WXXCDQ8EB","A2BK9RMC0NOIH8","3TZDZ3Y0JSSRVQSC3SM97PDQ3Z7196","","null","<img src=""img/animal5.png"" style=""width:200px; border:14px solid green;"">","null","","","","","",""
"","image-keyboard-response","265","134291","0.0-265.0","3DIP6YHAPDESN6181QGC3WXXCDQ8EB","A2BK9RMC0NOIH8","3TZDZ3Y0JSSRVQSC3SM97PDQ3Z7196","","128.70000000298023","img/animal5.png","74","129.1000000089407","1","0","1","0.7,0,0.8,0.7,0.8,0,0.7,0.8,0",""
"","html-keyboard-response","266","134593","0.0-266.0","3DIP6YHAPDESN6181QGC3WXXCDQ8EB","A2BK9RMC0NOIH8","3TZDZ3Y0JSSRVQSC3SM97PDQ3Z7196","","null","<img src=""img/animal5.png"" style=""width:200px;border:14px solid red;"">","null","","","","","",""
"","image-keyboard-response","267","134675","0.0-267.0","3DIP6YHAPDESN6181QGC3WXXCDQ8EB","A2BK9RMC0NOIH8","3TZDZ3Y0JSSRVQSC3SM97PDQ3Z7196","","80.90000000596046","img/animal5.png","75","81.70000000298023","2","0","1","0.7,0,0.8,0.7,0.8,0,0.7,0.8,0",""
"","html-keyboard-response","268","134977","0.0-268.0","3DIP6YHAPDESN6181QGC3WXXCDQ8EB","A2BK9RMC0NOIH8","3TZDZ3Y0JSSRVQSC3SM97PDQ3Z7196","","null","<img src=""img/animal5.png"" style=""width:200px;border:14px solid red;"">","null","","","","","",""
"","image-keyboard-response","269","135099","0.0-269.0","3DIP6YHAPDESN6181QGC3WXXCDQ8EB","A2BK9RMC0NOIH8","3TZDZ3Y0JSSRVQSC3SM97PDQ3Z7196","","122.09999999403954","img/animal5.png","76","122.40000000596046","3","1","1","0.7,0,0.8,0.7,0.8,0,0.7,0.8,0",""
"","html-keyboard-response","270","135401","0.0-270.0","3DIP6YHAPDESN6181QGC3WXXCDQ8EB","A2BK9RMC0NOIH8","3TZDZ3Y0JSSRVQSC3SM97PDQ3Z7196","","null","<img src=""img/animal5.png"" style=""width:200px; border:14px solid green;"">","null","","","","","",""
"","image-keyboard-response","271","135467","0.0-271.0","3DIP6YHAPDESN6181QGC3WXXCDQ8EB","A2BK9RMC0NOIH8","3TZDZ3Y0JSSRVQSC3SM97PDQ3Z7196","","66","img/animal3.png","76","66.5","3","0","3","0.7,0,0.8,0.7,0.8,0,0.7,0.8,0",""
"","html-keyboard-response","272","135770","0.0-272.0","3DIP6YHAPDESN6181QGC3WXXCDQ8EB","A2BK9RMC0NOIH8","3TZDZ3Y0JSSRVQSC3SM97PDQ3Z7196","","null","<img src=""img/animal3.png"" style=""width:200px;border:14px solid red;"">","null","","","","","",""
"","image-keyboard-response","273","135836","0.0-273.0","3DIP6YHAPDESN6181QGC3WXXCDQ8EB","A2BK9RMC0NOIH8","3TZDZ3Y0JSSRVQSC3SM97PDQ3Z7196","","65.59999999403954","img/animal4.png","75","66.09999999403954","2","1","2","0.7,0,0.8,0.7,0.8,0,0.7,0.8,0",""
"","html-keyboard-response","274","136136","0.0-274.0","3DIP6YHAPDESN6181QGC3WXXCDQ8EB","A2BK9RMC0NOIH8","3TZDZ3Y0JSSRVQSC3SM97PDQ3Z7196","","null","<img src=""img/animal4.png"" style=""width:200px; border:14px solid green;"">","null","","","","","",""
"","image-keyboard-response","275","136316","0.0-275.0","3DIP6YHAPDESN6181QGC3WXXCDQ8EB","A2BK9RMC0NOIH8","3TZDZ3Y0JSSRVQSC3SM97PDQ3Z7196","","178.59999999403954","img/animal3.png","74","179","1","1","3","0.7,0,0.8,0.7,0.8,0,0.7,0.8,0",""
"","html-keyboard-response","276","136626","0.0-276.0","3DIP6YHAPDESN6181QGC3WXXCDQ8EB","A2BK9RMC0NOIH8","3TZDZ3Y0JSSRVQSC3SM97PDQ3Z7196","","null","<img src=""img/animal3.png"" style=""width:200px; border:14px solid green;"">","null","","","","","",""
"","image-keyboard-response","277","136667","0.0-277.0","3DIP6YHAPDESN6181QGC3WXXCDQ8EB","A2BK9RMC0NOIH8","3TZDZ3Y0JSSRVQSC3SM97PDQ3Z7196","","40.3999999910593","img/animal4.png","74","40.900000005960464","1","1","2","0.7,0,0.8,0.7,0.8,0,0.7,0.8,0",""
"","html-keyboard-response","278","136968","0.0-278.0","3DIP6YHAPDESN6181QGC3WXXCDQ8EB","A2BK9RMC0NOIH8","3TZDZ3Y0JSSRVQSC3SM97PDQ3Z7196","","null","<img src=""img/animal4.png"" style=""width:200px; border:14px solid green;"">","null","","","","","",""
"","image-keyboard-response","279","137067","0.0-279.0","3DIP6YHAPDESN6181QGC3WXXCDQ8EB","A2BK9RMC0NOIH8","3TZDZ3Y0JSSRVQSC3SM97PDQ3Z7196","","98.1000000089407","img/animal3.png","75","98.6000000089407","2","1","3","0.7,0,0.8,0.7,0.8,0,0.7,0.8,0",""
"","html-keyboard-response","280","137369","0.0-280.0","3DIP6YHAPDESN6181QGC3WXXCDQ8EB","A2BK9RMC0NOIH8","3TZDZ3Y0JSSRVQSC3SM97PDQ3Z7196","","null","<img src=""img/animal3.png"" style=""width:200px; border:14px solid green;"">","null","","","","","",""
"","image-keyboard-response","281","137459","0.0-281.0","3DIP6YHAPDESN6181QGC3WXXCDQ8EB","A2BK9RMC0NOIH8","3TZDZ3Y0JSSRVQSC3SM97PDQ3Z7196","","89.80000001192093","img/animal5.png","76","90.29999999701977","3","1","1","0.7,0,0.8,0.7,0.8,0,0.7,0.8,0",""
"","html-keyboard-response","282","137762","0.0-282.0","3DIP6YHAPDESN6181QGC3WXXCDQ8EB","A2BK9RMC0NOIH8","3TZDZ3Y0JSSRVQSC3SM97PDQ3Z7196","","null","<img src=""img/animal5.png"" style=""width:200px; border:14px solid green;"">","null","","","","","",""
"","image-keyboard-response","283","137931","0.0-283.0","3DIP6YHAPDESN6181QGC3WXXCDQ8EB","A2BK9RMC0NOIH8","3TZDZ3Y0JSSRVQSC3SM97PDQ3Z7196","","168.6000000089407","img/animal3.png","75","169.20000000298023","2","1","3","0.7,0,0.8,0.7,0.8,0,0.7,0.8,0",""
"","html-keyboard-response","284","138233","0.0-284.0","3DIP6YHAPDESN6181QGC3WXXCDQ8EB","A2BK9RMC0NOIH8","3TZDZ3Y0JSSRVQSC3SM97PDQ3Z7196","","null","<img src=""img/animal3.png"" style=""width:200px; border:14px solid green;"">","null","","","","","",""
"","image-keyboard-response","285","138251","0.0-285.0","3DIP6YHAPDESN6181QGC3WXXCDQ8EB","A2BK9RMC0NOIH8","3TZDZ3Y0JSSRVQSC3SM97PDQ3Z7196","","18.200000002980232","img/animal4.png","74","18.599999994039536","1","0","2","0.7,0,0.8,0.7,0.8,0,0.7,0.8,0",""
"","html-keyboard-response","286","138553","0.0-286.0","3DIP6YHAPDESN6181QGC3WXXCDQ8EB","A2BK9RMC0NOIH8","3TZDZ3Y0JSSRVQSC3SM97PDQ3Z7196","","null","<img src=""img/animal4.png"" style=""width:200px;border:14px solid red;"">","null","","","","","",""
"","image-keyboard-response","287","138707","0.0-287.0","3DIP6YHAPDESN6181QGC3WXXCDQ8EB","A2BK9RMC0NOIH8","3TZDZ3Y0JSSRVQSC3SM97PDQ3Z7196","","153.70000000298023","img/animal5.png","75","154.29999999701977","2","0","1","0.7,0,0.8,0.7,0.8,0,0.7,0.8,0",""
"","html-keyboard-response","288","139009","0.0-288.0","3DIP6YHAPDESN6181QGC3WXXCDQ8EB","A2BK9RMC0NOIH8","3TZDZ3Y0JSSRVQSC3SM97PDQ3Z7196","","null","<img src=""img/animal5.png"" style=""width:200px;border:14px solid red;"">","null","","","","","",""
"","image-keyboard-response","289","139147","0.0-289.0","3DIP6YHAPDESN6181QGC3WXXCDQ8EB","A2BK9RMC0NOIH8","3TZDZ3Y0JSSRVQSC3SM97PDQ3Z7196","","138","img/animal5.png","76","138.40000000596046","3","1","1","0.7,0,0.8,0.7,0.8,0,0.7,0.8,0",""
"","html-keyboard-response","290","139448","0.0-290.0","3DIP6YHAPDESN6181QGC3WXXCDQ8EB","A2BK9RMC0NOIH8","3TZDZ3Y0JSSRVQSC3SM97PDQ3Z7196","","null","<img src=""img/animal5.png"" style=""width:200px; border:14px solid green;"">","null","","","","","",""
"","image-keyboard-response","291","139452","0.0-291.0","3DIP6YHAPDESN6181QGC3WXXCDQ8EB","A2BK9RMC0NOIH8","3TZDZ3Y0JSSRVQSC3SM97PDQ3Z7196","","2.6000000089406967","img/animal3.png","75","3.2000000029802322","2","1","3","0.7,0,0.8,0.7,0.8,0,0.7,0.8,0",""
"","html-keyboard-response","292","139753","0.0-292.0","3DIP6YHAPDESN6181QGC3WXXCDQ8EB","A2BK9RMC0NOIH8","3TZDZ3Y0JSSRVQSC3SM97PDQ3Z7196","","null","<img src=""img/animal3.png"" style=""width:200px; border:14px solid green;"">","null","","","","","",""
"","image-keyboard-response","293","139827","0.0-293.0","3DIP6YHAPDESN6181QGC3WXXCDQ8EB","A2BK9RMC0NOIH8","3TZDZ3Y0JSSRVQSC3SM97PDQ3Z7196","","73.59999999403954","img/animal3.png","74","73.90000000596046","1","1","3","0.7,0,0.8,0.7,0.8,0,0.7,0.8,0",""
"","html-keyboard-response","294","140129","0.0-294.0","3DIP6YHAPDESN6181QGC3WXXCDQ8EB","A2BK9RMC0NOIH8","3TZDZ3Y0JSSRVQSC3SM97PDQ3Z7196","","null","<img src=""img/animal3.png"" style=""width:200px; border:14px solid green;"">","null","","","","","",""
"","image-keyboard-response","295","140595","0.0-295.0","3DIP6YHAPDESN6181QGC3WXXCDQ8EB","A2BK9RMC0NOIH8","3TZDZ3Y0JSSRVQSC3SM97PDQ3Z7196","","465.5","img/animal4.png","76","466.09999999403954","3","0","2","0.7,0,0.8,0.7,0.8,0,0.7,0.8,0",""
"","html-keyboard-response","296","140897","0.0-296.0","3DIP6YHAPDESN6181QGC3WXXCDQ8EB","A2BK9RMC0NOIH8","3TZDZ3Y0JSSRVQSC3SM97PDQ3Z7196","","null","<img src=""img/animal4.png"" style=""width:200px;border:14px solid red;"">","null","","","","","",""
"","image-keyboard-response","297","141011","0.0-297.0","3DIP6YHAPDESN6181QGC3WXXCDQ8EB","A2BK9RMC0NOIH8","3TZDZ3Y0JSSRVQSC3SM97PDQ3Z7196","","113.30000001192093","img/animal4.png","74","113.70000000298023","1","1","2","0.7,0,0.8,0.7,0.8,0,0.7,0.8,0",""
"","html-keyboard-response","298","141312","0.0-298.0","3DIP6YHAPDESN6181QGC3WXXCDQ8EB","A2BK9RMC0NOIH8","3TZDZ3Y0JSSRVQSC3SM97PDQ3Z7196","","null","<img src=""img/animal4.png"" style=""width:200px; border:14px solid green;"">","null","","","","","",""
"","image-keyboard-response","299","141436","0.0-299.0","3DIP6YHAPDESN6181QGC3WXXCDQ8EB","A2BK9RMC0NOIH8","3TZDZ3Y0JSSRVQSC3SM97PDQ3Z7196","","123.09999999403954","img/animal4.png","75","123.6000000089407","2","0","2","0.7,0,0.8,0.7,0.8,0,0.7,0.8,0",""
"","html-keyboard-response","300","141737","0.0-300.0","3DIP6YHAPDESN6181QGC3WXXCDQ8EB","A2BK9RMC0NOIH8","3TZDZ3Y0JSSRVQSC3SM97PDQ3Z7196","","null","<img src=""img/animal4.png"" style=""width:200px;border:14px solid red;"">","null","","","","","",""
"","image-keyboard-response","301","141883","0.0-301.0","3DIP6YHAPDESN6181QGC3WXXCDQ8EB","A2BK9RMC0NOIH8","3TZDZ3Y0JSSRVQSC3SM97PDQ3Z7196","","145.09999999403954","img/animal3.png","76","145.70000000298023","3","0","3","0.7,0,0.8,0.7,0.8,0,0.7,0.8,0",""
"","html-keyboard-response","302","142184","0.0-302.0","3DIP6YHAPDESN6181QGC3WXXCDQ8EB","A2BK9RMC0NOIH8","3TZDZ3Y0JSSRVQSC3SM97PDQ3Z7196","","null","<img src=""img/animal3.png"" style=""width:200px;border:14px solid red;"">","null","","","","","",""
"","image-keyboard-response","303","142307","0.0-303.0","3DIP6YHAPDESN6181QGC3WXXCDQ8EB","A2BK9RMC0NOIH8","3TZDZ3Y0JSSRVQSC3SM97PDQ3Z7196","","122.40000000596046","img/animal5.png","75","122.79999999701977","2","0","1","0.7,0,0.8,0.7,0.8,0,0.7,0.8,0",""
"","html-keyboard-response","304","142610","0.0-304.0","3DIP6YHAPDESN6181QGC3WXXCDQ8EB","A2BK9RMC0NOIH8","3TZDZ3Y0JSSRVQSC3SM97PDQ3Z7196","","null","<img src=""img/animal5.png"" style=""width:200px;border:14px solid red;"">","null","","","","","",""
"","image-keyboard-response","305","142723","0.0-305.0","3DIP6YHAPDESN6181QGC3WXXCDQ8EB","A2BK9RMC0NOIH8","3TZDZ3Y0JSSRVQSC3SM97PDQ3Z7196","","112.20000000298023","img/animal5.png","76","112.79999999701977","3","1","1","0.7,0,0.8,0.7,0.8,0,0.7,0.8,0",""
"","html-keyboard-response","306","143025","0.0-306.0","3DIP6YHAPDESN6181QGC3WXXCDQ8EB","A2BK9RMC0NOIH8","3TZDZ3Y0JSSRVQSC3SM97PDQ3Z7196","","null","<img src=""img/animal5.png"" style=""width:200px; border:14px solid green;"">","null","","","","","",""
"","image-keyboard-response","307","143075","0.0-307.0","3DIP6YHAPDESN6181QGC3WXXCDQ8EB","A2BK9RMC0NOIH8","3TZDZ3Y0JSSRVQSC3SM97PDQ3Z7196","","49.29999999701977","img/animal3.png","75","49.900000005960464","2","0","3","0.7,0,0.8,0.7,0.8,0,0.7,0.8,0",""
"","html-keyboard-response","308","143377","0.0-308.0","3DIP6YHAPDESN6181QGC3WXXCDQ8EB","A2BK9RMC0NOIH8","3TZDZ3Y0JSSRVQSC3SM97PDQ3Z7196","","null","<img src=""img/animal3.png"" style=""width:200px;border:14px solid red;"">","null","","","","","",""
"","image-keyboard-response","309","143443","0.0-309.0","3DIP6YHAPDESN6181QGC3WXXCDQ8EB","A2BK9RMC0NOIH8","3TZDZ3Y0JSSRVQSC3SM97PDQ3Z7196","","66.09999999403954","img/animal5.png","76","66.5","3","1","1","0.7,0,0.8,0.7,0.8,0,0.7,0.8,0",""
"","html-keyboard-response","310","143744","0.0-310.0","3DIP6YHAPDESN6181QGC3WXXCDQ8EB","A2BK9RMC0NOIH8","3TZDZ3Y0JSSRVQSC3SM97PDQ3Z7196","","null","<img src=""img/animal5.png"" style=""width:200px; border:14px solid green;"">","null","","","","","",""
"","image-keyboard-response","311","143836","0.0-311.0","3DIP6YHAPDESN6181QGC3WXXCDQ8EB","A2BK9RMC0NOIH8","3TZDZ3Y0JSSRVQSC3SM97PDQ3Z7196","","90.8999999910593","img/animal4.png","74","91.40000000596046","1","1","2","0.7,0,0.8,0.7,0.8,0,0.7,0.8,0",""
"","html-keyboard-response","312","144137","0.0-312.0","3DIP6YHAPDESN6181QGC3WXXCDQ8EB","A2BK9RMC0NOIH8","3TZDZ3Y0JSSRVQSC3SM97PDQ3Z7196","","null","<img src=""img/animal4.png"" style=""width:200px; border:14px solid green;"">","null","","","","","",""
"","image-keyboard-response","313","144283","0.0-313.0","3DIP6YHAPDESN6181QGC3WXXCDQ8EB","A2BK9RMC0NOIH8","3TZDZ3Y0JSSRVQSC3SM97PDQ3Z7196","","146","img/animal4.png","75","146.40000000596046","2","1","2","0.7,0,0.8,0.7,0.8,0,0.7,0.8,0",""
"","html-keyboard-response","314","144585","0.0-314.0","3DIP6YHAPDESN6181QGC3WXXCDQ8EB","A2BK9RMC0NOIH8","3TZDZ3Y0JSSRVQSC3SM97PDQ3Z7196","","null","<img src=""img/animal4.png"" style=""width:200px; border:14px solid green;"">","null","","","","","",""
"","image-keyboard-response","315","144659","0.0-315.0","3DIP6YHAPDESN6181QGC3WXXCDQ8EB","A2BK9RMC0NOIH8","3TZDZ3Y0JSSRVQSC3SM97PDQ3Z7196","","73.59999999403954","img/animal5.png","74","74.09999999403954","1","1","1","0.7,0,0.8,0.7,0.8,0,0.7,0.8,0",""
"","html-keyboard-response","316","144960","0.0-316.0","3DIP6YHAPDESN6181QGC3WXXCDQ8EB","A2BK9RMC0NOIH8","3TZDZ3Y0JSSRVQSC3SM97PDQ3Z7196","","null","<img src=""img/animal5.png"" style=""width:200px; border:14px solid green;"">","null","","","","","",""
"","image-keyboard-response","317","145083","0.0-317.0","3DIP6YHAPDESN6181QGC3WXXCDQ8EB","A2BK9RMC0NOIH8","3TZDZ3Y0JSSRVQSC3SM97PDQ3Z7196","","122.3999999910593","img/animal3.png","75","122.90000000596046","2","0","3","0.7,0,0.8,0.7,0.8,0,0.7,0.8,0",""
"","html-keyboard-response","318","145385","0.0-318.0","3DIP6YHAPDESN6181QGC3WXXCDQ8EB","A2BK9RMC0NOIH8","3TZDZ3Y0JSSRVQSC3SM97PDQ3Z7196","","null","<img src=""img/animal3.png"" style=""width:200px;border:14px solid red;"">","null","","","","","",""
"","image-keyboard-response","319","145467","0.0-319.0","3DIP6YHAPDESN6181QGC3WXXCDQ8EB","A2BK9RMC0NOIH8","3TZDZ3Y0JSSRVQSC3SM97PDQ3Z7196","","81.70000000298023","img/animal3.png","75","82","2","1","3","0.7,0,0.8,0.7,0.8,0,0.7,0.8,0",""
"","html-keyboard-response","320","145769","0.0-320.0","3DIP6YHAPDESN6181QGC3WXXCDQ8EB","A2BK9RMC0NOIH8","3TZDZ3Y0JSSRVQSC3SM97PDQ3Z7196","","null","<img src=""img/animal3.png"" style=""width:200px; border:14px solid green;"">","null","","","","","",""
"","image-keyboard-response","321","145899","0.0-321.0","3DIP6YHAPDESN6181QGC3WXXCDQ8EB","A2BK9RMC0NOIH8","3TZDZ3Y0JSSRVQSC3SM97PDQ3Z7196","","130","img/animal3.png","76","130.40000000596046","3","0","3","0.7,0,0.8,0.7,0.8,0,0.7,0.8,0",""
"","html-keyboard-response","322","146201","0.0-322.0","3DIP6YHAPDESN6181QGC3WXXCDQ8EB","A2BK9RMC0NOIH8","3TZDZ3Y0JSSRVQSC3SM97PDQ3Z7196","","null","<img src=""img/animal3.png"" style=""width:200px;border:14px solid red;"">","null","","","","","",""
"","image-keyboard-response","323","146323","0.0-323.0","3DIP6YHAPDESN6181QGC3WXXCDQ8EB","A2BK9RMC0NOIH8","3TZDZ3Y0JSSRVQSC3SM97PDQ3Z7196","","121.40000000596046","img/animal5.png","75","121.90000000596046","2","0","1","0.7,0,0.8,0.7,0.8,0,0.7,0.8,0",""
"","html-keyboard-response","324","146639","0.0-324.0","3DIP6YHAPDESN6181QGC3WXXCDQ8EB","A2BK9RMC0NOIH8","3TZDZ3Y0JSSRVQSC3SM97PDQ3Z7196","","null","<img src=""img/animal5.png"" style=""width:200px;border:14px solid red;"">","null","","","","","",""
"","image-keyboard-response","325","146740","0.0-325.0","3DIP6YHAPDESN6181QGC3WXXCDQ8EB","A2BK9RMC0NOIH8","3TZDZ3Y0JSSRVQSC3SM97PDQ3Z7196","","99.8999999910593","img/animal4.png","75","100.40000000596046","2","0","2","0.7,0,0.8,0.7,0.8,0,0.7,0.8,0",""
"","html-keyboard-response","326","147041","0.0-326.0","3DIP6YHAPDESN6181QGC3WXXCDQ8EB","A2BK9RMC0NOIH8","3TZDZ3Y0JSSRVQSC3SM97PDQ3Z7196","","null","<img src=""img/animal4.png"" style=""width:200px;border:14px solid red;"">","null","","","","","",""
"","image-keyboard-response","327","147131","0.0-327.0","3DIP6YHAPDESN6181QGC3WXXCDQ8EB","A2BK9RMC0NOIH8","3TZDZ3Y0JSSRVQSC3SM97PDQ3Z7196","","89.80000001192093","img/animal4.png","74","90.29999999701977","1","0","2","0.7,0,0.8,0.7,0.8,0,0.7,0.8,0",""
"","html-keyboard-response","328","147432","0.0-328.0","3DIP6YHAPDESN6181QGC3WXXCDQ8EB","A2BK9RMC0NOIH8","3TZDZ3Y0JSSRVQSC3SM97PDQ3Z7196","","null","<img src=""img/animal4.png"" style=""width:200px;border:14px solid red;"">","null","","","","","",""
"","image-keyboard-response","329","147515","0.0-329.0","3DIP6YHAPDESN6181QGC3WXXCDQ8EB","A2BK9RMC0NOIH8","3TZDZ3Y0JSSRVQSC3SM97PDQ3Z7196","","82.29999999701977","img/animal3.png","74","82.79999999701977","1","1","3","0.7,0,0.8,0.7,0.8,0,0.7,0.8,0",""
"","html-keyboard-response","330","147816","0.0-330.0","3DIP6YHAPDESN6181QGC3WXXCDQ8EB","A2BK9RMC0NOIH8","3TZDZ3Y0JSSRVQSC3SM97PDQ3Z7196","","null","<img src=""img/animal3.png"" style=""width:200px; border:14px solid green;"">","null","","","","","",""
"","image-keyboard-response","331","147883","0.0-331.0","3DIP6YHAPDESN6181QGC3WXXCDQ8EB","A2BK9RMC0NOIH8","3TZDZ3Y0JSSRVQSC3SM97PDQ3Z7196","","66.09999999403954","img/animal4.png","75","66.6000000089407","2","1","2","0.7,0,0.8,0.7,0.8,0,0.7,0.8,0",""
"","html-keyboard-response","332","148185","0.0-332.0","3DIP6YHAPDESN6181QGC3WXXCDQ8EB","A2BK9RMC0NOIH8","3TZDZ3Y0JSSRVQSC3SM97PDQ3Z7196","","null","<img src=""img/animal4.png"" style=""width:200px; border:14px solid green;"">","null","","","","","",""
"","image-keyboard-response","333","148291","0.0-333.0","3DIP6YHAPDESN6181QGC3WXXCDQ8EB","A2BK9RMC0NOIH8","3TZDZ3Y0JSSRVQSC3SM97PDQ3Z7196","","105.09999999403954","img/animal5.png","75","105.59999999403954","2","0","1","0.7,0,0.8,0.7,0.8,0,0.7,0.8,0",""
"","html-keyboard-response","334","148593","0.0-334.0","3DIP6YHAPDESN6181QGC3WXXCDQ8EB","A2BK9RMC0NOIH8","3TZDZ3Y0JSSRVQSC3SM97PDQ3Z7196","","null","<img src=""img/animal5.png"" style=""width:200px;border:14px solid red;"">","null","","","","","",""
"","image-keyboard-response","335","148739","0.0-335.0","3DIP6YHAPDESN6181QGC3WXXCDQ8EB","A2BK9RMC0NOIH8","3TZDZ3Y0JSSRVQSC3SM97PDQ3Z7196","","145.8999999910593","img/animal4.png","76","146.40000000596046","3","0","2","0.7,0,0.8,0.7,0.8,0,0.7,0.8,0",""
"","html-keyboard-response","336","149042","0.0-336.0","3DIP6YHAPDESN6181QGC3WXXCDQ8EB","A2BK9RMC0NOIH8","3TZDZ3Y0JSSRVQSC3SM97PDQ3Z7196","","null","<img src=""img/animal4.png"" style=""width:200px;border:14px solid red;"">","null","","","","","",""
"","image-keyboard-response","337","149147","0.0-337.0","3DIP6YHAPDESN6181QGC3WXXCDQ8EB","A2BK9RMC0NOIH8","3TZDZ3Y0JSSRVQSC3SM97PDQ3Z7196","","104.70000000298023","img/animal3.png","76","105.30000001192093","3","0","3","0.7,0,0.8,0.7,0.8,0,0.7,0.8,0",""
"","html-keyboard-response","338","149456","0.0-338.0","3DIP6YHAPDESN6181QGC3WXXCDQ8EB","A2BK9RMC0NOIH8","3TZDZ3Y0JSSRVQSC3SM97PDQ3Z7196","","null","<img src=""img/animal3.png"" style=""width:200px;border:14px solid red;"">","null","","","","","",""
"","image-keyboard-response","339","149499","0.0-339.0","3DIP6YHAPDESN6181QGC3WXXCDQ8EB","A2BK9RMC0NOIH8","3TZDZ3Y0JSSRVQSC3SM97PDQ3Z7196","","42.79999999701977","img/animal4.png","75","43.30000001192093","2","1","2","0.7,0,0.8,0.7,0.8,0,0.7,0.8,0",""
"","html-keyboard-response","340","149801","0.0-340.0","3DIP6YHAPDESN6181QGC3WXXCDQ8EB","A2BK9RMC0NOIH8","3TZDZ3Y0JSSRVQSC3SM97PDQ3Z7196","","null","<img src=""img/animal4.png"" style=""width:200px; border:14px solid green;"">","null","","","","","",""
"","image-keyboard-response","341","149891","0.0-341.0","3DIP6YHAPDESN6181QGC3WXXCDQ8EB","A2BK9RMC0NOIH8","3TZDZ3Y0JSSRVQSC3SM97PDQ3Z7196","","90.40000000596046","img/animal3.png","76","90.70000000298023","3","0","3","0.7,0,0.8,0.7,0.8,0,0.7,0.8,0",""
"","html-keyboard-response","342","150194","0.0-342.0","3DIP6YHAPDESN6181QGC3WXXCDQ8EB","A2BK9RMC0NOIH8","3TZDZ3Y0JSSRVQSC3SM97PDQ3Z7196","","null","<img src=""img/animal3.png"" style=""width:200px;border:14px solid red;"">","null","","","","","",""
"","image-keyboard-response","343","150315","0.0-343.0","3DIP6YHAPDESN6181QGC3WXXCDQ8EB","A2BK9RMC0NOIH8","3TZDZ3Y0JSSRVQSC3SM97PDQ3Z7196","","120.90000000596046","img/animal4.png","75","121.19999998807907","2","1","2","0.7,0,0.8,0.7,0.8,0,0.7,0.8,0",""
"","html-keyboard-response","344","150617","0.0-344.0","3DIP6YHAPDESN6181QGC3WXXCDQ8EB","A2BK9RMC0NOIH8","3TZDZ3Y0JSSRVQSC3SM97PDQ3Z7196","","null","<img src=""img/animal4.png"" style=""width:200px; border:14px solid green;"">","null","","","","","",""
"","image-keyboard-response","345","150635","0.0-345.0","3DIP6YHAPDESN6181QGC3WXXCDQ8EB","A2BK9RMC0NOIH8","3TZDZ3Y0JSSRVQSC3SM97PDQ3Z7196","","18","img/animal3.png","76","18.399999991059303","3","0","3","0.7,0,0.8,0.7,0.8,0,0.7,0.8,0",""
"","html-keyboard-response","346","150937","0.0-346.0","3DIP6YHAPDESN6181QGC3WXXCDQ8EB","A2BK9RMC0NOIH8","3TZDZ3Y0JSSRVQSC3SM97PDQ3Z7196","","null","<img src=""img/animal3.png"" style=""width:200px;border:14px solid red;"">","null","","","","","",""
"","image-keyboard-response","347","151076","0.0-347.0","3DIP6YHAPDESN6181QGC3WXXCDQ8EB","A2BK9RMC0NOIH8","3TZDZ3Y0JSSRVQSC3SM97PDQ3Z7196","","138","img/animal4.png","74","138.5","1","1","2","0.7,0,0.8,0.7,0.8,0,0.7,0.8,0",""
"","html-keyboard-response","348","151378","0.0-348.0","3DIP6YHAPDESN6181QGC3WXXCDQ8EB","A2BK9RMC0NOIH8","3TZDZ3Y0JSSRVQSC3SM97PDQ3Z7196","","null","<img src=""img/animal4.png"" style=""width:200px; border:14px solid green;"">","null","","","","","",""
"","image-keyboard-response","349","151427","0.0-349.0","3DIP6YHAPDESN6181QGC3WXXCDQ8EB","A2BK9RMC0NOIH8","3TZDZ3Y0JSSRVQSC3SM97PDQ3Z7196","","48.900000005960464","img/animal3.png","76","49.29999999701977","3","0","3","0.7,0,0.8,0.7,0.8,0,0.7,0.8,0",""
"","html-keyboard-response","350","151728","0.0-350.0","3DIP6YHAPDESN6181QGC3WXXCDQ8EB","A2BK9RMC0NOIH8","3TZDZ3Y0JSSRVQSC3SM97PDQ3Z7196","","null","<img src=""img/animal3.png"" style=""width:200px;border:14px solid red;"">","null","","","","","",""
"","image-keyboard-response","351","151883","0.0-351.0","3DIP6YHAPDESN6181QGC3WXXCDQ8EB","A2BK9RMC0NOIH8","3TZDZ3Y0JSSRVQSC3SM97PDQ3Z7196","","154.70000000298023","img/animal4.png","74","155.20000000298023","1","1","2","0.7,0,0.8,0.7,0.8,0,0.7,0.8,0",""
"","html-keyboard-response","352","152185","0.0-352.0","3DIP6YHAPDESN6181QGC3WXXCDQ8EB","A2BK9RMC0NOIH8","3TZDZ3Y0JSSRVQSC3SM97PDQ3Z7196","","null","<img src=""img/animal4.png"" style=""width:200px; border:14px solid green;"">","null","","","","","",""
"","image-keyboard-response","353","152291","0.0-353.0","3DIP6YHAPDESN6181QGC3WXXCDQ8EB","A2BK9RMC0NOIH8","3TZDZ3Y0JSSRVQSC3SM97PDQ3Z7196","","105.70000000298023","img/animal3.png","75","106.29999999701977","2","0","3","0.7,0,0.8,0.7,0.8,0,0.7,0.8,0",""
"","html-keyboard-response","354","152594","0.0-354.0","3DIP6YHAPDESN6181QGC3WXXCDQ8EB","A2BK9RMC0NOIH8","3TZDZ3Y0JSSRVQSC3SM97PDQ3Z7196","","null","<img src=""img/animal3.png"" style=""width:200px;border:14px solid red;"">","null","","","","","",""
"","image-keyboard-response","355","152747","0.0-355.0","3DIP6YHAPDESN6181QGC3WXXCDQ8EB","A2BK9RMC0NOIH8","3TZDZ3Y0JSSRVQSC3SM97PDQ3Z7196","","151.90000000596046","img/animal3.png","76","152.59999999403954","3","0","3","0.7,0,0.8,0.7,0.8,0,0.7,0.8,0",""
"","html-keyboard-response","356","153049","0.0-356.0","3DIP6YHAPDESN6181QGC3WXXCDQ8EB","A2BK9RMC0NOIH8","3TZDZ3Y0JSSRVQSC3SM97PDQ3Z7196","","null","<img src=""img/animal3.png"" style=""width:200px;border:14px solid red;"">","null","","","","","",""
"","image-keyboard-response","357","153067","0.0-357.0","3DIP6YHAPDESN6181QGC3WXXCDQ8EB","A2BK9RMC0NOIH8","3TZDZ3Y0JSSRVQSC3SM97PDQ3Z7196","","17.400000005960464","img/animal3.png","76","18","3","0","3","0.7,0,0.8,0.7,0.8,0,0.7,0.8,0",""
"","html-keyboard-response","358","153372","0.0-358.0","3DIP6YHAPDESN6181QGC3WXXCDQ8EB","A2BK9RMC0NOIH8","3TZDZ3Y0JSSRVQSC3SM97PDQ3Z7196","","null","<img src=""img/animal3.png"" style=""width:200px;border:14px solid red;"">","null","","","","","",""
"","image-keyboard-response","359","153467","0.0-359.0","3DIP6YHAPDESN6181QGC3WXXCDQ8EB","A2BK9RMC0NOIH8","3TZDZ3Y0JSSRVQSC3SM97PDQ3Z7196","","94.8999999910593","img/animal3.png","74","95.5","1","0","3","0.7,0,0.8,0.7,0.8,0,0.7,0.8,0",""
"","html-keyboard-response","360","153768","0.0-360.0","3DIP6YHAPDESN6181QGC3WXXCDQ8EB","A2BK9RMC0NOIH8","3TZDZ3Y0JSSRVQSC3SM97PDQ3Z7196","","null","<img src=""img/animal3.png"" style=""width:200px;border:14px solid red;"">","null","","","","","",""
"","image-keyboard-response","361","153931","0.0-361.0","3DIP6YHAPDESN6181QGC3WXXCDQ8EB","A2BK9RMC0NOIH8","3TZDZ3Y0JSSRVQSC3SM97PDQ3Z7196","","162.79999999701977","img/animal3.png","75","163.19999998807907","2","1","3","0.7,0,0.8,0.7,0.8,0,0.7,0.8,0",""
"","html-keyboard-response","362","154232","0.0-362.0","3DIP6YHAPDESN6181QGC3WXXCDQ8EB","A2BK9RMC0NOIH8","3TZDZ3Y0JSSRVQSC3SM97PDQ3Z7196","","null","<img src=""img/animal3.png"" style=""width:200px; border:14px solid green;"">","null","","","","","",""
"","instructions","363","160720","0.0-363.0","3DIP6YHAPDESN6181QGC3WXXCDQ8EB","A2BK9RMC0NOIH8","3TZDZ3Y0JSSRVQSC3SM97PDQ3Z7196","[{""page_index"":0,""viewing_time"":6487.4000000059605}]","6487.600000008941","","","","","","","",""
"","survey-text","364","165460","0.0-364.0","3DIP6YHAPDESN6181QGC3WXXCDQ8EB","A2BK9RMC0NOIH8","3TZDZ3Y0JSSRVQSC3SM97PDQ3Z7196","","4738.4000000059605","","","","","","","","{""Q0"":""A2BK9RMC0NOIH8""}"
