"success","trial_type","trial_index","time_elapsed","internal_node_id","assignmentID","mturkID","hitID","view_history","rt","stimulus","key_press","reactionTime","a","r","s","reward_cond","responses"
"true","fullscreen","0","3663","0.0-0.0","339ANSOTR6OOYC5V6Y36EG4GZ6RIKD","A2D28BVEFUUTMO","368IUKXGA5U7UZ9GQNUNOB4MGE4P6M","","","","","","","","","",""
"","instructions","1","27595","0.0-1.0","339ANSOTR6OOYC5V6Y36EG4GZ6RIKD","A2D28BVEFUUTMO","368IUKXGA5U7UZ9GQNUNOB4MGE4P6M","[{""page_index"":0,""viewing_time"":8127},{""page_index"":1,""viewing_time"":714},{""page_index"":2,""viewing_time"":494},{""page_index"":3,""viewing_time"":3475},{""page_index"":4,""viewing_time"":7604},{""page_index"":5,""viewing_time"":1171},{""page_index"":6,""viewing_time"":980},{""page_index"":7,""viewing_time"":1357}]","23926","","","","","","","",""
"","image-keyboard-response","2","30430","0.0-2.0","339ANSOTR6OOYC5V6Y36EG4GZ6RIKD","A2D28BVEFUUTMO","368IUKXGA5U7UZ9GQNUNOB4MGE4P6M","","2822","img/animal5.png","74","2830","1","0","3","0.5,0,1,1,0.5,0,0,1,0.5",""
"","html-keyboard-response","3","30744","0.0-3.0","339ANSOTR6OOYC5V6Y36EG4GZ6RIKD","A2D28BVEFUUTMO","368IUKXGA5U7UZ9GQNUNOB4MGE4P6M","","null","<img src=""img/animal5.png"" style=""width:200px;border:14px solid red;"">","null","","","","","",""
"","image-keyboard-response","4","31704","0.0-4.0","339ANSOTR6OOYC5V6Y36EG4GZ6RIKD","A2D28BVEFUUTMO","368IUKXGA5U7UZ9GQNUNOB4MGE4P6M","","957","img/animal1.png","75","960","2","0","1","0.5,0,1,1,0.5,0,0,1,0.5",""
"","html-keyboard-response","5","32010","0.0-5.0","339ANSOTR6OOYC5V6Y36EG4GZ6RIKD","A2D28BVEFUUTMO","368IUKXGA5U7UZ9GQNUNOB4MGE4P6M","","null","<img src=""img/animal1.png"" style=""width:200px;border:14px solid red;"">","null","","","","","",""
"","image-keyboard-response","6","32694","0.0-6.0","339ANSOTR6OOYC5V6Y36EG4GZ6RIKD","A2D28BVEFUUTMO","368IUKXGA5U7UZ9GQNUNOB4MGE4P6M","","678","img/animal6.png","76","683","3","0","2","0.5,0,1,1,0.5,0,0,1,0.5",""
"","html-keyboard-response","7","33001","0.0-7.0","339ANSOTR6OOYC5V6Y36EG4GZ6RIKD","A2D28BVEFUUTMO","368IUKXGA5U7UZ9GQNUNOB4MGE4P6M","","null","<img src=""img/animal6.png"" style=""width:200px;border:14px solid red;"">","null","","","","","",""
"","image-keyboard-response","8","34224","0.0-8.0","339ANSOTR6OOYC5V6Y36EG4GZ6RIKD","A2D28BVEFUUTMO","368IUKXGA5U7UZ9GQNUNOB4MGE4P6M","","1216","img/animal6.png","76","1221","3","0","2","0.5,0,1,1,0.5,0,0,1,0.5",""
"","html-keyboard-response","9","34529","0.0-9.0","339ANSOTR6OOYC5V6Y36EG4GZ6RIKD","A2D28BVEFUUTMO","368IUKXGA5U7UZ9GQNUNOB4MGE4P6M","","null","<img src=""img/animal6.png"" style=""width:200px;border:14px solid red;"">","null","","","","","",""
"","image-keyboard-response","10","35509","0.0-10.0","339ANSOTR6OOYC5V6Y36EG4GZ6RIKD","A2D28BVEFUUTMO","368IUKXGA5U7UZ9GQNUNOB4MGE4P6M","","974","img/animal6.png","74","979","1","1","2","0.5,0,1,1,0.5,0,0,1,0.5",""
"","html-keyboard-response","11","35814","0.0-11.0","339ANSOTR6OOYC5V6Y36EG4GZ6RIKD","A2D28BVEFUUTMO","368IUKXGA5U7UZ9GQNUNOB4MGE4P6M","","null","<img src=""img/animal6.png"" style=""width:200px; border:14px solid green;"">","null","","","","","",""
"","image-keyboard-response","12","36931","0.0-12.0","339ANSOTR6OOYC5V6Y36EG4GZ6RIKD","A2D28BVEFUUTMO","368IUKXGA5U7UZ9GQNUNOB4MGE4P6M","","1111","img/animal5.png","75","1116","2","1","3","0.5,0,1,1,0.5,0,0,1,0.5",""
"","html-keyboard-response","13","37236","0.0-13.0","339ANSOTR6OOYC5V6Y36EG4GZ6RIKD","A2D28BVEFUUTMO","368IUKXGA5U7UZ9GQNUNOB4MGE4P6M","","null","<img src=""img/animal5.png"" style=""width:200px; border:14px solid green;"">","null","","","","","",""
"","image-keyboard-response","14","38174","0.0-14.0","339ANSOTR6OOYC5V6Y36EG4GZ6RIKD","A2D28BVEFUUTMO","368IUKXGA5U7UZ9GQNUNOB4MGE4P6M","","933","img/animal5.png","75","937","2","1","3","0.5,0,1,1,0.5,0,0,1,0.5",""
"","html-keyboard-response","15","38480","0.0-15.0","339ANSOTR6OOYC5V6Y36EG4GZ6RIKD","A2D28BVEFUUTMO","368IUKXGA5U7UZ9GQNUNOB4MGE4P6M","","null","<img src=""img/animal5.png"" style=""width:200px; border:14px solid green;"">","null","","","","","",""
"","image-keyboard-response","16","39420","0.0-16.0","339ANSOTR6OOYC5V6Y36EG4GZ6RIKD","A2D28BVEFUUTMO","368IUKXGA5U7UZ9GQNUNOB4MGE4P6M","","935","img/animal1.png","76","940","3","1","1","0.5,0,1,1,0.5,0,0,1,0.5",""
"","html-keyboard-response","17","39726","0.0-17.0","339ANSOTR6OOYC5V6Y36EG4GZ6RIKD","A2D28BVEFUUTMO","368IUKXGA5U7UZ9GQNUNOB4MGE4P6M","","null","<img src=""img/animal1.png"" style=""width:200px; border:14px solid green;"">","null","","","","","",""
"","image-keyboard-response","18","40435","0.0-18.0","339ANSOTR6OOYC5V6Y36EG4GZ6RIKD","A2D28BVEFUUTMO","368IUKXGA5U7UZ9GQNUNOB4MGE4P6M","","706","img/animal1.png","76","709","3","1","1","0.5,0,1,1,0.5,0,0,1,0.5",""
"","html-keyboard-response","19","40740","0.0-19.0","339ANSOTR6OOYC5V6Y36EG4GZ6RIKD","A2D28BVEFUUTMO","368IUKXGA5U7UZ9GQNUNOB4MGE4P6M","","null","<img src=""img/animal1.png"" style=""width:200px; border:14px solid green;"">","null","","","","","",""
"","image-keyboard-response","20","41687","0.0-20.0","339ANSOTR6OOYC5V6Y36EG4GZ6RIKD","A2D28BVEFUUTMO","368IUKXGA5U7UZ9GQNUNOB4MGE4P6M","","939","img/animal6.png","74","947","1","1","2","0.5,0,1,1,0.5,0,0,1,0.5",""
"","html-keyboard-response","21","41994","0.0-21.0","339ANSOTR6OOYC5V6Y36EG4GZ6RIKD","A2D28BVEFUUTMO","368IUKXGA5U7UZ9GQNUNOB4MGE4P6M","","null","<img src=""img/animal6.png"" style=""width:200px; border:14px solid green;"">","null","","","","","",""
"","image-keyboard-response","22","42673","0.0-22.0","339ANSOTR6OOYC5V6Y36EG4GZ6RIKD","A2D28BVEFUUTMO","368IUKXGA5U7UZ9GQNUNOB4MGE4P6M","","671","img/animal1.png","75","678","2","0","1","0.5,0,1,1,0.5,0,0,1,0.5",""
"","html-keyboard-response","23","42981","0.0-23.0","339ANSOTR6OOYC5V6Y36EG4GZ6RIKD","A2D28BVEFUUTMO","368IUKXGA5U7UZ9GQNUNOB4MGE4P6M","","null","<img src=""img/animal1.png"" style=""width:200px;border:14px solid red;"">","null","","","","","",""
"","image-keyboard-response","24","43730","0.0-24.0","339ANSOTR6OOYC5V6Y36EG4GZ6RIKD","A2D28BVEFUUTMO","368IUKXGA5U7UZ9GQNUNOB4MGE4P6M","","742","img/animal6.png","76","747","3","0","2","0.5,0,1,1,0.5,0,0,1,0.5",""
"","html-keyboard-response","25","44034","0.0-25.0","339ANSOTR6OOYC5V6Y36EG4GZ6RIKD","A2D28BVEFUUTMO","368IUKXGA5U7UZ9GQNUNOB4MGE4P6M","","null","<img src=""img/animal6.png"" style=""width:200px;border:14px solid red;"">","null","","","","","",""
"","image-keyboard-response","26","44780","0.0-26.0","339ANSOTR6OOYC5V6Y36EG4GZ6RIKD","A2D28BVEFUUTMO","368IUKXGA5U7UZ9GQNUNOB4MGE4P6M","","742","img/animal6.png","76","745","3","0","2","0.5,0,1,1,0.5,0,0,1,0.5",""
"","html-keyboard-response","27","45084","0.0-27.0","339ANSOTR6OOYC5V6Y36EG4GZ6RIKD","A2D28BVEFUUTMO","368IUKXGA5U7UZ9GQNUNOB4MGE4P6M","","null","<img src=""img/animal6.png"" style=""width:200px;border:14px solid red;"">","null","","","","","",""
"","image-keyboard-response","28","46261","0.0-28.0","339ANSOTR6OOYC5V6Y36EG4GZ6RIKD","A2D28BVEFUUTMO","368IUKXGA5U7UZ9GQNUNOB4MGE4P6M","","1170","img/animal1.png","75","1176","2","0","1","0.5,0,1,1,0.5,0,0,1,0.5",""
"","html-keyboard-response","29","46566","0.0-29.0","339ANSOTR6OOYC5V6Y36EG4GZ6RIKD","A2D28BVEFUUTMO","368IUKXGA5U7UZ9GQNUNOB4MGE4P6M","","null","<img src=""img/animal1.png"" style=""width:200px;border:14px solid red;"">","null","","","","","",""
"","image-keyboard-response","30","47668","0.0-30.0","339ANSOTR6OOYC5V6Y36EG4GZ6RIKD","A2D28BVEFUUTMO","368IUKXGA5U7UZ9GQNUNOB4MGE4P6M","","1097","img/animal5.png","74","1102","1","0","3","0.5,0,1,1,0.5,0,0,1,0.5",""
"","html-keyboard-response","31","47972","0.0-31.0","339ANSOTR6OOYC5V6Y36EG4GZ6RIKD","A2D28BVEFUUTMO","368IUKXGA5U7UZ9GQNUNOB4MGE4P6M","","null","<img src=""img/animal5.png"" style=""width:200px;border:14px solid red;"">","null","","","","","",""
"","image-keyboard-response","32","48553","0.0-32.0","339ANSOTR6OOYC5V6Y36EG4GZ6RIKD","A2D28BVEFUUTMO","368IUKXGA5U7UZ9GQNUNOB4MGE4P6M","","576","img/animal5.png","74","581","1","0","3","0.5,0,1,1,0.5,0,0,1,0.5",""
"","html-keyboard-response","33","48858","0.0-33.0","339ANSOTR6OOYC5V6Y36EG4GZ6RIKD","A2D28BVEFUUTMO","368IUKXGA5U7UZ9GQNUNOB4MGE4P6M","","null","<img src=""img/animal5.png"" style=""width:200px;border:14px solid red;"">","null","","","","","",""
"","image-keyboard-response","34","49631","0.0-34.0","339ANSOTR6OOYC5V6Y36EG4GZ6RIKD","A2D28BVEFUUTMO","368IUKXGA5U7UZ9GQNUNOB4MGE4P6M","","767","img/animal6.png","75","772","2","1","2","0.5,0,1,1,0.5,0,0,1,0.5",""
"","html-keyboard-response","35","49936","0.0-35.0","339ANSOTR6OOYC5V6Y36EG4GZ6RIKD","A2D28BVEFUUTMO","368IUKXGA5U7UZ9GQNUNOB4MGE4P6M","","null","<img src=""img/animal6.png"" style=""width:200px; border:14px solid green;"">","null","","","","","",""
"","image-keyboard-response","36","50469","0.0-36.0","339ANSOTR6OOYC5V6Y36EG4GZ6RIKD","A2D28BVEFUUTMO","368IUKXGA5U7UZ9GQNUNOB4MGE4P6M","","526","img/animal6.png","75","531","2","0","2","0.5,0,1,1,0.5,0,0,1,0.5",""
"","html-keyboard-response","37","50774","0.0-37.0","339ANSOTR6OOYC5V6Y36EG4GZ6RIKD","A2D28BVEFUUTMO","368IUKXGA5U7UZ9GQNUNOB4MGE4P6M","","null","<img src=""img/animal6.png"" style=""width:200px;border:14px solid red;"">","null","","","","","",""
"","image-keyboard-response","38","51357","0.0-38.0","339ANSOTR6OOYC5V6Y36EG4GZ6RIKD","A2D28BVEFUUTMO","368IUKXGA5U7UZ9GQNUNOB4MGE4P6M","","576","img/animal1.png","75","581","2","0","1","0.5,0,1,1,0.5,0,0,1,0.5",""
"","html-keyboard-response","39","51666","0.0-39.0","339ANSOTR6OOYC5V6Y36EG4GZ6RIKD","A2D28BVEFUUTMO","368IUKXGA5U7UZ9GQNUNOB4MGE4P6M","","null","<img src=""img/animal1.png"" style=""width:200px;border:14px solid red;"">","null","","","","","",""
"","image-keyboard-response","40","52521","0.0-40.0","339ANSOTR6OOYC5V6Y36EG4GZ6RIKD","A2D28BVEFUUTMO","368IUKXGA5U7UZ9GQNUNOB4MGE4P6M","","848","img/animal5.png","76","854","3","0","3","0.5,0,1,1,0.5,0,0,1,0.5",""
"","html-keyboard-response","41","52826","0.0-41.0","339ANSOTR6OOYC5V6Y36EG4GZ6RIKD","A2D28BVEFUUTMO","368IUKXGA5U7UZ9GQNUNOB4MGE4P6M","","null","<img src=""img/animal5.png"" style=""width:200px;border:14px solid red;"">","null","","","","","",""
"","image-keyboard-response","42","53929","0.0-42.0","339ANSOTR6OOYC5V6Y36EG4GZ6RIKD","A2D28BVEFUUTMO","368IUKXGA5U7UZ9GQNUNOB4MGE4P6M","","1097","img/animal6.png","74","1103","1","1","2","0.5,0,1,1,0.5,0,0,1,0.5",""
"","html-keyboard-response","43","54235","0.0-43.0","339ANSOTR6OOYC5V6Y36EG4GZ6RIKD","A2D28BVEFUUTMO","368IUKXGA5U7UZ9GQNUNOB4MGE4P6M","","null","<img src=""img/animal6.png"" style=""width:200px; border:14px solid green;"">","null","","","","","",""
"","image-keyboard-response","44","54752","0.0-44.0","339ANSOTR6OOYC5V6Y36EG4GZ6RIKD","A2D28BVEFUUTMO","368IUKXGA5U7UZ9GQNUNOB4MGE4P6M","","513","img/animal6.png","75","517","2","0","2","0.5,0,1,1,0.5,0,0,1,0.5",""
"","html-keyboard-response","45","55057","0.0-45.0","339ANSOTR6OOYC5V6Y36EG4GZ6RIKD","A2D28BVEFUUTMO","368IUKXGA5U7UZ9GQNUNOB4MGE4P6M","","null","<img src=""img/animal6.png"" style=""width:200px;border:14px solid red;"">","null","","","","","",""
"","image-keyboard-response","46","56532","0.0-46.0","339ANSOTR6OOYC5V6Y36EG4GZ6RIKD","A2D28BVEFUUTMO","368IUKXGA5U7UZ9GQNUNOB4MGE4P6M","","1443","img/animal5.png","76","1449","3","1","3","0.5,0,1,1,0.5,0,0,1,0.5",""
"","html-keyboard-response","47","56836","0.0-47.0","339ANSOTR6OOYC5V6Y36EG4GZ6RIKD","A2D28BVEFUUTMO","368IUKXGA5U7UZ9GQNUNOB4MGE4P6M","","null","<img src=""img/animal5.png"" style=""width:200px; border:14px solid green;"">","null","","","","","",""
"","image-keyboard-response","48","57924","0.0-48.0","339ANSOTR6OOYC5V6Y36EG4GZ6RIKD","A2D28BVEFUUTMO","368IUKXGA5U7UZ9GQNUNOB4MGE4P6M","","1082","img/animal1.png","76","1087","3","1","1","0.5,0,1,1,0.5,0,0,1,0.5",""
"","html-keyboard-response","49","58228","0.0-49.0","339ANSOTR6OOYC5V6Y36EG4GZ6RIKD","A2D28BVEFUUTMO","368IUKXGA5U7UZ9GQNUNOB4MGE4P6M","","null","<img src=""img/animal1.png"" style=""width:200px; border:14px solid green;"">","null","","","","","",""
"","image-keyboard-response","50","60021","0.0-50.0","339ANSOTR6OOYC5V6Y36EG4GZ6RIKD","A2D28BVEFUUTMO","368IUKXGA5U7UZ9GQNUNOB4MGE4P6M","","1789","img/animal6.png","74","1793","1","1","2","0.5,0,1,1,0.5,0,0,1,0.5",""
"","html-keyboard-response","51","60328","0.0-51.0","339ANSOTR6OOYC5V6Y36EG4GZ6RIKD","A2D28BVEFUUTMO","368IUKXGA5U7UZ9GQNUNOB4MGE4P6M","","null","<img src=""img/animal6.png"" style=""width:200px; border:14px solid green;"">","null","","","","","",""
"","image-keyboard-response","52","61264","0.0-52.0","339ANSOTR6OOYC5V6Y36EG4GZ6RIKD","A2D28BVEFUUTMO","368IUKXGA5U7UZ9GQNUNOB4MGE4P6M","","931","img/animal1.png","75","936","2","0","1","0.5,0,1,1,0.5,0,0,1,0.5",""
"","html-keyboard-response","53","61569","0.0-53.0","339ANSOTR6OOYC5V6Y36EG4GZ6RIKD","A2D28BVEFUUTMO","368IUKXGA5U7UZ9GQNUNOB4MGE4P6M","","null","<img src=""img/animal1.png"" style=""width:200px;border:14px solid red;"">","null","","","","","",""
"","image-keyboard-response","54","62537","0.0-54.0","339ANSOTR6OOYC5V6Y36EG4GZ6RIKD","A2D28BVEFUUTMO","368IUKXGA5U7UZ9GQNUNOB4MGE4P6M","","961","img/animal5.png","74","966","1","0","3","0.5,0,1,1,0.5,0,0,1,0.5",""
"","html-keyboard-response","55","62842","0.0-55.0","339ANSOTR6OOYC5V6Y36EG4GZ6RIKD","A2D28BVEFUUTMO","368IUKXGA5U7UZ9GQNUNOB4MGE4P6M","","null","<img src=""img/animal5.png"" style=""width:200px;border:14px solid red;"">","null","","","","","",""
"","image-keyboard-response","56","63856","0.0-56.0","339ANSOTR6OOYC5V6Y36EG4GZ6RIKD","A2D28BVEFUUTMO","368IUKXGA5U7UZ9GQNUNOB4MGE4P6M","","1006","img/animal6.png","75","1013","2","1","2","0.5,0,1,1,0.5,0,0,1,0.5",""
"","html-keyboard-response","57","64164","0.0-57.0","339ANSOTR6OOYC5V6Y36EG4GZ6RIKD","A2D28BVEFUUTMO","368IUKXGA5U7UZ9GQNUNOB4MGE4P6M","","null","<img src=""img/animal6.png"" style=""width:200px; border:14px solid green;"">","null","","","","","",""
"","image-keyboard-response","58","65774","0.0-58.0","339ANSOTR6OOYC5V6Y36EG4GZ6RIKD","A2D28BVEFUUTMO","368IUKXGA5U7UZ9GQNUNOB4MGE4P6M","","1602","img/animal1.png","76","1608","3","1","1","0.5,0,1,1,0.5,0,0,1,0.5",""
"","html-keyboard-response","59","66078","0.0-59.0","339ANSOTR6OOYC5V6Y36EG4GZ6RIKD","A2D28BVEFUUTMO","368IUKXGA5U7UZ9GQNUNOB4MGE4P6M","","null","<img src=""img/animal1.png"" style=""width:200px; border:14px solid green;"">","null","","","","","",""
"","image-keyboard-response","60","67099","0.0-60.0","339ANSOTR6OOYC5V6Y36EG4GZ6RIKD","A2D28BVEFUUTMO","368IUKXGA5U7UZ9GQNUNOB4MGE4P6M","","1014","img/animal5.png","74","1021","1","0","3","0.5,0,1,1,0.5,0,0,1,0.5",""
"","html-keyboard-response","61","67405","0.0-61.0","339ANSOTR6OOYC5V6Y36EG4GZ6RIKD","A2D28BVEFUUTMO","368IUKXGA5U7UZ9GQNUNOB4MGE4P6M","","null","<img src=""img/animal5.png"" style=""width:200px;border:14px solid red;"">","null","","","","","",""
"","image-keyboard-response","62","68274","0.0-62.0","339ANSOTR6OOYC5V6Y36EG4GZ6RIKD","A2D28BVEFUUTMO","368IUKXGA5U7UZ9GQNUNOB4MGE4P6M","","864","img/animal1.png","75","869","2","0","1","0.5,0,1,1,0.5,0,0,1,0.5",""
"","html-keyboard-response","63","68580","0.0-63.0","339ANSOTR6OOYC5V6Y36EG4GZ6RIKD","A2D28BVEFUUTMO","368IUKXGA5U7UZ9GQNUNOB4MGE4P6M","","null","<img src=""img/animal1.png"" style=""width:200px;border:14px solid red;"">","null","","","","","",""
"","image-keyboard-response","64","69277","0.0-64.0","339ANSOTR6OOYC5V6Y36EG4GZ6RIKD","A2D28BVEFUUTMO","368IUKXGA5U7UZ9GQNUNOB4MGE4P6M","","691","img/animal1.png","75","696","2","0","1","0.5,0,1,1,0.5,0,0,1,0.5",""
"","html-keyboard-response","65","69583","0.0-65.0","339ANSOTR6OOYC5V6Y36EG4GZ6RIKD","A2D28BVEFUUTMO","368IUKXGA5U7UZ9GQNUNOB4MGE4P6M","","null","<img src=""img/animal1.png"" style=""width:200px;border:14px solid red;"">","null","","","","","",""
"","image-keyboard-response","66","70086","0.0-66.0","339ANSOTR6OOYC5V6Y36EG4GZ6RIKD","A2D28BVEFUUTMO","368IUKXGA5U7UZ9GQNUNOB4MGE4P6M","","498","img/animal1.png","75","502","2","0","1","0.5,0,1,1,0.5,0,0,1,0.5",""
"","html-keyboard-response","67","70391","0.0-67.0","339ANSOTR6OOYC5V6Y36EG4GZ6RIKD","A2D28BVEFUUTMO","368IUKXGA5U7UZ9GQNUNOB4MGE4P6M","","null","<img src=""img/animal1.png"" style=""width:200px;border:14px solid red;"">","null","","","","","",""
"","image-keyboard-response","68","70819","0.0-68.0","339ANSOTR6OOYC5V6Y36EG4GZ6RIKD","A2D28BVEFUUTMO","368IUKXGA5U7UZ9GQNUNOB4MGE4P6M","","424","img/animal1.png","75","427","2","0","1","0.5,0,1,1,0.5,0,0,1,0.5",""
"","html-keyboard-response","69","71124","0.0-69.0","339ANSOTR6OOYC5V6Y36EG4GZ6RIKD","A2D28BVEFUUTMO","368IUKXGA5U7UZ9GQNUNOB4MGE4P6M","","null","<img src=""img/animal1.png"" style=""width:200px;border:14px solid red;"">","null","","","","","",""
"","image-keyboard-response","70","72452","0.0-70.0","339ANSOTR6OOYC5V6Y36EG4GZ6RIKD","A2D28BVEFUUTMO","368IUKXGA5U7UZ9GQNUNOB4MGE4P6M","","1323","img/animal5.png","74","1326","1","0","3","0.5,0,1,1,0.5,0,0,1,0.5",""
"","html-keyboard-response","71","72756","0.0-71.0","339ANSOTR6OOYC5V6Y36EG4GZ6RIKD","A2D28BVEFUUTMO","368IUKXGA5U7UZ9GQNUNOB4MGE4P6M","","null","<img src=""img/animal5.png"" style=""width:200px;border:14px solid red;"">","null","","","","","",""
"","image-keyboard-response","72","73425","0.0-72.0","339ANSOTR6OOYC5V6Y36EG4GZ6RIKD","A2D28BVEFUUTMO","368IUKXGA5U7UZ9GQNUNOB4MGE4P6M","","666","img/animal5.png","74","668","1","0","3","0.5,0,1,1,0.5,0,0,1,0.5",""
"","html-keyboard-response","73","73729","0.0-73.0","339ANSOTR6OOYC5V6Y36EG4GZ6RIKD","A2D28BVEFUUTMO","368IUKXGA5U7UZ9GQNUNOB4MGE4P6M","","null","<img src=""img/animal5.png"" style=""width:200px;border:14px solid red;"">","null","","","","","",""
"","image-keyboard-response","74","74295","0.0-74.0","339ANSOTR6OOYC5V6Y36EG4GZ6RIKD","A2D28BVEFUUTMO","368IUKXGA5U7UZ9GQNUNOB4MGE4P6M","","560","img/animal5.png","75","564","2","1","3","0.5,0,1,1,0.5,0,0,1,0.5",""
"","html-keyboard-response","75","74599","0.0-75.0","339ANSOTR6OOYC5V6Y36EG4GZ6RIKD","A2D28BVEFUUTMO","368IUKXGA5U7UZ9GQNUNOB4MGE4P6M","","null","<img src=""img/animal5.png"" style=""width:200px; border:14px solid green;"">","null","","","","","",""
"","image-keyboard-response","76","76098","0.0-76.0","339ANSOTR6OOYC5V6Y36EG4GZ6RIKD","A2D28BVEFUUTMO","368IUKXGA5U7UZ9GQNUNOB4MGE4P6M","","1492","img/animal5.png","75","1499","2","1","3","0.5,0,1,1,0.5,0,0,1,0.5",""
"","html-keyboard-response","77","76406","0.0-77.0","339ANSOTR6OOYC5V6Y36EG4GZ6RIKD","A2D28BVEFUUTMO","368IUKXGA5U7UZ9GQNUNOB4MGE4P6M","","null","<img src=""img/animal5.png"" style=""width:200px; border:14px solid green;"">","null","","","","","",""
"","image-keyboard-response","78","76424","0.0-78.0","339ANSOTR6OOYC5V6Y36EG4GZ6RIKD","A2D28BVEFUUTMO","368IUKXGA5U7UZ9GQNUNOB4MGE4P6M","","14","img/animal1.png","74","19","1","0","1","0.5,0,1,1,0.5,0,0,1,0.5",""
"","html-keyboard-response","79","76731","0.0-79.0","339ANSOTR6OOYC5V6Y36EG4GZ6RIKD","A2D28BVEFUUTMO","368IUKXGA5U7UZ9GQNUNOB4MGE4P6M","","null","<img src=""img/animal1.png"" style=""width:200px;border:14px solid red;"">","null","","","","","",""
"","image-keyboard-response","80","77621","0.0-80.0","339ANSOTR6OOYC5V6Y36EG4GZ6RIKD","A2D28BVEFUUTMO","368IUKXGA5U7UZ9GQNUNOB4MGE4P6M","","888","img/animal6.png","76","890","3","0","2","0.5,0,1,1,0.5,0,0,1,0.5",""
"","html-keyboard-response","81","77928","0.0-81.0","339ANSOTR6OOYC5V6Y36EG4GZ6RIKD","A2D28BVEFUUTMO","368IUKXGA5U7UZ9GQNUNOB4MGE4P6M","","null","<img src=""img/animal6.png"" style=""width:200px;border:14px solid red;"">","null","","","","","",""
"","image-keyboard-response","82","78352","0.0-82.0","339ANSOTR6OOYC5V6Y36EG4GZ6RIKD","A2D28BVEFUUTMO","368IUKXGA5U7UZ9GQNUNOB4MGE4P6M","","420","img/animal5.png","76","423","3","1","3","0.5,0,1,1,0.5,0,0,1,0.5",""
"","html-keyboard-response","83","78656","0.0-83.0","339ANSOTR6OOYC5V6Y36EG4GZ6RIKD","A2D28BVEFUUTMO","368IUKXGA5U7UZ9GQNUNOB4MGE4P6M","","null","<img src=""img/animal5.png"" style=""width:200px; border:14px solid green;"">","null","","","","","",""
"","image-keyboard-response","84","81318","0.0-84.0","339ANSOTR6OOYC5V6Y36EG4GZ6RIKD","A2D28BVEFUUTMO","368IUKXGA5U7UZ9GQNUNOB4MGE4P6M","","2658","img/animal5.png","74","2660","1","0","3","0.5,0,1,1,0.5,0,0,1,0.5",""
"","html-keyboard-response","85","81623","0.0-85.0","339ANSOTR6OOYC5V6Y36EG4GZ6RIKD","A2D28BVEFUUTMO","368IUKXGA5U7UZ9GQNUNOB4MGE4P6M","","null","<img src=""img/animal5.png"" style=""width:200px;border:14px solid red;"">","null","","","","","",""
"","image-keyboard-response","86","82353","0.0-86.0","339ANSOTR6OOYC5V6Y36EG4GZ6RIKD","A2D28BVEFUUTMO","368IUKXGA5U7UZ9GQNUNOB4MGE4P6M","","724","img/animal5.png","74","728","1","0","3","0.5,0,1,1,0.5,0,0,1,0.5",""
"","html-keyboard-response","87","82658","0.0-87.0","339ANSOTR6OOYC5V6Y36EG4GZ6RIKD","A2D28BVEFUUTMO","368IUKXGA5U7UZ9GQNUNOB4MGE4P6M","","null","<img src=""img/animal5.png"" style=""width:200px;border:14px solid red;"">","null","","","","","",""
"","image-keyboard-response","88","83834","0.0-88.0","339ANSOTR6OOYC5V6Y36EG4GZ6RIKD","A2D28BVEFUUTMO","368IUKXGA5U7UZ9GQNUNOB4MGE4P6M","","1173","img/animal1.png","76","1176","3","1","1","0.5,0,1,1,0.5,0,0,1,0.5",""
"","html-keyboard-response","89","84139","0.0-89.0","339ANSOTR6OOYC5V6Y36EG4GZ6RIKD","A2D28BVEFUUTMO","368IUKXGA5U7UZ9GQNUNOB4MGE4P6M","","null","<img src=""img/animal1.png"" style=""width:200px; border:14px solid green;"">","null","","","","","",""
"","image-keyboard-response","90","84523","0.0-90.0","339ANSOTR6OOYC5V6Y36EG4GZ6RIKD","A2D28BVEFUUTMO","368IUKXGA5U7UZ9GQNUNOB4MGE4P6M","","377","img/animal5.png","76","383","3","0","3","0.5,0,1,1,0.5,0,0,1,0.5",""
"","html-keyboard-response","91","84827","0.0-91.0","339ANSOTR6OOYC5V6Y36EG4GZ6RIKD","A2D28BVEFUUTMO","368IUKXGA5U7UZ9GQNUNOB4MGE4P6M","","null","<img src=""img/animal5.png"" style=""width:200px;border:14px solid red;"">","null","","","","","",""
"","image-keyboard-response","92","85721","0.0-92.0","339ANSOTR6OOYC5V6Y36EG4GZ6RIKD","A2D28BVEFUUTMO","368IUKXGA5U7UZ9GQNUNOB4MGE4P6M","","887","img/animal1.png","75","893","2","0","1","0.5,0,1,1,0.5,0,0,1,0.5",""
"","html-keyboard-response","93","86026","0.0-93.0","339ANSOTR6OOYC5V6Y36EG4GZ6RIKD","A2D28BVEFUUTMO","368IUKXGA5U7UZ9GQNUNOB4MGE4P6M","","null","<img src=""img/animal1.png"" style=""width:200px;border:14px solid red;"">","null","","","","","",""
"","image-keyboard-response","94","86560","0.0-94.0","339ANSOTR6OOYC5V6Y36EG4GZ6RIKD","A2D28BVEFUUTMO","368IUKXGA5U7UZ9GQNUNOB4MGE4P6M","","529","img/animal1.png","75","533","2","0","1","0.5,0,1,1,0.5,0,0,1,0.5",""
"","html-keyboard-response","95","86865","0.0-95.0","339ANSOTR6OOYC5V6Y36EG4GZ6RIKD","A2D28BVEFUUTMO","368IUKXGA5U7UZ9GQNUNOB4MGE4P6M","","null","<img src=""img/animal1.png"" style=""width:200px;border:14px solid red;"">","null","","","","","",""
"","image-keyboard-response","96","87384","0.0-96.0","339ANSOTR6OOYC5V6Y36EG4GZ6RIKD","A2D28BVEFUUTMO","368IUKXGA5U7UZ9GQNUNOB4MGE4P6M","","511","img/animal1.png","75","518","2","0","1","0.5,0,1,1,0.5,0,0,1,0.5",""
"","html-keyboard-response","97","87689","0.0-97.0","339ANSOTR6OOYC5V6Y36EG4GZ6RIKD","A2D28BVEFUUTMO","368IUKXGA5U7UZ9GQNUNOB4MGE4P6M","","null","<img src=""img/animal1.png"" style=""width:200px;border:14px solid red;"">","null","","","","","",""
"","image-keyboard-response","98","88629","0.0-98.0","339ANSOTR6OOYC5V6Y36EG4GZ6RIKD","A2D28BVEFUUTMO","368IUKXGA5U7UZ9GQNUNOB4MGE4P6M","","933","img/animal5.png","74","938","1","0","3","0.5,0,1,1,0.5,0,0,1,0.5",""
"","html-keyboard-response","99","88934","0.0-99.0","339ANSOTR6OOYC5V6Y36EG4GZ6RIKD","A2D28BVEFUUTMO","368IUKXGA5U7UZ9GQNUNOB4MGE4P6M","","null","<img src=""img/animal5.png"" style=""width:200px;border:14px solid red;"">","null","","","","","",""
"","image-keyboard-response","100","89420","0.0-100.0","339ANSOTR6OOYC5V6Y36EG4GZ6RIKD","A2D28BVEFUUTMO","368IUKXGA5U7UZ9GQNUNOB4MGE4P6M","","479","img/animal5.png","74","485","1","0","3","0.5,0,1,1,0.5,0,0,1,0.5",""
"","html-keyboard-response","101","89726","0.0-101.0","339ANSOTR6OOYC5V6Y36EG4GZ6RIKD","A2D28BVEFUUTMO","368IUKXGA5U7UZ9GQNUNOB4MGE4P6M","","null","<img src=""img/animal5.png"" style=""width:200px;border:14px solid red;"">","null","","","","","",""
"","image-keyboard-response","102","90678","0.0-102.0","339ANSOTR6OOYC5V6Y36EG4GZ6RIKD","A2D28BVEFUUTMO","368IUKXGA5U7UZ9GQNUNOB4MGE4P6M","","946","img/animal6.png","76","950","3","0","2","0.5,0,1,1,0.5,0,0,1,0.5",""
"","html-keyboard-response","103","90984","0.0-103.0","339ANSOTR6OOYC5V6Y36EG4GZ6RIKD","A2D28BVEFUUTMO","368IUKXGA5U7UZ9GQNUNOB4MGE4P6M","","null","<img src=""img/animal6.png"" style=""width:200px;border:14px solid red;"">","null","","","","","",""
"","image-keyboard-response","104","91411","0.0-104.0","339ANSOTR6OOYC5V6Y36EG4GZ6RIKD","A2D28BVEFUUTMO","368IUKXGA5U7UZ9GQNUNOB4MGE4P6M","","422","img/animal6.png","76","426","3","0","2","0.5,0,1,1,0.5,0,0,1,0.5",""
"","html-keyboard-response","105","91715","0.0-105.0","339ANSOTR6OOYC5V6Y36EG4GZ6RIKD","A2D28BVEFUUTMO","368IUKXGA5U7UZ9GQNUNOB4MGE4P6M","","null","<img src=""img/animal6.png"" style=""width:200px;border:14px solid red;"">","null","","","","","",""
"","image-keyboard-response","106","92236","0.0-106.0","339ANSOTR6OOYC5V6Y36EG4GZ6RIKD","A2D28BVEFUUTMO","368IUKXGA5U7UZ9GQNUNOB4MGE4P6M","","514","img/animal6.png","76","519","3","0","2","0.5,0,1,1,0.5,0,0,1,0.5",""
"","html-keyboard-response","107","92542","0.0-107.0","339ANSOTR6OOYC5V6Y36EG4GZ6RIKD","A2D28BVEFUUTMO","368IUKXGA5U7UZ9GQNUNOB4MGE4P6M","","null","<img src=""img/animal6.png"" style=""width:200px;border:14px solid red;"">","null","","","","","",""
"","image-keyboard-response","108","92924","0.0-108.0","339ANSOTR6OOYC5V6Y36EG4GZ6RIKD","A2D28BVEFUUTMO","368IUKXGA5U7UZ9GQNUNOB4MGE4P6M","","378","img/animal5.png","76","382","3","1","3","0.5,0,1,1,0.5,0,0,1,0.5",""
"","html-keyboard-response","109","93230","0.0-109.0","339ANSOTR6OOYC5V6Y36EG4GZ6RIKD","A2D28BVEFUUTMO","368IUKXGA5U7UZ9GQNUNOB4MGE4P6M","","null","<img src=""img/animal5.png"" style=""width:200px; border:14px solid green;"">","null","","","","","",""
"","image-keyboard-response","110","94182","0.0-110.0","339ANSOTR6OOYC5V6Y36EG4GZ6RIKD","A2D28BVEFUUTMO","368IUKXGA5U7UZ9GQNUNOB4MGE4P6M","","949","img/animal5.png","76","952","3","1","3","0.5,0,1,1,0.5,0,0,1,0.5",""
"","html-keyboard-response","111","94489","0.0-111.0","339ANSOTR6OOYC5V6Y36EG4GZ6RIKD","A2D28BVEFUUTMO","368IUKXGA5U7UZ9GQNUNOB4MGE4P6M","","null","<img src=""img/animal5.png"" style=""width:200px; border:14px solid green;"">","null","","","","","",""
"","image-keyboard-response","112","95845","0.0-112.0","339ANSOTR6OOYC5V6Y36EG4GZ6RIKD","A2D28BVEFUUTMO","368IUKXGA5U7UZ9GQNUNOB4MGE4P6M","","1351","img/animal6.png","76","1356","3","0","2","0.5,0,1,1,0.5,0,0,1,0.5",""
"","html-keyboard-response","113","96150","0.0-113.0","339ANSOTR6OOYC5V6Y36EG4GZ6RIKD","A2D28BVEFUUTMO","368IUKXGA5U7UZ9GQNUNOB4MGE4P6M","","null","<img src=""img/animal6.png"" style=""width:200px;border:14px solid red;"">","null","","","","","",""
"","image-keyboard-response","114","97172","0.0-114.0","339ANSOTR6OOYC5V6Y36EG4GZ6RIKD","A2D28BVEFUUTMO","368IUKXGA5U7UZ9GQNUNOB4MGE4P6M","","1013","img/animal6.png","76","1022","3","0","2","0.5,0,1,1,0.5,0,0,1,0.5",""
"","html-keyboard-response","115","97479","0.0-115.0","339ANSOTR6OOYC5V6Y36EG4GZ6RIKD","A2D28BVEFUUTMO","368IUKXGA5U7UZ9GQNUNOB4MGE4P6M","","null","<img src=""img/animal6.png"" style=""width:200px;border:14px solid red;"">","null","","","","","",""
"","image-keyboard-response","116","98616","0.0-116.0","339ANSOTR6OOYC5V6Y36EG4GZ6RIKD","A2D28BVEFUUTMO","368IUKXGA5U7UZ9GQNUNOB4MGE4P6M","","1132","img/animal1.png","75","1137","2","0","1","0.5,0,1,1,0.5,0,0,1,0.5",""
"","html-keyboard-response","117","98920","0.0-117.0","339ANSOTR6OOYC5V6Y36EG4GZ6RIKD","A2D28BVEFUUTMO","368IUKXGA5U7UZ9GQNUNOB4MGE4P6M","","null","<img src=""img/animal1.png"" style=""width:200px;border:14px solid red;"">","null","","","","","",""
"","image-keyboard-response","118","99470","0.0-118.0","339ANSOTR6OOYC5V6Y36EG4GZ6RIKD","A2D28BVEFUUTMO","368IUKXGA5U7UZ9GQNUNOB4MGE4P6M","","547","img/animal1.png","75","549","2","0","1","0.5,0,1,1,0.5,0,0,1,0.5",""
"","html-keyboard-response","119","99774","0.0-119.0","339ANSOTR6OOYC5V6Y36EG4GZ6RIKD","A2D28BVEFUUTMO","368IUKXGA5U7UZ9GQNUNOB4MGE4P6M","","null","<img src=""img/animal1.png"" style=""width:200px;border:14px solid red;"">","null","","","","","",""
"","image-keyboard-response","120","100322","0.0-120.0","339ANSOTR6OOYC5V6Y36EG4GZ6RIKD","A2D28BVEFUUTMO","368IUKXGA5U7UZ9GQNUNOB4MGE4P6M","","544","img/animal1.png","75","547","2","0","1","0.5,0,1,1,0.5,0,0,1,0.5",""
"","html-keyboard-response","121","100627","0.0-121.0","339ANSOTR6OOYC5V6Y36EG4GZ6RIKD","A2D28BVEFUUTMO","368IUKXGA5U7UZ9GQNUNOB4MGE4P6M","","null","<img src=""img/animal1.png"" style=""width:200px;border:14px solid red;"">","null","","","","","",""
"","image-keyboard-response","122","101642","0.0-122.0","339ANSOTR6OOYC5V6Y36EG4GZ6RIKD","A2D28BVEFUUTMO","368IUKXGA5U7UZ9GQNUNOB4MGE4P6M","","1009","img/animal5.png","74","1014","1","0","3","0.5,0,1,1,0.5,0,0,1,0.5",""
"","html-keyboard-response","123","101946","0.0-123.0","339ANSOTR6OOYC5V6Y36EG4GZ6RIKD","A2D28BVEFUUTMO","368IUKXGA5U7UZ9GQNUNOB4MGE4P6M","","null","<img src=""img/animal5.png"" style=""width:200px;border:14px solid red;"">","null","","","","","",""
"","image-keyboard-response","124","102721","0.0-124.0","339ANSOTR6OOYC5V6Y36EG4GZ6RIKD","A2D28BVEFUUTMO","368IUKXGA5U7UZ9GQNUNOB4MGE4P6M","","770","img/animal1.png","74","774","1","1","1","0.5,0,1,1,0.5,0,0,1,0.5",""
"","html-keyboard-response","125","103025","0.0-125.0","339ANSOTR6OOYC5V6Y36EG4GZ6RIKD","A2D28BVEFUUTMO","368IUKXGA5U7UZ9GQNUNOB4MGE4P6M","","null","<img src=""img/animal1.png"" style=""width:200px; border:14px solid green;"">","null","","","","","",""
"","image-keyboard-response","126","103797","0.0-126.0","339ANSOTR6OOYC5V6Y36EG4GZ6RIKD","A2D28BVEFUUTMO","368IUKXGA5U7UZ9GQNUNOB4MGE4P6M","","765","img/animal5.png","75","771","2","1","3","0.5,0,1,1,0.5,0,0,1,0.5",""
"","html-keyboard-response","127","104101","0.0-127.0","339ANSOTR6OOYC5V6Y36EG4GZ6RIKD","A2D28BVEFUUTMO","368IUKXGA5U7UZ9GQNUNOB4MGE4P6M","","null","<img src=""img/animal5.png"" style=""width:200px; border:14px solid green;"">","null","","","","","",""
"","image-keyboard-response","128","104967","0.0-128.0","339ANSOTR6OOYC5V6Y36EG4GZ6RIKD","A2D28BVEFUUTMO","368IUKXGA5U7UZ9GQNUNOB4MGE4P6M","","860","img/animal1.png","74","864","1","0","1","0.5,0,1,1,0.5,0,0,1,0.5",""
"","html-keyboard-response","129","105271","0.0-129.0","339ANSOTR6OOYC5V6Y36EG4GZ6RIKD","A2D28BVEFUUTMO","368IUKXGA5U7UZ9GQNUNOB4MGE4P6M","","null","<img src=""img/animal1.png"" style=""width:200px;border:14px solid red;"">","null","","","","","",""
"","image-keyboard-response","130","105894","0.0-130.0","339ANSOTR6OOYC5V6Y36EG4GZ6RIKD","A2D28BVEFUUTMO","368IUKXGA5U7UZ9GQNUNOB4MGE4P6M","","618","img/animal1.png","75","623","2","0","1","0.5,0,1,1,0.5,0,0,1,0.5",""
"","html-keyboard-response","131","106199","0.0-131.0","339ANSOTR6OOYC5V6Y36EG4GZ6RIKD","A2D28BVEFUUTMO","368IUKXGA5U7UZ9GQNUNOB4MGE4P6M","","null","<img src=""img/animal1.png"" style=""width:200px;border:14px solid red;"">","null","","","","","",""
"","image-keyboard-response","132","106613","0.0-132.0","339ANSOTR6OOYC5V6Y36EG4GZ6RIKD","A2D28BVEFUUTMO","368IUKXGA5U7UZ9GQNUNOB4MGE4P6M","","408","img/animal1.png","75","412","2","0","1","0.5,0,1,1,0.5,0,0,1,0.5",""
"","html-keyboard-response","133","106918","0.0-133.0","339ANSOTR6OOYC5V6Y36EG4GZ6RIKD","A2D28BVEFUUTMO","368IUKXGA5U7UZ9GQNUNOB4MGE4P6M","","null","<img src=""img/animal1.png"" style=""width:200px;border:14px solid red;"">","null","","","","","",""
"","image-keyboard-response","134","107302","0.0-134.0","339ANSOTR6OOYC5V6Y36EG4GZ6RIKD","A2D28BVEFUUTMO","368IUKXGA5U7UZ9GQNUNOB4MGE4P6M","","378","img/animal5.png","75","382","2","1","3","0.5,0,1,1,0.5,0,0,1,0.5",""
"","html-keyboard-response","135","107606","0.0-135.0","339ANSOTR6OOYC5V6Y36EG4GZ6RIKD","A2D28BVEFUUTMO","368IUKXGA5U7UZ9GQNUNOB4MGE4P6M","","null","<img src=""img/animal5.png"" style=""width:200px; border:14px solid green;"">","null","","","","","",""
"","image-keyboard-response","136","108155","0.0-136.0","339ANSOTR6OOYC5V6Y36EG4GZ6RIKD","A2D28BVEFUUTMO","368IUKXGA5U7UZ9GQNUNOB4MGE4P6M","","544","img/animal5.png","75","548","2","1","3","0.5,0,1,1,0.5,0,0,1,0.5",""
"","html-keyboard-response","137","108460","0.0-137.0","339ANSOTR6OOYC5V6Y36EG4GZ6RIKD","A2D28BVEFUUTMO","368IUKXGA5U7UZ9GQNUNOB4MGE4P6M","","null","<img src=""img/animal5.png"" style=""width:200px; border:14px solid green;"">","null","","","","","",""
"","image-keyboard-response","138","109579","0.0-138.0","339ANSOTR6OOYC5V6Y36EG4GZ6RIKD","A2D28BVEFUUTMO","368IUKXGA5U7UZ9GQNUNOB4MGE4P6M","","1114","img/animal1.png","74","1118","1","1","1","0.5,0,1,1,0.5,0,0,1,0.5",""
"","html-keyboard-response","139","109883","0.0-139.0","339ANSOTR6OOYC5V6Y36EG4GZ6RIKD","A2D28BVEFUUTMO","368IUKXGA5U7UZ9GQNUNOB4MGE4P6M","","null","<img src=""img/animal1.png"" style=""width:200px; border:14px solid green;"">","null","","","","","",""
"","image-keyboard-response","140","110328","0.0-140.0","339ANSOTR6OOYC5V6Y36EG4GZ6RIKD","A2D28BVEFUUTMO","368IUKXGA5U7UZ9GQNUNOB4MGE4P6M","","439","img/animal1.png","74","445","1","1","1","0.5,0,1,1,0.5,0,0,1,0.5",""
"","html-keyboard-response","141","110635","0.0-141.0","339ANSOTR6OOYC5V6Y36EG4GZ6RIKD","A2D28BVEFUUTMO","368IUKXGA5U7UZ9GQNUNOB4MGE4P6M","","null","<img src=""img/animal1.png"" style=""width:200px; border:14px solid green;"">","null","","","","","",""
"","image-keyboard-response","142","111540","0.0-142.0","339ANSOTR6OOYC5V6Y36EG4GZ6RIKD","A2D28BVEFUUTMO","368IUKXGA5U7UZ9GQNUNOB4MGE4P6M","","899","img/animal6.png","76","904","3","0","2","0.5,0,1,1,0.5,0,0,1,0.5",""
"","html-keyboard-response","143","111845","0.0-143.0","339ANSOTR6OOYC5V6Y36EG4GZ6RIKD","A2D28BVEFUUTMO","368IUKXGA5U7UZ9GQNUNOB4MGE4P6M","","null","<img src=""img/animal6.png"" style=""width:200px;border:14px solid red;"">","null","","","","","",""
"","image-keyboard-response","144","112244","0.0-144.0","339ANSOTR6OOYC5V6Y36EG4GZ6RIKD","A2D28BVEFUUTMO","368IUKXGA5U7UZ9GQNUNOB4MGE4P6M","","394","img/animal1.png","76","399","3","1","1","0.5,0,1,1,0.5,0,0,1,0.5",""
"","html-keyboard-response","145","112548","0.0-145.0","339ANSOTR6OOYC5V6Y36EG4GZ6RIKD","A2D28BVEFUUTMO","368IUKXGA5U7UZ9GQNUNOB4MGE4P6M","","null","<img src=""img/animal1.png"" style=""width:200px; border:14px solid green;"">","null","","","","","",""
"","image-keyboard-response","146","113172","0.0-146.0","339ANSOTR6OOYC5V6Y36EG4GZ6RIKD","A2D28BVEFUUTMO","368IUKXGA5U7UZ9GQNUNOB4MGE4P6M","","617","img/animal1.png","75","623","2","0","1","0.5,0,1,1,0.5,0,0,1,0.5",""
"","html-keyboard-response","147","113477","0.0-147.0","339ANSOTR6OOYC5V6Y36EG4GZ6RIKD","A2D28BVEFUUTMO","368IUKXGA5U7UZ9GQNUNOB4MGE4P6M","","null","<img src=""img/animal1.png"" style=""width:200px;border:14px solid red;"">","null","","","","","",""
"","image-keyboard-response","148","114146","0.0-148.0","339ANSOTR6OOYC5V6Y36EG4GZ6RIKD","A2D28BVEFUUTMO","368IUKXGA5U7UZ9GQNUNOB4MGE4P6M","","665","img/animal1.png","75","670","2","0","1","0.5,0,1,1,0.5,0,0,1,0.5",""
"","html-keyboard-response","149","114451","0.0-149.0","339ANSOTR6OOYC5V6Y36EG4GZ6RIKD","A2D28BVEFUUTMO","368IUKXGA5U7UZ9GQNUNOB4MGE4P6M","","null","<img src=""img/animal1.png"" style=""width:200px;border:14px solid red;"">","null","","","","","",""
"","image-keyboard-response","150","115126","0.0-150.0","339ANSOTR6OOYC5V6Y36EG4GZ6RIKD","A2D28BVEFUUTMO","368IUKXGA5U7UZ9GQNUNOB4MGE4P6M","","667","img/animal6.png","74","674","1","1","2","0.5,0,1,1,0.5,0,0,1,0.5",""
"","html-keyboard-response","151","115434","0.0-151.0","339ANSOTR6OOYC5V6Y36EG4GZ6RIKD","A2D28BVEFUUTMO","368IUKXGA5U7UZ9GQNUNOB4MGE4P6M","","null","<img src=""img/animal6.png"" style=""width:200px; border:14px solid green;"">","null","","","","","",""
"","image-keyboard-response","152","115958","0.0-152.0","339ANSOTR6OOYC5V6Y36EG4GZ6RIKD","A2D28BVEFUUTMO","368IUKXGA5U7UZ9GQNUNOB4MGE4P6M","","518","img/animal6.png","75","522","2","0","2","0.5,0,1,1,0.5,0,0,1,0.5",""
"","html-keyboard-response","153","116263","0.0-153.0","339ANSOTR6OOYC5V6Y36EG4GZ6RIKD","A2D28BVEFUUTMO","368IUKXGA5U7UZ9GQNUNOB4MGE4P6M","","null","<img src=""img/animal6.png"" style=""width:200px;border:14px solid red;"">","null","","","","","",""
"","image-keyboard-response","154","116707","0.0-154.0","339ANSOTR6OOYC5V6Y36EG4GZ6RIKD","A2D28BVEFUUTMO","368IUKXGA5U7UZ9GQNUNOB4MGE4P6M","","439","img/animal6.png","75","443","2","1","2","0.5,0,1,1,0.5,0,0,1,0.5",""
"","html-keyboard-response","155","117011","0.0-155.0","339ANSOTR6OOYC5V6Y36EG4GZ6RIKD","A2D28BVEFUUTMO","368IUKXGA5U7UZ9GQNUNOB4MGE4P6M","","null","<img src=""img/animal6.png"" style=""width:200px; border:14px solid green;"">","null","","","","","",""
"","image-keyboard-response","156","117666","0.0-156.0","339ANSOTR6OOYC5V6Y36EG4GZ6RIKD","A2D28BVEFUUTMO","368IUKXGA5U7UZ9GQNUNOB4MGE4P6M","","650","img/animal6.png","75","654","2","0","2","0.5,0,1,1,0.5,0,0,1,0.5",""
"","html-keyboard-response","157","117971","0.0-157.0","339ANSOTR6OOYC5V6Y36EG4GZ6RIKD","A2D28BVEFUUTMO","368IUKXGA5U7UZ9GQNUNOB4MGE4P6M","","null","<img src=""img/animal6.png"" style=""width:200px;border:14px solid red;"">","null","","","","","",""
"","image-keyboard-response","158","118369","0.0-158.0","339ANSOTR6OOYC5V6Y36EG4GZ6RIKD","A2D28BVEFUUTMO","368IUKXGA5U7UZ9GQNUNOB4MGE4P6M","","393","img/animal6.png","76","397","3","0","2","0.5,0,1,1,0.5,0,0,1,0.5",""
"","html-keyboard-response","159","118674","0.0-159.0","339ANSOTR6OOYC5V6Y36EG4GZ6RIKD","A2D28BVEFUUTMO","368IUKXGA5U7UZ9GQNUNOB4MGE4P6M","","null","<img src=""img/animal6.png"" style=""width:200px;border:14px solid red;"">","null","","","","","",""
"","image-keyboard-response","160","119059","0.0-160.0","339ANSOTR6OOYC5V6Y36EG4GZ6RIKD","A2D28BVEFUUTMO","368IUKXGA5U7UZ9GQNUNOB4MGE4P6M","","382","img/animal5.png","76","385","3","0","3","0.5,0,1,1,0.5,0,0,1,0.5",""
"","html-keyboard-response","161","119364","0.0-161.0","339ANSOTR6OOYC5V6Y36EG4GZ6RIKD","A2D28BVEFUUTMO","368IUKXGA5U7UZ9GQNUNOB4MGE4P6M","","null","<img src=""img/animal5.png"" style=""width:200px;border:14px solid red;"">","null","","","","","",""
"","image-keyboard-response","162","119739","0.0-162.0","339ANSOTR6OOYC5V6Y36EG4GZ6RIKD","A2D28BVEFUUTMO","368IUKXGA5U7UZ9GQNUNOB4MGE4P6M","","371","img/animal5.png","75","375","2","1","3","0.5,0,1,1,0.5,0,0,1,0.5",""
"","html-keyboard-response","163","120043","0.0-163.0","339ANSOTR6OOYC5V6Y36EG4GZ6RIKD","A2D28BVEFUUTMO","368IUKXGA5U7UZ9GQNUNOB4MGE4P6M","","null","<img src=""img/animal5.png"" style=""width:200px; border:14px solid green;"">","null","","","","","",""
"","image-keyboard-response","164","121188","0.0-164.0","339ANSOTR6OOYC5V6Y36EG4GZ6RIKD","A2D28BVEFUUTMO","368IUKXGA5U7UZ9GQNUNOB4MGE4P6M","","1139","img/animal6.png","74","1144","1","1","2","0.5,0,1,1,0.5,0,0,1,0.5",""
"","html-keyboard-response","165","121493","0.0-165.0","339ANSOTR6OOYC5V6Y36EG4GZ6RIKD","A2D28BVEFUUTMO","368IUKXGA5U7UZ9GQNUNOB4MGE4P6M","","null","<img src=""img/animal6.png"" style=""width:200px; border:14px solid green;"">","null","","","","","",""
"","image-keyboard-response","166","122206","0.0-166.0","339ANSOTR6OOYC5V6Y36EG4GZ6RIKD","A2D28BVEFUUTMO","368IUKXGA5U7UZ9GQNUNOB4MGE4P6M","","708","img/animal5.png","75","713","2","1","3","0.5,0,1,1,0.5,0,0,1,0.5",""
"","html-keyboard-response","167","122510","0.0-167.0","339ANSOTR6OOYC5V6Y36EG4GZ6RIKD","A2D28BVEFUUTMO","368IUKXGA5U7UZ9GQNUNOB4MGE4P6M","","null","<img src=""img/animal5.png"" style=""width:200px; border:14px solid green;"">","null","","","","","",""
"","image-keyboard-response","168","123194","0.0-168.0","339ANSOTR6OOYC5V6Y36EG4GZ6RIKD","A2D28BVEFUUTMO","368IUKXGA5U7UZ9GQNUNOB4MGE4P6M","","678","img/animal6.png","74","682","1","1","2","0.5,0,1,1,0.5,0,0,1,0.5",""
"","html-keyboard-response","169","123499","0.0-169.0","339ANSOTR6OOYC5V6Y36EG4GZ6RIKD","A2D28BVEFUUTMO","368IUKXGA5U7UZ9GQNUNOB4MGE4P6M","","null","<img src=""img/animal6.png"" style=""width:200px; border:14px solid green;"">","null","","","","","",""
"","image-keyboard-response","170","124076","0.0-170.0","339ANSOTR6OOYC5V6Y36EG4GZ6RIKD","A2D28BVEFUUTMO","368IUKXGA5U7UZ9GQNUNOB4MGE4P6M","","574","img/animal6.png","75","578","2","0","2","0.5,0,1,1,0.5,0,0,1,0.5",""
"","html-keyboard-response","171","124383","0.0-171.0","339ANSOTR6OOYC5V6Y36EG4GZ6RIKD","A2D28BVEFUUTMO","368IUKXGA5U7UZ9GQNUNOB4MGE4P6M","","null","<img src=""img/animal6.png"" style=""width:200px;border:14px solid red;"">","null","","","","","",""
"","image-keyboard-response","172","130204","0.0-172.0","339ANSOTR6OOYC5V6Y36EG4GZ6RIKD","A2D28BVEFUUTMO","368IUKXGA5U7UZ9GQNUNOB4MGE4P6M","","5817","img/animal6.png","76","5820","3","0","2","0.5,0,1,1,0.5,0,0,1,0.5",""
"","html-keyboard-response","173","130508","0.0-173.0","339ANSOTR6OOYC5V6Y36EG4GZ6RIKD","A2D28BVEFUUTMO","368IUKXGA5U7UZ9GQNUNOB4MGE4P6M","","null","<img src=""img/animal6.png"" style=""width:200px;border:14px solid red;"">","null","","","","","",""
"","image-keyboard-response","174","130996","0.0-174.0","339ANSOTR6OOYC5V6Y36EG4GZ6RIKD","A2D28BVEFUUTMO","368IUKXGA5U7UZ9GQNUNOB4MGE4P6M","","486","img/animal6.png","76","489","3","0","2","0.5,0,1,1,0.5,0,0,1,0.5",""
"","html-keyboard-response","175","131301","0.0-175.0","339ANSOTR6OOYC5V6Y36EG4GZ6RIKD","A2D28BVEFUUTMO","368IUKXGA5U7UZ9GQNUNOB4MGE4P6M","","null","<img src=""img/animal6.png"" style=""width:200px;border:14px solid red;"">","null","","","","","",""
"","image-keyboard-response","176","131690","0.0-176.0","339ANSOTR6OOYC5V6Y36EG4GZ6RIKD","A2D28BVEFUUTMO","368IUKXGA5U7UZ9GQNUNOB4MGE4P6M","","381","img/animal6.png","76","387","3","0","2","0.5,0,1,1,0.5,0,0,1,0.5",""
"","html-keyboard-response","177","132000","0.0-177.0","339ANSOTR6OOYC5V6Y36EG4GZ6RIKD","A2D28BVEFUUTMO","368IUKXGA5U7UZ9GQNUNOB4MGE4P6M","","null","<img src=""img/animal6.png"" style=""width:200px;border:14px solid red;"">","null","","","","","",""
"","image-keyboard-response","178","132404","0.0-178.0","339ANSOTR6OOYC5V6Y36EG4GZ6RIKD","A2D28BVEFUUTMO","368IUKXGA5U7UZ9GQNUNOB4MGE4P6M","","400","img/animal5.png","76","404","3","1","3","0.5,0,1,1,0.5,0,0,1,0.5",""
"","html-keyboard-response","179","132710","0.0-179.0","339ANSOTR6OOYC5V6Y36EG4GZ6RIKD","A2D28BVEFUUTMO","368IUKXGA5U7UZ9GQNUNOB4MGE4P6M","","null","<img src=""img/animal5.png"" style=""width:200px; border:14px solid green;"">","null","","","","","",""
"","image-keyboard-response","180","133020","0.0-180.0","339ANSOTR6OOYC5V6Y36EG4GZ6RIKD","A2D28BVEFUUTMO","368IUKXGA5U7UZ9GQNUNOB4MGE4P6M","","303","img/animal5.png","74","307","1","0","3","0.5,0,1,1,0.5,0,0,1,0.5",""
"","html-keyboard-response","181","133326","0.0-181.0","339ANSOTR6OOYC5V6Y36EG4GZ6RIKD","A2D28BVEFUUTMO","368IUKXGA5U7UZ9GQNUNOB4MGE4P6M","","null","<img src=""img/animal5.png"" style=""width:200px;border:14px solid red;"">","null","","","","","",""
"","html-keyboard-response","182","135583","0.0-182.0","339ANSOTR6OOYC5V6Y36EG4GZ6RIKD","A2D28BVEFUUTMO","368IUKXGA5U7UZ9GQNUNOB4MGE4P6M","","","","","","","","","",""
"","image-keyboard-response","183","137527","0.0-183.0","339ANSOTR6OOYC5V6Y36EG4GZ6RIKD","A2D28BVEFUUTMO","368IUKXGA5U7UZ9GQNUNOB4MGE4P6M","","1937","img/animal3.png","74","1944","1","1","3","0.7,0,0.8,0.7,0.8,0,0.7,0.8,0",""
"","html-keyboard-response","184","137833","0.0-184.0","339ANSOTR6OOYC5V6Y36EG4GZ6RIKD","A2D28BVEFUUTMO","368IUKXGA5U7UZ9GQNUNOB4MGE4P6M","","null","<img src=""img/animal3.png"" style=""width:200px; border:14px solid green;"">","null","","","","","",""
"","image-keyboard-response","185","138718","0.0-185.0","339ANSOTR6OOYC5V6Y36EG4GZ6RIKD","A2D28BVEFUUTMO","368IUKXGA5U7UZ9GQNUNOB4MGE4P6M","","879","img/animal4.png","75","885","2","1","2","0.7,0,0.8,0.7,0.8,0,0.7,0.8,0",""
"","html-keyboard-response","186","139024","0.0-186.0","339ANSOTR6OOYC5V6Y36EG4GZ6RIKD","A2D28BVEFUUTMO","368IUKXGA5U7UZ9GQNUNOB4MGE4P6M","","null","<img src=""img/animal4.png"" style=""width:200px; border:14px solid green;"">","null","","","","","",""
"","image-keyboard-response","187","140331","0.0-187.0","339ANSOTR6OOYC5V6Y36EG4GZ6RIKD","A2D28BVEFUUTMO","368IUKXGA5U7UZ9GQNUNOB4MGE4P6M","","1300","img/animal3.png","74","1306","1","1","3","0.7,0,0.8,0.7,0.8,0,0.7,0.8,0",""
"","html-keyboard-response","188","140636","0.0-188.0","339ANSOTR6OOYC5V6Y36EG4GZ6RIKD","A2D28BVEFUUTMO","368IUKXGA5U7UZ9GQNUNOB4MGE4P6M","","null","<img src=""img/animal3.png"" style=""width:200px; border:14px solid green;"">","null","","","","","",""
"","image-keyboard-response","189","141722","0.0-189.0","339ANSOTR6OOYC5V6Y36EG4GZ6RIKD","A2D28BVEFUUTMO","368IUKXGA5U7UZ9GQNUNOB4MGE4P6M","","1077","img/animal2.png","76","1083","3","1","1","0.7,0,0.8,0.7,0.8,0,0.7,0.8,0",""
"","html-keyboard-response","190","142027","0.0-190.0","339ANSOTR6OOYC5V6Y36EG4GZ6RIKD","A2D28BVEFUUTMO","368IUKXGA5U7UZ9GQNUNOB4MGE4P6M","","null","<img src=""img/animal2.png"" style=""width:200px; border:14px solid green;"">","null","","","","","",""
"","image-keyboard-response","191","142975","0.0-191.0","339ANSOTR6OOYC5V6Y36EG4GZ6RIKD","A2D28BVEFUUTMO","368IUKXGA5U7UZ9GQNUNOB4MGE4P6M","","941","img/animal4.png","75","949","2","0","2","0.7,0,0.8,0.7,0.8,0,0.7,0.8,0",""
"","html-keyboard-response","192","143286","0.0-192.0","339ANSOTR6OOYC5V6Y36EG4GZ6RIKD","A2D28BVEFUUTMO","368IUKXGA5U7UZ9GQNUNOB4MGE4P6M","","null","<img src=""img/animal4.png"" style=""width:200px;border:14px solid red;"">","null","","","","","",""
"","image-keyboard-response","193","144120","0.0-193.0","339ANSOTR6OOYC5V6Y36EG4GZ6RIKD","A2D28BVEFUUTMO","368IUKXGA5U7UZ9GQNUNOB4MGE4P6M","","827","img/animal2.png","74","832","1","1","1","0.7,0,0.8,0.7,0.8,0,0.7,0.8,0",""
"","html-keyboard-response","194","144426","0.0-194.0","339ANSOTR6OOYC5V6Y36EG4GZ6RIKD","A2D28BVEFUUTMO","368IUKXGA5U7UZ9GQNUNOB4MGE4P6M","","null","<img src=""img/animal2.png"" style=""width:200px; border:14px solid green;"">","null","","","","","",""
"","image-keyboard-response","195","145562","0.0-195.0","339ANSOTR6OOYC5V6Y36EG4GZ6RIKD","A2D28BVEFUUTMO","368IUKXGA5U7UZ9GQNUNOB4MGE4P6M","","1125","img/animal4.png","75","1132","2","1","2","0.7,0,0.8,0.7,0.8,0,0.7,0.8,0",""
"","html-keyboard-response","196","145870","0.0-196.0","339ANSOTR6OOYC5V6Y36EG4GZ6RIKD","A2D28BVEFUUTMO","368IUKXGA5U7UZ9GQNUNOB4MGE4P6M","","null","<img src=""img/animal4.png"" style=""width:200px; border:14px solid green;"">","null","","","","","",""
"","image-keyboard-response","197","146844","0.0-197.0","339ANSOTR6OOYC5V6Y36EG4GZ6RIKD","A2D28BVEFUUTMO","368IUKXGA5U7UZ9GQNUNOB4MGE4P6M","","966","img/animal3.png","75","972","2","0","3","0.7,0,0.8,0.7,0.8,0,0.7,0.8,0",""
"","html-keyboard-response","198","147149","0.0-198.0","339ANSOTR6OOYC5V6Y36EG4GZ6RIKD","A2D28BVEFUUTMO","368IUKXGA5U7UZ9GQNUNOB4MGE4P6M","","null","<img src=""img/animal3.png"" style=""width:200px;border:14px solid red;"">","null","","","","","",""
"","image-keyboard-response","199","148178","0.0-199.0","339ANSOTR6OOYC5V6Y36EG4GZ6RIKD","A2D28BVEFUUTMO","368IUKXGA5U7UZ9GQNUNOB4MGE4P6M","","1022","img/animal2.png","76","1028","3","0","1","0.7,0,0.8,0.7,0.8,0,0.7,0.8,0",""
"","html-keyboard-response","200","148483","0.0-200.0","339ANSOTR6OOYC5V6Y36EG4GZ6RIKD","A2D28BVEFUUTMO","368IUKXGA5U7UZ9GQNUNOB4MGE4P6M","","null","<img src=""img/animal2.png"" style=""width:200px;border:14px solid red;"">","null","","","","","",""
"","image-keyboard-response","201","149121","0.0-201.0","339ANSOTR6OOYC5V6Y36EG4GZ6RIKD","A2D28BVEFUUTMO","368IUKXGA5U7UZ9GQNUNOB4MGE4P6M","","633","img/animal3.png","75","638","2","1","3","0.7,0,0.8,0.7,0.8,0,0.7,0.8,0",""
"","html-keyboard-response","202","149426","0.0-202.0","339ANSOTR6OOYC5V6Y36EG4GZ6RIKD","A2D28BVEFUUTMO","368IUKXGA5U7UZ9GQNUNOB4MGE4P6M","","null","<img src=""img/animal3.png"" style=""width:200px; border:14px solid green;"">","null","","","","","",""
"","image-keyboard-response","203","149585","0.0-203.0","339ANSOTR6OOYC5V6Y36EG4GZ6RIKD","A2D28BVEFUUTMO","368IUKXGA5U7UZ9GQNUNOB4MGE4P6M","","155","img/animal2.png","74","160","1","1","1","0.7,0,0.8,0.7,0.8,0,0.7,0.8,0",""
"","html-keyboard-response","204","149891","0.0-204.0","339ANSOTR6OOYC5V6Y36EG4GZ6RIKD","A2D28BVEFUUTMO","368IUKXGA5U7UZ9GQNUNOB4MGE4P6M","","null","<img src=""img/animal2.png"" style=""width:200px; border:14px solid green;"">","null","","","","","",""
"","image-keyboard-response","205","150709","0.0-205.0","339ANSOTR6OOYC5V6Y36EG4GZ6RIKD","A2D28BVEFUUTMO","368IUKXGA5U7UZ9GQNUNOB4MGE4P6M","","813","img/animal3.png","74","817","1","1","3","0.7,0,0.8,0.7,0.8,0,0.7,0.8,0",""
"","html-keyboard-response","206","151014","0.0-206.0","339ANSOTR6OOYC5V6Y36EG4GZ6RIKD","A2D28BVEFUUTMO","368IUKXGA5U7UZ9GQNUNOB4MGE4P6M","","null","<img src=""img/animal3.png"" style=""width:200px; border:14px solid green;"">","null","","","","","",""
"","image-keyboard-response","207","151652","0.0-207.0","339ANSOTR6OOYC5V6Y36EG4GZ6RIKD","A2D28BVEFUUTMO","368IUKXGA5U7UZ9GQNUNOB4MGE4P6M","","631","img/animal3.png","75","636","2","0","3","0.7,0,0.8,0.7,0.8,0,0.7,0.8,0",""
"","html-keyboard-response","208","151957","0.0-208.0","339ANSOTR6OOYC5V6Y36EG4GZ6RIKD","A2D28BVEFUUTMO","368IUKXGA5U7UZ9GQNUNOB4MGE4P6M","","null","<img src=""img/animal3.png"" style=""width:200px;border:14px solid red;"">","null","","","","","",""
"","image-keyboard-response","209","153001","0.0-209.0","339ANSOTR6OOYC5V6Y36EG4GZ6RIKD","A2D28BVEFUUTMO","368IUKXGA5U7UZ9GQNUNOB4MGE4P6M","","1038","img/animal2.png","76","1043","3","1","1","0.7,0,0.8,0.7,0.8,0,0.7,0.8,0",""
"","html-keyboard-response","210","153306","0.0-210.0","339ANSOTR6OOYC5V6Y36EG4GZ6RIKD","A2D28BVEFUUTMO","368IUKXGA5U7UZ9GQNUNOB4MGE4P6M","","null","<img src=""img/animal2.png"" style=""width:200px; border:14px solid green;"">","null","","","","","",""
"","image-keyboard-response","211","154274","0.0-211.0","339ANSOTR6OOYC5V6Y36EG4GZ6RIKD","A2D28BVEFUUTMO","368IUKXGA5U7UZ9GQNUNOB4MGE4P6M","","962","img/animal4.png","75","966","2","1","2","0.7,0,0.8,0.7,0.8,0,0.7,0.8,0",""
"","html-keyboard-response","212","154580","0.0-212.0","339ANSOTR6OOYC5V6Y36EG4GZ6RIKD","A2D28BVEFUUTMO","368IUKXGA5U7UZ9GQNUNOB4MGE4P6M","","null","<img src=""img/animal4.png"" style=""width:200px; border:14px solid green;"">","null","","","","","",""
"","image-keyboard-response","213","155517","0.0-213.0","339ANSOTR6OOYC5V6Y36EG4GZ6RIKD","A2D28BVEFUUTMO","368IUKXGA5U7UZ9GQNUNOB4MGE4P6M","","931","img/animal2.png","76","937","3","0","1","0.7,0,0.8,0.7,0.8,0,0.7,0.8,0",""
"","html-keyboard-response","214","155822","0.0-214.0","339ANSOTR6OOYC5V6Y36EG4GZ6RIKD","A2D28BVEFUUTMO","368IUKXGA5U7UZ9GQNUNOB4MGE4P6M","","null","<img src=""img/animal2.png"" style=""width:200px;border:14px solid red;"">","null","","","","","",""
"","image-keyboard-response","215","156819","0.0-215.0","339ANSOTR6OOYC5V6Y36EG4GZ6RIKD","A2D28BVEFUUTMO","368IUKXGA5U7UZ9GQNUNOB4MGE4P6M","","992","img/animal3.png","74","996","1","1","3","0.7,0,0.8,0.7,0.8,0,0.7,0.8,0",""
"","html-keyboard-response","216","157127","0.0-216.0","339ANSOTR6OOYC5V6Y36EG4GZ6RIKD","A2D28BVEFUUTMO","368IUKXGA5U7UZ9GQNUNOB4MGE4P6M","","null","<img src=""img/animal3.png"" style=""width:200px; border:14px solid green;"">","null","","","","","",""
"","image-keyboard-response","217","157853","0.0-217.0","339ANSOTR6OOYC5V6Y36EG4GZ6RIKD","A2D28BVEFUUTMO","368IUKXGA5U7UZ9GQNUNOB4MGE4P6M","","720","img/animal2.png","74","725","1","0","1","0.7,0,0.8,0.7,0.8,0,0.7,0.8,0",""
"","html-keyboard-response","218","158158","0.0-218.0","339ANSOTR6OOYC5V6Y36EG4GZ6RIKD","A2D28BVEFUUTMO","368IUKXGA5U7UZ9GQNUNOB4MGE4P6M","","null","<img src=""img/animal2.png"" style=""width:200px;border:14px solid red;"">","null","","","","","",""
"","image-keyboard-response","219","159189","0.0-219.0","339ANSOTR6OOYC5V6Y36EG4GZ6RIKD","A2D28BVEFUUTMO","368IUKXGA5U7UZ9GQNUNOB4MGE4P6M","","1015","img/animal3.png","76","1021","3","0","3","0.7,0,0.8,0.7,0.8,0,0.7,0.8,0",""
"","html-keyboard-response","220","159494","0.0-220.0","339ANSOTR6OOYC5V6Y36EG4GZ6RIKD","A2D28BVEFUUTMO","368IUKXGA5U7UZ9GQNUNOB4MGE4P6M","","null","<img src=""img/animal3.png"" style=""width:200px;border:14px solid red;"">","null","","","","","",""
"","image-keyboard-response","221","159980","0.0-221.0","339ANSOTR6OOYC5V6Y36EG4GZ6RIKD","A2D28BVEFUUTMO","368IUKXGA5U7UZ9GQNUNOB4MGE4P6M","","481","img/animal3.png","76","486","3","0","3","0.7,0,0.8,0.7,0.8,0,0.7,0.8,0",""
"","html-keyboard-response","222","160286","0.0-222.0","339ANSOTR6OOYC5V6Y36EG4GZ6RIKD","A2D28BVEFUUTMO","368IUKXGA5U7UZ9GQNUNOB4MGE4P6M","","null","<img src=""img/animal3.png"" style=""width:200px;border:14px solid red;"">","null","","","","","",""
"","image-keyboard-response","223","160835","0.0-223.0","339ANSOTR6OOYC5V6Y36EG4GZ6RIKD","A2D28BVEFUUTMO","368IUKXGA5U7UZ9GQNUNOB4MGE4P6M","","546","img/animal3.png","76","549","3","0","3","0.7,0,0.8,0.7,0.8,0,0.7,0.8,0",""
"","html-keyboard-response","224","161139","0.0-224.0","339ANSOTR6OOYC5V6Y36EG4GZ6RIKD","A2D28BVEFUUTMO","368IUKXGA5U7UZ9GQNUNOB4MGE4P6M","","null","<img src=""img/animal3.png"" style=""width:200px;border:14px solid red;"">","null","","","","","",""
"","image-keyboard-response","225","161389","0.0-225.0","339ANSOTR6OOYC5V6Y36EG4GZ6RIKD","A2D28BVEFUUTMO","368IUKXGA5U7UZ9GQNUNOB4MGE4P6M","","246","img/animal4.png","74","249","1","1","2","0.7,0,0.8,0.7,0.8,0,0.7,0.8,0",""
"","html-keyboard-response","226","161694","0.0-226.0","339ANSOTR6OOYC5V6Y36EG4GZ6RIKD","A2D28BVEFUUTMO","368IUKXGA5U7UZ9GQNUNOB4MGE4P6M","","null","<img src=""img/animal4.png"" style=""width:200px; border:14px solid green;"">","null","","","","","",""
"","image-keyboard-response","227","162167","0.0-227.0","339ANSOTR6OOYC5V6Y36EG4GZ6RIKD","A2D28BVEFUUTMO","368IUKXGA5U7UZ9GQNUNOB4MGE4P6M","","467","img/animal4.png","75","472","2","0","2","0.7,0,0.8,0.7,0.8,0,0.7,0.8,0",""
"","html-keyboard-response","228","162472","0.0-228.0","339ANSOTR6OOYC5V6Y36EG4GZ6RIKD","A2D28BVEFUUTMO","368IUKXGA5U7UZ9GQNUNOB4MGE4P6M","","null","<img src=""img/animal4.png"" style=""width:200px;border:14px solid red;"">","null","","","","","",""
"","image-keyboard-response","229","163520","0.0-229.0","339ANSOTR6OOYC5V6Y36EG4GZ6RIKD","A2D28BVEFUUTMO","368IUKXGA5U7UZ9GQNUNOB4MGE4P6M","","1042","img/animal2.png","76","1048","3","1","1","0.7,0,0.8,0.7,0.8,0,0.7,0.8,0",""
"","html-keyboard-response","230","163827","0.0-230.0","339ANSOTR6OOYC5V6Y36EG4GZ6RIKD","A2D28BVEFUUTMO","368IUKXGA5U7UZ9GQNUNOB4MGE4P6M","","null","<img src=""img/animal2.png"" style=""width:200px; border:14px solid green;"">","null","","","","","",""
"","image-keyboard-response","231","165088","0.0-231.0","339ANSOTR6OOYC5V6Y36EG4GZ6RIKD","A2D28BVEFUUTMO","368IUKXGA5U7UZ9GQNUNOB4MGE4P6M","","1255","img/animal3.png","74","1260","1","1","3","0.7,0,0.8,0.7,0.8,0,0.7,0.8,0",""
"","html-keyboard-response","232","165392","0.0-232.0","339ANSOTR6OOYC5V6Y36EG4GZ6RIKD","A2D28BVEFUUTMO","368IUKXGA5U7UZ9GQNUNOB4MGE4P6M","","null","<img src=""img/animal3.png"" style=""width:200px; border:14px solid green;"">","null","","","","","",""
"","image-keyboard-response","233","166378","0.0-233.0","339ANSOTR6OOYC5V6Y36EG4GZ6RIKD","A2D28BVEFUUTMO","368IUKXGA5U7UZ9GQNUNOB4MGE4P6M","","979","img/animal2.png","75","985","2","0","1","0.7,0,0.8,0.7,0.8,0,0.7,0.8,0",""
"","html-keyboard-response","234","166686","0.0-234.0","339ANSOTR6OOYC5V6Y36EG4GZ6RIKD","A2D28BVEFUUTMO","368IUKXGA5U7UZ9GQNUNOB4MGE4P6M","","null","<img src=""img/animal2.png"" style=""width:200px;border:14px solid red;"">","null","","","","","",""
"","image-keyboard-response","235","167244","0.0-235.0","339ANSOTR6OOYC5V6Y36EG4GZ6RIKD","A2D28BVEFUUTMO","368IUKXGA5U7UZ9GQNUNOB4MGE4P6M","","553","img/animal2.png","76","558","3","1","1","0.7,0,0.8,0.7,0.8,0,0.7,0.8,0",""
"","html-keyboard-response","236","167548","0.0-236.0","339ANSOTR6OOYC5V6Y36EG4GZ6RIKD","A2D28BVEFUUTMO","368IUKXGA5U7UZ9GQNUNOB4MGE4P6M","","null","<img src=""img/animal2.png"" style=""width:200px; border:14px solid green;"">","null","","","","","",""
"","image-keyboard-response","237","168084","0.0-237.0","339ANSOTR6OOYC5V6Y36EG4GZ6RIKD","A2D28BVEFUUTMO","368IUKXGA5U7UZ9GQNUNOB4MGE4P6M","","529","img/animal2.png","76","534","3","1","1","0.7,0,0.8,0.7,0.8,0,0.7,0.8,0",""
"","html-keyboard-response","238","168390","0.0-238.0","339ANSOTR6OOYC5V6Y36EG4GZ6RIKD","A2D28BVEFUUTMO","368IUKXGA5U7UZ9GQNUNOB4MGE4P6M","","null","<img src=""img/animal2.png"" style=""width:200px; border:14px solid green;"">","null","","","","","",""
"","image-keyboard-response","239","169207","0.0-239.0","339ANSOTR6OOYC5V6Y36EG4GZ6RIKD","A2D28BVEFUUTMO","368IUKXGA5U7UZ9GQNUNOB4MGE4P6M","","807","img/animal4.png","74","813","1","1","2","0.7,0,0.8,0.7,0.8,0,0.7,0.8,0",""
"","html-keyboard-response","240","169512","0.0-240.0","339ANSOTR6OOYC5V6Y36EG4GZ6RIKD","A2D28BVEFUUTMO","368IUKXGA5U7UZ9GQNUNOB4MGE4P6M","","null","<img src=""img/animal4.png"" style=""width:200px; border:14px solid green;"">","null","","","","","",""
"","image-keyboard-response","241","170105","0.0-241.0","339ANSOTR6OOYC5V6Y36EG4GZ6RIKD","A2D28BVEFUUTMO","368IUKXGA5U7UZ9GQNUNOB4MGE4P6M","","587","img/animal2.png","75","593","2","0","1","0.7,0,0.8,0.7,0.8,0,0.7,0.8,0",""
"","html-keyboard-response","242","170409","0.0-242.0","339ANSOTR6OOYC5V6Y36EG4GZ6RIKD","A2D28BVEFUUTMO","368IUKXGA5U7UZ9GQNUNOB4MGE4P6M","","null","<img src=""img/animal2.png"" style=""width:200px;border:14px solid red;"">","null","","","","","",""
"","image-keyboard-response","243","171424","0.0-243.0","339ANSOTR6OOYC5V6Y36EG4GZ6RIKD","A2D28BVEFUUTMO","368IUKXGA5U7UZ9GQNUNOB4MGE4P6M","","1011","img/animal4.png","75","1015","2","1","2","0.7,0,0.8,0.7,0.8,0,0.7,0.8,0",""
"","html-keyboard-response","244","171731","0.0-244.0","339ANSOTR6OOYC5V6Y36EG4GZ6RIKD","A2D28BVEFUUTMO","368IUKXGA5U7UZ9GQNUNOB4MGE4P6M","","null","<img src=""img/animal4.png"" style=""width:200px; border:14px solid green;"">","null","","","","","",""
"","image-keyboard-response","245","172618","0.0-245.0","339ANSOTR6OOYC5V6Y36EG4GZ6RIKD","A2D28BVEFUUTMO","368IUKXGA5U7UZ9GQNUNOB4MGE4P6M","","876","img/animal3.png","75","886","2","0","3","0.7,0,0.8,0.7,0.8,0,0.7,0.8,0",""
"","html-keyboard-response","246","172928","0.0-246.0","339ANSOTR6OOYC5V6Y36EG4GZ6RIKD","A2D28BVEFUUTMO","368IUKXGA5U7UZ9GQNUNOB4MGE4P6M","","null","<img src=""img/animal3.png"" style=""width:200px;border:14px solid red;"">","null","","","","","",""
"","image-keyboard-response","247","173655","0.0-247.0","339ANSOTR6OOYC5V6Y36EG4GZ6RIKD","A2D28BVEFUUTMO","368IUKXGA5U7UZ9GQNUNOB4MGE4P6M","","721","img/animal4.png","75","725","2","1","2","0.7,0,0.8,0.7,0.8,0,0.7,0.8,0",""
"","html-keyboard-response","248","173959","0.0-248.0","339ANSOTR6OOYC5V6Y36EG4GZ6RIKD","A2D28BVEFUUTMO","368IUKXGA5U7UZ9GQNUNOB4MGE4P6M","","null","<img src=""img/animal4.png"" style=""width:200px; border:14px solid green;"">","null","","","","","",""
"","image-keyboard-response","249","174905","0.0-249.0","339ANSOTR6OOYC5V6Y36EG4GZ6RIKD","A2D28BVEFUUTMO","368IUKXGA5U7UZ9GQNUNOB4MGE4P6M","","939","img/animal2.png","75","945","2","0","1","0.7,0,0.8,0.7,0.8,0,0.7,0.8,0",""
"","html-keyboard-response","250","175214","0.0-250.0","339ANSOTR6OOYC5V6Y36EG4GZ6RIKD","A2D28BVEFUUTMO","368IUKXGA5U7UZ9GQNUNOB4MGE4P6M","","null","<img src=""img/animal2.png"" style=""width:200px;border:14px solid red;"">","null","","","","","",""
"","image-keyboard-response","251","176336","0.0-251.0","339ANSOTR6OOYC5V6Y36EG4GZ6RIKD","A2D28BVEFUUTMO","368IUKXGA5U7UZ9GQNUNOB4MGE4P6M","","1116","img/animal4.png","76","1122","3","0","2","0.7,0,0.8,0.7,0.8,0,0.7,0.8,0",""
"","html-keyboard-response","252","176643","0.0-252.0","339ANSOTR6OOYC5V6Y36EG4GZ6RIKD","A2D28BVEFUUTMO","368IUKXGA5U7UZ9GQNUNOB4MGE4P6M","","null","<img src=""img/animal4.png"" style=""width:200px;border:14px solid red;"">","null","","","","","",""
"","image-keyboard-response","253","177605","0.0-253.0","339ANSOTR6OOYC5V6Y36EG4GZ6RIKD","A2D28BVEFUUTMO","368IUKXGA5U7UZ9GQNUNOB4MGE4P6M","","952","img/animal2.png","76","961","3","1","1","0.7,0,0.8,0.7,0.8,0,0.7,0.8,0",""
"","html-keyboard-response","254","177913","0.0-254.0","339ANSOTR6OOYC5V6Y36EG4GZ6RIKD","A2D28BVEFUUTMO","368IUKXGA5U7UZ9GQNUNOB4MGE4P6M","","null","<img src=""img/animal2.png"" style=""width:200px; border:14px solid green;"">","null","","","","","",""
"","image-keyboard-response","255","178887","0.0-255.0","339ANSOTR6OOYC5V6Y36EG4GZ6RIKD","A2D28BVEFUUTMO","368IUKXGA5U7UZ9GQNUNOB4MGE4P6M","","967","img/animal3.png","75","971","2","0","3","0.7,0,0.8,0.7,0.8,0,0.7,0.8,0",""
"","html-keyboard-response","256","179195","0.0-256.0","339ANSOTR6OOYC5V6Y36EG4GZ6RIKD","A2D28BVEFUUTMO","368IUKXGA5U7UZ9GQNUNOB4MGE4P6M","","null","<img src=""img/animal3.png"" style=""width:200px;border:14px solid red;"">","null","","","","","",""
"","image-keyboard-response","257","180051","0.0-257.0","339ANSOTR6OOYC5V6Y36EG4GZ6RIKD","A2D28BVEFUUTMO","368IUKXGA5U7UZ9GQNUNOB4MGE4P6M","","850","img/animal4.png","76","854","3","0","2","0.7,0,0.8,0.7,0.8,0,0.7,0.8,0",""
"","html-keyboard-response","258","180355","0.0-258.0","339ANSOTR6OOYC5V6Y36EG4GZ6RIKD","A2D28BVEFUUTMO","368IUKXGA5U7UZ9GQNUNOB4MGE4P6M","","null","<img src=""img/animal4.png"" style=""width:200px;border:14px solid red;"">","null","","","","","",""
"","image-keyboard-response","259","180680","0.0-259.0","339ANSOTR6OOYC5V6Y36EG4GZ6RIKD","A2D28BVEFUUTMO","368IUKXGA5U7UZ9GQNUNOB4MGE4P6M","","322","img/animal2.png","75","325","2","0","1","0.7,0,0.8,0.7,0.8,0,0.7,0.8,0",""
"","html-keyboard-response","260","180985","0.0-260.0","339ANSOTR6OOYC5V6Y36EG4GZ6RIKD","A2D28BVEFUUTMO","368IUKXGA5U7UZ9GQNUNOB4MGE4P6M","","null","<img src=""img/animal2.png"" style=""width:200px;border:14px solid red;"">","null","","","","","",""
"","image-keyboard-response","261","181546","0.0-261.0","339ANSOTR6OOYC5V6Y36EG4GZ6RIKD","A2D28BVEFUUTMO","368IUKXGA5U7UZ9GQNUNOB4MGE4P6M","","555","img/animal2.png","76","559","3","0","1","0.7,0,0.8,0.7,0.8,0,0.7,0.8,0",""
"","html-keyboard-response","262","181855","0.0-262.0","339ANSOTR6OOYC5V6Y36EG4GZ6RIKD","A2D28BVEFUUTMO","368IUKXGA5U7UZ9GQNUNOB4MGE4P6M","","null","<img src=""img/animal2.png"" style=""width:200px;border:14px solid red;"">","null","","","","","",""
"","image-keyboard-response","263","182597","0.0-263.0","339ANSOTR6OOYC5V6Y36EG4GZ6RIKD","A2D28BVEFUUTMO","368IUKXGA5U7UZ9GQNUNOB4MGE4P6M","","736","img/animal3.png","74","741","1","0","3","0.7,0,0.8,0.7,0.8,0,0.7,0.8,0",""
"","html-keyboard-response","264","182902","0.0-264.0","339ANSOTR6OOYC5V6Y36EG4GZ6RIKD","A2D28BVEFUUTMO","368IUKXGA5U7UZ9GQNUNOB4MGE4P6M","","null","<img src=""img/animal3.png"" style=""width:200px;border:14px solid red;"">","null","","","","","",""
"","image-keyboard-response","265","183481","0.0-265.0","339ANSOTR6OOYC5V6Y36EG4GZ6RIKD","A2D28BVEFUUTMO","368IUKXGA5U7UZ9GQNUNOB4MGE4P6M","","572","img/animal3.png","74","577","1","1","3","0.7,0,0.8,0.7,0.8,0,0.7,0.8,0",""
"","html-keyboard-response","266","183786","0.0-266.0","339ANSOTR6OOYC5V6Y36EG4GZ6RIKD","A2D28BVEFUUTMO","368IUKXGA5U7UZ9GQNUNOB4MGE4P6M","","null","<img src=""img/animal3.png"" style=""width:200px; border:14px solid green;"">","null","","","","","",""
"","image-keyboard-response","267","184893","0.0-267.0","339ANSOTR6OOYC5V6Y36EG4GZ6RIKD","A2D28BVEFUUTMO","368IUKXGA5U7UZ9GQNUNOB4MGE4P6M","","1101","img/animal2.png","76","1105","3","1","1","0.7,0,0.8,0.7,0.8,0,0.7,0.8,0",""
"","html-keyboard-response","268","185200","0.0-268.0","339ANSOTR6OOYC5V6Y36EG4GZ6RIKD","A2D28BVEFUUTMO","368IUKXGA5U7UZ9GQNUNOB4MGE4P6M","","null","<img src=""img/animal2.png"" style=""width:200px; border:14px solid green;"">","null","","","","","",""
"","image-keyboard-response","269","225083","0.0-269.0","339ANSOTR6OOYC5V6Y36EG4GZ6RIKD","A2D28BVEFUUTMO","368IUKXGA5U7UZ9GQNUNOB4MGE4P6M","","39873","img/animal3.png","74","39886","1","1","3","0.7,0,0.8,0.7,0.8,0,0.7,0.8,0",""
"","html-keyboard-response","270","225406","0.0-270.0","339ANSOTR6OOYC5V6Y36EG4GZ6RIKD","A2D28BVEFUUTMO","368IUKXGA5U7UZ9GQNUNOB4MGE4P6M","","null","<img src=""img/animal3.png"" style=""width:200px; border:14px solid green;"">","null","","","","","",""
"","image-keyboard-response","271","226047","0.0-271.0","339ANSOTR6OOYC5V6Y36EG4GZ6RIKD","A2D28BVEFUUTMO","368IUKXGA5U7UZ9GQNUNOB4MGE4P6M","","638","img/animal3.png","74","641","1","1","3","0.7,0,0.8,0.7,0.8,0,0.7,0.8,0",""
"","html-keyboard-response","272","226352","0.0-272.0","339ANSOTR6OOYC5V6Y36EG4GZ6RIKD","A2D28BVEFUUTMO","368IUKXGA5U7UZ9GQNUNOB4MGE4P6M","","null","<img src=""img/animal3.png"" style=""width:200px; border:14px solid green;"">","null","","","","","",""
"","image-keyboard-response","273","226826","0.0-273.0","339ANSOTR6OOYC5V6Y36EG4GZ6RIKD","A2D28BVEFUUTMO","368IUKXGA5U7UZ9GQNUNOB4MGE4P6M","","469","img/animal3.png","74","474","1","1","3","0.7,0,0.8,0.7,0.8,0,0.7,0.8,0",""
"","html-keyboard-response","274","227131","0.0-274.0","339ANSOTR6OOYC5V6Y36EG4GZ6RIKD","A2D28BVEFUUTMO","368IUKXGA5U7UZ9GQNUNOB4MGE4P6M","","null","<img src=""img/animal3.png"" style=""width:200px; border:14px solid green;"">","null","","","","","",""
"","image-keyboard-response","275","228158","0.0-275.0","339ANSOTR6OOYC5V6Y36EG4GZ6RIKD","A2D28BVEFUUTMO","368IUKXGA5U7UZ9GQNUNOB4MGE4P6M","","1018","img/animal2.png","76","1026","3","1","1","0.7,0,0.8,0.7,0.8,0,0.7,0.8,0",""
"","html-keyboard-response","276","228465","0.0-276.0","339ANSOTR6OOYC5V6Y36EG4GZ6RIKD","A2D28BVEFUUTMO","368IUKXGA5U7UZ9GQNUNOB4MGE4P6M","","null","<img src=""img/animal2.png"" style=""width:200px; border:14px solid green;"">","null","","","","","",""
"","image-keyboard-response","277","229926","0.0-277.0","339ANSOTR6OOYC5V6Y36EG4GZ6RIKD","A2D28BVEFUUTMO","368IUKXGA5U7UZ9GQNUNOB4MGE4P6M","","1454","img/animal3.png","74","1459","1","1","3","0.7,0,0.8,0.7,0.8,0,0.7,0.8,0",""
"","html-keyboard-response","278","230230","0.0-278.0","339ANSOTR6OOYC5V6Y36EG4GZ6RIKD","A2D28BVEFUUTMO","368IUKXGA5U7UZ9GQNUNOB4MGE4P6M","","null","<img src=""img/animal3.png"" style=""width:200px; border:14px solid green;"">","null","","","","","",""
"","image-keyboard-response","279","231146","0.0-279.0","339ANSOTR6OOYC5V6Y36EG4GZ6RIKD","A2D28BVEFUUTMO","368IUKXGA5U7UZ9GQNUNOB4MGE4P6M","","910","img/animal2.png","76","915","3","1","1","0.7,0,0.8,0.7,0.8,0,0.7,0.8,0",""
"","html-keyboard-response","280","231452","0.0-280.0","339ANSOTR6OOYC5V6Y36EG4GZ6RIKD","A2D28BVEFUUTMO","368IUKXGA5U7UZ9GQNUNOB4MGE4P6M","","null","<img src=""img/animal2.png"" style=""width:200px; border:14px solid green;"">","null","","","","","",""
"","image-keyboard-response","281","232311","0.0-281.0","339ANSOTR6OOYC5V6Y36EG4GZ6RIKD","A2D28BVEFUUTMO","368IUKXGA5U7UZ9GQNUNOB4MGE4P6M","","853","img/animal3.png","74","858","1","1","3","0.7,0,0.8,0.7,0.8,0,0.7,0.8,0",""
"","html-keyboard-response","282","232617","0.0-282.0","339ANSOTR6OOYC5V6Y36EG4GZ6RIKD","A2D28BVEFUUTMO","368IUKXGA5U7UZ9GQNUNOB4MGE4P6M","","null","<img src=""img/animal3.png"" style=""width:200px; border:14px solid green;"">","null","","","","","",""
"","image-keyboard-response","283","233763","0.0-283.0","339ANSOTR6OOYC5V6Y36EG4GZ6RIKD","A2D28BVEFUUTMO","368IUKXGA5U7UZ9GQNUNOB4MGE4P6M","","1142","img/animal2.png","76","1145","3","1","1","0.7,0,0.8,0.7,0.8,0,0.7,0.8,0",""
"","html-keyboard-response","284","234070","0.0-284.0","339ANSOTR6OOYC5V6Y36EG4GZ6RIKD","A2D28BVEFUUTMO","368IUKXGA5U7UZ9GQNUNOB4MGE4P6M","","null","<img src=""img/animal2.png"" style=""width:200px; border:14px solid green;"">","null","","","","","",""
"","image-keyboard-response","285","234583","0.0-285.0","339ANSOTR6OOYC5V6Y36EG4GZ6RIKD","A2D28BVEFUUTMO","368IUKXGA5U7UZ9GQNUNOB4MGE4P6M","","509","img/animal2.png","76","513","3","0","1","0.7,0,0.8,0.7,0.8,0,0.7,0.8,0",""
"","html-keyboard-response","286","234888","0.0-286.0","339ANSOTR6OOYC5V6Y36EG4GZ6RIKD","A2D28BVEFUUTMO","368IUKXGA5U7UZ9GQNUNOB4MGE4P6M","","null","<img src=""img/animal2.png"" style=""width:200px;border:14px solid red;"">","null","","","","","",""
"","image-keyboard-response","287","235782","0.0-287.0","339ANSOTR6OOYC5V6Y36EG4GZ6RIKD","A2D28BVEFUUTMO","368IUKXGA5U7UZ9GQNUNOB4MGE4P6M","","887","img/animal4.png","75","892","2","1","2","0.7,0,0.8,0.7,0.8,0,0.7,0.8,0",""
"","html-keyboard-response","288","236087","0.0-288.0","339ANSOTR6OOYC5V6Y36EG4GZ6RIKD","A2D28BVEFUUTMO","368IUKXGA5U7UZ9GQNUNOB4MGE4P6M","","null","<img src=""img/animal4.png"" style=""width:200px; border:14px solid green;"">","null","","","","","",""
"","image-keyboard-response","289","236578","0.0-289.0","339ANSOTR6OOYC5V6Y36EG4GZ6RIKD","A2D28BVEFUUTMO","368IUKXGA5U7UZ9GQNUNOB4MGE4P6M","","485","img/animal4.png","75","490","2","1","2","0.7,0,0.8,0.7,0.8,0,0.7,0.8,0",""
"","html-keyboard-response","290","236883","0.0-290.0","339ANSOTR6OOYC5V6Y36EG4GZ6RIKD","A2D28BVEFUUTMO","368IUKXGA5U7UZ9GQNUNOB4MGE4P6M","","null","<img src=""img/animal4.png"" style=""width:200px; border:14px solid green;"">","null","","","","","",""
"","image-keyboard-response","291","237774","0.0-291.0","339ANSOTR6OOYC5V6Y36EG4GZ6RIKD","A2D28BVEFUUTMO","368IUKXGA5U7UZ9GQNUNOB4MGE4P6M","","885","img/animal2.png","76","889","3","1","1","0.7,0,0.8,0.7,0.8,0,0.7,0.8,0",""
"","html-keyboard-response","292","238079","0.0-292.0","339ANSOTR6OOYC5V6Y36EG4GZ6RIKD","A2D28BVEFUUTMO","368IUKXGA5U7UZ9GQNUNOB4MGE4P6M","","null","<img src=""img/animal2.png"" style=""width:200px; border:14px solid green;"">","null","","","","","",""
"","image-keyboard-response","293","238553","0.0-293.0","339ANSOTR6OOYC5V6Y36EG4GZ6RIKD","A2D28BVEFUUTMO","368IUKXGA5U7UZ9GQNUNOB4MGE4P6M","","468","img/animal2.png","76","473","3","1","1","0.7,0,0.8,0.7,0.8,0,0.7,0.8,0",""
"","html-keyboard-response","294","238858","0.0-294.0","339ANSOTR6OOYC5V6Y36EG4GZ6RIKD","A2D28BVEFUUTMO","368IUKXGA5U7UZ9GQNUNOB4MGE4P6M","","null","<img src=""img/animal2.png"" style=""width:200px; border:14px solid green;"">","null","","","","","",""
"","image-keyboard-response","295","239721","0.0-295.0","339ANSOTR6OOYC5V6Y36EG4GZ6RIKD","A2D28BVEFUUTMO","368IUKXGA5U7UZ9GQNUNOB4MGE4P6M","","857","img/animal4.png","75","862","2","1","2","0.7,0,0.8,0.7,0.8,0,0.7,0.8,0",""
"","html-keyboard-response","296","240025","0.0-296.0","339ANSOTR6OOYC5V6Y36EG4GZ6RIKD","A2D28BVEFUUTMO","368IUKXGA5U7UZ9GQNUNOB4MGE4P6M","","null","<img src=""img/animal4.png"" style=""width:200px; border:14px solid green;"">","null","","","","","",""
"","image-keyboard-response","297","240552","0.0-297.0","339ANSOTR6OOYC5V6Y36EG4GZ6RIKD","A2D28BVEFUUTMO","368IUKXGA5U7UZ9GQNUNOB4MGE4P6M","","521","img/animal4.png","75","527","2","1","2","0.7,0,0.8,0.7,0.8,0,0.7,0.8,0",""
"","html-keyboard-response","298","240860","0.0-298.0","339ANSOTR6OOYC5V6Y36EG4GZ6RIKD","A2D28BVEFUUTMO","368IUKXGA5U7UZ9GQNUNOB4MGE4P6M","","null","<img src=""img/animal4.png"" style=""width:200px; border:14px solid green;"">","null","","","","","",""
"","image-keyboard-response","299","241586","0.0-299.0","339ANSOTR6OOYC5V6Y36EG4GZ6RIKD","A2D28BVEFUUTMO","368IUKXGA5U7UZ9GQNUNOB4MGE4P6M","","719","img/animal2.png","76","726","3","1","1","0.7,0,0.8,0.7,0.8,0,0.7,0.8,0",""
"","html-keyboard-response","300","241894","0.0-300.0","339ANSOTR6OOYC5V6Y36EG4GZ6RIKD","A2D28BVEFUUTMO","368IUKXGA5U7UZ9GQNUNOB4MGE4P6M","","null","<img src=""img/animal2.png"" style=""width:200px; border:14px solid green;"">","null","","","","","",""
"","image-keyboard-response","301","242446","0.0-301.0","339ANSOTR6OOYC5V6Y36EG4GZ6RIKD","A2D28BVEFUUTMO","368IUKXGA5U7UZ9GQNUNOB4MGE4P6M","","546","img/animal2.png","76","552","3","1","1","0.7,0,0.8,0.7,0.8,0,0.7,0.8,0",""
"","html-keyboard-response","302","242750","0.0-302.0","339ANSOTR6OOYC5V6Y36EG4GZ6RIKD","A2D28BVEFUUTMO","368IUKXGA5U7UZ9GQNUNOB4MGE4P6M","","null","<img src=""img/animal2.png"" style=""width:200px; border:14px solid green;"">","null","","","","","",""
"","image-keyboard-response","303","243660","0.0-303.0","339ANSOTR6OOYC5V6Y36EG4GZ6RIKD","A2D28BVEFUUTMO","368IUKXGA5U7UZ9GQNUNOB4MGE4P6M","","905","img/animal3.png","74","909","1","1","3","0.7,0,0.8,0.7,0.8,0,0.7,0.8,0",""
"","html-keyboard-response","304","243966","0.0-304.0","339ANSOTR6OOYC5V6Y36EG4GZ6RIKD","A2D28BVEFUUTMO","368IUKXGA5U7UZ9GQNUNOB4MGE4P6M","","null","<img src=""img/animal3.png"" style=""width:200px; border:14px solid green;"">","null","","","","","",""
"","image-keyboard-response","305","245498","0.0-305.0","339ANSOTR6OOYC5V6Y36EG4GZ6RIKD","A2D28BVEFUUTMO","368IUKXGA5U7UZ9GQNUNOB4MGE4P6M","","1521","img/animal4.png","75","1530","2","1","2","0.7,0,0.8,0.7,0.8,0,0.7,0.8,0",""
"","html-keyboard-response","306","245809","0.0-306.0","339ANSOTR6OOYC5V6Y36EG4GZ6RIKD","A2D28BVEFUUTMO","368IUKXGA5U7UZ9GQNUNOB4MGE4P6M","","null","<img src=""img/animal4.png"" style=""width:200px; border:14px solid green;"">","null","","","","","",""
"","image-keyboard-response","307","246386","0.0-307.0","339ANSOTR6OOYC5V6Y36EG4GZ6RIKD","A2D28BVEFUUTMO","368IUKXGA5U7UZ9GQNUNOB4MGE4P6M","","572","img/animal4.png","75","575","2","1","2","0.7,0,0.8,0.7,0.8,0,0.7,0.8,0",""
"","html-keyboard-response","308","246690","0.0-308.0","339ANSOTR6OOYC5V6Y36EG4GZ6RIKD","A2D28BVEFUUTMO","368IUKXGA5U7UZ9GQNUNOB4MGE4P6M","","null","<img src=""img/animal4.png"" style=""width:200px; border:14px solid green;"">","null","","","","","",""
"","image-keyboard-response","309","247509","0.0-309.0","339ANSOTR6OOYC5V6Y36EG4GZ6RIKD","A2D28BVEFUUTMO","368IUKXGA5U7UZ9GQNUNOB4MGE4P6M","","812","img/animal2.png","76","817","3","1","1","0.7,0,0.8,0.7,0.8,0,0.7,0.8,0",""
"","html-keyboard-response","310","247814","0.0-310.0","339ANSOTR6OOYC5V6Y36EG4GZ6RIKD","A2D28BVEFUUTMO","368IUKXGA5U7UZ9GQNUNOB4MGE4P6M","","null","<img src=""img/animal2.png"" style=""width:200px; border:14px solid green;"">","null","","","","","",""
"","image-keyboard-response","311","248437","0.0-311.0","339ANSOTR6OOYC5V6Y36EG4GZ6RIKD","A2D28BVEFUUTMO","368IUKXGA5U7UZ9GQNUNOB4MGE4P6M","","617","img/animal4.png","76","622","3","0","2","0.7,0,0.8,0.7,0.8,0,0.7,0.8,0",""
"","html-keyboard-response","312","248741","0.0-312.0","339ANSOTR6OOYC5V6Y36EG4GZ6RIKD","A2D28BVEFUUTMO","368IUKXGA5U7UZ9GQNUNOB4MGE4P6M","","null","<img src=""img/animal4.png"" style=""width:200px;border:14px solid red;"">","null","","","","","",""
"","image-keyboard-response","313","249247","0.0-313.0","339ANSOTR6OOYC5V6Y36EG4GZ6RIKD","A2D28BVEFUUTMO","368IUKXGA5U7UZ9GQNUNOB4MGE4P6M","","499","img/animal4.png","76","504","3","0","2","0.7,0,0.8,0.7,0.8,0,0.7,0.8,0",""
"","html-keyboard-response","314","249552","0.0-314.0","339ANSOTR6OOYC5V6Y36EG4GZ6RIKD","A2D28BVEFUUTMO","368IUKXGA5U7UZ9GQNUNOB4MGE4P6M","","null","<img src=""img/animal4.png"" style=""width:200px;border:14px solid red;"">","null","","","","","",""
"","image-keyboard-response","315","250085","0.0-315.0","339ANSOTR6OOYC5V6Y36EG4GZ6RIKD","A2D28BVEFUUTMO","368IUKXGA5U7UZ9GQNUNOB4MGE4P6M","","526","img/animal4.png","76","532","3","0","2","0.7,0,0.8,0.7,0.8,0,0.7,0.8,0",""
"","html-keyboard-response","316","250390","0.0-316.0","339ANSOTR6OOYC5V6Y36EG4GZ6RIKD","A2D28BVEFUUTMO","368IUKXGA5U7UZ9GQNUNOB4MGE4P6M","","null","<img src=""img/animal4.png"" style=""width:200px;border:14px solid red;"">","null","","","","","",""
"","image-keyboard-response","317","251303","0.0-317.0","339ANSOTR6OOYC5V6Y36EG4GZ6RIKD","A2D28BVEFUUTMO","368IUKXGA5U7UZ9GQNUNOB4MGE4P6M","","908","img/animal3.png","74","913","1","1","3","0.7,0,0.8,0.7,0.8,0,0.7,0.8,0",""
"","html-keyboard-response","318","251611","0.0-318.0","339ANSOTR6OOYC5V6Y36EG4GZ6RIKD","A2D28BVEFUUTMO","368IUKXGA5U7UZ9GQNUNOB4MGE4P6M","","null","<img src=""img/animal3.png"" style=""width:200px; border:14px solid green;"">","null","","","","","",""
"","image-keyboard-response","319","253112","0.0-319.0","339ANSOTR6OOYC5V6Y36EG4GZ6RIKD","A2D28BVEFUUTMO","368IUKXGA5U7UZ9GQNUNOB4MGE4P6M","","1495","img/animal4.png","76","1500","3","0","2","0.7,0,0.8,0.7,0.8,0,0.7,0.8,0",""
"","html-keyboard-response","320","253417","0.0-320.0","339ANSOTR6OOYC5V6Y36EG4GZ6RIKD","A2D28BVEFUUTMO","368IUKXGA5U7UZ9GQNUNOB4MGE4P6M","","null","<img src=""img/animal4.png"" style=""width:200px;border:14px solid red;"">","null","","","","","",""
"","image-keyboard-response","321","254251","0.0-321.0","339ANSOTR6OOYC5V6Y36EG4GZ6RIKD","A2D28BVEFUUTMO","368IUKXGA5U7UZ9GQNUNOB4MGE4P6M","","828","img/animal3.png","74","834","1","1","3","0.7,0,0.8,0.7,0.8,0,0.7,0.8,0",""
"","html-keyboard-response","322","254557","0.0-322.0","339ANSOTR6OOYC5V6Y36EG4GZ6RIKD","A2D28BVEFUUTMO","368IUKXGA5U7UZ9GQNUNOB4MGE4P6M","","null","<img src=""img/animal3.png"" style=""width:200px; border:14px solid green;"">","null","","","","","",""
"","image-keyboard-response","323","255267","0.0-323.0","339ANSOTR6OOYC5V6Y36EG4GZ6RIKD","A2D28BVEFUUTMO","368IUKXGA5U7UZ9GQNUNOB4MGE4P6M","","703","img/animal4.png","75","708","2","1","2","0.7,0,0.8,0.7,0.8,0,0.7,0.8,0",""
"","html-keyboard-response","324","255572","0.0-324.0","339ANSOTR6OOYC5V6Y36EG4GZ6RIKD","A2D28BVEFUUTMO","368IUKXGA5U7UZ9GQNUNOB4MGE4P6M","","null","<img src=""img/animal4.png"" style=""width:200px; border:14px solid green;"">","null","","","","","",""
"","image-keyboard-response","325","256930","0.0-325.0","339ANSOTR6OOYC5V6Y36EG4GZ6RIKD","A2D28BVEFUUTMO","368IUKXGA5U7UZ9GQNUNOB4MGE4P6M","","1353","img/animal3.png","74","1358","1","0","3","0.7,0,0.8,0.7,0.8,0,0.7,0.8,0",""
"","html-keyboard-response","326","257235","0.0-326.0","339ANSOTR6OOYC5V6Y36EG4GZ6RIKD","A2D28BVEFUUTMO","368IUKXGA5U7UZ9GQNUNOB4MGE4P6M","","null","<img src=""img/animal3.png"" style=""width:200px;border:14px solid red;"">","null","","","","","",""
"","image-keyboard-response","327","257739","0.0-327.0","339ANSOTR6OOYC5V6Y36EG4GZ6RIKD","A2D28BVEFUUTMO","368IUKXGA5U7UZ9GQNUNOB4MGE4P6M","","499","img/animal3.png","74","503","1","1","3","0.7,0,0.8,0.7,0.8,0,0.7,0.8,0",""
"","html-keyboard-response","328","258043","0.0-328.0","339ANSOTR6OOYC5V6Y36EG4GZ6RIKD","A2D28BVEFUUTMO","368IUKXGA5U7UZ9GQNUNOB4MGE4P6M","","null","<img src=""img/animal3.png"" style=""width:200px; border:14px solid green;"">","null","","","","","",""
"","image-keyboard-response","329","258817","0.0-329.0","339ANSOTR6OOYC5V6Y36EG4GZ6RIKD","A2D28BVEFUUTMO","368IUKXGA5U7UZ9GQNUNOB4MGE4P6M","","770","img/animal4.png","75","774","2","1","2","0.7,0,0.8,0.7,0.8,0,0.7,0.8,0",""
"","html-keyboard-response","330","259122","0.0-330.0","339ANSOTR6OOYC5V6Y36EG4GZ6RIKD","A2D28BVEFUUTMO","368IUKXGA5U7UZ9GQNUNOB4MGE4P6M","","null","<img src=""img/animal4.png"" style=""width:200px; border:14px solid green;"">","null","","","","","",""
"","image-keyboard-response","331","259655","0.0-331.0","339ANSOTR6OOYC5V6Y36EG4GZ6RIKD","A2D28BVEFUUTMO","368IUKXGA5U7UZ9GQNUNOB4MGE4P6M","","527","img/animal4.png","75","532","2","1","2","0.7,0,0.8,0.7,0.8,0,0.7,0.8,0",""
"","html-keyboard-response","332","259960","0.0-332.0","339ANSOTR6OOYC5V6Y36EG4GZ6RIKD","A2D28BVEFUUTMO","368IUKXGA5U7UZ9GQNUNOB4MGE4P6M","","null","<img src=""img/animal4.png"" style=""width:200px; border:14px solid green;"">","null","","","","","",""
"","image-keyboard-response","333","260864","0.0-333.0","339ANSOTR6OOYC5V6Y36EG4GZ6RIKD","A2D28BVEFUUTMO","368IUKXGA5U7UZ9GQNUNOB4MGE4P6M","","898","img/animal3.png","74","903","1","0","3","0.7,0,0.8,0.7,0.8,0,0.7,0.8,0",""
"","html-keyboard-response","334","261172","0.0-334.0","339ANSOTR6OOYC5V6Y36EG4GZ6RIKD","A2D28BVEFUUTMO","368IUKXGA5U7UZ9GQNUNOB4MGE4P6M","","null","<img src=""img/animal3.png"" style=""width:200px;border:14px solid red;"">","null","","","","","",""
"","image-keyboard-response","335","262157","0.0-335.0","339ANSOTR6OOYC5V6Y36EG4GZ6RIKD","A2D28BVEFUUTMO","368IUKXGA5U7UZ9GQNUNOB4MGE4P6M","","977","img/animal2.png","76","984","3","1","1","0.7,0,0.8,0.7,0.8,0,0.7,0.8,0",""
"","html-keyboard-response","336","262463","0.0-336.0","339ANSOTR6OOYC5V6Y36EG4GZ6RIKD","A2D28BVEFUUTMO","368IUKXGA5U7UZ9GQNUNOB4MGE4P6M","","null","<img src=""img/animal2.png"" style=""width:200px; border:14px solid green;"">","null","","","","","",""
"","image-keyboard-response","337","263792","0.0-337.0","339ANSOTR6OOYC5V6Y36EG4GZ6RIKD","A2D28BVEFUUTMO","368IUKXGA5U7UZ9GQNUNOB4MGE4P6M","","1322","img/animal4.png","75","1327","2","1","2","0.7,0,0.8,0.7,0.8,0,0.7,0.8,0",""
"","html-keyboard-response","338","264096","0.0-338.0","339ANSOTR6OOYC5V6Y36EG4GZ6RIKD","A2D28BVEFUUTMO","368IUKXGA5U7UZ9GQNUNOB4MGE4P6M","","null","<img src=""img/animal4.png"" style=""width:200px; border:14px solid green;"">","null","","","","","",""
"","image-keyboard-response","339","264629","0.0-339.0","339ANSOTR6OOYC5V6Y36EG4GZ6RIKD","A2D28BVEFUUTMO","368IUKXGA5U7UZ9GQNUNOB4MGE4P6M","","527","img/animal4.png","75","531","2","1","2","0.7,0,0.8,0.7,0.8,0,0.7,0.8,0",""
"","html-keyboard-response","340","264933","0.0-340.0","339ANSOTR6OOYC5V6Y36EG4GZ6RIKD","A2D28BVEFUUTMO","368IUKXGA5U7UZ9GQNUNOB4MGE4P6M","","null","<img src=""img/animal4.png"" style=""width:200px; border:14px solid green;"">","null","","","","","",""
"","image-keyboard-response","341","265586","0.0-341.0","339ANSOTR6OOYC5V6Y36EG4GZ6RIKD","A2D28BVEFUUTMO","368IUKXGA5U7UZ9GQNUNOB4MGE4P6M","","647","img/animal2.png","74","651","1","1","1","0.7,0,0.8,0.7,0.8,0,0.7,0.8,0",""
"","html-keyboard-response","342","265892","0.0-342.0","339ANSOTR6OOYC5V6Y36EG4GZ6RIKD","A2D28BVEFUUTMO","368IUKXGA5U7UZ9GQNUNOB4MGE4P6M","","null","<img src=""img/animal2.png"" style=""width:200px; border:14px solid green;"">","null","","","","","",""
"","image-keyboard-response","343","266665","0.0-343.0","339ANSOTR6OOYC5V6Y36EG4GZ6RIKD","A2D28BVEFUUTMO","368IUKXGA5U7UZ9GQNUNOB4MGE4P6M","","767","img/animal4.png","74","772","1","1","2","0.7,0,0.8,0.7,0.8,0,0.7,0.8,0",""
"","html-keyboard-response","344","266970","0.0-344.0","339ANSOTR6OOYC5V6Y36EG4GZ6RIKD","A2D28BVEFUUTMO","368IUKXGA5U7UZ9GQNUNOB4MGE4P6M","","null","<img src=""img/animal4.png"" style=""width:200px; border:14px solid green;"">","null","","","","","",""
"","image-keyboard-response","345","267653","0.0-345.0","339ANSOTR6OOYC5V6Y36EG4GZ6RIKD","A2D28BVEFUUTMO","368IUKXGA5U7UZ9GQNUNOB4MGE4P6M","","677","img/animal4.png","76","682","3","0","2","0.7,0,0.8,0.7,0.8,0,0.7,0.8,0",""
"","html-keyboard-response","346","267958","0.0-346.0","339ANSOTR6OOYC5V6Y36EG4GZ6RIKD","A2D28BVEFUUTMO","368IUKXGA5U7UZ9GQNUNOB4MGE4P6M","","null","<img src=""img/animal4.png"" style=""width:200px;border:14px solid red;"">","null","","","","","",""
"","image-keyboard-response","347","268822","0.0-347.0","339ANSOTR6OOYC5V6Y36EG4GZ6RIKD","A2D28BVEFUUTMO","368IUKXGA5U7UZ9GQNUNOB4MGE4P6M","","856","img/animal3.png","74","863","1","1","3","0.7,0,0.8,0.7,0.8,0,0.7,0.8,0",""
"","html-keyboard-response","348","269126","0.0-348.0","339ANSOTR6OOYC5V6Y36EG4GZ6RIKD","A2D28BVEFUUTMO","368IUKXGA5U7UZ9GQNUNOB4MGE4P6M","","null","<img src=""img/animal3.png"" style=""width:200px; border:14px solid green;"">","null","","","","","",""
"","image-keyboard-response","349","269946","0.0-349.0","339ANSOTR6OOYC5V6Y36EG4GZ6RIKD","A2D28BVEFUUTMO","368IUKXGA5U7UZ9GQNUNOB4MGE4P6M","","811","img/animal4.png","76","818","3","0","2","0.7,0,0.8,0.7,0.8,0,0.7,0.8,0",""
"","html-keyboard-response","350","270251","0.0-350.0","339ANSOTR6OOYC5V6Y36EG4GZ6RIKD","A2D28BVEFUUTMO","368IUKXGA5U7UZ9GQNUNOB4MGE4P6M","","null","<img src=""img/animal4.png"" style=""width:200px;border:14px solid red;"">","null","","","","","",""
"","image-keyboard-response","351","271138","0.0-351.0","339ANSOTR6OOYC5V6Y36EG4GZ6RIKD","A2D28BVEFUUTMO","368IUKXGA5U7UZ9GQNUNOB4MGE4P6M","","879","img/animal3.png","74","887","1","0","3","0.7,0,0.8,0.7,0.8,0,0.7,0.8,0",""
"","html-keyboard-response","352","271447","0.0-352.0","339ANSOTR6OOYC5V6Y36EG4GZ6RIKD","A2D28BVEFUUTMO","368IUKXGA5U7UZ9GQNUNOB4MGE4P6M","","null","<img src=""img/animal3.png"" style=""width:200px;border:14px solid red;"">","null","","","","","",""
"","image-keyboard-response","353","272254","0.0-353.0","339ANSOTR6OOYC5V6Y36EG4GZ6RIKD","A2D28BVEFUUTMO","368IUKXGA5U7UZ9GQNUNOB4MGE4P6M","","798","img/animal4.png","76","805","3","0","2","0.7,0,0.8,0.7,0.8,0,0.7,0.8,0",""
"","html-keyboard-response","354","272561","0.0-354.0","339ANSOTR6OOYC5V6Y36EG4GZ6RIKD","A2D28BVEFUUTMO","368IUKXGA5U7UZ9GQNUNOB4MGE4P6M","","null","<img src=""img/animal4.png"" style=""width:200px;border:14px solid red;"">","null","","","","","",""
"","image-keyboard-response","355","273616","0.0-355.0","339ANSOTR6OOYC5V6Y36EG4GZ6RIKD","A2D28BVEFUUTMO","368IUKXGA5U7UZ9GQNUNOB4MGE4P6M","","1049","img/animal2.png","76","1053","3","1","1","0.7,0,0.8,0.7,0.8,0,0.7,0.8,0",""
"","html-keyboard-response","356","273921","0.0-356.0","339ANSOTR6OOYC5V6Y36EG4GZ6RIKD","A2D28BVEFUUTMO","368IUKXGA5U7UZ9GQNUNOB4MGE4P6M","","null","<img src=""img/animal2.png"" style=""width:200px; border:14px solid green;"">","null","","","","","",""
"","image-keyboard-response","357","274860","0.0-357.0","339ANSOTR6OOYC5V6Y36EG4GZ6RIKD","A2D28BVEFUUTMO","368IUKXGA5U7UZ9GQNUNOB4MGE4P6M","","934","img/animal2.png","76","938","3","1","1","0.7,0,0.8,0.7,0.8,0,0.7,0.8,0",""
"","html-keyboard-response","358","275166","0.0-358.0","339ANSOTR6OOYC5V6Y36EG4GZ6RIKD","A2D28BVEFUUTMO","368IUKXGA5U7UZ9GQNUNOB4MGE4P6M","","null","<img src=""img/animal2.png"" style=""width:200px; border:14px solid green;"">","null","","","","","",""
"","image-keyboard-response","359","276286","0.0-359.0","339ANSOTR6OOYC5V6Y36EG4GZ6RIKD","A2D28BVEFUUTMO","368IUKXGA5U7UZ9GQNUNOB4MGE4P6M","","1112","img/animal3.png","74","1118","1","0","3","0.7,0,0.8,0.7,0.8,0,0.7,0.8,0",""
"","html-keyboard-response","360","276594","0.0-360.0","339ANSOTR6OOYC5V6Y36EG4GZ6RIKD","A2D28BVEFUUTMO","368IUKXGA5U7UZ9GQNUNOB4MGE4P6M","","null","<img src=""img/animal3.png"" style=""width:200px;border:14px solid red;"">","null","","","","","",""
"","image-keyboard-response","361","277090","0.0-361.0","339ANSOTR6OOYC5V6Y36EG4GZ6RIKD","A2D28BVEFUUTMO","368IUKXGA5U7UZ9GQNUNOB4MGE4P6M","","489","img/animal3.png","74","495","1","0","3","0.7,0,0.8,0.7,0.8,0,0.7,0.8,0",""
"","html-keyboard-response","362","277395","0.0-362.0","339ANSOTR6OOYC5V6Y36EG4GZ6RIKD","A2D28BVEFUUTMO","368IUKXGA5U7UZ9GQNUNOB4MGE4P6M","","null","<img src=""img/animal3.png"" style=""width:200px;border:14px solid red;"">","null","","","","","",""
"","instructions","363","280748","0.0-363.0","339ANSOTR6OOYC5V6Y36EG4GZ6RIKD","A2D28BVEFUUTMO","368IUKXGA5U7UZ9GQNUNOB4MGE4P6M","[{""page_index"":0,""viewing_time"":3349}]","3351","","","","","","","",""
"","survey-text","364","285755","0.0-364.0","339ANSOTR6OOYC5V6Y36EG4GZ6RIKD","A2D28BVEFUUTMO","368IUKXGA5U7UZ9GQNUNOB4MGE4P6M","","4947","","","","","","","","{""Q0"":""A2D28BVEFUUTMO""}"
