"success","trial_type","trial_index","time_elapsed","internal_node_id","assignmentID","mturkID","hitID","view_history","rt","stimulus","key_press","reactionTime","a","r","s","reward_cond","responses"
"true","fullscreen","0","2990","0.0-0.0","3E7TUJ2EGD8N956IANB6XAANXNRD9T","A2DLV3WN24WTDS","3A3KKYU7P33Z3BR9PPFZ5194ZCQMWU","","","","","","","","","",""
"","instructions","1","21316","0.0-1.0","3E7TUJ2EGD8N956IANB6XAANXNRD9T","A2DLV3WN24WTDS","3A3KKYU7P33Z3BR9PPFZ5194ZCQMWU","[{""page_index"":0,""viewing_time"":4851.199999988079},{""page_index"":1,""viewing_time"":1587.1000000238419},{""page_index"":2,""viewing_time"":872.1999999880791},{""page_index"":3,""viewing_time"":6185.899999976158},{""page_index"":4,""viewing_time"":1980.2000000476837},{""page_index"":5,""viewing_time"":1062.199999988079},{""page_index"":6,""viewing_time"":872.0999999642372},{""page_index"":7,""viewing_time"":911.7000000476837}]","18324.100000023842","","","","","","","",""
"","image-keyboard-response","2","25053","0.0-2.0","3E7TUJ2EGD8N956IANB6XAANXNRD9T","A2DLV3WN24WTDS","3A3KKYU7P33Z3BR9PPFZ5194ZCQMWU","","3735.699999988079","img/animal5.png","74","3737.199999988079","1","0","2","1,0.5,0,0,1,0.5,0.5,0,1",""
"","html-keyboard-response","3","25363","0.0-3.0","3E7TUJ2EGD8N956IANB6XAANXNRD9T","A2DLV3WN24WTDS","3A3KKYU7P33Z3BR9PPFZ5194ZCQMWU","","null","<img src=""img/animal5.png"" style=""width:200px;border:14px solid red;"">","null","","","","","",""
"","image-keyboard-response","4","26855","0.0-4.0","3E7TUJ2EGD8N956IANB6XAANXNRD9T","A2DLV3WN24WTDS","3A3KKYU7P33Z3BR9PPFZ5194ZCQMWU","","1490.199999988079","img/animal2.png","75","1491.5","2","0","3","1,0.5,0,0,1,0.5,0.5,0,1",""
"","html-keyboard-response","5","27159","0.0-5.0","3E7TUJ2EGD8N956IANB6XAANXNRD9T","A2DLV3WN24WTDS","3A3KKYU7P33Z3BR9PPFZ5194ZCQMWU","","null","<img src=""img/animal2.png"" style=""width:200px;border:14px solid red;"">","null","","","","","",""
"","image-keyboard-response","6","27955","0.0-6.0","3E7TUJ2EGD8N956IANB6XAANXNRD9T","A2DLV3WN24WTDS","3A3KKYU7P33Z3BR9PPFZ5194ZCQMWU","","794.7000000476837","img/animal1.png","74","796.1999999880791","1","1","1","1,0.5,0,0,1,0.5,0.5,0,1",""
"","html-keyboard-response","7","28258","0.0-7.0","3E7TUJ2EGD8N956IANB6XAANXNRD9T","A2DLV3WN24WTDS","3A3KKYU7P33Z3BR9PPFZ5194ZCQMWU","","null","<img src=""img/animal1.png"" style=""width:200px; border:14px solid green;"">","null","","","","","",""
"","image-keyboard-response","8","28918","0.0-8.0","3E7TUJ2EGD8N956IANB6XAANXNRD9T","A2DLV3WN24WTDS","3A3KKYU7P33Z3BR9PPFZ5194ZCQMWU","","658.5999999642372","img/animal2.png","75","659.6999999880791","2","0","3","1,0.5,0,0,1,0.5,0.5,0,1",""
"","html-keyboard-response","9","29232","0.0-9.0","3E7TUJ2EGD8N956IANB6XAANXNRD9T","A2DLV3WN24WTDS","3A3KKYU7P33Z3BR9PPFZ5194ZCQMWU","","null","<img src=""img/animal2.png"" style=""width:200px;border:14px solid red;"">","null","","","","","",""
"","image-keyboard-response","10","29856","0.0-10.0","3E7TUJ2EGD8N956IANB6XAANXNRD9T","A2DLV3WN24WTDS","3A3KKYU7P33Z3BR9PPFZ5194ZCQMWU","","621.9000000357628","img/animal2.png","76","623.0999999642372","3","1","3","1,0.5,0,0,1,0.5,0.5,0,1",""
"","html-keyboard-response","11","30157","0.0-11.0","3E7TUJ2EGD8N956IANB6XAANXNRD9T","A2DLV3WN24WTDS","3A3KKYU7P33Z3BR9PPFZ5194ZCQMWU","","null","<img src=""img/animal2.png"" style=""width:200px; border:14px solid green;"">","null","","","","","",""
"","image-keyboard-response","12","31847","0.0-12.0","3E7TUJ2EGD8N956IANB6XAANXNRD9T","A2DLV3WN24WTDS","3A3KKYU7P33Z3BR9PPFZ5194ZCQMWU","","1688.800000011921","img/animal2.png","76","1689.699999988079","3","1","3","1,0.5,0,0,1,0.5,0.5,0,1",""
"","html-keyboard-response","13","32150","0.0-13.0","3E7TUJ2EGD8N956IANB6XAANXNRD9T","A2DLV3WN24WTDS","3A3KKYU7P33Z3BR9PPFZ5194ZCQMWU","","null","<img src=""img/animal2.png"" style=""width:200px; border:14px solid green;"">","null","","","","","",""
"","image-keyboard-response","14","33424","0.0-14.0","3E7TUJ2EGD8N956IANB6XAANXNRD9T","A2DLV3WN24WTDS","3A3KKYU7P33Z3BR9PPFZ5194ZCQMWU","","1272.6000000238419","img/animal2.png","76","1273.6000000238419","3","1","3","1,0.5,0,0,1,0.5,0.5,0,1",""
"","html-keyboard-response","15","33727","0.0-15.0","3E7TUJ2EGD8N956IANB6XAANXNRD9T","A2DLV3WN24WTDS","3A3KKYU7P33Z3BR9PPFZ5194ZCQMWU","","null","<img src=""img/animal2.png"" style=""width:200px; border:14px solid green;"">","null","","","","","",""
"","image-keyboard-response","16","35189","0.0-16.0","3E7TUJ2EGD8N956IANB6XAANXNRD9T","A2DLV3WN24WTDS","3A3KKYU7P33Z3BR9PPFZ5194ZCQMWU","","1460.3999999761581","img/animal5.png","74","1461.199999988079","1","0","2","1,0.5,0,0,1,0.5,0.5,0,1",""
"","html-keyboard-response","17","35491","0.0-17.0","3E7TUJ2EGD8N956IANB6XAANXNRD9T","A2DLV3WN24WTDS","3A3KKYU7P33Z3BR9PPFZ5194ZCQMWU","","null","<img src=""img/animal5.png"" style=""width:200px;border:14px solid red;"">","null","","","","","",""
"","image-keyboard-response","18","35872","0.0-18.0","3E7TUJ2EGD8N956IANB6XAANXNRD9T","A2DLV3WN24WTDS","3A3KKYU7P33Z3BR9PPFZ5194ZCQMWU","","379.80000001192093","img/animal5.png","75","380.80000001192093","2","1","2","1,0.5,0,0,1,0.5,0.5,0,1",""
"","html-keyboard-response","19","36174","0.0-19.0","3E7TUJ2EGD8N956IANB6XAANXNRD9T","A2DLV3WN24WTDS","3A3KKYU7P33Z3BR9PPFZ5194ZCQMWU","","null","<img src=""img/animal5.png"" style=""width:200px; border:14px solid green;"">","null","","","","","",""
"","image-keyboard-response","20","38470","0.0-20.0","3E7TUJ2EGD8N956IANB6XAANXNRD9T","A2DLV3WN24WTDS","3A3KKYU7P33Z3BR9PPFZ5194ZCQMWU","","2293.5","img/animal5.png","75","2294.800000011921","2","1","2","1,0.5,0,0,1,0.5,0.5,0,1",""
"","html-keyboard-response","21","38772","0.0-21.0","3E7TUJ2EGD8N956IANB6XAANXNRD9T","A2DLV3WN24WTDS","3A3KKYU7P33Z3BR9PPFZ5194ZCQMWU","","null","<img src=""img/animal5.png"" style=""width:200px; border:14px solid green;"">","null","","","","","",""
"","image-keyboard-response","22","40718","0.0-22.0","3E7TUJ2EGD8N956IANB6XAANXNRD9T","A2DLV3WN24WTDS","3A3KKYU7P33Z3BR9PPFZ5194ZCQMWU","","1945","img/animal1.png","75","1946.199999988079","2","1","1","1,0.5,0,0,1,0.5,0.5,0,1",""
"","html-keyboard-response","23","41020","0.0-23.0","3E7TUJ2EGD8N956IANB6XAANXNRD9T","A2DLV3WN24WTDS","3A3KKYU7P33Z3BR9PPFZ5194ZCQMWU","","null","<img src=""img/animal1.png"" style=""width:200px; border:14px solid green;"">","null","","","","","",""
"","image-keyboard-response","24","41667","0.0-24.0","3E7TUJ2EGD8N956IANB6XAANXNRD9T","A2DLV3WN24WTDS","3A3KKYU7P33Z3BR9PPFZ5194ZCQMWU","","645.0999999642372","img/animal5.png","75","646.3000000119209","2","1","2","1,0.5,0,0,1,0.5,0.5,0,1",""
"","html-keyboard-response","25","41970","0.0-25.0","3E7TUJ2EGD8N956IANB6XAANXNRD9T","A2DLV3WN24WTDS","3A3KKYU7P33Z3BR9PPFZ5194ZCQMWU","","null","<img src=""img/animal5.png"" style=""width:200px; border:14px solid green;"">","null","","","","","",""
"","image-keyboard-response","26","42392","0.0-26.0","3E7TUJ2EGD8N956IANB6XAANXNRD9T","A2DLV3WN24WTDS","3A3KKYU7P33Z3BR9PPFZ5194ZCQMWU","","420.30000001192093","img/animal1.png","75","421.39999997615814","2","1","1","1,0.5,0,0,1,0.5,0.5,0,1",""
"","html-keyboard-response","27","42693","0.0-27.0","3E7TUJ2EGD8N956IANB6XAANXNRD9T","A2DLV3WN24WTDS","3A3KKYU7P33Z3BR9PPFZ5194ZCQMWU","","null","<img src=""img/animal1.png"" style=""width:200px; border:14px solid green;"">","null","","","","","",""
"","image-keyboard-response","28","43655","0.0-28.0","3E7TUJ2EGD8N956IANB6XAANXNRD9T","A2DLV3WN24WTDS","3A3KKYU7P33Z3BR9PPFZ5194ZCQMWU","","960.3000000119209","img/animal2.png","76","961.1999999880791","3","1","3","1,0.5,0,0,1,0.5,0.5,0,1",""
"","html-keyboard-response","29","43957","0.0-29.0","3E7TUJ2EGD8N956IANB6XAANXNRD9T","A2DLV3WN24WTDS","3A3KKYU7P33Z3BR9PPFZ5194ZCQMWU","","null","<img src=""img/animal2.png"" style=""width:200px; border:14px solid green;"">","null","","","","","",""
"","image-keyboard-response","30","44595","0.0-30.0","3E7TUJ2EGD8N956IANB6XAANXNRD9T","A2DLV3WN24WTDS","3A3KKYU7P33Z3BR9PPFZ5194ZCQMWU","","636.1999999880791","img/animal1.png","75","637.3999999761581","2","0","1","1,0.5,0,0,1,0.5,0.5,0,1",""
"","html-keyboard-response","31","44897","0.0-31.0","3E7TUJ2EGD8N956IANB6XAANXNRD9T","A2DLV3WN24WTDS","3A3KKYU7P33Z3BR9PPFZ5194ZCQMWU","","null","<img src=""img/animal1.png"" style=""width:200px;border:14px solid red;"">","null","","","","","",""
"","image-keyboard-response","32","45534","0.0-32.0","3E7TUJ2EGD8N956IANB6XAANXNRD9T","A2DLV3WN24WTDS","3A3KKYU7P33Z3BR9PPFZ5194ZCQMWU","","635.3000000119209","img/animal5.png","75","636.3000000119209","2","1","2","1,0.5,0,0,1,0.5,0.5,0,1",""
"","html-keyboard-response","33","45836","0.0-33.0","3E7TUJ2EGD8N956IANB6XAANXNRD9T","A2DLV3WN24WTDS","3A3KKYU7P33Z3BR9PPFZ5194ZCQMWU","","null","<img src=""img/animal5.png"" style=""width:200px; border:14px solid green;"">","null","","","","","",""
"","image-keyboard-response","34","46664","0.0-34.0","3E7TUJ2EGD8N956IANB6XAANXNRD9T","A2DLV3WN24WTDS","3A3KKYU7P33Z3BR9PPFZ5194ZCQMWU","","826.6000000238419","img/animal2.png","76","828.1000000238419","3","1","3","1,0.5,0,0,1,0.5,0.5,0,1",""
"","html-keyboard-response","35","46967","0.0-35.0","3E7TUJ2EGD8N956IANB6XAANXNRD9T","A2DLV3WN24WTDS","3A3KKYU7P33Z3BR9PPFZ5194ZCQMWU","","null","<img src=""img/animal2.png"" style=""width:200px; border:14px solid green;"">","null","","","","","",""
"","image-keyboard-response","36","47530","0.0-36.0","3E7TUJ2EGD8N956IANB6XAANXNRD9T","A2DLV3WN24WTDS","3A3KKYU7P33Z3BR9PPFZ5194ZCQMWU","","561.3999999761581","img/animal5.png","75","562.5","2","1","2","1,0.5,0,0,1,0.5,0.5,0,1",""
"","html-keyboard-response","37","47831","0.0-37.0","3E7TUJ2EGD8N956IANB6XAANXNRD9T","A2DLV3WN24WTDS","3A3KKYU7P33Z3BR9PPFZ5194ZCQMWU","","null","<img src=""img/animal5.png"" style=""width:200px; border:14px solid green;"">","null","","","","","",""
"","image-keyboard-response","38","48452","0.0-38.0","3E7TUJ2EGD8N956IANB6XAANXNRD9T","A2DLV3WN24WTDS","3A3KKYU7P33Z3BR9PPFZ5194ZCQMWU","","619.4000000357628","img/animal2.png","76","620.3999999761581","3","1","3","1,0.5,0,0,1,0.5,0.5,0,1",""
"","html-keyboard-response","39","48755","0.0-39.0","3E7TUJ2EGD8N956IANB6XAANXNRD9T","A2DLV3WN24WTDS","3A3KKYU7P33Z3BR9PPFZ5194ZCQMWU","","null","<img src=""img/animal2.png"" style=""width:200px; border:14px solid green;"">","null","","","","","",""
"","image-keyboard-response","40","49528","0.0-40.0","3E7TUJ2EGD8N956IANB6XAANXNRD9T","A2DLV3WN24WTDS","3A3KKYU7P33Z3BR9PPFZ5194ZCQMWU","","771.6000000238419","img/animal1.png","75","772.8999999761581","2","1","1","1,0.5,0,0,1,0.5,0.5,0,1",""
"","html-keyboard-response","41","49831","0.0-41.0","3E7TUJ2EGD8N956IANB6XAANXNRD9T","A2DLV3WN24WTDS","3A3KKYU7P33Z3BR9PPFZ5194ZCQMWU","","null","<img src=""img/animal1.png"" style=""width:200px; border:14px solid green;"">","null","","","","","",""
"","image-keyboard-response","42","50401","0.0-42.0","3E7TUJ2EGD8N956IANB6XAANXNRD9T","A2DLV3WN24WTDS","3A3KKYU7P33Z3BR9PPFZ5194ZCQMWU","","569","img/animal2.png","76","570","3","1","3","1,0.5,0,0,1,0.5,0.5,0,1",""
"","html-keyboard-response","43","50703","0.0-43.0","3E7TUJ2EGD8N956IANB6XAANXNRD9T","A2DLV3WN24WTDS","3A3KKYU7P33Z3BR9PPFZ5194ZCQMWU","","null","<img src=""img/animal2.png"" style=""width:200px; border:14px solid green;"">","null","","","","","",""
"","image-keyboard-response","44","51460","0.0-44.0","3E7TUJ2EGD8N956IANB6XAANXNRD9T","A2DLV3WN24WTDS","3A3KKYU7P33Z3BR9PPFZ5194ZCQMWU","","755.3000000119209","img/animal1.png","75","756.3999999761581","2","0","1","1,0.5,0,0,1,0.5,0.5,0,1",""
"","html-keyboard-response","45","51762","0.0-45.0","3E7TUJ2EGD8N956IANB6XAANXNRD9T","A2DLV3WN24WTDS","3A3KKYU7P33Z3BR9PPFZ5194ZCQMWU","","null","<img src=""img/animal1.png"" style=""width:200px;border:14px solid red;"">","null","","","","","",""
"","image-keyboard-response","46","52256","0.0-46.0","3E7TUJ2EGD8N956IANB6XAANXNRD9T","A2DLV3WN24WTDS","3A3KKYU7P33Z3BR9PPFZ5194ZCQMWU","","492.69999998807907","img/animal2.png","74","493.69999998807907","1","0","3","1,0.5,0,0,1,0.5,0.5,0,1",""
"","html-keyboard-response","47","52559","0.0-47.0","3E7TUJ2EGD8N956IANB6XAANXNRD9T","A2DLV3WN24WTDS","3A3KKYU7P33Z3BR9PPFZ5194ZCQMWU","","null","<img src=""img/animal2.png"" style=""width:200px;border:14px solid red;"">","null","","","","","",""
"","image-keyboard-response","48","52995","0.0-48.0","3E7TUJ2EGD8N956IANB6XAANXNRD9T","A2DLV3WN24WTDS","3A3KKYU7P33Z3BR9PPFZ5194ZCQMWU","","434.7000000476837","img/animal1.png","76","435.89999997615814","3","0","1","1,0.5,0,0,1,0.5,0.5,0,1",""
"","html-keyboard-response","49","53297","0.0-49.0","3E7TUJ2EGD8N956IANB6XAANXNRD9T","A2DLV3WN24WTDS","3A3KKYU7P33Z3BR9PPFZ5194ZCQMWU","","null","<img src=""img/animal1.png"" style=""width:200px;border:14px solid red;"">","null","","","","","",""
"","image-keyboard-response","50","54202","0.0-50.0","3E7TUJ2EGD8N956IANB6XAANXNRD9T","A2DLV3WN24WTDS","3A3KKYU7P33Z3BR9PPFZ5194ZCQMWU","","903.8999999761581","img/animal5.png","75","904.9000000357628","2","1","2","1,0.5,0,0,1,0.5,0.5,0,1",""
"","html-keyboard-response","51","54504","0.0-51.0","3E7TUJ2EGD8N956IANB6XAANXNRD9T","A2DLV3WN24WTDS","3A3KKYU7P33Z3BR9PPFZ5194ZCQMWU","","null","<img src=""img/animal5.png"" style=""width:200px; border:14px solid green;"">","null","","","","","",""
"","image-keyboard-response","52","55565","0.0-52.0","3E7TUJ2EGD8N956IANB6XAANXNRD9T","A2DLV3WN24WTDS","3A3KKYU7P33Z3BR9PPFZ5194ZCQMWU","","1059.5","img/animal1.png","75","1060.7999999523163","2","0","1","1,0.5,0,0,1,0.5,0.5,0,1",""
"","html-keyboard-response","53","55868","0.0-53.0","3E7TUJ2EGD8N956IANB6XAANXNRD9T","A2DLV3WN24WTDS","3A3KKYU7P33Z3BR9PPFZ5194ZCQMWU","","null","<img src=""img/animal1.png"" style=""width:200px;border:14px solid red;"">","null","","","","","",""
"","image-keyboard-response","54","57122","0.0-54.0","3E7TUJ2EGD8N956IANB6XAANXNRD9T","A2DLV3WN24WTDS","3A3KKYU7P33Z3BR9PPFZ5194ZCQMWU","","1252.699999988079","img/animal5.png","75","1254","2","1","2","1,0.5,0,0,1,0.5,0.5,0,1",""
"","html-keyboard-response","55","57424","0.0-55.0","3E7TUJ2EGD8N956IANB6XAANXNRD9T","A2DLV3WN24WTDS","3A3KKYU7P33Z3BR9PPFZ5194ZCQMWU","","null","<img src=""img/animal5.png"" style=""width:200px; border:14px solid green;"">","null","","","","","",""
"","image-keyboard-response","56","58418","0.0-56.0","3E7TUJ2EGD8N956IANB6XAANXNRD9T","A2DLV3WN24WTDS","3A3KKYU7P33Z3BR9PPFZ5194ZCQMWU","","992","img/animal5.png","75","993.1000000238419","2","1","2","1,0.5,0,0,1,0.5,0.5,0,1",""
"","html-keyboard-response","57","58721","0.0-57.0","3E7TUJ2EGD8N956IANB6XAANXNRD9T","A2DLV3WN24WTDS","3A3KKYU7P33Z3BR9PPFZ5194ZCQMWU","","null","<img src=""img/animal5.png"" style=""width:200px; border:14px solid green;"">","null","","","","","",""
"","image-keyboard-response","58","59603","0.0-58.0","3E7TUJ2EGD8N956IANB6XAANXNRD9T","A2DLV3WN24WTDS","3A3KKYU7P33Z3BR9PPFZ5194ZCQMWU","","881.3000000119209","img/animal1.png","74","882.3999999761581","1","1","1","1,0.5,0,0,1,0.5,0.5,0,1",""
"","html-keyboard-response","59","59906","0.0-59.0","3E7TUJ2EGD8N956IANB6XAANXNRD9T","A2DLV3WN24WTDS","3A3KKYU7P33Z3BR9PPFZ5194ZCQMWU","","null","<img src=""img/animal1.png"" style=""width:200px; border:14px solid green;"">","null","","","","","",""
"","image-keyboard-response","60","60997","0.0-60.0","3E7TUJ2EGD8N956IANB6XAANXNRD9T","A2DLV3WN24WTDS","3A3KKYU7P33Z3BR9PPFZ5194ZCQMWU","","1089.199999988079","img/animal1.png","74","1090.199999988079","1","1","1","1,0.5,0,0,1,0.5,0.5,0,1",""
"","html-keyboard-response","61","61300","0.0-61.0","3E7TUJ2EGD8N956IANB6XAANXNRD9T","A2DLV3WN24WTDS","3A3KKYU7P33Z3BR9PPFZ5194ZCQMWU","","null","<img src=""img/animal1.png"" style=""width:200px; border:14px solid green;"">","null","","","","","",""
"","image-keyboard-response","62","61992","0.0-62.0","3E7TUJ2EGD8N956IANB6XAANXNRD9T","A2DLV3WN24WTDS","3A3KKYU7P33Z3BR9PPFZ5194ZCQMWU","","690.6999999880791","img/animal2.png","76","691.8999999761581","3","1","3","1,0.5,0,0,1,0.5,0.5,0,1",""
"","html-keyboard-response","63","62294","0.0-63.0","3E7TUJ2EGD8N956IANB6XAANXNRD9T","A2DLV3WN24WTDS","3A3KKYU7P33Z3BR9PPFZ5194ZCQMWU","","null","<img src=""img/animal2.png"" style=""width:200px; border:14px solid green;"">","null","","","","","",""
"","image-keyboard-response","64","63037","0.0-64.0","3E7TUJ2EGD8N956IANB6XAANXNRD9T","A2DLV3WN24WTDS","3A3KKYU7P33Z3BR9PPFZ5194ZCQMWU","","741","img/animal5.png","75","742.8000000119209","2","1","2","1,0.5,0,0,1,0.5,0.5,0,1",""
"","html-keyboard-response","65","63339","0.0-65.0","3E7TUJ2EGD8N956IANB6XAANXNRD9T","A2DLV3WN24WTDS","3A3KKYU7P33Z3BR9PPFZ5194ZCQMWU","","null","<img src=""img/animal5.png"" style=""width:200px; border:14px solid green;"">","null","","","","","",""
"","image-keyboard-response","66","63879","0.0-66.0","3E7TUJ2EGD8N956IANB6XAANXNRD9T","A2DLV3WN24WTDS","3A3KKYU7P33Z3BR9PPFZ5194ZCQMWU","","538.1999999880791","img/animal1.png","74","539.4000000357628","1","1","1","1,0.5,0,0,1,0.5,0.5,0,1",""
"","html-keyboard-response","67","64182","0.0-67.0","3E7TUJ2EGD8N956IANB6XAANXNRD9T","A2DLV3WN24WTDS","3A3KKYU7P33Z3BR9PPFZ5194ZCQMWU","","null","<img src=""img/animal1.png"" style=""width:200px; border:14px solid green;"">","null","","","","","",""
"","image-keyboard-response","68","64686","0.0-68.0","3E7TUJ2EGD8N956IANB6XAANXNRD9T","A2DLV3WN24WTDS","3A3KKYU7P33Z3BR9PPFZ5194ZCQMWU","","502.9000000357628","img/animal1.png","74","503.80000001192093","1","1","1","1,0.5,0,0,1,0.5,0.5,0,1",""
"","html-keyboard-response","69","64988","0.0-69.0","3E7TUJ2EGD8N956IANB6XAANXNRD9T","A2DLV3WN24WTDS","3A3KKYU7P33Z3BR9PPFZ5194ZCQMWU","","null","<img src=""img/animal1.png"" style=""width:200px; border:14px solid green;"">","null","","","","","",""
"","image-keyboard-response","70","65568","0.0-70.0","3E7TUJ2EGD8N956IANB6XAANXNRD9T","A2DLV3WN24WTDS","3A3KKYU7P33Z3BR9PPFZ5194ZCQMWU","","578.5","img/animal5.png","75","579.6999999880791","2","1","2","1,0.5,0,0,1,0.5,0.5,0,1",""
"","html-keyboard-response","71","65870","0.0-71.0","3E7TUJ2EGD8N956IANB6XAANXNRD9T","A2DLV3WN24WTDS","3A3KKYU7P33Z3BR9PPFZ5194ZCQMWU","","null","<img src=""img/animal5.png"" style=""width:200px; border:14px solid green;"">","null","","","","","",""
"","image-keyboard-response","72","66538","0.0-72.0","3E7TUJ2EGD8N956IANB6XAANXNRD9T","A2DLV3WN24WTDS","3A3KKYU7P33Z3BR9PPFZ5194ZCQMWU","","665.5999999642372","img/animal2.png","76","666.6999999880791","3","1","3","1,0.5,0,0,1,0.5,0.5,0,1",""
"","html-keyboard-response","73","66840","0.0-73.0","3E7TUJ2EGD8N956IANB6XAANXNRD9T","A2DLV3WN24WTDS","3A3KKYU7P33Z3BR9PPFZ5194ZCQMWU","","null","<img src=""img/animal2.png"" style=""width:200px; border:14px solid green;"">","null","","","","","",""
"","image-keyboard-response","74","67292","0.0-74.0","3E7TUJ2EGD8N956IANB6XAANXNRD9T","A2DLV3WN24WTDS","3A3KKYU7P33Z3BR9PPFZ5194ZCQMWU","","450.5","img/animal2.png","76","451.4000000357628","3","1","3","1,0.5,0,0,1,0.5,0.5,0,1",""
"","html-keyboard-response","75","67595","0.0-75.0","3E7TUJ2EGD8N956IANB6XAANXNRD9T","A2DLV3WN24WTDS","3A3KKYU7P33Z3BR9PPFZ5194ZCQMWU","","null","<img src=""img/animal2.png"" style=""width:200px; border:14px solid green;"">","null","","","","","",""
"","image-keyboard-response","76","68272","0.0-76.0","3E7TUJ2EGD8N956IANB6XAANXNRD9T","A2DLV3WN24WTDS","3A3KKYU7P33Z3BR9PPFZ5194ZCQMWU","","674.9000000357628","img/animal5.png","75","676.1000000238419","2","1","2","1,0.5,0,0,1,0.5,0.5,0,1",""
"","html-keyboard-response","77","68574","0.0-77.0","3E7TUJ2EGD8N956IANB6XAANXNRD9T","A2DLV3WN24WTDS","3A3KKYU7P33Z3BR9PPFZ5194ZCQMWU","","null","<img src=""img/animal5.png"" style=""width:200px; border:14px solid green;"">","null","","","","","",""
"","image-keyboard-response","78","69157","0.0-78.0","3E7TUJ2EGD8N956IANB6XAANXNRD9T","A2DLV3WN24WTDS","3A3KKYU7P33Z3BR9PPFZ5194ZCQMWU","","581.6000000238419","img/animal1.png","74","582.6000000238419","1","1","1","1,0.5,0,0,1,0.5,0.5,0,1",""
"","html-keyboard-response","79","69460","0.0-79.0","3E7TUJ2EGD8N956IANB6XAANXNRD9T","A2DLV3WN24WTDS","3A3KKYU7P33Z3BR9PPFZ5194ZCQMWU","","null","<img src=""img/animal1.png"" style=""width:200px; border:14px solid green;"">","null","","","","","",""
"","image-keyboard-response","80","70061","0.0-80.0","3E7TUJ2EGD8N956IANB6XAANXNRD9T","A2DLV3WN24WTDS","3A3KKYU7P33Z3BR9PPFZ5194ZCQMWU","","599.4000000357628","img/animal2.png","76","600.3999999761581","3","1","3","1,0.5,0,0,1,0.5,0.5,0,1",""
"","html-keyboard-response","81","70363","0.0-81.0","3E7TUJ2EGD8N956IANB6XAANXNRD9T","A2DLV3WN24WTDS","3A3KKYU7P33Z3BR9PPFZ5194ZCQMWU","","null","<img src=""img/animal2.png"" style=""width:200px; border:14px solid green;"">","null","","","","","",""
"","image-keyboard-response","82","71111","0.0-82.0","3E7TUJ2EGD8N956IANB6XAANXNRD9T","A2DLV3WN24WTDS","3A3KKYU7P33Z3BR9PPFZ5194ZCQMWU","","746.8999999761581","img/animal5.png","75","747.9000000357628","2","1","2","1,0.5,0,0,1,0.5,0.5,0,1",""
"","html-keyboard-response","83","71413","0.0-83.0","3E7TUJ2EGD8N956IANB6XAANXNRD9T","A2DLV3WN24WTDS","3A3KKYU7P33Z3BR9PPFZ5194ZCQMWU","","null","<img src=""img/animal5.png"" style=""width:200px; border:14px solid green;"">","null","","","","","",""
"","image-keyboard-response","84","71892","0.0-84.0","3E7TUJ2EGD8N956IANB6XAANXNRD9T","A2DLV3WN24WTDS","3A3KKYU7P33Z3BR9PPFZ5194ZCQMWU","","477.5999999642372","img/animal5.png","75","478.60000002384186","2","1","2","1,0.5,0,0,1,0.5,0.5,0,1",""
"","html-keyboard-response","85","72195","0.0-85.0","3E7TUJ2EGD8N956IANB6XAANXNRD9T","A2DLV3WN24WTDS","3A3KKYU7P33Z3BR9PPFZ5194ZCQMWU","","null","<img src=""img/animal5.png"" style=""width:200px; border:14px solid green;"">","null","","","","","",""
"","image-keyboard-response","86","72597","0.0-86.0","3E7TUJ2EGD8N956IANB6XAANXNRD9T","A2DLV3WN24WTDS","3A3KKYU7P33Z3BR9PPFZ5194ZCQMWU","","400.80000001192093","img/animal5.png","75","401.80000001192093","2","1","2","1,0.5,0,0,1,0.5,0.5,0,1",""
"","html-keyboard-response","87","72899","0.0-87.0","3E7TUJ2EGD8N956IANB6XAANXNRD9T","A2DLV3WN24WTDS","3A3KKYU7P33Z3BR9PPFZ5194ZCQMWU","","null","<img src=""img/animal5.png"" style=""width:200px; border:14px solid green;"">","null","","","","","",""
"","image-keyboard-response","88","73502","0.0-88.0","3E7TUJ2EGD8N956IANB6XAANXNRD9T","A2DLV3WN24WTDS","3A3KKYU7P33Z3BR9PPFZ5194ZCQMWU","","601.6999999880791","img/animal1.png","74","602.7999999523163","1","1","1","1,0.5,0,0,1,0.5,0.5,0,1",""
"","html-keyboard-response","89","73804","0.0-89.0","3E7TUJ2EGD8N956IANB6XAANXNRD9T","A2DLV3WN24WTDS","3A3KKYU7P33Z3BR9PPFZ5194ZCQMWU","","null","<img src=""img/animal1.png"" style=""width:200px; border:14px solid green;"">","null","","","","","",""
"","image-keyboard-response","90","74231","0.0-90.0","3E7TUJ2EGD8N956IANB6XAANXNRD9T","A2DLV3WN24WTDS","3A3KKYU7P33Z3BR9PPFZ5194ZCQMWU","","425.39999997615814","img/animal1.png","74","426.5","1","1","1","1,0.5,0,0,1,0.5,0.5,0,1",""
"","html-keyboard-response","91","74532","0.0-91.0","3E7TUJ2EGD8N956IANB6XAANXNRD9T","A2DLV3WN24WTDS","3A3KKYU7P33Z3BR9PPFZ5194ZCQMWU","","null","<img src=""img/animal1.png"" style=""width:200px; border:14px solid green;"">","null","","","","","",""
"","image-keyboard-response","92","75147","0.0-92.0","3E7TUJ2EGD8N956IANB6XAANXNRD9T","A2DLV3WN24WTDS","3A3KKYU7P33Z3BR9PPFZ5194ZCQMWU","","612.6999999880791","img/animal5.png","75","613.9000000357628","2","1","2","1,0.5,0,0,1,0.5,0.5,0,1",""
"","html-keyboard-response","93","75449","0.0-93.0","3E7TUJ2EGD8N956IANB6XAANXNRD9T","A2DLV3WN24WTDS","3A3KKYU7P33Z3BR9PPFZ5194ZCQMWU","","null","<img src=""img/animal5.png"" style=""width:200px; border:14px solid green;"">","null","","","","","",""
"","image-keyboard-response","94","75863","0.0-94.0","3E7TUJ2EGD8N956IANB6XAANXNRD9T","A2DLV3WN24WTDS","3A3KKYU7P33Z3BR9PPFZ5194ZCQMWU","","412.5","img/animal5.png","75","413.5","2","1","2","1,0.5,0,0,1,0.5,0.5,0,1",""
"","html-keyboard-response","95","76165","0.0-95.0","3E7TUJ2EGD8N956IANB6XAANXNRD9T","A2DLV3WN24WTDS","3A3KKYU7P33Z3BR9PPFZ5194ZCQMWU","","null","<img src=""img/animal5.png"" style=""width:200px; border:14px solid green;"">","null","","","","","",""
"","image-keyboard-response","96","76852","0.0-96.0","3E7TUJ2EGD8N956IANB6XAANXNRD9T","A2DLV3WN24WTDS","3A3KKYU7P33Z3BR9PPFZ5194ZCQMWU","","685.8999999761581","img/animal2.png","76","686.7000000476837","3","1","3","1,0.5,0,0,1,0.5,0.5,0,1",""
"","html-keyboard-response","97","77154","0.0-97.0","3E7TUJ2EGD8N956IANB6XAANXNRD9T","A2DLV3WN24WTDS","3A3KKYU7P33Z3BR9PPFZ5194ZCQMWU","","null","<img src=""img/animal2.png"" style=""width:200px; border:14px solid green;"">","null","","","","","",""
"","image-keyboard-response","98","77528","0.0-98.0","3E7TUJ2EGD8N956IANB6XAANXNRD9T","A2DLV3WN24WTDS","3A3KKYU7P33Z3BR9PPFZ5194ZCQMWU","","372.30000001192093","img/animal2.png","76","373.19999998807907","3","1","3","1,0.5,0,0,1,0.5,0.5,0,1",""
"","html-keyboard-response","99","77831","0.0-99.0","3E7TUJ2EGD8N956IANB6XAANXNRD9T","A2DLV3WN24WTDS","3A3KKYU7P33Z3BR9PPFZ5194ZCQMWU","","null","<img src=""img/animal2.png"" style=""width:200px; border:14px solid green;"">","null","","","","","",""
"","image-keyboard-response","100","78198","0.0-100.0","3E7TUJ2EGD8N956IANB6XAANXNRD9T","A2DLV3WN24WTDS","3A3KKYU7P33Z3BR9PPFZ5194ZCQMWU","","365.39999997615814","img/animal2.png","76","366.5999999642372","3","1","3","1,0.5,0,0,1,0.5,0.5,0,1",""
"","html-keyboard-response","101","78500","0.0-101.0","3E7TUJ2EGD8N956IANB6XAANXNRD9T","A2DLV3WN24WTDS","3A3KKYU7P33Z3BR9PPFZ5194ZCQMWU","","null","<img src=""img/animal2.png"" style=""width:200px; border:14px solid green;"">","null","","","","","",""
"","image-keyboard-response","102","78865","0.0-102.0","3E7TUJ2EGD8N956IANB6XAANXNRD9T","A2DLV3WN24WTDS","3A3KKYU7P33Z3BR9PPFZ5194ZCQMWU","","363.60000002384186","img/animal2.png","76","364.69999998807907","3","1","3","1,0.5,0,0,1,0.5,0.5,0,1",""
"","html-keyboard-response","103","79167","0.0-103.0","3E7TUJ2EGD8N956IANB6XAANXNRD9T","A2DLV3WN24WTDS","3A3KKYU7P33Z3BR9PPFZ5194ZCQMWU","","null","<img src=""img/animal2.png"" style=""width:200px; border:14px solid green;"">","null","","","","","",""
"","image-keyboard-response","104","79562","0.0-104.0","3E7TUJ2EGD8N956IANB6XAANXNRD9T","A2DLV3WN24WTDS","3A3KKYU7P33Z3BR9PPFZ5194ZCQMWU","","393.5","img/animal2.png","76","394.39999997615814","3","1","3","1,0.5,0,0,1,0.5,0.5,0,1",""
"","html-keyboard-response","105","79864","0.0-105.0","3E7TUJ2EGD8N956IANB6XAANXNRD9T","A2DLV3WN24WTDS","3A3KKYU7P33Z3BR9PPFZ5194ZCQMWU","","null","<img src=""img/animal2.png"" style=""width:200px; border:14px solid green;"">","null","","","","","",""
"","image-keyboard-response","106","80529","0.0-106.0","3E7TUJ2EGD8N956IANB6XAANXNRD9T","A2DLV3WN24WTDS","3A3KKYU7P33Z3BR9PPFZ5194ZCQMWU","","663.6999999880791","img/animal5.png","75","664.4000000357628","2","1","2","1,0.5,0,0,1,0.5,0.5,0,1",""
"","html-keyboard-response","107","80831","0.0-107.0","3E7TUJ2EGD8N956IANB6XAANXNRD9T","A2DLV3WN24WTDS","3A3KKYU7P33Z3BR9PPFZ5194ZCQMWU","","null","<img src=""img/animal5.png"" style=""width:200px; border:14px solid green;"">","null","","","","","",""
"","image-keyboard-response","108","81354","0.0-108.0","3E7TUJ2EGD8N956IANB6XAANXNRD9T","A2DLV3WN24WTDS","3A3KKYU7P33Z3BR9PPFZ5194ZCQMWU","","522","img/animal1.png","74","523","1","1","1","1,0.5,0,0,1,0.5,0.5,0,1",""
"","html-keyboard-response","109","81657","0.0-109.0","3E7TUJ2EGD8N956IANB6XAANXNRD9T","A2DLV3WN24WTDS","3A3KKYU7P33Z3BR9PPFZ5194ZCQMWU","","null","<img src=""img/animal1.png"" style=""width:200px; border:14px solid green;"">","null","","","","","",""
"","image-keyboard-response","110","82048","0.0-110.0","3E7TUJ2EGD8N956IANB6XAANXNRD9T","A2DLV3WN24WTDS","3A3KKYU7P33Z3BR9PPFZ5194ZCQMWU","","389.60000002384186","img/animal1.png","74","390.89999997615814","1","1","1","1,0.5,0,0,1,0.5,0.5,0,1",""
"","html-keyboard-response","111","82360","0.0-111.0","3E7TUJ2EGD8N956IANB6XAANXNRD9T","A2DLV3WN24WTDS","3A3KKYU7P33Z3BR9PPFZ5194ZCQMWU","","null","<img src=""img/animal1.png"" style=""width:200px; border:14px solid green;"">","null","","","","","",""
"","image-keyboard-response","112","82707","0.0-112.0","3E7TUJ2EGD8N956IANB6XAANXNRD9T","A2DLV3WN24WTDS","3A3KKYU7P33Z3BR9PPFZ5194ZCQMWU","","345.19999998807907","img/animal1.png","74","346.80000001192093","1","1","1","1,0.5,0,0,1,0.5,0.5,0,1",""
"","html-keyboard-response","113","83009","0.0-113.0","3E7TUJ2EGD8N956IANB6XAANXNRD9T","A2DLV3WN24WTDS","3A3KKYU7P33Z3BR9PPFZ5194ZCQMWU","","null","<img src=""img/animal1.png"" style=""width:200px; border:14px solid green;"">","null","","","","","",""
"","image-keyboard-response","114","83360","0.0-114.0","3E7TUJ2EGD8N956IANB6XAANXNRD9T","A2DLV3WN24WTDS","3A3KKYU7P33Z3BR9PPFZ5194ZCQMWU","","349.19999998807907","img/animal1.png","74","350.30000001192093","1","1","1","1,0.5,0,0,1,0.5,0.5,0,1",""
"","html-keyboard-response","115","83662","0.0-115.0","3E7TUJ2EGD8N956IANB6XAANXNRD9T","A2DLV3WN24WTDS","3A3KKYU7P33Z3BR9PPFZ5194ZCQMWU","","null","<img src=""img/animal1.png"" style=""width:200px; border:14px solid green;"">","null","","","","","",""
"","image-keyboard-response","116","84024","0.0-116.0","3E7TUJ2EGD8N956IANB6XAANXNRD9T","A2DLV3WN24WTDS","3A3KKYU7P33Z3BR9PPFZ5194ZCQMWU","","359.89999997615814","img/animal1.png","74","360.7999999523163","1","1","1","1,0.5,0,0,1,0.5,0.5,0,1",""
"","html-keyboard-response","117","84326","0.0-117.0","3E7TUJ2EGD8N956IANB6XAANXNRD9T","A2DLV3WN24WTDS","3A3KKYU7P33Z3BR9PPFZ5194ZCQMWU","","null","<img src=""img/animal1.png"" style=""width:200px; border:14px solid green;"">","null","","","","","",""
"","image-keyboard-response","118","84687","0.0-118.0","3E7TUJ2EGD8N956IANB6XAANXNRD9T","A2DLV3WN24WTDS","3A3KKYU7P33Z3BR9PPFZ5194ZCQMWU","","359.10000002384186","img/animal1.png","74","360.19999998807907","1","1","1","1,0.5,0,0,1,0.5,0.5,0,1",""
"","html-keyboard-response","119","84990","0.0-119.0","3E7TUJ2EGD8N956IANB6XAANXNRD9T","A2DLV3WN24WTDS","3A3KKYU7P33Z3BR9PPFZ5194ZCQMWU","","null","<img src=""img/animal1.png"" style=""width:200px; border:14px solid green;"">","null","","","","","",""
"","image-keyboard-response","120","85792","0.0-120.0","3E7TUJ2EGD8N956IANB6XAANXNRD9T","A2DLV3WN24WTDS","3A3KKYU7P33Z3BR9PPFZ5194ZCQMWU","","801.3999999761581","img/animal2.png","76","802.3999999761581","3","1","3","1,0.5,0,0,1,0.5,0.5,0,1",""
"","html-keyboard-response","121","86095","0.0-121.0","3E7TUJ2EGD8N956IANB6XAANXNRD9T","A2DLV3WN24WTDS","3A3KKYU7P33Z3BR9PPFZ5194ZCQMWU","","null","<img src=""img/animal2.png"" style=""width:200px; border:14px solid green;"">","null","","","","","",""
"","image-keyboard-response","122","86834","0.0-122.0","3E7TUJ2EGD8N956IANB6XAANXNRD9T","A2DLV3WN24WTDS","3A3KKYU7P33Z3BR9PPFZ5194ZCQMWU","","737.8999999761581","img/animal1.png","74","739.1999999880791","1","1","1","1,0.5,0,0,1,0.5,0.5,0,1",""
"","html-keyboard-response","123","87136","0.0-123.0","3E7TUJ2EGD8N956IANB6XAANXNRD9T","A2DLV3WN24WTDS","3A3KKYU7P33Z3BR9PPFZ5194ZCQMWU","","null","<img src=""img/animal1.png"" style=""width:200px; border:14px solid green;"">","null","","","","","",""
"","image-keyboard-response","124","87755","0.0-124.0","3E7TUJ2EGD8N956IANB6XAANXNRD9T","A2DLV3WN24WTDS","3A3KKYU7P33Z3BR9PPFZ5194ZCQMWU","","617.5","img/animal1.png","74","618.6999999880791","1","1","1","1,0.5,0,0,1,0.5,0.5,0,1",""
"","html-keyboard-response","125","88057","0.0-125.0","3E7TUJ2EGD8N956IANB6XAANXNRD9T","A2DLV3WN24WTDS","3A3KKYU7P33Z3BR9PPFZ5194ZCQMWU","","null","<img src=""img/animal1.png"" style=""width:200px; border:14px solid green;"">","null","","","","","",""
"","image-keyboard-response","126","88651","0.0-126.0","3E7TUJ2EGD8N956IANB6XAANXNRD9T","A2DLV3WN24WTDS","3A3KKYU7P33Z3BR9PPFZ5194ZCQMWU","","591.8999999761581","img/animal5.png","75","592.7999999523163","2","1","2","1,0.5,0,0,1,0.5,0.5,0,1",""
"","html-keyboard-response","127","88953","0.0-127.0","3E7TUJ2EGD8N956IANB6XAANXNRD9T","A2DLV3WN24WTDS","3A3KKYU7P33Z3BR9PPFZ5194ZCQMWU","","null","<img src=""img/animal5.png"" style=""width:200px; border:14px solid green;"">","null","","","","","",""
"","image-keyboard-response","128","89608","0.0-128.0","3E7TUJ2EGD8N956IANB6XAANXNRD9T","A2DLV3WN24WTDS","3A3KKYU7P33Z3BR9PPFZ5194ZCQMWU","","653.2999999523163","img/animal2.png","76","654.3000000119209","3","1","3","1,0.5,0,0,1,0.5,0.5,0,1",""
"","html-keyboard-response","129","89911","0.0-129.0","3E7TUJ2EGD8N956IANB6XAANXNRD9T","A2DLV3WN24WTDS","3A3KKYU7P33Z3BR9PPFZ5194ZCQMWU","","null","<img src=""img/animal2.png"" style=""width:200px; border:14px solid green;"">","null","","","","","",""
"","image-keyboard-response","130","90293","0.0-130.0","3E7TUJ2EGD8N956IANB6XAANXNRD9T","A2DLV3WN24WTDS","3A3KKYU7P33Z3BR9PPFZ5194ZCQMWU","","381","img/animal2.png","76","382.5","3","1","3","1,0.5,0,0,1,0.5,0.5,0,1",""
"","html-keyboard-response","131","90596","0.0-131.0","3E7TUJ2EGD8N956IANB6XAANXNRD9T","A2DLV3WN24WTDS","3A3KKYU7P33Z3BR9PPFZ5194ZCQMWU","","null","<img src=""img/animal2.png"" style=""width:200px; border:14px solid green;"">","null","","","","","",""
"","image-keyboard-response","132","90926","0.0-132.0","3E7TUJ2EGD8N956IANB6XAANXNRD9T","A2DLV3WN24WTDS","3A3KKYU7P33Z3BR9PPFZ5194ZCQMWU","","328.5","img/animal2.png","76","329.80000001192093","3","1","3","1,0.5,0,0,1,0.5,0.5,0,1",""
"","html-keyboard-response","133","91235","0.0-133.0","3E7TUJ2EGD8N956IANB6XAANXNRD9T","A2DLV3WN24WTDS","3A3KKYU7P33Z3BR9PPFZ5194ZCQMWU","","null","<img src=""img/animal2.png"" style=""width:200px; border:14px solid green;"">","null","","","","","",""
"","image-keyboard-response","134","91969","0.0-134.0","3E7TUJ2EGD8N956IANB6XAANXNRD9T","A2DLV3WN24WTDS","3A3KKYU7P33Z3BR9PPFZ5194ZCQMWU","","733.0999999642372","img/animal1.png","74","733.8999999761581","1","1","1","1,0.5,0,0,1,0.5,0.5,0,1",""
"","html-keyboard-response","135","92272","0.0-135.0","3E7TUJ2EGD8N956IANB6XAANXNRD9T","A2DLV3WN24WTDS","3A3KKYU7P33Z3BR9PPFZ5194ZCQMWU","","null","<img src=""img/animal1.png"" style=""width:200px; border:14px solid green;"">","null","","","","","",""
"","image-keyboard-response","136","92530","0.0-136.0","3E7TUJ2EGD8N956IANB6XAANXNRD9T","A2DLV3WN24WTDS","3A3KKYU7P33Z3BR9PPFZ5194ZCQMWU","","256.4000000357628","img/animal2.png","74","257.7000000476837","1","0","3","1,0.5,0,0,1,0.5,0.5,0,1",""
"","html-keyboard-response","137","92832","0.0-137.0","3E7TUJ2EGD8N956IANB6XAANXNRD9T","A2DLV3WN24WTDS","3A3KKYU7P33Z3BR9PPFZ5194ZCQMWU","","null","<img src=""img/animal2.png"" style=""width:200px;border:14px solid red;"">","null","","","","","",""
"","image-keyboard-response","138","93223","0.0-138.0","3E7TUJ2EGD8N956IANB6XAANXNRD9T","A2DLV3WN24WTDS","3A3KKYU7P33Z3BR9PPFZ5194ZCQMWU","","390.0999999642372","img/animal2.png","76","391.19999998807907","3","1","3","1,0.5,0,0,1,0.5,0.5,0,1",""
"","html-keyboard-response","139","93530","0.0-139.0","3E7TUJ2EGD8N956IANB6XAANXNRD9T","A2DLV3WN24WTDS","3A3KKYU7P33Z3BR9PPFZ5194ZCQMWU","","null","<img src=""img/animal2.png"" style=""width:200px; border:14px solid green;"">","null","","","","","",""
"","image-keyboard-response","140","93953","0.0-140.0","3E7TUJ2EGD8N956IANB6XAANXNRD9T","A2DLV3WN24WTDS","3A3KKYU7P33Z3BR9PPFZ5194ZCQMWU","","422","img/animal2.png","76","423","3","1","3","1,0.5,0,0,1,0.5,0.5,0,1",""
"","html-keyboard-response","141","94255","0.0-141.0","3E7TUJ2EGD8N956IANB6XAANXNRD9T","A2DLV3WN24WTDS","3A3KKYU7P33Z3BR9PPFZ5194ZCQMWU","","null","<img src=""img/animal2.png"" style=""width:200px; border:14px solid green;"">","null","","","","","",""
"","image-keyboard-response","142","94971","0.0-142.0","3E7TUJ2EGD8N956IANB6XAANXNRD9T","A2DLV3WN24WTDS","3A3KKYU7P33Z3BR9PPFZ5194ZCQMWU","","714.3000000119209","img/animal5.png","75","716.1999999880791","2","1","2","1,0.5,0,0,1,0.5,0.5,0,1",""
"","html-keyboard-response","143","95273","0.0-143.0","3E7TUJ2EGD8N956IANB6XAANXNRD9T","A2DLV3WN24WTDS","3A3KKYU7P33Z3BR9PPFZ5194ZCQMWU","","null","<img src=""img/animal5.png"" style=""width:200px; border:14px solid green;"">","null","","","","","",""
"","image-keyboard-response","144","95888","0.0-144.0","3E7TUJ2EGD8N956IANB6XAANXNRD9T","A2DLV3WN24WTDS","3A3KKYU7P33Z3BR9PPFZ5194ZCQMWU","","612.6999999880791","img/animal1.png","74","613.6999999880791","1","1","1","1,0.5,0,0,1,0.5,0.5,0,1",""
"","html-keyboard-response","145","96190","0.0-145.0","3E7TUJ2EGD8N956IANB6XAANXNRD9T","A2DLV3WN24WTDS","3A3KKYU7P33Z3BR9PPFZ5194ZCQMWU","","null","<img src=""img/animal1.png"" style=""width:200px; border:14px solid green;"">","null","","","","","",""
"","image-keyboard-response","146","96874","0.0-146.0","3E7TUJ2EGD8N956IANB6XAANXNRD9T","A2DLV3WN24WTDS","3A3KKYU7P33Z3BR9PPFZ5194ZCQMWU","","682.5","img/animal2.png","76","683.6000000238419","3","1","3","1,0.5,0,0,1,0.5,0.5,0,1",""
"","html-keyboard-response","147","97176","0.0-147.0","3E7TUJ2EGD8N956IANB6XAANXNRD9T","A2DLV3WN24WTDS","3A3KKYU7P33Z3BR9PPFZ5194ZCQMWU","","null","<img src=""img/animal2.png"" style=""width:200px; border:14px solid green;"">","null","","","","","",""
"","image-keyboard-response","148","97912","0.0-148.0","3E7TUJ2EGD8N956IANB6XAANXNRD9T","A2DLV3WN24WTDS","3A3KKYU7P33Z3BR9PPFZ5194ZCQMWU","","734.6999999880791","img/animal5.png","75","735.7000000476837","2","1","2","1,0.5,0,0,1,0.5,0.5,0,1",""
"","html-keyboard-response","149","98215","0.0-149.0","3E7TUJ2EGD8N956IANB6XAANXNRD9T","A2DLV3WN24WTDS","3A3KKYU7P33Z3BR9PPFZ5194ZCQMWU","","null","<img src=""img/animal5.png"" style=""width:200px; border:14px solid green;"">","null","","","","","",""
"","image-keyboard-response","150","98766","0.0-150.0","3E7TUJ2EGD8N956IANB6XAANXNRD9T","A2DLV3WN24WTDS","3A3KKYU7P33Z3BR9PPFZ5194ZCQMWU","","549.1999999880791","img/animal2.png","76","550.1999999880791","3","1","3","1,0.5,0,0,1,0.5,0.5,0,1",""
"","html-keyboard-response","151","99067","0.0-151.0","3E7TUJ2EGD8N956IANB6XAANXNRD9T","A2DLV3WN24WTDS","3A3KKYU7P33Z3BR9PPFZ5194ZCQMWU","","null","<img src=""img/animal2.png"" style=""width:200px; border:14px solid green;"">","null","","","","","",""
"","image-keyboard-response","152","99508","0.0-152.0","3E7TUJ2EGD8N956IANB6XAANXNRD9T","A2DLV3WN24WTDS","3A3KKYU7P33Z3BR9PPFZ5194ZCQMWU","","439.0999999642372","img/animal5.png","75","440.30000001192093","2","1","2","1,0.5,0,0,1,0.5,0.5,0,1",""
"","html-keyboard-response","153","99810","0.0-153.0","3E7TUJ2EGD8N956IANB6XAANXNRD9T","A2DLV3WN24WTDS","3A3KKYU7P33Z3BR9PPFZ5194ZCQMWU","","null","<img src=""img/animal5.png"" style=""width:200px; border:14px solid green;"">","null","","","","","",""
"","image-keyboard-response","154","100358","0.0-154.0","3E7TUJ2EGD8N956IANB6XAANXNRD9T","A2DLV3WN24WTDS","3A3KKYU7P33Z3BR9PPFZ5194ZCQMWU","","546.8999999761581","img/animal5.png","75","548","2","1","2","1,0.5,0,0,1,0.5,0.5,0,1",""
"","html-keyboard-response","155","100660","0.0-155.0","3E7TUJ2EGD8N956IANB6XAANXNRD9T","A2DLV3WN24WTDS","3A3KKYU7P33Z3BR9PPFZ5194ZCQMWU","","null","<img src=""img/animal5.png"" style=""width:200px; border:14px solid green;"">","null","","","","","",""
"","image-keyboard-response","156","101015","0.0-156.0","3E7TUJ2EGD8N956IANB6XAANXNRD9T","A2DLV3WN24WTDS","3A3KKYU7P33Z3BR9PPFZ5194ZCQMWU","","353.7000000476837","img/animal5.png","75","354.5999999642372","2","1","2","1,0.5,0,0,1,0.5,0.5,0,1",""
"","html-keyboard-response","157","101317","0.0-157.0","3E7TUJ2EGD8N956IANB6XAANXNRD9T","A2DLV3WN24WTDS","3A3KKYU7P33Z3BR9PPFZ5194ZCQMWU","","null","<img src=""img/animal5.png"" style=""width:200px; border:14px solid green;"">","null","","","","","",""
"","image-keyboard-response","158","101836","0.0-158.0","3E7TUJ2EGD8N956IANB6XAANXNRD9T","A2DLV3WN24WTDS","3A3KKYU7P33Z3BR9PPFZ5194ZCQMWU","","517","img/animal2.png","76","518.5","3","1","3","1,0.5,0,0,1,0.5,0.5,0,1",""
"","html-keyboard-response","159","102137","0.0-159.0","3E7TUJ2EGD8N956IANB6XAANXNRD9T","A2DLV3WN24WTDS","3A3KKYU7P33Z3BR9PPFZ5194ZCQMWU","","null","<img src=""img/animal2.png"" style=""width:200px; border:14px solid green;"">","null","","","","","",""
"","image-keyboard-response","160","102684","0.0-160.0","3E7TUJ2EGD8N956IANB6XAANXNRD9T","A2DLV3WN24WTDS","3A3KKYU7P33Z3BR9PPFZ5194ZCQMWU","","545.1999999880791","img/animal5.png","75","546.1999999880791","2","1","2","1,0.5,0,0,1,0.5,0.5,0,1",""
"","html-keyboard-response","161","102986","0.0-161.0","3E7TUJ2EGD8N956IANB6XAANXNRD9T","A2DLV3WN24WTDS","3A3KKYU7P33Z3BR9PPFZ5194ZCQMWU","","null","<img src=""img/animal5.png"" style=""width:200px; border:14px solid green;"">","null","","","","","",""
"","image-keyboard-response","162","103399","0.0-162.0","3E7TUJ2EGD8N956IANB6XAANXNRD9T","A2DLV3WN24WTDS","3A3KKYU7P33Z3BR9PPFZ5194ZCQMWU","","411.30000001192093","img/animal5.png","75","412.39999997615814","2","1","2","1,0.5,0,0,1,0.5,0.5,0,1",""
"","html-keyboard-response","163","103701","0.0-163.0","3E7TUJ2EGD8N956IANB6XAANXNRD9T","A2DLV3WN24WTDS","3A3KKYU7P33Z3BR9PPFZ5194ZCQMWU","","null","<img src=""img/animal5.png"" style=""width:200px; border:14px solid green;"">","null","","","","","",""
"","image-keyboard-response","164","104365","0.0-164.0","3E7TUJ2EGD8N956IANB6XAANXNRD9T","A2DLV3WN24WTDS","3A3KKYU7P33Z3BR9PPFZ5194ZCQMWU","","662.8999999761581","img/animal5.png","75","663.7000000476837","2","1","2","1,0.5,0,0,1,0.5,0.5,0,1",""
"","html-keyboard-response","165","104667","0.0-165.0","3E7TUJ2EGD8N956IANB6XAANXNRD9T","A2DLV3WN24WTDS","3A3KKYU7P33Z3BR9PPFZ5194ZCQMWU","","null","<img src=""img/animal5.png"" style=""width:200px; border:14px solid green;"">","null","","","","","",""
"","image-keyboard-response","166","105214","0.0-166.0","3E7TUJ2EGD8N956IANB6XAANXNRD9T","A2DLV3WN24WTDS","3A3KKYU7P33Z3BR9PPFZ5194ZCQMWU","","545.5","img/animal2.png","76","546.5","3","1","3","1,0.5,0,0,1,0.5,0.5,0,1",""
"","html-keyboard-response","167","105516","0.0-167.0","3E7TUJ2EGD8N956IANB6XAANXNRD9T","A2DLV3WN24WTDS","3A3KKYU7P33Z3BR9PPFZ5194ZCQMWU","","null","<img src=""img/animal2.png"" style=""width:200px; border:14px solid green;"">","null","","","","","",""
"","image-keyboard-response","168","106190","0.0-168.0","3E7TUJ2EGD8N956IANB6XAANXNRD9T","A2DLV3WN24WTDS","3A3KKYU7P33Z3BR9PPFZ5194ZCQMWU","","672.6999999880791","img/animal5.png","75","674","2","1","2","1,0.5,0,0,1,0.5,0.5,0,1",""
"","html-keyboard-response","169","106493","0.0-169.0","3E7TUJ2EGD8N956IANB6XAANXNRD9T","A2DLV3WN24WTDS","3A3KKYU7P33Z3BR9PPFZ5194ZCQMWU","","null","<img src=""img/animal5.png"" style=""width:200px; border:14px solid green;"">","null","","","","","",""
"","image-keyboard-response","170","107198","0.0-170.0","3E7TUJ2EGD8N956IANB6XAANXNRD9T","A2DLV3WN24WTDS","3A3KKYU7P33Z3BR9PPFZ5194ZCQMWU","","704.1000000238419","img/animal1.png","74","705.1000000238419","1","1","1","1,0.5,0,0,1,0.5,0.5,0,1",""
"","html-keyboard-response","171","107500","0.0-171.0","3E7TUJ2EGD8N956IANB6XAANXNRD9T","A2DLV3WN24WTDS","3A3KKYU7P33Z3BR9PPFZ5194ZCQMWU","","null","<img src=""img/animal1.png"" style=""width:200px; border:14px solid green;"">","null","","","","","",""
"","image-keyboard-response","172","107852","0.0-172.0","3E7TUJ2EGD8N956IANB6XAANXNRD9T","A2DLV3WN24WTDS","3A3KKYU7P33Z3BR9PPFZ5194ZCQMWU","","349.80000001192093","img/animal1.png","74","350.89999997615814","1","1","1","1,0.5,0,0,1,0.5,0.5,0,1",""
"","html-keyboard-response","173","108154","0.0-173.0","3E7TUJ2EGD8N956IANB6XAANXNRD9T","A2DLV3WN24WTDS","3A3KKYU7P33Z3BR9PPFZ5194ZCQMWU","","null","<img src=""img/animal1.png"" style=""width:200px; border:14px solid green;"">","null","","","","","",""
"","image-keyboard-response","174","108792","0.0-174.0","3E7TUJ2EGD8N956IANB6XAANXNRD9T","A2DLV3WN24WTDS","3A3KKYU7P33Z3BR9PPFZ5194ZCQMWU","","637.1999999880791","img/animal5.png","75","638.3000000119209","2","1","2","1,0.5,0,0,1,0.5,0.5,0,1",""
"","html-keyboard-response","175","109094","0.0-175.0","3E7TUJ2EGD8N956IANB6XAANXNRD9T","A2DLV3WN24WTDS","3A3KKYU7P33Z3BR9PPFZ5194ZCQMWU","","null","<img src=""img/animal5.png"" style=""width:200px; border:14px solid green;"">","null","","","","","",""
"","image-keyboard-response","176","109650","0.0-176.0","3E7TUJ2EGD8N956IANB6XAANXNRD9T","A2DLV3WN24WTDS","3A3KKYU7P33Z3BR9PPFZ5194ZCQMWU","","554","img/animal1.png","74","554.8999999761581","1","1","1","1,0.5,0,0,1,0.5,0.5,0,1",""
"","html-keyboard-response","177","109952","0.0-177.0","3E7TUJ2EGD8N956IANB6XAANXNRD9T","A2DLV3WN24WTDS","3A3KKYU7P33Z3BR9PPFZ5194ZCQMWU","","null","<img src=""img/animal1.png"" style=""width:200px; border:14px solid green;"">","null","","","","","",""
"","image-keyboard-response","178","110397","0.0-178.0","3E7TUJ2EGD8N956IANB6XAANXNRD9T","A2DLV3WN24WTDS","3A3KKYU7P33Z3BR9PPFZ5194ZCQMWU","","444.4000000357628","img/animal1.png","74","445.4000000357628","1","1","1","1,0.5,0,0,1,0.5,0.5,0,1",""
"","html-keyboard-response","179","110700","0.0-179.0","3E7TUJ2EGD8N956IANB6XAANXNRD9T","A2DLV3WN24WTDS","3A3KKYU7P33Z3BR9PPFZ5194ZCQMWU","","null","<img src=""img/animal1.png"" style=""width:200px; border:14px solid green;"">","null","","","","","",""
"","image-keyboard-response","180","111227","0.0-180.0","3E7TUJ2EGD8N956IANB6XAANXNRD9T","A2DLV3WN24WTDS","3A3KKYU7P33Z3BR9PPFZ5194ZCQMWU","","525.3000000119209","img/animal1.png","74","526.3999999761581","1","1","1","1,0.5,0,0,1,0.5,0.5,0,1",""
"","html-keyboard-response","181","111529","0.0-181.0","3E7TUJ2EGD8N956IANB6XAANXNRD9T","A2DLV3WN24WTDS","3A3KKYU7P33Z3BR9PPFZ5194ZCQMWU","","null","<img src=""img/animal1.png"" style=""width:200px; border:14px solid green;"">","null","","","","","",""
"","html-keyboard-response","182","113966","0.0-182.0","3E7TUJ2EGD8N956IANB6XAANXNRD9T","A2DLV3WN24WTDS","3A3KKYU7P33Z3BR9PPFZ5194ZCQMWU","","","","","","","","","",""
"","image-keyboard-response","183","116569","0.0-183.0","3E7TUJ2EGD8N956IANB6XAANXNRD9T","A2DLV3WN24WTDS","3A3KKYU7P33Z3BR9PPFZ5194ZCQMWU","","2600.899999976158","img/animal4.png","74","2602.399999976158","1","1","2","1,0.5,0,1,0,0.5,0.5,0,1",""
"","html-keyboard-response","184","116884","0.0-184.0","3E7TUJ2EGD8N956IANB6XAANXNRD9T","A2DLV3WN24WTDS","3A3KKYU7P33Z3BR9PPFZ5194ZCQMWU","","null","<img src=""img/animal4.png"" style=""width:200px; border:14px solid green;"">","null","","","","","",""
"","image-keyboard-response","185","117710","0.0-185.0","3E7TUJ2EGD8N956IANB6XAANXNRD9T","A2DLV3WN24WTDS","3A3KKYU7P33Z3BR9PPFZ5194ZCQMWU","","824.8999999761581","img/animal3.png","76","825.8000000119209","3","1","3","1,0.5,0,1,0,0.5,0.5,0,1",""
"","html-keyboard-response","186","118013","0.0-186.0","3E7TUJ2EGD8N956IANB6XAANXNRD9T","A2DLV3WN24WTDS","3A3KKYU7P33Z3BR9PPFZ5194ZCQMWU","","null","<img src=""img/animal3.png"" style=""width:200px; border:14px solid green;"">","null","","","","","",""
"","image-keyboard-response","187","118659","0.0-187.0","3E7TUJ2EGD8N956IANB6XAANXNRD9T","A2DLV3WN24WTDS","3A3KKYU7P33Z3BR9PPFZ5194ZCQMWU","","644.6999999880791","img/animal4.png","74","645.8000000119209","1","1","2","1,0.5,0,1,0,0.5,0.5,0,1",""
"","html-keyboard-response","188","118961","0.0-188.0","3E7TUJ2EGD8N956IANB6XAANXNRD9T","A2DLV3WN24WTDS","3A3KKYU7P33Z3BR9PPFZ5194ZCQMWU","","null","<img src=""img/animal4.png"" style=""width:200px; border:14px solid green;"">","null","","","","","",""
"","image-keyboard-response","189","119493","0.0-189.0","3E7TUJ2EGD8N956IANB6XAANXNRD9T","A2DLV3WN24WTDS","3A3KKYU7P33Z3BR9PPFZ5194ZCQMWU","","530.3000000119209","img/animal3.png","76","531.5","3","1","3","1,0.5,0,1,0,0.5,0.5,0,1",""
"","html-keyboard-response","190","119796","0.0-190.0","3E7TUJ2EGD8N956IANB6XAANXNRD9T","A2DLV3WN24WTDS","3A3KKYU7P33Z3BR9PPFZ5194ZCQMWU","","null","<img src=""img/animal3.png"" style=""width:200px; border:14px solid green;"">","null","","","","","",""
"","image-keyboard-response","191","120315","0.0-191.0","3E7TUJ2EGD8N956IANB6XAANXNRD9T","A2DLV3WN24WTDS","3A3KKYU7P33Z3BR9PPFZ5194ZCQMWU","","517.8999999761581","img/animal4.png","74","519.1999999880791","1","1","2","1,0.5,0,1,0,0.5,0.5,0,1",""
"","html-keyboard-response","192","120617","0.0-192.0","3E7TUJ2EGD8N956IANB6XAANXNRD9T","A2DLV3WN24WTDS","3A3KKYU7P33Z3BR9PPFZ5194ZCQMWU","","null","<img src=""img/animal4.png"" style=""width:200px; border:14px solid green;"">","null","","","","","",""
"","image-keyboard-response","193","121310","0.0-193.0","3E7TUJ2EGD8N956IANB6XAANXNRD9T","A2DLV3WN24WTDS","3A3KKYU7P33Z3BR9PPFZ5194ZCQMWU","","691.1999999880791","img/animal4.png","74","692.3000000119209","1","1","2","1,0.5,0,1,0,0.5,0.5,0,1",""
"","html-keyboard-response","194","121612","0.0-194.0","3E7TUJ2EGD8N956IANB6XAANXNRD9T","A2DLV3WN24WTDS","3A3KKYU7P33Z3BR9PPFZ5194ZCQMWU","","null","<img src=""img/animal4.png"" style=""width:200px; border:14px solid green;"">","null","","","","","",""
"","image-keyboard-response","195","122230","0.0-195.0","3E7TUJ2EGD8N956IANB6XAANXNRD9T","A2DLV3WN24WTDS","3A3KKYU7P33Z3BR9PPFZ5194ZCQMWU","","616.4000000357628","img/animal3.png","76","617.4000000357628","3","1","3","1,0.5,0,1,0,0.5,0.5,0,1",""
"","html-keyboard-response","196","122532","0.0-196.0","3E7TUJ2EGD8N956IANB6XAANXNRD9T","A2DLV3WN24WTDS","3A3KKYU7P33Z3BR9PPFZ5194ZCQMWU","","null","<img src=""img/animal3.png"" style=""width:200px; border:14px solid green;"">","null","","","","","",""
"","image-keyboard-response","197","123329","0.0-197.0","3E7TUJ2EGD8N956IANB6XAANXNRD9T","A2DLV3WN24WTDS","3A3KKYU7P33Z3BR9PPFZ5194ZCQMWU","","795.8999999761581","img/animal6.png","75","796.8999999761581","2","0","1","1,0.5,0,1,0,0.5,0.5,0,1",""
"","html-keyboard-response","198","123631","0.0-198.0","3E7TUJ2EGD8N956IANB6XAANXNRD9T","A2DLV3WN24WTDS","3A3KKYU7P33Z3BR9PPFZ5194ZCQMWU","","null","<img src=""img/animal6.png"" style=""width:200px;border:14px solid red;"">","null","","","","","",""
"","image-keyboard-response","199","124217","0.0-199.0","3E7TUJ2EGD8N956IANB6XAANXNRD9T","A2DLV3WN24WTDS","3A3KKYU7P33Z3BR9PPFZ5194ZCQMWU","","585.1999999880791","img/animal6.png","76","586.1000000238419","3","0","1","1,0.5,0,1,0,0.5,0.5,0,1",""
"","html-keyboard-response","200","124520","0.0-200.0","3E7TUJ2EGD8N956IANB6XAANXNRD9T","A2DLV3WN24WTDS","3A3KKYU7P33Z3BR9PPFZ5194ZCQMWU","","null","<img src=""img/animal6.png"" style=""width:200px;border:14px solid red;"">","null","","","","","",""
"","image-keyboard-response","201","125236","0.0-201.0","3E7TUJ2EGD8N956IANB6XAANXNRD9T","A2DLV3WN24WTDS","3A3KKYU7P33Z3BR9PPFZ5194ZCQMWU","","714.6000000238419","img/animal4.png","74","715.6999999880791","1","1","2","1,0.5,0,1,0,0.5,0.5,0,1",""
"","html-keyboard-response","202","125538","0.0-202.0","3E7TUJ2EGD8N956IANB6XAANXNRD9T","A2DLV3WN24WTDS","3A3KKYU7P33Z3BR9PPFZ5194ZCQMWU","","null","<img src=""img/animal4.png"" style=""width:200px; border:14px solid green;"">","null","","","","","",""
"","image-keyboard-response","203","126442","0.0-203.0","3E7TUJ2EGD8N956IANB6XAANXNRD9T","A2DLV3WN24WTDS","3A3KKYU7P33Z3BR9PPFZ5194ZCQMWU","","902.5999999642372","img/animal6.png","74","903.5999999642372","1","1","1","1,0.5,0,1,0,0.5,0.5,0,1",""
"","html-keyboard-response","204","126744","0.0-204.0","3E7TUJ2EGD8N956IANB6XAANXNRD9T","A2DLV3WN24WTDS","3A3KKYU7P33Z3BR9PPFZ5194ZCQMWU","","null","<img src=""img/animal6.png"" style=""width:200px; border:14px solid green;"">","null","","","","","",""
"","image-keyboard-response","205","127791","0.0-205.0","3E7TUJ2EGD8N956IANB6XAANXNRD9T","A2DLV3WN24WTDS","3A3KKYU7P33Z3BR9PPFZ5194ZCQMWU","","1045.300000011921","img/animal6.png","74","1046.7999999523163","1","1","1","1,0.5,0,1,0,0.5,0.5,0,1",""
"","html-keyboard-response","206","128093","0.0-206.0","3E7TUJ2EGD8N956IANB6XAANXNRD9T","A2DLV3WN24WTDS","3A3KKYU7P33Z3BR9PPFZ5194ZCQMWU","","null","<img src=""img/animal6.png"" style=""width:200px; border:14px solid green;"">","null","","","","","",""
"","image-keyboard-response","207","128584","0.0-207.0","3E7TUJ2EGD8N956IANB6XAANXNRD9T","A2DLV3WN24WTDS","3A3KKYU7P33Z3BR9PPFZ5194ZCQMWU","","489.69999998807907","img/animal6.png","74","490.9000000357628","1","1","1","1,0.5,0,1,0,0.5,0.5,0,1",""
"","html-keyboard-response","208","128886","0.0-208.0","3E7TUJ2EGD8N956IANB6XAANXNRD9T","A2DLV3WN24WTDS","3A3KKYU7P33Z3BR9PPFZ5194ZCQMWU","","null","<img src=""img/animal6.png"" style=""width:200px; border:14px solid green;"">","null","","","","","",""
"","image-keyboard-response","209","129573","0.0-209.0","3E7TUJ2EGD8N956IANB6XAANXNRD9T","A2DLV3WN24WTDS","3A3KKYU7P33Z3BR9PPFZ5194ZCQMWU","","684.8999999761581","img/animal3.png","76","686.3999999761581","3","1","3","1,0.5,0,1,0,0.5,0.5,0,1",""
"","html-keyboard-response","210","129875","0.0-210.0","3E7TUJ2EGD8N956IANB6XAANXNRD9T","A2DLV3WN24WTDS","3A3KKYU7P33Z3BR9PPFZ5194ZCQMWU","","null","<img src=""img/animal3.png"" style=""width:200px; border:14px solid green;"">","null","","","","","",""
"","image-keyboard-response","211","130598","0.0-211.0","3E7TUJ2EGD8N956IANB6XAANXNRD9T","A2DLV3WN24WTDS","3A3KKYU7P33Z3BR9PPFZ5194ZCQMWU","","721.3000000119209","img/animal4.png","74","722.6000000238419","1","1","2","1,0.5,0,1,0,0.5,0.5,0,1",""
"","html-keyboard-response","212","130900","0.0-212.0","3E7TUJ2EGD8N956IANB6XAANXNRD9T","A2DLV3WN24WTDS","3A3KKYU7P33Z3BR9PPFZ5194ZCQMWU","","null","<img src=""img/animal4.png"" style=""width:200px; border:14px solid green;"">","null","","","","","",""
"","image-keyboard-response","213","131414","0.0-213.0","3E7TUJ2EGD8N956IANB6XAANXNRD9T","A2DLV3WN24WTDS","3A3KKYU7P33Z3BR9PPFZ5194ZCQMWU","","513.1000000238419","img/animal6.png","74","514.4000000357628","1","1","1","1,0.5,0,1,0,0.5,0.5,0,1",""
"","html-keyboard-response","214","131716","0.0-214.0","3E7TUJ2EGD8N956IANB6XAANXNRD9T","A2DLV3WN24WTDS","3A3KKYU7P33Z3BR9PPFZ5194ZCQMWU","","null","<img src=""img/animal6.png"" style=""width:200px; border:14px solid green;"">","null","","","","","",""
"","image-keyboard-response","215","132313","0.0-215.0","3E7TUJ2EGD8N956IANB6XAANXNRD9T","A2DLV3WN24WTDS","3A3KKYU7P33Z3BR9PPFZ5194ZCQMWU","","595.6999999880791","img/animal4.png","74","596.6999999880791","1","1","2","1,0.5,0,1,0,0.5,0.5,0,1",""
"","html-keyboard-response","216","132615","0.0-216.0","3E7TUJ2EGD8N956IANB6XAANXNRD9T","A2DLV3WN24WTDS","3A3KKYU7P33Z3BR9PPFZ5194ZCQMWU","","null","<img src=""img/animal4.png"" style=""width:200px; border:14px solid green;"">","null","","","","","",""
"","image-keyboard-response","217","133078","0.0-217.0","3E7TUJ2EGD8N956IANB6XAANXNRD9T","A2DLV3WN24WTDS","3A3KKYU7P33Z3BR9PPFZ5194ZCQMWU","","460.80000001192093","img/animal6.png","74","461.80000001192093","1","1","1","1,0.5,0,1,0,0.5,0.5,0,1",""
"","html-keyboard-response","218","133379","0.0-218.0","3E7TUJ2EGD8N956IANB6XAANXNRD9T","A2DLV3WN24WTDS","3A3KKYU7P33Z3BR9PPFZ5194ZCQMWU","","null","<img src=""img/animal6.png"" style=""width:200px; border:14px solid green;"">","null","","","","","",""
"","image-keyboard-response","219","133980","0.0-219.0","3E7TUJ2EGD8N956IANB6XAANXNRD9T","A2DLV3WN24WTDS","3A3KKYU7P33Z3BR9PPFZ5194ZCQMWU","","599.6000000238419","img/animal3.png","76","600.6999999880791","3","1","3","1,0.5,0,1,0,0.5,0.5,0,1",""
"","html-keyboard-response","220","134282","0.0-220.0","3E7TUJ2EGD8N956IANB6XAANXNRD9T","A2DLV3WN24WTDS","3A3KKYU7P33Z3BR9PPFZ5194ZCQMWU","","null","<img src=""img/animal3.png"" style=""width:200px; border:14px solid green;"">","null","","","","","",""
"","image-keyboard-response","221","134684","0.0-221.0","3E7TUJ2EGD8N956IANB6XAANXNRD9T","A2DLV3WN24WTDS","3A3KKYU7P33Z3BR9PPFZ5194ZCQMWU","","400","img/animal3.png","76","401.19999998807907","3","1","3","1,0.5,0,1,0,0.5,0.5,0,1",""
"","html-keyboard-response","222","134986","0.0-222.0","3E7TUJ2EGD8N956IANB6XAANXNRD9T","A2DLV3WN24WTDS","3A3KKYU7P33Z3BR9PPFZ5194ZCQMWU","","null","<img src=""img/animal3.png"" style=""width:200px; border:14px solid green;"">","null","","","","","",""
"","image-keyboard-response","223","135651","0.0-223.0","3E7TUJ2EGD8N956IANB6XAANXNRD9T","A2DLV3WN24WTDS","3A3KKYU7P33Z3BR9PPFZ5194ZCQMWU","","663.4000000357628","img/animal6.png","74","664.6000000238419","1","1","1","1,0.5,0,1,0,0.5,0.5,0,1",""
"","html-keyboard-response","224","135954","0.0-224.0","3E7TUJ2EGD8N956IANB6XAANXNRD9T","A2DLV3WN24WTDS","3A3KKYU7P33Z3BR9PPFZ5194ZCQMWU","","null","<img src=""img/animal6.png"" style=""width:200px; border:14px solid green;"">","null","","","","","",""
"","image-keyboard-response","225","136422","0.0-225.0","3E7TUJ2EGD8N956IANB6XAANXNRD9T","A2DLV3WN24WTDS","3A3KKYU7P33Z3BR9PPFZ5194ZCQMWU","","466.5999999642372","img/animal6.png","74","468.89999997615814","1","1","1","1,0.5,0,1,0,0.5,0.5,0,1",""
"","html-keyboard-response","226","136725","0.0-226.0","3E7TUJ2EGD8N956IANB6XAANXNRD9T","A2DLV3WN24WTDS","3A3KKYU7P33Z3BR9PPFZ5194ZCQMWU","","null","<img src=""img/animal6.png"" style=""width:200px; border:14px solid green;"">","null","","","","","",""
"","image-keyboard-response","227","137406","0.0-227.0","3E7TUJ2EGD8N956IANB6XAANXNRD9T","A2DLV3WN24WTDS","3A3KKYU7P33Z3BR9PPFZ5194ZCQMWU","","679.6999999880791","img/animal3.png","76","681.2000000476837","3","1","3","1,0.5,0,1,0,0.5,0.5,0,1",""
"","html-keyboard-response","228","137709","0.0-228.0","3E7TUJ2EGD8N956IANB6XAANXNRD9T","A2DLV3WN24WTDS","3A3KKYU7P33Z3BR9PPFZ5194ZCQMWU","","null","<img src=""img/animal3.png"" style=""width:200px; border:14px solid green;"">","null","","","","","",""
"","image-keyboard-response","229","138080","0.0-229.0","3E7TUJ2EGD8N956IANB6XAANXNRD9T","A2DLV3WN24WTDS","3A3KKYU7P33Z3BR9PPFZ5194ZCQMWU","","369","img/animal3.png","76","369.80000001192093","3","1","3","1,0.5,0,1,0,0.5,0.5,0,1",""
"","html-keyboard-response","230","138382","0.0-230.0","3E7TUJ2EGD8N956IANB6XAANXNRD9T","A2DLV3WN24WTDS","3A3KKYU7P33Z3BR9PPFZ5194ZCQMWU","","null","<img src=""img/animal3.png"" style=""width:200px; border:14px solid green;"">","null","","","","","",""
"","image-keyboard-response","231","139137","0.0-231.0","3E7TUJ2EGD8N956IANB6XAANXNRD9T","A2DLV3WN24WTDS","3A3KKYU7P33Z3BR9PPFZ5194ZCQMWU","","754","img/animal4.png","74","754.8000000119209","1","1","2","1,0.5,0,1,0,0.5,0.5,0,1",""
"","html-keyboard-response","232","139440","0.0-232.0","3E7TUJ2EGD8N956IANB6XAANXNRD9T","A2DLV3WN24WTDS","3A3KKYU7P33Z3BR9PPFZ5194ZCQMWU","","null","<img src=""img/animal4.png"" style=""width:200px; border:14px solid green;"">","null","","","","","",""
"","image-keyboard-response","233","139816","0.0-233.0","3E7TUJ2EGD8N956IANB6XAANXNRD9T","A2DLV3WN24WTDS","3A3KKYU7P33Z3BR9PPFZ5194ZCQMWU","","374.69999998807907","img/animal4.png","74","375.69999998807907","1","1","2","1,0.5,0,1,0,0.5,0.5,0,1",""
"","html-keyboard-response","234","140118","0.0-234.0","3E7TUJ2EGD8N956IANB6XAANXNRD9T","A2DLV3WN24WTDS","3A3KKYU7P33Z3BR9PPFZ5194ZCQMWU","","null","<img src=""img/animal4.png"" style=""width:200px; border:14px solid green;"">","null","","","","","",""
"","image-keyboard-response","235","140502","0.0-235.0","3E7TUJ2EGD8N956IANB6XAANXNRD9T","A2DLV3WN24WTDS","3A3KKYU7P33Z3BR9PPFZ5194ZCQMWU","","383.60000002384186","img/animal4.png","74","384.89999997615814","1","1","2","1,0.5,0,1,0,0.5,0.5,0,1",""
"","html-keyboard-response","236","140805","0.0-236.0","3E7TUJ2EGD8N956IANB6XAANXNRD9T","A2DLV3WN24WTDS","3A3KKYU7P33Z3BR9PPFZ5194ZCQMWU","","null","<img src=""img/animal4.png"" style=""width:200px; border:14px solid green;"">","null","","","","","",""
"","image-keyboard-response","237","141461","0.0-237.0","3E7TUJ2EGD8N956IANB6XAANXNRD9T","A2DLV3WN24WTDS","3A3KKYU7P33Z3BR9PPFZ5194ZCQMWU","","655","img/animal3.png","76","656.1000000238419","3","1","3","1,0.5,0,1,0,0.5,0.5,0,1",""
"","html-keyboard-response","238","141764","0.0-238.0","3E7TUJ2EGD8N956IANB6XAANXNRD9T","A2DLV3WN24WTDS","3A3KKYU7P33Z3BR9PPFZ5194ZCQMWU","","null","<img src=""img/animal3.png"" style=""width:200px; border:14px solid green;"">","null","","","","","",""
"","image-keyboard-response","239","142520","0.0-239.0","3E7TUJ2EGD8N956IANB6XAANXNRD9T","A2DLV3WN24WTDS","3A3KKYU7P33Z3BR9PPFZ5194ZCQMWU","","754.7999999523163","img/animal6.png","74","755.6999999880791","1","1","1","1,0.5,0,1,0,0.5,0.5,0,1",""
"","html-keyboard-response","240","142822","0.0-240.0","3E7TUJ2EGD8N956IANB6XAANXNRD9T","A2DLV3WN24WTDS","3A3KKYU7P33Z3BR9PPFZ5194ZCQMWU","","null","<img src=""img/animal6.png"" style=""width:200px; border:14px solid green;"">","null","","","","","",""
"","image-keyboard-response","241","143393","0.0-241.0","3E7TUJ2EGD8N956IANB6XAANXNRD9T","A2DLV3WN24WTDS","3A3KKYU7P33Z3BR9PPFZ5194ZCQMWU","","569.6999999880791","img/animal3.png","76","571","3","1","3","1,0.5,0,1,0,0.5,0.5,0,1",""
"","html-keyboard-response","242","143696","0.0-242.0","3E7TUJ2EGD8N956IANB6XAANXNRD9T","A2DLV3WN24WTDS","3A3KKYU7P33Z3BR9PPFZ5194ZCQMWU","","null","<img src=""img/animal3.png"" style=""width:200px; border:14px solid green;"">","null","","","","","",""
"","image-keyboard-response","243","144138","0.0-243.0","3E7TUJ2EGD8N956IANB6XAANXNRD9T","A2DLV3WN24WTDS","3A3KKYU7P33Z3BR9PPFZ5194ZCQMWU","","440.60000002384186","img/animal3.png","76","441.5999999642372","3","1","3","1,0.5,0,1,0,0.5,0.5,0,1",""
"","html-keyboard-response","244","144440","0.0-244.0","3E7TUJ2EGD8N956IANB6XAANXNRD9T","A2DLV3WN24WTDS","3A3KKYU7P33Z3BR9PPFZ5194ZCQMWU","","null","<img src=""img/animal3.png"" style=""width:200px; border:14px solid green;"">","null","","","","","",""
"","image-keyboard-response","245","144940","0.0-245.0","3E7TUJ2EGD8N956IANB6XAANXNRD9T","A2DLV3WN24WTDS","3A3KKYU7P33Z3BR9PPFZ5194ZCQMWU","","498.19999998807907","img/animal6.png","74","499.5","1","1","1","1,0.5,0,1,0,0.5,0.5,0,1",""
"","html-keyboard-response","246","145252","0.0-246.0","3E7TUJ2EGD8N956IANB6XAANXNRD9T","A2DLV3WN24WTDS","3A3KKYU7P33Z3BR9PPFZ5194ZCQMWU","","null","<img src=""img/animal6.png"" style=""width:200px; border:14px solid green;"">","null","","","","","",""
"","image-keyboard-response","247","145900","0.0-247.0","3E7TUJ2EGD8N956IANB6XAANXNRD9T","A2DLV3WN24WTDS","3A3KKYU7P33Z3BR9PPFZ5194ZCQMWU","","646","img/animal3.png","76","647.2999999523163","3","1","3","1,0.5,0,1,0,0.5,0.5,0,1",""
"","html-keyboard-response","248","146202","0.0-248.0","3E7TUJ2EGD8N956IANB6XAANXNRD9T","A2DLV3WN24WTDS","3A3KKYU7P33Z3BR9PPFZ5194ZCQMWU","","null","<img src=""img/animal3.png"" style=""width:200px; border:14px solid green;"">","null","","","","","",""
"","image-keyboard-response","249","146764","0.0-249.0","3E7TUJ2EGD8N956IANB6XAANXNRD9T","A2DLV3WN24WTDS","3A3KKYU7P33Z3BR9PPFZ5194ZCQMWU","","559.9000000357628","img/animal4.png","74","560.9000000357628","1","1","2","1,0.5,0,1,0,0.5,0.5,0,1",""
"","html-keyboard-response","250","147066","0.0-250.0","3E7TUJ2EGD8N956IANB6XAANXNRD9T","A2DLV3WN24WTDS","3A3KKYU7P33Z3BR9PPFZ5194ZCQMWU","","null","<img src=""img/animal4.png"" style=""width:200px; border:14px solid green;"">","null","","","","","",""
"","image-keyboard-response","251","147663","0.0-251.0","3E7TUJ2EGD8N956IANB6XAANXNRD9T","A2DLV3WN24WTDS","3A3KKYU7P33Z3BR9PPFZ5194ZCQMWU","","596.0999999642372","img/animal6.png","74","596.9000000357628","1","1","1","1,0.5,0,1,0,0.5,0.5,0,1",""
"","html-keyboard-response","252","147965","0.0-252.0","3E7TUJ2EGD8N956IANB6XAANXNRD9T","A2DLV3WN24WTDS","3A3KKYU7P33Z3BR9PPFZ5194ZCQMWU","","null","<img src=""img/animal6.png"" style=""width:200px; border:14px solid green;"">","null","","","","","",""
"","image-keyboard-response","253","148328","0.0-253.0","3E7TUJ2EGD8N956IANB6XAANXNRD9T","A2DLV3WN24WTDS","3A3KKYU7P33Z3BR9PPFZ5194ZCQMWU","","361.7000000476837","img/animal6.png","74","362.80000001192093","1","1","1","1,0.5,0,1,0,0.5,0.5,0,1",""
"","html-keyboard-response","254","148643","0.0-254.0","3E7TUJ2EGD8N956IANB6XAANXNRD9T","A2DLV3WN24WTDS","3A3KKYU7P33Z3BR9PPFZ5194ZCQMWU","","null","<img src=""img/animal6.png"" style=""width:200px; border:14px solid green;"">","null","","","","","",""
"","image-keyboard-response","255","149164","0.0-255.0","3E7TUJ2EGD8N956IANB6XAANXNRD9T","A2DLV3WN24WTDS","3A3KKYU7P33Z3BR9PPFZ5194ZCQMWU","","519.3000000119209","img/animal4.png","74","520.3999999761581","1","1","2","1,0.5,0,1,0,0.5,0.5,0,1",""
"","html-keyboard-response","256","149466","0.0-256.0","3E7TUJ2EGD8N956IANB6XAANXNRD9T","A2DLV3WN24WTDS","3A3KKYU7P33Z3BR9PPFZ5194ZCQMWU","","null","<img src=""img/animal4.png"" style=""width:200px; border:14px solid green;"">","null","","","","","",""
"","image-keyboard-response","257","149970","0.0-257.0","3E7TUJ2EGD8N956IANB6XAANXNRD9T","A2DLV3WN24WTDS","3A3KKYU7P33Z3BR9PPFZ5194ZCQMWU","","502.5","img/animal6.png","74","503.5","1","1","1","1,0.5,0,1,0,0.5,0.5,0,1",""
"","html-keyboard-response","258","150272","0.0-258.0","3E7TUJ2EGD8N956IANB6XAANXNRD9T","A2DLV3WN24WTDS","3A3KKYU7P33Z3BR9PPFZ5194ZCQMWU","","null","<img src=""img/animal6.png"" style=""width:200px; border:14px solid green;"">","null","","","","","",""
"","image-keyboard-response","259","150847","0.0-259.0","3E7TUJ2EGD8N956IANB6XAANXNRD9T","A2DLV3WN24WTDS","3A3KKYU7P33Z3BR9PPFZ5194ZCQMWU","","573.5","img/animal3.png","76","574.4000000357628","3","1","3","1,0.5,0,1,0,0.5,0.5,0,1",""
"","html-keyboard-response","260","151150","0.0-260.0","3E7TUJ2EGD8N956IANB6XAANXNRD9T","A2DLV3WN24WTDS","3A3KKYU7P33Z3BR9PPFZ5194ZCQMWU","","null","<img src=""img/animal3.png"" style=""width:200px; border:14px solid green;"">","null","","","","","",""
"","image-keyboard-response","261","151853","0.0-261.0","3E7TUJ2EGD8N956IANB6XAANXNRD9T","A2DLV3WN24WTDS","3A3KKYU7P33Z3BR9PPFZ5194ZCQMWU","","701.4000000357628","img/animal4.png","74","702.3999999761581","1","1","2","1,0.5,0,1,0,0.5,0.5,0,1",""
"","html-keyboard-response","262","152155","0.0-262.0","3E7TUJ2EGD8N956IANB6XAANXNRD9T","A2DLV3WN24WTDS","3A3KKYU7P33Z3BR9PPFZ5194ZCQMWU","","null","<img src=""img/animal4.png"" style=""width:200px; border:14px solid green;"">","null","","","","","",""
"","image-keyboard-response","263","152563","0.0-263.0","3E7TUJ2EGD8N956IANB6XAANXNRD9T","A2DLV3WN24WTDS","3A3KKYU7P33Z3BR9PPFZ5194ZCQMWU","","406.5999999642372","img/animal4.png","74","407.80000001192093","1","1","2","1,0.5,0,1,0,0.5,0.5,0,1",""
"","html-keyboard-response","264","152866","0.0-264.0","3E7TUJ2EGD8N956IANB6XAANXNRD9T","A2DLV3WN24WTDS","3A3KKYU7P33Z3BR9PPFZ5194ZCQMWU","","null","<img src=""img/animal4.png"" style=""width:200px; border:14px solid green;"">","null","","","","","",""
"","image-keyboard-response","265","153521","0.0-265.0","3E7TUJ2EGD8N956IANB6XAANXNRD9T","A2DLV3WN24WTDS","3A3KKYU7P33Z3BR9PPFZ5194ZCQMWU","","654.4000000357628","img/animal6.png","74","655.6999999880791","1","1","1","1,0.5,0,1,0,0.5,0.5,0,1",""
"","html-keyboard-response","266","153823","0.0-266.0","3E7TUJ2EGD8N956IANB6XAANXNRD9T","A2DLV3WN24WTDS","3A3KKYU7P33Z3BR9PPFZ5194ZCQMWU","","null","<img src=""img/animal6.png"" style=""width:200px; border:14px solid green;"">","null","","","","","",""
"","image-keyboard-response","267","154394","0.0-267.0","3E7TUJ2EGD8N956IANB6XAANXNRD9T","A2DLV3WN24WTDS","3A3KKYU7P33Z3BR9PPFZ5194ZCQMWU","","570","img/animal3.png","76","571.3999999761581","3","1","3","1,0.5,0,1,0,0.5,0.5,0,1",""
"","html-keyboard-response","268","154696","0.0-268.0","3E7TUJ2EGD8N956IANB6XAANXNRD9T","A2DLV3WN24WTDS","3A3KKYU7P33Z3BR9PPFZ5194ZCQMWU","","null","<img src=""img/animal3.png"" style=""width:200px; border:14px solid green;"">","null","","","","","",""
"","image-keyboard-response","269","155187","0.0-269.0","3E7TUJ2EGD8N956IANB6XAANXNRD9T","A2DLV3WN24WTDS","3A3KKYU7P33Z3BR9PPFZ5194ZCQMWU","","489.39999997615814","img/animal3.png","76","490.7000000476837","3","1","3","1,0.5,0,1,0,0.5,0.5,0,1",""
"","html-keyboard-response","270","155490","0.0-270.0","3E7TUJ2EGD8N956IANB6XAANXNRD9T","A2DLV3WN24WTDS","3A3KKYU7P33Z3BR9PPFZ5194ZCQMWU","","null","<img src=""img/animal3.png"" style=""width:200px; border:14px solid green;"">","null","","","","","",""
"","image-keyboard-response","271","156127","0.0-271.0","3E7TUJ2EGD8N956IANB6XAANXNRD9T","A2DLV3WN24WTDS","3A3KKYU7P33Z3BR9PPFZ5194ZCQMWU","","635","img/animal6.png","74","636.5","1","1","1","1,0.5,0,1,0,0.5,0.5,0,1",""
"","html-keyboard-response","272","156429","0.0-272.0","3E7TUJ2EGD8N956IANB6XAANXNRD9T","A2DLV3WN24WTDS","3A3KKYU7P33Z3BR9PPFZ5194ZCQMWU","","null","<img src=""img/animal6.png"" style=""width:200px; border:14px solid green;"">","null","","","","","",""
"","image-keyboard-response","273","157127","0.0-273.0","3E7TUJ2EGD8N956IANB6XAANXNRD9T","A2DLV3WN24WTDS","3A3KKYU7P33Z3BR9PPFZ5194ZCQMWU","","696.8999999761581","img/animal4.png","74","697.8999999761581","1","1","2","1,0.5,0,1,0,0.5,0.5,0,1",""
"","html-keyboard-response","274","157430","0.0-274.0","3E7TUJ2EGD8N956IANB6XAANXNRD9T","A2DLV3WN24WTDS","3A3KKYU7P33Z3BR9PPFZ5194ZCQMWU","","null","<img src=""img/animal4.png"" style=""width:200px; border:14px solid green;"">","null","","","","","",""
"","image-keyboard-response","275","158034","0.0-275.0","3E7TUJ2EGD8N956IANB6XAANXNRD9T","A2DLV3WN24WTDS","3A3KKYU7P33Z3BR9PPFZ5194ZCQMWU","","603.2999999523163","img/animal3.png","76","604.1000000238419","3","1","3","1,0.5,0,1,0,0.5,0.5,0,1",""
"","html-keyboard-response","276","158338","0.0-276.0","3E7TUJ2EGD8N956IANB6XAANXNRD9T","A2DLV3WN24WTDS","3A3KKYU7P33Z3BR9PPFZ5194ZCQMWU","","null","<img src=""img/animal3.png"" style=""width:200px; border:14px solid green;"">","null","","","","","",""
"","image-keyboard-response","277","158772","0.0-277.0","3E7TUJ2EGD8N956IANB6XAANXNRD9T","A2DLV3WN24WTDS","3A3KKYU7P33Z3BR9PPFZ5194ZCQMWU","","432.5","img/animal4.png","74","433.5999999642372","1","1","2","1,0.5,0,1,0,0.5,0.5,0,1",""
"","html-keyboard-response","278","159074","0.0-278.0","3E7TUJ2EGD8N956IANB6XAANXNRD9T","A2DLV3WN24WTDS","3A3KKYU7P33Z3BR9PPFZ5194ZCQMWU","","null","<img src=""img/animal4.png"" style=""width:200px; border:14px solid green;"">","null","","","","","",""
"","image-keyboard-response","279","159618","0.0-279.0","3E7TUJ2EGD8N956IANB6XAANXNRD9T","A2DLV3WN24WTDS","3A3KKYU7P33Z3BR9PPFZ5194ZCQMWU","","542.1999999880791","img/animal3.png","76","543.1000000238419","3","1","3","1,0.5,0,1,0,0.5,0.5,0,1",""
"","html-keyboard-response","280","159920","0.0-280.0","3E7TUJ2EGD8N956IANB6XAANXNRD9T","A2DLV3WN24WTDS","3A3KKYU7P33Z3BR9PPFZ5194ZCQMWU","","null","<img src=""img/animal3.png"" style=""width:200px; border:14px solid green;"">","null","","","","","",""
"","image-keyboard-response","281","160518","0.0-281.0","3E7TUJ2EGD8N956IANB6XAANXNRD9T","A2DLV3WN24WTDS","3A3KKYU7P33Z3BR9PPFZ5194ZCQMWU","","596.5999999642372","img/animal6.png","74","597.5","1","1","1","1,0.5,0,1,0,0.5,0.5,0,1",""
"","html-keyboard-response","282","160820","0.0-282.0","3E7TUJ2EGD8N956IANB6XAANXNRD9T","A2DLV3WN24WTDS","3A3KKYU7P33Z3BR9PPFZ5194ZCQMWU","","null","<img src=""img/animal6.png"" style=""width:200px; border:14px solid green;"">","null","","","","","",""
"","image-keyboard-response","283","161375","0.0-283.0","3E7TUJ2EGD8N956IANB6XAANXNRD9T","A2DLV3WN24WTDS","3A3KKYU7P33Z3BR9PPFZ5194ZCQMWU","","553.6999999880791","img/animal4.png","74","555.0999999642372","1","1","2","1,0.5,0,1,0,0.5,0.5,0,1",""
"","html-keyboard-response","284","161678","0.0-284.0","3E7TUJ2EGD8N956IANB6XAANXNRD9T","A2DLV3WN24WTDS","3A3KKYU7P33Z3BR9PPFZ5194ZCQMWU","","null","<img src=""img/animal4.png"" style=""width:200px; border:14px solid green;"">","null","","","","","",""
"","image-keyboard-response","285","162148","0.0-285.0","3E7TUJ2EGD8N956IANB6XAANXNRD9T","A2DLV3WN24WTDS","3A3KKYU7P33Z3BR9PPFZ5194ZCQMWU","","469.19999998807907","img/animal3.png","74","470.10000002384186","1","0","3","1,0.5,0,1,0,0.5,0.5,0,1",""
"","html-keyboard-response","286","162450","0.0-286.0","3E7TUJ2EGD8N956IANB6XAANXNRD9T","A2DLV3WN24WTDS","3A3KKYU7P33Z3BR9PPFZ5194ZCQMWU","","null","<img src=""img/animal3.png"" style=""width:200px;border:14px solid red;"">","null","","","","","",""
"","image-keyboard-response","287","162984","0.0-287.0","3E7TUJ2EGD8N956IANB6XAANXNRD9T","A2DLV3WN24WTDS","3A3KKYU7P33Z3BR9PPFZ5194ZCQMWU","","532.5","img/animal3.png","76","533.6999999880791","3","1","3","1,0.5,0,1,0,0.5,0.5,0,1",""
"","html-keyboard-response","288","163286","0.0-288.0","3E7TUJ2EGD8N956IANB6XAANXNRD9T","A2DLV3WN24WTDS","3A3KKYU7P33Z3BR9PPFZ5194ZCQMWU","","null","<img src=""img/animal3.png"" style=""width:200px; border:14px solid green;"">","null","","","","","",""
"","image-keyboard-response","289","164005","0.0-289.0","3E7TUJ2EGD8N956IANB6XAANXNRD9T","A2DLV3WN24WTDS","3A3KKYU7P33Z3BR9PPFZ5194ZCQMWU","","716.9000000357628","img/animal3.png","76","718","3","1","3","1,0.5,0,1,0,0.5,0.5,0,1",""
"","html-keyboard-response","290","164306","0.0-290.0","3E7TUJ2EGD8N956IANB6XAANXNRD9T","A2DLV3WN24WTDS","3A3KKYU7P33Z3BR9PPFZ5194ZCQMWU","","null","<img src=""img/animal3.png"" style=""width:200px; border:14px solid green;"">","null","","","","","",""
"","image-keyboard-response","291","164841","0.0-291.0","3E7TUJ2EGD8N956IANB6XAANXNRD9T","A2DLV3WN24WTDS","3A3KKYU7P33Z3BR9PPFZ5194ZCQMWU","","534","img/animal4.png","74","535.0999999642372","1","1","2","1,0.5,0,1,0,0.5,0.5,0,1",""
"","html-keyboard-response","292","165143","0.0-292.0","3E7TUJ2EGD8N956IANB6XAANXNRD9T","A2DLV3WN24WTDS","3A3KKYU7P33Z3BR9PPFZ5194ZCQMWU","","null","<img src=""img/animal4.png"" style=""width:200px; border:14px solid green;"">","null","","","","","",""
"","image-keyboard-response","293","165729","0.0-293.0","3E7TUJ2EGD8N956IANB6XAANXNRD9T","A2DLV3WN24WTDS","3A3KKYU7P33Z3BR9PPFZ5194ZCQMWU","","584","img/animal4.png","74","585.3000000119209","1","1","2","1,0.5,0,1,0,0.5,0.5,0,1",""
"","html-keyboard-response","294","166031","0.0-294.0","3E7TUJ2EGD8N956IANB6XAANXNRD9T","A2DLV3WN24WTDS","3A3KKYU7P33Z3BR9PPFZ5194ZCQMWU","","null","<img src=""img/animal4.png"" style=""width:200px; border:14px solid green;"">","null","","","","","",""
"","image-keyboard-response","295","166632","0.0-295.0","3E7TUJ2EGD8N956IANB6XAANXNRD9T","A2DLV3WN24WTDS","3A3KKYU7P33Z3BR9PPFZ5194ZCQMWU","","599.3999999761581","img/animal6.png","74","600.3999999761581","1","1","1","1,0.5,0,1,0,0.5,0.5,0,1",""
"","html-keyboard-response","296","166934","0.0-296.0","3E7TUJ2EGD8N956IANB6XAANXNRD9T","A2DLV3WN24WTDS","3A3KKYU7P33Z3BR9PPFZ5194ZCQMWU","","null","<img src=""img/animal6.png"" style=""width:200px; border:14px solid green;"">","null","","","","","",""
"","image-keyboard-response","297","167462","0.0-297.0","3E7TUJ2EGD8N956IANB6XAANXNRD9T","A2DLV3WN24WTDS","3A3KKYU7P33Z3BR9PPFZ5194ZCQMWU","","525","img/animal4.png","74","527.1999999880791","1","1","2","1,0.5,0,1,0,0.5,0.5,0,1",""
"","html-keyboard-response","298","167764","0.0-298.0","3E7TUJ2EGD8N956IANB6XAANXNRD9T","A2DLV3WN24WTDS","3A3KKYU7P33Z3BR9PPFZ5194ZCQMWU","","null","<img src=""img/animal4.png"" style=""width:200px; border:14px solid green;"">","null","","","","","",""
"","image-keyboard-response","299","168309","0.0-299.0","3E7TUJ2EGD8N956IANB6XAANXNRD9T","A2DLV3WN24WTDS","3A3KKYU7P33Z3BR9PPFZ5194ZCQMWU","","542.5999999642372","img/animal3.png","76","544.1000000238419","3","1","3","1,0.5,0,1,0,0.5,0.5,0,1",""
"","html-keyboard-response","300","168611","0.0-300.0","3E7TUJ2EGD8N956IANB6XAANXNRD9T","A2DLV3WN24WTDS","3A3KKYU7P33Z3BR9PPFZ5194ZCQMWU","","null","<img src=""img/animal3.png"" style=""width:200px; border:14px solid green;"">","null","","","","","",""
"","image-keyboard-response","301","169082","0.0-301.0","3E7TUJ2EGD8N956IANB6XAANXNRD9T","A2DLV3WN24WTDS","3A3KKYU7P33Z3BR9PPFZ5194ZCQMWU","","470.5","img/animal4.png","74","471.5","1","1","2","1,0.5,0,1,0,0.5,0.5,0,1",""
"","html-keyboard-response","302","169384","0.0-302.0","3E7TUJ2EGD8N956IANB6XAANXNRD9T","A2DLV3WN24WTDS","3A3KKYU7P33Z3BR9PPFZ5194ZCQMWU","","null","<img src=""img/animal4.png"" style=""width:200px; border:14px solid green;"">","null","","","","","",""
"","image-keyboard-response","303","170006","0.0-303.0","3E7TUJ2EGD8N956IANB6XAANXNRD9T","A2DLV3WN24WTDS","3A3KKYU7P33Z3BR9PPFZ5194ZCQMWU","","620.8999999761581","img/animal6.png","74","622","1","1","1","1,0.5,0,1,0,0.5,0.5,0,1",""
"","html-keyboard-response","304","170309","0.0-304.0","3E7TUJ2EGD8N956IANB6XAANXNRD9T","A2DLV3WN24WTDS","3A3KKYU7P33Z3BR9PPFZ5194ZCQMWU","","null","<img src=""img/animal6.png"" style=""width:200px; border:14px solid green;"">","null","","","","","",""
"","image-keyboard-response","305","171012","0.0-305.0","3E7TUJ2EGD8N956IANB6XAANXNRD9T","A2DLV3WN24WTDS","3A3KKYU7P33Z3BR9PPFZ5194ZCQMWU","","701.6000000238419","img/animal3.png","76","703.0999999642372","3","1","3","1,0.5,0,1,0,0.5,0.5,0,1",""
"","html-keyboard-response","306","171314","0.0-306.0","3E7TUJ2EGD8N956IANB6XAANXNRD9T","A2DLV3WN24WTDS","3A3KKYU7P33Z3BR9PPFZ5194ZCQMWU","","null","<img src=""img/animal3.png"" style=""width:200px; border:14px solid green;"">","null","","","","","",""
"","image-keyboard-response","307","171774","0.0-307.0","3E7TUJ2EGD8N956IANB6XAANXNRD9T","A2DLV3WN24WTDS","3A3KKYU7P33Z3BR9PPFZ5194ZCQMWU","","458.7000000476837","img/animal4.png","74","459.89999997615814","1","1","2","1,0.5,0,1,0,0.5,0.5,0,1",""
"","html-keyboard-response","308","172076","0.0-308.0","3E7TUJ2EGD8N956IANB6XAANXNRD9T","A2DLV3WN24WTDS","3A3KKYU7P33Z3BR9PPFZ5194ZCQMWU","","null","<img src=""img/animal4.png"" style=""width:200px; border:14px solid green;"">","null","","","","","",""
"","image-keyboard-response","309","172680","0.0-309.0","3E7TUJ2EGD8N956IANB6XAANXNRD9T","A2DLV3WN24WTDS","3A3KKYU7P33Z3BR9PPFZ5194ZCQMWU","","602.2000000476837","img/animal3.png","76","604","3","1","3","1,0.5,0,1,0,0.5,0.5,0,1",""
"","html-keyboard-response","310","172983","0.0-310.0","3E7TUJ2EGD8N956IANB6XAANXNRD9T","A2DLV3WN24WTDS","3A3KKYU7P33Z3BR9PPFZ5194ZCQMWU","","null","<img src=""img/animal3.png"" style=""width:200px; border:14px solid green;"">","null","","","","","",""
"","image-keyboard-response","311","173472","0.0-311.0","3E7TUJ2EGD8N956IANB6XAANXNRD9T","A2DLV3WN24WTDS","3A3KKYU7P33Z3BR9PPFZ5194ZCQMWU","","487.2999999523163","img/animal6.png","74","488.39999997615814","1","1","1","1,0.5,0,1,0,0.5,0.5,0,1",""
"","html-keyboard-response","312","173774","0.0-312.0","3E7TUJ2EGD8N956IANB6XAANXNRD9T","A2DLV3WN24WTDS","3A3KKYU7P33Z3BR9PPFZ5194ZCQMWU","","null","<img src=""img/animal6.png"" style=""width:200px; border:14px solid green;"">","null","","","","","",""
"","image-keyboard-response","313","174318","0.0-313.0","3E7TUJ2EGD8N956IANB6XAANXNRD9T","A2DLV3WN24WTDS","3A3KKYU7P33Z3BR9PPFZ5194ZCQMWU","","542.5","img/animal3.png","76","543.5","3","1","3","1,0.5,0,1,0,0.5,0.5,0,1",""
"","html-keyboard-response","314","174620","0.0-314.0","3E7TUJ2EGD8N956IANB6XAANXNRD9T","A2DLV3WN24WTDS","3A3KKYU7P33Z3BR9PPFZ5194ZCQMWU","","null","<img src=""img/animal3.png"" style=""width:200px; border:14px solid green;"">","null","","","","","",""
"","image-keyboard-response","315","175273","0.0-315.0","3E7TUJ2EGD8N956IANB6XAANXNRD9T","A2DLV3WN24WTDS","3A3KKYU7P33Z3BR9PPFZ5194ZCQMWU","","652","img/animal6.png","74","653.0999999642372","1","1","1","1,0.5,0,1,0,0.5,0.5,0,1",""
"","html-keyboard-response","316","175575","0.0-316.0","3E7TUJ2EGD8N956IANB6XAANXNRD9T","A2DLV3WN24WTDS","3A3KKYU7P33Z3BR9PPFZ5194ZCQMWU","","null","<img src=""img/animal6.png"" style=""width:200px; border:14px solid green;"">","null","","","","","",""
"","image-keyboard-response","317","176115","0.0-317.0","3E7TUJ2EGD8N956IANB6XAANXNRD9T","A2DLV3WN24WTDS","3A3KKYU7P33Z3BR9PPFZ5194ZCQMWU","","538.5","img/animal6.png","74","539.6000000238419","1","1","1","1,0.5,0,1,0,0.5,0.5,0,1",""
"","html-keyboard-response","318","176418","0.0-318.0","3E7TUJ2EGD8N956IANB6XAANXNRD9T","A2DLV3WN24WTDS","3A3KKYU7P33Z3BR9PPFZ5194ZCQMWU","","null","<img src=""img/animal6.png"" style=""width:200px; border:14px solid green;"">","null","","","","","",""
"","image-keyboard-response","319","176864","0.0-319.0","3E7TUJ2EGD8N956IANB6XAANXNRD9T","A2DLV3WN24WTDS","3A3KKYU7P33Z3BR9PPFZ5194ZCQMWU","","445.30000001192093","img/animal6.png","74","446.5999999642372","1","1","1","1,0.5,0,1,0,0.5,0.5,0,1",""
"","html-keyboard-response","320","177167","0.0-320.0","3E7TUJ2EGD8N956IANB6XAANXNRD9T","A2DLV3WN24WTDS","3A3KKYU7P33Z3BR9PPFZ5194ZCQMWU","","null","<img src=""img/animal6.png"" style=""width:200px; border:14px solid green;"">","null","","","","","",""
"","image-keyboard-response","321","177832","0.0-321.0","3E7TUJ2EGD8N956IANB6XAANXNRD9T","A2DLV3WN24WTDS","3A3KKYU7P33Z3BR9PPFZ5194ZCQMWU","","663.6000000238419","img/animal3.png","76","664.7999999523163","3","1","3","1,0.5,0,1,0,0.5,0.5,0,1",""
"","html-keyboard-response","322","178134","0.0-322.0","3E7TUJ2EGD8N956IANB6XAANXNRD9T","A2DLV3WN24WTDS","3A3KKYU7P33Z3BR9PPFZ5194ZCQMWU","","null","<img src=""img/animal3.png"" style=""width:200px; border:14px solid green;"">","null","","","","","",""
"","image-keyboard-response","323","178577","0.0-323.0","3E7TUJ2EGD8N956IANB6XAANXNRD9T","A2DLV3WN24WTDS","3A3KKYU7P33Z3BR9PPFZ5194ZCQMWU","","442.30000001192093","img/animal4.png","74","443.2999999523163","1","1","2","1,0.5,0,1,0,0.5,0.5,0,1",""
"","html-keyboard-response","324","178879","0.0-324.0","3E7TUJ2EGD8N956IANB6XAANXNRD9T","A2DLV3WN24WTDS","3A3KKYU7P33Z3BR9PPFZ5194ZCQMWU","","null","<img src=""img/animal4.png"" style=""width:200px; border:14px solid green;"">","null","","","","","",""
"","image-keyboard-response","325","179392","0.0-325.0","3E7TUJ2EGD8N956IANB6XAANXNRD9T","A2DLV3WN24WTDS","3A3KKYU7P33Z3BR9PPFZ5194ZCQMWU","","511","img/animal4.png","74","512.0999999642372","1","1","2","1,0.5,0,1,0,0.5,0.5,0,1",""
"","html-keyboard-response","326","179695","0.0-326.0","3E7TUJ2EGD8N956IANB6XAANXNRD9T","A2DLV3WN24WTDS","3A3KKYU7P33Z3BR9PPFZ5194ZCQMWU","","null","<img src=""img/animal4.png"" style=""width:200px; border:14px solid green;"">","null","","","","","",""
"","image-keyboard-response","327","180102","0.0-327.0","3E7TUJ2EGD8N956IANB6XAANXNRD9T","A2DLV3WN24WTDS","3A3KKYU7P33Z3BR9PPFZ5194ZCQMWU","","405.89999997615814","img/animal4.png","74","406.89999997615814","1","1","2","1,0.5,0,1,0,0.5,0.5,0,1",""
"","html-keyboard-response","328","180405","0.0-328.0","3E7TUJ2EGD8N956IANB6XAANXNRD9T","A2DLV3WN24WTDS","3A3KKYU7P33Z3BR9PPFZ5194ZCQMWU","","null","<img src=""img/animal4.png"" style=""width:200px; border:14px solid green;"">","null","","","","","",""
"","image-keyboard-response","329","180923","0.0-329.0","3E7TUJ2EGD8N956IANB6XAANXNRD9T","A2DLV3WN24WTDS","3A3KKYU7P33Z3BR9PPFZ5194ZCQMWU","","515.5999999642372","img/animal4.png","74","516.8999999761581","1","1","2","1,0.5,0,1,0,0.5,0.5,0,1",""
"","html-keyboard-response","330","181224","0.0-330.0","3E7TUJ2EGD8N956IANB6XAANXNRD9T","A2DLV3WN24WTDS","3A3KKYU7P33Z3BR9PPFZ5194ZCQMWU","","null","<img src=""img/animal4.png"" style=""width:200px; border:14px solid green;"">","null","","","","","",""
"","image-keyboard-response","331","181969","0.0-331.0","3E7TUJ2EGD8N956IANB6XAANXNRD9T","A2DLV3WN24WTDS","3A3KKYU7P33Z3BR9PPFZ5194ZCQMWU","","742.6000000238419","img/animal6.png","74","743.8999999761581","1","1","1","1,0.5,0,1,0,0.5,0.5,0,1",""
"","html-keyboard-response","332","182272","0.0-332.0","3E7TUJ2EGD8N956IANB6XAANXNRD9T","A2DLV3WN24WTDS","3A3KKYU7P33Z3BR9PPFZ5194ZCQMWU","","null","<img src=""img/animal6.png"" style=""width:200px; border:14px solid green;"">","null","","","","","",""
"","image-keyboard-response","333","182801","0.0-333.0","3E7TUJ2EGD8N956IANB6XAANXNRD9T","A2DLV3WN24WTDS","3A3KKYU7P33Z3BR9PPFZ5194ZCQMWU","","527.9000000357628","img/animal3.png","76","528.8999999761581","3","1","3","1,0.5,0,1,0,0.5,0.5,0,1",""
"","html-keyboard-response","334","183103","0.0-334.0","3E7TUJ2EGD8N956IANB6XAANXNRD9T","A2DLV3WN24WTDS","3A3KKYU7P33Z3BR9PPFZ5194ZCQMWU","","null","<img src=""img/animal3.png"" style=""width:200px; border:14px solid green;"">","null","","","","","",""
"","image-keyboard-response","335","183552","0.0-335.0","3E7TUJ2EGD8N956IANB6XAANXNRD9T","A2DLV3WN24WTDS","3A3KKYU7P33Z3BR9PPFZ5194ZCQMWU","","447.69999998807907","img/animal6.png","74","448.5","1","1","1","1,0.5,0,1,0,0.5,0.5,0,1",""
"","html-keyboard-response","336","183853","0.0-336.0","3E7TUJ2EGD8N956IANB6XAANXNRD9T","A2DLV3WN24WTDS","3A3KKYU7P33Z3BR9PPFZ5194ZCQMWU","","null","<img src=""img/animal6.png"" style=""width:200px; border:14px solid green;"">","null","","","","","",""
"","image-keyboard-response","337","184341","0.0-337.0","3E7TUJ2EGD8N956IANB6XAANXNRD9T","A2DLV3WN24WTDS","3A3KKYU7P33Z3BR9PPFZ5194ZCQMWU","","486.19999998807907","img/animal6.png","74","487.19999998807907","1","1","1","1,0.5,0,1,0,0.5,0.5,0,1",""
"","html-keyboard-response","338","184643","0.0-338.0","3E7TUJ2EGD8N956IANB6XAANXNRD9T","A2DLV3WN24WTDS","3A3KKYU7P33Z3BR9PPFZ5194ZCQMWU","","null","<img src=""img/animal6.png"" style=""width:200px; border:14px solid green;"">","null","","","","","",""
"","image-keyboard-response","339","185210","0.0-339.0","3E7TUJ2EGD8N956IANB6XAANXNRD9T","A2DLV3WN24WTDS","3A3KKYU7P33Z3BR9PPFZ5194ZCQMWU","","565.7000000476837","img/animal4.png","74","567","1","1","2","1,0.5,0,1,0,0.5,0.5,0,1",""
"","html-keyboard-response","340","185513","0.0-340.0","3E7TUJ2EGD8N956IANB6XAANXNRD9T","A2DLV3WN24WTDS","3A3KKYU7P33Z3BR9PPFZ5194ZCQMWU","","null","<img src=""img/animal4.png"" style=""width:200px; border:14px solid green;"">","null","","","","","",""
"","image-keyboard-response","341","186050","0.0-341.0","3E7TUJ2EGD8N956IANB6XAANXNRD9T","A2DLV3WN24WTDS","3A3KKYU7P33Z3BR9PPFZ5194ZCQMWU","","535.5","img/animal6.png","76","536.9000000357628","3","0","1","1,0.5,0,1,0,0.5,0.5,0,1",""
"","html-keyboard-response","342","186353","0.0-342.0","3E7TUJ2EGD8N956IANB6XAANXNRD9T","A2DLV3WN24WTDS","3A3KKYU7P33Z3BR9PPFZ5194ZCQMWU","","null","<img src=""img/animal6.png"" style=""width:200px;border:14px solid red;"">","null","","","","","",""
"","image-keyboard-response","343","186589","0.0-343.0","3E7TUJ2EGD8N956IANB6XAANXNRD9T","A2DLV3WN24WTDS","3A3KKYU7P33Z3BR9PPFZ5194ZCQMWU","","234.30000001192093","img/animal3.png","74","235.4000000357628","1","0","3","1,0.5,0,1,0,0.5,0.5,0,1",""
"","html-keyboard-response","344","186892","0.0-344.0","3E7TUJ2EGD8N956IANB6XAANXNRD9T","A2DLV3WN24WTDS","3A3KKYU7P33Z3BR9PPFZ5194ZCQMWU","","null","<img src=""img/animal3.png"" style=""width:200px;border:14px solid red;"">","null","","","","","",""
"","image-keyboard-response","345","187264","0.0-345.0","3E7TUJ2EGD8N956IANB6XAANXNRD9T","A2DLV3WN24WTDS","3A3KKYU7P33Z3BR9PPFZ5194ZCQMWU","","370.30000001192093","img/animal3.png","76","371.30000001192093","3","1","3","1,0.5,0,1,0,0.5,0.5,0,1",""
"","html-keyboard-response","346","187566","0.0-346.0","3E7TUJ2EGD8N956IANB6XAANXNRD9T","A2DLV3WN24WTDS","3A3KKYU7P33Z3BR9PPFZ5194ZCQMWU","","null","<img src=""img/animal3.png"" style=""width:200px; border:14px solid green;"">","null","","","","","",""
"","image-keyboard-response","347","188173","0.0-347.0","3E7TUJ2EGD8N956IANB6XAANXNRD9T","A2DLV3WN24WTDS","3A3KKYU7P33Z3BR9PPFZ5194ZCQMWU","","605.3999999761581","img/animal4.png","74","606.4000000357628","1","1","2","1,0.5,0,1,0,0.5,0.5,0,1",""
"","html-keyboard-response","348","188475","0.0-348.0","3E7TUJ2EGD8N956IANB6XAANXNRD9T","A2DLV3WN24WTDS","3A3KKYU7P33Z3BR9PPFZ5194ZCQMWU","","null","<img src=""img/animal4.png"" style=""width:200px; border:14px solid green;"">","null","","","","","",""
"","image-keyboard-response","349","189052","0.0-349.0","3E7TUJ2EGD8N956IANB6XAANXNRD9T","A2DLV3WN24WTDS","3A3KKYU7P33Z3BR9PPFZ5194ZCQMWU","","575.3999999761581","img/animal4.png","74","576.3000000119209","1","1","2","1,0.5,0,1,0,0.5,0.5,0,1",""
"","html-keyboard-response","350","189355","0.0-350.0","3E7TUJ2EGD8N956IANB6XAANXNRD9T","A2DLV3WN24WTDS","3A3KKYU7P33Z3BR9PPFZ5194ZCQMWU","","null","<img src=""img/animal4.png"" style=""width:200px; border:14px solid green;"">","null","","","","","",""
"","image-keyboard-response","351","190130","0.0-351.0","3E7TUJ2EGD8N956IANB6XAANXNRD9T","A2DLV3WN24WTDS","3A3KKYU7P33Z3BR9PPFZ5194ZCQMWU","","773.4000000357628","img/animal4.png","74","774.4000000357628","1","1","2","1,0.5,0,1,0,0.5,0.5,0,1",""
"","html-keyboard-response","352","190432","0.0-352.0","3E7TUJ2EGD8N956IANB6XAANXNRD9T","A2DLV3WN24WTDS","3A3KKYU7P33Z3BR9PPFZ5194ZCQMWU","","null","<img src=""img/animal4.png"" style=""width:200px; border:14px solid green;"">","null","","","","","",""
"","image-keyboard-response","353","191107","0.0-353.0","3E7TUJ2EGD8N956IANB6XAANXNRD9T","A2DLV3WN24WTDS","3A3KKYU7P33Z3BR9PPFZ5194ZCQMWU","","673.5","img/animal6.png","74","674.5","1","1","1","1,0.5,0,1,0,0.5,0.5,0,1",""
"","html-keyboard-response","354","191410","0.0-354.0","3E7TUJ2EGD8N956IANB6XAANXNRD9T","A2DLV3WN24WTDS","3A3KKYU7P33Z3BR9PPFZ5194ZCQMWU","","null","<img src=""img/animal6.png"" style=""width:200px; border:14px solid green;"">","null","","","","","",""
"","image-keyboard-response","355","191948","0.0-355.0","3E7TUJ2EGD8N956IANB6XAANXNRD9T","A2DLV3WN24WTDS","3A3KKYU7P33Z3BR9PPFZ5194ZCQMWU","","536.5999999642372","img/animal6.png","74","537.7000000476837","1","1","1","1,0.5,0,1,0,0.5,0.5,0,1",""
"","html-keyboard-response","356","192251","0.0-356.0","3E7TUJ2EGD8N956IANB6XAANXNRD9T","A2DLV3WN24WTDS","3A3KKYU7P33Z3BR9PPFZ5194ZCQMWU","","null","<img src=""img/animal6.png"" style=""width:200px; border:14px solid green;"">","null","","","","","",""
"","image-keyboard-response","357","192678","0.0-357.0","3E7TUJ2EGD8N956IANB6XAANXNRD9T","A2DLV3WN24WTDS","3A3KKYU7P33Z3BR9PPFZ5194ZCQMWU","","426.4000000357628","img/animal6.png","74","427.5","1","1","1","1,0.5,0,1,0,0.5,0.5,0,1",""
"","html-keyboard-response","358","192981","0.0-358.0","3E7TUJ2EGD8N956IANB6XAANXNRD9T","A2DLV3WN24WTDS","3A3KKYU7P33Z3BR9PPFZ5194ZCQMWU","","null","<img src=""img/animal6.png"" style=""width:200px; border:14px solid green;"">","null","","","","","",""
"","image-keyboard-response","359","193670","0.0-359.0","3E7TUJ2EGD8N956IANB6XAANXNRD9T","A2DLV3WN24WTDS","3A3KKYU7P33Z3BR9PPFZ5194ZCQMWU","","687.8999999761581","img/animal3.png","76","688.8999999761581","3","1","3","1,0.5,0,1,0,0.5,0.5,0,1",""
"","html-keyboard-response","360","193972","0.0-360.0","3E7TUJ2EGD8N956IANB6XAANXNRD9T","A2DLV3WN24WTDS","3A3KKYU7P33Z3BR9PPFZ5194ZCQMWU","","null","<img src=""img/animal3.png"" style=""width:200px; border:14px solid green;"">","null","","","","","",""
"","image-keyboard-response","361","194456","0.0-361.0","3E7TUJ2EGD8N956IANB6XAANXNRD9T","A2DLV3WN24WTDS","3A3KKYU7P33Z3BR9PPFZ5194ZCQMWU","","481.89999997615814","img/animal3.png","76","483.10000002384186","3","1","3","1,0.5,0,1,0,0.5,0.5,0,1",""
"","html-keyboard-response","362","194759","0.0-362.0","3E7TUJ2EGD8N956IANB6XAANXNRD9T","A2DLV3WN24WTDS","3A3KKYU7P33Z3BR9PPFZ5194ZCQMWU","","null","<img src=""img/animal3.png"" style=""width:200px; border:14px solid green;"">","null","","","","","",""
"","instructions","363","198737","0.0-363.0","3E7TUJ2EGD8N956IANB6XAANXNRD9T","A2DLV3WN24WTDS","3A3KKYU7P33Z3BR9PPFZ5194ZCQMWU","[{""page_index"":0,""viewing_time"":3976.599999964237}]","3977.099999964237","","","","","","","",""
"","survey-text","364","203342","0.0-364.0","3E7TUJ2EGD8N956IANB6XAANXNRD9T","A2DLV3WN24WTDS","3A3KKYU7P33Z3BR9PPFZ5194ZCQMWU","","4601.100000023842","","","","","","","","{""Q0"":""A2DLV3WN24WTDS""}"
