"success","trial_type","trial_index","time_elapsed","internal_node_id","assignmentID","mturkID","hitID","view_history","rt","stimulus","key_press","reactionTime","a","r","s","reward_cond","responses"
"true","fullscreen","0","6233","0.0-0.0","3FE7TXL1LJ96YUPOU02BNM98AW6Q2J","A2FB5UQTR3E0NX","3XEIP58NL09JROET00YR4SOXG94ZLV","","","","","","","","","",""
"","instructions","1","26418","0.0-1.0","3FE7TXL1LJ96YUPOU02BNM98AW6Q2J","A2FB5UQTR3E0NX","3XEIP58NL09JROET00YR4SOXG94ZLV","[{""page_index"":0,""viewing_time"":2685},{""page_index"":1,""viewing_time"":1390.699999988079},{""page_index"":2,""viewing_time"":790.8000000119209},{""page_index"":3,""viewing_time"":4164.199999988079},{""page_index"":4,""viewing_time"":5242.199999988079},{""page_index"":5,""viewing_time"":1264.1000000238419},{""page_index"":6,""viewing_time"":1395.1000000238419},{""page_index"":7,""viewing_time"":3249.199999988079}]","20182.19999998808","","","","","","","",""
"","image-keyboard-response","2","28049","0.0-2.0","3FE7TXL1LJ96YUPOU02BNM98AW6Q2J","A2FB5UQTR3E0NX","3XEIP58NL09JROET00YR4SOXG94ZLV","","1628.2999999523163","img/animal3.png","74","1632","1","0","3","1,0.5,0,0,1,0.5,0.5,0,1",""
"","html-keyboard-response","3","28373","0.0-3.0","3FE7TXL1LJ96YUPOU02BNM98AW6Q2J","A2FB5UQTR3E0NX","3XEIP58NL09JROET00YR4SOXG94ZLV","","null","<img src=""img/animal3.png"" style=""width:200px;border:14px solid red;"">","null","","","","","",""
"","image-keyboard-response","4","28806","0.0-4.0","3FE7TXL1LJ96YUPOU02BNM98AW6Q2J","A2FB5UQTR3E0NX","3XEIP58NL09JROET00YR4SOXG94ZLV","","429.69999998807907","img/animal3.png","75","431.39999997615814","2","0","3","1,0.5,0,0,1,0.5,0.5,0,1",""
"","html-keyboard-response","5","29124","0.0-5.0","3FE7TXL1LJ96YUPOU02BNM98AW6Q2J","A2FB5UQTR3E0NX","3XEIP58NL09JROET00YR4SOXG94ZLV","","null","<img src=""img/animal3.png"" style=""width:200px;border:14px solid red;"">","null","","","","","",""
"","image-keyboard-response","6","29551","0.0-6.0","3FE7TXL1LJ96YUPOU02BNM98AW6Q2J","A2FB5UQTR3E0NX","3XEIP58NL09JROET00YR4SOXG94ZLV","","424.2999999523163","img/animal5.png","76","426.10000002384186","3","0","1","1,0.5,0,0,1,0.5,0.5,0,1",""
"","html-keyboard-response","7","29854","0.0-7.0","3FE7TXL1LJ96YUPOU02BNM98AW6Q2J","A2FB5UQTR3E0NX","3XEIP58NL09JROET00YR4SOXG94ZLV","","null","<img src=""img/animal5.png"" style=""width:200px;border:14px solid red;"">","null","","","","","",""
"","image-keyboard-response","8","30776","0.0-8.0","3FE7TXL1LJ96YUPOU02BNM98AW6Q2J","A2FB5UQTR3E0NX","3XEIP58NL09JROET00YR4SOXG94ZLV","","919.8999999761581","img/animal6.png","76","921.8999999761581","3","1","2","1,0.5,0,0,1,0.5,0.5,0,1",""
"","html-keyboard-response","9","31080","0.0-9.0","3FE7TXL1LJ96YUPOU02BNM98AW6Q2J","A2FB5UQTR3E0NX","3XEIP58NL09JROET00YR4SOXG94ZLV","","null","<img src=""img/animal6.png"" style=""width:200px; border:14px solid green;"">","null","","","","","",""
"","image-keyboard-response","10","31562","0.0-10.0","3FE7TXL1LJ96YUPOU02BNM98AW6Q2J","A2FB5UQTR3E0NX","3XEIP58NL09JROET00YR4SOXG94ZLV","","479.4000000357628","img/animal5.png","75","481.5","2","0","1","1,0.5,0,0,1,0.5,0.5,0,1",""
"","html-keyboard-response","11","31866","0.0-11.0","3FE7TXL1LJ96YUPOU02BNM98AW6Q2J","A2FB5UQTR3E0NX","3XEIP58NL09JROET00YR4SOXG94ZLV","","null","<img src=""img/animal5.png"" style=""width:200px;border:14px solid red;"">","null","","","","","",""
"","image-keyboard-response","12","32871","0.0-12.0","3FE7TXL1LJ96YUPOU02BNM98AW6Q2J","A2FB5UQTR3E0NX","3XEIP58NL09JROET00YR4SOXG94ZLV","","1003.3999999761581","img/animal3.png","75","1005.0999999642372","2","0","3","1,0.5,0,0,1,0.5,0.5,0,1",""
"","html-keyboard-response","13","33175","0.0-13.0","3FE7TXL1LJ96YUPOU02BNM98AW6Q2J","A2FB5UQTR3E0NX","3XEIP58NL09JROET00YR4SOXG94ZLV","","null","<img src=""img/animal3.png"" style=""width:200px;border:14px solid red;"">","null","","","","","",""
"","image-keyboard-response","14","33740","0.0-14.0","3FE7TXL1LJ96YUPOU02BNM98AW6Q2J","A2FB5UQTR3E0NX","3XEIP58NL09JROET00YR4SOXG94ZLV","","563.3999999761581","img/animal5.png","74","565.1999999880791","1","1","1","1,0.5,0,0,1,0.5,0.5,0,1",""
"","html-keyboard-response","15","34044","0.0-15.0","3FE7TXL1LJ96YUPOU02BNM98AW6Q2J","A2FB5UQTR3E0NX","3XEIP58NL09JROET00YR4SOXG94ZLV","","null","<img src=""img/animal5.png"" style=""width:200px; border:14px solid green;"">","null","","","","","",""
"","image-keyboard-response","16","34747","0.0-16.0","3FE7TXL1LJ96YUPOU02BNM98AW6Q2J","A2FB5UQTR3E0NX","3XEIP58NL09JROET00YR4SOXG94ZLV","","700.8000000119209","img/animal6.png","76","702.8000000119209","3","1","2","1,0.5,0,0,1,0.5,0.5,0,1",""
"","html-keyboard-response","17","35051","0.0-17.0","3FE7TXL1LJ96YUPOU02BNM98AW6Q2J","A2FB5UQTR3E0NX","3XEIP58NL09JROET00YR4SOXG94ZLV","","null","<img src=""img/animal6.png"" style=""width:200px; border:14px solid green;"">","null","","","","","",""
"","image-keyboard-response","18","35472","0.0-18.0","3FE7TXL1LJ96YUPOU02BNM98AW6Q2J","A2FB5UQTR3E0NX","3XEIP58NL09JROET00YR4SOXG94ZLV","","419","img/animal3.png","75","421","2","0","3","1,0.5,0,0,1,0.5,0.5,0,1",""
"","html-keyboard-response","19","35775","0.0-19.0","3FE7TXL1LJ96YUPOU02BNM98AW6Q2J","A2FB5UQTR3E0NX","3XEIP58NL09JROET00YR4SOXG94ZLV","","null","<img src=""img/animal3.png"" style=""width:200px;border:14px solid red;"">","null","","","","","",""
"","image-keyboard-response","20","36451","0.0-20.0","3FE7TXL1LJ96YUPOU02BNM98AW6Q2J","A2FB5UQTR3E0NX","3XEIP58NL09JROET00YR4SOXG94ZLV","","673.7000000476837","img/animal6.png","76","675.6000000238419","3","0","2","1,0.5,0,0,1,0.5,0.5,0,1",""
"","html-keyboard-response","21","36754","0.0-21.0","3FE7TXL1LJ96YUPOU02BNM98AW6Q2J","A2FB5UQTR3E0NX","3XEIP58NL09JROET00YR4SOXG94ZLV","","null","<img src=""img/animal6.png"" style=""width:200px;border:14px solid red;"">","null","","","","","",""
"","image-keyboard-response","22","37799","0.0-22.0","3FE7TXL1LJ96YUPOU02BNM98AW6Q2J","A2FB5UQTR3E0NX","3XEIP58NL09JROET00YR4SOXG94ZLV","","1043.199999988079","img/animal5.png","74","1045.199999988079","1","1","1","1,0.5,0,0,1,0.5,0.5,0,1",""
"","html-keyboard-response","23","38102","0.0-23.0","3FE7TXL1LJ96YUPOU02BNM98AW6Q2J","A2FB5UQTR3E0NX","3XEIP58NL09JROET00YR4SOXG94ZLV","","null","<img src=""img/animal5.png"" style=""width:200px; border:14px solid green;"">","null","","","","","",""
"","image-keyboard-response","24","38790","0.0-24.0","3FE7TXL1LJ96YUPOU02BNM98AW6Q2J","A2FB5UQTR3E0NX","3XEIP58NL09JROET00YR4SOXG94ZLV","","685.0999999642372","img/animal6.png","76","686.8000000119209","3","0","2","1,0.5,0,0,1,0.5,0.5,0,1",""
"","html-keyboard-response","25","39093","0.0-25.0","3FE7TXL1LJ96YUPOU02BNM98AW6Q2J","A2FB5UQTR3E0NX","3XEIP58NL09JROET00YR4SOXG94ZLV","","null","<img src=""img/animal6.png"" style=""width:200px;border:14px solid red;"">","null","","","","","",""
"","image-keyboard-response","26","40155","0.0-26.0","3FE7TXL1LJ96YUPOU02BNM98AW6Q2J","A2FB5UQTR3E0NX","3XEIP58NL09JROET00YR4SOXG94ZLV","","1059.800000011921","img/animal3.png","75","1061.800000011921","2","0","3","1,0.5,0,0,1,0.5,0.5,0,1",""
"","html-keyboard-response","27","40457","0.0-27.0","3FE7TXL1LJ96YUPOU02BNM98AW6Q2J","A2FB5UQTR3E0NX","3XEIP58NL09JROET00YR4SOXG94ZLV","","null","<img src=""img/animal3.png"" style=""width:200px;border:14px solid red;"">","null","","","","","",""
"","image-keyboard-response","28","41452","0.0-28.0","3FE7TXL1LJ96YUPOU02BNM98AW6Q2J","A2FB5UQTR3E0NX","3XEIP58NL09JROET00YR4SOXG94ZLV","","993.3000000119209","img/animal6.png","75","994.6999999880791","2","1","2","1,0.5,0,0,1,0.5,0.5,0,1",""
"","html-keyboard-response","29","41755","0.0-29.0","3FE7TXL1LJ96YUPOU02BNM98AW6Q2J","A2FB5UQTR3E0NX","3XEIP58NL09JROET00YR4SOXG94ZLV","","null","<img src=""img/animal6.png"" style=""width:200px; border:14px solid green;"">","null","","","","","",""
"","image-keyboard-response","30","43626","0.0-30.0","3FE7TXL1LJ96YUPOU02BNM98AW6Q2J","A2FB5UQTR3E0NX","3XEIP58NL09JROET00YR4SOXG94ZLV","","1867.300000011921","img/animal6.png","75","1870","2","1","2","1,0.5,0,0,1,0.5,0.5,0,1",""
"","html-keyboard-response","31","43936","0.0-31.0","3FE7TXL1LJ96YUPOU02BNM98AW6Q2J","A2FB5UQTR3E0NX","3XEIP58NL09JROET00YR4SOXG94ZLV","","null","<img src=""img/animal6.png"" style=""width:200px; border:14px solid green;"">","null","","","","","",""
"","image-keyboard-response","32","44832","0.0-32.0","3FE7TXL1LJ96YUPOU02BNM98AW6Q2J","A2FB5UQTR3E0NX","3XEIP58NL09JROET00YR4SOXG94ZLV","","894.2999999523163","img/animal5.png","74","896.1999999880791","1","1","1","1,0.5,0,0,1,0.5,0.5,0,1",""
"","html-keyboard-response","33","45135","0.0-33.0","3FE7TXL1LJ96YUPOU02BNM98AW6Q2J","A2FB5UQTR3E0NX","3XEIP58NL09JROET00YR4SOXG94ZLV","","null","<img src=""img/animal5.png"" style=""width:200px; border:14px solid green;"">","null","","","","","",""
"","image-keyboard-response","34","45878","0.0-34.0","3FE7TXL1LJ96YUPOU02BNM98AW6Q2J","A2FB5UQTR3E0NX","3XEIP58NL09JROET00YR4SOXG94ZLV","","740.6999999880791","img/animal3.png","76","742.1999999880791","3","1","3","1,0.5,0,0,1,0.5,0.5,0,1",""
"","html-keyboard-response","35","46185","0.0-35.0","3FE7TXL1LJ96YUPOU02BNM98AW6Q2J","A2FB5UQTR3E0NX","3XEIP58NL09JROET00YR4SOXG94ZLV","","null","<img src=""img/animal3.png"" style=""width:200px; border:14px solid green;"">","null","","","","","",""
"","image-keyboard-response","36","46679","0.0-36.0","3FE7TXL1LJ96YUPOU02BNM98AW6Q2J","A2FB5UQTR3E0NX","3XEIP58NL09JROET00YR4SOXG94ZLV","","492.10000002384186","img/animal6.png","75","493.89999997615814","2","1","2","1,0.5,0,0,1,0.5,0.5,0,1",""
"","html-keyboard-response","37","46982","0.0-37.0","3FE7TXL1LJ96YUPOU02BNM98AW6Q2J","A2FB5UQTR3E0NX","3XEIP58NL09JROET00YR4SOXG94ZLV","","null","<img src=""img/animal6.png"" style=""width:200px; border:14px solid green;"">","null","","","","","",""
"","image-keyboard-response","38","47776","0.0-38.0","3FE7TXL1LJ96YUPOU02BNM98AW6Q2J","A2FB5UQTR3E0NX","3XEIP58NL09JROET00YR4SOXG94ZLV","","791.2999999523163","img/animal5.png","76","793.0999999642372","3","0","1","1,0.5,0,0,1,0.5,0.5,0,1",""
"","html-keyboard-response","39","48079","0.0-39.0","3FE7TXL1LJ96YUPOU02BNM98AW6Q2J","A2FB5UQTR3E0NX","3XEIP58NL09JROET00YR4SOXG94ZLV","","null","<img src=""img/animal5.png"" style=""width:200px;border:14px solid red;"">","null","","","","","",""
"","image-keyboard-response","40","48883","0.0-40.0","3FE7TXL1LJ96YUPOU02BNM98AW6Q2J","A2FB5UQTR3E0NX","3XEIP58NL09JROET00YR4SOXG94ZLV","","801.7000000476837","img/animal6.png","75","804.1000000238419","2","1","2","1,0.5,0,0,1,0.5,0.5,0,1",""
"","html-keyboard-response","41","49188","0.0-41.0","3FE7TXL1LJ96YUPOU02BNM98AW6Q2J","A2FB5UQTR3E0NX","3XEIP58NL09JROET00YR4SOXG94ZLV","","null","<img src=""img/animal6.png"" style=""width:200px; border:14px solid green;"">","null","","","","","",""
"","image-keyboard-response","42","49760","0.0-42.0","3FE7TXL1LJ96YUPOU02BNM98AW6Q2J","A2FB5UQTR3E0NX","3XEIP58NL09JROET00YR4SOXG94ZLV","","568.3000000119209","img/animal6.png","75","571.4000000357628","2","1","2","1,0.5,0,0,1,0.5,0.5,0,1",""
"","html-keyboard-response","43","50076","0.0-43.0","3FE7TXL1LJ96YUPOU02BNM98AW6Q2J","A2FB5UQTR3E0NX","3XEIP58NL09JROET00YR4SOXG94ZLV","","null","<img src=""img/animal6.png"" style=""width:200px; border:14px solid green;"">","null","","","","","",""
"","image-keyboard-response","44","50718","0.0-44.0","3FE7TXL1LJ96YUPOU02BNM98AW6Q2J","A2FB5UQTR3E0NX","3XEIP58NL09JROET00YR4SOXG94ZLV","","639.6999999880791","img/animal6.png","75","641.5","2","1","2","1,0.5,0,0,1,0.5,0.5,0,1",""
"","html-keyboard-response","45","51021","0.0-45.0","3FE7TXL1LJ96YUPOU02BNM98AW6Q2J","A2FB5UQTR3E0NX","3XEIP58NL09JROET00YR4SOXG94ZLV","","null","<img src=""img/animal6.png"" style=""width:200px; border:14px solid green;"">","null","","","","","",""
"","image-keyboard-response","46","51581","0.0-46.0","3FE7TXL1LJ96YUPOU02BNM98AW6Q2J","A2FB5UQTR3E0NX","3XEIP58NL09JROET00YR4SOXG94ZLV","","557.8000000119209","img/animal3.png","74","560","1","1","3","1,0.5,0,0,1,0.5,0.5,0,1",""
"","html-keyboard-response","47","51884","0.0-47.0","3FE7TXL1LJ96YUPOU02BNM98AW6Q2J","A2FB5UQTR3E0NX","3XEIP58NL09JROET00YR4SOXG94ZLV","","null","<img src=""img/animal3.png"" style=""width:200px; border:14px solid green;"">","null","","","","","",""
"","image-keyboard-response","48","52443","0.0-48.0","3FE7TXL1LJ96YUPOU02BNM98AW6Q2J","A2FB5UQTR3E0NX","3XEIP58NL09JROET00YR4SOXG94ZLV","","556.5","img/animal6.png","75","558.2999999523163","2","1","2","1,0.5,0,0,1,0.5,0.5,0,1",""
"","html-keyboard-response","49","52747","0.0-49.0","3FE7TXL1LJ96YUPOU02BNM98AW6Q2J","A2FB5UQTR3E0NX","3XEIP58NL09JROET00YR4SOXG94ZLV","","null","<img src=""img/animal6.png"" style=""width:200px; border:14px solid green;"">","null","","","","","",""
"","image-keyboard-response","50","53469","0.0-50.0","3FE7TXL1LJ96YUPOU02BNM98AW6Q2J","A2FB5UQTR3E0NX","3XEIP58NL09JROET00YR4SOXG94ZLV","","719.3999999761581","img/animal3.png","74","720.9000000357628","1","0","3","1,0.5,0,0,1,0.5,0.5,0,1",""
"","html-keyboard-response","51","53771","0.0-51.0","3FE7TXL1LJ96YUPOU02BNM98AW6Q2J","A2FB5UQTR3E0NX","3XEIP58NL09JROET00YR4SOXG94ZLV","","null","<img src=""img/animal3.png"" style=""width:200px;border:14px solid red;"">","null","","","","","",""
"","image-keyboard-response","52","54631","0.0-52.0","3FE7TXL1LJ96YUPOU02BNM98AW6Q2J","A2FB5UQTR3E0NX","3XEIP58NL09JROET00YR4SOXG94ZLV","","857.6000000238419","img/animal6.png","75","859.6000000238419","2","1","2","1,0.5,0,0,1,0.5,0.5,0,1",""
"","html-keyboard-response","53","54943","0.0-53.0","3FE7TXL1LJ96YUPOU02BNM98AW6Q2J","A2FB5UQTR3E0NX","3XEIP58NL09JROET00YR4SOXG94ZLV","","null","<img src=""img/animal6.png"" style=""width:200px; border:14px solid green;"">","null","","","","","",""
"","image-keyboard-response","54","55553","0.0-54.0","3FE7TXL1LJ96YUPOU02BNM98AW6Q2J","A2FB5UQTR3E0NX","3XEIP58NL09JROET00YR4SOXG94ZLV","","607.5","img/animal3.png","76","609.2999999523163","3","1","3","1,0.5,0,0,1,0.5,0.5,0,1",""
"","html-keyboard-response","55","55857","0.0-55.0","3FE7TXL1LJ96YUPOU02BNM98AW6Q2J","A2FB5UQTR3E0NX","3XEIP58NL09JROET00YR4SOXG94ZLV","","null","<img src=""img/animal3.png"" style=""width:200px; border:14px solid green;"">","null","","","","","",""
"","image-keyboard-response","56","56499","0.0-56.0","3FE7TXL1LJ96YUPOU02BNM98AW6Q2J","A2FB5UQTR3E0NX","3XEIP58NL09JROET00YR4SOXG94ZLV","","639.8999999761581","img/animal5.png","75","642","2","1","1","1,0.5,0,0,1,0.5,0.5,0,1",""
"","html-keyboard-response","57","56802","0.0-57.0","3FE7TXL1LJ96YUPOU02BNM98AW6Q2J","A2FB5UQTR3E0NX","3XEIP58NL09JROET00YR4SOXG94ZLV","","null","<img src=""img/animal5.png"" style=""width:200px; border:14px solid green;"">","null","","","","","",""
"","image-keyboard-response","58","57721","0.0-58.0","3FE7TXL1LJ96YUPOU02BNM98AW6Q2J","A2FB5UQTR3E0NX","3XEIP58NL09JROET00YR4SOXG94ZLV","","916.6999999880791","img/animal3.png","76","918.6000000238419","3","1","3","1,0.5,0,0,1,0.5,0.5,0,1",""
"","html-keyboard-response","59","58023","0.0-59.0","3FE7TXL1LJ96YUPOU02BNM98AW6Q2J","A2FB5UQTR3E0NX","3XEIP58NL09JROET00YR4SOXG94ZLV","","null","<img src=""img/animal3.png"" style=""width:200px; border:14px solid green;"">","null","","","","","",""
"","image-keyboard-response","60","58796","0.0-60.0","3FE7TXL1LJ96YUPOU02BNM98AW6Q2J","A2FB5UQTR3E0NX","3XEIP58NL09JROET00YR4SOXG94ZLV","","770","img/animal3.png","76","771.8000000119209","3","1","3","1,0.5,0,0,1,0.5,0.5,0,1",""
"","html-keyboard-response","61","59109","0.0-61.0","3FE7TXL1LJ96YUPOU02BNM98AW6Q2J","A2FB5UQTR3E0NX","3XEIP58NL09JROET00YR4SOXG94ZLV","","null","<img src=""img/animal3.png"" style=""width:200px; border:14px solid green;"">","null","","","","","",""
"","image-keyboard-response","62","59702","0.0-62.0","3FE7TXL1LJ96YUPOU02BNM98AW6Q2J","A2FB5UQTR3E0NX","3XEIP58NL09JROET00YR4SOXG94ZLV","","590.0999999642372","img/animal5.png","75","592.3999999761581","2","1","1","1,0.5,0,0,1,0.5,0.5,0,1",""
"","html-keyboard-response","63","60005","0.0-63.0","3FE7TXL1LJ96YUPOU02BNM98AW6Q2J","A2FB5UQTR3E0NX","3XEIP58NL09JROET00YR4SOXG94ZLV","","null","<img src=""img/animal5.png"" style=""width:200px; border:14px solid green;"">","null","","","","","",""
"","image-keyboard-response","64","60474","0.0-64.0","3FE7TXL1LJ96YUPOU02BNM98AW6Q2J","A2FB5UQTR3E0NX","3XEIP58NL09JROET00YR4SOXG94ZLV","","467.60000002384186","img/animal5.png","75","469.60000002384186","2","0","1","1,0.5,0,0,1,0.5,0.5,0,1",""
"","html-keyboard-response","65","60790","0.0-65.0","3FE7TXL1LJ96YUPOU02BNM98AW6Q2J","A2FB5UQTR3E0NX","3XEIP58NL09JROET00YR4SOXG94ZLV","","null","<img src=""img/animal5.png"" style=""width:200px;border:14px solid red;"">","null","","","","","",""
"","image-keyboard-response","66","61543","0.0-66.0","3FE7TXL1LJ96YUPOU02BNM98AW6Q2J","A2FB5UQTR3E0NX","3XEIP58NL09JROET00YR4SOXG94ZLV","","751.7000000476837","img/animal3.png","74","753.3999999761581","1","0","3","1,0.5,0,0,1,0.5,0.5,0,1",""
"","html-keyboard-response","67","61847","0.0-67.0","3FE7TXL1LJ96YUPOU02BNM98AW6Q2J","A2FB5UQTR3E0NX","3XEIP58NL09JROET00YR4SOXG94ZLV","","null","<img src=""img/animal3.png"" style=""width:200px;border:14px solid red;"">","null","","","","","",""
"","image-keyboard-response","68","62185","0.0-68.0","3FE7TXL1LJ96YUPOU02BNM98AW6Q2J","A2FB5UQTR3E0NX","3XEIP58NL09JROET00YR4SOXG94ZLV","","335.5999999642372","img/animal3.png","76","337.5","3","1","3","1,0.5,0,0,1,0.5,0.5,0,1",""
"","html-keyboard-response","69","62489","0.0-69.0","3FE7TXL1LJ96YUPOU02BNM98AW6Q2J","A2FB5UQTR3E0NX","3XEIP58NL09JROET00YR4SOXG94ZLV","","null","<img src=""img/animal3.png"" style=""width:200px; border:14px solid green;"">","null","","","","","",""
"","image-keyboard-response","70","63104","0.0-70.0","3FE7TXL1LJ96YUPOU02BNM98AW6Q2J","A2FB5UQTR3E0NX","3XEIP58NL09JROET00YR4SOXG94ZLV","","612.4000000357628","img/animal6.png","75","614.0999999642372","2","1","2","1,0.5,0,0,1,0.5,0.5,0,1",""
"","html-keyboard-response","71","63407","0.0-71.0","3FE7TXL1LJ96YUPOU02BNM98AW6Q2J","A2FB5UQTR3E0NX","3XEIP58NL09JROET00YR4SOXG94ZLV","","null","<img src=""img/animal6.png"" style=""width:200px; border:14px solid green;"">","null","","","","","",""
"","image-keyboard-response","72","64046","0.0-72.0","3FE7TXL1LJ96YUPOU02BNM98AW6Q2J","A2FB5UQTR3E0NX","3XEIP58NL09JROET00YR4SOXG94ZLV","","636.5999999642372","img/animal5.png","76","638.3000000119209","3","0","1","1,0.5,0,0,1,0.5,0.5,0,1",""
"","html-keyboard-response","73","64355","0.0-73.0","3FE7TXL1LJ96YUPOU02BNM98AW6Q2J","A2FB5UQTR3E0NX","3XEIP58NL09JROET00YR4SOXG94ZLV","","null","<img src=""img/animal5.png"" style=""width:200px;border:14px solid red;"">","null","","","","","",""
"","image-keyboard-response","74","64959","0.0-74.0","3FE7TXL1LJ96YUPOU02BNM98AW6Q2J","A2FB5UQTR3E0NX","3XEIP58NL09JROET00YR4SOXG94ZLV","","601.2000000476837","img/animal5.png","74","603.1999999880791","1","1","1","1,0.5,0,0,1,0.5,0.5,0,1",""
"","html-keyboard-response","75","65262","0.0-75.0","3FE7TXL1LJ96YUPOU02BNM98AW6Q2J","A2FB5UQTR3E0NX","3XEIP58NL09JROET00YR4SOXG94ZLV","","null","<img src=""img/animal5.png"" style=""width:200px; border:14px solid green;"">","null","","","","","",""
"","image-keyboard-response","76","66142","0.0-76.0","3FE7TXL1LJ96YUPOU02BNM98AW6Q2J","A2FB5UQTR3E0NX","3XEIP58NL09JROET00YR4SOXG94ZLV","","878.3999999761581","img/animal3.png","76","880.3000000119209","3","1","3","1,0.5,0,0,1,0.5,0.5,0,1",""
"","html-keyboard-response","77","66446","0.0-77.0","3FE7TXL1LJ96YUPOU02BNM98AW6Q2J","A2FB5UQTR3E0NX","3XEIP58NL09JROET00YR4SOXG94ZLV","","null","<img src=""img/animal3.png"" style=""width:200px; border:14px solid green;"">","null","","","","","",""
"","image-keyboard-response","78","67396","0.0-78.0","3FE7TXL1LJ96YUPOU02BNM98AW6Q2J","A2FB5UQTR3E0NX","3XEIP58NL09JROET00YR4SOXG94ZLV","","947.3000000119209","img/animal3.png","74","950","1","0","3","1,0.5,0,0,1,0.5,0.5,0,1",""
"","html-keyboard-response","79","67699","0.0-79.0","3FE7TXL1LJ96YUPOU02BNM98AW6Q2J","A2FB5UQTR3E0NX","3XEIP58NL09JROET00YR4SOXG94ZLV","","null","<img src=""img/animal3.png"" style=""width:200px;border:14px solid red;"">","null","","","","","",""
"","image-keyboard-response","80","67968","0.0-80.0","3FE7TXL1LJ96YUPOU02BNM98AW6Q2J","A2FB5UQTR3E0NX","3XEIP58NL09JROET00YR4SOXG94ZLV","","267.30000001192093","img/animal5.png","76","268.60000002384186","3","0","1","1,0.5,0,0,1,0.5,0.5,0,1",""
"","html-keyboard-response","81","68271","0.0-81.0","3FE7TXL1LJ96YUPOU02BNM98AW6Q2J","A2FB5UQTR3E0NX","3XEIP58NL09JROET00YR4SOXG94ZLV","","null","<img src=""img/animal5.png"" style=""width:200px;border:14px solid red;"">","null","","","","","",""
"","image-keyboard-response","82","68877","0.0-82.0","3FE7TXL1LJ96YUPOU02BNM98AW6Q2J","A2FB5UQTR3E0NX","3XEIP58NL09JROET00YR4SOXG94ZLV","","604","img/animal3.png","74","605.8000000119209","1","1","3","1,0.5,0,0,1,0.5,0.5,0,1",""
"","html-keyboard-response","83","69180","0.0-83.0","3FE7TXL1LJ96YUPOU02BNM98AW6Q2J","A2FB5UQTR3E0NX","3XEIP58NL09JROET00YR4SOXG94ZLV","","null","<img src=""img/animal3.png"" style=""width:200px; border:14px solid green;"">","null","","","","","",""
"","image-keyboard-response","84","70011","0.0-84.0","3FE7TXL1LJ96YUPOU02BNM98AW6Q2J","A2FB5UQTR3E0NX","3XEIP58NL09JROET00YR4SOXG94ZLV","","828.6999999880791","img/animal5.png","76","830.8000000119209","3","0","1","1,0.5,0,0,1,0.5,0.5,0,1",""
"","html-keyboard-response","85","70314","0.0-85.0","3FE7TXL1LJ96YUPOU02BNM98AW6Q2J","A2FB5UQTR3E0NX","3XEIP58NL09JROET00YR4SOXG94ZLV","","null","<img src=""img/animal5.png"" style=""width:200px;border:14px solid red;"">","null","","","","","",""
"","image-keyboard-response","86","70910","0.0-86.0","3FE7TXL1LJ96YUPOU02BNM98AW6Q2J","A2FB5UQTR3E0NX","3XEIP58NL09JROET00YR4SOXG94ZLV","","593.2000000476837","img/animal6.png","75","595","2","1","2","1,0.5,0,0,1,0.5,0.5,0,1",""
"","html-keyboard-response","87","71213","0.0-87.0","3FE7TXL1LJ96YUPOU02BNM98AW6Q2J","A2FB5UQTR3E0NX","3XEIP58NL09JROET00YR4SOXG94ZLV","","null","<img src=""img/animal6.png"" style=""width:200px; border:14px solid green;"">","null","","","","","",""
"","image-keyboard-response","88","71946","0.0-88.0","3FE7TXL1LJ96YUPOU02BNM98AW6Q2J","A2FB5UQTR3E0NX","3XEIP58NL09JROET00YR4SOXG94ZLV","","730.6000000238419","img/animal5.png","76","732","3","0","1","1,0.5,0,0,1,0.5,0.5,0,1",""
"","html-keyboard-response","89","72248","0.0-89.0","3FE7TXL1LJ96YUPOU02BNM98AW6Q2J","A2FB5UQTR3E0NX","3XEIP58NL09JROET00YR4SOXG94ZLV","","null","<img src=""img/animal5.png"" style=""width:200px;border:14px solid red;"">","null","","","","","",""
"","image-keyboard-response","90","72702","0.0-90.0","3FE7TXL1LJ96YUPOU02BNM98AW6Q2J","A2FB5UQTR3E0NX","3XEIP58NL09JROET00YR4SOXG94ZLV","","451.30000001192093","img/animal5.png","74","453.19999998807907","1","1","1","1,0.5,0,0,1,0.5,0.5,0,1",""
"","html-keyboard-response","91","73008","0.0-91.0","3FE7TXL1LJ96YUPOU02BNM98AW6Q2J","A2FB5UQTR3E0NX","3XEIP58NL09JROET00YR4SOXG94ZLV","","null","<img src=""img/animal5.png"" style=""width:200px; border:14px solid green;"">","null","","","","","",""
"","image-keyboard-response","92","73598","0.0-92.0","3FE7TXL1LJ96YUPOU02BNM98AW6Q2J","A2FB5UQTR3E0NX","3XEIP58NL09JROET00YR4SOXG94ZLV","","587.8000000119209","img/animal6.png","75","589.8000000119209","2","1","2","1,0.5,0,0,1,0.5,0.5,0,1",""
"","html-keyboard-response","93","73902","0.0-93.0","3FE7TXL1LJ96YUPOU02BNM98AW6Q2J","A2FB5UQTR3E0NX","3XEIP58NL09JROET00YR4SOXG94ZLV","","null","<img src=""img/animal6.png"" style=""width:200px; border:14px solid green;"">","null","","","","","",""
"","image-keyboard-response","94","74329","0.0-94.0","3FE7TXL1LJ96YUPOU02BNM98AW6Q2J","A2FB5UQTR3E0NX","3XEIP58NL09JROET00YR4SOXG94ZLV","","425.39999997615814","img/animal6.png","75","427.10000002384186","2","1","2","1,0.5,0,0,1,0.5,0.5,0,1",""
"","html-keyboard-response","95","74632","0.0-95.0","3FE7TXL1LJ96YUPOU02BNM98AW6Q2J","A2FB5UQTR3E0NX","3XEIP58NL09JROET00YR4SOXG94ZLV","","null","<img src=""img/animal6.png"" style=""width:200px; border:14px solid green;"">","null","","","","","",""
"","image-keyboard-response","96","75475","0.0-96.0","3FE7TXL1LJ96YUPOU02BNM98AW6Q2J","A2FB5UQTR3E0NX","3XEIP58NL09JROET00YR4SOXG94ZLV","","840.7999999523163","img/animal5.png","74","842.6000000238419","1","1","1","1,0.5,0,0,1,0.5,0.5,0,1",""
"","html-keyboard-response","97","75778","0.0-97.0","3FE7TXL1LJ96YUPOU02BNM98AW6Q2J","A2FB5UQTR3E0NX","3XEIP58NL09JROET00YR4SOXG94ZLV","","null","<img src=""img/animal5.png"" style=""width:200px; border:14px solid green;"">","null","","","","","",""
"","image-keyboard-response","98","76571","0.0-98.0","3FE7TXL1LJ96YUPOU02BNM98AW6Q2J","A2FB5UQTR3E0NX","3XEIP58NL09JROET00YR4SOXG94ZLV","","790.4000000357628","img/animal3.png","76","792.3000000119209","3","1","3","1,0.5,0,0,1,0.5,0.5,0,1",""
"","html-keyboard-response","99","76873","0.0-99.0","3FE7TXL1LJ96YUPOU02BNM98AW6Q2J","A2FB5UQTR3E0NX","3XEIP58NL09JROET00YR4SOXG94ZLV","","null","<img src=""img/animal3.png"" style=""width:200px; border:14px solid green;"">","null","","","","","",""
"","image-keyboard-response","100","77674","0.0-100.0","3FE7TXL1LJ96YUPOU02BNM98AW6Q2J","A2FB5UQTR3E0NX","3XEIP58NL09JROET00YR4SOXG94ZLV","","798.5","img/animal5.png","74","800.6000000238419","1","1","1","1,0.5,0,0,1,0.5,0.5,0,1",""
"","html-keyboard-response","101","77978","0.0-101.0","3FE7TXL1LJ96YUPOU02BNM98AW6Q2J","A2FB5UQTR3E0NX","3XEIP58NL09JROET00YR4SOXG94ZLV","","null","<img src=""img/animal5.png"" style=""width:200px; border:14px solid green;"">","null","","","","","",""
"","image-keyboard-response","102","78819","0.0-102.0","3FE7TXL1LJ96YUPOU02BNM98AW6Q2J","A2FB5UQTR3E0NX","3XEIP58NL09JROET00YR4SOXG94ZLV","","838.3000000119209","img/animal3.png","76","839.8999999761581","3","1","3","1,0.5,0,0,1,0.5,0.5,0,1",""
"","html-keyboard-response","103","79121","0.0-103.0","3FE7TXL1LJ96YUPOU02BNM98AW6Q2J","A2FB5UQTR3E0NX","3XEIP58NL09JROET00YR4SOXG94ZLV","","null","<img src=""img/animal3.png"" style=""width:200px; border:14px solid green;"">","null","","","","","",""
"","image-keyboard-response","104","79576","0.0-104.0","3FE7TXL1LJ96YUPOU02BNM98AW6Q2J","A2FB5UQTR3E0NX","3XEIP58NL09JROET00YR4SOXG94ZLV","","452.5999999642372","img/animal3.png","76","454.30000001192093","3","1","3","1,0.5,0,0,1,0.5,0.5,0,1",""
"","html-keyboard-response","105","79879","0.0-105.0","3FE7TXL1LJ96YUPOU02BNM98AW6Q2J","A2FB5UQTR3E0NX","3XEIP58NL09JROET00YR4SOXG94ZLV","","null","<img src=""img/animal3.png"" style=""width:200px; border:14px solid green;"">","null","","","","","",""
"","image-keyboard-response","106","80568","0.0-106.0","3FE7TXL1LJ96YUPOU02BNM98AW6Q2J","A2FB5UQTR3E0NX","3XEIP58NL09JROET00YR4SOXG94ZLV","","687","img/animal5.png","75","689","2","1","1","1,0.5,0,0,1,0.5,0.5,0,1",""
"","html-keyboard-response","107","80873","0.0-107.0","3FE7TXL1LJ96YUPOU02BNM98AW6Q2J","A2FB5UQTR3E0NX","3XEIP58NL09JROET00YR4SOXG94ZLV","","null","<img src=""img/animal5.png"" style=""width:200px; border:14px solid green;"">","null","","","","","",""
"","image-keyboard-response","108","81853","0.0-108.0","3FE7TXL1LJ96YUPOU02BNM98AW6Q2J","A2FB5UQTR3E0NX","3XEIP58NL09JROET00YR4SOXG94ZLV","","976.6000000238419","img/animal5.png","74","978.8999999761581","1","1","1","1,0.5,0,0,1,0.5,0.5,0,1",""
"","html-keyboard-response","109","82158","0.0-109.0","3FE7TXL1LJ96YUPOU02BNM98AW6Q2J","A2FB5UQTR3E0NX","3XEIP58NL09JROET00YR4SOXG94ZLV","","null","<img src=""img/animal5.png"" style=""width:200px; border:14px solid green;"">","null","","","","","",""
"","image-keyboard-response","110","82677","0.0-110.0","3FE7TXL1LJ96YUPOU02BNM98AW6Q2J","A2FB5UQTR3E0NX","3XEIP58NL09JROET00YR4SOXG94ZLV","","517.0999999642372","img/animal6.png","75","519","2","1","2","1,0.5,0,0,1,0.5,0.5,0,1",""
"","html-keyboard-response","111","82981","0.0-111.0","3FE7TXL1LJ96YUPOU02BNM98AW6Q2J","A2FB5UQTR3E0NX","3XEIP58NL09JROET00YR4SOXG94ZLV","","null","<img src=""img/animal6.png"" style=""width:200px; border:14px solid green;"">","null","","","","","",""
"","image-keyboard-response","112","83502","0.0-112.0","3FE7TXL1LJ96YUPOU02BNM98AW6Q2J","A2FB5UQTR3E0NX","3XEIP58NL09JROET00YR4SOXG94ZLV","","519.1999999880791","img/animal5.png","75","520.6000000238419","2","0","1","1,0.5,0,0,1,0.5,0.5,0,1",""
"","html-keyboard-response","113","83804","0.0-113.0","3FE7TXL1LJ96YUPOU02BNM98AW6Q2J","A2FB5UQTR3E0NX","3XEIP58NL09JROET00YR4SOXG94ZLV","","null","<img src=""img/animal5.png"" style=""width:200px;border:14px solid red;"">","null","","","","","",""
"","image-keyboard-response","114","84444","0.0-114.0","3FE7TXL1LJ96YUPOU02BNM98AW6Q2J","A2FB5UQTR3E0NX","3XEIP58NL09JROET00YR4SOXG94ZLV","","638.1999999880791","img/animal3.png","76","640.1999999880791","3","1","3","1,0.5,0,0,1,0.5,0.5,0,1",""
"","html-keyboard-response","115","84748","0.0-115.0","3FE7TXL1LJ96YUPOU02BNM98AW6Q2J","A2FB5UQTR3E0NX","3XEIP58NL09JROET00YR4SOXG94ZLV","","null","<img src=""img/animal3.png"" style=""width:200px; border:14px solid green;"">","null","","","","","",""
"","image-keyboard-response","116","85490","0.0-116.0","3FE7TXL1LJ96YUPOU02BNM98AW6Q2J","A2FB5UQTR3E0NX","3XEIP58NL09JROET00YR4SOXG94ZLV","","740.5","img/animal6.png","75","742.5","2","1","2","1,0.5,0,0,1,0.5,0.5,0,1",""
"","html-keyboard-response","117","85794","0.0-117.0","3FE7TXL1LJ96YUPOU02BNM98AW6Q2J","A2FB5UQTR3E0NX","3XEIP58NL09JROET00YR4SOXG94ZLV","","null","<img src=""img/animal6.png"" style=""width:200px; border:14px solid green;"">","null","","","","","",""
"","image-keyboard-response","118","86313","0.0-118.0","3FE7TXL1LJ96YUPOU02BNM98AW6Q2J","A2FB5UQTR3E0NX","3XEIP58NL09JROET00YR4SOXG94ZLV","","517.3000000119209","img/animal6.png","75","519","2","1","2","1,0.5,0,0,1,0.5,0.5,0,1",""
"","html-keyboard-response","119","86617","0.0-119.0","3FE7TXL1LJ96YUPOU02BNM98AW6Q2J","A2FB5UQTR3E0NX","3XEIP58NL09JROET00YR4SOXG94ZLV","","null","<img src=""img/animal6.png"" style=""width:200px; border:14px solid green;"">","null","","","","","",""
"","image-keyboard-response","120","87358","0.0-120.0","3FE7TXL1LJ96YUPOU02BNM98AW6Q2J","A2FB5UQTR3E0NX","3XEIP58NL09JROET00YR4SOXG94ZLV","","738.2000000476837","img/animal3.png","76","740.2999999523163","3","1","3","1,0.5,0,0,1,0.5,0.5,0,1",""
"","html-keyboard-response","121","87662","0.0-121.0","3FE7TXL1LJ96YUPOU02BNM98AW6Q2J","A2FB5UQTR3E0NX","3XEIP58NL09JROET00YR4SOXG94ZLV","","null","<img src=""img/animal3.png"" style=""width:200px; border:14px solid green;"">","null","","","","","",""
"","image-keyboard-response","122","88313","0.0-122.0","3FE7TXL1LJ96YUPOU02BNM98AW6Q2J","A2FB5UQTR3E0NX","3XEIP58NL09JROET00YR4SOXG94ZLV","","648.1000000238419","img/animal5.png","74","650.3999999761581","1","1","1","1,0.5,0,0,1,0.5,0.5,0,1",""
"","html-keyboard-response","123","88617","0.0-123.0","3FE7TXL1LJ96YUPOU02BNM98AW6Q2J","A2FB5UQTR3E0NX","3XEIP58NL09JROET00YR4SOXG94ZLV","","null","<img src=""img/animal5.png"" style=""width:200px; border:14px solid green;"">","null","","","","","",""
"","image-keyboard-response","124","89077","0.0-124.0","3FE7TXL1LJ96YUPOU02BNM98AW6Q2J","A2FB5UQTR3E0NX","3XEIP58NL09JROET00YR4SOXG94ZLV","","458","img/animal5.png","74","459.80000001192093","1","1","1","1,0.5,0,0,1,0.5,0.5,0,1",""
"","html-keyboard-response","125","89382","0.0-125.0","3FE7TXL1LJ96YUPOU02BNM98AW6Q2J","A2FB5UQTR3E0NX","3XEIP58NL09JROET00YR4SOXG94ZLV","","null","<img src=""img/animal5.png"" style=""width:200px; border:14px solid green;"">","null","","","","","",""
"","image-keyboard-response","126","89985","0.0-126.0","3FE7TXL1LJ96YUPOU02BNM98AW6Q2J","A2FB5UQTR3E0NX","3XEIP58NL09JROET00YR4SOXG94ZLV","","600.3999999761581","img/animal3.png","76","602.4000000357628","3","1","3","1,0.5,0,0,1,0.5,0.5,0,1",""
"","html-keyboard-response","127","90289","0.0-127.0","3FE7TXL1LJ96YUPOU02BNM98AW6Q2J","A2FB5UQTR3E0NX","3XEIP58NL09JROET00YR4SOXG94ZLV","","null","<img src=""img/animal3.png"" style=""width:200px; border:14px solid green;"">","null","","","","","",""
"","image-keyboard-response","128","90907","0.0-128.0","3FE7TXL1LJ96YUPOU02BNM98AW6Q2J","A2FB5UQTR3E0NX","3XEIP58NL09JROET00YR4SOXG94ZLV","","616","img/animal6.png","75","618","2","1","2","1,0.5,0,0,1,0.5,0.5,0,1",""
"","html-keyboard-response","129","91210","0.0-129.0","3FE7TXL1LJ96YUPOU02BNM98AW6Q2J","A2FB5UQTR3E0NX","3XEIP58NL09JROET00YR4SOXG94ZLV","","null","<img src=""img/animal6.png"" style=""width:200px; border:14px solid green;"">","null","","","","","",""
"","image-keyboard-response","130","91853","0.0-130.0","3FE7TXL1LJ96YUPOU02BNM98AW6Q2J","A2FB5UQTR3E0NX","3XEIP58NL09JROET00YR4SOXG94ZLV","","640","img/animal3.png","76","641.6999999880791","3","1","3","1,0.5,0,0,1,0.5,0.5,0,1",""
"","html-keyboard-response","131","92157","0.0-131.0","3FE7TXL1LJ96YUPOU02BNM98AW6Q2J","A2FB5UQTR3E0NX","3XEIP58NL09JROET00YR4SOXG94ZLV","","null","<img src=""img/animal3.png"" style=""width:200px; border:14px solid green;"">","null","","","","","",""
"","image-keyboard-response","132","92676","0.0-132.0","3FE7TXL1LJ96YUPOU02BNM98AW6Q2J","A2FB5UQTR3E0NX","3XEIP58NL09JROET00YR4SOXG94ZLV","","516.6000000238419","img/animal3.png","76","518.3999999761581","3","1","3","1,0.5,0,0,1,0.5,0.5,0,1",""
"","html-keyboard-response","133","92979","0.0-133.0","3FE7TXL1LJ96YUPOU02BNM98AW6Q2J","A2FB5UQTR3E0NX","3XEIP58NL09JROET00YR4SOXG94ZLV","","null","<img src=""img/animal3.png"" style=""width:200px; border:14px solid green;"">","null","","","","","",""
"","image-keyboard-response","134","93408","0.0-134.0","3FE7TXL1LJ96YUPOU02BNM98AW6Q2J","A2FB5UQTR3E0NX","3XEIP58NL09JROET00YR4SOXG94ZLV","","426.39999997615814","img/animal3.png","76","428.5","3","1","3","1,0.5,0,0,1,0.5,0.5,0,1",""
"","html-keyboard-response","135","93711","0.0-135.0","3FE7TXL1LJ96YUPOU02BNM98AW6Q2J","A2FB5UQTR3E0NX","3XEIP58NL09JROET00YR4SOXG94ZLV","","null","<img src=""img/animal3.png"" style=""width:200px; border:14px solid green;"">","null","","","","","",""
"","image-keyboard-response","136","94308","0.0-136.0","3FE7TXL1LJ96YUPOU02BNM98AW6Q2J","A2FB5UQTR3E0NX","3XEIP58NL09JROET00YR4SOXG94ZLV","","594.8000000119209","img/animal6.png","74","596.6999999880791","1","0","2","1,0.5,0,0,1,0.5,0.5,0,1",""
"","html-keyboard-response","137","94612","0.0-137.0","3FE7TXL1LJ96YUPOU02BNM98AW6Q2J","A2FB5UQTR3E0NX","3XEIP58NL09JROET00YR4SOXG94ZLV","","null","<img src=""img/animal6.png"" style=""width:200px;border:14px solid red;"">","null","","","","","",""
"","image-keyboard-response","138","94969","0.0-138.0","3FE7TXL1LJ96YUPOU02BNM98AW6Q2J","A2FB5UQTR3E0NX","3XEIP58NL09JROET00YR4SOXG94ZLV","","355.30000001192093","img/animal6.png","75","357.10000002384186","2","1","2","1,0.5,0,0,1,0.5,0.5,0,1",""
"","html-keyboard-response","139","95272","0.0-139.0","3FE7TXL1LJ96YUPOU02BNM98AW6Q2J","A2FB5UQTR3E0NX","3XEIP58NL09JROET00YR4SOXG94ZLV","","null","<img src=""img/animal6.png"" style=""width:200px; border:14px solid green;"">","null","","","","","",""
"","image-keyboard-response","140","96303","0.0-140.0","3FE7TXL1LJ96YUPOU02BNM98AW6Q2J","A2FB5UQTR3E0NX","3XEIP58NL09JROET00YR4SOXG94ZLV","","1029.3999999761581","img/animal6.png","75","1031.199999988079","2","1","2","1,0.5,0,0,1,0.5,0.5,0,1",""
"","html-keyboard-response","141","96607","0.0-141.0","3FE7TXL1LJ96YUPOU02BNM98AW6Q2J","A2FB5UQTR3E0NX","3XEIP58NL09JROET00YR4SOXG94ZLV","","null","<img src=""img/animal6.png"" style=""width:200px; border:14px solid green;"">","null","","","","","",""
"","image-keyboard-response","142","97216","0.0-142.0","3FE7TXL1LJ96YUPOU02BNM98AW6Q2J","A2FB5UQTR3E0NX","3XEIP58NL09JROET00YR4SOXG94ZLV","","606.0999999642372","img/animal3.png","76","607.4000000357628","3","1","3","1,0.5,0,0,1,0.5,0.5,0,1",""
"","html-keyboard-response","143","97519","0.0-143.0","3FE7TXL1LJ96YUPOU02BNM98AW6Q2J","A2FB5UQTR3E0NX","3XEIP58NL09JROET00YR4SOXG94ZLV","","null","<img src=""img/animal3.png"" style=""width:200px; border:14px solid green;"">","null","","","","","",""
"","image-keyboard-response","144","98190","0.0-144.0","3FE7TXL1LJ96YUPOU02BNM98AW6Q2J","A2FB5UQTR3E0NX","3XEIP58NL09JROET00YR4SOXG94ZLV","","668.8000000119209","img/animal6.png","75","670.5999999642372","2","1","2","1,0.5,0,0,1,0.5,0.5,0,1",""
"","html-keyboard-response","145","98493","0.0-145.0","3FE7TXL1LJ96YUPOU02BNM98AW6Q2J","A2FB5UQTR3E0NX","3XEIP58NL09JROET00YR4SOXG94ZLV","","null","<img src=""img/animal6.png"" style=""width:200px; border:14px solid green;"">","null","","","","","",""
"","image-keyboard-response","146","98901","0.0-146.0","3FE7TXL1LJ96YUPOU02BNM98AW6Q2J","A2FB5UQTR3E0NX","3XEIP58NL09JROET00YR4SOXG94ZLV","","405","img/animal6.png","75","406.9000000357628","2","1","2","1,0.5,0,0,1,0.5,0.5,0,1",""
"","html-keyboard-response","147","99206","0.0-147.0","3FE7TXL1LJ96YUPOU02BNM98AW6Q2J","A2FB5UQTR3E0NX","3XEIP58NL09JROET00YR4SOXG94ZLV","","null","<img src=""img/animal6.png"" style=""width:200px; border:14px solid green;"">","null","","","","","",""
"","image-keyboard-response","148","99984","0.0-148.0","3FE7TXL1LJ96YUPOU02BNM98AW6Q2J","A2FB5UQTR3E0NX","3XEIP58NL09JROET00YR4SOXG94ZLV","","774","img/animal5.png","76","776.7000000476837","3","0","1","1,0.5,0,0,1,0.5,0.5,0,1",""
"","html-keyboard-response","149","100288","0.0-149.0","3FE7TXL1LJ96YUPOU02BNM98AW6Q2J","A2FB5UQTR3E0NX","3XEIP58NL09JROET00YR4SOXG94ZLV","","null","<img src=""img/animal5.png"" style=""width:200px;border:14px solid red;"">","null","","","","","",""
"","image-keyboard-response","150","100566","0.0-150.0","3FE7TXL1LJ96YUPOU02BNM98AW6Q2J","A2FB5UQTR3E0NX","3XEIP58NL09JROET00YR4SOXG94ZLV","","275.80000001192093","img/animal5.png","74","277.80000001192093","1","1","1","1,0.5,0,0,1,0.5,0.5,0,1",""
"","html-keyboard-response","151","100870","0.0-151.0","3FE7TXL1LJ96YUPOU02BNM98AW6Q2J","A2FB5UQTR3E0NX","3XEIP58NL09JROET00YR4SOXG94ZLV","","null","<img src=""img/animal5.png"" style=""width:200px; border:14px solid green;"">","null","","","","","",""
"","image-keyboard-response","152","101425","0.0-152.0","3FE7TXL1LJ96YUPOU02BNM98AW6Q2J","A2FB5UQTR3E0NX","3XEIP58NL09JROET00YR4SOXG94ZLV","","552.2999999523163","img/animal6.png","75","554.1000000238419","2","1","2","1,0.5,0,0,1,0.5,0.5,0,1",""
"","html-keyboard-response","153","101728","0.0-153.0","3FE7TXL1LJ96YUPOU02BNM98AW6Q2J","A2FB5UQTR3E0NX","3XEIP58NL09JROET00YR4SOXG94ZLV","","null","<img src=""img/animal6.png"" style=""width:200px; border:14px solid green;"">","null","","","","","",""
"","image-keyboard-response","154","102711","0.0-154.0","3FE7TXL1LJ96YUPOU02BNM98AW6Q2J","A2FB5UQTR3E0NX","3XEIP58NL09JROET00YR4SOXG94ZLV","","980.5999999642372","img/animal5.png","76","982.5999999642372","3","0","1","1,0.5,0,0,1,0.5,0.5,0,1",""
"","html-keyboard-response","155","103014","0.0-155.0","3FE7TXL1LJ96YUPOU02BNM98AW6Q2J","A2FB5UQTR3E0NX","3XEIP58NL09JROET00YR4SOXG94ZLV","","null","<img src=""img/animal5.png"" style=""width:200px;border:14px solid red;"">","null","","","","","",""
"","image-keyboard-response","156","103224","0.0-156.0","3FE7TXL1LJ96YUPOU02BNM98AW6Q2J","A2FB5UQTR3E0NX","3XEIP58NL09JROET00YR4SOXG94ZLV","","208.30000001192093","img/animal3.png","74","210.30000001192093","1","0","3","1,0.5,0,0,1,0.5,0.5,0,1",""
"","html-keyboard-response","157","103527","0.0-157.0","3FE7TXL1LJ96YUPOU02BNM98AW6Q2J","A2FB5UQTR3E0NX","3XEIP58NL09JROET00YR4SOXG94ZLV","","null","<img src=""img/animal3.png"" style=""width:200px;border:14px solid red;"">","null","","","","","",""
"","image-keyboard-response","158","103828","0.0-158.0","3FE7TXL1LJ96YUPOU02BNM98AW6Q2J","A2FB5UQTR3E0NX","3XEIP58NL09JROET00YR4SOXG94ZLV","","298.7000000476837","img/animal6.png","76","300.60000002384186","3","1","2","1,0.5,0,0,1,0.5,0.5,0,1",""
"","html-keyboard-response","159","104132","0.0-159.0","3FE7TXL1LJ96YUPOU02BNM98AW6Q2J","A2FB5UQTR3E0NX","3XEIP58NL09JROET00YR4SOXG94ZLV","","null","<img src=""img/animal6.png"" style=""width:200px; border:14px solid green;"">","null","","","","","",""
"","image-keyboard-response","160","104956","0.0-160.0","3FE7TXL1LJ96YUPOU02BNM98AW6Q2J","A2FB5UQTR3E0NX","3XEIP58NL09JROET00YR4SOXG94ZLV","","821.4000000357628","img/animal5.png","74","823.3000000119209","1","1","1","1,0.5,0,0,1,0.5,0.5,0,1",""
"","html-keyboard-response","161","105259","0.0-161.0","3FE7TXL1LJ96YUPOU02BNM98AW6Q2J","A2FB5UQTR3E0NX","3XEIP58NL09JROET00YR4SOXG94ZLV","","null","<img src=""img/animal5.png"" style=""width:200px; border:14px solid green;"">","null","","","","","",""
"","image-keyboard-response","162","105818","0.0-162.0","3FE7TXL1LJ96YUPOU02BNM98AW6Q2J","A2FB5UQTR3E0NX","3XEIP58NL09JROET00YR4SOXG94ZLV","","556.4000000357628","img/animal5.png","74","558.3000000119209","1","1","1","1,0.5,0,0,1,0.5,0.5,0,1",""
"","html-keyboard-response","163","106121","0.0-163.0","3FE7TXL1LJ96YUPOU02BNM98AW6Q2J","A2FB5UQTR3E0NX","3XEIP58NL09JROET00YR4SOXG94ZLV","","null","<img src=""img/animal5.png"" style=""width:200px; border:14px solid green;"">","null","","","","","",""
"","image-keyboard-response","164","106713","0.0-164.0","3FE7TXL1LJ96YUPOU02BNM98AW6Q2J","A2FB5UQTR3E0NX","3XEIP58NL09JROET00YR4SOXG94ZLV","","589.5","img/animal3.png","76","591.5999999642372","3","1","3","1,0.5,0,0,1,0.5,0.5,0,1",""
"","html-keyboard-response","165","107016","0.0-165.0","3FE7TXL1LJ96YUPOU02BNM98AW6Q2J","A2FB5UQTR3E0NX","3XEIP58NL09JROET00YR4SOXG94ZLV","","null","<img src=""img/animal3.png"" style=""width:200px; border:14px solid green;"">","null","","","","","",""
"","image-keyboard-response","166","108659","0.0-166.0","3FE7TXL1LJ96YUPOU02BNM98AW6Q2J","A2FB5UQTR3E0NX","3XEIP58NL09JROET00YR4SOXG94ZLV","","1640.1000000238419","img/animal5.png","76","1642.5","3","0","1","1,0.5,0,0,1,0.5,0.5,0,1",""
"","html-keyboard-response","167","108964","0.0-167.0","3FE7TXL1LJ96YUPOU02BNM98AW6Q2J","A2FB5UQTR3E0NX","3XEIP58NL09JROET00YR4SOXG94ZLV","","null","<img src=""img/animal5.png"" style=""width:200px;border:14px solid red;"">","null","","","","","",""
"","image-keyboard-response","168","109728","0.0-168.0","3FE7TXL1LJ96YUPOU02BNM98AW6Q2J","A2FB5UQTR3E0NX","3XEIP58NL09JROET00YR4SOXG94ZLV","","760.8000000119209","img/animal3.png","76","763","3","1","3","1,0.5,0,0,1,0.5,0.5,0,1",""
"","html-keyboard-response","169","110032","0.0-169.0","3FE7TXL1LJ96YUPOU02BNM98AW6Q2J","A2FB5UQTR3E0NX","3XEIP58NL09JROET00YR4SOXG94ZLV","","null","<img src=""img/animal3.png"" style=""width:200px; border:14px solid green;"">","null","","","","","",""
"","image-keyboard-response","170","110726","0.0-170.0","3FE7TXL1LJ96YUPOU02BNM98AW6Q2J","A2FB5UQTR3E0NX","3XEIP58NL09JROET00YR4SOXG94ZLV","","691.8000000119209","img/animal6.png","75","693.5","2","1","2","1,0.5,0,0,1,0.5,0.5,0,1",""
"","html-keyboard-response","171","111029","0.0-171.0","3FE7TXL1LJ96YUPOU02BNM98AW6Q2J","A2FB5UQTR3E0NX","3XEIP58NL09JROET00YR4SOXG94ZLV","","null","<img src=""img/animal6.png"" style=""width:200px; border:14px solid green;"">","null","","","","","",""
"","image-keyboard-response","172","111602","0.0-172.0","3FE7TXL1LJ96YUPOU02BNM98AW6Q2J","A2FB5UQTR3E0NX","3XEIP58NL09JROET00YR4SOXG94ZLV","","569.6999999880791","img/animal6.png","75","571.6999999880791","2","1","2","1,0.5,0,0,1,0.5,0.5,0,1",""
"","html-keyboard-response","173","111905","0.0-173.0","3FE7TXL1LJ96YUPOU02BNM98AW6Q2J","A2FB5UQTR3E0NX","3XEIP58NL09JROET00YR4SOXG94ZLV","","null","<img src=""img/animal6.png"" style=""width:200px; border:14px solid green;"">","null","","","","","",""
"","image-keyboard-response","174","112352","0.0-174.0","3FE7TXL1LJ96YUPOU02BNM98AW6Q2J","A2FB5UQTR3E0NX","3XEIP58NL09JROET00YR4SOXG94ZLV","","444","img/animal6.png","75","445.89999997615814","2","1","2","1,0.5,0,0,1,0.5,0.5,0,1",""
"","html-keyboard-response","175","112655","0.0-175.0","3FE7TXL1LJ96YUPOU02BNM98AW6Q2J","A2FB5UQTR3E0NX","3XEIP58NL09JROET00YR4SOXG94ZLV","","null","<img src=""img/animal6.png"" style=""width:200px; border:14px solid green;"">","null","","","","","",""
"","image-keyboard-response","176","113440","0.0-176.0","3FE7TXL1LJ96YUPOU02BNM98AW6Q2J","A2FB5UQTR3E0NX","3XEIP58NL09JROET00YR4SOXG94ZLV","","782.5","img/animal5.png","74","784.2999999523163","1","1","1","1,0.5,0,0,1,0.5,0.5,0,1",""
"","html-keyboard-response","177","113743","0.0-177.0","3FE7TXL1LJ96YUPOU02BNM98AW6Q2J","A2FB5UQTR3E0NX","3XEIP58NL09JROET00YR4SOXG94ZLV","","null","<img src=""img/animal5.png"" style=""width:200px; border:14px solid green;"">","null","","","","","",""
"","image-keyboard-response","178","114294","0.0-178.0","3FE7TXL1LJ96YUPOU02BNM98AW6Q2J","A2FB5UQTR3E0NX","3XEIP58NL09JROET00YR4SOXG94ZLV","","549.5","img/animal3.png","76","551","3","1","3","1,0.5,0,0,1,0.5,0.5,0,1",""
"","html-keyboard-response","179","114598","0.0-179.0","3FE7TXL1LJ96YUPOU02BNM98AW6Q2J","A2FB5UQTR3E0NX","3XEIP58NL09JROET00YR4SOXG94ZLV","","null","<img src=""img/animal3.png"" style=""width:200px; border:14px solid green;"">","null","","","","","",""
"","image-keyboard-response","180","115337","0.0-180.0","3FE7TXL1LJ96YUPOU02BNM98AW6Q2J","A2FB5UQTR3E0NX","3XEIP58NL09JROET00YR4SOXG94ZLV","","736.1000000238419","img/animal5.png","74","738","1","1","1","1,0.5,0,0,1,0.5,0.5,0,1",""
"","html-keyboard-response","181","115640","0.0-181.0","3FE7TXL1LJ96YUPOU02BNM98AW6Q2J","A2FB5UQTR3E0NX","3XEIP58NL09JROET00YR4SOXG94ZLV","","null","<img src=""img/animal5.png"" style=""width:200px; border:14px solid green;"">","null","","","","","",""
"","html-keyboard-response","182","184591","0.0-182.0","3FE7TXL1LJ96YUPOU02BNM98AW6Q2J","A2FB5UQTR3E0NX","3XEIP58NL09JROET00YR4SOXG94ZLV","","","","","","","","","",""
"","image-keyboard-response","183","186793","0.0-183.0","3FE7TXL1LJ96YUPOU02BNM98AW6Q2J","A2FB5UQTR3E0NX","3XEIP58NL09JROET00YR4SOXG94ZLV","","2200","img/animal2.png","74","2201.5","1","1","1","1,0.5,0,1,0,0.5,0.5,0,1",""
"","html-keyboard-response","184","187097","0.0-184.0","3FE7TXL1LJ96YUPOU02BNM98AW6Q2J","A2FB5UQTR3E0NX","3XEIP58NL09JROET00YR4SOXG94ZLV","","null","<img src=""img/animal2.png"" style=""width:200px; border:14px solid green;"">","null","","","","","",""
"","image-keyboard-response","185","187870","0.0-185.0","3FE7TXL1LJ96YUPOU02BNM98AW6Q2J","A2FB5UQTR3E0NX","3XEIP58NL09JROET00YR4SOXG94ZLV","","770.8000000119209","img/animal1.png","76","773.1999999880791","3","0","2","1,0.5,0,1,0,0.5,0.5,0,1",""
"","html-keyboard-response","186","188188","0.0-186.0","3FE7TXL1LJ96YUPOU02BNM98AW6Q2J","A2FB5UQTR3E0NX","3XEIP58NL09JROET00YR4SOXG94ZLV","","null","<img src=""img/animal1.png"" style=""width:200px;border:14px solid red;"">","null","","","","","",""
"","image-keyboard-response","187","188815","0.0-187.0","3FE7TXL1LJ96YUPOU02BNM98AW6Q2J","A2FB5UQTR3E0NX","3XEIP58NL09JROET00YR4SOXG94ZLV","","624.3000000119209","img/animal2.png","74","626.6000000238419","1","1","1","1,0.5,0,1,0,0.5,0.5,0,1",""
"","html-keyboard-response","188","189119","0.0-188.0","3FE7TXL1LJ96YUPOU02BNM98AW6Q2J","A2FB5UQTR3E0NX","3XEIP58NL09JROET00YR4SOXG94ZLV","","null","<img src=""img/animal2.png"" style=""width:200px; border:14px solid green;"">","null","","","","","",""
"","image-keyboard-response","189","190064","0.0-189.0","3FE7TXL1LJ96YUPOU02BNM98AW6Q2J","A2FB5UQTR3E0NX","3XEIP58NL09JROET00YR4SOXG94ZLV","","942.6999999880791","img/animal4.png","76","945.3000000119209","3","1","3","1,0.5,0,1,0,0.5,0.5,0,1",""
"","html-keyboard-response","190","190368","0.0-190.0","3FE7TXL1LJ96YUPOU02BNM98AW6Q2J","A2FB5UQTR3E0NX","3XEIP58NL09JROET00YR4SOXG94ZLV","","null","<img src=""img/animal4.png"" style=""width:200px; border:14px solid green;"">","null","","","","","",""
"","image-keyboard-response","191","190910","0.0-191.0","3FE7TXL1LJ96YUPOU02BNM98AW6Q2J","A2FB5UQTR3E0NX","3XEIP58NL09JROET00YR4SOXG94ZLV","","539.6000000238419","img/animal2.png","75","541.5","2","0","1","1,0.5,0,1,0,0.5,0.5,0,1",""
"","html-keyboard-response","192","191212","0.0-192.0","3FE7TXL1LJ96YUPOU02BNM98AW6Q2J","A2FB5UQTR3E0NX","3XEIP58NL09JROET00YR4SOXG94ZLV","","null","<img src=""img/animal2.png"" style=""width:200px;border:14px solid red;"">","null","","","","","",""
"","image-keyboard-response","193","192037","0.0-193.0","3FE7TXL1LJ96YUPOU02BNM98AW6Q2J","A2FB5UQTR3E0NX","3XEIP58NL09JROET00YR4SOXG94ZLV","","821.8999999761581","img/animal1.png","75","823.7999999523163","2","0","2","1,0.5,0,1,0,0.5,0.5,0,1",""
"","html-keyboard-response","194","192340","0.0-194.0","3FE7TXL1LJ96YUPOU02BNM98AW6Q2J","A2FB5UQTR3E0NX","3XEIP58NL09JROET00YR4SOXG94ZLV","","null","<img src=""img/animal1.png"" style=""width:200px;border:14px solid red;"">","null","","","","","",""
"","image-keyboard-response","195","192946","0.0-195.0","3FE7TXL1LJ96YUPOU02BNM98AW6Q2J","A2FB5UQTR3E0NX","3XEIP58NL09JROET00YR4SOXG94ZLV","","604","img/animal4.png","74","605.8999999761581","1","1","3","1,0.5,0,1,0,0.5,0.5,0,1",""
"","html-keyboard-response","196","193252","0.0-196.0","3FE7TXL1LJ96YUPOU02BNM98AW6Q2J","A2FB5UQTR3E0NX","3XEIP58NL09JROET00YR4SOXG94ZLV","","null","<img src=""img/animal4.png"" style=""width:200px; border:14px solid green;"">","null","","","","","",""
"","image-keyboard-response","197","194082","0.0-197.0","3FE7TXL1LJ96YUPOU02BNM98AW6Q2J","A2FB5UQTR3E0NX","3XEIP58NL09JROET00YR4SOXG94ZLV","","827.7999999523163","img/animal1.png","75","829.6999999880791","2","0","2","1,0.5,0,1,0,0.5,0.5,0,1",""
"","html-keyboard-response","198","194398","0.0-198.0","3FE7TXL1LJ96YUPOU02BNM98AW6Q2J","A2FB5UQTR3E0NX","3XEIP58NL09JROET00YR4SOXG94ZLV","","null","<img src=""img/animal1.png"" style=""width:200px;border:14px solid red;"">","null","","","","","",""
"","image-keyboard-response","199","194995","0.0-199.0","3FE7TXL1LJ96YUPOU02BNM98AW6Q2J","A2FB5UQTR3E0NX","3XEIP58NL09JROET00YR4SOXG94ZLV","","593.9000000357628","img/animal2.png","74","596.3999999761581","1","1","1","1,0.5,0,1,0,0.5,0.5,0,1",""
"","html-keyboard-response","200","195300","0.0-200.0","3FE7TXL1LJ96YUPOU02BNM98AW6Q2J","A2FB5UQTR3E0NX","3XEIP58NL09JROET00YR4SOXG94ZLV","","null","<img src=""img/animal2.png"" style=""width:200px; border:14px solid green;"">","null","","","","","",""
"","image-keyboard-response","201","195991","0.0-201.0","3FE7TXL1LJ96YUPOU02BNM98AW6Q2J","A2FB5UQTR3E0NX","3XEIP58NL09JROET00YR4SOXG94ZLV","","688.8999999761581","img/animal1.png","76","690.9000000357628","3","0","2","1,0.5,0,1,0,0.5,0.5,0,1",""
"","html-keyboard-response","202","196296","0.0-202.0","3FE7TXL1LJ96YUPOU02BNM98AW6Q2J","A2FB5UQTR3E0NX","3XEIP58NL09JROET00YR4SOXG94ZLV","","null","<img src=""img/animal1.png"" style=""width:200px;border:14px solid red;"">","null","","","","","",""
"","image-keyboard-response","203","196918","0.0-203.0","3FE7TXL1LJ96YUPOU02BNM98AW6Q2J","A2FB5UQTR3E0NX","3XEIP58NL09JROET00YR4SOXG94ZLV","","619.3000000119209","img/animal2.png","74","621.6999999880791","1","1","1","1,0.5,0,1,0,0.5,0.5,0,1",""
"","html-keyboard-response","204","197222","0.0-204.0","3FE7TXL1LJ96YUPOU02BNM98AW6Q2J","A2FB5UQTR3E0NX","3XEIP58NL09JROET00YR4SOXG94ZLV","","null","<img src=""img/animal2.png"" style=""width:200px; border:14px solid green;"">","null","","","","","",""
"","image-keyboard-response","205","197805","0.0-205.0","3FE7TXL1LJ96YUPOU02BNM98AW6Q2J","A2FB5UQTR3E0NX","3XEIP58NL09JROET00YR4SOXG94ZLV","","580.5999999642372","img/animal1.png","75","582.8000000119209","2","0","2","1,0.5,0,1,0,0.5,0.5,0,1",""
"","html-keyboard-response","206","198108","0.0-206.0","3FE7TXL1LJ96YUPOU02BNM98AW6Q2J","A2FB5UQTR3E0NX","3XEIP58NL09JROET00YR4SOXG94ZLV","","null","<img src=""img/animal1.png"" style=""width:200px;border:14px solid red;"">","null","","","","","",""
"","image-keyboard-response","207","198659","0.0-207.0","3FE7TXL1LJ96YUPOU02BNM98AW6Q2J","A2FB5UQTR3E0NX","3XEIP58NL09JROET00YR4SOXG94ZLV","","547.6000000238419","img/animal4.png","74","550","1","1","3","1,0.5,0,1,0,0.5,0.5,0,1",""
"","html-keyboard-response","208","198962","0.0-208.0","3FE7TXL1LJ96YUPOU02BNM98AW6Q2J","A2FB5UQTR3E0NX","3XEIP58NL09JROET00YR4SOXG94ZLV","","null","<img src=""img/animal4.png"" style=""width:200px; border:14px solid green;"">","null","","","","","",""
"","image-keyboard-response","209","200279","0.0-209.0","3FE7TXL1LJ96YUPOU02BNM98AW6Q2J","A2FB5UQTR3E0NX","3XEIP58NL09JROET00YR4SOXG94ZLV","","1315.5","img/animal1.png","75","1317.2000000476837","2","0","2","1,0.5,0,1,0,0.5,0.5,0,1",""
"","html-keyboard-response","210","200583","0.0-210.0","3FE7TXL1LJ96YUPOU02BNM98AW6Q2J","A2FB5UQTR3E0NX","3XEIP58NL09JROET00YR4SOXG94ZLV","","null","<img src=""img/animal1.png"" style=""width:200px;border:14px solid red;"">","null","","","","","",""
"","image-keyboard-response","211","201270","0.0-211.0","3FE7TXL1LJ96YUPOU02BNM98AW6Q2J","A2FB5UQTR3E0NX","3XEIP58NL09JROET00YR4SOXG94ZLV","","685.1999999880791","img/animal2.png","76","686.8999999761581","3","0","1","1,0.5,0,1,0,0.5,0.5,0,1",""
"","html-keyboard-response","212","201574","0.0-212.0","3FE7TXL1LJ96YUPOU02BNM98AW6Q2J","A2FB5UQTR3E0NX","3XEIP58NL09JROET00YR4SOXG94ZLV","","null","<img src=""img/animal2.png"" style=""width:200px;border:14px solid red;"">","null","","","","","",""
"","image-keyboard-response","213","201937","0.0-213.0","3FE7TXL1LJ96YUPOU02BNM98AW6Q2J","A2FB5UQTR3E0NX","3XEIP58NL09JROET00YR4SOXG94ZLV","","360.69999998807907","img/animal2.png","74","362.69999998807907","1","1","1","1,0.5,0,1,0,0.5,0.5,0,1",""
"","html-keyboard-response","214","202240","0.0-214.0","3FE7TXL1LJ96YUPOU02BNM98AW6Q2J","A2FB5UQTR3E0NX","3XEIP58NL09JROET00YR4SOXG94ZLV","","null","<img src=""img/animal2.png"" style=""width:200px; border:14px solid green;"">","null","","","","","",""
"","image-keyboard-response","215","203171","0.0-215.0","3FE7TXL1LJ96YUPOU02BNM98AW6Q2J","A2FB5UQTR3E0NX","3XEIP58NL09JROET00YR4SOXG94ZLV","","928.6000000238419","img/animal2.png","74","930.6999999880791","1","1","1","1,0.5,0,1,0,0.5,0.5,0,1",""
"","html-keyboard-response","216","203476","0.0-216.0","3FE7TXL1LJ96YUPOU02BNM98AW6Q2J","A2FB5UQTR3E0NX","3XEIP58NL09JROET00YR4SOXG94ZLV","","null","<img src=""img/animal2.png"" style=""width:200px; border:14px solid green;"">","null","","","","","",""
"","image-keyboard-response","217","204696","0.0-217.0","3FE7TXL1LJ96YUPOU02BNM98AW6Q2J","A2FB5UQTR3E0NX","3XEIP58NL09JROET00YR4SOXG94ZLV","","1218.3999999761581","img/animal4.png","76","1220.199999988079","3","1","3","1,0.5,0,1,0,0.5,0.5,0,1",""
"","html-keyboard-response","218","204999","0.0-218.0","3FE7TXL1LJ96YUPOU02BNM98AW6Q2J","A2FB5UQTR3E0NX","3XEIP58NL09JROET00YR4SOXG94ZLV","","null","<img src=""img/animal4.png"" style=""width:200px; border:14px solid green;"">","null","","","","","",""
"","image-keyboard-response","219","205835","0.0-219.0","3FE7TXL1LJ96YUPOU02BNM98AW6Q2J","A2FB5UQTR3E0NX","3XEIP58NL09JROET00YR4SOXG94ZLV","","833.1999999880791","img/animal1.png","75","835.3000000119209","2","0","2","1,0.5,0,1,0,0.5,0.5,0,1",""
"","html-keyboard-response","220","206140","0.0-220.0","3FE7TXL1LJ96YUPOU02BNM98AW6Q2J","A2FB5UQTR3E0NX","3XEIP58NL09JROET00YR4SOXG94ZLV","","null","<img src=""img/animal1.png"" style=""width:200px;border:14px solid red;"">","null","","","","","",""
"","image-keyboard-response","221","206718","0.0-221.0","3FE7TXL1LJ96YUPOU02BNM98AW6Q2J","A2FB5UQTR3E0NX","3XEIP58NL09JROET00YR4SOXG94ZLV","","575.2999999523163","img/animal1.png","74","577.1999999880791","1","1","2","1,0.5,0,1,0,0.5,0.5,0,1",""
"","html-keyboard-response","222","207021","0.0-222.0","3FE7TXL1LJ96YUPOU02BNM98AW6Q2J","A2FB5UQTR3E0NX","3XEIP58NL09JROET00YR4SOXG94ZLV","","null","<img src=""img/animal1.png"" style=""width:200px; border:14px solid green;"">","null","","","","","",""
"","image-keyboard-response","223","207675","0.0-223.0","3FE7TXL1LJ96YUPOU02BNM98AW6Q2J","A2FB5UQTR3E0NX","3XEIP58NL09JROET00YR4SOXG94ZLV","","651","img/animal1.png","74","652.8000000119209","1","1","2","1,0.5,0,1,0,0.5,0.5,0,1",""
"","html-keyboard-response","224","207978","0.0-224.0","3FE7TXL1LJ96YUPOU02BNM98AW6Q2J","A2FB5UQTR3E0NX","3XEIP58NL09JROET00YR4SOXG94ZLV","","null","<img src=""img/animal1.png"" style=""width:200px; border:14px solid green;"">","null","","","","","",""
"","image-keyboard-response","225","208449","0.0-225.0","3FE7TXL1LJ96YUPOU02BNM98AW6Q2J","A2FB5UQTR3E0NX","3XEIP58NL09JROET00YR4SOXG94ZLV","","468.89999997615814","img/animal1.png","74","472.7000000476837","1","1","2","1,0.5,0,1,0,0.5,0.5,0,1",""
"","html-keyboard-response","226","208755","0.0-226.0","3FE7TXL1LJ96YUPOU02BNM98AW6Q2J","A2FB5UQTR3E0NX","3XEIP58NL09JROET00YR4SOXG94ZLV","","null","<img src=""img/animal1.png"" style=""width:200px; border:14px solid green;"">","null","","","","","",""
"","image-keyboard-response","227","209534","0.0-227.0","3FE7TXL1LJ96YUPOU02BNM98AW6Q2J","A2FB5UQTR3E0NX","3XEIP58NL09JROET00YR4SOXG94ZLV","","776.8000000119209","img/animal4.png","76","778.9000000357628","3","1","3","1,0.5,0,1,0,0.5,0.5,0,1",""
"","html-keyboard-response","228","209839","0.0-228.0","3FE7TXL1LJ96YUPOU02BNM98AW6Q2J","A2FB5UQTR3E0NX","3XEIP58NL09JROET00YR4SOXG94ZLV","","null","<img src=""img/animal4.png"" style=""width:200px; border:14px solid green;"">","null","","","","","",""
"","image-keyboard-response","229","210631","0.0-229.0","3FE7TXL1LJ96YUPOU02BNM98AW6Q2J","A2FB5UQTR3E0NX","3XEIP58NL09JROET00YR4SOXG94ZLV","","789.6999999880791","img/animal1.png","74","791.5","1","1","2","1,0.5,0,1,0,0.5,0.5,0,1",""
"","html-keyboard-response","230","210934","0.0-230.0","3FE7TXL1LJ96YUPOU02BNM98AW6Q2J","A2FB5UQTR3E0NX","3XEIP58NL09JROET00YR4SOXG94ZLV","","null","<img src=""img/animal1.png"" style=""width:200px; border:14px solid green;"">","null","","","","","",""
"","image-keyboard-response","231","211567","0.0-231.0","3FE7TXL1LJ96YUPOU02BNM98AW6Q2J","A2FB5UQTR3E0NX","3XEIP58NL09JROET00YR4SOXG94ZLV","","629.8999999761581","img/animal2.png","75","632.5","2","1","1","1,0.5,0,1,0,0.5,0.5,0,1",""
"","html-keyboard-response","232","211870","0.0-232.0","3FE7TXL1LJ96YUPOU02BNM98AW6Q2J","A2FB5UQTR3E0NX","3XEIP58NL09JROET00YR4SOXG94ZLV","","null","<img src=""img/animal2.png"" style=""width:200px; border:14px solid green;"">","null","","","","","",""
"","image-keyboard-response","233","212368","0.0-233.0","3FE7TXL1LJ96YUPOU02BNM98AW6Q2J","A2FB5UQTR3E0NX","3XEIP58NL09JROET00YR4SOXG94ZLV","","495.5999999642372","img/animal2.png","75","497.7000000476837","2","1","1","1,0.5,0,1,0,0.5,0.5,0,1",""
"","html-keyboard-response","234","212684","0.0-234.0","3FE7TXL1LJ96YUPOU02BNM98AW6Q2J","A2FB5UQTR3E0NX","3XEIP58NL09JROET00YR4SOXG94ZLV","","null","<img src=""img/animal2.png"" style=""width:200px; border:14px solid green;"">","null","","","","","",""
"","image-keyboard-response","235","213323","0.0-235.0","3FE7TXL1LJ96YUPOU02BNM98AW6Q2J","A2FB5UQTR3E0NX","3XEIP58NL09JROET00YR4SOXG94ZLV","","637.1999999880791","img/animal4.png","76","638.7999999523163","3","1","3","1,0.5,0,1,0,0.5,0.5,0,1",""
"","html-keyboard-response","236","213626","0.0-236.0","3FE7TXL1LJ96YUPOU02BNM98AW6Q2J","A2FB5UQTR3E0NX","3XEIP58NL09JROET00YR4SOXG94ZLV","","null","<img src=""img/animal4.png"" style=""width:200px; border:14px solid green;"">","null","","","","","",""
"","image-keyboard-response","237","214139","0.0-237.0","3FE7TXL1LJ96YUPOU02BNM98AW6Q2J","A2FB5UQTR3E0NX","3XEIP58NL09JROET00YR4SOXG94ZLV","","510.5","img/animal1.png","74","512.6999999880791","1","1","2","1,0.5,0,1,0,0.5,0.5,0,1",""
"","html-keyboard-response","238","214444","0.0-238.0","3FE7TXL1LJ96YUPOU02BNM98AW6Q2J","A2FB5UQTR3E0NX","3XEIP58NL09JROET00YR4SOXG94ZLV","","null","<img src=""img/animal1.png"" style=""width:200px; border:14px solid green;"">","null","","","","","",""
"","image-keyboard-response","239","214951","0.0-239.0","3FE7TXL1LJ96YUPOU02BNM98AW6Q2J","A2FB5UQTR3E0NX","3XEIP58NL09JROET00YR4SOXG94ZLV","","504.30000001192093","img/animal1.png","74","506.69999998807907","1","1","2","1,0.5,0,1,0,0.5,0.5,0,1",""
"","html-keyboard-response","240","215255","0.0-240.0","3FE7TXL1LJ96YUPOU02BNM98AW6Q2J","A2FB5UQTR3E0NX","3XEIP58NL09JROET00YR4SOXG94ZLV","","null","<img src=""img/animal1.png"" style=""width:200px; border:14px solid green;"">","null","","","","","",""
"","image-keyboard-response","241","215632","0.0-241.0","3FE7TXL1LJ96YUPOU02BNM98AW6Q2J","A2FB5UQTR3E0NX","3XEIP58NL09JROET00YR4SOXG94ZLV","","374.60000002384186","img/animal1.png","74","376.30000001192093","1","1","2","1,0.5,0,1,0,0.5,0.5,0,1",""
"","html-keyboard-response","242","215936","0.0-242.0","3FE7TXL1LJ96YUPOU02BNM98AW6Q2J","A2FB5UQTR3E0NX","3XEIP58NL09JROET00YR4SOXG94ZLV","","null","<img src=""img/animal1.png"" style=""width:200px; border:14px solid green;"">","null","","","","","",""
"","image-keyboard-response","243","216801","0.0-243.0","3FE7TXL1LJ96YUPOU02BNM98AW6Q2J","A2FB5UQTR3E0NX","3XEIP58NL09JROET00YR4SOXG94ZLV","","862.3000000119209","img/animal4.png","75","865.1000000238419","2","0","3","1,0.5,0,1,0,0.5,0.5,0,1",""
"","html-keyboard-response","244","217105","0.0-244.0","3FE7TXL1LJ96YUPOU02BNM98AW6Q2J","A2FB5UQTR3E0NX","3XEIP58NL09JROET00YR4SOXG94ZLV","","null","<img src=""img/animal4.png"" style=""width:200px;border:14px solid red;"">","null","","","","","",""
"","image-keyboard-response","245","217555","0.0-245.0","3FE7TXL1LJ96YUPOU02BNM98AW6Q2J","A2FB5UQTR3E0NX","3XEIP58NL09JROET00YR4SOXG94ZLV","","448","img/animal4.png","76","449.5999999642372","3","1","3","1,0.5,0,1,0,0.5,0.5,0,1",""
"","html-keyboard-response","246","217858","0.0-246.0","3FE7TXL1LJ96YUPOU02BNM98AW6Q2J","A2FB5UQTR3E0NX","3XEIP58NL09JROET00YR4SOXG94ZLV","","null","<img src=""img/animal4.png"" style=""width:200px; border:14px solid green;"">","null","","","","","",""
"","image-keyboard-response","247","218689","0.0-247.0","3FE7TXL1LJ96YUPOU02BNM98AW6Q2J","A2FB5UQTR3E0NX","3XEIP58NL09JROET00YR4SOXG94ZLV","","829.2000000476837","img/animal2.png","75","830.7000000476837","2","0","1","1,0.5,0,1,0,0.5,0.5,0,1",""
"","html-keyboard-response","248","218991","0.0-248.0","3FE7TXL1LJ96YUPOU02BNM98AW6Q2J","A2FB5UQTR3E0NX","3XEIP58NL09JROET00YR4SOXG94ZLV","","null","<img src=""img/animal2.png"" style=""width:200px;border:14px solid red;"">","null","","","","","",""
"","image-keyboard-response","249","219126","0.0-249.0","3FE7TXL1LJ96YUPOU02BNM98AW6Q2J","A2FB5UQTR3E0NX","3XEIP58NL09JROET00YR4SOXG94ZLV","","131.89999997615814","img/animal2.png","74","133.69999998807907","1","1","1","1,0.5,0,1,0,0.5,0.5,0,1",""
"","html-keyboard-response","250","219429","0.0-250.0","3FE7TXL1LJ96YUPOU02BNM98AW6Q2J","A2FB5UQTR3E0NX","3XEIP58NL09JROET00YR4SOXG94ZLV","","null","<img src=""img/animal2.png"" style=""width:200px; border:14px solid green;"">","null","","","","","",""
"","image-keyboard-response","251","219904","0.0-251.0","3FE7TXL1LJ96YUPOU02BNM98AW6Q2J","A2FB5UQTR3E0NX","3XEIP58NL09JROET00YR4SOXG94ZLV","","473.2999999523163","img/animal2.png","74","475.2999999523163","1","1","1","1,0.5,0,1,0,0.5,0.5,0,1",""
"","html-keyboard-response","252","220208","0.0-252.0","3FE7TXL1LJ96YUPOU02BNM98AW6Q2J","A2FB5UQTR3E0NX","3XEIP58NL09JROET00YR4SOXG94ZLV","","null","<img src=""img/animal2.png"" style=""width:200px; border:14px solid green;"">","null","","","","","",""
"","image-keyboard-response","253","220609","0.0-253.0","3FE7TXL1LJ96YUPOU02BNM98AW6Q2J","A2FB5UQTR3E0NX","3XEIP58NL09JROET00YR4SOXG94ZLV","","398.7000000476837","img/animal2.png","74","400.60000002384186","1","1","1","1,0.5,0,1,0,0.5,0.5,0,1",""
"","html-keyboard-response","254","220913","0.0-254.0","3FE7TXL1LJ96YUPOU02BNM98AW6Q2J","A2FB5UQTR3E0NX","3XEIP58NL09JROET00YR4SOXG94ZLV","","null","<img src=""img/animal2.png"" style=""width:200px; border:14px solid green;"">","null","","","","","",""
"","image-keyboard-response","255","221414","0.0-255.0","3FE7TXL1LJ96YUPOU02BNM98AW6Q2J","A2FB5UQTR3E0NX","3XEIP58NL09JROET00YR4SOXG94ZLV","","499","img/animal4.png","75","500.89999997615814","2","0","3","1,0.5,0,1,0,0.5,0.5,0,1",""
"","html-keyboard-response","256","221719","0.0-256.0","3FE7TXL1LJ96YUPOU02BNM98AW6Q2J","A2FB5UQTR3E0NX","3XEIP58NL09JROET00YR4SOXG94ZLV","","null","<img src=""img/animal4.png"" style=""width:200px;border:14px solid red;"">","null","","","","","",""
"","image-keyboard-response","257","222097","0.0-257.0","3FE7TXL1LJ96YUPOU02BNM98AW6Q2J","A2FB5UQTR3E0NX","3XEIP58NL09JROET00YR4SOXG94ZLV","","374.5","img/animal4.png","76","377.2999999523163","3","1","3","1,0.5,0,1,0,0.5,0.5,0,1",""
"","html-keyboard-response","258","222401","0.0-258.0","3FE7TXL1LJ96YUPOU02BNM98AW6Q2J","A2FB5UQTR3E0NX","3XEIP58NL09JROET00YR4SOXG94ZLV","","null","<img src=""img/animal4.png"" style=""width:200px; border:14px solid green;"">","null","","","","","",""
"","image-keyboard-response","259","222944","0.0-259.0","3FE7TXL1LJ96YUPOU02BNM98AW6Q2J","A2FB5UQTR3E0NX","3XEIP58NL09JROET00YR4SOXG94ZLV","","540.8000000119209","img/animal2.png","74","542.9000000357628","1","1","1","1,0.5,0,1,0,0.5,0.5,0,1",""
"","html-keyboard-response","260","223248","0.0-260.0","3FE7TXL1LJ96YUPOU02BNM98AW6Q2J","A2FB5UQTR3E0NX","3XEIP58NL09JROET00YR4SOXG94ZLV","","null","<img src=""img/animal2.png"" style=""width:200px; border:14px solid green;"">","null","","","","","",""
"","image-keyboard-response","261","223877","0.0-261.0","3FE7TXL1LJ96YUPOU02BNM98AW6Q2J","A2FB5UQTR3E0NX","3XEIP58NL09JROET00YR4SOXG94ZLV","","627.1999999880791","img/animal4.png","76","628.6999999880791","3","1","3","1,0.5,0,1,0,0.5,0.5,0,1",""
"","html-keyboard-response","262","224179","0.0-262.0","3FE7TXL1LJ96YUPOU02BNM98AW6Q2J","A2FB5UQTR3E0NX","3XEIP58NL09JROET00YR4SOXG94ZLV","","null","<img src=""img/animal4.png"" style=""width:200px; border:14px solid green;"">","null","","","","","",""
"","image-keyboard-response","263","224585","0.0-263.0","3FE7TXL1LJ96YUPOU02BNM98AW6Q2J","A2FB5UQTR3E0NX","3XEIP58NL09JROET00YR4SOXG94ZLV","","404.30000001192093","img/animal4.png","76","406.19999998807907","3","1","3","1,0.5,0,1,0,0.5,0.5,0,1",""
"","html-keyboard-response","264","224889","0.0-264.0","3FE7TXL1LJ96YUPOU02BNM98AW6Q2J","A2FB5UQTR3E0NX","3XEIP58NL09JROET00YR4SOXG94ZLV","","null","<img src=""img/animal4.png"" style=""width:200px; border:14px solid green;"">","null","","","","","",""
"","image-keyboard-response","265","225752","0.0-265.0","3FE7TXL1LJ96YUPOU02BNM98AW6Q2J","A2FB5UQTR3E0NX","3XEIP58NL09JROET00YR4SOXG94ZLV","","860.3000000119209","img/animal2.png","74","862.6999999880791","1","1","1","1,0.5,0,1,0,0.5,0.5,0,1",""
"","html-keyboard-response","266","226056","0.0-266.0","3FE7TXL1LJ96YUPOU02BNM98AW6Q2J","A2FB5UQTR3E0NX","3XEIP58NL09JROET00YR4SOXG94ZLV","","null","<img src=""img/animal2.png"" style=""width:200px; border:14px solid green;"">","null","","","","","",""
"","image-keyboard-response","267","226468","0.0-267.0","3FE7TXL1LJ96YUPOU02BNM98AW6Q2J","A2FB5UQTR3E0NX","3XEIP58NL09JROET00YR4SOXG94ZLV","","409","img/animal2.png","74","411.19999998807907","1","1","1","1,0.5,0,1,0,0.5,0.5,0,1",""
"","html-keyboard-response","268","226773","0.0-268.0","3FE7TXL1LJ96YUPOU02BNM98AW6Q2J","A2FB5UQTR3E0NX","3XEIP58NL09JROET00YR4SOXG94ZLV","","null","<img src=""img/animal2.png"" style=""width:200px; border:14px solid green;"">","null","","","","","",""
"","image-keyboard-response","269","227697","0.0-269.0","3FE7TXL1LJ96YUPOU02BNM98AW6Q2J","A2FB5UQTR3E0NX","3XEIP58NL09JROET00YR4SOXG94ZLV","","922.3000000119209","img/animal1.png","75","924","2","0","2","1,0.5,0,1,0,0.5,0.5,0,1",""
"","html-keyboard-response","270","228000","0.0-270.0","3FE7TXL1LJ96YUPOU02BNM98AW6Q2J","A2FB5UQTR3E0NX","3XEIP58NL09JROET00YR4SOXG94ZLV","","null","<img src=""img/animal1.png"" style=""width:200px;border:14px solid red;"">","null","","","","","",""
"","image-keyboard-response","271","228277","0.0-271.0","3FE7TXL1LJ96YUPOU02BNM98AW6Q2J","A2FB5UQTR3E0NX","3XEIP58NL09JROET00YR4SOXG94ZLV","","274.2999999523163","img/animal4.png","76","276.39999997615814","3","1","3","1,0.5,0,1,0,0.5,0.5,0,1",""
"","html-keyboard-response","272","228580","0.0-272.0","3FE7TXL1LJ96YUPOU02BNM98AW6Q2J","A2FB5UQTR3E0NX","3XEIP58NL09JROET00YR4SOXG94ZLV","","null","<img src=""img/animal4.png"" style=""width:200px; border:14px solid green;"">","null","","","","","",""
"","image-keyboard-response","273","229040","0.0-273.0","3FE7TXL1LJ96YUPOU02BNM98AW6Q2J","A2FB5UQTR3E0NX","3XEIP58NL09JROET00YR4SOXG94ZLV","","457.0999999642372","img/animal4.png","76","459.39999997615814","3","1","3","1,0.5,0,1,0,0.5,0.5,0,1",""
"","html-keyboard-response","274","229343","0.0-274.0","3FE7TXL1LJ96YUPOU02BNM98AW6Q2J","A2FB5UQTR3E0NX","3XEIP58NL09JROET00YR4SOXG94ZLV","","null","<img src=""img/animal4.png"" style=""width:200px; border:14px solid green;"">","null","","","","","",""
"","image-keyboard-response","275","230212","0.0-275.0","3FE7TXL1LJ96YUPOU02BNM98AW6Q2J","A2FB5UQTR3E0NX","3XEIP58NL09JROET00YR4SOXG94ZLV","","867.3000000119209","img/animal2.png","75","869.1999999880791","2","1","1","1,0.5,0,1,0,0.5,0.5,0,1",""
"","html-keyboard-response","276","230515","0.0-276.0","3FE7TXL1LJ96YUPOU02BNM98AW6Q2J","A2FB5UQTR3E0NX","3XEIP58NL09JROET00YR4SOXG94ZLV","","null","<img src=""img/animal2.png"" style=""width:200px; border:14px solid green;"">","null","","","","","",""
"","image-keyboard-response","277","231124","0.0-277.0","3FE7TXL1LJ96YUPOU02BNM98AW6Q2J","A2FB5UQTR3E0NX","3XEIP58NL09JROET00YR4SOXG94ZLV","","605.4000000357628","img/animal4.png","76","607.9000000357628","3","1","3","1,0.5,0,1,0,0.5,0.5,0,1",""
"","html-keyboard-response","278","231428","0.0-278.0","3FE7TXL1LJ96YUPOU02BNM98AW6Q2J","A2FB5UQTR3E0NX","3XEIP58NL09JROET00YR4SOXG94ZLV","","null","<img src=""img/animal4.png"" style=""width:200px; border:14px solid green;"">","null","","","","","",""
"","image-keyboard-response","279","231967","0.0-279.0","3FE7TXL1LJ96YUPOU02BNM98AW6Q2J","A2FB5UQTR3E0NX","3XEIP58NL09JROET00YR4SOXG94ZLV","","536.1000000238419","img/animal4.png","76","538.2000000476837","3","1","3","1,0.5,0,1,0,0.5,0.5,0,1",""
"","html-keyboard-response","280","232270","0.0-280.0","3FE7TXL1LJ96YUPOU02BNM98AW6Q2J","A2FB5UQTR3E0NX","3XEIP58NL09JROET00YR4SOXG94ZLV","","null","<img src=""img/animal4.png"" style=""width:200px; border:14px solid green;"">","null","","","","","",""
"","image-keyboard-response","281","232687","0.0-281.0","3FE7TXL1LJ96YUPOU02BNM98AW6Q2J","A2FB5UQTR3E0NX","3XEIP58NL09JROET00YR4SOXG94ZLV","","414.5","img/animal4.png","76","416.69999998807907","3","1","3","1,0.5,0,1,0,0.5,0.5,0,1",""
"","html-keyboard-response","282","232990","0.0-282.0","3FE7TXL1LJ96YUPOU02BNM98AW6Q2J","A2FB5UQTR3E0NX","3XEIP58NL09JROET00YR4SOXG94ZLV","","null","<img src=""img/animal4.png"" style=""width:200px; border:14px solid green;"">","null","","","","","",""
"","image-keyboard-response","283","233628","0.0-283.0","3FE7TXL1LJ96YUPOU02BNM98AW6Q2J","A2FB5UQTR3E0NX","3XEIP58NL09JROET00YR4SOXG94ZLV","","635.5","img/animal1.png","75","637","2","0","2","1,0.5,0,1,0,0.5,0.5,0,1",""
"","html-keyboard-response","284","233931","0.0-284.0","3FE7TXL1LJ96YUPOU02BNM98AW6Q2J","A2FB5UQTR3E0NX","3XEIP58NL09JROET00YR4SOXG94ZLV","","null","<img src=""img/animal1.png"" style=""width:200px;border:14px solid red;"">","null","","","","","",""
"","image-keyboard-response","285","234050","0.0-285.0","3FE7TXL1LJ96YUPOU02BNM98AW6Q2J","A2FB5UQTR3E0NX","3XEIP58NL09JROET00YR4SOXG94ZLV","","116.5","img/animal2.png","74","118.60000002384186","1","1","1","1,0.5,0,1,0,0.5,0.5,0,1",""
"","html-keyboard-response","286","234352","0.0-286.0","3FE7TXL1LJ96YUPOU02BNM98AW6Q2J","A2FB5UQTR3E0NX","3XEIP58NL09JROET00YR4SOXG94ZLV","","null","<img src=""img/animal2.png"" style=""width:200px; border:14px solid green;"">","null","","","","","",""
"","image-keyboard-response","287","234981","0.0-287.0","3FE7TXL1LJ96YUPOU02BNM98AW6Q2J","A2FB5UQTR3E0NX","3XEIP58NL09JROET00YR4SOXG94ZLV","","626.4000000357628","img/animal1.png","75","628.6999999880791","2","0","2","1,0.5,0,1,0,0.5,0.5,0,1",""
"","html-keyboard-response","288","235284","0.0-288.0","3FE7TXL1LJ96YUPOU02BNM98AW6Q2J","A2FB5UQTR3E0NX","3XEIP58NL09JROET00YR4SOXG94ZLV","","null","<img src=""img/animal1.png"" style=""width:200px;border:14px solid red;"">","null","","","","","",""
"","image-keyboard-response","289","235495","0.0-289.0","3FE7TXL1LJ96YUPOU02BNM98AW6Q2J","A2FB5UQTR3E0NX","3XEIP58NL09JROET00YR4SOXG94ZLV","","208.80000001192093","img/animal1.png","76","210.5","3","0","2","1,0.5,0,1,0,0.5,0.5,0,1",""
"","html-keyboard-response","290","235798","0.0-290.0","3FE7TXL1LJ96YUPOU02BNM98AW6Q2J","A2FB5UQTR3E0NX","3XEIP58NL09JROET00YR4SOXG94ZLV","","null","<img src=""img/animal1.png"" style=""width:200px;border:14px solid red;"">","null","","","","","",""
"","image-keyboard-response","291","236165","0.0-291.0","3FE7TXL1LJ96YUPOU02BNM98AW6Q2J","A2FB5UQTR3E0NX","3XEIP58NL09JROET00YR4SOXG94ZLV","","365","img/animal1.png","74","366.89999997615814","1","1","2","1,0.5,0,1,0,0.5,0.5,0,1",""
"","html-keyboard-response","292","236468","0.0-292.0","3FE7TXL1LJ96YUPOU02BNM98AW6Q2J","A2FB5UQTR3E0NX","3XEIP58NL09JROET00YR4SOXG94ZLV","","null","<img src=""img/animal1.png"" style=""width:200px; border:14px solid green;"">","null","","","","","",""
"","image-keyboard-response","293","237049","0.0-293.0","3FE7TXL1LJ96YUPOU02BNM98AW6Q2J","A2FB5UQTR3E0NX","3XEIP58NL09JROET00YR4SOXG94ZLV","","579.5","img/animal4.png","76","581.1999999880791","3","1","3","1,0.5,0,1,0,0.5,0.5,0,1",""
"","html-keyboard-response","294","237353","0.0-294.0","3FE7TXL1LJ96YUPOU02BNM98AW6Q2J","A2FB5UQTR3E0NX","3XEIP58NL09JROET00YR4SOXG94ZLV","","null","<img src=""img/animal4.png"" style=""width:200px; border:14px solid green;"">","null","","","","","",""
"","image-keyboard-response","295","238305","0.0-295.0","3FE7TXL1LJ96YUPOU02BNM98AW6Q2J","A2FB5UQTR3E0NX","3XEIP58NL09JROET00YR4SOXG94ZLV","","949.3000000119209","img/animal2.png","75","951.6999999880791","2","0","1","1,0.5,0,1,0,0.5,0.5,0,1",""
"","html-keyboard-response","296","238609","0.0-296.0","3FE7TXL1LJ96YUPOU02BNM98AW6Q2J","A2FB5UQTR3E0NX","3XEIP58NL09JROET00YR4SOXG94ZLV","","null","<img src=""img/animal2.png"" style=""width:200px;border:14px solid red;"">","null","","","","","",""
"","image-keyboard-response","297","238786","0.0-297.0","3FE7TXL1LJ96YUPOU02BNM98AW6Q2J","A2FB5UQTR3E0NX","3XEIP58NL09JROET00YR4SOXG94ZLV","","173.9000000357628","img/animal4.png","74","176.60000002384186","1","1","3","1,0.5,0,1,0,0.5,0.5,0,1",""
"","html-keyboard-response","298","239089","0.0-298.0","3FE7TXL1LJ96YUPOU02BNM98AW6Q2J","A2FB5UQTR3E0NX","3XEIP58NL09JROET00YR4SOXG94ZLV","","null","<img src=""img/animal4.png"" style=""width:200px; border:14px solid green;"">","null","","","","","",""
"","image-keyboard-response","299","239773","0.0-299.0","3FE7TXL1LJ96YUPOU02BNM98AW6Q2J","A2FB5UQTR3E0NX","3XEIP58NL09JROET00YR4SOXG94ZLV","","681.3000000119209","img/animal2.png","74","683.5","1","1","1","1,0.5,0,1,0,0.5,0.5,0,1",""
"","html-keyboard-response","300","240077","0.0-300.0","3FE7TXL1LJ96YUPOU02BNM98AW6Q2J","A2FB5UQTR3E0NX","3XEIP58NL09JROET00YR4SOXG94ZLV","","null","<img src=""img/animal2.png"" style=""width:200px; border:14px solid green;"">","null","","","","","",""
"","image-keyboard-response","301","240961","0.0-301.0","3FE7TXL1LJ96YUPOU02BNM98AW6Q2J","A2FB5UQTR3E0NX","3XEIP58NL09JROET00YR4SOXG94ZLV","","881.0999999642372","img/animal4.png","76","883","3","1","3","1,0.5,0,1,0,0.5,0.5,0,1",""
"","html-keyboard-response","302","241263","0.0-302.0","3FE7TXL1LJ96YUPOU02BNM98AW6Q2J","A2FB5UQTR3E0NX","3XEIP58NL09JROET00YR4SOXG94ZLV","","null","<img src=""img/animal4.png"" style=""width:200px; border:14px solid green;"">","null","","","","","",""
"","image-keyboard-response","303","241633","0.0-303.0","3FE7TXL1LJ96YUPOU02BNM98AW6Q2J","A2FB5UQTR3E0NX","3XEIP58NL09JROET00YR4SOXG94ZLV","","367.2000000476837","img/animal4.png","76","369.4000000357628","3","1","3","1,0.5,0,1,0,0.5,0.5,0,1",""
"","html-keyboard-response","304","241938","0.0-304.0","3FE7TXL1LJ96YUPOU02BNM98AW6Q2J","A2FB5UQTR3E0NX","3XEIP58NL09JROET00YR4SOXG94ZLV","","null","<img src=""img/animal4.png"" style=""width:200px; border:14px solid green;"">","null","","","","","",""
"","image-keyboard-response","305","242844","0.0-305.0","3FE7TXL1LJ96YUPOU02BNM98AW6Q2J","A2FB5UQTR3E0NX","3XEIP58NL09JROET00YR4SOXG94ZLV","","903.4000000357628","img/animal1.png","74","905.6000000238419","1","1","2","1,0.5,0,1,0,0.5,0.5,0,1",""
"","html-keyboard-response","306","243148","0.0-306.0","3FE7TXL1LJ96YUPOU02BNM98AW6Q2J","A2FB5UQTR3E0NX","3XEIP58NL09JROET00YR4SOXG94ZLV","","null","<img src=""img/animal1.png"" style=""width:200px; border:14px solid green;"">","null","","","","","",""
"","image-keyboard-response","307","243521","0.0-307.0","3FE7TXL1LJ96YUPOU02BNM98AW6Q2J","A2FB5UQTR3E0NX","3XEIP58NL09JROET00YR4SOXG94ZLV","","371.60000002384186","img/animal1.png","74","373.39999997615814","1","1","2","1,0.5,0,1,0,0.5,0.5,0,1",""
"","html-keyboard-response","308","243824","0.0-308.0","3FE7TXL1LJ96YUPOU02BNM98AW6Q2J","A2FB5UQTR3E0NX","3XEIP58NL09JROET00YR4SOXG94ZLV","","null","<img src=""img/animal1.png"" style=""width:200px; border:14px solid green;"">","null","","","","","",""
"","image-keyboard-response","309","244329","0.0-309.0","3FE7TXL1LJ96YUPOU02BNM98AW6Q2J","A2FB5UQTR3E0NX","3XEIP58NL09JROET00YR4SOXG94ZLV","","502.69999998807907","img/animal4.png","74","504.7999999523163","1","0","3","1,0.5,0,1,0,0.5,0.5,0,1",""
"","html-keyboard-response","310","244634","0.0-310.0","3FE7TXL1LJ96YUPOU02BNM98AW6Q2J","A2FB5UQTR3E0NX","3XEIP58NL09JROET00YR4SOXG94ZLV","","null","<img src=""img/animal4.png"" style=""width:200px;border:14px solid red;"">","null","","","","","",""
"","image-keyboard-response","311","245130","0.0-311.0","3FE7TXL1LJ96YUPOU02BNM98AW6Q2J","A2FB5UQTR3E0NX","3XEIP58NL09JROET00YR4SOXG94ZLV","","492.4000000357628","img/animal2.png","75","494.9000000357628","2","1","1","1,0.5,0,1,0,0.5,0.5,0,1",""
"","html-keyboard-response","312","245433","0.0-312.0","3FE7TXL1LJ96YUPOU02BNM98AW6Q2J","A2FB5UQTR3E0NX","3XEIP58NL09JROET00YR4SOXG94ZLV","","null","<img src=""img/animal2.png"" style=""width:200px; border:14px solid green;"">","null","","","","","",""
"","image-keyboard-response","313","246545","0.0-313.0","3FE7TXL1LJ96YUPOU02BNM98AW6Q2J","A2FB5UQTR3E0NX","3XEIP58NL09JROET00YR4SOXG94ZLV","","1108.699999988079","img/animal1.png","74","1111.2000000476837","1","1","2","1,0.5,0,1,0,0.5,0.5,0,1",""
"","html-keyboard-response","314","246848","0.0-314.0","3FE7TXL1LJ96YUPOU02BNM98AW6Q2J","A2FB5UQTR3E0NX","3XEIP58NL09JROET00YR4SOXG94ZLV","","null","<img src=""img/animal1.png"" style=""width:200px; border:14px solid green;"">","null","","","","","",""
"","image-keyboard-response","315","247583","0.0-315.0","3FE7TXL1LJ96YUPOU02BNM98AW6Q2J","A2FB5UQTR3E0NX","3XEIP58NL09JROET00YR4SOXG94ZLV","","733","img/animal2.png","75","734.7000000476837","2","1","1","1,0.5,0,1,0,0.5,0.5,0,1",""
"","html-keyboard-response","316","247888","0.0-316.0","3FE7TXL1LJ96YUPOU02BNM98AW6Q2J","A2FB5UQTR3E0NX","3XEIP58NL09JROET00YR4SOXG94ZLV","","null","<img src=""img/animal2.png"" style=""width:200px; border:14px solid green;"">","null","","","","","",""
"","image-keyboard-response","317","248616","0.0-317.0","3FE7TXL1LJ96YUPOU02BNM98AW6Q2J","A2FB5UQTR3E0NX","3XEIP58NL09JROET00YR4SOXG94ZLV","","725.8000000119209","img/animal1.png","74","727.5999999642372","1","1","2","1,0.5,0,1,0,0.5,0.5,0,1",""
"","html-keyboard-response","318","248919","0.0-318.0","3FE7TXL1LJ96YUPOU02BNM98AW6Q2J","A2FB5UQTR3E0NX","3XEIP58NL09JROET00YR4SOXG94ZLV","","null","<img src=""img/animal1.png"" style=""width:200px; border:14px solid green;"">","null","","","","","",""
"","image-keyboard-response","319","249624","0.0-319.0","3FE7TXL1LJ96YUPOU02BNM98AW6Q2J","A2FB5UQTR3E0NX","3XEIP58NL09JROET00YR4SOXG94ZLV","","703.1000000238419","img/animal4.png","76","705","3","1","3","1,0.5,0,1,0,0.5,0.5,0,1",""
"","html-keyboard-response","320","249928","0.0-320.0","3FE7TXL1LJ96YUPOU02BNM98AW6Q2J","A2FB5UQTR3E0NX","3XEIP58NL09JROET00YR4SOXG94ZLV","","null","<img src=""img/animal4.png"" style=""width:200px; border:14px solid green;"">","null","","","","","",""
"","image-keyboard-response","321","250325","0.0-321.0","3FE7TXL1LJ96YUPOU02BNM98AW6Q2J","A2FB5UQTR3E0NX","3XEIP58NL09JROET00YR4SOXG94ZLV","","394.60000002384186","img/animal4.png","76","396.69999998807907","3","1","3","1,0.5,0,1,0,0.5,0.5,0,1",""
"","html-keyboard-response","322","250628","0.0-322.0","3FE7TXL1LJ96YUPOU02BNM98AW6Q2J","A2FB5UQTR3E0NX","3XEIP58NL09JROET00YR4SOXG94ZLV","","null","<img src=""img/animal4.png"" style=""width:200px; border:14px solid green;"">","null","","","","","",""
"","image-keyboard-response","323","251590","0.0-323.0","3FE7TXL1LJ96YUPOU02BNM98AW6Q2J","A2FB5UQTR3E0NX","3XEIP58NL09JROET00YR4SOXG94ZLV","","959.3999999761581","img/animal2.png","74","961.4000000357628","1","1","1","1,0.5,0,1,0,0.5,0.5,0,1",""
"","html-keyboard-response","324","251893","0.0-324.0","3FE7TXL1LJ96YUPOU02BNM98AW6Q2J","A2FB5UQTR3E0NX","3XEIP58NL09JROET00YR4SOXG94ZLV","","null","<img src=""img/animal2.png"" style=""width:200px; border:14px solid green;"">","null","","","","","",""
"","image-keyboard-response","325","252309","0.0-325.0","3FE7TXL1LJ96YUPOU02BNM98AW6Q2J","A2FB5UQTR3E0NX","3XEIP58NL09JROET00YR4SOXG94ZLV","","414","img/animal2.png","74","416.10000002384186","1","1","1","1,0.5,0,1,0,0.5,0.5,0,1",""
"","html-keyboard-response","326","252612","0.0-326.0","3FE7TXL1LJ96YUPOU02BNM98AW6Q2J","A2FB5UQTR3E0NX","3XEIP58NL09JROET00YR4SOXG94ZLV","","null","<img src=""img/animal2.png"" style=""width:200px; border:14px solid green;"">","null","","","","","",""
"","image-keyboard-response","327","253415","0.0-327.0","3FE7TXL1LJ96YUPOU02BNM98AW6Q2J","A2FB5UQTR3E0NX","3XEIP58NL09JROET00YR4SOXG94ZLV","","800.3999999761581","img/animal4.png","76","802.2000000476837","3","1","3","1,0.5,0,1,0,0.5,0.5,0,1",""
"","html-keyboard-response","328","253718","0.0-328.0","3FE7TXL1LJ96YUPOU02BNM98AW6Q2J","A2FB5UQTR3E0NX","3XEIP58NL09JROET00YR4SOXG94ZLV","","null","<img src=""img/animal4.png"" style=""width:200px; border:14px solid green;"">","null","","","","","",""
"","image-keyboard-response","329","254159","0.0-329.0","3FE7TXL1LJ96YUPOU02BNM98AW6Q2J","A2FB5UQTR3E0NX","3XEIP58NL09JROET00YR4SOXG94ZLV","","438.5","img/animal4.png","76","440.69999998807907","3","1","3","1,0.5,0,1,0,0.5,0.5,0,1",""
"","html-keyboard-response","330","254462","0.0-330.0","3FE7TXL1LJ96YUPOU02BNM98AW6Q2J","A2FB5UQTR3E0NX","3XEIP58NL09JROET00YR4SOXG94ZLV","","null","<img src=""img/animal4.png"" style=""width:200px; border:14px solid green;"">","null","","","","","",""
"","image-keyboard-response","331","255099","0.0-331.0","3FE7TXL1LJ96YUPOU02BNM98AW6Q2J","A2FB5UQTR3E0NX","3XEIP58NL09JROET00YR4SOXG94ZLV","","635.3000000119209","img/animal1.png","74","637","1","1","2","1,0.5,0,1,0,0.5,0.5,0,1",""
"","html-keyboard-response","332","255403","0.0-332.0","3FE7TXL1LJ96YUPOU02BNM98AW6Q2J","A2FB5UQTR3E0NX","3XEIP58NL09JROET00YR4SOXG94ZLV","","null","<img src=""img/animal1.png"" style=""width:200px; border:14px solid green;"">","null","","","","","",""
"","image-keyboard-response","333","255979","0.0-333.0","3FE7TXL1LJ96YUPOU02BNM98AW6Q2J","A2FB5UQTR3E0NX","3XEIP58NL09JROET00YR4SOXG94ZLV","","573.1999999880791","img/animal2.png","75","575.3000000119209","2","0","1","1,0.5,0,1,0,0.5,0.5,0,1",""
"","html-keyboard-response","334","256282","0.0-334.0","3FE7TXL1LJ96YUPOU02BNM98AW6Q2J","A2FB5UQTR3E0NX","3XEIP58NL09JROET00YR4SOXG94ZLV","","null","<img src=""img/animal2.png"" style=""width:200px;border:14px solid red;"">","null","","","","","",""
"","image-keyboard-response","335","257020","0.0-335.0","3FE7TXL1LJ96YUPOU02BNM98AW6Q2J","A2FB5UQTR3E0NX","3XEIP58NL09JROET00YR4SOXG94ZLV","","735.1999999880791","img/animal1.png","74","737.0999999642372","1","1","2","1,0.5,0,1,0,0.5,0.5,0,1",""
"","html-keyboard-response","336","257323","0.0-336.0","3FE7TXL1LJ96YUPOU02BNM98AW6Q2J","A2FB5UQTR3E0NX","3XEIP58NL09JROET00YR4SOXG94ZLV","","null","<img src=""img/animal1.png"" style=""width:200px; border:14px solid green;"">","null","","","","","",""
"","image-keyboard-response","337","257879","0.0-337.0","3FE7TXL1LJ96YUPOU02BNM98AW6Q2J","A2FB5UQTR3E0NX","3XEIP58NL09JROET00YR4SOXG94ZLV","","553.3000000119209","img/animal4.png","76","555.2000000476837","3","1","3","1,0.5,0,1,0,0.5,0.5,0,1",""
"","html-keyboard-response","338","258182","0.0-338.0","3FE7TXL1LJ96YUPOU02BNM98AW6Q2J","A2FB5UQTR3E0NX","3XEIP58NL09JROET00YR4SOXG94ZLV","","null","<img src=""img/animal4.png"" style=""width:200px; border:14px solid green;"">","null","","","","","",""
"","image-keyboard-response","339","259038","0.0-339.0","3FE7TXL1LJ96YUPOU02BNM98AW6Q2J","A2FB5UQTR3E0NX","3XEIP58NL09JROET00YR4SOXG94ZLV","","853.5999999642372","img/animal1.png","74","855.6000000238419","1","1","2","1,0.5,0,1,0,0.5,0.5,0,1",""
"","html-keyboard-response","340","259341","0.0-340.0","3FE7TXL1LJ96YUPOU02BNM98AW6Q2J","A2FB5UQTR3E0NX","3XEIP58NL09JROET00YR4SOXG94ZLV","","null","<img src=""img/animal1.png"" style=""width:200px; border:14px solid green;"">","null","","","","","",""
"","image-keyboard-response","341","260161","0.0-341.0","3FE7TXL1LJ96YUPOU02BNM98AW6Q2J","A2FB5UQTR3E0NX","3XEIP58NL09JROET00YR4SOXG94ZLV","","817.8999999761581","img/animal2.png","75","819.6999999880791","2","0","1","1,0.5,0,1,0,0.5,0.5,0,1",""
"","html-keyboard-response","342","260464","0.0-342.0","3FE7TXL1LJ96YUPOU02BNM98AW6Q2J","A2FB5UQTR3E0NX","3XEIP58NL09JROET00YR4SOXG94ZLV","","null","<img src=""img/animal2.png"" style=""width:200px;border:14px solid red;"">","null","","","","","",""
"","image-keyboard-response","343","260939","0.0-343.0","3FE7TXL1LJ96YUPOU02BNM98AW6Q2J","A2FB5UQTR3E0NX","3XEIP58NL09JROET00YR4SOXG94ZLV","","473.2000000476837","img/animal1.png","76","474.7000000476837","3","0","2","1,0.5,0,1,0,0.5,0.5,0,1",""
"","html-keyboard-response","344","261244","0.0-344.0","3FE7TXL1LJ96YUPOU02BNM98AW6Q2J","A2FB5UQTR3E0NX","3XEIP58NL09JROET00YR4SOXG94ZLV","","null","<img src=""img/animal1.png"" style=""width:200px;border:14px solid red;"">","null","","","","","",""
"","image-keyboard-response","345","261844","0.0-345.0","3FE7TXL1LJ96YUPOU02BNM98AW6Q2J","A2FB5UQTR3E0NX","3XEIP58NL09JROET00YR4SOXG94ZLV","","597.5","img/animal1.png","74","599.6000000238419","1","1","2","1,0.5,0,1,0,0.5,0.5,0,1",""
"","html-keyboard-response","346","262147","0.0-346.0","3FE7TXL1LJ96YUPOU02BNM98AW6Q2J","A2FB5UQTR3E0NX","3XEIP58NL09JROET00YR4SOXG94ZLV","","null","<img src=""img/animal1.png"" style=""width:200px; border:14px solid green;"">","null","","","","","",""
"","image-keyboard-response","347","262778","0.0-347.0","3FE7TXL1LJ96YUPOU02BNM98AW6Q2J","A2FB5UQTR3E0NX","3XEIP58NL09JROET00YR4SOXG94ZLV","","627.8000000119209","img/animal4.png","76","630","3","1","3","1,0.5,0,1,0,0.5,0.5,0,1",""
"","html-keyboard-response","348","263081","0.0-348.0","3FE7TXL1LJ96YUPOU02BNM98AW6Q2J","A2FB5UQTR3E0NX","3XEIP58NL09JROET00YR4SOXG94ZLV","","null","<img src=""img/animal4.png"" style=""width:200px; border:14px solid green;"">","null","","","","","",""
"","image-keyboard-response","349","263535","0.0-349.0","3FE7TXL1LJ96YUPOU02BNM98AW6Q2J","A2FB5UQTR3E0NX","3XEIP58NL09JROET00YR4SOXG94ZLV","","452.39999997615814","img/animal4.png","76","453.89999997615814","3","1","3","1,0.5,0,1,0,0.5,0.5,0,1",""
"","html-keyboard-response","350","263839","0.0-350.0","3FE7TXL1LJ96YUPOU02BNM98AW6Q2J","A2FB5UQTR3E0NX","3XEIP58NL09JROET00YR4SOXG94ZLV","","null","<img src=""img/animal4.png"" style=""width:200px; border:14px solid green;"">","null","","","","","",""
"","image-keyboard-response","351","264288","0.0-351.0","3FE7TXL1LJ96YUPOU02BNM98AW6Q2J","A2FB5UQTR3E0NX","3XEIP58NL09JROET00YR4SOXG94ZLV","","447.0999999642372","img/animal4.png","76","449","3","1","3","1,0.5,0,1,0,0.5,0.5,0,1",""
"","html-keyboard-response","352","264591","0.0-352.0","3FE7TXL1LJ96YUPOU02BNM98AW6Q2J","A2FB5UQTR3E0NX","3XEIP58NL09JROET00YR4SOXG94ZLV","","null","<img src=""img/animal4.png"" style=""width:200px; border:14px solid green;"">","null","","","","","",""
"","image-keyboard-response","353","265652","0.0-353.0","3FE7TXL1LJ96YUPOU02BNM98AW6Q2J","A2FB5UQTR3E0NX","3XEIP58NL09JROET00YR4SOXG94ZLV","","1058.699999988079","img/animal2.png","74","1060.300000011921","1","1","1","1,0.5,0,1,0,0.5,0.5,0,1",""
"","html-keyboard-response","354","265955","0.0-354.0","3FE7TXL1LJ96YUPOU02BNM98AW6Q2J","A2FB5UQTR3E0NX","3XEIP58NL09JROET00YR4SOXG94ZLV","","null","<img src=""img/animal2.png"" style=""width:200px; border:14px solid green;"">","null","","","","","",""
"","image-keyboard-response","355","266389","0.0-355.0","3FE7TXL1LJ96YUPOU02BNM98AW6Q2J","A2FB5UQTR3E0NX","3XEIP58NL09JROET00YR4SOXG94ZLV","","432","img/animal2.png","74","434.10000002384186","1","1","1","1,0.5,0,1,0,0.5,0.5,0,1",""
"","html-keyboard-response","356","266693","0.0-356.0","3FE7TXL1LJ96YUPOU02BNM98AW6Q2J","A2FB5UQTR3E0NX","3XEIP58NL09JROET00YR4SOXG94ZLV","","null","<img src=""img/animal2.png"" style=""width:200px; border:14px solid green;"">","null","","","","","",""
"","image-keyboard-response","357","267248","0.0-357.0","3FE7TXL1LJ96YUPOU02BNM98AW6Q2J","A2FB5UQTR3E0NX","3XEIP58NL09JROET00YR4SOXG94ZLV","","552.5","img/animal1.png","75","554.8999999761581","2","0","2","1,0.5,0,1,0,0.5,0.5,0,1",""
"","html-keyboard-response","358","267551","0.0-358.0","3FE7TXL1LJ96YUPOU02BNM98AW6Q2J","A2FB5UQTR3E0NX","3XEIP58NL09JROET00YR4SOXG94ZLV","","null","<img src=""img/animal1.png"" style=""width:200px;border:14px solid red;"">","null","","","","","",""
"","image-keyboard-response","359","268461","0.0-359.0","3FE7TXL1LJ96YUPOU02BNM98AW6Q2J","A2FB5UQTR3E0NX","3XEIP58NL09JROET00YR4SOXG94ZLV","","906.5999999642372","img/animal2.png","75","909","2","1","1","1,0.5,0,1,0,0.5,0.5,0,1",""
"","html-keyboard-response","360","268764","0.0-360.0","3FE7TXL1LJ96YUPOU02BNM98AW6Q2J","A2FB5UQTR3E0NX","3XEIP58NL09JROET00YR4SOXG94ZLV","","null","<img src=""img/animal2.png"" style=""width:200px; border:14px solid green;"">","null","","","","","",""
"","image-keyboard-response","361","269267","0.0-361.0","3FE7TXL1LJ96YUPOU02BNM98AW6Q2J","A2FB5UQTR3E0NX","3XEIP58NL09JROET00YR4SOXG94ZLV","","500.19999998807907","img/animal1.png","74","502.19999998807907","1","1","2","1,0.5,0,1,0,0.5,0.5,0,1",""
"","html-keyboard-response","362","269571","0.0-362.0","3FE7TXL1LJ96YUPOU02BNM98AW6Q2J","A2FB5UQTR3E0NX","3XEIP58NL09JROET00YR4SOXG94ZLV","","null","<img src=""img/animal1.png"" style=""width:200px; border:14px solid green;"">","null","","","","","",""
"","instructions","363","274980","0.0-363.0","3FE7TXL1LJ96YUPOU02BNM98AW6Q2J","A2FB5UQTR3E0NX","3XEIP58NL09JROET00YR4SOXG94ZLV","[{""page_index"":0,""viewing_time"":5407.800000011921}]","5408.099999964237","","","","","","","",""
"","survey-text","364","311644","0.0-364.0","3FE7TXL1LJ96YUPOU02BNM98AW6Q2J","A2FB5UQTR3E0NX","3XEIP58NL09JROET00YR4SOXG94ZLV","","36661.19999998808","","","","","","","","{""Q0"":""A2FB5UQTR3E0NX""}"
