"success","trial_type","trial_index","time_elapsed","internal_node_id","assignmentID","mturkID","hitID","view_history","rt","stimulus","key_press","reactionTime","a","r","s","reward_cond","responses"
"true","fullscreen","0","7953","0.0-0.0","35H6S234SBM5N9PRXAQBFOVTTP165M","A2FP41BSPG0Y4A","3TZDZ3Y0JSSRVQSC3SM97PDQ3Z7196","","","","","","","","","",""
"","instructions","1","39223","0.0-1.0","35H6S234SBM5N9PRXAQBFOVTTP165M","A2FP41BSPG0Y4A","3TZDZ3Y0JSSRVQSC3SM97PDQ3Z7196","[{""page_index"":0,""viewing_time"":6698.10000000149},{""page_index"":1,""viewing_time"":6841.69999999553},{""page_index"":2,""viewing_time"":3167.8000000044703},{""page_index"":3,""viewing_time"":4138.79999999702},{""page_index"":4,""viewing_time"":5214.10000000149},{""page_index"":5,""viewing_time"":1908.1000000014901},{""page_index"":6,""viewing_time"":1758.6000000014901},{""page_index"":7,""viewing_time"":1540.1999999955297}]","31268","","","","","","","",""
"","image-keyboard-response","2","41278","0.0-2.0","35H6S234SBM5N9PRXAQBFOVTTP165M","A2FP41BSPG0Y4A","3TZDZ3Y0JSSRVQSC3SM97PDQ3Z7196","","2052.9000000059605","img/animal6.png","76","2054.7000000029802","3","1","1","0.5,0,1,1,0.5,0,0,1,0.5",""
"","html-keyboard-response","3","41591","0.0-3.0","35H6S234SBM5N9PRXAQBFOVTTP165M","A2FP41BSPG0Y4A","3TZDZ3Y0JSSRVQSC3SM97PDQ3Z7196","","null","<img src=""img/animal6.png"" style=""width:200px; border:14px solid green;"">","null","","","","","",""
"","image-keyboard-response","4","42623","0.0-4.0","35H6S234SBM5N9PRXAQBFOVTTP165M","A2FP41BSPG0Y4A","3TZDZ3Y0JSSRVQSC3SM97PDQ3Z7196","","1030.3999999985099","img/animal5.png","76","1032.3000000044703","3","1","3","0.5,0,1,1,0.5,0,0,1,0.5",""
"","html-keyboard-response","5","42930","0.0-5.0","35H6S234SBM5N9PRXAQBFOVTTP165M","A2FP41BSPG0Y4A","3TZDZ3Y0JSSRVQSC3SM97PDQ3Z7196","","null","<img src=""img/animal5.png"" style=""width:200px; border:14px solid green;"">","null","","","","","",""
"","image-keyboard-response","6","44051","0.0-6.0","35H6S234SBM5N9PRXAQBFOVTTP165M","A2FP41BSPG0Y4A","3TZDZ3Y0JSSRVQSC3SM97PDQ3Z7196","","1118.6000000014901","img/animal2.png","74","1120.3999999985099","1","1","2","0.5,0,1,1,0.5,0,0,1,0.5",""
"","html-keyboard-response","7","44361","0.0-7.0","35H6S234SBM5N9PRXAQBFOVTTP165M","A2FP41BSPG0Y4A","3TZDZ3Y0JSSRVQSC3SM97PDQ3Z7196","","null","<img src=""img/animal2.png"" style=""width:200px; border:14px solid green;"">","null","","","","","",""
"","image-keyboard-response","8","44978","0.0-8.0","35H6S234SBM5N9PRXAQBFOVTTP165M","A2FP41BSPG0Y4A","3TZDZ3Y0JSSRVQSC3SM97PDQ3Z7196","","615.3000000044703","img/animal2.png","74","616.8999999985099","1","1","2","0.5,0,1,1,0.5,0,0,1,0.5",""
"","html-keyboard-response","9","45283","0.0-9.0","35H6S234SBM5N9PRXAQBFOVTTP165M","A2FP41BSPG0Y4A","3TZDZ3Y0JSSRVQSC3SM97PDQ3Z7196","","null","<img src=""img/animal2.png"" style=""width:200px; border:14px solid green;"">","null","","","","","",""
"","image-keyboard-response","10","45779","0.0-10.0","35H6S234SBM5N9PRXAQBFOVTTP165M","A2FP41BSPG0Y4A","3TZDZ3Y0JSSRVQSC3SM97PDQ3Z7196","","492.79999999701977","img/animal2.png","74","494.79999999701977","1","1","2","0.5,0,1,1,0.5,0,0,1,0.5",""
"","html-keyboard-response","11","46084","0.0-11.0","35H6S234SBM5N9PRXAQBFOVTTP165M","A2FP41BSPG0Y4A","3TZDZ3Y0JSSRVQSC3SM97PDQ3Z7196","","null","<img src=""img/animal2.png"" style=""width:200px; border:14px solid green;"">","null","","","","","",""
"","image-keyboard-response","12","46564","0.0-12.0","35H6S234SBM5N9PRXAQBFOVTTP165M","A2FP41BSPG0Y4A","3TZDZ3Y0JSSRVQSC3SM97PDQ3Z7196","","478.70000000298023","img/animal2.png","74","480.30000000447035","1","1","2","0.5,0,1,1,0.5,0,0,1,0.5",""
"","html-keyboard-response","13","46874","0.0-13.0","35H6S234SBM5N9PRXAQBFOVTTP165M","A2FP41BSPG0Y4A","3TZDZ3Y0JSSRVQSC3SM97PDQ3Z7196","","null","<img src=""img/animal2.png"" style=""width:200px; border:14px solid green;"">","null","","","","","",""
"","image-keyboard-response","14","47942","0.0-14.0","35H6S234SBM5N9PRXAQBFOVTTP165M","A2FP41BSPG0Y4A","3TZDZ3Y0JSSRVQSC3SM97PDQ3Z7196","","1066.5","img/animal5.png","75","1067.8999999985099","2","1","3","0.5,0,1,1,0.5,0,0,1,0.5",""
"","html-keyboard-response","15","48250","0.0-15.0","35H6S234SBM5N9PRXAQBFOVTTP165M","A2FP41BSPG0Y4A","3TZDZ3Y0JSSRVQSC3SM97PDQ3Z7196","","null","<img src=""img/animal5.png"" style=""width:200px; border:14px solid green;"">","null","","","","","",""
"","image-keyboard-response","16","48692","0.0-16.0","35H6S234SBM5N9PRXAQBFOVTTP165M","A2FP41BSPG0Y4A","3TZDZ3Y0JSSRVQSC3SM97PDQ3Z7196","","439.19999999552965","img/animal5.png","75","440.79999999701977","2","1","3","0.5,0,1,1,0.5,0,0,1,0.5",""
"","html-keyboard-response","17","48999","0.0-17.0","35H6S234SBM5N9PRXAQBFOVTTP165M","A2FP41BSPG0Y4A","3TZDZ3Y0JSSRVQSC3SM97PDQ3Z7196","","null","<img src=""img/animal5.png"" style=""width:200px; border:14px solid green;"">","null","","","","","",""
"","image-keyboard-response","18","49660","0.0-18.0","35H6S234SBM5N9PRXAQBFOVTTP165M","A2FP41BSPG0Y4A","3TZDZ3Y0JSSRVQSC3SM97PDQ3Z7196","","659.2999999970198","img/animal6.png","76","660.7999999970198","3","1","1","0.5,0,1,1,0.5,0,0,1,0.5",""
"","html-keyboard-response","19","49964","0.0-19.0","35H6S234SBM5N9PRXAQBFOVTTP165M","A2FP41BSPG0Y4A","3TZDZ3Y0JSSRVQSC3SM97PDQ3Z7196","","null","<img src=""img/animal6.png"" style=""width:200px; border:14px solid green;"">","null","","","","","",""
"","image-keyboard-response","20","50686","0.0-20.0","35H6S234SBM5N9PRXAQBFOVTTP165M","A2FP41BSPG0Y4A","3TZDZ3Y0JSSRVQSC3SM97PDQ3Z7196","","720","img/animal5.png","75","721.8999999985099","2","1","3","0.5,0,1,1,0.5,0,0,1,0.5",""
"","html-keyboard-response","21","50997","0.0-21.0","35H6S234SBM5N9PRXAQBFOVTTP165M","A2FP41BSPG0Y4A","3TZDZ3Y0JSSRVQSC3SM97PDQ3Z7196","","null","<img src=""img/animal5.png"" style=""width:200px; border:14px solid green;"">","null","","","","","",""
"","image-keyboard-response","22","51852","0.0-22.0","35H6S234SBM5N9PRXAQBFOVTTP165M","A2FP41BSPG0Y4A","3TZDZ3Y0JSSRVQSC3SM97PDQ3Z7196","","853.1000000014901","img/animal6.png","76","854.6000000014901","3","1","1","0.5,0,1,1,0.5,0,0,1,0.5",""
"","html-keyboard-response","23","52162","0.0-23.0","35H6S234SBM5N9PRXAQBFOVTTP165M","A2FP41BSPG0Y4A","3TZDZ3Y0JSSRVQSC3SM97PDQ3Z7196","","null","<img src=""img/animal6.png"" style=""width:200px; border:14px solid green;"">","null","","","","","",""
"","image-keyboard-response","24","52675","0.0-24.0","35H6S234SBM5N9PRXAQBFOVTTP165M","A2FP41BSPG0Y4A","3TZDZ3Y0JSSRVQSC3SM97PDQ3Z7196","","511.19999999552965","img/animal6.png","76","512.5","3","1","1","0.5,0,1,1,0.5,0,0,1,0.5",""
"","html-keyboard-response","25","52985","0.0-25.0","35H6S234SBM5N9PRXAQBFOVTTP165M","A2FP41BSPG0Y4A","3TZDZ3Y0JSSRVQSC3SM97PDQ3Z7196","","null","<img src=""img/animal6.png"" style=""width:200px; border:14px solid green;"">","null","","","","","",""
"","image-keyboard-response","26","53648","0.0-26.0","35H6S234SBM5N9PRXAQBFOVTTP165M","A2FP41BSPG0Y4A","3TZDZ3Y0JSSRVQSC3SM97PDQ3Z7196","","661.3000000044703","img/animal2.png","74","663","1","1","2","0.5,0,1,1,0.5,0,0,1,0.5",""
"","html-keyboard-response","27","53952","0.0-27.0","35H6S234SBM5N9PRXAQBFOVTTP165M","A2FP41BSPG0Y4A","3TZDZ3Y0JSSRVQSC3SM97PDQ3Z7196","","null","<img src=""img/animal2.png"" style=""width:200px; border:14px solid green;"">","null","","","","","",""
"","image-keyboard-response","28","54812","0.0-28.0","35H6S234SBM5N9PRXAQBFOVTTP165M","A2FP41BSPG0Y4A","3TZDZ3Y0JSSRVQSC3SM97PDQ3Z7196","","857.6000000014901","img/animal5.png","75","859.1000000014901","2","1","3","0.5,0,1,1,0.5,0,0,1,0.5",""
"","html-keyboard-response","29","55119","0.0-29.0","35H6S234SBM5N9PRXAQBFOVTTP165M","A2FP41BSPG0Y4A","3TZDZ3Y0JSSRVQSC3SM97PDQ3Z7196","","null","<img src=""img/animal5.png"" style=""width:200px; border:14px solid green;"">","null","","","","","",""
"","image-keyboard-response","30","55556","0.0-30.0","35H6S234SBM5N9PRXAQBFOVTTP165M","A2FP41BSPG0Y4A","3TZDZ3Y0JSSRVQSC3SM97PDQ3Z7196","","434.69999999552965","img/animal5.png","75","436.3999999985099","2","1","3","0.5,0,1,1,0.5,0,0,1,0.5",""
"","html-keyboard-response","31","55866","0.0-31.0","35H6S234SBM5N9PRXAQBFOVTTP165M","A2FP41BSPG0Y4A","3TZDZ3Y0JSSRVQSC3SM97PDQ3Z7196","","null","<img src=""img/animal5.png"" style=""width:200px; border:14px solid green;"">","null","","","","","",""
"","image-keyboard-response","32","56633","0.0-32.0","35H6S234SBM5N9PRXAQBFOVTTP165M","A2FP41BSPG0Y4A","3TZDZ3Y0JSSRVQSC3SM97PDQ3Z7196","","765.1999999955297","img/animal2.png","74","766.7999999970198","1","1","2","0.5,0,1,1,0.5,0,0,1,0.5",""
"","html-keyboard-response","33","56942","0.0-33.0","35H6S234SBM5N9PRXAQBFOVTTP165M","A2FP41BSPG0Y4A","3TZDZ3Y0JSSRVQSC3SM97PDQ3Z7196","","null","<img src=""img/animal2.png"" style=""width:200px; border:14px solid green;"">","null","","","","","",""
"","image-keyboard-response","34","57397","0.0-34.0","35H6S234SBM5N9PRXAQBFOVTTP165M","A2FP41BSPG0Y4A","3TZDZ3Y0JSSRVQSC3SM97PDQ3Z7196","","452.79999999701977","img/animal2.png","74","454.3999999985099","1","1","2","0.5,0,1,1,0.5,0,0,1,0.5",""
"","html-keyboard-response","35","57701","0.0-35.0","35H6S234SBM5N9PRXAQBFOVTTP165M","A2FP41BSPG0Y4A","3TZDZ3Y0JSSRVQSC3SM97PDQ3Z7196","","null","<img src=""img/animal2.png"" style=""width:200px; border:14px solid green;"">","null","","","","","",""
"","image-keyboard-response","36","58390","0.0-36.0","35H6S234SBM5N9PRXAQBFOVTTP165M","A2FP41BSPG0Y4A","3TZDZ3Y0JSSRVQSC3SM97PDQ3Z7196","","686.6999999955297","img/animal6.png","76","688.3999999985099","3","1","1","0.5,0,1,1,0.5,0,0,1,0.5",""
"","html-keyboard-response","37","58697","0.0-37.0","35H6S234SBM5N9PRXAQBFOVTTP165M","A2FP41BSPG0Y4A","3TZDZ3Y0JSSRVQSC3SM97PDQ3Z7196","","null","<img src=""img/animal6.png"" style=""width:200px; border:14px solid green;"">","null","","","","","",""
"","image-keyboard-response","38","59086","0.0-38.0","35H6S234SBM5N9PRXAQBFOVTTP165M","A2FP41BSPG0Y4A","3TZDZ3Y0JSSRVQSC3SM97PDQ3Z7196","","386.30000000447035","img/animal6.png","76","388.29999999701977","3","1","1","0.5,0,1,1,0.5,0,0,1,0.5",""
"","html-keyboard-response","39","59397","0.0-39.0","35H6S234SBM5N9PRXAQBFOVTTP165M","A2FP41BSPG0Y4A","3TZDZ3Y0JSSRVQSC3SM97PDQ3Z7196","","null","<img src=""img/animal6.png"" style=""width:200px; border:14px solid green;"">","null","","","","","",""
"","image-keyboard-response","40","60072","0.0-40.0","35H6S234SBM5N9PRXAQBFOVTTP165M","A2FP41BSPG0Y4A","3TZDZ3Y0JSSRVQSC3SM97PDQ3Z7196","","673.5999999940395","img/animal5.png","75","675.1999999955297","2","1","3","0.5,0,1,1,0.5,0,0,1,0.5",""
"","html-keyboard-response","41","60377","0.0-41.0","35H6S234SBM5N9PRXAQBFOVTTP165M","A2FP41BSPG0Y4A","3TZDZ3Y0JSSRVQSC3SM97PDQ3Z7196","","null","<img src=""img/animal5.png"" style=""width:200px; border:14px solid green;"">","null","","","","","",""
"","image-keyboard-response","42","60773","0.0-42.0","35H6S234SBM5N9PRXAQBFOVTTP165M","A2FP41BSPG0Y4A","3TZDZ3Y0JSSRVQSC3SM97PDQ3Z7196","","394.3999999985099","img/animal5.png","75","395.69999999552965","2","1","3","0.5,0,1,1,0.5,0,0,1,0.5",""
"","html-keyboard-response","43","61076","0.0-43.0","35H6S234SBM5N9PRXAQBFOVTTP165M","A2FP41BSPG0Y4A","3TZDZ3Y0JSSRVQSC3SM97PDQ3Z7196","","null","<img src=""img/animal5.png"" style=""width:200px; border:14px solid green;"">","null","","","","","",""
"","image-keyboard-response","44","62054","0.0-44.0","35H6S234SBM5N9PRXAQBFOVTTP165M","A2FP41BSPG0Y4A","3TZDZ3Y0JSSRVQSC3SM97PDQ3Z7196","","975.7000000029802","img/animal6.png","76","977.2000000029802","3","1","1","0.5,0,1,1,0.5,0,0,1,0.5",""
"","html-keyboard-response","45","62361","0.0-45.0","35H6S234SBM5N9PRXAQBFOVTTP165M","A2FP41BSPG0Y4A","3TZDZ3Y0JSSRVQSC3SM97PDQ3Z7196","","null","<img src=""img/animal6.png"" style=""width:200px; border:14px solid green;"">","null","","","","","",""
"","image-keyboard-response","46","62965","0.0-46.0","35H6S234SBM5N9PRXAQBFOVTTP165M","A2FP41BSPG0Y4A","3TZDZ3Y0JSSRVQSC3SM97PDQ3Z7196","","602","img/animal5.png","75","603.5999999940395","2","1","3","0.5,0,1,1,0.5,0,0,1,0.5",""
"","html-keyboard-response","47","63277","0.0-47.0","35H6S234SBM5N9PRXAQBFOVTTP165M","A2FP41BSPG0Y4A","3TZDZ3Y0JSSRVQSC3SM97PDQ3Z7196","","null","<img src=""img/animal5.png"" style=""width:200px; border:14px solid green;"">","null","","","","","",""
"","image-keyboard-response","48","63932","0.0-48.0","35H6S234SBM5N9PRXAQBFOVTTP165M","A2FP41BSPG0Y4A","3TZDZ3Y0JSSRVQSC3SM97PDQ3Z7196","","653.3999999985099","img/animal2.png","74","655","1","1","2","0.5,0,1,1,0.5,0,0,1,0.5",""
"","html-keyboard-response","49","64242","0.0-49.0","35H6S234SBM5N9PRXAQBFOVTTP165M","A2FP41BSPG0Y4A","3TZDZ3Y0JSSRVQSC3SM97PDQ3Z7196","","null","<img src=""img/animal2.png"" style=""width:200px; border:14px solid green;"">","null","","","","","",""
"","image-keyboard-response","50","64934","0.0-50.0","35H6S234SBM5N9PRXAQBFOVTTP165M","A2FP41BSPG0Y4A","3TZDZ3Y0JSSRVQSC3SM97PDQ3Z7196","","690.0999999940395","img/animal6.png","76","691.6999999955297","3","1","1","0.5,0,1,1,0.5,0,0,1,0.5",""
"","html-keyboard-response","51","65241","0.0-51.0","35H6S234SBM5N9PRXAQBFOVTTP165M","A2FP41BSPG0Y4A","3TZDZ3Y0JSSRVQSC3SM97PDQ3Z7196","","null","<img src=""img/animal6.png"" style=""width:200px; border:14px solid green;"">","null","","","","","",""
"","image-keyboard-response","52","66046","0.0-52.0","35H6S234SBM5N9PRXAQBFOVTTP165M","A2FP41BSPG0Y4A","3TZDZ3Y0JSSRVQSC3SM97PDQ3Z7196","","803.1999999955297","img/animal2.png","74","805","1","1","2","0.5,0,1,1,0.5,0,0,1,0.5",""
"","html-keyboard-response","53","66353","0.0-53.0","35H6S234SBM5N9PRXAQBFOVTTP165M","A2FP41BSPG0Y4A","3TZDZ3Y0JSSRVQSC3SM97PDQ3Z7196","","null","<img src=""img/animal2.png"" style=""width:200px; border:14px solid green;"">","null","","","","","",""
"","image-keyboard-response","54","67121","0.0-54.0","35H6S234SBM5N9PRXAQBFOVTTP165M","A2FP41BSPG0Y4A","3TZDZ3Y0JSSRVQSC3SM97PDQ3Z7196","","765.6000000014901","img/animal5.png","75","767.3999999985099","2","1","3","0.5,0,1,1,0.5,0,0,1,0.5",""
"","html-keyboard-response","55","67428","0.0-55.0","35H6S234SBM5N9PRXAQBFOVTTP165M","A2FP41BSPG0Y4A","3TZDZ3Y0JSSRVQSC3SM97PDQ3Z7196","","null","<img src=""img/animal5.png"" style=""width:200px; border:14px solid green;"">","null","","","","","",""
"","image-keyboard-response","56","68147","0.0-56.0","35H6S234SBM5N9PRXAQBFOVTTP165M","A2FP41BSPG0Y4A","3TZDZ3Y0JSSRVQSC3SM97PDQ3Z7196","","716.3999999985099","img/animal2.png","74","718","1","1","2","0.5,0,1,1,0.5,0,0,1,0.5",""
"","html-keyboard-response","57","68453","0.0-57.0","35H6S234SBM5N9PRXAQBFOVTTP165M","A2FP41BSPG0Y4A","3TZDZ3Y0JSSRVQSC3SM97PDQ3Z7196","","null","<img src=""img/animal2.png"" style=""width:200px; border:14px solid green;"">","null","","","","","",""
"","image-keyboard-response","58","69143","0.0-58.0","35H6S234SBM5N9PRXAQBFOVTTP165M","A2FP41BSPG0Y4A","3TZDZ3Y0JSSRVQSC3SM97PDQ3Z7196","","688.5","img/animal5.png","75","690","2","1","3","0.5,0,1,1,0.5,0,0,1,0.5",""
"","html-keyboard-response","59","69451","0.0-59.0","35H6S234SBM5N9PRXAQBFOVTTP165M","A2FP41BSPG0Y4A","3TZDZ3Y0JSSRVQSC3SM97PDQ3Z7196","","null","<img src=""img/animal5.png"" style=""width:200px; border:14px solid green;"">","null","","","","","",""
"","image-keyboard-response","60","69913","0.0-60.0","35H6S234SBM5N9PRXAQBFOVTTP165M","A2FP41BSPG0Y4A","3TZDZ3Y0JSSRVQSC3SM97PDQ3Z7196","","459.69999999552965","img/animal5.png","75","461.19999999552965","2","1","3","0.5,0,1,1,0.5,0,0,1,0.5",""
"","html-keyboard-response","61","70224","0.0-61.0","35H6S234SBM5N9PRXAQBFOVTTP165M","A2FP41BSPG0Y4A","3TZDZ3Y0JSSRVQSC3SM97PDQ3Z7196","","null","<img src=""img/animal5.png"" style=""width:200px; border:14px solid green;"">","null","","","","","",""
"","image-keyboard-response","62","71149","0.0-62.0","35H6S234SBM5N9PRXAQBFOVTTP165M","A2FP41BSPG0Y4A","3TZDZ3Y0JSSRVQSC3SM97PDQ3Z7196","","923.8999999985099","img/animal2.png","74","925.2999999970198","1","1","2","0.5,0,1,1,0.5,0,0,1,0.5",""
"","html-keyboard-response","63","71459","0.0-63.0","35H6S234SBM5N9PRXAQBFOVTTP165M","A2FP41BSPG0Y4A","3TZDZ3Y0JSSRVQSC3SM97PDQ3Z7196","","null","<img src=""img/animal2.png"" style=""width:200px; border:14px solid green;"">","null","","","","","",""
"","image-keyboard-response","64","72091","0.0-64.0","35H6S234SBM5N9PRXAQBFOVTTP165M","A2FP41BSPG0Y4A","3TZDZ3Y0JSSRVQSC3SM97PDQ3Z7196","","629","img/animal6.png","76","630.8999999985099","3","1","1","0.5,0,1,1,0.5,0,0,1,0.5",""
"","html-keyboard-response","65","72401","0.0-65.0","35H6S234SBM5N9PRXAQBFOVTTP165M","A2FP41BSPG0Y4A","3TZDZ3Y0JSSRVQSC3SM97PDQ3Z7196","","null","<img src=""img/animal6.png"" style=""width:200px; border:14px solid green;"">","null","","","","","",""
"","image-keyboard-response","66","73148","0.0-66.0","35H6S234SBM5N9PRXAQBFOVTTP165M","A2FP41BSPG0Y4A","3TZDZ3Y0JSSRVQSC3SM97PDQ3Z7196","","745.1000000014901","img/animal2.png","75","746.6000000014901","2","1","2","0.5,0,1,1,0.5,0,0,1,0.5",""
"","html-keyboard-response","67","73452","0.0-67.0","35H6S234SBM5N9PRXAQBFOVTTP165M","A2FP41BSPG0Y4A","3TZDZ3Y0JSSRVQSC3SM97PDQ3Z7196","","null","<img src=""img/animal2.png"" style=""width:200px; border:14px solid green;"">","null","","","","","",""
"","image-keyboard-response","68","74207","0.0-68.0","35H6S234SBM5N9PRXAQBFOVTTP165M","A2FP41BSPG0Y4A","3TZDZ3Y0JSSRVQSC3SM97PDQ3Z7196","","753.2999999970198","img/animal2.png","74","754.7999999970198","1","1","2","0.5,0,1,1,0.5,0,0,1,0.5",""
"","html-keyboard-response","69","74518","0.0-69.0","35H6S234SBM5N9PRXAQBFOVTTP165M","A2FP41BSPG0Y4A","3TZDZ3Y0JSSRVQSC3SM97PDQ3Z7196","","null","<img src=""img/animal2.png"" style=""width:200px; border:14px solid green;"">","null","","","","","",""
"","image-keyboard-response","70","74927","0.0-70.0","35H6S234SBM5N9PRXAQBFOVTTP165M","A2FP41BSPG0Y4A","3TZDZ3Y0JSSRVQSC3SM97PDQ3Z7196","","406.8999999985099","img/animal2.png","74","408.3999999985099","1","1","2","0.5,0,1,1,0.5,0,0,1,0.5",""
"","html-keyboard-response","71","75232","0.0-71.0","35H6S234SBM5N9PRXAQBFOVTTP165M","A2FP41BSPG0Y4A","3TZDZ3Y0JSSRVQSC3SM97PDQ3Z7196","","null","<img src=""img/animal2.png"" style=""width:200px; border:14px solid green;"">","null","","","","","",""
"","image-keyboard-response","72","75613","0.0-72.0","35H6S234SBM5N9PRXAQBFOVTTP165M","A2FP41BSPG0Y4A","3TZDZ3Y0JSSRVQSC3SM97PDQ3Z7196","","379.19999999552965","img/animal2.png","74","380.79999999701977","1","1","2","0.5,0,1,1,0.5,0,0,1,0.5",""
"","html-keyboard-response","73","75922","0.0-73.0","35H6S234SBM5N9PRXAQBFOVTTP165M","A2FP41BSPG0Y4A","3TZDZ3Y0JSSRVQSC3SM97PDQ3Z7196","","null","<img src=""img/animal2.png"" style=""width:200px; border:14px solid green;"">","null","","","","","",""
"","image-keyboard-response","74","76897","0.0-74.0","35H6S234SBM5N9PRXAQBFOVTTP165M","A2FP41BSPG0Y4A","3TZDZ3Y0JSSRVQSC3SM97PDQ3Z7196","","972.7000000029802","img/animal6.png","76","974.3999999985099","3","1","1","0.5,0,1,1,0.5,0,0,1,0.5",""
"","html-keyboard-response","75","77206","0.0-75.0","35H6S234SBM5N9PRXAQBFOVTTP165M","A2FP41BSPG0Y4A","3TZDZ3Y0JSSRVQSC3SM97PDQ3Z7196","","null","<img src=""img/animal6.png"" style=""width:200px; border:14px solid green;"">","null","","","","","",""
"","image-keyboard-response","76","77911","0.0-76.0","35H6S234SBM5N9PRXAQBFOVTTP165M","A2FP41BSPG0Y4A","3TZDZ3Y0JSSRVQSC3SM97PDQ3Z7196","","702.6000000014901","img/animal5.png","75","704.2999999970198","2","1","3","0.5,0,1,1,0.5,0,0,1,0.5",""
"","html-keyboard-response","77","78216","0.0-77.0","35H6S234SBM5N9PRXAQBFOVTTP165M","A2FP41BSPG0Y4A","3TZDZ3Y0JSSRVQSC3SM97PDQ3Z7196","","null","<img src=""img/animal5.png"" style=""width:200px; border:14px solid green;"">","null","","","","","",""
"","image-keyboard-response","78","78642","0.0-78.0","35H6S234SBM5N9PRXAQBFOVTTP165M","A2FP41BSPG0Y4A","3TZDZ3Y0JSSRVQSC3SM97PDQ3Z7196","","423.5","img/animal5.png","75","425.1000000014901","2","1","3","0.5,0,1,1,0.5,0,0,1,0.5",""
"","html-keyboard-response","79","78951","0.0-79.0","35H6S234SBM5N9PRXAQBFOVTTP165M","A2FP41BSPG0Y4A","3TZDZ3Y0JSSRVQSC3SM97PDQ3Z7196","","null","<img src=""img/animal5.png"" style=""width:200px; border:14px solid green;"">","null","","","","","",""
"","image-keyboard-response","80","79345","0.0-80.0","35H6S234SBM5N9PRXAQBFOVTTP165M","A2FP41BSPG0Y4A","3TZDZ3Y0JSSRVQSC3SM97PDQ3Z7196","","392.1000000014901","img/animal5.png","75","393.70000000298023","2","1","3","0.5,0,1,1,0.5,0,0,1,0.5",""
"","html-keyboard-response","81","79653","0.0-81.0","35H6S234SBM5N9PRXAQBFOVTTP165M","A2FP41BSPG0Y4A","3TZDZ3Y0JSSRVQSC3SM97PDQ3Z7196","","null","<img src=""img/animal5.png"" style=""width:200px; border:14px solid green;"">","null","","","","","",""
"","image-keyboard-response","82","80201","0.0-82.0","35H6S234SBM5N9PRXAQBFOVTTP165M","A2FP41BSPG0Y4A","3TZDZ3Y0JSSRVQSC3SM97PDQ3Z7196","","545.6999999955297","img/animal2.png","74","547.1999999955297","1","1","2","0.5,0,1,1,0.5,0,0,1,0.5",""
"","html-keyboard-response","83","80510","0.0-83.0","35H6S234SBM5N9PRXAQBFOVTTP165M","A2FP41BSPG0Y4A","3TZDZ3Y0JSSRVQSC3SM97PDQ3Z7196","","null","<img src=""img/animal2.png"" style=""width:200px; border:14px solid green;"">","null","","","","","",""
"","image-keyboard-response","84","81334","0.0-84.0","35H6S234SBM5N9PRXAQBFOVTTP165M","A2FP41BSPG0Y4A","3TZDZ3Y0JSSRVQSC3SM97PDQ3Z7196","","822.2999999970198","img/animal5.png","75","823.8000000044703","2","1","3","0.5,0,1,1,0.5,0,0,1,0.5",""
"","html-keyboard-response","85","81641","0.0-85.0","35H6S234SBM5N9PRXAQBFOVTTP165M","A2FP41BSPG0Y4A","3TZDZ3Y0JSSRVQSC3SM97PDQ3Z7196","","null","<img src=""img/animal5.png"" style=""width:200px; border:14px solid green;"">","null","","","","","",""
"","image-keyboard-response","86","82231","0.0-86.0","35H6S234SBM5N9PRXAQBFOVTTP165M","A2FP41BSPG0Y4A","3TZDZ3Y0JSSRVQSC3SM97PDQ3Z7196","","588.5","img/animal6.png","76","590.1000000014901","3","1","1","0.5,0,1,1,0.5,0,0,1,0.5",""
"","html-keyboard-response","87","82546","0.0-87.0","35H6S234SBM5N9PRXAQBFOVTTP165M","A2FP41BSPG0Y4A","3TZDZ3Y0JSSRVQSC3SM97PDQ3Z7196","","null","<img src=""img/animal6.png"" style=""width:200px; border:14px solid green;"">","null","","","","","",""
"","image-keyboard-response","88","83046","0.0-88.0","35H6S234SBM5N9PRXAQBFOVTTP165M","A2FP41BSPG0Y4A","3TZDZ3Y0JSSRVQSC3SM97PDQ3Z7196","","497.09999999403954","img/animal5.png","74","499","1","0","3","0.5,0,1,1,0.5,0,0,1,0.5",""
"","html-keyboard-response","89","83351","0.0-89.0","35H6S234SBM5N9PRXAQBFOVTTP165M","A2FP41BSPG0Y4A","3TZDZ3Y0JSSRVQSC3SM97PDQ3Z7196","","null","<img src=""img/animal5.png"" style=""width:200px;border:14px solid red;"">","null","","","","","",""
"","image-keyboard-response","90","83496","0.0-90.0","35H6S234SBM5N9PRXAQBFOVTTP165M","A2FP41BSPG0Y4A","3TZDZ3Y0JSSRVQSC3SM97PDQ3Z7196","","142.69999999552965","img/animal5.png","75","144.29999999701977","2","1","3","0.5,0,1,1,0.5,0,0,1,0.5",""
"","html-keyboard-response","91","83802","0.0-91.0","35H6S234SBM5N9PRXAQBFOVTTP165M","A2FP41BSPG0Y4A","3TZDZ3Y0JSSRVQSC3SM97PDQ3Z7196","","null","<img src=""img/animal5.png"" style=""width:200px; border:14px solid green;"">","null","","","","","",""
"","image-keyboard-response","92","84329","0.0-92.0","35H6S234SBM5N9PRXAQBFOVTTP165M","A2FP41BSPG0Y4A","3TZDZ3Y0JSSRVQSC3SM97PDQ3Z7196","","524.8999999985099","img/animal2.png","74","526.3999999985099","1","1","2","0.5,0,1,1,0.5,0,0,1,0.5",""
"","html-keyboard-response","93","84631","0.0-93.0","35H6S234SBM5N9PRXAQBFOVTTP165M","A2FP41BSPG0Y4A","3TZDZ3Y0JSSRVQSC3SM97PDQ3Z7196","","null","<img src=""img/animal2.png"" style=""width:200px; border:14px solid green;"">","null","","","","","",""
"","image-keyboard-response","94","85453","0.0-94.0","35H6S234SBM5N9PRXAQBFOVTTP165M","A2FP41BSPG0Y4A","3TZDZ3Y0JSSRVQSC3SM97PDQ3Z7196","","819.1000000014901","img/animal6.png","76","820.7000000029802","3","1","1","0.5,0,1,1,0.5,0,0,1,0.5",""
"","html-keyboard-response","95","85763","0.0-95.0","35H6S234SBM5N9PRXAQBFOVTTP165M","A2FP41BSPG0Y4A","3TZDZ3Y0JSSRVQSC3SM97PDQ3Z7196","","null","<img src=""img/animal6.png"" style=""width:200px; border:14px solid green;"">","null","","","","","",""
"","image-keyboard-response","96","86496","0.0-96.0","35H6S234SBM5N9PRXAQBFOVTTP165M","A2FP41BSPG0Y4A","3TZDZ3Y0JSSRVQSC3SM97PDQ3Z7196","","731.1999999955297","img/animal2.png","74","732.5","1","1","2","0.5,0,1,1,0.5,0,0,1,0.5",""
"","html-keyboard-response","97","86801","0.0-97.0","35H6S234SBM5N9PRXAQBFOVTTP165M","A2FP41BSPG0Y4A","3TZDZ3Y0JSSRVQSC3SM97PDQ3Z7196","","null","<img src=""img/animal2.png"" style=""width:200px; border:14px solid green;"">","null","","","","","",""
"","image-keyboard-response","98","87414","0.0-98.0","35H6S234SBM5N9PRXAQBFOVTTP165M","A2FP41BSPG0Y4A","3TZDZ3Y0JSSRVQSC3SM97PDQ3Z7196","","610","img/animal6.png","76","612.2000000029802","3","1","1","0.5,0,1,1,0.5,0,0,1,0.5",""
"","html-keyboard-response","99","87724","0.0-99.0","35H6S234SBM5N9PRXAQBFOVTTP165M","A2FP41BSPG0Y4A","3TZDZ3Y0JSSRVQSC3SM97PDQ3Z7196","","null","<img src=""img/animal6.png"" style=""width:200px; border:14px solid green;"">","null","","","","","",""
"","image-keyboard-response","100","88410","0.0-100.0","35H6S234SBM5N9PRXAQBFOVTTP165M","A2FP41BSPG0Y4A","3TZDZ3Y0JSSRVQSC3SM97PDQ3Z7196","","684.8999999985099","img/animal2.png","74","686.5","1","1","2","0.5,0,1,1,0.5,0,0,1,0.5",""
"","html-keyboard-response","101","88722","0.0-101.0","35H6S234SBM5N9PRXAQBFOVTTP165M","A2FP41BSPG0Y4A","3TZDZ3Y0JSSRVQSC3SM97PDQ3Z7196","","null","<img src=""img/animal2.png"" style=""width:200px; border:14px solid green;"">","null","","","","","",""
"","image-keyboard-response","102","89584","0.0-102.0","35H6S234SBM5N9PRXAQBFOVTTP165M","A2FP41BSPG0Y4A","3TZDZ3Y0JSSRVQSC3SM97PDQ3Z7196","","859.8999999985099","img/animal5.png","75","861.3999999985099","2","1","3","0.5,0,1,1,0.5,0,0,1,0.5",""
"","html-keyboard-response","103","89893","0.0-103.0","35H6S234SBM5N9PRXAQBFOVTTP165M","A2FP41BSPG0Y4A","3TZDZ3Y0JSSRVQSC3SM97PDQ3Z7196","","null","<img src=""img/animal5.png"" style=""width:200px; border:14px solid green;"">","null","","","","","",""
"","image-keyboard-response","104","90575","0.0-104.0","35H6S234SBM5N9PRXAQBFOVTTP165M","A2FP41BSPG0Y4A","3TZDZ3Y0JSSRVQSC3SM97PDQ3Z7196","","680.1000000014901","img/animal6.png","76","681.6999999955297","3","1","1","0.5,0,1,1,0.5,0,0,1,0.5",""
"","html-keyboard-response","105","90878","0.0-105.0","35H6S234SBM5N9PRXAQBFOVTTP165M","A2FP41BSPG0Y4A","3TZDZ3Y0JSSRVQSC3SM97PDQ3Z7196","","null","<img src=""img/animal6.png"" style=""width:200px; border:14px solid green;"">","null","","","","","",""
"","image-keyboard-response","106","91885","0.0-106.0","35H6S234SBM5N9PRXAQBFOVTTP165M","A2FP41BSPG0Y4A","3TZDZ3Y0JSSRVQSC3SM97PDQ3Z7196","","1004.1000000014901","img/animal5.png","74","1005.7999999970198","1","0","3","0.5,0,1,1,0.5,0,0,1,0.5",""
"","html-keyboard-response","107","92190","0.0-107.0","35H6S234SBM5N9PRXAQBFOVTTP165M","A2FP41BSPG0Y4A","3TZDZ3Y0JSSRVQSC3SM97PDQ3Z7196","","null","<img src=""img/animal5.png"" style=""width:200px;border:14px solid red;"">","null","","","","","",""
"","image-keyboard-response","108","92983","0.0-108.0","35H6S234SBM5N9PRXAQBFOVTTP165M","A2FP41BSPG0Y4A","3TZDZ3Y0JSSRVQSC3SM97PDQ3Z7196","","791.2000000029802","img/animal2.png","74","792.8000000044703","1","1","2","0.5,0,1,1,0.5,0,0,1,0.5",""
"","html-keyboard-response","109","93291","0.0-109.0","35H6S234SBM5N9PRXAQBFOVTTP165M","A2FP41BSPG0Y4A","3TZDZ3Y0JSSRVQSC3SM97PDQ3Z7196","","null","<img src=""img/animal2.png"" style=""width:200px; border:14px solid green;"">","null","","","","","",""
"","image-keyboard-response","110","93777","0.0-110.0","35H6S234SBM5N9PRXAQBFOVTTP165M","A2FP41BSPG0Y4A","3TZDZ3Y0JSSRVQSC3SM97PDQ3Z7196","","484.5","img/animal2.png","74","486","1","1","2","0.5,0,1,1,0.5,0,0,1,0.5",""
"","html-keyboard-response","111","94087","0.0-111.0","35H6S234SBM5N9PRXAQBFOVTTP165M","A2FP41BSPG0Y4A","3TZDZ3Y0JSSRVQSC3SM97PDQ3Z7196","","null","<img src=""img/animal2.png"" style=""width:200px; border:14px solid green;"">","null","","","","","",""
"","image-keyboard-response","112","94506","0.0-112.0","35H6S234SBM5N9PRXAQBFOVTTP165M","A2FP41BSPG0Y4A","3TZDZ3Y0JSSRVQSC3SM97PDQ3Z7196","","417.70000000298023","img/animal2.png","74","419.20000000298023","1","1","2","0.5,0,1,1,0.5,0,0,1,0.5",""
"","html-keyboard-response","113","94812","0.0-113.0","35H6S234SBM5N9PRXAQBFOVTTP165M","A2FP41BSPG0Y4A","3TZDZ3Y0JSSRVQSC3SM97PDQ3Z7196","","null","<img src=""img/animal2.png"" style=""width:200px; border:14px solid green;"">","null","","","","","",""
"","image-keyboard-response","114","95431","0.0-114.0","35H6S234SBM5N9PRXAQBFOVTTP165M","A2FP41BSPG0Y4A","3TZDZ3Y0JSSRVQSC3SM97PDQ3Z7196","","617.4000000059605","img/animal5.png","75","618.8999999985099","2","1","3","0.5,0,1,1,0.5,0,0,1,0.5",""
"","html-keyboard-response","115","95736","0.0-115.0","35H6S234SBM5N9PRXAQBFOVTTP165M","A2FP41BSPG0Y4A","3TZDZ3Y0JSSRVQSC3SM97PDQ3Z7196","","null","<img src=""img/animal5.png"" style=""width:200px; border:14px solid green;"">","null","","","","","",""
"","image-keyboard-response","116","96316","0.0-116.0","35H6S234SBM5N9PRXAQBFOVTTP165M","A2FP41BSPG0Y4A","3TZDZ3Y0JSSRVQSC3SM97PDQ3Z7196","","577.2000000029802","img/animal6.png","76","578.7000000029802","3","1","1","0.5,0,1,1,0.5,0,0,1,0.5",""
"","html-keyboard-response","117","96624","0.0-117.0","35H6S234SBM5N9PRXAQBFOVTTP165M","A2FP41BSPG0Y4A","3TZDZ3Y0JSSRVQSC3SM97PDQ3Z7196","","null","<img src=""img/animal6.png"" style=""width:200px; border:14px solid green;"">","null","","","","","",""
"","image-keyboard-response","118","97040","0.0-118.0","35H6S234SBM5N9PRXAQBFOVTTP165M","A2FP41BSPG0Y4A","3TZDZ3Y0JSSRVQSC3SM97PDQ3Z7196","","414.30000000447035","img/animal6.png","76","415.8999999985099","3","1","1","0.5,0,1,1,0.5,0,0,1,0.5",""
"","html-keyboard-response","119","97351","0.0-119.0","35H6S234SBM5N9PRXAQBFOVTTP165M","A2FP41BSPG0Y4A","3TZDZ3Y0JSSRVQSC3SM97PDQ3Z7196","","null","<img src=""img/animal6.png"" style=""width:200px; border:14px solid green;"">","null","","","","","",""
"","image-keyboard-response","120","97737","0.0-120.0","35H6S234SBM5N9PRXAQBFOVTTP165M","A2FP41BSPG0Y4A","3TZDZ3Y0JSSRVQSC3SM97PDQ3Z7196","","384.20000000298023","img/animal6.png","76","385.6000000014901","3","1","1","0.5,0,1,1,0.5,0,0,1,0.5",""
"","html-keyboard-response","121","98041","0.0-121.0","35H6S234SBM5N9PRXAQBFOVTTP165M","A2FP41BSPG0Y4A","3TZDZ3Y0JSSRVQSC3SM97PDQ3Z7196","","null","<img src=""img/animal6.png"" style=""width:200px; border:14px solid green;"">","null","","","","","",""
"","image-keyboard-response","122","98428","0.0-122.0","35H6S234SBM5N9PRXAQBFOVTTP165M","A2FP41BSPG0Y4A","3TZDZ3Y0JSSRVQSC3SM97PDQ3Z7196","","385.3999999985099","img/animal6.png","76","387","3","1","1","0.5,0,1,1,0.5,0,0,1,0.5",""
"","html-keyboard-response","123","98737","0.0-123.0","35H6S234SBM5N9PRXAQBFOVTTP165M","A2FP41BSPG0Y4A","3TZDZ3Y0JSSRVQSC3SM97PDQ3Z7196","","null","<img src=""img/animal6.png"" style=""width:200px; border:14px solid green;"">","null","","","","","",""
"","image-keyboard-response","124","99492","0.0-124.0","35H6S234SBM5N9PRXAQBFOVTTP165M","A2FP41BSPG0Y4A","3TZDZ3Y0JSSRVQSC3SM97PDQ3Z7196","","753.3999999985099","img/animal5.png","75","754.7999999970198","2","1","3","0.5,0,1,1,0.5,0,0,1,0.5",""
"","html-keyboard-response","125","99797","0.0-125.0","35H6S234SBM5N9PRXAQBFOVTTP165M","A2FP41BSPG0Y4A","3TZDZ3Y0JSSRVQSC3SM97PDQ3Z7196","","null","<img src=""img/animal5.png"" style=""width:200px; border:14px solid green;"">","null","","","","","",""
"","image-keyboard-response","126","100232","0.0-126.0","35H6S234SBM5N9PRXAQBFOVTTP165M","A2FP41BSPG0Y4A","3TZDZ3Y0JSSRVQSC3SM97PDQ3Z7196","","433.5","img/animal5.png","75","434.8999999985099","2","1","3","0.5,0,1,1,0.5,0,0,1,0.5",""
"","html-keyboard-response","127","100538","0.0-127.0","35H6S234SBM5N9PRXAQBFOVTTP165M","A2FP41BSPG0Y4A","3TZDZ3Y0JSSRVQSC3SM97PDQ3Z7196","","null","<img src=""img/animal5.png"" style=""width:200px; border:14px solid green;"">","null","","","","","",""
"","image-keyboard-response","128","100908","0.0-128.0","35H6S234SBM5N9PRXAQBFOVTTP165M","A2FP41BSPG0Y4A","3TZDZ3Y0JSSRVQSC3SM97PDQ3Z7196","","368.30000000447035","img/animal5.png","75","369.80000000447035","2","1","3","0.5,0,1,1,0.5,0,0,1,0.5",""
"","html-keyboard-response","129","101212","0.0-129.0","35H6S234SBM5N9PRXAQBFOVTTP165M","A2FP41BSPG0Y4A","3TZDZ3Y0JSSRVQSC3SM97PDQ3Z7196","","null","<img src=""img/animal5.png"" style=""width:200px; border:14px solid green;"">","null","","","","","",""
"","image-keyboard-response","130","101621","0.0-130.0","35H6S234SBM5N9PRXAQBFOVTTP165M","A2FP41BSPG0Y4A","3TZDZ3Y0JSSRVQSC3SM97PDQ3Z7196","","406.8999999985099","img/animal5.png","75","408.3999999985099","2","1","3","0.5,0,1,1,0.5,0,0,1,0.5",""
"","html-keyboard-response","131","101932","0.0-131.0","35H6S234SBM5N9PRXAQBFOVTTP165M","A2FP41BSPG0Y4A","3TZDZ3Y0JSSRVQSC3SM97PDQ3Z7196","","null","<img src=""img/animal5.png"" style=""width:200px; border:14px solid green;"">","null","","","","","",""
"","image-keyboard-response","132","102280","0.0-132.0","35H6S234SBM5N9PRXAQBFOVTTP165M","A2FP41BSPG0Y4A","3TZDZ3Y0JSSRVQSC3SM97PDQ3Z7196","","344","img/animal5.png","75","345.69999999552965","2","1","3","0.5,0,1,1,0.5,0,0,1,0.5",""
"","html-keyboard-response","133","102590","0.0-133.0","35H6S234SBM5N9PRXAQBFOVTTP165M","A2FP41BSPG0Y4A","3TZDZ3Y0JSSRVQSC3SM97PDQ3Z7196","","null","<img src=""img/animal5.png"" style=""width:200px; border:14px solid green;"">","null","","","","","",""
"","image-keyboard-response","134","103264","0.0-134.0","35H6S234SBM5N9PRXAQBFOVTTP165M","A2FP41BSPG0Y4A","3TZDZ3Y0JSSRVQSC3SM97PDQ3Z7196","","671.6000000014901","img/animal6.png","76","673","3","1","1","0.5,0,1,1,0.5,0,0,1,0.5",""
"","html-keyboard-response","135","103574","0.0-135.0","35H6S234SBM5N9PRXAQBFOVTTP165M","A2FP41BSPG0Y4A","3TZDZ3Y0JSSRVQSC3SM97PDQ3Z7196","","null","<img src=""img/animal6.png"" style=""width:200px; border:14px solid green;"">","null","","","","","",""
"","image-keyboard-response","136","103963","0.0-136.0","35H6S234SBM5N9PRXAQBFOVTTP165M","A2FP41BSPG0Y4A","3TZDZ3Y0JSSRVQSC3SM97PDQ3Z7196","","387","img/animal6.png","76","388.3999999985099","3","1","1","0.5,0,1,1,0.5,0,0,1,0.5",""
"","html-keyboard-response","137","104273","0.0-137.0","35H6S234SBM5N9PRXAQBFOVTTP165M","A2FP41BSPG0Y4A","3TZDZ3Y0JSSRVQSC3SM97PDQ3Z7196","","null","<img src=""img/animal6.png"" style=""width:200px; border:14px solid green;"">","null","","","","","",""
"","image-keyboard-response","138","104664","0.0-138.0","35H6S234SBM5N9PRXAQBFOVTTP165M","A2FP41BSPG0Y4A","3TZDZ3Y0JSSRVQSC3SM97PDQ3Z7196","","388.80000000447035","img/animal6.png","76","390.30000000447035","3","1","1","0.5,0,1,1,0.5,0,0,1,0.5",""
"","html-keyboard-response","139","104971","0.0-139.0","35H6S234SBM5N9PRXAQBFOVTTP165M","A2FP41BSPG0Y4A","3TZDZ3Y0JSSRVQSC3SM97PDQ3Z7196","","null","<img src=""img/animal6.png"" style=""width:200px; border:14px solid green;"">","null","","","","","",""
"","image-keyboard-response","140","105627","0.0-140.0","35H6S234SBM5N9PRXAQBFOVTTP165M","A2FP41BSPG0Y4A","3TZDZ3Y0JSSRVQSC3SM97PDQ3Z7196","","654.1000000014901","img/animal5.png","75","655.5999999940395","2","1","3","0.5,0,1,1,0.5,0,0,1,0.5",""
"","html-keyboard-response","141","105939","0.0-141.0","35H6S234SBM5N9PRXAQBFOVTTP165M","A2FP41BSPG0Y4A","3TZDZ3Y0JSSRVQSC3SM97PDQ3Z7196","","null","<img src=""img/animal5.png"" style=""width:200px; border:14px solid green;"">","null","","","","","",""
"","image-keyboard-response","142","106543","0.0-142.0","35H6S234SBM5N9PRXAQBFOVTTP165M","A2FP41BSPG0Y4A","3TZDZ3Y0JSSRVQSC3SM97PDQ3Z7196","","602.1000000014901","img/animal6.png","76","603.5","3","1","1","0.5,0,1,1,0.5,0,0,1,0.5",""
"","html-keyboard-response","143","106854","0.0-143.0","35H6S234SBM5N9PRXAQBFOVTTP165M","A2FP41BSPG0Y4A","3TZDZ3Y0JSSRVQSC3SM97PDQ3Z7196","","null","<img src=""img/animal6.png"" style=""width:200px; border:14px solid green;"">","null","","","","","",""
"","image-keyboard-response","144","107419","0.0-144.0","35H6S234SBM5N9PRXAQBFOVTTP165M","A2FP41BSPG0Y4A","3TZDZ3Y0JSSRVQSC3SM97PDQ3Z7196","","562.8000000044703","img/animal5.png","75","564.6000000014901","2","1","3","0.5,0,1,1,0.5,0,0,1,0.5",""
"","html-keyboard-response","145","107731","0.0-145.0","35H6S234SBM5N9PRXAQBFOVTTP165M","A2FP41BSPG0Y4A","3TZDZ3Y0JSSRVQSC3SM97PDQ3Z7196","","null","<img src=""img/animal5.png"" style=""width:200px; border:14px solid green;"">","null","","","","","",""
"","image-keyboard-response","146","108290","0.0-146.0","35H6S234SBM5N9PRXAQBFOVTTP165M","A2FP41BSPG0Y4A","3TZDZ3Y0JSSRVQSC3SM97PDQ3Z7196","","557.1000000014901","img/animal6.png","76","558.6000000014901","3","1","1","0.5,0,1,1,0.5,0,0,1,0.5",""
"","html-keyboard-response","147","108593","0.0-147.0","35H6S234SBM5N9PRXAQBFOVTTP165M","A2FP41BSPG0Y4A","3TZDZ3Y0JSSRVQSC3SM97PDQ3Z7196","","null","<img src=""img/animal6.png"" style=""width:200px; border:14px solid green;"">","null","","","","","",""
"","image-keyboard-response","148","109178","0.0-148.0","35H6S234SBM5N9PRXAQBFOVTTP165M","A2FP41BSPG0Y4A","3TZDZ3Y0JSSRVQSC3SM97PDQ3Z7196","","582.8000000044703","img/animal2.png","75","584.2000000029802","2","1","2","0.5,0,1,1,0.5,0,0,1,0.5",""
"","html-keyboard-response","149","109483","0.0-149.0","35H6S234SBM5N9PRXAQBFOVTTP165M","A2FP41BSPG0Y4A","3TZDZ3Y0JSSRVQSC3SM97PDQ3Z7196","","null","<img src=""img/animal2.png"" style=""width:200px; border:14px solid green;"">","null","","","","","",""
"","image-keyboard-response","150","109775","0.0-150.0","35H6S234SBM5N9PRXAQBFOVTTP165M","A2FP41BSPG0Y4A","3TZDZ3Y0JSSRVQSC3SM97PDQ3Z7196","","290.29999999701977","img/animal6.png","74","291.8999999985099","1","0","1","0.5,0,1,1,0.5,0,0,1,0.5",""
"","html-keyboard-response","151","110081","0.0-151.0","35H6S234SBM5N9PRXAQBFOVTTP165M","A2FP41BSPG0Y4A","3TZDZ3Y0JSSRVQSC3SM97PDQ3Z7196","","null","<img src=""img/animal6.png"" style=""width:200px;border:14px solid red;"">","null","","","","","",""
"","image-keyboard-response","152","110508","0.0-152.0","35H6S234SBM5N9PRXAQBFOVTTP165M","A2FP41BSPG0Y4A","3TZDZ3Y0JSSRVQSC3SM97PDQ3Z7196","","425.3999999985099","img/animal6.png","76","426.69999999552965","3","1","1","0.5,0,1,1,0.5,0,0,1,0.5",""
"","html-keyboard-response","153","110813","0.0-153.0","35H6S234SBM5N9PRXAQBFOVTTP165M","A2FP41BSPG0Y4A","3TZDZ3Y0JSSRVQSC3SM97PDQ3Z7196","","null","<img src=""img/animal6.png"" style=""width:200px; border:14px solid green;"">","null","","","","","",""
"","image-keyboard-response","154","111467","0.0-154.0","35H6S234SBM5N9PRXAQBFOVTTP165M","A2FP41BSPG0Y4A","3TZDZ3Y0JSSRVQSC3SM97PDQ3Z7196","","652.7999999970198","img/animal2.png","74","654","1","1","2","0.5,0,1,1,0.5,0,0,1,0.5",""
"","html-keyboard-response","155","111777","0.0-155.0","35H6S234SBM5N9PRXAQBFOVTTP165M","A2FP41BSPG0Y4A","3TZDZ3Y0JSSRVQSC3SM97PDQ3Z7196","","null","<img src=""img/animal2.png"" style=""width:200px; border:14px solid green;"">","null","","","","","",""
"","image-keyboard-response","156","113041","0.0-156.0","35H6S234SBM5N9PRXAQBFOVTTP165M","A2FP41BSPG0Y4A","3TZDZ3Y0JSSRVQSC3SM97PDQ3Z7196","","1262.0999999940395","img/animal6.png","76","1263.6999999955297","3","1","1","0.5,0,1,1,0.5,0,0,1,0.5",""
"","html-keyboard-response","157","113349","0.0-157.0","35H6S234SBM5N9PRXAQBFOVTTP165M","A2FP41BSPG0Y4A","3TZDZ3Y0JSSRVQSC3SM97PDQ3Z7196","","null","<img src=""img/animal6.png"" style=""width:200px; border:14px solid green;"">","null","","","","","",""
"","image-keyboard-response","158","114019","0.0-158.0","35H6S234SBM5N9PRXAQBFOVTTP165M","A2FP41BSPG0Y4A","3TZDZ3Y0JSSRVQSC3SM97PDQ3Z7196","","667.8999999985099","img/animal2.png","74","669.3999999985099","1","1","2","0.5,0,1,1,0.5,0,0,1,0.5",""
"","html-keyboard-response","159","114325","0.0-159.0","35H6S234SBM5N9PRXAQBFOVTTP165M","A2FP41BSPG0Y4A","3TZDZ3Y0JSSRVQSC3SM97PDQ3Z7196","","null","<img src=""img/animal2.png"" style=""width:200px; border:14px solid green;"">","null","","","","","",""
"","image-keyboard-response","160","115095","0.0-160.0","35H6S234SBM5N9PRXAQBFOVTTP165M","A2FP41BSPG0Y4A","3TZDZ3Y0JSSRVQSC3SM97PDQ3Z7196","","768.1000000014901","img/animal5.png","75","769.8000000044703","2","1","3","0.5,0,1,1,0.5,0,0,1,0.5",""
"","html-keyboard-response","161","115398","0.0-161.0","35H6S234SBM5N9PRXAQBFOVTTP165M","A2FP41BSPG0Y4A","3TZDZ3Y0JSSRVQSC3SM97PDQ3Z7196","","null","<img src=""img/animal5.png"" style=""width:200px; border:14px solid green;"">","null","","","","","",""
"","image-keyboard-response","162","116051","0.0-162.0","35H6S234SBM5N9PRXAQBFOVTTP165M","A2FP41BSPG0Y4A","3TZDZ3Y0JSSRVQSC3SM97PDQ3Z7196","","650.8000000044703","img/animal2.png","74","652.3999999985099","1","1","2","0.5,0,1,1,0.5,0,0,1,0.5",""
"","html-keyboard-response","163","116364","0.0-163.0","35H6S234SBM5N9PRXAQBFOVTTP165M","A2FP41BSPG0Y4A","3TZDZ3Y0JSSRVQSC3SM97PDQ3Z7196","","null","<img src=""img/animal2.png"" style=""width:200px; border:14px solid green;"">","null","","","","","",""
"","image-keyboard-response","164","116802","0.0-164.0","35H6S234SBM5N9PRXAQBFOVTTP165M","A2FP41BSPG0Y4A","3TZDZ3Y0JSSRVQSC3SM97PDQ3Z7196","","435.79999999701977","img/animal2.png","74","437.3999999985099","1","1","2","0.5,0,1,1,0.5,0,0,1,0.5",""
"","html-keyboard-response","165","117112","0.0-165.0","35H6S234SBM5N9PRXAQBFOVTTP165M","A2FP41BSPG0Y4A","3TZDZ3Y0JSSRVQSC3SM97PDQ3Z7196","","null","<img src=""img/animal2.png"" style=""width:200px; border:14px solid green;"">","null","","","","","",""
"","image-keyboard-response","166","117791","0.0-166.0","35H6S234SBM5N9PRXAQBFOVTTP165M","A2FP41BSPG0Y4A","3TZDZ3Y0JSSRVQSC3SM97PDQ3Z7196","","677","img/animal6.png","76","678.6000000014901","3","1","1","0.5,0,1,1,0.5,0,0,1,0.5",""
"","html-keyboard-response","167","118098","0.0-167.0","35H6S234SBM5N9PRXAQBFOVTTP165M","A2FP41BSPG0Y4A","3TZDZ3Y0JSSRVQSC3SM97PDQ3Z7196","","null","<img src=""img/animal6.png"" style=""width:200px; border:14px solid green;"">","null","","","","","",""
"","image-keyboard-response","168","118630","0.0-168.0","35H6S234SBM5N9PRXAQBFOVTTP165M","A2FP41BSPG0Y4A","3TZDZ3Y0JSSRVQSC3SM97PDQ3Z7196","","530.3000000044703","img/animal6.png","76","531.8999999985099","3","1","1","0.5,0,1,1,0.5,0,0,1,0.5",""
"","html-keyboard-response","169","118941","0.0-169.0","35H6S234SBM5N9PRXAQBFOVTTP165M","A2FP41BSPG0Y4A","3TZDZ3Y0JSSRVQSC3SM97PDQ3Z7196","","null","<img src=""img/animal6.png"" style=""width:200px; border:14px solid green;"">","null","","","","","",""
"","image-keyboard-response","170","119600","0.0-170.0","35H6S234SBM5N9PRXAQBFOVTTP165M","A2FP41BSPG0Y4A","3TZDZ3Y0JSSRVQSC3SM97PDQ3Z7196","","656.7999999970198","img/animal5.png","75","658.2999999970198","2","1","3","0.5,0,1,1,0.5,0,0,1,0.5",""
"","html-keyboard-response","171","119904","0.0-171.0","35H6S234SBM5N9PRXAQBFOVTTP165M","A2FP41BSPG0Y4A","3TZDZ3Y0JSSRVQSC3SM97PDQ3Z7196","","null","<img src=""img/animal5.png"" style=""width:200px; border:14px solid green;"">","null","","","","","",""
"","image-keyboard-response","172","121528","0.0-172.0","35H6S234SBM5N9PRXAQBFOVTTP165M","A2FP41BSPG0Y4A","3TZDZ3Y0JSSRVQSC3SM97PDQ3Z7196","","1622.3999999985099","img/animal6.png","76","1623.8999999985099","3","1","1","0.5,0,1,1,0.5,0,0,1,0.5",""
"","html-keyboard-response","173","121838","0.0-173.0","35H6S234SBM5N9PRXAQBFOVTTP165M","A2FP41BSPG0Y4A","3TZDZ3Y0JSSRVQSC3SM97PDQ3Z7196","","null","<img src=""img/animal6.png"" style=""width:200px; border:14px solid green;"">","null","","","","","",""
"","image-keyboard-response","174","122248","0.0-174.0","35H6S234SBM5N9PRXAQBFOVTTP165M","A2FP41BSPG0Y4A","3TZDZ3Y0JSSRVQSC3SM97PDQ3Z7196","","408.1000000014901","img/animal6.png","76","409.79999999701977","3","1","1","0.5,0,1,1,0.5,0,0,1,0.5",""
"","html-keyboard-response","175","122558","0.0-175.0","35H6S234SBM5N9PRXAQBFOVTTP165M","A2FP41BSPG0Y4A","3TZDZ3Y0JSSRVQSC3SM97PDQ3Z7196","","null","<img src=""img/animal6.png"" style=""width:200px; border:14px solid green;"">","null","","","","","",""
"","image-keyboard-response","176","123350","0.0-176.0","35H6S234SBM5N9PRXAQBFOVTTP165M","A2FP41BSPG0Y4A","3TZDZ3Y0JSSRVQSC3SM97PDQ3Z7196","","789.6999999955297","img/animal2.png","74","791.3999999985099","1","1","2","0.5,0,1,1,0.5,0,0,1,0.5",""
"","html-keyboard-response","177","123653","0.0-177.0","35H6S234SBM5N9PRXAQBFOVTTP165M","A2FP41BSPG0Y4A","3TZDZ3Y0JSSRVQSC3SM97PDQ3Z7196","","null","<img src=""img/animal2.png"" style=""width:200px; border:14px solid green;"">","null","","","","","",""
"","image-keyboard-response","178","124057","0.0-178.0","35H6S234SBM5N9PRXAQBFOVTTP165M","A2FP41BSPG0Y4A","3TZDZ3Y0JSSRVQSC3SM97PDQ3Z7196","","401.19999999552965","img/animal2.png","74","402.69999999552965","1","1","2","0.5,0,1,1,0.5,0,0,1,0.5",""
"","html-keyboard-response","179","124361","0.0-179.0","35H6S234SBM5N9PRXAQBFOVTTP165M","A2FP41BSPG0Y4A","3TZDZ3Y0JSSRVQSC3SM97PDQ3Z7196","","null","<img src=""img/animal2.png"" style=""width:200px; border:14px solid green;"">","null","","","","","",""
"","image-keyboard-response","180","124747","0.0-180.0","35H6S234SBM5N9PRXAQBFOVTTP165M","A2FP41BSPG0Y4A","3TZDZ3Y0JSSRVQSC3SM97PDQ3Z7196","","383.19999999552965","img/animal2.png","74","385","1","1","2","0.5,0,1,1,0.5,0,0,1,0.5",""
"","html-keyboard-response","181","125055","0.0-181.0","35H6S234SBM5N9PRXAQBFOVTTP165M","A2FP41BSPG0Y4A","3TZDZ3Y0JSSRVQSC3SM97PDQ3Z7196","","null","<img src=""img/animal2.png"" style=""width:200px; border:14px solid green;"">","null","","","","","",""
"","html-keyboard-response","182","127908","0.0-182.0","35H6S234SBM5N9PRXAQBFOVTTP165M","A2FP41BSPG0Y4A","3TZDZ3Y0JSSRVQSC3SM97PDQ3Z7196","","","","","","","","","",""
"","image-keyboard-response","183","129536","0.0-183.0","35H6S234SBM5N9PRXAQBFOVTTP165M","A2FP41BSPG0Y4A","3TZDZ3Y0JSSRVQSC3SM97PDQ3Z7196","","1627.2000000029802","img/animal1.png","76","1628.5","3","0","3","0.7,0,0.8,0.7,0.8,0,0.7,0.8,0",""
"","html-keyboard-response","184","129841","0.0-184.0","35H6S234SBM5N9PRXAQBFOVTTP165M","A2FP41BSPG0Y4A","3TZDZ3Y0JSSRVQSC3SM97PDQ3Z7196","","null","<img src=""img/animal1.png"" style=""width:200px;border:14px solid red;"">","null","","","","","",""
"","image-keyboard-response","185","130861","0.0-185.0","35H6S234SBM5N9PRXAQBFOVTTP165M","A2FP41BSPG0Y4A","3TZDZ3Y0JSSRVQSC3SM97PDQ3Z7196","","1017.5","img/animal3.png","76","1019.2000000029802","3","0","2","0.7,0,0.8,0.7,0.8,0,0.7,0.8,0",""
"","html-keyboard-response","186","131168","0.0-186.0","35H6S234SBM5N9PRXAQBFOVTTP165M","A2FP41BSPG0Y4A","3TZDZ3Y0JSSRVQSC3SM97PDQ3Z7196","","null","<img src=""img/animal3.png"" style=""width:200px;border:14px solid red;"">","null","","","","","",""
"","image-keyboard-response","187","131707","0.0-187.0","35H6S234SBM5N9PRXAQBFOVTTP165M","A2FP41BSPG0Y4A","3TZDZ3Y0JSSRVQSC3SM97PDQ3Z7196","","537.1000000014901","img/animal3.png","76","538.7999999970198","3","0","2","0.7,0,0.8,0.7,0.8,0,0.7,0.8,0",""
"","html-keyboard-response","188","132012","0.0-188.0","35H6S234SBM5N9PRXAQBFOVTTP165M","A2FP41BSPG0Y4A","3TZDZ3Y0JSSRVQSC3SM97PDQ3Z7196","","null","<img src=""img/animal3.png"" style=""width:200px;border:14px solid red;"">","null","","","","","",""
"","image-keyboard-response","189","133022","0.0-189.0","35H6S234SBM5N9PRXAQBFOVTTP165M","A2FP41BSPG0Y4A","3TZDZ3Y0JSSRVQSC3SM97PDQ3Z7196","","1007.8000000044703","img/animal4.png","76","1009.3999999985099","3","0","1","0.7,0,0.8,0.7,0.8,0,0.7,0.8,0",""
"","html-keyboard-response","190","133333","0.0-190.0","35H6S234SBM5N9PRXAQBFOVTTP165M","A2FP41BSPG0Y4A","3TZDZ3Y0JSSRVQSC3SM97PDQ3Z7196","","null","<img src=""img/animal4.png"" style=""width:200px;border:14px solid red;"">","null","","","","","",""
"","image-keyboard-response","191","134143","0.0-191.0","35H6S234SBM5N9PRXAQBFOVTTP165M","A2FP41BSPG0Y4A","3TZDZ3Y0JSSRVQSC3SM97PDQ3Z7196","","807.8999999985099","img/animal3.png","74","809.3999999985099","1","1","2","0.7,0,0.8,0.7,0.8,0,0.7,0.8,0",""
"","html-keyboard-response","192","134448","0.0-192.0","35H6S234SBM5N9PRXAQBFOVTTP165M","A2FP41BSPG0Y4A","3TZDZ3Y0JSSRVQSC3SM97PDQ3Z7196","","null","<img src=""img/animal3.png"" style=""width:200px; border:14px solid green;"">","null","","","","","",""
"","image-keyboard-response","193","135416","0.0-193.0","35H6S234SBM5N9PRXAQBFOVTTP165M","A2FP41BSPG0Y4A","3TZDZ3Y0JSSRVQSC3SM97PDQ3Z7196","","966.6000000014901","img/animal1.png","75","968.1000000014901","2","1","3","0.7,0,0.8,0.7,0.8,0,0.7,0.8,0",""
"","html-keyboard-response","194","135726","0.0-194.0","35H6S234SBM5N9PRXAQBFOVTTP165M","A2FP41BSPG0Y4A","3TZDZ3Y0JSSRVQSC3SM97PDQ3Z7196","","null","<img src=""img/animal1.png"" style=""width:200px; border:14px solid green;"">","null","","","","","",""
"","image-keyboard-response","195","136743","0.0-195.0","35H6S234SBM5N9PRXAQBFOVTTP165M","A2FP41BSPG0Y4A","3TZDZ3Y0JSSRVQSC3SM97PDQ3Z7196","","1014.2999999970198","img/animal4.png","76","1015.8999999985099","3","1","1","0.7,0,0.8,0.7,0.8,0,0.7,0.8,0",""
"","html-keyboard-response","196","137053","0.0-196.0","35H6S234SBM5N9PRXAQBFOVTTP165M","A2FP41BSPG0Y4A","3TZDZ3Y0JSSRVQSC3SM97PDQ3Z7196","","null","<img src=""img/animal4.png"" style=""width:200px; border:14px solid green;"">","null","","","","","",""
"","image-keyboard-response","197","137863","0.0-197.0","35H6S234SBM5N9PRXAQBFOVTTP165M","A2FP41BSPG0Y4A","3TZDZ3Y0JSSRVQSC3SM97PDQ3Z7196","","808.1000000014901","img/animal1.png","75","809.6000000014901","2","1","3","0.7,0,0.8,0.7,0.8,0,0.7,0.8,0",""
"","html-keyboard-response","198","138175","0.0-198.0","35H6S234SBM5N9PRXAQBFOVTTP165M","A2FP41BSPG0Y4A","3TZDZ3Y0JSSRVQSC3SM97PDQ3Z7196","","null","<img src=""img/animal1.png"" style=""width:200px; border:14px solid green;"">","null","","","","","",""
"","image-keyboard-response","199","138632","0.0-199.0","35H6S234SBM5N9PRXAQBFOVTTP165M","A2FP41BSPG0Y4A","3TZDZ3Y0JSSRVQSC3SM97PDQ3Z7196","","455.80000000447035","img/animal1.png","75","457.3999999985099","2","1","3","0.7,0,0.8,0.7,0.8,0,0.7,0.8,0",""
"","html-keyboard-response","200","138943","0.0-200.0","35H6S234SBM5N9PRXAQBFOVTTP165M","A2FP41BSPG0Y4A","3TZDZ3Y0JSSRVQSC3SM97PDQ3Z7196","","null","<img src=""img/animal1.png"" style=""width:200px; border:14px solid green;"">","null","","","","","",""
"","image-keyboard-response","201","139517","0.0-201.0","35H6S234SBM5N9PRXAQBFOVTTP165M","A2FP41BSPG0Y4A","3TZDZ3Y0JSSRVQSC3SM97PDQ3Z7196","","572.0999999940395","img/animal4.png","76","573.8999999985099","3","1","1","0.7,0,0.8,0.7,0.8,0,0.7,0.8,0",""
"","html-keyboard-response","202","139822","0.0-202.0","35H6S234SBM5N9PRXAQBFOVTTP165M","A2FP41BSPG0Y4A","3TZDZ3Y0JSSRVQSC3SM97PDQ3Z7196","","null","<img src=""img/animal4.png"" style=""width:200px; border:14px solid green;"">","null","","","","","",""
"","image-keyboard-response","203","140440","0.0-203.0","35H6S234SBM5N9PRXAQBFOVTTP165M","A2FP41BSPG0Y4A","3TZDZ3Y0JSSRVQSC3SM97PDQ3Z7196","","615.8999999985099","img/animal1.png","75","617.3999999985099","2","1","3","0.7,0,0.8,0.7,0.8,0,0.7,0.8,0",""
"","html-keyboard-response","204","140751","0.0-204.0","35H6S234SBM5N9PRXAQBFOVTTP165M","A2FP41BSPG0Y4A","3TZDZ3Y0JSSRVQSC3SM97PDQ3Z7196","","null","<img src=""img/animal1.png"" style=""width:200px; border:14px solid green;"">","null","","","","","",""
"","image-keyboard-response","205","141251","0.0-205.0","35H6S234SBM5N9PRXAQBFOVTTP165M","A2FP41BSPG0Y4A","3TZDZ3Y0JSSRVQSC3SM97PDQ3Z7196","","497.09999999403954","img/animal1.png","75","499.29999999701977","2","1","3","0.7,0,0.8,0.7,0.8,0,0.7,0.8,0",""
"","html-keyboard-response","206","141556","0.0-206.0","35H6S234SBM5N9PRXAQBFOVTTP165M","A2FP41BSPG0Y4A","3TZDZ3Y0JSSRVQSC3SM97PDQ3Z7196","","null","<img src=""img/animal1.png"" style=""width:200px; border:14px solid green;"">","null","","","","","",""
"","image-keyboard-response","207","142108","0.0-207.0","35H6S234SBM5N9PRXAQBFOVTTP165M","A2FP41BSPG0Y4A","3TZDZ3Y0JSSRVQSC3SM97PDQ3Z7196","","549.3999999985099","img/animal3.png","74","550.8999999985099","1","1","2","0.7,0,0.8,0.7,0.8,0,0.7,0.8,0",""
"","html-keyboard-response","208","142419","0.0-208.0","35H6S234SBM5N9PRXAQBFOVTTP165M","A2FP41BSPG0Y4A","3TZDZ3Y0JSSRVQSC3SM97PDQ3Z7196","","null","<img src=""img/animal3.png"" style=""width:200px; border:14px solid green;"">","null","","","","","",""
"","image-keyboard-response","209","142818","0.0-209.0","35H6S234SBM5N9PRXAQBFOVTTP165M","A2FP41BSPG0Y4A","3TZDZ3Y0JSSRVQSC3SM97PDQ3Z7196","","396.5","img/animal3.png","74","398.1000000014901","1","1","2","0.7,0,0.8,0.7,0.8,0,0.7,0.8,0",""
"","html-keyboard-response","210","143123","0.0-210.0","35H6S234SBM5N9PRXAQBFOVTTP165M","A2FP41BSPG0Y4A","3TZDZ3Y0JSSRVQSC3SM97PDQ3Z7196","","null","<img src=""img/animal3.png"" style=""width:200px; border:14px solid green;"">","null","","","","","",""
"","image-keyboard-response","211","143482","0.0-211.0","35H6S234SBM5N9PRXAQBFOVTTP165M","A2FP41BSPG0Y4A","3TZDZ3Y0JSSRVQSC3SM97PDQ3Z7196","","357.29999999701977","img/animal3.png","74","359","1","1","2","0.7,0,0.8,0.7,0.8,0,0.7,0.8,0",""
"","html-keyboard-response","212","143792","0.0-212.0","35H6S234SBM5N9PRXAQBFOVTTP165M","A2FP41BSPG0Y4A","3TZDZ3Y0JSSRVQSC3SM97PDQ3Z7196","","null","<img src=""img/animal3.png"" style=""width:200px; border:14px solid green;"">","null","","","","","",""
"","image-keyboard-response","213","144503","0.0-213.0","35H6S234SBM5N9PRXAQBFOVTTP165M","A2FP41BSPG0Y4A","3TZDZ3Y0JSSRVQSC3SM97PDQ3Z7196","","708.1999999955297","img/animal1.png","75","709.8000000044703","2","1","3","0.7,0,0.8,0.7,0.8,0,0.7,0.8,0",""
"","html-keyboard-response","214","144812","0.0-214.0","35H6S234SBM5N9PRXAQBFOVTTP165M","A2FP41BSPG0Y4A","3TZDZ3Y0JSSRVQSC3SM97PDQ3Z7196","","null","<img src=""img/animal1.png"" style=""width:200px; border:14px solid green;"">","null","","","","","",""
"","image-keyboard-response","215","145476","0.0-215.0","35H6S234SBM5N9PRXAQBFOVTTP165M","A2FP41BSPG0Y4A","3TZDZ3Y0JSSRVQSC3SM97PDQ3Z7196","","661.2999999970198","img/animal3.png","74","662.7999999970198","1","1","2","0.7,0,0.8,0.7,0.8,0,0.7,0.8,0",""
"","html-keyboard-response","216","145782","0.0-216.0","35H6S234SBM5N9PRXAQBFOVTTP165M","A2FP41BSPG0Y4A","3TZDZ3Y0JSSRVQSC3SM97PDQ3Z7196","","null","<img src=""img/animal3.png"" style=""width:200px; border:14px solid green;"">","null","","","","","",""
"","image-keyboard-response","217","146351","0.0-217.0","35H6S234SBM5N9PRXAQBFOVTTP165M","A2FP41BSPG0Y4A","3TZDZ3Y0JSSRVQSC3SM97PDQ3Z7196","","567.0999999940395","img/animal1.png","75","568.5999999940395","2","1","3","0.7,0,0.8,0.7,0.8,0,0.7,0.8,0",""
"","html-keyboard-response","218","146663","0.0-218.0","35H6S234SBM5N9PRXAQBFOVTTP165M","A2FP41BSPG0Y4A","3TZDZ3Y0JSSRVQSC3SM97PDQ3Z7196","","null","<img src=""img/animal1.png"" style=""width:200px; border:14px solid green;"">","null","","","","","",""
"","image-keyboard-response","219","147150","0.0-219.0","35H6S234SBM5N9PRXAQBFOVTTP165M","A2FP41BSPG0Y4A","3TZDZ3Y0JSSRVQSC3SM97PDQ3Z7196","","485.5","img/animal3.png","74","486.79999999701977","1","1","2","0.7,0,0.8,0.7,0.8,0,0.7,0.8,0",""
"","html-keyboard-response","220","147454","0.0-220.0","35H6S234SBM5N9PRXAQBFOVTTP165M","A2FP41BSPG0Y4A","3TZDZ3Y0JSSRVQSC3SM97PDQ3Z7196","","null","<img src=""img/animal3.png"" style=""width:200px; border:14px solid green;"">","null","","","","","",""
"","image-keyboard-response","221","147941","0.0-221.0","35H6S234SBM5N9PRXAQBFOVTTP165M","A2FP41BSPG0Y4A","3TZDZ3Y0JSSRVQSC3SM97PDQ3Z7196","","484.29999999701977","img/animal3.png","74","485.8999999985099","1","1","2","0.7,0,0.8,0.7,0.8,0,0.7,0.8,0",""
"","html-keyboard-response","222","148247","0.0-222.0","35H6S234SBM5N9PRXAQBFOVTTP165M","A2FP41BSPG0Y4A","3TZDZ3Y0JSSRVQSC3SM97PDQ3Z7196","","null","<img src=""img/animal3.png"" style=""width:200px; border:14px solid green;"">","null","","","","","",""
"","image-keyboard-response","223","148958","0.0-223.0","35H6S234SBM5N9PRXAQBFOVTTP165M","A2FP41BSPG0Y4A","3TZDZ3Y0JSSRVQSC3SM97PDQ3Z7196","","709.5","img/animal4.png","76","711","3","1","1","0.7,0,0.8,0.7,0.8,0,0.7,0.8,0",""
"","html-keyboard-response","224","149263","0.0-224.0","35H6S234SBM5N9PRXAQBFOVTTP165M","A2FP41BSPG0Y4A","3TZDZ3Y0JSSRVQSC3SM97PDQ3Z7196","","null","<img src=""img/animal4.png"" style=""width:200px; border:14px solid green;"">","null","","","","","",""
"","image-keyboard-response","225","149726","0.0-225.0","35H6S234SBM5N9PRXAQBFOVTTP165M","A2FP41BSPG0Y4A","3TZDZ3Y0JSSRVQSC3SM97PDQ3Z7196","","461","img/animal4.png","76","462.6000000014901","3","1","1","0.7,0,0.8,0.7,0.8,0,0.7,0.8,0",""
"","html-keyboard-response","226","150034","0.0-226.0","35H6S234SBM5N9PRXAQBFOVTTP165M","A2FP41BSPG0Y4A","3TZDZ3Y0JSSRVQSC3SM97PDQ3Z7196","","null","<img src=""img/animal4.png"" style=""width:200px; border:14px solid green;"">","null","","","","","",""
"","image-keyboard-response","227","150793","0.0-227.0","35H6S234SBM5N9PRXAQBFOVTTP165M","A2FP41BSPG0Y4A","3TZDZ3Y0JSSRVQSC3SM97PDQ3Z7196","","757.1999999955297","img/animal3.png","74","758.6999999955297","1","1","2","0.7,0,0.8,0.7,0.8,0,0.7,0.8,0",""
"","html-keyboard-response","228","151103","0.0-228.0","35H6S234SBM5N9PRXAQBFOVTTP165M","A2FP41BSPG0Y4A","3TZDZ3Y0JSSRVQSC3SM97PDQ3Z7196","","null","<img src=""img/animal3.png"" style=""width:200px; border:14px solid green;"">","null","","","","","",""
"","image-keyboard-response","229","151840","0.0-229.0","35H6S234SBM5N9PRXAQBFOVTTP165M","A2FP41BSPG0Y4A","3TZDZ3Y0JSSRVQSC3SM97PDQ3Z7196","","735.2000000029802","img/animal1.png","75","737","2","1","3","0.7,0,0.8,0.7,0.8,0,0.7,0.8,0",""
"","html-keyboard-response","230","152147","0.0-230.0","35H6S234SBM5N9PRXAQBFOVTTP165M","A2FP41BSPG0Y4A","3TZDZ3Y0JSSRVQSC3SM97PDQ3Z7196","","null","<img src=""img/animal1.png"" style=""width:200px; border:14px solid green;"">","null","","","","","",""
"","image-keyboard-response","231","152796","0.0-231.0","35H6S234SBM5N9PRXAQBFOVTTP165M","A2FP41BSPG0Y4A","3TZDZ3Y0JSSRVQSC3SM97PDQ3Z7196","","646.8000000044703","img/animal4.png","76","648.4000000059605","3","1","1","0.7,0,0.8,0.7,0.8,0,0.7,0.8,0",""
"","html-keyboard-response","232","153103","0.0-232.0","35H6S234SBM5N9PRXAQBFOVTTP165M","A2FP41BSPG0Y4A","3TZDZ3Y0JSSRVQSC3SM97PDQ3Z7196","","null","<img src=""img/animal4.png"" style=""width:200px; border:14px solid green;"">","null","","","","","",""
"","image-keyboard-response","233","153530","0.0-233.0","35H6S234SBM5N9PRXAQBFOVTTP165M","A2FP41BSPG0Y4A","3TZDZ3Y0JSSRVQSC3SM97PDQ3Z7196","","425.3999999985099","img/animal4.png","76","427.20000000298023","3","1","1","0.7,0,0.8,0.7,0.8,0,0.7,0.8,0",""
"","html-keyboard-response","234","153838","0.0-234.0","35H6S234SBM5N9PRXAQBFOVTTP165M","A2FP41BSPG0Y4A","3TZDZ3Y0JSSRVQSC3SM97PDQ3Z7196","","null","<img src=""img/animal4.png"" style=""width:200px; border:14px solid green;"">","null","","","","","",""
"","image-keyboard-response","235","154293","0.0-235.0","35H6S234SBM5N9PRXAQBFOVTTP165M","A2FP41BSPG0Y4A","3TZDZ3Y0JSSRVQSC3SM97PDQ3Z7196","","453.30000000447035","img/animal3.png","74","455","1","1","2","0.7,0,0.8,0.7,0.8,0,0.7,0.8,0",""
"","html-keyboard-response","236","154597","0.0-236.0","35H6S234SBM5N9PRXAQBFOVTTP165M","A2FP41BSPG0Y4A","3TZDZ3Y0JSSRVQSC3SM97PDQ3Z7196","","null","<img src=""img/animal3.png"" style=""width:200px; border:14px solid green;"">","null","","","","","",""
"","image-keyboard-response","237","154987","0.0-237.0","35H6S234SBM5N9PRXAQBFOVTTP165M","A2FP41BSPG0Y4A","3TZDZ3Y0JSSRVQSC3SM97PDQ3Z7196","","388.20000000298023","img/animal3.png","74","390.1000000014901","1","1","2","0.7,0,0.8,0.7,0.8,0,0.7,0.8,0",""
"","html-keyboard-response","238","155298","0.0-238.0","35H6S234SBM5N9PRXAQBFOVTTP165M","A2FP41BSPG0Y4A","3TZDZ3Y0JSSRVQSC3SM97PDQ3Z7196","","null","<img src=""img/animal3.png"" style=""width:200px; border:14px solid green;"">","null","","","","","",""
"","image-keyboard-response","239","155665","0.0-239.0","35H6S234SBM5N9PRXAQBFOVTTP165M","A2FP41BSPG0Y4A","3TZDZ3Y0JSSRVQSC3SM97PDQ3Z7196","","364.69999999552965","img/animal3.png","74","366.29999999701977","1","1","2","0.7,0,0.8,0.7,0.8,0,0.7,0.8,0",""
"","html-keyboard-response","240","155970","0.0-240.0","35H6S234SBM5N9PRXAQBFOVTTP165M","A2FP41BSPG0Y4A","3TZDZ3Y0JSSRVQSC3SM97PDQ3Z7196","","null","<img src=""img/animal3.png"" style=""width:200px; border:14px solid green;"">","null","","","","","",""
"","image-keyboard-response","241","156297","0.0-241.0","35H6S234SBM5N9PRXAQBFOVTTP165M","A2FP41BSPG0Y4A","3TZDZ3Y0JSSRVQSC3SM97PDQ3Z7196","","325.1000000014901","img/animal3.png","74","326.3999999985099","1","0","2","0.7,0,0.8,0.7,0.8,0,0.7,0.8,0",""
"","html-keyboard-response","242","156599","0.0-242.0","35H6S234SBM5N9PRXAQBFOVTTP165M","A2FP41BSPG0Y4A","3TZDZ3Y0JSSRVQSC3SM97PDQ3Z7196","","null","<img src=""img/animal3.png"" style=""width:200px;border:14px solid red;"">","null","","","","","",""
"","image-keyboard-response","243","158006","0.0-243.0","35H6S234SBM5N9PRXAQBFOVTTP165M","A2FP41BSPG0Y4A","3TZDZ3Y0JSSRVQSC3SM97PDQ3Z7196","","1404.3999999985099","img/animal1.png","75","1406.3999999985099","2","1","3","0.7,0,0.8,0.7,0.8,0,0.7,0.8,0",""
"","html-keyboard-response","244","158313","0.0-244.0","35H6S234SBM5N9PRXAQBFOVTTP165M","A2FP41BSPG0Y4A","3TZDZ3Y0JSSRVQSC3SM97PDQ3Z7196","","null","<img src=""img/animal1.png"" style=""width:200px; border:14px solid green;"">","null","","","","","",""
"","image-keyboard-response","245","158837","0.0-245.0","35H6S234SBM5N9PRXAQBFOVTTP165M","A2FP41BSPG0Y4A","3TZDZ3Y0JSSRVQSC3SM97PDQ3Z7196","","521.7000000029802","img/animal4.png","76","523.5","3","1","1","0.7,0,0.8,0.7,0.8,0,0.7,0.8,0",""
"","html-keyboard-response","246","159148","0.0-246.0","35H6S234SBM5N9PRXAQBFOVTTP165M","A2FP41BSPG0Y4A","3TZDZ3Y0JSSRVQSC3SM97PDQ3Z7196","","null","<img src=""img/animal4.png"" style=""width:200px; border:14px solid green;"">","null","","","","","",""
"","image-keyboard-response","247","159784","0.0-247.0","35H6S234SBM5N9PRXAQBFOVTTP165M","A2FP41BSPG0Y4A","3TZDZ3Y0JSSRVQSC3SM97PDQ3Z7196","","633.8999999985099","img/animal3.png","74","635.3999999985099","1","1","2","0.7,0,0.8,0.7,0.8,0,0.7,0.8,0",""
"","html-keyboard-response","248","160095","0.0-248.0","35H6S234SBM5N9PRXAQBFOVTTP165M","A2FP41BSPG0Y4A","3TZDZ3Y0JSSRVQSC3SM97PDQ3Z7196","","null","<img src=""img/animal3.png"" style=""width:200px; border:14px solid green;"">","null","","","","","",""
"","image-keyboard-response","249","160501","0.0-249.0","35H6S234SBM5N9PRXAQBFOVTTP165M","A2FP41BSPG0Y4A","3TZDZ3Y0JSSRVQSC3SM97PDQ3Z7196","","404.3999999985099","img/animal3.png","74","406.1000000014901","1","1","2","0.7,0,0.8,0.7,0.8,0,0.7,0.8,0",""
"","html-keyboard-response","250","160806","0.0-250.0","35H6S234SBM5N9PRXAQBFOVTTP165M","A2FP41BSPG0Y4A","3TZDZ3Y0JSSRVQSC3SM97PDQ3Z7196","","null","<img src=""img/animal3.png"" style=""width:200px; border:14px solid green;"">","null","","","","","",""
"","image-keyboard-response","251","161377","0.0-251.0","35H6S234SBM5N9PRXAQBFOVTTP165M","A2FP41BSPG0Y4A","3TZDZ3Y0JSSRVQSC3SM97PDQ3Z7196","","568.8999999985099","img/animal1.png","76","570.2999999970198","3","0","3","0.7,0,0.8,0.7,0.8,0,0.7,0.8,0",""
"","html-keyboard-response","252","161687","0.0-252.0","35H6S234SBM5N9PRXAQBFOVTTP165M","A2FP41BSPG0Y4A","3TZDZ3Y0JSSRVQSC3SM97PDQ3Z7196","","null","<img src=""img/animal1.png"" style=""width:200px;border:14px solid red;"">","null","","","","","",""
"","image-keyboard-response","253","162505","0.0-253.0","35H6S234SBM5N9PRXAQBFOVTTP165M","A2FP41BSPG0Y4A","3TZDZ3Y0JSSRVQSC3SM97PDQ3Z7196","","815.8999999985099","img/animal4.png","76","817.2000000029802","3","0","1","0.7,0,0.8,0.7,0.8,0,0.7,0.8,0",""
"","html-keyboard-response","254","162808","0.0-254.0","35H6S234SBM5N9PRXAQBFOVTTP165M","A2FP41BSPG0Y4A","3TZDZ3Y0JSSRVQSC3SM97PDQ3Z7196","","null","<img src=""img/animal4.png"" style=""width:200px;border:14px solid red;"">","null","","","","","",""
"","image-keyboard-response","255","163491","0.0-255.0","35H6S234SBM5N9PRXAQBFOVTTP165M","A2FP41BSPG0Y4A","3TZDZ3Y0JSSRVQSC3SM97PDQ3Z7196","","680.5","img/animal4.png","76","682.4000000059605","3","1","1","0.7,0,0.8,0.7,0.8,0,0.7,0.8,0",""
"","html-keyboard-response","256","163794","0.0-256.0","35H6S234SBM5N9PRXAQBFOVTTP165M","A2FP41BSPG0Y4A","3TZDZ3Y0JSSRVQSC3SM97PDQ3Z7196","","null","<img src=""img/animal4.png"" style=""width:200px; border:14px solid green;"">","null","","","","","",""
"","image-keyboard-response","257","164431","0.0-257.0","35H6S234SBM5N9PRXAQBFOVTTP165M","A2FP41BSPG0Y4A","3TZDZ3Y0JSSRVQSC3SM97PDQ3Z7196","","635","img/animal1.png","75","636.6000000014901","2","1","3","0.7,0,0.8,0.7,0.8,0,0.7,0.8,0",""
"","html-keyboard-response","258","164734","0.0-258.0","35H6S234SBM5N9PRXAQBFOVTTP165M","A2FP41BSPG0Y4A","3TZDZ3Y0JSSRVQSC3SM97PDQ3Z7196","","null","<img src=""img/animal1.png"" style=""width:200px; border:14px solid green;"">","null","","","","","",""
"","image-keyboard-response","259","165175","0.0-259.0","35H6S234SBM5N9PRXAQBFOVTTP165M","A2FP41BSPG0Y4A","3TZDZ3Y0JSSRVQSC3SM97PDQ3Z7196","","438.29999999701977","img/animal1.png","75","440","2","0","3","0.7,0,0.8,0.7,0.8,0,0.7,0.8,0",""
"","html-keyboard-response","260","165480","0.0-260.0","35H6S234SBM5N9PRXAQBFOVTTP165M","A2FP41BSPG0Y4A","3TZDZ3Y0JSSRVQSC3SM97PDQ3Z7196","","null","<img src=""img/animal1.png"" style=""width:200px;border:14px solid red;"">","null","","","","","",""
"","image-keyboard-response","261","166106","0.0-261.0","35H6S234SBM5N9PRXAQBFOVTTP165M","A2FP41BSPG0Y4A","3TZDZ3Y0JSSRVQSC3SM97PDQ3Z7196","","623.6999999955297","img/animal3.png","74","625.5","1","1","2","0.7,0,0.8,0.7,0.8,0,0.7,0.8,0",""
"","html-keyboard-response","262","166411","0.0-262.0","35H6S234SBM5N9PRXAQBFOVTTP165M","A2FP41BSPG0Y4A","3TZDZ3Y0JSSRVQSC3SM97PDQ3Z7196","","null","<img src=""img/animal3.png"" style=""width:200px; border:14px solid green;"">","null","","","","","",""
"","image-keyboard-response","263","167313","0.0-263.0","35H6S234SBM5N9PRXAQBFOVTTP165M","A2FP41BSPG0Y4A","3TZDZ3Y0JSSRVQSC3SM97PDQ3Z7196","","899.8999999985099","img/animal1.png","76","901.5999999940395","3","0","3","0.7,0,0.8,0.7,0.8,0,0.7,0.8,0",""
"","html-keyboard-response","264","167622","0.0-264.0","35H6S234SBM5N9PRXAQBFOVTTP165M","A2FP41BSPG0Y4A","3TZDZ3Y0JSSRVQSC3SM97PDQ3Z7196","","null","<img src=""img/animal1.png"" style=""width:200px;border:14px solid red;"">","null","","","","","",""
"","image-keyboard-response","265","169544","0.0-265.0","35H6S234SBM5N9PRXAQBFOVTTP165M","A2FP41BSPG0Y4A","3TZDZ3Y0JSSRVQSC3SM97PDQ3Z7196","","1920.2000000029802","img/animal4.png","76","1921.6999999955297","3","1","1","0.7,0,0.8,0.7,0.8,0,0.7,0.8,0",""
"","html-keyboard-response","266","169846","0.0-266.0","35H6S234SBM5N9PRXAQBFOVTTP165M","A2FP41BSPG0Y4A","3TZDZ3Y0JSSRVQSC3SM97PDQ3Z7196","","null","<img src=""img/animal4.png"" style=""width:200px; border:14px solid green;"">","null","","","","","",""
"","image-keyboard-response","267","170327","0.0-267.0","35H6S234SBM5N9PRXAQBFOVTTP165M","A2FP41BSPG0Y4A","3TZDZ3Y0JSSRVQSC3SM97PDQ3Z7196","","479","img/animal4.png","76","480.6000000014901","3","0","1","0.7,0,0.8,0.7,0.8,0,0.7,0.8,0",""
"","html-keyboard-response","268","170632","0.0-268.0","35H6S234SBM5N9PRXAQBFOVTTP165M","A2FP41BSPG0Y4A","3TZDZ3Y0JSSRVQSC3SM97PDQ3Z7196","","null","<img src=""img/animal4.png"" style=""width:200px;border:14px solid red;"">","null","","","","","",""
"","image-keyboard-response","269","171068","0.0-269.0","35H6S234SBM5N9PRXAQBFOVTTP165M","A2FP41BSPG0Y4A","3TZDZ3Y0JSSRVQSC3SM97PDQ3Z7196","","434","img/animal4.png","76","435.5","3","1","1","0.7,0,0.8,0.7,0.8,0,0.7,0.8,0",""
"","html-keyboard-response","270","171374","0.0-270.0","35H6S234SBM5N9PRXAQBFOVTTP165M","A2FP41BSPG0Y4A","3TZDZ3Y0JSSRVQSC3SM97PDQ3Z7196","","null","<img src=""img/animal4.png"" style=""width:200px; border:14px solid green;"">","null","","","","","",""
"","image-keyboard-response","271","171787","0.0-271.0","35H6S234SBM5N9PRXAQBFOVTTP165M","A2FP41BSPG0Y4A","3TZDZ3Y0JSSRVQSC3SM97PDQ3Z7196","","411","img/animal4.png","76","412.6000000014901","3","1","1","0.7,0,0.8,0.7,0.8,0,0.7,0.8,0",""
"","html-keyboard-response","272","172092","0.0-272.0","35H6S234SBM5N9PRXAQBFOVTTP165M","A2FP41BSPG0Y4A","3TZDZ3Y0JSSRVQSC3SM97PDQ3Z7196","","null","<img src=""img/animal4.png"" style=""width:200px; border:14px solid green;"">","null","","","","","",""
"","image-keyboard-response","273","172449","0.0-273.0","35H6S234SBM5N9PRXAQBFOVTTP165M","A2FP41BSPG0Y4A","3TZDZ3Y0JSSRVQSC3SM97PDQ3Z7196","","355.80000000447035","img/animal4.png","76","357.29999999701977","3","1","1","0.7,0,0.8,0.7,0.8,0,0.7,0.8,0",""
"","html-keyboard-response","274","172755","0.0-274.0","35H6S234SBM5N9PRXAQBFOVTTP165M","A2FP41BSPG0Y4A","3TZDZ3Y0JSSRVQSC3SM97PDQ3Z7196","","null","<img src=""img/animal4.png"" style=""width:200px; border:14px solid green;"">","null","","","","","",""
"","image-keyboard-response","275","173584","0.0-275.0","35H6S234SBM5N9PRXAQBFOVTTP165M","A2FP41BSPG0Y4A","3TZDZ3Y0JSSRVQSC3SM97PDQ3Z7196","","826.1000000014901","img/animal3.png","74","828.3999999985099","1","0","2","0.7,0,0.8,0.7,0.8,0,0.7,0.8,0",""
"","html-keyboard-response","276","173892","0.0-276.0","35H6S234SBM5N9PRXAQBFOVTTP165M","A2FP41BSPG0Y4A","3TZDZ3Y0JSSRVQSC3SM97PDQ3Z7196","","null","<img src=""img/animal3.png"" style=""width:200px;border:14px solid red;"">","null","","","","","",""
"","image-keyboard-response","277","176060","0.0-277.0","35H6S234SBM5N9PRXAQBFOVTTP165M","A2FP41BSPG0Y4A","3TZDZ3Y0JSSRVQSC3SM97PDQ3Z7196","","2165.6999999955297","img/animal1.png","75","2167.2999999970198","2","1","3","0.7,0,0.8,0.7,0.8,0,0.7,0.8,0",""
"","html-keyboard-response","278","176363","0.0-278.0","35H6S234SBM5N9PRXAQBFOVTTP165M","A2FP41BSPG0Y4A","3TZDZ3Y0JSSRVQSC3SM97PDQ3Z7196","","null","<img src=""img/animal1.png"" style=""width:200px; border:14px solid green;"">","null","","","","","",""
"","image-keyboard-response","279","177351","0.0-279.0","35H6S234SBM5N9PRXAQBFOVTTP165M","A2FP41BSPG0Y4A","3TZDZ3Y0JSSRVQSC3SM97PDQ3Z7196","","985.5","img/animal4.png","76","987.2999999970198","3","1","1","0.7,0,0.8,0.7,0.8,0,0.7,0.8,0",""
"","html-keyboard-response","280","177661","0.0-280.0","35H6S234SBM5N9PRXAQBFOVTTP165M","A2FP41BSPG0Y4A","3TZDZ3Y0JSSRVQSC3SM97PDQ3Z7196","","null","<img src=""img/animal4.png"" style=""width:200px; border:14px solid green;"">","null","","","","","",""
"","image-keyboard-response","281","178141","0.0-281.0","35H6S234SBM5N9PRXAQBFOVTTP165M","A2FP41BSPG0Y4A","3TZDZ3Y0JSSRVQSC3SM97PDQ3Z7196","","478.1000000014901","img/animal4.png","76","479.3999999985099","3","0","1","0.7,0,0.8,0.7,0.8,0,0.7,0.8,0",""
"","html-keyboard-response","282","178451","0.0-282.0","35H6S234SBM5N9PRXAQBFOVTTP165M","A2FP41BSPG0Y4A","3TZDZ3Y0JSSRVQSC3SM97PDQ3Z7196","","null","<img src=""img/animal4.png"" style=""width:200px;border:14px solid red;"">","null","","","","","",""
"","image-keyboard-response","283","179786","0.0-283.0","35H6S234SBM5N9PRXAQBFOVTTP165M","A2FP41BSPG0Y4A","3TZDZ3Y0JSSRVQSC3SM97PDQ3Z7196","","1333","img/animal1.png","74","1334.5","1","0","3","0.7,0,0.8,0.7,0.8,0,0.7,0.8,0",""
"","html-keyboard-response","284","180091","0.0-284.0","35H6S234SBM5N9PRXAQBFOVTTP165M","A2FP41BSPG0Y4A","3TZDZ3Y0JSSRVQSC3SM97PDQ3Z7196","","null","<img src=""img/animal1.png"" style=""width:200px;border:14px solid red;"">","null","","","","","",""
"","image-keyboard-response","285","181377","0.0-285.0","35H6S234SBM5N9PRXAQBFOVTTP165M","A2FP41BSPG0Y4A","3TZDZ3Y0JSSRVQSC3SM97PDQ3Z7196","","1284.7000000029802","img/animal4.png","76","1286.3000000044703","3","1","1","0.7,0,0.8,0.7,0.8,0,0.7,0.8,0",""
"","html-keyboard-response","286","181682","0.0-286.0","35H6S234SBM5N9PRXAQBFOVTTP165M","A2FP41BSPG0Y4A","3TZDZ3Y0JSSRVQSC3SM97PDQ3Z7196","","null","<img src=""img/animal4.png"" style=""width:200px; border:14px solid green;"">","null","","","","","",""
"","image-keyboard-response","287","182528","0.0-287.0","35H6S234SBM5N9PRXAQBFOVTTP165M","A2FP41BSPG0Y4A","3TZDZ3Y0JSSRVQSC3SM97PDQ3Z7196","","844.2000000029802","img/animal1.png","74","845.6000000014901","1","1","3","0.7,0,0.8,0.7,0.8,0,0.7,0.8,0",""
"","html-keyboard-response","288","182834","0.0-288.0","35H6S234SBM5N9PRXAQBFOVTTP165M","A2FP41BSPG0Y4A","3TZDZ3Y0JSSRVQSC3SM97PDQ3Z7196","","null","<img src=""img/animal1.png"" style=""width:200px; border:14px solid green;"">","null","","","","","",""
"","image-keyboard-response","289","183258","0.0-289.0","35H6S234SBM5N9PRXAQBFOVTTP165M","A2FP41BSPG0Y4A","3TZDZ3Y0JSSRVQSC3SM97PDQ3Z7196","","422.80000000447035","img/animal1.png","74","424.5","1","1","3","0.7,0,0.8,0.7,0.8,0,0.7,0.8,0",""
"","html-keyboard-response","290","183563","0.0-290.0","35H6S234SBM5N9PRXAQBFOVTTP165M","A2FP41BSPG0Y4A","3TZDZ3Y0JSSRVQSC3SM97PDQ3Z7196","","null","<img src=""img/animal1.png"" style=""width:200px; border:14px solid green;"">","null","","","","","",""
"","image-keyboard-response","291","184494","0.0-291.0","35H6S234SBM5N9PRXAQBFOVTTP165M","A2FP41BSPG0Y4A","3TZDZ3Y0JSSRVQSC3SM97PDQ3Z7196","","929.7999999970198","img/animal4.png","75","931.3000000044703","2","0","1","0.7,0,0.8,0.7,0.8,0,0.7,0.8,0",""
"","html-keyboard-response","292","184804","0.0-292.0","35H6S234SBM5N9PRXAQBFOVTTP165M","A2FP41BSPG0Y4A","3TZDZ3Y0JSSRVQSC3SM97PDQ3Z7196","","null","<img src=""img/animal4.png"" style=""width:200px;border:14px solid red;"">","null","","","","","",""
"","image-keyboard-response","293","185975","0.0-293.0","35H6S234SBM5N9PRXAQBFOVTTP165M","A2FP41BSPG0Y4A","3TZDZ3Y0JSSRVQSC3SM97PDQ3Z7196","","1169.1000000014901","img/animal1.png","75","1171.0999999940395","2","1","3","0.7,0,0.8,0.7,0.8,0,0.7,0.8,0",""
"","html-keyboard-response","294","186282","0.0-294.0","35H6S234SBM5N9PRXAQBFOVTTP165M","A2FP41BSPG0Y4A","3TZDZ3Y0JSSRVQSC3SM97PDQ3Z7196","","null","<img src=""img/animal1.png"" style=""width:200px; border:14px solid green;"">","null","","","","","",""
"","image-keyboard-response","295","186906","0.0-295.0","35H6S234SBM5N9PRXAQBFOVTTP165M","A2FP41BSPG0Y4A","3TZDZ3Y0JSSRVQSC3SM97PDQ3Z7196","","622.5","img/animal3.png","74","623.9000000059605","1","1","2","0.7,0,0.8,0.7,0.8,0,0.7,0.8,0",""
"","html-keyboard-response","296","187214","0.0-296.0","35H6S234SBM5N9PRXAQBFOVTTP165M","A2FP41BSPG0Y4A","3TZDZ3Y0JSSRVQSC3SM97PDQ3Z7196","","null","<img src=""img/animal3.png"" style=""width:200px; border:14px solid green;"">","null","","","","","",""
"","image-keyboard-response","297","187589","0.0-297.0","35H6S234SBM5N9PRXAQBFOVTTP165M","A2FP41BSPG0Y4A","3TZDZ3Y0JSSRVQSC3SM97PDQ3Z7196","","372.8999999985099","img/animal3.png","74","374.3999999985099","1","0","2","0.7,0,0.8,0.7,0.8,0,0.7,0.8,0",""
"","html-keyboard-response","298","187897","0.0-298.0","35H6S234SBM5N9PRXAQBFOVTTP165M","A2FP41BSPG0Y4A","3TZDZ3Y0JSSRVQSC3SM97PDQ3Z7196","","null","<img src=""img/animal3.png"" style=""width:200px;border:14px solid red;"">","null","","","","","",""
"","image-keyboard-response","299","188856","0.0-299.0","35H6S234SBM5N9PRXAQBFOVTTP165M","A2FP41BSPG0Y4A","3TZDZ3Y0JSSRVQSC3SM97PDQ3Z7196","","957.3999999985099","img/animal4.png","76","959.1999999955297","3","0","1","0.7,0,0.8,0.7,0.8,0,0.7,0.8,0",""
"","html-keyboard-response","300","189162","0.0-300.0","35H6S234SBM5N9PRXAQBFOVTTP165M","A2FP41BSPG0Y4A","3TZDZ3Y0JSSRVQSC3SM97PDQ3Z7196","","null","<img src=""img/animal4.png"" style=""width:200px;border:14px solid red;"">","null","","","","","",""
"","image-keyboard-response","301","189550","0.0-301.0","35H6S234SBM5N9PRXAQBFOVTTP165M","A2FP41BSPG0Y4A","3TZDZ3Y0JSSRVQSC3SM97PDQ3Z7196","","386.5","img/animal4.png","76","387.8999999985099","3","1","1","0.7,0,0.8,0.7,0.8,0,0.7,0.8,0",""
"","html-keyboard-response","302","189857","0.0-302.0","35H6S234SBM5N9PRXAQBFOVTTP165M","A2FP41BSPG0Y4A","3TZDZ3Y0JSSRVQSC3SM97PDQ3Z7196","","null","<img src=""img/animal4.png"" style=""width:200px; border:14px solid green;"">","null","","","","","",""
"","image-keyboard-response","303","190519","0.0-303.0","35H6S234SBM5N9PRXAQBFOVTTP165M","A2FP41BSPG0Y4A","3TZDZ3Y0JSSRVQSC3SM97PDQ3Z7196","","659.5","img/animal1.png","74","661.2999999970198","1","1","3","0.7,0,0.8,0.7,0.8,0,0.7,0.8,0",""
"","html-keyboard-response","304","190824","0.0-304.0","35H6S234SBM5N9PRXAQBFOVTTP165M","A2FP41BSPG0Y4A","3TZDZ3Y0JSSRVQSC3SM97PDQ3Z7196","","null","<img src=""img/animal1.png"" style=""width:200px; border:14px solid green;"">","null","","","","","",""
"","image-keyboard-response","305","191546","0.0-305.0","35H6S234SBM5N9PRXAQBFOVTTP165M","A2FP41BSPG0Y4A","3TZDZ3Y0JSSRVQSC3SM97PDQ3Z7196","","720.5","img/animal4.png","76","722.1000000014901","3","1","1","0.7,0,0.8,0.7,0.8,0,0.7,0.8,0",""
"","html-keyboard-response","306","191854","0.0-306.0","35H6S234SBM5N9PRXAQBFOVTTP165M","A2FP41BSPG0Y4A","3TZDZ3Y0JSSRVQSC3SM97PDQ3Z7196","","null","<img src=""img/animal4.png"" style=""width:200px; border:14px solid green;"">","null","","","","","",""
"","image-keyboard-response","307","192278","0.0-307.0","35H6S234SBM5N9PRXAQBFOVTTP165M","A2FP41BSPG0Y4A","3TZDZ3Y0JSSRVQSC3SM97PDQ3Z7196","","421.8999999985099","img/animal4.png","76","423.3999999985099","3","1","1","0.7,0,0.8,0.7,0.8,0,0.7,0.8,0",""
"","html-keyboard-response","308","192590","0.0-308.0","35H6S234SBM5N9PRXAQBFOVTTP165M","A2FP41BSPG0Y4A","3TZDZ3Y0JSSRVQSC3SM97PDQ3Z7196","","null","<img src=""img/animal4.png"" style=""width:200px; border:14px solid green;"">","null","","","","","",""
"","image-keyboard-response","309","193201","0.0-309.0","35H6S234SBM5N9PRXAQBFOVTTP165M","A2FP41BSPG0Y4A","3TZDZ3Y0JSSRVQSC3SM97PDQ3Z7196","","609.2999999970198","img/animal1.png","74","610.8999999985099","1","0","3","0.7,0,0.8,0.7,0.8,0,0.7,0.8,0",""
"","html-keyboard-response","310","193504","0.0-310.0","35H6S234SBM5N9PRXAQBFOVTTP165M","A2FP41BSPG0Y4A","3TZDZ3Y0JSSRVQSC3SM97PDQ3Z7196","","null","<img src=""img/animal1.png"" style=""width:200px;border:14px solid red;"">","null","","","","","",""
"","image-keyboard-response","311","194460","0.0-311.0","35H6S234SBM5N9PRXAQBFOVTTP165M","A2FP41BSPG0Y4A","3TZDZ3Y0JSSRVQSC3SM97PDQ3Z7196","","953.7000000029802","img/animal3.png","74","955.3999999985099","1","0","2","0.7,0,0.8,0.7,0.8,0,0.7,0.8,0",""
"","html-keyboard-response","312","194771","0.0-312.0","35H6S234SBM5N9PRXAQBFOVTTP165M","A2FP41BSPG0Y4A","3TZDZ3Y0JSSRVQSC3SM97PDQ3Z7196","","null","<img src=""img/animal3.png"" style=""width:200px;border:14px solid red;"">","null","","","","","",""
"","image-keyboard-response","313","195390","0.0-313.0","35H6S234SBM5N9PRXAQBFOVTTP165M","A2FP41BSPG0Y4A","3TZDZ3Y0JSSRVQSC3SM97PDQ3Z7196","","616.6000000014901","img/animal4.png","76","618.1000000014901","3","1","1","0.7,0,0.8,0.7,0.8,0,0.7,0.8,0",""
"","html-keyboard-response","314","195694","0.0-314.0","35H6S234SBM5N9PRXAQBFOVTTP165M","A2FP41BSPG0Y4A","3TZDZ3Y0JSSRVQSC3SM97PDQ3Z7196","","null","<img src=""img/animal4.png"" style=""width:200px; border:14px solid green;"">","null","","","","","",""
"","image-keyboard-response","315","196141","0.0-315.0","35H6S234SBM5N9PRXAQBFOVTTP165M","A2FP41BSPG0Y4A","3TZDZ3Y0JSSRVQSC3SM97PDQ3Z7196","","445.09999999403954","img/animal4.png","76","446.69999999552965","3","1","1","0.7,0,0.8,0.7,0.8,0,0.7,0.8,0",""
"","html-keyboard-response","316","196443","0.0-316.0","35H6S234SBM5N9PRXAQBFOVTTP165M","A2FP41BSPG0Y4A","3TZDZ3Y0JSSRVQSC3SM97PDQ3Z7196","","null","<img src=""img/animal4.png"" style=""width:200px; border:14px solid green;"">","null","","","","","",""
"","image-keyboard-response","317","197098","0.0-317.0","35H6S234SBM5N9PRXAQBFOVTTP165M","A2FP41BSPG0Y4A","3TZDZ3Y0JSSRVQSC3SM97PDQ3Z7196","","652.6999999955297","img/animal3.png","75","654.6999999955297","2","1","2","0.7,0,0.8,0.7,0.8,0,0.7,0.8,0",""
"","html-keyboard-response","318","197406","0.0-318.0","35H6S234SBM5N9PRXAQBFOVTTP165M","A2FP41BSPG0Y4A","3TZDZ3Y0JSSRVQSC3SM97PDQ3Z7196","","null","<img src=""img/animal3.png"" style=""width:200px; border:14px solid green;"">","null","","","","","",""
"","image-keyboard-response","319","198165","0.0-319.0","35H6S234SBM5N9PRXAQBFOVTTP165M","A2FP41BSPG0Y4A","3TZDZ3Y0JSSRVQSC3SM97PDQ3Z7196","","756.8999999985099","img/animal4.png","76","758.6999999955297","3","0","1","0.7,0,0.8,0.7,0.8,0,0.7,0.8,0",""
"","html-keyboard-response","320","198477","0.0-320.0","35H6S234SBM5N9PRXAQBFOVTTP165M","A2FP41BSPG0Y4A","3TZDZ3Y0JSSRVQSC3SM97PDQ3Z7196","","null","<img src=""img/animal4.png"" style=""width:200px;border:14px solid red;"">","null","","","","","",""
"","image-keyboard-response","321","199726","0.0-321.0","35H6S234SBM5N9PRXAQBFOVTTP165M","A2FP41BSPG0Y4A","3TZDZ3Y0JSSRVQSC3SM97PDQ3Z7196","","1246.9000000059605","img/animal1.png","75","1248.6000000014901","2","1","3","0.7,0,0.8,0.7,0.8,0,0.7,0.8,0",""
"","html-keyboard-response","322","200032","0.0-322.0","35H6S234SBM5N9PRXAQBFOVTTP165M","A2FP41BSPG0Y4A","3TZDZ3Y0JSSRVQSC3SM97PDQ3Z7196","","null","<img src=""img/animal1.png"" style=""width:200px; border:14px solid green;"">","null","","","","","",""
"","image-keyboard-response","323","200884","0.0-323.0","35H6S234SBM5N9PRXAQBFOVTTP165M","A2FP41BSPG0Y4A","3TZDZ3Y0JSSRVQSC3SM97PDQ3Z7196","","850.3999999985099","img/animal3.png","74","852.1000000014901","1","1","2","0.7,0,0.8,0.7,0.8,0,0.7,0.8,0",""
"","html-keyboard-response","324","201192","0.0-324.0","35H6S234SBM5N9PRXAQBFOVTTP165M","A2FP41BSPG0Y4A","3TZDZ3Y0JSSRVQSC3SM97PDQ3Z7196","","null","<img src=""img/animal3.png"" style=""width:200px; border:14px solid green;"">","null","","","","","",""
"","image-keyboard-response","325","201831","0.0-325.0","35H6S234SBM5N9PRXAQBFOVTTP165M","A2FP41BSPG0Y4A","3TZDZ3Y0JSSRVQSC3SM97PDQ3Z7196","","637.4000000059605","img/animal1.png","76","639.1000000014901","3","0","3","0.7,0,0.8,0.7,0.8,0,0.7,0.8,0",""
"","html-keyboard-response","326","202134","0.0-326.0","35H6S234SBM5N9PRXAQBFOVTTP165M","A2FP41BSPG0Y4A","3TZDZ3Y0JSSRVQSC3SM97PDQ3Z7196","","null","<img src=""img/animal1.png"" style=""width:200px;border:14px solid red;"">","null","","","","","",""
"","image-keyboard-response","327","203527","0.0-327.0","35H6S234SBM5N9PRXAQBFOVTTP165M","A2FP41BSPG0Y4A","3TZDZ3Y0JSSRVQSC3SM97PDQ3Z7196","","1390.6000000014901","img/animal3.png","74","1392.3999999985099","1","1","2","0.7,0,0.8,0.7,0.8,0,0.7,0.8,0",""
"","html-keyboard-response","328","203836","0.0-328.0","35H6S234SBM5N9PRXAQBFOVTTP165M","A2FP41BSPG0Y4A","3TZDZ3Y0JSSRVQSC3SM97PDQ3Z7196","","null","<img src=""img/animal3.png"" style=""width:200px; border:14px solid green;"">","null","","","","","",""
"","image-keyboard-response","329","204744","0.0-329.0","35H6S234SBM5N9PRXAQBFOVTTP165M","A2FP41BSPG0Y4A","3TZDZ3Y0JSSRVQSC3SM97PDQ3Z7196","","905.8000000044703","img/animal4.png","76","907.3999999985099","3","0","1","0.7,0,0.8,0.7,0.8,0,0.7,0.8,0",""
"","html-keyboard-response","330","205053","0.0-330.0","35H6S234SBM5N9PRXAQBFOVTTP165M","A2FP41BSPG0Y4A","3TZDZ3Y0JSSRVQSC3SM97PDQ3Z7196","","null","<img src=""img/animal4.png"" style=""width:200px;border:14px solid red;"">","null","","","","","",""
"","image-keyboard-response","331","205536","0.0-331.0","35H6S234SBM5N9PRXAQBFOVTTP165M","A2FP41BSPG0Y4A","3TZDZ3Y0JSSRVQSC3SM97PDQ3Z7196","","481","img/animal4.png","76","482.80000000447035","3","1","1","0.7,0,0.8,0.7,0.8,0,0.7,0.8,0",""
"","html-keyboard-response","332","205846","0.0-332.0","35H6S234SBM5N9PRXAQBFOVTTP165M","A2FP41BSPG0Y4A","3TZDZ3Y0JSSRVQSC3SM97PDQ3Z7196","","null","<img src=""img/animal4.png"" style=""width:200px; border:14px solid green;"">","null","","","","","",""
"","image-keyboard-response","333","206229","0.0-333.0","35H6S234SBM5N9PRXAQBFOVTTP165M","A2FP41BSPG0Y4A","3TZDZ3Y0JSSRVQSC3SM97PDQ3Z7196","","381.5","img/animal4.png","76","383.20000000298023","3","0","1","0.7,0,0.8,0.7,0.8,0,0.7,0.8,0",""
"","html-keyboard-response","334","206535","0.0-334.0","35H6S234SBM5N9PRXAQBFOVTTP165M","A2FP41BSPG0Y4A","3TZDZ3Y0JSSRVQSC3SM97PDQ3Z7196","","null","<img src=""img/animal4.png"" style=""width:200px;border:14px solid red;"">","null","","","","","",""
"","image-keyboard-response","335","207617","0.0-335.0","35H6S234SBM5N9PRXAQBFOVTTP165M","A2FP41BSPG0Y4A","3TZDZ3Y0JSSRVQSC3SM97PDQ3Z7196","","1079.7999999970198","img/animal1.png","74","1081.5","1","1","3","0.7,0,0.8,0.7,0.8,0,0.7,0.8,0",""
"","html-keyboard-response","336","207927","0.0-336.0","35H6S234SBM5N9PRXAQBFOVTTP165M","A2FP41BSPG0Y4A","3TZDZ3Y0JSSRVQSC3SM97PDQ3Z7196","","null","<img src=""img/animal1.png"" style=""width:200px; border:14px solid green;"">","null","","","","","",""
"","image-keyboard-response","337","209027","0.0-337.0","35H6S234SBM5N9PRXAQBFOVTTP165M","A2FP41BSPG0Y4A","3TZDZ3Y0JSSRVQSC3SM97PDQ3Z7196","","1098","img/animal3.png","76","1099.6000000014901","3","0","2","0.7,0,0.8,0.7,0.8,0,0.7,0.8,0",""
"","html-keyboard-response","338","209337","0.0-338.0","35H6S234SBM5N9PRXAQBFOVTTP165M","A2FP41BSPG0Y4A","3TZDZ3Y0JSSRVQSC3SM97PDQ3Z7196","","null","<img src=""img/animal3.png"" style=""width:200px;border:14px solid red;"">","null","","","","","",""
"","image-keyboard-response","339","209627","0.0-339.0","35H6S234SBM5N9PRXAQBFOVTTP165M","A2FP41BSPG0Y4A","3TZDZ3Y0JSSRVQSC3SM97PDQ3Z7196","","288.1000000014901","img/animal1.png","74","289.70000000298023","1","1","3","0.7,0,0.8,0.7,0.8,0,0.7,0.8,0",""
"","html-keyboard-response","340","209936","0.0-340.0","35H6S234SBM5N9PRXAQBFOVTTP165M","A2FP41BSPG0Y4A","3TZDZ3Y0JSSRVQSC3SM97PDQ3Z7196","","null","<img src=""img/animal1.png"" style=""width:200px; border:14px solid green;"">","null","","","","","",""
"","image-keyboard-response","341","210540","0.0-341.0","35H6S234SBM5N9PRXAQBFOVTTP165M","A2FP41BSPG0Y4A","3TZDZ3Y0JSSRVQSC3SM97PDQ3Z7196","","601.4000000059605","img/animal1.png","75","603.2000000029802","2","1","3","0.7,0,0.8,0.7,0.8,0,0.7,0.8,0",""
"","html-keyboard-response","342","210852","0.0-342.0","35H6S234SBM5N9PRXAQBFOVTTP165M","A2FP41BSPG0Y4A","3TZDZ3Y0JSSRVQSC3SM97PDQ3Z7196","","null","<img src=""img/animal1.png"" style=""width:200px; border:14px solid green;"">","null","","","","","",""
"","image-keyboard-response","343","211233","0.0-343.0","35H6S234SBM5N9PRXAQBFOVTTP165M","A2FP41BSPG0Y4A","3TZDZ3Y0JSSRVQSC3SM97PDQ3Z7196","","378.90000000596046","img/animal1.png","75","380.5","2","1","3","0.7,0,0.8,0.7,0.8,0,0.7,0.8,0",""
"","html-keyboard-response","344","211538","0.0-344.0","35H6S234SBM5N9PRXAQBFOVTTP165M","A2FP41BSPG0Y4A","3TZDZ3Y0JSSRVQSC3SM97PDQ3Z7196","","null","<img src=""img/animal1.png"" style=""width:200px; border:14px solid green;"">","null","","","","","",""
"","image-keyboard-response","345","211896","0.0-345.0","35H6S234SBM5N9PRXAQBFOVTTP165M","A2FP41BSPG0Y4A","3TZDZ3Y0JSSRVQSC3SM97PDQ3Z7196","","355.1000000014901","img/animal1.png","75","356.80000000447035","2","1","3","0.7,0,0.8,0.7,0.8,0,0.7,0.8,0",""
"","html-keyboard-response","346","212199","0.0-346.0","35H6S234SBM5N9PRXAQBFOVTTP165M","A2FP41BSPG0Y4A","3TZDZ3Y0JSSRVQSC3SM97PDQ3Z7196","","null","<img src=""img/animal1.png"" style=""width:200px; border:14px solid green;"">","null","","","","","",""
"","image-keyboard-response","347","212770","0.0-347.0","35H6S234SBM5N9PRXAQBFOVTTP165M","A2FP41BSPG0Y4A","3TZDZ3Y0JSSRVQSC3SM97PDQ3Z7196","","569.3999999985099","img/animal3.png","74","571.3000000044703","1","0","2","0.7,0,0.8,0.7,0.8,0,0.7,0.8,0",""
"","html-keyboard-response","348","213074","0.0-348.0","35H6S234SBM5N9PRXAQBFOVTTP165M","A2FP41BSPG0Y4A","3TZDZ3Y0JSSRVQSC3SM97PDQ3Z7196","","null","<img src=""img/animal3.png"" style=""width:200px;border:14px solid red;"">","null","","","","","",""
"","image-keyboard-response","349","213443","0.0-349.0","35H6S234SBM5N9PRXAQBFOVTTP165M","A2FP41BSPG0Y4A","3TZDZ3Y0JSSRVQSC3SM97PDQ3Z7196","","366.79999999701977","img/animal3.png","74","368.3999999985099","1","1","2","0.7,0,0.8,0.7,0.8,0,0.7,0.8,0",""
"","html-keyboard-response","350","213747","0.0-350.0","35H6S234SBM5N9PRXAQBFOVTTP165M","A2FP41BSPG0Y4A","3TZDZ3Y0JSSRVQSC3SM97PDQ3Z7196","","null","<img src=""img/animal3.png"" style=""width:200px; border:14px solid green;"">","null","","","","","",""
"","image-keyboard-response","351","214094","0.0-351.0","35H6S234SBM5N9PRXAQBFOVTTP165M","A2FP41BSPG0Y4A","3TZDZ3Y0JSSRVQSC3SM97PDQ3Z7196","","343.59999999403954","img/animal3.png","74","345.79999999701977","1","0","2","0.7,0,0.8,0.7,0.8,0,0.7,0.8,0",""
"","html-keyboard-response","352","214398","0.0-352.0","35H6S234SBM5N9PRXAQBFOVTTP165M","A2FP41BSPG0Y4A","3TZDZ3Y0JSSRVQSC3SM97PDQ3Z7196","","null","<img src=""img/animal3.png"" style=""width:200px;border:14px solid red;"">","null","","","","","",""
"","image-keyboard-response","353","214736","0.0-353.0","35H6S234SBM5N9PRXAQBFOVTTP165M","A2FP41BSPG0Y4A","3TZDZ3Y0JSSRVQSC3SM97PDQ3Z7196","","335.79999999701977","img/animal3.png","74","337.5","1","1","2","0.7,0,0.8,0.7,0.8,0,0.7,0.8,0",""
"","html-keyboard-response","354","215041","0.0-354.0","35H6S234SBM5N9PRXAQBFOVTTP165M","A2FP41BSPG0Y4A","3TZDZ3Y0JSSRVQSC3SM97PDQ3Z7196","","null","<img src=""img/animal3.png"" style=""width:200px; border:14px solid green;"">","null","","","","","",""
"","image-keyboard-response","355","215936","0.0-355.0","35H6S234SBM5N9PRXAQBFOVTTP165M","A2FP41BSPG0Y4A","3TZDZ3Y0JSSRVQSC3SM97PDQ3Z7196","","892.5","img/animal1.png","76","893.8999999985099","3","0","3","0.7,0,0.8,0.7,0.8,0,0.7,0.8,0",""
"","html-keyboard-response","356","216246","0.0-356.0","35H6S234SBM5N9PRXAQBFOVTTP165M","A2FP41BSPG0Y4A","3TZDZ3Y0JSSRVQSC3SM97PDQ3Z7196","","null","<img src=""img/animal1.png"" style=""width:200px;border:14px solid red;"">","null","","","","","",""
"","image-keyboard-response","357","217851","0.0-357.0","35H6S234SBM5N9PRXAQBFOVTTP165M","A2FP41BSPG0Y4A","3TZDZ3Y0JSSRVQSC3SM97PDQ3Z7196","","1603.9000000059605","img/animal4.png","76","1605.3999999985099","3","0","1","0.7,0,0.8,0.7,0.8,0,0.7,0.8,0",""
"","html-keyboard-response","358","218162","0.0-358.0","35H6S234SBM5N9PRXAQBFOVTTP165M","A2FP41BSPG0Y4A","3TZDZ3Y0JSSRVQSC3SM97PDQ3Z7196","","null","<img src=""img/animal4.png"" style=""width:200px;border:14px solid red;"">","null","","","","","",""
"","image-keyboard-response","359","218999","0.0-359.0","35H6S234SBM5N9PRXAQBFOVTTP165M","A2FP41BSPG0Y4A","3TZDZ3Y0JSSRVQSC3SM97PDQ3Z7196","","834.9000000059605","img/animal3.png","74","836.6999999955297","1","0","2","0.7,0,0.8,0.7,0.8,0,0.7,0.8,0",""
"","html-keyboard-response","360","219304","0.0-360.0","35H6S234SBM5N9PRXAQBFOVTTP165M","A2FP41BSPG0Y4A","3TZDZ3Y0JSSRVQSC3SM97PDQ3Z7196","","null","<img src=""img/animal3.png"" style=""width:200px;border:14px solid red;"">","null","","","","","",""
"","image-keyboard-response","361","220563","0.0-361.0","35H6S234SBM5N9PRXAQBFOVTTP165M","A2FP41BSPG0Y4A","3TZDZ3Y0JSSRVQSC3SM97PDQ3Z7196","","1257.3999999985099","img/animal1.png","75","1258.8999999985099","2","1","3","0.7,0,0.8,0.7,0.8,0,0.7,0.8,0",""
"","html-keyboard-response","362","220869","0.0-362.0","35H6S234SBM5N9PRXAQBFOVTTP165M","A2FP41BSPG0Y4A","3TZDZ3Y0JSSRVQSC3SM97PDQ3Z7196","","null","<img src=""img/animal1.png"" style=""width:200px; border:14px solid green;"">","null","","","","","",""
"","instructions","363","222749","0.0-363.0","35H6S234SBM5N9PRXAQBFOVTTP165M","A2FP41BSPG0Y4A","3TZDZ3Y0JSSRVQSC3SM97PDQ3Z7196","[{""page_index"":0,""viewing_time"":1879.1000000014901}]","1879.4000000059605","","","","","","","",""
"","survey-text","364","228913","0.0-364.0","35H6S234SBM5N9PRXAQBFOVTTP165M","A2FP41BSPG0Y4A","3TZDZ3Y0JSSRVQSC3SM97PDQ3Z7196","","6159.39999999851","","","","","","","","{""Q0"":""A2FP41BSPG0Y4A""}"
