"success","trial_type","trial_index","time_elapsed","internal_node_id","assignmentID","mturkID","hitID","view_history","rt","stimulus","key_press","reactionTime","a","r","s","reward_cond","responses"
"true","fullscreen","0","3474","0.0-0.0","3K4J6M3CXFF4Q8QE4JQEZQO4FHKGAJ","A2H3CV7SIVYREN","3FW4EL5A3LANKRP91N782LFHPY722Q","","","","","","","","","",""
"","instructions","1","39011","0.0-1.0","3K4J6M3CXFF4Q8QE4JQEZQO4FHKGAJ","A2H3CV7SIVYREN","3FW4EL5A3LANKRP91N782LFHPY722Q","[{""page_index"":0,""viewing_time"":21228},{""page_index"":1,""viewing_time"":1944},{""page_index"":2,""viewing_time"":2121},{""page_index"":3,""viewing_time"":2926},{""page_index"":4,""viewing_time"":3035},{""page_index"":5,""viewing_time"":1428},{""page_index"":6,""viewing_time"":1406},{""page_index"":7,""viewing_time"":1448}]","35537","","","","","","","",""
"","image-keyboard-response","2","41227","0.0-2.0","3K4J6M3CXFF4Q8QE4JQEZQO4FHKGAJ","A2H3CV7SIVYREN","3FW4EL5A3LANKRP91N782LFHPY722Q","","2214","img/animal1.png","74","2216","1","1","1","0.7,0,0.8,0.7,0.8,0,0.7,0.8,0",""
"","html-keyboard-response","3","41636","0.0-3.0","3K4J6M3CXFF4Q8QE4JQEZQO4FHKGAJ","A2H3CV7SIVYREN","3FW4EL5A3LANKRP91N782LFHPY722Q","","null","<img src=""img/animal1.png"" style=""width:200px; border:14px solid green;"">","null","","","","","",""
"","image-keyboard-response","4","41781","0.0-4.0","3K4J6M3CXFF4Q8QE4JQEZQO4FHKGAJ","A2H3CV7SIVYREN","3FW4EL5A3LANKRP91N782LFHPY722Q","","143","img/animal4.png","75","145","2","1","3","0.7,0,0.8,0.7,0.8,0,0.7,0.8,0",""
"","html-keyboard-response","5","42088","0.0-5.0","3K4J6M3CXFF4Q8QE4JQEZQO4FHKGAJ","A2H3CV7SIVYREN","3FW4EL5A3LANKRP91N782LFHPY722Q","","null","<img src=""img/animal4.png"" style=""width:200px; border:14px solid green;"">","null","","","","","",""
"","image-keyboard-response","6","42750","0.0-6.0","3K4J6M3CXFF4Q8QE4JQEZQO4FHKGAJ","A2H3CV7SIVYREN","3FW4EL5A3LANKRP91N782LFHPY722Q","","661","img/animal3.png","75","663","2","1","2","0.7,0,0.8,0.7,0.8,0,0.7,0.8,0",""
"","html-keyboard-response","7","43055","0.0-7.0","3K4J6M3CXFF4Q8QE4JQEZQO4FHKGAJ","A2H3CV7SIVYREN","3FW4EL5A3LANKRP91N782LFHPY722Q","","null","<img src=""img/animal3.png"" style=""width:200px; border:14px solid green;"">","null","","","","","",""
"","image-keyboard-response","8","43405","0.0-8.0","3K4J6M3CXFF4Q8QE4JQEZQO4FHKGAJ","A2H3CV7SIVYREN","3FW4EL5A3LANKRP91N782LFHPY722Q","","348","img/animal1.png","75","349","2","0","1","0.7,0,0.8,0.7,0.8,0,0.7,0.8,0",""
"","html-keyboard-response","9","43708","0.0-9.0","3K4J6M3CXFF4Q8QE4JQEZQO4FHKGAJ","A2H3CV7SIVYREN","3FW4EL5A3LANKRP91N782LFHPY722Q","","null","<img src=""img/animal1.png"" style=""width:200px;border:14px solid red;"">","null","","","","","",""
"","image-keyboard-response","10","43948","0.0-10.0","3K4J6M3CXFF4Q8QE4JQEZQO4FHKGAJ","A2H3CV7SIVYREN","3FW4EL5A3LANKRP91N782LFHPY722Q","","236","img/animal1.png","75","240","2","0","1","0.7,0,0.8,0.7,0.8,0,0.7,0.8,0",""
"","html-keyboard-response","11","44292","0.0-11.0","3K4J6M3CXFF4Q8QE4JQEZQO4FHKGAJ","A2H3CV7SIVYREN","3FW4EL5A3LANKRP91N782LFHPY722Q","","null","<img src=""img/animal1.png"" style=""width:200px;border:14px solid red;"">","null","","","","","",""
"","image-keyboard-response","12","44629","0.0-12.0","3K4J6M3CXFF4Q8QE4JQEZQO4FHKGAJ","A2H3CV7SIVYREN","3FW4EL5A3LANKRP91N782LFHPY722Q","","336","img/animal1.png","75","337","2","0","1","0.7,0,0.8,0.7,0.8,0,0.7,0.8,0",""
"","html-keyboard-response","13","44930","0.0-13.0","3K4J6M3CXFF4Q8QE4JQEZQO4FHKGAJ","A2H3CV7SIVYREN","3FW4EL5A3LANKRP91N782LFHPY722Q","","null","<img src=""img/animal1.png"" style=""width:200px;border:14px solid red;"">","null","","","","","",""
"","image-keyboard-response","14","45678","0.0-14.0","3K4J6M3CXFF4Q8QE4JQEZQO4FHKGAJ","A2H3CV7SIVYREN","3FW4EL5A3LANKRP91N782LFHPY722Q","","747","img/animal1.png","76","748","3","1","1","0.7,0,0.8,0.7,0.8,0,0.7,0.8,0",""
"","html-keyboard-response","15","45983","0.0-15.0","3K4J6M3CXFF4Q8QE4JQEZQO4FHKGAJ","A2H3CV7SIVYREN","3FW4EL5A3LANKRP91N782LFHPY722Q","","null","<img src=""img/animal1.png"" style=""width:200px; border:14px solid green;"">","null","","","","","",""
"","image-keyboard-response","16","46509","0.0-16.0","3K4J6M3CXFF4Q8QE4JQEZQO4FHKGAJ","A2H3CV7SIVYREN","3FW4EL5A3LANKRP91N782LFHPY722Q","","524","img/animal1.png","75","526","2","0","1","0.7,0,0.8,0.7,0.8,0,0.7,0.8,0",""
"","html-keyboard-response","17","46813","0.0-17.0","3K4J6M3CXFF4Q8QE4JQEZQO4FHKGAJ","A2H3CV7SIVYREN","3FW4EL5A3LANKRP91N782LFHPY722Q","","null","<img src=""img/animal1.png"" style=""width:200px;border:14px solid red;"">","null","","","","","",""
"","image-keyboard-response","18","47209","0.0-18.0","3K4J6M3CXFF4Q8QE4JQEZQO4FHKGAJ","A2H3CV7SIVYREN","3FW4EL5A3LANKRP91N782LFHPY722Q","","396","img/animal4.png","76","396","3","0","3","0.7,0,0.8,0.7,0.8,0,0.7,0.8,0",""
"","html-keyboard-response","19","47511","0.0-19.0","3K4J6M3CXFF4Q8QE4JQEZQO4FHKGAJ","A2H3CV7SIVYREN","3FW4EL5A3LANKRP91N782LFHPY722Q","","null","<img src=""img/animal4.png"" style=""width:200px;border:14px solid red;"">","null","","","","","",""
"","image-keyboard-response","20","47867","0.0-20.0","3K4J6M3CXFF4Q8QE4JQEZQO4FHKGAJ","A2H3CV7SIVYREN","3FW4EL5A3LANKRP91N782LFHPY722Q","","354","img/animal4.png","75","356","2","1","3","0.7,0,0.8,0.7,0.8,0,0.7,0.8,0",""
"","html-keyboard-response","21","48168","0.0-21.0","3K4J6M3CXFF4Q8QE4JQEZQO4FHKGAJ","A2H3CV7SIVYREN","3FW4EL5A3LANKRP91N782LFHPY722Q","","null","<img src=""img/animal4.png"" style=""width:200px; border:14px solid green;"">","null","","","","","",""
"","image-keyboard-response","22","48507","0.0-22.0","3K4J6M3CXFF4Q8QE4JQEZQO4FHKGAJ","A2H3CV7SIVYREN","3FW4EL5A3LANKRP91N782LFHPY722Q","","338","img/animal1.png","74","339","1","1","1","0.7,0,0.8,0.7,0.8,0,0.7,0.8,0",""
"","html-keyboard-response","23","48810","0.0-23.0","3K4J6M3CXFF4Q8QE4JQEZQO4FHKGAJ","A2H3CV7SIVYREN","3FW4EL5A3LANKRP91N782LFHPY722Q","","null","<img src=""img/animal1.png"" style=""width:200px; border:14px solid green;"">","null","","","","","",""
"","image-keyboard-response","24","49152","0.0-24.0","3K4J6M3CXFF4Q8QE4JQEZQO4FHKGAJ","A2H3CV7SIVYREN","3FW4EL5A3LANKRP91N782LFHPY722Q","","341","img/animal3.png","75","342","2","1","2","0.7,0,0.8,0.7,0.8,0,0.7,0.8,0",""
"","html-keyboard-response","25","49455","0.0-25.0","3K4J6M3CXFF4Q8QE4JQEZQO4FHKGAJ","A2H3CV7SIVYREN","3FW4EL5A3LANKRP91N782LFHPY722Q","","null","<img src=""img/animal3.png"" style=""width:200px; border:14px solid green;"">","null","","","","","",""
"","image-keyboard-response","26","50101","0.0-26.0","3K4J6M3CXFF4Q8QE4JQEZQO4FHKGAJ","A2H3CV7SIVYREN","3FW4EL5A3LANKRP91N782LFHPY722Q","","644","img/animal1.png","75","646","2","0","1","0.7,0,0.8,0.7,0.8,0,0.7,0.8,0",""
"","html-keyboard-response","27","50406","0.0-27.0","3K4J6M3CXFF4Q8QE4JQEZQO4FHKGAJ","A2H3CV7SIVYREN","3FW4EL5A3LANKRP91N782LFHPY722Q","","null","<img src=""img/animal1.png"" style=""width:200px;border:14px solid red;"">","null","","","","","",""
"","image-keyboard-response","28","50782","0.0-28.0","3K4J6M3CXFF4Q8QE4JQEZQO4FHKGAJ","A2H3CV7SIVYREN","3FW4EL5A3LANKRP91N782LFHPY722Q","","375","img/animal1.png","74","375","1","1","1","0.7,0,0.8,0.7,0.8,0,0.7,0.8,0",""
"","html-keyboard-response","29","51086","0.0-29.0","3K4J6M3CXFF4Q8QE4JQEZQO4FHKGAJ","A2H3CV7SIVYREN","3FW4EL5A3LANKRP91N782LFHPY722Q","","null","<img src=""img/animal1.png"" style=""width:200px; border:14px solid green;"">","null","","","","","",""
"","image-keyboard-response","30","51505","0.0-30.0","3K4J6M3CXFF4Q8QE4JQEZQO4FHKGAJ","A2H3CV7SIVYREN","3FW4EL5A3LANKRP91N782LFHPY722Q","","417","img/animal1.png","74","418","1","1","1","0.7,0,0.8,0.7,0.8,0,0.7,0.8,0",""
"","html-keyboard-response","31","51811","0.0-31.0","3K4J6M3CXFF4Q8QE4JQEZQO4FHKGAJ","A2H3CV7SIVYREN","3FW4EL5A3LANKRP91N782LFHPY722Q","","null","<img src=""img/animal1.png"" style=""width:200px; border:14px solid green;"">","null","","","","","",""
"","image-keyboard-response","32","52254","0.0-32.0","3K4J6M3CXFF4Q8QE4JQEZQO4FHKGAJ","A2H3CV7SIVYREN","3FW4EL5A3LANKRP91N782LFHPY722Q","","442","img/animal4.png","74","444","1","0","3","0.7,0,0.8,0.7,0.8,0,0.7,0.8,0",""
"","html-keyboard-response","33","52556","0.0-33.0","3K4J6M3CXFF4Q8QE4JQEZQO4FHKGAJ","A2H3CV7SIVYREN","3FW4EL5A3LANKRP91N782LFHPY722Q","","null","<img src=""img/animal4.png"" style=""width:200px;border:14px solid red;"">","null","","","","","",""
"","image-keyboard-response","34","52958","0.0-34.0","3K4J6M3CXFF4Q8QE4JQEZQO4FHKGAJ","A2H3CV7SIVYREN","3FW4EL5A3LANKRP91N782LFHPY722Q","","402","img/animal4.png","74","402","1","1","3","0.7,0,0.8,0.7,0.8,0,0.7,0.8,0",""
"","html-keyboard-response","35","53260","0.0-35.0","3K4J6M3CXFF4Q8QE4JQEZQO4FHKGAJ","A2H3CV7SIVYREN","3FW4EL5A3LANKRP91N782LFHPY722Q","","null","<img src=""img/animal4.png"" style=""width:200px; border:14px solid green;"">","null","","","","","",""
"","image-keyboard-response","36","53341","0.0-36.0","3K4J6M3CXFF4Q8QE4JQEZQO4FHKGAJ","A2H3CV7SIVYREN","3FW4EL5A3LANKRP91N782LFHPY722Q","","80","img/animal3.png","75","81","2","0","2","0.7,0,0.8,0.7,0.8,0,0.7,0.8,0",""
"","html-keyboard-response","37","53650","0.0-37.0","3K4J6M3CXFF4Q8QE4JQEZQO4FHKGAJ","A2H3CV7SIVYREN","3FW4EL5A3LANKRP91N782LFHPY722Q","","null","<img src=""img/animal3.png"" style=""width:200px;border:14px solid red;"">","null","","","","","",""
"","image-keyboard-response","38","54035","0.0-38.0","3K4J6M3CXFF4Q8QE4JQEZQO4FHKGAJ","A2H3CV7SIVYREN","3FW4EL5A3LANKRP91N782LFHPY722Q","","385","img/animal4.png","75","385","2","0","3","0.7,0,0.8,0.7,0.8,0,0.7,0.8,0",""
"","html-keyboard-response","39","54336","0.0-39.0","3K4J6M3CXFF4Q8QE4JQEZQO4FHKGAJ","A2H3CV7SIVYREN","3FW4EL5A3LANKRP91N782LFHPY722Q","","null","<img src=""img/animal4.png"" style=""width:200px;border:14px solid red;"">","null","","","","","",""
"","image-keyboard-response","40","54765","0.0-40.0","3K4J6M3CXFF4Q8QE4JQEZQO4FHKGAJ","A2H3CV7SIVYREN","3FW4EL5A3LANKRP91N782LFHPY722Q","","428","img/animal1.png","76","429","3","1","1","0.7,0,0.8,0.7,0.8,0,0.7,0.8,0",""
"","html-keyboard-response","41","55067","0.0-41.0","3K4J6M3CXFF4Q8QE4JQEZQO4FHKGAJ","A2H3CV7SIVYREN","3FW4EL5A3LANKRP91N782LFHPY722Q","","null","<img src=""img/animal1.png"" style=""width:200px; border:14px solid green;"">","null","","","","","",""
"","image-keyboard-response","42","55481","0.0-42.0","3K4J6M3CXFF4Q8QE4JQEZQO4FHKGAJ","A2H3CV7SIVYREN","3FW4EL5A3LANKRP91N782LFHPY722Q","","414","img/animal4.png","76","414","3","0","3","0.7,0,0.8,0.7,0.8,0,0.7,0.8,0",""
"","html-keyboard-response","43","55783","0.0-43.0","3K4J6M3CXFF4Q8QE4JQEZQO4FHKGAJ","A2H3CV7SIVYREN","3FW4EL5A3LANKRP91N782LFHPY722Q","","null","<img src=""img/animal4.png"" style=""width:200px;border:14px solid red;"">","null","","","","","",""
"","image-keyboard-response","44","56247","0.0-44.0","3K4J6M3CXFF4Q8QE4JQEZQO4FHKGAJ","A2H3CV7SIVYREN","3FW4EL5A3LANKRP91N782LFHPY722Q","","463","img/animal4.png","75","464","2","1","3","0.7,0,0.8,0.7,0.8,0,0.7,0.8,0",""
"","html-keyboard-response","45","56558","0.0-45.0","3K4J6M3CXFF4Q8QE4JQEZQO4FHKGAJ","A2H3CV7SIVYREN","3FW4EL5A3LANKRP91N782LFHPY722Q","","null","<img src=""img/animal4.png"" style=""width:200px; border:14px solid green;"">","null","","","","","",""
"","image-keyboard-response","46","57111","0.0-46.0","3K4J6M3CXFF4Q8QE4JQEZQO4FHKGAJ","A2H3CV7SIVYREN","3FW4EL5A3LANKRP91N782LFHPY722Q","","552","img/animal3.png","75","553","2","1","2","0.7,0,0.8,0.7,0.8,0,0.7,0.8,0",""
"","html-keyboard-response","47","57413","0.0-47.0","3K4J6M3CXFF4Q8QE4JQEZQO4FHKGAJ","A2H3CV7SIVYREN","3FW4EL5A3LANKRP91N782LFHPY722Q","","null","<img src=""img/animal3.png"" style=""width:200px; border:14px solid green;"">","null","","","","","",""
"","image-keyboard-response","48","57721","0.0-48.0","3K4J6M3CXFF4Q8QE4JQEZQO4FHKGAJ","A2H3CV7SIVYREN","3FW4EL5A3LANKRP91N782LFHPY722Q","","306","img/animal4.png","76","307","3","0","3","0.7,0,0.8,0.7,0.8,0,0.7,0.8,0",""
"","html-keyboard-response","49","58023","0.0-49.0","3K4J6M3CXFF4Q8QE4JQEZQO4FHKGAJ","A2H3CV7SIVYREN","3FW4EL5A3LANKRP91N782LFHPY722Q","","null","<img src=""img/animal4.png"" style=""width:200px;border:14px solid red;"">","null","","","","","",""
"","image-keyboard-response","50","58401","0.0-50.0","3K4J6M3CXFF4Q8QE4JQEZQO4FHKGAJ","A2H3CV7SIVYREN","3FW4EL5A3LANKRP91N782LFHPY722Q","","376","img/animal1.png","75","378","2","0","1","0.7,0,0.8,0.7,0.8,0,0.7,0.8,0",""
"","html-keyboard-response","51","58707","0.0-51.0","3K4J6M3CXFF4Q8QE4JQEZQO4FHKGAJ","A2H3CV7SIVYREN","3FW4EL5A3LANKRP91N782LFHPY722Q","","null","<img src=""img/animal1.png"" style=""width:200px;border:14px solid red;"">","null","","","","","",""
"","image-keyboard-response","52","59100","0.0-52.0","3K4J6M3CXFF4Q8QE4JQEZQO4FHKGAJ","A2H3CV7SIVYREN","3FW4EL5A3LANKRP91N782LFHPY722Q","","391","img/animal4.png","74","393","1","0","3","0.7,0,0.8,0.7,0.8,0,0.7,0.8,0",""
"","html-keyboard-response","53","59401","0.0-53.0","3K4J6M3CXFF4Q8QE4JQEZQO4FHKGAJ","A2H3CV7SIVYREN","3FW4EL5A3LANKRP91N782LFHPY722Q","","null","<img src=""img/animal4.png"" style=""width:200px;border:14px solid red;"">","null","","","","","",""
"","image-keyboard-response","54","59868","0.0-54.0","3K4J6M3CXFF4Q8QE4JQEZQO4FHKGAJ","A2H3CV7SIVYREN","3FW4EL5A3LANKRP91N782LFHPY722Q","","465","img/animal1.png","75","467","2","0","1","0.7,0,0.8,0.7,0.8,0,0.7,0.8,0",""
"","html-keyboard-response","55","60175","0.0-55.0","3K4J6M3CXFF4Q8QE4JQEZQO4FHKGAJ","A2H3CV7SIVYREN","3FW4EL5A3LANKRP91N782LFHPY722Q","","null","<img src=""img/animal1.png"" style=""width:200px;border:14px solid red;"">","null","","","","","",""
"","image-keyboard-response","56","60530","0.0-56.0","3K4J6M3CXFF4Q8QE4JQEZQO4FHKGAJ","A2H3CV7SIVYREN","3FW4EL5A3LANKRP91N782LFHPY722Q","","354","img/animal3.png","76","355","3","0","2","0.7,0,0.8,0.7,0.8,0,0.7,0.8,0",""
"","html-keyboard-response","57","60835","0.0-57.0","3K4J6M3CXFF4Q8QE4JQEZQO4FHKGAJ","A2H3CV7SIVYREN","3FW4EL5A3LANKRP91N782LFHPY722Q","","null","<img src=""img/animal3.png"" style=""width:200px;border:14px solid red;"">","null","","","","","",""
"","image-keyboard-response","58","61214","0.0-58.0","3K4J6M3CXFF4Q8QE4JQEZQO4FHKGAJ","A2H3CV7SIVYREN","3FW4EL5A3LANKRP91N782LFHPY722Q","","376","img/animal1.png","76","376","3","1","1","0.7,0,0.8,0.7,0.8,0,0.7,0.8,0",""
"","html-keyboard-response","59","61516","0.0-59.0","3K4J6M3CXFF4Q8QE4JQEZQO4FHKGAJ","A2H3CV7SIVYREN","3FW4EL5A3LANKRP91N782LFHPY722Q","","null","<img src=""img/animal1.png"" style=""width:200px; border:14px solid green;"">","null","","","","","",""
"","image-keyboard-response","60","61930","0.0-60.0","3K4J6M3CXFF4Q8QE4JQEZQO4FHKGAJ","A2H3CV7SIVYREN","3FW4EL5A3LANKRP91N782LFHPY722Q","","412","img/animal4.png","75","414","2","0","3","0.7,0,0.8,0.7,0.8,0,0.7,0.8,0",""
"","html-keyboard-response","61","62231","0.0-61.0","3K4J6M3CXFF4Q8QE4JQEZQO4FHKGAJ","A2H3CV7SIVYREN","3FW4EL5A3LANKRP91N782LFHPY722Q","","null","<img src=""img/animal4.png"" style=""width:200px;border:14px solid red;"">","null","","","","","",""
"","image-keyboard-response","62","62699","0.0-62.0","3K4J6M3CXFF4Q8QE4JQEZQO4FHKGAJ","A2H3CV7SIVYREN","3FW4EL5A3LANKRP91N782LFHPY722Q","","468","img/animal1.png","74","468","1","1","1","0.7,0,0.8,0.7,0.8,0,0.7,0.8,0",""
"","html-keyboard-response","63","63051","0.0-63.0","3K4J6M3CXFF4Q8QE4JQEZQO4FHKGAJ","A2H3CV7SIVYREN","3FW4EL5A3LANKRP91N782LFHPY722Q","","null","<img src=""img/animal1.png"" style=""width:200px; border:14px solid green;"">","null","","","","","",""
"","image-keyboard-response","64","63245","0.0-64.0","3K4J6M3CXFF4Q8QE4JQEZQO4FHKGAJ","A2H3CV7SIVYREN","3FW4EL5A3LANKRP91N782LFHPY722Q","","192","img/animal3.png","75","194","2","1","2","0.7,0,0.8,0.7,0.8,0,0.7,0.8,0",""
"","html-keyboard-response","65","63549","0.0-65.0","3K4J6M3CXFF4Q8QE4JQEZQO4FHKGAJ","A2H3CV7SIVYREN","3FW4EL5A3LANKRP91N782LFHPY722Q","","null","<img src=""img/animal3.png"" style=""width:200px; border:14px solid green;"">","null","","","","","",""
"","image-keyboard-response","66","63895","0.0-66.0","3K4J6M3CXFF4Q8QE4JQEZQO4FHKGAJ","A2H3CV7SIVYREN","3FW4EL5A3LANKRP91N782LFHPY722Q","","345","img/animal4.png","74","346","1","0","3","0.7,0,0.8,0.7,0.8,0,0.7,0.8,0",""
"","html-keyboard-response","67","64198","0.0-67.0","3K4J6M3CXFF4Q8QE4JQEZQO4FHKGAJ","A2H3CV7SIVYREN","3FW4EL5A3LANKRP91N782LFHPY722Q","","null","<img src=""img/animal4.png"" style=""width:200px;border:14px solid red;"">","null","","","","","",""
"","image-keyboard-response","68","64528","0.0-68.0","3K4J6M3CXFF4Q8QE4JQEZQO4FHKGAJ","A2H3CV7SIVYREN","3FW4EL5A3LANKRP91N782LFHPY722Q","","329","img/animal1.png","75","329","2","0","1","0.7,0,0.8,0.7,0.8,0,0.7,0.8,0",""
"","html-keyboard-response","69","64834","0.0-69.0","3K4J6M3CXFF4Q8QE4JQEZQO4FHKGAJ","A2H3CV7SIVYREN","3FW4EL5A3LANKRP91N782LFHPY722Q","","null","<img src=""img/animal1.png"" style=""width:200px;border:14px solid red;"">","null","","","","","",""
"","image-keyboard-response","70","65203","0.0-70.0","3K4J6M3CXFF4Q8QE4JQEZQO4FHKGAJ","A2H3CV7SIVYREN","3FW4EL5A3LANKRP91N782LFHPY722Q","","368","img/animal3.png","76","369","3","0","2","0.7,0,0.8,0.7,0.8,0,0.7,0.8,0",""
"","html-keyboard-response","71","65506","0.0-71.0","3K4J6M3CXFF4Q8QE4JQEZQO4FHKGAJ","A2H3CV7SIVYREN","3FW4EL5A3LANKRP91N782LFHPY722Q","","null","<img src=""img/animal3.png"" style=""width:200px;border:14px solid red;"">","null","","","","","",""
"","image-keyboard-response","72","65986","0.0-72.0","3K4J6M3CXFF4Q8QE4JQEZQO4FHKGAJ","A2H3CV7SIVYREN","3FW4EL5A3LANKRP91N782LFHPY722Q","","479","img/animal1.png","75","480","2","0","1","0.7,0,0.8,0.7,0.8,0,0.7,0.8,0",""
"","html-keyboard-response","73","66293","0.0-73.0","3K4J6M3CXFF4Q8QE4JQEZQO4FHKGAJ","A2H3CV7SIVYREN","3FW4EL5A3LANKRP91N782LFHPY722Q","","null","<img src=""img/animal1.png"" style=""width:200px;border:14px solid red;"">","null","","","","","",""
"","image-keyboard-response","74","66723","0.0-74.0","3K4J6M3CXFF4Q8QE4JQEZQO4FHKGAJ","A2H3CV7SIVYREN","3FW4EL5A3LANKRP91N782LFHPY722Q","","428","img/animal1.png","75","430","2","0","1","0.7,0,0.8,0.7,0.8,0,0.7,0.8,0",""
"","html-keyboard-response","75","67026","0.0-75.0","3K4J6M3CXFF4Q8QE4JQEZQO4FHKGAJ","A2H3CV7SIVYREN","3FW4EL5A3LANKRP91N782LFHPY722Q","","null","<img src=""img/animal1.png"" style=""width:200px;border:14px solid red;"">","null","","","","","",""
"","image-keyboard-response","76","67214","0.0-76.0","3K4J6M3CXFF4Q8QE4JQEZQO4FHKGAJ","A2H3CV7SIVYREN","3FW4EL5A3LANKRP91N782LFHPY722Q","","186","img/animal3.png","74","188","1","1","2","0.7,0,0.8,0.7,0.8,0,0.7,0.8,0",""
"","html-keyboard-response","77","67519","0.0-77.0","3K4J6M3CXFF4Q8QE4JQEZQO4FHKGAJ","A2H3CV7SIVYREN","3FW4EL5A3LANKRP91N782LFHPY722Q","","null","<img src=""img/animal3.png"" style=""width:200px; border:14px solid green;"">","null","","","","","",""
"","image-keyboard-response","78","67791","0.0-78.0","3K4J6M3CXFF4Q8QE4JQEZQO4FHKGAJ","A2H3CV7SIVYREN","3FW4EL5A3LANKRP91N782LFHPY722Q","","271","img/animal4.png","75","272","2","1","3","0.7,0,0.8,0.7,0.8,0,0.7,0.8,0",""
"","html-keyboard-response","79","68095","0.0-79.0","3K4J6M3CXFF4Q8QE4JQEZQO4FHKGAJ","A2H3CV7SIVYREN","3FW4EL5A3LANKRP91N782LFHPY722Q","","null","<img src=""img/animal4.png"" style=""width:200px; border:14px solid green;"">","null","","","","","",""
"","image-keyboard-response","80","68466","0.0-80.0","3K4J6M3CXFF4Q8QE4JQEZQO4FHKGAJ","A2H3CV7SIVYREN","3FW4EL5A3LANKRP91N782LFHPY722Q","","370","img/animal4.png","75","371","2","1","3","0.7,0,0.8,0.7,0.8,0,0.7,0.8,0",""
"","html-keyboard-response","81","68804","0.0-81.0","3K4J6M3CXFF4Q8QE4JQEZQO4FHKGAJ","A2H3CV7SIVYREN","3FW4EL5A3LANKRP91N782LFHPY722Q","","null","<img src=""img/animal4.png"" style=""width:200px; border:14px solid green;"">","null","","","","","",""
"","image-keyboard-response","82","69219","0.0-82.0","3K4J6M3CXFF4Q8QE4JQEZQO4FHKGAJ","A2H3CV7SIVYREN","3FW4EL5A3LANKRP91N782LFHPY722Q","","414","img/animal3.png","75","415","2","0","2","0.7,0,0.8,0.7,0.8,0,0.7,0.8,0",""
"","html-keyboard-response","83","69526","0.0-83.0","3K4J6M3CXFF4Q8QE4JQEZQO4FHKGAJ","A2H3CV7SIVYREN","3FW4EL5A3LANKRP91N782LFHPY722Q","","null","<img src=""img/animal3.png"" style=""width:200px;border:14px solid red;"">","null","","","","","",""
"","image-keyboard-response","84","69642","0.0-84.0","3K4J6M3CXFF4Q8QE4JQEZQO4FHKGAJ","A2H3CV7SIVYREN","3FW4EL5A3LANKRP91N782LFHPY722Q","","116","img/animal3.png","75","117","2","1","2","0.7,0,0.8,0.7,0.8,0,0.7,0.8,0",""
"","html-keyboard-response","85","69953","0.0-85.0","3K4J6M3CXFF4Q8QE4JQEZQO4FHKGAJ","A2H3CV7SIVYREN","3FW4EL5A3LANKRP91N782LFHPY722Q","","null","<img src=""img/animal3.png"" style=""width:200px; border:14px solid green;"">","null","","","","","",""
"","image-keyboard-response","86","70282","0.0-86.0","3K4J6M3CXFF4Q8QE4JQEZQO4FHKGAJ","A2H3CV7SIVYREN","3FW4EL5A3LANKRP91N782LFHPY722Q","","328","img/animal3.png","75","328","2","1","2","0.7,0,0.8,0.7,0.8,0,0.7,0.8,0",""
"","html-keyboard-response","87","70590","0.0-87.0","3K4J6M3CXFF4Q8QE4JQEZQO4FHKGAJ","A2H3CV7SIVYREN","3FW4EL5A3LANKRP91N782LFHPY722Q","","null","<img src=""img/animal3.png"" style=""width:200px; border:14px solid green;"">","null","","","","","",""
"","image-keyboard-response","88","70835","0.0-88.0","3K4J6M3CXFF4Q8QE4JQEZQO4FHKGAJ","A2H3CV7SIVYREN","3FW4EL5A3LANKRP91N782LFHPY722Q","","242","img/animal3.png","75","245","2","1","2","0.7,0,0.8,0.7,0.8,0,0.7,0.8,0",""
"","html-keyboard-response","89","71141","0.0-89.0","3K4J6M3CXFF4Q8QE4JQEZQO4FHKGAJ","A2H3CV7SIVYREN","3FW4EL5A3LANKRP91N782LFHPY722Q","","null","<img src=""img/animal3.png"" style=""width:200px; border:14px solid green;"">","null","","","","","",""
"","image-keyboard-response","90","71450","0.0-90.0","3K4J6M3CXFF4Q8QE4JQEZQO4FHKGAJ","A2H3CV7SIVYREN","3FW4EL5A3LANKRP91N782LFHPY722Q","","308","img/animal3.png","75","309","2","1","2","0.7,0,0.8,0.7,0.8,0,0.7,0.8,0",""
"","html-keyboard-response","91","71774","0.0-91.0","3K4J6M3CXFF4Q8QE4JQEZQO4FHKGAJ","A2H3CV7SIVYREN","3FW4EL5A3LANKRP91N782LFHPY722Q","","null","<img src=""img/animal3.png"" style=""width:200px; border:14px solid green;"">","null","","","","","",""
"","image-keyboard-response","92","72004","0.0-92.0","3K4J6M3CXFF4Q8QE4JQEZQO4FHKGAJ","A2H3CV7SIVYREN","3FW4EL5A3LANKRP91N782LFHPY722Q","","229","img/animal3.png","75","230","2","1","2","0.7,0,0.8,0.7,0.8,0,0.7,0.8,0",""
"","html-keyboard-response","93","72310","0.0-93.0","3K4J6M3CXFF4Q8QE4JQEZQO4FHKGAJ","A2H3CV7SIVYREN","3FW4EL5A3LANKRP91N782LFHPY722Q","","null","<img src=""img/animal3.png"" style=""width:200px; border:14px solid green;"">","null","","","","","",""
"","image-keyboard-response","94","72498","0.0-94.0","3K4J6M3CXFF4Q8QE4JQEZQO4FHKGAJ","A2H3CV7SIVYREN","3FW4EL5A3LANKRP91N782LFHPY722Q","","187","img/animal4.png","75","188","2","1","3","0.7,0,0.8,0.7,0.8,0,0.7,0.8,0",""
"","html-keyboard-response","95","72804","0.0-95.0","3K4J6M3CXFF4Q8QE4JQEZQO4FHKGAJ","A2H3CV7SIVYREN","3FW4EL5A3LANKRP91N782LFHPY722Q","","null","<img src=""img/animal4.png"" style=""width:200px; border:14px solid green;"">","null","","","","","",""
"","image-keyboard-response","96","72910","0.0-96.0","3K4J6M3CXFF4Q8QE4JQEZQO4FHKGAJ","A2H3CV7SIVYREN","3FW4EL5A3LANKRP91N782LFHPY722Q","","106","img/animal3.png","75","106","2","1","2","0.7,0,0.8,0.7,0.8,0,0.7,0.8,0",""
"","html-keyboard-response","97","73216","0.0-97.0","3K4J6M3CXFF4Q8QE4JQEZQO4FHKGAJ","A2H3CV7SIVYREN","3FW4EL5A3LANKRP91N782LFHPY722Q","","null","<img src=""img/animal3.png"" style=""width:200px; border:14px solid green;"">","null","","","","","",""
"","image-keyboard-response","98","73525","0.0-98.0","3K4J6M3CXFF4Q8QE4JQEZQO4FHKGAJ","A2H3CV7SIVYREN","3FW4EL5A3LANKRP91N782LFHPY722Q","","307","img/animal3.png","75","309","2","1","2","0.7,0,0.8,0.7,0.8,0,0.7,0.8,0",""
"","html-keyboard-response","99","73826","0.0-99.0","3K4J6M3CXFF4Q8QE4JQEZQO4FHKGAJ","A2H3CV7SIVYREN","3FW4EL5A3LANKRP91N782LFHPY722Q","","null","<img src=""img/animal3.png"" style=""width:200px; border:14px solid green;"">","null","","","","","",""
"","image-keyboard-response","100","73964","0.0-100.0","3K4J6M3CXFF4Q8QE4JQEZQO4FHKGAJ","A2H3CV7SIVYREN","3FW4EL5A3LANKRP91N782LFHPY722Q","","137","img/animal4.png","75","138","2","1","3","0.7,0,0.8,0.7,0.8,0,0.7,0.8,0",""
"","html-keyboard-response","101","74270","0.0-101.0","3K4J6M3CXFF4Q8QE4JQEZQO4FHKGAJ","A2H3CV7SIVYREN","3FW4EL5A3LANKRP91N782LFHPY722Q","","null","<img src=""img/animal4.png"" style=""width:200px; border:14px solid green;"">","null","","","","","",""
"","image-keyboard-response","102","74537","0.0-102.0","3K4J6M3CXFF4Q8QE4JQEZQO4FHKGAJ","A2H3CV7SIVYREN","3FW4EL5A3LANKRP91N782LFHPY722Q","","266","img/animal1.png","75","267","2","0","1","0.7,0,0.8,0.7,0.8,0,0.7,0.8,0",""
"","html-keyboard-response","103","74894","0.0-103.0","3K4J6M3CXFF4Q8QE4JQEZQO4FHKGAJ","A2H3CV7SIVYREN","3FW4EL5A3LANKRP91N782LFHPY722Q","","null","<img src=""img/animal1.png"" style=""width:200px;border:14px solid red;"">","null","","","","","",""
"","image-keyboard-response","104","75055","0.0-104.0","3K4J6M3CXFF4Q8QE4JQEZQO4FHKGAJ","A2H3CV7SIVYREN","3FW4EL5A3LANKRP91N782LFHPY722Q","","160","img/animal3.png","75","161","2","0","2","0.7,0,0.8,0.7,0.8,0,0.7,0.8,0",""
"","html-keyboard-response","105","75362","0.0-105.0","3K4J6M3CXFF4Q8QE4JQEZQO4FHKGAJ","A2H3CV7SIVYREN","3FW4EL5A3LANKRP91N782LFHPY722Q","","null","<img src=""img/animal3.png"" style=""width:200px;border:14px solid red;"">","null","","","","","",""
"","image-keyboard-response","106","75465","0.0-106.0","3K4J6M3CXFF4Q8QE4JQEZQO4FHKGAJ","A2H3CV7SIVYREN","3FW4EL5A3LANKRP91N782LFHPY722Q","","102","img/animal3.png","75","104","2","1","2","0.7,0,0.8,0.7,0.8,0,0.7,0.8,0",""
"","html-keyboard-response","107","75796","0.0-107.0","3K4J6M3CXFF4Q8QE4JQEZQO4FHKGAJ","A2H3CV7SIVYREN","3FW4EL5A3LANKRP91N782LFHPY722Q","","null","<img src=""img/animal3.png"" style=""width:200px; border:14px solid green;"">","null","","","","","",""
"","image-keyboard-response","108","75913","0.0-108.0","3K4J6M3CXFF4Q8QE4JQEZQO4FHKGAJ","A2H3CV7SIVYREN","3FW4EL5A3LANKRP91N782LFHPY722Q","","116","img/animal3.png","75","117","2","0","2","0.7,0,0.8,0.7,0.8,0,0.7,0.8,0",""
"","html-keyboard-response","109","76219","0.0-109.0","3K4J6M3CXFF4Q8QE4JQEZQO4FHKGAJ","A2H3CV7SIVYREN","3FW4EL5A3LANKRP91N782LFHPY722Q","","null","<img src=""img/animal3.png"" style=""width:200px;border:14px solid red;"">","null","","","","","",""
"","image-keyboard-response","110","76347","0.0-110.0","3K4J6M3CXFF4Q8QE4JQEZQO4FHKGAJ","A2H3CV7SIVYREN","3FW4EL5A3LANKRP91N782LFHPY722Q","","125","img/animal4.png","75","127","2","1","3","0.7,0,0.8,0.7,0.8,0,0.7,0.8,0",""
"","html-keyboard-response","111","76656","0.0-111.0","3K4J6M3CXFF4Q8QE4JQEZQO4FHKGAJ","A2H3CV7SIVYREN","3FW4EL5A3LANKRP91N782LFHPY722Q","","null","<img src=""img/animal4.png"" style=""width:200px; border:14px solid green;"">","null","","","","","",""
"","image-keyboard-response","112","76778","0.0-112.0","3K4J6M3CXFF4Q8QE4JQEZQO4FHKGAJ","A2H3CV7SIVYREN","3FW4EL5A3LANKRP91N782LFHPY722Q","","121","img/animal1.png","75","122","2","0","1","0.7,0,0.8,0.7,0.8,0,0.7,0.8,0",""
"","html-keyboard-response","113","77081","0.0-113.0","3K4J6M3CXFF4Q8QE4JQEZQO4FHKGAJ","A2H3CV7SIVYREN","3FW4EL5A3LANKRP91N782LFHPY722Q","","null","<img src=""img/animal1.png"" style=""width:200px;border:14px solid red;"">","null","","","","","",""
"","image-keyboard-response","114","77175","0.0-114.0","3K4J6M3CXFF4Q8QE4JQEZQO4FHKGAJ","A2H3CV7SIVYREN","3FW4EL5A3LANKRP91N782LFHPY722Q","","94","img/animal3.png","75","94","2","1","2","0.7,0,0.8,0.7,0.8,0,0.7,0.8,0",""
"","html-keyboard-response","115","77477","0.0-115.0","3K4J6M3CXFF4Q8QE4JQEZQO4FHKGAJ","A2H3CV7SIVYREN","3FW4EL5A3LANKRP91N782LFHPY722Q","","null","<img src=""img/animal3.png"" style=""width:200px; border:14px solid green;"">","null","","","","","",""
"","image-keyboard-response","116","77564","0.0-116.0","3K4J6M3CXFF4Q8QE4JQEZQO4FHKGAJ","A2H3CV7SIVYREN","3FW4EL5A3LANKRP91N782LFHPY722Q","","85","img/animal1.png","75","87","2","0","1","0.7,0,0.8,0.7,0.8,0,0.7,0.8,0",""
"","html-keyboard-response","117","77869","0.0-117.0","3K4J6M3CXFF4Q8QE4JQEZQO4FHKGAJ","A2H3CV7SIVYREN","3FW4EL5A3LANKRP91N782LFHPY722Q","","null","<img src=""img/animal1.png"" style=""width:200px;border:14px solid red;"">","null","","","","","",""
"","image-keyboard-response","118","77998","0.0-118.0","3K4J6M3CXFF4Q8QE4JQEZQO4FHKGAJ","A2H3CV7SIVYREN","3FW4EL5A3LANKRP91N782LFHPY722Q","","128","img/animal1.png","74","129","1","1","1","0.7,0,0.8,0.7,0.8,0,0.7,0.8,0",""
"","html-keyboard-response","119","78304","0.0-119.0","3K4J6M3CXFF4Q8QE4JQEZQO4FHKGAJ","A2H3CV7SIVYREN","3FW4EL5A3LANKRP91N782LFHPY722Q","","null","<img src=""img/animal1.png"" style=""width:200px; border:14px solid green;"">","null","","","","","",""
"","image-keyboard-response","120","78422","0.0-120.0","3K4J6M3CXFF4Q8QE4JQEZQO4FHKGAJ","A2H3CV7SIVYREN","3FW4EL5A3LANKRP91N782LFHPY722Q","","116","img/animal1.png","75","118","2","0","1","0.7,0,0.8,0.7,0.8,0,0.7,0.8,0",""
"","html-keyboard-response","121","78775","0.0-121.0","3K4J6M3CXFF4Q8QE4JQEZQO4FHKGAJ","A2H3CV7SIVYREN","3FW4EL5A3LANKRP91N782LFHPY722Q","","null","<img src=""img/animal1.png"" style=""width:200px;border:14px solid red;"">","null","","","","","",""
"","image-keyboard-response","122","78804","0.0-122.0","3K4J6M3CXFF4Q8QE4JQEZQO4FHKGAJ","A2H3CV7SIVYREN","3FW4EL5A3LANKRP91N782LFHPY722Q","","27","img/animal4.png","74","29","1","1","3","0.7,0,0.8,0.7,0.8,0,0.7,0.8,0",""
"","html-keyboard-response","123","79105","0.0-123.0","3K4J6M3CXFF4Q8QE4JQEZQO4FHKGAJ","A2H3CV7SIVYREN","3FW4EL5A3LANKRP91N782LFHPY722Q","","null","<img src=""img/animal4.png"" style=""width:200px; border:14px solid green;"">","null","","","","","",""
"","image-keyboard-response","124","79146","0.0-124.0","3K4J6M3CXFF4Q8QE4JQEZQO4FHKGAJ","A2H3CV7SIVYREN","3FW4EL5A3LANKRP91N782LFHPY722Q","","40","img/animal4.png","75","41","2","1","3","0.7,0,0.8,0.7,0.8,0,0.7,0.8,0",""
"","html-keyboard-response","125","79458","0.0-125.0","3K4J6M3CXFF4Q8QE4JQEZQO4FHKGAJ","A2H3CV7SIVYREN","3FW4EL5A3LANKRP91N782LFHPY722Q","","null","<img src=""img/animal4.png"" style=""width:200px; border:14px solid green;"">","null","","","","","",""
"","image-keyboard-response","126","79484","0.0-126.0","3K4J6M3CXFF4Q8QE4JQEZQO4FHKGAJ","A2H3CV7SIVYREN","3FW4EL5A3LANKRP91N782LFHPY722Q","","25","img/animal1.png","74","26","1","1","1","0.7,0,0.8,0.7,0.8,0,0.7,0.8,0",""
"","html-keyboard-response","127","79810","0.0-127.0","3K4J6M3CXFF4Q8QE4JQEZQO4FHKGAJ","A2H3CV7SIVYREN","3FW4EL5A3LANKRP91N782LFHPY722Q","","null","<img src=""img/animal1.png"" style=""width:200px; border:14px solid green;"">","null","","","","","",""
"","image-keyboard-response","128","80423","0.0-128.0","3K4J6M3CXFF4Q8QE4JQEZQO4FHKGAJ","A2H3CV7SIVYREN","3FW4EL5A3LANKRP91N782LFHPY722Q","","610","img/animal1.png","75","612","2","0","1","0.7,0,0.8,0.7,0.8,0,0.7,0.8,0",""
"","html-keyboard-response","129","80739","0.0-129.0","3K4J6M3CXFF4Q8QE4JQEZQO4FHKGAJ","A2H3CV7SIVYREN","3FW4EL5A3LANKRP91N782LFHPY722Q","","null","<img src=""img/animal1.png"" style=""width:200px;border:14px solid red;"">","null","","","","","",""
"","image-keyboard-response","130","80767","0.0-130.0","3K4J6M3CXFF4Q8QE4JQEZQO4FHKGAJ","A2H3CV7SIVYREN","3FW4EL5A3LANKRP91N782LFHPY722Q","","26","img/animal3.png","74","27","1","1","2","0.7,0,0.8,0.7,0.8,0,0.7,0.8,0",""
"","html-keyboard-response","131","81067","0.0-131.0","3K4J6M3CXFF4Q8QE4JQEZQO4FHKGAJ","A2H3CV7SIVYREN","3FW4EL5A3LANKRP91N782LFHPY722Q","","null","<img src=""img/animal3.png"" style=""width:200px; border:14px solid green;"">","null","","","","","",""
"","image-keyboard-response","132","81485","0.0-132.0","3K4J6M3CXFF4Q8QE4JQEZQO4FHKGAJ","A2H3CV7SIVYREN","3FW4EL5A3LANKRP91N782LFHPY722Q","","412","img/animal4.png","76","414","3","0","3","0.7,0,0.8,0.7,0.8,0,0.7,0.8,0",""
"","html-keyboard-response","133","81793","0.0-133.0","3K4J6M3CXFF4Q8QE4JQEZQO4FHKGAJ","A2H3CV7SIVYREN","3FW4EL5A3LANKRP91N782LFHPY722Q","","null","<img src=""img/animal4.png"" style=""width:200px;border:14px solid red;"">","null","","","","","",""
"","image-keyboard-response","134","81965","0.0-134.0","3K4J6M3CXFF4Q8QE4JQEZQO4FHKGAJ","A2H3CV7SIVYREN","3FW4EL5A3LANKRP91N782LFHPY722Q","","172","img/animal3.png","76","172","3","0","2","0.7,0,0.8,0.7,0.8,0,0.7,0.8,0",""
"","html-keyboard-response","135","82267","0.0-135.0","3K4J6M3CXFF4Q8QE4JQEZQO4FHKGAJ","A2H3CV7SIVYREN","3FW4EL5A3LANKRP91N782LFHPY722Q","","null","<img src=""img/animal3.png"" style=""width:200px;border:14px solid red;"">","null","","","","","",""
"","image-keyboard-response","136","82458","0.0-136.0","3K4J6M3CXFF4Q8QE4JQEZQO4FHKGAJ","A2H3CV7SIVYREN","3FW4EL5A3LANKRP91N782LFHPY722Q","","190","img/animal4.png","76","190","3","0","3","0.7,0,0.8,0.7,0.8,0,0.7,0.8,0",""
"","html-keyboard-response","137","82815","0.0-137.0","3K4J6M3CXFF4Q8QE4JQEZQO4FHKGAJ","A2H3CV7SIVYREN","3FW4EL5A3LANKRP91N782LFHPY722Q","","null","<img src=""img/animal4.png"" style=""width:200px;border:14px solid red;"">","null","","","","","",""
"","image-keyboard-response","138","82892","0.0-138.0","3K4J6M3CXFF4Q8QE4JQEZQO4FHKGAJ","A2H3CV7SIVYREN","3FW4EL5A3LANKRP91N782LFHPY722Q","","76","img/animal4.png","76","76","3","0","3","0.7,0,0.8,0.7,0.8,0,0.7,0.8,0",""
"","html-keyboard-response","139","83203","0.0-139.0","3K4J6M3CXFF4Q8QE4JQEZQO4FHKGAJ","A2H3CV7SIVYREN","3FW4EL5A3LANKRP91N782LFHPY722Q","","null","<img src=""img/animal4.png"" style=""width:200px;border:14px solid red;"">","null","","","","","",""
"","image-keyboard-response","140","83372","0.0-140.0","3K4J6M3CXFF4Q8QE4JQEZQO4FHKGAJ","A2H3CV7SIVYREN","3FW4EL5A3LANKRP91N782LFHPY722Q","","169","img/animal3.png","76","169","3","0","2","0.7,0,0.8,0.7,0.8,0,0.7,0.8,0",""
"","html-keyboard-response","141","83678","0.0-141.0","3K4J6M3CXFF4Q8QE4JQEZQO4FHKGAJ","A2H3CV7SIVYREN","3FW4EL5A3LANKRP91N782LFHPY722Q","","null","<img src=""img/animal3.png"" style=""width:200px;border:14px solid red;"">","null","","","","","",""
"","image-keyboard-response","142","83785","0.0-142.0","3K4J6M3CXFF4Q8QE4JQEZQO4FHKGAJ","A2H3CV7SIVYREN","3FW4EL5A3LANKRP91N782LFHPY722Q","","106","img/animal3.png","75","107","2","1","2","0.7,0,0.8,0.7,0.8,0,0.7,0.8,0",""
"","html-keyboard-response","143","84089","0.0-143.0","3K4J6M3CXFF4Q8QE4JQEZQO4FHKGAJ","A2H3CV7SIVYREN","3FW4EL5A3LANKRP91N782LFHPY722Q","","null","<img src=""img/animal3.png"" style=""width:200px; border:14px solid green;"">","null","","","","","",""
"","image-keyboard-response","144","84270","0.0-144.0","3K4J6M3CXFF4Q8QE4JQEZQO4FHKGAJ","A2H3CV7SIVYREN","3FW4EL5A3LANKRP91N782LFHPY722Q","","181","img/animal4.png","75","181","2","0","3","0.7,0,0.8,0.7,0.8,0,0.7,0.8,0",""
"","html-keyboard-response","145","84574","0.0-145.0","3K4J6M3CXFF4Q8QE4JQEZQO4FHKGAJ","A2H3CV7SIVYREN","3FW4EL5A3LANKRP91N782LFHPY722Q","","null","<img src=""img/animal4.png"" style=""width:200px;border:14px solid red;"">","null","","","","","",""
"","image-keyboard-response","146","84632","0.0-146.0","3K4J6M3CXFF4Q8QE4JQEZQO4FHKGAJ","A2H3CV7SIVYREN","3FW4EL5A3LANKRP91N782LFHPY722Q","","58","img/animal1.png","75","58","2","0","1","0.7,0,0.8,0.7,0.8,0,0.7,0.8,0",""
"","html-keyboard-response","147","84947","0.0-147.0","3K4J6M3CXFF4Q8QE4JQEZQO4FHKGAJ","A2H3CV7SIVYREN","3FW4EL5A3LANKRP91N782LFHPY722Q","","null","<img src=""img/animal1.png"" style=""width:200px;border:14px solid red;"">","null","","","","","",""
"","image-keyboard-response","148","85050","0.0-148.0","3K4J6M3CXFF4Q8QE4JQEZQO4FHKGAJ","A2H3CV7SIVYREN","3FW4EL5A3LANKRP91N782LFHPY722Q","","103","img/animal4.png","75","103","2","1","3","0.7,0,0.8,0.7,0.8,0,0.7,0.8,0",""
"","html-keyboard-response","149","85351","0.0-149.0","3K4J6M3CXFF4Q8QE4JQEZQO4FHKGAJ","A2H3CV7SIVYREN","3FW4EL5A3LANKRP91N782LFHPY722Q","","null","<img src=""img/animal4.png"" style=""width:200px; border:14px solid green;"">","null","","","","","",""
"","image-keyboard-response","150","85455","0.0-150.0","3K4J6M3CXFF4Q8QE4JQEZQO4FHKGAJ","A2H3CV7SIVYREN","3FW4EL5A3LANKRP91N782LFHPY722Q","","100","img/animal3.png","75","104","2","0","2","0.7,0,0.8,0.7,0.8,0,0.7,0.8,0",""
"","html-keyboard-response","151","85765","0.0-151.0","3K4J6M3CXFF4Q8QE4JQEZQO4FHKGAJ","A2H3CV7SIVYREN","3FW4EL5A3LANKRP91N782LFHPY722Q","","null","<img src=""img/animal3.png"" style=""width:200px;border:14px solid red;"">","null","","","","","",""
"","image-keyboard-response","152","85821","0.0-152.0","3K4J6M3CXFF4Q8QE4JQEZQO4FHKGAJ","A2H3CV7SIVYREN","3FW4EL5A3LANKRP91N782LFHPY722Q","","55","img/animal3.png","75","56","2","1","2","0.7,0,0.8,0.7,0.8,0,0.7,0.8,0",""
"","html-keyboard-response","153","86123","0.0-153.0","3K4J6M3CXFF4Q8QE4JQEZQO4FHKGAJ","A2H3CV7SIVYREN","3FW4EL5A3LANKRP91N782LFHPY722Q","","null","<img src=""img/animal3.png"" style=""width:200px; border:14px solid green;"">","null","","","","","",""
"","image-keyboard-response","154","86281","0.0-154.0","3K4J6M3CXFF4Q8QE4JQEZQO4FHKGAJ","A2H3CV7SIVYREN","3FW4EL5A3LANKRP91N782LFHPY722Q","","157","img/animal1.png","75","158","2","0","1","0.7,0,0.8,0.7,0.8,0,0.7,0.8,0",""
"","html-keyboard-response","155","86585","0.0-155.0","3K4J6M3CXFF4Q8QE4JQEZQO4FHKGAJ","A2H3CV7SIVYREN","3FW4EL5A3LANKRP91N782LFHPY722Q","","null","<img src=""img/animal1.png"" style=""width:200px;border:14px solid red;"">","null","","","","","",""
"","image-keyboard-response","156","87149","0.0-156.0","3K4J6M3CXFF4Q8QE4JQEZQO4FHKGAJ","A2H3CV7SIVYREN","3FW4EL5A3LANKRP91N782LFHPY722Q","","564","img/animal4.png","75","564","2","1","3","0.7,0,0.8,0.7,0.8,0,0.7,0.8,0",""
"","html-keyboard-response","157","87452","0.0-157.0","3K4J6M3CXFF4Q8QE4JQEZQO4FHKGAJ","A2H3CV7SIVYREN","3FW4EL5A3LANKRP91N782LFHPY722Q","","null","<img src=""img/animal4.png"" style=""width:200px; border:14px solid green;"">","null","","","","","",""
"","image-keyboard-response","158","87773","0.0-158.0","3K4J6M3CXFF4Q8QE4JQEZQO4FHKGAJ","A2H3CV7SIVYREN","3FW4EL5A3LANKRP91N782LFHPY722Q","","320","img/animal3.png","74","321","1","0","2","0.7,0,0.8,0.7,0.8,0,0.7,0.8,0",""
"","html-keyboard-response","159","88078","0.0-159.0","3K4J6M3CXFF4Q8QE4JQEZQO4FHKGAJ","A2H3CV7SIVYREN","3FW4EL5A3LANKRP91N782LFHPY722Q","","null","<img src=""img/animal3.png"" style=""width:200px;border:14px solid red;"">","null","","","","","",""
"","image-keyboard-response","160","88271","0.0-160.0","3K4J6M3CXFF4Q8QE4JQEZQO4FHKGAJ","A2H3CV7SIVYREN","3FW4EL5A3LANKRP91N782LFHPY722Q","","192","img/animal3.png","74","192","1","1","2","0.7,0,0.8,0.7,0.8,0,0.7,0.8,0",""
"","html-keyboard-response","161","88573","0.0-161.0","3K4J6M3CXFF4Q8QE4JQEZQO4FHKGAJ","A2H3CV7SIVYREN","3FW4EL5A3LANKRP91N782LFHPY722Q","","null","<img src=""img/animal3.png"" style=""width:200px; border:14px solid green;"">","null","","","","","",""
"","image-keyboard-response","162","88967","0.0-162.0","3K4J6M3CXFF4Q8QE4JQEZQO4FHKGAJ","A2H3CV7SIVYREN","3FW4EL5A3LANKRP91N782LFHPY722Q","","392","img/animal4.png","75","394","2","0","3","0.7,0,0.8,0.7,0.8,0,0.7,0.8,0",""
"","html-keyboard-response","163","89269","0.0-163.0","3K4J6M3CXFF4Q8QE4JQEZQO4FHKGAJ","A2H3CV7SIVYREN","3FW4EL5A3LANKRP91N782LFHPY722Q","","null","<img src=""img/animal4.png"" style=""width:200px;border:14px solid red;"">","null","","","","","",""
"","image-keyboard-response","164","89355","0.0-164.0","3K4J6M3CXFF4Q8QE4JQEZQO4FHKGAJ","A2H3CV7SIVYREN","3FW4EL5A3LANKRP91N782LFHPY722Q","","85","img/animal4.png","74","87","1","1","3","0.7,0,0.8,0.7,0.8,0,0.7,0.8,0",""
"","html-keyboard-response","165","89666","0.0-165.0","3K4J6M3CXFF4Q8QE4JQEZQO4FHKGAJ","A2H3CV7SIVYREN","3FW4EL5A3LANKRP91N782LFHPY722Q","","null","<img src=""img/animal4.png"" style=""width:200px; border:14px solid green;"">","null","","","","","",""
"","image-keyboard-response","166","89982","0.0-166.0","3K4J6M3CXFF4Q8QE4JQEZQO4FHKGAJ","A2H3CV7SIVYREN","3FW4EL5A3LANKRP91N782LFHPY722Q","","314","img/animal3.png","75","316","2","1","2","0.7,0,0.8,0.7,0.8,0,0.7,0.8,0",""
"","html-keyboard-response","167","90283","0.0-167.0","3K4J6M3CXFF4Q8QE4JQEZQO4FHKGAJ","A2H3CV7SIVYREN","3FW4EL5A3LANKRP91N782LFHPY722Q","","null","<img src=""img/animal3.png"" style=""width:200px; border:14px solid green;"">","null","","","","","",""
"","image-keyboard-response","168","90645","0.0-168.0","3K4J6M3CXFF4Q8QE4JQEZQO4FHKGAJ","A2H3CV7SIVYREN","3FW4EL5A3LANKRP91N782LFHPY722Q","","362","img/animal1.png","74","362","1","1","1","0.7,0,0.8,0.7,0.8,0,0.7,0.8,0",""
"","html-keyboard-response","169","91057","0.0-169.0","3K4J6M3CXFF4Q8QE4JQEZQO4FHKGAJ","A2H3CV7SIVYREN","3FW4EL5A3LANKRP91N782LFHPY722Q","","null","<img src=""img/animal1.png"" style=""width:200px; border:14px solid green;"">","null","","","","","",""
"","image-keyboard-response","170","91103","0.0-170.0","3K4J6M3CXFF4Q8QE4JQEZQO4FHKGAJ","A2H3CV7SIVYREN","3FW4EL5A3LANKRP91N782LFHPY722Q","","44","img/animal4.png","75","46","2","1","3","0.7,0,0.8,0.7,0.8,0,0.7,0.8,0",""
"","html-keyboard-response","171","91405","0.0-171.0","3K4J6M3CXFF4Q8QE4JQEZQO4FHKGAJ","A2H3CV7SIVYREN","3FW4EL5A3LANKRP91N782LFHPY722Q","","null","<img src=""img/animal4.png"" style=""width:200px; border:14px solid green;"">","null","","","","","",""
"","image-keyboard-response","172","91592","0.0-172.0","3K4J6M3CXFF4Q8QE4JQEZQO4FHKGAJ","A2H3CV7SIVYREN","3FW4EL5A3LANKRP91N782LFHPY722Q","","187","img/animal1.png","74","187","1","1","1","0.7,0,0.8,0.7,0.8,0,0.7,0.8,0",""
"","html-keyboard-response","173","91897","0.0-173.0","3K4J6M3CXFF4Q8QE4JQEZQO4FHKGAJ","A2H3CV7SIVYREN","3FW4EL5A3LANKRP91N782LFHPY722Q","","null","<img src=""img/animal1.png"" style=""width:200px; border:14px solid green;"">","null","","","","","",""
"","image-keyboard-response","174","92005","0.0-174.0","3K4J6M3CXFF4Q8QE4JQEZQO4FHKGAJ","A2H3CV7SIVYREN","3FW4EL5A3LANKRP91N782LFHPY722Q","","107","img/animal3.png","75","108","2","1","2","0.7,0,0.8,0.7,0.8,0,0.7,0.8,0",""
"","html-keyboard-response","175","92311","0.0-175.0","3K4J6M3CXFF4Q8QE4JQEZQO4FHKGAJ","A2H3CV7SIVYREN","3FW4EL5A3LANKRP91N782LFHPY722Q","","null","<img src=""img/animal3.png"" style=""width:200px; border:14px solid green;"">","null","","","","","",""
"","image-keyboard-response","176","92436","0.0-176.0","3K4J6M3CXFF4Q8QE4JQEZQO4FHKGAJ","A2H3CV7SIVYREN","3FW4EL5A3LANKRP91N782LFHPY722Q","","123","img/animal1.png","74","125","1","0","1","0.7,0,0.8,0.7,0.8,0,0.7,0.8,0",""
"","html-keyboard-response","177","92740","0.0-177.0","3K4J6M3CXFF4Q8QE4JQEZQO4FHKGAJ","A2H3CV7SIVYREN","3FW4EL5A3LANKRP91N782LFHPY722Q","","null","<img src=""img/animal1.png"" style=""width:200px;border:14px solid red;"">","null","","","","","",""
"","image-keyboard-response","178","92917","0.0-178.0","3K4J6M3CXFF4Q8QE4JQEZQO4FHKGAJ","A2H3CV7SIVYREN","3FW4EL5A3LANKRP91N782LFHPY722Q","","176","img/animal4.png","75","177","2","1","3","0.7,0,0.8,0.7,0.8,0,0.7,0.8,0",""
"","html-keyboard-response","179","93221","0.0-179.0","3K4J6M3CXFF4Q8QE4JQEZQO4FHKGAJ","A2H3CV7SIVYREN","3FW4EL5A3LANKRP91N782LFHPY722Q","","null","<img src=""img/animal4.png"" style=""width:200px; border:14px solid green;"">","null","","","","","",""
"","image-keyboard-response","180","93336","0.0-180.0","3K4J6M3CXFF4Q8QE4JQEZQO4FHKGAJ","A2H3CV7SIVYREN","3FW4EL5A3LANKRP91N782LFHPY722Q","","114","img/animal4.png","74","115","1","0","3","0.7,0,0.8,0.7,0.8,0,0.7,0.8,0",""
"","html-keyboard-response","181","93643","0.0-181.0","3K4J6M3CXFF4Q8QE4JQEZQO4FHKGAJ","A2H3CV7SIVYREN","3FW4EL5A3LANKRP91N782LFHPY722Q","","null","<img src=""img/animal4.png"" style=""width:200px;border:14px solid red;"">","null","","","","","",""
"","html-keyboard-response","182","97173","0.0-182.0","3K4J6M3CXFF4Q8QE4JQEZQO4FHKGAJ","A2H3CV7SIVYREN","3FW4EL5A3LANKRP91N782LFHPY722Q","","","","","","","","","",""
"","image-keyboard-response","183","99997","0.0-183.0","3K4J6M3CXFF4Q8QE4JQEZQO4FHKGAJ","A2H3CV7SIVYREN","3FW4EL5A3LANKRP91N782LFHPY722Q","","2822","img/animal2.png","74","2823","1","1","2","0.5,0,1,1,0.5,0,0,1,0.5",""
"","html-keyboard-response","184","100298","0.0-184.0","3K4J6M3CXFF4Q8QE4JQEZQO4FHKGAJ","A2H3CV7SIVYREN","3FW4EL5A3LANKRP91N782LFHPY722Q","","null","<img src=""img/animal2.png"" style=""width:200px; border:14px solid green;"">","null","","","","","",""
"","image-keyboard-response","185","100361","0.0-185.0","3K4J6M3CXFF4Q8QE4JQEZQO4FHKGAJ","A2H3CV7SIVYREN","3FW4EL5A3LANKRP91N782LFHPY722Q","","62","img/animal2.png","75","64","2","1","2","0.5,0,1,1,0.5,0,0,1,0.5",""
"","html-keyboard-response","186","100662","0.0-186.0","3K4J6M3CXFF4Q8QE4JQEZQO4FHKGAJ","A2H3CV7SIVYREN","3FW4EL5A3LANKRP91N782LFHPY722Q","","null","<img src=""img/animal2.png"" style=""width:200px; border:14px solid green;"">","null","","","","","",""
"","image-keyboard-response","187","100706","0.0-187.0","3K4J6M3CXFF4Q8QE4JQEZQO4FHKGAJ","A2H3CV7SIVYREN","3FW4EL5A3LANKRP91N782LFHPY722Q","","43","img/animal2.png","76","44","3","0","2","0.5,0,1,1,0.5,0,0,1,0.5",""
"","html-keyboard-response","188","101011","0.0-188.0","3K4J6M3CXFF4Q8QE4JQEZQO4FHKGAJ","A2H3CV7SIVYREN","3FW4EL5A3LANKRP91N782LFHPY722Q","","null","<img src=""img/animal2.png"" style=""width:200px;border:14px solid red;"">","null","","","","","",""
"","image-keyboard-response","189","101446","0.0-189.0","3K4J6M3CXFF4Q8QE4JQEZQO4FHKGAJ","A2H3CV7SIVYREN","3FW4EL5A3LANKRP91N782LFHPY722Q","","434","img/animal5.png","75","434","2","1","3","0.5,0,1,1,0.5,0,0,1,0.5",""
"","html-keyboard-response","190","101749","0.0-190.0","3K4J6M3CXFF4Q8QE4JQEZQO4FHKGAJ","A2H3CV7SIVYREN","3FW4EL5A3LANKRP91N782LFHPY722Q","","null","<img src=""img/animal5.png"" style=""width:200px; border:14px solid green;"">","null","","","","","",""
"","image-keyboard-response","191","101948","0.0-191.0","3K4J6M3CXFF4Q8QE4JQEZQO4FHKGAJ","A2H3CV7SIVYREN","3FW4EL5A3LANKRP91N782LFHPY722Q","","198","img/animal5.png","74","198","1","0","3","0.5,0,1,1,0.5,0,0,1,0.5",""
"","html-keyboard-response","192","102254","0.0-192.0","3K4J6M3CXFF4Q8QE4JQEZQO4FHKGAJ","A2H3CV7SIVYREN","3FW4EL5A3LANKRP91N782LFHPY722Q","","null","<img src=""img/animal5.png"" style=""width:200px;border:14px solid red;"">","null","","","","","",""
"","image-keyboard-response","193","102472","0.0-193.0","3K4J6M3CXFF4Q8QE4JQEZQO4FHKGAJ","A2H3CV7SIVYREN","3FW4EL5A3LANKRP91N782LFHPY722Q","","217","img/animal6.png","74","218","1","1","1","0.5,0,1,1,0.5,0,0,1,0.5",""
"","html-keyboard-response","194","102817","0.0-194.0","3K4J6M3CXFF4Q8QE4JQEZQO4FHKGAJ","A2H3CV7SIVYREN","3FW4EL5A3LANKRP91N782LFHPY722Q","","null","<img src=""img/animal6.png"" style=""width:200px; border:14px solid green;"">","null","","","","","",""
"","image-keyboard-response","195","102979","0.0-195.0","3K4J6M3CXFF4Q8QE4JQEZQO4FHKGAJ","A2H3CV7SIVYREN","3FW4EL5A3LANKRP91N782LFHPY722Q","","160","img/animal2.png","75","162","2","1","2","0.5,0,1,1,0.5,0,0,1,0.5",""
"","html-keyboard-response","196","103283","0.0-196.0","3K4J6M3CXFF4Q8QE4JQEZQO4FHKGAJ","A2H3CV7SIVYREN","3FW4EL5A3LANKRP91N782LFHPY722Q","","null","<img src=""img/animal2.png"" style=""width:200px; border:14px solid green;"">","null","","","","","",""
"","image-keyboard-response","197","103435","0.0-197.0","3K4J6M3CXFF4Q8QE4JQEZQO4FHKGAJ","A2H3CV7SIVYREN","3FW4EL5A3LANKRP91N782LFHPY722Q","","151","img/animal5.png","75","152","2","1","3","0.5,0,1,1,0.5,0,0,1,0.5",""
"","html-keyboard-response","198","103747","0.0-198.0","3K4J6M3CXFF4Q8QE4JQEZQO4FHKGAJ","A2H3CV7SIVYREN","3FW4EL5A3LANKRP91N782LFHPY722Q","","null","<img src=""img/animal5.png"" style=""width:200px; border:14px solid green;"">","null","","","","","",""
"","image-keyboard-response","199","103860","0.0-199.0","3K4J6M3CXFF4Q8QE4JQEZQO4FHKGAJ","A2H3CV7SIVYREN","3FW4EL5A3LANKRP91N782LFHPY722Q","","112","img/animal6.png","74","113","1","0","1","0.5,0,1,1,0.5,0,0,1,0.5",""
"","html-keyboard-response","200","104165","0.0-200.0","3K4J6M3CXFF4Q8QE4JQEZQO4FHKGAJ","A2H3CV7SIVYREN","3FW4EL5A3LANKRP91N782LFHPY722Q","","null","<img src=""img/animal6.png"" style=""width:200px;border:14px solid red;"">","null","","","","","",""
"","image-keyboard-response","201","104332","0.0-201.0","3K4J6M3CXFF4Q8QE4JQEZQO4FHKGAJ","A2H3CV7SIVYREN","3FW4EL5A3LANKRP91N782LFHPY722Q","","165","img/animal6.png","75","166","2","0","1","0.5,0,1,1,0.5,0,0,1,0.5",""
"","html-keyboard-response","202","104634","0.0-202.0","3K4J6M3CXFF4Q8QE4JQEZQO4FHKGAJ","A2H3CV7SIVYREN","3FW4EL5A3LANKRP91N782LFHPY722Q","","null","<img src=""img/animal6.png"" style=""width:200px;border:14px solid red;"">","null","","","","","",""
"","image-keyboard-response","203","105048","0.0-203.0","3K4J6M3CXFF4Q8QE4JQEZQO4FHKGAJ","A2H3CV7SIVYREN","3FW4EL5A3LANKRP91N782LFHPY722Q","","413","img/animal6.png","75","413","2","0","1","0.5,0,1,1,0.5,0,0,1,0.5",""
"","html-keyboard-response","204","105353","0.0-204.0","3K4J6M3CXFF4Q8QE4JQEZQO4FHKGAJ","A2H3CV7SIVYREN","3FW4EL5A3LANKRP91N782LFHPY722Q","","null","<img src=""img/animal6.png"" style=""width:200px;border:14px solid red;"">","null","","","","","",""
"","image-keyboard-response","205","105473","0.0-205.0","3K4J6M3CXFF4Q8QE4JQEZQO4FHKGAJ","A2H3CV7SIVYREN","3FW4EL5A3LANKRP91N782LFHPY722Q","","118","img/animal6.png","74","120","1","1","1","0.5,0,1,1,0.5,0,0,1,0.5",""
"","html-keyboard-response","206","105774","0.0-206.0","3K4J6M3CXFF4Q8QE4JQEZQO4FHKGAJ","A2H3CV7SIVYREN","3FW4EL5A3LANKRP91N782LFHPY722Q","","null","<img src=""img/animal6.png"" style=""width:200px; border:14px solid green;"">","null","","","","","",""
"","image-keyboard-response","207","106278","0.0-207.0","3K4J6M3CXFF4Q8QE4JQEZQO4FHKGAJ","A2H3CV7SIVYREN","3FW4EL5A3LANKRP91N782LFHPY722Q","","504","img/animal6.png","75","504","2","0","1","0.5,0,1,1,0.5,0,0,1,0.5",""
"","html-keyboard-response","208","106584","0.0-208.0","3K4J6M3CXFF4Q8QE4JQEZQO4FHKGAJ","A2H3CV7SIVYREN","3FW4EL5A3LANKRP91N782LFHPY722Q","","null","<img src=""img/animal6.png"" style=""width:200px;border:14px solid red;"">","null","","","","","",""
"","image-keyboard-response","209","106807","0.0-209.0","3K4J6M3CXFF4Q8QE4JQEZQO4FHKGAJ","A2H3CV7SIVYREN","3FW4EL5A3LANKRP91N782LFHPY722Q","","220","img/animal2.png","75","223","2","1","2","0.5,0,1,1,0.5,0,0,1,0.5",""
"","html-keyboard-response","210","107114","0.0-210.0","3K4J6M3CXFF4Q8QE4JQEZQO4FHKGAJ","A2H3CV7SIVYREN","3FW4EL5A3LANKRP91N782LFHPY722Q","","null","<img src=""img/animal2.png"" style=""width:200px; border:14px solid green;"">","null","","","","","",""
"","image-keyboard-response","211","107245","0.0-211.0","3K4J6M3CXFF4Q8QE4JQEZQO4FHKGAJ","A2H3CV7SIVYREN","3FW4EL5A3LANKRP91N782LFHPY722Q","","130","img/animal2.png","75","131","2","1","2","0.5,0,1,1,0.5,0,0,1,0.5",""
"","html-keyboard-response","212","107549","0.0-212.0","3K4J6M3CXFF4Q8QE4JQEZQO4FHKGAJ","A2H3CV7SIVYREN","3FW4EL5A3LANKRP91N782LFHPY722Q","","null","<img src=""img/animal2.png"" style=""width:200px; border:14px solid green;"">","null","","","","","",""
"","image-keyboard-response","213","107749","0.0-213.0","3K4J6M3CXFF4Q8QE4JQEZQO4FHKGAJ","A2H3CV7SIVYREN","3FW4EL5A3LANKRP91N782LFHPY722Q","","199","img/animal5.png","75","200","2","1","3","0.5,0,1,1,0.5,0,0,1,0.5",""
"","html-keyboard-response","214","108054","0.0-214.0","3K4J6M3CXFF4Q8QE4JQEZQO4FHKGAJ","A2H3CV7SIVYREN","3FW4EL5A3LANKRP91N782LFHPY722Q","","null","<img src=""img/animal5.png"" style=""width:200px; border:14px solid green;"">","null","","","","","",""
"","image-keyboard-response","215","108613","0.0-215.0","3K4J6M3CXFF4Q8QE4JQEZQO4FHKGAJ","A2H3CV7SIVYREN","3FW4EL5A3LANKRP91N782LFHPY722Q","","557","img/animal2.png","74","558","1","1","2","0.5,0,1,1,0.5,0,0,1,0.5",""
"","html-keyboard-response","216","108936","0.0-216.0","3K4J6M3CXFF4Q8QE4JQEZQO4FHKGAJ","A2H3CV7SIVYREN","3FW4EL5A3LANKRP91N782LFHPY722Q","","null","<img src=""img/animal2.png"" style=""width:200px; border:14px solid green;"">","null","","","","","",""
"","image-keyboard-response","217","109079","0.0-217.0","3K4J6M3CXFF4Q8QE4JQEZQO4FHKGAJ","A2H3CV7SIVYREN","3FW4EL5A3LANKRP91N782LFHPY722Q","","141","img/animal5.png","75","144","2","1","3","0.5,0,1,1,0.5,0,0,1,0.5",""
"","html-keyboard-response","218","109382","0.0-218.0","3K4J6M3CXFF4Q8QE4JQEZQO4FHKGAJ","A2H3CV7SIVYREN","3FW4EL5A3LANKRP91N782LFHPY722Q","","null","<img src=""img/animal5.png"" style=""width:200px; border:14px solid green;"">","null","","","","","",""
"","image-keyboard-response","219","109562","0.0-219.0","3K4J6M3CXFF4Q8QE4JQEZQO4FHKGAJ","A2H3CV7SIVYREN","3FW4EL5A3LANKRP91N782LFHPY722Q","","180","img/animal2.png","75","180","2","0","2","0.5,0,1,1,0.5,0,0,1,0.5",""
"","html-keyboard-response","220","109903","0.0-220.0","3K4J6M3CXFF4Q8QE4JQEZQO4FHKGAJ","A2H3CV7SIVYREN","3FW4EL5A3LANKRP91N782LFHPY722Q","","null","<img src=""img/animal2.png"" style=""width:200px;border:14px solid red;"">","null","","","","","",""
"","image-keyboard-response","221","110131","0.0-221.0","3K4J6M3CXFF4Q8QE4JQEZQO4FHKGAJ","A2H3CV7SIVYREN","3FW4EL5A3LANKRP91N782LFHPY722Q","","227","img/animal5.png","74","228","1","0","3","0.5,0,1,1,0.5,0,0,1,0.5",""
"","html-keyboard-response","222","110437","0.0-222.0","3K4J6M3CXFF4Q8QE4JQEZQO4FHKGAJ","A2H3CV7SIVYREN","3FW4EL5A3LANKRP91N782LFHPY722Q","","null","<img src=""img/animal5.png"" style=""width:200px;border:14px solid red;"">","null","","","","","",""
"","image-keyboard-response","223","110584","0.0-223.0","3K4J6M3CXFF4Q8QE4JQEZQO4FHKGAJ","A2H3CV7SIVYREN","3FW4EL5A3LANKRP91N782LFHPY722Q","","146","img/animal5.png","76","147","3","0","3","0.5,0,1,1,0.5,0,0,1,0.5",""
"","html-keyboard-response","224","111019","0.0-224.0","3K4J6M3CXFF4Q8QE4JQEZQO4FHKGAJ","A2H3CV7SIVYREN","3FW4EL5A3LANKRP91N782LFHPY722Q","","null","<img src=""img/animal5.png"" style=""width:200px;border:14px solid red;"">","null","","","","","",""
"","image-keyboard-response","225","111105","0.0-225.0","3K4J6M3CXFF4Q8QE4JQEZQO4FHKGAJ","A2H3CV7SIVYREN","3FW4EL5A3LANKRP91N782LFHPY722Q","","84","img/animal5.png","75","86","2","1","3","0.5,0,1,1,0.5,0,0,1,0.5",""
"","html-keyboard-response","226","111410","0.0-226.0","3K4J6M3CXFF4Q8QE4JQEZQO4FHKGAJ","A2H3CV7SIVYREN","3FW4EL5A3LANKRP91N782LFHPY722Q","","null","<img src=""img/animal5.png"" style=""width:200px; border:14px solid green;"">","null","","","","","",""
"","image-keyboard-response","227","111583","0.0-227.0","3K4J6M3CXFF4Q8QE4JQEZQO4FHKGAJ","A2H3CV7SIVYREN","3FW4EL5A3LANKRP91N782LFHPY722Q","","172","img/animal2.png","74","172","1","1","2","0.5,0,1,1,0.5,0,0,1,0.5",""
"","html-keyboard-response","228","111918","0.0-228.0","3K4J6M3CXFF4Q8QE4JQEZQO4FHKGAJ","A2H3CV7SIVYREN","3FW4EL5A3LANKRP91N782LFHPY722Q","","null","<img src=""img/animal2.png"" style=""width:200px; border:14px solid green;"">","null","","","","","",""
"","image-keyboard-response","229","111964","0.0-229.0","3K4J6M3CXFF4Q8QE4JQEZQO4FHKGAJ","A2H3CV7SIVYREN","3FW4EL5A3LANKRP91N782LFHPY722Q","","46","img/animal6.png","75","46","2","0","1","0.5,0,1,1,0.5,0,0,1,0.5",""
"","html-keyboard-response","230","112267","0.0-230.0","3K4J6M3CXFF4Q8QE4JQEZQO4FHKGAJ","A2H3CV7SIVYREN","3FW4EL5A3LANKRP91N782LFHPY722Q","","null","<img src=""img/animal6.png"" style=""width:200px;border:14px solid red;"">","null","","","","","",""
"","image-keyboard-response","231","112322","0.0-231.0","3K4J6M3CXFF4Q8QE4JQEZQO4FHKGAJ","A2H3CV7SIVYREN","3FW4EL5A3LANKRP91N782LFHPY722Q","","53","img/animal6.png","76","55","3","1","1","0.5,0,1,1,0.5,0,0,1,0.5",""
"","html-keyboard-response","232","112630","0.0-232.0","3K4J6M3CXFF4Q8QE4JQEZQO4FHKGAJ","A2H3CV7SIVYREN","3FW4EL5A3LANKRP91N782LFHPY722Q","","null","<img src=""img/animal6.png"" style=""width:200px; border:14px solid green;"">","null","","","","","",""
"","image-keyboard-response","233","112660","0.0-233.0","3K4J6M3CXFF4Q8QE4JQEZQO4FHKGAJ","A2H3CV7SIVYREN","3FW4EL5A3LANKRP91N782LFHPY722Q","","26","img/animal6.png","76","27","3","1","1","0.5,0,1,1,0.5,0,0,1,0.5",""
"","html-keyboard-response","234","112983","0.0-234.0","3K4J6M3CXFF4Q8QE4JQEZQO4FHKGAJ","A2H3CV7SIVYREN","3FW4EL5A3LANKRP91N782LFHPY722Q","","null","<img src=""img/animal6.png"" style=""width:200px; border:14px solid green;"">","null","","","","","",""
"","image-keyboard-response","235","113242","0.0-235.0","3K4J6M3CXFF4Q8QE4JQEZQO4FHKGAJ","A2H3CV7SIVYREN","3FW4EL5A3LANKRP91N782LFHPY722Q","","232","img/animal2.png","74","233","1","1","2","0.5,0,1,1,0.5,0,0,1,0.5",""
"","html-keyboard-response","236","113544","0.0-236.0","3K4J6M3CXFF4Q8QE4JQEZQO4FHKGAJ","A2H3CV7SIVYREN","3FW4EL5A3LANKRP91N782LFHPY722Q","","null","<img src=""img/animal2.png"" style=""width:200px; border:14px solid green;"">","null","","","","","",""
"","image-keyboard-response","237","113933","0.0-237.0","3K4J6M3CXFF4Q8QE4JQEZQO4FHKGAJ","A2H3CV7SIVYREN","3FW4EL5A3LANKRP91N782LFHPY722Q","","389","img/animal2.png","76","389","3","0","2","0.5,0,1,1,0.5,0,0,1,0.5",""
"","html-keyboard-response","238","114241","0.0-238.0","3K4J6M3CXFF4Q8QE4JQEZQO4FHKGAJ","A2H3CV7SIVYREN","3FW4EL5A3LANKRP91N782LFHPY722Q","","null","<img src=""img/animal2.png"" style=""width:200px;border:14px solid red;"">","null","","","","","",""
"","image-keyboard-response","239","114778","0.0-239.0","3K4J6M3CXFF4Q8QE4JQEZQO4FHKGAJ","A2H3CV7SIVYREN","3FW4EL5A3LANKRP91N782LFHPY722Q","","533","img/animal5.png","75","537","2","1","3","0.5,0,1,1,0.5,0,0,1,0.5",""
"","html-keyboard-response","240","115080","0.0-240.0","3K4J6M3CXFF4Q8QE4JQEZQO4FHKGAJ","A2H3CV7SIVYREN","3FW4EL5A3LANKRP91N782LFHPY722Q","","null","<img src=""img/animal5.png"" style=""width:200px; border:14px solid green;"">","null","","","","","",""
"","image-keyboard-response","241","115471","0.0-241.0","3K4J6M3CXFF4Q8QE4JQEZQO4FHKGAJ","A2H3CV7SIVYREN","3FW4EL5A3LANKRP91N782LFHPY722Q","","389","img/animal5.png","74","391","1","0","3","0.5,0,1,1,0.5,0,0,1,0.5",""
"","html-keyboard-response","242","115776","0.0-242.0","3K4J6M3CXFF4Q8QE4JQEZQO4FHKGAJ","A2H3CV7SIVYREN","3FW4EL5A3LANKRP91N782LFHPY722Q","","null","<img src=""img/animal5.png"" style=""width:200px;border:14px solid red;"">","null","","","","","",""
"","image-keyboard-response","243","115932","0.0-243.0","3K4J6M3CXFF4Q8QE4JQEZQO4FHKGAJ","A2H3CV7SIVYREN","3FW4EL5A3LANKRP91N782LFHPY722Q","","155","img/animal6.png","75","156","2","0","1","0.5,0,1,1,0.5,0,0,1,0.5",""
"","html-keyboard-response","244","116235","0.0-244.0","3K4J6M3CXFF4Q8QE4JQEZQO4FHKGAJ","A2H3CV7SIVYREN","3FW4EL5A3LANKRP91N782LFHPY722Q","","null","<img src=""img/animal6.png"" style=""width:200px;border:14px solid red;"">","null","","","","","",""
"","image-keyboard-response","245","116428","0.0-245.0","3K4J6M3CXFF4Q8QE4JQEZQO4FHKGAJ","A2H3CV7SIVYREN","3FW4EL5A3LANKRP91N782LFHPY722Q","","192","img/animal6.png","76","193","3","1","1","0.5,0,1,1,0.5,0,0,1,0.5",""
"","html-keyboard-response","246","116729","0.0-246.0","3K4J6M3CXFF4Q8QE4JQEZQO4FHKGAJ","A2H3CV7SIVYREN","3FW4EL5A3LANKRP91N782LFHPY722Q","","null","<img src=""img/animal6.png"" style=""width:200px; border:14px solid green;"">","null","","","","","",""
"","image-keyboard-response","247","117077","0.0-247.0","3K4J6M3CXFF4Q8QE4JQEZQO4FHKGAJ","A2H3CV7SIVYREN","3FW4EL5A3LANKRP91N782LFHPY722Q","","346","img/animal5.png","75","347","2","1","3","0.5,0,1,1,0.5,0,0,1,0.5",""
"","html-keyboard-response","248","117380","0.0-248.0","3K4J6M3CXFF4Q8QE4JQEZQO4FHKGAJ","A2H3CV7SIVYREN","3FW4EL5A3LANKRP91N782LFHPY722Q","","null","<img src=""img/animal5.png"" style=""width:200px; border:14px solid green;"">","null","","","","","",""
"","image-keyboard-response","249","117537","0.0-249.0","3K4J6M3CXFF4Q8QE4JQEZQO4FHKGAJ","A2H3CV7SIVYREN","3FW4EL5A3LANKRP91N782LFHPY722Q","","155","img/animal6.png","74","157","1","0","1","0.5,0,1,1,0.5,0,0,1,0.5",""
"","html-keyboard-response","250","117846","0.0-250.0","3K4J6M3CXFF4Q8QE4JQEZQO4FHKGAJ","A2H3CV7SIVYREN","3FW4EL5A3LANKRP91N782LFHPY722Q","","null","<img src=""img/animal6.png"" style=""width:200px;border:14px solid red;"">","null","","","","","",""
"","image-keyboard-response","251","117862","0.0-251.0","3K4J6M3CXFF4Q8QE4JQEZQO4FHKGAJ","A2H3CV7SIVYREN","3FW4EL5A3LANKRP91N782LFHPY722Q","","15","img/animal2.png","74","16","1","1","2","0.5,0,1,1,0.5,0,0,1,0.5",""
"","html-keyboard-response","252","118166","0.0-252.0","3K4J6M3CXFF4Q8QE4JQEZQO4FHKGAJ","A2H3CV7SIVYREN","3FW4EL5A3LANKRP91N782LFHPY722Q","","null","<img src=""img/animal2.png"" style=""width:200px; border:14px solid green;"">","null","","","","","",""
"","image-keyboard-response","253","118293","0.0-253.0","3K4J6M3CXFF4Q8QE4JQEZQO4FHKGAJ","A2H3CV7SIVYREN","3FW4EL5A3LANKRP91N782LFHPY722Q","","126","img/animal5.png","76","127","3","1","3","0.5,0,1,1,0.5,0,0,1,0.5",""
"","html-keyboard-response","254","118594","0.0-254.0","3K4J6M3CXFF4Q8QE4JQEZQO4FHKGAJ","A2H3CV7SIVYREN","3FW4EL5A3LANKRP91N782LFHPY722Q","","null","<img src=""img/animal5.png"" style=""width:200px; border:14px solid green;"">","null","","","","","",""
"","image-keyboard-response","255","118723","0.0-255.0","3K4J6M3CXFF4Q8QE4JQEZQO4FHKGAJ","A2H3CV7SIVYREN","3FW4EL5A3LANKRP91N782LFHPY722Q","","128","img/animal5.png","75","129","2","1","3","0.5,0,1,1,0.5,0,0,1,0.5",""
"","html-keyboard-response","256","119025","0.0-256.0","3K4J6M3CXFF4Q8QE4JQEZQO4FHKGAJ","A2H3CV7SIVYREN","3FW4EL5A3LANKRP91N782LFHPY722Q","","null","<img src=""img/animal5.png"" style=""width:200px; border:14px solid green;"">","null","","","","","",""
"","image-keyboard-response","257","119275","0.0-257.0","3K4J6M3CXFF4Q8QE4JQEZQO4FHKGAJ","A2H3CV7SIVYREN","3FW4EL5A3LANKRP91N782LFHPY722Q","","249","img/animal5.png","74","251","1","0","3","0.5,0,1,1,0.5,0,0,1,0.5",""
"","html-keyboard-response","258","119577","0.0-258.0","3K4J6M3CXFF4Q8QE4JQEZQO4FHKGAJ","A2H3CV7SIVYREN","3FW4EL5A3LANKRP91N782LFHPY722Q","","null","<img src=""img/animal5.png"" style=""width:200px;border:14px solid red;"">","null","","","","","",""
"","image-keyboard-response","259","119702","0.0-259.0","3K4J6M3CXFF4Q8QE4JQEZQO4FHKGAJ","A2H3CV7SIVYREN","3FW4EL5A3LANKRP91N782LFHPY722Q","","125","img/animal2.png","75","125","2","0","2","0.5,0,1,1,0.5,0,0,1,0.5",""
"","html-keyboard-response","260","120008","0.0-260.0","3K4J6M3CXFF4Q8QE4JQEZQO4FHKGAJ","A2H3CV7SIVYREN","3FW4EL5A3LANKRP91N782LFHPY722Q","","null","<img src=""img/animal2.png"" style=""width:200px;border:14px solid red;"">","null","","","","","",""
"","image-keyboard-response","261","120148","0.0-261.0","3K4J6M3CXFF4Q8QE4JQEZQO4FHKGAJ","A2H3CV7SIVYREN","3FW4EL5A3LANKRP91N782LFHPY722Q","","139","img/animal5.png","76","140","3","0","3","0.5,0,1,1,0.5,0,0,1,0.5",""
"","html-keyboard-response","262","120452","0.0-262.0","3K4J6M3CXFF4Q8QE4JQEZQO4FHKGAJ","A2H3CV7SIVYREN","3FW4EL5A3LANKRP91N782LFHPY722Q","","null","<img src=""img/animal5.png"" style=""width:200px;border:14px solid red;"">","null","","","","","",""
"","image-keyboard-response","263","121279","0.0-263.0","3K4J6M3CXFF4Q8QE4JQEZQO4FHKGAJ","A2H3CV7SIVYREN","3FW4EL5A3LANKRP91N782LFHPY722Q","","826","img/animal2.png","76","827","3","0","2","0.5,0,1,1,0.5,0,0,1,0.5",""
"","html-keyboard-response","264","121588","0.0-264.0","3K4J6M3CXFF4Q8QE4JQEZQO4FHKGAJ","A2H3CV7SIVYREN","3FW4EL5A3LANKRP91N782LFHPY722Q","","null","<img src=""img/animal2.png"" style=""width:200px;border:14px solid red;"">","null","","","","","",""
"","image-keyboard-response","265","121724","0.0-265.0","3K4J6M3CXFF4Q8QE4JQEZQO4FHKGAJ","A2H3CV7SIVYREN","3FW4EL5A3LANKRP91N782LFHPY722Q","","135","img/animal6.png","75","136","2","0","1","0.5,0,1,1,0.5,0,0,1,0.5",""
"","html-keyboard-response","266","122049","0.0-266.0","3K4J6M3CXFF4Q8QE4JQEZQO4FHKGAJ","A2H3CV7SIVYREN","3FW4EL5A3LANKRP91N782LFHPY722Q","","null","<img src=""img/animal6.png"" style=""width:200px;border:14px solid red;"">","null","","","","","",""
"","image-keyboard-response","267","122143","0.0-267.0","3K4J6M3CXFF4Q8QE4JQEZQO4FHKGAJ","A2H3CV7SIVYREN","3FW4EL5A3LANKRP91N782LFHPY722Q","","92","img/animal6.png","74","94","1","1","1","0.5,0,1,1,0.5,0,0,1,0.5",""
"","html-keyboard-response","268","122461","0.0-268.0","3K4J6M3CXFF4Q8QE4JQEZQO4FHKGAJ","A2H3CV7SIVYREN","3FW4EL5A3LANKRP91N782LFHPY722Q","","null","<img src=""img/animal6.png"" style=""width:200px; border:14px solid green;"">","null","","","","","",""
"","image-keyboard-response","269","122692","0.0-269.0","3K4J6M3CXFF4Q8QE4JQEZQO4FHKGAJ","A2H3CV7SIVYREN","3FW4EL5A3LANKRP91N782LFHPY722Q","","230","img/animal6.png","75","231","2","0","1","0.5,0,1,1,0.5,0,0,1,0.5",""
"","html-keyboard-response","270","123004","0.0-270.0","3K4J6M3CXFF4Q8QE4JQEZQO4FHKGAJ","A2H3CV7SIVYREN","3FW4EL5A3LANKRP91N782LFHPY722Q","","null","<img src=""img/animal6.png"" style=""width:200px;border:14px solid red;"">","null","","","","","",""
"","image-keyboard-response","271","123303","0.0-271.0","3K4J6M3CXFF4Q8QE4JQEZQO4FHKGAJ","A2H3CV7SIVYREN","3FW4EL5A3LANKRP91N782LFHPY722Q","","298","img/animal5.png","74","299","1","0","3","0.5,0,1,1,0.5,0,0,1,0.5",""
"","html-keyboard-response","272","123603","0.0-272.0","3K4J6M3CXFF4Q8QE4JQEZQO4FHKGAJ","A2H3CV7SIVYREN","3FW4EL5A3LANKRP91N782LFHPY722Q","","null","<img src=""img/animal5.png"" style=""width:200px;border:14px solid red;"">","null","","","","","",""
"","image-keyboard-response","273","123791","0.0-273.0","3K4J6M3CXFF4Q8QE4JQEZQO4FHKGAJ","A2H3CV7SIVYREN","3FW4EL5A3LANKRP91N782LFHPY722Q","","185","img/animal2.png","75","185","2","0","2","0.5,0,1,1,0.5,0,0,1,0.5",""
"","html-keyboard-response","274","124096","0.0-274.0","3K4J6M3CXFF4Q8QE4JQEZQO4FHKGAJ","A2H3CV7SIVYREN","3FW4EL5A3LANKRP91N782LFHPY722Q","","null","<img src=""img/animal2.png"" style=""width:200px;border:14px solid red;"">","null","","","","","",""
"","image-keyboard-response","275","124292","0.0-275.0","3K4J6M3CXFF4Q8QE4JQEZQO4FHKGAJ","A2H3CV7SIVYREN","3FW4EL5A3LANKRP91N782LFHPY722Q","","194","img/animal5.png","76","196","3","1","3","0.5,0,1,1,0.5,0,0,1,0.5",""
"","html-keyboard-response","276","124596","0.0-276.0","3K4J6M3CXFF4Q8QE4JQEZQO4FHKGAJ","A2H3CV7SIVYREN","3FW4EL5A3LANKRP91N782LFHPY722Q","","null","<img src=""img/animal5.png"" style=""width:200px; border:14px solid green;"">","null","","","","","",""
"","image-keyboard-response","277","125241","0.0-277.0","3K4J6M3CXFF4Q8QE4JQEZQO4FHKGAJ","A2H3CV7SIVYREN","3FW4EL5A3LANKRP91N782LFHPY722Q","","644","img/animal6.png","76","645","3","1","1","0.5,0,1,1,0.5,0,0,1,0.5",""
"","html-keyboard-response","278","125546","0.0-278.0","3K4J6M3CXFF4Q8QE4JQEZQO4FHKGAJ","A2H3CV7SIVYREN","3FW4EL5A3LANKRP91N782LFHPY722Q","","null","<img src=""img/animal6.png"" style=""width:200px; border:14px solid green;"">","null","","","","","",""
"","image-keyboard-response","279","125969","0.0-279.0","3K4J6M3CXFF4Q8QE4JQEZQO4FHKGAJ","A2H3CV7SIVYREN","3FW4EL5A3LANKRP91N782LFHPY722Q","","423","img/animal2.png","76","423","3","0","2","0.5,0,1,1,0.5,0,0,1,0.5",""
"","html-keyboard-response","280","126276","0.0-280.0","3K4J6M3CXFF4Q8QE4JQEZQO4FHKGAJ","A2H3CV7SIVYREN","3FW4EL5A3LANKRP91N782LFHPY722Q","","null","<img src=""img/animal2.png"" style=""width:200px;border:14px solid red;"">","null","","","","","",""
"","image-keyboard-response","281","126591","0.0-281.0","3K4J6M3CXFF4Q8QE4JQEZQO4FHKGAJ","A2H3CV7SIVYREN","3FW4EL5A3LANKRP91N782LFHPY722Q","","314","img/animal5.png","76","315","3","1","3","0.5,0,1,1,0.5,0,0,1,0.5",""
"","html-keyboard-response","282","126905","0.0-282.0","3K4J6M3CXFF4Q8QE4JQEZQO4FHKGAJ","A2H3CV7SIVYREN","3FW4EL5A3LANKRP91N782LFHPY722Q","","null","<img src=""img/animal5.png"" style=""width:200px; border:14px solid green;"">","null","","","","","",""
"","image-keyboard-response","283","127022","0.0-283.0","3K4J6M3CXFF4Q8QE4JQEZQO4FHKGAJ","A2H3CV7SIVYREN","3FW4EL5A3LANKRP91N782LFHPY722Q","","116","img/animal2.png","75","117","2","0","2","0.5,0,1,1,0.5,0,0,1,0.5",""
"","html-keyboard-response","284","127327","0.0-284.0","3K4J6M3CXFF4Q8QE4JQEZQO4FHKGAJ","A2H3CV7SIVYREN","3FW4EL5A3LANKRP91N782LFHPY722Q","","null","<img src=""img/animal2.png"" style=""width:200px;border:14px solid red;"">","null","","","","","",""
"","image-keyboard-response","285","127917","0.0-285.0","3K4J6M3CXFF4Q8QE4JQEZQO4FHKGAJ","A2H3CV7SIVYREN","3FW4EL5A3LANKRP91N782LFHPY722Q","","589","img/animal6.png","75","591","2","0","1","0.5,0,1,1,0.5,0,0,1,0.5",""
"","html-keyboard-response","286","128222","0.0-286.0","3K4J6M3CXFF4Q8QE4JQEZQO4FHKGAJ","A2H3CV7SIVYREN","3FW4EL5A3LANKRP91N782LFHPY722Q","","null","<img src=""img/animal6.png"" style=""width:200px;border:14px solid red;"">","null","","","","","",""
"","image-keyboard-response","287","128765","0.0-287.0","3K4J6M3CXFF4Q8QE4JQEZQO4FHKGAJ","A2H3CV7SIVYREN","3FW4EL5A3LANKRP91N782LFHPY722Q","","541","img/animal2.png","75","543","2","1","2","0.5,0,1,1,0.5,0,0,1,0.5",""
"","html-keyboard-response","288","129091","0.0-288.0","3K4J6M3CXFF4Q8QE4JQEZQO4FHKGAJ","A2H3CV7SIVYREN","3FW4EL5A3LANKRP91N782LFHPY722Q","","null","<img src=""img/animal2.png"" style=""width:200px; border:14px solid green;"">","null","","","","","",""
"","image-keyboard-response","289","129322","0.0-289.0","3K4J6M3CXFF4Q8QE4JQEZQO4FHKGAJ","A2H3CV7SIVYREN","3FW4EL5A3LANKRP91N782LFHPY722Q","","230","img/animal2.png","76","232","3","0","2","0.5,0,1,1,0.5,0,0,1,0.5",""
"","html-keyboard-response","290","129629","0.0-290.0","3K4J6M3CXFF4Q8QE4JQEZQO4FHKGAJ","A2H3CV7SIVYREN","3FW4EL5A3LANKRP91N782LFHPY722Q","","null","<img src=""img/animal2.png"" style=""width:200px;border:14px solid red;"">","null","","","","","",""
"","image-keyboard-response","291","129882","0.0-291.0","3K4J6M3CXFF4Q8QE4JQEZQO4FHKGAJ","A2H3CV7SIVYREN","3FW4EL5A3LANKRP91N782LFHPY722Q","","250","img/animal2.png","75","254","2","0","2","0.5,0,1,1,0.5,0,0,1,0.5",""
"","html-keyboard-response","292","130190","0.0-292.0","3K4J6M3CXFF4Q8QE4JQEZQO4FHKGAJ","A2H3CV7SIVYREN","3FW4EL5A3LANKRP91N782LFHPY722Q","","null","<img src=""img/animal2.png"" style=""width:200px;border:14px solid red;"">","null","","","","","",""
"","image-keyboard-response","293","130463","0.0-293.0","3K4J6M3CXFF4Q8QE4JQEZQO4FHKGAJ","A2H3CV7SIVYREN","3FW4EL5A3LANKRP91N782LFHPY722Q","","273","img/animal6.png","76","273","3","1","1","0.5,0,1,1,0.5,0,0,1,0.5",""
"","html-keyboard-response","294","130782","0.0-294.0","3K4J6M3CXFF4Q8QE4JQEZQO4FHKGAJ","A2H3CV7SIVYREN","3FW4EL5A3LANKRP91N782LFHPY722Q","","null","<img src=""img/animal6.png"" style=""width:200px; border:14px solid green;"">","null","","","","","",""
"","image-keyboard-response","295","131182","0.0-295.0","3K4J6M3CXFF4Q8QE4JQEZQO4FHKGAJ","A2H3CV7SIVYREN","3FW4EL5A3LANKRP91N782LFHPY722Q","","399","img/animal6.png","75","400","2","0","1","0.5,0,1,1,0.5,0,0,1,0.5",""
"","html-keyboard-response","296","131486","0.0-296.0","3K4J6M3CXFF4Q8QE4JQEZQO4FHKGAJ","A2H3CV7SIVYREN","3FW4EL5A3LANKRP91N782LFHPY722Q","","null","<img src=""img/animal6.png"" style=""width:200px;border:14px solid red;"">","null","","","","","",""
"","image-keyboard-response","297","131805","0.0-297.0","3K4J6M3CXFF4Q8QE4JQEZQO4FHKGAJ","A2H3CV7SIVYREN","3FW4EL5A3LANKRP91N782LFHPY722Q","","317","img/animal6.png","76","319","3","1","1","0.5,0,1,1,0.5,0,0,1,0.5",""
"","html-keyboard-response","298","132110","0.0-298.0","3K4J6M3CXFF4Q8QE4JQEZQO4FHKGAJ","A2H3CV7SIVYREN","3FW4EL5A3LANKRP91N782LFHPY722Q","","null","<img src=""img/animal6.png"" style=""width:200px; border:14px solid green;"">","null","","","","","",""
"","image-keyboard-response","299","132468","0.0-299.0","3K4J6M3CXFF4Q8QE4JQEZQO4FHKGAJ","A2H3CV7SIVYREN","3FW4EL5A3LANKRP91N782LFHPY722Q","","354","img/animal2.png","76","354","3","0","2","0.5,0,1,1,0.5,0,0,1,0.5",""
"","html-keyboard-response","300","132770","0.0-300.0","3K4J6M3CXFF4Q8QE4JQEZQO4FHKGAJ","A2H3CV7SIVYREN","3FW4EL5A3LANKRP91N782LFHPY722Q","","null","<img src=""img/animal2.png"" style=""width:200px;border:14px solid red;"">","null","","","","","",""
"","image-keyboard-response","301","133148","0.0-301.0","3K4J6M3CXFF4Q8QE4JQEZQO4FHKGAJ","A2H3CV7SIVYREN","3FW4EL5A3LANKRP91N782LFHPY722Q","","377","img/animal6.png","76","378","3","1","1","0.5,0,1,1,0.5,0,0,1,0.5",""
"","html-keyboard-response","302","133451","0.0-302.0","3K4J6M3CXFF4Q8QE4JQEZQO4FHKGAJ","A2H3CV7SIVYREN","3FW4EL5A3LANKRP91N782LFHPY722Q","","null","<img src=""img/animal6.png"" style=""width:200px; border:14px solid green;"">","null","","","","","",""
"","image-keyboard-response","303","133573","0.0-303.0","3K4J6M3CXFF4Q8QE4JQEZQO4FHKGAJ","A2H3CV7SIVYREN","3FW4EL5A3LANKRP91N782LFHPY722Q","","121","img/animal2.png","76","122","3","0","2","0.5,0,1,1,0.5,0,0,1,0.5",""
"","html-keyboard-response","304","133892","0.0-304.0","3K4J6M3CXFF4Q8QE4JQEZQO4FHKGAJ","A2H3CV7SIVYREN","3FW4EL5A3LANKRP91N782LFHPY722Q","","null","<img src=""img/animal2.png"" style=""width:200px;border:14px solid red;"">","null","","","","","",""
"","image-keyboard-response","305","134145","0.0-305.0","3K4J6M3CXFF4Q8QE4JQEZQO4FHKGAJ","A2H3CV7SIVYREN","3FW4EL5A3LANKRP91N782LFHPY722Q","","251","img/animal6.png","76","252","3","1","1","0.5,0,1,1,0.5,0,0,1,0.5",""
"","html-keyboard-response","306","134446","0.0-306.0","3K4J6M3CXFF4Q8QE4JQEZQO4FHKGAJ","A2H3CV7SIVYREN","3FW4EL5A3LANKRP91N782LFHPY722Q","","null","<img src=""img/animal6.png"" style=""width:200px; border:14px solid green;"">","null","","","","","",""
"","image-keyboard-response","307","134850","0.0-307.0","3K4J6M3CXFF4Q8QE4JQEZQO4FHKGAJ","A2H3CV7SIVYREN","3FW4EL5A3LANKRP91N782LFHPY722Q","","404","img/animal5.png","76","404","3","0","3","0.5,0,1,1,0.5,0,0,1,0.5",""
"","html-keyboard-response","308","135158","0.0-308.0","3K4J6M3CXFF4Q8QE4JQEZQO4FHKGAJ","A2H3CV7SIVYREN","3FW4EL5A3LANKRP91N782LFHPY722Q","","null","<img src=""img/animal5.png"" style=""width:200px;border:14px solid red;"">","null","","","","","",""
"","image-keyboard-response","309","135455","0.0-309.0","3K4J6M3CXFF4Q8QE4JQEZQO4FHKGAJ","A2H3CV7SIVYREN","3FW4EL5A3LANKRP91N782LFHPY722Q","","295","img/animal5.png","76","297","3","1","3","0.5,0,1,1,0.5,0,0,1,0.5",""
"","html-keyboard-response","310","135761","0.0-310.0","3K4J6M3CXFF4Q8QE4JQEZQO4FHKGAJ","A2H3CV7SIVYREN","3FW4EL5A3LANKRP91N782LFHPY722Q","","null","<img src=""img/animal5.png"" style=""width:200px; border:14px solid green;"">","null","","","","","",""
"","image-keyboard-response","311","136321","0.0-311.0","3K4J6M3CXFF4Q8QE4JQEZQO4FHKGAJ","A2H3CV7SIVYREN","3FW4EL5A3LANKRP91N782LFHPY722Q","","560","img/animal6.png","76","560","3","1","1","0.5,0,1,1,0.5,0,0,1,0.5",""
"","html-keyboard-response","312","136626","0.0-312.0","3K4J6M3CXFF4Q8QE4JQEZQO4FHKGAJ","A2H3CV7SIVYREN","3FW4EL5A3LANKRP91N782LFHPY722Q","","null","<img src=""img/animal6.png"" style=""width:200px; border:14px solid green;"">","null","","","","","",""
"","image-keyboard-response","313","136978","0.0-313.0","3K4J6M3CXFF4Q8QE4JQEZQO4FHKGAJ","A2H3CV7SIVYREN","3FW4EL5A3LANKRP91N782LFHPY722Q","","351","img/animal2.png","76","352","3","0","2","0.5,0,1,1,0.5,0,0,1,0.5",""
"","html-keyboard-response","314","137285","0.0-314.0","3K4J6M3CXFF4Q8QE4JQEZQO4FHKGAJ","A2H3CV7SIVYREN","3FW4EL5A3LANKRP91N782LFHPY722Q","","null","<img src=""img/animal2.png"" style=""width:200px;border:14px solid red;"">","null","","","","","",""
"","image-keyboard-response","315","137582","0.0-315.0","3K4J6M3CXFF4Q8QE4JQEZQO4FHKGAJ","A2H3CV7SIVYREN","3FW4EL5A3LANKRP91N782LFHPY722Q","","295","img/animal5.png","76","296","3","1","3","0.5,0,1,1,0.5,0,0,1,0.5",""
"","html-keyboard-response","316","137887","0.0-316.0","3K4J6M3CXFF4Q8QE4JQEZQO4FHKGAJ","A2H3CV7SIVYREN","3FW4EL5A3LANKRP91N782LFHPY722Q","","null","<img src=""img/animal5.png"" style=""width:200px; border:14px solid green;"">","null","","","","","",""
"","image-keyboard-response","317","138208","0.0-317.0","3K4J6M3CXFF4Q8QE4JQEZQO4FHKGAJ","A2H3CV7SIVYREN","3FW4EL5A3LANKRP91N782LFHPY722Q","","319","img/animal5.png","76","321","3","1","3","0.5,0,1,1,0.5,0,0,1,0.5",""
"","html-keyboard-response","318","138513","0.0-318.0","3K4J6M3CXFF4Q8QE4JQEZQO4FHKGAJ","A2H3CV7SIVYREN","3FW4EL5A3LANKRP91N782LFHPY722Q","","null","<img src=""img/animal5.png"" style=""width:200px; border:14px solid green;"">","null","","","","","",""
"","image-keyboard-response","319","138746","0.0-319.0","3K4J6M3CXFF4Q8QE4JQEZQO4FHKGAJ","A2H3CV7SIVYREN","3FW4EL5A3LANKRP91N782LFHPY722Q","","231","img/animal2.png","76","233","3","0","2","0.5,0,1,1,0.5,0,0,1,0.5",""
"","html-keyboard-response","320","139193","0.0-320.0","3K4J6M3CXFF4Q8QE4JQEZQO4FHKGAJ","A2H3CV7SIVYREN","3FW4EL5A3LANKRP91N782LFHPY722Q","","null","<img src=""img/animal2.png"" style=""width:200px;border:14px solid red;"">","null","","","","","",""
"","image-keyboard-response","321","139388","0.0-321.0","3K4J6M3CXFF4Q8QE4JQEZQO4FHKGAJ","A2H3CV7SIVYREN","3FW4EL5A3LANKRP91N782LFHPY722Q","","195","img/animal5.png","76","195","3","0","3","0.5,0,1,1,0.5,0,0,1,0.5",""
"","html-keyboard-response","322","139697","0.0-322.0","3K4J6M3CXFF4Q8QE4JQEZQO4FHKGAJ","A2H3CV7SIVYREN","3FW4EL5A3LANKRP91N782LFHPY722Q","","null","<img src=""img/animal5.png"" style=""width:200px;border:14px solid red;"">","null","","","","","",""
"","image-keyboard-response","323","139912","0.0-323.0","3K4J6M3CXFF4Q8QE4JQEZQO4FHKGAJ","A2H3CV7SIVYREN","3FW4EL5A3LANKRP91N782LFHPY722Q","","213","img/animal6.png","76","215","3","1","1","0.5,0,1,1,0.5,0,0,1,0.5",""
"","html-keyboard-response","324","140337","0.0-324.0","3K4J6M3CXFF4Q8QE4JQEZQO4FHKGAJ","A2H3CV7SIVYREN","3FW4EL5A3LANKRP91N782LFHPY722Q","","null","<img src=""img/animal6.png"" style=""width:200px; border:14px solid green;"">","null","","","","","",""
"","image-keyboard-response","325","140605","0.0-325.0","3K4J6M3CXFF4Q8QE4JQEZQO4FHKGAJ","A2H3CV7SIVYREN","3FW4EL5A3LANKRP91N782LFHPY722Q","","268","img/animal5.png","75","269","2","1","3","0.5,0,1,1,0.5,0,0,1,0.5",""
"","html-keyboard-response","326","140923","0.0-326.0","3K4J6M3CXFF4Q8QE4JQEZQO4FHKGAJ","A2H3CV7SIVYREN","3FW4EL5A3LANKRP91N782LFHPY722Q","","null","<img src=""img/animal5.png"" style=""width:200px; border:14px solid green;"">","null","","","","","",""
"","image-keyboard-response","327","141140","0.0-327.0","3K4J6M3CXFF4Q8QE4JQEZQO4FHKGAJ","A2H3CV7SIVYREN","3FW4EL5A3LANKRP91N782LFHPY722Q","","213","img/animal6.png","76","217","3","1","1","0.5,0,1,1,0.5,0,0,1,0.5",""
"","html-keyboard-response","328","141442","0.0-328.0","3K4J6M3CXFF4Q8QE4JQEZQO4FHKGAJ","A2H3CV7SIVYREN","3FW4EL5A3LANKRP91N782LFHPY722Q","","null","<img src=""img/animal6.png"" style=""width:200px; border:14px solid green;"">","null","","","","","",""
"","image-keyboard-response","329","141731","0.0-329.0","3K4J6M3CXFF4Q8QE4JQEZQO4FHKGAJ","A2H3CV7SIVYREN","3FW4EL5A3LANKRP91N782LFHPY722Q","","287","img/animal2.png","75","289","2","0","2","0.5,0,1,1,0.5,0,0,1,0.5",""
"","html-keyboard-response","330","142097","0.0-330.0","3K4J6M3CXFF4Q8QE4JQEZQO4FHKGAJ","A2H3CV7SIVYREN","3FW4EL5A3LANKRP91N782LFHPY722Q","","null","<img src=""img/animal2.png"" style=""width:200px;border:14px solid red;"">","null","","","","","",""
"","image-keyboard-response","331","142415","0.0-331.0","3K4J6M3CXFF4Q8QE4JQEZQO4FHKGAJ","A2H3CV7SIVYREN","3FW4EL5A3LANKRP91N782LFHPY722Q","","318","img/animal2.png","75","318","2","1","2","0.5,0,1,1,0.5,0,0,1,0.5",""
"","html-keyboard-response","332","142758","0.0-332.0","3K4J6M3CXFF4Q8QE4JQEZQO4FHKGAJ","A2H3CV7SIVYREN","3FW4EL5A3LANKRP91N782LFHPY722Q","","null","<img src=""img/animal2.png"" style=""width:200px; border:14px solid green;"">","null","","","","","",""
"","image-keyboard-response","333","142985","0.0-333.0","3K4J6M3CXFF4Q8QE4JQEZQO4FHKGAJ","A2H3CV7SIVYREN","3FW4EL5A3LANKRP91N782LFHPY722Q","","225","img/animal5.png","76","227","3","0","3","0.5,0,1,1,0.5,0,0,1,0.5",""
"","html-keyboard-response","334","143289","0.0-334.0","3K4J6M3CXFF4Q8QE4JQEZQO4FHKGAJ","A2H3CV7SIVYREN","3FW4EL5A3LANKRP91N782LFHPY722Q","","null","<img src=""img/animal5.png"" style=""width:200px;border:14px solid red;"">","null","","","","","",""
"","image-keyboard-response","335","143504","0.0-335.0","3K4J6M3CXFF4Q8QE4JQEZQO4FHKGAJ","A2H3CV7SIVYREN","3FW4EL5A3LANKRP91N782LFHPY722Q","","213","img/animal6.png","76","214","3","1","1","0.5,0,1,1,0.5,0,0,1,0.5",""
"","html-keyboard-response","336","143804","0.0-336.0","3K4J6M3CXFF4Q8QE4JQEZQO4FHKGAJ","A2H3CV7SIVYREN","3FW4EL5A3LANKRP91N782LFHPY722Q","","null","<img src=""img/animal6.png"" style=""width:200px; border:14px solid green;"">","null","","","","","",""
"","image-keyboard-response","337","144134","0.0-337.0","3K4J6M3CXFF4Q8QE4JQEZQO4FHKGAJ","A2H3CV7SIVYREN","3FW4EL5A3LANKRP91N782LFHPY722Q","","329","img/animal5.png","75","330","2","1","3","0.5,0,1,1,0.5,0,0,1,0.5",""
"","html-keyboard-response","338","144438","0.0-338.0","3K4J6M3CXFF4Q8QE4JQEZQO4FHKGAJ","A2H3CV7SIVYREN","3FW4EL5A3LANKRP91N782LFHPY722Q","","null","<img src=""img/animal5.png"" style=""width:200px; border:14px solid green;"">","null","","","","","",""
"","image-keyboard-response","339","144648","0.0-339.0","3K4J6M3CXFF4Q8QE4JQEZQO4FHKGAJ","A2H3CV7SIVYREN","3FW4EL5A3LANKRP91N782LFHPY722Q","","209","img/animal6.png","76","210","3","1","1","0.5,0,1,1,0.5,0,0,1,0.5",""
"","html-keyboard-response","340","144955","0.0-340.0","3K4J6M3CXFF4Q8QE4JQEZQO4FHKGAJ","A2H3CV7SIVYREN","3FW4EL5A3LANKRP91N782LFHPY722Q","","null","<img src=""img/animal6.png"" style=""width:200px; border:14px solid green;"">","null","","","","","",""
"","image-keyboard-response","341","145170","0.0-341.0","3K4J6M3CXFF4Q8QE4JQEZQO4FHKGAJ","A2H3CV7SIVYREN","3FW4EL5A3LANKRP91N782LFHPY722Q","","213","img/animal6.png","76","215","3","1","1","0.5,0,1,1,0.5,0,0,1,0.5",""
"","html-keyboard-response","342","145476","0.0-342.0","3K4J6M3CXFF4Q8QE4JQEZQO4FHKGAJ","A2H3CV7SIVYREN","3FW4EL5A3LANKRP91N782LFHPY722Q","","null","<img src=""img/animal6.png"" style=""width:200px; border:14px solid green;"">","null","","","","","",""
"","image-keyboard-response","343","145666","0.0-343.0","3K4J6M3CXFF4Q8QE4JQEZQO4FHKGAJ","A2H3CV7SIVYREN","3FW4EL5A3LANKRP91N782LFHPY722Q","","189","img/animal5.png","76","189","3","1","3","0.5,0,1,1,0.5,0,0,1,0.5",""
"","html-keyboard-response","344","145969","0.0-344.0","3K4J6M3CXFF4Q8QE4JQEZQO4FHKGAJ","A2H3CV7SIVYREN","3FW4EL5A3LANKRP91N782LFHPY722Q","","null","<img src=""img/animal5.png"" style=""width:200px; border:14px solid green;"">","null","","","","","",""
"","image-keyboard-response","345","146367","0.0-345.0","3K4J6M3CXFF4Q8QE4JQEZQO4FHKGAJ","A2H3CV7SIVYREN","3FW4EL5A3LANKRP91N782LFHPY722Q","","396","img/animal2.png","76","398","3","0","2","0.5,0,1,1,0.5,0,0,1,0.5",""
"","html-keyboard-response","346","146669","0.0-346.0","3K4J6M3CXFF4Q8QE4JQEZQO4FHKGAJ","A2H3CV7SIVYREN","3FW4EL5A3LANKRP91N782LFHPY722Q","","null","<img src=""img/animal2.png"" style=""width:200px;border:14px solid red;"">","null","","","","","",""
"","image-keyboard-response","347","146931","0.0-347.0","3K4J6M3CXFF4Q8QE4JQEZQO4FHKGAJ","A2H3CV7SIVYREN","3FW4EL5A3LANKRP91N782LFHPY722Q","","260","img/animal2.png","76","262","3","0","2","0.5,0,1,1,0.5,0,0,1,0.5",""
"","html-keyboard-response","348","147263","0.0-348.0","3K4J6M3CXFF4Q8QE4JQEZQO4FHKGAJ","A2H3CV7SIVYREN","3FW4EL5A3LANKRP91N782LFHPY722Q","","null","<img src=""img/animal2.png"" style=""width:200px;border:14px solid red;"">","null","","","","","",""
"","image-keyboard-response","349","147564","0.0-349.0","3K4J6M3CXFF4Q8QE4JQEZQO4FHKGAJ","A2H3CV7SIVYREN","3FW4EL5A3LANKRP91N782LFHPY722Q","","301","img/animal5.png","75","301","2","1","3","0.5,0,1,1,0.5,0,0,1,0.5",""
"","html-keyboard-response","350","147868","0.0-350.0","3K4J6M3CXFF4Q8QE4JQEZQO4FHKGAJ","A2H3CV7SIVYREN","3FW4EL5A3LANKRP91N782LFHPY722Q","","null","<img src=""img/animal5.png"" style=""width:200px; border:14px solid green;"">","null","","","","","",""
"","image-keyboard-response","351","148248","0.0-351.0","3K4J6M3CXFF4Q8QE4JQEZQO4FHKGAJ","A2H3CV7SIVYREN","3FW4EL5A3LANKRP91N782LFHPY722Q","","379","img/animal5.png","74","380","1","0","3","0.5,0,1,1,0.5,0,0,1,0.5",""
"","html-keyboard-response","352","148549","0.0-352.0","3K4J6M3CXFF4Q8QE4JQEZQO4FHKGAJ","A2H3CV7SIVYREN","3FW4EL5A3LANKRP91N782LFHPY722Q","","null","<img src=""img/animal5.png"" style=""width:200px;border:14px solid red;"">","null","","","","","",""
"","image-keyboard-response","353","148865","0.0-353.0","3K4J6M3CXFF4Q8QE4JQEZQO4FHKGAJ","A2H3CV7SIVYREN","3FW4EL5A3LANKRP91N782LFHPY722Q","","315","img/animal6.png","75","316","2","0","1","0.5,0,1,1,0.5,0,0,1,0.5",""
"","html-keyboard-response","354","149166","0.0-354.0","3K4J6M3CXFF4Q8QE4JQEZQO4FHKGAJ","A2H3CV7SIVYREN","3FW4EL5A3LANKRP91N782LFHPY722Q","","null","<img src=""img/animal6.png"" style=""width:200px;border:14px solid red;"">","null","","","","","",""
"","image-keyboard-response","355","149412","0.0-355.0","3K4J6M3CXFF4Q8QE4JQEZQO4FHKGAJ","A2H3CV7SIVYREN","3FW4EL5A3LANKRP91N782LFHPY722Q","","244","img/animal2.png","76","246","3","0","2","0.5,0,1,1,0.5,0,0,1,0.5",""
"","html-keyboard-response","356","149717","0.0-356.0","3K4J6M3CXFF4Q8QE4JQEZQO4FHKGAJ","A2H3CV7SIVYREN","3FW4EL5A3LANKRP91N782LFHPY722Q","","null","<img src=""img/animal2.png"" style=""width:200px;border:14px solid red;"">","null","","","","","",""
"","image-keyboard-response","357","150010","0.0-357.0","3K4J6M3CXFF4Q8QE4JQEZQO4FHKGAJ","A2H3CV7SIVYREN","3FW4EL5A3LANKRP91N782LFHPY722Q","","291","img/animal6.png","76","292","3","1","1","0.5,0,1,1,0.5,0,0,1,0.5",""
"","html-keyboard-response","358","150315","0.0-358.0","3K4J6M3CXFF4Q8QE4JQEZQO4FHKGAJ","A2H3CV7SIVYREN","3FW4EL5A3LANKRP91N782LFHPY722Q","","null","<img src=""img/animal6.png"" style=""width:200px; border:14px solid green;"">","null","","","","","",""
"","image-keyboard-response","359","150699","0.0-359.0","3K4J6M3CXFF4Q8QE4JQEZQO4FHKGAJ","A2H3CV7SIVYREN","3FW4EL5A3LANKRP91N782LFHPY722Q","","383","img/animal5.png","75","384","2","1","3","0.5,0,1,1,0.5,0,0,1,0.5",""
"","html-keyboard-response","360","151000","0.0-360.0","3K4J6M3CXFF4Q8QE4JQEZQO4FHKGAJ","A2H3CV7SIVYREN","3FW4EL5A3LANKRP91N782LFHPY722Q","","null","<img src=""img/animal5.png"" style=""width:200px; border:14px solid green;"">","null","","","","","",""
"","image-keyboard-response","361","151326","0.0-361.0","3K4J6M3CXFF4Q8QE4JQEZQO4FHKGAJ","A2H3CV7SIVYREN","3FW4EL5A3LANKRP91N782LFHPY722Q","","324","img/animal2.png","75","326","2","1","2","0.5,0,1,1,0.5,0,0,1,0.5",""
"","html-keyboard-response","362","151632","0.0-362.0","3K4J6M3CXFF4Q8QE4JQEZQO4FHKGAJ","A2H3CV7SIVYREN","3FW4EL5A3LANKRP91N782LFHPY722Q","","null","<img src=""img/animal2.png"" style=""width:200px; border:14px solid green;"">","null","","","","","",""
"","instructions","363","155041","0.0-363.0","3K4J6M3CXFF4Q8QE4JQEZQO4FHKGAJ","A2H3CV7SIVYREN","3FW4EL5A3LANKRP91N782LFHPY722Q","[{""page_index"":0,""viewing_time"":3400}]","3407","","","","","","","",""
"","survey-text","364","162694","0.0-364.0","3K4J6M3CXFF4Q8QE4JQEZQO4FHKGAJ","A2H3CV7SIVYREN","3FW4EL5A3LANKRP91N782LFHPY722Q","","7638","","","","","","","","{""Q0"":""A2H3CV7SIVYREN""}"
