"success","trial_type","trial_index","time_elapsed","internal_node_id","assignmentID","mturkID","hitID","view_history","rt","stimulus","key_press","reactionTime","a","r","s","reward_cond","responses"
"true","fullscreen","0","2695","0.0-0.0","3NC5L260MP8NECOK3IPEI08X5JEFOA","A2J1ANUL0BYKUK","30F94FBDNR6BS3JI3VKF41RBJN4TBU","","","","","","","","","",""
"","instructions","1","16919","0.0-1.0","3NC5L260MP8NECOK3IPEI08X5JEFOA","A2J1ANUL0BYKUK","30F94FBDNR6BS3JI3VKF41RBJN4TBU","[{""page_index"":0,""viewing_time"":5918.899999856949},{""page_index"":1,""viewing_time"":573.6000001430511},{""page_index"":2,""viewing_time"":500.2999999523163},{""page_index"":3,""viewing_time"":1736},{""page_index"":4,""viewing_time"":1750},{""page_index"":5,""viewing_time"":897},{""page_index"":6,""viewing_time"":1668.5999999046326},{""page_index"":7,""viewing_time"":1178.4000000953674}]","14223.199999809265","","","","","","","",""
"","image-keyboard-response","2","18714","0.0-2.0","3NC5L260MP8NECOK3IPEI08X5JEFOA","A2J1ANUL0BYKUK","30F94FBDNR6BS3JI3VKF41RBJN4TBU","","1794.5","img/animal2.png","74","1795.1999998092651","1","0","2","1,0.5,0,0,1,0.5,0.5,0,1",""
"","html-keyboard-response","3","19028","0.0-3.0","3NC5L260MP8NECOK3IPEI08X5JEFOA","A2J1ANUL0BYKUK","30F94FBDNR6BS3JI3VKF41RBJN4TBU","","null","<img src=""img/animal2.png"" style=""width:200px;border:14px solid red;"">","null","","","","","",""
"","image-keyboard-response","4","20045","0.0-4.0","3NC5L260MP8NECOK3IPEI08X5JEFOA","A2J1ANUL0BYKUK","30F94FBDNR6BS3JI3VKF41RBJN4TBU","","1016.3000001907349","img/animal6.png","74","1016.8999998569489","1","1","1","1,0.5,0,0,1,0.5,0.5,0,1",""
"","html-keyboard-response","5","20355","0.0-5.0","3NC5L260MP8NECOK3IPEI08X5JEFOA","A2J1ANUL0BYKUK","30F94FBDNR6BS3JI3VKF41RBJN4TBU","","null","<img src=""img/animal6.png"" style=""width:200px; border:14px solid green;"">","null","","","","","",""
"","image-keyboard-response","6","21158","0.0-6.0","3NC5L260MP8NECOK3IPEI08X5JEFOA","A2J1ANUL0BYKUK","30F94FBDNR6BS3JI3VKF41RBJN4TBU","","801.7999999523163","img/animal2.png","75","802.4000000953674","2","1","2","1,0.5,0,0,1,0.5,0.5,0,1",""
"","html-keyboard-response","7","21460","0.0-7.0","3NC5L260MP8NECOK3IPEI08X5JEFOA","A2J1ANUL0BYKUK","30F94FBDNR6BS3JI3VKF41RBJN4TBU","","null","<img src=""img/animal2.png"" style=""width:200px; border:14px solid green;"">","null","","","","","",""
"","image-keyboard-response","8","21908","0.0-8.0","3NC5L260MP8NECOK3IPEI08X5JEFOA","A2J1ANUL0BYKUK","30F94FBDNR6BS3JI3VKF41RBJN4TBU","","447","img/animal2.png","75","447.5","2","1","2","1,0.5,0,0,1,0.5,0.5,0,1",""
"","html-keyboard-response","9","22211","0.0-9.0","3NC5L260MP8NECOK3IPEI08X5JEFOA","A2J1ANUL0BYKUK","30F94FBDNR6BS3JI3VKF41RBJN4TBU","","null","<img src=""img/animal2.png"" style=""width:200px; border:14px solid green;"">","null","","","","","",""
"","image-keyboard-response","10","22896","0.0-10.0","3NC5L260MP8NECOK3IPEI08X5JEFOA","A2J1ANUL0BYKUK","30F94FBDNR6BS3JI3VKF41RBJN4TBU","","684","img/animal5.png","76","684.5","3","1","3","1,0.5,0,0,1,0.5,0.5,0,1",""
"","html-keyboard-response","11","23210","0.0-11.0","3NC5L260MP8NECOK3IPEI08X5JEFOA","A2J1ANUL0BYKUK","30F94FBDNR6BS3JI3VKF41RBJN4TBU","","null","<img src=""img/animal5.png"" style=""width:200px; border:14px solid green;"">","null","","","","","",""
"","image-keyboard-response","12","23676","0.0-12.0","3NC5L260MP8NECOK3IPEI08X5JEFOA","A2J1ANUL0BYKUK","30F94FBDNR6BS3JI3VKF41RBJN4TBU","","465.59999990463257","img/animal2.png","75","466","2","1","2","1,0.5,0,0,1,0.5,0.5,0,1",""
"","html-keyboard-response","13","23991","0.0-13.0","3NC5L260MP8NECOK3IPEI08X5JEFOA","A2J1ANUL0BYKUK","30F94FBDNR6BS3JI3VKF41RBJN4TBU","","null","<img src=""img/animal2.png"" style=""width:200px; border:14px solid green;"">","null","","","","","",""
"","image-keyboard-response","14","24491","0.0-14.0","3NC5L260MP8NECOK3IPEI08X5JEFOA","A2J1ANUL0BYKUK","30F94FBDNR6BS3JI3VKF41RBJN4TBU","","499.90000009536743","img/animal5.png","75","500.2000000476837","2","0","3","1,0.5,0,0,1,0.5,0.5,0,1",""
"","html-keyboard-response","15","24805","0.0-15.0","3NC5L260MP8NECOK3IPEI08X5JEFOA","A2J1ANUL0BYKUK","30F94FBDNR6BS3JI3VKF41RBJN4TBU","","null","<img src=""img/animal5.png"" style=""width:200px;border:14px solid red;"">","null","","","","","",""
"","image-keyboard-response","16","25137","0.0-16.0","3NC5L260MP8NECOK3IPEI08X5JEFOA","A2J1ANUL0BYKUK","30F94FBDNR6BS3JI3VKF41RBJN4TBU","","331.7999999523163","img/animal5.png","76","332.2999999523163","3","1","3","1,0.5,0,0,1,0.5,0.5,0,1",""
"","html-keyboard-response","17","25439","0.0-17.0","3NC5L260MP8NECOK3IPEI08X5JEFOA","A2J1ANUL0BYKUK","30F94FBDNR6BS3JI3VKF41RBJN4TBU","","null","<img src=""img/animal5.png"" style=""width:200px; border:14px solid green;"">","null","","","","","",""
"","image-keyboard-response","18","26452","0.0-18.0","3NC5L260MP8NECOK3IPEI08X5JEFOA","A2J1ANUL0BYKUK","30F94FBDNR6BS3JI3VKF41RBJN4TBU","","1012.5","img/animal6.png","74","1013.0999999046326","1","1","1","1,0.5,0,0,1,0.5,0.5,0,1",""
"","html-keyboard-response","19","26753","0.0-19.0","3NC5L260MP8NECOK3IPEI08X5JEFOA","A2J1ANUL0BYKUK","30F94FBDNR6BS3JI3VKF41RBJN4TBU","","null","<img src=""img/animal6.png"" style=""width:200px; border:14px solid green;"">","null","","","","","",""
"","image-keyboard-response","20","27485","0.0-20.0","3NC5L260MP8NECOK3IPEI08X5JEFOA","A2J1ANUL0BYKUK","30F94FBDNR6BS3JI3VKF41RBJN4TBU","","731.3999998569489","img/animal5.png","76","731.7999999523163","3","1","3","1,0.5,0,0,1,0.5,0.5,0,1",""
"","html-keyboard-response","21","27788","0.0-21.0","3NC5L260MP8NECOK3IPEI08X5JEFOA","A2J1ANUL0BYKUK","30F94FBDNR6BS3JI3VKF41RBJN4TBU","","null","<img src=""img/animal5.png"" style=""width:200px; border:14px solid green;"">","null","","","","","",""
"","image-keyboard-response","22","28581","0.0-22.0","3NC5L260MP8NECOK3IPEI08X5JEFOA","A2J1ANUL0BYKUK","30F94FBDNR6BS3JI3VKF41RBJN4TBU","","793","img/animal2.png","75","793.4000000953674","2","1","2","1,0.5,0,0,1,0.5,0.5,0,1",""
"","html-keyboard-response","23","28893","0.0-23.0","3NC5L260MP8NECOK3IPEI08X5JEFOA","A2J1ANUL0BYKUK","30F94FBDNR6BS3JI3VKF41RBJN4TBU","","null","<img src=""img/animal2.png"" style=""width:200px; border:14px solid green;"">","null","","","","","",""
"","image-keyboard-response","24","29786","0.0-24.0","3NC5L260MP8NECOK3IPEI08X5JEFOA","A2J1ANUL0BYKUK","30F94FBDNR6BS3JI3VKF41RBJN4TBU","","892.2999999523163","img/animal6.png","74","892.6999998092651","1","1","1","1,0.5,0,0,1,0.5,0.5,0,1",""
"","html-keyboard-response","25","30087","0.0-25.0","3NC5L260MP8NECOK3IPEI08X5JEFOA","A2J1ANUL0BYKUK","30F94FBDNR6BS3JI3VKF41RBJN4TBU","","null","<img src=""img/animal6.png"" style=""width:200px; border:14px solid green;"">","null","","","","","",""
"","image-keyboard-response","26","30455","0.0-26.0","3NC5L260MP8NECOK3IPEI08X5JEFOA","A2J1ANUL0BYKUK","30F94FBDNR6BS3JI3VKF41RBJN4TBU","","367","img/animal6.png","74","367.5","1","1","1","1,0.5,0,0,1,0.5,0.5,0,1",""
"","html-keyboard-response","27","30757","0.0-27.0","3NC5L260MP8NECOK3IPEI08X5JEFOA","A2J1ANUL0BYKUK","30F94FBDNR6BS3JI3VKF41RBJN4TBU","","null","<img src=""img/animal6.png"" style=""width:200px; border:14px solid green;"">","null","","","","","",""
"","image-keyboard-response","28","31616","0.0-28.0","3NC5L260MP8NECOK3IPEI08X5JEFOA","A2J1ANUL0BYKUK","30F94FBDNR6BS3JI3VKF41RBJN4TBU","","858.8000001907349","img/animal5.png","76","859.2999999523163","3","1","3","1,0.5,0,0,1,0.5,0.5,0,1",""
"","html-keyboard-response","29","31917","0.0-29.0","3NC5L260MP8NECOK3IPEI08X5JEFOA","A2J1ANUL0BYKUK","30F94FBDNR6BS3JI3VKF41RBJN4TBU","","null","<img src=""img/animal5.png"" style=""width:200px; border:14px solid green;"">","null","","","","","",""
"","image-keyboard-response","30","32492","0.0-30.0","3NC5L260MP8NECOK3IPEI08X5JEFOA","A2J1ANUL0BYKUK","30F94FBDNR6BS3JI3VKF41RBJN4TBU","","574.3999998569489","img/animal6.png","74","574.8000001907349","1","1","1","1,0.5,0,0,1,0.5,0.5,0,1",""
"","html-keyboard-response","31","32793","0.0-31.0","3NC5L260MP8NECOK3IPEI08X5JEFOA","A2J1ANUL0BYKUK","30F94FBDNR6BS3JI3VKF41RBJN4TBU","","null","<img src=""img/animal6.png"" style=""width:200px; border:14px solid green;"">","null","","","","","",""
"","image-keyboard-response","32","33385","0.0-32.0","3NC5L260MP8NECOK3IPEI08X5JEFOA","A2J1ANUL0BYKUK","30F94FBDNR6BS3JI3VKF41RBJN4TBU","","590.9000000953674","img/animal5.png","76","591.5","3","1","3","1,0.5,0,0,1,0.5,0.5,0,1",""
"","html-keyboard-response","33","33686","0.0-33.0","3NC5L260MP8NECOK3IPEI08X5JEFOA","A2J1ANUL0BYKUK","30F94FBDNR6BS3JI3VKF41RBJN4TBU","","null","<img src=""img/animal5.png"" style=""width:200px; border:14px solid green;"">","null","","","","","",""
"","image-keyboard-response","34","34837","0.0-34.0","3NC5L260MP8NECOK3IPEI08X5JEFOA","A2J1ANUL0BYKUK","30F94FBDNR6BS3JI3VKF41RBJN4TBU","","1150.3999998569489","img/animal2.png","75","1150.7000000476837","2","1","2","1,0.5,0,0,1,0.5,0.5,0,1",""
"","html-keyboard-response","35","35139","0.0-35.0","3NC5L260MP8NECOK3IPEI08X5JEFOA","A2J1ANUL0BYKUK","30F94FBDNR6BS3JI3VKF41RBJN4TBU","","null","<img src=""img/animal2.png"" style=""width:200px; border:14px solid green;"">","null","","","","","",""
"","image-keyboard-response","36","35443","0.0-36.0","3NC5L260MP8NECOK3IPEI08X5JEFOA","A2J1ANUL0BYKUK","30F94FBDNR6BS3JI3VKF41RBJN4TBU","","303.7999999523163","img/animal2.png","75","304.30000019073486","2","1","2","1,0.5,0,0,1,0.5,0.5,0,1",""
"","html-keyboard-response","37","35744","0.0-37.0","3NC5L260MP8NECOK3IPEI08X5JEFOA","A2J1ANUL0BYKUK","30F94FBDNR6BS3JI3VKF41RBJN4TBU","","null","<img src=""img/animal2.png"" style=""width:200px; border:14px solid green;"">","null","","","","","",""
"","image-keyboard-response","38","36448","0.0-38.0","3NC5L260MP8NECOK3IPEI08X5JEFOA","A2J1ANUL0BYKUK","30F94FBDNR6BS3JI3VKF41RBJN4TBU","","703","img/animal5.png","76","703.7000000476837","3","1","3","1,0.5,0,0,1,0.5,0.5,0,1",""
"","html-keyboard-response","39","36750","0.0-39.0","3NC5L260MP8NECOK3IPEI08X5JEFOA","A2J1ANUL0BYKUK","30F94FBDNR6BS3JI3VKF41RBJN4TBU","","null","<img src=""img/animal5.png"" style=""width:200px; border:14px solid green;"">","null","","","","","",""
"","image-keyboard-response","40","37545","0.0-40.0","3NC5L260MP8NECOK3IPEI08X5JEFOA","A2J1ANUL0BYKUK","30F94FBDNR6BS3JI3VKF41RBJN4TBU","","794.4000000953674","img/animal2.png","75","794.9000000953674","2","1","2","1,0.5,0,0,1,0.5,0.5,0,1",""
"","html-keyboard-response","41","37847","0.0-41.0","3NC5L260MP8NECOK3IPEI08X5JEFOA","A2J1ANUL0BYKUK","30F94FBDNR6BS3JI3VKF41RBJN4TBU","","null","<img src=""img/animal2.png"" style=""width:200px; border:14px solid green;"">","null","","","","","",""
"","image-keyboard-response","42","38263","0.0-42.0","3NC5L260MP8NECOK3IPEI08X5JEFOA","A2J1ANUL0BYKUK","30F94FBDNR6BS3JI3VKF41RBJN4TBU","","415.2999999523163","img/animal5.png","76","415.7000000476837","3","1","3","1,0.5,0,0,1,0.5,0.5,0,1",""
"","html-keyboard-response","43","38573","0.0-43.0","3NC5L260MP8NECOK3IPEI08X5JEFOA","A2J1ANUL0BYKUK","30F94FBDNR6BS3JI3VKF41RBJN4TBU","","null","<img src=""img/animal5.png"" style=""width:200px; border:14px solid green;"">","null","","","","","",""
"","image-keyboard-response","44","39072","0.0-44.0","3NC5L260MP8NECOK3IPEI08X5JEFOA","A2J1ANUL0BYKUK","30F94FBDNR6BS3JI3VKF41RBJN4TBU","","498","img/animal2.png","75","498.5","2","1","2","1,0.5,0,0,1,0.5,0.5,0,1",""
"","html-keyboard-response","45","39373","0.0-45.0","3NC5L260MP8NECOK3IPEI08X5JEFOA","A2J1ANUL0BYKUK","30F94FBDNR6BS3JI3VKF41RBJN4TBU","","null","<img src=""img/animal2.png"" style=""width:200px; border:14px solid green;"">","null","","","","","",""
"","image-keyboard-response","46","39733","0.0-46.0","3NC5L260MP8NECOK3IPEI08X5JEFOA","A2J1ANUL0BYKUK","30F94FBDNR6BS3JI3VKF41RBJN4TBU","","359.2999999523163","img/animal5.png","76","359.7000000476837","3","1","3","1,0.5,0,0,1,0.5,0.5,0,1",""
"","html-keyboard-response","47","40035","0.0-47.0","3NC5L260MP8NECOK3IPEI08X5JEFOA","A2J1ANUL0BYKUK","30F94FBDNR6BS3JI3VKF41RBJN4TBU","","null","<img src=""img/animal5.png"" style=""width:200px; border:14px solid green;"">","null","","","","","",""
"","image-keyboard-response","48","40498","0.0-48.0","3NC5L260MP8NECOK3IPEI08X5JEFOA","A2J1ANUL0BYKUK","30F94FBDNR6BS3JI3VKF41RBJN4TBU","","462.69999980926514","img/animal2.png","75","463.10000014305115","2","1","2","1,0.5,0,0,1,0.5,0.5,0,1",""
"","html-keyboard-response","49","40800","0.0-49.0","3NC5L260MP8NECOK3IPEI08X5JEFOA","A2J1ANUL0BYKUK","30F94FBDNR6BS3JI3VKF41RBJN4TBU","","null","<img src=""img/animal2.png"" style=""width:200px; border:14px solid green;"">","null","","","","","",""
"","image-keyboard-response","50","41392","0.0-50.0","3NC5L260MP8NECOK3IPEI08X5JEFOA","A2J1ANUL0BYKUK","30F94FBDNR6BS3JI3VKF41RBJN4TBU","","591.6999998092651","img/animal6.png","74","592.2000000476837","1","1","1","1,0.5,0,0,1,0.5,0.5,0,1",""
"","html-keyboard-response","51","41695","0.0-51.0","3NC5L260MP8NECOK3IPEI08X5JEFOA","A2J1ANUL0BYKUK","30F94FBDNR6BS3JI3VKF41RBJN4TBU","","null","<img src=""img/animal6.png"" style=""width:200px; border:14px solid green;"">","null","","","","","",""
"","image-keyboard-response","52","42093","0.0-52.0","3NC5L260MP8NECOK3IPEI08X5JEFOA","A2J1ANUL0BYKUK","30F94FBDNR6BS3JI3VKF41RBJN4TBU","","397.5","img/animal6.png","74","398","1","1","1","1,0.5,0,0,1,0.5,0.5,0,1",""
"","html-keyboard-response","53","42394","0.0-53.0","3NC5L260MP8NECOK3IPEI08X5JEFOA","A2J1ANUL0BYKUK","30F94FBDNR6BS3JI3VKF41RBJN4TBU","","null","<img src=""img/animal6.png"" style=""width:200px; border:14px solid green;"">","null","","","","","",""
"","image-keyboard-response","54","42748","0.0-54.0","3NC5L260MP8NECOK3IPEI08X5JEFOA","A2J1ANUL0BYKUK","30F94FBDNR6BS3JI3VKF41RBJN4TBU","","353.2999999523163","img/animal6.png","74","353.7000000476837","1","1","1","1,0.5,0,0,1,0.5,0.5,0,1",""
"","html-keyboard-response","55","43050","0.0-55.0","3NC5L260MP8NECOK3IPEI08X5JEFOA","A2J1ANUL0BYKUK","30F94FBDNR6BS3JI3VKF41RBJN4TBU","","null","<img src=""img/animal6.png"" style=""width:200px; border:14px solid green;"">","null","","","","","",""
"","image-keyboard-response","56","43389","0.0-56.0","3NC5L260MP8NECOK3IPEI08X5JEFOA","A2J1ANUL0BYKUK","30F94FBDNR6BS3JI3VKF41RBJN4TBU","","338.59999990463257","img/animal6.png","74","339","1","1","1","1,0.5,0,0,1,0.5,0.5,0,1",""
"","html-keyboard-response","57","43690","0.0-57.0","3NC5L260MP8NECOK3IPEI08X5JEFOA","A2J1ANUL0BYKUK","30F94FBDNR6BS3JI3VKF41RBJN4TBU","","null","<img src=""img/animal6.png"" style=""width:200px; border:14px solid green;"">","null","","","","","",""
"","image-keyboard-response","58","44432","0.0-58.0","3NC5L260MP8NECOK3IPEI08X5JEFOA","A2J1ANUL0BYKUK","30F94FBDNR6BS3JI3VKF41RBJN4TBU","","741.2999999523163","img/animal5.png","76","741.7999999523163","3","1","3","1,0.5,0,0,1,0.5,0.5,0,1",""
"","html-keyboard-response","59","44734","0.0-59.0","3NC5L260MP8NECOK3IPEI08X5JEFOA","A2J1ANUL0BYKUK","30F94FBDNR6BS3JI3VKF41RBJN4TBU","","null","<img src=""img/animal5.png"" style=""width:200px; border:14px solid green;"">","null","","","","","",""
"","image-keyboard-response","60","46399","0.0-60.0","3NC5L260MP8NECOK3IPEI08X5JEFOA","A2J1ANUL0BYKUK","30F94FBDNR6BS3JI3VKF41RBJN4TBU","","1665.1000001430511","img/animal6.png","74","1665.5","1","1","1","1,0.5,0,0,1,0.5,0.5,0,1",""
"","html-keyboard-response","61","46701","0.0-61.0","3NC5L260MP8NECOK3IPEI08X5JEFOA","A2J1ANUL0BYKUK","30F94FBDNR6BS3JI3VKF41RBJN4TBU","","null","<img src=""img/animal6.png"" style=""width:200px; border:14px solid green;"">","null","","","","","",""
"","image-keyboard-response","62","47201","0.0-62.0","3NC5L260MP8NECOK3IPEI08X5JEFOA","A2J1ANUL0BYKUK","30F94FBDNR6BS3JI3VKF41RBJN4TBU","","499.2999999523163","img/animal5.png","76","499.7000000476837","3","1","3","1,0.5,0,0,1,0.5,0.5,0,1",""
"","html-keyboard-response","63","47503","0.0-63.0","3NC5L260MP8NECOK3IPEI08X5JEFOA","A2J1ANUL0BYKUK","30F94FBDNR6BS3JI3VKF41RBJN4TBU","","null","<img src=""img/animal5.png"" style=""width:200px; border:14px solid green;"">","null","","","","","",""
"","image-keyboard-response","64","47861","0.0-64.0","3NC5L260MP8NECOK3IPEI08X5JEFOA","A2J1ANUL0BYKUK","30F94FBDNR6BS3JI3VKF41RBJN4TBU","","357.7000000476837","img/animal5.png","76","358.19999980926514","3","1","3","1,0.5,0,0,1,0.5,0.5,0,1",""
"","html-keyboard-response","65","48163","0.0-65.0","3NC5L260MP8NECOK3IPEI08X5JEFOA","A2J1ANUL0BYKUK","30F94FBDNR6BS3JI3VKF41RBJN4TBU","","null","<img src=""img/animal5.png"" style=""width:200px; border:14px solid green;"">","null","","","","","",""
"","image-keyboard-response","66","48701","0.0-66.0","3NC5L260MP8NECOK3IPEI08X5JEFOA","A2J1ANUL0BYKUK","30F94FBDNR6BS3JI3VKF41RBJN4TBU","","537.7999999523163","img/animal2.png","75","538.1000001430511","2","1","2","1,0.5,0,0,1,0.5,0.5,0,1",""
"","html-keyboard-response","67","49002","0.0-67.0","3NC5L260MP8NECOK3IPEI08X5JEFOA","A2J1ANUL0BYKUK","30F94FBDNR6BS3JI3VKF41RBJN4TBU","","null","<img src=""img/animal2.png"" style=""width:200px; border:14px solid green;"">","null","","","","","",""
"","image-keyboard-response","68","49777","0.0-68.0","3NC5L260MP8NECOK3IPEI08X5JEFOA","A2J1ANUL0BYKUK","30F94FBDNR6BS3JI3VKF41RBJN4TBU","","773.5","img/animal6.png","74","773.9000000953674","1","1","1","1,0.5,0,0,1,0.5,0.5,0,1",""
"","html-keyboard-response","69","50078","0.0-69.0","3NC5L260MP8NECOK3IPEI08X5JEFOA","A2J1ANUL0BYKUK","30F94FBDNR6BS3JI3VKF41RBJN4TBU","","null","<img src=""img/animal6.png"" style=""width:200px; border:14px solid green;"">","null","","","","","",""
"","image-keyboard-response","70","51177","0.0-70.0","3NC5L260MP8NECOK3IPEI08X5JEFOA","A2J1ANUL0BYKUK","30F94FBDNR6BS3JI3VKF41RBJN4TBU","","1097.5999999046326","img/animal5.png","76","1098.1999998092651","3","1","3","1,0.5,0,0,1,0.5,0.5,0,1",""
"","html-keyboard-response","71","51478","0.0-71.0","3NC5L260MP8NECOK3IPEI08X5JEFOA","A2J1ANUL0BYKUK","30F94FBDNR6BS3JI3VKF41RBJN4TBU","","null","<img src=""img/animal5.png"" style=""width:200px; border:14px solid green;"">","null","","","","","",""
"","image-keyboard-response","72","52160","0.0-72.0","3NC5L260MP8NECOK3IPEI08X5JEFOA","A2J1ANUL0BYKUK","30F94FBDNR6BS3JI3VKF41RBJN4TBU","","681.5999999046326","img/animal6.png","74","681.9000000953674","1","1","1","1,0.5,0,0,1,0.5,0.5,0,1",""
"","html-keyboard-response","73","52462","0.0-73.0","3NC5L260MP8NECOK3IPEI08X5JEFOA","A2J1ANUL0BYKUK","30F94FBDNR6BS3JI3VKF41RBJN4TBU","","null","<img src=""img/animal6.png"" style=""width:200px; border:14px solid green;"">","null","","","","","",""
"","image-keyboard-response","74","53142","0.0-74.0","3NC5L260MP8NECOK3IPEI08X5JEFOA","A2J1ANUL0BYKUK","30F94FBDNR6BS3JI3VKF41RBJN4TBU","","679.2000000476837","img/animal5.png","76","679.5999999046326","3","1","3","1,0.5,0,0,1,0.5,0.5,0,1",""
"","html-keyboard-response","75","53443","0.0-75.0","3NC5L260MP8NECOK3IPEI08X5JEFOA","A2J1ANUL0BYKUK","30F94FBDNR6BS3JI3VKF41RBJN4TBU","","null","<img src=""img/animal5.png"" style=""width:200px; border:14px solid green;"">","null","","","","","",""
"","image-keyboard-response","76","53847","0.0-76.0","3NC5L260MP8NECOK3IPEI08X5JEFOA","A2J1ANUL0BYKUK","30F94FBDNR6BS3JI3VKF41RBJN4TBU","","403.09999990463257","img/animal5.png","76","403.5","3","1","3","1,0.5,0,0,1,0.5,0.5,0,1",""
"","html-keyboard-response","77","54149","0.0-77.0","3NC5L260MP8NECOK3IPEI08X5JEFOA","A2J1ANUL0BYKUK","30F94FBDNR6BS3JI3VKF41RBJN4TBU","","null","<img src=""img/animal5.png"" style=""width:200px; border:14px solid green;"">","null","","","","","",""
"","image-keyboard-response","78","54462","0.0-78.0","3NC5L260MP8NECOK3IPEI08X5JEFOA","A2J1ANUL0BYKUK","30F94FBDNR6BS3JI3VKF41RBJN4TBU","","311.90000009536743","img/animal5.png","76","312.60000014305115","3","1","3","1,0.5,0,0,1,0.5,0.5,0,1",""
"","html-keyboard-response","79","54764","0.0-79.0","3NC5L260MP8NECOK3IPEI08X5JEFOA","A2J1ANUL0BYKUK","30F94FBDNR6BS3JI3VKF41RBJN4TBU","","null","<img src=""img/animal5.png"" style=""width:200px; border:14px solid green;"">","null","","","","","",""
"","image-keyboard-response","80","55210","0.0-80.0","3NC5L260MP8NECOK3IPEI08X5JEFOA","A2J1ANUL0BYKUK","30F94FBDNR6BS3JI3VKF41RBJN4TBU","","445.2999999523163","img/animal6.png","74","445.7000000476837","1","1","1","1,0.5,0,0,1,0.5,0.5,0,1",""
"","html-keyboard-response","81","55512","0.0-81.0","3NC5L260MP8NECOK3IPEI08X5JEFOA","A2J1ANUL0BYKUK","30F94FBDNR6BS3JI3VKF41RBJN4TBU","","null","<img src=""img/animal6.png"" style=""width:200px; border:14px solid green;"">","null","","","","","",""
"","image-keyboard-response","82","55829","0.0-82.0","3NC5L260MP8NECOK3IPEI08X5JEFOA","A2J1ANUL0BYKUK","30F94FBDNR6BS3JI3VKF41RBJN4TBU","","316.59999990463257","img/animal6.png","74","317.2000000476837","1","1","1","1,0.5,0,0,1,0.5,0.5,0,1",""
"","html-keyboard-response","83","56131","0.0-83.0","3NC5L260MP8NECOK3IPEI08X5JEFOA","A2J1ANUL0BYKUK","30F94FBDNR6BS3JI3VKF41RBJN4TBU","","null","<img src=""img/animal6.png"" style=""width:200px; border:14px solid green;"">","null","","","","","",""
"","image-keyboard-response","84","56430","0.0-84.0","3NC5L260MP8NECOK3IPEI08X5JEFOA","A2J1ANUL0BYKUK","30F94FBDNR6BS3JI3VKF41RBJN4TBU","","299.19999980926514","img/animal6.png","74","299.60000014305115","1","1","1","1,0.5,0,0,1,0.5,0.5,0,1",""
"","html-keyboard-response","85","56732","0.0-85.0","3NC5L260MP8NECOK3IPEI08X5JEFOA","A2J1ANUL0BYKUK","30F94FBDNR6BS3JI3VKF41RBJN4TBU","","null","<img src=""img/animal6.png"" style=""width:200px; border:14px solid green;"">","null","","","","","",""
"","image-keyboard-response","86","57229","0.0-86.0","3NC5L260MP8NECOK3IPEI08X5JEFOA","A2J1ANUL0BYKUK","30F94FBDNR6BS3JI3VKF41RBJN4TBU","","496.5","img/animal5.png","76","497.10000014305115","3","1","3","1,0.5,0,0,1,0.5,0.5,0,1",""
"","html-keyboard-response","87","57531","0.0-87.0","3NC5L260MP8NECOK3IPEI08X5JEFOA","A2J1ANUL0BYKUK","30F94FBDNR6BS3JI3VKF41RBJN4TBU","","null","<img src=""img/animal5.png"" style=""width:200px; border:14px solid green;"">","null","","","","","",""
"","image-keyboard-response","88","57979","0.0-88.0","3NC5L260MP8NECOK3IPEI08X5JEFOA","A2J1ANUL0BYKUK","30F94FBDNR6BS3JI3VKF41RBJN4TBU","","447.5","img/animal2.png","75","447.90000009536743","2","1","2","1,0.5,0,0,1,0.5,0.5,0,1",""
"","html-keyboard-response","89","58281","0.0-89.0","3NC5L260MP8NECOK3IPEI08X5JEFOA","A2J1ANUL0BYKUK","30F94FBDNR6BS3JI3VKF41RBJN4TBU","","null","<img src=""img/animal2.png"" style=""width:200px; border:14px solid green;"">","null","","","","","",""
"","image-keyboard-response","90","58593","0.0-90.0","3NC5L260MP8NECOK3IPEI08X5JEFOA","A2J1ANUL0BYKUK","30F94FBDNR6BS3JI3VKF41RBJN4TBU","","311","img/animal2.png","75","311.5","2","1","2","1,0.5,0,0,1,0.5,0.5,0,1",""
"","html-keyboard-response","91","58908","0.0-91.0","3NC5L260MP8NECOK3IPEI08X5JEFOA","A2J1ANUL0BYKUK","30F94FBDNR6BS3JI3VKF41RBJN4TBU","","null","<img src=""img/animal2.png"" style=""width:200px; border:14px solid green;"">","null","","","","","",""
"","image-keyboard-response","92","59625","0.0-92.0","3NC5L260MP8NECOK3IPEI08X5JEFOA","A2J1ANUL0BYKUK","30F94FBDNR6BS3JI3VKF41RBJN4TBU","","715.7999999523163","img/animal6.png","74","716.4000000953674","1","1","1","1,0.5,0,0,1,0.5,0.5,0,1",""
"","html-keyboard-response","93","59926","0.0-93.0","3NC5L260MP8NECOK3IPEI08X5JEFOA","A2J1ANUL0BYKUK","30F94FBDNR6BS3JI3VKF41RBJN4TBU","","null","<img src=""img/animal6.png"" style=""width:200px; border:14px solid green;"">","null","","","","","",""
"","image-keyboard-response","94","60293","0.0-94.0","3NC5L260MP8NECOK3IPEI08X5JEFOA","A2J1ANUL0BYKUK","30F94FBDNR6BS3JI3VKF41RBJN4TBU","","366","img/animal6.png","74","366.59999990463257","1","1","1","1,0.5,0,0,1,0.5,0.5,0,1",""
"","html-keyboard-response","95","60594","0.0-95.0","3NC5L260MP8NECOK3IPEI08X5JEFOA","A2J1ANUL0BYKUK","30F94FBDNR6BS3JI3VKF41RBJN4TBU","","null","<img src=""img/animal6.png"" style=""width:200px; border:14px solid green;"">","null","","","","","",""
"","image-keyboard-response","96","60900","0.0-96.0","3NC5L260MP8NECOK3IPEI08X5JEFOA","A2J1ANUL0BYKUK","30F94FBDNR6BS3JI3VKF41RBJN4TBU","","305.5","img/animal6.png","74","305.90000009536743","1","1","1","1,0.5,0,0,1,0.5,0.5,0,1",""
"","html-keyboard-response","97","61202","0.0-97.0","3NC5L260MP8NECOK3IPEI08X5JEFOA","A2J1ANUL0BYKUK","30F94FBDNR6BS3JI3VKF41RBJN4TBU","","null","<img src=""img/animal6.png"" style=""width:200px; border:14px solid green;"">","null","","","","","",""
"","image-keyboard-response","98","61533","0.0-98.0","3NC5L260MP8NECOK3IPEI08X5JEFOA","A2J1ANUL0BYKUK","30F94FBDNR6BS3JI3VKF41RBJN4TBU","","329.89999985694885","img/animal6.png","74","330.40000009536743","1","1","1","1,0.5,0,0,1,0.5,0.5,0,1",""
"","html-keyboard-response","99","61834","0.0-99.0","3NC5L260MP8NECOK3IPEI08X5JEFOA","A2J1ANUL0BYKUK","30F94FBDNR6BS3JI3VKF41RBJN4TBU","","null","<img src=""img/animal6.png"" style=""width:200px; border:14px solid green;"">","null","","","","","",""
"","image-keyboard-response","100","62152","0.0-100.0","3NC5L260MP8NECOK3IPEI08X5JEFOA","A2J1ANUL0BYKUK","30F94FBDNR6BS3JI3VKF41RBJN4TBU","","317.2000000476837","img/animal6.png","74","317.5","1","1","1","1,0.5,0,0,1,0.5,0.5,0,1",""
"","html-keyboard-response","101","62453","0.0-101.0","3NC5L260MP8NECOK3IPEI08X5JEFOA","A2J1ANUL0BYKUK","30F94FBDNR6BS3JI3VKF41RBJN4TBU","","null","<img src=""img/animal6.png"" style=""width:200px; border:14px solid green;"">","null","","","","","",""
"","image-keyboard-response","102","62933","0.0-102.0","3NC5L260MP8NECOK3IPEI08X5JEFOA","A2J1ANUL0BYKUK","30F94FBDNR6BS3JI3VKF41RBJN4TBU","","479.5","img/animal5.png","76","479.80000019073486","3","1","3","1,0.5,0,0,1,0.5,0.5,0,1",""
"","html-keyboard-response","103","63234","0.0-103.0","3NC5L260MP8NECOK3IPEI08X5JEFOA","A2J1ANUL0BYKUK","30F94FBDNR6BS3JI3VKF41RBJN4TBU","","null","<img src=""img/animal5.png"" style=""width:200px; border:14px solid green;"">","null","","","","","",""
"","image-keyboard-response","104","63934","0.0-104.0","3NC5L260MP8NECOK3IPEI08X5JEFOA","A2J1ANUL0BYKUK","30F94FBDNR6BS3JI3VKF41RBJN4TBU","","699.2000000476837","img/animal2.png","75","699.7000000476837","2","1","2","1,0.5,0,0,1,0.5,0.5,0,1",""
"","html-keyboard-response","105","64235","0.0-105.0","3NC5L260MP8NECOK3IPEI08X5JEFOA","A2J1ANUL0BYKUK","30F94FBDNR6BS3JI3VKF41RBJN4TBU","","null","<img src=""img/animal2.png"" style=""width:200px; border:14px solid green;"">","null","","","","","",""
"","image-keyboard-response","106","64974","0.0-106.0","3NC5L260MP8NECOK3IPEI08X5JEFOA","A2J1ANUL0BYKUK","30F94FBDNR6BS3JI3VKF41RBJN4TBU","","738","img/animal6.png","74","738.2999999523163","1","1","1","1,0.5,0,0,1,0.5,0.5,0,1",""
"","html-keyboard-response","107","65275","0.0-107.0","3NC5L260MP8NECOK3IPEI08X5JEFOA","A2J1ANUL0BYKUK","30F94FBDNR6BS3JI3VKF41RBJN4TBU","","null","<img src=""img/animal6.png"" style=""width:200px; border:14px solid green;"">","null","","","","","",""
"","image-keyboard-response","108","65756","0.0-108.0","3NC5L260MP8NECOK3IPEI08X5JEFOA","A2J1ANUL0BYKUK","30F94FBDNR6BS3JI3VKF41RBJN4TBU","","480.5","img/animal5.png","76","481.09999990463257","3","1","3","1,0.5,0,0,1,0.5,0.5,0,1",""
"","html-keyboard-response","109","66058","0.0-109.0","3NC5L260MP8NECOK3IPEI08X5JEFOA","A2J1ANUL0BYKUK","30F94FBDNR6BS3JI3VKF41RBJN4TBU","","null","<img src=""img/animal5.png"" style=""width:200px; border:14px solid green;"">","null","","","","","",""
"","image-keyboard-response","110","66924","0.0-110.0","3NC5L260MP8NECOK3IPEI08X5JEFOA","A2J1ANUL0BYKUK","30F94FBDNR6BS3JI3VKF41RBJN4TBU","","865.5","img/animal6.png","74","866","1","1","1","1,0.5,0,0,1,0.5,0.5,0,1",""
"","html-keyboard-response","111","67225","0.0-111.0","3NC5L260MP8NECOK3IPEI08X5JEFOA","A2J1ANUL0BYKUK","30F94FBDNR6BS3JI3VKF41RBJN4TBU","","null","<img src=""img/animal6.png"" style=""width:200px; border:14px solid green;"">","null","","","","","",""
"","image-keyboard-response","112","67566","0.0-112.0","3NC5L260MP8NECOK3IPEI08X5JEFOA","A2J1ANUL0BYKUK","30F94FBDNR6BS3JI3VKF41RBJN4TBU","","340.40000009536743","img/animal6.png","74","340.7000000476837","1","1","1","1,0.5,0,0,1,0.5,0.5,0,1",""
"","html-keyboard-response","113","67868","0.0-113.0","3NC5L260MP8NECOK3IPEI08X5JEFOA","A2J1ANUL0BYKUK","30F94FBDNR6BS3JI3VKF41RBJN4TBU","","null","<img src=""img/animal6.png"" style=""width:200px; border:14px solid green;"">","null","","","","","",""
"","image-keyboard-response","114","68403","0.0-114.0","3NC5L260MP8NECOK3IPEI08X5JEFOA","A2J1ANUL0BYKUK","30F94FBDNR6BS3JI3VKF41RBJN4TBU","","534.7999999523163","img/animal5.png","75","535.2999999523163","2","0","3","1,0.5,0,0,1,0.5,0.5,0,1",""
"","html-keyboard-response","115","68718","0.0-115.0","3NC5L260MP8NECOK3IPEI08X5JEFOA","A2J1ANUL0BYKUK","30F94FBDNR6BS3JI3VKF41RBJN4TBU","","null","<img src=""img/animal5.png"" style=""width:200px;border:14px solid red;"">","null","","","","","",""
"","image-keyboard-response","116","69576","0.0-116.0","3NC5L260MP8NECOK3IPEI08X5JEFOA","A2J1ANUL0BYKUK","30F94FBDNR6BS3JI3VKF41RBJN4TBU","","857.7000000476837","img/animal2.png","75","858.1000001430511","2","1","2","1,0.5,0,0,1,0.5,0.5,0,1",""
"","html-keyboard-response","117","69877","0.0-117.0","3NC5L260MP8NECOK3IPEI08X5JEFOA","A2J1ANUL0BYKUK","30F94FBDNR6BS3JI3VKF41RBJN4TBU","","null","<img src=""img/animal2.png"" style=""width:200px; border:14px solid green;"">","null","","","","","",""
"","image-keyboard-response","118","71051","0.0-118.0","3NC5L260MP8NECOK3IPEI08X5JEFOA","A2J1ANUL0BYKUK","30F94FBDNR6BS3JI3VKF41RBJN4TBU","","1173.2000000476837","img/animal5.png","76","1173.7000000476837","3","1","3","1,0.5,0,0,1,0.5,0.5,0,1",""
"","html-keyboard-response","119","71352","0.0-119.0","3NC5L260MP8NECOK3IPEI08X5JEFOA","A2J1ANUL0BYKUK","30F94FBDNR6BS3JI3VKF41RBJN4TBU","","null","<img src=""img/animal5.png"" style=""width:200px; border:14px solid green;"">","null","","","","","",""
"","image-keyboard-response","120","71836","0.0-120.0","3NC5L260MP8NECOK3IPEI08X5JEFOA","A2J1ANUL0BYKUK","30F94FBDNR6BS3JI3VKF41RBJN4TBU","","483.40000009536743","img/animal6.png","74","483.7000000476837","1","1","1","1,0.5,0,0,1,0.5,0.5,0,1",""
"","html-keyboard-response","121","72137","0.0-121.0","3NC5L260MP8NECOK3IPEI08X5JEFOA","A2J1ANUL0BYKUK","30F94FBDNR6BS3JI3VKF41RBJN4TBU","","null","<img src=""img/animal6.png"" style=""width:200px; border:14px solid green;"">","null","","","","","",""
"","image-keyboard-response","122","72644","0.0-122.0","3NC5L260MP8NECOK3IPEI08X5JEFOA","A2J1ANUL0BYKUK","30F94FBDNR6BS3JI3VKF41RBJN4TBU","","506.10000014305115","img/animal2.png","76","506.7999999523163","3","1","2","1,0.5,0,0,1,0.5,0.5,0,1",""
"","html-keyboard-response","123","72947","0.0-123.0","3NC5L260MP8NECOK3IPEI08X5JEFOA","A2J1ANUL0BYKUK","30F94FBDNR6BS3JI3VKF41RBJN4TBU","","null","<img src=""img/animal2.png"" style=""width:200px; border:14px solid green;"">","null","","","","","",""
"","image-keyboard-response","124","72950","0.0-124.0","3NC5L260MP8NECOK3IPEI08X5JEFOA","A2J1ANUL0BYKUK","30F94FBDNR6BS3JI3VKF41RBJN4TBU","","2.700000047683716","img/animal6.png","75","3.0999999046325684","2","0","1","1,0.5,0,0,1,0.5,0.5,0,1",""
"","html-keyboard-response","125","73251","0.0-125.0","3NC5L260MP8NECOK3IPEI08X5JEFOA","A2J1ANUL0BYKUK","30F94FBDNR6BS3JI3VKF41RBJN4TBU","","null","<img src=""img/animal6.png"" style=""width:200px;border:14px solid red;"">","null","","","","","",""
"","image-keyboard-response","126","75328","0.0-126.0","3NC5L260MP8NECOK3IPEI08X5JEFOA","A2J1ANUL0BYKUK","30F94FBDNR6BS3JI3VKF41RBJN4TBU","","2076","img/animal6.png","74","2076.300000190735","1","1","1","1,0.5,0,0,1,0.5,0.5,0,1",""
"","html-keyboard-response","127","75630","0.0-127.0","3NC5L260MP8NECOK3IPEI08X5JEFOA","A2J1ANUL0BYKUK","30F94FBDNR6BS3JI3VKF41RBJN4TBU","","null","<img src=""img/animal6.png"" style=""width:200px; border:14px solid green;"">","null","","","","","",""
"","image-keyboard-response","128","76335","0.0-128.0","3NC5L260MP8NECOK3IPEI08X5JEFOA","A2J1ANUL0BYKUK","30F94FBDNR6BS3JI3VKF41RBJN4TBU","","704.3999998569489","img/animal2.png","75","705","2","1","2","1,0.5,0,0,1,0.5,0.5,0,1",""
"","html-keyboard-response","129","76637","0.0-129.0","3NC5L260MP8NECOK3IPEI08X5JEFOA","A2J1ANUL0BYKUK","30F94FBDNR6BS3JI3VKF41RBJN4TBU","","null","<img src=""img/animal2.png"" style=""width:200px; border:14px solid green;"">","null","","","","","",""
"","image-keyboard-response","130","76991","0.0-130.0","3NC5L260MP8NECOK3IPEI08X5JEFOA","A2J1ANUL0BYKUK","30F94FBDNR6BS3JI3VKF41RBJN4TBU","","353.39999985694885","img/animal2.png","75","353.89999985694885","2","1","2","1,0.5,0,0,1,0.5,0.5,0,1",""
"","html-keyboard-response","131","77293","0.0-131.0","3NC5L260MP8NECOK3IPEI08X5JEFOA","A2J1ANUL0BYKUK","30F94FBDNR6BS3JI3VKF41RBJN4TBU","","null","<img src=""img/animal2.png"" style=""width:200px; border:14px solid green;"">","null","","","","","",""
"","image-keyboard-response","132","77869","0.0-132.0","3NC5L260MP8NECOK3IPEI08X5JEFOA","A2J1ANUL0BYKUK","30F94FBDNR6BS3JI3VKF41RBJN4TBU","","575.3999998569489","img/animal5.png","76","575.8000001907349","3","1","3","1,0.5,0,0,1,0.5,0.5,0,1",""
"","html-keyboard-response","133","78171","0.0-133.0","3NC5L260MP8NECOK3IPEI08X5JEFOA","A2J1ANUL0BYKUK","30F94FBDNR6BS3JI3VKF41RBJN4TBU","","null","<img src=""img/animal5.png"" style=""width:200px; border:14px solid green;"">","null","","","","","",""
"","image-keyboard-response","134","78499","0.0-134.0","3NC5L260MP8NECOK3IPEI08X5JEFOA","A2J1ANUL0BYKUK","30F94FBDNR6BS3JI3VKF41RBJN4TBU","","327","img/animal5.png","76","327.5","3","1","3","1,0.5,0,0,1,0.5,0.5,0,1",""
"","html-keyboard-response","135","78801","0.0-135.0","3NC5L260MP8NECOK3IPEI08X5JEFOA","A2J1ANUL0BYKUK","30F94FBDNR6BS3JI3VKF41RBJN4TBU","","null","<img src=""img/animal5.png"" style=""width:200px; border:14px solid green;"">","null","","","","","",""
"","image-keyboard-response","136","79141","0.0-136.0","3NC5L260MP8NECOK3IPEI08X5JEFOA","A2J1ANUL0BYKUK","30F94FBDNR6BS3JI3VKF41RBJN4TBU","","338.7999999523163","img/animal5.png","76","339.2000000476837","3","1","3","1,0.5,0,0,1,0.5,0.5,0,1",""
"","html-keyboard-response","137","79442","0.0-137.0","3NC5L260MP8NECOK3IPEI08X5JEFOA","A2J1ANUL0BYKUK","30F94FBDNR6BS3JI3VKF41RBJN4TBU","","null","<img src=""img/animal5.png"" style=""width:200px; border:14px solid green;"">","null","","","","","",""
"","image-keyboard-response","138","79744","0.0-138.0","3NC5L260MP8NECOK3IPEI08X5JEFOA","A2J1ANUL0BYKUK","30F94FBDNR6BS3JI3VKF41RBJN4TBU","","301.5","img/animal5.png","76","301.80000019073486","3","1","3","1,0.5,0,0,1,0.5,0.5,0,1",""
"","html-keyboard-response","139","80046","0.0-139.0","3NC5L260MP8NECOK3IPEI08X5JEFOA","A2J1ANUL0BYKUK","30F94FBDNR6BS3JI3VKF41RBJN4TBU","","null","<img src=""img/animal5.png"" style=""width:200px; border:14px solid green;"">","null","","","","","",""
"","image-keyboard-response","140","80348","0.0-140.0","3NC5L260MP8NECOK3IPEI08X5JEFOA","A2J1ANUL0BYKUK","30F94FBDNR6BS3JI3VKF41RBJN4TBU","","301.59999990463257","img/animal5.png","76","302.09999990463257","3","1","3","1,0.5,0,0,1,0.5,0.5,0,1",""
"","html-keyboard-response","141","80650","0.0-141.0","3NC5L260MP8NECOK3IPEI08X5JEFOA","A2J1ANUL0BYKUK","30F94FBDNR6BS3JI3VKF41RBJN4TBU","","null","<img src=""img/animal5.png"" style=""width:200px; border:14px solid green;"">","null","","","","","",""
"","image-keyboard-response","142","80930","0.0-142.0","3NC5L260MP8NECOK3IPEI08X5JEFOA","A2J1ANUL0BYKUK","30F94FBDNR6BS3JI3VKF41RBJN4TBU","","280.2000000476837","img/animal5.png","76","280.59999990463257","3","1","3","1,0.5,0,0,1,0.5,0.5,0,1",""
"","html-keyboard-response","143","81246","0.0-143.0","3NC5L260MP8NECOK3IPEI08X5JEFOA","A2J1ANUL0BYKUK","30F94FBDNR6BS3JI3VKF41RBJN4TBU","","null","<img src=""img/animal5.png"" style=""width:200px; border:14px solid green;"">","null","","","","","",""
"","image-keyboard-response","144","81980","0.0-144.0","3NC5L260MP8NECOK3IPEI08X5JEFOA","A2J1ANUL0BYKUK","30F94FBDNR6BS3JI3VKF41RBJN4TBU","","733.9000000953674","img/animal2.png","75","734.4000000953674","2","1","2","1,0.5,0,0,1,0.5,0.5,0,1",""
"","html-keyboard-response","145","82282","0.0-145.0","3NC5L260MP8NECOK3IPEI08X5JEFOA","A2J1ANUL0BYKUK","30F94FBDNR6BS3JI3VKF41RBJN4TBU","","null","<img src=""img/animal2.png"" style=""width:200px; border:14px solid green;"">","null","","","","","",""
"","image-keyboard-response","146","82915","0.0-146.0","3NC5L260MP8NECOK3IPEI08X5JEFOA","A2J1ANUL0BYKUK","30F94FBDNR6BS3JI3VKF41RBJN4TBU","","633.0999999046326","img/animal6.png","74","633.3999998569489","1","1","1","1,0.5,0,0,1,0.5,0.5,0,1",""
"","html-keyboard-response","147","83217","0.0-147.0","3NC5L260MP8NECOK3IPEI08X5JEFOA","A2J1ANUL0BYKUK","30F94FBDNR6BS3JI3VKF41RBJN4TBU","","null","<img src=""img/animal6.png"" style=""width:200px; border:14px solid green;"">","null","","","","","",""
"","image-keyboard-response","148","83761","0.0-148.0","3NC5L260MP8NECOK3IPEI08X5JEFOA","A2J1ANUL0BYKUK","30F94FBDNR6BS3JI3VKF41RBJN4TBU","","543.8000001907349","img/animal2.png","75","544.2000000476837","2","1","2","1,0.5,0,0,1,0.5,0.5,0,1",""
"","html-keyboard-response","149","84077","0.0-149.0","3NC5L260MP8NECOK3IPEI08X5JEFOA","A2J1ANUL0BYKUK","30F94FBDNR6BS3JI3VKF41RBJN4TBU","","null","<img src=""img/animal2.png"" style=""width:200px; border:14px solid green;"">","null","","","","","",""
"","image-keyboard-response","150","85040","0.0-150.0","3NC5L260MP8NECOK3IPEI08X5JEFOA","A2J1ANUL0BYKUK","30F94FBDNR6BS3JI3VKF41RBJN4TBU","","961.8999998569489","img/animal6.png","74","962.5999999046326","1","1","1","1,0.5,0,0,1,0.5,0.5,0,1",""
"","html-keyboard-response","151","85343","0.0-151.0","3NC5L260MP8NECOK3IPEI08X5JEFOA","A2J1ANUL0BYKUK","30F94FBDNR6BS3JI3VKF41RBJN4TBU","","null","<img src=""img/animal6.png"" style=""width:200px; border:14px solid green;"">","null","","","","","",""
"","image-keyboard-response","152","85907","0.0-152.0","3NC5L260MP8NECOK3IPEI08X5JEFOA","A2J1ANUL0BYKUK","30F94FBDNR6BS3JI3VKF41RBJN4TBU","","564.2000000476837","img/animal5.png","76","564.5","3","1","3","1,0.5,0,0,1,0.5,0.5,0,1",""
"","html-keyboard-response","153","86209","0.0-153.0","3NC5L260MP8NECOK3IPEI08X5JEFOA","A2J1ANUL0BYKUK","30F94FBDNR6BS3JI3VKF41RBJN4TBU","","null","<img src=""img/animal5.png"" style=""width:200px; border:14px solid green;"">","null","","","","","",""
"","image-keyboard-response","154","87099","0.0-154.0","3NC5L260MP8NECOK3IPEI08X5JEFOA","A2J1ANUL0BYKUK","30F94FBDNR6BS3JI3VKF41RBJN4TBU","","889.5","img/animal2.png","75","889.9000000953674","2","1","2","1,0.5,0,0,1,0.5,0.5,0,1",""
"","html-keyboard-response","155","87401","0.0-155.0","3NC5L260MP8NECOK3IPEI08X5JEFOA","A2J1ANUL0BYKUK","30F94FBDNR6BS3JI3VKF41RBJN4TBU","","null","<img src=""img/animal2.png"" style=""width:200px; border:14px solid green;"">","null","","","","","",""
"","image-keyboard-response","156","87955","0.0-156.0","3NC5L260MP8NECOK3IPEI08X5JEFOA","A2J1ANUL0BYKUK","30F94FBDNR6BS3JI3VKF41RBJN4TBU","","553.0999999046326","img/animal2.png","75","553.5","2","1","2","1,0.5,0,0,1,0.5,0.5,0,1",""
"","html-keyboard-response","157","88257","0.0-157.0","3NC5L260MP8NECOK3IPEI08X5JEFOA","A2J1ANUL0BYKUK","30F94FBDNR6BS3JI3VKF41RBJN4TBU","","null","<img src=""img/animal2.png"" style=""width:200px; border:14px solid green;"">","null","","","","","",""
"","image-keyboard-response","158","88583","0.0-158.0","3NC5L260MP8NECOK3IPEI08X5JEFOA","A2J1ANUL0BYKUK","30F94FBDNR6BS3JI3VKF41RBJN4TBU","","325.7000000476837","img/animal2.png","75","326.09999990463257","2","1","2","1,0.5,0,0,1,0.5,0.5,0,1",""
"","html-keyboard-response","159","88885","0.0-159.0","3NC5L260MP8NECOK3IPEI08X5JEFOA","A2J1ANUL0BYKUK","30F94FBDNR6BS3JI3VKF41RBJN4TBU","","null","<img src=""img/animal2.png"" style=""width:200px; border:14px solid green;"">","null","","","","","",""
"","image-keyboard-response","160","89155","0.0-160.0","3NC5L260MP8NECOK3IPEI08X5JEFOA","A2J1ANUL0BYKUK","30F94FBDNR6BS3JI3VKF41RBJN4TBU","","269.7000000476837","img/animal2.png","75","270.19999980926514","2","1","2","1,0.5,0,0,1,0.5,0.5,0,1",""
"","html-keyboard-response","161","89457","0.0-161.0","3NC5L260MP8NECOK3IPEI08X5JEFOA","A2J1ANUL0BYKUK","30F94FBDNR6BS3JI3VKF41RBJN4TBU","","null","<img src=""img/animal2.png"" style=""width:200px; border:14px solid green;"">","null","","","","","",""
"","image-keyboard-response","162","90384","0.0-162.0","3NC5L260MP8NECOK3IPEI08X5JEFOA","A2J1ANUL0BYKUK","30F94FBDNR6BS3JI3VKF41RBJN4TBU","","926.5","img/animal5.png","74","926.9000000953674","1","0","3","1,0.5,0,0,1,0.5,0.5,0,1",""
"","html-keyboard-response","163","90700","0.0-163.0","3NC5L260MP8NECOK3IPEI08X5JEFOA","A2J1ANUL0BYKUK","30F94FBDNR6BS3JI3VKF41RBJN4TBU","","null","<img src=""img/animal5.png"" style=""width:200px;border:14px solid red;"">","null","","","","","",""
"","image-keyboard-response","164","91356","0.0-164.0","3NC5L260MP8NECOK3IPEI08X5JEFOA","A2J1ANUL0BYKUK","30F94FBDNR6BS3JI3VKF41RBJN4TBU","","655.4000000953674","img/animal2.png","75","655.7999999523163","2","1","2","1,0.5,0,0,1,0.5,0.5,0,1",""
"","html-keyboard-response","165","91657","0.0-165.0","3NC5L260MP8NECOK3IPEI08X5JEFOA","A2J1ANUL0BYKUK","30F94FBDNR6BS3JI3VKF41RBJN4TBU","","null","<img src=""img/animal2.png"" style=""width:200px; border:14px solid green;"">","null","","","","","",""
"","image-keyboard-response","166","91966","0.0-166.0","3NC5L260MP8NECOK3IPEI08X5JEFOA","A2J1ANUL0BYKUK","30F94FBDNR6BS3JI3VKF41RBJN4TBU","","308.2999999523163","img/animal2.png","75","308.60000014305115","2","1","2","1,0.5,0,0,1,0.5,0.5,0,1",""
"","html-keyboard-response","167","92269","0.0-167.0","3NC5L260MP8NECOK3IPEI08X5JEFOA","A2J1ANUL0BYKUK","30F94FBDNR6BS3JI3VKF41RBJN4TBU","","null","<img src=""img/animal2.png"" style=""width:200px; border:14px solid green;"">","null","","","","","",""
"","image-keyboard-response","168","92534","0.0-168.0","3NC5L260MP8NECOK3IPEI08X5JEFOA","A2J1ANUL0BYKUK","30F94FBDNR6BS3JI3VKF41RBJN4TBU","","264.59999990463257","img/animal2.png","75","265","2","1","2","1,0.5,0,0,1,0.5,0.5,0,1",""
"","html-keyboard-response","169","92836","0.0-169.0","3NC5L260MP8NECOK3IPEI08X5JEFOA","A2J1ANUL0BYKUK","30F94FBDNR6BS3JI3VKF41RBJN4TBU","","null","<img src=""img/animal2.png"" style=""width:200px; border:14px solid green;"">","null","","","","","",""
"","image-keyboard-response","170","93282","0.0-170.0","3NC5L260MP8NECOK3IPEI08X5JEFOA","A2J1ANUL0BYKUK","30F94FBDNR6BS3JI3VKF41RBJN4TBU","","445.2999999523163","img/animal5.png","76","445.7000000476837","3","1","3","1,0.5,0,0,1,0.5,0.5,0,1",""
"","html-keyboard-response","171","93583","0.0-171.0","3NC5L260MP8NECOK3IPEI08X5JEFOA","A2J1ANUL0BYKUK","30F94FBDNR6BS3JI3VKF41RBJN4TBU","","null","<img src=""img/animal5.png"" style=""width:200px; border:14px solid green;"">","null","","","","","",""
"","image-keyboard-response","172","94231","0.0-172.0","3NC5L260MP8NECOK3IPEI08X5JEFOA","A2J1ANUL0BYKUK","30F94FBDNR6BS3JI3VKF41RBJN4TBU","","647.2000000476837","img/animal2.png","75","647.6000001430511","2","1","2","1,0.5,0,0,1,0.5,0.5,0,1",""
"","html-keyboard-response","173","94533","0.0-173.0","3NC5L260MP8NECOK3IPEI08X5JEFOA","A2J1ANUL0BYKUK","30F94FBDNR6BS3JI3VKF41RBJN4TBU","","null","<img src=""img/animal2.png"" style=""width:200px; border:14px solid green;"">","null","","","","","",""
"","image-keyboard-response","174","94854","0.0-174.0","3NC5L260MP8NECOK3IPEI08X5JEFOA","A2J1ANUL0BYKUK","30F94FBDNR6BS3JI3VKF41RBJN4TBU","","320.60000014305115","img/animal2.png","75","321","2","1","2","1,0.5,0,0,1,0.5,0.5,0,1",""
"","html-keyboard-response","175","95156","0.0-175.0","3NC5L260MP8NECOK3IPEI08X5JEFOA","A2J1ANUL0BYKUK","30F94FBDNR6BS3JI3VKF41RBJN4TBU","","null","<img src=""img/animal2.png"" style=""width:200px; border:14px solid green;"">","null","","","","","",""
"","image-keyboard-response","176","95435","0.0-176.0","3NC5L260MP8NECOK3IPEI08X5JEFOA","A2J1ANUL0BYKUK","30F94FBDNR6BS3JI3VKF41RBJN4TBU","","278.7000000476837","img/animal2.png","75","279","2","1","2","1,0.5,0,0,1,0.5,0.5,0,1",""
"","html-keyboard-response","177","95736","0.0-177.0","3NC5L260MP8NECOK3IPEI08X5JEFOA","A2J1ANUL0BYKUK","30F94FBDNR6BS3JI3VKF41RBJN4TBU","","null","<img src=""img/animal2.png"" style=""width:200px; border:14px solid green;"">","null","","","","","",""
"","image-keyboard-response","178","96403","0.0-178.0","3NC5L260MP8NECOK3IPEI08X5JEFOA","A2J1ANUL0BYKUK","30F94FBDNR6BS3JI3VKF41RBJN4TBU","","666.2000000476837","img/animal6.png","74","666.5999999046326","1","1","1","1,0.5,0,0,1,0.5,0.5,0,1",""
"","html-keyboard-response","179","96705","0.0-179.0","3NC5L260MP8NECOK3IPEI08X5JEFOA","A2J1ANUL0BYKUK","30F94FBDNR6BS3JI3VKF41RBJN4TBU","","null","<img src=""img/animal6.png"" style=""width:200px; border:14px solid green;"">","null","","","","","",""
"","image-keyboard-response","180","97085","0.0-180.0","3NC5L260MP8NECOK3IPEI08X5JEFOA","A2J1ANUL0BYKUK","30F94FBDNR6BS3JI3VKF41RBJN4TBU","","380","img/animal6.png","74","380.40000009536743","1","1","1","1,0.5,0,0,1,0.5,0.5,0,1",""
"","html-keyboard-response","181","97386","0.0-181.0","3NC5L260MP8NECOK3IPEI08X5JEFOA","A2J1ANUL0BYKUK","30F94FBDNR6BS3JI3VKF41RBJN4TBU","","null","<img src=""img/animal6.png"" style=""width:200px; border:14px solid green;"">","null","","","","","",""
"","html-keyboard-response","182","100168","0.0-182.0","3NC5L260MP8NECOK3IPEI08X5JEFOA","A2J1ANUL0BYKUK","30F94FBDNR6BS3JI3VKF41RBJN4TBU","","","","","","","","","",""
"","image-keyboard-response","183","102045","0.0-183.0","3NC5L260MP8NECOK3IPEI08X5JEFOA","A2J1ANUL0BYKUK","30F94FBDNR6BS3JI3VKF41RBJN4TBU","","1876.5","img/animal1.png","74","1876.9000000953674","1","1","3","1,0.5,0,1,0.5,0,0.5,0,1",""
"","html-keyboard-response","184","102347","0.0-184.0","3NC5L260MP8NECOK3IPEI08X5JEFOA","A2J1ANUL0BYKUK","30F94FBDNR6BS3JI3VKF41RBJN4TBU","","null","<img src=""img/animal1.png"" style=""width:200px; border:14px solid green;"">","null","","","","","",""
"","image-keyboard-response","185","102936","0.0-185.0","3NC5L260MP8NECOK3IPEI08X5JEFOA","A2J1ANUL0BYKUK","30F94FBDNR6BS3JI3VKF41RBJN4TBU","","588.2999999523163","img/animal3.png","75","588.7999999523163","2","0","1","1,0.5,0,1,0.5,0,0.5,0,1",""
"","html-keyboard-response","186","103237","0.0-186.0","3NC5L260MP8NECOK3IPEI08X5JEFOA","A2J1ANUL0BYKUK","30F94FBDNR6BS3JI3VKF41RBJN4TBU","","null","<img src=""img/animal3.png"" style=""width:200px;border:14px solid red;"">","null","","","","","",""
"","image-keyboard-response","187","104016","0.0-187.0","3NC5L260MP8NECOK3IPEI08X5JEFOA","A2J1ANUL0BYKUK","30F94FBDNR6BS3JI3VKF41RBJN4TBU","","778.5","img/animal4.png","76","779","3","0","2","1,0.5,0,1,0.5,0,0.5,0,1",""
"","html-keyboard-response","188","104318","0.0-188.0","3NC5L260MP8NECOK3IPEI08X5JEFOA","A2J1ANUL0BYKUK","30F94FBDNR6BS3JI3VKF41RBJN4TBU","","null","<img src=""img/animal4.png"" style=""width:200px;border:14px solid red;"">","null","","","","","",""
"","image-keyboard-response","189","105224","0.0-189.0","3NC5L260MP8NECOK3IPEI08X5JEFOA","A2J1ANUL0BYKUK","30F94FBDNR6BS3JI3VKF41RBJN4TBU","","905.5","img/animal1.png","74","906","1","1","3","1,0.5,0,1,0.5,0,0.5,0,1",""
"","html-keyboard-response","190","105525","0.0-190.0","3NC5L260MP8NECOK3IPEI08X5JEFOA","A2J1ANUL0BYKUK","30F94FBDNR6BS3JI3VKF41RBJN4TBU","","null","<img src=""img/animal1.png"" style=""width:200px; border:14px solid green;"">","null","","","","","",""
"","image-keyboard-response","191","106939","0.0-191.0","3NC5L260MP8NECOK3IPEI08X5JEFOA","A2J1ANUL0BYKUK","30F94FBDNR6BS3JI3VKF41RBJN4TBU","","1412.8999998569489","img/animal4.png","75","1413.4000000953674","2","0","2","1,0.5,0,1,0.5,0,0.5,0,1",""
"","html-keyboard-response","192","107241","0.0-192.0","3NC5L260MP8NECOK3IPEI08X5JEFOA","A2J1ANUL0BYKUK","30F94FBDNR6BS3JI3VKF41RBJN4TBU","","null","<img src=""img/animal4.png"" style=""width:200px;border:14px solid red;"">","null","","","","","",""
"","image-keyboard-response","193","108972","0.0-193.0","3NC5L260MP8NECOK3IPEI08X5JEFOA","A2J1ANUL0BYKUK","30F94FBDNR6BS3JI3VKF41RBJN4TBU","","1730.2999999523163","img/animal4.png","74","1730.7999999523163","1","1","2","1,0.5,0,1,0.5,0,0.5,0,1",""
"","html-keyboard-response","194","109274","0.0-194.0","3NC5L260MP8NECOK3IPEI08X5JEFOA","A2J1ANUL0BYKUK","30F94FBDNR6BS3JI3VKF41RBJN4TBU","","null","<img src=""img/animal4.png"" style=""width:200px; border:14px solid green;"">","null","","","","","",""
"","image-keyboard-response","195","110274","0.0-195.0","3NC5L260MP8NECOK3IPEI08X5JEFOA","A2J1ANUL0BYKUK","30F94FBDNR6BS3JI3VKF41RBJN4TBU","","999.3000001907349","img/animal1.png","74","999.7999999523163","1","0","3","1,0.5,0,1,0.5,0,0.5,0,1",""
"","html-keyboard-response","196","110575","0.0-196.0","3NC5L260MP8NECOK3IPEI08X5JEFOA","A2J1ANUL0BYKUK","30F94FBDNR6BS3JI3VKF41RBJN4TBU","","null","<img src=""img/animal1.png"" style=""width:200px;border:14px solid red;"">","null","","","","","",""
"","image-keyboard-response","197","112192","0.0-197.0","3NC5L260MP8NECOK3IPEI08X5JEFOA","A2J1ANUL0BYKUK","30F94FBDNR6BS3JI3VKF41RBJN4TBU","","1616.0999999046326","img/animal3.png","76","1616.5","3","0","1","1,0.5,0,1,0.5,0,0.5,0,1",""
"","html-keyboard-response","198","112494","0.0-198.0","3NC5L260MP8NECOK3IPEI08X5JEFOA","A2J1ANUL0BYKUK","30F94FBDNR6BS3JI3VKF41RBJN4TBU","","null","<img src=""img/animal3.png"" style=""width:200px;border:14px solid red;"">","null","","","","","",""
"","image-keyboard-response","199","113900","0.0-199.0","3NC5L260MP8NECOK3IPEI08X5JEFOA","A2J1ANUL0BYKUK","30F94FBDNR6BS3JI3VKF41RBJN4TBU","","1405.8000001907349","img/animal4.png","74","1406.2000000476837","1","1","2","1,0.5,0,1,0.5,0,0.5,0,1",""
"","html-keyboard-response","200","114205","0.0-200.0","3NC5L260MP8NECOK3IPEI08X5JEFOA","A2J1ANUL0BYKUK","30F94FBDNR6BS3JI3VKF41RBJN4TBU","","null","<img src=""img/animal4.png"" style=""width:200px; border:14px solid green;"">","null","","","","","",""
"","image-keyboard-response","201","114771","0.0-201.0","3NC5L260MP8NECOK3IPEI08X5JEFOA","A2J1ANUL0BYKUK","30F94FBDNR6BS3JI3VKF41RBJN4TBU","","565.2999999523163","img/animal4.png","74","565.9000000953674","1","1","2","1,0.5,0,1,0.5,0,0.5,0,1",""
"","html-keyboard-response","202","115073","0.0-202.0","3NC5L260MP8NECOK3IPEI08X5JEFOA","A2J1ANUL0BYKUK","30F94FBDNR6BS3JI3VKF41RBJN4TBU","","null","<img src=""img/animal4.png"" style=""width:200px; border:14px solid green;"">","null","","","","","",""
"","image-keyboard-response","203","116127","0.0-203.0","3NC5L260MP8NECOK3IPEI08X5JEFOA","A2J1ANUL0BYKUK","30F94FBDNR6BS3JI3VKF41RBJN4TBU","","1053.6000001430511","img/animal1.png","75","1054.1000001430511","2","0","3","1,0.5,0,1,0.5,0,0.5,0,1",""
"","html-keyboard-response","204","116428","0.0-204.0","3NC5L260MP8NECOK3IPEI08X5JEFOA","A2J1ANUL0BYKUK","30F94FBDNR6BS3JI3VKF41RBJN4TBU","","null","<img src=""img/animal1.png"" style=""width:200px;border:14px solid red;"">","null","","","","","",""
"","image-keyboard-response","205","117203","0.0-205.0","3NC5L260MP8NECOK3IPEI08X5JEFOA","A2J1ANUL0BYKUK","30F94FBDNR6BS3JI3VKF41RBJN4TBU","","773.5999999046326","img/animal1.png","74","774.1000001430511","1","1","3","1,0.5,0,1,0.5,0,0.5,0,1",""
"","html-keyboard-response","206","117504","0.0-206.0","3NC5L260MP8NECOK3IPEI08X5JEFOA","A2J1ANUL0BYKUK","30F94FBDNR6BS3JI3VKF41RBJN4TBU","","null","<img src=""img/animal1.png"" style=""width:200px; border:14px solid green;"">","null","","","","","",""
"","image-keyboard-response","207","118080","0.0-207.0","3NC5L260MP8NECOK3IPEI08X5JEFOA","A2J1ANUL0BYKUK","30F94FBDNR6BS3JI3VKF41RBJN4TBU","","575","img/animal1.png","74","575.3999998569489","1","1","3","1,0.5,0,1,0.5,0,0.5,0,1",""
"","html-keyboard-response","208","118391","0.0-208.0","3NC5L260MP8NECOK3IPEI08X5JEFOA","A2J1ANUL0BYKUK","30F94FBDNR6BS3JI3VKF41RBJN4TBU","","null","<img src=""img/animal1.png"" style=""width:200px; border:14px solid green;"">","null","","","","","",""
"","image-keyboard-response","209","118993","0.0-209.0","3NC5L260MP8NECOK3IPEI08X5JEFOA","A2J1ANUL0BYKUK","30F94FBDNR6BS3JI3VKF41RBJN4TBU","","601.5999999046326","img/animal4.png","74","601.9000000953674","1","1","2","1,0.5,0,1,0.5,0,0.5,0,1",""
"","html-keyboard-response","210","119295","0.0-210.0","3NC5L260MP8NECOK3IPEI08X5JEFOA","A2J1ANUL0BYKUK","30F94FBDNR6BS3JI3VKF41RBJN4TBU","","null","<img src=""img/animal4.png"" style=""width:200px; border:14px solid green;"">","null","","","","","",""
"","image-keyboard-response","211","120520","0.0-211.0","3NC5L260MP8NECOK3IPEI08X5JEFOA","A2J1ANUL0BYKUK","30F94FBDNR6BS3JI3VKF41RBJN4TBU","","1224.5","img/animal3.png","74","1225.0999999046326","1","1","1","1,0.5,0,1,0.5,0,0.5,0,1",""
"","html-keyboard-response","212","120821","0.0-212.0","3NC5L260MP8NECOK3IPEI08X5JEFOA","A2J1ANUL0BYKUK","30F94FBDNR6BS3JI3VKF41RBJN4TBU","","null","<img src=""img/animal3.png"" style=""width:200px; border:14px solid green;"">","null","","","","","",""
"","image-keyboard-response","213","121136","0.0-213.0","3NC5L260MP8NECOK3IPEI08X5JEFOA","A2J1ANUL0BYKUK","30F94FBDNR6BS3JI3VKF41RBJN4TBU","","314.30000019073486","img/animal3.png","74","314.7999999523163","1","1","1","1,0.5,0,1,0.5,0,0.5,0,1",""
"","html-keyboard-response","214","121438","0.0-214.0","3NC5L260MP8NECOK3IPEI08X5JEFOA","A2J1ANUL0BYKUK","30F94FBDNR6BS3JI3VKF41RBJN4TBU","","null","<img src=""img/animal3.png"" style=""width:200px; border:14px solid green;"">","null","","","","","",""
"","image-keyboard-response","215","121738","0.0-215.0","3NC5L260MP8NECOK3IPEI08X5JEFOA","A2J1ANUL0BYKUK","30F94FBDNR6BS3JI3VKF41RBJN4TBU","","299.69999980926514","img/animal1.png","74","300.10000014305115","1","1","3","1,0.5,0,1,0.5,0,0.5,0,1",""
"","html-keyboard-response","216","122040","0.0-216.0","3NC5L260MP8NECOK3IPEI08X5JEFOA","A2J1ANUL0BYKUK","30F94FBDNR6BS3JI3VKF41RBJN4TBU","","null","<img src=""img/animal1.png"" style=""width:200px; border:14px solid green;"">","null","","","","","",""
"","image-keyboard-response","217","122288","0.0-217.0","3NC5L260MP8NECOK3IPEI08X5JEFOA","A2J1ANUL0BYKUK","30F94FBDNR6BS3JI3VKF41RBJN4TBU","","247.09999990463257","img/animal3.png","74","247.5","1","1","1","1,0.5,0,1,0.5,0,0.5,0,1",""
"","html-keyboard-response","218","122590","0.0-218.0","3NC5L260MP8NECOK3IPEI08X5JEFOA","A2J1ANUL0BYKUK","30F94FBDNR6BS3JI3VKF41RBJN4TBU","","null","<img src=""img/animal3.png"" style=""width:200px; border:14px solid green;"">","null","","","","","",""
"","image-keyboard-response","219","122833","0.0-219.0","3NC5L260MP8NECOK3IPEI08X5JEFOA","A2J1ANUL0BYKUK","30F94FBDNR6BS3JI3VKF41RBJN4TBU","","242.5","img/animal4.png","74","242.90000009536743","1","1","2","1,0.5,0,1,0.5,0,0.5,0,1",""
"","html-keyboard-response","220","123134","0.0-220.0","3NC5L260MP8NECOK3IPEI08X5JEFOA","A2J1ANUL0BYKUK","30F94FBDNR6BS3JI3VKF41RBJN4TBU","","null","<img src=""img/animal4.png"" style=""width:200px; border:14px solid green;"">","null","","","","","",""
"","image-keyboard-response","221","123372","0.0-221.0","3NC5L260MP8NECOK3IPEI08X5JEFOA","A2J1ANUL0BYKUK","30F94FBDNR6BS3JI3VKF41RBJN4TBU","","237.39999985694885","img/animal3.png","74","237.70000004768372","1","1","1","1,0.5,0,1,0.5,0,0.5,0,1",""
"","html-keyboard-response","222","123674","0.0-222.0","3NC5L260MP8NECOK3IPEI08X5JEFOA","A2J1ANUL0BYKUK","30F94FBDNR6BS3JI3VKF41RBJN4TBU","","null","<img src=""img/animal3.png"" style=""width:200px; border:14px solid green;"">","null","","","","","",""
"","image-keyboard-response","223","123905","0.0-223.0","3NC5L260MP8NECOK3IPEI08X5JEFOA","A2J1ANUL0BYKUK","30F94FBDNR6BS3JI3VKF41RBJN4TBU","","230.79999995231628","img/animal4.png","74","231.20000004768372","1","1","2","1,0.5,0,1,0.5,0,0.5,0,1",""
"","html-keyboard-response","224","124207","0.0-224.0","3NC5L260MP8NECOK3IPEI08X5JEFOA","A2J1ANUL0BYKUK","30F94FBDNR6BS3JI3VKF41RBJN4TBU","","null","<img src=""img/animal4.png"" style=""width:200px; border:14px solid green;"">","null","","","","","",""
"","image-keyboard-response","225","124406","0.0-225.0","3NC5L260MP8NECOK3IPEI08X5JEFOA","A2J1ANUL0BYKUK","30F94FBDNR6BS3JI3VKF41RBJN4TBU","","198.5","img/animal1.png","74","198.90000009536743","1","1","3","1,0.5,0,1,0.5,0,0.5,0,1",""
"","html-keyboard-response","226","124709","0.0-226.0","3NC5L260MP8NECOK3IPEI08X5JEFOA","A2J1ANUL0BYKUK","30F94FBDNR6BS3JI3VKF41RBJN4TBU","","null","<img src=""img/animal1.png"" style=""width:200px; border:14px solid green;"">","null","","","","","",""
"","image-keyboard-response","227","124928","0.0-227.0","3NC5L260MP8NECOK3IPEI08X5JEFOA","A2J1ANUL0BYKUK","30F94FBDNR6BS3JI3VKF41RBJN4TBU","","218.79999995231628","img/animal4.png","74","219.20000004768372","1","1","2","1,0.5,0,1,0.5,0,0.5,0,1",""
"","html-keyboard-response","228","125230","0.0-228.0","3NC5L260MP8NECOK3IPEI08X5JEFOA","A2J1ANUL0BYKUK","30F94FBDNR6BS3JI3VKF41RBJN4TBU","","null","<img src=""img/animal4.png"" style=""width:200px; border:14px solid green;"">","null","","","","","",""
"","image-keyboard-response","229","125413","0.0-229.0","3NC5L260MP8NECOK3IPEI08X5JEFOA","A2J1ANUL0BYKUK","30F94FBDNR6BS3JI3VKF41RBJN4TBU","","182.20000004768372","img/animal1.png","74","182.79999995231628","1","0","3","1,0.5,0,1,0.5,0,0.5,0,1",""
"","html-keyboard-response","230","125714","0.0-230.0","3NC5L260MP8NECOK3IPEI08X5JEFOA","A2J1ANUL0BYKUK","30F94FBDNR6BS3JI3VKF41RBJN4TBU","","null","<img src=""img/animal1.png"" style=""width:200px;border:14px solid red;"">","null","","","","","",""
"","image-keyboard-response","231","126212","0.0-231.0","3NC5L260MP8NECOK3IPEI08X5JEFOA","A2J1ANUL0BYKUK","30F94FBDNR6BS3JI3VKF41RBJN4TBU","","497.30000019073486","img/animal1.png","74","497.7000000476837","1","1","3","1,0.5,0,1,0.5,0,0.5,0,1",""
"","html-keyboard-response","232","126513","0.0-232.0","3NC5L260MP8NECOK3IPEI08X5JEFOA","A2J1ANUL0BYKUK","30F94FBDNR6BS3JI3VKF41RBJN4TBU","","null","<img src=""img/animal1.png"" style=""width:200px; border:14px solid green;"">","null","","","","","",""
"","image-keyboard-response","233","126733","0.0-233.0","3NC5L260MP8NECOK3IPEI08X5JEFOA","A2J1ANUL0BYKUK","30F94FBDNR6BS3JI3VKF41RBJN4TBU","","219.30000019073486","img/animal1.png","74","219.79999995231628","1","1","3","1,0.5,0,1,0.5,0,0.5,0,1",""
"","html-keyboard-response","234","127035","0.0-234.0","3NC5L260MP8NECOK3IPEI08X5JEFOA","A2J1ANUL0BYKUK","30F94FBDNR6BS3JI3VKF41RBJN4TBU","","null","<img src=""img/animal1.png"" style=""width:200px; border:14px solid green;"">","null","","","","","",""
"","image-keyboard-response","235","127234","0.0-235.0","3NC5L260MP8NECOK3IPEI08X5JEFOA","A2J1ANUL0BYKUK","30F94FBDNR6BS3JI3VKF41RBJN4TBU","","198.70000004768372","img/animal3.png","74","199.10000014305115","1","1","1","1,0.5,0,1,0.5,0,0.5,0,1",""
"","html-keyboard-response","236","127535","0.0-236.0","3NC5L260MP8NECOK3IPEI08X5JEFOA","A2J1ANUL0BYKUK","30F94FBDNR6BS3JI3VKF41RBJN4TBU","","null","<img src=""img/animal3.png"" style=""width:200px; border:14px solid green;"">","null","","","","","",""
"","image-keyboard-response","237","127753","0.0-237.0","3NC5L260MP8NECOK3IPEI08X5JEFOA","A2J1ANUL0BYKUK","30F94FBDNR6BS3JI3VKF41RBJN4TBU","","217.29999995231628","img/animal1.png","74","217.70000004768372","1","0","3","1,0.5,0,1,0.5,0,0.5,0,1",""
"","html-keyboard-response","238","128055","0.0-238.0","3NC5L260MP8NECOK3IPEI08X5JEFOA","A2J1ANUL0BYKUK","30F94FBDNR6BS3JI3VKF41RBJN4TBU","","null","<img src=""img/animal1.png"" style=""width:200px;border:14px solid red;"">","null","","","","","",""
"","image-keyboard-response","239","128257","0.0-239.0","3NC5L260MP8NECOK3IPEI08X5JEFOA","A2J1ANUL0BYKUK","30F94FBDNR6BS3JI3VKF41RBJN4TBU","","201.29999995231628","img/animal4.png","74","201.70000004768372","1","1","2","1,0.5,0,1,0.5,0,0.5,0,1",""
"","html-keyboard-response","240","128559","0.0-240.0","3NC5L260MP8NECOK3IPEI08X5JEFOA","A2J1ANUL0BYKUK","30F94FBDNR6BS3JI3VKF41RBJN4TBU","","null","<img src=""img/animal4.png"" style=""width:200px; border:14px solid green;"">","null","","","","","",""
"","image-keyboard-response","241","128746","0.0-241.0","3NC5L260MP8NECOK3IPEI08X5JEFOA","A2J1ANUL0BYKUK","30F94FBDNR6BS3JI3VKF41RBJN4TBU","","186.89999985694885","img/animal3.png","74","187.39999985694885","1","1","1","1,0.5,0,1,0.5,0,0.5,0,1",""
"","html-keyboard-response","242","129047","0.0-242.0","3NC5L260MP8NECOK3IPEI08X5JEFOA","A2J1ANUL0BYKUK","30F94FBDNR6BS3JI3VKF41RBJN4TBU","","null","<img src=""img/animal3.png"" style=""width:200px; border:14px solid green;"">","null","","","","","",""
"","image-keyboard-response","243","129233","0.0-243.0","3NC5L260MP8NECOK3IPEI08X5JEFOA","A2J1ANUL0BYKUK","30F94FBDNR6BS3JI3VKF41RBJN4TBU","","184.70000004768372","img/animal3.png","74","185","1","1","1","1,0.5,0,1,0.5,0,0.5,0,1",""
"","html-keyboard-response","244","129534","0.0-244.0","3NC5L260MP8NECOK3IPEI08X5JEFOA","A2J1ANUL0BYKUK","30F94FBDNR6BS3JI3VKF41RBJN4TBU","","null","<img src=""img/animal3.png"" style=""width:200px; border:14px solid green;"">","null","","","","","",""
"","image-keyboard-response","245","129727","0.0-245.0","3NC5L260MP8NECOK3IPEI08X5JEFOA","A2J1ANUL0BYKUK","30F94FBDNR6BS3JI3VKF41RBJN4TBU","","192.59999990463257","img/animal1.png","74","193","1","1","3","1,0.5,0,1,0.5,0,0.5,0,1",""
"","html-keyboard-response","246","130028","0.0-246.0","3NC5L260MP8NECOK3IPEI08X5JEFOA","A2J1ANUL0BYKUK","30F94FBDNR6BS3JI3VKF41RBJN4TBU","","null","<img src=""img/animal1.png"" style=""width:200px; border:14px solid green;"">","null","","","","","",""
"","image-keyboard-response","247","130237","0.0-247.0","3NC5L260MP8NECOK3IPEI08X5JEFOA","A2J1ANUL0BYKUK","30F94FBDNR6BS3JI3VKF41RBJN4TBU","","207.90000009536743","img/animal1.png","74","208.29999995231628","1","0","3","1,0.5,0,1,0.5,0,0.5,0,1",""
"","html-keyboard-response","248","130539","0.0-248.0","3NC5L260MP8NECOK3IPEI08X5JEFOA","A2J1ANUL0BYKUK","30F94FBDNR6BS3JI3VKF41RBJN4TBU","","null","<img src=""img/animal1.png"" style=""width:200px;border:14px solid red;"">","null","","","","","",""
"","image-keyboard-response","249","130715","0.0-249.0","3NC5L260MP8NECOK3IPEI08X5JEFOA","A2J1ANUL0BYKUK","30F94FBDNR6BS3JI3VKF41RBJN4TBU","","175.5","img/animal3.png","74","175.90000009536743","1","1","1","1,0.5,0,1,0.5,0,0.5,0,1",""
"","html-keyboard-response","250","131017","0.0-250.0","3NC5L260MP8NECOK3IPEI08X5JEFOA","A2J1ANUL0BYKUK","30F94FBDNR6BS3JI3VKF41RBJN4TBU","","null","<img src=""img/animal3.png"" style=""width:200px; border:14px solid green;"">","null","","","","","",""
"","image-keyboard-response","251","131198","0.0-251.0","3NC5L260MP8NECOK3IPEI08X5JEFOA","A2J1ANUL0BYKUK","30F94FBDNR6BS3JI3VKF41RBJN4TBU","","180.70000004768372","img/animal4.png","74","181.20000004768372","1","1","2","1,0.5,0,1,0.5,0,0.5,0,1",""
"","html-keyboard-response","252","131500","0.0-252.0","3NC5L260MP8NECOK3IPEI08X5JEFOA","A2J1ANUL0BYKUK","30F94FBDNR6BS3JI3VKF41RBJN4TBU","","null","<img src=""img/animal4.png"" style=""width:200px; border:14px solid green;"">","null","","","","","",""
"","image-keyboard-response","253","131684","0.0-253.0","3NC5L260MP8NECOK3IPEI08X5JEFOA","A2J1ANUL0BYKUK","30F94FBDNR6BS3JI3VKF41RBJN4TBU","","183.70000004768372","img/animal4.png","74","184.09999990463257","1","1","2","1,0.5,0,1,0.5,0,0.5,0,1",""
"","html-keyboard-response","254","131986","0.0-254.0","3NC5L260MP8NECOK3IPEI08X5JEFOA","A2J1ANUL0BYKUK","30F94FBDNR6BS3JI3VKF41RBJN4TBU","","null","<img src=""img/animal4.png"" style=""width:200px; border:14px solid green;"">","null","","","","","",""
"","image-keyboard-response","255","132146","0.0-255.0","3NC5L260MP8NECOK3IPEI08X5JEFOA","A2J1ANUL0BYKUK","30F94FBDNR6BS3JI3VKF41RBJN4TBU","","159","img/animal1.png","74","159.5","1","0","3","1,0.5,0,1,0.5,0,0.5,0,1",""
"","html-keyboard-response","256","132448","0.0-256.0","3NC5L260MP8NECOK3IPEI08X5JEFOA","A2J1ANUL0BYKUK","30F94FBDNR6BS3JI3VKF41RBJN4TBU","","null","<img src=""img/animal1.png"" style=""width:200px;border:14px solid red;"">","null","","","","","",""
"","image-keyboard-response","257","132597","0.0-257.0","3NC5L260MP8NECOK3IPEI08X5JEFOA","A2J1ANUL0BYKUK","30F94FBDNR6BS3JI3VKF41RBJN4TBU","","148.59999990463257","img/animal3.png","74","149.09999990463257","1","1","1","1,0.5,0,1,0.5,0,0.5,0,1",""
"","html-keyboard-response","258","132898","0.0-258.0","3NC5L260MP8NECOK3IPEI08X5JEFOA","A2J1ANUL0BYKUK","30F94FBDNR6BS3JI3VKF41RBJN4TBU","","null","<img src=""img/animal3.png"" style=""width:200px; border:14px solid green;"">","null","","","","","",""
"","image-keyboard-response","259","133063","0.0-259.0","3NC5L260MP8NECOK3IPEI08X5JEFOA","A2J1ANUL0BYKUK","30F94FBDNR6BS3JI3VKF41RBJN4TBU","","164.29999995231628","img/animal1.png","74","164.70000004768372","1","0","3","1,0.5,0,1,0.5,0,0.5,0,1",""
"","html-keyboard-response","260","133369","0.0-260.0","3NC5L260MP8NECOK3IPEI08X5JEFOA","A2J1ANUL0BYKUK","30F94FBDNR6BS3JI3VKF41RBJN4TBU","","null","<img src=""img/animal1.png"" style=""width:200px;border:14px solid red;"">","null","","","","","",""
"","image-keyboard-response","261","133530","0.0-261.0","3NC5L260MP8NECOK3IPEI08X5JEFOA","A2J1ANUL0BYKUK","30F94FBDNR6BS3JI3VKF41RBJN4TBU","","161","img/animal1.png","74","161.40000009536743","1","0","3","1,0.5,0,1,0.5,0,0.5,0,1",""
"","html-keyboard-response","262","133832","0.0-262.0","3NC5L260MP8NECOK3IPEI08X5JEFOA","A2J1ANUL0BYKUK","30F94FBDNR6BS3JI3VKF41RBJN4TBU","","null","<img src=""img/animal1.png"" style=""width:200px;border:14px solid red;"">","null","","","","","",""
"","image-keyboard-response","263","133992","0.0-263.0","3NC5L260MP8NECOK3IPEI08X5JEFOA","A2J1ANUL0BYKUK","30F94FBDNR6BS3JI3VKF41RBJN4TBU","","159.70000004768372","img/animal1.png","74","160","1","0","3","1,0.5,0,1,0.5,0,0.5,0,1",""
"","html-keyboard-response","264","134305","0.0-264.0","3NC5L260MP8NECOK3IPEI08X5JEFOA","A2J1ANUL0BYKUK","30F94FBDNR6BS3JI3VKF41RBJN4TBU","","null","<img src=""img/animal1.png"" style=""width:200px;border:14px solid red;"">","null","","","","","",""
"","image-keyboard-response","265","134874","0.0-265.0","3NC5L260MP8NECOK3IPEI08X5JEFOA","A2J1ANUL0BYKUK","30F94FBDNR6BS3JI3VKF41RBJN4TBU","","569","img/animal1.png","74","569.4000000953674","1","0","3","1,0.5,0,1,0.5,0,0.5,0,1",""
"","html-keyboard-response","266","135176","0.0-266.0","3NC5L260MP8NECOK3IPEI08X5JEFOA","A2J1ANUL0BYKUK","30F94FBDNR6BS3JI3VKF41RBJN4TBU","","null","<img src=""img/animal1.png"" style=""width:200px;border:14px solid red;"">","null","","","","","",""
"","image-keyboard-response","267","135304","0.0-267.0","3NC5L260MP8NECOK3IPEI08X5JEFOA","A2J1ANUL0BYKUK","30F94FBDNR6BS3JI3VKF41RBJN4TBU","","127.20000004768372","img/animal3.png","75","127.79999995231628","2","1","1","1,0.5,0,1,0.5,0,0.5,0,1",""
"","html-keyboard-response","268","135607","0.0-268.0","3NC5L260MP8NECOK3IPEI08X5JEFOA","A2J1ANUL0BYKUK","30F94FBDNR6BS3JI3VKF41RBJN4TBU","","null","<img src=""img/animal3.png"" style=""width:200px; border:14px solid green;"">","null","","","","","",""
"","image-keyboard-response","269","135796","0.0-269.0","3NC5L260MP8NECOK3IPEI08X5JEFOA","A2J1ANUL0BYKUK","30F94FBDNR6BS3JI3VKF41RBJN4TBU","","187.79999995231628","img/animal4.png","74","188.40000009536743","1","1","2","1,0.5,0,1,0.5,0,0.5,0,1",""
"","html-keyboard-response","270","136098","0.0-270.0","3NC5L260MP8NECOK3IPEI08X5JEFOA","A2J1ANUL0BYKUK","30F94FBDNR6BS3JI3VKF41RBJN4TBU","","null","<img src=""img/animal4.png"" style=""width:200px; border:14px solid green;"">","null","","","","","",""
"","image-keyboard-response","271","136325","0.0-271.0","3NC5L260MP8NECOK3IPEI08X5JEFOA","A2J1ANUL0BYKUK","30F94FBDNR6BS3JI3VKF41RBJN4TBU","","226.89999985694885","img/animal3.png","74","227.20000004768372","1","1","1","1,0.5,0,1,0.5,0,0.5,0,1",""
"","html-keyboard-response","272","136627","0.0-272.0","3NC5L260MP8NECOK3IPEI08X5JEFOA","A2J1ANUL0BYKUK","30F94FBDNR6BS3JI3VKF41RBJN4TBU","","null","<img src=""img/animal3.png"" style=""width:200px; border:14px solid green;"">","null","","","","","",""
"","image-keyboard-response","273","136839","0.0-273.0","3NC5L260MP8NECOK3IPEI08X5JEFOA","A2J1ANUL0BYKUK","30F94FBDNR6BS3JI3VKF41RBJN4TBU","","211.39999985694885","img/animal3.png","74","212","1","1","1","1,0.5,0,1,0.5,0,0.5,0,1",""
"","html-keyboard-response","274","137140","0.0-274.0","3NC5L260MP8NECOK3IPEI08X5JEFOA","A2J1ANUL0BYKUK","30F94FBDNR6BS3JI3VKF41RBJN4TBU","","null","<img src=""img/animal3.png"" style=""width:200px; border:14px solid green;"">","null","","","","","",""
"","image-keyboard-response","275","137313","0.0-275.0","3NC5L260MP8NECOK3IPEI08X5JEFOA","A2J1ANUL0BYKUK","30F94FBDNR6BS3JI3VKF41RBJN4TBU","","172","img/animal4.png","74","172.5","1","1","2","1,0.5,0,1,0.5,0,0.5,0,1",""
"","html-keyboard-response","276","137614","0.0-276.0","3NC5L260MP8NECOK3IPEI08X5JEFOA","A2J1ANUL0BYKUK","30F94FBDNR6BS3JI3VKF41RBJN4TBU","","null","<img src=""img/animal4.png"" style=""width:200px; border:14px solid green;"">","null","","","","","",""
"","image-keyboard-response","277","137773","0.0-277.0","3NC5L260MP8NECOK3IPEI08X5JEFOA","A2J1ANUL0BYKUK","30F94FBDNR6BS3JI3VKF41RBJN4TBU","","158.09999990463257","img/animal3.png","74","158.59999990463257","1","1","1","1,0.5,0,1,0.5,0,0.5,0,1",""
"","html-keyboard-response","278","138074","0.0-278.0","3NC5L260MP8NECOK3IPEI08X5JEFOA","A2J1ANUL0BYKUK","30F94FBDNR6BS3JI3VKF41RBJN4TBU","","null","<img src=""img/animal3.png"" style=""width:200px; border:14px solid green;"">","null","","","","","",""
"","image-keyboard-response","279","138283","0.0-279.0","3NC5L260MP8NECOK3IPEI08X5JEFOA","A2J1ANUL0BYKUK","30F94FBDNR6BS3JI3VKF41RBJN4TBU","","208.70000004768372","img/animal1.png","74","209.09999990463257","1","0","3","1,0.5,0,1,0.5,0,0.5,0,1",""
"","html-keyboard-response","280","138585","0.0-280.0","3NC5L260MP8NECOK3IPEI08X5JEFOA","A2J1ANUL0BYKUK","30F94FBDNR6BS3JI3VKF41RBJN4TBU","","null","<img src=""img/animal1.png"" style=""width:200px;border:14px solid red;"">","null","","","","","",""
"","image-keyboard-response","281","139137","0.0-281.0","3NC5L260MP8NECOK3IPEI08X5JEFOA","A2J1ANUL0BYKUK","30F94FBDNR6BS3JI3VKF41RBJN4TBU","","551.3999998569489","img/animal4.png","74","551.7000000476837","1","1","2","1,0.5,0,1,0.5,0,0.5,0,1",""
"","html-keyboard-response","282","139439","0.0-282.0","3NC5L260MP8NECOK3IPEI08X5JEFOA","A2J1ANUL0BYKUK","30F94FBDNR6BS3JI3VKF41RBJN4TBU","","null","<img src=""img/animal4.png"" style=""width:200px; border:14px solid green;"">","null","","","","","",""
"","image-keyboard-response","283","139622","0.0-283.0","3NC5L260MP8NECOK3IPEI08X5JEFOA","A2J1ANUL0BYKUK","30F94FBDNR6BS3JI3VKF41RBJN4TBU","","182.79999995231628","img/animal3.png","74","183.20000004768372","1","1","1","1,0.5,0,1,0.5,0,0.5,0,1",""
"","html-keyboard-response","284","139923","0.0-284.0","3NC5L260MP8NECOK3IPEI08X5JEFOA","A2J1ANUL0BYKUK","30F94FBDNR6BS3JI3VKF41RBJN4TBU","","null","<img src=""img/animal3.png"" style=""width:200px; border:14px solid green;"">","null","","","","","",""
"","image-keyboard-response","285","140112","0.0-285.0","3NC5L260MP8NECOK3IPEI08X5JEFOA","A2J1ANUL0BYKUK","30F94FBDNR6BS3JI3VKF41RBJN4TBU","","188.20000004768372","img/animal4.png","74","188.5","1","1","2","1,0.5,0,1,0.5,0,0.5,0,1",""
"","html-keyboard-response","286","140414","0.0-286.0","3NC5L260MP8NECOK3IPEI08X5JEFOA","A2J1ANUL0BYKUK","30F94FBDNR6BS3JI3VKF41RBJN4TBU","","null","<img src=""img/animal4.png"" style=""width:200px; border:14px solid green;"">","null","","","","","",""
"","image-keyboard-response","287","140583","0.0-287.0","3NC5L260MP8NECOK3IPEI08X5JEFOA","A2J1ANUL0BYKUK","30F94FBDNR6BS3JI3VKF41RBJN4TBU","","168","img/animal3.png","74","168.5","1","1","1","1,0.5,0,1,0.5,0,0.5,0,1",""
"","html-keyboard-response","288","140885","0.0-288.0","3NC5L260MP8NECOK3IPEI08X5JEFOA","A2J1ANUL0BYKUK","30F94FBDNR6BS3JI3VKF41RBJN4TBU","","null","<img src=""img/animal3.png"" style=""width:200px; border:14px solid green;"">","null","","","","","",""
"","image-keyboard-response","289","141025","0.0-289.0","3NC5L260MP8NECOK3IPEI08X5JEFOA","A2J1ANUL0BYKUK","30F94FBDNR6BS3JI3VKF41RBJN4TBU","","139.40000009536743","img/animal1.png","74","139.90000009536743","1","1","3","1,0.5,0,1,0.5,0,0.5,0,1",""
"","html-keyboard-response","290","141326","0.0-290.0","3NC5L260MP8NECOK3IPEI08X5JEFOA","A2J1ANUL0BYKUK","30F94FBDNR6BS3JI3VKF41RBJN4TBU","","null","<img src=""img/animal1.png"" style=""width:200px; border:14px solid green;"">","null","","","","","",""
"","image-keyboard-response","291","141456","0.0-291.0","3NC5L260MP8NECOK3IPEI08X5JEFOA","A2J1ANUL0BYKUK","30F94FBDNR6BS3JI3VKF41RBJN4TBU","","129.70000004768372","img/animal3.png","74","130","1","1","1","1,0.5,0,1,0.5,0,0.5,0,1",""
"","html-keyboard-response","292","141758","0.0-292.0","3NC5L260MP8NECOK3IPEI08X5JEFOA","A2J1ANUL0BYKUK","30F94FBDNR6BS3JI3VKF41RBJN4TBU","","null","<img src=""img/animal3.png"" style=""width:200px; border:14px solid green;"">","null","","","","","",""
"","image-keyboard-response","293","141924","0.0-293.0","3NC5L260MP8NECOK3IPEI08X5JEFOA","A2J1ANUL0BYKUK","30F94FBDNR6BS3JI3VKF41RBJN4TBU","","165.89999985694885","img/animal4.png","74","166.39999985694885","1","1","2","1,0.5,0,1,0.5,0,0.5,0,1",""
"","html-keyboard-response","294","142226","0.0-294.0","3NC5L260MP8NECOK3IPEI08X5JEFOA","A2J1ANUL0BYKUK","30F94FBDNR6BS3JI3VKF41RBJN4TBU","","null","<img src=""img/animal4.png"" style=""width:200px; border:14px solid green;"">","null","","","","","",""
"","image-keyboard-response","295","142393","0.0-295.0","3NC5L260MP8NECOK3IPEI08X5JEFOA","A2J1ANUL0BYKUK","30F94FBDNR6BS3JI3VKF41RBJN4TBU","","166.29999995231628","img/animal3.png","74","166.5","1","1","1","1,0.5,0,1,0.5,0,0.5,0,1",""
"","html-keyboard-response","296","142695","0.0-296.0","3NC5L260MP8NECOK3IPEI08X5JEFOA","A2J1ANUL0BYKUK","30F94FBDNR6BS3JI3VKF41RBJN4TBU","","null","<img src=""img/animal3.png"" style=""width:200px; border:14px solid green;"">","null","","","","","",""
"","image-keyboard-response","297","142831","0.0-297.0","3NC5L260MP8NECOK3IPEI08X5JEFOA","A2J1ANUL0BYKUK","30F94FBDNR6BS3JI3VKF41RBJN4TBU","","135.79999995231628","img/animal4.png","74","136.20000004768372","1","1","2","1,0.5,0,1,0.5,0,0.5,0,1",""
"","html-keyboard-response","298","143133","0.0-298.0","3NC5L260MP8NECOK3IPEI08X5JEFOA","A2J1ANUL0BYKUK","30F94FBDNR6BS3JI3VKF41RBJN4TBU","","null","<img src=""img/animal4.png"" style=""width:200px; border:14px solid green;"">","null","","","","","",""
"","image-keyboard-response","299","143282","0.0-299.0","3NC5L260MP8NECOK3IPEI08X5JEFOA","A2J1ANUL0BYKUK","30F94FBDNR6BS3JI3VKF41RBJN4TBU","","148.89999985694885","img/animal1.png","74","149.29999995231628","1","0","3","1,0.5,0,1,0.5,0,0.5,0,1",""
"","html-keyboard-response","300","143584","0.0-300.0","3NC5L260MP8NECOK3IPEI08X5JEFOA","A2J1ANUL0BYKUK","30F94FBDNR6BS3JI3VKF41RBJN4TBU","","null","<img src=""img/animal1.png"" style=""width:200px;border:14px solid red;"">","null","","","","","",""
"","image-keyboard-response","301","144107","0.0-301.0","3NC5L260MP8NECOK3IPEI08X5JEFOA","A2J1ANUL0BYKUK","30F94FBDNR6BS3JI3VKF41RBJN4TBU","","522.3000001907349","img/animal1.png","74","522.6999998092651","1","1","3","1,0.5,0,1,0.5,0,0.5,0,1",""
"","html-keyboard-response","302","144409","0.0-302.0","3NC5L260MP8NECOK3IPEI08X5JEFOA","A2J1ANUL0BYKUK","30F94FBDNR6BS3JI3VKF41RBJN4TBU","","null","<img src=""img/animal1.png"" style=""width:200px; border:14px solid green;"">","null","","","","","",""
"","image-keyboard-response","303","144564","0.0-303.0","3NC5L260MP8NECOK3IPEI08X5JEFOA","A2J1ANUL0BYKUK","30F94FBDNR6BS3JI3VKF41RBJN4TBU","","154.09999990463257","img/animal4.png","74","154.59999990463257","1","1","2","1,0.5,0,1,0.5,0,0.5,0,1",""
"","html-keyboard-response","304","144866","0.0-304.0","3NC5L260MP8NECOK3IPEI08X5JEFOA","A2J1ANUL0BYKUK","30F94FBDNR6BS3JI3VKF41RBJN4TBU","","null","<img src=""img/animal4.png"" style=""width:200px; border:14px solid green;"">","null","","","","","",""
"","image-keyboard-response","305","145036","0.0-305.0","3NC5L260MP8NECOK3IPEI08X5JEFOA","A2J1ANUL0BYKUK","30F94FBDNR6BS3JI3VKF41RBJN4TBU","","169.20000004768372","img/animal3.png","74","169.59999990463257","1","1","1","1,0.5,0,1,0.5,0,0.5,0,1",""
"","html-keyboard-response","306","145337","0.0-306.0","3NC5L260MP8NECOK3IPEI08X5JEFOA","A2J1ANUL0BYKUK","30F94FBDNR6BS3JI3VKF41RBJN4TBU","","null","<img src=""img/animal3.png"" style=""width:200px; border:14px solid green;"">","null","","","","","",""
"","image-keyboard-response","307","145484","0.0-307.0","3NC5L260MP8NECOK3IPEI08X5JEFOA","A2J1ANUL0BYKUK","30F94FBDNR6BS3JI3VKF41RBJN4TBU","","146.10000014305115","img/animal4.png","74","146.70000004768372","1","1","2","1,0.5,0,1,0.5,0,0.5,0,1",""
"","html-keyboard-response","308","145786","0.0-308.0","3NC5L260MP8NECOK3IPEI08X5JEFOA","A2J1ANUL0BYKUK","30F94FBDNR6BS3JI3VKF41RBJN4TBU","","null","<img src=""img/animal4.png"" style=""width:200px; border:14px solid green;"">","null","","","","","",""
"","image-keyboard-response","309","145937","0.0-309.0","3NC5L260MP8NECOK3IPEI08X5JEFOA","A2J1ANUL0BYKUK","30F94FBDNR6BS3JI3VKF41RBJN4TBU","","150.10000014305115","img/animal4.png","74","150.5","1","1","2","1,0.5,0,1,0.5,0,0.5,0,1",""
"","html-keyboard-response","310","146239","0.0-310.0","3NC5L260MP8NECOK3IPEI08X5JEFOA","A2J1ANUL0BYKUK","30F94FBDNR6BS3JI3VKF41RBJN4TBU","","null","<img src=""img/animal4.png"" style=""width:200px; border:14px solid green;"">","null","","","","","",""
"","image-keyboard-response","311","146366","0.0-311.0","3NC5L260MP8NECOK3IPEI08X5JEFOA","A2J1ANUL0BYKUK","30F94FBDNR6BS3JI3VKF41RBJN4TBU","","126.5","img/animal3.png","74","127.10000014305115","1","1","1","1,0.5,0,1,0.5,0,0.5,0,1",""
"","html-keyboard-response","312","146667","0.0-312.0","3NC5L260MP8NECOK3IPEI08X5JEFOA","A2J1ANUL0BYKUK","30F94FBDNR6BS3JI3VKF41RBJN4TBU","","null","<img src=""img/animal3.png"" style=""width:200px; border:14px solid green;"">","null","","","","","",""
"","image-keyboard-response","313","146822","0.0-313.0","3NC5L260MP8NECOK3IPEI08X5JEFOA","A2J1ANUL0BYKUK","30F94FBDNR6BS3JI3VKF41RBJN4TBU","","154.70000004768372","img/animal3.png","74","155","1","1","1","1,0.5,0,1,0.5,0,0.5,0,1",""
"","html-keyboard-response","314","147123","0.0-314.0","3NC5L260MP8NECOK3IPEI08X5JEFOA","A2J1ANUL0BYKUK","30F94FBDNR6BS3JI3VKF41RBJN4TBU","","null","<img src=""img/animal3.png"" style=""width:200px; border:14px solid green;"">","null","","","","","",""
"","image-keyboard-response","315","147317","0.0-315.0","3NC5L260MP8NECOK3IPEI08X5JEFOA","A2J1ANUL0BYKUK","30F94FBDNR6BS3JI3VKF41RBJN4TBU","","193.20000004768372","img/animal4.png","74","193.60000014305115","1","1","2","1,0.5,0,1,0.5,0,0.5,0,1",""
"","html-keyboard-response","316","147619","0.0-316.0","3NC5L260MP8NECOK3IPEI08X5JEFOA","A2J1ANUL0BYKUK","30F94FBDNR6BS3JI3VKF41RBJN4TBU","","null","<img src=""img/animal4.png"" style=""width:200px; border:14px solid green;"">","null","","","","","",""
"","image-keyboard-response","317","147762","0.0-317.0","3NC5L260MP8NECOK3IPEI08X5JEFOA","A2J1ANUL0BYKUK","30F94FBDNR6BS3JI3VKF41RBJN4TBU","","142","img/animal4.png","74","142.70000004768372","1","1","2","1,0.5,0,1,0.5,0,0.5,0,1",""
"","html-keyboard-response","318","148063","0.0-318.0","3NC5L260MP8NECOK3IPEI08X5JEFOA","A2J1ANUL0BYKUK","30F94FBDNR6BS3JI3VKF41RBJN4TBU","","null","<img src=""img/animal4.png"" style=""width:200px; border:14px solid green;"">","null","","","","","",""
"","image-keyboard-response","319","148274","0.0-319.0","3NC5L260MP8NECOK3IPEI08X5JEFOA","A2J1ANUL0BYKUK","30F94FBDNR6BS3JI3VKF41RBJN4TBU","","210.80000019073486","img/animal3.png","74","211.19999980926514","1","1","1","1,0.5,0,1,0.5,0,0.5,0,1",""
"","html-keyboard-response","320","148575","0.0-320.0","3NC5L260MP8NECOK3IPEI08X5JEFOA","A2J1ANUL0BYKUK","30F94FBDNR6BS3JI3VKF41RBJN4TBU","","null","<img src=""img/animal3.png"" style=""width:200px; border:14px solid green;"">","null","","","","","",""
"","image-keyboard-response","321","148761","0.0-321.0","3NC5L260MP8NECOK3IPEI08X5JEFOA","A2J1ANUL0BYKUK","30F94FBDNR6BS3JI3VKF41RBJN4TBU","","185.40000009536743","img/animal3.png","74","185.79999995231628","1","1","1","1,0.5,0,1,0.5,0,0.5,0,1",""
"","html-keyboard-response","322","149062","0.0-322.0","3NC5L260MP8NECOK3IPEI08X5JEFOA","A2J1ANUL0BYKUK","30F94FBDNR6BS3JI3VKF41RBJN4TBU","","null","<img src=""img/animal3.png"" style=""width:200px; border:14px solid green;"">","null","","","","","",""
"","image-keyboard-response","323","149235","0.0-323.0","3NC5L260MP8NECOK3IPEI08X5JEFOA","A2J1ANUL0BYKUK","30F94FBDNR6BS3JI3VKF41RBJN4TBU","","172.10000014305115","img/animal1.png","74","172.5","1","0","3","1,0.5,0,1,0.5,0,0.5,0,1",""
"","html-keyboard-response","324","149536","0.0-324.0","3NC5L260MP8NECOK3IPEI08X5JEFOA","A2J1ANUL0BYKUK","30F94FBDNR6BS3JI3VKF41RBJN4TBU","","null","<img src=""img/animal1.png"" style=""width:200px;border:14px solid red;"">","null","","","","","",""
"","image-keyboard-response","325","150041","0.0-325.0","3NC5L260MP8NECOK3IPEI08X5JEFOA","A2J1ANUL0BYKUK","30F94FBDNR6BS3JI3VKF41RBJN4TBU","","503.7999999523163","img/animal1.png","74","504.30000019073486","1","1","3","1,0.5,0,1,0.5,0,0.5,0,1",""
"","html-keyboard-response","326","150342","0.0-326.0","3NC5L260MP8NECOK3IPEI08X5JEFOA","A2J1ANUL0BYKUK","30F94FBDNR6BS3JI3VKF41RBJN4TBU","","null","<img src=""img/animal1.png"" style=""width:200px; border:14px solid green;"">","null","","","","","",""
"","image-keyboard-response","327","150547","0.0-327.0","3NC5L260MP8NECOK3IPEI08X5JEFOA","A2J1ANUL0BYKUK","30F94FBDNR6BS3JI3VKF41RBJN4TBU","","203.5","img/animal1.png","74","203.80000019073486","1","1","3","1,0.5,0,1,0.5,0,0.5,0,1",""
"","html-keyboard-response","328","150848","0.0-328.0","3NC5L260MP8NECOK3IPEI08X5JEFOA","A2J1ANUL0BYKUK","30F94FBDNR6BS3JI3VKF41RBJN4TBU","","null","<img src=""img/animal1.png"" style=""width:200px; border:14px solid green;"">","null","","","","","",""
"","image-keyboard-response","329","151003","0.0-329.0","3NC5L260MP8NECOK3IPEI08X5JEFOA","A2J1ANUL0BYKUK","30F94FBDNR6BS3JI3VKF41RBJN4TBU","","155","img/animal3.png","74","155.29999995231628","1","1","1","1,0.5,0,1,0.5,0,0.5,0,1",""
"","html-keyboard-response","330","151305","0.0-330.0","3NC5L260MP8NECOK3IPEI08X5JEFOA","A2J1ANUL0BYKUK","30F94FBDNR6BS3JI3VKF41RBJN4TBU","","null","<img src=""img/animal3.png"" style=""width:200px; border:14px solid green;"">","null","","","","","",""
"","image-keyboard-response","331","151485","0.0-331.0","3NC5L260MP8NECOK3IPEI08X5JEFOA","A2J1ANUL0BYKUK","30F94FBDNR6BS3JI3VKF41RBJN4TBU","","180.19999980926514","img/animal1.png","74","180.60000014305115","1","0","3","1,0.5,0,1,0.5,0,0.5,0,1",""
"","html-keyboard-response","332","151787","0.0-332.0","3NC5L260MP8NECOK3IPEI08X5JEFOA","A2J1ANUL0BYKUK","30F94FBDNR6BS3JI3VKF41RBJN4TBU","","null","<img src=""img/animal1.png"" style=""width:200px;border:14px solid red;"">","null","","","","","",""
"","image-keyboard-response","333","151915","0.0-333.0","3NC5L260MP8NECOK3IPEI08X5JEFOA","A2J1ANUL0BYKUK","30F94FBDNR6BS3JI3VKF41RBJN4TBU","","127.70000004768372","img/animal4.png","74","128.29999995231628","1","1","2","1,0.5,0,1,0.5,0,0.5,0,1",""
"","html-keyboard-response","334","152217","0.0-334.0","3NC5L260MP8NECOK3IPEI08X5JEFOA","A2J1ANUL0BYKUK","30F94FBDNR6BS3JI3VKF41RBJN4TBU","","null","<img src=""img/animal4.png"" style=""width:200px; border:14px solid green;"">","null","","","","","",""
"","image-keyboard-response","335","152392","0.0-335.0","3NC5L260MP8NECOK3IPEI08X5JEFOA","A2J1ANUL0BYKUK","30F94FBDNR6BS3JI3VKF41RBJN4TBU","","175","img/animal3.png","74","175.5","1","1","1","1,0.5,0,1,0.5,0,0.5,0,1",""
"","html-keyboard-response","336","152694","0.0-336.0","3NC5L260MP8NECOK3IPEI08X5JEFOA","A2J1ANUL0BYKUK","30F94FBDNR6BS3JI3VKF41RBJN4TBU","","null","<img src=""img/animal3.png"" style=""width:200px; border:14px solid green;"">","null","","","","","",""
"","image-keyboard-response","337","152836","0.0-337.0","3NC5L260MP8NECOK3IPEI08X5JEFOA","A2J1ANUL0BYKUK","30F94FBDNR6BS3JI3VKF41RBJN4TBU","","141.20000004768372","img/animal3.png","74","141.59999990463257","1","1","1","1,0.5,0,1,0.5,0,0.5,0,1",""
"","html-keyboard-response","338","153137","0.0-338.0","3NC5L260MP8NECOK3IPEI08X5JEFOA","A2J1ANUL0BYKUK","30F94FBDNR6BS3JI3VKF41RBJN4TBU","","null","<img src=""img/animal3.png"" style=""width:200px; border:14px solid green;"">","null","","","","","",""
"","image-keyboard-response","339","153265","0.0-339.0","3NC5L260MP8NECOK3IPEI08X5JEFOA","A2J1ANUL0BYKUK","30F94FBDNR6BS3JI3VKF41RBJN4TBU","","127.90000009536743","img/animal4.png","74","128.29999995231628","1","1","2","1,0.5,0,1,0.5,0,0.5,0,1",""
"","html-keyboard-response","340","153566","0.0-340.0","3NC5L260MP8NECOK3IPEI08X5JEFOA","A2J1ANUL0BYKUK","30F94FBDNR6BS3JI3VKF41RBJN4TBU","","null","<img src=""img/animal4.png"" style=""width:200px; border:14px solid green;"">","null","","","","","",""
"","image-keyboard-response","341","153708","0.0-341.0","3NC5L260MP8NECOK3IPEI08X5JEFOA","A2J1ANUL0BYKUK","30F94FBDNR6BS3JI3VKF41RBJN4TBU","","141.10000014305115","img/animal1.png","74","141.5","1","0","3","1,0.5,0,1,0.5,0,0.5,0,1",""
"","html-keyboard-response","342","154009","0.0-342.0","3NC5L260MP8NECOK3IPEI08X5JEFOA","A2J1ANUL0BYKUK","30F94FBDNR6BS3JI3VKF41RBJN4TBU","","null","<img src=""img/animal1.png"" style=""width:200px;border:14px solid red;"">","null","","","","","",""
"","image-keyboard-response","343","154142","0.0-343.0","3NC5L260MP8NECOK3IPEI08X5JEFOA","A2J1ANUL0BYKUK","30F94FBDNR6BS3JI3VKF41RBJN4TBU","","132.69999980926514","img/animal4.png","74","133.09999990463257","1","1","2","1,0.5,0,1,0.5,0,0.5,0,1",""
"","html-keyboard-response","344","154444","0.0-344.0","3NC5L260MP8NECOK3IPEI08X5JEFOA","A2J1ANUL0BYKUK","30F94FBDNR6BS3JI3VKF41RBJN4TBU","","null","<img src=""img/animal4.png"" style=""width:200px; border:14px solid green;"">","null","","","","","",""
"","image-keyboard-response","345","154606","0.0-345.0","3NC5L260MP8NECOK3IPEI08X5JEFOA","A2J1ANUL0BYKUK","30F94FBDNR6BS3JI3VKF41RBJN4TBU","","161.29999995231628","img/animal3.png","74","161.60000014305115","1","1","1","1,0.5,0,1,0.5,0,0.5,0,1",""
"","html-keyboard-response","346","154916","0.0-346.0","3NC5L260MP8NECOK3IPEI08X5JEFOA","A2J1ANUL0BYKUK","30F94FBDNR6BS3JI3VKF41RBJN4TBU","","null","<img src=""img/animal3.png"" style=""width:200px; border:14px solid green;"">","null","","","","","",""
"","image-keyboard-response","347","155044","0.0-347.0","3NC5L260MP8NECOK3IPEI08X5JEFOA","A2J1ANUL0BYKUK","30F94FBDNR6BS3JI3VKF41RBJN4TBU","","127.89999985694885","img/animal1.png","74","128.20000004768372","1","0","3","1,0.5,0,1,0.5,0,0.5,0,1",""
"","html-keyboard-response","348","155346","0.0-348.0","3NC5L260MP8NECOK3IPEI08X5JEFOA","A2J1ANUL0BYKUK","30F94FBDNR6BS3JI3VKF41RBJN4TBU","","null","<img src=""img/animal1.png"" style=""width:200px;border:14px solid red;"">","null","","","","","",""
"","image-keyboard-response","349","155514","0.0-349.0","3NC5L260MP8NECOK3IPEI08X5JEFOA","A2J1ANUL0BYKUK","30F94FBDNR6BS3JI3VKF41RBJN4TBU","","167.5","img/animal1.png","74","167.70000004768372","1","0","3","1,0.5,0,1,0.5,0,0.5,0,1",""
"","html-keyboard-response","350","155815","0.0-350.0","3NC5L260MP8NECOK3IPEI08X5JEFOA","A2J1ANUL0BYKUK","30F94FBDNR6BS3JI3VKF41RBJN4TBU","","null","<img src=""img/animal1.png"" style=""width:200px;border:14px solid red;"">","null","","","","","",""
"","image-keyboard-response","351","155962","0.0-351.0","3NC5L260MP8NECOK3IPEI08X5JEFOA","A2J1ANUL0BYKUK","30F94FBDNR6BS3JI3VKF41RBJN4TBU","","146.39999985694885","img/animal4.png","74","146.90000009536743","1","1","2","1,0.5,0,1,0.5,0,0.5,0,1",""
"","html-keyboard-response","352","156263","0.0-352.0","3NC5L260MP8NECOK3IPEI08X5JEFOA","A2J1ANUL0BYKUK","30F94FBDNR6BS3JI3VKF41RBJN4TBU","","null","<img src=""img/animal4.png"" style=""width:200px; border:14px solid green;"">","null","","","","","",""
"","image-keyboard-response","353","156379","0.0-353.0","3NC5L260MP8NECOK3IPEI08X5JEFOA","A2J1ANUL0BYKUK","30F94FBDNR6BS3JI3VKF41RBJN4TBU","","115","img/animal4.png","74","115.40000009536743","1","1","2","1,0.5,0,1,0.5,0,0.5,0,1",""
"","html-keyboard-response","354","156681","0.0-354.0","3NC5L260MP8NECOK3IPEI08X5JEFOA","A2J1ANUL0BYKUK","30F94FBDNR6BS3JI3VKF41RBJN4TBU","","null","<img src=""img/animal4.png"" style=""width:200px; border:14px solid green;"">","null","","","","","",""
"","image-keyboard-response","355","156807","0.0-355.0","3NC5L260MP8NECOK3IPEI08X5JEFOA","A2J1ANUL0BYKUK","30F94FBDNR6BS3JI3VKF41RBJN4TBU","","125.70000004768372","img/animal4.png","74","126.09999990463257","1","1","2","1,0.5,0,1,0.5,0,0.5,0,1",""
"","html-keyboard-response","356","157109","0.0-356.0","3NC5L260MP8NECOK3IPEI08X5JEFOA","A2J1ANUL0BYKUK","30F94FBDNR6BS3JI3VKF41RBJN4TBU","","null","<img src=""img/animal4.png"" style=""width:200px; border:14px solid green;"">","null","","","","","",""
"","image-keyboard-response","357","157232","0.0-357.0","3NC5L260MP8NECOK3IPEI08X5JEFOA","A2J1ANUL0BYKUK","30F94FBDNR6BS3JI3VKF41RBJN4TBU","","122.70000004768372","img/animal3.png","74","123.20000004768372","1","1","1","1,0.5,0,1,0.5,0,0.5,0,1",""
"","html-keyboard-response","358","157534","0.0-358.0","3NC5L260MP8NECOK3IPEI08X5JEFOA","A2J1ANUL0BYKUK","30F94FBDNR6BS3JI3VKF41RBJN4TBU","","null","<img src=""img/animal3.png"" style=""width:200px; border:14px solid green;"">","null","","","","","",""
"","image-keyboard-response","359","157627","0.0-359.0","3NC5L260MP8NECOK3IPEI08X5JEFOA","A2J1ANUL0BYKUK","30F94FBDNR6BS3JI3VKF41RBJN4TBU","","91.79999995231628","img/animal4.png","74","92.29999995231628","1","1","2","1,0.5,0,1,0.5,0,0.5,0,1",""
"","html-keyboard-response","360","157928","0.0-360.0","3NC5L260MP8NECOK3IPEI08X5JEFOA","A2J1ANUL0BYKUK","30F94FBDNR6BS3JI3VKF41RBJN4TBU","","null","<img src=""img/animal4.png"" style=""width:200px; border:14px solid green;"">","null","","","","","",""
"","image-keyboard-response","361","158079","0.0-361.0","3NC5L260MP8NECOK3IPEI08X5JEFOA","A2J1ANUL0BYKUK","30F94FBDNR6BS3JI3VKF41RBJN4TBU","","150.10000014305115","img/animal3.png","74","150.59999990463257","1","1","1","1,0.5,0,1,0.5,0,0.5,0,1",""
"","html-keyboard-response","362","158380","0.0-362.0","3NC5L260MP8NECOK3IPEI08X5JEFOA","A2J1ANUL0BYKUK","30F94FBDNR6BS3JI3VKF41RBJN4TBU","","null","<img src=""img/animal3.png"" style=""width:200px; border:14px solid green;"">","null","","","","","",""
"","instructions","363","163490","0.0-363.0","3NC5L260MP8NECOK3IPEI08X5JEFOA","A2J1ANUL0BYKUK","30F94FBDNR6BS3JI3VKF41RBJN4TBU","[{""page_index"":0,""viewing_time"":5109.600000143051}]","5109.800000190735","","","","","","","",""
"","survey-text","364","168328","0.0-364.0","3NC5L260MP8NECOK3IPEI08X5JEFOA","A2J1ANUL0BYKUK","30F94FBDNR6BS3JI3VKF41RBJN4TBU","","4836.099999904633","","","","","","","","{""Q0"":""A2J1ANUL0BYKUK""}"
