"success","trial_type","trial_index","time_elapsed","internal_node_id","assignmentID","mturkID","hitID","view_history","rt","stimulus","key_press","reactionTime","a","r","s","reward_cond","responses"
"true","fullscreen","0","2441","0.0-0.0","3KB8R4ZV1FT99IV6AXQAU18A0AGGBE","A2JDYN6QM8M5UN","3KVQ0UJWPX71V463XQYDOZYIDLRW5D","","","","","","","","","",""
"","instructions","1","16602","0.0-1.0","3KB8R4ZV1FT99IV6AXQAU18A0AGGBE","A2JDYN6QM8M5UN","3KVQ0UJWPX71V463XQYDOZYIDLRW5D","[{""page_index"":0,""viewing_time"":6484.600000023842},{""page_index"":1,""viewing_time"":1729.699999988079},{""page_index"":2,""viewing_time"":576.8000000119209},{""page_index"":3,""viewing_time"":1561.5},{""page_index"":4,""viewing_time"":1251.8999999761581},{""page_index"":5,""viewing_time"":840},{""page_index"":6,""viewing_time"":876.3999999761581},{""page_index"":7,""viewing_time"":836}]","14157.800000011921","","","","","","","",""
"","image-keyboard-response","2","17646","0.0-2.0","3KB8R4ZV1FT99IV6AXQAU18A0AGGBE","A2JDYN6QM8M5UN","3KVQ0UJWPX71V463XQYDOZYIDLRW5D","","1042","img/animal5.png","74","1044.0999999642372","1","1","3","1,0.7,0,1,0.7,0,0.7,0,1",""
"","html-keyboard-response","3","17950","0.0-3.0","3KB8R4ZV1FT99IV6AXQAU18A0AGGBE","A2JDYN6QM8M5UN","3KVQ0UJWPX71V463XQYDOZYIDLRW5D","","null","<img src=""img/animal5.png"" style=""width:200px; border:14px solid green;"">","null","","","","","",""
"","image-keyboard-response","4","18614","0.0-4.0","3KB8R4ZV1FT99IV6AXQAU18A0AGGBE","A2JDYN6QM8M5UN","3KVQ0UJWPX71V463XQYDOZYIDLRW5D","","662.4000000357628","img/animal4.png","75","664.1999999880791","2","1","1","1,0.7,0,1,0.7,0,0.7,0,1",""
"","html-keyboard-response","5","18925","0.0-5.0","3KB8R4ZV1FT99IV6AXQAU18A0AGGBE","A2JDYN6QM8M5UN","3KVQ0UJWPX71V463XQYDOZYIDLRW5D","","null","<img src=""img/animal4.png"" style=""width:200px; border:14px solid green;"">","null","","","","","",""
"","image-keyboard-response","6","19374","0.0-6.0","3KB8R4ZV1FT99IV6AXQAU18A0AGGBE","A2JDYN6QM8M5UN","3KVQ0UJWPX71V463XQYDOZYIDLRW5D","","446","img/animal4.png","75","447.89999997615814","2","1","1","1,0.7,0,1,0.7,0,0.7,0,1",""
"","html-keyboard-response","7","19678","0.0-7.0","3KB8R4ZV1FT99IV6AXQAU18A0AGGBE","A2JDYN6QM8M5UN","3KVQ0UJWPX71V463XQYDOZYIDLRW5D","","null","<img src=""img/animal4.png"" style=""width:200px; border:14px solid green;"">","null","","","","","",""
"","image-keyboard-response","8","20061","0.0-8.0","3KB8R4ZV1FT99IV6AXQAU18A0AGGBE","A2JDYN6QM8M5UN","3KVQ0UJWPX71V463XQYDOZYIDLRW5D","","381.10000002384186","img/animal4.png","75","382.5999999642372","2","1","1","1,0.7,0,1,0.7,0,0.7,0,1",""
"","html-keyboard-response","9","20365","0.0-9.0","3KB8R4ZV1FT99IV6AXQAU18A0AGGBE","A2JDYN6QM8M5UN","3KVQ0UJWPX71V463XQYDOZYIDLRW5D","","null","<img src=""img/animal4.png"" style=""width:200px; border:14px solid green;"">","null","","","","","",""
"","image-keyboard-response","10","21045","0.0-10.0","3KB8R4ZV1FT99IV6AXQAU18A0AGGBE","A2JDYN6QM8M5UN","3KVQ0UJWPX71V463XQYDOZYIDLRW5D","","678.3999999761581","img/animal3.png","76","679.8999999761581","3","0","2","1,0.7,0,1,0.7,0,0.7,0,1",""
"","html-keyboard-response","11","21361","0.0-11.0","3KB8R4ZV1FT99IV6AXQAU18A0AGGBE","A2JDYN6QM8M5UN","3KVQ0UJWPX71V463XQYDOZYIDLRW5D","","null","<img src=""img/animal3.png"" style=""width:200px;border:14px solid red;"">","null","","","","","",""
"","image-keyboard-response","12","22165","0.0-12.0","3KB8R4ZV1FT99IV6AXQAU18A0AGGBE","A2JDYN6QM8M5UN","3KVQ0UJWPX71V463XQYDOZYIDLRW5D","","802.1999999880791","img/animal5.png","74","803.4000000357628","1","1","3","1,0.7,0,1,0.7,0,0.7,0,1",""
"","html-keyboard-response","13","22467","0.0-13.0","3KB8R4ZV1FT99IV6AXQAU18A0AGGBE","A2JDYN6QM8M5UN","3KVQ0UJWPX71V463XQYDOZYIDLRW5D","","null","<img src=""img/animal5.png"" style=""width:200px; border:14px solid green;"">","null","","","","","",""
"","image-keyboard-response","14","23133","0.0-14.0","3KB8R4ZV1FT99IV6AXQAU18A0AGGBE","A2JDYN6QM8M5UN","3KVQ0UJWPX71V463XQYDOZYIDLRW5D","","664","img/animal4.png","75","665.9000000357628","2","1","1","1,0.7,0,1,0.7,0,0.7,0,1",""
"","html-keyboard-response","15","23439","0.0-15.0","3KB8R4ZV1FT99IV6AXQAU18A0AGGBE","A2JDYN6QM8M5UN","3KVQ0UJWPX71V463XQYDOZYIDLRW5D","","null","<img src=""img/animal4.png"" style=""width:200px; border:14px solid green;"">","null","","","","","",""
"","image-keyboard-response","16","23805","0.0-16.0","3KB8R4ZV1FT99IV6AXQAU18A0AGGBE","A2JDYN6QM8M5UN","3KVQ0UJWPX71V463XQYDOZYIDLRW5D","","364.39999997615814","img/animal4.png","75","365.9000000357628","2","1","1","1,0.7,0,1,0.7,0,0.7,0,1",""
"","html-keyboard-response","17","24116","0.0-17.0","3KB8R4ZV1FT99IV6AXQAU18A0AGGBE","A2JDYN6QM8M5UN","3KVQ0UJWPX71V463XQYDOZYIDLRW5D","","null","<img src=""img/animal4.png"" style=""width:200px; border:14px solid green;"">","null","","","","","",""
"","image-keyboard-response","18","24493","0.0-18.0","3KB8R4ZV1FT99IV6AXQAU18A0AGGBE","A2JDYN6QM8M5UN","3KVQ0UJWPX71V463XQYDOZYIDLRW5D","","375.5","img/animal4.png","75","377.10000002384186","2","1","1","1,0.7,0,1,0.7,0,0.7,0,1",""
"","html-keyboard-response","19","24808","0.0-19.0","3KB8R4ZV1FT99IV6AXQAU18A0AGGBE","A2JDYN6QM8M5UN","3KVQ0UJWPX71V463XQYDOZYIDLRW5D","","null","<img src=""img/animal4.png"" style=""width:200px; border:14px solid green;"">","null","","","","","",""
"","image-keyboard-response","20","25189","0.0-20.0","3KB8R4ZV1FT99IV6AXQAU18A0AGGBE","A2JDYN6QM8M5UN","3KVQ0UJWPX71V463XQYDOZYIDLRW5D","","378.4000000357628","img/animal3.png","75","380.30000001192093","2","1","2","1,0.7,0,1,0.7,0,0.7,0,1",""
"","html-keyboard-response","21","25494","0.0-21.0","3KB8R4ZV1FT99IV6AXQAU18A0AGGBE","A2JDYN6QM8M5UN","3KVQ0UJWPX71V463XQYDOZYIDLRW5D","","null","<img src=""img/animal3.png"" style=""width:200px; border:14px solid green;"">","null","","","","","",""
"","image-keyboard-response","22","26214","0.0-22.0","3KB8R4ZV1FT99IV6AXQAU18A0AGGBE","A2JDYN6QM8M5UN","3KVQ0UJWPX71V463XQYDOZYIDLRW5D","","718.0999999642372","img/animal4.png","75","720","2","0","1","1,0.7,0,1,0.7,0,0.7,0,1",""
"","html-keyboard-response","23","26524","0.0-23.0","3KB8R4ZV1FT99IV6AXQAU18A0AGGBE","A2JDYN6QM8M5UN","3KVQ0UJWPX71V463XQYDOZYIDLRW5D","","null","<img src=""img/animal4.png"" style=""width:200px;border:14px solid red;"">","null","","","","","",""
"","image-keyboard-response","24","27141","0.0-24.0","3KB8R4ZV1FT99IV6AXQAU18A0AGGBE","A2JDYN6QM8M5UN","3KVQ0UJWPX71V463XQYDOZYIDLRW5D","","615.1999999880791","img/animal4.png","75","616.6000000238419","2","0","1","1,0.7,0,1,0.7,0,0.7,0,1",""
"","html-keyboard-response","25","27446","0.0-25.0","3KB8R4ZV1FT99IV6AXQAU18A0AGGBE","A2JDYN6QM8M5UN","3KVQ0UJWPX71V463XQYDOZYIDLRW5D","","null","<img src=""img/animal4.png"" style=""width:200px;border:14px solid red;"">","null","","","","","",""
"","image-keyboard-response","26","28469","0.0-26.0","3KB8R4ZV1FT99IV6AXQAU18A0AGGBE","A2JDYN6QM8M5UN","3KVQ0UJWPX71V463XQYDOZYIDLRW5D","","1021.2000000476837","img/animal5.png","75","1022.4000000357628","2","0","3","1,0.7,0,1,0.7,0,0.7,0,1",""
"","html-keyboard-response","27","28777","0.0-27.0","3KB8R4ZV1FT99IV6AXQAU18A0AGGBE","A2JDYN6QM8M5UN","3KVQ0UJWPX71V463XQYDOZYIDLRW5D","","null","<img src=""img/animal5.png"" style=""width:200px;border:14px solid red;"">","null","","","","","",""
"","image-keyboard-response","28","29213","0.0-28.0","3KB8R4ZV1FT99IV6AXQAU18A0AGGBE","A2JDYN6QM8M5UN","3KVQ0UJWPX71V463XQYDOZYIDLRW5D","","434.7999999523163","img/animal5.png","75","436.4000000357628","2","0","3","1,0.7,0,1,0.7,0,0.7,0,1",""
"","html-keyboard-response","29","29516","0.0-29.0","3KB8R4ZV1FT99IV6AXQAU18A0AGGBE","A2JDYN6QM8M5UN","3KVQ0UJWPX71V463XQYDOZYIDLRW5D","","null","<img src=""img/animal5.png"" style=""width:200px;border:14px solid red;"">","null","","","","","",""
"","image-keyboard-response","30","30348","0.0-30.0","3KB8R4ZV1FT99IV6AXQAU18A0AGGBE","A2JDYN6QM8M5UN","3KVQ0UJWPX71V463XQYDOZYIDLRW5D","","830.6999999880791","img/animal4.png","74","831.8999999761581","1","1","1","1,0.7,0,1,0.7,0,0.7,0,1",""
"","html-keyboard-response","31","30650","0.0-31.0","3KB8R4ZV1FT99IV6AXQAU18A0AGGBE","A2JDYN6QM8M5UN","3KVQ0UJWPX71V463XQYDOZYIDLRW5D","","null","<img src=""img/animal4.png"" style=""width:200px; border:14px solid green;"">","null","","","","","",""
"","image-keyboard-response","32","31605","0.0-32.0","3KB8R4ZV1FT99IV6AXQAU18A0AGGBE","A2JDYN6QM8M5UN","3KVQ0UJWPX71V463XQYDOZYIDLRW5D","","952.8000000119209","img/animal3.png","75","954.4000000357628","2","0","2","1,0.7,0,1,0.7,0,0.7,0,1",""
"","html-keyboard-response","33","31907","0.0-33.0","3KB8R4ZV1FT99IV6AXQAU18A0AGGBE","A2JDYN6QM8M5UN","3KVQ0UJWPX71V463XQYDOZYIDLRW5D","","null","<img src=""img/animal3.png"" style=""width:200px;border:14px solid red;"">","null","","","","","",""
"","image-keyboard-response","34","33197","0.0-34.0","3KB8R4ZV1FT99IV6AXQAU18A0AGGBE","A2JDYN6QM8M5UN","3KVQ0UJWPX71V463XQYDOZYIDLRW5D","","1287.5","img/animal5.png","76","1288.9000000357628","3","1","3","1,0.7,0,1,0.7,0,0.7,0,1",""
"","html-keyboard-response","35","33500","0.0-35.0","3KB8R4ZV1FT99IV6AXQAU18A0AGGBE","A2JDYN6QM8M5UN","3KVQ0UJWPX71V463XQYDOZYIDLRW5D","","null","<img src=""img/animal5.png"" style=""width:200px; border:14px solid green;"">","null","","","","","",""
"","image-keyboard-response","36","34413","0.0-36.0","3KB8R4ZV1FT99IV6AXQAU18A0AGGBE","A2JDYN6QM8M5UN","3KVQ0UJWPX71V463XQYDOZYIDLRW5D","","911","img/animal3.png","75","912.4000000357628","2","0","2","1,0.7,0,1,0.7,0,0.7,0,1",""
"","html-keyboard-response","37","34714","0.0-37.0","3KB8R4ZV1FT99IV6AXQAU18A0AGGBE","A2JDYN6QM8M5UN","3KVQ0UJWPX71V463XQYDOZYIDLRW5D","","null","<img src=""img/animal3.png"" style=""width:200px;border:14px solid red;"">","null","","","","","",""
"","image-keyboard-response","38","35453","0.0-38.0","3KB8R4ZV1FT99IV6AXQAU18A0AGGBE","A2JDYN6QM8M5UN","3KVQ0UJWPX71V463XQYDOZYIDLRW5D","","737.2000000476837","img/animal5.png","76","738.3999999761581","3","1","3","1,0.7,0,1,0.7,0,0.7,0,1",""
"","html-keyboard-response","39","35755","0.0-39.0","3KB8R4ZV1FT99IV6AXQAU18A0AGGBE","A2JDYN6QM8M5UN","3KVQ0UJWPX71V463XQYDOZYIDLRW5D","","null","<img src=""img/animal5.png"" style=""width:200px; border:14px solid green;"">","null","","","","","",""
"","image-keyboard-response","40","36989","0.0-40.0","3KB8R4ZV1FT99IV6AXQAU18A0AGGBE","A2JDYN6QM8M5UN","3KVQ0UJWPX71V463XQYDOZYIDLRW5D","","1232.699999988079","img/animal4.png","74","1233.7000000476837","1","1","1","1,0.7,0,1,0.7,0,0.7,0,1",""
"","html-keyboard-response","41","37291","0.0-41.0","3KB8R4ZV1FT99IV6AXQAU18A0AGGBE","A2JDYN6QM8M5UN","3KVQ0UJWPX71V463XQYDOZYIDLRW5D","","null","<img src=""img/animal4.png"" style=""width:200px; border:14px solid green;"">","null","","","","","",""
"","image-keyboard-response","42","37973","0.0-42.0","3KB8R4ZV1FT99IV6AXQAU18A0AGGBE","A2JDYN6QM8M5UN","3KVQ0UJWPX71V463XQYDOZYIDLRW5D","","680","img/animal5.png","75","681.5","2","0","3","1,0.7,0,1,0.7,0,0.7,0,1",""
"","html-keyboard-response","43","38277","0.0-43.0","3KB8R4ZV1FT99IV6AXQAU18A0AGGBE","A2JDYN6QM8M5UN","3KVQ0UJWPX71V463XQYDOZYIDLRW5D","","null","<img src=""img/animal5.png"" style=""width:200px;border:14px solid red;"">","null","","","","","",""
"","image-keyboard-response","44","38829","0.0-44.0","3KB8R4ZV1FT99IV6AXQAU18A0AGGBE","A2JDYN6QM8M5UN","3KVQ0UJWPX71V463XQYDOZYIDLRW5D","","550.1000000238419","img/animal3.png","76","551.5","3","0","2","1,0.7,0,1,0.7,0,0.7,0,1",""
"","html-keyboard-response","45","39131","0.0-45.0","3KB8R4ZV1FT99IV6AXQAU18A0AGGBE","A2JDYN6QM8M5UN","3KVQ0UJWPX71V463XQYDOZYIDLRW5D","","null","<img src=""img/animal3.png"" style=""width:200px;border:14px solid red;"">","null","","","","","",""
"","image-keyboard-response","46","40173","0.0-46.0","3KB8R4ZV1FT99IV6AXQAU18A0AGGBE","A2JDYN6QM8M5UN","3KVQ0UJWPX71V463XQYDOZYIDLRW5D","","1039.8999999761581","img/animal3.png","74","1041.300000011921","1","1","2","1,0.7,0,1,0.7,0,0.7,0,1",""
"","html-keyboard-response","47","40475","0.0-47.0","3KB8R4ZV1FT99IV6AXQAU18A0AGGBE","A2JDYN6QM8M5UN","3KVQ0UJWPX71V463XQYDOZYIDLRW5D","","null","<img src=""img/animal3.png"" style=""width:200px; border:14px solid green;"">","null","","","","","",""
"","image-keyboard-response","48","41109","0.0-48.0","3KB8R4ZV1FT99IV6AXQAU18A0AGGBE","A2JDYN6QM8M5UN","3KVQ0UJWPX71V463XQYDOZYIDLRW5D","","632.1999999880791","img/animal5.png","74","633.6999999880791","1","0","3","1,0.7,0,1,0.7,0,0.7,0,1",""
"","html-keyboard-response","49","41411","0.0-49.0","3KB8R4ZV1FT99IV6AXQAU18A0AGGBE","A2JDYN6QM8M5UN","3KVQ0UJWPX71V463XQYDOZYIDLRW5D","","null","<img src=""img/animal5.png"" style=""width:200px;border:14px solid red;"">","null","","","","","",""
"","image-keyboard-response","50","41981","0.0-50.0","3KB8R4ZV1FT99IV6AXQAU18A0AGGBE","A2JDYN6QM8M5UN","3KVQ0UJWPX71V463XQYDOZYIDLRW5D","","568.0999999642372","img/animal4.png","74","569.5","1","1","1","1,0.7,0,1,0.7,0,0.7,0,1",""
"","html-keyboard-response","51","42283","0.0-51.0","3KB8R4ZV1FT99IV6AXQAU18A0AGGBE","A2JDYN6QM8M5UN","3KVQ0UJWPX71V463XQYDOZYIDLRW5D","","null","<img src=""img/animal4.png"" style=""width:200px; border:14px solid green;"">","null","","","","","",""
"","image-keyboard-response","52","43029","0.0-52.0","3KB8R4ZV1FT99IV6AXQAU18A0AGGBE","A2JDYN6QM8M5UN","3KVQ0UJWPX71V463XQYDOZYIDLRW5D","","743.8999999761581","img/animal4.png","74","745.1999999880791","1","1","1","1,0.7,0,1,0.7,0,0.7,0,1",""
"","html-keyboard-response","53","43332","0.0-53.0","3KB8R4ZV1FT99IV6AXQAU18A0AGGBE","A2JDYN6QM8M5UN","3KVQ0UJWPX71V463XQYDOZYIDLRW5D","","null","<img src=""img/animal4.png"" style=""width:200px; border:14px solid green;"">","null","","","","","",""
"","image-keyboard-response","54","43797","0.0-54.0","3KB8R4ZV1FT99IV6AXQAU18A0AGGBE","A2JDYN6QM8M5UN","3KVQ0UJWPX71V463XQYDOZYIDLRW5D","","462.89999997615814","img/animal4.png","74","464.60000002384186","1","1","1","1,0.7,0,1,0.7,0,0.7,0,1",""
"","html-keyboard-response","55","44099","0.0-55.0","3KB8R4ZV1FT99IV6AXQAU18A0AGGBE","A2JDYN6QM8M5UN","3KVQ0UJWPX71V463XQYDOZYIDLRW5D","","null","<img src=""img/animal4.png"" style=""width:200px; border:14px solid green;"">","null","","","","","",""
"","image-keyboard-response","56","44749","0.0-56.0","3KB8R4ZV1FT99IV6AXQAU18A0AGGBE","A2JDYN6QM8M5UN","3KVQ0UJWPX71V463XQYDOZYIDLRW5D","","647.9000000357628","img/animal5.png","75","649.5","2","0","3","1,0.7,0,1,0.7,0,0.7,0,1",""
"","html-keyboard-response","57","45052","0.0-57.0","3KB8R4ZV1FT99IV6AXQAU18A0AGGBE","A2JDYN6QM8M5UN","3KVQ0UJWPX71V463XQYDOZYIDLRW5D","","null","<img src=""img/animal5.png"" style=""width:200px;border:14px solid red;"">","null","","","","","",""
"","image-keyboard-response","58","45549","0.0-58.0","3KB8R4ZV1FT99IV6AXQAU18A0AGGBE","A2JDYN6QM8M5UN","3KVQ0UJWPX71V463XQYDOZYIDLRW5D","","495.69999998807907","img/animal5.png","75","497.19999998807907","2","0","3","1,0.7,0,1,0.7,0,0.7,0,1",""
"","html-keyboard-response","59","45851","0.0-59.0","3KB8R4ZV1FT99IV6AXQAU18A0AGGBE","A2JDYN6QM8M5UN","3KVQ0UJWPX71V463XQYDOZYIDLRW5D","","null","<img src=""img/animal5.png"" style=""width:200px;border:14px solid red;"">","null","","","","","",""
"","image-keyboard-response","60","46748","0.0-60.0","3KB8R4ZV1FT99IV6AXQAU18A0AGGBE","A2JDYN6QM8M5UN","3KVQ0UJWPX71V463XQYDOZYIDLRW5D","","895.5999999642372","img/animal3.png","74","896.4000000357628","1","1","2","1,0.7,0,1,0.7,0,0.7,0,1",""
"","html-keyboard-response","61","47050","0.0-61.0","3KB8R4ZV1FT99IV6AXQAU18A0AGGBE","A2JDYN6QM8M5UN","3KVQ0UJWPX71V463XQYDOZYIDLRW5D","","null","<img src=""img/animal3.png"" style=""width:200px; border:14px solid green;"">","null","","","","","",""
"","image-keyboard-response","62","47437","0.0-62.0","3KB8R4ZV1FT99IV6AXQAU18A0AGGBE","A2JDYN6QM8M5UN","3KVQ0UJWPX71V463XQYDOZYIDLRW5D","","385.2999999523163","img/animal3.png","74","387.10000002384186","1","1","2","1,0.7,0,1,0.7,0,0.7,0,1",""
"","html-keyboard-response","63","47739","0.0-63.0","3KB8R4ZV1FT99IV6AXQAU18A0AGGBE","A2JDYN6QM8M5UN","3KVQ0UJWPX71V463XQYDOZYIDLRW5D","","null","<img src=""img/animal3.png"" style=""width:200px; border:14px solid green;"">","null","","","","","",""
"","image-keyboard-response","64","48141","0.0-64.0","3KB8R4ZV1FT99IV6AXQAU18A0AGGBE","A2JDYN6QM8M5UN","3KVQ0UJWPX71V463XQYDOZYIDLRW5D","","399.60000002384186","img/animal5.png","76","401.0999999642372","3","1","3","1,0.7,0,1,0.7,0,0.7,0,1",""
"","html-keyboard-response","65","48444","0.0-65.0","3KB8R4ZV1FT99IV6AXQAU18A0AGGBE","A2JDYN6QM8M5UN","3KVQ0UJWPX71V463XQYDOZYIDLRW5D","","null","<img src=""img/animal5.png"" style=""width:200px; border:14px solid green;"">","null","","","","","",""
"","image-keyboard-response","66","48797","0.0-66.0","3KB8R4ZV1FT99IV6AXQAU18A0AGGBE","A2JDYN6QM8M5UN","3KVQ0UJWPX71V463XQYDOZYIDLRW5D","","351.39999997615814","img/animal5.png","76","352.80000001192093","3","1","3","1,0.7,0,1,0.7,0,0.7,0,1",""
"","html-keyboard-response","67","49099","0.0-67.0","3KB8R4ZV1FT99IV6AXQAU18A0AGGBE","A2JDYN6QM8M5UN","3KVQ0UJWPX71V463XQYDOZYIDLRW5D","","null","<img src=""img/animal5.png"" style=""width:200px; border:14px solid green;"">","null","","","","","",""
"","image-keyboard-response","68","49429","0.0-68.0","3KB8R4ZV1FT99IV6AXQAU18A0AGGBE","A2JDYN6QM8M5UN","3KVQ0UJWPX71V463XQYDOZYIDLRW5D","","328.19999998807907","img/animal5.png","76","329.5","3","1","3","1,0.7,0,1,0.7,0,0.7,0,1",""
"","html-keyboard-response","69","49731","0.0-69.0","3KB8R4ZV1FT99IV6AXQAU18A0AGGBE","A2JDYN6QM8M5UN","3KVQ0UJWPX71V463XQYDOZYIDLRW5D","","null","<img src=""img/animal5.png"" style=""width:200px; border:14px solid green;"">","null","","","","","",""
"","image-keyboard-response","70","50365","0.0-70.0","3KB8R4ZV1FT99IV6AXQAU18A0AGGBE","A2JDYN6QM8M5UN","3KVQ0UJWPX71V463XQYDOZYIDLRW5D","","631.6000000238419","img/animal4.png","74","633","1","1","1","1,0.7,0,1,0.7,0,0.7,0,1",""
"","html-keyboard-response","71","50667","0.0-71.0","3KB8R4ZV1FT99IV6AXQAU18A0AGGBE","A2JDYN6QM8M5UN","3KVQ0UJWPX71V463XQYDOZYIDLRW5D","","null","<img src=""img/animal4.png"" style=""width:200px; border:14px solid green;"">","null","","","","","",""
"","image-keyboard-response","72","50981","0.0-72.0","3KB8R4ZV1FT99IV6AXQAU18A0AGGBE","A2JDYN6QM8M5UN","3KVQ0UJWPX71V463XQYDOZYIDLRW5D","","311.9000000357628","img/animal4.png","74","313.4000000357628","1","1","1","1,0.7,0,1,0.7,0,0.7,0,1",""
"","html-keyboard-response","73","51283","0.0-73.0","3KB8R4ZV1FT99IV6AXQAU18A0AGGBE","A2JDYN6QM8M5UN","3KVQ0UJWPX71V463XQYDOZYIDLRW5D","","null","<img src=""img/animal4.png"" style=""width:200px; border:14px solid green;"">","null","","","","","",""
"","image-keyboard-response","74","52277","0.0-74.0","3KB8R4ZV1FT99IV6AXQAU18A0AGGBE","A2JDYN6QM8M5UN","3KVQ0UJWPX71V463XQYDOZYIDLRW5D","","992.1999999880791","img/animal3.png","74","993.6999999880791","1","1","2","1,0.7,0,1,0.7,0,0.7,0,1",""
"","html-keyboard-response","75","52584","0.0-75.0","3KB8R4ZV1FT99IV6AXQAU18A0AGGBE","A2JDYN6QM8M5UN","3KVQ0UJWPX71V463XQYDOZYIDLRW5D","","null","<img src=""img/animal3.png"" style=""width:200px; border:14px solid green;"">","null","","","","","",""
"","image-keyboard-response","76","53365","0.0-76.0","3KB8R4ZV1FT99IV6AXQAU18A0AGGBE","A2JDYN6QM8M5UN","3KVQ0UJWPX71V463XQYDOZYIDLRW5D","","778.6000000238419","img/animal5.png","76","780.3000000119209","3","1","3","1,0.7,0,1,0.7,0,0.7,0,1",""
"","html-keyboard-response","77","53667","0.0-77.0","3KB8R4ZV1FT99IV6AXQAU18A0AGGBE","A2JDYN6QM8M5UN","3KVQ0UJWPX71V463XQYDOZYIDLRW5D","","null","<img src=""img/animal5.png"" style=""width:200px; border:14px solid green;"">","null","","","","","",""
"","image-keyboard-response","78","54029","0.0-78.0","3KB8R4ZV1FT99IV6AXQAU18A0AGGBE","A2JDYN6QM8M5UN","3KVQ0UJWPX71V463XQYDOZYIDLRW5D","","360.4000000357628","img/animal5.png","76","361.7000000476837","3","1","3","1,0.7,0,1,0.7,0,0.7,0,1",""
"","html-keyboard-response","79","54332","0.0-79.0","3KB8R4ZV1FT99IV6AXQAU18A0AGGBE","A2JDYN6QM8M5UN","3KVQ0UJWPX71V463XQYDOZYIDLRW5D","","null","<img src=""img/animal5.png"" style=""width:200px; border:14px solid green;"">","null","","","","","",""
"","image-keyboard-response","80","54805","0.0-80.0","3KB8R4ZV1FT99IV6AXQAU18A0AGGBE","A2JDYN6QM8M5UN","3KVQ0UJWPX71V463XQYDOZYIDLRW5D","","469.89999997615814","img/animal4.png","74","472.10000002384186","1","1","1","1,0.7,0,1,0.7,0,0.7,0,1",""
"","html-keyboard-response","81","55108","0.0-81.0","3KB8R4ZV1FT99IV6AXQAU18A0AGGBE","A2JDYN6QM8M5UN","3KVQ0UJWPX71V463XQYDOZYIDLRW5D","","null","<img src=""img/animal4.png"" style=""width:200px; border:14px solid green;"">","null","","","","","",""
"","image-keyboard-response","82","55501","0.0-82.0","3KB8R4ZV1FT99IV6AXQAU18A0AGGBE","A2JDYN6QM8M5UN","3KVQ0UJWPX71V463XQYDOZYIDLRW5D","","391.5","img/animal3.png","74","392.80000001192093","1","1","2","1,0.7,0,1,0.7,0,0.7,0,1",""
"","html-keyboard-response","83","55804","0.0-83.0","3KB8R4ZV1FT99IV6AXQAU18A0AGGBE","A2JDYN6QM8M5UN","3KVQ0UJWPX71V463XQYDOZYIDLRW5D","","null","<img src=""img/animal3.png"" style=""width:200px; border:14px solid green;"">","null","","","","","",""
"","image-keyboard-response","84","56173","0.0-84.0","3KB8R4ZV1FT99IV6AXQAU18A0AGGBE","A2JDYN6QM8M5UN","3KVQ0UJWPX71V463XQYDOZYIDLRW5D","","367.5","img/animal3.png","74","368.9000000357628","1","1","2","1,0.7,0,1,0.7,0,0.7,0,1",""
"","html-keyboard-response","85","56475","0.0-85.0","3KB8R4ZV1FT99IV6AXQAU18A0AGGBE","A2JDYN6QM8M5UN","3KVQ0UJWPX71V463XQYDOZYIDLRW5D","","null","<img src=""img/animal3.png"" style=""width:200px; border:14px solid green;"">","null","","","","","",""
"","image-keyboard-response","86","56925","0.0-86.0","3KB8R4ZV1FT99IV6AXQAU18A0AGGBE","A2JDYN6QM8M5UN","3KVQ0UJWPX71V463XQYDOZYIDLRW5D","","447.60000002384186","img/animal4.png","74","448.9000000357628","1","1","1","1,0.7,0,1,0.7,0,0.7,0,1",""
"","html-keyboard-response","87","57227","0.0-87.0","3KB8R4ZV1FT99IV6AXQAU18A0AGGBE","A2JDYN6QM8M5UN","3KVQ0UJWPX71V463XQYDOZYIDLRW5D","","null","<img src=""img/animal4.png"" style=""width:200px; border:14px solid green;"">","null","","","","","",""
"","image-keyboard-response","88","57620","0.0-88.0","3KB8R4ZV1FT99IV6AXQAU18A0AGGBE","A2JDYN6QM8M5UN","3KVQ0UJWPX71V463XQYDOZYIDLRW5D","","392.5","img/animal3.png","74","393.30000001192093","1","1","2","1,0.7,0,1,0.7,0,0.7,0,1",""
"","html-keyboard-response","89","57923","0.0-89.0","3KB8R4ZV1FT99IV6AXQAU18A0AGGBE","A2JDYN6QM8M5UN","3KVQ0UJWPX71V463XQYDOZYIDLRW5D","","null","<img src=""img/animal3.png"" style=""width:200px; border:14px solid green;"">","null","","","","","",""
"","image-keyboard-response","90","58349","0.0-90.0","3KB8R4ZV1FT99IV6AXQAU18A0AGGBE","A2JDYN6QM8M5UN","3KVQ0UJWPX71V463XQYDOZYIDLRW5D","","424.89999997615814","img/animal4.png","74","426","1","1","1","1,0.7,0,1,0.7,0,0.7,0,1",""
"","html-keyboard-response","91","58651","0.0-91.0","3KB8R4ZV1FT99IV6AXQAU18A0AGGBE","A2JDYN6QM8M5UN","3KVQ0UJWPX71V463XQYDOZYIDLRW5D","","null","<img src=""img/animal4.png"" style=""width:200px; border:14px solid green;"">","null","","","","","",""
"","image-keyboard-response","92","59012","0.0-92.0","3KB8R4ZV1FT99IV6AXQAU18A0AGGBE","A2JDYN6QM8M5UN","3KVQ0UJWPX71V463XQYDOZYIDLRW5D","","359.69999998807907","img/animal4.png","74","360.5","1","1","1","1,0.7,0,1,0.7,0,0.7,0,1",""
"","html-keyboard-response","93","59314","0.0-93.0","3KB8R4ZV1FT99IV6AXQAU18A0AGGBE","A2JDYN6QM8M5UN","3KVQ0UJWPX71V463XQYDOZYIDLRW5D","","null","<img src=""img/animal4.png"" style=""width:200px; border:14px solid green;"">","null","","","","","",""
"","image-keyboard-response","94","59732","0.0-94.0","3KB8R4ZV1FT99IV6AXQAU18A0AGGBE","A2JDYN6QM8M5UN","3KVQ0UJWPX71V463XQYDOZYIDLRW5D","","418","img/animal5.png","76","418.5","3","1","3","1,0.7,0,1,0.7,0,0.7,0,1",""
"","html-keyboard-response","95","60035","0.0-95.0","3KB8R4ZV1FT99IV6AXQAU18A0AGGBE","A2JDYN6QM8M5UN","3KVQ0UJWPX71V463XQYDOZYIDLRW5D","","null","<img src=""img/animal5.png"" style=""width:200px; border:14px solid green;"">","null","","","","","",""
"","image-keyboard-response","96","60444","0.0-96.0","3KB8R4ZV1FT99IV6AXQAU18A0AGGBE","A2JDYN6QM8M5UN","3KVQ0UJWPX71V463XQYDOZYIDLRW5D","","407.80000001192093","img/animal3.png","74","408.30000001192093","1","1","2","1,0.7,0,1,0.7,0,0.7,0,1",""
"","html-keyboard-response","97","60746","0.0-97.0","3KB8R4ZV1FT99IV6AXQAU18A0AGGBE","A2JDYN6QM8M5UN","3KVQ0UJWPX71V463XQYDOZYIDLRW5D","","null","<img src=""img/animal3.png"" style=""width:200px; border:14px solid green;"">","null","","","","","",""
"","image-keyboard-response","98","61060","0.0-98.0","3KB8R4ZV1FT99IV6AXQAU18A0AGGBE","A2JDYN6QM8M5UN","3KVQ0UJWPX71V463XQYDOZYIDLRW5D","","313.30000001192093","img/animal3.png","74","314.19999998807907","1","1","2","1,0.7,0,1,0.7,0,0.7,0,1",""
"","html-keyboard-response","99","61363","0.0-99.0","3KB8R4ZV1FT99IV6AXQAU18A0AGGBE","A2JDYN6QM8M5UN","3KVQ0UJWPX71V463XQYDOZYIDLRW5D","","null","<img src=""img/animal3.png"" style=""width:200px; border:14px solid green;"">","null","","","","","",""
"","image-keyboard-response","100","61812","0.0-100.0","3KB8R4ZV1FT99IV6AXQAU18A0AGGBE","A2JDYN6QM8M5UN","3KVQ0UJWPX71V463XQYDOZYIDLRW5D","","448.19999998807907","img/animal3.png","74","449.19999998807907","1","1","2","1,0.7,0,1,0.7,0,0.7,0,1",""
"","html-keyboard-response","101","62114","0.0-101.0","3KB8R4ZV1FT99IV6AXQAU18A0AGGBE","A2JDYN6QM8M5UN","3KVQ0UJWPX71V463XQYDOZYIDLRW5D","","null","<img src=""img/animal3.png"" style=""width:200px; border:14px solid green;"">","null","","","","","",""
"","image-keyboard-response","102","62501","0.0-102.0","3KB8R4ZV1FT99IV6AXQAU18A0AGGBE","A2JDYN6QM8M5UN","3KVQ0UJWPX71V463XQYDOZYIDLRW5D","","386.69999998807907","img/animal4.png","74","387.30000001192093","1","1","1","1,0.7,0,1,0.7,0,0.7,0,1",""
"","html-keyboard-response","103","62802","0.0-103.0","3KB8R4ZV1FT99IV6AXQAU18A0AGGBE","A2JDYN6QM8M5UN","3KVQ0UJWPX71V463XQYDOZYIDLRW5D","","null","<img src=""img/animal4.png"" style=""width:200px; border:14px solid green;"">","null","","","","","",""
"","image-keyboard-response","104","63228","0.0-104.0","3KB8R4ZV1FT99IV6AXQAU18A0AGGBE","A2JDYN6QM8M5UN","3KVQ0UJWPX71V463XQYDOZYIDLRW5D","","424.7000000476837","img/animal3.png","74","425.5","1","1","2","1,0.7,0,1,0.7,0,0.7,0,1",""
"","html-keyboard-response","105","63529","0.0-105.0","3KB8R4ZV1FT99IV6AXQAU18A0AGGBE","A2JDYN6QM8M5UN","3KVQ0UJWPX71V463XQYDOZYIDLRW5D","","null","<img src=""img/animal3.png"" style=""width:200px; border:14px solid green;"">","null","","","","","",""
"","image-keyboard-response","106","63901","0.0-106.0","3KB8R4ZV1FT99IV6AXQAU18A0AGGBE","A2JDYN6QM8M5UN","3KVQ0UJWPX71V463XQYDOZYIDLRW5D","","370","img/animal4.png","74","370.80000001192093","1","1","1","1,0.7,0,1,0.7,0,0.7,0,1",""
"","html-keyboard-response","107","64203","0.0-107.0","3KB8R4ZV1FT99IV6AXQAU18A0AGGBE","A2JDYN6QM8M5UN","3KVQ0UJWPX71V463XQYDOZYIDLRW5D","","null","<img src=""img/animal4.png"" style=""width:200px; border:14px solid green;"">","null","","","","","",""
"","image-keyboard-response","108","64612","0.0-108.0","3KB8R4ZV1FT99IV6AXQAU18A0AGGBE","A2JDYN6QM8M5UN","3KVQ0UJWPX71V463XQYDOZYIDLRW5D","","408.2000000476837","img/animal5.png","76","409","3","1","3","1,0.7,0,1,0.7,0,0.7,0,1",""
"","html-keyboard-response","109","64914","0.0-109.0","3KB8R4ZV1FT99IV6AXQAU18A0AGGBE","A2JDYN6QM8M5UN","3KVQ0UJWPX71V463XQYDOZYIDLRW5D","","null","<img src=""img/animal5.png"" style=""width:200px; border:14px solid green;"">","null","","","","","",""
"","image-keyboard-response","110","65292","0.0-110.0","3KB8R4ZV1FT99IV6AXQAU18A0AGGBE","A2JDYN6QM8M5UN","3KVQ0UJWPX71V463XQYDOZYIDLRW5D","","376.5","img/animal3.png","74","377.0999999642372","1","1","2","1,0.7,0,1,0.7,0,0.7,0,1",""
"","html-keyboard-response","111","65593","0.0-111.0","3KB8R4ZV1FT99IV6AXQAU18A0AGGBE","A2JDYN6QM8M5UN","3KVQ0UJWPX71V463XQYDOZYIDLRW5D","","null","<img src=""img/animal3.png"" style=""width:200px; border:14px solid green;"">","null","","","","","",""
"","image-keyboard-response","112","65925","0.0-112.0","3KB8R4ZV1FT99IV6AXQAU18A0AGGBE","A2JDYN6QM8M5UN","3KVQ0UJWPX71V463XQYDOZYIDLRW5D","","331.39999997615814","img/animal5.png","76","331.89999997615814","3","1","3","1,0.7,0,1,0.7,0,0.7,0,1",""
"","html-keyboard-response","113","66227","0.0-113.0","3KB8R4ZV1FT99IV6AXQAU18A0AGGBE","A2JDYN6QM8M5UN","3KVQ0UJWPX71V463XQYDOZYIDLRW5D","","null","<img src=""img/animal5.png"" style=""width:200px; border:14px solid green;"">","null","","","","","",""
"","image-keyboard-response","114","66661","0.0-114.0","3KB8R4ZV1FT99IV6AXQAU18A0AGGBE","A2JDYN6QM8M5UN","3KVQ0UJWPX71V463XQYDOZYIDLRW5D","","432.19999998807907","img/animal4.png","74","433.30000001192093","1","1","1","1,0.7,0,1,0.7,0,0.7,0,1",""
"","html-keyboard-response","115","66963","0.0-115.0","3KB8R4ZV1FT99IV6AXQAU18A0AGGBE","A2JDYN6QM8M5UN","3KVQ0UJWPX71V463XQYDOZYIDLRW5D","","null","<img src=""img/animal4.png"" style=""width:200px; border:14px solid green;"">","null","","","","","",""
"","image-keyboard-response","116","67300","0.0-116.0","3KB8R4ZV1FT99IV6AXQAU18A0AGGBE","A2JDYN6QM8M5UN","3KVQ0UJWPX71V463XQYDOZYIDLRW5D","","336.69999998807907","img/animal4.png","74","337.4000000357628","1","1","1","1,0.7,0,1,0.7,0,0.7,0,1",""
"","html-keyboard-response","117","67602","0.0-117.0","3KB8R4ZV1FT99IV6AXQAU18A0AGGBE","A2JDYN6QM8M5UN","3KVQ0UJWPX71V463XQYDOZYIDLRW5D","","null","<img src=""img/animal4.png"" style=""width:200px; border:14px solid green;"">","null","","","","","",""
"","image-keyboard-response","118","68132","0.0-118.0","3KB8R4ZV1FT99IV6AXQAU18A0AGGBE","A2JDYN6QM8M5UN","3KVQ0UJWPX71V463XQYDOZYIDLRW5D","","528.8000000119209","img/animal5.png","76","529.4000000357628","3","1","3","1,0.7,0,1,0.7,0,0.7,0,1",""
"","html-keyboard-response","119","68434","0.0-119.0","3KB8R4ZV1FT99IV6AXQAU18A0AGGBE","A2JDYN6QM8M5UN","3KVQ0UJWPX71V463XQYDOZYIDLRW5D","","null","<img src=""img/animal5.png"" style=""width:200px; border:14px solid green;"">","null","","","","","",""
"","image-keyboard-response","120","68871","0.0-120.0","3KB8R4ZV1FT99IV6AXQAU18A0AGGBE","A2JDYN6QM8M5UN","3KVQ0UJWPX71V463XQYDOZYIDLRW5D","","435.39999997615814","img/animal4.png","74","436.89999997615814","1","1","1","1,0.7,0,1,0.7,0,0.7,0,1",""
"","html-keyboard-response","121","69176","0.0-121.0","3KB8R4ZV1FT99IV6AXQAU18A0AGGBE","A2JDYN6QM8M5UN","3KVQ0UJWPX71V463XQYDOZYIDLRW5D","","null","<img src=""img/animal4.png"" style=""width:200px; border:14px solid green;"">","null","","","","","",""
"","image-keyboard-response","122","69525","0.0-122.0","3KB8R4ZV1FT99IV6AXQAU18A0AGGBE","A2JDYN6QM8M5UN","3KVQ0UJWPX71V463XQYDOZYIDLRW5D","","347.4000000357628","img/animal5.png","74","348.10000002384186","1","1","3","1,0.7,0,1,0.7,0,0.7,0,1",""
"","html-keyboard-response","123","69837","0.0-123.0","3KB8R4ZV1FT99IV6AXQAU18A0AGGBE","A2JDYN6QM8M5UN","3KVQ0UJWPX71V463XQYDOZYIDLRW5D","","null","<img src=""img/animal5.png"" style=""width:200px; border:14px solid green;"">","null","","","","","",""
"","image-keyboard-response","124","70485","0.0-124.0","3KB8R4ZV1FT99IV6AXQAU18A0AGGBE","A2JDYN6QM8M5UN","3KVQ0UJWPX71V463XQYDOZYIDLRW5D","","645.9000000357628","img/animal3.png","74","647.5","1","1","2","1,0.7,0,1,0.7,0,0.7,0,1",""
"","html-keyboard-response","125","70788","0.0-125.0","3KB8R4ZV1FT99IV6AXQAU18A0AGGBE","A2JDYN6QM8M5UN","3KVQ0UJWPX71V463XQYDOZYIDLRW5D","","null","<img src=""img/animal3.png"" style=""width:200px; border:14px solid green;"">","null","","","","","",""
"","image-keyboard-response","126","71164","0.0-126.0","3KB8R4ZV1FT99IV6AXQAU18A0AGGBE","A2JDYN6QM8M5UN","3KVQ0UJWPX71V463XQYDOZYIDLRW5D","","374.2999999523163","img/animal3.png","74","375.5","1","1","2","1,0.7,0,1,0.7,0,0.7,0,1",""
"","html-keyboard-response","127","71466","0.0-127.0","3KB8R4ZV1FT99IV6AXQAU18A0AGGBE","A2JDYN6QM8M5UN","3KVQ0UJWPX71V463XQYDOZYIDLRW5D","","null","<img src=""img/animal3.png"" style=""width:200px; border:14px solid green;"">","null","","","","","",""
"","image-keyboard-response","128","71829","0.0-128.0","3KB8R4ZV1FT99IV6AXQAU18A0AGGBE","A2JDYN6QM8M5UN","3KVQ0UJWPX71V463XQYDOZYIDLRW5D","","360.5999999642372","img/animal3.png","74","362.0999999642372","1","1","2","1,0.7,0,1,0.7,0,0.7,0,1",""
"","html-keyboard-response","129","72132","0.0-129.0","3KB8R4ZV1FT99IV6AXQAU18A0AGGBE","A2JDYN6QM8M5UN","3KVQ0UJWPX71V463XQYDOZYIDLRW5D","","null","<img src=""img/animal3.png"" style=""width:200px; border:14px solid green;"">","null","","","","","",""
"","image-keyboard-response","130","72517","0.0-130.0","3KB8R4ZV1FT99IV6AXQAU18A0AGGBE","A2JDYN6QM8M5UN","3KVQ0UJWPX71V463XQYDOZYIDLRW5D","","383.2000000476837","img/animal3.png","74","384.69999998807907","1","1","2","1,0.7,0,1,0.7,0,0.7,0,1",""
"","html-keyboard-response","131","72820","0.0-131.0","3KB8R4ZV1FT99IV6AXQAU18A0AGGBE","A2JDYN6QM8M5UN","3KVQ0UJWPX71V463XQYDOZYIDLRW5D","","null","<img src=""img/animal3.png"" style=""width:200px; border:14px solid green;"">","null","","","","","",""
"","image-keyboard-response","132","73284","0.0-132.0","3KB8R4ZV1FT99IV6AXQAU18A0AGGBE","A2JDYN6QM8M5UN","3KVQ0UJWPX71V463XQYDOZYIDLRW5D","","462.39999997615814","img/animal4.png","74","463.5","1","1","1","1,0.7,0,1,0.7,0,0.7,0,1",""
"","html-keyboard-response","133","73587","0.0-133.0","3KB8R4ZV1FT99IV6AXQAU18A0AGGBE","A2JDYN6QM8M5UN","3KVQ0UJWPX71V463XQYDOZYIDLRW5D","","null","<img src=""img/animal4.png"" style=""width:200px; border:14px solid green;"">","null","","","","","",""
"","image-keyboard-response","134","73909","0.0-134.0","3KB8R4ZV1FT99IV6AXQAU18A0AGGBE","A2JDYN6QM8M5UN","3KVQ0UJWPX71V463XQYDOZYIDLRW5D","","320.69999998807907","img/animal4.png","74","322.0999999642372","1","1","1","1,0.7,0,1,0.7,0,0.7,0,1",""
"","html-keyboard-response","135","74212","0.0-135.0","3KB8R4ZV1FT99IV6AXQAU18A0AGGBE","A2JDYN6QM8M5UN","3KVQ0UJWPX71V463XQYDOZYIDLRW5D","","null","<img src=""img/animal4.png"" style=""width:200px; border:14px solid green;"">","null","","","","","",""
"","image-keyboard-response","136","74613","0.0-136.0","3KB8R4ZV1FT99IV6AXQAU18A0AGGBE","A2JDYN6QM8M5UN","3KVQ0UJWPX71V463XQYDOZYIDLRW5D","","399.19999998807907","img/animal5.png","76","400.60000002384186","3","1","3","1,0.7,0,1,0.7,0,0.7,0,1",""
"","html-keyboard-response","137","74915","0.0-137.0","3KB8R4ZV1FT99IV6AXQAU18A0AGGBE","A2JDYN6QM8M5UN","3KVQ0UJWPX71V463XQYDOZYIDLRW5D","","null","<img src=""img/animal5.png"" style=""width:200px; border:14px solid green;"">","null","","","","","",""
"","image-keyboard-response","138","75293","0.0-138.0","3KB8R4ZV1FT99IV6AXQAU18A0AGGBE","A2JDYN6QM8M5UN","3KVQ0UJWPX71V463XQYDOZYIDLRW5D","","375.5","img/animal3.png","74","377","1","1","2","1,0.7,0,1,0.7,0,0.7,0,1",""
"","html-keyboard-response","139","75597","0.0-139.0","3KB8R4ZV1FT99IV6AXQAU18A0AGGBE","A2JDYN6QM8M5UN","3KVQ0UJWPX71V463XQYDOZYIDLRW5D","","null","<img src=""img/animal3.png"" style=""width:200px; border:14px solid green;"">","null","","","","","",""
"","image-keyboard-response","140","76061","0.0-140.0","3KB8R4ZV1FT99IV6AXQAU18A0AGGBE","A2JDYN6QM8M5UN","3KVQ0UJWPX71V463XQYDOZYIDLRW5D","","462.5","img/animal5.png","76","463.69999998807907","3","1","3","1,0.7,0,1,0.7,0,0.7,0,1",""
"","html-keyboard-response","141","76375","0.0-141.0","3KB8R4ZV1FT99IV6AXQAU18A0AGGBE","A2JDYN6QM8M5UN","3KVQ0UJWPX71V463XQYDOZYIDLRW5D","","null","<img src=""img/animal5.png"" style=""width:200px; border:14px solid green;"">","null","","","","","",""
"","image-keyboard-response","142","76845","0.0-142.0","3KB8R4ZV1FT99IV6AXQAU18A0AGGBE","A2JDYN6QM8M5UN","3KVQ0UJWPX71V463XQYDOZYIDLRW5D","","468.0999999642372","img/animal3.png","74","469.39999997615814","1","1","2","1,0.7,0,1,0.7,0,0.7,0,1",""
"","html-keyboard-response","143","77148","0.0-143.0","3KB8R4ZV1FT99IV6AXQAU18A0AGGBE","A2JDYN6QM8M5UN","3KVQ0UJWPX71V463XQYDOZYIDLRW5D","","null","<img src=""img/animal3.png"" style=""width:200px; border:14px solid green;"">","null","","","","","",""
"","image-keyboard-response","144","77749","0.0-144.0","3KB8R4ZV1FT99IV6AXQAU18A0AGGBE","A2JDYN6QM8M5UN","3KVQ0UJWPX71V463XQYDOZYIDLRW5D","","599.3000000119209","img/animal5.png","76","600.6000000238419","3","1","3","1,0.7,0,1,0.7,0,0.7,0,1",""
"","html-keyboard-response","145","78052","0.0-145.0","3KB8R4ZV1FT99IV6AXQAU18A0AGGBE","A2JDYN6QM8M5UN","3KVQ0UJWPX71V463XQYDOZYIDLRW5D","","null","<img src=""img/animal5.png"" style=""width:200px; border:14px solid green;"">","null","","","","","",""
"","image-keyboard-response","146","78533","0.0-146.0","3KB8R4ZV1FT99IV6AXQAU18A0AGGBE","A2JDYN6QM8M5UN","3KVQ0UJWPX71V463XQYDOZYIDLRW5D","","479.5","img/animal3.png","74","480.89999997615814","1","1","2","1,0.7,0,1,0.7,0,0.7,0,1",""
"","html-keyboard-response","147","78836","0.0-147.0","3KB8R4ZV1FT99IV6AXQAU18A0AGGBE","A2JDYN6QM8M5UN","3KVQ0UJWPX71V463XQYDOZYIDLRW5D","","null","<img src=""img/animal3.png"" style=""width:200px; border:14px solid green;"">","null","","","","","",""
"","image-keyboard-response","148","79325","0.0-148.0","3KB8R4ZV1FT99IV6AXQAU18A0AGGBE","A2JDYN6QM8M5UN","3KVQ0UJWPX71V463XQYDOZYIDLRW5D","","487","img/animal4.png","74","488.30000001192093","1","1","1","1,0.7,0,1,0.7,0,0.7,0,1",""
"","html-keyboard-response","149","79628","0.0-149.0","3KB8R4ZV1FT99IV6AXQAU18A0AGGBE","A2JDYN6QM8M5UN","3KVQ0UJWPX71V463XQYDOZYIDLRW5D","","null","<img src=""img/animal4.png"" style=""width:200px; border:14px solid green;"">","null","","","","","",""
"","image-keyboard-response","150","80005","0.0-150.0","3KB8R4ZV1FT99IV6AXQAU18A0AGGBE","A2JDYN6QM8M5UN","3KVQ0UJWPX71V463XQYDOZYIDLRW5D","","375.39999997615814","img/animal4.png","74","376.7000000476837","1","1","1","1,0.7,0,1,0.7,0,0.7,0,1",""
"","html-keyboard-response","151","80307","0.0-151.0","3KB8R4ZV1FT99IV6AXQAU18A0AGGBE","A2JDYN6QM8M5UN","3KVQ0UJWPX71V463XQYDOZYIDLRW5D","","null","<img src=""img/animal4.png"" style=""width:200px; border:14px solid green;"">","null","","","","","",""
"","image-keyboard-response","152","80709","0.0-152.0","3KB8R4ZV1FT99IV6AXQAU18A0AGGBE","A2JDYN6QM8M5UN","3KVQ0UJWPX71V463XQYDOZYIDLRW5D","","400.2000000476837","img/animal5.png","76","401.60000002384186","3","1","3","1,0.7,0,1,0.7,0,0.7,0,1",""
"","html-keyboard-response","153","81011","0.0-153.0","3KB8R4ZV1FT99IV6AXQAU18A0AGGBE","A2JDYN6QM8M5UN","3KVQ0UJWPX71V463XQYDOZYIDLRW5D","","null","<img src=""img/animal5.png"" style=""width:200px; border:14px solid green;"">","null","","","","","",""
"","image-keyboard-response","154","81381","0.0-154.0","3KB8R4ZV1FT99IV6AXQAU18A0AGGBE","A2JDYN6QM8M5UN","3KVQ0UJWPX71V463XQYDOZYIDLRW5D","","368.19999998807907","img/animal5.png","76","369.9000000357628","3","1","3","1,0.7,0,1,0.7,0,0.7,0,1",""
"","html-keyboard-response","155","81685","0.0-155.0","3KB8R4ZV1FT99IV6AXQAU18A0AGGBE","A2JDYN6QM8M5UN","3KVQ0UJWPX71V463XQYDOZYIDLRW5D","","null","<img src=""img/animal5.png"" style=""width:200px; border:14px solid green;"">","null","","","","","",""
"","image-keyboard-response","156","82021","0.0-156.0","3KB8R4ZV1FT99IV6AXQAU18A0AGGBE","A2JDYN6QM8M5UN","3KVQ0UJWPX71V463XQYDOZYIDLRW5D","","334.10000002384186","img/animal5.png","76","335.4000000357628","3","1","3","1,0.7,0,1,0.7,0,0.7,0,1",""
"","html-keyboard-response","157","82324","0.0-157.0","3KB8R4ZV1FT99IV6AXQAU18A0AGGBE","A2JDYN6QM8M5UN","3KVQ0UJWPX71V463XQYDOZYIDLRW5D","","null","<img src=""img/animal5.png"" style=""width:200px; border:14px solid green;"">","null","","","","","",""
"","image-keyboard-response","158","82725","0.0-158.0","3KB8R4ZV1FT99IV6AXQAU18A0AGGBE","A2JDYN6QM8M5UN","3KVQ0UJWPX71V463XQYDOZYIDLRW5D","","399.0999999642372","img/animal3.png","74","400.5","1","1","2","1,0.7,0,1,0.7,0,0.7,0,1",""
"","html-keyboard-response","159","83027","0.0-159.0","3KB8R4ZV1FT99IV6AXQAU18A0AGGBE","A2JDYN6QM8M5UN","3KVQ0UJWPX71V463XQYDOZYIDLRW5D","","null","<img src=""img/animal3.png"" style=""width:200px; border:14px solid green;"">","null","","","","","",""
"","image-keyboard-response","160","83357","0.0-160.0","3KB8R4ZV1FT99IV6AXQAU18A0AGGBE","A2JDYN6QM8M5UN","3KVQ0UJWPX71V463XQYDOZYIDLRW5D","","327.5","img/animal3.png","74","328.80000001192093","1","1","2","1,0.7,0,1,0.7,0,0.7,0,1",""
"","html-keyboard-response","161","83660","0.0-161.0","3KB8R4ZV1FT99IV6AXQAU18A0AGGBE","A2JDYN6QM8M5UN","3KVQ0UJWPX71V463XQYDOZYIDLRW5D","","null","<img src=""img/animal3.png"" style=""width:200px; border:14px solid green;"">","null","","","","","",""
"","image-keyboard-response","162","84005","0.0-162.0","3KB8R4ZV1FT99IV6AXQAU18A0AGGBE","A2JDYN6QM8M5UN","3KVQ0UJWPX71V463XQYDOZYIDLRW5D","","343.19999998807907","img/animal3.png","74","344.69999998807907","1","1","2","1,0.7,0,1,0.7,0,0.7,0,1",""
"","html-keyboard-response","163","84308","0.0-163.0","3KB8R4ZV1FT99IV6AXQAU18A0AGGBE","A2JDYN6QM8M5UN","3KVQ0UJWPX71V463XQYDOZYIDLRW5D","","null","<img src=""img/animal3.png"" style=""width:200px; border:14px solid green;"">","null","","","","","",""
"","image-keyboard-response","164","84781","0.0-164.0","3KB8R4ZV1FT99IV6AXQAU18A0AGGBE","A2JDYN6QM8M5UN","3KVQ0UJWPX71V463XQYDOZYIDLRW5D","","471.30000001192093","img/animal5.png","76","472.80000001192093","3","1","3","1,0.7,0,1,0.7,0,0.7,0,1",""
"","html-keyboard-response","165","85087","0.0-165.0","3KB8R4ZV1FT99IV6AXQAU18A0AGGBE","A2JDYN6QM8M5UN","3KVQ0UJWPX71V463XQYDOZYIDLRW5D","","null","<img src=""img/animal5.png"" style=""width:200px; border:14px solid green;"">","null","","","","","",""
"","image-keyboard-response","166","85437","0.0-166.0","3KB8R4ZV1FT99IV6AXQAU18A0AGGBE","A2JDYN6QM8M5UN","3KVQ0UJWPX71V463XQYDOZYIDLRW5D","","348.4000000357628","img/animal5.png","76","349.69999998807907","3","1","3","1,0.7,0,1,0.7,0,0.7,0,1",""
"","html-keyboard-response","167","85739","0.0-167.0","3KB8R4ZV1FT99IV6AXQAU18A0AGGBE","A2JDYN6QM8M5UN","3KVQ0UJWPX71V463XQYDOZYIDLRW5D","","null","<img src=""img/animal5.png"" style=""width:200px; border:14px solid green;"">","null","","","","","",""
"","image-keyboard-response","168","86132","0.0-168.0","3KB8R4ZV1FT99IV6AXQAU18A0AGGBE","A2JDYN6QM8M5UN","3KVQ0UJWPX71V463XQYDOZYIDLRW5D","","390.69999998807907","img/animal3.png","74","391.80000001192093","1","1","2","1,0.7,0,1,0.7,0,0.7,0,1",""
"","html-keyboard-response","169","86433","0.0-169.0","3KB8R4ZV1FT99IV6AXQAU18A0AGGBE","A2JDYN6QM8M5UN","3KVQ0UJWPX71V463XQYDOZYIDLRW5D","","null","<img src=""img/animal3.png"" style=""width:200px; border:14px solid green;"">","null","","","","","",""
"","image-keyboard-response","170","86853","0.0-170.0","3KB8R4ZV1FT99IV6AXQAU18A0AGGBE","A2JDYN6QM8M5UN","3KVQ0UJWPX71V463XQYDOZYIDLRW5D","","417.69999998807907","img/animal5.png","76","419.10000002384186","3","1","3","1,0.7,0,1,0.7,0,0.7,0,1",""
"","html-keyboard-response","171","87155","0.0-171.0","3KB8R4ZV1FT99IV6AXQAU18A0AGGBE","A2JDYN6QM8M5UN","3KVQ0UJWPX71V463XQYDOZYIDLRW5D","","null","<img src=""img/animal5.png"" style=""width:200px; border:14px solid green;"">","null","","","","","",""
"","image-keyboard-response","172","87621","0.0-172.0","3KB8R4ZV1FT99IV6AXQAU18A0AGGBE","A2JDYN6QM8M5UN","3KVQ0UJWPX71V463XQYDOZYIDLRW5D","","463.60000002384186","img/animal4.png","74","464.80000001192093","1","1","1","1,0.7,0,1,0.7,0,0.7,0,1",""
"","html-keyboard-response","173","87923","0.0-173.0","3KB8R4ZV1FT99IV6AXQAU18A0AGGBE","A2JDYN6QM8M5UN","3KVQ0UJWPX71V463XQYDOZYIDLRW5D","","null","<img src=""img/animal4.png"" style=""width:200px; border:14px solid green;"">","null","","","","","",""
"","image-keyboard-response","174","88221","0.0-174.0","3KB8R4ZV1FT99IV6AXQAU18A0AGGBE","A2JDYN6QM8M5UN","3KVQ0UJWPX71V463XQYDOZYIDLRW5D","","295.89999997615814","img/animal4.png","74","297.30000001192093","1","1","1","1,0.7,0,1,0.7,0,0.7,0,1",""
"","html-keyboard-response","175","88523","0.0-175.0","3KB8R4ZV1FT99IV6AXQAU18A0AGGBE","A2JDYN6QM8M5UN","3KVQ0UJWPX71V463XQYDOZYIDLRW5D","","null","<img src=""img/animal4.png"" style=""width:200px; border:14px solid green;"">","null","","","","","",""
"","image-keyboard-response","176","89101","0.0-176.0","3KB8R4ZV1FT99IV6AXQAU18A0AGGBE","A2JDYN6QM8M5UN","3KVQ0UJWPX71V463XQYDOZYIDLRW5D","","576.2000000476837","img/animal3.png","74","577.5","1","1","2","1,0.7,0,1,0.7,0,0.7,0,1",""
"","html-keyboard-response","177","89404","0.0-177.0","3KB8R4ZV1FT99IV6AXQAU18A0AGGBE","A2JDYN6QM8M5UN","3KVQ0UJWPX71V463XQYDOZYIDLRW5D","","null","<img src=""img/animal3.png"" style=""width:200px; border:14px solid green;"">","null","","","","","",""
"","image-keyboard-response","178","89749","0.0-178.0","3KB8R4ZV1FT99IV6AXQAU18A0AGGBE","A2JDYN6QM8M5UN","3KVQ0UJWPX71V463XQYDOZYIDLRW5D","","343.2000000476837","img/animal3.png","74","344.69999998807907","1","1","2","1,0.7,0,1,0.7,0,0.7,0,1",""
"","html-keyboard-response","179","90052","0.0-179.0","3KB8R4ZV1FT99IV6AXQAU18A0AGGBE","A2JDYN6QM8M5UN","3KVQ0UJWPX71V463XQYDOZYIDLRW5D","","null","<img src=""img/animal3.png"" style=""width:200px; border:14px solid green;"">","null","","","","","",""
"","image-keyboard-response","180","90773","0.0-180.0","3KB8R4ZV1FT99IV6AXQAU18A0AGGBE","A2JDYN6QM8M5UN","3KVQ0UJWPX71V463XQYDOZYIDLRW5D","","719.1999999880791","img/animal5.png","76","720.6000000238419","3","1","3","1,0.7,0,1,0.7,0,0.7,0,1",""
"","html-keyboard-response","181","91076","0.0-181.0","3KB8R4ZV1FT99IV6AXQAU18A0AGGBE","A2JDYN6QM8M5UN","3KVQ0UJWPX71V463XQYDOZYIDLRW5D","","null","<img src=""img/animal5.png"" style=""width:200px; border:14px solid green;"">","null","","","","","",""
"","html-keyboard-response","182","92779","0.0-182.0","3KB8R4ZV1FT99IV6AXQAU18A0AGGBE","A2JDYN6QM8M5UN","3KVQ0UJWPX71V463XQYDOZYIDLRW5D","","","","","","","","","",""
"","image-keyboard-response","183","93757","0.0-183.0","3KB8R4ZV1FT99IV6AXQAU18A0AGGBE","A2JDYN6QM8M5UN","3KVQ0UJWPX71V463XQYDOZYIDLRW5D","","976.8999999761581","img/animal6.png","76","978.1000000238419","3","0","1","1,0.7,0,0,1,0.7,0.7,0,1",""
"","html-keyboard-response","184","94060","0.0-184.0","3KB8R4ZV1FT99IV6AXQAU18A0AGGBE","A2JDYN6QM8M5UN","3KVQ0UJWPX71V463XQYDOZYIDLRW5D","","null","<img src=""img/animal6.png"" style=""width:200px;border:14px solid red;"">","null","","","","","",""
"","image-keyboard-response","185","95141","0.0-185.0","3KB8R4ZV1FT99IV6AXQAU18A0AGGBE","A2JDYN6QM8M5UN","3KVQ0UJWPX71V463XQYDOZYIDLRW5D","","1079.5","img/animal2.png","76","1082","3","1","3","1,0.7,0,0,1,0.7,0.7,0,1",""
"","html-keyboard-response","186","95445","0.0-186.0","3KB8R4ZV1FT99IV6AXQAU18A0AGGBE","A2JDYN6QM8M5UN","3KVQ0UJWPX71V463XQYDOZYIDLRW5D","","null","<img src=""img/animal2.png"" style=""width:200px; border:14px solid green;"">","null","","","","","",""
"","image-keyboard-response","187","96277","0.0-187.0","3KB8R4ZV1FT99IV6AXQAU18A0AGGBE","A2JDYN6QM8M5UN","3KVQ0UJWPX71V463XQYDOZYIDLRW5D","","829.6999999880791","img/animal1.png","76","831.1999999880791","3","1","2","1,0.7,0,0,1,0.7,0.7,0,1",""
"","html-keyboard-response","188","96580","0.0-188.0","3KB8R4ZV1FT99IV6AXQAU18A0AGGBE","A2JDYN6QM8M5UN","3KVQ0UJWPX71V463XQYDOZYIDLRW5D","","null","<img src=""img/animal1.png"" style=""width:200px; border:14px solid green;"">","null","","","","","",""
"","image-keyboard-response","189","97413","0.0-189.0","3KB8R4ZV1FT99IV6AXQAU18A0AGGBE","A2JDYN6QM8M5UN","3KVQ0UJWPX71V463XQYDOZYIDLRW5D","","831.1000000238419","img/animal6.png","75","832.6999999880791","2","1","1","1,0.7,0,0,1,0.7,0.7,0,1",""
"","html-keyboard-response","190","97717","0.0-190.0","3KB8R4ZV1FT99IV6AXQAU18A0AGGBE","A2JDYN6QM8M5UN","3KVQ0UJWPX71V463XQYDOZYIDLRW5D","","null","<img src=""img/animal6.png"" style=""width:200px; border:14px solid green;"">","null","","","","","",""
"","image-keyboard-response","191","98204","0.0-191.0","3KB8R4ZV1FT99IV6AXQAU18A0AGGBE","A2JDYN6QM8M5UN","3KVQ0UJWPX71V463XQYDOZYIDLRW5D","","485.5999999642372","img/animal6.png","75","486.69999998807907","2","1","1","1,0.7,0,0,1,0.7,0.7,0,1",""
"","html-keyboard-response","192","98505","0.0-192.0","3KB8R4ZV1FT99IV6AXQAU18A0AGGBE","A2JDYN6QM8M5UN","3KVQ0UJWPX71V463XQYDOZYIDLRW5D","","null","<img src=""img/animal6.png"" style=""width:200px; border:14px solid green;"">","null","","","","","",""
"","image-keyboard-response","193","99053","0.0-193.0","3KB8R4ZV1FT99IV6AXQAU18A0AGGBE","A2JDYN6QM8M5UN","3KVQ0UJWPX71V463XQYDOZYIDLRW5D","","545.6000000238419","img/animal1.png","76","547.0999999642372","3","1","2","1,0.7,0,0,1,0.7,0.7,0,1",""
"","html-keyboard-response","194","99355","0.0-194.0","3KB8R4ZV1FT99IV6AXQAU18A0AGGBE","A2JDYN6QM8M5UN","3KVQ0UJWPX71V463XQYDOZYIDLRW5D","","null","<img src=""img/animal1.png"" style=""width:200px; border:14px solid green;"">","null","","","","","",""
"","image-keyboard-response","195","99637","0.0-195.0","3KB8R4ZV1FT99IV6AXQAU18A0AGGBE","A2JDYN6QM8M5UN","3KVQ0UJWPX71V463XQYDOZYIDLRW5D","","279.5","img/animal1.png","76","281.10000002384186","3","0","2","1,0.7,0,0,1,0.7,0.7,0,1",""
"","html-keyboard-response","196","99940","0.0-196.0","3KB8R4ZV1FT99IV6AXQAU18A0AGGBE","A2JDYN6QM8M5UN","3KVQ0UJWPX71V463XQYDOZYIDLRW5D","","null","<img src=""img/animal1.png"" style=""width:200px;border:14px solid red;"">","null","","","","","",""
"","image-keyboard-response","197","101301","0.0-197.0","3KB8R4ZV1FT99IV6AXQAU18A0AGGBE","A2JDYN6QM8M5UN","3KVQ0UJWPX71V463XQYDOZYIDLRW5D","","1358.699999988079","img/animal1.png","76","1360.1000000238419","3","0","2","1,0.7,0,0,1,0.7,0.7,0,1",""
"","html-keyboard-response","198","101603","0.0-198.0","3KB8R4ZV1FT99IV6AXQAU18A0AGGBE","A2JDYN6QM8M5UN","3KVQ0UJWPX71V463XQYDOZYIDLRW5D","","null","<img src=""img/animal1.png"" style=""width:200px;border:14px solid red;"">","null","","","","","",""
"","image-keyboard-response","199","103085","0.0-199.0","3KB8R4ZV1FT99IV6AXQAU18A0AGGBE","A2JDYN6QM8M5UN","3KVQ0UJWPX71V463XQYDOZYIDLRW5D","","1480.800000011921","img/animal2.png","76","1482","3","1","3","1,0.7,0,0,1,0.7,0.7,0,1",""
"","html-keyboard-response","200","103387","0.0-200.0","3KB8R4ZV1FT99IV6AXQAU18A0AGGBE","A2JDYN6QM8M5UN","3KVQ0UJWPX71V463XQYDOZYIDLRW5D","","null","<img src=""img/animal2.png"" style=""width:200px; border:14px solid green;"">","null","","","","","",""
"","image-keyboard-response","201","104133","0.0-201.0","3KB8R4ZV1FT99IV6AXQAU18A0AGGBE","A2JDYN6QM8M5UN","3KVQ0UJWPX71V463XQYDOZYIDLRW5D","","743.7999999523163","img/animal1.png","75","745.4000000357628","2","1","2","1,0.7,0,0,1,0.7,0.7,0,1",""
"","html-keyboard-response","202","104436","0.0-202.0","3KB8R4ZV1FT99IV6AXQAU18A0AGGBE","A2JDYN6QM8M5UN","3KVQ0UJWPX71V463XQYDOZYIDLRW5D","","null","<img src=""img/animal1.png"" style=""width:200px; border:14px solid green;"">","null","","","","","",""
"","image-keyboard-response","203","104805","0.0-203.0","3KB8R4ZV1FT99IV6AXQAU18A0AGGBE","A2JDYN6QM8M5UN","3KVQ0UJWPX71V463XQYDOZYIDLRW5D","","366.7999999523163","img/animal1.png","75","367.89999997615814","2","1","2","1,0.7,0,0,1,0.7,0.7,0,1",""
"","html-keyboard-response","204","105107","0.0-204.0","3KB8R4ZV1FT99IV6AXQAU18A0AGGBE","A2JDYN6QM8M5UN","3KVQ0UJWPX71V463XQYDOZYIDLRW5D","","null","<img src=""img/animal1.png"" style=""width:200px; border:14px solid green;"">","null","","","","","",""
"","image-keyboard-response","205","106692","0.0-205.0","3KB8R4ZV1FT99IV6AXQAU18A0AGGBE","A2JDYN6QM8M5UN","3KVQ0UJWPX71V463XQYDOZYIDLRW5D","","1583.1000000238419","img/animal2.png","75","1584.300000011921","2","0","3","1,0.7,0,0,1,0.7,0.7,0,1",""
"","html-keyboard-response","206","106994","0.0-206.0","3KB8R4ZV1FT99IV6AXQAU18A0AGGBE","A2JDYN6QM8M5UN","3KVQ0UJWPX71V463XQYDOZYIDLRW5D","","null","<img src=""img/animal2.png"" style=""width:200px;border:14px solid red;"">","null","","","","","",""
"","image-keyboard-response","207","108077","0.0-207.0","3KB8R4ZV1FT99IV6AXQAU18A0AGGBE","A2JDYN6QM8M5UN","3KVQ0UJWPX71V463XQYDOZYIDLRW5D","","1081","img/animal6.png","75","1082.3999999761581","2","0","1","1,0.7,0,0,1,0.7,0.7,0,1",""
"","html-keyboard-response","208","108379","0.0-208.0","3KB8R4ZV1FT99IV6AXQAU18A0AGGBE","A2JDYN6QM8M5UN","3KVQ0UJWPX71V463XQYDOZYIDLRW5D","","null","<img src=""img/animal6.png"" style=""width:200px;border:14px solid red;"">","null","","","","","",""
"","image-keyboard-response","209","109014","0.0-209.0","3KB8R4ZV1FT99IV6AXQAU18A0AGGBE","A2JDYN6QM8M5UN","3KVQ0UJWPX71V463XQYDOZYIDLRW5D","","632.1999999880791","img/animal6.png","76","633.9000000357628","3","0","1","1,0.7,0,0,1,0.7,0.7,0,1",""
"","html-keyboard-response","210","109317","0.0-210.0","3KB8R4ZV1FT99IV6AXQAU18A0AGGBE","A2JDYN6QM8M5UN","3KVQ0UJWPX71V463XQYDOZYIDLRW5D","","null","<img src=""img/animal6.png"" style=""width:200px;border:14px solid red;"">","null","","","","","",""
"","image-keyboard-response","211","110357","0.0-211.0","3KB8R4ZV1FT99IV6AXQAU18A0AGGBE","A2JDYN6QM8M5UN","3KVQ0UJWPX71V463XQYDOZYIDLRW5D","","1038.300000011921","img/animal2.png","74","1039.5999999642372","1","1","3","1,0.7,0,0,1,0.7,0.7,0,1",""
"","html-keyboard-response","212","110660","0.0-212.0","3KB8R4ZV1FT99IV6AXQAU18A0AGGBE","A2JDYN6QM8M5UN","3KVQ0UJWPX71V463XQYDOZYIDLRW5D","","null","<img src=""img/animal2.png"" style=""width:200px; border:14px solid green;"">","null","","","","","",""
"","image-keyboard-response","213","111765","0.0-213.0","3KB8R4ZV1FT99IV6AXQAU18A0AGGBE","A2JDYN6QM8M5UN","3KVQ0UJWPX71V463XQYDOZYIDLRW5D","","1103.0999999642372","img/animal6.png","76","1104.800000011921","3","0","1","1,0.7,0,0,1,0.7,0.7,0,1",""
"","html-keyboard-response","214","112068","0.0-214.0","3KB8R4ZV1FT99IV6AXQAU18A0AGGBE","A2JDYN6QM8M5UN","3KVQ0UJWPX71V463XQYDOZYIDLRW5D","","null","<img src=""img/animal6.png"" style=""width:200px;border:14px solid red;"">","null","","","","","",""
"","image-keyboard-response","215","113261","0.0-215.0","3KB8R4ZV1FT99IV6AXQAU18A0AGGBE","A2JDYN6QM8M5UN","3KVQ0UJWPX71V463XQYDOZYIDLRW5D","","1191.199999988079","img/animal1.png","75","1192.6000000238419","2","1","2","1,0.7,0,0,1,0.7,0.7,0,1",""
"","html-keyboard-response","216","113563","0.0-216.0","3KB8R4ZV1FT99IV6AXQAU18A0AGGBE","A2JDYN6QM8M5UN","3KVQ0UJWPX71V463XQYDOZYIDLRW5D","","null","<img src=""img/animal1.png"" style=""width:200px; border:14px solid green;"">","null","","","","","",""
"","image-keyboard-response","217","114805","0.0-217.0","3KB8R4ZV1FT99IV6AXQAU18A0AGGBE","A2JDYN6QM8M5UN","3KVQ0UJWPX71V463XQYDOZYIDLRW5D","","1239.8999999761581","img/animal6.png","74","1241.1000000238419","1","1","1","1,0.7,0,0,1,0.7,0.7,0,1",""
"","html-keyboard-response","218","115108","0.0-218.0","3KB8R4ZV1FT99IV6AXQAU18A0AGGBE","A2JDYN6QM8M5UN","3KVQ0UJWPX71V463XQYDOZYIDLRW5D","","null","<img src=""img/animal6.png"" style=""width:200px; border:14px solid green;"">","null","","","","","",""
"","image-keyboard-response","219","116092","0.0-219.0","3KB8R4ZV1FT99IV6AXQAU18A0AGGBE","A2JDYN6QM8M5UN","3KVQ0UJWPX71V463XQYDOZYIDLRW5D","","983","img/animal1.png","75","984.1999999880791","2","1","2","1,0.7,0,0,1,0.7,0.7,0,1",""
"","html-keyboard-response","220","116394","0.0-220.0","3KB8R4ZV1FT99IV6AXQAU18A0AGGBE","A2JDYN6QM8M5UN","3KVQ0UJWPX71V463XQYDOZYIDLRW5D","","null","<img src=""img/animal1.png"" style=""width:200px; border:14px solid green;"">","null","","","","","",""
"","image-keyboard-response","221","116949","0.0-221.0","3KB8R4ZV1FT99IV6AXQAU18A0AGGBE","A2JDYN6QM8M5UN","3KVQ0UJWPX71V463XQYDOZYIDLRW5D","","553.5999999642372","img/animal6.png","74","554.8000000119209","1","1","1","1,0.7,0,0,1,0.7,0.7,0,1",""
"","html-keyboard-response","222","117252","0.0-222.0","3KB8R4ZV1FT99IV6AXQAU18A0AGGBE","A2JDYN6QM8M5UN","3KVQ0UJWPX71V463XQYDOZYIDLRW5D","","null","<img src=""img/animal6.png"" style=""width:200px; border:14px solid green;"">","null","","","","","",""
"","image-keyboard-response","223","117837","0.0-223.0","3KB8R4ZV1FT99IV6AXQAU18A0AGGBE","A2JDYN6QM8M5UN","3KVQ0UJWPX71V463XQYDOZYIDLRW5D","","583.8000000119209","img/animal2.png","74","585.1999999880791","1","1","3","1,0.7,0,0,1,0.7,0.7,0,1",""
"","html-keyboard-response","224","118140","0.0-224.0","3KB8R4ZV1FT99IV6AXQAU18A0AGGBE","A2JDYN6QM8M5UN","3KVQ0UJWPX71V463XQYDOZYIDLRW5D","","null","<img src=""img/animal2.png"" style=""width:200px; border:14px solid green;"">","null","","","","","",""
"","image-keyboard-response","225","118565","0.0-225.0","3KB8R4ZV1FT99IV6AXQAU18A0AGGBE","A2JDYN6QM8M5UN","3KVQ0UJWPX71V463XQYDOZYIDLRW5D","","422.89999997615814","img/animal2.png","74","424.30000001192093","1","1","3","1,0.7,0,0,1,0.7,0.7,0,1",""
"","html-keyboard-response","226","118868","0.0-226.0","3KB8R4ZV1FT99IV6AXQAU18A0AGGBE","A2JDYN6QM8M5UN","3KVQ0UJWPX71V463XQYDOZYIDLRW5D","","null","<img src=""img/animal2.png"" style=""width:200px; border:14px solid green;"">","null","","","","","",""
"","image-keyboard-response","227","119853","0.0-227.0","3KB8R4ZV1FT99IV6AXQAU18A0AGGBE","A2JDYN6QM8M5UN","3KVQ0UJWPX71V463XQYDOZYIDLRW5D","","983.8000000119209","img/animal1.png","75","985.3000000119209","2","1","2","1,0.7,0,0,1,0.7,0.7,0,1",""
"","html-keyboard-response","228","120155","0.0-228.0","3KB8R4ZV1FT99IV6AXQAU18A0AGGBE","A2JDYN6QM8M5UN","3KVQ0UJWPX71V463XQYDOZYIDLRW5D","","null","<img src=""img/animal1.png"" style=""width:200px; border:14px solid green;"">","null","","","","","",""
"","image-keyboard-response","229","120502","0.0-229.0","3KB8R4ZV1FT99IV6AXQAU18A0AGGBE","A2JDYN6QM8M5UN","3KVQ0UJWPX71V463XQYDOZYIDLRW5D","","344.0999999642372","img/animal1.png","75","345.9000000357628","2","1","2","1,0.7,0,0,1,0.7,0.7,0,1",""
"","html-keyboard-response","230","120804","0.0-230.0","3KB8R4ZV1FT99IV6AXQAU18A0AGGBE","A2JDYN6QM8M5UN","3KVQ0UJWPX71V463XQYDOZYIDLRW5D","","null","<img src=""img/animal1.png"" style=""width:200px; border:14px solid green;"">","null","","","","","",""
"","image-keyboard-response","231","121269","0.0-231.0","3KB8R4ZV1FT99IV6AXQAU18A0AGGBE","A2JDYN6QM8M5UN","3KVQ0UJWPX71V463XQYDOZYIDLRW5D","","463.0999999642372","img/animal2.png","74","464.60000002384186","1","1","3","1,0.7,0,0,1,0.7,0.7,0,1",""
"","html-keyboard-response","232","121572","0.0-232.0","3KB8R4ZV1FT99IV6AXQAU18A0AGGBE","A2JDYN6QM8M5UN","3KVQ0UJWPX71V463XQYDOZYIDLRW5D","","null","<img src=""img/animal2.png"" style=""width:200px; border:14px solid green;"">","null","","","","","",""
"","image-keyboard-response","233","121997","0.0-233.0","3KB8R4ZV1FT99IV6AXQAU18A0AGGBE","A2JDYN6QM8M5UN","3KVQ0UJWPX71V463XQYDOZYIDLRW5D","","423.60000002384186","img/animal6.png","74","425.0999999642372","1","1","1","1,0.7,0,0,1,0.7,0.7,0,1",""
"","html-keyboard-response","234","122300","0.0-234.0","3KB8R4ZV1FT99IV6AXQAU18A0AGGBE","A2JDYN6QM8M5UN","3KVQ0UJWPX71V463XQYDOZYIDLRW5D","","null","<img src=""img/animal6.png"" style=""width:200px; border:14px solid green;"">","null","","","","","",""
"","image-keyboard-response","235","122693","0.0-235.0","3KB8R4ZV1FT99IV6AXQAU18A0AGGBE","A2JDYN6QM8M5UN","3KVQ0UJWPX71V463XQYDOZYIDLRW5D","","391.0999999642372","img/animal1.png","75","392.30000001192093","2","1","2","1,0.7,0,0,1,0.7,0.7,0,1",""
"","html-keyboard-response","236","122995","0.0-236.0","3KB8R4ZV1FT99IV6AXQAU18A0AGGBE","A2JDYN6QM8M5UN","3KVQ0UJWPX71V463XQYDOZYIDLRW5D","","null","<img src=""img/animal1.png"" style=""width:200px; border:14px solid green;"">","null","","","","","",""
"","image-keyboard-response","237","123365","0.0-237.0","3KB8R4ZV1FT99IV6AXQAU18A0AGGBE","A2JDYN6QM8M5UN","3KVQ0UJWPX71V463XQYDOZYIDLRW5D","","368.30000001192093","img/animal1.png","75","369.80000001192093","2","1","2","1,0.7,0,0,1,0.7,0.7,0,1",""
"","html-keyboard-response","238","123668","0.0-238.0","3KB8R4ZV1FT99IV6AXQAU18A0AGGBE","A2JDYN6QM8M5UN","3KVQ0UJWPX71V463XQYDOZYIDLRW5D","","null","<img src=""img/animal1.png"" style=""width:200px; border:14px solid green;"">","null","","","","","",""
"","image-keyboard-response","239","124077","0.0-239.0","3KB8R4ZV1FT99IV6AXQAU18A0AGGBE","A2JDYN6QM8M5UN","3KVQ0UJWPX71V463XQYDOZYIDLRW5D","","407.19999998807907","img/animal1.png","75","408.30000001192093","2","1","2","1,0.7,0,0,1,0.7,0.7,0,1",""
"","html-keyboard-response","240","124379","0.0-240.0","3KB8R4ZV1FT99IV6AXQAU18A0AGGBE","A2JDYN6QM8M5UN","3KVQ0UJWPX71V463XQYDOZYIDLRW5D","","null","<img src=""img/animal1.png"" style=""width:200px; border:14px solid green;"">","null","","","","","",""
"","image-keyboard-response","241","124733","0.0-241.0","3KB8R4ZV1FT99IV6AXQAU18A0AGGBE","A2JDYN6QM8M5UN","3KVQ0UJWPX71V463XQYDOZYIDLRW5D","","352.0999999642372","img/animal1.png","75","353.39999997615814","2","1","2","1,0.7,0,0,1,0.7,0.7,0,1",""
"","html-keyboard-response","242","125035","0.0-242.0","3KB8R4ZV1FT99IV6AXQAU18A0AGGBE","A2JDYN6QM8M5UN","3KVQ0UJWPX71V463XQYDOZYIDLRW5D","","null","<img src=""img/animal1.png"" style=""width:200px; border:14px solid green;"">","null","","","","","",""
"","image-keyboard-response","243","125405","0.0-243.0","3KB8R4ZV1FT99IV6AXQAU18A0AGGBE","A2JDYN6QM8M5UN","3KVQ0UJWPX71V463XQYDOZYIDLRW5D","","368.30000001192093","img/animal2.png","74","369.60000002384186","1","0","3","1,0.7,0,0,1,0.7,0.7,0,1",""
"","html-keyboard-response","244","125707","0.0-244.0","3KB8R4ZV1FT99IV6AXQAU18A0AGGBE","A2JDYN6QM8M5UN","3KVQ0UJWPX71V463XQYDOZYIDLRW5D","","null","<img src=""img/animal2.png"" style=""width:200px;border:14px solid red;"">","null","","","","","",""
"","image-keyboard-response","245","126686","0.0-245.0","3KB8R4ZV1FT99IV6AXQAU18A0AGGBE","A2JDYN6QM8M5UN","3KVQ0UJWPX71V463XQYDOZYIDLRW5D","","977","img/animal2.png","74","978.2000000476837","1","1","3","1,0.7,0,0,1,0.7,0.7,0,1",""
"","html-keyboard-response","246","126989","0.0-246.0","3KB8R4ZV1FT99IV6AXQAU18A0AGGBE","A2JDYN6QM8M5UN","3KVQ0UJWPX71V463XQYDOZYIDLRW5D","","null","<img src=""img/animal2.png"" style=""width:200px; border:14px solid green;"">","null","","","","","",""
"","image-keyboard-response","247","127509","0.0-247.0","3KB8R4ZV1FT99IV6AXQAU18A0AGGBE","A2JDYN6QM8M5UN","3KVQ0UJWPX71V463XQYDOZYIDLRW5D","","518.6999999880791","img/animal1.png","75","520","2","1","2","1,0.7,0,0,1,0.7,0.7,0,1",""
"","html-keyboard-response","248","127812","0.0-248.0","3KB8R4ZV1FT99IV6AXQAU18A0AGGBE","A2JDYN6QM8M5UN","3KVQ0UJWPX71V463XQYDOZYIDLRW5D","","null","<img src=""img/animal1.png"" style=""width:200px; border:14px solid green;"">","null","","","","","",""
"","image-keyboard-response","249","128398","0.0-249.0","3KB8R4ZV1FT99IV6AXQAU18A0AGGBE","A2JDYN6QM8M5UN","3KVQ0UJWPX71V463XQYDOZYIDLRW5D","","584.1000000238419","img/animal2.png","76","585.6999999880791","3","1","3","1,0.7,0,0,1,0.7,0.7,0,1",""
"","html-keyboard-response","250","128700","0.0-250.0","3KB8R4ZV1FT99IV6AXQAU18A0AGGBE","A2JDYN6QM8M5UN","3KVQ0UJWPX71V463XQYDOZYIDLRW5D","","null","<img src=""img/animal2.png"" style=""width:200px; border:14px solid green;"">","null","","","","","",""
"","image-keyboard-response","251","130029","0.0-251.0","3KB8R4ZV1FT99IV6AXQAU18A0AGGBE","A2JDYN6QM8M5UN","3KVQ0UJWPX71V463XQYDOZYIDLRW5D","","1327.2999999523163","img/animal1.png","75","1328.699999988079","2","1","2","1,0.7,0,0,1,0.7,0.7,0,1",""
"","html-keyboard-response","252","130332","0.0-252.0","3KB8R4ZV1FT99IV6AXQAU18A0AGGBE","A2JDYN6QM8M5UN","3KVQ0UJWPX71V463XQYDOZYIDLRW5D","","null","<img src=""img/animal1.png"" style=""width:200px; border:14px solid green;"">","null","","","","","",""
"","image-keyboard-response","253","130677","0.0-253.0","3KB8R4ZV1FT99IV6AXQAU18A0AGGBE","A2JDYN6QM8M5UN","3KVQ0UJWPX71V463XQYDOZYIDLRW5D","","343.69999998807907","img/animal1.png","75","345.19999998807907","2","1","2","1,0.7,0,0,1,0.7,0.7,0,1",""
"","html-keyboard-response","254","130980","0.0-254.0","3KB8R4ZV1FT99IV6AXQAU18A0AGGBE","A2JDYN6QM8M5UN","3KVQ0UJWPX71V463XQYDOZYIDLRW5D","","null","<img src=""img/animal1.png"" style=""width:200px; border:14px solid green;"">","null","","","","","",""
"","image-keyboard-response","255","131341","0.0-255.0","3KB8R4ZV1FT99IV6AXQAU18A0AGGBE","A2JDYN6QM8M5UN","3KVQ0UJWPX71V463XQYDOZYIDLRW5D","","359.39999997615814","img/animal1.png","75","360.7000000476837","2","1","2","1,0.7,0,0,1,0.7,0.7,0,1",""
"","html-keyboard-response","256","131643","0.0-256.0","3KB8R4ZV1FT99IV6AXQAU18A0AGGBE","A2JDYN6QM8M5UN","3KVQ0UJWPX71V463XQYDOZYIDLRW5D","","null","<img src=""img/animal1.png"" style=""width:200px; border:14px solid green;"">","null","","","","","",""
"","image-keyboard-response","257","132150","0.0-257.0","3KB8R4ZV1FT99IV6AXQAU18A0AGGBE","A2JDYN6QM8M5UN","3KVQ0UJWPX71V463XQYDOZYIDLRW5D","","504.4000000357628","img/animal6.png","74","506","1","1","1","1,0.7,0,0,1,0.7,0.7,0,1",""
"","html-keyboard-response","258","132452","0.0-258.0","3KB8R4ZV1FT99IV6AXQAU18A0AGGBE","A2JDYN6QM8M5UN","3KVQ0UJWPX71V463XQYDOZYIDLRW5D","","null","<img src=""img/animal6.png"" style=""width:200px; border:14px solid green;"">","null","","","","","",""
"","image-keyboard-response","259","133045","0.0-259.0","3KB8R4ZV1FT99IV6AXQAU18A0AGGBE","A2JDYN6QM8M5UN","3KVQ0UJWPX71V463XQYDOZYIDLRW5D","","591.1000000238419","img/animal1.png","75","592.5","2","1","2","1,0.7,0,0,1,0.7,0.7,0,1",""
"","html-keyboard-response","260","133348","0.0-260.0","3KB8R4ZV1FT99IV6AXQAU18A0AGGBE","A2JDYN6QM8M5UN","3KVQ0UJWPX71V463XQYDOZYIDLRW5D","","null","<img src=""img/animal1.png"" style=""width:200px; border:14px solid green;"">","null","","","","","",""
"","image-keyboard-response","261","133726","0.0-261.0","3KB8R4ZV1FT99IV6AXQAU18A0AGGBE","A2JDYN6QM8M5UN","3KVQ0UJWPX71V463XQYDOZYIDLRW5D","","375.69999998807907","img/animal1.png","75","377.60000002384186","2","1","2","1,0.7,0,0,1,0.7,0.7,0,1",""
"","html-keyboard-response","262","134029","0.0-262.0","3KB8R4ZV1FT99IV6AXQAU18A0AGGBE","A2JDYN6QM8M5UN","3KVQ0UJWPX71V463XQYDOZYIDLRW5D","","null","<img src=""img/animal1.png"" style=""width:200px; border:14px solid green;"">","null","","","","","",""
"","image-keyboard-response","263","134709","0.0-263.0","3KB8R4ZV1FT99IV6AXQAU18A0AGGBE","A2JDYN6QM8M5UN","3KVQ0UJWPX71V463XQYDOZYIDLRW5D","","678.8000000119209","img/animal6.png","74","680.3999999761581","1","1","1","1,0.7,0,0,1,0.7,0.7,0,1",""
"","html-keyboard-response","264","135013","0.0-264.0","3KB8R4ZV1FT99IV6AXQAU18A0AGGBE","A2JDYN6QM8M5UN","3KVQ0UJWPX71V463XQYDOZYIDLRW5D","","null","<img src=""img/animal6.png"" style=""width:200px; border:14px solid green;"">","null","","","","","",""
"","image-keyboard-response","265","135613","0.0-265.0","3KB8R4ZV1FT99IV6AXQAU18A0AGGBE","A2JDYN6QM8M5UN","3KVQ0UJWPX71V463XQYDOZYIDLRW5D","","599.0999999642372","img/animal1.png","75","600.4000000357628","2","1","2","1,0.7,0,0,1,0.7,0.7,0,1",""
"","html-keyboard-response","266","135916","0.0-266.0","3KB8R4ZV1FT99IV6AXQAU18A0AGGBE","A2JDYN6QM8M5UN","3KVQ0UJWPX71V463XQYDOZYIDLRW5D","","null","<img src=""img/animal1.png"" style=""width:200px; border:14px solid green;"">","null","","","","","",""
"","image-keyboard-response","267","136501","0.0-267.0","3KB8R4ZV1FT99IV6AXQAU18A0AGGBE","A2JDYN6QM8M5UN","3KVQ0UJWPX71V463XQYDOZYIDLRW5D","","583.8999999761581","img/animal6.png","74","585","1","1","1","1,0.7,0,0,1,0.7,0.7,0,1",""
"","html-keyboard-response","268","136804","0.0-268.0","3KB8R4ZV1FT99IV6AXQAU18A0AGGBE","A2JDYN6QM8M5UN","3KVQ0UJWPX71V463XQYDOZYIDLRW5D","","null","<img src=""img/animal6.png"" style=""width:200px; border:14px solid green;"">","null","","","","","",""
"","image-keyboard-response","269","137150","0.0-269.0","3KB8R4ZV1FT99IV6AXQAU18A0AGGBE","A2JDYN6QM8M5UN","3KVQ0UJWPX71V463XQYDOZYIDLRW5D","","343.60000002384186","img/animal6.png","74","345.19999998807907","1","1","1","1,0.7,0,0,1,0.7,0.7,0,1",""
"","html-keyboard-response","270","137452","0.0-270.0","3KB8R4ZV1FT99IV6AXQAU18A0AGGBE","A2JDYN6QM8M5UN","3KVQ0UJWPX71V463XQYDOZYIDLRW5D","","null","<img src=""img/animal6.png"" style=""width:200px; border:14px solid green;"">","null","","","","","",""
"","image-keyboard-response","271","138101","0.0-271.0","3KB8R4ZV1FT99IV6AXQAU18A0AGGBE","A2JDYN6QM8M5UN","3KVQ0UJWPX71V463XQYDOZYIDLRW5D","","647.3000000119209","img/animal2.png","76","648.8000000119209","3","1","3","1,0.7,0,0,1,0.7,0.7,0,1",""
"","html-keyboard-response","272","138418","0.0-272.0","3KB8R4ZV1FT99IV6AXQAU18A0AGGBE","A2JDYN6QM8M5UN","3KVQ0UJWPX71V463XQYDOZYIDLRW5D","","null","<img src=""img/animal2.png"" style=""width:200px; border:14px solid green;"">","null","","","","","",""
"","image-keyboard-response","273","138829","0.0-273.0","3KB8R4ZV1FT99IV6AXQAU18A0AGGBE","A2JDYN6QM8M5UN","3KVQ0UJWPX71V463XQYDOZYIDLRW5D","","409","img/animal2.png","76","410.30000001192093","3","1","3","1,0.7,0,0,1,0.7,0.7,0,1",""
"","html-keyboard-response","274","139132","0.0-274.0","3KB8R4ZV1FT99IV6AXQAU18A0AGGBE","A2JDYN6QM8M5UN","3KVQ0UJWPX71V463XQYDOZYIDLRW5D","","null","<img src=""img/animal2.png"" style=""width:200px; border:14px solid green;"">","null","","","","","",""
"","image-keyboard-response","275","139861","0.0-275.0","3KB8R4ZV1FT99IV6AXQAU18A0AGGBE","A2JDYN6QM8M5UN","3KVQ0UJWPX71V463XQYDOZYIDLRW5D","","727.0999999642372","img/animal6.png","75","728.3999999761581","2","1","1","1,0.7,0,0,1,0.7,0.7,0,1",""
"","html-keyboard-response","276","140164","0.0-276.0","3KB8R4ZV1FT99IV6AXQAU18A0AGGBE","A2JDYN6QM8M5UN","3KVQ0UJWPX71V463XQYDOZYIDLRW5D","","null","<img src=""img/animal6.png"" style=""width:200px; border:14px solid green;"">","null","","","","","",""
"","image-keyboard-response","277","140957","0.0-277.0","3KB8R4ZV1FT99IV6AXQAU18A0AGGBE","A2JDYN6QM8M5UN","3KVQ0UJWPX71V463XQYDOZYIDLRW5D","","792.1999999880791","img/animal2.png","76","793.1999999880791","3","1","3","1,0.7,0,0,1,0.7,0.7,0,1",""
"","html-keyboard-response","278","141259","0.0-278.0","3KB8R4ZV1FT99IV6AXQAU18A0AGGBE","A2JDYN6QM8M5UN","3KVQ0UJWPX71V463XQYDOZYIDLRW5D","","null","<img src=""img/animal2.png"" style=""width:200px; border:14px solid green;"">","null","","","","","",""
"","image-keyboard-response","279","141877","0.0-279.0","3KB8R4ZV1FT99IV6AXQAU18A0AGGBE","A2JDYN6QM8M5UN","3KVQ0UJWPX71V463XQYDOZYIDLRW5D","","616.2000000476837","img/animal1.png","74","617.8000000119209","1","0","2","1,0.7,0,0,1,0.7,0.7,0,1",""
"","html-keyboard-response","280","142180","0.0-280.0","3KB8R4ZV1FT99IV6AXQAU18A0AGGBE","A2JDYN6QM8M5UN","3KVQ0UJWPX71V463XQYDOZYIDLRW5D","","null","<img src=""img/animal1.png"" style=""width:200px;border:14px solid red;"">","null","","","","","",""
"","image-keyboard-response","281","143358","0.0-281.0","3KB8R4ZV1FT99IV6AXQAU18A0AGGBE","A2JDYN6QM8M5UN","3KVQ0UJWPX71V463XQYDOZYIDLRW5D","","1176.1000000238419","img/animal6.png","74","1178","1","1","1","1,0.7,0,0,1,0.7,0.7,0,1",""
"","html-keyboard-response","282","143661","0.0-282.0","3KB8R4ZV1FT99IV6AXQAU18A0AGGBE","A2JDYN6QM8M5UN","3KVQ0UJWPX71V463XQYDOZYIDLRW5D","","null","<img src=""img/animal6.png"" style=""width:200px; border:14px solid green;"">","null","","","","","",""
"","image-keyboard-response","283","144149","0.0-283.0","3KB8R4ZV1FT99IV6AXQAU18A0AGGBE","A2JDYN6QM8M5UN","3KVQ0UJWPX71V463XQYDOZYIDLRW5D","","486.10000002384186","img/animal1.png","75","487.5","2","1","2","1,0.7,0,0,1,0.7,0.7,0,1",""
"","html-keyboard-response","284","144451","0.0-284.0","3KB8R4ZV1FT99IV6AXQAU18A0AGGBE","A2JDYN6QM8M5UN","3KVQ0UJWPX71V463XQYDOZYIDLRW5D","","null","<img src=""img/animal1.png"" style=""width:200px; border:14px solid green;"">","null","","","","","",""
"","image-keyboard-response","285","145205","0.0-285.0","3KB8R4ZV1FT99IV6AXQAU18A0AGGBE","A2JDYN6QM8M5UN","3KVQ0UJWPX71V463XQYDOZYIDLRW5D","","752","img/animal6.png","74","753.4000000357628","1","1","1","1,0.7,0,0,1,0.7,0.7,0,1",""
"","html-keyboard-response","286","145508","0.0-286.0","3KB8R4ZV1FT99IV6AXQAU18A0AGGBE","A2JDYN6QM8M5UN","3KVQ0UJWPX71V463XQYDOZYIDLRW5D","","null","<img src=""img/animal6.png"" style=""width:200px; border:14px solid green;"">","null","","","","","",""
"","image-keyboard-response","287","146189","0.0-287.0","3KB8R4ZV1FT99IV6AXQAU18A0AGGBE","A2JDYN6QM8M5UN","3KVQ0UJWPX71V463XQYDOZYIDLRW5D","","680.8000000119209","img/animal1.png","75","681.6999999880791","2","1","2","1,0.7,0,0,1,0.7,0.7,0,1",""
"","html-keyboard-response","288","146492","0.0-288.0","3KB8R4ZV1FT99IV6AXQAU18A0AGGBE","A2JDYN6QM8M5UN","3KVQ0UJWPX71V463XQYDOZYIDLRW5D","","null","<img src=""img/animal1.png"" style=""width:200px; border:14px solid green;"">","null","","","","","",""
"","image-keyboard-response","289","147053","0.0-289.0","3KB8R4ZV1FT99IV6AXQAU18A0AGGBE","A2JDYN6QM8M5UN","3KVQ0UJWPX71V463XQYDOZYIDLRW5D","","559.3999999761581","img/animal2.png","76","560.8000000119209","3","1","3","1,0.7,0,0,1,0.7,0.7,0,1",""
"","html-keyboard-response","290","147356","0.0-290.0","3KB8R4ZV1FT99IV6AXQAU18A0AGGBE","A2JDYN6QM8M5UN","3KVQ0UJWPX71V463XQYDOZYIDLRW5D","","null","<img src=""img/animal2.png"" style=""width:200px; border:14px solid green;"">","null","","","","","",""
"","image-keyboard-response","291","147949","0.0-291.0","3KB8R4ZV1FT99IV6AXQAU18A0AGGBE","A2JDYN6QM8M5UN","3KVQ0UJWPX71V463XQYDOZYIDLRW5D","","591.6000000238419","img/animal1.png","75","592.8999999761581","2","1","2","1,0.7,0,0,1,0.7,0.7,0,1",""
"","html-keyboard-response","292","148252","0.0-292.0","3KB8R4ZV1FT99IV6AXQAU18A0AGGBE","A2JDYN6QM8M5UN","3KVQ0UJWPX71V463XQYDOZYIDLRW5D","","null","<img src=""img/animal1.png"" style=""width:200px; border:14px solid green;"">","null","","","","","",""
"","image-keyboard-response","293","148917","0.0-293.0","3KB8R4ZV1FT99IV6AXQAU18A0AGGBE","A2JDYN6QM8M5UN","3KVQ0UJWPX71V463XQYDOZYIDLRW5D","","663.6999999880791","img/animal2.png","76","664.8999999761581","3","1","3","1,0.7,0,0,1,0.7,0.7,0,1",""
"","html-keyboard-response","294","149220","0.0-294.0","3KB8R4ZV1FT99IV6AXQAU18A0AGGBE","A2JDYN6QM8M5UN","3KVQ0UJWPX71V463XQYDOZYIDLRW5D","","null","<img src=""img/animal2.png"" style=""width:200px; border:14px solid green;"">","null","","","","","",""
"","image-keyboard-response","295","149629","0.0-295.0","3KB8R4ZV1FT99IV6AXQAU18A0AGGBE","A2JDYN6QM8M5UN","3KVQ0UJWPX71V463XQYDOZYIDLRW5D","","407.60000002384186","img/animal2.png","76","409","3","1","3","1,0.7,0,0,1,0.7,0.7,0,1",""
"","html-keyboard-response","296","149932","0.0-296.0","3KB8R4ZV1FT99IV6AXQAU18A0AGGBE","A2JDYN6QM8M5UN","3KVQ0UJWPX71V463XQYDOZYIDLRW5D","","null","<img src=""img/animal2.png"" style=""width:200px; border:14px solid green;"">","null","","","","","",""
"","image-keyboard-response","297","150262","0.0-297.0","3KB8R4ZV1FT99IV6AXQAU18A0AGGBE","A2JDYN6QM8M5UN","3KVQ0UJWPX71V463XQYDOZYIDLRW5D","","327.9000000357628","img/animal2.png","76","329.4000000357628","3","1","3","1,0.7,0,0,1,0.7,0.7,0,1",""
"","html-keyboard-response","298","150569","0.0-298.0","3KB8R4ZV1FT99IV6AXQAU18A0AGGBE","A2JDYN6QM8M5UN","3KVQ0UJWPX71V463XQYDOZYIDLRW5D","","null","<img src=""img/animal2.png"" style=""width:200px; border:14px solid green;"">","null","","","","","",""
"","image-keyboard-response","299","151284","0.0-299.0","3KB8R4ZV1FT99IV6AXQAU18A0AGGBE","A2JDYN6QM8M5UN","3KVQ0UJWPX71V463XQYDOZYIDLRW5D","","714","img/animal6.png","74","715.1000000238419","1","1","1","1,0.7,0,0,1,0.7,0.7,0,1",""
"","html-keyboard-response","300","151586","0.0-300.0","3KB8R4ZV1FT99IV6AXQAU18A0AGGBE","A2JDYN6QM8M5UN","3KVQ0UJWPX71V463XQYDOZYIDLRW5D","","null","<img src=""img/animal6.png"" style=""width:200px; border:14px solid green;"">","null","","","","","",""
"","image-keyboard-response","301","152549","0.0-301.0","3KB8R4ZV1FT99IV6AXQAU18A0AGGBE","A2JDYN6QM8M5UN","3KVQ0UJWPX71V463XQYDOZYIDLRW5D","","960.7999999523163","img/animal2.png","76","962.1999999880791","3","1","3","1,0.7,0,0,1,0.7,0.7,0,1",""
"","html-keyboard-response","302","152852","0.0-302.0","3KB8R4ZV1FT99IV6AXQAU18A0AGGBE","A2JDYN6QM8M5UN","3KVQ0UJWPX71V463XQYDOZYIDLRW5D","","null","<img src=""img/animal2.png"" style=""width:200px; border:14px solid green;"">","null","","","","","",""
"","image-keyboard-response","303","153757","0.0-303.0","3KB8R4ZV1FT99IV6AXQAU18A0AGGBE","A2JDYN6QM8M5UN","3KVQ0UJWPX71V463XQYDOZYIDLRW5D","","904.5","img/animal6.png","74","905.5999999642372","1","1","1","1,0.7,0,0,1,0.7,0.7,0,1",""
"","html-keyboard-response","304","154061","0.0-304.0","3KB8R4ZV1FT99IV6AXQAU18A0AGGBE","A2JDYN6QM8M5UN","3KVQ0UJWPX71V463XQYDOZYIDLRW5D","","null","<img src=""img/animal6.png"" style=""width:200px; border:14px solid green;"">","null","","","","","",""
"","image-keyboard-response","305","154677","0.0-305.0","3KB8R4ZV1FT99IV6AXQAU18A0AGGBE","A2JDYN6QM8M5UN","3KVQ0UJWPX71V463XQYDOZYIDLRW5D","","614.3999999761581","img/animal6.png","74","615.9000000357628","1","1","1","1,0.7,0,0,1,0.7,0.7,0,1",""
"","html-keyboard-response","306","154980","0.0-306.0","3KB8R4ZV1FT99IV6AXQAU18A0AGGBE","A2JDYN6QM8M5UN","3KVQ0UJWPX71V463XQYDOZYIDLRW5D","","null","<img src=""img/animal6.png"" style=""width:200px; border:14px solid green;"">","null","","","","","",""
"","image-keyboard-response","307","155382","0.0-307.0","3KB8R4ZV1FT99IV6AXQAU18A0AGGBE","A2JDYN6QM8M5UN","3KVQ0UJWPX71V463XQYDOZYIDLRW5D","","399.60000002384186","img/animal6.png","74","401.0999999642372","1","1","1","1,0.7,0,0,1,0.7,0.7,0,1",""
"","html-keyboard-response","308","155684","0.0-308.0","3KB8R4ZV1FT99IV6AXQAU18A0AGGBE","A2JDYN6QM8M5UN","3KVQ0UJWPX71V463XQYDOZYIDLRW5D","","null","<img src=""img/animal6.png"" style=""width:200px; border:14px solid green;"">","null","","","","","",""
"","image-keyboard-response","309","156037","0.0-309.0","3KB8R4ZV1FT99IV6AXQAU18A0AGGBE","A2JDYN6QM8M5UN","3KVQ0UJWPX71V463XQYDOZYIDLRW5D","","350.80000001192093","img/animal6.png","74","352.30000001192093","1","1","1","1,0.7,0,0,1,0.7,0.7,0,1",""
"","html-keyboard-response","310","156340","0.0-310.0","3KB8R4ZV1FT99IV6AXQAU18A0AGGBE","A2JDYN6QM8M5UN","3KVQ0UJWPX71V463XQYDOZYIDLRW5D","","null","<img src=""img/animal6.png"" style=""width:200px; border:14px solid green;"">","null","","","","","",""
"","image-keyboard-response","311","156693","0.0-311.0","3KB8R4ZV1FT99IV6AXQAU18A0AGGBE","A2JDYN6QM8M5UN","3KVQ0UJWPX71V463XQYDOZYIDLRW5D","","351.5","img/animal6.png","74","353","1","1","1","1,0.7,0,0,1,0.7,0.7,0,1",""
"","html-keyboard-response","312","156996","0.0-312.0","3KB8R4ZV1FT99IV6AXQAU18A0AGGBE","A2JDYN6QM8M5UN","3KVQ0UJWPX71V463XQYDOZYIDLRW5D","","null","<img src=""img/animal6.png"" style=""width:200px; border:14px solid green;"">","null","","","","","",""
"","image-keyboard-response","313","157477","0.0-313.0","3KB8R4ZV1FT99IV6AXQAU18A0AGGBE","A2JDYN6QM8M5UN","3KVQ0UJWPX71V463XQYDOZYIDLRW5D","","478.89999997615814","img/animal1.png","75","480.30000001192093","2","1","2","1,0.7,0,0,1,0.7,0.7,0,1",""
"","html-keyboard-response","314","157779","0.0-314.0","3KB8R4ZV1FT99IV6AXQAU18A0AGGBE","A2JDYN6QM8M5UN","3KVQ0UJWPX71V463XQYDOZYIDLRW5D","","null","<img src=""img/animal1.png"" style=""width:200px; border:14px solid green;"">","null","","","","","",""
"","image-keyboard-response","315","158213","0.0-315.0","3KB8R4ZV1FT99IV6AXQAU18A0AGGBE","A2JDYN6QM8M5UN","3KVQ0UJWPX71V463XQYDOZYIDLRW5D","","431.89999997615814","img/animal1.png","75","433.30000001192093","2","1","2","1,0.7,0,0,1,0.7,0.7,0,1",""
"","html-keyboard-response","316","158516","0.0-316.0","3KB8R4ZV1FT99IV6AXQAU18A0AGGBE","A2JDYN6QM8M5UN","3KVQ0UJWPX71V463XQYDOZYIDLRW5D","","null","<img src=""img/animal1.png"" style=""width:200px; border:14px solid green;"">","null","","","","","",""
"","image-keyboard-response","317","158933","0.0-317.0","3KB8R4ZV1FT99IV6AXQAU18A0AGGBE","A2JDYN6QM8M5UN","3KVQ0UJWPX71V463XQYDOZYIDLRW5D","","415","img/animal2.png","76","416.5","3","1","3","1,0.7,0,0,1,0.7,0.7,0,1",""
"","html-keyboard-response","318","159235","0.0-318.0","3KB8R4ZV1FT99IV6AXQAU18A0AGGBE","A2JDYN6QM8M5UN","3KVQ0UJWPX71V463XQYDOZYIDLRW5D","","null","<img src=""img/animal2.png"" style=""width:200px; border:14px solid green;"">","null","","","","","",""
"","image-keyboard-response","319","159996","0.0-319.0","3KB8R4ZV1FT99IV6AXQAU18A0AGGBE","A2JDYN6QM8M5UN","3KVQ0UJWPX71V463XQYDOZYIDLRW5D","","758.9000000357628","img/animal6.png","74","760.0999999642372","1","1","1","1,0.7,0,0,1,0.7,0.7,0,1",""
"","html-keyboard-response","320","160297","0.0-320.0","3KB8R4ZV1FT99IV6AXQAU18A0AGGBE","A2JDYN6QM8M5UN","3KVQ0UJWPX71V463XQYDOZYIDLRW5D","","null","<img src=""img/animal6.png"" style=""width:200px; border:14px solid green;"">","null","","","","","",""
"","image-keyboard-response","321","160949","0.0-321.0","3KB8R4ZV1FT99IV6AXQAU18A0AGGBE","A2JDYN6QM8M5UN","3KVQ0UJWPX71V463XQYDOZYIDLRW5D","","650","img/animal2.png","76","651.3000000119209","3","1","3","1,0.7,0,0,1,0.7,0.7,0,1",""
"","html-keyboard-response","322","161252","0.0-322.0","3KB8R4ZV1FT99IV6AXQAU18A0AGGBE","A2JDYN6QM8M5UN","3KVQ0UJWPX71V463XQYDOZYIDLRW5D","","null","<img src=""img/animal2.png"" style=""width:200px; border:14px solid green;"">","null","","","","","",""
"","image-keyboard-response","323","162085","0.0-323.0","3KB8R4ZV1FT99IV6AXQAU18A0AGGBE","A2JDYN6QM8M5UN","3KVQ0UJWPX71V463XQYDOZYIDLRW5D","","831.1999999880791","img/animal1.png","75","832.9000000357628","2","1","2","1,0.7,0,0,1,0.7,0.7,0,1",""
"","html-keyboard-response","324","162388","0.0-324.0","3KB8R4ZV1FT99IV6AXQAU18A0AGGBE","A2JDYN6QM8M5UN","3KVQ0UJWPX71V463XQYDOZYIDLRW5D","","null","<img src=""img/animal1.png"" style=""width:200px; border:14px solid green;"">","null","","","","","",""
"","image-keyboard-response","325","163077","0.0-325.0","3KB8R4ZV1FT99IV6AXQAU18A0AGGBE","A2JDYN6QM8M5UN","3KVQ0UJWPX71V463XQYDOZYIDLRW5D","","687.1000000238419","img/animal2.png","76","688.6000000238419","3","1","3","1,0.7,0,0,1,0.7,0.7,0,1",""
"","html-keyboard-response","326","163381","0.0-326.0","3KB8R4ZV1FT99IV6AXQAU18A0AGGBE","A2JDYN6QM8M5UN","3KVQ0UJWPX71V463XQYDOZYIDLRW5D","","null","<img src=""img/animal2.png"" style=""width:200px; border:14px solid green;"">","null","","","","","",""
"","image-keyboard-response","327","163724","0.0-327.0","3KB8R4ZV1FT99IV6AXQAU18A0AGGBE","A2JDYN6QM8M5UN","3KVQ0UJWPX71V463XQYDOZYIDLRW5D","","341.69999998807907","img/animal2.png","76","342.80000001192093","3","1","3","1,0.7,0,0,1,0.7,0.7,0,1",""
"","html-keyboard-response","328","164026","0.0-328.0","3KB8R4ZV1FT99IV6AXQAU18A0AGGBE","A2JDYN6QM8M5UN","3KVQ0UJWPX71V463XQYDOZYIDLRW5D","","null","<img src=""img/animal2.png"" style=""width:200px; border:14px solid green;"">","null","","","","","",""
"","image-keyboard-response","329","164621","0.0-329.0","3KB8R4ZV1FT99IV6AXQAU18A0AGGBE","A2JDYN6QM8M5UN","3KVQ0UJWPX71V463XQYDOZYIDLRW5D","","593.5","img/animal6.png","74","595.0999999642372","1","1","1","1,0.7,0,0,1,0.7,0.7,0,1",""
"","html-keyboard-response","330","164933","0.0-330.0","3KB8R4ZV1FT99IV6AXQAU18A0AGGBE","A2JDYN6QM8M5UN","3KVQ0UJWPX71V463XQYDOZYIDLRW5D","","null","<img src=""img/animal6.png"" style=""width:200px; border:14px solid green;"">","null","","","","","",""
"","image-keyboard-response","331","165533","0.0-331.0","3KB8R4ZV1FT99IV6AXQAU18A0AGGBE","A2JDYN6QM8M5UN","3KVQ0UJWPX71V463XQYDOZYIDLRW5D","","598.7999999523163","img/animal2.png","76","600.2000000476837","3","1","3","1,0.7,0,0,1,0.7,0.7,0,1",""
"","html-keyboard-response","332","165852","0.0-332.0","3KB8R4ZV1FT99IV6AXQAU18A0AGGBE","A2JDYN6QM8M5UN","3KVQ0UJWPX71V463XQYDOZYIDLRW5D","","null","<img src=""img/animal2.png"" style=""width:200px; border:14px solid green;"">","null","","","","","",""
"","image-keyboard-response","333","166414","0.0-333.0","3KB8R4ZV1FT99IV6AXQAU18A0AGGBE","A2JDYN6QM8M5UN","3KVQ0UJWPX71V463XQYDOZYIDLRW5D","","559.9000000357628","img/animal1.png","75","561.7000000476837","2","1","2","1,0.7,0,0,1,0.7,0.7,0,1",""
"","html-keyboard-response","334","166717","0.0-334.0","3KB8R4ZV1FT99IV6AXQAU18A0AGGBE","A2JDYN6QM8M5UN","3KVQ0UJWPX71V463XQYDOZYIDLRW5D","","null","<img src=""img/animal1.png"" style=""width:200px; border:14px solid green;"">","null","","","","","",""
"","image-keyboard-response","335","167653","0.0-335.0","3KB8R4ZV1FT99IV6AXQAU18A0AGGBE","A2JDYN6QM8M5UN","3KVQ0UJWPX71V463XQYDOZYIDLRW5D","","934.6000000238419","img/animal6.png","74","935.9000000357628","1","1","1","1,0.7,0,0,1,0.7,0.7,0,1",""
"","html-keyboard-response","336","167957","0.0-336.0","3KB8R4ZV1FT99IV6AXQAU18A0AGGBE","A2JDYN6QM8M5UN","3KVQ0UJWPX71V463XQYDOZYIDLRW5D","","null","<img src=""img/animal6.png"" style=""width:200px; border:14px solid green;"">","null","","","","","",""
"","image-keyboard-response","337","168701","0.0-337.0","3KB8R4ZV1FT99IV6AXQAU18A0AGGBE","A2JDYN6QM8M5UN","3KVQ0UJWPX71V463XQYDOZYIDLRW5D","","742.6000000238419","img/animal2.png","76","743.9000000357628","3","1","3","1,0.7,0,0,1,0.7,0.7,0,1",""
"","html-keyboard-response","338","169004","0.0-338.0","3KB8R4ZV1FT99IV6AXQAU18A0AGGBE","A2JDYN6QM8M5UN","3KVQ0UJWPX71V463XQYDOZYIDLRW5D","","null","<img src=""img/animal2.png"" style=""width:200px; border:14px solid green;"">","null","","","","","",""
"","image-keyboard-response","339","169493","0.0-339.0","3KB8R4ZV1FT99IV6AXQAU18A0AGGBE","A2JDYN6QM8M5UN","3KVQ0UJWPX71V463XQYDOZYIDLRW5D","","487.60000002384186","img/animal2.png","76","489","3","1","3","1,0.7,0,0,1,0.7,0.7,0,1",""
"","html-keyboard-response","340","169795","0.0-340.0","3KB8R4ZV1FT99IV6AXQAU18A0AGGBE","A2JDYN6QM8M5UN","3KVQ0UJWPX71V463XQYDOZYIDLRW5D","","null","<img src=""img/animal2.png"" style=""width:200px; border:14px solid green;"">","null","","","","","",""
"","image-keyboard-response","341","170101","0.0-341.0","3KB8R4ZV1FT99IV6AXQAU18A0AGGBE","A2JDYN6QM8M5UN","3KVQ0UJWPX71V463XQYDOZYIDLRW5D","","304.0999999642372","img/animal2.png","76","305.5","3","1","3","1,0.7,0,0,1,0.7,0.7,0,1",""
"","html-keyboard-response","342","170403","0.0-342.0","3KB8R4ZV1FT99IV6AXQAU18A0AGGBE","A2JDYN6QM8M5UN","3KVQ0UJWPX71V463XQYDOZYIDLRW5D","","null","<img src=""img/animal2.png"" style=""width:200px; border:14px solid green;"">","null","","","","","",""
"","image-keyboard-response","343","171133","0.0-343.0","3KB8R4ZV1FT99IV6AXQAU18A0AGGBE","A2JDYN6QM8M5UN","3KVQ0UJWPX71V463XQYDOZYIDLRW5D","","727.5999999642372","img/animal6.png","74","729.1000000238419","1","1","1","1,0.7,0,0,1,0.7,0.7,0,1",""
"","html-keyboard-response","344","171435","0.0-344.0","3KB8R4ZV1FT99IV6AXQAU18A0AGGBE","A2JDYN6QM8M5UN","3KVQ0UJWPX71V463XQYDOZYIDLRW5D","","null","<img src=""img/animal6.png"" style=""width:200px; border:14px solid green;"">","null","","","","","",""
"","image-keyboard-response","345","171805","0.0-345.0","3KB8R4ZV1FT99IV6AXQAU18A0AGGBE","A2JDYN6QM8M5UN","3KVQ0UJWPX71V463XQYDOZYIDLRW5D","","367.5","img/animal6.png","74","369.19999998807907","1","1","1","1,0.7,0,0,1,0.7,0.7,0,1",""
"","html-keyboard-response","346","172108","0.0-346.0","3KB8R4ZV1FT99IV6AXQAU18A0AGGBE","A2JDYN6QM8M5UN","3KVQ0UJWPX71V463XQYDOZYIDLRW5D","","null","<img src=""img/animal6.png"" style=""width:200px; border:14px solid green;"">","null","","","","","",""
"","image-keyboard-response","347","172597","0.0-347.0","3KB8R4ZV1FT99IV6AXQAU18A0AGGBE","A2JDYN6QM8M5UN","3KVQ0UJWPX71V463XQYDOZYIDLRW5D","","487","img/animal2.png","76","488.39999997615814","3","1","3","1,0.7,0,0,1,0.7,0.7,0,1",""
"","html-keyboard-response","348","172899","0.0-348.0","3KB8R4ZV1FT99IV6AXQAU18A0AGGBE","A2JDYN6QM8M5UN","3KVQ0UJWPX71V463XQYDOZYIDLRW5D","","null","<img src=""img/animal2.png"" style=""width:200px; border:14px solid green;"">","null","","","","","",""
"","image-keyboard-response","349","173509","0.0-349.0","3KB8R4ZV1FT99IV6AXQAU18A0AGGBE","A2JDYN6QM8M5UN","3KVQ0UJWPX71V463XQYDOZYIDLRW5D","","607.5","img/animal6.png","74","608.8999999761581","1","1","1","1,0.7,0,0,1,0.7,0.7,0,1",""
"","html-keyboard-response","350","173812","0.0-350.0","3KB8R4ZV1FT99IV6AXQAU18A0AGGBE","A2JDYN6QM8M5UN","3KVQ0UJWPX71V463XQYDOZYIDLRW5D","","null","<img src=""img/animal6.png"" style=""width:200px; border:14px solid green;"">","null","","","","","",""
"","image-keyboard-response","351","174389","0.0-351.0","3KB8R4ZV1FT99IV6AXQAU18A0AGGBE","A2JDYN6QM8M5UN","3KVQ0UJWPX71V463XQYDOZYIDLRW5D","","575.1999999880791","img/animal2.png","76","576.5","3","1","3","1,0.7,0,0,1,0.7,0.7,0,1",""
"","html-keyboard-response","352","174691","0.0-352.0","3KB8R4ZV1FT99IV6AXQAU18A0AGGBE","A2JDYN6QM8M5UN","3KVQ0UJWPX71V463XQYDOZYIDLRW5D","","null","<img src=""img/animal2.png"" style=""width:200px; border:14px solid green;"">","null","","","","","",""
"","image-keyboard-response","353","175149","0.0-353.0","3KB8R4ZV1FT99IV6AXQAU18A0AGGBE","A2JDYN6QM8M5UN","3KVQ0UJWPX71V463XQYDOZYIDLRW5D","","457.30000001192093","img/animal1.png","75","458.19999998807907","2","1","2","1,0.7,0,0,1,0.7,0.7,0,1",""
"","html-keyboard-response","354","175452","0.0-354.0","3KB8R4ZV1FT99IV6AXQAU18A0AGGBE","A2JDYN6QM8M5UN","3KVQ0UJWPX71V463XQYDOZYIDLRW5D","","null","<img src=""img/animal1.png"" style=""width:200px; border:14px solid green;"">","null","","","","","",""
"","image-keyboard-response","355","176277","0.0-355.0","3KB8R4ZV1FT99IV6AXQAU18A0AGGBE","A2JDYN6QM8M5UN","3KVQ0UJWPX71V463XQYDOZYIDLRW5D","","823.7999999523163","img/animal2.png","76","825","3","1","3","1,0.7,0,0,1,0.7,0.7,0,1",""
"","html-keyboard-response","356","176580","0.0-356.0","3KB8R4ZV1FT99IV6AXQAU18A0AGGBE","A2JDYN6QM8M5UN","3KVQ0UJWPX71V463XQYDOZYIDLRW5D","","null","<img src=""img/animal2.png"" style=""width:200px; border:14px solid green;"">","null","","","","","",""
"","image-keyboard-response","357","177253","0.0-357.0","3KB8R4ZV1FT99IV6AXQAU18A0AGGBE","A2JDYN6QM8M5UN","3KVQ0UJWPX71V463XQYDOZYIDLRW5D","","671.3999999761581","img/animal6.png","74","672.8000000119209","1","1","1","1,0.7,0,0,1,0.7,0.7,0,1",""
"","html-keyboard-response","358","177557","0.0-358.0","3KB8R4ZV1FT99IV6AXQAU18A0AGGBE","A2JDYN6QM8M5UN","3KVQ0UJWPX71V463XQYDOZYIDLRW5D","","null","<img src=""img/animal6.png"" style=""width:200px; border:14px solid green;"">","null","","","","","",""
"","image-keyboard-response","359","178245","0.0-359.0","3KB8R4ZV1FT99IV6AXQAU18A0AGGBE","A2JDYN6QM8M5UN","3KVQ0UJWPX71V463XQYDOZYIDLRW5D","","686.5","img/animal2.png","76","687.9000000357628","3","1","3","1,0.7,0,0,1,0.7,0.7,0,1",""
"","html-keyboard-response","360","178548","0.0-360.0","3KB8R4ZV1FT99IV6AXQAU18A0AGGBE","A2JDYN6QM8M5UN","3KVQ0UJWPX71V463XQYDOZYIDLRW5D","","null","<img src=""img/animal2.png"" style=""width:200px; border:14px solid green;"">","null","","","","","",""
"","image-keyboard-response","361","179469","0.0-361.0","3KB8R4ZV1FT99IV6AXQAU18A0AGGBE","A2JDYN6QM8M5UN","3KVQ0UJWPX71V463XQYDOZYIDLRW5D","","919.3000000119209","img/animal6.png","74","920.9000000357628","1","1","1","1,0.7,0,0,1,0.7,0.7,0,1",""
"","html-keyboard-response","362","179772","0.0-362.0","3KB8R4ZV1FT99IV6AXQAU18A0AGGBE","A2JDYN6QM8M5UN","3KVQ0UJWPX71V463XQYDOZYIDLRW5D","","null","<img src=""img/animal6.png"" style=""width:200px; border:14px solid green;"">","null","","","","","",""
"","instructions","363","181619","0.0-363.0","3KB8R4ZV1FT99IV6AXQAU18A0AGGBE","A2JDYN6QM8M5UN","3KVQ0UJWPX71V463XQYDOZYIDLRW5D","[{""page_index"":0,""viewing_time"":1845.3999999761581}]","1845.699999988079","","","","","","","",""
"","survey-text","364","185265","0.0-364.0","3KB8R4ZV1FT99IV6AXQAU18A0AGGBE","A2JDYN6QM8M5UN","3KVQ0UJWPX71V463XQYDOZYIDLRW5D","","3642.5","","","","","","","","{""Q0"":""A2JDYN6QM8M5UN""}"
