"success","trial_type","trial_index","time_elapsed","internal_node_id","assignmentID","mturkID","hitID","view_history","rt","stimulus","key_press","reactionTime","a","r","s","reward_cond","responses"
"true","fullscreen","0","2352","0.0-0.0","37Z929RLGAUCV9YE5JBCJ9XZTHOTSS","A2JWAD9JQNA5ON","329E6HTMSWO7MPPIUTRHLR63CI0K3O","","","","","","","","","",""
"","instructions","1","19454","0.0-1.0","37Z929RLGAUCV9YE5JBCJ9XZTHOTSS","A2JWAD9JQNA5ON","329E6HTMSWO7MPPIUTRHLR63CI0K3O","[{""page_index"":0,""viewing_time"":2471},{""page_index"":1,""viewing_time"":1911},{""page_index"":2,""viewing_time"":1393},{""page_index"":3,""viewing_time"":2447},{""page_index"":4,""viewing_time"":1848},{""page_index"":5,""viewing_time"":2368},{""page_index"":6,""viewing_time"":1681},{""page_index"":5,""viewing_time"":969},{""page_index"":6,""viewing_time"":1182},{""page_index"":7,""viewing_time"":832}]","17102","","","","","","","",""
"","image-keyboard-response","2","22664","0.0-2.0","37Z929RLGAUCV9YE5JBCJ9XZTHOTSS","A2JWAD9JQNA5ON","329E6HTMSWO7MPPIUTRHLR63CI0K3O","","3208","img/animal2.png","74","3208","1","0","3","1,0.5,0,1,0.5,0,0.5,0,1",""
"","html-keyboard-response","3","22965","0.0-3.0","37Z929RLGAUCV9YE5JBCJ9XZTHOTSS","A2JWAD9JQNA5ON","329E6HTMSWO7MPPIUTRHLR63CI0K3O","","null","<img src=""img/animal2.png"" style=""width:200px;border:14px solid red;"">","null","","","","","",""
"","image-keyboard-response","4","23488","0.0-4.0","37Z929RLGAUCV9YE5JBCJ9XZTHOTSS","A2JWAD9JQNA5ON","329E6HTMSWO7MPPIUTRHLR63CI0K3O","","522","img/animal2.png","75","523","2","0","3","1,0.5,0,1,0.5,0,0.5,0,1",""
"","html-keyboard-response","5","23789","0.0-5.0","37Z929RLGAUCV9YE5JBCJ9XZTHOTSS","A2JWAD9JQNA5ON","329E6HTMSWO7MPPIUTRHLR63CI0K3O","","null","<img src=""img/animal2.png"" style=""width:200px;border:14px solid red;"">","null","","","","","",""
"","image-keyboard-response","6","23931","0.0-6.0","37Z929RLGAUCV9YE5JBCJ9XZTHOTSS","A2JWAD9JQNA5ON","329E6HTMSWO7MPPIUTRHLR63CI0K3O","","140","img/animal5.png","76","142","3","0","1","1,0.5,0,1,0.5,0,0.5,0,1",""
"","html-keyboard-response","7","24233","0.0-7.0","37Z929RLGAUCV9YE5JBCJ9XZTHOTSS","A2JWAD9JQNA5ON","329E6HTMSWO7MPPIUTRHLR63CI0K3O","","null","<img src=""img/animal5.png"" style=""width:200px;border:14px solid red;"">","null","","","","","",""
"","image-keyboard-response","8","25004","0.0-8.0","37Z929RLGAUCV9YE5JBCJ9XZTHOTSS","A2JWAD9JQNA5ON","329E6HTMSWO7MPPIUTRHLR63CI0K3O","","770","img/animal2.png","76","770","3","1","3","1,0.5,0,1,0.5,0,0.5,0,1",""
"","html-keyboard-response","9","25304","0.0-9.0","37Z929RLGAUCV9YE5JBCJ9XZTHOTSS","A2JWAD9JQNA5ON","329E6HTMSWO7MPPIUTRHLR63CI0K3O","","null","<img src=""img/animal2.png"" style=""width:200px; border:14px solid green;"">","null","","","","","",""
"","image-keyboard-response","10","25895","0.0-10.0","37Z929RLGAUCV9YE5JBCJ9XZTHOTSS","A2JWAD9JQNA5ON","329E6HTMSWO7MPPIUTRHLR63CI0K3O","","591","img/animal5.png","74","591","1","1","1","1,0.5,0,1,0.5,0,0.5,0,1",""
"","html-keyboard-response","11","26198","0.0-11.0","37Z929RLGAUCV9YE5JBCJ9XZTHOTSS","A2JWAD9JQNA5ON","329E6HTMSWO7MPPIUTRHLR63CI0K3O","","null","<img src=""img/animal5.png"" style=""width:200px; border:14px solid green;"">","null","","","","","",""
"","image-keyboard-response","12","26811","0.0-12.0","37Z929RLGAUCV9YE5JBCJ9XZTHOTSS","A2JWAD9JQNA5ON","329E6HTMSWO7MPPIUTRHLR63CI0K3O","","612","img/animal1.png","75","612","2","0","2","1,0.5,0,1,0.5,0,0.5,0,1",""
"","html-keyboard-response","13","27113","0.0-13.0","37Z929RLGAUCV9YE5JBCJ9XZTHOTSS","A2JWAD9JQNA5ON","329E6HTMSWO7MPPIUTRHLR63CI0K3O","","null","<img src=""img/animal1.png"" style=""width:200px;border:14px solid red;"">","null","","","","","",""
"","image-keyboard-response","14","27839","0.0-14.0","37Z929RLGAUCV9YE5JBCJ9XZTHOTSS","A2JWAD9JQNA5ON","329E6HTMSWO7MPPIUTRHLR63CI0K3O","","725","img/animal2.png","76","725","3","1","3","1,0.5,0,1,0.5,0,0.5,0,1",""
"","html-keyboard-response","15","28140","0.0-15.0","37Z929RLGAUCV9YE5JBCJ9XZTHOTSS","A2JWAD9JQNA5ON","329E6HTMSWO7MPPIUTRHLR63CI0K3O","","null","<img src=""img/animal2.png"" style=""width:200px; border:14px solid green;"">","null","","","","","",""
"","image-keyboard-response","16","29054","0.0-16.0","37Z929RLGAUCV9YE5JBCJ9XZTHOTSS","A2JWAD9JQNA5ON","329E6HTMSWO7MPPIUTRHLR63CI0K3O","","913","img/animal5.png","74","914","1","1","1","1,0.5,0,1,0.5,0,0.5,0,1",""
"","html-keyboard-response","17","29355","0.0-17.0","37Z929RLGAUCV9YE5JBCJ9XZTHOTSS","A2JWAD9JQNA5ON","329E6HTMSWO7MPPIUTRHLR63CI0K3O","","null","<img src=""img/animal5.png"" style=""width:200px; border:14px solid green;"">","null","","","","","",""
"","image-keyboard-response","18","29841","0.0-18.0","37Z929RLGAUCV9YE5JBCJ9XZTHOTSS","A2JWAD9JQNA5ON","329E6HTMSWO7MPPIUTRHLR63CI0K3O","","486","img/animal1.png","74","487","1","1","2","1,0.5,0,1,0.5,0,0.5,0,1",""
"","html-keyboard-response","19","30142","0.0-19.0","37Z929RLGAUCV9YE5JBCJ9XZTHOTSS","A2JWAD9JQNA5ON","329E6HTMSWO7MPPIUTRHLR63CI0K3O","","null","<img src=""img/animal1.png"" style=""width:200px; border:14px solid green;"">","null","","","","","",""
"","image-keyboard-response","20","30718","0.0-20.0","37Z929RLGAUCV9YE5JBCJ9XZTHOTSS","A2JWAD9JQNA5ON","329E6HTMSWO7MPPIUTRHLR63CI0K3O","","576","img/animal5.png","74","576","1","1","1","1,0.5,0,1,0.5,0,0.5,0,1",""
"","html-keyboard-response","21","31020","0.0-21.0","37Z929RLGAUCV9YE5JBCJ9XZTHOTSS","A2JWAD9JQNA5ON","329E6HTMSWO7MPPIUTRHLR63CI0K3O","","null","<img src=""img/animal5.png"" style=""width:200px; border:14px solid green;"">","null","","","","","",""
"","image-keyboard-response","22","31784","0.0-22.0","37Z929RLGAUCV9YE5JBCJ9XZTHOTSS","A2JWAD9JQNA5ON","329E6HTMSWO7MPPIUTRHLR63CI0K3O","","763","img/animal2.png","76","764","3","1","3","1,0.5,0,1,0.5,0,0.5,0,1",""
"","html-keyboard-response","23","32085","0.0-23.0","37Z929RLGAUCV9YE5JBCJ9XZTHOTSS","A2JWAD9JQNA5ON","329E6HTMSWO7MPPIUTRHLR63CI0K3O","","null","<img src=""img/animal2.png"" style=""width:200px; border:14px solid green;"">","null","","","","","",""
"","image-keyboard-response","24","32549","0.0-24.0","37Z929RLGAUCV9YE5JBCJ9XZTHOTSS","A2JWAD9JQNA5ON","329E6HTMSWO7MPPIUTRHLR63CI0K3O","","463","img/animal5.png","74","464","1","1","1","1,0.5,0,1,0.5,0,0.5,0,1",""
"","html-keyboard-response","25","32851","0.0-25.0","37Z929RLGAUCV9YE5JBCJ9XZTHOTSS","A2JWAD9JQNA5ON","329E6HTMSWO7MPPIUTRHLR63CI0K3O","","null","<img src=""img/animal5.png"" style=""width:200px; border:14px solid green;"">","null","","","","","",""
"","image-keyboard-response","26","33494","0.0-26.0","37Z929RLGAUCV9YE5JBCJ9XZTHOTSS","A2JWAD9JQNA5ON","329E6HTMSWO7MPPIUTRHLR63CI0K3O","","641","img/animal2.png","76","641","3","1","3","1,0.5,0,1,0.5,0,0.5,0,1",""
"","html-keyboard-response","27","33794","0.0-27.0","37Z929RLGAUCV9YE5JBCJ9XZTHOTSS","A2JWAD9JQNA5ON","329E6HTMSWO7MPPIUTRHLR63CI0K3O","","null","<img src=""img/animal2.png"" style=""width:200px; border:14px solid green;"">","null","","","","","",""
"","image-keyboard-response","28","34303","0.0-28.0","37Z929RLGAUCV9YE5JBCJ9XZTHOTSS","A2JWAD9JQNA5ON","329E6HTMSWO7MPPIUTRHLR63CI0K3O","","509","img/animal1.png","74","509","1","1","2","1,0.5,0,1,0.5,0,0.5,0,1",""
"","html-keyboard-response","29","34605","0.0-29.0","37Z929RLGAUCV9YE5JBCJ9XZTHOTSS","A2JWAD9JQNA5ON","329E6HTMSWO7MPPIUTRHLR63CI0K3O","","null","<img src=""img/animal1.png"" style=""width:200px; border:14px solid green;"">","null","","","","","",""
"","image-keyboard-response","30","35113","0.0-30.0","37Z929RLGAUCV9YE5JBCJ9XZTHOTSS","A2JWAD9JQNA5ON","329E6HTMSWO7MPPIUTRHLR63CI0K3O","","507","img/animal1.png","74","507","1","1","2","1,0.5,0,1,0.5,0,0.5,0,1",""
"","html-keyboard-response","31","35415","0.0-31.0","37Z929RLGAUCV9YE5JBCJ9XZTHOTSS","A2JWAD9JQNA5ON","329E6HTMSWO7MPPIUTRHLR63CI0K3O","","null","<img src=""img/animal1.png"" style=""width:200px; border:14px solid green;"">","null","","","","","",""
"","image-keyboard-response","32","36448","0.0-32.0","37Z929RLGAUCV9YE5JBCJ9XZTHOTSS","A2JWAD9JQNA5ON","329E6HTMSWO7MPPIUTRHLR63CI0K3O","","1033","img/animal5.png","74","1033","1","1","1","1,0.5,0,1,0.5,0,0.5,0,1",""
"","html-keyboard-response","33","36749","0.0-33.0","37Z929RLGAUCV9YE5JBCJ9XZTHOTSS","A2JWAD9JQNA5ON","329E6HTMSWO7MPPIUTRHLR63CI0K3O","","null","<img src=""img/animal5.png"" style=""width:200px; border:14px solid green;"">","null","","","","","",""
"","image-keyboard-response","34","37198","0.0-34.0","37Z929RLGAUCV9YE5JBCJ9XZTHOTSS","A2JWAD9JQNA5ON","329E6HTMSWO7MPPIUTRHLR63CI0K3O","","448","img/animal2.png","76","449","3","1","3","1,0.5,0,1,0.5,0,0.5,0,1",""
"","html-keyboard-response","35","37499","0.0-35.0","37Z929RLGAUCV9YE5JBCJ9XZTHOTSS","A2JWAD9JQNA5ON","329E6HTMSWO7MPPIUTRHLR63CI0K3O","","null","<img src=""img/animal2.png"" style=""width:200px; border:14px solid green;"">","null","","","","","",""
"","image-keyboard-response","36","37873","0.0-36.0","37Z929RLGAUCV9YE5JBCJ9XZTHOTSS","A2JWAD9JQNA5ON","329E6HTMSWO7MPPIUTRHLR63CI0K3O","","374","img/animal1.png","74","374","1","1","2","1,0.5,0,1,0.5,0,0.5,0,1",""
"","html-keyboard-response","37","38174","0.0-37.0","37Z929RLGAUCV9YE5JBCJ9XZTHOTSS","A2JWAD9JQNA5ON","329E6HTMSWO7MPPIUTRHLR63CI0K3O","","null","<img src=""img/animal1.png"" style=""width:200px; border:14px solid green;"">","null","","","","","",""
"","image-keyboard-response","38","38586","0.0-38.0","37Z929RLGAUCV9YE5JBCJ9XZTHOTSS","A2JWAD9JQNA5ON","329E6HTMSWO7MPPIUTRHLR63CI0K3O","","411","img/animal2.png","74","411","1","0","3","1,0.5,0,1,0.5,0,0.5,0,1",""
"","html-keyboard-response","39","38887","0.0-39.0","37Z929RLGAUCV9YE5JBCJ9XZTHOTSS","A2JWAD9JQNA5ON","329E6HTMSWO7MPPIUTRHLR63CI0K3O","","null","<img src=""img/animal2.png"" style=""width:200px;border:14px solid red;"">","null","","","","","",""
"","image-keyboard-response","40","39682","0.0-40.0","37Z929RLGAUCV9YE5JBCJ9XZTHOTSS","A2JWAD9JQNA5ON","329E6HTMSWO7MPPIUTRHLR63CI0K3O","","794","img/animal5.png","74","794","1","1","1","1,0.5,0,1,0.5,0,0.5,0,1",""
"","html-keyboard-response","41","39983","0.0-41.0","37Z929RLGAUCV9YE5JBCJ9XZTHOTSS","A2JWAD9JQNA5ON","329E6HTMSWO7MPPIUTRHLR63CI0K3O","","null","<img src=""img/animal5.png"" style=""width:200px; border:14px solid green;"">","null","","","","","",""
"","image-keyboard-response","42","40596","0.0-42.0","37Z929RLGAUCV9YE5JBCJ9XZTHOTSS","A2JWAD9JQNA5ON","329E6HTMSWO7MPPIUTRHLR63CI0K3O","","613","img/animal1.png","74","614","1","1","2","1,0.5,0,1,0.5,0,0.5,0,1",""
"","html-keyboard-response","43","40898","0.0-43.0","37Z929RLGAUCV9YE5JBCJ9XZTHOTSS","A2JWAD9JQNA5ON","329E6HTMSWO7MPPIUTRHLR63CI0K3O","","null","<img src=""img/animal1.png"" style=""width:200px; border:14px solid green;"">","null","","","","","",""
"","image-keyboard-response","44","41428","0.0-44.0","37Z929RLGAUCV9YE5JBCJ9XZTHOTSS","A2JWAD9JQNA5ON","329E6HTMSWO7MPPIUTRHLR63CI0K3O","","531","img/animal5.png","74","531","1","1","1","1,0.5,0,1,0.5,0,0.5,0,1",""
"","html-keyboard-response","45","41729","0.0-45.0","37Z929RLGAUCV9YE5JBCJ9XZTHOTSS","A2JWAD9JQNA5ON","329E6HTMSWO7MPPIUTRHLR63CI0K3O","","null","<img src=""img/animal5.png"" style=""width:200px; border:14px solid green;"">","null","","","","","",""
"","image-keyboard-response","46","42328","0.0-46.0","37Z929RLGAUCV9YE5JBCJ9XZTHOTSS","A2JWAD9JQNA5ON","329E6HTMSWO7MPPIUTRHLR63CI0K3O","","599","img/animal1.png","74","600","1","1","2","1,0.5,0,1,0.5,0,0.5,0,1",""
"","html-keyboard-response","47","42629","0.0-47.0","37Z929RLGAUCV9YE5JBCJ9XZTHOTSS","A2JWAD9JQNA5ON","329E6HTMSWO7MPPIUTRHLR63CI0K3O","","null","<img src=""img/animal1.png"" style=""width:200px; border:14px solid green;"">","null","","","","","",""
"","image-keyboard-response","48","43153","0.0-48.0","37Z929RLGAUCV9YE5JBCJ9XZTHOTSS","A2JWAD9JQNA5ON","329E6HTMSWO7MPPIUTRHLR63CI0K3O","","524","img/animal1.png","74","525","1","1","2","1,0.5,0,1,0.5,0,0.5,0,1",""
"","html-keyboard-response","49","43455","0.0-49.0","37Z929RLGAUCV9YE5JBCJ9XZTHOTSS","A2JWAD9JQNA5ON","329E6HTMSWO7MPPIUTRHLR63CI0K3O","","null","<img src=""img/animal1.png"" style=""width:200px; border:14px solid green;"">","null","","","","","",""
"","image-keyboard-response","50","44024","0.0-50.0","37Z929RLGAUCV9YE5JBCJ9XZTHOTSS","A2JWAD9JQNA5ON","329E6HTMSWO7MPPIUTRHLR63CI0K3O","","569","img/animal1.png","74","570","1","1","2","1,0.5,0,1,0.5,0,0.5,0,1",""
"","html-keyboard-response","51","44325","0.0-51.0","37Z929RLGAUCV9YE5JBCJ9XZTHOTSS","A2JWAD9JQNA5ON","329E6HTMSWO7MPPIUTRHLR63CI0K3O","","null","<img src=""img/animal1.png"" style=""width:200px; border:14px solid green;"">","null","","","","","",""
"","image-keyboard-response","52","44975","0.0-52.0","37Z929RLGAUCV9YE5JBCJ9XZTHOTSS","A2JWAD9JQNA5ON","329E6HTMSWO7MPPIUTRHLR63CI0K3O","","650","img/animal5.png","74","651","1","1","1","1,0.5,0,1,0.5,0,0.5,0,1",""
"","html-keyboard-response","53","45277","0.0-53.0","37Z929RLGAUCV9YE5JBCJ9XZTHOTSS","A2JWAD9JQNA5ON","329E6HTMSWO7MPPIUTRHLR63CI0K3O","","null","<img src=""img/animal5.png"" style=""width:200px; border:14px solid green;"">","null","","","","","",""
"","image-keyboard-response","54","45734","0.0-54.0","37Z929RLGAUCV9YE5JBCJ9XZTHOTSS","A2JWAD9JQNA5ON","329E6HTMSWO7MPPIUTRHLR63CI0K3O","","456","img/animal1.png","74","456","1","1","2","1,0.5,0,1,0.5,0,0.5,0,1",""
"","html-keyboard-response","55","46034","0.0-55.0","37Z929RLGAUCV9YE5JBCJ9XZTHOTSS","A2JWAD9JQNA5ON","329E6HTMSWO7MPPIUTRHLR63CI0K3O","","null","<img src=""img/animal1.png"" style=""width:200px; border:14px solid green;"">","null","","","","","",""
"","image-keyboard-response","56","46490","0.0-56.0","37Z929RLGAUCV9YE5JBCJ9XZTHOTSS","A2JWAD9JQNA5ON","329E6HTMSWO7MPPIUTRHLR63CI0K3O","","456","img/animal5.png","74","457","1","1","1","1,0.5,0,1,0.5,0,0.5,0,1",""
"","html-keyboard-response","57","46791","0.0-57.0","37Z929RLGAUCV9YE5JBCJ9XZTHOTSS","A2JWAD9JQNA5ON","329E6HTMSWO7MPPIUTRHLR63CI0K3O","","null","<img src=""img/animal5.png"" style=""width:200px; border:14px solid green;"">","null","","","","","",""
"","image-keyboard-response","58","47158","0.0-58.0","37Z929RLGAUCV9YE5JBCJ9XZTHOTSS","A2JWAD9JQNA5ON","329E6HTMSWO7MPPIUTRHLR63CI0K3O","","366","img/animal1.png","74","366","1","1","2","1,0.5,0,1,0.5,0,0.5,0,1",""
"","html-keyboard-response","59","47459","0.0-59.0","37Z929RLGAUCV9YE5JBCJ9XZTHOTSS","A2JWAD9JQNA5ON","329E6HTMSWO7MPPIUTRHLR63CI0K3O","","null","<img src=""img/animal1.png"" style=""width:200px; border:14px solid green;"">","null","","","","","",""
"","image-keyboard-response","60","47810","0.0-60.0","37Z929RLGAUCV9YE5JBCJ9XZTHOTSS","A2JWAD9JQNA5ON","329E6HTMSWO7MPPIUTRHLR63CI0K3O","","351","img/animal1.png","74","351","1","1","2","1,0.5,0,1,0.5,0,0.5,0,1",""
"","html-keyboard-response","61","48111","0.0-61.0","37Z929RLGAUCV9YE5JBCJ9XZTHOTSS","A2JWAD9JQNA5ON","329E6HTMSWO7MPPIUTRHLR63CI0K3O","","null","<img src=""img/animal1.png"" style=""width:200px; border:14px solid green;"">","null","","","","","",""
"","image-keyboard-response","62","48575","0.0-62.0","37Z929RLGAUCV9YE5JBCJ9XZTHOTSS","A2JWAD9JQNA5ON","329E6HTMSWO7MPPIUTRHLR63CI0K3O","","463","img/animal1.png","74","464","1","1","2","1,0.5,0,1,0.5,0,0.5,0,1",""
"","html-keyboard-response","63","48878","0.0-63.0","37Z929RLGAUCV9YE5JBCJ9XZTHOTSS","A2JWAD9JQNA5ON","329E6HTMSWO7MPPIUTRHLR63CI0K3O","","null","<img src=""img/animal1.png"" style=""width:200px; border:14px solid green;"">","null","","","","","",""
"","image-keyboard-response","64","49274","0.0-64.0","37Z929RLGAUCV9YE5JBCJ9XZTHOTSS","A2JWAD9JQNA5ON","329E6HTMSWO7MPPIUTRHLR63CI0K3O","","397","img/animal1.png","74","397","1","1","2","1,0.5,0,1,0.5,0,0.5,0,1",""
"","html-keyboard-response","65","49575","0.0-65.0","37Z929RLGAUCV9YE5JBCJ9XZTHOTSS","A2JWAD9JQNA5ON","329E6HTMSWO7MPPIUTRHLR63CI0K3O","","null","<img src=""img/animal1.png"" style=""width:200px; border:14px solid green;"">","null","","","","","",""
"","image-keyboard-response","66","50190","0.0-66.0","37Z929RLGAUCV9YE5JBCJ9XZTHOTSS","A2JWAD9JQNA5ON","329E6HTMSWO7MPPIUTRHLR63CI0K3O","","613","img/animal2.png","76","614","3","1","3","1,0.5,0,1,0.5,0,0.5,0,1",""
"","html-keyboard-response","67","50492","0.0-67.0","37Z929RLGAUCV9YE5JBCJ9XZTHOTSS","A2JWAD9JQNA5ON","329E6HTMSWO7MPPIUTRHLR63CI0K3O","","null","<img src=""img/animal2.png"" style=""width:200px; border:14px solid green;"">","null","","","","","",""
"","image-keyboard-response","68","50886","0.0-68.0","37Z929RLGAUCV9YE5JBCJ9XZTHOTSS","A2JWAD9JQNA5ON","329E6HTMSWO7MPPIUTRHLR63CI0K3O","","393","img/animal2.png","76","393","3","1","3","1,0.5,0,1,0.5,0,0.5,0,1",""
"","html-keyboard-response","69","51186","0.0-69.0","37Z929RLGAUCV9YE5JBCJ9XZTHOTSS","A2JWAD9JQNA5ON","329E6HTMSWO7MPPIUTRHLR63CI0K3O","","null","<img src=""img/animal2.png"" style=""width:200px; border:14px solid green;"">","null","","","","","",""
"","image-keyboard-response","70","51590","0.0-70.0","37Z929RLGAUCV9YE5JBCJ9XZTHOTSS","A2JWAD9JQNA5ON","329E6HTMSWO7MPPIUTRHLR63CI0K3O","","403","img/animal2.png","76","403","3","1","3","1,0.5,0,1,0.5,0,0.5,0,1",""
"","html-keyboard-response","71","51892","0.0-71.0","37Z929RLGAUCV9YE5JBCJ9XZTHOTSS","A2JWAD9JQNA5ON","329E6HTMSWO7MPPIUTRHLR63CI0K3O","","null","<img src=""img/animal2.png"" style=""width:200px; border:14px solid green;"">","null","","","","","",""
"","image-keyboard-response","72","52364","0.0-72.0","37Z929RLGAUCV9YE5JBCJ9XZTHOTSS","A2JWAD9JQNA5ON","329E6HTMSWO7MPPIUTRHLR63CI0K3O","","472","img/animal1.png","74","472","1","1","2","1,0.5,0,1,0.5,0,0.5,0,1",""
"","html-keyboard-response","73","52665","0.0-73.0","37Z929RLGAUCV9YE5JBCJ9XZTHOTSS","A2JWAD9JQNA5ON","329E6HTMSWO7MPPIUTRHLR63CI0K3O","","null","<img src=""img/animal1.png"" style=""width:200px; border:14px solid green;"">","null","","","","","",""
"","image-keyboard-response","74","53121","0.0-74.0","37Z929RLGAUCV9YE5JBCJ9XZTHOTSS","A2JWAD9JQNA5ON","329E6HTMSWO7MPPIUTRHLR63CI0K3O","","456","img/animal5.png","74","456","1","1","1","1,0.5,0,1,0.5,0,0.5,0,1",""
"","html-keyboard-response","75","53422","0.0-75.0","37Z929RLGAUCV9YE5JBCJ9XZTHOTSS","A2JWAD9JQNA5ON","329E6HTMSWO7MPPIUTRHLR63CI0K3O","","null","<img src=""img/animal5.png"" style=""width:200px; border:14px solid green;"">","null","","","","","",""
"","image-keyboard-response","76","54126","0.0-76.0","37Z929RLGAUCV9YE5JBCJ9XZTHOTSS","A2JWAD9JQNA5ON","329E6HTMSWO7MPPIUTRHLR63CI0K3O","","703","img/animal1.png","74","703","1","1","2","1,0.5,0,1,0.5,0,0.5,0,1",""
"","html-keyboard-response","77","54427","0.0-77.0","37Z929RLGAUCV9YE5JBCJ9XZTHOTSS","A2JWAD9JQNA5ON","329E6HTMSWO7MPPIUTRHLR63CI0K3O","","null","<img src=""img/animal1.png"" style=""width:200px; border:14px solid green;"">","null","","","","","",""
"","image-keyboard-response","78","54846","0.0-78.0","37Z929RLGAUCV9YE5JBCJ9XZTHOTSS","A2JWAD9JQNA5ON","329E6HTMSWO7MPPIUTRHLR63CI0K3O","","419","img/animal2.png","76","419","3","1","3","1,0.5,0,1,0.5,0,0.5,0,1",""
"","html-keyboard-response","79","55148","0.0-79.0","37Z929RLGAUCV9YE5JBCJ9XZTHOTSS","A2JWAD9JQNA5ON","329E6HTMSWO7MPPIUTRHLR63CI0K3O","","null","<img src=""img/animal2.png"" style=""width:200px; border:14px solid green;"">","null","","","","","",""
"","image-keyboard-response","80","55506","0.0-80.0","37Z929RLGAUCV9YE5JBCJ9XZTHOTSS","A2JWAD9JQNA5ON","329E6HTMSWO7MPPIUTRHLR63CI0K3O","","357","img/animal1.png","74","358","1","1","2","1,0.5,0,1,0.5,0,0.5,0,1",""
"","html-keyboard-response","81","55808","0.0-81.0","37Z929RLGAUCV9YE5JBCJ9XZTHOTSS","A2JWAD9JQNA5ON","329E6HTMSWO7MPPIUTRHLR63CI0K3O","","null","<img src=""img/animal1.png"" style=""width:200px; border:14px solid green;"">","null","","","","","",""
"","image-keyboard-response","82","56189","0.0-82.0","37Z929RLGAUCV9YE5JBCJ9XZTHOTSS","A2JWAD9JQNA5ON","329E6HTMSWO7MPPIUTRHLR63CI0K3O","","381","img/animal1.png","74","381","1","1","2","1,0.5,0,1,0.5,0,0.5,0,1",""
"","html-keyboard-response","83","56491","0.0-83.0","37Z929RLGAUCV9YE5JBCJ9XZTHOTSS","A2JWAD9JQNA5ON","329E6HTMSWO7MPPIUTRHLR63CI0K3O","","null","<img src=""img/animal1.png"" style=""width:200px; border:14px solid green;"">","null","","","","","",""
"","image-keyboard-response","84","57126","0.0-84.0","37Z929RLGAUCV9YE5JBCJ9XZTHOTSS","A2JWAD9JQNA5ON","329E6HTMSWO7MPPIUTRHLR63CI0K3O","","635","img/animal5.png","74","635","1","1","1","1,0.5,0,1,0.5,0,0.5,0,1",""
"","html-keyboard-response","85","57427","0.0-85.0","37Z929RLGAUCV9YE5JBCJ9XZTHOTSS","A2JWAD9JQNA5ON","329E6HTMSWO7MPPIUTRHLR63CI0K3O","","null","<img src=""img/animal5.png"" style=""width:200px; border:14px solid green;"">","null","","","","","",""
"","image-keyboard-response","86","58063","0.0-86.0","37Z929RLGAUCV9YE5JBCJ9XZTHOTSS","A2JWAD9JQNA5ON","329E6HTMSWO7MPPIUTRHLR63CI0K3O","","635","img/animal2.png","76","637","3","1","3","1,0.5,0,1,0.5,0,0.5,0,1",""
"","html-keyboard-response","87","58364","0.0-87.0","37Z929RLGAUCV9YE5JBCJ9XZTHOTSS","A2JWAD9JQNA5ON","329E6HTMSWO7MPPIUTRHLR63CI0K3O","","null","<img src=""img/animal2.png"" style=""width:200px; border:14px solid green;"">","null","","","","","",""
"","image-keyboard-response","88","58769","0.0-88.0","37Z929RLGAUCV9YE5JBCJ9XZTHOTSS","A2JWAD9JQNA5ON","329E6HTMSWO7MPPIUTRHLR63CI0K3O","","405","img/animal1.png","74","405","1","1","2","1,0.5,0,1,0.5,0,0.5,0,1",""
"","html-keyboard-response","89","59069","0.0-89.0","37Z929RLGAUCV9YE5JBCJ9XZTHOTSS","A2JWAD9JQNA5ON","329E6HTMSWO7MPPIUTRHLR63CI0K3O","","null","<img src=""img/animal1.png"" style=""width:200px; border:14px solid green;"">","null","","","","","",""
"","image-keyboard-response","90","59436","0.0-90.0","37Z929RLGAUCV9YE5JBCJ9XZTHOTSS","A2JWAD9JQNA5ON","329E6HTMSWO7MPPIUTRHLR63CI0K3O","","366","img/animal1.png","74","368","1","1","2","1,0.5,0,1,0.5,0,0.5,0,1",""
"","html-keyboard-response","91","59737","0.0-91.0","37Z929RLGAUCV9YE5JBCJ9XZTHOTSS","A2JWAD9JQNA5ON","329E6HTMSWO7MPPIUTRHLR63CI0K3O","","null","<img src=""img/animal1.png"" style=""width:200px; border:14px solid green;"">","null","","","","","",""
"","image-keyboard-response","92","60546","0.0-92.0","37Z929RLGAUCV9YE5JBCJ9XZTHOTSS","A2JWAD9JQNA5ON","329E6HTMSWO7MPPIUTRHLR63CI0K3O","","809","img/animal5.png","74","809","1","1","1","1,0.5,0,1,0.5,0,0.5,0,1",""
"","html-keyboard-response","93","60847","0.0-93.0","37Z929RLGAUCV9YE5JBCJ9XZTHOTSS","A2JWAD9JQNA5ON","329E6HTMSWO7MPPIUTRHLR63CI0K3O","","null","<img src=""img/animal5.png"" style=""width:200px; border:14px solid green;"">","null","","","","","",""
"","image-keyboard-response","94","61416","0.0-94.0","37Z929RLGAUCV9YE5JBCJ9XZTHOTSS","A2JWAD9JQNA5ON","329E6HTMSWO7MPPIUTRHLR63CI0K3O","","567","img/animal1.png","74","568","1","1","2","1,0.5,0,1,0.5,0,0.5,0,1",""
"","html-keyboard-response","95","61716","0.0-95.0","37Z929RLGAUCV9YE5JBCJ9XZTHOTSS","A2JWAD9JQNA5ON","329E6HTMSWO7MPPIUTRHLR63CI0K3O","","null","<img src=""img/animal1.png"" style=""width:200px; border:14px solid green;"">","null","","","","","",""
"","image-keyboard-response","96","62181","0.0-96.0","37Z929RLGAUCV9YE5JBCJ9XZTHOTSS","A2JWAD9JQNA5ON","329E6HTMSWO7MPPIUTRHLR63CI0K3O","","463","img/animal5.png","74","465","1","1","1","1,0.5,0,1,0.5,0,0.5,0,1",""
"","html-keyboard-response","97","62482","0.0-97.0","37Z929RLGAUCV9YE5JBCJ9XZTHOTSS","A2JWAD9JQNA5ON","329E6HTMSWO7MPPIUTRHLR63CI0K3O","","null","<img src=""img/animal5.png"" style=""width:200px; border:14px solid green;"">","null","","","","","",""
"","image-keyboard-response","98","62984","0.0-98.0","37Z929RLGAUCV9YE5JBCJ9XZTHOTSS","A2JWAD9JQNA5ON","329E6HTMSWO7MPPIUTRHLR63CI0K3O","","501","img/animal1.png","74","501","1","1","2","1,0.5,0,1,0.5,0,0.5,0,1",""
"","html-keyboard-response","99","63285","0.0-99.0","37Z929RLGAUCV9YE5JBCJ9XZTHOTSS","A2JWAD9JQNA5ON","329E6HTMSWO7MPPIUTRHLR63CI0K3O","","null","<img src=""img/animal1.png"" style=""width:200px; border:14px solid green;"">","null","","","","","",""
"","image-keyboard-response","100","63853","0.0-100.0","37Z929RLGAUCV9YE5JBCJ9XZTHOTSS","A2JWAD9JQNA5ON","329E6HTMSWO7MPPIUTRHLR63CI0K3O","","569","img/animal2.png","76","569","3","1","3","1,0.5,0,1,0.5,0,0.5,0,1",""
"","html-keyboard-response","101","64155","0.0-101.0","37Z929RLGAUCV9YE5JBCJ9XZTHOTSS","A2JWAD9JQNA5ON","329E6HTMSWO7MPPIUTRHLR63CI0K3O","","null","<img src=""img/animal2.png"" style=""width:200px; border:14px solid green;"">","null","","","","","",""
"","image-keyboard-response","102","64580","0.0-102.0","37Z929RLGAUCV9YE5JBCJ9XZTHOTSS","A2JWAD9JQNA5ON","329E6HTMSWO7MPPIUTRHLR63CI0K3O","","425","img/animal1.png","74","426","1","1","2","1,0.5,0,1,0.5,0,0.5,0,1",""
"","html-keyboard-response","103","64882","0.0-103.0","37Z929RLGAUCV9YE5JBCJ9XZTHOTSS","A2JWAD9JQNA5ON","329E6HTMSWO7MPPIUTRHLR63CI0K3O","","null","<img src=""img/animal1.png"" style=""width:200px; border:14px solid green;"">","null","","","","","",""
"","image-keyboard-response","104","65863","0.0-104.0","37Z929RLGAUCV9YE5JBCJ9XZTHOTSS","A2JWAD9JQNA5ON","329E6HTMSWO7MPPIUTRHLR63CI0K3O","","981","img/animal5.png","74","981","1","1","1","1,0.5,0,1,0.5,0,0.5,0,1",""
"","html-keyboard-response","105","66164","0.0-105.0","37Z929RLGAUCV9YE5JBCJ9XZTHOTSS","A2JWAD9JQNA5ON","329E6HTMSWO7MPPIUTRHLR63CI0K3O","","null","<img src=""img/animal5.png"" style=""width:200px; border:14px solid green;"">","null","","","","","",""
"","image-keyboard-response","106","66816","0.0-106.0","37Z929RLGAUCV9YE5JBCJ9XZTHOTSS","A2JWAD9JQNA5ON","329E6HTMSWO7MPPIUTRHLR63CI0K3O","","652","img/animal2.png","76","652","3","1","3","1,0.5,0,1,0.5,0,0.5,0,1",""
"","html-keyboard-response","107","67117","0.0-107.0","37Z929RLGAUCV9YE5JBCJ9XZTHOTSS","A2JWAD9JQNA5ON","329E6HTMSWO7MPPIUTRHLR63CI0K3O","","null","<img src=""img/animal2.png"" style=""width:200px; border:14px solid green;"">","null","","","","","",""
"","image-keyboard-response","108","67740","0.0-108.0","37Z929RLGAUCV9YE5JBCJ9XZTHOTSS","A2JWAD9JQNA5ON","329E6HTMSWO7MPPIUTRHLR63CI0K3O","","621","img/animal5.png","74","623","1","1","1","1,0.5,0,1,0.5,0,0.5,0,1",""
"","html-keyboard-response","109","68041","0.0-109.0","37Z929RLGAUCV9YE5JBCJ9XZTHOTSS","A2JWAD9JQNA5ON","329E6HTMSWO7MPPIUTRHLR63CI0K3O","","null","<img src=""img/animal5.png"" style=""width:200px; border:14px solid green;"">","null","","","","","",""
"","image-keyboard-response","110","68818","0.0-110.0","37Z929RLGAUCV9YE5JBCJ9XZTHOTSS","A2JWAD9JQNA5ON","329E6HTMSWO7MPPIUTRHLR63CI0K3O","","777","img/animal5.png","74","777","1","1","1","1,0.5,0,1,0.5,0,0.5,0,1",""
"","html-keyboard-response","111","69120","0.0-111.0","37Z929RLGAUCV9YE5JBCJ9XZTHOTSS","A2JWAD9JQNA5ON","329E6HTMSWO7MPPIUTRHLR63CI0K3O","","null","<img src=""img/animal5.png"" style=""width:200px; border:14px solid green;"">","null","","","","","",""
"","image-keyboard-response","112","69561","0.0-112.0","37Z929RLGAUCV9YE5JBCJ9XZTHOTSS","A2JWAD9JQNA5ON","329E6HTMSWO7MPPIUTRHLR63CI0K3O","","441","img/animal5.png","74","441","1","1","1","1,0.5,0,1,0.5,0,0.5,0,1",""
"","html-keyboard-response","113","69863","0.0-113.0","37Z929RLGAUCV9YE5JBCJ9XZTHOTSS","A2JWAD9JQNA5ON","329E6HTMSWO7MPPIUTRHLR63CI0K3O","","null","<img src=""img/animal5.png"" style=""width:200px; border:14px solid green;"">","null","","","","","",""
"","image-keyboard-response","114","71286","0.0-114.0","37Z929RLGAUCV9YE5JBCJ9XZTHOTSS","A2JWAD9JQNA5ON","329E6HTMSWO7MPPIUTRHLR63CI0K3O","","1423","img/animal1.png","75","1424","2","0","2","1,0.5,0,1,0.5,0,0.5,0,1",""
"","html-keyboard-response","115","71587","0.0-115.0","37Z929RLGAUCV9YE5JBCJ9XZTHOTSS","A2JWAD9JQNA5ON","329E6HTMSWO7MPPIUTRHLR63CI0K3O","","null","<img src=""img/animal1.png"" style=""width:200px;border:14px solid red;"">","null","","","","","",""
"","image-keyboard-response","116","72336","0.0-116.0","37Z929RLGAUCV9YE5JBCJ9XZTHOTSS","A2JWAD9JQNA5ON","329E6HTMSWO7MPPIUTRHLR63CI0K3O","","748","img/animal5.png","74","748","1","1","1","1,0.5,0,1,0.5,0,0.5,0,1",""
"","html-keyboard-response","117","72639","0.0-117.0","37Z929RLGAUCV9YE5JBCJ9XZTHOTSS","A2JWAD9JQNA5ON","329E6HTMSWO7MPPIUTRHLR63CI0K3O","","null","<img src=""img/animal5.png"" style=""width:200px; border:14px solid green;"">","null","","","","","",""
"","image-keyboard-response","118","73378","0.0-118.0","37Z929RLGAUCV9YE5JBCJ9XZTHOTSS","A2JWAD9JQNA5ON","329E6HTMSWO7MPPIUTRHLR63CI0K3O","","740","img/animal1.png","76","741","3","0","2","1,0.5,0,1,0.5,0,0.5,0,1",""
"","html-keyboard-response","119","73679","0.0-119.0","37Z929RLGAUCV9YE5JBCJ9XZTHOTSS","A2JWAD9JQNA5ON","329E6HTMSWO7MPPIUTRHLR63CI0K3O","","null","<img src=""img/animal1.png"" style=""width:200px;border:14px solid red;"">","null","","","","","",""
"","image-keyboard-response","120","74572","0.0-120.0","37Z929RLGAUCV9YE5JBCJ9XZTHOTSS","A2JWAD9JQNA5ON","329E6HTMSWO7MPPIUTRHLR63CI0K3O","","891","img/animal2.png","75","893","2","0","3","1,0.5,0,1,0.5,0,0.5,0,1",""
"","html-keyboard-response","121","74873","0.0-121.0","37Z929RLGAUCV9YE5JBCJ9XZTHOTSS","A2JWAD9JQNA5ON","329E6HTMSWO7MPPIUTRHLR63CI0K3O","","null","<img src=""img/animal2.png"" style=""width:200px;border:14px solid red;"">","null","","","","","",""
"","image-keyboard-response","122","75419","0.0-122.0","37Z929RLGAUCV9YE5JBCJ9XZTHOTSS","A2JWAD9JQNA5ON","329E6HTMSWO7MPPIUTRHLR63CI0K3O","","545","img/animal5.png","74","545","1","1","1","1,0.5,0,1,0.5,0,0.5,0,1",""
"","html-keyboard-response","123","75720","0.0-123.0","37Z929RLGAUCV9YE5JBCJ9XZTHOTSS","A2JWAD9JQNA5ON","329E6HTMSWO7MPPIUTRHLR63CI0K3O","","null","<img src=""img/animal5.png"" style=""width:200px; border:14px solid green;"">","null","","","","","",""
"","image-keyboard-response","124","76341","0.0-124.0","37Z929RLGAUCV9YE5JBCJ9XZTHOTSS","A2JWAD9JQNA5ON","329E6HTMSWO7MPPIUTRHLR63CI0K3O","","621","img/animal5.png","75","622","2","1","1","1,0.5,0,1,0.5,0,0.5,0,1",""
"","html-keyboard-response","125","76641","0.0-125.0","37Z929RLGAUCV9YE5JBCJ9XZTHOTSS","A2JWAD9JQNA5ON","329E6HTMSWO7MPPIUTRHLR63CI0K3O","","null","<img src=""img/animal5.png"" style=""width:200px; border:14px solid green;"">","null","","","","","",""
"","image-keyboard-response","126","77654","0.0-126.0","37Z929RLGAUCV9YE5JBCJ9XZTHOTSS","A2JWAD9JQNA5ON","329E6HTMSWO7MPPIUTRHLR63CI0K3O","","1011","img/animal1.png","74","1011","1","1","2","1,0.5,0,1,0.5,0,0.5,0,1",""
"","html-keyboard-response","127","77953","0.0-127.0","37Z929RLGAUCV9YE5JBCJ9XZTHOTSS","A2JWAD9JQNA5ON","329E6HTMSWO7MPPIUTRHLR63CI0K3O","","null","<img src=""img/animal1.png"" style=""width:200px; border:14px solid green;"">","null","","","","","",""
"","image-keyboard-response","128","78553","0.0-128.0","37Z929RLGAUCV9YE5JBCJ9XZTHOTSS","A2JWAD9JQNA5ON","329E6HTMSWO7MPPIUTRHLR63CI0K3O","","599","img/animal2.png","76","600","3","1","3","1,0.5,0,1,0.5,0,0.5,0,1",""
"","html-keyboard-response","129","78855","0.0-129.0","37Z929RLGAUCV9YE5JBCJ9XZTHOTSS","A2JWAD9JQNA5ON","329E6HTMSWO7MPPIUTRHLR63CI0K3O","","null","<img src=""img/animal2.png"" style=""width:200px; border:14px solid green;"">","null","","","","","",""
"","image-keyboard-response","130","79371","0.0-130.0","37Z929RLGAUCV9YE5JBCJ9XZTHOTSS","A2JWAD9JQNA5ON","329E6HTMSWO7MPPIUTRHLR63CI0K3O","","516","img/animal2.png","76","516","3","1","3","1,0.5,0,1,0.5,0,0.5,0,1",""
"","html-keyboard-response","131","79673","0.0-131.0","37Z929RLGAUCV9YE5JBCJ9XZTHOTSS","A2JWAD9JQNA5ON","329E6HTMSWO7MPPIUTRHLR63CI0K3O","","null","<img src=""img/animal2.png"" style=""width:200px; border:14px solid green;"">","null","","","","","",""
"","image-keyboard-response","132","80256","0.0-132.0","37Z929RLGAUCV9YE5JBCJ9XZTHOTSS","A2JWAD9JQNA5ON","329E6HTMSWO7MPPIUTRHLR63CI0K3O","","583","img/animal1.png","74","583","1","1","2","1,0.5,0,1,0.5,0,0.5,0,1",""
"","html-keyboard-response","133","80556","0.0-133.0","37Z929RLGAUCV9YE5JBCJ9XZTHOTSS","A2JWAD9JQNA5ON","329E6HTMSWO7MPPIUTRHLR63CI0K3O","","null","<img src=""img/animal1.png"" style=""width:200px; border:14px solid green;"">","null","","","","","",""
"","image-keyboard-response","134","80969","0.0-134.0","37Z929RLGAUCV9YE5JBCJ9XZTHOTSS","A2JWAD9JQNA5ON","329E6HTMSWO7MPPIUTRHLR63CI0K3O","","412","img/animal5.png","75","412","2","0","1","1,0.5,0,1,0.5,0,0.5,0,1",""
"","html-keyboard-response","135","81271","0.0-135.0","37Z929RLGAUCV9YE5JBCJ9XZTHOTSS","A2JWAD9JQNA5ON","329E6HTMSWO7MPPIUTRHLR63CI0K3O","","null","<img src=""img/animal5.png"" style=""width:200px;border:14px solid red;"">","null","","","","","",""
"","image-keyboard-response","136","82327","0.0-136.0","37Z929RLGAUCV9YE5JBCJ9XZTHOTSS","A2JWAD9JQNA5ON","329E6HTMSWO7MPPIUTRHLR63CI0K3O","","1055","img/animal2.png","76","1056","3","1","3","1,0.5,0,1,0.5,0,0.5,0,1",""
"","html-keyboard-response","137","82628","0.0-137.0","37Z929RLGAUCV9YE5JBCJ9XZTHOTSS","A2JWAD9JQNA5ON","329E6HTMSWO7MPPIUTRHLR63CI0K3O","","null","<img src=""img/animal2.png"" style=""width:200px; border:14px solid green;"">","null","","","","","",""
"","image-keyboard-response","138","83121","0.0-138.0","37Z929RLGAUCV9YE5JBCJ9XZTHOTSS","A2JWAD9JQNA5ON","329E6HTMSWO7MPPIUTRHLR63CI0K3O","","492","img/animal2.png","76","493","3","1","3","1,0.5,0,1,0.5,0,0.5,0,1",""
"","html-keyboard-response","139","83423","0.0-139.0","37Z929RLGAUCV9YE5JBCJ9XZTHOTSS","A2JWAD9JQNA5ON","329E6HTMSWO7MPPIUTRHLR63CI0K3O","","null","<img src=""img/animal2.png"" style=""width:200px; border:14px solid green;"">","null","","","","","",""
"","image-keyboard-response","140","83923","0.0-140.0","37Z929RLGAUCV9YE5JBCJ9XZTHOTSS","A2JWAD9JQNA5ON","329E6HTMSWO7MPPIUTRHLR63CI0K3O","","500","img/animal2.png","76","500","3","1","3","1,0.5,0,1,0.5,0,0.5,0,1",""
"","html-keyboard-response","141","84224","0.0-141.0","37Z929RLGAUCV9YE5JBCJ9XZTHOTSS","A2JWAD9JQNA5ON","329E6HTMSWO7MPPIUTRHLR63CI0K3O","","null","<img src=""img/animal2.png"" style=""width:200px; border:14px solid green;"">","null","","","","","",""
"","image-keyboard-response","142","84996","0.0-142.0","37Z929RLGAUCV9YE5JBCJ9XZTHOTSS","A2JWAD9JQNA5ON","329E6HTMSWO7MPPIUTRHLR63CI0K3O","","771","img/animal5.png","74","771","1","1","1","1,0.5,0,1,0.5,0,0.5,0,1",""
"","html-keyboard-response","143","85296","0.0-143.0","37Z929RLGAUCV9YE5JBCJ9XZTHOTSS","A2JWAD9JQNA5ON","329E6HTMSWO7MPPIUTRHLR63CI0K3O","","null","<img src=""img/animal5.png"" style=""width:200px; border:14px solid green;"">","null","","","","","",""
"","image-keyboard-response","144","86151","0.0-144.0","37Z929RLGAUCV9YE5JBCJ9XZTHOTSS","A2JWAD9JQNA5ON","329E6HTMSWO7MPPIUTRHLR63CI0K3O","","854","img/animal2.png","76","854","3","1","3","1,0.5,0,1,0.5,0,0.5,0,1",""
"","html-keyboard-response","145","86452","0.0-145.0","37Z929RLGAUCV9YE5JBCJ9XZTHOTSS","A2JWAD9JQNA5ON","329E6HTMSWO7MPPIUTRHLR63CI0K3O","","null","<img src=""img/animal2.png"" style=""width:200px; border:14px solid green;"">","null","","","","","",""
"","image-keyboard-response","146","86917","0.0-146.0","37Z929RLGAUCV9YE5JBCJ9XZTHOTSS","A2JWAD9JQNA5ON","329E6HTMSWO7MPPIUTRHLR63CI0K3O","","464","img/animal5.png","74","464","1","1","1","1,0.5,0,1,0.5,0,0.5,0,1",""
"","html-keyboard-response","147","87217","0.0-147.0","37Z929RLGAUCV9YE5JBCJ9XZTHOTSS","A2JWAD9JQNA5ON","329E6HTMSWO7MPPIUTRHLR63CI0K3O","","null","<img src=""img/animal5.png"" style=""width:200px; border:14px solid green;"">","null","","","","","",""
"","image-keyboard-response","148","87644","0.0-148.0","37Z929RLGAUCV9YE5JBCJ9XZTHOTSS","A2JWAD9JQNA5ON","329E6HTMSWO7MPPIUTRHLR63CI0K3O","","427","img/animal2.png","76","427","3","1","3","1,0.5,0,1,0.5,0,0.5,0,1",""
"","html-keyboard-response","149","87944","0.0-149.0","37Z929RLGAUCV9YE5JBCJ9XZTHOTSS","A2JWAD9JQNA5ON","329E6HTMSWO7MPPIUTRHLR63CI0K3O","","null","<img src=""img/animal2.png"" style=""width:200px; border:14px solid green;"">","null","","","","","",""
"","image-keyboard-response","150","88311","0.0-150.0","37Z929RLGAUCV9YE5JBCJ9XZTHOTSS","A2JWAD9JQNA5ON","329E6HTMSWO7MPPIUTRHLR63CI0K3O","","366","img/animal5.png","74","367","1","1","1","1,0.5,0,1,0.5,0,0.5,0,1",""
"","html-keyboard-response","151","88611","0.0-151.0","37Z929RLGAUCV9YE5JBCJ9XZTHOTSS","A2JWAD9JQNA5ON","329E6HTMSWO7MPPIUTRHLR63CI0K3O","","null","<img src=""img/animal5.png"" style=""width:200px; border:14px solid green;"">","null","","","","","",""
"","image-keyboard-response","152","89398","0.0-152.0","37Z929RLGAUCV9YE5JBCJ9XZTHOTSS","A2JWAD9JQNA5ON","329E6HTMSWO7MPPIUTRHLR63CI0K3O","","786","img/animal1.png","74","787","1","1","2","1,0.5,0,1,0.5,0,0.5,0,1",""
"","html-keyboard-response","153","89699","0.0-153.0","37Z929RLGAUCV9YE5JBCJ9XZTHOTSS","A2JWAD9JQNA5ON","329E6HTMSWO7MPPIUTRHLR63CI0K3O","","null","<img src=""img/animal1.png"" style=""width:200px; border:14px solid green;"">","null","","","","","",""
"","image-keyboard-response","154","90314","0.0-154.0","37Z929RLGAUCV9YE5JBCJ9XZTHOTSS","A2JWAD9JQNA5ON","329E6HTMSWO7MPPIUTRHLR63CI0K3O","","613","img/animal2.png","76","613","3","1","3","1,0.5,0,1,0.5,0,0.5,0,1",""
"","html-keyboard-response","155","90614","0.0-155.0","37Z929RLGAUCV9YE5JBCJ9XZTHOTSS","A2JWAD9JQNA5ON","329E6HTMSWO7MPPIUTRHLR63CI0K3O","","null","<img src=""img/animal2.png"" style=""width:200px; border:14px solid green;"">","null","","","","","",""
"","image-keyboard-response","156","90981","0.0-156.0","37Z929RLGAUCV9YE5JBCJ9XZTHOTSS","A2JWAD9JQNA5ON","329E6HTMSWO7MPPIUTRHLR63CI0K3O","","365","img/animal2.png","76","367","3","1","3","1,0.5,0,1,0.5,0,0.5,0,1",""
"","html-keyboard-response","157","91283","0.0-157.0","37Z929RLGAUCV9YE5JBCJ9XZTHOTSS","A2JWAD9JQNA5ON","329E6HTMSWO7MPPIUTRHLR63CI0K3O","","null","<img src=""img/animal2.png"" style=""width:200px; border:14px solid green;"">","null","","","","","",""
"","image-keyboard-response","158","91798","0.0-158.0","37Z929RLGAUCV9YE5JBCJ9XZTHOTSS","A2JWAD9JQNA5ON","329E6HTMSWO7MPPIUTRHLR63CI0K3O","","515","img/animal2.png","76","515","3","1","3","1,0.5,0,1,0.5,0,0.5,0,1",""
"","html-keyboard-response","159","92100","0.0-159.0","37Z929RLGAUCV9YE5JBCJ9XZTHOTSS","A2JWAD9JQNA5ON","329E6HTMSWO7MPPIUTRHLR63CI0K3O","","null","<img src=""img/animal2.png"" style=""width:200px; border:14px solid green;"">","null","","","","","",""
"","image-keyboard-response","160","92683","0.0-160.0","37Z929RLGAUCV9YE5JBCJ9XZTHOTSS","A2JWAD9JQNA5ON","329E6HTMSWO7MPPIUTRHLR63CI0K3O","","583","img/animal1.png","75","583","2","0","2","1,0.5,0,1,0.5,0,0.5,0,1",""
"","html-keyboard-response","161","92984","0.0-161.0","37Z929RLGAUCV9YE5JBCJ9XZTHOTSS","A2JWAD9JQNA5ON","329E6HTMSWO7MPPIUTRHLR63CI0K3O","","null","<img src=""img/animal1.png"" style=""width:200px;border:14px solid red;"">","null","","","","","",""
"","image-keyboard-response","162","93419","0.0-162.0","37Z929RLGAUCV9YE5JBCJ9XZTHOTSS","A2JWAD9JQNA5ON","329E6HTMSWO7MPPIUTRHLR63CI0K3O","","433","img/animal5.png","74","434","1","1","1","1,0.5,0,1,0.5,0,0.5,0,1",""
"","html-keyboard-response","163","93719","0.0-163.0","37Z929RLGAUCV9YE5JBCJ9XZTHOTSS","A2JWAD9JQNA5ON","329E6HTMSWO7MPPIUTRHLR63CI0K3O","","null","<img src=""img/animal5.png"" style=""width:200px; border:14px solid green;"">","null","","","","","",""
"","image-keyboard-response","164","94124","0.0-164.0","37Z929RLGAUCV9YE5JBCJ9XZTHOTSS","A2JWAD9JQNA5ON","329E6HTMSWO7MPPIUTRHLR63CI0K3O","","404","img/animal5.png","74","405","1","1","1","1,0.5,0,1,0.5,0,0.5,0,1",""
"","html-keyboard-response","165","94426","0.0-165.0","37Z929RLGAUCV9YE5JBCJ9XZTHOTSS","A2JWAD9JQNA5ON","329E6HTMSWO7MPPIUTRHLR63CI0K3O","","null","<img src=""img/animal5.png"" style=""width:200px; border:14px solid green;"">","null","","","","","",""
"","image-keyboard-response","166","94791","0.0-166.0","37Z929RLGAUCV9YE5JBCJ9XZTHOTSS","A2JWAD9JQNA5ON","329E6HTMSWO7MPPIUTRHLR63CI0K3O","","365","img/animal5.png","74","366","1","1","1","1,0.5,0,1,0.5,0,0.5,0,1",""
"","html-keyboard-response","167","95092","0.0-167.0","37Z929RLGAUCV9YE5JBCJ9XZTHOTSS","A2JWAD9JQNA5ON","329E6HTMSWO7MPPIUTRHLR63CI0K3O","","null","<img src=""img/animal5.png"" style=""width:200px; border:14px solid green;"">","null","","","","","",""
"","image-keyboard-response","168","95549","0.0-168.0","37Z929RLGAUCV9YE5JBCJ9XZTHOTSS","A2JWAD9JQNA5ON","329E6HTMSWO7MPPIUTRHLR63CI0K3O","","455","img/animal2.png","74","456","1","1","3","1,0.5,0,1,0.5,0,0.5,0,1",""
"","html-keyboard-response","169","95850","0.0-169.0","37Z929RLGAUCV9YE5JBCJ9XZTHOTSS","A2JWAD9JQNA5ON","329E6HTMSWO7MPPIUTRHLR63CI0K3O","","null","<img src=""img/animal2.png"" style=""width:200px; border:14px solid green;"">","null","","","","","",""
"","image-keyboard-response","170","96614","0.0-170.0","37Z929RLGAUCV9YE5JBCJ9XZTHOTSS","A2JWAD9JQNA5ON","329E6HTMSWO7MPPIUTRHLR63CI0K3O","","763","img/animal5.png","74","764","1","1","1","1,0.5,0,1,0.5,0,0.5,0,1",""
"","html-keyboard-response","171","96915","0.0-171.0","37Z929RLGAUCV9YE5JBCJ9XZTHOTSS","A2JWAD9JQNA5ON","329E6HTMSWO7MPPIUTRHLR63CI0K3O","","null","<img src=""img/animal5.png"" style=""width:200px; border:14px solid green;"">","null","","","","","",""
"","image-keyboard-response","172","97319","0.0-172.0","37Z929RLGAUCV9YE5JBCJ9XZTHOTSS","A2JWAD9JQNA5ON","329E6HTMSWO7MPPIUTRHLR63CI0K3O","","403","img/animal2.png","74","403","1","1","3","1,0.5,0,1,0.5,0,0.5,0,1",""
"","html-keyboard-response","173","97620","0.0-173.0","37Z929RLGAUCV9YE5JBCJ9XZTHOTSS","A2JWAD9JQNA5ON","329E6HTMSWO7MPPIUTRHLR63CI0K3O","","null","<img src=""img/animal2.png"" style=""width:200px; border:14px solid green;"">","null","","","","","",""
"","image-keyboard-response","174","98076","0.0-174.0","37Z929RLGAUCV9YE5JBCJ9XZTHOTSS","A2JWAD9JQNA5ON","329E6HTMSWO7MPPIUTRHLR63CI0K3O","","457","img/animal2.png","74","457","1","0","3","1,0.5,0,1,0.5,0,0.5,0,1",""
"","html-keyboard-response","175","98377","0.0-175.0","37Z929RLGAUCV9YE5JBCJ9XZTHOTSS","A2JWAD9JQNA5ON","329E6HTMSWO7MPPIUTRHLR63CI0K3O","","null","<img src=""img/animal2.png"" style=""width:200px;border:14px solid red;"">","null","","","","","",""
"","image-keyboard-response","176","99253","0.0-176.0","37Z929RLGAUCV9YE5JBCJ9XZTHOTSS","A2JWAD9JQNA5ON","329E6HTMSWO7MPPIUTRHLR63CI0K3O","","875","img/animal1.png","74","876","1","1","2","1,0.5,0,1,0.5,0,0.5,0,1",""
"","html-keyboard-response","177","99555","0.0-177.0","37Z929RLGAUCV9YE5JBCJ9XZTHOTSS","A2JWAD9JQNA5ON","329E6HTMSWO7MPPIUTRHLR63CI0K3O","","null","<img src=""img/animal1.png"" style=""width:200px; border:14px solid green;"">","null","","","","","",""
"","image-keyboard-response","178","100094","0.0-178.0","37Z929RLGAUCV9YE5JBCJ9XZTHOTSS","A2JWAD9JQNA5ON","329E6HTMSWO7MPPIUTRHLR63CI0K3O","","539","img/animal2.png","76","539","3","1","3","1,0.5,0,1,0.5,0,0.5,0,1",""
"","html-keyboard-response","179","100396","0.0-179.0","37Z929RLGAUCV9YE5JBCJ9XZTHOTSS","A2JWAD9JQNA5ON","329E6HTMSWO7MPPIUTRHLR63CI0K3O","","null","<img src=""img/animal2.png"" style=""width:200px; border:14px solid green;"">","null","","","","","",""
"","image-keyboard-response","180","100844","0.0-180.0","37Z929RLGAUCV9YE5JBCJ9XZTHOTSS","A2JWAD9JQNA5ON","329E6HTMSWO7MPPIUTRHLR63CI0K3O","","447","img/animal5.png","74","448","1","1","1","1,0.5,0,1,0.5,0,0.5,0,1",""
"","html-keyboard-response","181","101145","0.0-181.0","37Z929RLGAUCV9YE5JBCJ9XZTHOTSS","A2JWAD9JQNA5ON","329E6HTMSWO7MPPIUTRHLR63CI0K3O","","null","<img src=""img/animal5.png"" style=""width:200px; border:14px solid green;"">","null","","","","","",""
"","html-keyboard-response","182","103281","0.0-182.0","37Z929RLGAUCV9YE5JBCJ9XZTHOTSS","A2JWAD9JQNA5ON","329E6HTMSWO7MPPIUTRHLR63CI0K3O","","","","","","","","","",""
"","image-keyboard-response","183","104009","0.0-183.0","37Z929RLGAUCV9YE5JBCJ9XZTHOTSS","A2JWAD9JQNA5ON","329E6HTMSWO7MPPIUTRHLR63CI0K3O","","726","img/animal4.png","74","728","1","1","3","1,0.5,0,0,1,0.5,0.5,0,1",""
"","html-keyboard-response","184","104311","0.0-184.0","37Z929RLGAUCV9YE5JBCJ9XZTHOTSS","A2JWAD9JQNA5ON","329E6HTMSWO7MPPIUTRHLR63CI0K3O","","null","<img src=""img/animal4.png"" style=""width:200px; border:14px solid green;"">","null","","","","","",""
"","image-keyboard-response","185","107316","0.0-185.0","37Z929RLGAUCV9YE5JBCJ9XZTHOTSS","A2JWAD9JQNA5ON","329E6HTMSWO7MPPIUTRHLR63CI0K3O","","3005","img/animal4.png","74","3005","1","1","3","1,0.5,0,0,1,0.5,0.5,0,1",""
"","html-keyboard-response","186","107618","0.0-186.0","37Z929RLGAUCV9YE5JBCJ9XZTHOTSS","A2JWAD9JQNA5ON","329E6HTMSWO7MPPIUTRHLR63CI0K3O","","null","<img src=""img/animal4.png"" style=""width:200px; border:14px solid green;"">","null","","","","","",""
"","image-keyboard-response","187","108291","0.0-187.0","37Z929RLGAUCV9YE5JBCJ9XZTHOTSS","A2JWAD9JQNA5ON","329E6HTMSWO7MPPIUTRHLR63CI0K3O","","672","img/animal6.png","74","673","1","0","2","1,0.5,0,0,1,0.5,0.5,0,1",""
"","html-keyboard-response","188","108592","0.0-188.0","37Z929RLGAUCV9YE5JBCJ9XZTHOTSS","A2JWAD9JQNA5ON","329E6HTMSWO7MPPIUTRHLR63CI0K3O","","null","<img src=""img/animal6.png"" style=""width:200px;border:14px solid red;"">","null","","","","","",""
"","image-keyboard-response","189","109536","0.0-189.0","37Z929RLGAUCV9YE5JBCJ9XZTHOTSS","A2JWAD9JQNA5ON","329E6HTMSWO7MPPIUTRHLR63CI0K3O","","943","img/animal3.png","74","944","1","1","1","1,0.5,0,0,1,0.5,0.5,0,1",""
"","html-keyboard-response","190","109837","0.0-190.0","37Z929RLGAUCV9YE5JBCJ9XZTHOTSS","A2JWAD9JQNA5ON","329E6HTMSWO7MPPIUTRHLR63CI0K3O","","null","<img src=""img/animal3.png"" style=""width:200px; border:14px solid green;"">","null","","","","","",""
"","image-keyboard-response","191","110308","0.0-191.0","37Z929RLGAUCV9YE5JBCJ9XZTHOTSS","A2JWAD9JQNA5ON","329E6HTMSWO7MPPIUTRHLR63CI0K3O","","470","img/animal3.png","74","471","1","1","1","1,0.5,0,0,1,0.5,0.5,0,1",""
"","html-keyboard-response","192","110608","0.0-192.0","37Z929RLGAUCV9YE5JBCJ9XZTHOTSS","A2JWAD9JQNA5ON","329E6HTMSWO7MPPIUTRHLR63CI0K3O","","null","<img src=""img/animal3.png"" style=""width:200px; border:14px solid green;"">","null","","","","","",""
"","image-keyboard-response","193","111463","0.0-193.0","37Z929RLGAUCV9YE5JBCJ9XZTHOTSS","A2JWAD9JQNA5ON","329E6HTMSWO7MPPIUTRHLR63CI0K3O","","854","img/animal4.png","74","854","1","0","3","1,0.5,0,0,1,0.5,0.5,0,1",""
"","html-keyboard-response","194","111764","0.0-194.0","37Z929RLGAUCV9YE5JBCJ9XZTHOTSS","A2JWAD9JQNA5ON","329E6HTMSWO7MPPIUTRHLR63CI0K3O","","null","<img src=""img/animal4.png"" style=""width:200px;border:14px solid red;"">","null","","","","","",""
"","image-keyboard-response","195","112146","0.0-195.0","37Z929RLGAUCV9YE5JBCJ9XZTHOTSS","A2JWAD9JQNA5ON","329E6HTMSWO7MPPIUTRHLR63CI0K3O","","382","img/animal4.png","74","382","1","0","3","1,0.5,0,0,1,0.5,0.5,0,1",""
"","html-keyboard-response","196","112449","0.0-196.0","37Z929RLGAUCV9YE5JBCJ9XZTHOTSS","A2JWAD9JQNA5ON","329E6HTMSWO7MPPIUTRHLR63CI0K3O","","null","<img src=""img/animal4.png"" style=""width:200px;border:14px solid red;"">","null","","","","","",""
"","image-keyboard-response","197","113053","0.0-197.0","37Z929RLGAUCV9YE5JBCJ9XZTHOTSS","A2JWAD9JQNA5ON","329E6HTMSWO7MPPIUTRHLR63CI0K3O","","605","img/animal4.png","75","605","2","0","3","1,0.5,0,0,1,0.5,0.5,0,1",""
"","html-keyboard-response","198","113354","0.0-198.0","37Z929RLGAUCV9YE5JBCJ9XZTHOTSS","A2JWAD9JQNA5ON","329E6HTMSWO7MPPIUTRHLR63CI0K3O","","null","<img src=""img/animal4.png"" style=""width:200px;border:14px solid red;"">","null","","","","","",""
"","image-keyboard-response","199","113616","0.0-199.0","37Z929RLGAUCV9YE5JBCJ9XZTHOTSS","A2JWAD9JQNA5ON","329E6HTMSWO7MPPIUTRHLR63CI0K3O","","262","img/animal6.png","76","262","3","1","2","1,0.5,0,0,1,0.5,0.5,0,1",""
"","html-keyboard-response","200","113918","0.0-200.0","37Z929RLGAUCV9YE5JBCJ9XZTHOTSS","A2JWAD9JQNA5ON","329E6HTMSWO7MPPIUTRHLR63CI0K3O","","null","<img src=""img/animal6.png"" style=""width:200px; border:14px solid green;"">","null","","","","","",""
"","image-keyboard-response","201","114569","0.0-201.0","37Z929RLGAUCV9YE5JBCJ9XZTHOTSS","A2JWAD9JQNA5ON","329E6HTMSWO7MPPIUTRHLR63CI0K3O","","651","img/animal6.png","76","651","3","0","2","1,0.5,0,0,1,0.5,0.5,0,1",""
"","html-keyboard-response","202","114871","0.0-202.0","37Z929RLGAUCV9YE5JBCJ9XZTHOTSS","A2JWAD9JQNA5ON","329E6HTMSWO7MPPIUTRHLR63CI0K3O","","null","<img src=""img/animal6.png"" style=""width:200px;border:14px solid red;"">","null","","","","","",""
"","image-keyboard-response","203","115453","0.0-203.0","37Z929RLGAUCV9YE5JBCJ9XZTHOTSS","A2JWAD9JQNA5ON","329E6HTMSWO7MPPIUTRHLR63CI0K3O","","581","img/animal3.png","74","582","1","1","1","1,0.5,0,0,1,0.5,0.5,0,1",""
"","html-keyboard-response","204","115755","0.0-204.0","37Z929RLGAUCV9YE5JBCJ9XZTHOTSS","A2JWAD9JQNA5ON","329E6HTMSWO7MPPIUTRHLR63CI0K3O","","null","<img src=""img/animal3.png"" style=""width:200px; border:14px solid green;"">","null","","","","","",""
"","image-keyboard-response","205","116789","0.0-205.0","37Z929RLGAUCV9YE5JBCJ9XZTHOTSS","A2JWAD9JQNA5ON","329E6HTMSWO7MPPIUTRHLR63CI0K3O","","1033","img/animal6.png","75","1035","2","1","2","1,0.5,0,0,1,0.5,0.5,0,1",""
"","html-keyboard-response","206","117091","0.0-206.0","37Z929RLGAUCV9YE5JBCJ9XZTHOTSS","A2JWAD9JQNA5ON","329E6HTMSWO7MPPIUTRHLR63CI0K3O","","null","<img src=""img/animal6.png"" style=""width:200px; border:14px solid green;"">","null","","","","","",""
"","image-keyboard-response","207","117787","0.0-207.0","37Z929RLGAUCV9YE5JBCJ9XZTHOTSS","A2JWAD9JQNA5ON","329E6HTMSWO7MPPIUTRHLR63CI0K3O","","696","img/animal4.png","76","696","3","1","3","1,0.5,0,0,1,0.5,0.5,0,1",""
"","html-keyboard-response","208","118087","0.0-208.0","37Z929RLGAUCV9YE5JBCJ9XZTHOTSS","A2JWAD9JQNA5ON","329E6HTMSWO7MPPIUTRHLR63CI0K3O","","null","<img src=""img/animal4.png"" style=""width:200px; border:14px solid green;"">","null","","","","","",""
"","image-keyboard-response","209","118799","0.0-209.0","37Z929RLGAUCV9YE5JBCJ9XZTHOTSS","A2JWAD9JQNA5ON","329E6HTMSWO7MPPIUTRHLR63CI0K3O","","711","img/animal3.png","74","713","1","1","1","1,0.5,0,0,1,0.5,0.5,0,1",""
"","html-keyboard-response","210","119100","0.0-210.0","37Z929RLGAUCV9YE5JBCJ9XZTHOTSS","A2JWAD9JQNA5ON","329E6HTMSWO7MPPIUTRHLR63CI0K3O","","null","<img src=""img/animal3.png"" style=""width:200px; border:14px solid green;"">","null","","","","","",""
"","image-keyboard-response","211","119684","0.0-211.0","37Z929RLGAUCV9YE5JBCJ9XZTHOTSS","A2JWAD9JQNA5ON","329E6HTMSWO7MPPIUTRHLR63CI0K3O","","583","img/animal6.png","75","584","2","1","2","1,0.5,0,0,1,0.5,0.5,0,1",""
"","html-keyboard-response","212","119984","0.0-212.0","37Z929RLGAUCV9YE5JBCJ9XZTHOTSS","A2JWAD9JQNA5ON","329E6HTMSWO7MPPIUTRHLR63CI0K3O","","null","<img src=""img/animal6.png"" style=""width:200px; border:14px solid green;"">","null","","","","","",""
"","image-keyboard-response","213","120869","0.0-213.0","37Z929RLGAUCV9YE5JBCJ9XZTHOTSS","A2JWAD9JQNA5ON","329E6HTMSWO7MPPIUTRHLR63CI0K3O","","883","img/animal6.png","75","884","2","1","2","1,0.5,0,0,1,0.5,0.5,0,1",""
"","html-keyboard-response","214","121170","0.0-214.0","37Z929RLGAUCV9YE5JBCJ9XZTHOTSS","A2JWAD9JQNA5ON","329E6HTMSWO7MPPIUTRHLR63CI0K3O","","null","<img src=""img/animal6.png"" style=""width:200px; border:14px solid green;"">","null","","","","","",""
"","image-keyboard-response","215","121889","0.0-215.0","37Z929RLGAUCV9YE5JBCJ9XZTHOTSS","A2JWAD9JQNA5ON","329E6HTMSWO7MPPIUTRHLR63CI0K3O","","719","img/animal6.png","75","719","2","1","2","1,0.5,0,0,1,0.5,0.5,0,1",""
"","html-keyboard-response","216","122190","0.0-216.0","37Z929RLGAUCV9YE5JBCJ9XZTHOTSS","A2JWAD9JQNA5ON","329E6HTMSWO7MPPIUTRHLR63CI0K3O","","null","<img src=""img/animal6.png"" style=""width:200px; border:14px solid green;"">","null","","","","","",""
"","image-keyboard-response","217","123246","0.0-217.0","37Z929RLGAUCV9YE5JBCJ9XZTHOTSS","A2JWAD9JQNA5ON","329E6HTMSWO7MPPIUTRHLR63CI0K3O","","1056","img/animal3.png","76","1056","3","0","1","1,0.5,0,0,1,0.5,0.5,0,1",""
"","html-keyboard-response","218","123548","0.0-218.0","37Z929RLGAUCV9YE5JBCJ9XZTHOTSS","A2JWAD9JQNA5ON","329E6HTMSWO7MPPIUTRHLR63CI0K3O","","null","<img src=""img/animal3.png"" style=""width:200px;border:14px solid red;"">","null","","","","","",""
"","image-keyboard-response","219","124026","0.0-219.0","37Z929RLGAUCV9YE5JBCJ9XZTHOTSS","A2JWAD9JQNA5ON","329E6HTMSWO7MPPIUTRHLR63CI0K3O","","477","img/animal3.png","74","477","1","1","1","1,0.5,0,0,1,0.5,0.5,0,1",""
"","html-keyboard-response","220","124327","0.0-220.0","37Z929RLGAUCV9YE5JBCJ9XZTHOTSS","A2JWAD9JQNA5ON","329E6HTMSWO7MPPIUTRHLR63CI0K3O","","null","<img src=""img/animal3.png"" style=""width:200px; border:14px solid green;"">","null","","","","","",""
"","image-keyboard-response","221","125714","0.0-221.0","37Z929RLGAUCV9YE5JBCJ9XZTHOTSS","A2JWAD9JQNA5ON","329E6HTMSWO7MPPIUTRHLR63CI0K3O","","1386","img/animal3.png","74","1386","1","1","1","1,0.5,0,0,1,0.5,0.5,0,1",""
"","html-keyboard-response","222","126026","0.0-222.0","37Z929RLGAUCV9YE5JBCJ9XZTHOTSS","A2JWAD9JQNA5ON","329E6HTMSWO7MPPIUTRHLR63CI0K3O","","null","<img src=""img/animal3.png"" style=""width:200px; border:14px solid green;"">","null","","","","","",""
"","image-keyboard-response","223","126509","0.0-223.0","37Z929RLGAUCV9YE5JBCJ9XZTHOTSS","A2JWAD9JQNA5ON","329E6HTMSWO7MPPIUTRHLR63CI0K3O","","481","img/animal3.png","74","481","1","1","1","1,0.5,0,0,1,0.5,0.5,0,1",""
"","html-keyboard-response","224","126809","0.0-224.0","37Z929RLGAUCV9YE5JBCJ9XZTHOTSS","A2JWAD9JQNA5ON","329E6HTMSWO7MPPIUTRHLR63CI0K3O","","null","<img src=""img/animal3.png"" style=""width:200px; border:14px solid green;"">","null","","","","","",""
"","image-keyboard-response","225","127229","0.0-225.0","37Z929RLGAUCV9YE5JBCJ9XZTHOTSS","A2JWAD9JQNA5ON","329E6HTMSWO7MPPIUTRHLR63CI0K3O","","419","img/animal3.png","74","419","1","1","1","1,0.5,0,0,1,0.5,0.5,0,1",""
"","html-keyboard-response","226","127530","0.0-226.0","37Z929RLGAUCV9YE5JBCJ9XZTHOTSS","A2JWAD9JQNA5ON","329E6HTMSWO7MPPIUTRHLR63CI0K3O","","null","<img src=""img/animal3.png"" style=""width:200px; border:14px solid green;"">","null","","","","","",""
"","image-keyboard-response","227","128707","0.0-227.0","37Z929RLGAUCV9YE5JBCJ9XZTHOTSS","A2JWAD9JQNA5ON","329E6HTMSWO7MPPIUTRHLR63CI0K3O","","1176","img/animal6.png","75","1176","2","1","2","1,0.5,0,0,1,0.5,0.5,0,1",""
"","html-keyboard-response","228","129007","0.0-228.0","37Z929RLGAUCV9YE5JBCJ9XZTHOTSS","A2JWAD9JQNA5ON","329E6HTMSWO7MPPIUTRHLR63CI0K3O","","null","<img src=""img/animal6.png"" style=""width:200px; border:14px solid green;"">","null","","","","","",""
"","image-keyboard-response","229","129651","0.0-229.0","37Z929RLGAUCV9YE5JBCJ9XZTHOTSS","A2JWAD9JQNA5ON","329E6HTMSWO7MPPIUTRHLR63CI0K3O","","643","img/animal4.png","76","644","3","1","3","1,0.5,0,0,1,0.5,0.5,0,1",""
"","html-keyboard-response","230","129952","0.0-230.0","37Z929RLGAUCV9YE5JBCJ9XZTHOTSS","A2JWAD9JQNA5ON","329E6HTMSWO7MPPIUTRHLR63CI0K3O","","null","<img src=""img/animal4.png"" style=""width:200px; border:14px solid green;"">","null","","","","","",""
"","image-keyboard-response","231","130372","0.0-231.0","37Z929RLGAUCV9YE5JBCJ9XZTHOTSS","A2JWAD9JQNA5ON","329E6HTMSWO7MPPIUTRHLR63CI0K3O","","419","img/animal4.png","76","420","3","1","3","1,0.5,0,0,1,0.5,0.5,0,1",""
"","html-keyboard-response","232","130673","0.0-232.0","37Z929RLGAUCV9YE5JBCJ9XZTHOTSS","A2JWAD9JQNA5ON","329E6HTMSWO7MPPIUTRHLR63CI0K3O","","null","<img src=""img/animal4.png"" style=""width:200px; border:14px solid green;"">","null","","","","","",""
"","image-keyboard-response","233","131384","0.0-233.0","37Z929RLGAUCV9YE5JBCJ9XZTHOTSS","A2JWAD9JQNA5ON","329E6HTMSWO7MPPIUTRHLR63CI0K3O","","709","img/animal6.png","75","710","2","1","2","1,0.5,0,0,1,0.5,0.5,0,1",""
"","html-keyboard-response","234","131684","0.0-234.0","37Z929RLGAUCV9YE5JBCJ9XZTHOTSS","A2JWAD9JQNA5ON","329E6HTMSWO7MPPIUTRHLR63CI0K3O","","null","<img src=""img/animal6.png"" style=""width:200px; border:14px solid green;"">","null","","","","","",""
"","image-keyboard-response","235","132037","0.0-235.0","37Z929RLGAUCV9YE5JBCJ9XZTHOTSS","A2JWAD9JQNA5ON","329E6HTMSWO7MPPIUTRHLR63CI0K3O","","351","img/animal6.png","75","353","2","1","2","1,0.5,0,0,1,0.5,0.5,0,1",""
"","html-keyboard-response","236","132372","0.0-236.0","37Z929RLGAUCV9YE5JBCJ9XZTHOTSS","A2JWAD9JQNA5ON","329E6HTMSWO7MPPIUTRHLR63CI0K3O","","null","<img src=""img/animal6.png"" style=""width:200px; border:14px solid green;"">","null","","","","","",""
"","image-keyboard-response","237","133043","0.0-237.0","37Z929RLGAUCV9YE5JBCJ9XZTHOTSS","A2JWAD9JQNA5ON","329E6HTMSWO7MPPIUTRHLR63CI0K3O","","669","img/animal4.png","76","670","3","1","3","1,0.5,0,0,1,0.5,0.5,0,1",""
"","html-keyboard-response","238","133345","0.0-238.0","37Z929RLGAUCV9YE5JBCJ9XZTHOTSS","A2JWAD9JQNA5ON","329E6HTMSWO7MPPIUTRHLR63CI0K3O","","null","<img src=""img/animal4.png"" style=""width:200px; border:14px solid green;"">","null","","","","","",""
"","image-keyboard-response","239","134009","0.0-239.0","37Z929RLGAUCV9YE5JBCJ9XZTHOTSS","A2JWAD9JQNA5ON","329E6HTMSWO7MPPIUTRHLR63CI0K3O","","664","img/animal6.png","75","665","2","1","2","1,0.5,0,0,1,0.5,0.5,0,1",""
"","html-keyboard-response","240","134309","0.0-240.0","37Z929RLGAUCV9YE5JBCJ9XZTHOTSS","A2JWAD9JQNA5ON","329E6HTMSWO7MPPIUTRHLR63CI0K3O","","null","<img src=""img/animal6.png"" style=""width:200px; border:14px solid green;"">","null","","","","","",""
"","image-keyboard-response","241","134871","0.0-241.0","37Z929RLGAUCV9YE5JBCJ9XZTHOTSS","A2JWAD9JQNA5ON","329E6HTMSWO7MPPIUTRHLR63CI0K3O","","562","img/animal4.png","76","562","3","1","3","1,0.5,0,0,1,0.5,0.5,0,1",""
"","html-keyboard-response","242","135174","0.0-242.0","37Z929RLGAUCV9YE5JBCJ9XZTHOTSS","A2JWAD9JQNA5ON","329E6HTMSWO7MPPIUTRHLR63CI0K3O","","null","<img src=""img/animal4.png"" style=""width:200px; border:14px solid green;"">","null","","","","","",""
"","image-keyboard-response","243","135765","0.0-243.0","37Z929RLGAUCV9YE5JBCJ9XZTHOTSS","A2JWAD9JQNA5ON","329E6HTMSWO7MPPIUTRHLR63CI0K3O","","590","img/animal4.png","76","590","3","1","3","1,0.5,0,0,1,0.5,0.5,0,1",""
"","html-keyboard-response","244","136066","0.0-244.0","37Z929RLGAUCV9YE5JBCJ9XZTHOTSS","A2JWAD9JQNA5ON","329E6HTMSWO7MPPIUTRHLR63CI0K3O","","null","<img src=""img/animal4.png"" style=""width:200px; border:14px solid green;"">","null","","","","","",""
"","image-keyboard-response","245","136522","0.0-245.0","37Z929RLGAUCV9YE5JBCJ9XZTHOTSS","A2JWAD9JQNA5ON","329E6HTMSWO7MPPIUTRHLR63CI0K3O","","456","img/animal4.png","76","456","3","1","3","1,0.5,0,0,1,0.5,0.5,0,1",""
"","html-keyboard-response","246","136823","0.0-246.0","37Z929RLGAUCV9YE5JBCJ9XZTHOTSS","A2JWAD9JQNA5ON","329E6HTMSWO7MPPIUTRHLR63CI0K3O","","null","<img src=""img/animal4.png"" style=""width:200px; border:14px solid green;"">","null","","","","","",""
"","image-keyboard-response","247","137392","0.0-247.0","37Z929RLGAUCV9YE5JBCJ9XZTHOTSS","A2JWAD9JQNA5ON","329E6HTMSWO7MPPIUTRHLR63CI0K3O","","566","img/animal6.png","75","568","2","1","2","1,0.5,0,0,1,0.5,0.5,0,1",""
"","html-keyboard-response","248","137692","0.0-248.0","37Z929RLGAUCV9YE5JBCJ9XZTHOTSS","A2JWAD9JQNA5ON","329E6HTMSWO7MPPIUTRHLR63CI0K3O","","null","<img src=""img/animal6.png"" style=""width:200px; border:14px solid green;"">","null","","","","","",""
"","image-keyboard-response","249","138299","0.0-249.0","37Z929RLGAUCV9YE5JBCJ9XZTHOTSS","A2JWAD9JQNA5ON","329E6HTMSWO7MPPIUTRHLR63CI0K3O","","606","img/animal4.png","76","607","3","1","3","1,0.5,0,0,1,0.5,0.5,0,1",""
"","html-keyboard-response","250","138600","0.0-250.0","37Z929RLGAUCV9YE5JBCJ9XZTHOTSS","A2JWAD9JQNA5ON","329E6HTMSWO7MPPIUTRHLR63CI0K3O","","null","<img src=""img/animal4.png"" style=""width:200px; border:14px solid green;"">","null","","","","","",""
"","image-keyboard-response","251","138928","0.0-251.0","37Z929RLGAUCV9YE5JBCJ9XZTHOTSS","A2JWAD9JQNA5ON","329E6HTMSWO7MPPIUTRHLR63CI0K3O","","328","img/animal4.png","76","329","3","1","3","1,0.5,0,0,1,0.5,0.5,0,1",""
"","html-keyboard-response","252","139230","0.0-252.0","37Z929RLGAUCV9YE5JBCJ9XZTHOTSS","A2JWAD9JQNA5ON","329E6HTMSWO7MPPIUTRHLR63CI0K3O","","null","<img src=""img/animal4.png"" style=""width:200px; border:14px solid green;"">","null","","","","","",""
"","image-keyboard-response","253","139551","0.0-253.0","37Z929RLGAUCV9YE5JBCJ9XZTHOTSS","A2JWAD9JQNA5ON","329E6HTMSWO7MPPIUTRHLR63CI0K3O","","320","img/animal4.png","76","321","3","1","3","1,0.5,0,0,1,0.5,0.5,0,1",""
"","html-keyboard-response","254","139856","0.0-254.0","37Z929RLGAUCV9YE5JBCJ9XZTHOTSS","A2JWAD9JQNA5ON","329E6HTMSWO7MPPIUTRHLR63CI0K3O","","null","<img src=""img/animal4.png"" style=""width:200px; border:14px solid green;"">","null","","","","","",""
"","image-keyboard-response","255","140243","0.0-255.0","37Z929RLGAUCV9YE5JBCJ9XZTHOTSS","A2JWAD9JQNA5ON","329E6HTMSWO7MPPIUTRHLR63CI0K3O","","385","img/animal4.png","76","385","3","1","3","1,0.5,0,0,1,0.5,0.5,0,1",""
"","html-keyboard-response","256","140544","0.0-256.0","37Z929RLGAUCV9YE5JBCJ9XZTHOTSS","A2JWAD9JQNA5ON","329E6HTMSWO7MPPIUTRHLR63CI0K3O","","null","<img src=""img/animal4.png"" style=""width:200px; border:14px solid green;"">","null","","","","","",""
"","image-keyboard-response","257","141187","0.0-257.0","37Z929RLGAUCV9YE5JBCJ9XZTHOTSS","A2JWAD9JQNA5ON","329E6HTMSWO7MPPIUTRHLR63CI0K3O","","642","img/animal6.png","75","644","2","1","2","1,0.5,0,0,1,0.5,0.5,0,1",""
"","html-keyboard-response","258","141489","0.0-258.0","37Z929RLGAUCV9YE5JBCJ9XZTHOTSS","A2JWAD9JQNA5ON","329E6HTMSWO7MPPIUTRHLR63CI0K3O","","null","<img src=""img/animal6.png"" style=""width:200px; border:14px solid green;"">","null","","","","","",""
"","image-keyboard-response","259","142034","0.0-259.0","37Z929RLGAUCV9YE5JBCJ9XZTHOTSS","A2JWAD9JQNA5ON","329E6HTMSWO7MPPIUTRHLR63CI0K3O","","545","img/animal4.png","76","546","3","1","3","1,0.5,0,0,1,0.5,0.5,0,1",""
"","html-keyboard-response","260","142335","0.0-260.0","37Z929RLGAUCV9YE5JBCJ9XZTHOTSS","A2JWAD9JQNA5ON","329E6HTMSWO7MPPIUTRHLR63CI0K3O","","null","<img src=""img/animal4.png"" style=""width:200px; border:14px solid green;"">","null","","","","","",""
"","image-keyboard-response","261","142964","0.0-261.0","37Z929RLGAUCV9YE5JBCJ9XZTHOTSS","A2JWAD9JQNA5ON","329E6HTMSWO7MPPIUTRHLR63CI0K3O","","630","img/animal3.png","74","630","1","1","1","1,0.5,0,0,1,0.5,0.5,0,1",""
"","html-keyboard-response","262","143265","0.0-262.0","37Z929RLGAUCV9YE5JBCJ9XZTHOTSS","A2JWAD9JQNA5ON","329E6HTMSWO7MPPIUTRHLR63CI0K3O","","null","<img src=""img/animal3.png"" style=""width:200px; border:14px solid green;"">","null","","","","","",""
"","image-keyboard-response","263","144013","0.0-263.0","37Z929RLGAUCV9YE5JBCJ9XZTHOTSS","A2JWAD9JQNA5ON","329E6HTMSWO7MPPIUTRHLR63CI0K3O","","748","img/animal6.png","75","748","2","1","2","1,0.5,0,0,1,0.5,0.5,0,1",""
"","html-keyboard-response","264","144314","0.0-264.0","37Z929RLGAUCV9YE5JBCJ9XZTHOTSS","A2JWAD9JQNA5ON","329E6HTMSWO7MPPIUTRHLR63CI0K3O","","null","<img src=""img/animal6.png"" style=""width:200px; border:14px solid green;"">","null","","","","","",""
"","image-keyboard-response","265","144824","0.0-265.0","37Z929RLGAUCV9YE5JBCJ9XZTHOTSS","A2JWAD9JQNA5ON","329E6HTMSWO7MPPIUTRHLR63CI0K3O","","509","img/animal4.png","76","509","3","1","3","1,0.5,0,0,1,0.5,0.5,0,1",""
"","html-keyboard-response","266","145124","0.0-266.0","37Z929RLGAUCV9YE5JBCJ9XZTHOTSS","A2JWAD9JQNA5ON","329E6HTMSWO7MPPIUTRHLR63CI0K3O","","null","<img src=""img/animal4.png"" style=""width:200px; border:14px solid green;"">","null","","","","","",""
"","image-keyboard-response","267","145754","0.0-267.0","37Z929RLGAUCV9YE5JBCJ9XZTHOTSS","A2JWAD9JQNA5ON","329E6HTMSWO7MPPIUTRHLR63CI0K3O","","629","img/animal6.png","75","630","2","1","2","1,0.5,0,0,1,0.5,0.5,0,1",""
"","html-keyboard-response","268","146056","0.0-268.0","37Z929RLGAUCV9YE5JBCJ9XZTHOTSS","A2JWAD9JQNA5ON","329E6HTMSWO7MPPIUTRHLR63CI0K3O","","null","<img src=""img/animal6.png"" style=""width:200px; border:14px solid green;"">","null","","","","","",""
"","image-keyboard-response","269","146593","0.0-269.0","37Z929RLGAUCV9YE5JBCJ9XZTHOTSS","A2JWAD9JQNA5ON","329E6HTMSWO7MPPIUTRHLR63CI0K3O","","538","img/animal3.png","74","538","1","1","1","1,0.5,0,0,1,0.5,0.5,0,1",""
"","html-keyboard-response","270","146895","0.0-270.0","37Z929RLGAUCV9YE5JBCJ9XZTHOTSS","A2JWAD9JQNA5ON","329E6HTMSWO7MPPIUTRHLR63CI0K3O","","null","<img src=""img/animal3.png"" style=""width:200px; border:14px solid green;"">","null","","","","","",""
"","image-keyboard-response","271","147472","0.0-271.0","37Z929RLGAUCV9YE5JBCJ9XZTHOTSS","A2JWAD9JQNA5ON","329E6HTMSWO7MPPIUTRHLR63CI0K3O","","576","img/animal6.png","75","577","2","1","2","1,0.5,0,0,1,0.5,0.5,0,1",""
"","html-keyboard-response","272","147774","0.0-272.0","37Z929RLGAUCV9YE5JBCJ9XZTHOTSS","A2JWAD9JQNA5ON","329E6HTMSWO7MPPIUTRHLR63CI0K3O","","null","<img src=""img/animal6.png"" style=""width:200px; border:14px solid green;"">","null","","","","","",""
"","image-keyboard-response","273","148334","0.0-273.0","37Z929RLGAUCV9YE5JBCJ9XZTHOTSS","A2JWAD9JQNA5ON","329E6HTMSWO7MPPIUTRHLR63CI0K3O","","559","img/animal6.png","75","559","2","1","2","1,0.5,0,0,1,0.5,0.5,0,1",""
"","html-keyboard-response","274","148634","0.0-274.0","37Z929RLGAUCV9YE5JBCJ9XZTHOTSS","A2JWAD9JQNA5ON","329E6HTMSWO7MPPIUTRHLR63CI0K3O","","null","<img src=""img/animal6.png"" style=""width:200px; border:14px solid green;"">","null","","","","","",""
"","image-keyboard-response","275","149218","0.0-275.0","37Z929RLGAUCV9YE5JBCJ9XZTHOTSS","A2JWAD9JQNA5ON","329E6HTMSWO7MPPIUTRHLR63CI0K3O","","583","img/animal4.png","76","584","3","1","3","1,0.5,0,0,1,0.5,0.5,0,1",""
"","html-keyboard-response","276","149519","0.0-276.0","37Z929RLGAUCV9YE5JBCJ9XZTHOTSS","A2JWAD9JQNA5ON","329E6HTMSWO7MPPIUTRHLR63CI0K3O","","null","<img src=""img/animal4.png"" style=""width:200px; border:14px solid green;"">","null","","","","","",""
"","image-keyboard-response","277","150141","0.0-277.0","37Z929RLGAUCV9YE5JBCJ9XZTHOTSS","A2JWAD9JQNA5ON","329E6HTMSWO7MPPIUTRHLR63CI0K3O","","621","img/animal3.png","74","622","1","1","1","1,0.5,0,0,1,0.5,0.5,0,1",""
"","html-keyboard-response","278","150443","0.0-278.0","37Z929RLGAUCV9YE5JBCJ9XZTHOTSS","A2JWAD9JQNA5ON","329E6HTMSWO7MPPIUTRHLR63CI0K3O","","null","<img src=""img/animal3.png"" style=""width:200px; border:14px solid green;"">","null","","","","","",""
"","image-keyboard-response","279","151454","0.0-279.0","37Z929RLGAUCV9YE5JBCJ9XZTHOTSS","A2JWAD9JQNA5ON","329E6HTMSWO7MPPIUTRHLR63CI0K3O","","1009","img/animal6.png","75","1010","2","1","2","1,0.5,0,0,1,0.5,0.5,0,1",""
"","html-keyboard-response","280","151754","0.0-280.0","37Z929RLGAUCV9YE5JBCJ9XZTHOTSS","A2JWAD9JQNA5ON","329E6HTMSWO7MPPIUTRHLR63CI0K3O","","null","<img src=""img/animal6.png"" style=""width:200px; border:14px solid green;"">","null","","","","","",""
"","image-keyboard-response","281","152182","0.0-281.0","37Z929RLGAUCV9YE5JBCJ9XZTHOTSS","A2JWAD9JQNA5ON","329E6HTMSWO7MPPIUTRHLR63CI0K3O","","427","img/animal6.png","75","427","2","1","2","1,0.5,0,0,1,0.5,0.5,0,1",""
"","html-keyboard-response","282","152483","0.0-282.0","37Z929RLGAUCV9YE5JBCJ9XZTHOTSS","A2JWAD9JQNA5ON","329E6HTMSWO7MPPIUTRHLR63CI0K3O","","null","<img src=""img/animal6.png"" style=""width:200px; border:14px solid green;"">","null","","","","","",""
"","image-keyboard-response","283","153104","0.0-283.0","37Z929RLGAUCV9YE5JBCJ9XZTHOTSS","A2JWAD9JQNA5ON","329E6HTMSWO7MPPIUTRHLR63CI0K3O","","621","img/animal3.png","74","621","1","1","1","1,0.5,0,0,1,0.5,0.5,0,1",""
"","html-keyboard-response","284","153404","0.0-284.0","37Z929RLGAUCV9YE5JBCJ9XZTHOTSS","A2JWAD9JQNA5ON","329E6HTMSWO7MPPIUTRHLR63CI0K3O","","null","<img src=""img/animal3.png"" style=""width:200px; border:14px solid green;"">","null","","","","","",""
"","image-keyboard-response","285","153944","0.0-285.0","37Z929RLGAUCV9YE5JBCJ9XZTHOTSS","A2JWAD9JQNA5ON","329E6HTMSWO7MPPIUTRHLR63CI0K3O","","539","img/animal6.png","75","539","2","1","2","1,0.5,0,0,1,0.5,0.5,0,1",""
"","html-keyboard-response","286","154244","0.0-286.0","37Z929RLGAUCV9YE5JBCJ9XZTHOTSS","A2JWAD9JQNA5ON","329E6HTMSWO7MPPIUTRHLR63CI0K3O","","null","<img src=""img/animal6.png"" style=""width:200px; border:14px solid green;"">","null","","","","","",""
"","image-keyboard-response","287","154784","0.0-287.0","37Z929RLGAUCV9YE5JBCJ9XZTHOTSS","A2JWAD9JQNA5ON","329E6HTMSWO7MPPIUTRHLR63CI0K3O","","539","img/animal3.png","74","540","1","1","1","1,0.5,0,0,1,0.5,0.5,0,1",""
"","html-keyboard-response","288","155085","0.0-288.0","37Z929RLGAUCV9YE5JBCJ9XZTHOTSS","A2JWAD9JQNA5ON","329E6HTMSWO7MPPIUTRHLR63CI0K3O","","null","<img src=""img/animal3.png"" style=""width:200px; border:14px solid green;"">","null","","","","","",""
"","image-keyboard-response","289","155564","0.0-289.0","37Z929RLGAUCV9YE5JBCJ9XZTHOTSS","A2JWAD9JQNA5ON","329E6HTMSWO7MPPIUTRHLR63CI0K3O","","479","img/animal3.png","74","479","1","1","1","1,0.5,0,0,1,0.5,0.5,0,1",""
"","html-keyboard-response","290","155865","0.0-290.0","37Z929RLGAUCV9YE5JBCJ9XZTHOTSS","A2JWAD9JQNA5ON","329E6HTMSWO7MPPIUTRHLR63CI0K3O","","null","<img src=""img/animal3.png"" style=""width:200px; border:14px solid green;"">","null","","","","","",""
"","image-keyboard-response","291","156254","0.0-291.0","37Z929RLGAUCV9YE5JBCJ9XZTHOTSS","A2JWAD9JQNA5ON","329E6HTMSWO7MPPIUTRHLR63CI0K3O","","389","img/animal3.png","74","389","1","1","1","1,0.5,0,0,1,0.5,0.5,0,1",""
"","html-keyboard-response","292","156555","0.0-292.0","37Z929RLGAUCV9YE5JBCJ9XZTHOTSS","A2JWAD9JQNA5ON","329E6HTMSWO7MPPIUTRHLR63CI0K3O","","null","<img src=""img/animal3.png"" style=""width:200px; border:14px solid green;"">","null","","","","","",""
"","image-keyboard-response","293","156944","0.0-293.0","37Z929RLGAUCV9YE5JBCJ9XZTHOTSS","A2JWAD9JQNA5ON","329E6HTMSWO7MPPIUTRHLR63CI0K3O","","389","img/animal3.png","74","389","1","1","1","1,0.5,0,0,1,0.5,0.5,0,1",""
"","html-keyboard-response","294","157245","0.0-294.0","37Z929RLGAUCV9YE5JBCJ9XZTHOTSS","A2JWAD9JQNA5ON","329E6HTMSWO7MPPIUTRHLR63CI0K3O","","null","<img src=""img/animal3.png"" style=""width:200px; border:14px solid green;"">","null","","","","","",""
"","image-keyboard-response","295","158046","0.0-295.0","37Z929RLGAUCV9YE5JBCJ9XZTHOTSS","A2JWAD9JQNA5ON","329E6HTMSWO7MPPIUTRHLR63CI0K3O","","801","img/animal4.png","76","801","3","1","3","1,0.5,0,0,1,0.5,0.5,0,1",""
"","html-keyboard-response","296","158347","0.0-296.0","37Z929RLGAUCV9YE5JBCJ9XZTHOTSS","A2JWAD9JQNA5ON","329E6HTMSWO7MPPIUTRHLR63CI0K3O","","null","<img src=""img/animal4.png"" style=""width:200px; border:14px solid green;"">","null","","","","","",""
"","image-keyboard-response","297","159269","0.0-297.0","37Z929RLGAUCV9YE5JBCJ9XZTHOTSS","A2JWAD9JQNA5ON","329E6HTMSWO7MPPIUTRHLR63CI0K3O","","921","img/animal3.png","74","922","1","1","1","1,0.5,0,0,1,0.5,0.5,0,1",""
"","html-keyboard-response","298","159570","0.0-298.0","37Z929RLGAUCV9YE5JBCJ9XZTHOTSS","A2JWAD9JQNA5ON","329E6HTMSWO7MPPIUTRHLR63CI0K3O","","null","<img src=""img/animal3.png"" style=""width:200px; border:14px solid green;"">","null","","","","","",""
"","image-keyboard-response","299","160199","0.0-299.0","37Z929RLGAUCV9YE5JBCJ9XZTHOTSS","A2JWAD9JQNA5ON","329E6HTMSWO7MPPIUTRHLR63CI0K3O","","628","img/animal4.png","76","628","3","1","3","1,0.5,0,0,1,0.5,0.5,0,1",""
"","html-keyboard-response","300","160500","0.0-300.0","37Z929RLGAUCV9YE5JBCJ9XZTHOTSS","A2JWAD9JQNA5ON","329E6HTMSWO7MPPIUTRHLR63CI0K3O","","null","<img src=""img/animal4.png"" style=""width:200px; border:14px solid green;"">","null","","","","","",""
"","image-keyboard-response","301","160933","0.0-301.0","37Z929RLGAUCV9YE5JBCJ9XZTHOTSS","A2JWAD9JQNA5ON","329E6HTMSWO7MPPIUTRHLR63CI0K3O","","432","img/animal3.png","74","433","1","1","1","1,0.5,0,0,1,0.5,0.5,0,1",""
"","html-keyboard-response","302","161234","0.0-302.0","37Z929RLGAUCV9YE5JBCJ9XZTHOTSS","A2JWAD9JQNA5ON","329E6HTMSWO7MPPIUTRHLR63CI0K3O","","null","<img src=""img/animal3.png"" style=""width:200px; border:14px solid green;"">","null","","","","","",""
"","image-keyboard-response","303","161775","0.0-303.0","37Z929RLGAUCV9YE5JBCJ9XZTHOTSS","A2JWAD9JQNA5ON","329E6HTMSWO7MPPIUTRHLR63CI0K3O","","540","img/animal6.png","75","540","2","1","2","1,0.5,0,0,1,0.5,0.5,0,1",""
"","html-keyboard-response","304","162075","0.0-304.0","37Z929RLGAUCV9YE5JBCJ9XZTHOTSS","A2JWAD9JQNA5ON","329E6HTMSWO7MPPIUTRHLR63CI0K3O","","null","<img src=""img/animal6.png"" style=""width:200px; border:14px solid green;"">","null","","","","","",""
"","image-keyboard-response","305","162614","0.0-305.0","37Z929RLGAUCV9YE5JBCJ9XZTHOTSS","A2JWAD9JQNA5ON","329E6HTMSWO7MPPIUTRHLR63CI0K3O","","538","img/animal3.png","74","538","1","1","1","1,0.5,0,0,1,0.5,0.5,0,1",""
"","html-keyboard-response","306","162915","0.0-306.0","37Z929RLGAUCV9YE5JBCJ9XZTHOTSS","A2JWAD9JQNA5ON","329E6HTMSWO7MPPIUTRHLR63CI0K3O","","null","<img src=""img/animal3.png"" style=""width:200px; border:14px solid green;"">","null","","","","","",""
"","image-keyboard-response","307","163829","0.0-307.0","37Z929RLGAUCV9YE5JBCJ9XZTHOTSS","A2JWAD9JQNA5ON","329E6HTMSWO7MPPIUTRHLR63CI0K3O","","913","img/animal6.png","75","913","2","1","2","1,0.5,0,0,1,0.5,0.5,0,1",""
"","html-keyboard-response","308","164131","0.0-308.0","37Z929RLGAUCV9YE5JBCJ9XZTHOTSS","A2JWAD9JQNA5ON","329E6HTMSWO7MPPIUTRHLR63CI0K3O","","null","<img src=""img/animal6.png"" style=""width:200px; border:14px solid green;"">","null","","","","","",""
"","image-keyboard-response","309","164624","0.0-309.0","37Z929RLGAUCV9YE5JBCJ9XZTHOTSS","A2JWAD9JQNA5ON","329E6HTMSWO7MPPIUTRHLR63CI0K3O","","494","img/animal3.png","74","494","1","1","1","1,0.5,0,0,1,0.5,0.5,0,1",""
"","html-keyboard-response","310","164925","0.0-310.0","37Z929RLGAUCV9YE5JBCJ9XZTHOTSS","A2JWAD9JQNA5ON","329E6HTMSWO7MPPIUTRHLR63CI0K3O","","null","<img src=""img/animal3.png"" style=""width:200px; border:14px solid green;"">","null","","","","","",""
"","image-keyboard-response","311","165344","0.0-311.0","37Z929RLGAUCV9YE5JBCJ9XZTHOTSS","A2JWAD9JQNA5ON","329E6HTMSWO7MPPIUTRHLR63CI0K3O","","418","img/animal3.png","74","419","1","1","1","1,0.5,0,0,1,0.5,0.5,0,1",""
"","html-keyboard-response","312","165645","0.0-312.0","37Z929RLGAUCV9YE5JBCJ9XZTHOTSS","A2JWAD9JQNA5ON","329E6HTMSWO7MPPIUTRHLR63CI0K3O","","null","<img src=""img/animal3.png"" style=""width:200px; border:14px solid green;"">","null","","","","","",""
"","image-keyboard-response","313","166124","0.0-313.0","37Z929RLGAUCV9YE5JBCJ9XZTHOTSS","A2JWAD9JQNA5ON","329E6HTMSWO7MPPIUTRHLR63CI0K3O","","478","img/animal3.png","74","479","1","1","1","1,0.5,0,0,1,0.5,0.5,0,1",""
"","html-keyboard-response","314","166425","0.0-314.0","37Z929RLGAUCV9YE5JBCJ9XZTHOTSS","A2JWAD9JQNA5ON","329E6HTMSWO7MPPIUTRHLR63CI0K3O","","null","<img src=""img/animal3.png"" style=""width:200px; border:14px solid green;"">","null","","","","","",""
"","image-keyboard-response","315","167099","0.0-315.0","37Z929RLGAUCV9YE5JBCJ9XZTHOTSS","A2JWAD9JQNA5ON","329E6HTMSWO7MPPIUTRHLR63CI0K3O","","674","img/animal4.png","76","674","3","1","3","1,0.5,0,0,1,0.5,0.5,0,1",""
"","html-keyboard-response","316","167400","0.0-316.0","37Z929RLGAUCV9YE5JBCJ9XZTHOTSS","A2JWAD9JQNA5ON","329E6HTMSWO7MPPIUTRHLR63CI0K3O","","null","<img src=""img/animal4.png"" style=""width:200px; border:14px solid green;"">","null","","","","","",""
"","image-keyboard-response","317","167880","0.0-317.0","37Z929RLGAUCV9YE5JBCJ9XZTHOTSS","A2JWAD9JQNA5ON","329E6HTMSWO7MPPIUTRHLR63CI0K3O","","479","img/animal4.png","76","479","3","1","3","1,0.5,0,0,1,0.5,0.5,0,1",""
"","html-keyboard-response","318","168180","0.0-318.0","37Z929RLGAUCV9YE5JBCJ9XZTHOTSS","A2JWAD9JQNA5ON","329E6HTMSWO7MPPIUTRHLR63CI0K3O","","null","<img src=""img/animal4.png"" style=""width:200px; border:14px solid green;"">","null","","","","","",""
"","image-keyboard-response","319","168749","0.0-319.0","37Z929RLGAUCV9YE5JBCJ9XZTHOTSS","A2JWAD9JQNA5ON","329E6HTMSWO7MPPIUTRHLR63CI0K3O","","568","img/animal3.png","74","568","1","1","1","1,0.5,0,0,1,0.5,0.5,0,1",""
"","html-keyboard-response","320","169049","0.0-320.0","37Z929RLGAUCV9YE5JBCJ9XZTHOTSS","A2JWAD9JQNA5ON","329E6HTMSWO7MPPIUTRHLR63CI0K3O","","null","<img src=""img/animal3.png"" style=""width:200px; border:14px solid green;"">","null","","","","","",""
"","image-keyboard-response","321","169446","0.0-321.0","37Z929RLGAUCV9YE5JBCJ9XZTHOTSS","A2JWAD9JQNA5ON","329E6HTMSWO7MPPIUTRHLR63CI0K3O","","395","img/animal3.png","74","396","1","1","1","1,0.5,0,0,1,0.5,0.5,0,1",""
"","html-keyboard-response","322","169748","0.0-322.0","37Z929RLGAUCV9YE5JBCJ9XZTHOTSS","A2JWAD9JQNA5ON","329E6HTMSWO7MPPIUTRHLR63CI0K3O","","null","<img src=""img/animal3.png"" style=""width:200px; border:14px solid green;"">","null","","","","","",""
"","image-keyboard-response","323","170414","0.0-323.0","37Z929RLGAUCV9YE5JBCJ9XZTHOTSS","A2JWAD9JQNA5ON","329E6HTMSWO7MPPIUTRHLR63CI0K3O","","665","img/animal4.png","76","667","3","1","3","1,0.5,0,0,1,0.5,0.5,0,1",""
"","html-keyboard-response","324","170714","0.0-324.0","37Z929RLGAUCV9YE5JBCJ9XZTHOTSS","A2JWAD9JQNA5ON","329E6HTMSWO7MPPIUTRHLR63CI0K3O","","null","<img src=""img/animal4.png"" style=""width:200px; border:14px solid green;"">","null","","","","","",""
"","image-keyboard-response","325","171246","0.0-325.0","37Z929RLGAUCV9YE5JBCJ9XZTHOTSS","A2JWAD9JQNA5ON","329E6HTMSWO7MPPIUTRHLR63CI0K3O","","532","img/animal4.png","76","533","3","1","3","1,0.5,0,0,1,0.5,0.5,0,1",""
"","html-keyboard-response","326","171548","0.0-326.0","37Z929RLGAUCV9YE5JBCJ9XZTHOTSS","A2JWAD9JQNA5ON","329E6HTMSWO7MPPIUTRHLR63CI0K3O","","null","<img src=""img/animal4.png"" style=""width:200px; border:14px solid green;"">","null","","","","","",""
"","image-keyboard-response","327","172132","0.0-327.0","37Z929RLGAUCV9YE5JBCJ9XZTHOTSS","A2JWAD9JQNA5ON","329E6HTMSWO7MPPIUTRHLR63CI0K3O","","582","img/animal6.png","75","583","2","1","2","1,0.5,0,0,1,0.5,0.5,0,1",""
"","html-keyboard-response","328","172434","0.0-328.0","37Z929RLGAUCV9YE5JBCJ9XZTHOTSS","A2JWAD9JQNA5ON","329E6HTMSWO7MPPIUTRHLR63CI0K3O","","null","<img src=""img/animal6.png"" style=""width:200px; border:14px solid green;"">","null","","","","","",""
"","image-keyboard-response","329","173069","0.0-329.0","37Z929RLGAUCV9YE5JBCJ9XZTHOTSS","A2JWAD9JQNA5ON","329E6HTMSWO7MPPIUTRHLR63CI0K3O","","635","img/animal3.png","74","636","1","1","1","1,0.5,0,0,1,0.5,0.5,0,1",""
"","html-keyboard-response","330","173370","0.0-330.0","37Z929RLGAUCV9YE5JBCJ9XZTHOTSS","A2JWAD9JQNA5ON","329E6HTMSWO7MPPIUTRHLR63CI0K3O","","null","<img src=""img/animal3.png"" style=""width:200px; border:14px solid green;"">","null","","","","","",""
"","image-keyboard-response","331","173804","0.0-331.0","37Z929RLGAUCV9YE5JBCJ9XZTHOTSS","A2JWAD9JQNA5ON","329E6HTMSWO7MPPIUTRHLR63CI0K3O","","433","img/animal3.png","74","434","1","1","1","1,0.5,0,0,1,0.5,0.5,0,1",""
"","html-keyboard-response","332","174105","0.0-332.0","37Z929RLGAUCV9YE5JBCJ9XZTHOTSS","A2JWAD9JQNA5ON","329E6HTMSWO7MPPIUTRHLR63CI0K3O","","null","<img src=""img/animal3.png"" style=""width:200px; border:14px solid green;"">","null","","","","","",""
"","image-keyboard-response","333","174756","0.0-333.0","37Z929RLGAUCV9YE5JBCJ9XZTHOTSS","A2JWAD9JQNA5ON","329E6HTMSWO7MPPIUTRHLR63CI0K3O","","650","img/animal6.png","75","651","2","1","2","1,0.5,0,0,1,0.5,0.5,0,1",""
"","html-keyboard-response","334","175059","0.0-334.0","37Z929RLGAUCV9YE5JBCJ9XZTHOTSS","A2JWAD9JQNA5ON","329E6HTMSWO7MPPIUTRHLR63CI0K3O","","null","<img src=""img/animal6.png"" style=""width:200px; border:14px solid green;"">","null","","","","","",""
"","image-keyboard-response","335","175499","0.0-335.0","37Z929RLGAUCV9YE5JBCJ9XZTHOTSS","A2JWAD9JQNA5ON","329E6HTMSWO7MPPIUTRHLR63CI0K3O","","440","img/animal6.png","75","440","2","1","2","1,0.5,0,0,1,0.5,0.5,0,1",""
"","html-keyboard-response","336","175804","0.0-336.0","37Z929RLGAUCV9YE5JBCJ9XZTHOTSS","A2JWAD9JQNA5ON","329E6HTMSWO7MPPIUTRHLR63CI0K3O","","null","<img src=""img/animal6.png"" style=""width:200px; border:14px solid green;"">","null","","","","","",""
"","image-keyboard-response","337","176354","0.0-337.0","37Z929RLGAUCV9YE5JBCJ9XZTHOTSS","A2JWAD9JQNA5ON","329E6HTMSWO7MPPIUTRHLR63CI0K3O","","549","img/animal3.png","74","549","1","1","1","1,0.5,0,0,1,0.5,0.5,0,1",""
"","html-keyboard-response","338","176656","0.0-338.0","37Z929RLGAUCV9YE5JBCJ9XZTHOTSS","A2JWAD9JQNA5ON","329E6HTMSWO7MPPIUTRHLR63CI0K3O","","null","<img src=""img/animal3.png"" style=""width:200px; border:14px solid green;"">","null","","","","","",""
"","image-keyboard-response","339","177382","0.0-339.0","37Z929RLGAUCV9YE5JBCJ9XZTHOTSS","A2JWAD9JQNA5ON","329E6HTMSWO7MPPIUTRHLR63CI0K3O","","725","img/animal6.png","75","726","2","1","2","1,0.5,0,0,1,0.5,0.5,0,1",""
"","html-keyboard-response","340","177682","0.0-340.0","37Z929RLGAUCV9YE5JBCJ9XZTHOTSS","A2JWAD9JQNA5ON","329E6HTMSWO7MPPIUTRHLR63CI0K3O","","null","<img src=""img/animal6.png"" style=""width:200px; border:14px solid green;"">","null","","","","","",""
"","image-keyboard-response","341","178341","0.0-341.0","37Z929RLGAUCV9YE5JBCJ9XZTHOTSS","A2JWAD9JQNA5ON","329E6HTMSWO7MPPIUTRHLR63CI0K3O","","658","img/animal4.png","76","659","3","1","3","1,0.5,0,0,1,0.5,0.5,0,1",""
"","html-keyboard-response","342","178643","0.0-342.0","37Z929RLGAUCV9YE5JBCJ9XZTHOTSS","A2JWAD9JQNA5ON","329E6HTMSWO7MPPIUTRHLR63CI0K3O","","null","<img src=""img/animal4.png"" style=""width:200px; border:14px solid green;"">","null","","","","","",""
"","image-keyboard-response","343","179062","0.0-343.0","37Z929RLGAUCV9YE5JBCJ9XZTHOTSS","A2JWAD9JQNA5ON","329E6HTMSWO7MPPIUTRHLR63CI0K3O","","417","img/animal4.png","76","418","3","1","3","1,0.5,0,0,1,0.5,0.5,0,1",""
"","html-keyboard-response","344","179363","0.0-344.0","37Z929RLGAUCV9YE5JBCJ9XZTHOTSS","A2JWAD9JQNA5ON","329E6HTMSWO7MPPIUTRHLR63CI0K3O","","null","<img src=""img/animal4.png"" style=""width:200px; border:14px solid green;"">","null","","","","","",""
"","image-keyboard-response","345","180111","0.0-345.0","37Z929RLGAUCV9YE5JBCJ9XZTHOTSS","A2JWAD9JQNA5ON","329E6HTMSWO7MPPIUTRHLR63CI0K3O","","749","img/animal6.png","75","749","2","1","2","1,0.5,0,0,1,0.5,0.5,0,1",""
"","html-keyboard-response","346","180413","0.0-346.0","37Z929RLGAUCV9YE5JBCJ9XZTHOTSS","A2JWAD9JQNA5ON","329E6HTMSWO7MPPIUTRHLR63CI0K3O","","null","<img src=""img/animal6.png"" style=""width:200px; border:14px solid green;"">","null","","","","","",""
"","image-keyboard-response","347","180801","0.0-347.0","37Z929RLGAUCV9YE5JBCJ9XZTHOTSS","A2JWAD9JQNA5ON","329E6HTMSWO7MPPIUTRHLR63CI0K3O","","387","img/animal6.png","75","389","2","1","2","1,0.5,0,0,1,0.5,0.5,0,1",""
"","html-keyboard-response","348","181103","0.0-348.0","37Z929RLGAUCV9YE5JBCJ9XZTHOTSS","A2JWAD9JQNA5ON","329E6HTMSWO7MPPIUTRHLR63CI0K3O","","null","<img src=""img/animal6.png"" style=""width:200px; border:14px solid green;"">","null","","","","","",""
"","image-keyboard-response","349","181642","0.0-349.0","37Z929RLGAUCV9YE5JBCJ9XZTHOTSS","A2JWAD9JQNA5ON","329E6HTMSWO7MPPIUTRHLR63CI0K3O","","539","img/animal3.png","74","539","1","1","1","1,0.5,0,0,1,0.5,0.5,0,1",""
"","html-keyboard-response","350","181944","0.0-350.0","37Z929RLGAUCV9YE5JBCJ9XZTHOTSS","A2JWAD9JQNA5ON","329E6HTMSWO7MPPIUTRHLR63CI0K3O","","null","<img src=""img/animal3.png"" style=""width:200px; border:14px solid green;"">","null","","","","","",""
"","image-keyboard-response","351","182632","0.0-351.0","37Z929RLGAUCV9YE5JBCJ9XZTHOTSS","A2JWAD9JQNA5ON","329E6HTMSWO7MPPIUTRHLR63CI0K3O","","688","img/animal4.png","76","688","3","1","3","1,0.5,0,0,1,0.5,0.5,0,1",""
"","html-keyboard-response","352","182932","0.0-352.0","37Z929RLGAUCV9YE5JBCJ9XZTHOTSS","A2JWAD9JQNA5ON","329E6HTMSWO7MPPIUTRHLR63CI0K3O","","null","<img src=""img/animal4.png"" style=""width:200px; border:14px solid green;"">","null","","","","","",""
"","image-keyboard-response","353","183479","0.0-353.0","37Z929RLGAUCV9YE5JBCJ9XZTHOTSS","A2JWAD9JQNA5ON","329E6HTMSWO7MPPIUTRHLR63CI0K3O","","546","img/animal6.png","75","547","2","1","2","1,0.5,0,0,1,0.5,0.5,0,1",""
"","html-keyboard-response","354","183780","0.0-354.0","37Z929RLGAUCV9YE5JBCJ9XZTHOTSS","A2JWAD9JQNA5ON","329E6HTMSWO7MPPIUTRHLR63CI0K3O","","null","<img src=""img/animal6.png"" style=""width:200px; border:14px solid green;"">","null","","","","","",""
"","image-keyboard-response","355","184282","0.0-355.0","37Z929RLGAUCV9YE5JBCJ9XZTHOTSS","A2JWAD9JQNA5ON","329E6HTMSWO7MPPIUTRHLR63CI0K3O","","501","img/animal3.png","74","501","1","1","1","1,0.5,0,0,1,0.5,0.5,0,1",""
"","html-keyboard-response","356","184583","0.0-356.0","37Z929RLGAUCV9YE5JBCJ9XZTHOTSS","A2JWAD9JQNA5ON","329E6HTMSWO7MPPIUTRHLR63CI0K3O","","null","<img src=""img/animal3.png"" style=""width:200px; border:14px solid green;"">","null","","","","","",""
"","image-keyboard-response","357","185287","0.0-357.0","37Z929RLGAUCV9YE5JBCJ9XZTHOTSS","A2JWAD9JQNA5ON","329E6HTMSWO7MPPIUTRHLR63CI0K3O","","703","img/animal4.png","76","703","3","1","3","1,0.5,0,0,1,0.5,0.5,0,1",""
"","html-keyboard-response","358","185588","0.0-358.0","37Z929RLGAUCV9YE5JBCJ9XZTHOTSS","A2JWAD9JQNA5ON","329E6HTMSWO7MPPIUTRHLR63CI0K3O","","null","<img src=""img/animal4.png"" style=""width:200px; border:14px solid green;"">","null","","","","","",""
"","image-keyboard-response","359","186029","0.0-359.0","37Z929RLGAUCV9YE5JBCJ9XZTHOTSS","A2JWAD9JQNA5ON","329E6HTMSWO7MPPIUTRHLR63CI0K3O","","440","img/animal4.png","76","440","3","1","3","1,0.5,0,0,1,0.5,0.5,0,1",""
"","html-keyboard-response","360","186330","0.0-360.0","37Z929RLGAUCV9YE5JBCJ9XZTHOTSS","A2JWAD9JQNA5ON","329E6HTMSWO7MPPIUTRHLR63CI0K3O","","null","<img src=""img/animal4.png"" style=""width:200px; border:14px solid green;"">","null","","","","","",""
"","image-keyboard-response","361","186937","0.0-361.0","37Z929RLGAUCV9YE5JBCJ9XZTHOTSS","A2JWAD9JQNA5ON","329E6HTMSWO7MPPIUTRHLR63CI0K3O","","605","img/animal6.png","75","607","2","1","2","1,0.5,0,0,1,0.5,0.5,0,1",""
"","html-keyboard-response","362","187237","0.0-362.0","37Z929RLGAUCV9YE5JBCJ9XZTHOTSS","A2JWAD9JQNA5ON","329E6HTMSWO7MPPIUTRHLR63CI0K3O","","null","<img src=""img/animal6.png"" style=""width:200px; border:14px solid green;"">","null","","","","","",""
"","instructions","363","189855","0.0-363.0","37Z929RLGAUCV9YE5JBCJ9XZTHOTSS","A2JWAD9JQNA5ON","329E6HTMSWO7MPPIUTRHLR63CI0K3O","[{""page_index"":0,""viewing_time"":2616}]","2616","","","","","","","",""
"","survey-text","364","192827","0.0-364.0","37Z929RLGAUCV9YE5JBCJ9XZTHOTSS","A2JWAD9JQNA5ON","329E6HTMSWO7MPPIUTRHLR63CI0K3O","","2970","","","","","","","","{""Q0"":""A2JWAD9JQNA5ON""}"
