"success","trial_type","trial_index","time_elapsed","internal_node_id","assignmentID","mturkID","hitID","view_history","rt","stimulus","key_press","reactionTime","a","r","s","reward_cond","responses"
"true","fullscreen","0","3672","0.0-0.0","3NKQQ8O39ZRLTXUL8Y6XT6X1C37DUI","A2K0L9M1ZZO5C9","3KVQ0UJWPX71V463XQYDOZYIDLRW5D","","","","","","","","","",""
"","instructions","1","119124","0.0-1.0","3NKQQ8O39ZRLTXUL8Y6XT6X1C37DUI","A2K0L9M1ZZO5C9","3KVQ0UJWPX71V463XQYDOZYIDLRW5D","[{""page_index"":0,""viewing_time"":3199.0999999940395},{""page_index"":1,""viewing_time"":4818.70000000298},{""page_index"":2,""viewing_time"":5458.5},{""page_index"":3,""viewing_time"":84802.59999999404},{""page_index"":4,""viewing_time"":6108.20000000298},{""page_index"":5,""viewing_time"":5537.79999999702},{""page_index"":6,""viewing_time"":3972},{""page_index"":7,""viewing_time"":1553.2000000029802}]","115450.79999999702","","","","","","","",""
"","image-keyboard-response","2","119883","0.0-2.0","3NKQQ8O39ZRLTXUL8Y6XT6X1C37DUI","A2K0L9M1ZZO5C9","3KVQ0UJWPX71V463XQYDOZYIDLRW5D","","757.9000000059605","img/animal5.png","74","759.2000000029802","1","1","1","1,0.7,0,1,0.7,0,0.7,0,1",""
"","html-keyboard-response","3","120186","0.0-3.0","3NKQQ8O39ZRLTXUL8Y6XT6X1C37DUI","A2K0L9M1ZZO5C9","3KVQ0UJWPX71V463XQYDOZYIDLRW5D","","null","<img src=""img/animal5.png"" style=""width:200px; border:14px solid green;"">","null","","","","","",""
"","image-keyboard-response","4","121519","0.0-4.0","3NKQQ8O39ZRLTXUL8Y6XT6X1C37DUI","A2K0L9M1ZZO5C9","3KVQ0UJWPX71V463XQYDOZYIDLRW5D","","1332.2000000029802","img/animal5.png","74","1333.2999999970198","1","1","1","1,0.7,0,1,0.7,0,0.7,0,1",""
"","html-keyboard-response","5","121821","0.0-5.0","3NKQQ8O39ZRLTXUL8Y6XT6X1C37DUI","A2K0L9M1ZZO5C9","3KVQ0UJWPX71V463XQYDOZYIDLRW5D","","null","<img src=""img/animal5.png"" style=""width:200px; border:14px solid green;"">","null","","","","","",""
"","image-keyboard-response","6","122618","0.0-6.0","3NKQQ8O39ZRLTXUL8Y6XT6X1C37DUI","A2K0L9M1ZZO5C9","3KVQ0UJWPX71V463XQYDOZYIDLRW5D","","795.9000000059605","img/animal4.png","75","796.4000000059605","2","0","3","1,0.7,0,1,0.7,0,0.7,0,1",""
"","html-keyboard-response","7","122921","0.0-7.0","3NKQQ8O39ZRLTXUL8Y6XT6X1C37DUI","A2K0L9M1ZZO5C9","3KVQ0UJWPX71V463XQYDOZYIDLRW5D","","null","<img src=""img/animal4.png"" style=""width:200px;border:14px solid red;"">","null","","","","","",""
"","image-keyboard-response","8","123772","0.0-8.0","3NKQQ8O39ZRLTXUL8Y6XT6X1C37DUI","A2K0L9M1ZZO5C9","3KVQ0UJWPX71V463XQYDOZYIDLRW5D","","850.6000000089407","img/animal5.png","74","851.5999999940395","1","1","1","1,0.7,0,1,0.7,0,0.7,0,1",""
"","html-keyboard-response","9","124074","0.0-9.0","3NKQQ8O39ZRLTXUL8Y6XT6X1C37DUI","A2K0L9M1ZZO5C9","3KVQ0UJWPX71V463XQYDOZYIDLRW5D","","null","<img src=""img/animal5.png"" style=""width:200px; border:14px solid green;"">","null","","","","","",""
"","image-keyboard-response","10","124567","0.0-10.0","3NKQQ8O39ZRLTXUL8Y6XT6X1C37DUI","A2K0L9M1ZZO5C9","3KVQ0UJWPX71V463XQYDOZYIDLRW5D","","492.5","img/animal4.png","76","493.29999999701977","3","1","3","1,0.7,0,1,0.7,0,0.7,0,1",""
"","html-keyboard-response","11","124869","0.0-11.0","3NKQQ8O39ZRLTXUL8Y6XT6X1C37DUI","A2K0L9M1ZZO5C9","3KVQ0UJWPX71V463XQYDOZYIDLRW5D","","null","<img src=""img/animal4.png"" style=""width:200px; border:14px solid green;"">","null","","","","","",""
"","image-keyboard-response","12","125710","0.0-12.0","3NKQQ8O39ZRLTXUL8Y6XT6X1C37DUI","A2K0L9M1ZZO5C9","3KVQ0UJWPX71V463XQYDOZYIDLRW5D","","839.6000000089407","img/animal3.png","75","840.2999999970198","2","0","2","1,0.7,0,1,0.7,0,0.7,0,1",""
"","html-keyboard-response","13","126012","0.0-13.0","3NKQQ8O39ZRLTXUL8Y6XT6X1C37DUI","A2K0L9M1ZZO5C9","3KVQ0UJWPX71V463XQYDOZYIDLRW5D","","null","<img src=""img/animal3.png"" style=""width:200px;border:14px solid red;"">","null","","","","","",""
"","image-keyboard-response","14","127259","0.0-14.0","3NKQQ8O39ZRLTXUL8Y6XT6X1C37DUI","A2K0L9M1ZZO5C9","3KVQ0UJWPX71V463XQYDOZYIDLRW5D","","1245.6000000089407","img/animal5.png","74","1246.4000000059605","1","1","1","1,0.7,0,1,0.7,0,0.7,0,1",""
"","html-keyboard-response","15","127560","0.0-15.0","3NKQQ8O39ZRLTXUL8Y6XT6X1C37DUI","A2K0L9M1ZZO5C9","3KVQ0UJWPX71V463XQYDOZYIDLRW5D","","null","<img src=""img/animal5.png"" style=""width:200px; border:14px solid green;"">","null","","","","","",""
"","image-keyboard-response","16","128510","0.0-16.0","3NKQQ8O39ZRLTXUL8Y6XT6X1C37DUI","A2K0L9M1ZZO5C9","3KVQ0UJWPX71V463XQYDOZYIDLRW5D","","949.6999999880791","img/animal3.png","75","950.3999999910593","2","0","2","1,0.7,0,1,0.7,0,0.7,0,1",""
"","html-keyboard-response","17","128813","0.0-17.0","3NKQQ8O39ZRLTXUL8Y6XT6X1C37DUI","A2K0L9M1ZZO5C9","3KVQ0UJWPX71V463XQYDOZYIDLRW5D","","null","<img src=""img/animal3.png"" style=""width:200px;border:14px solid red;"">","null","","","","","",""
"","image-keyboard-response","18","129473","0.0-18.0","3NKQQ8O39ZRLTXUL8Y6XT6X1C37DUI","A2K0L9M1ZZO5C9","3KVQ0UJWPX71V463XQYDOZYIDLRW5D","","659.5","img/animal4.png","76","660.2999999970198","3","1","3","1,0.7,0,1,0.7,0,0.7,0,1",""
"","html-keyboard-response","19","129774","0.0-19.0","3NKQQ8O39ZRLTXUL8Y6XT6X1C37DUI","A2K0L9M1ZZO5C9","3KVQ0UJWPX71V463XQYDOZYIDLRW5D","","null","<img src=""img/animal4.png"" style=""width:200px; border:14px solid green;"">","null","","","","","",""
"","image-keyboard-response","20","130733","0.0-20.0","3NKQQ8O39ZRLTXUL8Y6XT6X1C37DUI","A2K0L9M1ZZO5C9","3KVQ0UJWPX71V463XQYDOZYIDLRW5D","","957.2999999970198","img/animal3.png","76","958","3","0","2","1,0.7,0,1,0.7,0,0.7,0,1",""
"","html-keyboard-response","21","131034","0.0-21.0","3NKQQ8O39ZRLTXUL8Y6XT6X1C37DUI","A2K0L9M1ZZO5C9","3KVQ0UJWPX71V463XQYDOZYIDLRW5D","","null","<img src=""img/animal3.png"" style=""width:200px;border:14px solid red;"">","null","","","","","",""
"","image-keyboard-response","22","132519","0.0-22.0","3NKQQ8O39ZRLTXUL8Y6XT6X1C37DUI","A2K0L9M1ZZO5C9","3KVQ0UJWPX71V463XQYDOZYIDLRW5D","","1483.8999999910593","img/animal3.png","74","1484.7999999970198","1","1","2","1,0.7,0,1,0.7,0,0.7,0,1",""
"","html-keyboard-response","23","132821","0.0-23.0","3NKQQ8O39ZRLTXUL8Y6XT6X1C37DUI","A2K0L9M1ZZO5C9","3KVQ0UJWPX71V463XQYDOZYIDLRW5D","","null","<img src=""img/animal3.png"" style=""width:200px; border:14px solid green;"">","null","","","","","",""
"","image-keyboard-response","24","134374","0.0-24.0","3NKQQ8O39ZRLTXUL8Y6XT6X1C37DUI","A2K0L9M1ZZO5C9","3KVQ0UJWPX71V463XQYDOZYIDLRW5D","","1551.4000000059605","img/animal3.png","74","1552","1","1","2","1,0.7,0,1,0.7,0,0.7,0,1",""
"","html-keyboard-response","25","134675","0.0-25.0","3NKQQ8O39ZRLTXUL8Y6XT6X1C37DUI","A2K0L9M1ZZO5C9","3KVQ0UJWPX71V463XQYDOZYIDLRW5D","","null","<img src=""img/animal3.png"" style=""width:200px; border:14px solid green;"">","null","","","","","",""
"","image-keyboard-response","26","135158","0.0-26.0","3NKQQ8O39ZRLTXUL8Y6XT6X1C37DUI","A2K0L9M1ZZO5C9","3KVQ0UJWPX71V463XQYDOZYIDLRW5D","","482.19999998807907","img/animal5.png","74","482.8999999910593","1","1","1","1,0.7,0,1,0.7,0,0.7,0,1",""
"","html-keyboard-response","27","135460","0.0-27.0","3NKQQ8O39ZRLTXUL8Y6XT6X1C37DUI","A2K0L9M1ZZO5C9","3KVQ0UJWPX71V463XQYDOZYIDLRW5D","","null","<img src=""img/animal5.png"" style=""width:200px; border:14px solid green;"">","null","","","","","",""
"","image-keyboard-response","28","136314","0.0-28.0","3NKQQ8O39ZRLTXUL8Y6XT6X1C37DUI","A2K0L9M1ZZO5C9","3KVQ0UJWPX71V463XQYDOZYIDLRW5D","","852.6999999880791","img/animal4.png","76","853.3999999910593","3","1","3","1,0.7,0,1,0.7,0,0.7,0,1",""
"","html-keyboard-response","29","136616","0.0-29.0","3NKQQ8O39ZRLTXUL8Y6XT6X1C37DUI","A2K0L9M1ZZO5C9","3KVQ0UJWPX71V463XQYDOZYIDLRW5D","","null","<img src=""img/animal4.png"" style=""width:200px; border:14px solid green;"">","null","","","","","",""
"","image-keyboard-response","30","137278","0.0-30.0","3NKQQ8O39ZRLTXUL8Y6XT6X1C37DUI","A2K0L9M1ZZO5C9","3KVQ0UJWPX71V463XQYDOZYIDLRW5D","","661.1999999880791","img/animal5.png","74","662.1000000089407","1","1","1","1,0.7,0,1,0.7,0,0.7,0,1",""
"","html-keyboard-response","31","137591","0.0-31.0","3NKQQ8O39ZRLTXUL8Y6XT6X1C37DUI","A2K0L9M1ZZO5C9","3KVQ0UJWPX71V463XQYDOZYIDLRW5D","","null","<img src=""img/animal5.png"" style=""width:200px; border:14px solid green;"">","null","","","","","",""
"","image-keyboard-response","32","138184","0.0-32.0","3NKQQ8O39ZRLTXUL8Y6XT6X1C37DUI","A2K0L9M1ZZO5C9","3KVQ0UJWPX71V463XQYDOZYIDLRW5D","","592.2999999970198","img/animal4.png","76","593.1000000089407","3","1","3","1,0.7,0,1,0.7,0,0.7,0,1",""
"","html-keyboard-response","33","138487","0.0-33.0","3NKQQ8O39ZRLTXUL8Y6XT6X1C37DUI","A2K0L9M1ZZO5C9","3KVQ0UJWPX71V463XQYDOZYIDLRW5D","","null","<img src=""img/animal4.png"" style=""width:200px; border:14px solid green;"">","null","","","","","",""
"","image-keyboard-response","34","138894","0.0-34.0","3NKQQ8O39ZRLTXUL8Y6XT6X1C37DUI","A2K0L9M1ZZO5C9","3KVQ0UJWPX71V463XQYDOZYIDLRW5D","","406.40000000596046","img/animal4.png","76","407","3","1","3","1,0.7,0,1,0.7,0,0.7,0,1",""
"","html-keyboard-response","35","139196","0.0-35.0","3NKQQ8O39ZRLTXUL8Y6XT6X1C37DUI","A2K0L9M1ZZO5C9","3KVQ0UJWPX71V463XQYDOZYIDLRW5D","","null","<img src=""img/animal4.png"" style=""width:200px; border:14px solid green;"">","null","","","","","",""
"","image-keyboard-response","36","139626","0.0-36.0","3NKQQ8O39ZRLTXUL8Y6XT6X1C37DUI","A2K0L9M1ZZO5C9","3KVQ0UJWPX71V463XQYDOZYIDLRW5D","","429.59999999403954","img/animal4.png","76","430.5","3","1","3","1,0.7,0,1,0.7,0,0.7,0,1",""
"","html-keyboard-response","37","139928","0.0-37.0","3NKQQ8O39ZRLTXUL8Y6XT6X1C37DUI","A2K0L9M1ZZO5C9","3KVQ0UJWPX71V463XQYDOZYIDLRW5D","","null","<img src=""img/animal4.png"" style=""width:200px; border:14px solid green;"">","null","","","","","",""
"","image-keyboard-response","38","140268","0.0-38.0","3NKQQ8O39ZRLTXUL8Y6XT6X1C37DUI","A2K0L9M1ZZO5C9","3KVQ0UJWPX71V463XQYDOZYIDLRW5D","","338.20000000298023","img/animal4.png","76","339.6000000089407","3","1","3","1,0.7,0,1,0.7,0,0.7,0,1",""
"","html-keyboard-response","39","140569","0.0-39.0","3NKQQ8O39ZRLTXUL8Y6XT6X1C37DUI","A2K0L9M1ZZO5C9","3KVQ0UJWPX71V463XQYDOZYIDLRW5D","","null","<img src=""img/animal4.png"" style=""width:200px; border:14px solid green;"">","null","","","","","",""
"","image-keyboard-response","40","141024","0.0-40.0","3NKQQ8O39ZRLTXUL8Y6XT6X1C37DUI","A2K0L9M1ZZO5C9","3KVQ0UJWPX71V463XQYDOZYIDLRW5D","","454","img/animal3.png","76","454.6000000089407","3","0","2","1,0.7,0,1,0.7,0,0.7,0,1",""
"","html-keyboard-response","41","141326","0.0-41.0","3NKQQ8O39ZRLTXUL8Y6XT6X1C37DUI","A2K0L9M1ZZO5C9","3KVQ0UJWPX71V463XQYDOZYIDLRW5D","","null","<img src=""img/animal3.png"" style=""width:200px;border:14px solid red;"">","null","","","","","",""
"","image-keyboard-response","42","144201","0.0-42.0","3NKQQ8O39ZRLTXUL8Y6XT6X1C37DUI","A2K0L9M1ZZO5C9","3KVQ0UJWPX71V463XQYDOZYIDLRW5D","","2873.7999999970198","img/animal5.png","74","2874.8999999910593","1","1","1","1,0.7,0,1,0.7,0,0.7,0,1",""
"","html-keyboard-response","43","144503","0.0-43.0","3NKQQ8O39ZRLTXUL8Y6XT6X1C37DUI","A2K0L9M1ZZO5C9","3KVQ0UJWPX71V463XQYDOZYIDLRW5D","","null","<img src=""img/animal5.png"" style=""width:200px; border:14px solid green;"">","null","","","","","",""
"","image-keyboard-response","44","145274","0.0-44.0","3NKQQ8O39ZRLTXUL8Y6XT6X1C37DUI","A2K0L9M1ZZO5C9","3KVQ0UJWPX71V463XQYDOZYIDLRW5D","","769.5999999940395","img/animal5.png","74","770.7999999970198","1","1","1","1,0.7,0,1,0.7,0,0.7,0,1",""
"","html-keyboard-response","45","145576","0.0-45.0","3NKQQ8O39ZRLTXUL8Y6XT6X1C37DUI","A2K0L9M1ZZO5C9","3KVQ0UJWPX71V463XQYDOZYIDLRW5D","","null","<img src=""img/animal5.png"" style=""width:200px; border:14px solid green;"">","null","","","","","",""
"","image-keyboard-response","46","146004","0.0-46.0","3NKQQ8O39ZRLTXUL8Y6XT6X1C37DUI","A2K0L9M1ZZO5C9","3KVQ0UJWPX71V463XQYDOZYIDLRW5D","","426.1000000089407","img/animal3.png","74","427","1","1","2","1,0.7,0,1,0.7,0,0.7,0,1",""
"","html-keyboard-response","47","146306","0.0-47.0","3NKQQ8O39ZRLTXUL8Y6XT6X1C37DUI","A2K0L9M1ZZO5C9","3KVQ0UJWPX71V463XQYDOZYIDLRW5D","","null","<img src=""img/animal3.png"" style=""width:200px; border:14px solid green;"">","null","","","","","",""
"","image-keyboard-response","48","147495","0.0-48.0","3NKQQ8O39ZRLTXUL8Y6XT6X1C37DUI","A2K0L9M1ZZO5C9","3KVQ0UJWPX71V463XQYDOZYIDLRW5D","","1188.2000000029802","img/animal5.png","74","1189.2999999970198","1","1","1","1,0.7,0,1,0.7,0,0.7,0,1",""
"","html-keyboard-response","49","147797","0.0-49.0","3NKQQ8O39ZRLTXUL8Y6XT6X1C37DUI","A2K0L9M1ZZO5C9","3KVQ0UJWPX71V463XQYDOZYIDLRW5D","","null","<img src=""img/animal5.png"" style=""width:200px; border:14px solid green;"">","null","","","","","",""
"","image-keyboard-response","50","148461","0.0-50.0","3NKQQ8O39ZRLTXUL8Y6XT6X1C37DUI","A2K0L9M1ZZO5C9","3KVQ0UJWPX71V463XQYDOZYIDLRW5D","","662.1999999880791","img/animal4.png","76","663.7000000029802","3","1","3","1,0.7,0,1,0.7,0,0.7,0,1",""
"","html-keyboard-response","51","148763","0.0-51.0","3NKQQ8O39ZRLTXUL8Y6XT6X1C37DUI","A2K0L9M1ZZO5C9","3KVQ0UJWPX71V463XQYDOZYIDLRW5D","","null","<img src=""img/animal4.png"" style=""width:200px; border:14px solid green;"">","null","","","","","",""
"","image-keyboard-response","52","149179","0.0-52.0","3NKQQ8O39ZRLTXUL8Y6XT6X1C37DUI","A2K0L9M1ZZO5C9","3KVQ0UJWPX71V463XQYDOZYIDLRW5D","","415.1000000089407","img/animal4.png","76","416","3","1","3","1,0.7,0,1,0.7,0,0.7,0,1",""
"","html-keyboard-response","53","149481","0.0-53.0","3NKQQ8O39ZRLTXUL8Y6XT6X1C37DUI","A2K0L9M1ZZO5C9","3KVQ0UJWPX71V463XQYDOZYIDLRW5D","","null","<img src=""img/animal4.png"" style=""width:200px; border:14px solid green;"">","null","","","","","",""
"","image-keyboard-response","54","149867","0.0-54.0","3NKQQ8O39ZRLTXUL8Y6XT6X1C37DUI","A2K0L9M1ZZO5C9","3KVQ0UJWPX71V463XQYDOZYIDLRW5D","","385.90000000596046","img/animal4.png","76","386.40000000596046","3","1","3","1,0.7,0,1,0.7,0,0.7,0,1",""
"","html-keyboard-response","55","150170","0.0-55.0","3NKQQ8O39ZRLTXUL8Y6XT6X1C37DUI","A2K0L9M1ZZO5C9","3KVQ0UJWPX71V463XQYDOZYIDLRW5D","","null","<img src=""img/animal4.png"" style=""width:200px; border:14px solid green;"">","null","","","","","",""
"","image-keyboard-response","56","150773","0.0-56.0","3NKQQ8O39ZRLTXUL8Y6XT6X1C37DUI","A2K0L9M1ZZO5C9","3KVQ0UJWPX71V463XQYDOZYIDLRW5D","","601.7999999970198","img/animal3.png","76","602.7999999970198","3","0","2","1,0.7,0,1,0.7,0,0.7,0,1",""
"","html-keyboard-response","57","151074","0.0-57.0","3NKQQ8O39ZRLTXUL8Y6XT6X1C37DUI","A2K0L9M1ZZO5C9","3KVQ0UJWPX71V463XQYDOZYIDLRW5D","","null","<img src=""img/animal3.png"" style=""width:200px;border:14px solid red;"">","null","","","","","",""
"","image-keyboard-response","58","153409","0.0-58.0","3NKQQ8O39ZRLTXUL8Y6XT6X1C37DUI","A2K0L9M1ZZO5C9","3KVQ0UJWPX71V463XQYDOZYIDLRW5D","","2333.3999999910593","img/animal5.png","74","2334.3999999910593","1","1","1","1,0.7,0,1,0.7,0,0.7,0,1",""
"","html-keyboard-response","59","153712","0.0-59.0","3NKQQ8O39ZRLTXUL8Y6XT6X1C37DUI","A2K0L9M1ZZO5C9","3KVQ0UJWPX71V463XQYDOZYIDLRW5D","","null","<img src=""img/animal5.png"" style=""width:200px; border:14px solid green;"">","null","","","","","",""
"","image-keyboard-response","60","154327","0.0-60.0","3NKQQ8O39ZRLTXUL8Y6XT6X1C37DUI","A2K0L9M1ZZO5C9","3KVQ0UJWPX71V463XQYDOZYIDLRW5D","","614.2999999970198","img/animal3.png","75","615.0999999940395","2","0","2","1,0.7,0,1,0.7,0,0.7,0,1",""
"","html-keyboard-response","61","154629","0.0-61.0","3NKQQ8O39ZRLTXUL8Y6XT6X1C37DUI","A2K0L9M1ZZO5C9","3KVQ0UJWPX71V463XQYDOZYIDLRW5D","","null","<img src=""img/animal3.png"" style=""width:200px;border:14px solid red;"">","null","","","","","",""
"","image-keyboard-response","62","155416","0.0-62.0","3NKQQ8O39ZRLTXUL8Y6XT6X1C37DUI","A2K0L9M1ZZO5C9","3KVQ0UJWPX71V463XQYDOZYIDLRW5D","","785.5999999940395","img/animal4.png","76","786.7000000029802","3","1","3","1,0.7,0,1,0.7,0,0.7,0,1",""
"","html-keyboard-response","63","155729","0.0-63.0","3NKQQ8O39ZRLTXUL8Y6XT6X1C37DUI","A2K0L9M1ZZO5C9","3KVQ0UJWPX71V463XQYDOZYIDLRW5D","","null","<img src=""img/animal4.png"" style=""width:200px; border:14px solid green;"">","null","","","","","",""
"","image-keyboard-response","64","156120","0.0-64.0","3NKQQ8O39ZRLTXUL8Y6XT6X1C37DUI","A2K0L9M1ZZO5C9","3KVQ0UJWPX71V463XQYDOZYIDLRW5D","","389.40000000596046","img/animal4.png","76","390.59999999403954","3","1","3","1,0.7,0,1,0.7,0,0.7,0,1",""
"","html-keyboard-response","65","156422","0.0-65.0","3NKQQ8O39ZRLTXUL8Y6XT6X1C37DUI","A2K0L9M1ZZO5C9","3KVQ0UJWPX71V463XQYDOZYIDLRW5D","","null","<img src=""img/animal4.png"" style=""width:200px; border:14px solid green;"">","null","","","","","",""
"","image-keyboard-response","66","156954","0.0-66.0","3NKQQ8O39ZRLTXUL8Y6XT6X1C37DUI","A2K0L9M1ZZO5C9","3KVQ0UJWPX71V463XQYDOZYIDLRW5D","","531.1999999880791","img/animal5.png","76","531.9000000059605","3","0","1","1,0.7,0,1,0.7,0,0.7,0,1",""
"","html-keyboard-response","67","157256","0.0-67.0","3NKQQ8O39ZRLTXUL8Y6XT6X1C37DUI","A2K0L9M1ZZO5C9","3KVQ0UJWPX71V463XQYDOZYIDLRW5D","","null","<img src=""img/animal5.png"" style=""width:200px;border:14px solid red;"">","null","","","","","",""
"","image-keyboard-response","68","158214","0.0-68.0","3NKQQ8O39ZRLTXUL8Y6XT6X1C37DUI","A2K0L9M1ZZO5C9","3KVQ0UJWPX71V463XQYDOZYIDLRW5D","","956.2999999970198","img/animal3.png","76","956.9000000059605","3","0","2","1,0.7,0,1,0.7,0,0.7,0,1",""
"","html-keyboard-response","69","158515","0.0-69.0","3NKQQ8O39ZRLTXUL8Y6XT6X1C37DUI","A2K0L9M1ZZO5C9","3KVQ0UJWPX71V463XQYDOZYIDLRW5D","","null","<img src=""img/animal3.png"" style=""width:200px;border:14px solid red;"">","null","","","","","",""
"","image-keyboard-response","70","160853","0.0-70.0","3NKQQ8O39ZRLTXUL8Y6XT6X1C37DUI","A2K0L9M1ZZO5C9","3KVQ0UJWPX71V463XQYDOZYIDLRW5D","","2336.5","img/animal3.png","74","2337.2999999970198","1","1","2","1,0.7,0,1,0.7,0,0.7,0,1",""
"","html-keyboard-response","71","161154","0.0-71.0","3NKQQ8O39ZRLTXUL8Y6XT6X1C37DUI","A2K0L9M1ZZO5C9","3KVQ0UJWPX71V463XQYDOZYIDLRW5D","","null","<img src=""img/animal3.png"" style=""width:200px; border:14px solid green;"">","null","","","","","",""
"","image-keyboard-response","72","161743","0.0-72.0","3NKQQ8O39ZRLTXUL8Y6XT6X1C37DUI","A2K0L9M1ZZO5C9","3KVQ0UJWPX71V463XQYDOZYIDLRW5D","","587.8000000119209","img/animal5.png","74","588.6999999880791","1","1","1","1,0.7,0,1,0.7,0,0.7,0,1",""
"","html-keyboard-response","73","162045","0.0-73.0","3NKQQ8O39ZRLTXUL8Y6XT6X1C37DUI","A2K0L9M1ZZO5C9","3KVQ0UJWPX71V463XQYDOZYIDLRW5D","","null","<img src=""img/animal5.png"" style=""width:200px; border:14px solid green;"">","null","","","","","",""
"","image-keyboard-response","74","162501","0.0-74.0","3NKQQ8O39ZRLTXUL8Y6XT6X1C37DUI","A2K0L9M1ZZO5C9","3KVQ0UJWPX71V463XQYDOZYIDLRW5D","","454.20000000298023","img/animal5.png","74","455.20000000298023","1","1","1","1,0.7,0,1,0.7,0,0.7,0,1",""
"","html-keyboard-response","75","162803","0.0-75.0","3NKQQ8O39ZRLTXUL8Y6XT6X1C37DUI","A2K0L9M1ZZO5C9","3KVQ0UJWPX71V463XQYDOZYIDLRW5D","","null","<img src=""img/animal5.png"" style=""width:200px; border:14px solid green;"">","null","","","","","",""
"","image-keyboard-response","76","163104","0.0-76.0","3NKQQ8O39ZRLTXUL8Y6XT6X1C37DUI","A2K0L9M1ZZO5C9","3KVQ0UJWPX71V463XQYDOZYIDLRW5D","","300","img/animal5.png","74","301","1","1","1","1,0.7,0,1,0.7,0,0.7,0,1",""
"","html-keyboard-response","77","163406","0.0-77.0","3NKQQ8O39ZRLTXUL8Y6XT6X1C37DUI","A2K0L9M1ZZO5C9","3KVQ0UJWPX71V463XQYDOZYIDLRW5D","","null","<img src=""img/animal5.png"" style=""width:200px; border:14px solid green;"">","null","","","","","",""
"","image-keyboard-response","78","163768","0.0-78.0","3NKQQ8O39ZRLTXUL8Y6XT6X1C37DUI","A2K0L9M1ZZO5C9","3KVQ0UJWPX71V463XQYDOZYIDLRW5D","","361.59999999403954","img/animal3.png","74","362.5","1","1","2","1,0.7,0,1,0.7,0,0.7,0,1",""
"","html-keyboard-response","79","164071","0.0-79.0","3NKQQ8O39ZRLTXUL8Y6XT6X1C37DUI","A2K0L9M1ZZO5C9","3KVQ0UJWPX71V463XQYDOZYIDLRW5D","","null","<img src=""img/animal3.png"" style=""width:200px; border:14px solid green;"">","null","","","","","",""
"","image-keyboard-response","80","164695","0.0-80.0","3NKQQ8O39ZRLTXUL8Y6XT6X1C37DUI","A2K0L9M1ZZO5C9","3KVQ0UJWPX71V463XQYDOZYIDLRW5D","","623.7000000029802","img/animal4.png","76","624.0999999940395","3","1","3","1,0.7,0,1,0.7,0,0.7,0,1",""
"","html-keyboard-response","81","164996","0.0-81.0","3NKQQ8O39ZRLTXUL8Y6XT6X1C37DUI","A2K0L9M1ZZO5C9","3KVQ0UJWPX71V463XQYDOZYIDLRW5D","","null","<img src=""img/animal4.png"" style=""width:200px; border:14px solid green;"">","null","","","","","",""
"","image-keyboard-response","82","165613","0.0-82.0","3NKQQ8O39ZRLTXUL8Y6XT6X1C37DUI","A2K0L9M1ZZO5C9","3KVQ0UJWPX71V463XQYDOZYIDLRW5D","","616.1000000089407","img/animal5.png","74","616.9000000059605","1","1","1","1,0.7,0,1,0.7,0,0.7,0,1",""
"","html-keyboard-response","83","165915","0.0-83.0","3NKQQ8O39ZRLTXUL8Y6XT6X1C37DUI","A2K0L9M1ZZO5C9","3KVQ0UJWPX71V463XQYDOZYIDLRW5D","","null","<img src=""img/animal5.png"" style=""width:200px; border:14px solid green;"">","null","","","","","",""
"","image-keyboard-response","84","166513","0.0-84.0","3NKQQ8O39ZRLTXUL8Y6XT6X1C37DUI","A2K0L9M1ZZO5C9","3KVQ0UJWPX71V463XQYDOZYIDLRW5D","","596.7999999970198","img/animal3.png","74","597.7000000029802","1","1","2","1,0.7,0,1,0.7,0,0.7,0,1",""
"","html-keyboard-response","85","166816","0.0-85.0","3NKQQ8O39ZRLTXUL8Y6XT6X1C37DUI","A2K0L9M1ZZO5C9","3KVQ0UJWPX71V463XQYDOZYIDLRW5D","","null","<img src=""img/animal3.png"" style=""width:200px; border:14px solid green;"">","null","","","","","",""
"","image-keyboard-response","86","167232","0.0-86.0","3NKQQ8O39ZRLTXUL8Y6XT6X1C37DUI","A2K0L9M1ZZO5C9","3KVQ0UJWPX71V463XQYDOZYIDLRW5D","","414.40000000596046","img/animal3.png","74","415.5","1","1","2","1,0.7,0,1,0.7,0,0.7,0,1",""
"","html-keyboard-response","87","167533","0.0-87.0","3NKQQ8O39ZRLTXUL8Y6XT6X1C37DUI","A2K0L9M1ZZO5C9","3KVQ0UJWPX71V463XQYDOZYIDLRW5D","","null","<img src=""img/animal3.png"" style=""width:200px; border:14px solid green;"">","null","","","","","",""
"","image-keyboard-response","88","168271","0.0-88.0","3NKQQ8O39ZRLTXUL8Y6XT6X1C37DUI","A2K0L9M1ZZO5C9","3KVQ0UJWPX71V463XQYDOZYIDLRW5D","","736.7000000029802","img/animal4.png","76","737.5","3","1","3","1,0.7,0,1,0.7,0,0.7,0,1",""
"","html-keyboard-response","89","168573","0.0-89.0","3NKQQ8O39ZRLTXUL8Y6XT6X1C37DUI","A2K0L9M1ZZO5C9","3KVQ0UJWPX71V463XQYDOZYIDLRW5D","","null","<img src=""img/animal4.png"" style=""width:200px; border:14px solid green;"">","null","","","","","",""
"","image-keyboard-response","90","169232","0.0-90.0","3NKQQ8O39ZRLTXUL8Y6XT6X1C37DUI","A2K0L9M1ZZO5C9","3KVQ0UJWPX71V463XQYDOZYIDLRW5D","","658","img/animal3.png","74","658.5","1","1","2","1,0.7,0,1,0.7,0,0.7,0,1",""
"","html-keyboard-response","91","169534","0.0-91.0","3NKQQ8O39ZRLTXUL8Y6XT6X1C37DUI","A2K0L9M1ZZO5C9","3KVQ0UJWPX71V463XQYDOZYIDLRW5D","","null","<img src=""img/animal3.png"" style=""width:200px; border:14px solid green;"">","null","","","","","",""
"","image-keyboard-response","92","169915","0.0-92.0","3NKQQ8O39ZRLTXUL8Y6XT6X1C37DUI","A2K0L9M1ZZO5C9","3KVQ0UJWPX71V463XQYDOZYIDLRW5D","","381.1000000089407","img/animal3.png","74","381.70000000298023","1","1","2","1,0.7,0,1,0.7,0,0.7,0,1",""
"","html-keyboard-response","93","170217","0.0-93.0","3NKQQ8O39ZRLTXUL8Y6XT6X1C37DUI","A2K0L9M1ZZO5C9","3KVQ0UJWPX71V463XQYDOZYIDLRW5D","","null","<img src=""img/animal3.png"" style=""width:200px; border:14px solid green;"">","null","","","","","",""
"","image-keyboard-response","94","170808","0.0-94.0","3NKQQ8O39ZRLTXUL8Y6XT6X1C37DUI","A2K0L9M1ZZO5C9","3KVQ0UJWPX71V463XQYDOZYIDLRW5D","","589.7000000029802","img/animal5.png","74","590.5","1","1","1","1,0.7,0,1,0.7,0,0.7,0,1",""
"","html-keyboard-response","95","171110","0.0-95.0","3NKQQ8O39ZRLTXUL8Y6XT6X1C37DUI","A2K0L9M1ZZO5C9","3KVQ0UJWPX71V463XQYDOZYIDLRW5D","","null","<img src=""img/animal5.png"" style=""width:200px; border:14px solid green;"">","null","","","","","",""
"","image-keyboard-response","96","171571","0.0-96.0","3NKQQ8O39ZRLTXUL8Y6XT6X1C37DUI","A2K0L9M1ZZO5C9","3KVQ0UJWPX71V463XQYDOZYIDLRW5D","","460.5","img/animal3.png","74","461.09999999403954","1","1","2","1,0.7,0,1,0.7,0,0.7,0,1",""
"","html-keyboard-response","97","171873","0.0-97.0","3NKQQ8O39ZRLTXUL8Y6XT6X1C37DUI","A2K0L9M1ZZO5C9","3KVQ0UJWPX71V463XQYDOZYIDLRW5D","","null","<img src=""img/animal3.png"" style=""width:200px; border:14px solid green;"">","null","","","","","",""
"","image-keyboard-response","98","173378","0.0-98.0","3NKQQ8O39ZRLTXUL8Y6XT6X1C37DUI","A2K0L9M1ZZO5C9","3KVQ0UJWPX71V463XQYDOZYIDLRW5D","","1503.6000000089407","img/animal4.png","76","1504.5999999940395","3","1","3","1,0.7,0,1,0.7,0,0.7,0,1",""
"","html-keyboard-response","99","173680","0.0-99.0","3NKQQ8O39ZRLTXUL8Y6XT6X1C37DUI","A2K0L9M1ZZO5C9","3KVQ0UJWPX71V463XQYDOZYIDLRW5D","","null","<img src=""img/animal4.png"" style=""width:200px; border:14px solid green;"">","null","","","","","",""
"","image-keyboard-response","100","174060","0.0-100.0","3NKQQ8O39ZRLTXUL8Y6XT6X1C37DUI","A2K0L9M1ZZO5C9","3KVQ0UJWPX71V463XQYDOZYIDLRW5D","","378.90000000596046","img/animal4.png","76","379.70000000298023","3","1","3","1,0.7,0,1,0.7,0,0.7,0,1",""
"","html-keyboard-response","101","174362","0.0-101.0","3NKQQ8O39ZRLTXUL8Y6XT6X1C37DUI","A2K0L9M1ZZO5C9","3KVQ0UJWPX71V463XQYDOZYIDLRW5D","","null","<img src=""img/animal4.png"" style=""width:200px; border:14px solid green;"">","null","","","","","",""
"","image-keyboard-response","102","174710","0.0-102.0","3NKQQ8O39ZRLTXUL8Y6XT6X1C37DUI","A2K0L9M1ZZO5C9","3KVQ0UJWPX71V463XQYDOZYIDLRW5D","","347.69999998807907","img/animal4.png","76","348.29999999701977","3","1","3","1,0.7,0,1,0.7,0,0.7,0,1",""
"","html-keyboard-response","103","175012","0.0-103.0","3NKQQ8O39ZRLTXUL8Y6XT6X1C37DUI","A2K0L9M1ZZO5C9","3KVQ0UJWPX71V463XQYDOZYIDLRW5D","","null","<img src=""img/animal4.png"" style=""width:200px; border:14px solid green;"">","null","","","","","",""
"","image-keyboard-response","104","175375","0.0-104.0","3NKQQ8O39ZRLTXUL8Y6XT6X1C37DUI","A2K0L9M1ZZO5C9","3KVQ0UJWPX71V463XQYDOZYIDLRW5D","","362.5","img/animal4.png","76","363.20000000298023","3","1","3","1,0.7,0,1,0.7,0,0.7,0,1",""
"","html-keyboard-response","105","175677","0.0-105.0","3NKQQ8O39ZRLTXUL8Y6XT6X1C37DUI","A2K0L9M1ZZO5C9","3KVQ0UJWPX71V463XQYDOZYIDLRW5D","","null","<img src=""img/animal4.png"" style=""width:200px; border:14px solid green;"">","null","","","","","",""
"","image-keyboard-response","106","176358","0.0-106.0","3NKQQ8O39ZRLTXUL8Y6XT6X1C37DUI","A2K0L9M1ZZO5C9","3KVQ0UJWPX71V463XQYDOZYIDLRW5D","","680.2000000029802","img/animal5.png","74","681.2000000029802","1","1","1","1,0.7,0,1,0.7,0,0.7,0,1",""
"","html-keyboard-response","107","176660","0.0-107.0","3NKQQ8O39ZRLTXUL8Y6XT6X1C37DUI","A2K0L9M1ZZO5C9","3KVQ0UJWPX71V463XQYDOZYIDLRW5D","","null","<img src=""img/animal5.png"" style=""width:200px; border:14px solid green;"">","null","","","","","",""
"","image-keyboard-response","108","177072","0.0-108.0","3NKQQ8O39ZRLTXUL8Y6XT6X1C37DUI","A2K0L9M1ZZO5C9","3KVQ0UJWPX71V463XQYDOZYIDLRW5D","","411.40000000596046","img/animal5.png","74","412","1","1","1","1,0.7,0,1,0.7,0,0.7,0,1",""
"","html-keyboard-response","109","177374","0.0-109.0","3NKQQ8O39ZRLTXUL8Y6XT6X1C37DUI","A2K0L9M1ZZO5C9","3KVQ0UJWPX71V463XQYDOZYIDLRW5D","","null","<img src=""img/animal5.png"" style=""width:200px; border:14px solid green;"">","null","","","","","",""
"","image-keyboard-response","110","178112","0.0-110.0","3NKQQ8O39ZRLTXUL8Y6XT6X1C37DUI","A2K0L9M1ZZO5C9","3KVQ0UJWPX71V463XQYDOZYIDLRW5D","","737.5","img/animal4.png","76","738.3000000119209","3","1","3","1,0.7,0,1,0.7,0,0.7,0,1",""
"","html-keyboard-response","111","178414","0.0-111.0","3NKQQ8O39ZRLTXUL8Y6XT6X1C37DUI","A2K0L9M1ZZO5C9","3KVQ0UJWPX71V463XQYDOZYIDLRW5D","","null","<img src=""img/animal4.png"" style=""width:200px; border:14px solid green;"">","null","","","","","",""
"","image-keyboard-response","112","178888","0.0-112.0","3NKQQ8O39ZRLTXUL8Y6XT6X1C37DUI","A2K0L9M1ZZO5C9","3KVQ0UJWPX71V463XQYDOZYIDLRW5D","","472.3999999910593","img/animal4.png","76","473.20000000298023","3","1","3","1,0.7,0,1,0.7,0,0.7,0,1",""
"","html-keyboard-response","113","179190","0.0-113.0","3NKQQ8O39ZRLTXUL8Y6XT6X1C37DUI","A2K0L9M1ZZO5C9","3KVQ0UJWPX71V463XQYDOZYIDLRW5D","","null","<img src=""img/animal4.png"" style=""width:200px; border:14px solid green;"">","null","","","","","",""
"","image-keyboard-response","114","180064","0.0-114.0","3NKQQ8O39ZRLTXUL8Y6XT6X1C37DUI","A2K0L9M1ZZO5C9","3KVQ0UJWPX71V463XQYDOZYIDLRW5D","","873.7999999970198","img/animal3.png","74","874.7000000029802","1","1","2","1,0.7,0,1,0.7,0,0.7,0,1",""
"","html-keyboard-response","115","180366","0.0-115.0","3NKQQ8O39ZRLTXUL8Y6XT6X1C37DUI","A2K0L9M1ZZO5C9","3KVQ0UJWPX71V463XQYDOZYIDLRW5D","","null","<img src=""img/animal3.png"" style=""width:200px; border:14px solid green;"">","null","","","","","",""
"","image-keyboard-response","116","180662","0.0-116.0","3NKQQ8O39ZRLTXUL8Y6XT6X1C37DUI","A2K0L9M1ZZO5C9","3KVQ0UJWPX71V463XQYDOZYIDLRW5D","","294.69999998807907","img/animal3.png","74","295.8999999910593","1","1","2","1,0.7,0,1,0.7,0,0.7,0,1",""
"","html-keyboard-response","117","180964","0.0-117.0","3NKQQ8O39ZRLTXUL8Y6XT6X1C37DUI","A2K0L9M1ZZO5C9","3KVQ0UJWPX71V463XQYDOZYIDLRW5D","","null","<img src=""img/animal3.png"" style=""width:200px; border:14px solid green;"">","null","","","","","",""
"","image-keyboard-response","118","181516","0.0-118.0","3NKQQ8O39ZRLTXUL8Y6XT6X1C37DUI","A2K0L9M1ZZO5C9","3KVQ0UJWPX71V463XQYDOZYIDLRW5D","","550.8999999910593","img/animal4.png","76","551.7000000029802","3","1","3","1,0.7,0,1,0.7,0,0.7,0,1",""
"","html-keyboard-response","119","181817","0.0-119.0","3NKQQ8O39ZRLTXUL8Y6XT6X1C37DUI","A2K0L9M1ZZO5C9","3KVQ0UJWPX71V463XQYDOZYIDLRW5D","","null","<img src=""img/animal4.png"" style=""width:200px; border:14px solid green;"">","null","","","","","",""
"","image-keyboard-response","120","182441","0.0-120.0","3NKQQ8O39ZRLTXUL8Y6XT6X1C37DUI","A2K0L9M1ZZO5C9","3KVQ0UJWPX71V463XQYDOZYIDLRW5D","","622.6999999880791","img/animal3.png","74","623.7999999970198","1","1","2","1,0.7,0,1,0.7,0,0.7,0,1",""
"","html-keyboard-response","121","182744","0.0-121.0","3NKQQ8O39ZRLTXUL8Y6XT6X1C37DUI","A2K0L9M1ZZO5C9","3KVQ0UJWPX71V463XQYDOZYIDLRW5D","","null","<img src=""img/animal3.png"" style=""width:200px; border:14px solid green;"">","null","","","","","",""
"","image-keyboard-response","122","183281","0.0-122.0","3NKQQ8O39ZRLTXUL8Y6XT6X1C37DUI","A2K0L9M1ZZO5C9","3KVQ0UJWPX71V463XQYDOZYIDLRW5D","","537.2000000029802","img/animal5.png","74","537.7999999970198","1","1","1","1,0.7,0,1,0.7,0,0.7,0,1",""
"","html-keyboard-response","123","183583","0.0-123.0","3NKQQ8O39ZRLTXUL8Y6XT6X1C37DUI","A2K0L9M1ZZO5C9","3KVQ0UJWPX71V463XQYDOZYIDLRW5D","","null","<img src=""img/animal5.png"" style=""width:200px; border:14px solid green;"">","null","","","","","",""
"","image-keyboard-response","124","183958","0.0-124.0","3NKQQ8O39ZRLTXUL8Y6XT6X1C37DUI","A2K0L9M1ZZO5C9","3KVQ0UJWPX71V463XQYDOZYIDLRW5D","","374","img/animal5.png","74","374.79999999701977","1","1","1","1,0.7,0,1,0.7,0,0.7,0,1",""
"","html-keyboard-response","125","184260","0.0-125.0","3NKQQ8O39ZRLTXUL8Y6XT6X1C37DUI","A2K0L9M1ZZO5C9","3KVQ0UJWPX71V463XQYDOZYIDLRW5D","","null","<img src=""img/animal5.png"" style=""width:200px; border:14px solid green;"">","null","","","","","",""
"","image-keyboard-response","126","184619","0.0-126.0","3NKQQ8O39ZRLTXUL8Y6XT6X1C37DUI","A2K0L9M1ZZO5C9","3KVQ0UJWPX71V463XQYDOZYIDLRW5D","","358.5","img/animal5.png","74","359.09999999403954","1","1","1","1,0.7,0,1,0.7,0,0.7,0,1",""
"","html-keyboard-response","127","184921","0.0-127.0","3NKQQ8O39ZRLTXUL8Y6XT6X1C37DUI","A2K0L9M1ZZO5C9","3KVQ0UJWPX71V463XQYDOZYIDLRW5D","","null","<img src=""img/animal5.png"" style=""width:200px; border:14px solid green;"">","null","","","","","",""
"","image-keyboard-response","128","185892","0.0-128.0","3NKQQ8O39ZRLTXUL8Y6XT6X1C37DUI","A2K0L9M1ZZO5C9","3KVQ0UJWPX71V463XQYDOZYIDLRW5D","","969.7999999970198","img/animal3.png","74","970.4000000059605","1","1","2","1,0.7,0,1,0.7,0,0.7,0,1",""
"","html-keyboard-response","129","186204","0.0-129.0","3NKQQ8O39ZRLTXUL8Y6XT6X1C37DUI","A2K0L9M1ZZO5C9","3KVQ0UJWPX71V463XQYDOZYIDLRW5D","","null","<img src=""img/animal3.png"" style=""width:200px; border:14px solid green;"">","null","","","","","",""
"","image-keyboard-response","130","186961","0.0-130.0","3NKQQ8O39ZRLTXUL8Y6XT6X1C37DUI","A2K0L9M1ZZO5C9","3KVQ0UJWPX71V463XQYDOZYIDLRW5D","","755.1000000089407","img/animal4.png","76","755.9000000059605","3","1","3","1,0.7,0,1,0.7,0,0.7,0,1",""
"","html-keyboard-response","131","187263","0.0-131.0","3NKQQ8O39ZRLTXUL8Y6XT6X1C37DUI","A2K0L9M1ZZO5C9","3KVQ0UJWPX71V463XQYDOZYIDLRW5D","","null","<img src=""img/animal4.png"" style=""width:200px; border:14px solid green;"">","null","","","","","",""
"","image-keyboard-response","132","189524","0.0-132.0","3NKQQ8O39ZRLTXUL8Y6XT6X1C37DUI","A2K0L9M1ZZO5C9","3KVQ0UJWPX71V463XQYDOZYIDLRW5D","","2259.3999999910593","img/animal5.png","74","2260.2999999970198","1","1","1","1,0.7,0,1,0.7,0,0.7,0,1",""
"","html-keyboard-response","133","189825","0.0-133.0","3NKQQ8O39ZRLTXUL8Y6XT6X1C37DUI","A2K0L9M1ZZO5C9","3KVQ0UJWPX71V463XQYDOZYIDLRW5D","","null","<img src=""img/animal5.png"" style=""width:200px; border:14px solid green;"">","null","","","","","",""
"","image-keyboard-response","134","190220","0.0-134.0","3NKQQ8O39ZRLTXUL8Y6XT6X1C37DUI","A2K0L9M1ZZO5C9","3KVQ0UJWPX71V463XQYDOZYIDLRW5D","","394.1000000089407","img/animal3.png","74","394.90000000596046","1","1","2","1,0.7,0,1,0.7,0,0.7,0,1",""
"","html-keyboard-response","135","190522","0.0-135.0","3NKQQ8O39ZRLTXUL8Y6XT6X1C37DUI","A2K0L9M1ZZO5C9","3KVQ0UJWPX71V463XQYDOZYIDLRW5D","","null","<img src=""img/animal3.png"" style=""width:200px; border:14px solid green;"">","null","","","","","",""
"","image-keyboard-response","136","191138","0.0-136.0","3NKQQ8O39ZRLTXUL8Y6XT6X1C37DUI","A2K0L9M1ZZO5C9","3KVQ0UJWPX71V463XQYDOZYIDLRW5D","","615.2999999970198","img/animal4.png","76","615.8999999910593","3","1","3","1,0.7,0,1,0.7,0,0.7,0,1",""
"","html-keyboard-response","137","191441","0.0-137.0","3NKQQ8O39ZRLTXUL8Y6XT6X1C37DUI","A2K0L9M1ZZO5C9","3KVQ0UJWPX71V463XQYDOZYIDLRW5D","","null","<img src=""img/animal4.png"" style=""width:200px; border:14px solid green;"">","null","","","","","",""
"","image-keyboard-response","138","192123","0.0-138.0","3NKQQ8O39ZRLTXUL8Y6XT6X1C37DUI","A2K0L9M1ZZO5C9","3KVQ0UJWPX71V463XQYDOZYIDLRW5D","","680.5","img/animal5.png","74","681.2999999970198","1","1","1","1,0.7,0,1,0.7,0,0.7,0,1",""
"","html-keyboard-response","139","192424","0.0-139.0","3NKQQ8O39ZRLTXUL8Y6XT6X1C37DUI","A2K0L9M1ZZO5C9","3KVQ0UJWPX71V463XQYDOZYIDLRW5D","","null","<img src=""img/animal5.png"" style=""width:200px; border:14px solid green;"">","null","","","","","",""
"","image-keyboard-response","140","192985","0.0-140.0","3NKQQ8O39ZRLTXUL8Y6XT6X1C37DUI","A2K0L9M1ZZO5C9","3KVQ0UJWPX71V463XQYDOZYIDLRW5D","","559.3000000119209","img/animal4.png","76","560.2999999970198","3","1","3","1,0.7,0,1,0.7,0,0.7,0,1",""
"","html-keyboard-response","141","193286","0.0-141.0","3NKQQ8O39ZRLTXUL8Y6XT6X1C37DUI","A2K0L9M1ZZO5C9","3KVQ0UJWPX71V463XQYDOZYIDLRW5D","","null","<img src=""img/animal4.png"" style=""width:200px; border:14px solid green;"">","null","","","","","",""
"","image-keyboard-response","142","194242","0.0-142.0","3NKQQ8O39ZRLTXUL8Y6XT6X1C37DUI","A2K0L9M1ZZO5C9","3KVQ0UJWPX71V463XQYDOZYIDLRW5D","","954.6000000089407","img/animal3.png","74","955.5999999940395","1","1","2","1,0.7,0,1,0.7,0,0.7,0,1",""
"","html-keyboard-response","143","194544","0.0-143.0","3NKQQ8O39ZRLTXUL8Y6XT6X1C37DUI","A2K0L9M1ZZO5C9","3KVQ0UJWPX71V463XQYDOZYIDLRW5D","","null","<img src=""img/animal3.png"" style=""width:200px; border:14px solid green;"">","null","","","","","",""
"","image-keyboard-response","144","195955","0.0-144.0","3NKQQ8O39ZRLTXUL8Y6XT6X1C37DUI","A2K0L9M1ZZO5C9","3KVQ0UJWPX71V463XQYDOZYIDLRW5D","","1409.7999999970198","img/animal5.png","74","1410.7999999970198","1","1","1","1,0.7,0,1,0.7,0,0.7,0,1",""
"","html-keyboard-response","145","196257","0.0-145.0","3NKQQ8O39ZRLTXUL8Y6XT6X1C37DUI","A2K0L9M1ZZO5C9","3KVQ0UJWPX71V463XQYDOZYIDLRW5D","","null","<img src=""img/animal5.png"" style=""width:200px; border:14px solid green;"">","null","","","","","",""
"","image-keyboard-response","146","196672","0.0-146.0","3NKQQ8O39ZRLTXUL8Y6XT6X1C37DUI","A2K0L9M1ZZO5C9","3KVQ0UJWPX71V463XQYDOZYIDLRW5D","","413.70000000298023","img/animal3.png","74","414.70000000298023","1","1","2","1,0.7,0,1,0.7,0,0.7,0,1",""
"","html-keyboard-response","147","196974","0.0-147.0","3NKQQ8O39ZRLTXUL8Y6XT6X1C37DUI","A2K0L9M1ZZO5C9","3KVQ0UJWPX71V463XQYDOZYIDLRW5D","","null","<img src=""img/animal3.png"" style=""width:200px; border:14px solid green;"">","null","","","","","",""
"","image-keyboard-response","148","197480","0.0-148.0","3NKQQ8O39ZRLTXUL8Y6XT6X1C37DUI","A2K0L9M1ZZO5C9","3KVQ0UJWPX71V463XQYDOZYIDLRW5D","","505.19999998807907","img/animal5.png","76","506","3","0","1","1,0.7,0,1,0.7,0,0.7,0,1",""
"","html-keyboard-response","149","197783","0.0-149.0","3NKQQ8O39ZRLTXUL8Y6XT6X1C37DUI","A2K0L9M1ZZO5C9","3KVQ0UJWPX71V463XQYDOZYIDLRW5D","","null","<img src=""img/animal5.png"" style=""width:200px;border:14px solid red;"">","null","","","","","",""
"","image-keyboard-response","150","198764","0.0-150.0","3NKQQ8O39ZRLTXUL8Y6XT6X1C37DUI","A2K0L9M1ZZO5C9","3KVQ0UJWPX71V463XQYDOZYIDLRW5D","","980.0999999940395","img/animal3.png","74","980.9000000059605","1","1","2","1,0.7,0,1,0.7,0,0.7,0,1",""
"","html-keyboard-response","151","199066","0.0-151.0","3NKQQ8O39ZRLTXUL8Y6XT6X1C37DUI","A2K0L9M1ZZO5C9","3KVQ0UJWPX71V463XQYDOZYIDLRW5D","","null","<img src=""img/animal3.png"" style=""width:200px; border:14px solid green;"">","null","","","","","",""
"","image-keyboard-response","152","199741","0.0-152.0","3NKQQ8O39ZRLTXUL8Y6XT6X1C37DUI","A2K0L9M1ZZO5C9","3KVQ0UJWPX71V463XQYDOZYIDLRW5D","","673.7999999970198","img/animal4.png","76","674.9000000059605","3","1","3","1,0.7,0,1,0.7,0,0.7,0,1",""
"","html-keyboard-response","153","200044","0.0-153.0","3NKQQ8O39ZRLTXUL8Y6XT6X1C37DUI","A2K0L9M1ZZO5C9","3KVQ0UJWPX71V463XQYDOZYIDLRW5D","","null","<img src=""img/animal4.png"" style=""width:200px; border:14px solid green;"">","null","","","","","",""
"","image-keyboard-response","154","201048","0.0-154.0","3NKQQ8O39ZRLTXUL8Y6XT6X1C37DUI","A2K0L9M1ZZO5C9","3KVQ0UJWPX71V463XQYDOZYIDLRW5D","","1004","img/animal3.png","74","1004.8000000119209","1","1","2","1,0.7,0,1,0.7,0,0.7,0,1",""
"","html-keyboard-response","155","201350","0.0-155.0","3NKQQ8O39ZRLTXUL8Y6XT6X1C37DUI","A2K0L9M1ZZO5C9","3KVQ0UJWPX71V463XQYDOZYIDLRW5D","","null","<img src=""img/animal3.png"" style=""width:200px; border:14px solid green;"">","null","","","","","",""
"","image-keyboard-response","156","201791","0.0-156.0","3NKQQ8O39ZRLTXUL8Y6XT6X1C37DUI","A2K0L9M1ZZO5C9","3KVQ0UJWPX71V463XQYDOZYIDLRW5D","","439.80000001192093","img/animal3.png","74","440.8999999910593","1","1","2","1,0.7,0,1,0.7,0,0.7,0,1",""
"","html-keyboard-response","157","202092","0.0-157.0","3NKQQ8O39ZRLTXUL8Y6XT6X1C37DUI","A2K0L9M1ZZO5C9","3KVQ0UJWPX71V463XQYDOZYIDLRW5D","","null","<img src=""img/animal3.png"" style=""width:200px; border:14px solid green;"">","null","","","","","",""
"","image-keyboard-response","158","205570","0.0-158.0","3NKQQ8O39ZRLTXUL8Y6XT6X1C37DUI","A2K0L9M1ZZO5C9","3KVQ0UJWPX71V463XQYDOZYIDLRW5D","","3477.2999999970198","img/animal5.png","74","3478","1","1","1","1,0.7,0,1,0.7,0,0.7,0,1",""
"","html-keyboard-response","159","205883","0.0-159.0","3NKQQ8O39ZRLTXUL8Y6XT6X1C37DUI","A2K0L9M1ZZO5C9","3KVQ0UJWPX71V463XQYDOZYIDLRW5D","","null","<img src=""img/animal5.png"" style=""width:200px; border:14px solid green;"">","null","","","","","",""
"","image-keyboard-response","160","206380","0.0-160.0","3NKQQ8O39ZRLTXUL8Y6XT6X1C37DUI","A2K0L9M1ZZO5C9","3KVQ0UJWPX71V463XQYDOZYIDLRW5D","","496.09999999403954","img/animal5.png","74","496.90000000596046","1","1","1","1,0.7,0,1,0.7,0,0.7,0,1",""
"","html-keyboard-response","161","206682","0.0-161.0","3NKQQ8O39ZRLTXUL8Y6XT6X1C37DUI","A2K0L9M1ZZO5C9","3KVQ0UJWPX71V463XQYDOZYIDLRW5D","","null","<img src=""img/animal5.png"" style=""width:200px; border:14px solid green;"">","null","","","","","",""
"","image-keyboard-response","162","207268","0.0-162.0","3NKQQ8O39ZRLTXUL8Y6XT6X1C37DUI","A2K0L9M1ZZO5C9","3KVQ0UJWPX71V463XQYDOZYIDLRW5D","","585.9000000059605","img/animal5.png","74","586.5","1","1","1","1,0.7,0,1,0.7,0,0.7,0,1",""
"","html-keyboard-response","163","207575","0.0-163.0","3NKQQ8O39ZRLTXUL8Y6XT6X1C37DUI","A2K0L9M1ZZO5C9","3KVQ0UJWPX71V463XQYDOZYIDLRW5D","","null","<img src=""img/animal5.png"" style=""width:200px; border:14px solid green;"">","null","","","","","",""
"","image-keyboard-response","164","208142","0.0-164.0","3NKQQ8O39ZRLTXUL8Y6XT6X1C37DUI","A2K0L9M1ZZO5C9","3KVQ0UJWPX71V463XQYDOZYIDLRW5D","","565.8999999910593","img/animal4.png","76","566.7000000029802","3","1","3","1,0.7,0,1,0.7,0,0.7,0,1",""
"","html-keyboard-response","165","208444","0.0-165.0","3NKQQ8O39ZRLTXUL8Y6XT6X1C37DUI","A2K0L9M1ZZO5C9","3KVQ0UJWPX71V463XQYDOZYIDLRW5D","","null","<img src=""img/animal4.png"" style=""width:200px; border:14px solid green;"">","null","","","","","",""
"","image-keyboard-response","166","208878","0.0-166.0","3NKQQ8O39ZRLTXUL8Y6XT6X1C37DUI","A2K0L9M1ZZO5C9","3KVQ0UJWPX71V463XQYDOZYIDLRW5D","","433.5","img/animal5.png","76","434.40000000596046","3","0","1","1,0.7,0,1,0.7,0,0.7,0,1",""
"","html-keyboard-response","167","209180","0.0-167.0","3NKQQ8O39ZRLTXUL8Y6XT6X1C37DUI","A2K0L9M1ZZO5C9","3KVQ0UJWPX71V463XQYDOZYIDLRW5D","","null","<img src=""img/animal5.png"" style=""width:200px;border:14px solid red;"">","null","","","","","",""
"","image-keyboard-response","168","209820","0.0-168.0","3NKQQ8O39ZRLTXUL8Y6XT6X1C37DUI","A2K0L9M1ZZO5C9","3KVQ0UJWPX71V463XQYDOZYIDLRW5D","","639.0999999940395","img/animal5.png","74","640.2999999970198","1","1","1","1,0.7,0,1,0.7,0,0.7,0,1",""
"","html-keyboard-response","169","210123","0.0-169.0","3NKQQ8O39ZRLTXUL8Y6XT6X1C37DUI","A2K0L9M1ZZO5C9","3KVQ0UJWPX71V463XQYDOZYIDLRW5D","","null","<img src=""img/animal5.png"" style=""width:200px; border:14px solid green;"">","null","","","","","",""
"","image-keyboard-response","170","210935","0.0-170.0","3NKQQ8O39ZRLTXUL8Y6XT6X1C37DUI","A2K0L9M1ZZO5C9","3KVQ0UJWPX71V463XQYDOZYIDLRW5D","","811.2000000029802","img/animal4.png","76","812","3","1","3","1,0.7,0,1,0.7,0,0.7,0,1",""
"","html-keyboard-response","171","211236","0.0-171.0","3NKQQ8O39ZRLTXUL8Y6XT6X1C37DUI","A2K0L9M1ZZO5C9","3KVQ0UJWPX71V463XQYDOZYIDLRW5D","","null","<img src=""img/animal4.png"" style=""width:200px; border:14px solid green;"">","null","","","","","",""
"","image-keyboard-response","172","212021","0.0-172.0","3NKQQ8O39ZRLTXUL8Y6XT6X1C37DUI","A2K0L9M1ZZO5C9","3KVQ0UJWPX71V463XQYDOZYIDLRW5D","","783.2999999970198","img/animal3.png","74","784.7000000029802","1","1","2","1,0.7,0,1,0.7,0,0.7,0,1",""
"","html-keyboard-response","173","212323","0.0-173.0","3NKQQ8O39ZRLTXUL8Y6XT6X1C37DUI","A2K0L9M1ZZO5C9","3KVQ0UJWPX71V463XQYDOZYIDLRW5D","","null","<img src=""img/animal3.png"" style=""width:200px; border:14px solid green;"">","null","","","","","",""
"","image-keyboard-response","174","212694","0.0-174.0","3NKQQ8O39ZRLTXUL8Y6XT6X1C37DUI","A2K0L9M1ZZO5C9","3KVQ0UJWPX71V463XQYDOZYIDLRW5D","","370.1000000089407","img/animal3.png","74","371","1","1","2","1,0.7,0,1,0.7,0,0.7,0,1",""
"","html-keyboard-response","175","212995","0.0-175.0","3NKQQ8O39ZRLTXUL8Y6XT6X1C37DUI","A2K0L9M1ZZO5C9","3KVQ0UJWPX71V463XQYDOZYIDLRW5D","","null","<img src=""img/animal3.png"" style=""width:200px; border:14px solid green;"">","null","","","","","",""
"","image-keyboard-response","176","214092","0.0-176.0","3NKQQ8O39ZRLTXUL8Y6XT6X1C37DUI","A2K0L9M1ZZO5C9","3KVQ0UJWPX71V463XQYDOZYIDLRW5D","","1094.8999999910593","img/animal4.png","76","1096","3","1","3","1,0.7,0,1,0.7,0,0.7,0,1",""
"","html-keyboard-response","177","214394","0.0-177.0","3NKQQ8O39ZRLTXUL8Y6XT6X1C37DUI","A2K0L9M1ZZO5C9","3KVQ0UJWPX71V463XQYDOZYIDLRW5D","","null","<img src=""img/animal4.png"" style=""width:200px; border:14px solid green;"">","null","","","","","",""
"","image-keyboard-response","178","214938","0.0-178.0","3NKQQ8O39ZRLTXUL8Y6XT6X1C37DUI","A2K0L9M1ZZO5C9","3KVQ0UJWPX71V463XQYDOZYIDLRW5D","","543.1000000089407","img/animal4.png","76","545.0999999940395","3","1","3","1,0.7,0,1,0.7,0,0.7,0,1",""
"","html-keyboard-response","179","215242","0.0-179.0","3NKQQ8O39ZRLTXUL8Y6XT6X1C37DUI","A2K0L9M1ZZO5C9","3KVQ0UJWPX71V463XQYDOZYIDLRW5D","","null","<img src=""img/animal4.png"" style=""width:200px; border:14px solid green;"">","null","","","","","",""
"","image-keyboard-response","180","215975","0.0-180.0","3NKQQ8O39ZRLTXUL8Y6XT6X1C37DUI","A2K0L9M1ZZO5C9","3KVQ0UJWPX71V463XQYDOZYIDLRW5D","","731.9000000059605","img/animal3.png","74","732.2999999970198","1","1","2","1,0.7,0,1,0.7,0,0.7,0,1",""
"","html-keyboard-response","181","216277","0.0-181.0","3NKQQ8O39ZRLTXUL8Y6XT6X1C37DUI","A2K0L9M1ZZO5C9","3KVQ0UJWPX71V463XQYDOZYIDLRW5D","","null","<img src=""img/animal3.png"" style=""width:200px; border:14px solid green;"">","null","","","","","",""
"","html-keyboard-response","182","218726","0.0-182.0","3NKQQ8O39ZRLTXUL8Y6XT6X1C37DUI","A2K0L9M1ZZO5C9","3KVQ0UJWPX71V463XQYDOZYIDLRW5D","","","","","","","","","",""
"","image-keyboard-response","183","220058","0.0-183.0","3NKQQ8O39ZRLTXUL8Y6XT6X1C37DUI","A2K0L9M1ZZO5C9","3KVQ0UJWPX71V463XQYDOZYIDLRW5D","","1331.3999999910593","img/animal6.png","74","1332.5999999940395","1","1","3","1,0.7,0,0,1,0.7,0.7,0,1",""
"","html-keyboard-response","184","220360","0.0-184.0","3NKQQ8O39ZRLTXUL8Y6XT6X1C37DUI","A2K0L9M1ZZO5C9","3KVQ0UJWPX71V463XQYDOZYIDLRW5D","","null","<img src=""img/animal6.png"" style=""width:200px; border:14px solid green;"">","null","","","","","",""
"","image-keyboard-response","185","225303","0.0-185.0","3NKQQ8O39ZRLTXUL8Y6XT6X1C37DUI","A2K0L9M1ZZO5C9","3KVQ0UJWPX71V463XQYDOZYIDLRW5D","","4941.4000000059605","img/animal6.png","74","4942.5","1","1","3","1,0.7,0,0,1,0.7,0.7,0,1",""
"","html-keyboard-response","186","225604","0.0-186.0","3NKQQ8O39ZRLTXUL8Y6XT6X1C37DUI","A2K0L9M1ZZO5C9","3KVQ0UJWPX71V463XQYDOZYIDLRW5D","","null","<img src=""img/animal6.png"" style=""width:200px; border:14px solid green;"">","null","","","","","",""
"","image-keyboard-response","187","226230","0.0-187.0","3NKQQ8O39ZRLTXUL8Y6XT6X1C37DUI","A2K0L9M1ZZO5C9","3KVQ0UJWPX71V463XQYDOZYIDLRW5D","","625.0999999940395","img/animal6.png","74","625.7999999970198","1","1","3","1,0.7,0,0,1,0.7,0.7,0,1",""
"","html-keyboard-response","188","226533","0.0-188.0","3NKQQ8O39ZRLTXUL8Y6XT6X1C37DUI","A2K0L9M1ZZO5C9","3KVQ0UJWPX71V463XQYDOZYIDLRW5D","","null","<img src=""img/animal6.png"" style=""width:200px; border:14px solid green;"">","null","","","","","",""
"","image-keyboard-response","189","227580","0.0-189.0","3NKQQ8O39ZRLTXUL8Y6XT6X1C37DUI","A2K0L9M1ZZO5C9","3KVQ0UJWPX71V463XQYDOZYIDLRW5D","","1047.2000000029802","img/animal2.png","76","1047.7999999970198","3","1","2","1,0.7,0,0,1,0.7,0.7,0,1",""
"","html-keyboard-response","190","227883","0.0-190.0","3NKQQ8O39ZRLTXUL8Y6XT6X1C37DUI","A2K0L9M1ZZO5C9","3KVQ0UJWPX71V463XQYDOZYIDLRW5D","","null","<img src=""img/animal2.png"" style=""width:200px; border:14px solid green;"">","null","","","","","",""
"","image-keyboard-response","191","229485","0.0-191.0","3NKQQ8O39ZRLTXUL8Y6XT6X1C37DUI","A2K0L9M1ZZO5C9","3KVQ0UJWPX71V463XQYDOZYIDLRW5D","","1601.7999999970198","img/animal1.png","76","1602.5999999940395","3","0","1","1,0.7,0,0,1,0.7,0.7,0,1",""
"","html-keyboard-response","192","229787","0.0-192.0","3NKQQ8O39ZRLTXUL8Y6XT6X1C37DUI","A2K0L9M1ZZO5C9","3KVQ0UJWPX71V463XQYDOZYIDLRW5D","","null","<img src=""img/animal1.png"" style=""width:200px;border:14px solid red;"">","null","","","","","",""
"","image-keyboard-response","193","230512","0.0-193.0","3NKQQ8O39ZRLTXUL8Y6XT6X1C37DUI","A2K0L9M1ZZO5C9","3KVQ0UJWPX71V463XQYDOZYIDLRW5D","","723.2999999970198","img/animal2.png","74","724.2000000029802","1","0","2","1,0.7,0,0,1,0.7,0.7,0,1",""
"","html-keyboard-response","194","230813","0.0-194.0","3NKQQ8O39ZRLTXUL8Y6XT6X1C37DUI","A2K0L9M1ZZO5C9","3KVQ0UJWPX71V463XQYDOZYIDLRW5D","","null","<img src=""img/animal2.png"" style=""width:200px;border:14px solid red;"">","null","","","","","",""
"","image-keyboard-response","195","231452","0.0-195.0","3NKQQ8O39ZRLTXUL8Y6XT6X1C37DUI","A2K0L9M1ZZO5C9","3KVQ0UJWPX71V463XQYDOZYIDLRW5D","","637.7000000029802","img/animal2.png","74","638.5","1","0","2","1,0.7,0,0,1,0.7,0.7,0,1",""
"","html-keyboard-response","196","231754","0.0-196.0","3NKQQ8O39ZRLTXUL8Y6XT6X1C37DUI","A2K0L9M1ZZO5C9","3KVQ0UJWPX71V463XQYDOZYIDLRW5D","","null","<img src=""img/animal2.png"" style=""width:200px;border:14px solid red;"">","null","","","","","",""
"","image-keyboard-response","197","232825","0.0-197.0","3NKQQ8O39ZRLTXUL8Y6XT6X1C37DUI","A2K0L9M1ZZO5C9","3KVQ0UJWPX71V463XQYDOZYIDLRW5D","","1070.2000000029802","img/animal1.png","76","1071","3","0","1","1,0.7,0,0,1,0.7,0.7,0,1",""
"","html-keyboard-response","198","233127","0.0-198.0","3NKQQ8O39ZRLTXUL8Y6XT6X1C37DUI","A2K0L9M1ZZO5C9","3KVQ0UJWPX71V463XQYDOZYIDLRW5D","","null","<img src=""img/animal1.png"" style=""width:200px;border:14px solid red;"">","null","","","","","",""
"","image-keyboard-response","199","234180","0.0-199.0","3NKQQ8O39ZRLTXUL8Y6XT6X1C37DUI","A2K0L9M1ZZO5C9","3KVQ0UJWPX71V463XQYDOZYIDLRW5D","","1052","img/animal6.png","74","1053.3999999910593","1","1","3","1,0.7,0,0,1,0.7,0.7,0,1",""
"","html-keyboard-response","200","234483","0.0-200.0","3NKQQ8O39ZRLTXUL8Y6XT6X1C37DUI","A2K0L9M1ZZO5C9","3KVQ0UJWPX71V463XQYDOZYIDLRW5D","","null","<img src=""img/animal6.png"" style=""width:200px; border:14px solid green;"">","null","","","","","",""
"","image-keyboard-response","201","237871","0.0-201.0","3NKQQ8O39ZRLTXUL8Y6XT6X1C37DUI","A2K0L9M1ZZO5C9","3KVQ0UJWPX71V463XQYDOZYIDLRW5D","","3387.3999999910593","img/animal2.png","74","3388.0999999940395","1","0","2","1,0.7,0,0,1,0.7,0.7,0,1",""
"","html-keyboard-response","202","238174","0.0-202.0","3NKQQ8O39ZRLTXUL8Y6XT6X1C37DUI","A2K0L9M1ZZO5C9","3KVQ0UJWPX71V463XQYDOZYIDLRW5D","","null","<img src=""img/animal2.png"" style=""width:200px;border:14px solid red;"">","null","","","","","",""
"","image-keyboard-response","203","240420","0.0-203.0","3NKQQ8O39ZRLTXUL8Y6XT6X1C37DUI","A2K0L9M1ZZO5C9","3KVQ0UJWPX71V463XQYDOZYIDLRW5D","","2245.7999999970198","img/animal6.png","74","2246.7000000029802","1","1","3","1,0.7,0,0,1,0.7,0.7,0,1",""
"","html-keyboard-response","204","240723","0.0-204.0","3NKQQ8O39ZRLTXUL8Y6XT6X1C37DUI","A2K0L9M1ZZO5C9","3KVQ0UJWPX71V463XQYDOZYIDLRW5D","","null","<img src=""img/animal6.png"" style=""width:200px; border:14px solid green;"">","null","","","","","",""
"","image-keyboard-response","205","243623","0.0-205.0","3NKQQ8O39ZRLTXUL8Y6XT6X1C37DUI","A2K0L9M1ZZO5C9","3KVQ0UJWPX71V463XQYDOZYIDLRW5D","","2899.2000000029802","img/animal1.png","74","2899.9000000059605","1","1","1","1,0.7,0,0,1,0.7,0.7,0,1",""
"","html-keyboard-response","206","243924","0.0-206.0","3NKQQ8O39ZRLTXUL8Y6XT6X1C37DUI","A2K0L9M1ZZO5C9","3KVQ0UJWPX71V463XQYDOZYIDLRW5D","","null","<img src=""img/animal1.png"" style=""width:200px; border:14px solid green;"">","null","","","","","",""
"","image-keyboard-response","207","244520","0.0-207.0","3NKQQ8O39ZRLTXUL8Y6XT6X1C37DUI","A2K0L9M1ZZO5C9","3KVQ0UJWPX71V463XQYDOZYIDLRW5D","","594.5999999940395","img/animal2.png","74","595.5","1","0","2","1,0.7,0,0,1,0.7,0.7,0,1",""
"","html-keyboard-response","208","244823","0.0-208.0","3NKQQ8O39ZRLTXUL8Y6XT6X1C37DUI","A2K0L9M1ZZO5C9","3KVQ0UJWPX71V463XQYDOZYIDLRW5D","","null","<img src=""img/animal2.png"" style=""width:200px;border:14px solid red;"">","null","","","","","",""
"","image-keyboard-response","209","245746","0.0-209.0","3NKQQ8O39ZRLTXUL8Y6XT6X1C37DUI","A2K0L9M1ZZO5C9","3KVQ0UJWPX71V463XQYDOZYIDLRW5D","","922.0999999940395","img/animal1.png","74","923.0999999940395","1","1","1","1,0.7,0,0,1,0.7,0.7,0,1",""
"","html-keyboard-response","210","246048","0.0-210.0","3NKQQ8O39ZRLTXUL8Y6XT6X1C37DUI","A2K0L9M1ZZO5C9","3KVQ0UJWPX71V463XQYDOZYIDLRW5D","","null","<img src=""img/animal1.png"" style=""width:200px; border:14px solid green;"">","null","","","","","",""
"","image-keyboard-response","211","246772","0.0-211.0","3NKQQ8O39ZRLTXUL8Y6XT6X1C37DUI","A2K0L9M1ZZO5C9","3KVQ0UJWPX71V463XQYDOZYIDLRW5D","","723.0999999940395","img/animal6.png","76","723.9000000059605","3","1","3","1,0.7,0,0,1,0.7,0.7,0,1",""
"","html-keyboard-response","212","247074","0.0-212.0","3NKQQ8O39ZRLTXUL8Y6XT6X1C37DUI","A2K0L9M1ZZO5C9","3KVQ0UJWPX71V463XQYDOZYIDLRW5D","","null","<img src=""img/animal6.png"" style=""width:200px; border:14px solid green;"">","null","","","","","",""
"","image-keyboard-response","213","247638","0.0-213.0","3NKQQ8O39ZRLTXUL8Y6XT6X1C37DUI","A2K0L9M1ZZO5C9","3KVQ0UJWPX71V463XQYDOZYIDLRW5D","","564","img/animal2.png","75","564.6999999880791","2","1","2","1,0.7,0,0,1,0.7,0.7,0,1",""
"","html-keyboard-response","214","247940","0.0-214.0","3NKQQ8O39ZRLTXUL8Y6XT6X1C37DUI","A2K0L9M1ZZO5C9","3KVQ0UJWPX71V463XQYDOZYIDLRW5D","","null","<img src=""img/animal2.png"" style=""width:200px; border:14px solid green;"">","null","","","","","",""
"","image-keyboard-response","215","248551","0.0-215.0","3NKQQ8O39ZRLTXUL8Y6XT6X1C37DUI","A2K0L9M1ZZO5C9","3KVQ0UJWPX71V463XQYDOZYIDLRW5D","","610.5","img/animal6.png","74","611.5","1","1","3","1,0.7,0,0,1,0.7,0.7,0,1",""
"","html-keyboard-response","216","248854","0.0-216.0","3NKQQ8O39ZRLTXUL8Y6XT6X1C37DUI","A2K0L9M1ZZO5C9","3KVQ0UJWPX71V463XQYDOZYIDLRW5D","","null","<img src=""img/animal6.png"" style=""width:200px; border:14px solid green;"">","null","","","","","",""
"","image-keyboard-response","217","250001","0.0-217.0","3NKQQ8O39ZRLTXUL8Y6XT6X1C37DUI","A2K0L9M1ZZO5C9","3KVQ0UJWPX71V463XQYDOZYIDLRW5D","","1147","img/animal2.png","76","1147.5","3","1","2","1,0.7,0,0,1,0.7,0.7,0,1",""
"","html-keyboard-response","218","250303","0.0-218.0","3NKQQ8O39ZRLTXUL8Y6XT6X1C37DUI","A2K0L9M1ZZO5C9","3KVQ0UJWPX71V463XQYDOZYIDLRW5D","","null","<img src=""img/animal2.png"" style=""width:200px; border:14px solid green;"">","null","","","","","",""
"","image-keyboard-response","219","250749","0.0-219.0","3NKQQ8O39ZRLTXUL8Y6XT6X1C37DUI","A2K0L9M1ZZO5C9","3KVQ0UJWPX71V463XQYDOZYIDLRW5D","","445.5","img/animal1.png","75","446.40000000596046","2","1","1","1,0.7,0,0,1,0.7,0.7,0,1",""
"","html-keyboard-response","220","251052","0.0-220.0","3NKQQ8O39ZRLTXUL8Y6XT6X1C37DUI","A2K0L9M1ZZO5C9","3KVQ0UJWPX71V463XQYDOZYIDLRW5D","","null","<img src=""img/animal1.png"" style=""width:200px; border:14px solid green;"">","null","","","","","",""
"","image-keyboard-response","221","251592","0.0-221.0","3NKQQ8O39ZRLTXUL8Y6XT6X1C37DUI","A2K0L9M1ZZO5C9","3KVQ0UJWPX71V463XQYDOZYIDLRW5D","","539.2999999970198","img/animal6.png","74","540.0999999940395","1","1","3","1,0.7,0,0,1,0.7,0.7,0,1",""
"","html-keyboard-response","222","251895","0.0-222.0","3NKQQ8O39ZRLTXUL8Y6XT6X1C37DUI","A2K0L9M1ZZO5C9","3KVQ0UJWPX71V463XQYDOZYIDLRW5D","","null","<img src=""img/animal6.png"" style=""width:200px; border:14px solid green;"">","null","","","","","",""
"","image-keyboard-response","223","252369","0.0-223.0","3NKQQ8O39ZRLTXUL8Y6XT6X1C37DUI","A2K0L9M1ZZO5C9","3KVQ0UJWPX71V463XQYDOZYIDLRW5D","","473.30000001192093","img/animal6.png","74","474.09999999403954","1","1","3","1,0.7,0,0,1,0.7,0.7,0,1",""
"","html-keyboard-response","224","252671","0.0-224.0","3NKQQ8O39ZRLTXUL8Y6XT6X1C37DUI","A2K0L9M1ZZO5C9","3KVQ0UJWPX71V463XQYDOZYIDLRW5D","","null","<img src=""img/animal6.png"" style=""width:200px; border:14px solid green;"">","null","","","","","",""
"","image-keyboard-response","225","254089","0.0-225.0","3NKQQ8O39ZRLTXUL8Y6XT6X1C37DUI","A2K0L9M1ZZO5C9","3KVQ0UJWPX71V463XQYDOZYIDLRW5D","","1417.5","img/animal2.png","76","1418.2000000029802","3","1","2","1,0.7,0,0,1,0.7,0.7,0,1",""
"","html-keyboard-response","226","254392","0.0-226.0","3NKQQ8O39ZRLTXUL8Y6XT6X1C37DUI","A2K0L9M1ZZO5C9","3KVQ0UJWPX71V463XQYDOZYIDLRW5D","","null","<img src=""img/animal2.png"" style=""width:200px; border:14px solid green;"">","null","","","","","",""
"","image-keyboard-response","227","254960","0.0-227.0","3NKQQ8O39ZRLTXUL8Y6XT6X1C37DUI","A2K0L9M1ZZO5C9","3KVQ0UJWPX71V463XQYDOZYIDLRW5D","","567","img/animal2.png","76","567.9000000059605","3","1","2","1,0.7,0,0,1,0.7,0.7,0,1",""
"","html-keyboard-response","228","255262","0.0-228.0","3NKQQ8O39ZRLTXUL8Y6XT6X1C37DUI","A2K0L9M1ZZO5C9","3KVQ0UJWPX71V463XQYDOZYIDLRW5D","","null","<img src=""img/animal2.png"" style=""width:200px; border:14px solid green;"">","null","","","","","",""
"","image-keyboard-response","229","255796","0.0-229.0","3NKQQ8O39ZRLTXUL8Y6XT6X1C37DUI","A2K0L9M1ZZO5C9","3KVQ0UJWPX71V463XQYDOZYIDLRW5D","","533.7000000029802","img/animal1.png","75","534.5999999940395","2","0","1","1,0.7,0,0,1,0.7,0.7,0,1",""
"","html-keyboard-response","230","256098","0.0-230.0","3NKQQ8O39ZRLTXUL8Y6XT6X1C37DUI","A2K0L9M1ZZO5C9","3KVQ0UJWPX71V463XQYDOZYIDLRW5D","","null","<img src=""img/animal1.png"" style=""width:200px;border:14px solid red;"">","null","","","","","",""
"","image-keyboard-response","231","258023","0.0-231.0","3NKQQ8O39ZRLTXUL8Y6XT6X1C37DUI","A2K0L9M1ZZO5C9","3KVQ0UJWPX71V463XQYDOZYIDLRW5D","","1923.5","img/animal1.png","74","1924.2999999970198","1","1","1","1,0.7,0,0,1,0.7,0.7,0,1",""
"","html-keyboard-response","232","258324","0.0-232.0","3NKQQ8O39ZRLTXUL8Y6XT6X1C37DUI","A2K0L9M1ZZO5C9","3KVQ0UJWPX71V463XQYDOZYIDLRW5D","","null","<img src=""img/animal1.png"" style=""width:200px; border:14px solid green;"">","null","","","","","",""
"","image-keyboard-response","233","259481","0.0-233.0","3NKQQ8O39ZRLTXUL8Y6XT6X1C37DUI","A2K0L9M1ZZO5C9","3KVQ0UJWPX71V463XQYDOZYIDLRW5D","","1156","img/animal6.png","74","1156.8999999910593","1","1","3","1,0.7,0,0,1,0.7,0.7,0,1",""
"","html-keyboard-response","234","259784","0.0-234.0","3NKQQ8O39ZRLTXUL8Y6XT6X1C37DUI","A2K0L9M1ZZO5C9","3KVQ0UJWPX71V463XQYDOZYIDLRW5D","","null","<img src=""img/animal6.png"" style=""width:200px; border:14px solid green;"">","null","","","","","",""
"","image-keyboard-response","235","261103","0.0-235.0","3NKQQ8O39ZRLTXUL8Y6XT6X1C37DUI","A2K0L9M1ZZO5C9","3KVQ0UJWPX71V463XQYDOZYIDLRW5D","","1318.6000000089407","img/animal2.png","76","1319.5","3","1","2","1,0.7,0,0,1,0.7,0.7,0,1",""
"","html-keyboard-response","236","261405","0.0-236.0","3NKQQ8O39ZRLTXUL8Y6XT6X1C37DUI","A2K0L9M1ZZO5C9","3KVQ0UJWPX71V463XQYDOZYIDLRW5D","","null","<img src=""img/animal2.png"" style=""width:200px; border:14px solid green;"">","null","","","","","",""
"","image-keyboard-response","237","261934","0.0-237.0","3NKQQ8O39ZRLTXUL8Y6XT6X1C37DUI","A2K0L9M1ZZO5C9","3KVQ0UJWPX71V463XQYDOZYIDLRW5D","","523.0999999940395","img/animal2.png","76","528.3999999910593","3","0","2","1,0.7,0,0,1,0.7,0.7,0,1",""
"","html-keyboard-response","238","262235","0.0-238.0","3NKQQ8O39ZRLTXUL8Y6XT6X1C37DUI","A2K0L9M1ZZO5C9","3KVQ0UJWPX71V463XQYDOZYIDLRW5D","","null","<img src=""img/animal2.png"" style=""width:200px;border:14px solid red;"">","null","","","","","",""
"","image-keyboard-response","239","263155","0.0-239.0","3NKQQ8O39ZRLTXUL8Y6XT6X1C37DUI","A2K0L9M1ZZO5C9","3KVQ0UJWPX71V463XQYDOZYIDLRW5D","","918.6999999880791","img/animal6.png","74","919.5","1","1","3","1,0.7,0,0,1,0.7,0.7,0,1",""
"","html-keyboard-response","240","263457","0.0-240.0","3NKQQ8O39ZRLTXUL8Y6XT6X1C37DUI","A2K0L9M1ZZO5C9","3KVQ0UJWPX71V463XQYDOZYIDLRW5D","","null","<img src=""img/animal6.png"" style=""width:200px; border:14px solid green;"">","null","","","","","",""
"","image-keyboard-response","241","264852","0.0-241.0","3NKQQ8O39ZRLTXUL8Y6XT6X1C37DUI","A2K0L9M1ZZO5C9","3KVQ0UJWPX71V463XQYDOZYIDLRW5D","","1393.2000000029802","img/animal2.png","74","1394","1","0","2","1,0.7,0,0,1,0.7,0.7,0,1",""
"","html-keyboard-response","242","265154","0.0-242.0","3NKQQ8O39ZRLTXUL8Y6XT6X1C37DUI","A2K0L9M1ZZO5C9","3KVQ0UJWPX71V463XQYDOZYIDLRW5D","","null","<img src=""img/animal2.png"" style=""width:200px;border:14px solid red;"">","null","","","","","",""
"","image-keyboard-response","243","267287","0.0-243.0","3NKQQ8O39ZRLTXUL8Y6XT6X1C37DUI","A2K0L9M1ZZO5C9","3KVQ0UJWPX71V463XQYDOZYIDLRW5D","","2132.2000000029802","img/animal1.png","75","2133.0999999940395","2","1","1","1,0.7,0,0,1,0.7,0.7,0,1",""
"","html-keyboard-response","244","267589","0.0-244.0","3NKQQ8O39ZRLTXUL8Y6XT6X1C37DUI","A2K0L9M1ZZO5C9","3KVQ0UJWPX71V463XQYDOZYIDLRW5D","","null","<img src=""img/animal1.png"" style=""width:200px; border:14px solid green;"">","null","","","","","",""
"","image-keyboard-response","245","268334","0.0-245.0","3NKQQ8O39ZRLTXUL8Y6XT6X1C37DUI","A2K0L9M1ZZO5C9","3KVQ0UJWPX71V463XQYDOZYIDLRW5D","","743.0999999940395","img/animal1.png","75","744.2000000029802","2","1","1","1,0.7,0,0,1,0.7,0.7,0,1",""
"","html-keyboard-response","246","268636","0.0-246.0","3NKQQ8O39ZRLTXUL8Y6XT6X1C37DUI","A2K0L9M1ZZO5C9","3KVQ0UJWPX71V463XQYDOZYIDLRW5D","","null","<img src=""img/animal1.png"" style=""width:200px; border:14px solid green;"">","null","","","","","",""
"","image-keyboard-response","247","269053","0.0-247.0","3NKQQ8O39ZRLTXUL8Y6XT6X1C37DUI","A2K0L9M1ZZO5C9","3KVQ0UJWPX71V463XQYDOZYIDLRW5D","","415.5","img/animal1.png","75","416.5","2","1","1","1,0.7,0,0,1,0.7,0.7,0,1",""
"","html-keyboard-response","248","269354","0.0-248.0","3NKQQ8O39ZRLTXUL8Y6XT6X1C37DUI","A2K0L9M1ZZO5C9","3KVQ0UJWPX71V463XQYDOZYIDLRW5D","","null","<img src=""img/animal1.png"" style=""width:200px; border:14px solid green;"">","null","","","","","",""
"","image-keyboard-response","249","270443","0.0-249.0","3NKQQ8O39ZRLTXUL8Y6XT6X1C37DUI","A2K0L9M1ZZO5C9","3KVQ0UJWPX71V463XQYDOZYIDLRW5D","","1087.0999999940395","img/animal6.png","74","1088","1","0","3","1,0.7,0,0,1,0.7,0.7,0,1",""
"","html-keyboard-response","250","270745","0.0-250.0","3NKQQ8O39ZRLTXUL8Y6XT6X1C37DUI","A2K0L9M1ZZO5C9","3KVQ0UJWPX71V463XQYDOZYIDLRW5D","","null","<img src=""img/animal6.png"" style=""width:200px;border:14px solid red;"">","null","","","","","",""
"","image-keyboard-response","251","272393","0.0-251.0","3NKQQ8O39ZRLTXUL8Y6XT6X1C37DUI","A2K0L9M1ZZO5C9","3KVQ0UJWPX71V463XQYDOZYIDLRW5D","","1646.7000000029802","img/animal1.png","75","1647.5","2","1","1","1,0.7,0,0,1,0.7,0.7,0,1",""
"","html-keyboard-response","252","272694","0.0-252.0","3NKQQ8O39ZRLTXUL8Y6XT6X1C37DUI","A2K0L9M1ZZO5C9","3KVQ0UJWPX71V463XQYDOZYIDLRW5D","","null","<img src=""img/animal1.png"" style=""width:200px; border:14px solid green;"">","null","","","","","",""
"","image-keyboard-response","253","273179","0.0-253.0","3NKQQ8O39ZRLTXUL8Y6XT6X1C37DUI","A2K0L9M1ZZO5C9","3KVQ0UJWPX71V463XQYDOZYIDLRW5D","","483.5","img/animal1.png","75","484.29999999701977","2","1","1","1,0.7,0,0,1,0.7,0.7,0,1",""
"","html-keyboard-response","254","273481","0.0-254.0","3NKQQ8O39ZRLTXUL8Y6XT6X1C37DUI","A2K0L9M1ZZO5C9","3KVQ0UJWPX71V463XQYDOZYIDLRW5D","","null","<img src=""img/animal1.png"" style=""width:200px; border:14px solid green;"">","null","","","","","",""
"","image-keyboard-response","255","274552","0.0-255.0","3NKQQ8O39ZRLTXUL8Y6XT6X1C37DUI","A2K0L9M1ZZO5C9","3KVQ0UJWPX71V463XQYDOZYIDLRW5D","","1069.7999999970198","img/animal2.png","76","1070.4000000059605","3","1","2","1,0.7,0,0,1,0.7,0.7,0,1",""
"","html-keyboard-response","256","274853","0.0-256.0","3NKQQ8O39ZRLTXUL8Y6XT6X1C37DUI","A2K0L9M1ZZO5C9","3KVQ0UJWPX71V463XQYDOZYIDLRW5D","","null","<img src=""img/animal2.png"" style=""width:200px; border:14px solid green;"">","null","","","","","",""
"","image-keyboard-response","257","275813","0.0-257.0","3NKQQ8O39ZRLTXUL8Y6XT6X1C37DUI","A2K0L9M1ZZO5C9","3KVQ0UJWPX71V463XQYDOZYIDLRW5D","","959.5","img/animal6.png","74","960.1999999880791","1","1","3","1,0.7,0,0,1,0.7,0.7,0,1",""
"","html-keyboard-response","258","276115","0.0-258.0","3NKQQ8O39ZRLTXUL8Y6XT6X1C37DUI","A2K0L9M1ZZO5C9","3KVQ0UJWPX71V463XQYDOZYIDLRW5D","","null","<img src=""img/animal6.png"" style=""width:200px; border:14px solid green;"">","null","","","","","",""
"","image-keyboard-response","259","276711","0.0-259.0","3NKQQ8O39ZRLTXUL8Y6XT6X1C37DUI","A2K0L9M1ZZO5C9","3KVQ0UJWPX71V463XQYDOZYIDLRW5D","","595.2000000029802","img/animal6.png","74","596.2000000029802","1","1","3","1,0.7,0,0,1,0.7,0.7,0,1",""
"","html-keyboard-response","260","277013","0.0-260.0","3NKQQ8O39ZRLTXUL8Y6XT6X1C37DUI","A2K0L9M1ZZO5C9","3KVQ0UJWPX71V463XQYDOZYIDLRW5D","","null","<img src=""img/animal6.png"" style=""width:200px; border:14px solid green;"">","null","","","","","",""
"","image-keyboard-response","261","278314","0.0-261.0","3NKQQ8O39ZRLTXUL8Y6XT6X1C37DUI","A2K0L9M1ZZO5C9","3KVQ0UJWPX71V463XQYDOZYIDLRW5D","","1300.6000000089407","img/animal1.png","76","1301.4000000059605","3","0","1","1,0.7,0,0,1,0.7,0.7,0,1",""
"","html-keyboard-response","262","278616","0.0-262.0","3NKQQ8O39ZRLTXUL8Y6XT6X1C37DUI","A2K0L9M1ZZO5C9","3KVQ0UJWPX71V463XQYDOZYIDLRW5D","","null","<img src=""img/animal1.png"" style=""width:200px;border:14px solid red;"">","null","","","","","",""
"","image-keyboard-response","263","279130","0.0-263.0","3NKQQ8O39ZRLTXUL8Y6XT6X1C37DUI","A2K0L9M1ZZO5C9","3KVQ0UJWPX71V463XQYDOZYIDLRW5D","","513.5","img/animal2.png","74","514.2000000029802","1","0","2","1,0.7,0,0,1,0.7,0.7,0,1",""
"","html-keyboard-response","264","279433","0.0-264.0","3NKQQ8O39ZRLTXUL8Y6XT6X1C37DUI","A2K0L9M1ZZO5C9","3KVQ0UJWPX71V463XQYDOZYIDLRW5D","","null","<img src=""img/animal2.png"" style=""width:200px;border:14px solid red;"">","null","","","","","",""
"","image-keyboard-response","265","280267","0.0-265.0","3NKQQ8O39ZRLTXUL8Y6XT6X1C37DUI","A2K0L9M1ZZO5C9","3KVQ0UJWPX71V463XQYDOZYIDLRW5D","","833.1000000089407","img/animal2.png","75","833.9000000059605","2","1","2","1,0.7,0,0,1,0.7,0.7,0,1",""
"","html-keyboard-response","266","280568","0.0-266.0","3NKQQ8O39ZRLTXUL8Y6XT6X1C37DUI","A2K0L9M1ZZO5C9","3KVQ0UJWPX71V463XQYDOZYIDLRW5D","","null","<img src=""img/animal2.png"" style=""width:200px; border:14px solid green;"">","null","","","","","",""
"","image-keyboard-response","267","283213","0.0-267.0","3NKQQ8O39ZRLTXUL8Y6XT6X1C37DUI","A2K0L9M1ZZO5C9","3KVQ0UJWPX71V463XQYDOZYIDLRW5D","","2643.9000000059605","img/animal1.png","76","2645","3","0","1","1,0.7,0,0,1,0.7,0.7,0,1",""
"","html-keyboard-response","268","283515","0.0-268.0","3NKQQ8O39ZRLTXUL8Y6XT6X1C37DUI","A2K0L9M1ZZO5C9","3KVQ0UJWPX71V463XQYDOZYIDLRW5D","","null","<img src=""img/animal1.png"" style=""width:200px;border:14px solid red;"">","null","","","","","",""
"","image-keyboard-response","269","284593","0.0-269.0","3NKQQ8O39ZRLTXUL8Y6XT6X1C37DUI","A2K0L9M1ZZO5C9","3KVQ0UJWPX71V463XQYDOZYIDLRW5D","","1076.7999999970198","img/animal2.png","75","1077.5","2","1","2","1,0.7,0,0,1,0.7,0.7,0,1",""
"","html-keyboard-response","270","284895","0.0-270.0","3NKQQ8O39ZRLTXUL8Y6XT6X1C37DUI","A2K0L9M1ZZO5C9","3KVQ0UJWPX71V463XQYDOZYIDLRW5D","","null","<img src=""img/animal2.png"" style=""width:200px; border:14px solid green;"">","null","","","","","",""
"","image-keyboard-response","271","285600","0.0-271.0","3NKQQ8O39ZRLTXUL8Y6XT6X1C37DUI","A2K0L9M1ZZO5C9","3KVQ0UJWPX71V463XQYDOZYIDLRW5D","","704.1000000089407","img/animal6.png","74","704.8000000119209","1","1","3","1,0.7,0,0,1,0.7,0.7,0,1",""
"","html-keyboard-response","272","285902","0.0-272.0","3NKQQ8O39ZRLTXUL8Y6XT6X1C37DUI","A2K0L9M1ZZO5C9","3KVQ0UJWPX71V463XQYDOZYIDLRW5D","","null","<img src=""img/animal6.png"" style=""width:200px; border:14px solid green;"">","null","","","","","",""
"","image-keyboard-response","273","287014","0.0-273.0","3NKQQ8O39ZRLTXUL8Y6XT6X1C37DUI","A2K0L9M1ZZO5C9","3KVQ0UJWPX71V463XQYDOZYIDLRW5D","","1111.5999999940395","img/animal1.png","75","1112.2999999970198","2","1","1","1,0.7,0,0,1,0.7,0.7,0,1",""
"","html-keyboard-response","274","287316","0.0-274.0","3NKQQ8O39ZRLTXUL8Y6XT6X1C37DUI","A2K0L9M1ZZO5C9","3KVQ0UJWPX71V463XQYDOZYIDLRW5D","","null","<img src=""img/animal1.png"" style=""width:200px; border:14px solid green;"">","null","","","","","",""
"","image-keyboard-response","275","287814","0.0-275.0","3NKQQ8O39ZRLTXUL8Y6XT6X1C37DUI","A2K0L9M1ZZO5C9","3KVQ0UJWPX71V463XQYDOZYIDLRW5D","","495.70000000298023","img/animal2.png","76","497","3","1","2","1,0.7,0,0,1,0.7,0.7,0,1",""
"","html-keyboard-response","276","288116","0.0-276.0","3NKQQ8O39ZRLTXUL8Y6XT6X1C37DUI","A2K0L9M1ZZO5C9","3KVQ0UJWPX71V463XQYDOZYIDLRW5D","","null","<img src=""img/animal2.png"" style=""width:200px; border:14px solid green;"">","null","","","","","",""
"","image-keyboard-response","277","288740","0.0-277.0","3NKQQ8O39ZRLTXUL8Y6XT6X1C37DUI","A2K0L9M1ZZO5C9","3KVQ0UJWPX71V463XQYDOZYIDLRW5D","","623.6000000089407","img/animal6.png","74","624.6000000089407","1","1","3","1,0.7,0,0,1,0.7,0.7,0,1",""
"","html-keyboard-response","278","289043","0.0-278.0","3NKQQ8O39ZRLTXUL8Y6XT6X1C37DUI","A2K0L9M1ZZO5C9","3KVQ0UJWPX71V463XQYDOZYIDLRW5D","","null","<img src=""img/animal6.png"" style=""width:200px; border:14px solid green;"">","null","","","","","",""
"","image-keyboard-response","279","289532","0.0-279.0","3NKQQ8O39ZRLTXUL8Y6XT6X1C37DUI","A2K0L9M1ZZO5C9","3KVQ0UJWPX71V463XQYDOZYIDLRW5D","","488.09999999403954","img/animal1.png","75","489.20000000298023","2","1","1","1,0.7,0,0,1,0.7,0.7,0,1",""
"","html-keyboard-response","280","289835","0.0-280.0","3NKQQ8O39ZRLTXUL8Y6XT6X1C37DUI","A2K0L9M1ZZO5C9","3KVQ0UJWPX71V463XQYDOZYIDLRW5D","","null","<img src=""img/animal1.png"" style=""width:200px; border:14px solid green;"">","null","","","","","",""
"","image-keyboard-response","281","290259","0.0-281.0","3NKQQ8O39ZRLTXUL8Y6XT6X1C37DUI","A2K0L9M1ZZO5C9","3KVQ0UJWPX71V463XQYDOZYIDLRW5D","","422.40000000596046","img/animal2.png","76","423.59999999403954","3","1","2","1,0.7,0,0,1,0.7,0.7,0,1",""
"","html-keyboard-response","282","290561","0.0-282.0","3NKQQ8O39ZRLTXUL8Y6XT6X1C37DUI","A2K0L9M1ZZO5C9","3KVQ0UJWPX71V463XQYDOZYIDLRW5D","","null","<img src=""img/animal2.png"" style=""width:200px; border:14px solid green;"">","null","","","","","",""
"","image-keyboard-response","283","291021","0.0-283.0","3NKQQ8O39ZRLTXUL8Y6XT6X1C37DUI","A2K0L9M1ZZO5C9","3KVQ0UJWPX71V463XQYDOZYIDLRW5D","","459.90000000596046","img/animal6.png","74","460.6000000089407","1","1","3","1,0.7,0,0,1,0.7,0.7,0,1",""
"","html-keyboard-response","284","291324","0.0-284.0","3NKQQ8O39ZRLTXUL8Y6XT6X1C37DUI","A2K0L9M1ZZO5C9","3KVQ0UJWPX71V463XQYDOZYIDLRW5D","","null","<img src=""img/animal6.png"" style=""width:200px; border:14px solid green;"">","null","","","","","",""
"","image-keyboard-response","285","291885","0.0-285.0","3NKQQ8O39ZRLTXUL8Y6XT6X1C37DUI","A2K0L9M1ZZO5C9","3KVQ0UJWPX71V463XQYDOZYIDLRW5D","","560.6000000089407","img/animal6.png","74","562.0999999940395","1","1","3","1,0.7,0,0,1,0.7,0.7,0,1",""
"","html-keyboard-response","286","292187","0.0-286.0","3NKQQ8O39ZRLTXUL8Y6XT6X1C37DUI","A2K0L9M1ZZO5C9","3KVQ0UJWPX71V463XQYDOZYIDLRW5D","","null","<img src=""img/animal6.png"" style=""width:200px; border:14px solid green;"">","null","","","","","",""
"","image-keyboard-response","287","292559","0.0-287.0","3NKQQ8O39ZRLTXUL8Y6XT6X1C37DUI","A2K0L9M1ZZO5C9","3KVQ0UJWPX71V463XQYDOZYIDLRW5D","","370.29999999701977","img/animal6.png","74","371.30000001192093","1","0","3","1,0.7,0,0,1,0.7,0.7,0,1",""
"","html-keyboard-response","288","292861","0.0-288.0","3NKQQ8O39ZRLTXUL8Y6XT6X1C37DUI","A2K0L9M1ZZO5C9","3KVQ0UJWPX71V463XQYDOZYIDLRW5D","","null","<img src=""img/animal6.png"" style=""width:200px;border:14px solid red;"">","null","","","","","",""
"","image-keyboard-response","289","294224","0.0-289.0","3NKQQ8O39ZRLTXUL8Y6XT6X1C37DUI","A2K0L9M1ZZO5C9","3KVQ0UJWPX71V463XQYDOZYIDLRW5D","","1361.4000000059605","img/animal2.png","75","1362.5","2","1","2","1,0.7,0,0,1,0.7,0.7,0,1",""
"","html-keyboard-response","290","294526","0.0-290.0","3NKQQ8O39ZRLTXUL8Y6XT6X1C37DUI","A2K0L9M1ZZO5C9","3KVQ0UJWPX71V463XQYDOZYIDLRW5D","","null","<img src=""img/animal2.png"" style=""width:200px; border:14px solid green;"">","null","","","","","",""
"","image-keyboard-response","291","298109","0.0-291.0","3NKQQ8O39ZRLTXUL8Y6XT6X1C37DUI","A2K0L9M1ZZO5C9","3KVQ0UJWPX71V463XQYDOZYIDLRW5D","","3582.5999999940395","img/animal1.png","75","3583.5","2","0","1","1,0.7,0,0,1,0.7,0.7,0,1",""
"","html-keyboard-response","292","298412","0.0-292.0","3NKQQ8O39ZRLTXUL8Y6XT6X1C37DUI","A2K0L9M1ZZO5C9","3KVQ0UJWPX71V463XQYDOZYIDLRW5D","","null","<img src=""img/animal1.png"" style=""width:200px;border:14px solid red;"">","null","","","","","",""
"","image-keyboard-response","293","298852","0.0-293.0","3NKQQ8O39ZRLTXUL8Y6XT6X1C37DUI","A2K0L9M1ZZO5C9","3KVQ0UJWPX71V463XQYDOZYIDLRW5D","","439.3999999910593","img/animal1.png","75","440.1000000089407","2","1","1","1,0.7,0,0,1,0.7,0.7,0,1",""
"","html-keyboard-response","294","299154","0.0-294.0","3NKQQ8O39ZRLTXUL8Y6XT6X1C37DUI","A2K0L9M1ZZO5C9","3KVQ0UJWPX71V463XQYDOZYIDLRW5D","","null","<img src=""img/animal1.png"" style=""width:200px; border:14px solid green;"">","null","","","","","",""
"","image-keyboard-response","295","302009","0.0-295.0","3NKQQ8O39ZRLTXUL8Y6XT6X1C37DUI","A2K0L9M1ZZO5C9","3KVQ0UJWPX71V463XQYDOZYIDLRW5D","","2854.5","img/animal2.png","76","2855.6000000089407","3","1","2","1,0.7,0,0,1,0.7,0.7,0,1",""
"","html-keyboard-response","296","302311","0.0-296.0","3NKQQ8O39ZRLTXUL8Y6XT6X1C37DUI","A2K0L9M1ZZO5C9","3KVQ0UJWPX71V463XQYDOZYIDLRW5D","","null","<img src=""img/animal2.png"" style=""width:200px; border:14px solid green;"">","null","","","","","",""
"","image-keyboard-response","297","302715","0.0-297.0","3NKQQ8O39ZRLTXUL8Y6XT6X1C37DUI","A2K0L9M1ZZO5C9","3KVQ0UJWPX71V463XQYDOZYIDLRW5D","","403","img/animal2.png","76","403.79999999701977","3","1","2","1,0.7,0,0,1,0.7,0.7,0,1",""
"","html-keyboard-response","298","303017","0.0-298.0","3NKQQ8O39ZRLTXUL8Y6XT6X1C37DUI","A2K0L9M1ZZO5C9","3KVQ0UJWPX71V463XQYDOZYIDLRW5D","","null","<img src=""img/animal2.png"" style=""width:200px; border:14px solid green;"">","null","","","","","",""
"","image-keyboard-response","299","303076","0.0-299.0","3NKQQ8O39ZRLTXUL8Y6XT6X1C37DUI","A2K0L9M1ZZO5C9","3KVQ0UJWPX71V463XQYDOZYIDLRW5D","","57.5","img/animal2.png","74","58.29999999701977","1","0","2","1,0.7,0,0,1,0.7,0.7,0,1",""
"","html-keyboard-response","300","303378","0.0-300.0","3NKQQ8O39ZRLTXUL8Y6XT6X1C37DUI","A2K0L9M1ZZO5C9","3KVQ0UJWPX71V463XQYDOZYIDLRW5D","","null","<img src=""img/animal2.png"" style=""width:200px;border:14px solid red;"">","null","","","","","",""
"","image-keyboard-response","301","303851","0.0-301.0","3NKQQ8O39ZRLTXUL8Y6XT6X1C37DUI","A2K0L9M1ZZO5C9","3KVQ0UJWPX71V463XQYDOZYIDLRW5D","","471.8999999910593","img/animal2.png","76","473.29999999701977","3","0","2","1,0.7,0,0,1,0.7,0.7,0,1",""
"","html-keyboard-response","302","304153","0.0-302.0","3NKQQ8O39ZRLTXUL8Y6XT6X1C37DUI","A2K0L9M1ZZO5C9","3KVQ0UJWPX71V463XQYDOZYIDLRW5D","","null","<img src=""img/animal2.png"" style=""width:200px;border:14px solid red;"">","null","","","","","",""
"","image-keyboard-response","303","304948","0.0-303.0","3NKQQ8O39ZRLTXUL8Y6XT6X1C37DUI","A2K0L9M1ZZO5C9","3KVQ0UJWPX71V463XQYDOZYIDLRW5D","","793","img/animal6.png","74","793.9000000059605","1","1","3","1,0.7,0,0,1,0.7,0.7,0,1",""
"","html-keyboard-response","304","305249","0.0-304.0","3NKQQ8O39ZRLTXUL8Y6XT6X1C37DUI","A2K0L9M1ZZO5C9","3KVQ0UJWPX71V463XQYDOZYIDLRW5D","","null","<img src=""img/animal6.png"" style=""width:200px; border:14px solid green;"">","null","","","","","",""
"","image-keyboard-response","305","305650","0.0-305.0","3NKQQ8O39ZRLTXUL8Y6XT6X1C37DUI","A2K0L9M1ZZO5C9","3KVQ0UJWPX71V463XQYDOZYIDLRW5D","","399.79999999701977","img/animal6.png","74","400.90000000596046","1","1","3","1,0.7,0,0,1,0.7,0.7,0,1",""
"","html-keyboard-response","306","305964","0.0-306.0","3NKQQ8O39ZRLTXUL8Y6XT6X1C37DUI","A2K0L9M1ZZO5C9","3KVQ0UJWPX71V463XQYDOZYIDLRW5D","","null","<img src=""img/animal6.png"" style=""width:200px; border:14px solid green;"">","null","","","","","",""
"","image-keyboard-response","307","308303","0.0-307.0","3NKQQ8O39ZRLTXUL8Y6XT6X1C37DUI","A2K0L9M1ZZO5C9","3KVQ0UJWPX71V463XQYDOZYIDLRW5D","","2338.3999999910593","img/animal1.png","75","2339.2000000029802","2","1","1","1,0.7,0,0,1,0.7,0.7,0,1",""
"","html-keyboard-response","308","308606","0.0-308.0","3NKQQ8O39ZRLTXUL8Y6XT6X1C37DUI","A2K0L9M1ZZO5C9","3KVQ0UJWPX71V463XQYDOZYIDLRW5D","","null","<img src=""img/animal1.png"" style=""width:200px; border:14px solid green;"">","null","","","","","",""
"","image-keyboard-response","309","309149","0.0-309.0","3NKQQ8O39ZRLTXUL8Y6XT6X1C37DUI","A2K0L9M1ZZO5C9","3KVQ0UJWPX71V463XQYDOZYIDLRW5D","","536.5999999940395","img/animal2.png","76","537.5","3","0","2","1,0.7,0,0,1,0.7,0.7,0,1",""
"","html-keyboard-response","310","309450","0.0-310.0","3NKQQ8O39ZRLTXUL8Y6XT6X1C37DUI","A2K0L9M1ZZO5C9","3KVQ0UJWPX71V463XQYDOZYIDLRW5D","","null","<img src=""img/animal2.png"" style=""width:200px;border:14px solid red;"">","null","","","","","",""
"","image-keyboard-response","311","310250","0.0-311.0","3NKQQ8O39ZRLTXUL8Y6XT6X1C37DUI","A2K0L9M1ZZO5C9","3KVQ0UJWPX71V463XQYDOZYIDLRW5D","","798.3000000119209","img/animal6.png","74","799.7000000029802","1","1","3","1,0.7,0,0,1,0.7,0.7,0,1",""
"","html-keyboard-response","312","310552","0.0-312.0","3NKQQ8O39ZRLTXUL8Y6XT6X1C37DUI","A2K0L9M1ZZO5C9","3KVQ0UJWPX71V463XQYDOZYIDLRW5D","","null","<img src=""img/animal6.png"" style=""width:200px; border:14px solid green;"">","null","","","","","",""
"","image-keyboard-response","313","311006","0.0-313.0","3NKQQ8O39ZRLTXUL8Y6XT6X1C37DUI","A2K0L9M1ZZO5C9","3KVQ0UJWPX71V463XQYDOZYIDLRW5D","","453.30000001192093","img/animal1.png","75","453.79999999701977","2","1","1","1,0.7,0,0,1,0.7,0.7,0,1",""
"","html-keyboard-response","314","311307","0.0-314.0","3NKQQ8O39ZRLTXUL8Y6XT6X1C37DUI","A2K0L9M1ZZO5C9","3KVQ0UJWPX71V463XQYDOZYIDLRW5D","","null","<img src=""img/animal1.png"" style=""width:200px; border:14px solid green;"">","null","","","","","",""
"","image-keyboard-response","315","312327","0.0-315.0","3NKQQ8O39ZRLTXUL8Y6XT6X1C37DUI","A2K0L9M1ZZO5C9","3KVQ0UJWPX71V463XQYDOZYIDLRW5D","","1018.5999999940395","img/animal6.png","74","1019.4000000059605","1","1","3","1,0.7,0,0,1,0.7,0.7,0,1",""
"","html-keyboard-response","316","312628","0.0-316.0","3NKQQ8O39ZRLTXUL8Y6XT6X1C37DUI","A2K0L9M1ZZO5C9","3KVQ0UJWPX71V463XQYDOZYIDLRW5D","","null","<img src=""img/animal6.png"" style=""width:200px; border:14px solid green;"">","null","","","","","",""
"","image-keyboard-response","317","313205","0.0-317.0","3NKQQ8O39ZRLTXUL8Y6XT6X1C37DUI","A2K0L9M1ZZO5C9","3KVQ0UJWPX71V463XQYDOZYIDLRW5D","","575.4000000059605","img/animal1.png","75","576.5","2","0","1","1,0.7,0,0,1,0.7,0.7,0,1",""
"","html-keyboard-response","318","313507","0.0-318.0","3NKQQ8O39ZRLTXUL8Y6XT6X1C37DUI","A2K0L9M1ZZO5C9","3KVQ0UJWPX71V463XQYDOZYIDLRW5D","","null","<img src=""img/animal1.png"" style=""width:200px;border:14px solid red;"">","null","","","","","",""
"","image-keyboard-response","319","314263","0.0-319.0","3NKQQ8O39ZRLTXUL8Y6XT6X1C37DUI","A2K0L9M1ZZO5C9","3KVQ0UJWPX71V463XQYDOZYIDLRW5D","","754.9000000059605","img/animal6.png","74","755.8000000119209","1","0","3","1,0.7,0,0,1,0.7,0.7,0,1",""
"","html-keyboard-response","320","314567","0.0-320.0","3NKQQ8O39ZRLTXUL8Y6XT6X1C37DUI","A2K0L9M1ZZO5C9","3KVQ0UJWPX71V463XQYDOZYIDLRW5D","","null","<img src=""img/animal6.png"" style=""width:200px;border:14px solid red;"">","null","","","","","",""
"","image-keyboard-response","321","318384","0.0-321.0","3NKQQ8O39ZRLTXUL8Y6XT6X1C37DUI","A2K0L9M1ZZO5C9","3KVQ0UJWPX71V463XQYDOZYIDLRW5D","","3816.5","img/animal1.png","75","3817","2","1","1","1,0.7,0,0,1,0.7,0.7,0,1",""
"","html-keyboard-response","322","318686","0.0-322.0","3NKQQ8O39ZRLTXUL8Y6XT6X1C37DUI","A2K0L9M1ZZO5C9","3KVQ0UJWPX71V463XQYDOZYIDLRW5D","","null","<img src=""img/animal1.png"" style=""width:200px; border:14px solid green;"">","null","","","","","",""
"","image-keyboard-response","323","319327","0.0-323.0","3NKQQ8O39ZRLTXUL8Y6XT6X1C37DUI","A2K0L9M1ZZO5C9","3KVQ0UJWPX71V463XQYDOZYIDLRW5D","","639.6000000089407","img/animal6.png","74","640.4000000059605","1","1","3","1,0.7,0,0,1,0.7,0.7,0,1",""
"","html-keyboard-response","324","319629","0.0-324.0","3NKQQ8O39ZRLTXUL8Y6XT6X1C37DUI","A2K0L9M1ZZO5C9","3KVQ0UJWPX71V463XQYDOZYIDLRW5D","","null","<img src=""img/animal6.png"" style=""width:200px; border:14px solid green;"">","null","","","","","",""
"","image-keyboard-response","325","320315","0.0-325.0","3NKQQ8O39ZRLTXUL8Y6XT6X1C37DUI","A2K0L9M1ZZO5C9","3KVQ0UJWPX71V463XQYDOZYIDLRW5D","","684","img/animal1.png","75","685.5","2","0","1","1,0.7,0,0,1,0.7,0.7,0,1",""
"","html-keyboard-response","326","320616","0.0-326.0","3NKQQ8O39ZRLTXUL8Y6XT6X1C37DUI","A2K0L9M1ZZO5C9","3KVQ0UJWPX71V463XQYDOZYIDLRW5D","","null","<img src=""img/animal1.png"" style=""width:200px;border:14px solid red;"">","null","","","","","",""
"","image-keyboard-response","327","321323","0.0-327.0","3NKQQ8O39ZRLTXUL8Y6XT6X1C37DUI","A2K0L9M1ZZO5C9","3KVQ0UJWPX71V463XQYDOZYIDLRW5D","","706.4000000059605","img/animal2.png","76","707.2000000029802","3","1","2","1,0.7,0,0,1,0.7,0.7,0,1",""
"","html-keyboard-response","328","321625","0.0-328.0","3NKQQ8O39ZRLTXUL8Y6XT6X1C37DUI","A2K0L9M1ZZO5C9","3KVQ0UJWPX71V463XQYDOZYIDLRW5D","","null","<img src=""img/animal2.png"" style=""width:200px; border:14px solid green;"">","null","","","","","",""
"","image-keyboard-response","329","322072","0.0-329.0","3NKQQ8O39ZRLTXUL8Y6XT6X1C37DUI","A2K0L9M1ZZO5C9","3KVQ0UJWPX71V463XQYDOZYIDLRW5D","","445.79999999701977","img/animal6.png","74","447.1000000089407","1","1","3","1,0.7,0,0,1,0.7,0.7,0,1",""
"","html-keyboard-response","330","322374","0.0-330.0","3NKQQ8O39ZRLTXUL8Y6XT6X1C37DUI","A2K0L9M1ZZO5C9","3KVQ0UJWPX71V463XQYDOZYIDLRW5D","","null","<img src=""img/animal6.png"" style=""width:200px; border:14px solid green;"">","null","","","","","",""
"","image-keyboard-response","331","322848","0.0-331.0","3NKQQ8O39ZRLTXUL8Y6XT6X1C37DUI","A2K0L9M1ZZO5C9","3KVQ0UJWPX71V463XQYDOZYIDLRW5D","","472.70000000298023","img/animal1.png","75","473.59999999403954","2","1","1","1,0.7,0,0,1,0.7,0.7,0,1",""
"","html-keyboard-response","332","323150","0.0-332.0","3NKQQ8O39ZRLTXUL8Y6XT6X1C37DUI","A2K0L9M1ZZO5C9","3KVQ0UJWPX71V463XQYDOZYIDLRW5D","","null","<img src=""img/animal1.png"" style=""width:200px; border:14px solid green;"">","null","","","","","",""
"","image-keyboard-response","333","323843","0.0-333.0","3NKQQ8O39ZRLTXUL8Y6XT6X1C37DUI","A2K0L9M1ZZO5C9","3KVQ0UJWPX71V463XQYDOZYIDLRW5D","","691.6000000089407","img/animal1.png","75","692.7999999970198","2","1","1","1,0.7,0,0,1,0.7,0.7,0,1",""
"","html-keyboard-response","334","324145","0.0-334.0","3NKQQ8O39ZRLTXUL8Y6XT6X1C37DUI","A2K0L9M1ZZO5C9","3KVQ0UJWPX71V463XQYDOZYIDLRW5D","","null","<img src=""img/animal1.png"" style=""width:200px; border:14px solid green;"">","null","","","","","",""
"","image-keyboard-response","335","324914","0.0-335.0","3NKQQ8O39ZRLTXUL8Y6XT6X1C37DUI","A2K0L9M1ZZO5C9","3KVQ0UJWPX71V463XQYDOZYIDLRW5D","","767.7000000029802","img/animal6.png","74","768.3999999910593","1","0","3","1,0.7,0,0,1,0.7,0.7,0,1",""
"","html-keyboard-response","336","325215","0.0-336.0","3NKQQ8O39ZRLTXUL8Y6XT6X1C37DUI","A2K0L9M1ZZO5C9","3KVQ0UJWPX71V463XQYDOZYIDLRW5D","","null","<img src=""img/animal6.png"" style=""width:200px;border:14px solid red;"">","null","","","","","",""
"","image-keyboard-response","337","327129","0.0-337.0","3NKQQ8O39ZRLTXUL8Y6XT6X1C37DUI","A2K0L9M1ZZO5C9","3KVQ0UJWPX71V463XQYDOZYIDLRW5D","","1913.2000000029802","img/animal1.png","75","1914","2","0","1","1,0.7,0,0,1,0.7,0.7,0,1",""
"","html-keyboard-response","338","327431","0.0-338.0","3NKQQ8O39ZRLTXUL8Y6XT6X1C37DUI","A2K0L9M1ZZO5C9","3KVQ0UJWPX71V463XQYDOZYIDLRW5D","","null","<img src=""img/animal1.png"" style=""width:200px;border:14px solid red;"">","null","","","","","",""
"","image-keyboard-response","339","329594","0.0-339.0","3NKQQ8O39ZRLTXUL8Y6XT6X1C37DUI","A2K0L9M1ZZO5C9","3KVQ0UJWPX71V463XQYDOZYIDLRW5D","","2162.4000000059605","img/animal2.png","74","2163","1","0","2","1,0.7,0,0,1,0.7,0.7,0,1",""
"","html-keyboard-response","340","329896","0.0-340.0","3NKQQ8O39ZRLTXUL8Y6XT6X1C37DUI","A2K0L9M1ZZO5C9","3KVQ0UJWPX71V463XQYDOZYIDLRW5D","","null","<img src=""img/animal2.png"" style=""width:200px;border:14px solid red;"">","null","","","","","",""
"","image-keyboard-response","341","330489","0.0-341.0","3NKQQ8O39ZRLTXUL8Y6XT6X1C37DUI","A2K0L9M1ZZO5C9","3KVQ0UJWPX71V463XQYDOZYIDLRW5D","","591.5","img/animal2.png","76","592.6999999880791","3","0","2","1,0.7,0,0,1,0.7,0.7,0,1",""
"","html-keyboard-response","342","330792","0.0-342.0","3NKQQ8O39ZRLTXUL8Y6XT6X1C37DUI","A2K0L9M1ZZO5C9","3KVQ0UJWPX71V463XQYDOZYIDLRW5D","","null","<img src=""img/animal2.png"" style=""width:200px;border:14px solid red;"">","null","","","","","",""
"","image-keyboard-response","343","331619","0.0-343.0","3NKQQ8O39ZRLTXUL8Y6XT6X1C37DUI","A2K0L9M1ZZO5C9","3KVQ0UJWPX71V463XQYDOZYIDLRW5D","","826.1000000089407","img/animal6.png","74","826.9000000059605","1","1","3","1,0.7,0,0,1,0.7,0.7,0,1",""
"","html-keyboard-response","344","331921","0.0-344.0","3NKQQ8O39ZRLTXUL8Y6XT6X1C37DUI","A2K0L9M1ZZO5C9","3KVQ0UJWPX71V463XQYDOZYIDLRW5D","","null","<img src=""img/animal6.png"" style=""width:200px; border:14px solid green;"">","null","","","","","",""
"","image-keyboard-response","345","332507","0.0-345.0","3NKQQ8O39ZRLTXUL8Y6XT6X1C37DUI","A2K0L9M1ZZO5C9","3KVQ0UJWPX71V463XQYDOZYIDLRW5D","","585.4000000059605","img/animal1.png","75","586","2","1","1","1,0.7,0,0,1,0.7,0.7,0,1",""
"","html-keyboard-response","346","332809","0.0-346.0","3NKQQ8O39ZRLTXUL8Y6XT6X1C37DUI","A2K0L9M1ZZO5C9","3KVQ0UJWPX71V463XQYDOZYIDLRW5D","","null","<img src=""img/animal1.png"" style=""width:200px; border:14px solid green;"">","null","","","","","",""
"","image-keyboard-response","347","333492","0.0-347.0","3NKQQ8O39ZRLTXUL8Y6XT6X1C37DUI","A2K0L9M1ZZO5C9","3KVQ0UJWPX71V463XQYDOZYIDLRW5D","","682","img/animal6.png","74","683.2000000029802","1","1","3","1,0.7,0,0,1,0.7,0.7,0,1",""
"","html-keyboard-response","348","333794","0.0-348.0","3NKQQ8O39ZRLTXUL8Y6XT6X1C37DUI","A2K0L9M1ZZO5C9","3KVQ0UJWPX71V463XQYDOZYIDLRW5D","","null","<img src=""img/animal6.png"" style=""width:200px; border:14px solid green;"">","null","","","","","",""
"","image-keyboard-response","349","334238","0.0-349.0","3NKQQ8O39ZRLTXUL8Y6XT6X1C37DUI","A2K0L9M1ZZO5C9","3KVQ0UJWPX71V463XQYDOZYIDLRW5D","","443","img/animal6.png","74","443.59999999403954","1","1","3","1,0.7,0,0,1,0.7,0.7,0,1",""
"","html-keyboard-response","350","334539","0.0-350.0","3NKQQ8O39ZRLTXUL8Y6XT6X1C37DUI","A2K0L9M1ZZO5C9","3KVQ0UJWPX71V463XQYDOZYIDLRW5D","","null","<img src=""img/animal6.png"" style=""width:200px; border:14px solid green;"">","null","","","","","",""
"","image-keyboard-response","351","335144","0.0-351.0","3NKQQ8O39ZRLTXUL8Y6XT6X1C37DUI","A2K0L9M1ZZO5C9","3KVQ0UJWPX71V463XQYDOZYIDLRW5D","","604","img/animal2.png","76","604.9000000059605","3","1","2","1,0.7,0,0,1,0.7,0.7,0,1",""
"","html-keyboard-response","352","335446","0.0-352.0","3NKQQ8O39ZRLTXUL8Y6XT6X1C37DUI","A2K0L9M1ZZO5C9","3KVQ0UJWPX71V463XQYDOZYIDLRW5D","","null","<img src=""img/animal2.png"" style=""width:200px; border:14px solid green;"">","null","","","","","",""
"","image-keyboard-response","353","336195","0.0-353.0","3NKQQ8O39ZRLTXUL8Y6XT6X1C37DUI","A2K0L9M1ZZO5C9","3KVQ0UJWPX71V463XQYDOZYIDLRW5D","","748.7000000029802","img/animal1.png","75","749.6000000089407","2","1","1","1,0.7,0,0,1,0.7,0.7,0,1",""
"","html-keyboard-response","354","336496","0.0-354.0","3NKQQ8O39ZRLTXUL8Y6XT6X1C37DUI","A2K0L9M1ZZO5C9","3KVQ0UJWPX71V463XQYDOZYIDLRW5D","","null","<img src=""img/animal1.png"" style=""width:200px; border:14px solid green;"">","null","","","","","",""
"","image-keyboard-response","355","339295","0.0-355.0","3NKQQ8O39ZRLTXUL8Y6XT6X1C37DUI","A2K0L9M1ZZO5C9","3KVQ0UJWPX71V463XQYDOZYIDLRW5D","","2797.5999999940395","img/animal2.png","76","2798.5","3","1","2","1,0.7,0,0,1,0.7,0.7,0,1",""
"","html-keyboard-response","356","339598","0.0-356.0","3NKQQ8O39ZRLTXUL8Y6XT6X1C37DUI","A2K0L9M1ZZO5C9","3KVQ0UJWPX71V463XQYDOZYIDLRW5D","","null","<img src=""img/animal2.png"" style=""width:200px; border:14px solid green;"">","null","","","","","",""
"","image-keyboard-response","357","340460","0.0-357.0","3NKQQ8O39ZRLTXUL8Y6XT6X1C37DUI","A2K0L9M1ZZO5C9","3KVQ0UJWPX71V463XQYDOZYIDLRW5D","","860.5999999940395","img/animal2.png","76","861.8999999910593","3","1","2","1,0.7,0,0,1,0.7,0.7,0,1",""
"","html-keyboard-response","358","340761","0.0-358.0","3NKQQ8O39ZRLTXUL8Y6XT6X1C37DUI","A2K0L9M1ZZO5C9","3KVQ0UJWPX71V463XQYDOZYIDLRW5D","","null","<img src=""img/animal2.png"" style=""width:200px; border:14px solid green;"">","null","","","","","",""
"","image-keyboard-response","359","342103","0.0-359.0","3NKQQ8O39ZRLTXUL8Y6XT6X1C37DUI","A2K0L9M1ZZO5C9","3KVQ0UJWPX71V463XQYDOZYIDLRW5D","","1341.2999999970198","img/animal1.png","75","1342.0999999940395","2","0","1","1,0.7,0,0,1,0.7,0.7,0,1",""
"","html-keyboard-response","360","342404","0.0-360.0","3NKQQ8O39ZRLTXUL8Y6XT6X1C37DUI","A2K0L9M1ZZO5C9","3KVQ0UJWPX71V463XQYDOZYIDLRW5D","","null","<img src=""img/animal1.png"" style=""width:200px;border:14px solid red;"">","null","","","","","",""
"","image-keyboard-response","361","343105","0.0-361.0","3NKQQ8O39ZRLTXUL8Y6XT6X1C37DUI","A2K0L9M1ZZO5C9","3KVQ0UJWPX71V463XQYDOZYIDLRW5D","","699.1000000089407","img/animal1.png","75","700.0999999940395","2","0","1","1,0.7,0,0,1,0.7,0.7,0,1",""
"","html-keyboard-response","362","343406","0.0-362.0","3NKQQ8O39ZRLTXUL8Y6XT6X1C37DUI","A2K0L9M1ZZO5C9","3KVQ0UJWPX71V463XQYDOZYIDLRW5D","","null","<img src=""img/animal1.png"" style=""width:200px;border:14px solid red;"">","null","","","","","",""
"","instructions","363","346192","0.0-363.0","3NKQQ8O39ZRLTXUL8Y6XT6X1C37DUI","A2K0L9M1ZZO5C9","3KVQ0UJWPX71V463XQYDOZYIDLRW5D","[{""page_index"":0,""viewing_time"":2784.699999988079}]","2785","","","","","","","",""
"","survey-text","364","355080","0.0-364.0","3NKQQ8O39ZRLTXUL8Y6XT6X1C37DUI","A2K0L9M1ZZO5C9","3KVQ0UJWPX71V463XQYDOZYIDLRW5D","","8886.20000000298","","","","","","","","{""Q0"":""A2K0L9M1ZZO5C9""}"
