"success","trial_type","trial_index","time_elapsed","internal_node_id","assignmentID","mturkID","hitID","view_history","rt","stimulus","key_press","reactionTime","a","r","s","reward_cond","responses"
"true","fullscreen","0","4460","0.0-0.0","3N4BPTXIO9ET730V0FSKXJSRUHYUKE","A2KW87ZD2ELYNG","3H6W48L9F4B5OEOMH57RM53Z4H1WP0","","","","","","","","","",""
"","instructions","1","58185","0.0-1.0","3N4BPTXIO9ET730V0FSKXJSRUHYUKE","A2KW87ZD2ELYNG","3H6W48L9F4B5OEOMH57RM53Z4H1WP0","[{""page_index"":0,""viewing_time"":12097.800000190735},{""page_index"":1,""viewing_time"":5175.5},{""page_index"":2,""viewing_time"":5259.399999856949},{""page_index"":3,""viewing_time"":20730.200000047684},{""page_index"":4,""viewing_time"":2715.2999999523163},{""page_index"":5,""viewing_time"":2968.4000000953674},{""page_index"":6,""viewing_time"":2335.2999999523163},{""page_index"":7,""viewing_time"":2441.4000000953674}]","53723.90000009537","","","","","","","",""
"","image-keyboard-response","2","61392","0.0-2.0","3N4BPTXIO9ET730V0FSKXJSRUHYUKE","A2KW87ZD2ELYNG","3H6W48L9F4B5OEOMH57RM53Z4H1WP0","","3206.5","img/animal5.png","75","3207.2999999523163","2","1","1","1,0.5,0,0,1,0.5,0.5,0,1",""
"","html-keyboard-response","3","61700","0.0-3.0","3N4BPTXIO9ET730V0FSKXJSRUHYUKE","A2KW87ZD2ELYNG","3H6W48L9F4B5OEOMH57RM53Z4H1WP0","","null","<img src=""img/animal5.png"" style=""width:200px; border:14px solid green;"">","null","","","","","",""
"","image-keyboard-response","4","62766","0.0-4.0","3N4BPTXIO9ET730V0FSKXJSRUHYUKE","A2KW87ZD2ELYNG","3H6W48L9F4B5OEOMH57RM53Z4H1WP0","","1065.5999999046326","img/animal3.png","76","1066.0999999046326","3","0","2","1,0.5,0,0,1,0.5,0.5,0,1",""
"","html-keyboard-response","5","63068","0.0-5.0","3N4BPTXIO9ET730V0FSKXJSRUHYUKE","A2KW87ZD2ELYNG","3H6W48L9F4B5OEOMH57RM53Z4H1WP0","","null","<img src=""img/animal3.png"" style=""width:200px;border:14px solid red;"">","null","","","","","",""
"","image-keyboard-response","6","64161","0.0-6.0","3N4BPTXIO9ET730V0FSKXJSRUHYUKE","A2KW87ZD2ELYNG","3H6W48L9F4B5OEOMH57RM53Z4H1WP0","","1092.2999999523163","img/animal4.png","74","1092.7999999523163","1","1","3","1,0.5,0,0,1,0.5,0.5,0,1",""
"","html-keyboard-response","7","64468","0.0-7.0","3N4BPTXIO9ET730V0FSKXJSRUHYUKE","A2KW87ZD2ELYNG","3H6W48L9F4B5OEOMH57RM53Z4H1WP0","","null","<img src=""img/animal4.png"" style=""width:200px; border:14px solid green;"">","null","","","","","",""
"","image-keyboard-response","8","65142","0.0-8.0","3N4BPTXIO9ET730V0FSKXJSRUHYUKE","A2KW87ZD2ELYNG","3H6W48L9F4B5OEOMH57RM53Z4H1WP0","","673.3999998569489","img/animal4.png","74","674","1","0","3","1,0.5,0,0,1,0.5,0.5,0,1",""
"","html-keyboard-response","9","65444","0.0-9.0","3N4BPTXIO9ET730V0FSKXJSRUHYUKE","A2KW87ZD2ELYNG","3H6W48L9F4B5OEOMH57RM53Z4H1WP0","","null","<img src=""img/animal4.png"" style=""width:200px;border:14px solid red;"">","null","","","","","",""
"","image-keyboard-response","10","66001","0.0-10.0","3N4BPTXIO9ET730V0FSKXJSRUHYUKE","A2KW87ZD2ELYNG","3H6W48L9F4B5OEOMH57RM53Z4H1WP0","","556.5","img/animal3.png","76","557.0999999046326","3","1","2","1,0.5,0,0,1,0.5,0.5,0,1",""
"","html-keyboard-response","11","66308","0.0-11.0","3N4BPTXIO9ET730V0FSKXJSRUHYUKE","A2KW87ZD2ELYNG","3H6W48L9F4B5OEOMH57RM53Z4H1WP0","","null","<img src=""img/animal3.png"" style=""width:200px; border:14px solid green;"">","null","","","","","",""
"","image-keyboard-response","12","67213","0.0-12.0","3N4BPTXIO9ET730V0FSKXJSRUHYUKE","A2KW87ZD2ELYNG","3H6W48L9F4B5OEOMH57RM53Z4H1WP0","","904.3000001907349","img/animal4.png","74","904.7999999523163","1","0","3","1,0.5,0,0,1,0.5,0.5,0,1",""
"","html-keyboard-response","13","67516","0.0-13.0","3N4BPTXIO9ET730V0FSKXJSRUHYUKE","A2KW87ZD2ELYNG","3H6W48L9F4B5OEOMH57RM53Z4H1WP0","","null","<img src=""img/animal4.png"" style=""width:200px;border:14px solid red;"">","null","","","","","",""
"","image-keyboard-response","14","68214","0.0-14.0","3N4BPTXIO9ET730V0FSKXJSRUHYUKE","A2KW87ZD2ELYNG","3H6W48L9F4B5OEOMH57RM53Z4H1WP0","","697.2000000476837","img/animal3.png","76","697.7999999523163","3","1","2","1,0.5,0,0,1,0.5,0.5,0,1",""
"","html-keyboard-response","15","68516","0.0-15.0","3N4BPTXIO9ET730V0FSKXJSRUHYUKE","A2KW87ZD2ELYNG","3H6W48L9F4B5OEOMH57RM53Z4H1WP0","","null","<img src=""img/animal3.png"" style=""width:200px; border:14px solid green;"">","null","","","","","",""
"","image-keyboard-response","16","69063","0.0-16.0","3N4BPTXIO9ET730V0FSKXJSRUHYUKE","A2KW87ZD2ELYNG","3H6W48L9F4B5OEOMH57RM53Z4H1WP0","","546.3000001907349","img/animal3.png","76","546.5999999046326","3","1","2","1,0.5,0,0,1,0.5,0.5,0,1",""
"","html-keyboard-response","17","69364","0.0-17.0","3N4BPTXIO9ET730V0FSKXJSRUHYUKE","A2KW87ZD2ELYNG","3H6W48L9F4B5OEOMH57RM53Z4H1WP0","","null","<img src=""img/animal3.png"" style=""width:200px; border:14px solid green;"">","null","","","","","",""
"","image-keyboard-response","18","69895","0.0-18.0","3N4BPTXIO9ET730V0FSKXJSRUHYUKE","A2KW87ZD2ELYNG","3H6W48L9F4B5OEOMH57RM53Z4H1WP0","","530","img/animal3.png","76","530.6999998092651","3","0","2","1,0.5,0,0,1,0.5,0.5,0,1",""
"","html-keyboard-response","19","70196","0.0-19.0","3N4BPTXIO9ET730V0FSKXJSRUHYUKE","A2KW87ZD2ELYNG","3H6W48L9F4B5OEOMH57RM53Z4H1WP0","","null","<img src=""img/animal3.png"" style=""width:200px;border:14px solid red;"">","null","","","","","",""
"","image-keyboard-response","20","71654","0.0-20.0","3N4BPTXIO9ET730V0FSKXJSRUHYUKE","A2KW87ZD2ELYNG","3H6W48L9F4B5OEOMH57RM53Z4H1WP0","","1457.7000000476837","img/animal5.png","75","1458.2999999523163","2","1","1","1,0.5,0,0,1,0.5,0.5,0,1",""
"","html-keyboard-response","21","71956","0.0-21.0","3N4BPTXIO9ET730V0FSKXJSRUHYUKE","A2KW87ZD2ELYNG","3H6W48L9F4B5OEOMH57RM53Z4H1WP0","","null","<img src=""img/animal5.png"" style=""width:200px; border:14px solid green;"">","null","","","","","",""
"","image-keyboard-response","22","72735","0.0-22.0","3N4BPTXIO9ET730V0FSKXJSRUHYUKE","A2KW87ZD2ELYNG","3H6W48L9F4B5OEOMH57RM53Z4H1WP0","","778","img/animal3.png","76","778.5","3","0","2","1,0.5,0,0,1,0.5,0.5,0,1",""
"","html-keyboard-response","23","73036","0.0-23.0","3N4BPTXIO9ET730V0FSKXJSRUHYUKE","A2KW87ZD2ELYNG","3H6W48L9F4B5OEOMH57RM53Z4H1WP0","","null","<img src=""img/animal3.png"" style=""width:200px;border:14px solid red;"">","null","","","","","",""
"","image-keyboard-response","24","73665","0.0-24.0","3N4BPTXIO9ET730V0FSKXJSRUHYUKE","A2KW87ZD2ELYNG","3H6W48L9F4B5OEOMH57RM53Z4H1WP0","","628","img/animal5.png","75","628.6000001430511","2","1","1","1,0.5,0,0,1,0.5,0.5,0,1",""
"","html-keyboard-response","25","73972","0.0-25.0","3N4BPTXIO9ET730V0FSKXJSRUHYUKE","A2KW87ZD2ELYNG","3H6W48L9F4B5OEOMH57RM53Z4H1WP0","","null","<img src=""img/animal5.png"" style=""width:200px; border:14px solid green;"">","null","","","","","",""
"","image-keyboard-response","26","74659","0.0-26.0","3N4BPTXIO9ET730V0FSKXJSRUHYUKE","A2KW87ZD2ELYNG","3H6W48L9F4B5OEOMH57RM53Z4H1WP0","","686.4000000953674","img/animal5.png","75","687.0999999046326","2","0","1","1,0.5,0,0,1,0.5,0.5,0,1",""
"","html-keyboard-response","27","74964","0.0-27.0","3N4BPTXIO9ET730V0FSKXJSRUHYUKE","A2KW87ZD2ELYNG","3H6W48L9F4B5OEOMH57RM53Z4H1WP0","","null","<img src=""img/animal5.png"" style=""width:200px;border:14px solid red;"">","null","","","","","",""
"","image-keyboard-response","28","75674","0.0-28.0","3N4BPTXIO9ET730V0FSKXJSRUHYUKE","A2KW87ZD2ELYNG","3H6W48L9F4B5OEOMH57RM53Z4H1WP0","","709.7999999523163","img/animal3.png","76","710.3999998569489","3","0","2","1,0.5,0,0,1,0.5,0.5,0,1",""
"","html-keyboard-response","29","75980","0.0-29.0","3N4BPTXIO9ET730V0FSKXJSRUHYUKE","A2KW87ZD2ELYNG","3H6W48L9F4B5OEOMH57RM53Z4H1WP0","","null","<img src=""img/animal3.png"" style=""width:200px;border:14px solid red;"">","null","","","","","",""
"","image-keyboard-response","30","76435","0.0-30.0","3N4BPTXIO9ET730V0FSKXJSRUHYUKE","A2KW87ZD2ELYNG","3H6W48L9F4B5OEOMH57RM53Z4H1WP0","","454.2999999523163","img/animal3.png","76","454.7999999523163","3","0","2","1,0.5,0,0,1,0.5,0.5,0,1",""
"","html-keyboard-response","31","76740","0.0-31.0","3N4BPTXIO9ET730V0FSKXJSRUHYUKE","A2KW87ZD2ELYNG","3H6W48L9F4B5OEOMH57RM53Z4H1WP0","","null","<img src=""img/animal3.png"" style=""width:200px;border:14px solid red;"">","null","","","","","",""
"","image-keyboard-response","32","77433","0.0-32.0","3N4BPTXIO9ET730V0FSKXJSRUHYUKE","A2KW87ZD2ELYNG","3H6W48L9F4B5OEOMH57RM53Z4H1WP0","","692","img/animal5.png","75","692.7000000476837","2","0","1","1,0.5,0,0,1,0.5,0.5,0,1",""
"","html-keyboard-response","33","77740","0.0-33.0","3N4BPTXIO9ET730V0FSKXJSRUHYUKE","A2KW87ZD2ELYNG","3H6W48L9F4B5OEOMH57RM53Z4H1WP0","","null","<img src=""img/animal5.png"" style=""width:200px;border:14px solid red;"">","null","","","","","",""
"","image-keyboard-response","34","78627","0.0-34.0","3N4BPTXIO9ET730V0FSKXJSRUHYUKE","A2KW87ZD2ELYNG","3H6W48L9F4B5OEOMH57RM53Z4H1WP0","","886.5999999046326","img/animal4.png","74","887.0999999046326","1","0","3","1,0.5,0,0,1,0.5,0.5,0,1",""
"","html-keyboard-response","35","78932","0.0-35.0","3N4BPTXIO9ET730V0FSKXJSRUHYUKE","A2KW87ZD2ELYNG","3H6W48L9F4B5OEOMH57RM53Z4H1WP0","","null","<img src=""img/animal4.png"" style=""width:200px;border:14px solid red;"">","null","","","","","",""
"","image-keyboard-response","36","80260","0.0-36.0","3N4BPTXIO9ET730V0FSKXJSRUHYUKE","A2KW87ZD2ELYNG","3H6W48L9F4B5OEOMH57RM53Z4H1WP0","","1327.9000000953674","img/animal5.png","75","1328.3999998569489","2","1","1","1,0.5,0,0,1,0.5,0.5,0,1",""
"","html-keyboard-response","37","80564","0.0-37.0","3N4BPTXIO9ET730V0FSKXJSRUHYUKE","A2KW87ZD2ELYNG","3H6W48L9F4B5OEOMH57RM53Z4H1WP0","","null","<img src=""img/animal5.png"" style=""width:200px; border:14px solid green;"">","null","","","","","",""
"","image-keyboard-response","38","83074","0.0-38.0","3N4BPTXIO9ET730V0FSKXJSRUHYUKE","A2KW87ZD2ELYNG","3H6W48L9F4B5OEOMH57RM53Z4H1WP0","","2509.5","img/animal4.png","74","2510.100000143051","1","0","3","1,0.5,0,0,1,0.5,0.5,0,1",""
"","html-keyboard-response","39","83380","0.0-39.0","3N4BPTXIO9ET730V0FSKXJSRUHYUKE","A2KW87ZD2ELYNG","3H6W48L9F4B5OEOMH57RM53Z4H1WP0","","null","<img src=""img/animal4.png"" style=""width:200px;border:14px solid red;"">","null","","","","","",""
"","image-keyboard-response","40","83997","0.0-40.0","3N4BPTXIO9ET730V0FSKXJSRUHYUKE","A2KW87ZD2ELYNG","3H6W48L9F4B5OEOMH57RM53Z4H1WP0","","616.7000000476837","img/animal3.png","76","617.2000000476837","3","1","2","1,0.5,0,0,1,0.5,0.5,0,1",""
"","html-keyboard-response","41","84300","0.0-41.0","3N4BPTXIO9ET730V0FSKXJSRUHYUKE","A2KW87ZD2ELYNG","3H6W48L9F4B5OEOMH57RM53Z4H1WP0","","null","<img src=""img/animal3.png"" style=""width:200px; border:14px solid green;"">","null","","","","","",""
"","image-keyboard-response","42","85270","0.0-42.0","3N4BPTXIO9ET730V0FSKXJSRUHYUKE","A2KW87ZD2ELYNG","3H6W48L9F4B5OEOMH57RM53Z4H1WP0","","969","img/animal5.png","75","969.5","2","0","1","1,0.5,0,0,1,0.5,0.5,0,1",""
"","html-keyboard-response","43","85572","0.0-43.0","3N4BPTXIO9ET730V0FSKXJSRUHYUKE","A2KW87ZD2ELYNG","3H6W48L9F4B5OEOMH57RM53Z4H1WP0","","null","<img src=""img/animal5.png"" style=""width:200px;border:14px solid red;"">","null","","","","","",""
"","image-keyboard-response","44","86759","0.0-44.0","3N4BPTXIO9ET730V0FSKXJSRUHYUKE","A2KW87ZD2ELYNG","3H6W48L9F4B5OEOMH57RM53Z4H1WP0","","1186.4000000953674","img/animal4.png","74","1187.0999999046326","1","1","3","1,0.5,0,0,1,0.5,0.5,0,1",""
"","html-keyboard-response","45","87068","0.0-45.0","3N4BPTXIO9ET730V0FSKXJSRUHYUKE","A2KW87ZD2ELYNG","3H6W48L9F4B5OEOMH57RM53Z4H1WP0","","null","<img src=""img/animal4.png"" style=""width:200px; border:14px solid green;"">","null","","","","","",""
"","image-keyboard-response","46","87541","0.0-46.0","3N4BPTXIO9ET730V0FSKXJSRUHYUKE","A2KW87ZD2ELYNG","3H6W48L9F4B5OEOMH57RM53Z4H1WP0","","471.90000009536743","img/animal4.png","74","472.5","1","1","3","1,0.5,0,0,1,0.5,0.5,0,1",""
"","html-keyboard-response","47","87844","0.0-47.0","3N4BPTXIO9ET730V0FSKXJSRUHYUKE","A2KW87ZD2ELYNG","3H6W48L9F4B5OEOMH57RM53Z4H1WP0","","null","<img src=""img/animal4.png"" style=""width:200px; border:14px solid green;"">","null","","","","","",""
"","image-keyboard-response","48","88200","0.0-48.0","3N4BPTXIO9ET730V0FSKXJSRUHYUKE","A2KW87ZD2ELYNG","3H6W48L9F4B5OEOMH57RM53Z4H1WP0","","355.2000000476837","img/animal4.png","74","355.60000014305115","1","1","3","1,0.5,0,0,1,0.5,0.5,0,1",""
"","html-keyboard-response","49","88508","0.0-49.0","3N4BPTXIO9ET730V0FSKXJSRUHYUKE","A2KW87ZD2ELYNG","3H6W48L9F4B5OEOMH57RM53Z4H1WP0","","null","<img src=""img/animal4.png"" style=""width:200px; border:14px solid green;"">","null","","","","","",""
"","image-keyboard-response","50","89208","0.0-50.0","3N4BPTXIO9ET730V0FSKXJSRUHYUKE","A2KW87ZD2ELYNG","3H6W48L9F4B5OEOMH57RM53Z4H1WP0","","699.6000001430511","img/animal5.png","75","700","2","1","1","1,0.5,0,0,1,0.5,0.5,0,1",""
"","html-keyboard-response","51","89516","0.0-51.0","3N4BPTXIO9ET730V0FSKXJSRUHYUKE","A2KW87ZD2ELYNG","3H6W48L9F4B5OEOMH57RM53Z4H1WP0","","null","<img src=""img/animal5.png"" style=""width:200px; border:14px solid green;"">","null","","","","","",""
"","image-keyboard-response","52","90484","0.0-52.0","3N4BPTXIO9ET730V0FSKXJSRUHYUKE","A2KW87ZD2ELYNG","3H6W48L9F4B5OEOMH57RM53Z4H1WP0","","967.5","img/animal4.png","74","968","1","1","3","1,0.5,0,0,1,0.5,0.5,0,1",""
"","html-keyboard-response","53","90788","0.0-53.0","3N4BPTXIO9ET730V0FSKXJSRUHYUKE","A2KW87ZD2ELYNG","3H6W48L9F4B5OEOMH57RM53Z4H1WP0","","null","<img src=""img/animal4.png"" style=""width:200px; border:14px solid green;"">","null","","","","","",""
"","image-keyboard-response","54","91679","0.0-54.0","3N4BPTXIO9ET730V0FSKXJSRUHYUKE","A2KW87ZD2ELYNG","3H6W48L9F4B5OEOMH57RM53Z4H1WP0","","890.0999999046326","img/animal3.png","76","890.5","3","1","2","1,0.5,0,0,1,0.5,0.5,0,1",""
"","html-keyboard-response","55","91980","0.0-55.0","3N4BPTXIO9ET730V0FSKXJSRUHYUKE","A2KW87ZD2ELYNG","3H6W48L9F4B5OEOMH57RM53Z4H1WP0","","null","<img src=""img/animal3.png"" style=""width:200px; border:14px solid green;"">","null","","","","","",""
"","image-keyboard-response","56","92429","0.0-56.0","3N4BPTXIO9ET730V0FSKXJSRUHYUKE","A2KW87ZD2ELYNG","3H6W48L9F4B5OEOMH57RM53Z4H1WP0","","448.59999990463257","img/animal3.png","76","449","3","1","2","1,0.5,0,0,1,0.5,0.5,0,1",""
"","html-keyboard-response","57","92732","0.0-57.0","3N4BPTXIO9ET730V0FSKXJSRUHYUKE","A2KW87ZD2ELYNG","3H6W48L9F4B5OEOMH57RM53Z4H1WP0","","null","<img src=""img/animal3.png"" style=""width:200px; border:14px solid green;"">","null","","","","","",""
"","image-keyboard-response","58","93068","0.0-58.0","3N4BPTXIO9ET730V0FSKXJSRUHYUKE","A2KW87ZD2ELYNG","3H6W48L9F4B5OEOMH57RM53Z4H1WP0","","335.2000000476837","img/animal3.png","76","335.7999999523163","3","1","2","1,0.5,0,0,1,0.5,0.5,0,1",""
"","html-keyboard-response","59","93372","0.0-59.0","3N4BPTXIO9ET730V0FSKXJSRUHYUKE","A2KW87ZD2ELYNG","3H6W48L9F4B5OEOMH57RM53Z4H1WP0","","null","<img src=""img/animal3.png"" style=""width:200px; border:14px solid green;"">","null","","","","","",""
"","image-keyboard-response","60","93724","0.0-60.0","3N4BPTXIO9ET730V0FSKXJSRUHYUKE","A2KW87ZD2ELYNG","3H6W48L9F4B5OEOMH57RM53Z4H1WP0","","350.7999999523163","img/animal3.png","76","351.5","3","0","2","1,0.5,0,0,1,0.5,0.5,0,1",""
"","html-keyboard-response","61","94028","0.0-61.0","3N4BPTXIO9ET730V0FSKXJSRUHYUKE","A2KW87ZD2ELYNG","3H6W48L9F4B5OEOMH57RM53Z4H1WP0","","null","<img src=""img/animal3.png"" style=""width:200px;border:14px solid red;"">","null","","","","","",""
"","image-keyboard-response","62","94593","0.0-62.0","3N4BPTXIO9ET730V0FSKXJSRUHYUKE","A2KW87ZD2ELYNG","3H6W48L9F4B5OEOMH57RM53Z4H1WP0","","564","img/animal3.png","76","564.5","3","1","2","1,0.5,0,0,1,0.5,0.5,0,1",""
"","html-keyboard-response","63","94900","0.0-63.0","3N4BPTXIO9ET730V0FSKXJSRUHYUKE","A2KW87ZD2ELYNG","3H6W48L9F4B5OEOMH57RM53Z4H1WP0","","null","<img src=""img/animal3.png"" style=""width:200px; border:14px solid green;"">","null","","","","","",""
"","image-keyboard-response","64","96265","0.0-64.0","3N4BPTXIO9ET730V0FSKXJSRUHYUKE","A2KW87ZD2ELYNG","3H6W48L9F4B5OEOMH57RM53Z4H1WP0","","1364.5999999046326","img/animal4.png","75","1365.0999999046326","2","0","3","1,0.5,0,0,1,0.5,0.5,0,1",""
"","html-keyboard-response","65","96572","0.0-65.0","3N4BPTXIO9ET730V0FSKXJSRUHYUKE","A2KW87ZD2ELYNG","3H6W48L9F4B5OEOMH57RM53Z4H1WP0","","null","<img src=""img/animal4.png"" style=""width:200px;border:14px solid red;"">","null","","","","","",""
"","image-keyboard-response","66","97345","0.0-66.0","3N4BPTXIO9ET730V0FSKXJSRUHYUKE","A2KW87ZD2ELYNG","3H6W48L9F4B5OEOMH57RM53Z4H1WP0","","772","img/animal4.png","74","772.5999999046326","1","0","3","1,0.5,0,0,1,0.5,0.5,0,1",""
"","html-keyboard-response","67","97652","0.0-67.0","3N4BPTXIO9ET730V0FSKXJSRUHYUKE","A2KW87ZD2ELYNG","3H6W48L9F4B5OEOMH57RM53Z4H1WP0","","null","<img src=""img/animal4.png"" style=""width:200px;border:14px solid red;"">","null","","","","","",""
"","image-keyboard-response","68","98414","0.0-68.0","3N4BPTXIO9ET730V0FSKXJSRUHYUKE","A2KW87ZD2ELYNG","3H6W48L9F4B5OEOMH57RM53Z4H1WP0","","761","img/animal5.png","75","761.7000000476837","2","0","1","1,0.5,0,0,1,0.5,0.5,0,1",""
"","html-keyboard-response","69","98716","0.0-69.0","3N4BPTXIO9ET730V0FSKXJSRUHYUKE","A2KW87ZD2ELYNG","3H6W48L9F4B5OEOMH57RM53Z4H1WP0","","null","<img src=""img/animal5.png"" style=""width:200px;border:14px solid red;"">","null","","","","","",""
"","image-keyboard-response","70","99151","0.0-70.0","3N4BPTXIO9ET730V0FSKXJSRUHYUKE","A2KW87ZD2ELYNG","3H6W48L9F4B5OEOMH57RM53Z4H1WP0","","434.2000000476837","img/animal5.png","75","434.5","2","1","1","1,0.5,0,0,1,0.5,0.5,0,1",""
"","html-keyboard-response","71","99452","0.0-71.0","3N4BPTXIO9ET730V0FSKXJSRUHYUKE","A2KW87ZD2ELYNG","3H6W48L9F4B5OEOMH57RM53Z4H1WP0","","null","<img src=""img/animal5.png"" style=""width:200px; border:14px solid green;"">","null","","","","","",""
"","image-keyboard-response","72","100169","0.0-72.0","3N4BPTXIO9ET730V0FSKXJSRUHYUKE","A2KW87ZD2ELYNG","3H6W48L9F4B5OEOMH57RM53Z4H1WP0","","716.4000000953674","img/animal5.png","75","716.9000000953674","2","0","1","1,0.5,0,0,1,0.5,0.5,0,1",""
"","html-keyboard-response","73","100476","0.0-73.0","3N4BPTXIO9ET730V0FSKXJSRUHYUKE","A2KW87ZD2ELYNG","3H6W48L9F4B5OEOMH57RM53Z4H1WP0","","null","<img src=""img/animal5.png"" style=""width:200px;border:14px solid red;"">","null","","","","","",""
"","image-keyboard-response","74","101058","0.0-74.0","3N4BPTXIO9ET730V0FSKXJSRUHYUKE","A2KW87ZD2ELYNG","3H6W48L9F4B5OEOMH57RM53Z4H1WP0","","582","img/animal4.png","74","582.5","1","1","3","1,0.5,0,0,1,0.5,0.5,0,1",""
"","html-keyboard-response","75","101364","0.0-75.0","3N4BPTXIO9ET730V0FSKXJSRUHYUKE","A2KW87ZD2ELYNG","3H6W48L9F4B5OEOMH57RM53Z4H1WP0","","null","<img src=""img/animal4.png"" style=""width:200px; border:14px solid green;"">","null","","","","","",""
"","image-keyboard-response","76","101962","0.0-76.0","3N4BPTXIO9ET730V0FSKXJSRUHYUKE","A2KW87ZD2ELYNG","3H6W48L9F4B5OEOMH57RM53Z4H1WP0","","597.2999999523163","img/animal5.png","75","597.8999998569489","2","1","1","1,0.5,0,0,1,0.5,0.5,0,1",""
"","html-keyboard-response","77","102268","0.0-77.0","3N4BPTXIO9ET730V0FSKXJSRUHYUKE","A2KW87ZD2ELYNG","3H6W48L9F4B5OEOMH57RM53Z4H1WP0","","null","<img src=""img/animal5.png"" style=""width:200px; border:14px solid green;"">","null","","","","","",""
"","image-keyboard-response","78","103207","0.0-78.0","3N4BPTXIO9ET730V0FSKXJSRUHYUKE","A2KW87ZD2ELYNG","3H6W48L9F4B5OEOMH57RM53Z4H1WP0","","938.5","img/animal3.png","76","939.0999999046326","3","1","2","1,0.5,0,0,1,0.5,0.5,0,1",""
"","html-keyboard-response","79","103516","0.0-79.0","3N4BPTXIO9ET730V0FSKXJSRUHYUKE","A2KW87ZD2ELYNG","3H6W48L9F4B5OEOMH57RM53Z4H1WP0","","null","<img src=""img/animal3.png"" style=""width:200px; border:14px solid green;"">","null","","","","","",""
"","image-keyboard-response","80","104358","0.0-80.0","3N4BPTXIO9ET730V0FSKXJSRUHYUKE","A2KW87ZD2ELYNG","3H6W48L9F4B5OEOMH57RM53Z4H1WP0","","841.5","img/animal5.png","75","841.9000000953674","2","0","1","1,0.5,0,0,1,0.5,0.5,0,1",""
"","html-keyboard-response","81","104660","0.0-81.0","3N4BPTXIO9ET730V0FSKXJSRUHYUKE","A2KW87ZD2ELYNG","3H6W48L9F4B5OEOMH57RM53Z4H1WP0","","null","<img src=""img/animal5.png"" style=""width:200px;border:14px solid red;"">","null","","","","","",""
"","image-keyboard-response","82","105342","0.0-82.0","3N4BPTXIO9ET730V0FSKXJSRUHYUKE","A2KW87ZD2ELYNG","3H6W48L9F4B5OEOMH57RM53Z4H1WP0","","681.7999999523163","img/animal4.png","74","682.2999999523163","1","1","3","1,0.5,0,0,1,0.5,0.5,0,1",""
"","html-keyboard-response","83","105644","0.0-83.0","3N4BPTXIO9ET730V0FSKXJSRUHYUKE","A2KW87ZD2ELYNG","3H6W48L9F4B5OEOMH57RM53Z4H1WP0","","null","<img src=""img/animal4.png"" style=""width:200px; border:14px solid green;"">","null","","","","","",""
"","image-keyboard-response","84","106964","0.0-84.0","3N4BPTXIO9ET730V0FSKXJSRUHYUKE","A2KW87ZD2ELYNG","3H6W48L9F4B5OEOMH57RM53Z4H1WP0","","1319.7000000476837","img/animal3.png","76","1320.2999999523163","3","0","2","1,0.5,0,0,1,0.5,0.5,0,1",""
"","html-keyboard-response","85","107268","0.0-85.0","3N4BPTXIO9ET730V0FSKXJSRUHYUKE","A2KW87ZD2ELYNG","3H6W48L9F4B5OEOMH57RM53Z4H1WP0","","null","<img src=""img/animal3.png"" style=""width:200px;border:14px solid red;"">","null","","","","","",""
"","image-keyboard-response","86","107885","0.0-86.0","3N4BPTXIO9ET730V0FSKXJSRUHYUKE","A2KW87ZD2ELYNG","3H6W48L9F4B5OEOMH57RM53Z4H1WP0","","616.0999999046326","img/animal5.png","75","616.5","2","1","1","1,0.5,0,0,1,0.5,0.5,0,1",""
"","html-keyboard-response","87","108188","0.0-87.0","3N4BPTXIO9ET730V0FSKXJSRUHYUKE","A2KW87ZD2ELYNG","3H6W48L9F4B5OEOMH57RM53Z4H1WP0","","null","<img src=""img/animal5.png"" style=""width:200px; border:14px solid green;"">","null","","","","","",""
"","image-keyboard-response","88","109184","0.0-88.0","3N4BPTXIO9ET730V0FSKXJSRUHYUKE","A2KW87ZD2ELYNG","3H6W48L9F4B5OEOMH57RM53Z4H1WP0","","995.3999998569489","img/animal4.png","74","996","1","1","3","1,0.5,0,0,1,0.5,0.5,0,1",""
"","html-keyboard-response","89","109492","0.0-89.0","3N4BPTXIO9ET730V0FSKXJSRUHYUKE","A2KW87ZD2ELYNG","3H6W48L9F4B5OEOMH57RM53Z4H1WP0","","null","<img src=""img/animal4.png"" style=""width:200px; border:14px solid green;"">","null","","","","","",""
"","image-keyboard-response","90","109925","0.0-90.0","3N4BPTXIO9ET730V0FSKXJSRUHYUKE","A2KW87ZD2ELYNG","3H6W48L9F4B5OEOMH57RM53Z4H1WP0","","432.2000000476837","img/animal4.png","74","432.60000014305115","1","1","3","1,0.5,0,0,1,0.5,0.5,0,1",""
"","html-keyboard-response","91","110228","0.0-91.0","3N4BPTXIO9ET730V0FSKXJSRUHYUKE","A2KW87ZD2ELYNG","3H6W48L9F4B5OEOMH57RM53Z4H1WP0","","null","<img src=""img/animal4.png"" style=""width:200px; border:14px solid green;"">","null","","","","","",""
"","image-keyboard-response","92","111014","0.0-92.0","3N4BPTXIO9ET730V0FSKXJSRUHYUKE","A2KW87ZD2ELYNG","3H6W48L9F4B5OEOMH57RM53Z4H1WP0","","785.8000001907349","img/animal3.png","76","786.4000000953674","3","1","2","1,0.5,0,0,1,0.5,0.5,0,1",""
"","html-keyboard-response","93","111316","0.0-93.0","3N4BPTXIO9ET730V0FSKXJSRUHYUKE","A2KW87ZD2ELYNG","3H6W48L9F4B5OEOMH57RM53Z4H1WP0","","null","<img src=""img/animal3.png"" style=""width:200px; border:14px solid green;"">","null","","","","","",""
"","image-keyboard-response","94","112087","0.0-94.0","3N4BPTXIO9ET730V0FSKXJSRUHYUKE","A2KW87ZD2ELYNG","3H6W48L9F4B5OEOMH57RM53Z4H1WP0","","770.0999999046326","img/animal4.png","74","770.7999999523163","1","1","3","1,0.5,0,0,1,0.5,0.5,0,1",""
"","html-keyboard-response","95","112388","0.0-95.0","3N4BPTXIO9ET730V0FSKXJSRUHYUKE","A2KW87ZD2ELYNG","3H6W48L9F4B5OEOMH57RM53Z4H1WP0","","null","<img src=""img/animal4.png"" style=""width:200px; border:14px solid green;"">","null","","","","","",""
"","image-keyboard-response","96","113014","0.0-96.0","3N4BPTXIO9ET730V0FSKXJSRUHYUKE","A2KW87ZD2ELYNG","3H6W48L9F4B5OEOMH57RM53Z4H1WP0","","625","img/animal3.png","76","625.5999999046326","3","1","2","1,0.5,0,0,1,0.5,0.5,0,1",""
"","html-keyboard-response","97","113316","0.0-97.0","3N4BPTXIO9ET730V0FSKXJSRUHYUKE","A2KW87ZD2ELYNG","3H6W48L9F4B5OEOMH57RM53Z4H1WP0","","null","<img src=""img/animal3.png"" style=""width:200px; border:14px solid green;"">","null","","","","","",""
"","image-keyboard-response","98","114008","0.0-98.0","3N4BPTXIO9ET730V0FSKXJSRUHYUKE","A2KW87ZD2ELYNG","3H6W48L9F4B5OEOMH57RM53Z4H1WP0","","691.7999999523163","img/animal5.png","75","692.2999999523163","2","1","1","1,0.5,0,0,1,0.5,0.5,0,1",""
"","html-keyboard-response","99","114316","0.0-99.0","3N4BPTXIO9ET730V0FSKXJSRUHYUKE","A2KW87ZD2ELYNG","3H6W48L9F4B5OEOMH57RM53Z4H1WP0","","null","<img src=""img/animal5.png"" style=""width:200px; border:14px solid green;"">","null","","","","","",""
"","image-keyboard-response","100","114664","0.0-100.0","3N4BPTXIO9ET730V0FSKXJSRUHYUKE","A2KW87ZD2ELYNG","3H6W48L9F4B5OEOMH57RM53Z4H1WP0","","347.5","img/animal5.png","75","348.10000014305115","2","1","1","1,0.5,0,0,1,0.5,0.5,0,1",""
"","html-keyboard-response","101","114972","0.0-101.0","3N4BPTXIO9ET730V0FSKXJSRUHYUKE","A2KW87ZD2ELYNG","3H6W48L9F4B5OEOMH57RM53Z4H1WP0","","null","<img src=""img/animal5.png"" style=""width:200px; border:14px solid green;"">","null","","","","","",""
"","image-keyboard-response","102","115327","0.0-102.0","3N4BPTXIO9ET730V0FSKXJSRUHYUKE","A2KW87ZD2ELYNG","3H6W48L9F4B5OEOMH57RM53Z4H1WP0","","353.7000000476837","img/animal5.png","75","354.7000000476837","2","1","1","1,0.5,0,0,1,0.5,0.5,0,1",""
"","html-keyboard-response","103","115628","0.0-103.0","3N4BPTXIO9ET730V0FSKXJSRUHYUKE","A2KW87ZD2ELYNG","3H6W48L9F4B5OEOMH57RM53Z4H1WP0","","null","<img src=""img/animal5.png"" style=""width:200px; border:14px solid green;"">","null","","","","","",""
"","image-keyboard-response","104","116362","0.0-104.0","3N4BPTXIO9ET730V0FSKXJSRUHYUKE","A2KW87ZD2ELYNG","3H6W48L9F4B5OEOMH57RM53Z4H1WP0","","733.6000001430511","img/animal3.png","76","734.2000000476837","3","0","2","1,0.5,0,0,1,0.5,0.5,0,1",""
"","html-keyboard-response","105","116668","0.0-105.0","3N4BPTXIO9ET730V0FSKXJSRUHYUKE","A2KW87ZD2ELYNG","3H6W48L9F4B5OEOMH57RM53Z4H1WP0","","null","<img src=""img/animal3.png"" style=""width:200px;border:14px solid red;"">","null","","","","","",""
"","image-keyboard-response","106","117181","0.0-106.0","3N4BPTXIO9ET730V0FSKXJSRUHYUKE","A2KW87ZD2ELYNG","3H6W48L9F4B5OEOMH57RM53Z4H1WP0","","512.2000000476837","img/animal3.png","76","512.7000000476837","3","0","2","1,0.5,0,0,1,0.5,0.5,0,1",""
"","html-keyboard-response","107","117484","0.0-107.0","3N4BPTXIO9ET730V0FSKXJSRUHYUKE","A2KW87ZD2ELYNG","3H6W48L9F4B5OEOMH57RM53Z4H1WP0","","null","<img src=""img/animal3.png"" style=""width:200px;border:14px solid red;"">","null","","","","","",""
"","image-keyboard-response","108","118138","0.0-108.0","3N4BPTXIO9ET730V0FSKXJSRUHYUKE","A2KW87ZD2ELYNG","3H6W48L9F4B5OEOMH57RM53Z4H1WP0","","654","img/animal5.png","75","654.5999999046326","2","1","1","1,0.5,0,0,1,0.5,0.5,0,1",""
"","html-keyboard-response","109","118444","0.0-109.0","3N4BPTXIO9ET730V0FSKXJSRUHYUKE","A2KW87ZD2ELYNG","3H6W48L9F4B5OEOMH57RM53Z4H1WP0","","null","<img src=""img/animal5.png"" style=""width:200px; border:14px solid green;"">","null","","","","","",""
"","image-keyboard-response","110","119109","0.0-110.0","3N4BPTXIO9ET730V0FSKXJSRUHYUKE","A2KW87ZD2ELYNG","3H6W48L9F4B5OEOMH57RM53Z4H1WP0","","664.7000000476837","img/animal4.png","74","665.1000001430511","1","0","3","1,0.5,0,0,1,0.5,0.5,0,1",""
"","html-keyboard-response","111","119412","0.0-111.0","3N4BPTXIO9ET730V0FSKXJSRUHYUKE","A2KW87ZD2ELYNG","3H6W48L9F4B5OEOMH57RM53Z4H1WP0","","null","<img src=""img/animal4.png"" style=""width:200px;border:14px solid red;"">","null","","","","","",""
"","image-keyboard-response","112","119995","0.0-112.0","3N4BPTXIO9ET730V0FSKXJSRUHYUKE","A2KW87ZD2ELYNG","3H6W48L9F4B5OEOMH57RM53Z4H1WP0","","582.7000000476837","img/animal4.png","74","583.2999999523163","1","0","3","1,0.5,0,0,1,0.5,0.5,0,1",""
"","html-keyboard-response","113","120300","0.0-113.0","3N4BPTXIO9ET730V0FSKXJSRUHYUKE","A2KW87ZD2ELYNG","3H6W48L9F4B5OEOMH57RM53Z4H1WP0","","null","<img src=""img/animal4.png"" style=""width:200px;border:14px solid red;"">","null","","","","","",""
"","image-keyboard-response","114","120943","0.0-114.0","3N4BPTXIO9ET730V0FSKXJSRUHYUKE","A2KW87ZD2ELYNG","3H6W48L9F4B5OEOMH57RM53Z4H1WP0","","642.0999999046326","img/animal5.png","75","642.7000000476837","2","0","1","1,0.5,0,0,1,0.5,0.5,0,1",""
"","html-keyboard-response","115","121244","0.0-115.0","3N4BPTXIO9ET730V0FSKXJSRUHYUKE","A2KW87ZD2ELYNG","3H6W48L9F4B5OEOMH57RM53Z4H1WP0","","null","<img src=""img/animal5.png"" style=""width:200px;border:14px solid red;"">","null","","","","","",""
"","image-keyboard-response","116","122002","0.0-116.0","3N4BPTXIO9ET730V0FSKXJSRUHYUKE","A2KW87ZD2ELYNG","3H6W48L9F4B5OEOMH57RM53Z4H1WP0","","757.2999999523163","img/animal3.png","76","757.7999999523163","3","0","2","1,0.5,0,0,1,0.5,0.5,0,1",""
"","html-keyboard-response","117","122308","0.0-117.0","3N4BPTXIO9ET730V0FSKXJSRUHYUKE","A2KW87ZD2ELYNG","3H6W48L9F4B5OEOMH57RM53Z4H1WP0","","null","<img src=""img/animal3.png"" style=""width:200px;border:14px solid red;"">","null","","","","","",""
"","image-keyboard-response","118","122996","0.0-118.0","3N4BPTXIO9ET730V0FSKXJSRUHYUKE","A2KW87ZD2ELYNG","3H6W48L9F4B5OEOMH57RM53Z4H1WP0","","688","img/animal4.png","74","688.5","1","1","3","1,0.5,0,0,1,0.5,0.5,0,1",""
"","html-keyboard-response","119","123300","0.0-119.0","3N4BPTXIO9ET730V0FSKXJSRUHYUKE","A2KW87ZD2ELYNG","3H6W48L9F4B5OEOMH57RM53Z4H1WP0","","null","<img src=""img/animal4.png"" style=""width:200px; border:14px solid green;"">","null","","","","","",""
"","image-keyboard-response","120","123960","0.0-120.0","3N4BPTXIO9ET730V0FSKXJSRUHYUKE","A2KW87ZD2ELYNG","3H6W48L9F4B5OEOMH57RM53Z4H1WP0","","659.7999999523163","img/animal5.png","75","660.2999999523163","2","1","1","1,0.5,0,0,1,0.5,0.5,0,1",""
"","html-keyboard-response","121","124268","0.0-121.0","3N4BPTXIO9ET730V0FSKXJSRUHYUKE","A2KW87ZD2ELYNG","3H6W48L9F4B5OEOMH57RM53Z4H1WP0","","null","<img src=""img/animal5.png"" style=""width:200px; border:14px solid green;"">","null","","","","","",""
"","image-keyboard-response","122","124989","0.0-122.0","3N4BPTXIO9ET730V0FSKXJSRUHYUKE","A2KW87ZD2ELYNG","3H6W48L9F4B5OEOMH57RM53Z4H1WP0","","720.8999998569489","img/animal4.png","74","721.4000000953674","1","1","3","1,0.5,0,0,1,0.5,0.5,0,1",""
"","html-keyboard-response","123","125292","0.0-123.0","3N4BPTXIO9ET730V0FSKXJSRUHYUKE","A2KW87ZD2ELYNG","3H6W48L9F4B5OEOMH57RM53Z4H1WP0","","null","<img src=""img/animal4.png"" style=""width:200px; border:14px solid green;"">","null","","","","","",""
"","image-keyboard-response","124","126038","0.0-124.0","3N4BPTXIO9ET730V0FSKXJSRUHYUKE","A2KW87ZD2ELYNG","3H6W48L9F4B5OEOMH57RM53Z4H1WP0","","745.3000001907349","img/animal3.png","76","745.7000000476837","3","1","2","1,0.5,0,0,1,0.5,0.5,0,1",""
"","html-keyboard-response","125","126340","0.0-125.0","3N4BPTXIO9ET730V0FSKXJSRUHYUKE","A2KW87ZD2ELYNG","3H6W48L9F4B5OEOMH57RM53Z4H1WP0","","null","<img src=""img/animal3.png"" style=""width:200px; border:14px solid green;"">","null","","","","","",""
"","image-keyboard-response","126","127002","0.0-126.0","3N4BPTXIO9ET730V0FSKXJSRUHYUKE","A2KW87ZD2ELYNG","3H6W48L9F4B5OEOMH57RM53Z4H1WP0","","661","img/animal4.png","74","661.7000000476837","1","0","3","1,0.5,0,0,1,0.5,0.5,0,1",""
"","html-keyboard-response","127","127308","0.0-127.0","3N4BPTXIO9ET730V0FSKXJSRUHYUKE","A2KW87ZD2ELYNG","3H6W48L9F4B5OEOMH57RM53Z4H1WP0","","null","<img src=""img/animal4.png"" style=""width:200px;border:14px solid red;"">","null","","","","","",""
"","image-keyboard-response","128","127848","0.0-128.0","3N4BPTXIO9ET730V0FSKXJSRUHYUKE","A2KW87ZD2ELYNG","3H6W48L9F4B5OEOMH57RM53Z4H1WP0","","539.1000001430511","img/animal5.png","75","539.5","2","1","1","1,0.5,0,0,1,0.5,0.5,0,1",""
"","html-keyboard-response","129","128156","0.0-129.0","3N4BPTXIO9ET730V0FSKXJSRUHYUKE","A2KW87ZD2ELYNG","3H6W48L9F4B5OEOMH57RM53Z4H1WP0","","null","<img src=""img/animal5.png"" style=""width:200px; border:14px solid green;"">","null","","","","","",""
"","image-keyboard-response","130","128781","0.0-130.0","3N4BPTXIO9ET730V0FSKXJSRUHYUKE","A2KW87ZD2ELYNG","3H6W48L9F4B5OEOMH57RM53Z4H1WP0","","624.4000000953674","img/animal3.png","76","625.1000001430511","3","0","2","1,0.5,0,0,1,0.5,0.5,0,1",""
"","html-keyboard-response","131","129084","0.0-131.0","3N4BPTXIO9ET730V0FSKXJSRUHYUKE","A2KW87ZD2ELYNG","3H6W48L9F4B5OEOMH57RM53Z4H1WP0","","null","<img src=""img/animal3.png"" style=""width:200px;border:14px solid red;"">","null","","","","","",""
"","image-keyboard-response","132","129803","0.0-132.0","3N4BPTXIO9ET730V0FSKXJSRUHYUKE","A2KW87ZD2ELYNG","3H6W48L9F4B5OEOMH57RM53Z4H1WP0","","718.3000001907349","img/animal3.png","76","718.7999999523163","3","0","2","1,0.5,0,0,1,0.5,0.5,0,1",""
"","html-keyboard-response","133","130108","0.0-133.0","3N4BPTXIO9ET730V0FSKXJSRUHYUKE","A2KW87ZD2ELYNG","3H6W48L9F4B5OEOMH57RM53Z4H1WP0","","null","<img src=""img/animal3.png"" style=""width:200px;border:14px solid red;"">","null","","","","","",""
"","image-keyboard-response","134","130937","0.0-134.0","3N4BPTXIO9ET730V0FSKXJSRUHYUKE","A2KW87ZD2ELYNG","3H6W48L9F4B5OEOMH57RM53Z4H1WP0","","828.2999999523163","img/animal5.png","75","828.7999999523163","2","0","1","1,0.5,0,0,1,0.5,0.5,0,1",""
"","html-keyboard-response","135","131244","0.0-135.0","3N4BPTXIO9ET730V0FSKXJSRUHYUKE","A2KW87ZD2ELYNG","3H6W48L9F4B5OEOMH57RM53Z4H1WP0","","null","<img src=""img/animal5.png"" style=""width:200px;border:14px solid red;"">","null","","","","","",""
"","image-keyboard-response","136","132894","0.0-136.0","3N4BPTXIO9ET730V0FSKXJSRUHYUKE","A2KW87ZD2ELYNG","3H6W48L9F4B5OEOMH57RM53Z4H1WP0","","1649.7000000476837","img/animal3.png","76","1650.2000000476837","3","0","2","1,0.5,0,0,1,0.5,0.5,0,1",""
"","html-keyboard-response","137","133196","0.0-137.0","3N4BPTXIO9ET730V0FSKXJSRUHYUKE","A2KW87ZD2ELYNG","3H6W48L9F4B5OEOMH57RM53Z4H1WP0","","null","<img src=""img/animal3.png"" style=""width:200px;border:14px solid red;"">","null","","","","","",""
"","image-keyboard-response","138","133808","0.0-138.0","3N4BPTXIO9ET730V0FSKXJSRUHYUKE","A2KW87ZD2ELYNG","3H6W48L9F4B5OEOMH57RM53Z4H1WP0","","611","img/animal5.png","75","611.6000001430511","2","0","1","1,0.5,0,0,1,0.5,0.5,0,1",""
"","html-keyboard-response","139","134116","0.0-139.0","3N4BPTXIO9ET730V0FSKXJSRUHYUKE","A2KW87ZD2ELYNG","3H6W48L9F4B5OEOMH57RM53Z4H1WP0","","null","<img src=""img/animal5.png"" style=""width:200px;border:14px solid red;"">","null","","","","","",""
"","image-keyboard-response","140","134728","0.0-140.0","3N4BPTXIO9ET730V0FSKXJSRUHYUKE","A2KW87ZD2ELYNG","3H6W48L9F4B5OEOMH57RM53Z4H1WP0","","611","img/animal4.png","74","611.5","1","1","3","1,0.5,0,0,1,0.5,0.5,0,1",""
"","html-keyboard-response","141","135036","0.0-141.0","3N4BPTXIO9ET730V0FSKXJSRUHYUKE","A2KW87ZD2ELYNG","3H6W48L9F4B5OEOMH57RM53Z4H1WP0","","null","<img src=""img/animal4.png"" style=""width:200px; border:14px solid green;"">","null","","","","","",""
"","image-keyboard-response","142","135766","0.0-142.0","3N4BPTXIO9ET730V0FSKXJSRUHYUKE","A2KW87ZD2ELYNG","3H6W48L9F4B5OEOMH57RM53Z4H1WP0","","729.5","img/animal3.png","76","730.1999998092651","3","0","2","1,0.5,0,0,1,0.5,0.5,0,1",""
"","html-keyboard-response","143","136068","0.0-143.0","3N4BPTXIO9ET730V0FSKXJSRUHYUKE","A2KW87ZD2ELYNG","3H6W48L9F4B5OEOMH57RM53Z4H1WP0","","null","<img src=""img/animal3.png"" style=""width:200px;border:14px solid red;"">","null","","","","","",""
"","image-keyboard-response","144","137097","0.0-144.0","3N4BPTXIO9ET730V0FSKXJSRUHYUKE","A2KW87ZD2ELYNG","3H6W48L9F4B5OEOMH57RM53Z4H1WP0","","1028","img/animal5.png","75","1028.6000001430511","2","1","1","1,0.5,0,0,1,0.5,0.5,0,1",""
"","html-keyboard-response","145","137404","0.0-145.0","3N4BPTXIO9ET730V0FSKXJSRUHYUKE","A2KW87ZD2ELYNG","3H6W48L9F4B5OEOMH57RM53Z4H1WP0","","null","<img src=""img/animal5.png"" style=""width:200px; border:14px solid green;"">","null","","","","","",""
"","image-keyboard-response","146","138041","0.0-146.0","3N4BPTXIO9ET730V0FSKXJSRUHYUKE","A2KW87ZD2ELYNG","3H6W48L9F4B5OEOMH57RM53Z4H1WP0","","636.0999999046326","img/animal4.png","74","636.7999999523163","1","1","3","1,0.5,0,0,1,0.5,0.5,0,1",""
"","html-keyboard-response","147","138348","0.0-147.0","3N4BPTXIO9ET730V0FSKXJSRUHYUKE","A2KW87ZD2ELYNG","3H6W48L9F4B5OEOMH57RM53Z4H1WP0","","null","<img src=""img/animal4.png"" style=""width:200px; border:14px solid green;"">","null","","","","","",""
"","image-keyboard-response","148","139269","0.0-148.0","3N4BPTXIO9ET730V0FSKXJSRUHYUKE","A2KW87ZD2ELYNG","3H6W48L9F4B5OEOMH57RM53Z4H1WP0","","920.5","img/animal3.png","76","921.0999999046326","3","0","2","1,0.5,0,0,1,0.5,0.5,0,1",""
"","html-keyboard-response","149","139572","0.0-149.0","3N4BPTXIO9ET730V0FSKXJSRUHYUKE","A2KW87ZD2ELYNG","3H6W48L9F4B5OEOMH57RM53Z4H1WP0","","null","<img src=""img/animal3.png"" style=""width:200px;border:14px solid red;"">","null","","","","","",""
"","image-keyboard-response","150","140318","0.0-150.0","3N4BPTXIO9ET730V0FSKXJSRUHYUKE","A2KW87ZD2ELYNG","3H6W48L9F4B5OEOMH57RM53Z4H1WP0","","745.2999999523163","img/animal5.png","75","746","2","1","1","1,0.5,0,0,1,0.5,0.5,0,1",""
"","html-keyboard-response","151","140620","0.0-151.0","3N4BPTXIO9ET730V0FSKXJSRUHYUKE","A2KW87ZD2ELYNG","3H6W48L9F4B5OEOMH57RM53Z4H1WP0","","null","<img src=""img/animal5.png"" style=""width:200px; border:14px solid green;"">","null","","","","","",""
"","image-keyboard-response","152","141028","0.0-152.0","3N4BPTXIO9ET730V0FSKXJSRUHYUKE","A2KW87ZD2ELYNG","3H6W48L9F4B5OEOMH57RM53Z4H1WP0","","407.2000000476837","img/animal5.png","75","407.7000000476837","2","1","1","1,0.5,0,0,1,0.5,0.5,0,1",""
"","html-keyboard-response","153","141332","0.0-153.0","3N4BPTXIO9ET730V0FSKXJSRUHYUKE","A2KW87ZD2ELYNG","3H6W48L9F4B5OEOMH57RM53Z4H1WP0","","null","<img src=""img/animal5.png"" style=""width:200px; border:14px solid green;"">","null","","","","","",""
"","image-keyboard-response","154","141711","0.0-154.0","3N4BPTXIO9ET730V0FSKXJSRUHYUKE","A2KW87ZD2ELYNG","3H6W48L9F4B5OEOMH57RM53Z4H1WP0","","378","img/animal5.png","75","378.5","2","1","1","1,0.5,0,0,1,0.5,0.5,0,1",""
"","html-keyboard-response","155","142012","0.0-155.0","3N4BPTXIO9ET730V0FSKXJSRUHYUKE","A2KW87ZD2ELYNG","3H6W48L9F4B5OEOMH57RM53Z4H1WP0","","null","<img src=""img/animal5.png"" style=""width:200px; border:14px solid green;"">","null","","","","","",""
"","image-keyboard-response","156","142692","0.0-156.0","3N4BPTXIO9ET730V0FSKXJSRUHYUKE","A2KW87ZD2ELYNG","3H6W48L9F4B5OEOMH57RM53Z4H1WP0","","679.2000000476837","img/animal3.png","76","679.7999999523163","3","1","2","1,0.5,0,0,1,0.5,0.5,0,1",""
"","html-keyboard-response","157","142996","0.0-157.0","3N4BPTXIO9ET730V0FSKXJSRUHYUKE","A2KW87ZD2ELYNG","3H6W48L9F4B5OEOMH57RM53Z4H1WP0","","null","<img src=""img/animal3.png"" style=""width:200px; border:14px solid green;"">","null","","","","","",""
"","image-keyboard-response","158","143724","0.0-158.0","3N4BPTXIO9ET730V0FSKXJSRUHYUKE","A2KW87ZD2ELYNG","3H6W48L9F4B5OEOMH57RM53Z4H1WP0","","727.6000001430511","img/animal5.png","75","728","2","0","1","1,0.5,0,0,1,0.5,0.5,0,1",""
"","html-keyboard-response","159","144028","0.0-159.0","3N4BPTXIO9ET730V0FSKXJSRUHYUKE","A2KW87ZD2ELYNG","3H6W48L9F4B5OEOMH57RM53Z4H1WP0","","null","<img src=""img/animal5.png"" style=""width:200px;border:14px solid red;"">","null","","","","","",""
"","image-keyboard-response","160","144603","0.0-160.0","3N4BPTXIO9ET730V0FSKXJSRUHYUKE","A2KW87ZD2ELYNG","3H6W48L9F4B5OEOMH57RM53Z4H1WP0","","574.6000001430511","img/animal4.png","74","575.0999999046326","1","1","3","1,0.5,0,0,1,0.5,0.5,0,1",""
"","html-keyboard-response","161","144908","0.0-161.0","3N4BPTXIO9ET730V0FSKXJSRUHYUKE","A2KW87ZD2ELYNG","3H6W48L9F4B5OEOMH57RM53Z4H1WP0","","null","<img src=""img/animal4.png"" style=""width:200px; border:14px solid green;"">","null","","","","","",""
"","image-keyboard-response","162","145452","0.0-162.0","3N4BPTXIO9ET730V0FSKXJSRUHYUKE","A2KW87ZD2ELYNG","3H6W48L9F4B5OEOMH57RM53Z4H1WP0","","543.8000001907349","img/animal5.png","75","544.2999999523163","2","0","1","1,0.5,0,0,1,0.5,0.5,0,1",""
"","html-keyboard-response","163","145756","0.0-163.0","3N4BPTXIO9ET730V0FSKXJSRUHYUKE","A2KW87ZD2ELYNG","3H6W48L9F4B5OEOMH57RM53Z4H1WP0","","null","<img src=""img/animal5.png"" style=""width:200px;border:14px solid red;"">","null","","","","","",""
"","image-keyboard-response","164","146484","0.0-164.0","3N4BPTXIO9ET730V0FSKXJSRUHYUKE","A2KW87ZD2ELYNG","3H6W48L9F4B5OEOMH57RM53Z4H1WP0","","727.7000000476837","img/animal3.png","76","728.0999999046326","3","1","2","1,0.5,0,0,1,0.5,0.5,0,1",""
"","html-keyboard-response","165","146788","0.0-165.0","3N4BPTXIO9ET730V0FSKXJSRUHYUKE","A2KW87ZD2ELYNG","3H6W48L9F4B5OEOMH57RM53Z4H1WP0","","null","<img src=""img/animal3.png"" style=""width:200px; border:14px solid green;"">","null","","","","","",""
"","image-keyboard-response","166","147540","0.0-166.0","3N4BPTXIO9ET730V0FSKXJSRUHYUKE","A2KW87ZD2ELYNG","3H6W48L9F4B5OEOMH57RM53Z4H1WP0","","751.1999998092651","img/animal5.png","75","752","2","0","1","1,0.5,0,0,1,0.5,0.5,0,1",""
"","html-keyboard-response","167","147844","0.0-167.0","3N4BPTXIO9ET730V0FSKXJSRUHYUKE","A2KW87ZD2ELYNG","3H6W48L9F4B5OEOMH57RM53Z4H1WP0","","null","<img src=""img/animal5.png"" style=""width:200px;border:14px solid red;"">","null","","","","","",""
"","image-keyboard-response","168","148545","0.0-168.0","3N4BPTXIO9ET730V0FSKXJSRUHYUKE","A2KW87ZD2ELYNG","3H6W48L9F4B5OEOMH57RM53Z4H1WP0","","700.2000000476837","img/animal4.png","74","700.7000000476837","1","1","3","1,0.5,0,0,1,0.5,0.5,0,1",""
"","html-keyboard-response","169","148852","0.0-169.0","3N4BPTXIO9ET730V0FSKXJSRUHYUKE","A2KW87ZD2ELYNG","3H6W48L9F4B5OEOMH57RM53Z4H1WP0","","null","<img src=""img/animal4.png"" style=""width:200px; border:14px solid green;"">","null","","","","","",""
"","image-keyboard-response","170","149516","0.0-170.0","3N4BPTXIO9ET730V0FSKXJSRUHYUKE","A2KW87ZD2ELYNG","3H6W48L9F4B5OEOMH57RM53Z4H1WP0","","663.4000000953674","img/animal4.png","74","663.9000000953674","1","0","3","1,0.5,0,0,1,0.5,0.5,0,1",""
"","html-keyboard-response","171","149820","0.0-171.0","3N4BPTXIO9ET730V0FSKXJSRUHYUKE","A2KW87ZD2ELYNG","3H6W48L9F4B5OEOMH57RM53Z4H1WP0","","null","<img src=""img/animal4.png"" style=""width:200px;border:14px solid red;"">","null","","","","","",""
"","image-keyboard-response","172","150284","0.0-172.0","3N4BPTXIO9ET730V0FSKXJSRUHYUKE","A2KW87ZD2ELYNG","3H6W48L9F4B5OEOMH57RM53Z4H1WP0","","463.2000000476837","img/animal4.png","74","463.7000000476837","1","1","3","1,0.5,0,0,1,0.5,0.5,0,1",""
"","html-keyboard-response","173","150588","0.0-173.0","3N4BPTXIO9ET730V0FSKXJSRUHYUKE","A2KW87ZD2ELYNG","3H6W48L9F4B5OEOMH57RM53Z4H1WP0","","null","<img src=""img/animal4.png"" style=""width:200px; border:14px solid green;"">","null","","","","","",""
"","image-keyboard-response","174","151024","0.0-174.0","3N4BPTXIO9ET730V0FSKXJSRUHYUKE","A2KW87ZD2ELYNG","3H6W48L9F4B5OEOMH57RM53Z4H1WP0","","435.60000014305115","img/animal4.png","74","436.2999999523163","1","1","3","1,0.5,0,0,1,0.5,0.5,0,1",""
"","html-keyboard-response","175","151332","0.0-175.0","3N4BPTXIO9ET730V0FSKXJSRUHYUKE","A2KW87ZD2ELYNG","3H6W48L9F4B5OEOMH57RM53Z4H1WP0","","null","<img src=""img/animal4.png"" style=""width:200px; border:14px solid green;"">","null","","","","","",""
"","image-keyboard-response","176","152114","0.0-176.0","3N4BPTXIO9ET730V0FSKXJSRUHYUKE","A2KW87ZD2ELYNG","3H6W48L9F4B5OEOMH57RM53Z4H1WP0","","781.5","img/animal3.png","76","782","3","1","2","1,0.5,0,0,1,0.5,0.5,0,1",""
"","html-keyboard-response","177","152420","0.0-177.0","3N4BPTXIO9ET730V0FSKXJSRUHYUKE","A2KW87ZD2ELYNG","3H6W48L9F4B5OEOMH57RM53Z4H1WP0","","null","<img src=""img/animal3.png"" style=""width:200px; border:14px solid green;"">","null","","","","","",""
"","image-keyboard-response","178","152977","0.0-178.0","3N4BPTXIO9ET730V0FSKXJSRUHYUKE","A2KW87ZD2ELYNG","3H6W48L9F4B5OEOMH57RM53Z4H1WP0","","556.1000001430511","img/animal4.png","75","556.5","2","0","3","1,0.5,0,0,1,0.5,0.5,0,1",""
"","html-keyboard-response","179","153284","0.0-179.0","3N4BPTXIO9ET730V0FSKXJSRUHYUKE","A2KW87ZD2ELYNG","3H6W48L9F4B5OEOMH57RM53Z4H1WP0","","null","<img src=""img/animal4.png"" style=""width:200px;border:14px solid red;"">","null","","","","","",""
"","image-keyboard-response","180","153713","0.0-180.0","3N4BPTXIO9ET730V0FSKXJSRUHYUKE","A2KW87ZD2ELYNG","3H6W48L9F4B5OEOMH57RM53Z4H1WP0","","429","img/animal4.png","74","429.40000009536743","1","0","3","1,0.5,0,0,1,0.5,0.5,0,1",""
"","html-keyboard-response","181","154020","0.0-181.0","3N4BPTXIO9ET730V0FSKXJSRUHYUKE","A2KW87ZD2ELYNG","3H6W48L9F4B5OEOMH57RM53Z4H1WP0","","null","<img src=""img/animal4.png"" style=""width:200px;border:14px solid red;"">","null","","","","","",""
"","html-keyboard-response","182","156708","0.0-182.0","3N4BPTXIO9ET730V0FSKXJSRUHYUKE","A2KW87ZD2ELYNG","3H6W48L9F4B5OEOMH57RM53Z4H1WP0","","","","","","","","","",""
"","image-keyboard-response","183","159897","0.0-183.0","3N4BPTXIO9ET730V0FSKXJSRUHYUKE","A2KW87ZD2ELYNG","3H6W48L9F4B5OEOMH57RM53Z4H1WP0","","3188.7000000476837","img/animal1.png","74","3189.4000000953674","1","1","2","1,0.5,0,1,0,0.5,0.5,0,1",""
"","html-keyboard-response","184","160204","0.0-184.0","3N4BPTXIO9ET730V0FSKXJSRUHYUKE","A2KW87ZD2ELYNG","3H6W48L9F4B5OEOMH57RM53Z4H1WP0","","null","<img src=""img/animal1.png"" style=""width:200px; border:14px solid green;"">","null","","","","","",""
"","image-keyboard-response","185","160908","0.0-185.0","3N4BPTXIO9ET730V0FSKXJSRUHYUKE","A2KW87ZD2ELYNG","3H6W48L9F4B5OEOMH57RM53Z4H1WP0","","704","img/animal2.png","75","704.5","2","1","1","1,0.5,0,1,0,0.5,0.5,0,1",""
"","html-keyboard-response","186","161212","0.0-186.0","3N4BPTXIO9ET730V0FSKXJSRUHYUKE","A2KW87ZD2ELYNG","3H6W48L9F4B5OEOMH57RM53Z4H1WP0","","null","<img src=""img/animal2.png"" style=""width:200px; border:14px solid green;"">","null","","","","","",""
"","image-keyboard-response","187","162635","0.0-187.0","3N4BPTXIO9ET730V0FSKXJSRUHYUKE","A2KW87ZD2ELYNG","3H6W48L9F4B5OEOMH57RM53Z4H1WP0","","1422.7000000476837","img/animal2.png","75","1423.1999998092651","2","0","1","1,0.5,0,1,0,0.5,0.5,0,1",""
"","html-keyboard-response","188","162940","0.0-188.0","3N4BPTXIO9ET730V0FSKXJSRUHYUKE","A2KW87ZD2ELYNG","3H6W48L9F4B5OEOMH57RM53Z4H1WP0","","null","<img src=""img/animal2.png"" style=""width:200px;border:14px solid red;"">","null","","","","","",""
"","image-keyboard-response","189","163820","0.0-189.0","3N4BPTXIO9ET730V0FSKXJSRUHYUKE","A2KW87ZD2ELYNG","3H6W48L9F4B5OEOMH57RM53Z4H1WP0","","879.2999999523163","img/animal6.png","76","879.9000000953674","3","1","3","1,0.5,0,1,0,0.5,0.5,0,1",""
"","html-keyboard-response","190","164124","0.0-190.0","3N4BPTXIO9ET730V0FSKXJSRUHYUKE","A2KW87ZD2ELYNG","3H6W48L9F4B5OEOMH57RM53Z4H1WP0","","null","<img src=""img/animal6.png"" style=""width:200px; border:14px solid green;"">","null","","","","","",""
"","image-keyboard-response","191","164930","0.0-191.0","3N4BPTXIO9ET730V0FSKXJSRUHYUKE","A2KW87ZD2ELYNG","3H6W48L9F4B5OEOMH57RM53Z4H1WP0","","805.2000000476837","img/animal2.png","75","805.7999999523163","2","0","1","1,0.5,0,1,0,0.5,0.5,0,1",""
"","html-keyboard-response","192","165236","0.0-192.0","3N4BPTXIO9ET730V0FSKXJSRUHYUKE","A2KW87ZD2ELYNG","3H6W48L9F4B5OEOMH57RM53Z4H1WP0","","null","<img src=""img/animal2.png"" style=""width:200px;border:14px solid red;"">","null","","","","","",""
"","image-keyboard-response","193","165769","0.0-193.0","3N4BPTXIO9ET730V0FSKXJSRUHYUKE","A2KW87ZD2ELYNG","3H6W48L9F4B5OEOMH57RM53Z4H1WP0","","532.2000000476837","img/animal1.png","74","532.6999998092651","1","1","2","1,0.5,0,1,0,0.5,0.5,0,1",""
"","html-keyboard-response","194","166076","0.0-194.0","3N4BPTXIO9ET730V0FSKXJSRUHYUKE","A2KW87ZD2ELYNG","3H6W48L9F4B5OEOMH57RM53Z4H1WP0","","null","<img src=""img/animal1.png"" style=""width:200px; border:14px solid green;"">","null","","","","","",""
"","image-keyboard-response","195","166991","0.0-195.0","3N4BPTXIO9ET730V0FSKXJSRUHYUKE","A2KW87ZD2ELYNG","3H6W48L9F4B5OEOMH57RM53Z4H1WP0","","914","img/animal6.png","76","914.7000000476837","3","1","3","1,0.5,0,1,0,0.5,0.5,0,1",""
"","html-keyboard-response","196","167292","0.0-196.0","3N4BPTXIO9ET730V0FSKXJSRUHYUKE","A2KW87ZD2ELYNG","3H6W48L9F4B5OEOMH57RM53Z4H1WP0","","null","<img src=""img/animal6.png"" style=""width:200px; border:14px solid green;"">","null","","","","","",""
"","image-keyboard-response","197","168250","0.0-197.0","3N4BPTXIO9ET730V0FSKXJSRUHYUKE","A2KW87ZD2ELYNG","3H6W48L9F4B5OEOMH57RM53Z4H1WP0","","956.8999998569489","img/animal2.png","75","957.5","2","0","1","1,0.5,0,1,0,0.5,0.5,0,1",""
"","html-keyboard-response","198","168556","0.0-198.0","3N4BPTXIO9ET730V0FSKXJSRUHYUKE","A2KW87ZD2ELYNG","3H6W48L9F4B5OEOMH57RM53Z4H1WP0","","null","<img src=""img/animal2.png"" style=""width:200px;border:14px solid red;"">","null","","","","","",""
"","image-keyboard-response","199","168942","0.0-199.0","3N4BPTXIO9ET730V0FSKXJSRUHYUKE","A2KW87ZD2ELYNG","3H6W48L9F4B5OEOMH57RM53Z4H1WP0","","385.7999999523163","img/animal2.png","75","386.2999999523163","2","0","1","1,0.5,0,1,0,0.5,0.5,0,1",""
"","html-keyboard-response","200","169244","0.0-200.0","3N4BPTXIO9ET730V0FSKXJSRUHYUKE","A2KW87ZD2ELYNG","3H6W48L9F4B5OEOMH57RM53Z4H1WP0","","null","<img src=""img/animal2.png"" style=""width:200px;border:14px solid red;"">","null","","","","","",""
"","image-keyboard-response","201","170422","0.0-201.0","3N4BPTXIO9ET730V0FSKXJSRUHYUKE","A2KW87ZD2ELYNG","3H6W48L9F4B5OEOMH57RM53Z4H1WP0","","1177.6000001430511","img/animal6.png","76","1178.2000000476837","3","1","3","1,0.5,0,1,0,0.5,0.5,0,1",""
"","html-keyboard-response","202","170724","0.0-202.0","3N4BPTXIO9ET730V0FSKXJSRUHYUKE","A2KW87ZD2ELYNG","3H6W48L9F4B5OEOMH57RM53Z4H1WP0","","null","<img src=""img/animal6.png"" style=""width:200px; border:14px solid green;"">","null","","","","","",""
"","image-keyboard-response","203","171203","0.0-203.0","3N4BPTXIO9ET730V0FSKXJSRUHYUKE","A2KW87ZD2ELYNG","3H6W48L9F4B5OEOMH57RM53Z4H1WP0","","478","img/animal6.png","76","478.59999990463257","3","1","3","1,0.5,0,1,0,0.5,0.5,0,1",""
"","html-keyboard-response","204","171508","0.0-204.0","3N4BPTXIO9ET730V0FSKXJSRUHYUKE","A2KW87ZD2ELYNG","3H6W48L9F4B5OEOMH57RM53Z4H1WP0","","null","<img src=""img/animal6.png"" style=""width:200px; border:14px solid green;"">","null","","","","","",""
"","image-keyboard-response","205","172259","0.0-205.0","3N4BPTXIO9ET730V0FSKXJSRUHYUKE","A2KW87ZD2ELYNG","3H6W48L9F4B5OEOMH57RM53Z4H1WP0","","750.6999998092651","img/animal2.png","75","751.3999998569489","2","1","1","1,0.5,0,1,0,0.5,0.5,0,1",""
"","html-keyboard-response","206","172564","0.0-206.0","3N4BPTXIO9ET730V0FSKXJSRUHYUKE","A2KW87ZD2ELYNG","3H6W48L9F4B5OEOMH57RM53Z4H1WP0","","null","<img src=""img/animal2.png"" style=""width:200px; border:14px solid green;"">","null","","","","","",""
"","image-keyboard-response","207","173283","0.0-207.0","3N4BPTXIO9ET730V0FSKXJSRUHYUKE","A2KW87ZD2ELYNG","3H6W48L9F4B5OEOMH57RM53Z4H1WP0","","718.5999999046326","img/animal1.png","74","719.2999999523163","1","1","2","1,0.5,0,1,0,0.5,0.5,0,1",""
"","html-keyboard-response","208","173588","0.0-208.0","3N4BPTXIO9ET730V0FSKXJSRUHYUKE","A2KW87ZD2ELYNG","3H6W48L9F4B5OEOMH57RM53Z4H1WP0","","null","<img src=""img/animal1.png"" style=""width:200px; border:14px solid green;"">","null","","","","","",""
"","image-keyboard-response","209","175667","0.0-209.0","3N4BPTXIO9ET730V0FSKXJSRUHYUKE","A2KW87ZD2ELYNG","3H6W48L9F4B5OEOMH57RM53Z4H1WP0","","2078.699999809265","img/animal2.png","75","2079.399999856949","2","1","1","1,0.5,0,1,0,0.5,0.5,0,1",""
"","html-keyboard-response","210","175972","0.0-210.0","3N4BPTXIO9ET730V0FSKXJSRUHYUKE","A2KW87ZD2ELYNG","3H6W48L9F4B5OEOMH57RM53Z4H1WP0","","null","<img src=""img/animal2.png"" style=""width:200px; border:14px solid green;"">","null","","","","","",""
"","image-keyboard-response","211","177011","0.0-211.0","3N4BPTXIO9ET730V0FSKXJSRUHYUKE","A2KW87ZD2ELYNG","3H6W48L9F4B5OEOMH57RM53Z4H1WP0","","1038.5999999046326","img/animal6.png","76","1039.2999999523163","3","1","3","1,0.5,0,1,0,0.5,0.5,0,1",""
"","html-keyboard-response","212","177316","0.0-212.0","3N4BPTXIO9ET730V0FSKXJSRUHYUKE","A2KW87ZD2ELYNG","3H6W48L9F4B5OEOMH57RM53Z4H1WP0","","null","<img src=""img/animal6.png"" style=""width:200px; border:14px solid green;"">","null","","","","","",""
"","image-keyboard-response","213","177935","0.0-213.0","3N4BPTXIO9ET730V0FSKXJSRUHYUKE","A2KW87ZD2ELYNG","3H6W48L9F4B5OEOMH57RM53Z4H1WP0","","618.2999999523163","img/animal1.png","74","618.7999999523163","1","1","2","1,0.5,0,1,0,0.5,0.5,0,1",""
"","html-keyboard-response","214","178236","0.0-214.0","3N4BPTXIO9ET730V0FSKXJSRUHYUKE","A2KW87ZD2ELYNG","3H6W48L9F4B5OEOMH57RM53Z4H1WP0","","null","<img src=""img/animal1.png"" style=""width:200px; border:14px solid green;"">","null","","","","","",""
"","image-keyboard-response","215","178825","0.0-215.0","3N4BPTXIO9ET730V0FSKXJSRUHYUKE","A2KW87ZD2ELYNG","3H6W48L9F4B5OEOMH57RM53Z4H1WP0","","588.2000000476837","img/animal2.png","75","588.9000000953674","2","1","1","1,0.5,0,1,0,0.5,0.5,0,1",""
"","html-keyboard-response","216","179132","0.0-216.0","3N4BPTXIO9ET730V0FSKXJSRUHYUKE","A2KW87ZD2ELYNG","3H6W48L9F4B5OEOMH57RM53Z4H1WP0","","null","<img src=""img/animal2.png"" style=""width:200px; border:14px solid green;"">","null","","","","","",""
"","image-keyboard-response","217","180104","0.0-217.0","3N4BPTXIO9ET730V0FSKXJSRUHYUKE","A2KW87ZD2ELYNG","3H6W48L9F4B5OEOMH57RM53Z4H1WP0","","971.1000001430511","img/animal6.png","76","971.6999998092651","3","1","3","1,0.5,0,1,0,0.5,0.5,0,1",""
"","html-keyboard-response","218","180412","0.0-218.0","3N4BPTXIO9ET730V0FSKXJSRUHYUKE","A2KW87ZD2ELYNG","3H6W48L9F4B5OEOMH57RM53Z4H1WP0","","null","<img src=""img/animal6.png"" style=""width:200px; border:14px solid green;"">","null","","","","","",""
"","image-keyboard-response","219","181065","0.0-219.0","3N4BPTXIO9ET730V0FSKXJSRUHYUKE","A2KW87ZD2ELYNG","3H6W48L9F4B5OEOMH57RM53Z4H1WP0","","652.0999999046326","img/animal1.png","74","652.7999999523163","1","1","2","1,0.5,0,1,0,0.5,0.5,0,1",""
"","html-keyboard-response","220","181372","0.0-220.0","3N4BPTXIO9ET730V0FSKXJSRUHYUKE","A2KW87ZD2ELYNG","3H6W48L9F4B5OEOMH57RM53Z4H1WP0","","null","<img src=""img/animal1.png"" style=""width:200px; border:14px solid green;"">","null","","","","","",""
"","image-keyboard-response","221","181992","0.0-221.0","3N4BPTXIO9ET730V0FSKXJSRUHYUKE","A2KW87ZD2ELYNG","3H6W48L9F4B5OEOMH57RM53Z4H1WP0","","619.2999999523163","img/animal1.png","74","619.8999998569489","1","1","2","1,0.5,0,1,0,0.5,0.5,0,1",""
"","html-keyboard-response","222","182300","0.0-222.0","3N4BPTXIO9ET730V0FSKXJSRUHYUKE","A2KW87ZD2ELYNG","3H6W48L9F4B5OEOMH57RM53Z4H1WP0","","null","<img src=""img/animal1.png"" style=""width:200px; border:14px solid green;"">","null","","","","","",""
"","image-keyboard-response","223","182699","0.0-223.0","3N4BPTXIO9ET730V0FSKXJSRUHYUKE","A2KW87ZD2ELYNG","3H6W48L9F4B5OEOMH57RM53Z4H1WP0","","398.30000019073486","img/animal1.png","74","399.10000014305115","1","1","2","1,0.5,0,1,0,0.5,0.5,0,1",""
"","html-keyboard-response","224","183004","0.0-224.0","3N4BPTXIO9ET730V0FSKXJSRUHYUKE","A2KW87ZD2ELYNG","3H6W48L9F4B5OEOMH57RM53Z4H1WP0","","null","<img src=""img/animal1.png"" style=""width:200px; border:14px solid green;"">","null","","","","","",""
"","image-keyboard-response","225","183365","0.0-225.0","3N4BPTXIO9ET730V0FSKXJSRUHYUKE","A2KW87ZD2ELYNG","3H6W48L9F4B5OEOMH57RM53Z4H1WP0","","360.39999985694885","img/animal1.png","74","360.90000009536743","1","1","2","1,0.5,0,1,0,0.5,0.5,0,1",""
"","html-keyboard-response","226","183668","0.0-226.0","3N4BPTXIO9ET730V0FSKXJSRUHYUKE","A2KW87ZD2ELYNG","3H6W48L9F4B5OEOMH57RM53Z4H1WP0","","null","<img src=""img/animal1.png"" style=""width:200px; border:14px solid green;"">","null","","","","","",""
"","image-keyboard-response","227","184058","0.0-227.0","3N4BPTXIO9ET730V0FSKXJSRUHYUKE","A2KW87ZD2ELYNG","3H6W48L9F4B5OEOMH57RM53Z4H1WP0","","389.59999990463257","img/animal2.png","75","390.2000000476837","2","0","1","1,0.5,0,1,0,0.5,0.5,0,1",""
"","html-keyboard-response","228","184364","0.0-228.0","3N4BPTXIO9ET730V0FSKXJSRUHYUKE","A2KW87ZD2ELYNG","3H6W48L9F4B5OEOMH57RM53Z4H1WP0","","null","<img src=""img/animal2.png"" style=""width:200px;border:14px solid red;"">","null","","","","","",""
"","image-keyboard-response","229","184690","0.0-229.0","3N4BPTXIO9ET730V0FSKXJSRUHYUKE","A2KW87ZD2ELYNG","3H6W48L9F4B5OEOMH57RM53Z4H1WP0","","325.69999980926514","img/animal2.png","75","326.39999985694885","2","1","1","1,0.5,0,1,0,0.5,0.5,0,1",""
"","html-keyboard-response","230","184996","0.0-230.0","3N4BPTXIO9ET730V0FSKXJSRUHYUKE","A2KW87ZD2ELYNG","3H6W48L9F4B5OEOMH57RM53Z4H1WP0","","null","<img src=""img/animal2.png"" style=""width:200px; border:14px solid green;"">","null","","","","","",""
"","image-keyboard-response","231","185377","0.0-231.0","3N4BPTXIO9ET730V0FSKXJSRUHYUKE","A2KW87ZD2ELYNG","3H6W48L9F4B5OEOMH57RM53Z4H1WP0","","380.2000000476837","img/animal2.png","75","380.7000000476837","2","0","1","1,0.5,0,1,0,0.5,0.5,0,1",""
"","html-keyboard-response","232","185684","0.0-232.0","3N4BPTXIO9ET730V0FSKXJSRUHYUKE","A2KW87ZD2ELYNG","3H6W48L9F4B5OEOMH57RM53Z4H1WP0","","null","<img src=""img/animal2.png"" style=""width:200px;border:14px solid red;"">","null","","","","","",""
"","image-keyboard-response","233","186073","0.0-233.0","3N4BPTXIO9ET730V0FSKXJSRUHYUKE","A2KW87ZD2ELYNG","3H6W48L9F4B5OEOMH57RM53Z4H1WP0","","388.7999999523163","img/animal2.png","75","389.2999999523163","2","0","1","1,0.5,0,1,0,0.5,0.5,0,1",""
"","html-keyboard-response","234","186380","0.0-234.0","3N4BPTXIO9ET730V0FSKXJSRUHYUKE","A2KW87ZD2ELYNG","3H6W48L9F4B5OEOMH57RM53Z4H1WP0","","null","<img src=""img/animal2.png"" style=""width:200px;border:14px solid red;"">","null","","","","","",""
"","image-keyboard-response","235","187031","0.0-235.0","3N4BPTXIO9ET730V0FSKXJSRUHYUKE","A2KW87ZD2ELYNG","3H6W48L9F4B5OEOMH57RM53Z4H1WP0","","650","img/animal6.png","76","650.5","3","1","3","1,0.5,0,1,0,0.5,0.5,0,1",""
"","html-keyboard-response","236","187332","0.0-236.0","3N4BPTXIO9ET730V0FSKXJSRUHYUKE","A2KW87ZD2ELYNG","3H6W48L9F4B5OEOMH57RM53Z4H1WP0","","null","<img src=""img/animal6.png"" style=""width:200px; border:14px solid green;"">","null","","","","","",""
"","image-keyboard-response","237","187700","0.0-237.0","3N4BPTXIO9ET730V0FSKXJSRUHYUKE","A2KW87ZD2ELYNG","3H6W48L9F4B5OEOMH57RM53Z4H1WP0","","367.19999980926514","img/animal6.png","76","367.89999985694885","3","1","3","1,0.5,0,1,0,0.5,0.5,0,1",""
"","html-keyboard-response","238","188004","0.0-238.0","3N4BPTXIO9ET730V0FSKXJSRUHYUKE","A2KW87ZD2ELYNG","3H6W48L9F4B5OEOMH57RM53Z4H1WP0","","null","<img src=""img/animal6.png"" style=""width:200px; border:14px solid green;"">","null","","","","","",""
"","image-keyboard-response","239","188729","0.0-239.0","3N4BPTXIO9ET730V0FSKXJSRUHYUKE","A2KW87ZD2ELYNG","3H6W48L9F4B5OEOMH57RM53Z4H1WP0","","723.8999998569489","img/animal2.png","75","724.5","2","1","1","1,0.5,0,1,0,0.5,0.5,0,1",""
"","html-keyboard-response","240","189036","0.0-240.0","3N4BPTXIO9ET730V0FSKXJSRUHYUKE","A2KW87ZD2ELYNG","3H6W48L9F4B5OEOMH57RM53Z4H1WP0","","null","<img src=""img/animal2.png"" style=""width:200px; border:14px solid green;"">","null","","","","","",""
"","image-keyboard-response","241","189415","0.0-241.0","3N4BPTXIO9ET730V0FSKXJSRUHYUKE","A2KW87ZD2ELYNG","3H6W48L9F4B5OEOMH57RM53Z4H1WP0","","378.30000019073486","img/animal2.png","75","378.7999999523163","2","0","1","1,0.5,0,1,0,0.5,0.5,0,1",""
"","html-keyboard-response","242","189716","0.0-242.0","3N4BPTXIO9ET730V0FSKXJSRUHYUKE","A2KW87ZD2ELYNG","3H6W48L9F4B5OEOMH57RM53Z4H1WP0","","null","<img src=""img/animal2.png"" style=""width:200px;border:14px solid red;"">","null","","","","","",""
"","image-keyboard-response","243","190226","0.0-243.0","3N4BPTXIO9ET730V0FSKXJSRUHYUKE","A2KW87ZD2ELYNG","3H6W48L9F4B5OEOMH57RM53Z4H1WP0","","510.09999990463257","img/animal2.png","75","510.40000009536743","2","1","1","1,0.5,0,1,0,0.5,0.5,0,1",""
"","html-keyboard-response","244","190532","0.0-244.0","3N4BPTXIO9ET730V0FSKXJSRUHYUKE","A2KW87ZD2ELYNG","3H6W48L9F4B5OEOMH57RM53Z4H1WP0","","null","<img src=""img/animal2.png"" style=""width:200px; border:14px solid green;"">","null","","","","","",""
"","image-keyboard-response","245","191350","0.0-245.0","3N4BPTXIO9ET730V0FSKXJSRUHYUKE","A2KW87ZD2ELYNG","3H6W48L9F4B5OEOMH57RM53Z4H1WP0","","817.7999999523163","img/animal6.png","76","818.2000000476837","3","1","3","1,0.5,0,1,0,0.5,0.5,0,1",""
"","html-keyboard-response","246","191652","0.0-246.0","3N4BPTXIO9ET730V0FSKXJSRUHYUKE","A2KW87ZD2ELYNG","3H6W48L9F4B5OEOMH57RM53Z4H1WP0","","null","<img src=""img/animal6.png"" style=""width:200px; border:14px solid green;"">","null","","","","","",""
"","image-keyboard-response","247","192064","0.0-247.0","3N4BPTXIO9ET730V0FSKXJSRUHYUKE","A2KW87ZD2ELYNG","3H6W48L9F4B5OEOMH57RM53Z4H1WP0","","411.09999990463257","img/animal6.png","76","411.5","3","1","3","1,0.5,0,1,0,0.5,0.5,0,1",""
"","html-keyboard-response","248","192372","0.0-248.0","3N4BPTXIO9ET730V0FSKXJSRUHYUKE","A2KW87ZD2ELYNG","3H6W48L9F4B5OEOMH57RM53Z4H1WP0","","null","<img src=""img/animal6.png"" style=""width:200px; border:14px solid green;"">","null","","","","","",""
"","image-keyboard-response","249","192780","0.0-249.0","3N4BPTXIO9ET730V0FSKXJSRUHYUKE","A2KW87ZD2ELYNG","3H6W48L9F4B5OEOMH57RM53Z4H1WP0","","407","img/animal6.png","76","408","3","1","3","1,0.5,0,1,0,0.5,0.5,0,1",""
"","html-keyboard-response","250","193084","0.0-250.0","3N4BPTXIO9ET730V0FSKXJSRUHYUKE","A2KW87ZD2ELYNG","3H6W48L9F4B5OEOMH57RM53Z4H1WP0","","null","<img src=""img/animal6.png"" style=""width:200px; border:14px solid green;"">","null","","","","","",""
"","image-keyboard-response","251","193816","0.0-251.0","3N4BPTXIO9ET730V0FSKXJSRUHYUKE","A2KW87ZD2ELYNG","3H6W48L9F4B5OEOMH57RM53Z4H1WP0","","731.4000000953674","img/animal1.png","74","731.7999999523163","1","1","2","1,0.5,0,1,0,0.5,0.5,0,1",""
"","html-keyboard-response","252","194124","0.0-252.0","3N4BPTXIO9ET730V0FSKXJSRUHYUKE","A2KW87ZD2ELYNG","3H6W48L9F4B5OEOMH57RM53Z4H1WP0","","null","<img src=""img/animal1.png"" style=""width:200px; border:14px solid green;"">","null","","","","","",""
"","image-keyboard-response","253","194936","0.0-253.0","3N4BPTXIO9ET730V0FSKXJSRUHYUKE","A2KW87ZD2ELYNG","3H6W48L9F4B5OEOMH57RM53Z4H1WP0","","811.5999999046326","img/animal6.png","76","812.2000000476837","3","1","3","1,0.5,0,1,0,0.5,0.5,0,1",""
"","html-keyboard-response","254","195244","0.0-254.0","3N4BPTXIO9ET730V0FSKXJSRUHYUKE","A2KW87ZD2ELYNG","3H6W48L9F4B5OEOMH57RM53Z4H1WP0","","null","<img src=""img/animal6.png"" style=""width:200px; border:14px solid green;"">","null","","","","","",""
"","image-keyboard-response","255","195758","0.0-255.0","3N4BPTXIO9ET730V0FSKXJSRUHYUKE","A2KW87ZD2ELYNG","3H6W48L9F4B5OEOMH57RM53Z4H1WP0","","513.7000000476837","img/animal1.png","74","514.2000000476837","1","1","2","1,0.5,0,1,0,0.5,0.5,0,1",""
"","html-keyboard-response","256","196060","0.0-256.0","3N4BPTXIO9ET730V0FSKXJSRUHYUKE","A2KW87ZD2ELYNG","3H6W48L9F4B5OEOMH57RM53Z4H1WP0","","null","<img src=""img/animal1.png"" style=""width:200px; border:14px solid green;"">","null","","","","","",""
"","image-keyboard-response","257","196611","0.0-257.0","3N4BPTXIO9ET730V0FSKXJSRUHYUKE","A2KW87ZD2ELYNG","3H6W48L9F4B5OEOMH57RM53Z4H1WP0","","550.5","img/animal1.png","74","550.9000000953674","1","1","2","1,0.5,0,1,0,0.5,0.5,0,1",""
"","html-keyboard-response","258","196916","0.0-258.0","3N4BPTXIO9ET730V0FSKXJSRUHYUKE","A2KW87ZD2ELYNG","3H6W48L9F4B5OEOMH57RM53Z4H1WP0","","null","<img src=""img/animal1.png"" style=""width:200px; border:14px solid green;"">","null","","","","","",""
"","image-keyboard-response","259","197569","0.0-259.0","3N4BPTXIO9ET730V0FSKXJSRUHYUKE","A2KW87ZD2ELYNG","3H6W48L9F4B5OEOMH57RM53Z4H1WP0","","652.0999999046326","img/animal2.png","75","652.7000000476837","2","1","1","1,0.5,0,1,0,0.5,0.5,0,1",""
"","html-keyboard-response","260","197876","0.0-260.0","3N4BPTXIO9ET730V0FSKXJSRUHYUKE","A2KW87ZD2ELYNG","3H6W48L9F4B5OEOMH57RM53Z4H1WP0","","null","<img src=""img/animal2.png"" style=""width:200px; border:14px solid green;"">","null","","","","","",""
"","image-keyboard-response","261","198197","0.0-261.0","3N4BPTXIO9ET730V0FSKXJSRUHYUKE","A2KW87ZD2ELYNG","3H6W48L9F4B5OEOMH57RM53Z4H1WP0","","320.59999990463257","img/animal2.png","75","321","2","1","1","1,0.5,0,1,0,0.5,0.5,0,1",""
"","html-keyboard-response","262","198500","0.0-262.0","3N4BPTXIO9ET730V0FSKXJSRUHYUKE","A2KW87ZD2ELYNG","3H6W48L9F4B5OEOMH57RM53Z4H1WP0","","null","<img src=""img/animal2.png"" style=""width:200px; border:14px solid green;"">","null","","","","","",""
"","image-keyboard-response","263","199351","0.0-263.0","3N4BPTXIO9ET730V0FSKXJSRUHYUKE","A2KW87ZD2ELYNG","3H6W48L9F4B5OEOMH57RM53Z4H1WP0","","850.7000000476837","img/animal1.png","74","851.2000000476837","1","1","2","1,0.5,0,1,0,0.5,0.5,0,1",""
"","html-keyboard-response","264","199660","0.0-264.0","3N4BPTXIO9ET730V0FSKXJSRUHYUKE","A2KW87ZD2ELYNG","3H6W48L9F4B5OEOMH57RM53Z4H1WP0","","null","<img src=""img/animal1.png"" style=""width:200px; border:14px solid green;"">","null","","","","","",""
"","image-keyboard-response","265","200309","0.0-265.0","3N4BPTXIO9ET730V0FSKXJSRUHYUKE","A2KW87ZD2ELYNG","3H6W48L9F4B5OEOMH57RM53Z4H1WP0","","648.2999999523163","img/animal6.png","76","649","3","1","3","1,0.5,0,1,0,0.5,0.5,0,1",""
"","html-keyboard-response","266","200612","0.0-266.0","3N4BPTXIO9ET730V0FSKXJSRUHYUKE","A2KW87ZD2ELYNG","3H6W48L9F4B5OEOMH57RM53Z4H1WP0","","null","<img src=""img/animal6.png"" style=""width:200px; border:14px solid green;"">","null","","","","","",""
"","image-keyboard-response","267","200985","0.0-267.0","3N4BPTXIO9ET730V0FSKXJSRUHYUKE","A2KW87ZD2ELYNG","3H6W48L9F4B5OEOMH57RM53Z4H1WP0","","373","img/animal6.png","76","373.39999985694885","3","1","3","1,0.5,0,1,0,0.5,0.5,0,1",""
"","html-keyboard-response","268","201292","0.0-268.0","3N4BPTXIO9ET730V0FSKXJSRUHYUKE","A2KW87ZD2ELYNG","3H6W48L9F4B5OEOMH57RM53Z4H1WP0","","null","<img src=""img/animal6.png"" style=""width:200px; border:14px solid green;"">","null","","","","","",""
"","image-keyboard-response","269","202045","0.0-269.0","3N4BPTXIO9ET730V0FSKXJSRUHYUKE","A2KW87ZD2ELYNG","3H6W48L9F4B5OEOMH57RM53Z4H1WP0","","752.2000000476837","img/animal1.png","74","752.6000001430511","1","1","2","1,0.5,0,1,0,0.5,0.5,0,1",""
"","html-keyboard-response","270","202348","0.0-270.0","3N4BPTXIO9ET730V0FSKXJSRUHYUKE","A2KW87ZD2ELYNG","3H6W48L9F4B5OEOMH57RM53Z4H1WP0","","null","<img src=""img/animal1.png"" style=""width:200px; border:14px solid green;"">","null","","","","","",""
"","image-keyboard-response","271","203138","0.0-271.0","3N4BPTXIO9ET730V0FSKXJSRUHYUKE","A2KW87ZD2ELYNG","3H6W48L9F4B5OEOMH57RM53Z4H1WP0","","789.6000001430511","img/animal2.png","75","790","2","0","1","1,0.5,0,1,0,0.5,0.5,0,1",""
"","html-keyboard-response","272","203444","0.0-272.0","3N4BPTXIO9ET730V0FSKXJSRUHYUKE","A2KW87ZD2ELYNG","3H6W48L9F4B5OEOMH57RM53Z4H1WP0","","null","<img src=""img/animal2.png"" style=""width:200px;border:14px solid red;"">","null","","","","","",""
"","image-keyboard-response","273","204699","0.0-273.0","3N4BPTXIO9ET730V0FSKXJSRUHYUKE","A2KW87ZD2ELYNG","3H6W48L9F4B5OEOMH57RM53Z4H1WP0","","1254.5999999046326","img/animal1.png","74","1254.9000000953674","1","1","2","1,0.5,0,1,0,0.5,0.5,0,1",""
"","html-keyboard-response","274","205004","0.0-274.0","3N4BPTXIO9ET730V0FSKXJSRUHYUKE","A2KW87ZD2ELYNG","3H6W48L9F4B5OEOMH57RM53Z4H1WP0","","null","<img src=""img/animal1.png"" style=""width:200px; border:14px solid green;"">","null","","","","","",""
"","image-keyboard-response","275","205727","0.0-275.0","3N4BPTXIO9ET730V0FSKXJSRUHYUKE","A2KW87ZD2ELYNG","3H6W48L9F4B5OEOMH57RM53Z4H1WP0","","723","img/animal6.png","76","723.4000000953674","3","1","3","1,0.5,0,1,0,0.5,0.5,0,1",""
"","html-keyboard-response","276","206036","0.0-276.0","3N4BPTXIO9ET730V0FSKXJSRUHYUKE","A2KW87ZD2ELYNG","3H6W48L9F4B5OEOMH57RM53Z4H1WP0","","null","<img src=""img/animal6.png"" style=""width:200px; border:14px solid green;"">","null","","","","","",""
"","image-keyboard-response","277","206421","0.0-277.0","3N4BPTXIO9ET730V0FSKXJSRUHYUKE","A2KW87ZD2ELYNG","3H6W48L9F4B5OEOMH57RM53Z4H1WP0","","384","img/animal6.png","76","384.5","3","1","3","1,0.5,0,1,0,0.5,0.5,0,1",""
"","html-keyboard-response","278","206724","0.0-278.0","3N4BPTXIO9ET730V0FSKXJSRUHYUKE","A2KW87ZD2ELYNG","3H6W48L9F4B5OEOMH57RM53Z4H1WP0","","null","<img src=""img/animal6.png"" style=""width:200px; border:14px solid green;"">","null","","","","","",""
"","image-keyboard-response","279","207120","0.0-279.0","3N4BPTXIO9ET730V0FSKXJSRUHYUKE","A2KW87ZD2ELYNG","3H6W48L9F4B5OEOMH57RM53Z4H1WP0","","396","img/animal6.png","76","396.5","3","1","3","1,0.5,0,1,0,0.5,0.5,0,1",""
"","html-keyboard-response","280","207428","0.0-280.0","3N4BPTXIO9ET730V0FSKXJSRUHYUKE","A2KW87ZD2ELYNG","3H6W48L9F4B5OEOMH57RM53Z4H1WP0","","null","<img src=""img/animal6.png"" style=""width:200px; border:14px solid green;"">","null","","","","","",""
"","image-keyboard-response","281","208196","0.0-281.0","3N4BPTXIO9ET730V0FSKXJSRUHYUKE","A2KW87ZD2ELYNG","3H6W48L9F4B5OEOMH57RM53Z4H1WP0","","767.9000000953674","img/animal2.png","75","768.4000000953674","2","0","1","1,0.5,0,1,0,0.5,0.5,0,1",""
"","html-keyboard-response","282","208500","0.0-282.0","3N4BPTXIO9ET730V0FSKXJSRUHYUKE","A2KW87ZD2ELYNG","3H6W48L9F4B5OEOMH57RM53Z4H1WP0","","null","<img src=""img/animal2.png"" style=""width:200px;border:14px solid red;"">","null","","","","","",""
"","image-keyboard-response","283","210116","0.0-283.0","3N4BPTXIO9ET730V0FSKXJSRUHYUKE","A2KW87ZD2ELYNG","3H6W48L9F4B5OEOMH57RM53Z4H1WP0","","1615.9000000953674","img/animal6.png","76","1616.5","3","1","3","1,0.5,0,1,0,0.5,0.5,0,1",""
"","html-keyboard-response","284","210420","0.0-284.0","3N4BPTXIO9ET730V0FSKXJSRUHYUKE","A2KW87ZD2ELYNG","3H6W48L9F4B5OEOMH57RM53Z4H1WP0","","null","<img src=""img/animal6.png"" style=""width:200px; border:14px solid green;"">","null","","","","","",""
"","image-keyboard-response","285","210837","0.0-285.0","3N4BPTXIO9ET730V0FSKXJSRUHYUKE","A2KW87ZD2ELYNG","3H6W48L9F4B5OEOMH57RM53Z4H1WP0","","416.2999999523163","img/animal6.png","76","416.90000009536743","3","1","3","1,0.5,0,1,0,0.5,0.5,0,1",""
"","html-keyboard-response","286","211140","0.0-286.0","3N4BPTXIO9ET730V0FSKXJSRUHYUKE","A2KW87ZD2ELYNG","3H6W48L9F4B5OEOMH57RM53Z4H1WP0","","null","<img src=""img/animal6.png"" style=""width:200px; border:14px solid green;"">","null","","","","","",""
"","image-keyboard-response","287","211818","0.0-287.0","3N4BPTXIO9ET730V0FSKXJSRUHYUKE","A2KW87ZD2ELYNG","3H6W48L9F4B5OEOMH57RM53Z4H1WP0","","677.7999999523163","img/animal2.png","75","678.4000000953674","2","1","1","1,0.5,0,1,0,0.5,0.5,0,1",""
"","html-keyboard-response","288","212124","0.0-288.0","3N4BPTXIO9ET730V0FSKXJSRUHYUKE","A2KW87ZD2ELYNG","3H6W48L9F4B5OEOMH57RM53Z4H1WP0","","null","<img src=""img/animal2.png"" style=""width:200px; border:14px solid green;"">","null","","","","","",""
"","image-keyboard-response","289","212664","0.0-289.0","3N4BPTXIO9ET730V0FSKXJSRUHYUKE","A2KW87ZD2ELYNG","3H6W48L9F4B5OEOMH57RM53Z4H1WP0","","539.5","img/animal1.png","74","540","1","1","2","1,0.5,0,1,0,0.5,0.5,0,1",""
"","html-keyboard-response","290","212972","0.0-290.0","3N4BPTXIO9ET730V0FSKXJSRUHYUKE","A2KW87ZD2ELYNG","3H6W48L9F4B5OEOMH57RM53Z4H1WP0","","null","<img src=""img/animal1.png"" style=""width:200px; border:14px solid green;"">","null","","","","","",""
"","image-keyboard-response","291","213445","0.0-291.0","3N4BPTXIO9ET730V0FSKXJSRUHYUKE","A2KW87ZD2ELYNG","3H6W48L9F4B5OEOMH57RM53Z4H1WP0","","472.5","img/animal1.png","74","473.19999980926514","1","1","2","1,0.5,0,1,0,0.5,0.5,0,1",""
"","html-keyboard-response","292","213748","0.0-292.0","3N4BPTXIO9ET730V0FSKXJSRUHYUKE","A2KW87ZD2ELYNG","3H6W48L9F4B5OEOMH57RM53Z4H1WP0","","null","<img src=""img/animal1.png"" style=""width:200px; border:14px solid green;"">","null","","","","","",""
"","image-keyboard-response","293","214339","0.0-293.0","3N4BPTXIO9ET730V0FSKXJSRUHYUKE","A2KW87ZD2ELYNG","3H6W48L9F4B5OEOMH57RM53Z4H1WP0","","590.5","img/animal2.png","75","591","2","0","1","1,0.5,0,1,0,0.5,0.5,0,1",""
"","html-keyboard-response","294","214644","0.0-294.0","3N4BPTXIO9ET730V0FSKXJSRUHYUKE","A2KW87ZD2ELYNG","3H6W48L9F4B5OEOMH57RM53Z4H1WP0","","null","<img src=""img/animal2.png"" style=""width:200px;border:14px solid red;"">","null","","","","","",""
"","image-keyboard-response","295","216012","0.0-295.0","3N4BPTXIO9ET730V0FSKXJSRUHYUKE","A2KW87ZD2ELYNG","3H6W48L9F4B5OEOMH57RM53Z4H1WP0","","1366.5","img/animal6.png","76","1367.2000000476837","3","1","3","1,0.5,0,1,0,0.5,0.5,0,1",""
"","html-keyboard-response","296","216316","0.0-296.0","3N4BPTXIO9ET730V0FSKXJSRUHYUKE","A2KW87ZD2ELYNG","3H6W48L9F4B5OEOMH57RM53Z4H1WP0","","null","<img src=""img/animal6.png"" style=""width:200px; border:14px solid green;"">","null","","","","","",""
"","image-keyboard-response","297","217165","0.0-297.0","3N4BPTXIO9ET730V0FSKXJSRUHYUKE","A2KW87ZD2ELYNG","3H6W48L9F4B5OEOMH57RM53Z4H1WP0","","848.7000000476837","img/animal1.png","74","849.2000000476837","1","1","2","1,0.5,0,1,0,0.5,0.5,0,1",""
"","html-keyboard-response","298","217468","0.0-298.0","3N4BPTXIO9ET730V0FSKXJSRUHYUKE","A2KW87ZD2ELYNG","3H6W48L9F4B5OEOMH57RM53Z4H1WP0","","null","<img src=""img/animal1.png"" style=""width:200px; border:14px solid green;"">","null","","","","","",""
"","image-keyboard-response","299","219164","0.0-299.0","3N4BPTXIO9ET730V0FSKXJSRUHYUKE","A2KW87ZD2ELYNG","3H6W48L9F4B5OEOMH57RM53Z4H1WP0","","1695.2999999523163","img/animal6.png","76","1695.7999999523163","3","1","3","1,0.5,0,1,0,0.5,0.5,0,1",""
"","html-keyboard-response","300","219468","0.0-300.0","3N4BPTXIO9ET730V0FSKXJSRUHYUKE","A2KW87ZD2ELYNG","3H6W48L9F4B5OEOMH57RM53Z4H1WP0","","null","<img src=""img/animal6.png"" style=""width:200px; border:14px solid green;"">","null","","","","","",""
"","image-keyboard-response","301","219895","0.0-301.0","3N4BPTXIO9ET730V0FSKXJSRUHYUKE","A2KW87ZD2ELYNG","3H6W48L9F4B5OEOMH57RM53Z4H1WP0","","426","img/animal6.png","76","426.60000014305115","3","1","3","1,0.5,0,1,0,0.5,0.5,0,1",""
"","html-keyboard-response","302","220196","0.0-302.0","3N4BPTXIO9ET730V0FSKXJSRUHYUKE","A2KW87ZD2ELYNG","3H6W48L9F4B5OEOMH57RM53Z4H1WP0","","null","<img src=""img/animal6.png"" style=""width:200px; border:14px solid green;"">","null","","","","","",""
"","image-keyboard-response","303","220842","0.0-303.0","3N4BPTXIO9ET730V0FSKXJSRUHYUKE","A2KW87ZD2ELYNG","3H6W48L9F4B5OEOMH57RM53Z4H1WP0","","645.2999999523163","img/animal1.png","74","645.9000000953674","1","1","2","1,0.5,0,1,0,0.5,0.5,0,1",""
"","html-keyboard-response","304","221148","0.0-304.0","3N4BPTXIO9ET730V0FSKXJSRUHYUKE","A2KW87ZD2ELYNG","3H6W48L9F4B5OEOMH57RM53Z4H1WP0","","null","<img src=""img/animal1.png"" style=""width:200px; border:14px solid green;"">","null","","","","","",""
"","image-keyboard-response","305","222186","0.0-305.0","3N4BPTXIO9ET730V0FSKXJSRUHYUKE","A2KW87ZD2ELYNG","3H6W48L9F4B5OEOMH57RM53Z4H1WP0","","1037.2000000476837","img/animal2.png","75","1037.7999999523163","2","0","1","1,0.5,0,1,0,0.5,0.5,0,1",""
"","html-keyboard-response","306","222492","0.0-306.0","3N4BPTXIO9ET730V0FSKXJSRUHYUKE","A2KW87ZD2ELYNG","3H6W48L9F4B5OEOMH57RM53Z4H1WP0","","null","<img src=""img/animal2.png"" style=""width:200px;border:14px solid red;"">","null","","","","","",""
"","image-keyboard-response","307","223133","0.0-307.0","3N4BPTXIO9ET730V0FSKXJSRUHYUKE","A2KW87ZD2ELYNG","3H6W48L9F4B5OEOMH57RM53Z4H1WP0","","640.1000001430511","img/animal1.png","74","640.8000001907349","1","1","2","1,0.5,0,1,0,0.5,0.5,0,1",""
"","html-keyboard-response","308","223436","0.0-308.0","3N4BPTXIO9ET730V0FSKXJSRUHYUKE","A2KW87ZD2ELYNG","3H6W48L9F4B5OEOMH57RM53Z4H1WP0","","null","<img src=""img/animal1.png"" style=""width:200px; border:14px solid green;"">","null","","","","","",""
"","image-keyboard-response","309","223887","0.0-309.0","3N4BPTXIO9ET730V0FSKXJSRUHYUKE","A2KW87ZD2ELYNG","3H6W48L9F4B5OEOMH57RM53Z4H1WP0","","450.19999980926514","img/animal1.png","74","450.7000000476837","1","1","2","1,0.5,0,1,0,0.5,0.5,0,1",""
"","html-keyboard-response","310","224188","0.0-310.0","3N4BPTXIO9ET730V0FSKXJSRUHYUKE","A2KW87ZD2ELYNG","3H6W48L9F4B5OEOMH57RM53Z4H1WP0","","null","<img src=""img/animal1.png"" style=""width:200px; border:14px solid green;"">","null","","","","","",""
"","image-keyboard-response","311","224963","0.0-311.0","3N4BPTXIO9ET730V0FSKXJSRUHYUKE","A2KW87ZD2ELYNG","3H6W48L9F4B5OEOMH57RM53Z4H1WP0","","774.3999998569489","img/animal6.png","76","775","3","1","3","1,0.5,0,1,0,0.5,0.5,0,1",""
"","html-keyboard-response","312","225268","0.0-312.0","3N4BPTXIO9ET730V0FSKXJSRUHYUKE","A2KW87ZD2ELYNG","3H6W48L9F4B5OEOMH57RM53Z4H1WP0","","null","<img src=""img/animal6.png"" style=""width:200px; border:14px solid green;"">","null","","","","","",""
"","image-keyboard-response","313","225908","0.0-313.0","3N4BPTXIO9ET730V0FSKXJSRUHYUKE","A2KW87ZD2ELYNG","3H6W48L9F4B5OEOMH57RM53Z4H1WP0","","639.1000001430511","img/animal1.png","74","639.5","1","1","2","1,0.5,0,1,0,0.5,0.5,0,1",""
"","html-keyboard-response","314","226212","0.0-314.0","3N4BPTXIO9ET730V0FSKXJSRUHYUKE","A2KW87ZD2ELYNG","3H6W48L9F4B5OEOMH57RM53Z4H1WP0","","null","<img src=""img/animal1.png"" style=""width:200px; border:14px solid green;"">","null","","","","","",""
"","image-keyboard-response","315","226750","0.0-315.0","3N4BPTXIO9ET730V0FSKXJSRUHYUKE","A2KW87ZD2ELYNG","3H6W48L9F4B5OEOMH57RM53Z4H1WP0","","537.2999999523163","img/animal6.png","75","538.1000001430511","2","0","3","1,0.5,0,1,0,0.5,0.5,0,1",""
"","html-keyboard-response","316","227052","0.0-316.0","3N4BPTXIO9ET730V0FSKXJSRUHYUKE","A2KW87ZD2ELYNG","3H6W48L9F4B5OEOMH57RM53Z4H1WP0","","null","<img src=""img/animal6.png"" style=""width:200px;border:14px solid red;"">","null","","","","","",""
"","image-keyboard-response","317","227423","0.0-317.0","3N4BPTXIO9ET730V0FSKXJSRUHYUKE","A2KW87ZD2ELYNG","3H6W48L9F4B5OEOMH57RM53Z4H1WP0","","370.2999999523163","img/animal6.png","76","370.90000009536743","3","1","3","1,0.5,0,1,0,0.5,0.5,0,1",""
"","html-keyboard-response","318","227724","0.0-318.0","3N4BPTXIO9ET730V0FSKXJSRUHYUKE","A2KW87ZD2ELYNG","3H6W48L9F4B5OEOMH57RM53Z4H1WP0","","null","<img src=""img/animal6.png"" style=""width:200px; border:14px solid green;"">","null","","","","","",""
"","image-keyboard-response","319","228397","0.0-319.0","3N4BPTXIO9ET730V0FSKXJSRUHYUKE","A2KW87ZD2ELYNG","3H6W48L9F4B5OEOMH57RM53Z4H1WP0","","672.1000001430511","img/animal2.png","75","672.5999999046326","2","1","1","1,0.5,0,1,0,0.5,0.5,0,1",""
"","html-keyboard-response","320","228700","0.0-320.0","3N4BPTXIO9ET730V0FSKXJSRUHYUKE","A2KW87ZD2ELYNG","3H6W48L9F4B5OEOMH57RM53Z4H1WP0","","null","<img src=""img/animal2.png"" style=""width:200px; border:14px solid green;"">","null","","","","","",""
"","image-keyboard-response","321","229266","0.0-321.0","3N4BPTXIO9ET730V0FSKXJSRUHYUKE","A2KW87ZD2ELYNG","3H6W48L9F4B5OEOMH57RM53Z4H1WP0","","565.2000000476837","img/animal1.png","74","565.6000001430511","1","1","2","1,0.5,0,1,0,0.5,0.5,0,1",""
"","html-keyboard-response","322","229572","0.0-322.0","3N4BPTXIO9ET730V0FSKXJSRUHYUKE","A2KW87ZD2ELYNG","3H6W48L9F4B5OEOMH57RM53Z4H1WP0","","null","<img src=""img/animal1.png"" style=""width:200px; border:14px solid green;"">","null","","","","","",""
"","image-keyboard-response","323","230000","0.0-323.0","3N4BPTXIO9ET730V0FSKXJSRUHYUKE","A2KW87ZD2ELYNG","3H6W48L9F4B5OEOMH57RM53Z4H1WP0","","426.89999985694885","img/animal1.png","74","427.5","1","1","2","1,0.5,0,1,0,0.5,0.5,0,1",""
"","html-keyboard-response","324","230308","0.0-324.0","3N4BPTXIO9ET730V0FSKXJSRUHYUKE","A2KW87ZD2ELYNG","3H6W48L9F4B5OEOMH57RM53Z4H1WP0","","null","<img src=""img/animal1.png"" style=""width:200px; border:14px solid green;"">","null","","","","","",""
"","image-keyboard-response","325","231066","0.0-325.0","3N4BPTXIO9ET730V0FSKXJSRUHYUKE","A2KW87ZD2ELYNG","3H6W48L9F4B5OEOMH57RM53Z4H1WP0","","757","img/animal6.png","76","757.3999998569489","3","1","3","1,0.5,0,1,0,0.5,0.5,0,1",""
"","html-keyboard-response","326","231372","0.0-326.0","3N4BPTXIO9ET730V0FSKXJSRUHYUKE","A2KW87ZD2ELYNG","3H6W48L9F4B5OEOMH57RM53Z4H1WP0","","null","<img src=""img/animal6.png"" style=""width:200px; border:14px solid green;"">","null","","","","","",""
"","image-keyboard-response","327","231726","0.0-327.0","3N4BPTXIO9ET730V0FSKXJSRUHYUKE","A2KW87ZD2ELYNG","3H6W48L9F4B5OEOMH57RM53Z4H1WP0","","352.7000000476837","img/animal6.png","76","353.60000014305115","3","1","3","1,0.5,0,1,0,0.5,0.5,0,1",""
"","html-keyboard-response","328","232028","0.0-328.0","3N4BPTXIO9ET730V0FSKXJSRUHYUKE","A2KW87ZD2ELYNG","3H6W48L9F4B5OEOMH57RM53Z4H1WP0","","null","<img src=""img/animal6.png"" style=""width:200px; border:14px solid green;"">","null","","","","","",""
"","image-keyboard-response","329","232669","0.0-329.0","3N4BPTXIO9ET730V0FSKXJSRUHYUKE","A2KW87ZD2ELYNG","3H6W48L9F4B5OEOMH57RM53Z4H1WP0","","640.0999999046326","img/animal2.png","75","640.5999999046326","2","0","1","1,0.5,0,1,0,0.5,0.5,0,1",""
"","html-keyboard-response","330","232972","0.0-330.0","3N4BPTXIO9ET730V0FSKXJSRUHYUKE","A2KW87ZD2ELYNG","3H6W48L9F4B5OEOMH57RM53Z4H1WP0","","null","<img src=""img/animal2.png"" style=""width:200px;border:14px solid red;"">","null","","","","","",""
"","image-keyboard-response","331","233761","0.0-331.0","3N4BPTXIO9ET730V0FSKXJSRUHYUKE","A2KW87ZD2ELYNG","3H6W48L9F4B5OEOMH57RM53Z4H1WP0","","788.5999999046326","img/animal6.png","76","789.3999998569489","3","1","3","1,0.5,0,1,0,0.5,0.5,0,1",""
"","html-keyboard-response","332","234068","0.0-332.0","3N4BPTXIO9ET730V0FSKXJSRUHYUKE","A2KW87ZD2ELYNG","3H6W48L9F4B5OEOMH57RM53Z4H1WP0","","null","<img src=""img/animal6.png"" style=""width:200px; border:14px solid green;"">","null","","","","","",""
"","image-keyboard-response","333","234662","0.0-333.0","3N4BPTXIO9ET730V0FSKXJSRUHYUKE","A2KW87ZD2ELYNG","3H6W48L9F4B5OEOMH57RM53Z4H1WP0","","592.8999998569489","img/animal1.png","74","593.3999998569489","1","1","2","1,0.5,0,1,0,0.5,0.5,0,1",""
"","html-keyboard-response","334","234964","0.0-334.0","3N4BPTXIO9ET730V0FSKXJSRUHYUKE","A2KW87ZD2ELYNG","3H6W48L9F4B5OEOMH57RM53Z4H1WP0","","null","<img src=""img/animal1.png"" style=""width:200px; border:14px solid green;"">","null","","","","","",""
"","image-keyboard-response","335","235453","0.0-335.0","3N4BPTXIO9ET730V0FSKXJSRUHYUKE","A2KW87ZD2ELYNG","3H6W48L9F4B5OEOMH57RM53Z4H1WP0","","488.59999990463257","img/animal1.png","74","489.2000000476837","1","1","2","1,0.5,0,1,0,0.5,0.5,0,1",""
"","html-keyboard-response","336","235756","0.0-336.0","3N4BPTXIO9ET730V0FSKXJSRUHYUKE","A2KW87ZD2ELYNG","3H6W48L9F4B5OEOMH57RM53Z4H1WP0","","null","<img src=""img/animal1.png"" style=""width:200px; border:14px solid green;"">","null","","","","","",""
"","image-keyboard-response","337","236587","0.0-337.0","3N4BPTXIO9ET730V0FSKXJSRUHYUKE","A2KW87ZD2ELYNG","3H6W48L9F4B5OEOMH57RM53Z4H1WP0","","830.4000000953674","img/animal6.png","76","831","3","1","3","1,0.5,0,1,0,0.5,0.5,0,1",""
"","html-keyboard-response","338","236892","0.0-338.0","3N4BPTXIO9ET730V0FSKXJSRUHYUKE","A2KW87ZD2ELYNG","3H6W48L9F4B5OEOMH57RM53Z4H1WP0","","null","<img src=""img/animal6.png"" style=""width:200px; border:14px solid green;"">","null","","","","","",""
"","image-keyboard-response","339","237436","0.0-339.0","3N4BPTXIO9ET730V0FSKXJSRUHYUKE","A2KW87ZD2ELYNG","3H6W48L9F4B5OEOMH57RM53Z4H1WP0","","543.2999999523163","img/animal1.png","74","544","1","1","2","1,0.5,0,1,0,0.5,0.5,0,1",""
"","html-keyboard-response","340","237740","0.0-340.0","3N4BPTXIO9ET730V0FSKXJSRUHYUKE","A2KW87ZD2ELYNG","3H6W48L9F4B5OEOMH57RM53Z4H1WP0","","null","<img src=""img/animal1.png"" style=""width:200px; border:14px solid green;"">","null","","","","","",""
"","image-keyboard-response","341","238228","0.0-341.0","3N4BPTXIO9ET730V0FSKXJSRUHYUKE","A2KW87ZD2ELYNG","3H6W48L9F4B5OEOMH57RM53Z4H1WP0","","486.59999990463257","img/animal1.png","74","487.40000009536743","1","1","2","1,0.5,0,1,0,0.5,0.5,0,1",""
"","html-keyboard-response","342","238532","0.0-342.0","3N4BPTXIO9ET730V0FSKXJSRUHYUKE","A2KW87ZD2ELYNG","3H6W48L9F4B5OEOMH57RM53Z4H1WP0","","null","<img src=""img/animal1.png"" style=""width:200px; border:14px solid green;"">","null","","","","","",""
"","image-keyboard-response","343","239016","0.0-343.0","3N4BPTXIO9ET730V0FSKXJSRUHYUKE","A2KW87ZD2ELYNG","3H6W48L9F4B5OEOMH57RM53Z4H1WP0","","483.7000000476837","img/animal1.png","74","484.09999990463257","1","1","2","1,0.5,0,1,0,0.5,0.5,0,1",""
"","html-keyboard-response","344","239324","0.0-344.0","3N4BPTXIO9ET730V0FSKXJSRUHYUKE","A2KW87ZD2ELYNG","3H6W48L9F4B5OEOMH57RM53Z4H1WP0","","null","<img src=""img/animal1.png"" style=""width:200px; border:14px solid green;"">","null","","","","","",""
"","image-keyboard-response","345","239801","0.0-345.0","3N4BPTXIO9ET730V0FSKXJSRUHYUKE","A2KW87ZD2ELYNG","3H6W48L9F4B5OEOMH57RM53Z4H1WP0","","476.7999999523163","img/animal1.png","74","477.2000000476837","1","1","2","1,0.5,0,1,0,0.5,0.5,0,1",""
"","html-keyboard-response","346","240108","0.0-346.0","3N4BPTXIO9ET730V0FSKXJSRUHYUKE","A2KW87ZD2ELYNG","3H6W48L9F4B5OEOMH57RM53Z4H1WP0","","null","<img src=""img/animal1.png"" style=""width:200px; border:14px solid green;"">","null","","","","","",""
"","image-keyboard-response","347","240739","0.0-347.0","3N4BPTXIO9ET730V0FSKXJSRUHYUKE","A2KW87ZD2ELYNG","3H6W48L9F4B5OEOMH57RM53Z4H1WP0","","630.0999999046326","img/animal2.png","75","630.7000000476837","2","1","1","1,0.5,0,1,0,0.5,0.5,0,1",""
"","html-keyboard-response","348","241044","0.0-348.0","3N4BPTXIO9ET730V0FSKXJSRUHYUKE","A2KW87ZD2ELYNG","3H6W48L9F4B5OEOMH57RM53Z4H1WP0","","null","<img src=""img/animal2.png"" style=""width:200px; border:14px solid green;"">","null","","","","","",""
"","image-keyboard-response","349","241374","0.0-349.0","3N4BPTXIO9ET730V0FSKXJSRUHYUKE","A2KW87ZD2ELYNG","3H6W48L9F4B5OEOMH57RM53Z4H1WP0","","329.40000009536743","img/animal2.png","75","329.90000009536743","2","0","1","1,0.5,0,1,0,0.5,0.5,0,1",""
"","html-keyboard-response","350","241676","0.0-350.0","3N4BPTXIO9ET730V0FSKXJSRUHYUKE","A2KW87ZD2ELYNG","3H6W48L9F4B5OEOMH57RM53Z4H1WP0","","null","<img src=""img/animal2.png"" style=""width:200px;border:14px solid red;"">","null","","","","","",""
"","image-keyboard-response","351","242080","0.0-351.0","3N4BPTXIO9ET730V0FSKXJSRUHYUKE","A2KW87ZD2ELYNG","3H6W48L9F4B5OEOMH57RM53Z4H1WP0","","404.10000014305115","img/animal2.png","75","404.5","2","0","1","1,0.5,0,1,0,0.5,0.5,0,1",""
"","html-keyboard-response","352","242388","0.0-352.0","3N4BPTXIO9ET730V0FSKXJSRUHYUKE","A2KW87ZD2ELYNG","3H6W48L9F4B5OEOMH57RM53Z4H1WP0","","null","<img src=""img/animal2.png"" style=""width:200px;border:14px solid red;"">","null","","","","","",""
"","image-keyboard-response","353","242699","0.0-353.0","3N4BPTXIO9ET730V0FSKXJSRUHYUKE","A2KW87ZD2ELYNG","3H6W48L9F4B5OEOMH57RM53Z4H1WP0","","310","img/animal2.png","75","310.7999999523163","2","1","1","1,0.5,0,1,0,0.5,0.5,0,1",""
"","html-keyboard-response","354","243004","0.0-354.0","3N4BPTXIO9ET730V0FSKXJSRUHYUKE","A2KW87ZD2ELYNG","3H6W48L9F4B5OEOMH57RM53Z4H1WP0","","null","<img src=""img/animal2.png"" style=""width:200px; border:14px solid green;"">","null","","","","","",""
"","image-keyboard-response","355","243389","0.0-355.0","3N4BPTXIO9ET730V0FSKXJSRUHYUKE","A2KW87ZD2ELYNG","3H6W48L9F4B5OEOMH57RM53Z4H1WP0","","383.89999985694885","img/animal2.png","75","384.5","2","0","1","1,0.5,0,1,0,0.5,0.5,0,1",""
"","html-keyboard-response","356","243692","0.0-356.0","3N4BPTXIO9ET730V0FSKXJSRUHYUKE","A2KW87ZD2ELYNG","3H6W48L9F4B5OEOMH57RM53Z4H1WP0","","null","<img src=""img/animal2.png"" style=""width:200px;border:14px solid red;"">","null","","","","","",""
"","image-keyboard-response","357","243997","0.0-357.0","3N4BPTXIO9ET730V0FSKXJSRUHYUKE","A2KW87ZD2ELYNG","3H6W48L9F4B5OEOMH57RM53Z4H1WP0","","304.40000009536743","img/animal2.png","75","305.10000014305115","2","1","1","1,0.5,0,1,0,0.5,0.5,0,1",""
"","html-keyboard-response","358","244300","0.0-358.0","3N4BPTXIO9ET730V0FSKXJSRUHYUKE","A2KW87ZD2ELYNG","3H6W48L9F4B5OEOMH57RM53Z4H1WP0","","null","<img src=""img/animal2.png"" style=""width:200px; border:14px solid green;"">","null","","","","","",""
"","image-keyboard-response","359","245039","0.0-359.0","3N4BPTXIO9ET730V0FSKXJSRUHYUKE","A2KW87ZD2ELYNG","3H6W48L9F4B5OEOMH57RM53Z4H1WP0","","738.7999999523163","img/animal1.png","74","739.5","1","1","2","1,0.5,0,1,0,0.5,0.5,0,1",""
"","html-keyboard-response","360","245348","0.0-360.0","3N4BPTXIO9ET730V0FSKXJSRUHYUKE","A2KW87ZD2ELYNG","3H6W48L9F4B5OEOMH57RM53Z4H1WP0","","null","<img src=""img/animal1.png"" style=""width:200px; border:14px solid green;"">","null","","","","","",""
"","image-keyboard-response","361","246075","0.0-361.0","3N4BPTXIO9ET730V0FSKXJSRUHYUKE","A2KW87ZD2ELYNG","3H6W48L9F4B5OEOMH57RM53Z4H1WP0","","726","img/animal6.png","76","726.5","3","1","3","1,0.5,0,1,0,0.5,0.5,0,1",""
"","html-keyboard-response","362","246380","0.0-362.0","3N4BPTXIO9ET730V0FSKXJSRUHYUKE","A2KW87ZD2ELYNG","3H6W48L9F4B5OEOMH57RM53Z4H1WP0","","null","<img src=""img/animal6.png"" style=""width:200px; border:14px solid green;"">","null","","","","","",""
"","instructions","363","249580","0.0-363.0","3N4BPTXIO9ET730V0FSKXJSRUHYUKE","A2KW87ZD2ELYNG","3H6W48L9F4B5OEOMH57RM53Z4H1WP0","[{""page_index"":0,""viewing_time"":3200}]","3200.0999999046326","","","","","","","",""
"","survey-text","364","257327","0.0-364.0","3N4BPTXIO9ET730V0FSKXJSRUHYUKE","A2KW87ZD2ELYNG","3H6W48L9F4B5OEOMH57RM53Z4H1WP0","","7744.899999856949","","","","","","","","{""Q0"":""A2KW87ZD2ELYNG""}"
