"success","trial_type","trial_index","time_elapsed","internal_node_id","assignmentID","mturkID","hitID","view_history","rt","stimulus","key_press","reactionTime","a","r","s","reward_cond","responses"
"true","fullscreen","0","5814","0.0-0.0","31T4R4OBOT29QUCBVUIBZ81ZGHM7C9","A2LMQ4497NMK3S","3S829FDFT2NBOHQMM1CIOU0HZYXDXL","","","","","","","","","",""
"","instructions","1","40393","0.0-1.0","31T4R4OBOT29QUCBVUIBZ81ZGHM7C9","A2LMQ4497NMK3S","3S829FDFT2NBOHQMM1CIOU0HZYXDXL","[{""page_index"":0,""viewing_time"":8319},{""page_index"":1,""viewing_time"":2437.899999976158},{""page_index"":2,""viewing_time"":1116},{""page_index"":3,""viewing_time"":3882.199999988079},{""page_index"":4,""viewing_time"":2089.900000035763},{""page_index"":5,""viewing_time"":1113.8999999761581},{""page_index"":6,""viewing_time"":2830.100000023842},{""page_index"":5,""viewing_time"":5544.099999964237},{""page_index"":6,""viewing_time"":4532.400000035763},{""page_index"":7,""viewing_time"":2711.300000011921}]","34577.5","","","","","","","",""
"","image-keyboard-response","2","41444","0.0-2.0","31T4R4OBOT29QUCBVUIBZ81ZGHM7C9","A2LMQ4497NMK3S","3S829FDFT2NBOHQMM1CIOU0HZYXDXL","","1049.9000000357628","img/animal4.png","74","1051.5","1","1","2","0.7,0,0.8,0.7,0.8,0,0.7,0.8,0",""
"","html-keyboard-response","3","41746","0.0-3.0","31T4R4OBOT29QUCBVUIBZ81ZGHM7C9","A2LMQ4497NMK3S","3S829FDFT2NBOHQMM1CIOU0HZYXDXL","","null","<img src=""img/animal4.png"" style=""width:200px; border:14px solid green;"">","null","","","","","",""
"","image-keyboard-response","4","42212","0.0-4.0","31T4R4OBOT29QUCBVUIBZ81ZGHM7C9","A2LMQ4497NMK3S","3S829FDFT2NBOHQMM1CIOU0HZYXDXL","","464.69999998807907","img/animal4.png","74","465.80000001192093","1","1","2","0.7,0,0.8,0.7,0.8,0,0.7,0.8,0",""
"","html-keyboard-response","5","42517","0.0-5.0","31T4R4OBOT29QUCBVUIBZ81ZGHM7C9","A2LMQ4497NMK3S","3S829FDFT2NBOHQMM1CIOU0HZYXDXL","","null","<img src=""img/animal4.png"" style=""width:200px; border:14px solid green;"">","null","","","","","",""
"","image-keyboard-response","6","43124","0.0-6.0","31T4R4OBOT29QUCBVUIBZ81ZGHM7C9","A2LMQ4497NMK3S","3S829FDFT2NBOHQMM1CIOU0HZYXDXL","","605.8999999761581","img/animal5.png","75","606.8999999761581","2","0","1","0.7,0,0.8,0.7,0.8,0,0.7,0.8,0",""
"","html-keyboard-response","7","43427","0.0-7.0","31T4R4OBOT29QUCBVUIBZ81ZGHM7C9","A2LMQ4497NMK3S","3S829FDFT2NBOHQMM1CIOU0HZYXDXL","","null","<img src=""img/animal5.png"" style=""width:200px;border:14px solid red;"">","null","","","","","",""
"","image-keyboard-response","8","43804","0.0-8.0","31T4R4OBOT29QUCBVUIBZ81ZGHM7C9","A2LMQ4497NMK3S","3S829FDFT2NBOHQMM1CIOU0HZYXDXL","","376.2000000476837","img/animal5.png","75","377.19999998807907","2","0","1","0.7,0,0.8,0.7,0.8,0,0.7,0.8,0",""
"","html-keyboard-response","9","44106","0.0-9.0","31T4R4OBOT29QUCBVUIBZ81ZGHM7C9","A2LMQ4497NMK3S","3S829FDFT2NBOHQMM1CIOU0HZYXDXL","","null","<img src=""img/animal5.png"" style=""width:200px;border:14px solid red;"">","null","","","","","",""
"","image-keyboard-response","10","44836","0.0-10.0","31T4R4OBOT29QUCBVUIBZ81ZGHM7C9","A2LMQ4497NMK3S","3S829FDFT2NBOHQMM1CIOU0HZYXDXL","","728.6000000238419","img/animal4.png","74","729.5","1","1","2","0.7,0,0.8,0.7,0.8,0,0.7,0.8,0",""
"","html-keyboard-response","11","45138","0.0-11.0","31T4R4OBOT29QUCBVUIBZ81ZGHM7C9","A2LMQ4497NMK3S","3S829FDFT2NBOHQMM1CIOU0HZYXDXL","","null","<img src=""img/animal4.png"" style=""width:200px; border:14px solid green;"">","null","","","","","",""
"","image-keyboard-response","12","45932","0.0-12.0","31T4R4OBOT29QUCBVUIBZ81ZGHM7C9","A2LMQ4497NMK3S","3S829FDFT2NBOHQMM1CIOU0HZYXDXL","","793","img/animal5.png","76","794.1999999880791","3","1","1","0.7,0,0.8,0.7,0.8,0,0.7,0.8,0",""
"","html-keyboard-response","13","46233","0.0-13.0","31T4R4OBOT29QUCBVUIBZ81ZGHM7C9","A2LMQ4497NMK3S","3S829FDFT2NBOHQMM1CIOU0HZYXDXL","","null","<img src=""img/animal5.png"" style=""width:200px; border:14px solid green;"">","null","","","","","",""
"","image-keyboard-response","14","46860","0.0-14.0","31T4R4OBOT29QUCBVUIBZ81ZGHM7C9","A2LMQ4497NMK3S","3S829FDFT2NBOHQMM1CIOU0HZYXDXL","","625.6999999880791","img/animal5.png","76","626.5","3","0","1","0.7,0,0.8,0.7,0.8,0,0.7,0.8,0",""
"","html-keyboard-response","15","47161","0.0-15.0","31T4R4OBOT29QUCBVUIBZ81ZGHM7C9","A2LMQ4497NMK3S","3S829FDFT2NBOHQMM1CIOU0HZYXDXL","","null","<img src=""img/animal5.png"" style=""width:200px;border:14px solid red;"">","null","","","","","",""
"","image-keyboard-response","16","47916","0.0-16.0","31T4R4OBOT29QUCBVUIBZ81ZGHM7C9","A2LMQ4497NMK3S","3S829FDFT2NBOHQMM1CIOU0HZYXDXL","","753.6999999880791","img/animal4.png","74","754.6000000238419","1","1","2","0.7,0,0.8,0.7,0.8,0,0.7,0.8,0",""
"","html-keyboard-response","17","48217","0.0-17.0","31T4R4OBOT29QUCBVUIBZ81ZGHM7C9","A2LMQ4497NMK3S","3S829FDFT2NBOHQMM1CIOU0HZYXDXL","","null","<img src=""img/animal4.png"" style=""width:200px; border:14px solid green;"">","null","","","","","",""
"","image-keyboard-response","18","48676","0.0-18.0","31T4R4OBOT29QUCBVUIBZ81ZGHM7C9","A2LMQ4497NMK3S","3S829FDFT2NBOHQMM1CIOU0HZYXDXL","","457.30000001192093","img/animal4.png","74","458.30000001192093","1","0","2","0.7,0,0.8,0.7,0.8,0,0.7,0.8,0",""
"","html-keyboard-response","19","48977","0.0-19.0","31T4R4OBOT29QUCBVUIBZ81ZGHM7C9","A2LMQ4497NMK3S","3S829FDFT2NBOHQMM1CIOU0HZYXDXL","","null","<img src=""img/animal4.png"" style=""width:200px;border:14px solid red;"">","null","","","","","",""
"","image-keyboard-response","20","49740","0.0-20.0","31T4R4OBOT29QUCBVUIBZ81ZGHM7C9","A2LMQ4497NMK3S","3S829FDFT2NBOHQMM1CIOU0HZYXDXL","","761.6999999880791","img/animal2.png","75","762.8000000119209","2","1","3","0.7,0,0.8,0.7,0.8,0,0.7,0.8,0",""
"","html-keyboard-response","21","50042","0.0-21.0","31T4R4OBOT29QUCBVUIBZ81ZGHM7C9","A2LMQ4497NMK3S","3S829FDFT2NBOHQMM1CIOU0HZYXDXL","","null","<img src=""img/animal2.png"" style=""width:200px; border:14px solid green;"">","null","","","","","",""
"","image-keyboard-response","22","50796","0.0-22.0","31T4R4OBOT29QUCBVUIBZ81ZGHM7C9","A2LMQ4497NMK3S","3S829FDFT2NBOHQMM1CIOU0HZYXDXL","","753.2999999523163","img/animal5.png","76","754.1999999880791","3","1","1","0.7,0,0.8,0.7,0.8,0,0.7,0.8,0",""
"","html-keyboard-response","23","51098","0.0-23.0","31T4R4OBOT29QUCBVUIBZ81ZGHM7C9","A2LMQ4497NMK3S","3S829FDFT2NBOHQMM1CIOU0HZYXDXL","","null","<img src=""img/animal5.png"" style=""width:200px; border:14px solid green;"">","null","","","","","",""
"","image-keyboard-response","24","51484","0.0-24.0","31T4R4OBOT29QUCBVUIBZ81ZGHM7C9","A2LMQ4497NMK3S","3S829FDFT2NBOHQMM1CIOU0HZYXDXL","","384.89999997615814","img/animal5.png","76","385.69999998807907","3","1","1","0.7,0,0.8,0.7,0.8,0,0.7,0.8,0",""
"","html-keyboard-response","25","51785","0.0-25.0","31T4R4OBOT29QUCBVUIBZ81ZGHM7C9","A2LMQ4497NMK3S","3S829FDFT2NBOHQMM1CIOU0HZYXDXL","","null","<img src=""img/animal5.png"" style=""width:200px; border:14px solid green;"">","null","","","","","",""
"","image-keyboard-response","26","52148","0.0-26.0","31T4R4OBOT29QUCBVUIBZ81ZGHM7C9","A2LMQ4497NMK3S","3S829FDFT2NBOHQMM1CIOU0HZYXDXL","","361.5","img/animal5.png","76","362.60000002384186","3","1","1","0.7,0,0.8,0.7,0.8,0,0.7,0.8,0",""
"","html-keyboard-response","27","52450","0.0-27.0","31T4R4OBOT29QUCBVUIBZ81ZGHM7C9","A2LMQ4497NMK3S","3S829FDFT2NBOHQMM1CIOU0HZYXDXL","","null","<img src=""img/animal5.png"" style=""width:200px; border:14px solid green;"">","null","","","","","",""
"","image-keyboard-response","28","53092","0.0-28.0","31T4R4OBOT29QUCBVUIBZ81ZGHM7C9","A2LMQ4497NMK3S","3S829FDFT2NBOHQMM1CIOU0HZYXDXL","","640.8999999761581","img/animal2.png","75","641.6999999880791","2","0","3","0.7,0,0.8,0.7,0.8,0,0.7,0.8,0",""
"","html-keyboard-response","29","53394","0.0-29.0","31T4R4OBOT29QUCBVUIBZ81ZGHM7C9","A2LMQ4497NMK3S","3S829FDFT2NBOHQMM1CIOU0HZYXDXL","","null","<img src=""img/animal2.png"" style=""width:200px;border:14px solid red;"">","null","","","","","",""
"","image-keyboard-response","30","53692","0.0-30.0","31T4R4OBOT29QUCBVUIBZ81ZGHM7C9","A2LMQ4497NMK3S","3S829FDFT2NBOHQMM1CIOU0HZYXDXL","","296.60000002384186","img/animal2.png","75","297.9000000357628","2","0","3","0.7,0,0.8,0.7,0.8,0,0.7,0.8,0",""
"","html-keyboard-response","31","53994","0.0-31.0","31T4R4OBOT29QUCBVUIBZ81ZGHM7C9","A2LMQ4497NMK3S","3S829FDFT2NBOHQMM1CIOU0HZYXDXL","","null","<img src=""img/animal2.png"" style=""width:200px;border:14px solid red;"">","null","","","","","",""
"","image-keyboard-response","32","54244","0.0-32.0","31T4R4OBOT29QUCBVUIBZ81ZGHM7C9","A2LMQ4497NMK3S","3S829FDFT2NBOHQMM1CIOU0HZYXDXL","","248.89999997615814","img/animal2.png","75","249.79999995231628","2","1","3","0.7,0,0.8,0.7,0.8,0,0.7,0.8,0",""
"","html-keyboard-response","33","54546","0.0-33.0","31T4R4OBOT29QUCBVUIBZ81ZGHM7C9","A2LMQ4497NMK3S","3S829FDFT2NBOHQMM1CIOU0HZYXDXL","","null","<img src=""img/animal2.png"" style=""width:200px; border:14px solid green;"">","null","","","","","",""
"","image-keyboard-response","34","54772","0.0-34.0","31T4R4OBOT29QUCBVUIBZ81ZGHM7C9","A2LMQ4497NMK3S","3S829FDFT2NBOHQMM1CIOU0HZYXDXL","","224.69999998807907","img/animal4.png","75","225.69999998807907","2","1","2","0.7,0,0.8,0.7,0.8,0,0.7,0.8,0",""
"","html-keyboard-response","35","55073","0.0-35.0","31T4R4OBOT29QUCBVUIBZ81ZGHM7C9","A2LMQ4497NMK3S","3S829FDFT2NBOHQMM1CIOU0HZYXDXL","","null","<img src=""img/animal4.png"" style=""width:200px; border:14px solid green;"">","null","","","","","",""
"","image-keyboard-response","36","56060","0.0-36.0","31T4R4OBOT29QUCBVUIBZ81ZGHM7C9","A2LMQ4497NMK3S","3S829FDFT2NBOHQMM1CIOU0HZYXDXL","","985.8000000119209","img/animal5.png","76","986.6999999880791","3","1","1","0.7,0,0.8,0.7,0.8,0,0.7,0.8,0",""
"","html-keyboard-response","37","56363","0.0-37.0","31T4R4OBOT29QUCBVUIBZ81ZGHM7C9","A2LMQ4497NMK3S","3S829FDFT2NBOHQMM1CIOU0HZYXDXL","","null","<img src=""img/animal5.png"" style=""width:200px; border:14px solid green;"">","null","","","","","",""
"","image-keyboard-response","38","56764","0.0-38.0","31T4R4OBOT29QUCBVUIBZ81ZGHM7C9","A2LMQ4497NMK3S","3S829FDFT2NBOHQMM1CIOU0HZYXDXL","","399.9000000357628","img/animal5.png","76","401","3","1","1","0.7,0,0.8,0.7,0.8,0,0.7,0.8,0",""
"","html-keyboard-response","39","57065","0.0-39.0","31T4R4OBOT29QUCBVUIBZ81ZGHM7C9","A2LMQ4497NMK3S","3S829FDFT2NBOHQMM1CIOU0HZYXDXL","","null","<img src=""img/animal5.png"" style=""width:200px; border:14px solid green;"">","null","","","","","",""
"","image-keyboard-response","40","57556","0.0-40.0","31T4R4OBOT29QUCBVUIBZ81ZGHM7C9","A2LMQ4497NMK3S","3S829FDFT2NBOHQMM1CIOU0HZYXDXL","","489.60000002384186","img/animal4.png","74","490.5999999642372","1","1","2","0.7,0,0.8,0.7,0.8,0,0.7,0.8,0",""
"","html-keyboard-response","41","57858","0.0-41.0","31T4R4OBOT29QUCBVUIBZ81ZGHM7C9","A2LMQ4497NMK3S","3S829FDFT2NBOHQMM1CIOU0HZYXDXL","","null","<img src=""img/animal4.png"" style=""width:200px; border:14px solid green;"">","null","","","","","",""
"","image-keyboard-response","42","58205","0.0-42.0","31T4R4OBOT29QUCBVUIBZ81ZGHM7C9","A2LMQ4497NMK3S","3S829FDFT2NBOHQMM1CIOU0HZYXDXL","","345.4000000357628","img/animal4.png","74","346.30000001192093","1","1","2","0.7,0,0.8,0.7,0.8,0,0.7,0.8,0",""
"","html-keyboard-response","43","58506","0.0-43.0","31T4R4OBOT29QUCBVUIBZ81ZGHM7C9","A2LMQ4497NMK3S","3S829FDFT2NBOHQMM1CIOU0HZYXDXL","","null","<img src=""img/animal4.png"" style=""width:200px; border:14px solid green;"">","null","","","","","",""
"","image-keyboard-response","44","58844","0.0-44.0","31T4R4OBOT29QUCBVUIBZ81ZGHM7C9","A2LMQ4497NMK3S","3S829FDFT2NBOHQMM1CIOU0HZYXDXL","","337.19999998807907","img/animal4.png","74","338","1","0","2","0.7,0,0.8,0.7,0.8,0,0.7,0.8,0",""
"","html-keyboard-response","45","59146","0.0-45.0","31T4R4OBOT29QUCBVUIBZ81ZGHM7C9","A2LMQ4497NMK3S","3S829FDFT2NBOHQMM1CIOU0HZYXDXL","","null","<img src=""img/animal4.png"" style=""width:200px;border:14px solid red;"">","null","","","","","",""
"","image-keyboard-response","46","59740","0.0-46.0","31T4R4OBOT29QUCBVUIBZ81ZGHM7C9","A2LMQ4497NMK3S","3S829FDFT2NBOHQMM1CIOU0HZYXDXL","","593.3999999761581","img/animal2.png","75","594.1999999880791","2","1","3","0.7,0,0.8,0.7,0.8,0,0.7,0.8,0",""
"","html-keyboard-response","47","60042","0.0-47.0","31T4R4OBOT29QUCBVUIBZ81ZGHM7C9","A2LMQ4497NMK3S","3S829FDFT2NBOHQMM1CIOU0HZYXDXL","","null","<img src=""img/animal2.png"" style=""width:200px; border:14px solid green;"">","null","","","","","",""
"","image-keyboard-response","48","60596","0.0-48.0","31T4R4OBOT29QUCBVUIBZ81ZGHM7C9","A2LMQ4497NMK3S","3S829FDFT2NBOHQMM1CIOU0HZYXDXL","","552.9000000357628","img/animal2.png","75","553.8999999761581","2","1","3","0.7,0,0.8,0.7,0.8,0,0.7,0.8,0",""
"","html-keyboard-response","49","60898","0.0-49.0","31T4R4OBOT29QUCBVUIBZ81ZGHM7C9","A2LMQ4497NMK3S","3S829FDFT2NBOHQMM1CIOU0HZYXDXL","","null","<img src=""img/animal2.png"" style=""width:200px; border:14px solid green;"">","null","","","","","",""
"","image-keyboard-response","50","61308","0.0-50.0","31T4R4OBOT29QUCBVUIBZ81ZGHM7C9","A2LMQ4497NMK3S","3S829FDFT2NBOHQMM1CIOU0HZYXDXL","","409","img/animal2.png","75","409.9000000357628","2","0","3","0.7,0,0.8,0.7,0.8,0,0.7,0.8,0",""
"","html-keyboard-response","51","61610","0.0-51.0","31T4R4OBOT29QUCBVUIBZ81ZGHM7C9","A2LMQ4497NMK3S","3S829FDFT2NBOHQMM1CIOU0HZYXDXL","","null","<img src=""img/animal2.png"" style=""width:200px;border:14px solid red;"">","null","","","","","",""
"","image-keyboard-response","52","62764","0.0-52.0","31T4R4OBOT29QUCBVUIBZ81ZGHM7C9","A2LMQ4497NMK3S","3S829FDFT2NBOHQMM1CIOU0HZYXDXL","","1153.3999999761581","img/animal2.png","75","1154.3999999761581","2","1","3","0.7,0,0.8,0.7,0.8,0,0.7,0.8,0",""
"","html-keyboard-response","53","63066","0.0-53.0","31T4R4OBOT29QUCBVUIBZ81ZGHM7C9","A2LMQ4497NMK3S","3S829FDFT2NBOHQMM1CIOU0HZYXDXL","","null","<img src=""img/animal2.png"" style=""width:200px; border:14px solid green;"">","null","","","","","",""
"","image-keyboard-response","54","63876","0.0-54.0","31T4R4OBOT29QUCBVUIBZ81ZGHM7C9","A2LMQ4497NMK3S","3S829FDFT2NBOHQMM1CIOU0HZYXDXL","","809.1999999880791","img/animal4.png","74","810","1","1","2","0.7,0,0.8,0.7,0.8,0,0.7,0.8,0",""
"","html-keyboard-response","55","64179","0.0-55.0","31T4R4OBOT29QUCBVUIBZ81ZGHM7C9","A2LMQ4497NMK3S","3S829FDFT2NBOHQMM1CIOU0HZYXDXL","","null","<img src=""img/animal4.png"" style=""width:200px; border:14px solid green;"">","null","","","","","",""
"","image-keyboard-response","56","64908","0.0-56.0","31T4R4OBOT29QUCBVUIBZ81ZGHM7C9","A2LMQ4497NMK3S","3S829FDFT2NBOHQMM1CIOU0HZYXDXL","","728.1000000238419","img/animal2.png","75","729.0999999642372","2","1","3","0.7,0,0.8,0.7,0.8,0,0.7,0.8,0",""
"","html-keyboard-response","57","65210","0.0-57.0","31T4R4OBOT29QUCBVUIBZ81ZGHM7C9","A2LMQ4497NMK3S","3S829FDFT2NBOHQMM1CIOU0HZYXDXL","","null","<img src=""img/animal2.png"" style=""width:200px; border:14px solid green;"">","null","","","","","",""
"","image-keyboard-response","58","65612","0.0-58.0","31T4R4OBOT29QUCBVUIBZ81ZGHM7C9","A2LMQ4497NMK3S","3S829FDFT2NBOHQMM1CIOU0HZYXDXL","","401.39999997615814","img/animal2.png","75","402.2999999523163","2","1","3","0.7,0,0.8,0.7,0.8,0,0.7,0.8,0",""
"","html-keyboard-response","59","65914","0.0-59.0","31T4R4OBOT29QUCBVUIBZ81ZGHM7C9","A2LMQ4497NMK3S","3S829FDFT2NBOHQMM1CIOU0HZYXDXL","","null","<img src=""img/animal2.png"" style=""width:200px; border:14px solid green;"">","null","","","","","",""
"","image-keyboard-response","60","66532","0.0-60.0","31T4R4OBOT29QUCBVUIBZ81ZGHM7C9","A2LMQ4497NMK3S","3S829FDFT2NBOHQMM1CIOU0HZYXDXL","","617.1999999880791","img/animal5.png","76","618.0999999642372","3","1","1","0.7,0,0.8,0.7,0.8,0,0.7,0.8,0",""
"","html-keyboard-response","61","66834","0.0-61.0","31T4R4OBOT29QUCBVUIBZ81ZGHM7C9","A2LMQ4497NMK3S","3S829FDFT2NBOHQMM1CIOU0HZYXDXL","","null","<img src=""img/animal5.png"" style=""width:200px; border:14px solid green;"">","null","","","","","",""
"","image-keyboard-response","62","67428","0.0-62.0","31T4R4OBOT29QUCBVUIBZ81ZGHM7C9","A2LMQ4497NMK3S","3S829FDFT2NBOHQMM1CIOU0HZYXDXL","","593.3999999761581","img/animal4.png","74","594.1999999880791","1","0","2","0.7,0,0.8,0.7,0.8,0,0.7,0.8,0",""
"","html-keyboard-response","63","67730","0.0-63.0","31T4R4OBOT29QUCBVUIBZ81ZGHM7C9","A2LMQ4497NMK3S","3S829FDFT2NBOHQMM1CIOU0HZYXDXL","","null","<img src=""img/animal4.png"" style=""width:200px;border:14px solid red;"">","null","","","","","",""
"","image-keyboard-response","64","68517","0.0-64.0","31T4R4OBOT29QUCBVUIBZ81ZGHM7C9","A2LMQ4497NMK3S","3S829FDFT2NBOHQMM1CIOU0HZYXDXL","","786.0999999642372","img/animal2.png","75","787","2","1","3","0.7,0,0.8,0.7,0.8,0,0.7,0.8,0",""
"","html-keyboard-response","65","68819","0.0-65.0","31T4R4OBOT29QUCBVUIBZ81ZGHM7C9","A2LMQ4497NMK3S","3S829FDFT2NBOHQMM1CIOU0HZYXDXL","","null","<img src=""img/animal2.png"" style=""width:200px; border:14px solid green;"">","null","","","","","",""
"","image-keyboard-response","66","69797","0.0-66.0","31T4R4OBOT29QUCBVUIBZ81ZGHM7C9","A2LMQ4497NMK3S","3S829FDFT2NBOHQMM1CIOU0HZYXDXL","","976.3000000119209","img/animal5.png","76","977.2000000476837","3","1","1","0.7,0,0.8,0.7,0.8,0,0.7,0.8,0",""
"","html-keyboard-response","67","70099","0.0-67.0","31T4R4OBOT29QUCBVUIBZ81ZGHM7C9","A2LMQ4497NMK3S","3S829FDFT2NBOHQMM1CIOU0HZYXDXL","","null","<img src=""img/animal5.png"" style=""width:200px; border:14px solid green;"">","null","","","","","",""
"","image-keyboard-response","68","71021","0.0-68.0","31T4R4OBOT29QUCBVUIBZ81ZGHM7C9","A2LMQ4497NMK3S","3S829FDFT2NBOHQMM1CIOU0HZYXDXL","","920.6999999880791","img/animal2.png","75","921.8000000119209","2","1","3","0.7,0,0.8,0.7,0.8,0,0.7,0.8,0",""
"","html-keyboard-response","69","71322","0.0-69.0","31T4R4OBOT29QUCBVUIBZ81ZGHM7C9","A2LMQ4497NMK3S","3S829FDFT2NBOHQMM1CIOU0HZYXDXL","","null","<img src=""img/animal2.png"" style=""width:200px; border:14px solid green;"">","null","","","","","",""
"","image-keyboard-response","70","71893","0.0-70.0","31T4R4OBOT29QUCBVUIBZ81ZGHM7C9","A2LMQ4497NMK3S","3S829FDFT2NBOHQMM1CIOU0HZYXDXL","","569.6000000238419","img/animal4.png","74","570.6999999880791","1","1","2","0.7,0,0.8,0.7,0.8,0,0.7,0.8,0",""
"","html-keyboard-response","71","72195","0.0-71.0","31T4R4OBOT29QUCBVUIBZ81ZGHM7C9","A2LMQ4497NMK3S","3S829FDFT2NBOHQMM1CIOU0HZYXDXL","","null","<img src=""img/animal4.png"" style=""width:200px; border:14px solid green;"">","null","","","","","",""
"","image-keyboard-response","72","72604","0.0-72.0","31T4R4OBOT29QUCBVUIBZ81ZGHM7C9","A2LMQ4497NMK3S","3S829FDFT2NBOHQMM1CIOU0HZYXDXL","","408.60000002384186","img/animal4.png","74","409.5","1","0","2","0.7,0,0.8,0.7,0.8,0,0.7,0.8,0",""
"","html-keyboard-response","73","72907","0.0-73.0","31T4R4OBOT29QUCBVUIBZ81ZGHM7C9","A2LMQ4497NMK3S","3S829FDFT2NBOHQMM1CIOU0HZYXDXL","","null","<img src=""img/animal4.png"" style=""width:200px;border:14px solid red;"">","null","","","","","",""
"","image-keyboard-response","74","73269","0.0-74.0","31T4R4OBOT29QUCBVUIBZ81ZGHM7C9","A2LMQ4497NMK3S","3S829FDFT2NBOHQMM1CIOU0HZYXDXL","","361","img/animal4.png","74","361.89999997615814","1","0","2","0.7,0,0.8,0.7,0.8,0,0.7,0.8,0",""
"","html-keyboard-response","75","73571","0.0-75.0","31T4R4OBOT29QUCBVUIBZ81ZGHM7C9","A2LMQ4497NMK3S","3S829FDFT2NBOHQMM1CIOU0HZYXDXL","","null","<img src=""img/animal4.png"" style=""width:200px;border:14px solid red;"">","null","","","","","",""
"","image-keyboard-response","76","74212","0.0-76.0","31T4R4OBOT29QUCBVUIBZ81ZGHM7C9","A2LMQ4497NMK3S","3S829FDFT2NBOHQMM1CIOU0HZYXDXL","","640.4000000357628","img/animal2.png","75","641.3000000119209","2","1","3","0.7,0,0.8,0.7,0.8,0,0.7,0.8,0",""
"","html-keyboard-response","77","74515","0.0-77.0","31T4R4OBOT29QUCBVUIBZ81ZGHM7C9","A2LMQ4497NMK3S","3S829FDFT2NBOHQMM1CIOU0HZYXDXL","","null","<img src=""img/animal2.png"" style=""width:200px; border:14px solid green;"">","null","","","","","",""
"","image-keyboard-response","78","75948","0.0-78.0","31T4R4OBOT29QUCBVUIBZ81ZGHM7C9","A2LMQ4497NMK3S","3S829FDFT2NBOHQMM1CIOU0HZYXDXL","","1432.199999988079","img/animal5.png","76","1433.1000000238419","3","0","1","0.7,0,0.8,0.7,0.8,0,0.7,0.8,0",""
"","html-keyboard-response","79","76250","0.0-79.0","31T4R4OBOT29QUCBVUIBZ81ZGHM7C9","A2LMQ4497NMK3S","3S829FDFT2NBOHQMM1CIOU0HZYXDXL","","null","<img src=""img/animal5.png"" style=""width:200px;border:14px solid red;"">","null","","","","","",""
"","image-keyboard-response","80","76844","0.0-80.0","31T4R4OBOT29QUCBVUIBZ81ZGHM7C9","A2LMQ4497NMK3S","3S829FDFT2NBOHQMM1CIOU0HZYXDXL","","592.6999999880791","img/animal4.png","75","593.6000000238419","2","1","2","0.7,0,0.8,0.7,0.8,0,0.7,0.8,0",""
"","html-keyboard-response","81","77146","0.0-81.0","31T4R4OBOT29QUCBVUIBZ81ZGHM7C9","A2LMQ4497NMK3S","3S829FDFT2NBOHQMM1CIOU0HZYXDXL","","null","<img src=""img/animal4.png"" style=""width:200px; border:14px solid green;"">","null","","","","","",""
"","image-keyboard-response","82","77860","0.0-82.0","31T4R4OBOT29QUCBVUIBZ81ZGHM7C9","A2LMQ4497NMK3S","3S829FDFT2NBOHQMM1CIOU0HZYXDXL","","713","img/animal5.png","76","714","3","1","1","0.7,0,0.8,0.7,0.8,0,0.7,0.8,0",""
"","html-keyboard-response","83","78163","0.0-83.0","31T4R4OBOT29QUCBVUIBZ81ZGHM7C9","A2LMQ4497NMK3S","3S829FDFT2NBOHQMM1CIOU0HZYXDXL","","null","<img src=""img/animal5.png"" style=""width:200px; border:14px solid green;"">","null","","","","","",""
"","image-keyboard-response","84","78821","0.0-84.0","31T4R4OBOT29QUCBVUIBZ81ZGHM7C9","A2LMQ4497NMK3S","3S829FDFT2NBOHQMM1CIOU0HZYXDXL","","656.6999999880791","img/animal2.png","75","657.3999999761581","2","1","3","0.7,0,0.8,0.7,0.8,0,0.7,0.8,0",""
"","html-keyboard-response","85","79131","0.0-85.0","31T4R4OBOT29QUCBVUIBZ81ZGHM7C9","A2LMQ4497NMK3S","3S829FDFT2NBOHQMM1CIOU0HZYXDXL","","null","<img src=""img/animal2.png"" style=""width:200px; border:14px solid green;"">","null","","","","","",""
"","image-keyboard-response","86","79660","0.0-86.0","31T4R4OBOT29QUCBVUIBZ81ZGHM7C9","A2LMQ4497NMK3S","3S829FDFT2NBOHQMM1CIOU0HZYXDXL","","527.6999999880791","img/animal5.png","75","528.5","2","0","1","0.7,0,0.8,0.7,0.8,0,0.7,0.8,0",""
"","html-keyboard-response","87","79962","0.0-87.0","31T4R4OBOT29QUCBVUIBZ81ZGHM7C9","A2LMQ4497NMK3S","3S829FDFT2NBOHQMM1CIOU0HZYXDXL","","null","<img src=""img/animal5.png"" style=""width:200px;border:14px solid red;"">","null","","","","","",""
"","image-keyboard-response","88","80804","0.0-88.0","31T4R4OBOT29QUCBVUIBZ81ZGHM7C9","A2LMQ4497NMK3S","3S829FDFT2NBOHQMM1CIOU0HZYXDXL","","841.3999999761581","img/animal4.png","75","842.3000000119209","2","1","2","0.7,0,0.8,0.7,0.8,0,0.7,0.8,0",""
"","html-keyboard-response","89","81106","0.0-89.0","31T4R4OBOT29QUCBVUIBZ81ZGHM7C9","A2LMQ4497NMK3S","3S829FDFT2NBOHQMM1CIOU0HZYXDXL","","null","<img src=""img/animal4.png"" style=""width:200px; border:14px solid green;"">","null","","","","","",""
"","image-keyboard-response","90","81581","0.0-90.0","31T4R4OBOT29QUCBVUIBZ81ZGHM7C9","A2LMQ4497NMK3S","3S829FDFT2NBOHQMM1CIOU0HZYXDXL","","474.39999997615814","img/animal5.png","76","475.19999998807907","3","0","1","0.7,0,0.8,0.7,0.8,0,0.7,0.8,0",""
"","html-keyboard-response","91","81883","0.0-91.0","31T4R4OBOT29QUCBVUIBZ81ZGHM7C9","A2LMQ4497NMK3S","3S829FDFT2NBOHQMM1CIOU0HZYXDXL","","null","<img src=""img/animal5.png"" style=""width:200px;border:14px solid red;"">","null","","","","","",""
"","image-keyboard-response","92","82540","0.0-92.0","31T4R4OBOT29QUCBVUIBZ81ZGHM7C9","A2LMQ4497NMK3S","3S829FDFT2NBOHQMM1CIOU0HZYXDXL","","655.8999999761581","img/animal2.png","75","656.7999999523163","2","1","3","0.7,0,0.8,0.7,0.8,0,0.7,0.8,0",""
"","html-keyboard-response","93","82843","0.0-93.0","31T4R4OBOT29QUCBVUIBZ81ZGHM7C9","A2LMQ4497NMK3S","3S829FDFT2NBOHQMM1CIOU0HZYXDXL","","null","<img src=""img/animal2.png"" style=""width:200px; border:14px solid green;"">","null","","","","","",""
"","image-keyboard-response","94","83572","0.0-94.0","31T4R4OBOT29QUCBVUIBZ81ZGHM7C9","A2LMQ4497NMK3S","3S829FDFT2NBOHQMM1CIOU0HZYXDXL","","728.2999999523163","img/animal5.png","76","729.0999999642372","3","0","1","0.7,0,0.8,0.7,0.8,0,0.7,0.8,0",""
"","html-keyboard-response","95","83874","0.0-95.0","31T4R4OBOT29QUCBVUIBZ81ZGHM7C9","A2LMQ4497NMK3S","3S829FDFT2NBOHQMM1CIOU0HZYXDXL","","null","<img src=""img/animal5.png"" style=""width:200px;border:14px solid red;"">","null","","","","","",""
"","image-keyboard-response","96","84444","0.0-96.0","31T4R4OBOT29QUCBVUIBZ81ZGHM7C9","A2LMQ4497NMK3S","3S829FDFT2NBOHQMM1CIOU0HZYXDXL","","569.6999999880791","img/animal5.png","76","570.6999999880791","3","1","1","0.7,0,0.8,0.7,0.8,0,0.7,0.8,0",""
"","html-keyboard-response","97","84747","0.0-97.0","31T4R4OBOT29QUCBVUIBZ81ZGHM7C9","A2LMQ4497NMK3S","3S829FDFT2NBOHQMM1CIOU0HZYXDXL","","null","<img src=""img/animal5.png"" style=""width:200px; border:14px solid green;"">","null","","","","","",""
"","image-keyboard-response","98","85196","0.0-98.0","31T4R4OBOT29QUCBVUIBZ81ZGHM7C9","A2LMQ4497NMK3S","3S829FDFT2NBOHQMM1CIOU0HZYXDXL","","448.19999998807907","img/animal5.png","76","449.10000002384186","3","0","1","0.7,0,0.8,0.7,0.8,0,0.7,0.8,0",""
"","html-keyboard-response","99","85498","0.0-99.0","31T4R4OBOT29QUCBVUIBZ81ZGHM7C9","A2LMQ4497NMK3S","3S829FDFT2NBOHQMM1CIOU0HZYXDXL","","null","<img src=""img/animal5.png"" style=""width:200px;border:14px solid red;"">","null","","","","","",""
"","image-keyboard-response","100","85852","0.0-100.0","31T4R4OBOT29QUCBVUIBZ81ZGHM7C9","A2LMQ4497NMK3S","3S829FDFT2NBOHQMM1CIOU0HZYXDXL","","353.4000000357628","img/animal5.png","76","354.30000001192093","3","1","1","0.7,0,0.8,0.7,0.8,0,0.7,0.8,0",""
"","html-keyboard-response","101","86154","0.0-101.0","31T4R4OBOT29QUCBVUIBZ81ZGHM7C9","A2LMQ4497NMK3S","3S829FDFT2NBOHQMM1CIOU0HZYXDXL","","null","<img src=""img/animal5.png"" style=""width:200px; border:14px solid green;"">","null","","","","","",""
"","image-keyboard-response","102","86708","0.0-102.0","31T4R4OBOT29QUCBVUIBZ81ZGHM7C9","A2LMQ4497NMK3S","3S829FDFT2NBOHQMM1CIOU0HZYXDXL","","553.6000000238419","img/animal2.png","75","554.5999999642372","2","1","3","0.7,0,0.8,0.7,0.8,0,0.7,0.8,0",""
"","html-keyboard-response","103","87010","0.0-103.0","31T4R4OBOT29QUCBVUIBZ81ZGHM7C9","A2LMQ4497NMK3S","3S829FDFT2NBOHQMM1CIOU0HZYXDXL","","null","<img src=""img/animal2.png"" style=""width:200px; border:14px solid green;"">","null","","","","","",""
"","image-keyboard-response","104","87476","0.0-104.0","31T4R4OBOT29QUCBVUIBZ81ZGHM7C9","A2LMQ4497NMK3S","3S829FDFT2NBOHQMM1CIOU0HZYXDXL","","464.9000000357628","img/animal4.png","75","465.7000000476837","2","1","2","0.7,0,0.8,0.7,0.8,0,0.7,0.8,0",""
"","html-keyboard-response","105","87777","0.0-105.0","31T4R4OBOT29QUCBVUIBZ81ZGHM7C9","A2LMQ4497NMK3S","3S829FDFT2NBOHQMM1CIOU0HZYXDXL","","null","<img src=""img/animal4.png"" style=""width:200px; border:14px solid green;"">","null","","","","","",""
"","image-keyboard-response","106","88372","0.0-106.0","31T4R4OBOT29QUCBVUIBZ81ZGHM7C9","A2LMQ4497NMK3S","3S829FDFT2NBOHQMM1CIOU0HZYXDXL","","594","img/animal5.png","76","594.8000000119209","3","1","1","0.7,0,0.8,0.7,0.8,0,0.7,0.8,0",""
"","html-keyboard-response","107","88674","0.0-107.0","31T4R4OBOT29QUCBVUIBZ81ZGHM7C9","A2LMQ4497NMK3S","3S829FDFT2NBOHQMM1CIOU0HZYXDXL","","null","<img src=""img/animal5.png"" style=""width:200px; border:14px solid green;"">","null","","","","","",""
"","image-keyboard-response","108","89181","0.0-108.0","31T4R4OBOT29QUCBVUIBZ81ZGHM7C9","A2LMQ4497NMK3S","3S829FDFT2NBOHQMM1CIOU0HZYXDXL","","506","img/animal5.png","76","507","3","1","1","0.7,0,0.8,0.7,0.8,0,0.7,0.8,0",""
"","html-keyboard-response","109","89483","0.0-109.0","31T4R4OBOT29QUCBVUIBZ81ZGHM7C9","A2LMQ4497NMK3S","3S829FDFT2NBOHQMM1CIOU0HZYXDXL","","null","<img src=""img/animal5.png"" style=""width:200px; border:14px solid green;"">","null","","","","","",""
"","image-keyboard-response","110","89852","0.0-110.0","31T4R4OBOT29QUCBVUIBZ81ZGHM7C9","A2LMQ4497NMK3S","3S829FDFT2NBOHQMM1CIOU0HZYXDXL","","368","img/animal5.png","76","368.80000001192093","3","1","1","0.7,0,0.8,0.7,0.8,0,0.7,0.8,0",""
"","html-keyboard-response","111","90155","0.0-111.0","31T4R4OBOT29QUCBVUIBZ81ZGHM7C9","A2LMQ4497NMK3S","3S829FDFT2NBOHQMM1CIOU0HZYXDXL","","null","<img src=""img/animal5.png"" style=""width:200px; border:14px solid green;"">","null","","","","","",""
"","image-keyboard-response","112","90572","0.0-112.0","31T4R4OBOT29QUCBVUIBZ81ZGHM7C9","A2LMQ4497NMK3S","3S829FDFT2NBOHQMM1CIOU0HZYXDXL","","416.80000001192093","img/animal4.png","75","417.69999998807907","2","1","2","0.7,0,0.8,0.7,0.8,0,0.7,0.8,0",""
"","html-keyboard-response","113","90874","0.0-113.0","31T4R4OBOT29QUCBVUIBZ81ZGHM7C9","A2LMQ4497NMK3S","3S829FDFT2NBOHQMM1CIOU0HZYXDXL","","null","<img src=""img/animal4.png"" style=""width:200px; border:14px solid green;"">","null","","","","","",""
"","image-keyboard-response","114","91300","0.0-114.0","31T4R4OBOT29QUCBVUIBZ81ZGHM7C9","A2LMQ4497NMK3S","3S829FDFT2NBOHQMM1CIOU0HZYXDXL","","425.2999999523163","img/animal5.png","75","426.0999999642372","2","0","1","0.7,0,0.8,0.7,0.8,0,0.7,0.8,0",""
"","html-keyboard-response","115","91603","0.0-115.0","31T4R4OBOT29QUCBVUIBZ81ZGHM7C9","A2LMQ4497NMK3S","3S829FDFT2NBOHQMM1CIOU0HZYXDXL","","null","<img src=""img/animal5.png"" style=""width:200px;border:14px solid red;"">","null","","","","","",""
"","image-keyboard-response","116","92132","0.0-116.0","31T4R4OBOT29QUCBVUIBZ81ZGHM7C9","A2LMQ4497NMK3S","3S829FDFT2NBOHQMM1CIOU0HZYXDXL","","528.6999999880791","img/animal5.png","76","529.5999999642372","3","1","1","0.7,0,0.8,0.7,0.8,0,0.7,0.8,0",""
"","html-keyboard-response","117","92435","0.0-117.0","31T4R4OBOT29QUCBVUIBZ81ZGHM7C9","A2LMQ4497NMK3S","3S829FDFT2NBOHQMM1CIOU0HZYXDXL","","null","<img src=""img/animal5.png"" style=""width:200px; border:14px solid green;"">","null","","","","","",""
"","image-keyboard-response","118","92949","0.0-118.0","31T4R4OBOT29QUCBVUIBZ81ZGHM7C9","A2LMQ4497NMK3S","3S829FDFT2NBOHQMM1CIOU0HZYXDXL","","512.5","img/animal4.png","75","513.5","2","0","2","0.7,0,0.8,0.7,0.8,0,0.7,0.8,0",""
"","html-keyboard-response","119","93250","0.0-119.0","31T4R4OBOT29QUCBVUIBZ81ZGHM7C9","A2LMQ4497NMK3S","3S829FDFT2NBOHQMM1CIOU0HZYXDXL","","null","<img src=""img/animal4.png"" style=""width:200px;border:14px solid red;"">","null","","","","","",""
"","image-keyboard-response","120","93796","0.0-120.0","31T4R4OBOT29QUCBVUIBZ81ZGHM7C9","A2LMQ4497NMK3S","3S829FDFT2NBOHQMM1CIOU0HZYXDXL","","545.1000000238419","img/animal2.png","75","545.9000000357628","2","1","3","0.7,0,0.8,0.7,0.8,0,0.7,0.8,0",""
"","html-keyboard-response","121","94099","0.0-121.0","31T4R4OBOT29QUCBVUIBZ81ZGHM7C9","A2LMQ4497NMK3S","3S829FDFT2NBOHQMM1CIOU0HZYXDXL","","null","<img src=""img/animal2.png"" style=""width:200px; border:14px solid green;"">","null","","","","","",""
"","image-keyboard-response","122","94588","0.0-122.0","31T4R4OBOT29QUCBVUIBZ81ZGHM7C9","A2LMQ4497NMK3S","3S829FDFT2NBOHQMM1CIOU0HZYXDXL","","488.4000000357628","img/animal2.png","75","489.30000001192093","2","1","3","0.7,0,0.8,0.7,0.8,0,0.7,0.8,0",""
"","html-keyboard-response","123","94890","0.0-123.0","31T4R4OBOT29QUCBVUIBZ81ZGHM7C9","A2LMQ4497NMK3S","3S829FDFT2NBOHQMM1CIOU0HZYXDXL","","null","<img src=""img/animal2.png"" style=""width:200px; border:14px solid green;"">","null","","","","","",""
"","image-keyboard-response","124","95637","0.0-124.0","31T4R4OBOT29QUCBVUIBZ81ZGHM7C9","A2LMQ4497NMK3S","3S829FDFT2NBOHQMM1CIOU0HZYXDXL","","744.5","img/animal5.png","76","745.3999999761581","3","1","1","0.7,0,0.8,0.7,0.8,0,0.7,0.8,0",""
"","html-keyboard-response","125","95938","0.0-125.0","31T4R4OBOT29QUCBVUIBZ81ZGHM7C9","A2LMQ4497NMK3S","3S829FDFT2NBOHQMM1CIOU0HZYXDXL","","null","<img src=""img/animal5.png"" style=""width:200px; border:14px solid green;"">","null","","","","","",""
"","image-keyboard-response","126","96396","0.0-126.0","31T4R4OBOT29QUCBVUIBZ81ZGHM7C9","A2LMQ4497NMK3S","3S829FDFT2NBOHQMM1CIOU0HZYXDXL","","456.89999997615814","img/animal4.png","75","457.89999997615814","2","1","2","0.7,0,0.8,0.7,0.8,0,0.7,0.8,0",""
"","html-keyboard-response","127","96699","0.0-127.0","31T4R4OBOT29QUCBVUIBZ81ZGHM7C9","A2LMQ4497NMK3S","3S829FDFT2NBOHQMM1CIOU0HZYXDXL","","null","<img src=""img/animal4.png"" style=""width:200px; border:14px solid green;"">","null","","","","","",""
"","image-keyboard-response","128","97069","0.0-128.0","31T4R4OBOT29QUCBVUIBZ81ZGHM7C9","A2LMQ4497NMK3S","3S829FDFT2NBOHQMM1CIOU0HZYXDXL","","368.89999997615814","img/animal2.png","75","369.7999999523163","2","1","3","0.7,0,0.8,0.7,0.8,0,0.7,0.8,0",""
"","html-keyboard-response","129","97370","0.0-129.0","31T4R4OBOT29QUCBVUIBZ81ZGHM7C9","A2LMQ4497NMK3S","3S829FDFT2NBOHQMM1CIOU0HZYXDXL","","null","<img src=""img/animal2.png"" style=""width:200px; border:14px solid green;"">","null","","","","","",""
"","image-keyboard-response","130","98244","0.0-130.0","31T4R4OBOT29QUCBVUIBZ81ZGHM7C9","A2LMQ4497NMK3S","3S829FDFT2NBOHQMM1CIOU0HZYXDXL","","873.1000000238419","img/animal4.png","75","874","2","1","2","0.7,0,0.8,0.7,0.8,0,0.7,0.8,0",""
"","html-keyboard-response","131","98546","0.0-131.0","31T4R4OBOT29QUCBVUIBZ81ZGHM7C9","A2LMQ4497NMK3S","3S829FDFT2NBOHQMM1CIOU0HZYXDXL","","null","<img src=""img/animal4.png"" style=""width:200px; border:14px solid green;"">","null","","","","","",""
"","image-keyboard-response","132","98932","0.0-132.0","31T4R4OBOT29QUCBVUIBZ81ZGHM7C9","A2LMQ4497NMK3S","3S829FDFT2NBOHQMM1CIOU0HZYXDXL","","384.80000001192093","img/animal2.png","75","385.69999998807907","2","1","3","0.7,0,0.8,0.7,0.8,0,0.7,0.8,0",""
"","html-keyboard-response","133","99234","0.0-133.0","31T4R4OBOT29QUCBVUIBZ81ZGHM7C9","A2LMQ4497NMK3S","3S829FDFT2NBOHQMM1CIOU0HZYXDXL","","null","<img src=""img/animal2.png"" style=""width:200px; border:14px solid green;"">","null","","","","","",""
"","image-keyboard-response","134","99773","0.0-134.0","31T4R4OBOT29QUCBVUIBZ81ZGHM7C9","A2LMQ4497NMK3S","3S829FDFT2NBOHQMM1CIOU0HZYXDXL","","538.0999999642372","img/animal2.png","75","538.8999999761581","2","0","3","0.7,0,0.8,0.7,0.8,0,0.7,0.8,0",""
"","html-keyboard-response","135","100074","0.0-135.0","31T4R4OBOT29QUCBVUIBZ81ZGHM7C9","A2LMQ4497NMK3S","3S829FDFT2NBOHQMM1CIOU0HZYXDXL","","null","<img src=""img/animal2.png"" style=""width:200px;border:14px solid red;"">","null","","","","","",""
"","image-keyboard-response","136","100412","0.0-136.0","31T4R4OBOT29QUCBVUIBZ81ZGHM7C9","A2LMQ4497NMK3S","3S829FDFT2NBOHQMM1CIOU0HZYXDXL","","336.89999997615814","img/animal2.png","75","337.9000000357628","2","1","3","0.7,0,0.8,0.7,0.8,0,0.7,0.8,0",""
"","html-keyboard-response","137","100714","0.0-137.0","31T4R4OBOT29QUCBVUIBZ81ZGHM7C9","A2LMQ4497NMK3S","3S829FDFT2NBOHQMM1CIOU0HZYXDXL","","null","<img src=""img/animal2.png"" style=""width:200px; border:14px solid green;"">","null","","","","","",""
"","image-keyboard-response","138","101652","0.0-138.0","31T4R4OBOT29QUCBVUIBZ81ZGHM7C9","A2LMQ4497NMK3S","3S829FDFT2NBOHQMM1CIOU0HZYXDXL","","937.5","img/animal2.png","75","938.3000000119209","2","0","3","0.7,0,0.8,0.7,0.8,0,0.7,0.8,0",""
"","html-keyboard-response","139","101954","0.0-139.0","31T4R4OBOT29QUCBVUIBZ81ZGHM7C9","A2LMQ4497NMK3S","3S829FDFT2NBOHQMM1CIOU0HZYXDXL","","null","<img src=""img/animal2.png"" style=""width:200px;border:14px solid red;"">","null","","","","","",""
"","image-keyboard-response","140","102309","0.0-140.0","31T4R4OBOT29QUCBVUIBZ81ZGHM7C9","A2LMQ4497NMK3S","3S829FDFT2NBOHQMM1CIOU0HZYXDXL","","353.30000001192093","img/animal2.png","75","354.19999998807907","2","1","3","0.7,0,0.8,0.7,0.8,0,0.7,0.8,0",""
"","html-keyboard-response","141","102610","0.0-141.0","31T4R4OBOT29QUCBVUIBZ81ZGHM7C9","A2LMQ4497NMK3S","3S829FDFT2NBOHQMM1CIOU0HZYXDXL","","null","<img src=""img/animal2.png"" style=""width:200px; border:14px solid green;"">","null","","","","","",""
"","image-keyboard-response","142","103292","0.0-142.0","31T4R4OBOT29QUCBVUIBZ81ZGHM7C9","A2LMQ4497NMK3S","3S829FDFT2NBOHQMM1CIOU0HZYXDXL","","681","img/animal4.png","76","682","3","0","2","0.7,0,0.8,0.7,0.8,0,0.7,0.8,0",""
"","html-keyboard-response","143","103595","0.0-143.0","31T4R4OBOT29QUCBVUIBZ81ZGHM7C9","A2LMQ4497NMK3S","3S829FDFT2NBOHQMM1CIOU0HZYXDXL","","null","<img src=""img/animal4.png"" style=""width:200px;border:14px solid red;"">","null","","","","","",""
"","image-keyboard-response","144","104516","0.0-144.0","31T4R4OBOT29QUCBVUIBZ81ZGHM7C9","A2LMQ4497NMK3S","3S829FDFT2NBOHQMM1CIOU0HZYXDXL","","920.3000000119209","img/animal5.png","76","921.4000000357628","3","1","1","0.7,0,0.8,0.7,0.8,0,0.7,0.8,0",""
"","html-keyboard-response","145","104819","0.0-145.0","31T4R4OBOT29QUCBVUIBZ81ZGHM7C9","A2LMQ4497NMK3S","3S829FDFT2NBOHQMM1CIOU0HZYXDXL","","null","<img src=""img/animal5.png"" style=""width:200px; border:14px solid green;"">","null","","","","","",""
"","image-keyboard-response","146","105340","0.0-146.0","31T4R4OBOT29QUCBVUIBZ81ZGHM7C9","A2LMQ4497NMK3S","3S829FDFT2NBOHQMM1CIOU0HZYXDXL","","520.8000000119209","img/animal2.png","75","521.6999999880791","2","1","3","0.7,0,0.8,0.7,0.8,0,0.7,0.8,0",""
"","html-keyboard-response","147","105642","0.0-147.0","31T4R4OBOT29QUCBVUIBZ81ZGHM7C9","A2LMQ4497NMK3S","3S829FDFT2NBOHQMM1CIOU0HZYXDXL","","null","<img src=""img/animal2.png"" style=""width:200px; border:14px solid green;"">","null","","","","","",""
"","image-keyboard-response","148","106269","0.0-148.0","31T4R4OBOT29QUCBVUIBZ81ZGHM7C9","A2LMQ4497NMK3S","3S829FDFT2NBOHQMM1CIOU0HZYXDXL","","625.5","img/animal4.png","75","626.5","2","1","2","0.7,0,0.8,0.7,0.8,0,0.7,0.8,0",""
"","html-keyboard-response","149","106570","0.0-149.0","31T4R4OBOT29QUCBVUIBZ81ZGHM7C9","A2LMQ4497NMK3S","3S829FDFT2NBOHQMM1CIOU0HZYXDXL","","null","<img src=""img/animal4.png"" style=""width:200px; border:14px solid green;"">","null","","","","","",""
"","image-keyboard-response","150","107309","0.0-150.0","31T4R4OBOT29QUCBVUIBZ81ZGHM7C9","A2LMQ4497NMK3S","3S829FDFT2NBOHQMM1CIOU0HZYXDXL","","737.3000000119209","img/animal2.png","75","738.4000000357628","2","0","3","0.7,0,0.8,0.7,0.8,0,0.7,0.8,0",""
"","html-keyboard-response","151","107610","0.0-151.0","31T4R4OBOT29QUCBVUIBZ81ZGHM7C9","A2LMQ4497NMK3S","3S829FDFT2NBOHQMM1CIOU0HZYXDXL","","null","<img src=""img/animal2.png"" style=""width:200px;border:14px solid red;"">","null","","","","","",""
"","image-keyboard-response","152","107996","0.0-152.0","31T4R4OBOT29QUCBVUIBZ81ZGHM7C9","A2LMQ4497NMK3S","3S829FDFT2NBOHQMM1CIOU0HZYXDXL","","385.10000002384186","img/animal2.png","75","386","2","1","3","0.7,0,0.8,0.7,0.8,0,0.7,0.8,0",""
"","html-keyboard-response","153","108298","0.0-153.0","31T4R4OBOT29QUCBVUIBZ81ZGHM7C9","A2LMQ4497NMK3S","3S829FDFT2NBOHQMM1CIOU0HZYXDXL","","null","<img src=""img/animal2.png"" style=""width:200px; border:14px solid green;"">","null","","","","","",""
"","image-keyboard-response","154","109037","0.0-154.0","31T4R4OBOT29QUCBVUIBZ81ZGHM7C9","A2LMQ4497NMK3S","3S829FDFT2NBOHQMM1CIOU0HZYXDXL","","737.4000000357628","img/animal5.png","76","738.3999999761581","3","1","1","0.7,0,0.8,0.7,0.8,0,0.7,0.8,0",""
"","html-keyboard-response","155","109338","0.0-155.0","31T4R4OBOT29QUCBVUIBZ81ZGHM7C9","A2LMQ4497NMK3S","3S829FDFT2NBOHQMM1CIOU0HZYXDXL","","null","<img src=""img/animal5.png"" style=""width:200px; border:14px solid green;"">","null","","","","","",""
"","image-keyboard-response","156","109885","0.0-156.0","31T4R4OBOT29QUCBVUIBZ81ZGHM7C9","A2LMQ4497NMK3S","3S829FDFT2NBOHQMM1CIOU0HZYXDXL","","545.3000000119209","img/animal2.png","75","546.1000000238419","2","1","3","0.7,0,0.8,0.7,0.8,0,0.7,0.8,0",""
"","html-keyboard-response","157","110186","0.0-157.0","31T4R4OBOT29QUCBVUIBZ81ZGHM7C9","A2LMQ4497NMK3S","3S829FDFT2NBOHQMM1CIOU0HZYXDXL","","null","<img src=""img/animal2.png"" style=""width:200px; border:14px solid green;"">","null","","","","","",""
"","image-keyboard-response","158","110973","0.0-158.0","31T4R4OBOT29QUCBVUIBZ81ZGHM7C9","A2LMQ4497NMK3S","3S829FDFT2NBOHQMM1CIOU0HZYXDXL","","785.4000000357628","img/animal4.png","75","786.3000000119209","2","1","2","0.7,0,0.8,0.7,0.8,0,0.7,0.8,0",""
"","html-keyboard-response","159","111275","0.0-159.0","31T4R4OBOT29QUCBVUIBZ81ZGHM7C9","A2LMQ4497NMK3S","3S829FDFT2NBOHQMM1CIOU0HZYXDXL","","null","<img src=""img/animal4.png"" style=""width:200px; border:14px solid green;"">","null","","","","","",""
"","image-keyboard-response","160","111869","0.0-160.0","31T4R4OBOT29QUCBVUIBZ81ZGHM7C9","A2LMQ4497NMK3S","3S829FDFT2NBOHQMM1CIOU0HZYXDXL","","592.3000000119209","img/animal2.png","75","593.1999999880791","2","0","3","0.7,0,0.8,0.7,0.8,0,0.7,0.8,0",""
"","html-keyboard-response","161","112170","0.0-161.0","31T4R4OBOT29QUCBVUIBZ81ZGHM7C9","A2LMQ4497NMK3S","3S829FDFT2NBOHQMM1CIOU0HZYXDXL","","null","<img src=""img/animal2.png"" style=""width:200px;border:14px solid red;"">","null","","","","","",""
"","image-keyboard-response","162","113045","0.0-162.0","31T4R4OBOT29QUCBVUIBZ81ZGHM7C9","A2LMQ4497NMK3S","3S829FDFT2NBOHQMM1CIOU0HZYXDXL","","873.3000000119209","img/animal4.png","75","874.3000000119209","2","1","2","0.7,0,0.8,0.7,0.8,0,0.7,0.8,0",""
"","html-keyboard-response","163","113346","0.0-163.0","31T4R4OBOT29QUCBVUIBZ81ZGHM7C9","A2LMQ4497NMK3S","3S829FDFT2NBOHQMM1CIOU0HZYXDXL","","null","<img src=""img/animal4.png"" style=""width:200px; border:14px solid green;"">","null","","","","","",""
"","image-keyboard-response","164","113909","0.0-164.0","31T4R4OBOT29QUCBVUIBZ81ZGHM7C9","A2LMQ4497NMK3S","3S829FDFT2NBOHQMM1CIOU0HZYXDXL","","561.3999999761581","img/animal5.png","76","562.3999999761581","3","1","1","0.7,0,0.8,0.7,0.8,0,0.7,0.8,0",""
"","html-keyboard-response","165","114211","0.0-165.0","31T4R4OBOT29QUCBVUIBZ81ZGHM7C9","A2LMQ4497NMK3S","3S829FDFT2NBOHQMM1CIOU0HZYXDXL","","null","<img src=""img/animal5.png"" style=""width:200px; border:14px solid green;"">","null","","","","","",""
"","image-keyboard-response","166","114893","0.0-166.0","31T4R4OBOT29QUCBVUIBZ81ZGHM7C9","A2LMQ4497NMK3S","3S829FDFT2NBOHQMM1CIOU0HZYXDXL","","681","img/animal4.png","75","681.8000000119209","2","1","2","0.7,0,0.8,0.7,0.8,0,0.7,0.8,0",""
"","html-keyboard-response","167","115195","0.0-167.0","31T4R4OBOT29QUCBVUIBZ81ZGHM7C9","A2LMQ4497NMK3S","3S829FDFT2NBOHQMM1CIOU0HZYXDXL","","null","<img src=""img/animal4.png"" style=""width:200px; border:14px solid green;"">","null","","","","","",""
"","image-keyboard-response","168","115565","0.0-168.0","31T4R4OBOT29QUCBVUIBZ81ZGHM7C9","A2LMQ4497NMK3S","3S829FDFT2NBOHQMM1CIOU0HZYXDXL","","368.5999999642372","img/animal4.png","75","369.60000002384186","2","1","2","0.7,0,0.8,0.7,0.8,0,0.7,0.8,0",""
"","html-keyboard-response","169","115866","0.0-169.0","31T4R4OBOT29QUCBVUIBZ81ZGHM7C9","A2LMQ4497NMK3S","3S829FDFT2NBOHQMM1CIOU0HZYXDXL","","null","<img src=""img/animal4.png"" style=""width:200px; border:14px solid green;"">","null","","","","","",""
"","image-keyboard-response","170","116700","0.0-170.0","31T4R4OBOT29QUCBVUIBZ81ZGHM7C9","A2LMQ4497NMK3S","3S829FDFT2NBOHQMM1CIOU0HZYXDXL","","832.8000000119209","img/animal5.png","76","833.7000000476837","3","1","1","0.7,0,0.8,0.7,0.8,0,0.7,0.8,0",""
"","html-keyboard-response","171","117002","0.0-171.0","31T4R4OBOT29QUCBVUIBZ81ZGHM7C9","A2LMQ4497NMK3S","3S829FDFT2NBOHQMM1CIOU0HZYXDXL","","null","<img src=""img/animal5.png"" style=""width:200px; border:14px solid green;"">","null","","","","","",""
"","image-keyboard-response","172","117636","0.0-172.0","31T4R4OBOT29QUCBVUIBZ81ZGHM7C9","A2LMQ4497NMK3S","3S829FDFT2NBOHQMM1CIOU0HZYXDXL","","633.6999999880791","img/animal4.png","75","634.5","2","0","2","0.7,0,0.8,0.7,0.8,0,0.7,0.8,0",""
"","html-keyboard-response","173","117938","0.0-173.0","31T4R4OBOT29QUCBVUIBZ81ZGHM7C9","A2LMQ4497NMK3S","3S829FDFT2NBOHQMM1CIOU0HZYXDXL","","null","<img src=""img/animal4.png"" style=""width:200px;border:14px solid red;"">","null","","","","","",""
"","image-keyboard-response","174","118381","0.0-174.0","31T4R4OBOT29QUCBVUIBZ81ZGHM7C9","A2LMQ4497NMK3S","3S829FDFT2NBOHQMM1CIOU0HZYXDXL","","441.5","img/animal4.png","75","442.5","2","1","2","0.7,0,0.8,0.7,0.8,0,0.7,0.8,0",""
"","html-keyboard-response","175","118683","0.0-175.0","31T4R4OBOT29QUCBVUIBZ81ZGHM7C9","A2LMQ4497NMK3S","3S829FDFT2NBOHQMM1CIOU0HZYXDXL","","null","<img src=""img/animal4.png"" style=""width:200px; border:14px solid green;"">","null","","","","","",""
"","image-keyboard-response","176","119284","0.0-176.0","31T4R4OBOT29QUCBVUIBZ81ZGHM7C9","A2LMQ4497NMK3S","3S829FDFT2NBOHQMM1CIOU0HZYXDXL","","600.6999999880791","img/animal2.png","75","601.6999999880791","2","1","3","0.7,0,0.8,0.7,0.8,0,0.7,0.8,0",""
"","html-keyboard-response","177","119586","0.0-177.0","31T4R4OBOT29QUCBVUIBZ81ZGHM7C9","A2LMQ4497NMK3S","3S829FDFT2NBOHQMM1CIOU0HZYXDXL","","null","<img src=""img/animal2.png"" style=""width:200px; border:14px solid green;"">","null","","","","","",""
"","image-keyboard-response","178","120437","0.0-178.0","31T4R4OBOT29QUCBVUIBZ81ZGHM7C9","A2LMQ4497NMK3S","3S829FDFT2NBOHQMM1CIOU0HZYXDXL","","849.9000000357628","img/animal5.png","76","850.8000000119209","3","0","1","0.7,0,0.8,0.7,0.8,0,0.7,0.8,0",""
"","html-keyboard-response","179","120739","0.0-179.0","31T4R4OBOT29QUCBVUIBZ81ZGHM7C9","A2LMQ4497NMK3S","3S829FDFT2NBOHQMM1CIOU0HZYXDXL","","null","<img src=""img/animal5.png"" style=""width:200px;border:14px solid red;"">","null","","","","","",""
"","image-keyboard-response","180","121540","0.0-180.0","31T4R4OBOT29QUCBVUIBZ81ZGHM7C9","A2LMQ4497NMK3S","3S829FDFT2NBOHQMM1CIOU0HZYXDXL","","800.1999999880791","img/animal4.png","75","801.1999999880791","2","1","2","0.7,0,0.8,0.7,0.8,0,0.7,0.8,0",""
"","html-keyboard-response","181","121842","0.0-181.0","31T4R4OBOT29QUCBVUIBZ81ZGHM7C9","A2LMQ4497NMK3S","3S829FDFT2NBOHQMM1CIOU0HZYXDXL","","null","<img src=""img/animal4.png"" style=""width:200px; border:14px solid green;"">","null","","","","","",""
"","html-keyboard-response","182","126042","0.0-182.0","31T4R4OBOT29QUCBVUIBZ81ZGHM7C9","A2LMQ4497NMK3S","3S829FDFT2NBOHQMM1CIOU0HZYXDXL","","","","","","","","","",""
"","image-keyboard-response","183","127044","0.0-183.0","31T4R4OBOT29QUCBVUIBZ81ZGHM7C9","A2LMQ4497NMK3S","3S829FDFT2NBOHQMM1CIOU0HZYXDXL","","1000.5","img/animal1.png","74","1001.7999999523163","1","1","2","0.5,0,1,1,0.5,0,0,1,0.5",""
"","html-keyboard-response","184","127346","0.0-184.0","31T4R4OBOT29QUCBVUIBZ81ZGHM7C9","A2LMQ4497NMK3S","3S829FDFT2NBOHQMM1CIOU0HZYXDXL","","null","<img src=""img/animal1.png"" style=""width:200px; border:14px solid green;"">","null","","","","","",""
"","image-keyboard-response","185","127727","0.0-185.0","31T4R4OBOT29QUCBVUIBZ81ZGHM7C9","A2LMQ4497NMK3S","3S829FDFT2NBOHQMM1CIOU0HZYXDXL","","379.5","img/animal1.png","74","380.89999997615814","1","1","2","0.5,0,1,1,0.5,0,0,1,0.5",""
"","html-keyboard-response","186","128029","0.0-186.0","31T4R4OBOT29QUCBVUIBZ81ZGHM7C9","A2LMQ4497NMK3S","3S829FDFT2NBOHQMM1CIOU0HZYXDXL","","null","<img src=""img/animal1.png"" style=""width:200px; border:14px solid green;"">","null","","","","","",""
"","image-keyboard-response","187","128788","0.0-187.0","31T4R4OBOT29QUCBVUIBZ81ZGHM7C9","A2LMQ4497NMK3S","3S829FDFT2NBOHQMM1CIOU0HZYXDXL","","758.3000000119209","img/animal3.png","75","759.0999999642372","2","1","3","0.5,0,1,1,0.5,0,0,1,0.5",""
"","html-keyboard-response","188","129090","0.0-188.0","31T4R4OBOT29QUCBVUIBZ81ZGHM7C9","A2LMQ4497NMK3S","3S829FDFT2NBOHQMM1CIOU0HZYXDXL","","null","<img src=""img/animal3.png"" style=""width:200px; border:14px solid green;"">","null","","","","","",""
"","image-keyboard-response","189","129892","0.0-189.0","31T4R4OBOT29QUCBVUIBZ81ZGHM7C9","A2LMQ4497NMK3S","3S829FDFT2NBOHQMM1CIOU0HZYXDXL","","800.6000000238419","img/animal6.png","76","801.6999999880791","3","1","1","0.5,0,1,1,0.5,0,0,1,0.5",""
"","html-keyboard-response","190","130194","0.0-190.0","31T4R4OBOT29QUCBVUIBZ81ZGHM7C9","A2LMQ4497NMK3S","3S829FDFT2NBOHQMM1CIOU0HZYXDXL","","null","<img src=""img/animal6.png"" style=""width:200px; border:14px solid green;"">","null","","","","","",""
"","image-keyboard-response","191","130604","0.0-191.0","31T4R4OBOT29QUCBVUIBZ81ZGHM7C9","A2LMQ4497NMK3S","3S829FDFT2NBOHQMM1CIOU0HZYXDXL","","409","img/animal6.png","76","409.89999997615814","3","1","1","0.5,0,1,1,0.5,0,0,1,0.5",""
"","html-keyboard-response","192","130906","0.0-192.0","31T4R4OBOT29QUCBVUIBZ81ZGHM7C9","A2LMQ4497NMK3S","3S829FDFT2NBOHQMM1CIOU0HZYXDXL","","null","<img src=""img/animal6.png"" style=""width:200px; border:14px solid green;"">","null","","","","","",""
"","image-keyboard-response","193","131500","0.0-193.0","31T4R4OBOT29QUCBVUIBZ81ZGHM7C9","A2LMQ4497NMK3S","3S829FDFT2NBOHQMM1CIOU0HZYXDXL","","593.1000000238419","img/animal1.png","74","594.1000000238419","1","1","2","0.5,0,1,1,0.5,0,0,1,0.5",""
"","html-keyboard-response","194","131803","0.0-194.0","31T4R4OBOT29QUCBVUIBZ81ZGHM7C9","A2LMQ4497NMK3S","3S829FDFT2NBOHQMM1CIOU0HZYXDXL","","null","<img src=""img/animal1.png"" style=""width:200px; border:14px solid green;"">","null","","","","","",""
"","image-keyboard-response","195","132380","0.0-195.0","31T4R4OBOT29QUCBVUIBZ81ZGHM7C9","A2LMQ4497NMK3S","3S829FDFT2NBOHQMM1CIOU0HZYXDXL","","576.6999999880791","img/animal3.png","75","577.5999999642372","2","1","3","0.5,0,1,1,0.5,0,0,1,0.5",""
"","html-keyboard-response","196","132683","0.0-196.0","31T4R4OBOT29QUCBVUIBZ81ZGHM7C9","A2LMQ4497NMK3S","3S829FDFT2NBOHQMM1CIOU0HZYXDXL","","null","<img src=""img/animal3.png"" style=""width:200px; border:14px solid green;"">","null","","","","","",""
"","image-keyboard-response","197","133212","0.0-197.0","31T4R4OBOT29QUCBVUIBZ81ZGHM7C9","A2LMQ4497NMK3S","3S829FDFT2NBOHQMM1CIOU0HZYXDXL","","528.4000000357628","img/animal3.png","75","529.2999999523163","2","1","3","0.5,0,1,1,0.5,0,0,1,0.5",""
"","html-keyboard-response","198","133515","0.0-198.0","31T4R4OBOT29QUCBVUIBZ81ZGHM7C9","A2LMQ4497NMK3S","3S829FDFT2NBOHQMM1CIOU0HZYXDXL","","null","<img src=""img/animal3.png"" style=""width:200px; border:14px solid green;"">","null","","","","","",""
"","image-keyboard-response","199","133901","0.0-199.0","31T4R4OBOT29QUCBVUIBZ81ZGHM7C9","A2LMQ4497NMK3S","3S829FDFT2NBOHQMM1CIOU0HZYXDXL","","384.60000002384186","img/animal3.png","75","385.60000002384186","2","1","3","0.5,0,1,1,0.5,0,0,1,0.5",""
"","html-keyboard-response","200","134202","0.0-200.0","31T4R4OBOT29QUCBVUIBZ81ZGHM7C9","A2LMQ4497NMK3S","3S829FDFT2NBOHQMM1CIOU0HZYXDXL","","null","<img src=""img/animal3.png"" style=""width:200px; border:14px solid green;"">","null","","","","","",""
"","image-keyboard-response","201","134709","0.0-201.0","31T4R4OBOT29QUCBVUIBZ81ZGHM7C9","A2LMQ4497NMK3S","3S829FDFT2NBOHQMM1CIOU0HZYXDXL","","505.69999998807907","img/animal6.png","76","506.60000002384186","3","1","1","0.5,0,1,1,0.5,0,0,1,0.5",""
"","html-keyboard-response","202","135011","0.0-202.0","31T4R4OBOT29QUCBVUIBZ81ZGHM7C9","A2LMQ4497NMK3S","3S829FDFT2NBOHQMM1CIOU0HZYXDXL","","null","<img src=""img/animal6.png"" style=""width:200px; border:14px solid green;"">","null","","","","","",""
"","image-keyboard-response","203","135636","0.0-203.0","31T4R4OBOT29QUCBVUIBZ81ZGHM7C9","A2LMQ4497NMK3S","3S829FDFT2NBOHQMM1CIOU0HZYXDXL","","624.5","img/animal1.png","74","625.5","1","1","2","0.5,0,1,1,0.5,0,0,1,0.5",""
"","html-keyboard-response","204","135938","0.0-204.0","31T4R4OBOT29QUCBVUIBZ81ZGHM7C9","A2LMQ4497NMK3S","3S829FDFT2NBOHQMM1CIOU0HZYXDXL","","null","<img src=""img/animal1.png"" style=""width:200px; border:14px solid green;"">","null","","","","","",""
"","image-keyboard-response","205","136732","0.0-205.0","31T4R4OBOT29QUCBVUIBZ81ZGHM7C9","A2LMQ4497NMK3S","3S829FDFT2NBOHQMM1CIOU0HZYXDXL","","793.6999999880791","img/animal3.png","75","794.6000000238419","2","1","3","0.5,0,1,1,0.5,0,0,1,0.5",""
"","html-keyboard-response","206","137035","0.0-206.0","31T4R4OBOT29QUCBVUIBZ81ZGHM7C9","A2LMQ4497NMK3S","3S829FDFT2NBOHQMM1CIOU0HZYXDXL","","null","<img src=""img/animal3.png"" style=""width:200px; border:14px solid green;"">","null","","","","","",""
"","image-keyboard-response","207","137716","0.0-207.0","31T4R4OBOT29QUCBVUIBZ81ZGHM7C9","A2LMQ4497NMK3S","3S829FDFT2NBOHQMM1CIOU0HZYXDXL","","680","img/animal1.png","74","681","1","1","2","0.5,0,1,1,0.5,0,0,1,0.5",""
"","html-keyboard-response","208","138018","0.0-208.0","31T4R4OBOT29QUCBVUIBZ81ZGHM7C9","A2LMQ4497NMK3S","3S829FDFT2NBOHQMM1CIOU0HZYXDXL","","null","<img src=""img/animal1.png"" style=""width:200px; border:14px solid green;"">","null","","","","","",""
"","image-keyboard-response","209","138565","0.0-209.0","31T4R4OBOT29QUCBVUIBZ81ZGHM7C9","A2LMQ4497NMK3S","3S829FDFT2NBOHQMM1CIOU0HZYXDXL","","545.8000000119209","img/animal1.png","74","546.8999999761581","1","1","2","0.5,0,1,1,0.5,0,0,1,0.5",""
"","html-keyboard-response","210","138867","0.0-210.0","31T4R4OBOT29QUCBVUIBZ81ZGHM7C9","A2LMQ4497NMK3S","3S829FDFT2NBOHQMM1CIOU0HZYXDXL","","null","<img src=""img/animal1.png"" style=""width:200px; border:14px solid green;"">","null","","","","","",""
"","image-keyboard-response","211","139388","0.0-211.0","31T4R4OBOT29QUCBVUIBZ81ZGHM7C9","A2LMQ4497NMK3S","3S829FDFT2NBOHQMM1CIOU0HZYXDXL","","520.6999999880791","img/animal3.png","75","521.6999999880791","2","1","3","0.5,0,1,1,0.5,0,0,1,0.5",""
"","html-keyboard-response","212","139692","0.0-212.0","31T4R4OBOT29QUCBVUIBZ81ZGHM7C9","A2LMQ4497NMK3S","3S829FDFT2NBOHQMM1CIOU0HZYXDXL","","null","<img src=""img/animal3.png"" style=""width:200px; border:14px solid green;"">","null","","","","","",""
"","image-keyboard-response","213","140268","0.0-213.0","31T4R4OBOT29QUCBVUIBZ81ZGHM7C9","A2LMQ4497NMK3S","3S829FDFT2NBOHQMM1CIOU0HZYXDXL","","575.6000000238419","img/animal1.png","74","576.5","1","1","2","0.5,0,1,1,0.5,0,0,1,0.5",""
"","html-keyboard-response","214","140571","0.0-214.0","31T4R4OBOT29QUCBVUIBZ81ZGHM7C9","A2LMQ4497NMK3S","3S829FDFT2NBOHQMM1CIOU0HZYXDXL","","null","<img src=""img/animal1.png"" style=""width:200px; border:14px solid green;"">","null","","","","","",""
"","image-keyboard-response","215","141245","0.0-215.0","31T4R4OBOT29QUCBVUIBZ81ZGHM7C9","A2LMQ4497NMK3S","3S829FDFT2NBOHQMM1CIOU0HZYXDXL","","672.8000000119209","img/animal6.png","76","673.8000000119209","3","1","1","0.5,0,1,1,0.5,0,0,1,0.5",""
"","html-keyboard-response","216","141546","0.0-216.0","31T4R4OBOT29QUCBVUIBZ81ZGHM7C9","A2LMQ4497NMK3S","3S829FDFT2NBOHQMM1CIOU0HZYXDXL","","null","<img src=""img/animal6.png"" style=""width:200px; border:14px solid green;"">","null","","","","","",""
"","image-keyboard-response","217","142316","0.0-217.0","31T4R4OBOT29QUCBVUIBZ81ZGHM7C9","A2LMQ4497NMK3S","3S829FDFT2NBOHQMM1CIOU0HZYXDXL","","769.3000000119209","img/animal3.png","75","770.3000000119209","2","1","3","0.5,0,1,1,0.5,0,0,1,0.5",""
"","html-keyboard-response","218","142618","0.0-218.0","31T4R4OBOT29QUCBVUIBZ81ZGHM7C9","A2LMQ4497NMK3S","3S829FDFT2NBOHQMM1CIOU0HZYXDXL","","null","<img src=""img/animal3.png"" style=""width:200px; border:14px solid green;"">","null","","","","","",""
"","image-keyboard-response","219","143460","0.0-219.0","31T4R4OBOT29QUCBVUIBZ81ZGHM7C9","A2LMQ4497NMK3S","3S829FDFT2NBOHQMM1CIOU0HZYXDXL","","841.1000000238419","img/animal6.png","76","842.0999999642372","3","1","1","0.5,0,1,1,0.5,0,0,1,0.5",""
"","html-keyboard-response","220","143762","0.0-220.0","31T4R4OBOT29QUCBVUIBZ81ZGHM7C9","A2LMQ4497NMK3S","3S829FDFT2NBOHQMM1CIOU0HZYXDXL","","null","<img src=""img/animal6.png"" style=""width:200px; border:14px solid green;"">","null","","","","","",""
"","image-keyboard-response","221","145245","0.0-221.0","31T4R4OBOT29QUCBVUIBZ81ZGHM7C9","A2LMQ4497NMK3S","3S829FDFT2NBOHQMM1CIOU0HZYXDXL","","1481.199999988079","img/animal3.png","75","1482.1000000238419","2","1","3","0.5,0,1,1,0.5,0,0,1,0.5",""
"","html-keyboard-response","222","145546","0.0-222.0","31T4R4OBOT29QUCBVUIBZ81ZGHM7C9","A2LMQ4497NMK3S","3S829FDFT2NBOHQMM1CIOU0HZYXDXL","","null","<img src=""img/animal3.png"" style=""width:200px; border:14px solid green;"">","null","","","","","",""
"","image-keyboard-response","223","145964","0.0-223.0","31T4R4OBOT29QUCBVUIBZ81ZGHM7C9","A2LMQ4497NMK3S","3S829FDFT2NBOHQMM1CIOU0HZYXDXL","","416.89999997615814","img/animal3.png","75","417.89999997615814","2","1","3","0.5,0,1,1,0.5,0,0,1,0.5",""
"","html-keyboard-response","224","146266","0.0-224.0","31T4R4OBOT29QUCBVUIBZ81ZGHM7C9","A2LMQ4497NMK3S","3S829FDFT2NBOHQMM1CIOU0HZYXDXL","","null","<img src=""img/animal3.png"" style=""width:200px; border:14px solid green;"">","null","","","","","",""
"","image-keyboard-response","225","146884","0.0-225.0","31T4R4OBOT29QUCBVUIBZ81ZGHM7C9","A2LMQ4497NMK3S","3S829FDFT2NBOHQMM1CIOU0HZYXDXL","","616.5999999642372","img/animal6.png","76","617.6999999880791","3","1","1","0.5,0,1,1,0.5,0,0,1,0.5",""
"","html-keyboard-response","226","147187","0.0-226.0","31T4R4OBOT29QUCBVUIBZ81ZGHM7C9","A2LMQ4497NMK3S","3S829FDFT2NBOHQMM1CIOU0HZYXDXL","","null","<img src=""img/animal6.png"" style=""width:200px; border:14px solid green;"">","null","","","","","",""
"","image-keyboard-response","227","147701","0.0-227.0","31T4R4OBOT29QUCBVUIBZ81ZGHM7C9","A2LMQ4497NMK3S","3S829FDFT2NBOHQMM1CIOU0HZYXDXL","","512.4000000357628","img/animal6.png","76","513.5999999642372","3","1","1","0.5,0,1,1,0.5,0,0,1,0.5",""
"","html-keyboard-response","228","148003","0.0-228.0","31T4R4OBOT29QUCBVUIBZ81ZGHM7C9","A2LMQ4497NMK3S","3S829FDFT2NBOHQMM1CIOU0HZYXDXL","","null","<img src=""img/animal6.png"" style=""width:200px; border:14px solid green;"">","null","","","","","",""
"","image-keyboard-response","229","148572","0.0-229.0","31T4R4OBOT29QUCBVUIBZ81ZGHM7C9","A2LMQ4497NMK3S","3S829FDFT2NBOHQMM1CIOU0HZYXDXL","","567.8999999761581","img/animal1.png","74","568.8000000119209","1","1","2","0.5,0,1,1,0.5,0,0,1,0.5",""
"","html-keyboard-response","230","148875","0.0-230.0","31T4R4OBOT29QUCBVUIBZ81ZGHM7C9","A2LMQ4497NMK3S","3S829FDFT2NBOHQMM1CIOU0HZYXDXL","","null","<img src=""img/animal1.png"" style=""width:200px; border:14px solid green;"">","null","","","","","",""
"","image-keyboard-response","231","149380","0.0-231.0","31T4R4OBOT29QUCBVUIBZ81ZGHM7C9","A2LMQ4497NMK3S","3S829FDFT2NBOHQMM1CIOU0HZYXDXL","","504.39999997615814","img/animal3.png","75","505.39999997615814","2","1","3","0.5,0,1,1,0.5,0,0,1,0.5",""
"","html-keyboard-response","232","149682","0.0-232.0","31T4R4OBOT29QUCBVUIBZ81ZGHM7C9","A2LMQ4497NMK3S","3S829FDFT2NBOHQMM1CIOU0HZYXDXL","","null","<img src=""img/animal3.png"" style=""width:200px; border:14px solid green;"">","null","","","","","",""
"","image-keyboard-response","233","150316","0.0-233.0","31T4R4OBOT29QUCBVUIBZ81ZGHM7C9","A2LMQ4497NMK3S","3S829FDFT2NBOHQMM1CIOU0HZYXDXL","","633.8000000119209","img/animal1.png","74","634.6999999880791","1","1","2","0.5,0,1,1,0.5,0,0,1,0.5",""
"","html-keyboard-response","234","150619","0.0-234.0","31T4R4OBOT29QUCBVUIBZ81ZGHM7C9","A2LMQ4497NMK3S","3S829FDFT2NBOHQMM1CIOU0HZYXDXL","","null","<img src=""img/animal1.png"" style=""width:200px; border:14px solid green;"">","null","","","","","",""
"","image-keyboard-response","235","151132","0.0-235.0","31T4R4OBOT29QUCBVUIBZ81ZGHM7C9","A2LMQ4497NMK3S","3S829FDFT2NBOHQMM1CIOU0HZYXDXL","","512.3999999761581","img/animal3.png","75","513.4000000357628","2","1","3","0.5,0,1,1,0.5,0,0,1,0.5",""
"","html-keyboard-response","236","151433","0.0-236.0","31T4R4OBOT29QUCBVUIBZ81ZGHM7C9","A2LMQ4497NMK3S","3S829FDFT2NBOHQMM1CIOU0HZYXDXL","","null","<img src=""img/animal3.png"" style=""width:200px; border:14px solid green;"">","null","","","","","",""
"","image-keyboard-response","237","151884","0.0-237.0","31T4R4OBOT29QUCBVUIBZ81ZGHM7C9","A2LMQ4497NMK3S","3S829FDFT2NBOHQMM1CIOU0HZYXDXL","","449.80000001192093","img/animal3.png","75","450.69999998807907","2","1","3","0.5,0,1,1,0.5,0,0,1,0.5",""
"","html-keyboard-response","238","152186","0.0-238.0","31T4R4OBOT29QUCBVUIBZ81ZGHM7C9","A2LMQ4497NMK3S","3S829FDFT2NBOHQMM1CIOU0HZYXDXL","","null","<img src=""img/animal3.png"" style=""width:200px; border:14px solid green;"">","null","","","","","",""
"","image-keyboard-response","239","152756","0.0-239.0","31T4R4OBOT29QUCBVUIBZ81ZGHM7C9","A2LMQ4497NMK3S","3S829FDFT2NBOHQMM1CIOU0HZYXDXL","","569","img/animal1.png","74","570.1000000238419","1","1","2","0.5,0,1,1,0.5,0,0,1,0.5",""
"","html-keyboard-response","240","153058","0.0-240.0","31T4R4OBOT29QUCBVUIBZ81ZGHM7C9","A2LMQ4497NMK3S","3S829FDFT2NBOHQMM1CIOU0HZYXDXL","","null","<img src=""img/animal1.png"" style=""width:200px; border:14px solid green;"">","null","","","","","",""
"","image-keyboard-response","241","153564","0.0-241.0","31T4R4OBOT29QUCBVUIBZ81ZGHM7C9","A2LMQ4497NMK3S","3S829FDFT2NBOHQMM1CIOU0HZYXDXL","","505.19999998807907","img/animal3.png","75","506.10000002384186","2","1","3","0.5,0,1,1,0.5,0,0,1,0.5",""
"","html-keyboard-response","242","153867","0.0-242.0","31T4R4OBOT29QUCBVUIBZ81ZGHM7C9","A2LMQ4497NMK3S","3S829FDFT2NBOHQMM1CIOU0HZYXDXL","","null","<img src=""img/animal3.png"" style=""width:200px; border:14px solid green;"">","null","","","","","",""
"","image-keyboard-response","243","154452","0.0-243.0","31T4R4OBOT29QUCBVUIBZ81ZGHM7C9","A2LMQ4497NMK3S","3S829FDFT2NBOHQMM1CIOU0HZYXDXL","","584.6000000238419","img/animal6.png","76","585.6000000238419","3","1","1","0.5,0,1,1,0.5,0,0,1,0.5",""
"","html-keyboard-response","244","154754","0.0-244.0","31T4R4OBOT29QUCBVUIBZ81ZGHM7C9","A2LMQ4497NMK3S","3S829FDFT2NBOHQMM1CIOU0HZYXDXL","","null","<img src=""img/animal6.png"" style=""width:200px; border:14px solid green;"">","null","","","","","",""
"","image-keyboard-response","245","155276","0.0-245.0","31T4R4OBOT29QUCBVUIBZ81ZGHM7C9","A2LMQ4497NMK3S","3S829FDFT2NBOHQMM1CIOU0HZYXDXL","","520.8000000119209","img/animal6.png","76","521.6999999880791","3","1","1","0.5,0,1,1,0.5,0,0,1,0.5",""
"","html-keyboard-response","246","155578","0.0-246.0","31T4R4OBOT29QUCBVUIBZ81ZGHM7C9","A2LMQ4497NMK3S","3S829FDFT2NBOHQMM1CIOU0HZYXDXL","","null","<img src=""img/animal6.png"" style=""width:200px; border:14px solid green;"">","null","","","","","",""
"","image-keyboard-response","247","156044","0.0-247.0","31T4R4OBOT29QUCBVUIBZ81ZGHM7C9","A2LMQ4497NMK3S","3S829FDFT2NBOHQMM1CIOU0HZYXDXL","","465.60000002384186","img/animal6.png","76","466.60000002384186","3","1","1","0.5,0,1,1,0.5,0,0,1,0.5",""
"","html-keyboard-response","248","156346","0.0-248.0","31T4R4OBOT29QUCBVUIBZ81ZGHM7C9","A2LMQ4497NMK3S","3S829FDFT2NBOHQMM1CIOU0HZYXDXL","","null","<img src=""img/animal6.png"" style=""width:200px; border:14px solid green;"">","null","","","","","",""
"","image-keyboard-response","249","156852","0.0-249.0","31T4R4OBOT29QUCBVUIBZ81ZGHM7C9","A2LMQ4497NMK3S","3S829FDFT2NBOHQMM1CIOU0HZYXDXL","","505.10000002384186","img/animal3.png","74","506.19999998807907","1","0","3","0.5,0,1,1,0.5,0,0,1,0.5",""
"","html-keyboard-response","250","157154","0.0-250.0","31T4R4OBOT29QUCBVUIBZ81ZGHM7C9","A2LMQ4497NMK3S","3S829FDFT2NBOHQMM1CIOU0HZYXDXL","","null","<img src=""img/animal3.png"" style=""width:200px;border:14px solid red;"">","null","","","","","",""
"","image-keyboard-response","251","158092","0.0-251.0","31T4R4OBOT29QUCBVUIBZ81ZGHM7C9","A2LMQ4497NMK3S","3S829FDFT2NBOHQMM1CIOU0HZYXDXL","","937.6000000238419","img/animal6.png","76","938.7000000476837","3","1","1","0.5,0,1,1,0.5,0,0,1,0.5",""
"","html-keyboard-response","252","158394","0.0-252.0","31T4R4OBOT29QUCBVUIBZ81ZGHM7C9","A2LMQ4497NMK3S","3S829FDFT2NBOHQMM1CIOU0HZYXDXL","","null","<img src=""img/animal6.png"" style=""width:200px; border:14px solid green;"">","null","","","","","",""
"","image-keyboard-response","253","159069","0.0-253.0","31T4R4OBOT29QUCBVUIBZ81ZGHM7C9","A2LMQ4497NMK3S","3S829FDFT2NBOHQMM1CIOU0HZYXDXL","","673.5","img/animal3.png","75","674.4000000357628","2","1","3","0.5,0,1,1,0.5,0,0,1,0.5",""
"","html-keyboard-response","254","159371","0.0-254.0","31T4R4OBOT29QUCBVUIBZ81ZGHM7C9","A2LMQ4497NMK3S","3S829FDFT2NBOHQMM1CIOU0HZYXDXL","","null","<img src=""img/animal3.png"" style=""width:200px; border:14px solid green;"">","null","","","","","",""
"","image-keyboard-response","255","159773","0.0-255.0","31T4R4OBOT29QUCBVUIBZ81ZGHM7C9","A2LMQ4497NMK3S","3S829FDFT2NBOHQMM1CIOU0HZYXDXL","","400.9000000357628","img/animal3.png","75","402","2","1","3","0.5,0,1,1,0.5,0,0,1,0.5",""
"","html-keyboard-response","256","160075","0.0-256.0","31T4R4OBOT29QUCBVUIBZ81ZGHM7C9","A2LMQ4497NMK3S","3S829FDFT2NBOHQMM1CIOU0HZYXDXL","","null","<img src=""img/animal3.png"" style=""width:200px; border:14px solid green;"">","null","","","","","",""
"","image-keyboard-response","257","160428","0.0-257.0","31T4R4OBOT29QUCBVUIBZ81ZGHM7C9","A2LMQ4497NMK3S","3S829FDFT2NBOHQMM1CIOU0HZYXDXL","","352.30000001192093","img/animal3.png","75","353.39999997615814","2","1","3","0.5,0,1,1,0.5,0,0,1,0.5",""
"","html-keyboard-response","258","160730","0.0-258.0","31T4R4OBOT29QUCBVUIBZ81ZGHM7C9","A2LMQ4497NMK3S","3S829FDFT2NBOHQMM1CIOU0HZYXDXL","","null","<img src=""img/animal3.png"" style=""width:200px; border:14px solid green;"">","null","","","","","",""
"","image-keyboard-response","259","161397","0.0-259.0","31T4R4OBOT29QUCBVUIBZ81ZGHM7C9","A2LMQ4497NMK3S","3S829FDFT2NBOHQMM1CIOU0HZYXDXL","","665.3999999761581","img/animal1.png","74","666.4000000357628","1","1","2","0.5,0,1,1,0.5,0,0,1,0.5",""
"","html-keyboard-response","260","161699","0.0-260.0","31T4R4OBOT29QUCBVUIBZ81ZGHM7C9","A2LMQ4497NMK3S","3S829FDFT2NBOHQMM1CIOU0HZYXDXL","","null","<img src=""img/animal1.png"" style=""width:200px; border:14px solid green;"">","null","","","","","",""
"","image-keyboard-response","261","162405","0.0-261.0","31T4R4OBOT29QUCBVUIBZ81ZGHM7C9","A2LMQ4497NMK3S","3S829FDFT2NBOHQMM1CIOU0HZYXDXL","","704.3999999761581","img/animal3.png","75","705.5","2","1","3","0.5,0,1,1,0.5,0,0,1,0.5",""
"","html-keyboard-response","262","162706","0.0-262.0","31T4R4OBOT29QUCBVUIBZ81ZGHM7C9","A2LMQ4497NMK3S","3S829FDFT2NBOHQMM1CIOU0HZYXDXL","","null","<img src=""img/animal3.png"" style=""width:200px; border:14px solid green;"">","null","","","","","",""
"","image-keyboard-response","263","163437","0.0-263.0","31T4R4OBOT29QUCBVUIBZ81ZGHM7C9","A2LMQ4497NMK3S","3S829FDFT2NBOHQMM1CIOU0HZYXDXL","","728.5999999642372","img/animal6.png","76","729.6000000238419","3","1","1","0.5,0,1,1,0.5,0,0,1,0.5",""
"","html-keyboard-response","264","163739","0.0-264.0","31T4R4OBOT29QUCBVUIBZ81ZGHM7C9","A2LMQ4497NMK3S","3S829FDFT2NBOHQMM1CIOU0HZYXDXL","","null","<img src=""img/animal6.png"" style=""width:200px; border:14px solid green;"">","null","","","","","",""
"","image-keyboard-response","265","164781","0.0-265.0","31T4R4OBOT29QUCBVUIBZ81ZGHM7C9","A2LMQ4497NMK3S","3S829FDFT2NBOHQMM1CIOU0HZYXDXL","","1040.800000011921","img/animal3.png","75","1041.699999988079","2","1","3","0.5,0,1,1,0.5,0,0,1,0.5",""
"","html-keyboard-response","266","165083","0.0-266.0","31T4R4OBOT29QUCBVUIBZ81ZGHM7C9","A2LMQ4497NMK3S","3S829FDFT2NBOHQMM1CIOU0HZYXDXL","","null","<img src=""img/animal3.png"" style=""width:200px; border:14px solid green;"">","null","","","","","",""
"","image-keyboard-response","267","165685","0.0-267.0","31T4R4OBOT29QUCBVUIBZ81ZGHM7C9","A2LMQ4497NMK3S","3S829FDFT2NBOHQMM1CIOU0HZYXDXL","","600.3000000119209","img/animal1.png","74","601.1999999880791","1","1","2","0.5,0,1,1,0.5,0,0,1,0.5",""
"","html-keyboard-response","268","165987","0.0-268.0","31T4R4OBOT29QUCBVUIBZ81ZGHM7C9","A2LMQ4497NMK3S","3S829FDFT2NBOHQMM1CIOU0HZYXDXL","","null","<img src=""img/animal1.png"" style=""width:200px; border:14px solid green;"">","null","","","","","",""
"","image-keyboard-response","269","166701","0.0-269.0","31T4R4OBOT29QUCBVUIBZ81ZGHM7C9","A2LMQ4497NMK3S","3S829FDFT2NBOHQMM1CIOU0HZYXDXL","","712.6999999880791","img/animal6.png","76","713.6999999880791","3","1","1","0.5,0,1,1,0.5,0,0,1,0.5",""
"","html-keyboard-response","270","167003","0.0-270.0","31T4R4OBOT29QUCBVUIBZ81ZGHM7C9","A2LMQ4497NMK3S","3S829FDFT2NBOHQMM1CIOU0HZYXDXL","","null","<img src=""img/animal6.png"" style=""width:200px; border:14px solid green;"">","null","","","","","",""
"","image-keyboard-response","271","167692","0.0-271.0","31T4R4OBOT29QUCBVUIBZ81ZGHM7C9","A2LMQ4497NMK3S","3S829FDFT2NBOHQMM1CIOU0HZYXDXL","","688.6000000238419","img/animal1.png","74","689.6999999880791","1","1","2","0.5,0,1,1,0.5,0,0,1,0.5",""
"","html-keyboard-response","272","167995","0.0-272.0","31T4R4OBOT29QUCBVUIBZ81ZGHM7C9","A2LMQ4497NMK3S","3S829FDFT2NBOHQMM1CIOU0HZYXDXL","","null","<img src=""img/animal1.png"" style=""width:200px; border:14px solid green;"">","null","","","","","",""
"","image-keyboard-response","273","168501","0.0-273.0","31T4R4OBOT29QUCBVUIBZ81ZGHM7C9","A2LMQ4497NMK3S","3S829FDFT2NBOHQMM1CIOU0HZYXDXL","","504.5","img/animal1.png","74","505.5","1","1","2","0.5,0,1,1,0.5,0,0,1,0.5",""
"","html-keyboard-response","274","168803","0.0-274.0","31T4R4OBOT29QUCBVUIBZ81ZGHM7C9","A2LMQ4497NMK3S","3S829FDFT2NBOHQMM1CIOU0HZYXDXL","","null","<img src=""img/animal1.png"" style=""width:200px; border:14px solid green;"">","null","","","","","",""
"","image-keyboard-response","275","169492","0.0-275.0","31T4R4OBOT29QUCBVUIBZ81ZGHM7C9","A2LMQ4497NMK3S","3S829FDFT2NBOHQMM1CIOU0HZYXDXL","","688.8000000119209","img/animal6.png","76","690","3","1","1","0.5,0,1,1,0.5,0,0,1,0.5",""
"","html-keyboard-response","276","169794","0.0-276.0","31T4R4OBOT29QUCBVUIBZ81ZGHM7C9","A2LMQ4497NMK3S","3S829FDFT2NBOHQMM1CIOU0HZYXDXL","","null","<img src=""img/animal6.png"" style=""width:200px; border:14px solid green;"">","null","","","","","",""
"","image-keyboard-response","277","170324","0.0-277.0","31T4R4OBOT29QUCBVUIBZ81ZGHM7C9","A2LMQ4497NMK3S","3S829FDFT2NBOHQMM1CIOU0HZYXDXL","","529.3000000119209","img/animal6.png","76","530.3999999761581","3","1","1","0.5,0,1,1,0.5,0,0,1,0.5",""
"","html-keyboard-response","278","170626","0.0-278.0","31T4R4OBOT29QUCBVUIBZ81ZGHM7C9","A2LMQ4497NMK3S","3S829FDFT2NBOHQMM1CIOU0HZYXDXL","","null","<img src=""img/animal6.png"" style=""width:200px; border:14px solid green;"">","null","","","","","",""
"","image-keyboard-response","279","171188","0.0-279.0","31T4R4OBOT29QUCBVUIBZ81ZGHM7C9","A2LMQ4497NMK3S","3S829FDFT2NBOHQMM1CIOU0HZYXDXL","","561.2000000476837","img/animal6.png","76","562.1000000238419","3","1","1","0.5,0,1,1,0.5,0,0,1,0.5",""
"","html-keyboard-response","280","171491","0.0-280.0","31T4R4OBOT29QUCBVUIBZ81ZGHM7C9","A2LMQ4497NMK3S","3S829FDFT2NBOHQMM1CIOU0HZYXDXL","","null","<img src=""img/animal6.png"" style=""width:200px; border:14px solid green;"">","null","","","","","",""
"","image-keyboard-response","281","172060","0.0-281.0","31T4R4OBOT29QUCBVUIBZ81ZGHM7C9","A2LMQ4497NMK3S","3S829FDFT2NBOHQMM1CIOU0HZYXDXL","","568.5","img/animal1.png","74","569.5","1","1","2","0.5,0,1,1,0.5,0,0,1,0.5",""
"","html-keyboard-response","282","172362","0.0-282.0","31T4R4OBOT29QUCBVUIBZ81ZGHM7C9","A2LMQ4497NMK3S","3S829FDFT2NBOHQMM1CIOU0HZYXDXL","","null","<img src=""img/animal1.png"" style=""width:200px; border:14px solid green;"">","null","","","","","",""
"","image-keyboard-response","283","173109","0.0-283.0","31T4R4OBOT29QUCBVUIBZ81ZGHM7C9","A2LMQ4497NMK3S","3S829FDFT2NBOHQMM1CIOU0HZYXDXL","","745.0999999642372","img/animal6.png","76","746","3","1","1","0.5,0,1,1,0.5,0,0,1,0.5",""
"","html-keyboard-response","284","173411","0.0-284.0","31T4R4OBOT29QUCBVUIBZ81ZGHM7C9","A2LMQ4497NMK3S","3S829FDFT2NBOHQMM1CIOU0HZYXDXL","","null","<img src=""img/animal6.png"" style=""width:200px; border:14px solid green;"">","null","","","","","",""
"","image-keyboard-response","285","174044","0.0-285.0","31T4R4OBOT29QUCBVUIBZ81ZGHM7C9","A2LMQ4497NMK3S","3S829FDFT2NBOHQMM1CIOU0HZYXDXL","","631.8000000119209","img/animal3.png","75","632.9000000357628","2","1","3","0.5,0,1,1,0.5,0,0,1,0.5",""
"","html-keyboard-response","286","174346","0.0-286.0","31T4R4OBOT29QUCBVUIBZ81ZGHM7C9","A2LMQ4497NMK3S","3S829FDFT2NBOHQMM1CIOU0HZYXDXL","","null","<img src=""img/animal3.png"" style=""width:200px; border:14px solid green;"">","null","","","","","",""
"","image-keyboard-response","287","174980","0.0-287.0","31T4R4OBOT29QUCBVUIBZ81ZGHM7C9","A2LMQ4497NMK3S","3S829FDFT2NBOHQMM1CIOU0HZYXDXL","","633.1000000238419","img/animal6.png","76","634","3","1","1","0.5,0,1,1,0.5,0,0,1,0.5",""
"","html-keyboard-response","288","175282","0.0-288.0","31T4R4OBOT29QUCBVUIBZ81ZGHM7C9","A2LMQ4497NMK3S","3S829FDFT2NBOHQMM1CIOU0HZYXDXL","","null","<img src=""img/animal6.png"" style=""width:200px; border:14px solid green;"">","null","","","","","",""
"","image-keyboard-response","289","175924","0.0-289.0","31T4R4OBOT29QUCBVUIBZ81ZGHM7C9","A2LMQ4497NMK3S","3S829FDFT2NBOHQMM1CIOU0HZYXDXL","","641.3000000119209","img/animal1.png","74","642.3999999761581","1","1","2","0.5,0,1,1,0.5,0,0,1,0.5",""
"","html-keyboard-response","290","176226","0.0-290.0","31T4R4OBOT29QUCBVUIBZ81ZGHM7C9","A2LMQ4497NMK3S","3S829FDFT2NBOHQMM1CIOU0HZYXDXL","","null","<img src=""img/animal1.png"" style=""width:200px; border:14px solid green;"">","null","","","","","",""
"","image-keyboard-response","291","176636","0.0-291.0","31T4R4OBOT29QUCBVUIBZ81ZGHM7C9","A2LMQ4497NMK3S","3S829FDFT2NBOHQMM1CIOU0HZYXDXL","","409.30000001192093","img/animal1.png","74","410.39999997615814","1","1","2","0.5,0,1,1,0.5,0,0,1,0.5",""
"","html-keyboard-response","292","176939","0.0-292.0","31T4R4OBOT29QUCBVUIBZ81ZGHM7C9","A2LMQ4497NMK3S","3S829FDFT2NBOHQMM1CIOU0HZYXDXL","","null","<img src=""img/animal1.png"" style=""width:200px; border:14px solid green;"">","null","","","","","",""
"","image-keyboard-response","293","177292","0.0-293.0","31T4R4OBOT29QUCBVUIBZ81ZGHM7C9","A2LMQ4497NMK3S","3S829FDFT2NBOHQMM1CIOU0HZYXDXL","","351.89999997615814","img/animal1.png","74","353.10000002384186","1","1","2","0.5,0,1,1,0.5,0,0,1,0.5",""
"","html-keyboard-response","294","177594","0.0-294.0","31T4R4OBOT29QUCBVUIBZ81ZGHM7C9","A2LMQ4497NMK3S","3S829FDFT2NBOHQMM1CIOU0HZYXDXL","","null","<img src=""img/animal1.png"" style=""width:200px; border:14px solid green;"">","null","","","","","",""
"","image-keyboard-response","295","178140","0.0-295.0","31T4R4OBOT29QUCBVUIBZ81ZGHM7C9","A2LMQ4497NMK3S","3S829FDFT2NBOHQMM1CIOU0HZYXDXL","","545","img/animal6.png","76","546","3","1","1","0.5,0,1,1,0.5,0,0,1,0.5",""
"","html-keyboard-response","296","178443","0.0-296.0","31T4R4OBOT29QUCBVUIBZ81ZGHM7C9","A2LMQ4497NMK3S","3S829FDFT2NBOHQMM1CIOU0HZYXDXL","","null","<img src=""img/animal6.png"" style=""width:200px; border:14px solid green;"">","null","","","","","",""
"","image-keyboard-response","297","179076","0.0-297.0","31T4R4OBOT29QUCBVUIBZ81ZGHM7C9","A2LMQ4497NMK3S","3S829FDFT2NBOHQMM1CIOU0HZYXDXL","","631.6999999880791","img/animal3.png","75","632.8000000119209","2","1","3","0.5,0,1,1,0.5,0,0,1,0.5",""
"","html-keyboard-response","298","179377","0.0-298.0","31T4R4OBOT29QUCBVUIBZ81ZGHM7C9","A2LMQ4497NMK3S","3S829FDFT2NBOHQMM1CIOU0HZYXDXL","","null","<img src=""img/animal3.png"" style=""width:200px; border:14px solid green;"">","null","","","","","",""
"","image-keyboard-response","299","179828","0.0-299.0","31T4R4OBOT29QUCBVUIBZ81ZGHM7C9","A2LMQ4497NMK3S","3S829FDFT2NBOHQMM1CIOU0HZYXDXL","","449.60000002384186","img/animal3.png","75","450.80000001192093","2","1","3","0.5,0,1,1,0.5,0,0,1,0.5",""
"","html-keyboard-response","300","180130","0.0-300.0","31T4R4OBOT29QUCBVUIBZ81ZGHM7C9","A2LMQ4497NMK3S","3S829FDFT2NBOHQMM1CIOU0HZYXDXL","","null","<img src=""img/animal3.png"" style=""width:200px; border:14px solid green;"">","null","","","","","",""
"","image-keyboard-response","301","180709","0.0-301.0","31T4R4OBOT29QUCBVUIBZ81ZGHM7C9","A2LMQ4497NMK3S","3S829FDFT2NBOHQMM1CIOU0HZYXDXL","","577","img/animal6.png","76","578.4000000357628","3","1","1","0.5,0,1,1,0.5,0,0,1,0.5",""
"","html-keyboard-response","302","181011","0.0-302.0","31T4R4OBOT29QUCBVUIBZ81ZGHM7C9","A2LMQ4497NMK3S","3S829FDFT2NBOHQMM1CIOU0HZYXDXL","","null","<img src=""img/animal6.png"" style=""width:200px; border:14px solid green;"">","null","","","","","",""
"","image-keyboard-response","303","181589","0.0-303.0","31T4R4OBOT29QUCBVUIBZ81ZGHM7C9","A2LMQ4497NMK3S","3S829FDFT2NBOHQMM1CIOU0HZYXDXL","","576.6000000238419","img/animal1.png","74","577.6999999880791","1","1","2","0.5,0,1,1,0.5,0,0,1,0.5",""
"","html-keyboard-response","304","181890","0.0-304.0","31T4R4OBOT29QUCBVUIBZ81ZGHM7C9","A2LMQ4497NMK3S","3S829FDFT2NBOHQMM1CIOU0HZYXDXL","","null","<img src=""img/animal1.png"" style=""width:200px; border:14px solid green;"">","null","","","","","",""
"","image-keyboard-response","305","182644","0.0-305.0","31T4R4OBOT29QUCBVUIBZ81ZGHM7C9","A2LMQ4497NMK3S","3S829FDFT2NBOHQMM1CIOU0HZYXDXL","","753.1000000238419","img/animal3.png","75","754.1000000238419","2","1","3","0.5,0,1,1,0.5,0,0,1,0.5",""
"","html-keyboard-response","306","182946","0.0-306.0","31T4R4OBOT29QUCBVUIBZ81ZGHM7C9","A2LMQ4497NMK3S","3S829FDFT2NBOHQMM1CIOU0HZYXDXL","","null","<img src=""img/animal3.png"" style=""width:200px; border:14px solid green;"">","null","","","","","",""
"","image-keyboard-response","307","184156","0.0-307.0","31T4R4OBOT29QUCBVUIBZ81ZGHM7C9","A2LMQ4497NMK3S","3S829FDFT2NBOHQMM1CIOU0HZYXDXL","","1208.9000000357628","img/animal1.png","74","1209.800000011921","1","1","2","0.5,0,1,1,0.5,0,0,1,0.5",""
"","html-keyboard-response","308","184459","0.0-308.0","31T4R4OBOT29QUCBVUIBZ81ZGHM7C9","A2LMQ4497NMK3S","3S829FDFT2NBOHQMM1CIOU0HZYXDXL","","null","<img src=""img/animal1.png"" style=""width:200px; border:14px solid green;"">","null","","","","","",""
"","image-keyboard-response","309","185052","0.0-309.0","31T4R4OBOT29QUCBVUIBZ81ZGHM7C9","A2LMQ4497NMK3S","3S829FDFT2NBOHQMM1CIOU0HZYXDXL","","592.6000000238419","img/animal6.png","76","593.6999999880791","3","1","1","0.5,0,1,1,0.5,0,0,1,0.5",""
"","html-keyboard-response","310","185355","0.0-310.0","31T4R4OBOT29QUCBVUIBZ81ZGHM7C9","A2LMQ4497NMK3S","3S829FDFT2NBOHQMM1CIOU0HZYXDXL","","null","<img src=""img/animal6.png"" style=""width:200px; border:14px solid green;"">","null","","","","","",""
"","image-keyboard-response","311","185933","0.0-311.0","31T4R4OBOT29QUCBVUIBZ81ZGHM7C9","A2LMQ4497NMK3S","3S829FDFT2NBOHQMM1CIOU0HZYXDXL","","577","img/animal1.png","74","577.8000000119209","1","1","2","0.5,0,1,1,0.5,0,0,1,0.5",""
"","html-keyboard-response","312","186234","0.0-312.0","31T4R4OBOT29QUCBVUIBZ81ZGHM7C9","A2LMQ4497NMK3S","3S829FDFT2NBOHQMM1CIOU0HZYXDXL","","null","<img src=""img/animal1.png"" style=""width:200px; border:14px solid green;"">","null","","","","","",""
"","image-keyboard-response","313","186957","0.0-313.0","31T4R4OBOT29QUCBVUIBZ81ZGHM7C9","A2LMQ4497NMK3S","3S829FDFT2NBOHQMM1CIOU0HZYXDXL","","721","img/animal6.png","76","722","3","1","1","0.5,0,1,1,0.5,0,0,1,0.5",""
"","html-keyboard-response","314","187258","0.0-314.0","31T4R4OBOT29QUCBVUIBZ81ZGHM7C9","A2LMQ4497NMK3S","3S829FDFT2NBOHQMM1CIOU0HZYXDXL","","null","<img src=""img/animal6.png"" style=""width:200px; border:14px solid green;"">","null","","","","","",""
"","image-keyboard-response","315","187788","0.0-315.0","31T4R4OBOT29QUCBVUIBZ81ZGHM7C9","A2LMQ4497NMK3S","3S829FDFT2NBOHQMM1CIOU0HZYXDXL","","529.5","img/animal6.png","76","530.2999999523163","3","1","1","0.5,0,1,1,0.5,0,0,1,0.5",""
"","html-keyboard-response","316","188090","0.0-316.0","31T4R4OBOT29QUCBVUIBZ81ZGHM7C9","A2LMQ4497NMK3S","3S829FDFT2NBOHQMM1CIOU0HZYXDXL","","null","<img src=""img/animal6.png"" style=""width:200px; border:14px solid green;"">","null","","","","","",""
"","image-keyboard-response","317","188756","0.0-317.0","31T4R4OBOT29QUCBVUIBZ81ZGHM7C9","A2LMQ4497NMK3S","3S829FDFT2NBOHQMM1CIOU0HZYXDXL","","665.1000000238419","img/animal1.png","74","666.0999999642372","1","1","2","0.5,0,1,1,0.5,0,0,1,0.5",""
"","html-keyboard-response","318","189058","0.0-318.0","31T4R4OBOT29QUCBVUIBZ81ZGHM7C9","A2LMQ4497NMK3S","3S829FDFT2NBOHQMM1CIOU0HZYXDXL","","null","<img src=""img/animal1.png"" style=""width:200px; border:14px solid green;"">","null","","","","","",""
"","image-keyboard-response","319","189636","0.0-319.0","31T4R4OBOT29QUCBVUIBZ81ZGHM7C9","A2LMQ4497NMK3S","3S829FDFT2NBOHQMM1CIOU0HZYXDXL","","577.3000000119209","img/animal3.png","75","578.1000000238419","2","1","3","0.5,0,1,1,0.5,0,0,1,0.5",""
"","html-keyboard-response","320","189937","0.0-320.0","31T4R4OBOT29QUCBVUIBZ81ZGHM7C9","A2LMQ4497NMK3S","3S829FDFT2NBOHQMM1CIOU0HZYXDXL","","null","<img src=""img/animal3.png"" style=""width:200px; border:14px solid green;"">","null","","","","","",""
"","image-keyboard-response","321","190492","0.0-321.0","31T4R4OBOT29QUCBVUIBZ81ZGHM7C9","A2LMQ4497NMK3S","3S829FDFT2NBOHQMM1CIOU0HZYXDXL","","554","img/animal6.png","76","554.6999999880791","3","1","1","0.5,0,1,1,0.5,0,0,1,0.5",""
"","html-keyboard-response","322","190794","0.0-322.0","31T4R4OBOT29QUCBVUIBZ81ZGHM7C9","A2LMQ4497NMK3S","3S829FDFT2NBOHQMM1CIOU0HZYXDXL","","null","<img src=""img/animal6.png"" style=""width:200px; border:14px solid green;"">","null","","","","","",""
"","image-keyboard-response","323","191493","0.0-323.0","31T4R4OBOT29QUCBVUIBZ81ZGHM7C9","A2LMQ4497NMK3S","3S829FDFT2NBOHQMM1CIOU0HZYXDXL","","698","img/animal1.png","74","699","1","1","2","0.5,0,1,1,0.5,0,0,1,0.5",""
"","html-keyboard-response","324","191803","0.0-324.0","31T4R4OBOT29QUCBVUIBZ81ZGHM7C9","A2LMQ4497NMK3S","3S829FDFT2NBOHQMM1CIOU0HZYXDXL","","null","<img src=""img/animal1.png"" style=""width:200px; border:14px solid green;"">","null","","","","","",""
"","image-keyboard-response","325","192420","0.0-325.0","31T4R4OBOT29QUCBVUIBZ81ZGHM7C9","A2LMQ4497NMK3S","3S829FDFT2NBOHQMM1CIOU0HZYXDXL","","616.4000000357628","img/animal3.png","75","617.2999999523163","2","1","3","0.5,0,1,1,0.5,0,0,1,0.5",""
"","html-keyboard-response","326","192723","0.0-326.0","31T4R4OBOT29QUCBVUIBZ81ZGHM7C9","A2LMQ4497NMK3S","3S829FDFT2NBOHQMM1CIOU0HZYXDXL","","null","<img src=""img/animal3.png"" style=""width:200px; border:14px solid green;"">","null","","","","","",""
"","image-keyboard-response","327","193980","0.0-327.0","31T4R4OBOT29QUCBVUIBZ81ZGHM7C9","A2LMQ4497NMK3S","3S829FDFT2NBOHQMM1CIOU0HZYXDXL","","1256.199999988079","img/animal1.png","74","1257.1000000238419","1","1","2","0.5,0,1,1,0.5,0,0,1,0.5",""
"","html-keyboard-response","328","194282","0.0-328.0","31T4R4OBOT29QUCBVUIBZ81ZGHM7C9","A2LMQ4497NMK3S","3S829FDFT2NBOHQMM1CIOU0HZYXDXL","","null","<img src=""img/animal1.png"" style=""width:200px; border:14px solid green;"">","null","","","","","",""
"","image-keyboard-response","329","195076","0.0-329.0","31T4R4OBOT29QUCBVUIBZ81ZGHM7C9","A2LMQ4497NMK3S","3S829FDFT2NBOHQMM1CIOU0HZYXDXL","","793.4000000357628","img/animal3.png","75","794.3000000119209","2","1","3","0.5,0,1,1,0.5,0,0,1,0.5",""
"","html-keyboard-response","330","195378","0.0-330.0","31T4R4OBOT29QUCBVUIBZ81ZGHM7C9","A2LMQ4497NMK3S","3S829FDFT2NBOHQMM1CIOU0HZYXDXL","","null","<img src=""img/animal3.png"" style=""width:200px; border:14px solid green;"">","null","","","","","",""
"","image-keyboard-response","331","196652","0.0-331.0","31T4R4OBOT29QUCBVUIBZ81ZGHM7C9","A2LMQ4497NMK3S","3S829FDFT2NBOHQMM1CIOU0HZYXDXL","","1272.9000000357628","img/animal1.png","74","1273.9000000357628","1","1","2","0.5,0,1,1,0.5,0,0,1,0.5",""
"","html-keyboard-response","332","196955","0.0-332.0","31T4R4OBOT29QUCBVUIBZ81ZGHM7C9","A2LMQ4497NMK3S","3S829FDFT2NBOHQMM1CIOU0HZYXDXL","","null","<img src=""img/animal1.png"" style=""width:200px; border:14px solid green;"">","null","","","","","",""
"","image-keyboard-response","333","197596","0.0-333.0","31T4R4OBOT29QUCBVUIBZ81ZGHM7C9","A2LMQ4497NMK3S","3S829FDFT2NBOHQMM1CIOU0HZYXDXL","","640.3000000119209","img/animal6.png","76","641","3","1","1","0.5,0,1,1,0.5,0,0,1,0.5",""
"","html-keyboard-response","334","197898","0.0-334.0","31T4R4OBOT29QUCBVUIBZ81ZGHM7C9","A2LMQ4497NMK3S","3S829FDFT2NBOHQMM1CIOU0HZYXDXL","","null","<img src=""img/animal6.png"" style=""width:200px; border:14px solid green;"">","null","","","","","",""
"","image-keyboard-response","335","198508","0.0-335.0","31T4R4OBOT29QUCBVUIBZ81ZGHM7C9","A2LMQ4497NMK3S","3S829FDFT2NBOHQMM1CIOU0HZYXDXL","","609.3999999761581","img/animal6.png","76","610.1999999880791","3","1","1","0.5,0,1,1,0.5,0,0,1,0.5",""
"","html-keyboard-response","336","198810","0.0-336.0","31T4R4OBOT29QUCBVUIBZ81ZGHM7C9","A2LMQ4497NMK3S","3S829FDFT2NBOHQMM1CIOU0HZYXDXL","","null","<img src=""img/animal6.png"" style=""width:200px; border:14px solid green;"">","null","","","","","",""
"","image-keyboard-response","337","199644","0.0-337.0","31T4R4OBOT29QUCBVUIBZ81ZGHM7C9","A2LMQ4497NMK3S","3S829FDFT2NBOHQMM1CIOU0HZYXDXL","","833.3000000119209","img/animal6.png","76","834.1999999880791","3","1","1","0.5,0,1,1,0.5,0,0,1,0.5",""
"","html-keyboard-response","338","199946","0.0-338.0","31T4R4OBOT29QUCBVUIBZ81ZGHM7C9","A2LMQ4497NMK3S","3S829FDFT2NBOHQMM1CIOU0HZYXDXL","","null","<img src=""img/animal6.png"" style=""width:200px; border:14px solid green;"">","null","","","","","",""
"","image-keyboard-response","339","200605","0.0-339.0","31T4R4OBOT29QUCBVUIBZ81ZGHM7C9","A2LMQ4497NMK3S","3S829FDFT2NBOHQMM1CIOU0HZYXDXL","","656.9000000357628","img/animal1.png","74","658.1999999880791","1","1","2","0.5,0,1,1,0.5,0,0,1,0.5",""
"","html-keyboard-response","340","200906","0.0-340.0","31T4R4OBOT29QUCBVUIBZ81ZGHM7C9","A2LMQ4497NMK3S","3S829FDFT2NBOHQMM1CIOU0HZYXDXL","","null","<img src=""img/animal1.png"" style=""width:200px; border:14px solid green;"">","null","","","","","",""
"","image-keyboard-response","341","201452","0.0-341.0","31T4R4OBOT29QUCBVUIBZ81ZGHM7C9","A2LMQ4497NMK3S","3S829FDFT2NBOHQMM1CIOU0HZYXDXL","","545.3000000119209","img/animal1.png","74","546.0999999642372","1","1","2","0.5,0,1,1,0.5,0,0,1,0.5",""
"","html-keyboard-response","342","201754","0.0-342.0","31T4R4OBOT29QUCBVUIBZ81ZGHM7C9","A2LMQ4497NMK3S","3S829FDFT2NBOHQMM1CIOU0HZYXDXL","","null","<img src=""img/animal1.png"" style=""width:200px; border:14px solid green;"">","null","","","","","",""
"","image-keyboard-response","343","202436","0.0-343.0","31T4R4OBOT29QUCBVUIBZ81ZGHM7C9","A2LMQ4497NMK3S","3S829FDFT2NBOHQMM1CIOU0HZYXDXL","","681.2999999523163","img/animal6.png","75","682","2","0","1","0.5,0,1,1,0.5,0,0,1,0.5",""
"","html-keyboard-response","344","202738","0.0-344.0","31T4R4OBOT29QUCBVUIBZ81ZGHM7C9","A2LMQ4497NMK3S","3S829FDFT2NBOHQMM1CIOU0HZYXDXL","","null","<img src=""img/animal6.png"" style=""width:200px;border:14px solid red;"">","null","","","","","",""
"","image-keyboard-response","345","203372","0.0-345.0","31T4R4OBOT29QUCBVUIBZ81ZGHM7C9","A2LMQ4497NMK3S","3S829FDFT2NBOHQMM1CIOU0HZYXDXL","","632.7999999523163","img/animal3.png","75","633.8999999761581","2","1","3","0.5,0,1,1,0.5,0,0,1,0.5",""
"","html-keyboard-response","346","203674","0.0-346.0","31T4R4OBOT29QUCBVUIBZ81ZGHM7C9","A2LMQ4497NMK3S","3S829FDFT2NBOHQMM1CIOU0HZYXDXL","","null","<img src=""img/animal3.png"" style=""width:200px; border:14px solid green;"">","null","","","","","",""
"","image-keyboard-response","347","204044","0.0-347.0","31T4R4OBOT29QUCBVUIBZ81ZGHM7C9","A2LMQ4497NMK3S","3S829FDFT2NBOHQMM1CIOU0HZYXDXL","","369.5","img/animal3.png","75","370.39999997615814","2","1","3","0.5,0,1,1,0.5,0,0,1,0.5",""
"","html-keyboard-response","348","204347","0.0-348.0","31T4R4OBOT29QUCBVUIBZ81ZGHM7C9","A2LMQ4497NMK3S","3S829FDFT2NBOHQMM1CIOU0HZYXDXL","","null","<img src=""img/animal3.png"" style=""width:200px; border:14px solid green;"">","null","","","","","",""
"","image-keyboard-response","349","204740","0.0-349.0","31T4R4OBOT29QUCBVUIBZ81ZGHM7C9","A2LMQ4497NMK3S","3S829FDFT2NBOHQMM1CIOU0HZYXDXL","","392.4000000357628","img/animal3.png","75","393.30000001192093","2","1","3","0.5,0,1,1,0.5,0,0,1,0.5",""
"","html-keyboard-response","350","205043","0.0-350.0","31T4R4OBOT29QUCBVUIBZ81ZGHM7C9","A2LMQ4497NMK3S","3S829FDFT2NBOHQMM1CIOU0HZYXDXL","","null","<img src=""img/animal3.png"" style=""width:200px; border:14px solid green;"">","null","","","","","",""
"","image-keyboard-response","351","205541","0.0-351.0","31T4R4OBOT29QUCBVUIBZ81ZGHM7C9","A2LMQ4497NMK3S","3S829FDFT2NBOHQMM1CIOU0HZYXDXL","","496.60000002384186","img/animal6.png","76","497.5999999642372","3","1","1","0.5,0,1,1,0.5,0,0,1,0.5",""
"","html-keyboard-response","352","205847","0.0-352.0","31T4R4OBOT29QUCBVUIBZ81ZGHM7C9","A2LMQ4497NMK3S","3S829FDFT2NBOHQMM1CIOU0HZYXDXL","","null","<img src=""img/animal6.png"" style=""width:200px; border:14px solid green;"">","null","","","","","",""
"","image-keyboard-response","353","206444","0.0-353.0","31T4R4OBOT29QUCBVUIBZ81ZGHM7C9","A2LMQ4497NMK3S","3S829FDFT2NBOHQMM1CIOU0HZYXDXL","","596.7000000476837","img/animal1.png","74","597.5999999642372","1","1","2","0.5,0,1,1,0.5,0,0,1,0.5",""
"","html-keyboard-response","354","206749","0.0-354.0","31T4R4OBOT29QUCBVUIBZ81ZGHM7C9","A2LMQ4497NMK3S","3S829FDFT2NBOHQMM1CIOU0HZYXDXL","","null","<img src=""img/animal1.png"" style=""width:200px; border:14px solid green;"">","null","","","","","",""
"","image-keyboard-response","355","207229","0.0-355.0","31T4R4OBOT29QUCBVUIBZ81ZGHM7C9","A2LMQ4497NMK3S","3S829FDFT2NBOHQMM1CIOU0HZYXDXL","","478.19999998807907","img/animal1.png","74","479.19999998807907","1","1","2","0.5,0,1,1,0.5,0,0,1,0.5",""
"","html-keyboard-response","356","207530","0.0-356.0","31T4R4OBOT29QUCBVUIBZ81ZGHM7C9","A2LMQ4497NMK3S","3S829FDFT2NBOHQMM1CIOU0HZYXDXL","","null","<img src=""img/animal1.png"" style=""width:200px; border:14px solid green;"">","null","","","","","",""
"","image-keyboard-response","357","208172","0.0-357.0","31T4R4OBOT29QUCBVUIBZ81ZGHM7C9","A2LMQ4497NMK3S","3S829FDFT2NBOHQMM1CIOU0HZYXDXL","","641.1000000238419","img/animal3.png","75","642.1000000238419","2","1","3","0.5,0,1,1,0.5,0,0,1,0.5",""
"","html-keyboard-response","358","208475","0.0-358.0","31T4R4OBOT29QUCBVUIBZ81ZGHM7C9","A2LMQ4497NMK3S","3S829FDFT2NBOHQMM1CIOU0HZYXDXL","","null","<img src=""img/animal3.png"" style=""width:200px; border:14px solid green;"">","null","","","","","",""
"","image-keyboard-response","359","209148","0.0-359.0","31T4R4OBOT29QUCBVUIBZ81ZGHM7C9","A2LMQ4497NMK3S","3S829FDFT2NBOHQMM1CIOU0HZYXDXL","","672.1999999880791","img/animal1.png","74","673","1","1","2","0.5,0,1,1,0.5,0,0,1,0.5",""
"","html-keyboard-response","360","209450","0.0-360.0","31T4R4OBOT29QUCBVUIBZ81ZGHM7C9","A2LMQ4497NMK3S","3S829FDFT2NBOHQMM1CIOU0HZYXDXL","","null","<img src=""img/animal1.png"" style=""width:200px; border:14px solid green;"">","null","","","","","",""
"","image-keyboard-response","361","210132","0.0-361.0","31T4R4OBOT29QUCBVUIBZ81ZGHM7C9","A2LMQ4497NMK3S","3S829FDFT2NBOHQMM1CIOU0HZYXDXL","","680.6999999880791","img/animal6.png","76","681.6000000238419","3","1","1","0.5,0,1,1,0.5,0,0,1,0.5",""
"","html-keyboard-response","362","210434","0.0-362.0","31T4R4OBOT29QUCBVUIBZ81ZGHM7C9","A2LMQ4497NMK3S","3S829FDFT2NBOHQMM1CIOU0HZYXDXL","","null","<img src=""img/animal6.png"" style=""width:200px; border:14px solid green;"">","null","","","","","",""
"","instructions","363","213693","0.0-363.0","31T4R4OBOT29QUCBVUIBZ81ZGHM7C9","A2LMQ4497NMK3S","3S829FDFT2NBOHQMM1CIOU0HZYXDXL","[{""page_index"":0,""viewing_time"":3258.300000011921}]","3258.600000023842","","","","","","","",""
"","survey-text","364","218457","0.0-364.0","31T4R4OBOT29QUCBVUIBZ81ZGHM7C9","A2LMQ4497NMK3S","3S829FDFT2NBOHQMM1CIOU0HZYXDXL","","4761.800000011921","","","","","","","","{""Q0"":""A2LMQ4497NMK3S""}"
