"success","trial_type","trial_index","time_elapsed","internal_node_id","assignmentID","mturkID","hitID","view_history","rt","stimulus","key_press","reactionTime","a","r","s","reward_cond","responses"
"true","fullscreen","0","3803","0.0-0.0","3KJYX6QCMAXY9YJDNK2DSQUXVVNVJF","A2ML0070M8FDK1","3KVQ0UJWPX71V463XQYDOZYIDLRW5D","","","","","","","","","",""
"","instructions","1","37935","0.0-1.0","3KJYX6QCMAXY9YJDNK2DSQUXVVNVJF","A2ML0070M8FDK1","3KVQ0UJWPX71V463XQYDOZYIDLRW5D","[{""page_index"":0,""viewing_time"":10344.799999952316},{""page_index"":1,""viewing_time"":3231.9000000953674},{""page_index"":2,""viewing_time"":1607.8999999761581},{""page_index"":3,""viewing_time"":5712.399999976158},{""page_index"":4,""viewing_time"":2167.7000000476837},{""page_index"":5,""viewing_time"":2247.7999999523163},{""page_index"":6,""viewing_time"":4784.299999952316},{""page_index"":7,""viewing_time"":4031.600000023842}]","34129.10000002384","","","","","","","",""
"","image-keyboard-response","2","39042","0.0-2.0","3KJYX6QCMAXY9YJDNK2DSQUXVVNVJF","A2ML0070M8FDK1","3KVQ0UJWPX71V463XQYDOZYIDLRW5D","","1106.2000000476837","img/animal5.png","74","1107.4000000953674","1","0","2","1,0.7,0,0,1,0.7,0.7,0,1",""
"","html-keyboard-response","3","39348","0.0-3.0","3KJYX6QCMAXY9YJDNK2DSQUXVVNVJF","A2ML0070M8FDK1","3KVQ0UJWPX71V463XQYDOZYIDLRW5D","","null","<img src=""img/animal5.png"" style=""width:200px;border:14px solid red;"">","null","","","","","",""
"","image-keyboard-response","4","40682","0.0-4.0","3KJYX6QCMAXY9YJDNK2DSQUXVVNVJF","A2ML0070M8FDK1","3KVQ0UJWPX71V463XQYDOZYIDLRW5D","","1333.5","img/animal2.png","74","1334.2999999523163","1","1","3","1,0.7,0,0,1,0.7,0.7,0,1",""
"","html-keyboard-response","5","40988","0.0-5.0","3KJYX6QCMAXY9YJDNK2DSQUXVVNVJF","A2ML0070M8FDK1","3KVQ0UJWPX71V463XQYDOZYIDLRW5D","","null","<img src=""img/animal2.png"" style=""width:200px; border:14px solid green;"">","null","","","","","",""
"","image-keyboard-response","6","42090","0.0-6.0","3KJYX6QCMAXY9YJDNK2DSQUXVVNVJF","A2ML0070M8FDK1","3KVQ0UJWPX71V463XQYDOZYIDLRW5D","","1101.7000000476837","img/animal1.png","74","1102.3999999761581","1","1","1","1,0.7,0,0,1,0.7,0.7,0,1",""
"","html-keyboard-response","7","42396","0.0-7.0","3KJYX6QCMAXY9YJDNK2DSQUXVVNVJF","A2ML0070M8FDK1","3KVQ0UJWPX71V463XQYDOZYIDLRW5D","","null","<img src=""img/animal1.png"" style=""width:200px; border:14px solid green;"">","null","","","","","",""
"","image-keyboard-response","8","43962","0.0-8.0","3KJYX6QCMAXY9YJDNK2DSQUXVVNVJF","A2ML0070M8FDK1","3KVQ0UJWPX71V463XQYDOZYIDLRW5D","","1565.5","img/animal1.png","74","1566.3999999761581","1","1","1","1,0.7,0,0,1,0.7,0.7,0,1",""
"","html-keyboard-response","9","44268","0.0-9.0","3KJYX6QCMAXY9YJDNK2DSQUXVVNVJF","A2ML0070M8FDK1","3KVQ0UJWPX71V463XQYDOZYIDLRW5D","","null","<img src=""img/animal1.png"" style=""width:200px; border:14px solid green;"">","null","","","","","",""
"","image-keyboard-response","10","45186","0.0-10.0","3KJYX6QCMAXY9YJDNK2DSQUXVVNVJF","A2ML0070M8FDK1","3KVQ0UJWPX71V463XQYDOZYIDLRW5D","","917.1999999284744","img/animal1.png","74","917.9000000953674","1","1","1","1,0.7,0,0,1,0.7,0.7,0,1",""
"","html-keyboard-response","11","45492","0.0-11.0","3KJYX6QCMAXY9YJDNK2DSQUXVVNVJF","A2ML0070M8FDK1","3KVQ0UJWPX71V463XQYDOZYIDLRW5D","","null","<img src=""img/animal1.png"" style=""width:200px; border:14px solid green;"">","null","","","","","",""
"","image-keyboard-response","12","47116","0.0-12.0","3KJYX6QCMAXY9YJDNK2DSQUXVVNVJF","A2ML0070M8FDK1","3KVQ0UJWPX71V463XQYDOZYIDLRW5D","","1621.3999999761581","img/animal5.png","75","1622.3000000715256","2","1","2","1,0.7,0,0,1,0.7,0.7,0,1",""
"","html-keyboard-response","13","47421","0.0-13.0","3KJYX6QCMAXY9YJDNK2DSQUXVVNVJF","A2ML0070M8FDK1","3KVQ0UJWPX71V463XQYDOZYIDLRW5D","","null","<img src=""img/animal5.png"" style=""width:200px; border:14px solid green;"">","null","","","","","",""
"","image-keyboard-response","14","48620","0.0-14.0","3KJYX6QCMAXY9YJDNK2DSQUXVVNVJF","A2ML0070M8FDK1","3KVQ0UJWPX71V463XQYDOZYIDLRW5D","","1197.5","img/animal5.png","75","1198.3000000715256","2","1","2","1,0.7,0,0,1,0.7,0.7,0,1",""
"","html-keyboard-response","15","48924","0.0-15.0","3KJYX6QCMAXY9YJDNK2DSQUXVVNVJF","A2ML0070M8FDK1","3KVQ0UJWPX71V463XQYDOZYIDLRW5D","","null","<img src=""img/animal5.png"" style=""width:200px; border:14px solid green;"">","null","","","","","",""
"","image-keyboard-response","16","49699","0.0-16.0","3KJYX6QCMAXY9YJDNK2DSQUXVVNVJF","A2ML0070M8FDK1","3KVQ0UJWPX71V463XQYDOZYIDLRW5D","","773.8000000715256","img/animal2.png","76","774.6000000238419","3","1","3","1,0.7,0,0,1,0.7,0.7,0,1",""
"","html-keyboard-response","17","50004","0.0-17.0","3KJYX6QCMAXY9YJDNK2DSQUXVVNVJF","A2ML0070M8FDK1","3KVQ0UJWPX71V463XQYDOZYIDLRW5D","","null","<img src=""img/animal2.png"" style=""width:200px; border:14px solid green;"">","null","","","","","",""
"","image-keyboard-response","18","51371","0.0-18.0","3KJYX6QCMAXY9YJDNK2DSQUXVVNVJF","A2ML0070M8FDK1","3KVQ0UJWPX71V463XQYDOZYIDLRW5D","","1365.6000000238419","img/animal1.png","74","1366.2999999523163","1","1","1","1,0.7,0,0,1,0.7,0.7,0,1",""
"","html-keyboard-response","19","51676","0.0-19.0","3KJYX6QCMAXY9YJDNK2DSQUXVVNVJF","A2ML0070M8FDK1","3KVQ0UJWPX71V463XQYDOZYIDLRW5D","","null","<img src=""img/animal1.png"" style=""width:200px; border:14px solid green;"">","null","","","","","",""
"","image-keyboard-response","20","52443","0.0-20.0","3KJYX6QCMAXY9YJDNK2DSQUXVVNVJF","A2ML0070M8FDK1","3KVQ0UJWPX71V463XQYDOZYIDLRW5D","","766.1000000238419","img/animal1.png","74","766.7999999523163","1","1","1","1,0.7,0,0,1,0.7,0.7,0,1",""
"","html-keyboard-response","21","52748","0.0-21.0","3KJYX6QCMAXY9YJDNK2DSQUXVVNVJF","A2ML0070M8FDK1","3KVQ0UJWPX71V463XQYDOZYIDLRW5D","","null","<img src=""img/animal1.png"" style=""width:200px; border:14px solid green;"">","null","","","","","",""
"","image-keyboard-response","22","53363","0.0-22.0","3KJYX6QCMAXY9YJDNK2DSQUXVVNVJF","A2ML0070M8FDK1","3KVQ0UJWPX71V463XQYDOZYIDLRW5D","","614","img/animal1.png","74","614.7000000476837","1","1","1","1,0.7,0,0,1,0.7,0.7,0,1",""
"","html-keyboard-response","23","53669","0.0-23.0","3KJYX6QCMAXY9YJDNK2DSQUXVVNVJF","A2ML0070M8FDK1","3KVQ0UJWPX71V463XQYDOZYIDLRW5D","","null","<img src=""img/animal1.png"" style=""width:200px; border:14px solid green;"">","null","","","","","",""
"","image-keyboard-response","24","54395","0.0-24.0","3KJYX6QCMAXY9YJDNK2DSQUXVVNVJF","A2ML0070M8FDK1","3KVQ0UJWPX71V463XQYDOZYIDLRW5D","","725.6000000238419","img/animal2.png","75","726.2999999523163","2","0","3","1,0.7,0,0,1,0.7,0.7,0,1",""
"","html-keyboard-response","25","54701","0.0-25.0","3KJYX6QCMAXY9YJDNK2DSQUXVVNVJF","A2ML0070M8FDK1","3KVQ0UJWPX71V463XQYDOZYIDLRW5D","","null","<img src=""img/animal2.png"" style=""width:200px;border:14px solid red;"">","null","","","","","",""
"","image-keyboard-response","26","55891","0.0-26.0","3KJYX6QCMAXY9YJDNK2DSQUXVVNVJF","A2ML0070M8FDK1","3KVQ0UJWPX71V463XQYDOZYIDLRW5D","","1189.7999999523163","img/animal5.png","76","1190.3000000715256","3","1","2","1,0.7,0,0,1,0.7,0.7,0,1",""
"","html-keyboard-response","27","56197","0.0-27.0","3KJYX6QCMAXY9YJDNK2DSQUXVVNVJF","A2ML0070M8FDK1","3KVQ0UJWPX71V463XQYDOZYIDLRW5D","","null","<img src=""img/animal5.png"" style=""width:200px; border:14px solid green;"">","null","","","","","",""
"","image-keyboard-response","28","57507","0.0-28.0","3KJYX6QCMAXY9YJDNK2DSQUXVVNVJF","A2ML0070M8FDK1","3KVQ0UJWPX71V463XQYDOZYIDLRW5D","","1309.6999999284744","img/animal2.png","74","1310.3999999761581","1","0","3","1,0.7,0,0,1,0.7,0.7,0,1",""
"","html-keyboard-response","29","57813","0.0-29.0","3KJYX6QCMAXY9YJDNK2DSQUXVVNVJF","A2ML0070M8FDK1","3KVQ0UJWPX71V463XQYDOZYIDLRW5D","","null","<img src=""img/animal2.png"" style=""width:200px;border:14px solid red;"">","null","","","","","",""
"","image-keyboard-response","30","58811","0.0-30.0","3KJYX6QCMAXY9YJDNK2DSQUXVVNVJF","A2ML0070M8FDK1","3KVQ0UJWPX71V463XQYDOZYIDLRW5D","","998.0999999046326","img/animal1.png","74","998.7999999523163","1","1","1","1,0.7,0,0,1,0.7,0.7,0,1",""
"","html-keyboard-response","31","59117","0.0-31.0","3KJYX6QCMAXY9YJDNK2DSQUXVVNVJF","A2ML0070M8FDK1","3KVQ0UJWPX71V463XQYDOZYIDLRW5D","","null","<img src=""img/animal1.png"" style=""width:200px; border:14px solid green;"">","null","","","","","",""
"","image-keyboard-response","32","59795","0.0-32.0","3KJYX6QCMAXY9YJDNK2DSQUXVVNVJF","A2ML0070M8FDK1","3KVQ0UJWPX71V463XQYDOZYIDLRW5D","","677.5999999046326","img/animal2.png","75","678.3000000715256","2","0","3","1,0.7,0,0,1,0.7,0.7,0,1",""
"","html-keyboard-response","33","60101","0.0-33.0","3KJYX6QCMAXY9YJDNK2DSQUXVVNVJF","A2ML0070M8FDK1","3KVQ0UJWPX71V463XQYDOZYIDLRW5D","","null","<img src=""img/animal2.png"" style=""width:200px;border:14px solid red;"">","null","","","","","",""
"","image-keyboard-response","34","61211","0.0-34.0","3KJYX6QCMAXY9YJDNK2DSQUXVVNVJF","A2ML0070M8FDK1","3KVQ0UJWPX71V463XQYDOZYIDLRW5D","","1109.5999999046326","img/animal5.png","76","1110.2000000476837","3","1","2","1,0.7,0,0,1,0.7,0.7,0,1",""
"","html-keyboard-response","35","61517","0.0-35.0","3KJYX6QCMAXY9YJDNK2DSQUXVVNVJF","A2ML0070M8FDK1","3KVQ0UJWPX71V463XQYDOZYIDLRW5D","","null","<img src=""img/animal5.png"" style=""width:200px; border:14px solid green;"">","null","","","","","",""
"","image-keyboard-response","36","63067","0.0-36.0","3KJYX6QCMAXY9YJDNK2DSQUXVVNVJF","A2ML0070M8FDK1","3KVQ0UJWPX71V463XQYDOZYIDLRW5D","","1549.1000000238419","img/animal2.png","76","1549.7999999523163","3","1","3","1,0.7,0,0,1,0.7,0.7,0,1",""
"","html-keyboard-response","37","63373","0.0-37.0","3KJYX6QCMAXY9YJDNK2DSQUXVVNVJF","A2ML0070M8FDK1","3KVQ0UJWPX71V463XQYDOZYIDLRW5D","","null","<img src=""img/animal2.png"" style=""width:200px; border:14px solid green;"">","null","","","","","",""
"","image-keyboard-response","38","64891","0.0-38.0","3KJYX6QCMAXY9YJDNK2DSQUXVVNVJF","A2ML0070M8FDK1","3KVQ0UJWPX71V463XQYDOZYIDLRW5D","","1517.5","img/animal1.png","74","1518.2999999523163","1","1","1","1,0.7,0,0,1,0.7,0.7,0,1",""
"","html-keyboard-response","39","65197","0.0-39.0","3KJYX6QCMAXY9YJDNK2DSQUXVVNVJF","A2ML0070M8FDK1","3KVQ0UJWPX71V463XQYDOZYIDLRW5D","","null","<img src=""img/animal1.png"" style=""width:200px; border:14px solid green;"">","null","","","","","",""
"","image-keyboard-response","40","66427","0.0-40.0","3KJYX6QCMAXY9YJDNK2DSQUXVVNVJF","A2ML0070M8FDK1","3KVQ0UJWPX71V463XQYDOZYIDLRW5D","","1229.3999999761581","img/animal1.png","74","1230.1000000238419","1","1","1","1,0.7,0,0,1,0.7,0.7,0,1",""
"","html-keyboard-response","41","66733","0.0-41.0","3KJYX6QCMAXY9YJDNK2DSQUXVVNVJF","A2ML0070M8FDK1","3KVQ0UJWPX71V463XQYDOZYIDLRW5D","","null","<img src=""img/animal1.png"" style=""width:200px; border:14px solid green;"">","null","","","","","",""
"","image-keyboard-response","42","67667","0.0-42.0","3KJYX6QCMAXY9YJDNK2DSQUXVVNVJF","A2ML0070M8FDK1","3KVQ0UJWPX71V463XQYDOZYIDLRW5D","","932.7999999523163","img/animal2.png","76","933.5999999046326","3","1","3","1,0.7,0,0,1,0.7,0.7,0,1",""
"","html-keyboard-response","43","67973","0.0-43.0","3KJYX6QCMAXY9YJDNK2DSQUXVVNVJF","A2ML0070M8FDK1","3KVQ0UJWPX71V463XQYDOZYIDLRW5D","","null","<img src=""img/animal2.png"" style=""width:200px; border:14px solid green;"">","null","","","","","",""
"","image-keyboard-response","44","68763","0.0-44.0","3KJYX6QCMAXY9YJDNK2DSQUXVVNVJF","A2ML0070M8FDK1","3KVQ0UJWPX71V463XQYDOZYIDLRW5D","","789","img/animal1.png","74","789.5","1","1","1","1,0.7,0,0,1,0.7,0.7,0,1",""
"","html-keyboard-response","45","69069","0.0-45.0","3KJYX6QCMAXY9YJDNK2DSQUXVVNVJF","A2ML0070M8FDK1","3KVQ0UJWPX71V463XQYDOZYIDLRW5D","","null","<img src=""img/animal1.png"" style=""width:200px; border:14px solid green;"">","null","","","","","",""
"","image-keyboard-response","46","70011","0.0-46.0","3KJYX6QCMAXY9YJDNK2DSQUXVVNVJF","A2ML0070M8FDK1","3KVQ0UJWPX71V463XQYDOZYIDLRW5D","","941","img/animal5.png","76","941.7000000476837","3","1","2","1,0.7,0,0,1,0.7,0.7,0,1",""
"","html-keyboard-response","47","70317","0.0-47.0","3KJYX6QCMAXY9YJDNK2DSQUXVVNVJF","A2ML0070M8FDK1","3KVQ0UJWPX71V463XQYDOZYIDLRW5D","","null","<img src=""img/animal5.png"" style=""width:200px; border:14px solid green;"">","null","","","","","",""
"","image-keyboard-response","48","72467","0.0-48.0","3KJYX6QCMAXY9YJDNK2DSQUXVVNVJF","A2ML0070M8FDK1","3KVQ0UJWPX71V463XQYDOZYIDLRW5D","","2149.399999976158","img/animal2.png","76","2150.100000023842","3","1","3","1,0.7,0,0,1,0.7,0.7,0,1",""
"","html-keyboard-response","49","72772","0.0-49.0","3KJYX6QCMAXY9YJDNK2DSQUXVVNVJF","A2ML0070M8FDK1","3KVQ0UJWPX71V463XQYDOZYIDLRW5D","","null","<img src=""img/animal2.png"" style=""width:200px; border:14px solid green;"">","null","","","","","",""
"","image-keyboard-response","50","73987","0.0-50.0","3KJYX6QCMAXY9YJDNK2DSQUXVVNVJF","A2ML0070M8FDK1","3KVQ0UJWPX71V463XQYDOZYIDLRW5D","","1213.7000000476837","img/animal5.png","76","1214.3000000715256","3","1","2","1,0.7,0,0,1,0.7,0.7,0,1",""
"","html-keyboard-response","51","74292","0.0-51.0","3KJYX6QCMAXY9YJDNK2DSQUXVVNVJF","A2ML0070M8FDK1","3KVQ0UJWPX71V463XQYDOZYIDLRW5D","","null","<img src=""img/animal5.png"" style=""width:200px; border:14px solid green;"">","null","","","","","",""
"","image-keyboard-response","52","75011","0.0-52.0","3KJYX6QCMAXY9YJDNK2DSQUXVVNVJF","A2ML0070M8FDK1","3KVQ0UJWPX71V463XQYDOZYIDLRW5D","","717.3999999761581","img/animal5.png","76","718.1000000238419","3","1","2","1,0.7,0,0,1,0.7,0.7,0,1",""
"","html-keyboard-response","53","75316","0.0-53.0","3KJYX6QCMAXY9YJDNK2DSQUXVVNVJF","A2ML0070M8FDK1","3KVQ0UJWPX71V463XQYDOZYIDLRW5D","","null","<img src=""img/animal5.png"" style=""width:200px; border:14px solid green;"">","null","","","","","",""
"","image-keyboard-response","54","75995","0.0-54.0","3KJYX6QCMAXY9YJDNK2DSQUXVVNVJF","A2ML0070M8FDK1","3KVQ0UJWPX71V463XQYDOZYIDLRW5D","","677.6000000238419","img/animal1.png","74","678.1999999284744","1","1","1","1,0.7,0,0,1,0.7,0.7,0,1",""
"","html-keyboard-response","55","76301","0.0-55.0","3KJYX6QCMAXY9YJDNK2DSQUXVVNVJF","A2ML0070M8FDK1","3KVQ0UJWPX71V463XQYDOZYIDLRW5D","","null","<img src=""img/animal1.png"" style=""width:200px; border:14px solid green;"">","null","","","","","",""
"","image-keyboard-response","56","77043","0.0-56.0","3KJYX6QCMAXY9YJDNK2DSQUXVVNVJF","A2ML0070M8FDK1","3KVQ0UJWPX71V463XQYDOZYIDLRW5D","","741","img/animal1.png","74","741.7000000476837","1","1","1","1,0.7,0,0,1,0.7,0.7,0,1",""
"","html-keyboard-response","57","77349","0.0-57.0","3KJYX6QCMAXY9YJDNK2DSQUXVVNVJF","A2ML0070M8FDK1","3KVQ0UJWPX71V463XQYDOZYIDLRW5D","","null","<img src=""img/animal1.png"" style=""width:200px; border:14px solid green;"">","null","","","","","",""
"","image-keyboard-response","58","78019","0.0-58.0","3KJYX6QCMAXY9YJDNK2DSQUXVVNVJF","A2ML0070M8FDK1","3KVQ0UJWPX71V463XQYDOZYIDLRW5D","","669.6000000238419","img/animal2.png","76","670.1999999284744","3","1","3","1,0.7,0,0,1,0.7,0.7,0,1",""
"","html-keyboard-response","59","78325","0.0-59.0","3KJYX6QCMAXY9YJDNK2DSQUXVVNVJF","A2ML0070M8FDK1","3KVQ0UJWPX71V463XQYDOZYIDLRW5D","","null","<img src=""img/animal2.png"" style=""width:200px; border:14px solid green;"">","null","","","","","",""
"","image-keyboard-response","60","79211","0.0-60.0","3KJYX6QCMAXY9YJDNK2DSQUXVVNVJF","A2ML0070M8FDK1","3KVQ0UJWPX71V463XQYDOZYIDLRW5D","","885.1999999284744","img/animal5.png","76","885.9000000953674","3","0","2","1,0.7,0,0,1,0.7,0.7,0,1",""
"","html-keyboard-response","61","79517","0.0-61.0","3KJYX6QCMAXY9YJDNK2DSQUXVVNVJF","A2ML0070M8FDK1","3KVQ0UJWPX71V463XQYDOZYIDLRW5D","","null","<img src=""img/animal5.png"" style=""width:200px;border:14px solid red;"">","null","","","","","",""
"","image-keyboard-response","62","81515","0.0-62.0","3KJYX6QCMAXY9YJDNK2DSQUXVVNVJF","A2ML0070M8FDK1","3KVQ0UJWPX71V463XQYDOZYIDLRW5D","","1997.7999999523163","img/animal2.png","76","1998.3999999761581","3","1","3","1,0.7,0,0,1,0.7,0.7,0,1",""
"","html-keyboard-response","63","81821","0.0-63.0","3KJYX6QCMAXY9YJDNK2DSQUXVVNVJF","A2ML0070M8FDK1","3KVQ0UJWPX71V463XQYDOZYIDLRW5D","","null","<img src=""img/animal2.png"" style=""width:200px; border:14px solid green;"">","null","","","","","",""
"","image-keyboard-response","64","83116","0.0-64.0","3KJYX6QCMAXY9YJDNK2DSQUXVVNVJF","A2ML0070M8FDK1","3KVQ0UJWPX71V463XQYDOZYIDLRW5D","","1294.2999999523163","img/animal2.png","76","1294.9000000953674","3","1","3","1,0.7,0,0,1,0.7,0.7,0,1",""
"","html-keyboard-response","65","83421","0.0-65.0","3KJYX6QCMAXY9YJDNK2DSQUXVVNVJF","A2ML0070M8FDK1","3KVQ0UJWPX71V463XQYDOZYIDLRW5D","","null","<img src=""img/animal2.png"" style=""width:200px; border:14px solid green;"">","null","","","","","",""
"","image-keyboard-response","66","84075","0.0-66.0","3KJYX6QCMAXY9YJDNK2DSQUXVVNVJF","A2ML0070M8FDK1","3KVQ0UJWPX71V463XQYDOZYIDLRW5D","","653.2000000476837","img/animal5.png","75","653.8999999761581","2","1","2","1,0.7,0,0,1,0.7,0.7,0,1",""
"","html-keyboard-response","67","84381","0.0-67.0","3KJYX6QCMAXY9YJDNK2DSQUXVVNVJF","A2ML0070M8FDK1","3KVQ0UJWPX71V463XQYDOZYIDLRW5D","","null","<img src=""img/animal5.png"" style=""width:200px; border:14px solid green;"">","null","","","","","",""
"","image-keyboard-response","68","85187","0.0-68.0","3KJYX6QCMAXY9YJDNK2DSQUXVVNVJF","A2ML0070M8FDK1","3KVQ0UJWPX71V463XQYDOZYIDLRW5D","","804.8999999761581","img/animal1.png","74","805.5","1","1","1","1,0.7,0,0,1,0.7,0.7,0,1",""
"","html-keyboard-response","69","85493","0.0-69.0","3KJYX6QCMAXY9YJDNK2DSQUXVVNVJF","A2ML0070M8FDK1","3KVQ0UJWPX71V463XQYDOZYIDLRW5D","","null","<img src=""img/animal1.png"" style=""width:200px; border:14px solid green;"">","null","","","","","",""
"","image-keyboard-response","70","86114","0.0-70.0","3KJYX6QCMAXY9YJDNK2DSQUXVVNVJF","A2ML0070M8FDK1","3KVQ0UJWPX71V463XQYDOZYIDLRW5D","","620.8999999761581","img/animal1.png","74","621.5","1","1","1","1,0.7,0,0,1,0.7,0.7,0,1",""
"","html-keyboard-response","71","86421","0.0-71.0","3KJYX6QCMAXY9YJDNK2DSQUXVVNVJF","A2ML0070M8FDK1","3KVQ0UJWPX71V463XQYDOZYIDLRW5D","","null","<img src=""img/animal1.png"" style=""width:200px; border:14px solid green;"">","null","","","","","",""
"","image-keyboard-response","72","87371","0.0-72.0","3KJYX6QCMAXY9YJDNK2DSQUXVVNVJF","A2ML0070M8FDK1","3KVQ0UJWPX71V463XQYDOZYIDLRW5D","","948.8999999761581","img/animal2.png","76","949.5","3","1","3","1,0.7,0,0,1,0.7,0.7,0,1",""
"","html-keyboard-response","73","87677","0.0-73.0","3KJYX6QCMAXY9YJDNK2DSQUXVVNVJF","A2ML0070M8FDK1","3KVQ0UJWPX71V463XQYDOZYIDLRW5D","","null","<img src=""img/animal2.png"" style=""width:200px; border:14px solid green;"">","null","","","","","",""
"","image-keyboard-response","74","88283","0.0-74.0","3KJYX6QCMAXY9YJDNK2DSQUXVVNVJF","A2ML0070M8FDK1","3KVQ0UJWPX71V463XQYDOZYIDLRW5D","","605","img/animal5.png","75","605.6000000238419","2","1","2","1,0.7,0,0,1,0.7,0.7,0,1",""
"","html-keyboard-response","75","88589","0.0-75.0","3KJYX6QCMAXY9YJDNK2DSQUXVVNVJF","A2ML0070M8FDK1","3KVQ0UJWPX71V463XQYDOZYIDLRW5D","","null","<img src=""img/animal5.png"" style=""width:200px; border:14px solid green;"">","null","","","","","",""
"","image-keyboard-response","76","89274","0.0-76.0","3KJYX6QCMAXY9YJDNK2DSQUXVVNVJF","A2ML0070M8FDK1","3KVQ0UJWPX71V463XQYDOZYIDLRW5D","","684.7000000476837","img/animal1.png","74","685.2999999523163","1","1","1","1,0.7,0,0,1,0.7,0.7,0,1",""
"","html-keyboard-response","77","89581","0.0-77.0","3KJYX6QCMAXY9YJDNK2DSQUXVVNVJF","A2ML0070M8FDK1","3KVQ0UJWPX71V463XQYDOZYIDLRW5D","","null","<img src=""img/animal1.png"" style=""width:200px; border:14px solid green;"">","null","","","","","",""
"","image-keyboard-response","78","90203","0.0-78.0","3KJYX6QCMAXY9YJDNK2DSQUXVVNVJF","A2ML0070M8FDK1","3KVQ0UJWPX71V463XQYDOZYIDLRW5D","","621","img/animal5.png","75","621.5999999046326","2","1","2","1,0.7,0,0,1,0.7,0.7,0,1",""
"","html-keyboard-response","79","90509","0.0-79.0","3KJYX6QCMAXY9YJDNK2DSQUXVVNVJF","A2ML0070M8FDK1","3KVQ0UJWPX71V463XQYDOZYIDLRW5D","","null","<img src=""img/animal5.png"" style=""width:200px; border:14px solid green;"">","null","","","","","",""
"","image-keyboard-response","80","91162","0.0-80.0","3KJYX6QCMAXY9YJDNK2DSQUXVVNVJF","A2ML0070M8FDK1","3KVQ0UJWPX71V463XQYDOZYIDLRW5D","","652.6999999284744","img/animal5.png","75","653.2999999523163","2","1","2","1,0.7,0,0,1,0.7,0.7,0,1",""
"","html-keyboard-response","81","91469","0.0-81.0","3KJYX6QCMAXY9YJDNK2DSQUXVVNVJF","A2ML0070M8FDK1","3KVQ0UJWPX71V463XQYDOZYIDLRW5D","","null","<img src=""img/animal5.png"" style=""width:200px; border:14px solid green;"">","null","","","","","",""
"","image-keyboard-response","82","92227","0.0-82.0","3KJYX6QCMAXY9YJDNK2DSQUXVVNVJF","A2ML0070M8FDK1","3KVQ0UJWPX71V463XQYDOZYIDLRW5D","","757","img/animal1.png","74","757.7000000476837","1","1","1","1,0.7,0,0,1,0.7,0.7,0,1",""
"","html-keyboard-response","83","92533","0.0-83.0","3KJYX6QCMAXY9YJDNK2DSQUXVVNVJF","A2ML0070M8FDK1","3KVQ0UJWPX71V463XQYDOZYIDLRW5D","","null","<img src=""img/animal1.png"" style=""width:200px; border:14px solid green;"">","null","","","","","",""
"","image-keyboard-response","84","93243","0.0-84.0","3KJYX6QCMAXY9YJDNK2DSQUXVVNVJF","A2ML0070M8FDK1","3KVQ0UJWPX71V463XQYDOZYIDLRW5D","","708.6999999284744","img/animal2.png","76","709.2000000476837","3","1","3","1,0.7,0,0,1,0.7,0.7,0,1",""
"","html-keyboard-response","85","93548","0.0-85.0","3KJYX6QCMAXY9YJDNK2DSQUXVVNVJF","A2ML0070M8FDK1","3KVQ0UJWPX71V463XQYDOZYIDLRW5D","","null","<img src=""img/animal2.png"" style=""width:200px; border:14px solid green;"">","null","","","","","",""
"","image-keyboard-response","86","94259","0.0-86.0","3KJYX6QCMAXY9YJDNK2DSQUXVVNVJF","A2ML0070M8FDK1","3KVQ0UJWPX71V463XQYDOZYIDLRW5D","","709.6999999284744","img/animal1.png","74","710.2000000476837","1","1","1","1,0.7,0,0,1,0.7,0.7,0,1",""
"","html-keyboard-response","87","94564","0.0-87.0","3KJYX6QCMAXY9YJDNK2DSQUXVVNVJF","A2ML0070M8FDK1","3KVQ0UJWPX71V463XQYDOZYIDLRW5D","","null","<img src=""img/animal1.png"" style=""width:200px; border:14px solid green;"">","null","","","","","",""
"","image-keyboard-response","88","95202","0.0-88.0","3KJYX6QCMAXY9YJDNK2DSQUXVVNVJF","A2ML0070M8FDK1","3KVQ0UJWPX71V463XQYDOZYIDLRW5D","","637.4000000953674","img/animal1.png","74","638","1","1","1","1,0.7,0,0,1,0.7,0.7,0,1",""
"","html-keyboard-response","89","95508","0.0-89.0","3KJYX6QCMAXY9YJDNK2DSQUXVVNVJF","A2ML0070M8FDK1","3KVQ0UJWPX71V463XQYDOZYIDLRW5D","","null","<img src=""img/animal1.png"" style=""width:200px; border:14px solid green;"">","null","","","","","",""
"","image-keyboard-response","90","96042","0.0-90.0","3KJYX6QCMAXY9YJDNK2DSQUXVVNVJF","A2ML0070M8FDK1","3KVQ0UJWPX71V463XQYDOZYIDLRW5D","","533.4000000953674","img/animal1.png","74","533.8999999761581","1","1","1","1,0.7,0,0,1,0.7,0.7,0,1",""
"","html-keyboard-response","91","96348","0.0-91.0","3KJYX6QCMAXY9YJDNK2DSQUXVVNVJF","A2ML0070M8FDK1","3KVQ0UJWPX71V463XQYDOZYIDLRW5D","","null","<img src=""img/animal1.png"" style=""width:200px; border:14px solid green;"">","null","","","","","",""
"","image-keyboard-response","92","96890","0.0-92.0","3KJYX6QCMAXY9YJDNK2DSQUXVVNVJF","A2ML0070M8FDK1","3KVQ0UJWPX71V463XQYDOZYIDLRW5D","","541.3000000715256","img/animal1.png","74","542","1","1","1","1,0.7,0,0,1,0.7,0.7,0,1",""
"","html-keyboard-response","93","97197","0.0-93.0","3KJYX6QCMAXY9YJDNK2DSQUXVVNVJF","A2ML0070M8FDK1","3KVQ0UJWPX71V463XQYDOZYIDLRW5D","","null","<img src=""img/animal1.png"" style=""width:200px; border:14px solid green;"">","null","","","","","",""
"","image-keyboard-response","94","97658","0.0-94.0","3KJYX6QCMAXY9YJDNK2DSQUXVVNVJF","A2ML0070M8FDK1","3KVQ0UJWPX71V463XQYDOZYIDLRW5D","","460.7000000476837","img/animal1.png","74","461.39999997615814","1","1","1","1,0.7,0,0,1,0.7,0.7,0,1",""
"","html-keyboard-response","95","97964","0.0-95.0","3KJYX6QCMAXY9YJDNK2DSQUXVVNVJF","A2ML0070M8FDK1","3KVQ0UJWPX71V463XQYDOZYIDLRW5D","","null","<img src=""img/animal1.png"" style=""width:200px; border:14px solid green;"">","null","","","","","",""
"","image-keyboard-response","96","99010","0.0-96.0","3KJYX6QCMAXY9YJDNK2DSQUXVVNVJF","A2ML0070M8FDK1","3KVQ0UJWPX71V463XQYDOZYIDLRW5D","","1045.3999999761581","img/animal2.png","76","1045.8999999761581","3","1","3","1,0.7,0,0,1,0.7,0.7,0,1",""
"","html-keyboard-response","97","99317","0.0-97.0","3KJYX6QCMAXY9YJDNK2DSQUXVVNVJF","A2ML0070M8FDK1","3KVQ0UJWPX71V463XQYDOZYIDLRW5D","","null","<img src=""img/animal2.png"" style=""width:200px; border:14px solid green;"">","null","","","","","",""
"","image-keyboard-response","98","99850","0.0-98.0","3KJYX6QCMAXY9YJDNK2DSQUXVVNVJF","A2ML0070M8FDK1","3KVQ0UJWPX71V463XQYDOZYIDLRW5D","","532.8999999761581","img/animal2.png","76","533.6999999284744","3","1","3","1,0.7,0,0,1,0.7,0.7,0,1",""
"","html-keyboard-response","99","100157","0.0-99.0","3KJYX6QCMAXY9YJDNK2DSQUXVVNVJF","A2ML0070M8FDK1","3KVQ0UJWPX71V463XQYDOZYIDLRW5D","","null","<img src=""img/animal2.png"" style=""width:200px; border:14px solid green;"">","null","","","","","",""
"","image-keyboard-response","100","100915","0.0-100.0","3KJYX6QCMAXY9YJDNK2DSQUXVVNVJF","A2ML0070M8FDK1","3KVQ0UJWPX71V463XQYDOZYIDLRW5D","","757.1999999284744","img/animal1.png","74","758","1","1","1","1,0.7,0,0,1,0.7,0.7,0,1",""
"","html-keyboard-response","101","101221","0.0-101.0","3KJYX6QCMAXY9YJDNK2DSQUXVVNVJF","A2ML0070M8FDK1","3KVQ0UJWPX71V463XQYDOZYIDLRW5D","","null","<img src=""img/animal1.png"" style=""width:200px; border:14px solid green;"">","null","","","","","",""
"","image-keyboard-response","102","101827","0.0-102.0","3KJYX6QCMAXY9YJDNK2DSQUXVVNVJF","A2ML0070M8FDK1","3KVQ0UJWPX71V463XQYDOZYIDLRW5D","","605.5","img/animal2.png","76","606.0999999046326","3","1","3","1,0.7,0,0,1,0.7,0.7,0,1",""
"","html-keyboard-response","103","102133","0.0-103.0","3KJYX6QCMAXY9YJDNK2DSQUXVVNVJF","A2ML0070M8FDK1","3KVQ0UJWPX71V463XQYDOZYIDLRW5D","","null","<img src=""img/animal2.png"" style=""width:200px; border:14px solid green;"">","null","","","","","",""
"","image-keyboard-response","104","102835","0.0-104.0","3KJYX6QCMAXY9YJDNK2DSQUXVVNVJF","A2ML0070M8FDK1","3KVQ0UJWPX71V463XQYDOZYIDLRW5D","","701.6999999284744","img/animal1.png","74","702.3000000715256","1","1","1","1,0.7,0,0,1,0.7,0.7,0,1",""
"","html-keyboard-response","105","103141","0.0-105.0","3KJYX6QCMAXY9YJDNK2DSQUXVVNVJF","A2ML0070M8FDK1","3KVQ0UJWPX71V463XQYDOZYIDLRW5D","","null","<img src=""img/animal1.png"" style=""width:200px; border:14px solid green;"">","null","","","","","",""
"","image-keyboard-response","106","103770","0.0-106.0","3KJYX6QCMAXY9YJDNK2DSQUXVVNVJF","A2ML0070M8FDK1","3KVQ0UJWPX71V463XQYDOZYIDLRW5D","","628.7999999523163","img/animal5.png","75","629.5999999046326","2","1","2","1,0.7,0,0,1,0.7,0.7,0,1",""
"","html-keyboard-response","107","104077","0.0-107.0","3KJYX6QCMAXY9YJDNK2DSQUXVVNVJF","A2ML0070M8FDK1","3KVQ0UJWPX71V463XQYDOZYIDLRW5D","","null","<img src=""img/animal5.png"" style=""width:200px; border:14px solid green;"">","null","","","","","",""
"","image-keyboard-response","108","104619","0.0-108.0","3KJYX6QCMAXY9YJDNK2DSQUXVVNVJF","A2ML0070M8FDK1","3KVQ0UJWPX71V463XQYDOZYIDLRW5D","","541","img/animal5.png","75","541.7000000476837","2","1","2","1,0.7,0,0,1,0.7,0.7,0,1",""
"","html-keyboard-response","109","104925","0.0-109.0","3KJYX6QCMAXY9YJDNK2DSQUXVVNVJF","A2ML0070M8FDK1","3KVQ0UJWPX71V463XQYDOZYIDLRW5D","","null","<img src=""img/animal5.png"" style=""width:200px; border:14px solid green;"">","null","","","","","",""
"","image-keyboard-response","110","105386","0.0-110.0","3KJYX6QCMAXY9YJDNK2DSQUXVVNVJF","A2ML0070M8FDK1","3KVQ0UJWPX71V463XQYDOZYIDLRW5D","","460.8000000715256","img/animal5.png","75","461.2999999523163","2","1","2","1,0.7,0,0,1,0.7,0.7,0,1",""
"","html-keyboard-response","111","105693","0.0-111.0","3KJYX6QCMAXY9YJDNK2DSQUXVVNVJF","A2ML0070M8FDK1","3KVQ0UJWPX71V463XQYDOZYIDLRW5D","","null","<img src=""img/animal5.png"" style=""width:200px; border:14px solid green;"">","null","","","","","",""
"","image-keyboard-response","112","106418","0.0-112.0","3KJYX6QCMAXY9YJDNK2DSQUXVVNVJF","A2ML0070M8FDK1","3KVQ0UJWPX71V463XQYDOZYIDLRW5D","","724.8000000715256","img/animal1.png","74","725.5","1","1","1","1,0.7,0,0,1,0.7,0.7,0,1",""
"","html-keyboard-response","113","106725","0.0-113.0","3KJYX6QCMAXY9YJDNK2DSQUXVVNVJF","A2ML0070M8FDK1","3KVQ0UJWPX71V463XQYDOZYIDLRW5D","","null","<img src=""img/animal1.png"" style=""width:200px; border:14px solid green;"">","null","","","","","",""
"","image-keyboard-response","114","107323","0.0-114.0","3KJYX6QCMAXY9YJDNK2DSQUXVVNVJF","A2ML0070M8FDK1","3KVQ0UJWPX71V463XQYDOZYIDLRW5D","","596.8000000715256","img/animal5.png","75","597.3999999761581","2","1","2","1,0.7,0,0,1,0.7,0.7,0,1",""
"","html-keyboard-response","115","107630","0.0-115.0","3KJYX6QCMAXY9YJDNK2DSQUXVVNVJF","A2ML0070M8FDK1","3KVQ0UJWPX71V463XQYDOZYIDLRW5D","","null","<img src=""img/animal5.png"" style=""width:200px; border:14px solid green;"">","null","","","","","",""
"","image-keyboard-response","116","108291","0.0-116.0","3KJYX6QCMAXY9YJDNK2DSQUXVVNVJF","A2ML0070M8FDK1","3KVQ0UJWPX71V463XQYDOZYIDLRW5D","","661","img/animal2.png","76","661.7000000476837","3","1","3","1,0.7,0,0,1,0.7,0.7,0,1",""
"","html-keyboard-response","117","108598","0.0-117.0","3KJYX6QCMAXY9YJDNK2DSQUXVVNVJF","A2ML0070M8FDK1","3KVQ0UJWPX71V463XQYDOZYIDLRW5D","","null","<img src=""img/animal2.png"" style=""width:200px; border:14px solid green;"">","null","","","","","",""
"","image-keyboard-response","118","109243","0.0-118.0","3KJYX6QCMAXY9YJDNK2DSQUXVVNVJF","A2ML0070M8FDK1","3KVQ0UJWPX71V463XQYDOZYIDLRW5D","","644.6000000238419","img/animal2.png","76","645.1000000238419","3","1","3","1,0.7,0,0,1,0.7,0.7,0,1",""
"","html-keyboard-response","119","109550","0.0-119.0","3KJYX6QCMAXY9YJDNK2DSQUXVVNVJF","A2ML0070M8FDK1","3KVQ0UJWPX71V463XQYDOZYIDLRW5D","","null","<img src=""img/animal2.png"" style=""width:200px; border:14px solid green;"">","null","","","","","",""
"","image-keyboard-response","120","110123","0.0-120.0","3KJYX6QCMAXY9YJDNK2DSQUXVVNVJF","A2ML0070M8FDK1","3KVQ0UJWPX71V463XQYDOZYIDLRW5D","","572.5","img/animal2.png","76","573.1000000238419","3","1","3","1,0.7,0,0,1,0.7,0.7,0,1",""
"","html-keyboard-response","121","110430","0.0-121.0","3KJYX6QCMAXY9YJDNK2DSQUXVVNVJF","A2ML0070M8FDK1","3KVQ0UJWPX71V463XQYDOZYIDLRW5D","","null","<img src=""img/animal2.png"" style=""width:200px; border:14px solid green;"">","null","","","","","",""
"","image-keyboard-response","122","111323","0.0-122.0","3KJYX6QCMAXY9YJDNK2DSQUXVVNVJF","A2ML0070M8FDK1","3KVQ0UJWPX71V463XQYDOZYIDLRW5D","","892.2999999523163","img/animal5.png","75","892.8999999761581","2","1","2","1,0.7,0,0,1,0.7,0.7,0,1",""
"","html-keyboard-response","123","111630","0.0-123.0","3KJYX6QCMAXY9YJDNK2DSQUXVVNVJF","A2ML0070M8FDK1","3KVQ0UJWPX71V463XQYDOZYIDLRW5D","","null","<img src=""img/animal5.png"" style=""width:200px; border:14px solid green;"">","null","","","","","",""
"","image-keyboard-response","124","112211","0.0-124.0","3KJYX6QCMAXY9YJDNK2DSQUXVVNVJF","A2ML0070M8FDK1","3KVQ0UJWPX71V463XQYDOZYIDLRW5D","","580.5","img/animal1.png","74","581","1","1","1","1,0.7,0,0,1,0.7,0.7,0,1",""
"","html-keyboard-response","125","112518","0.0-125.0","3KJYX6QCMAXY9YJDNK2DSQUXVVNVJF","A2ML0070M8FDK1","3KVQ0UJWPX71V463XQYDOZYIDLRW5D","","null","<img src=""img/animal1.png"" style=""width:200px; border:14px solid green;"">","null","","","","","",""
"","image-keyboard-response","126","113372","0.0-126.0","3KJYX6QCMAXY9YJDNK2DSQUXVVNVJF","A2ML0070M8FDK1","3KVQ0UJWPX71V463XQYDOZYIDLRW5D","","853","img/animal2.png","76","853.6999999284744","3","1","3","1,0.7,0,0,1,0.7,0.7,0,1",""
"","html-keyboard-response","127","113678","0.0-127.0","3KJYX6QCMAXY9YJDNK2DSQUXVVNVJF","A2ML0070M8FDK1","3KVQ0UJWPX71V463XQYDOZYIDLRW5D","","null","<img src=""img/animal2.png"" style=""width:200px; border:14px solid green;"">","null","","","","","",""
"","image-keyboard-response","128","114395","0.0-128.0","3KJYX6QCMAXY9YJDNK2DSQUXVVNVJF","A2ML0070M8FDK1","3KVQ0UJWPX71V463XQYDOZYIDLRW5D","","716.5","img/animal1.png","74","717.1000000238419","1","1","1","1,0.7,0,0,1,0.7,0.7,0,1",""
"","html-keyboard-response","129","114702","0.0-129.0","3KJYX6QCMAXY9YJDNK2DSQUXVVNVJF","A2ML0070M8FDK1","3KVQ0UJWPX71V463XQYDOZYIDLRW5D","","null","<img src=""img/animal1.png"" style=""width:200px; border:14px solid green;"">","null","","","","","",""
"","image-keyboard-response","130","115467","0.0-130.0","3KJYX6QCMAXY9YJDNK2DSQUXVVNVJF","A2ML0070M8FDK1","3KVQ0UJWPX71V463XQYDOZYIDLRW5D","","764.2999999523163","img/animal5.png","75","765.1000000238419","2","1","2","1,0.7,0,0,1,0.7,0.7,0,1",""
"","html-keyboard-response","131","115774","0.0-131.0","3KJYX6QCMAXY9YJDNK2DSQUXVVNVJF","A2ML0070M8FDK1","3KVQ0UJWPX71V463XQYDOZYIDLRW5D","","null","<img src=""img/animal5.png"" style=""width:200px; border:14px solid green;"">","null","","","","","",""
"","image-keyboard-response","132","116467","0.0-132.0","3KJYX6QCMAXY9YJDNK2DSQUXVVNVJF","A2ML0070M8FDK1","3KVQ0UJWPX71V463XQYDOZYIDLRW5D","","692.1000000238419","img/animal1.png","74","692.8000000715256","1","1","1","1,0.7,0,0,1,0.7,0.7,0,1",""
"","html-keyboard-response","133","116773","0.0-133.0","3KJYX6QCMAXY9YJDNK2DSQUXVVNVJF","A2ML0070M8FDK1","3KVQ0UJWPX71V463XQYDOZYIDLRW5D","","null","<img src=""img/animal1.png"" style=""width:200px; border:14px solid green;"">","null","","","","","",""
"","image-keyboard-response","134","117315","0.0-134.0","3KJYX6QCMAXY9YJDNK2DSQUXVVNVJF","A2ML0070M8FDK1","3KVQ0UJWPX71V463XQYDOZYIDLRW5D","","541.1999999284744","img/animal1.png","74","541.8000000715256","1","1","1","1,0.7,0,0,1,0.7,0.7,0,1",""
"","html-keyboard-response","135","117621","0.0-135.0","3KJYX6QCMAXY9YJDNK2DSQUXVVNVJF","A2ML0070M8FDK1","3KVQ0UJWPX71V463XQYDOZYIDLRW5D","","null","<img src=""img/animal1.png"" style=""width:200px; border:14px solid green;"">","null","","","","","",""
"","image-keyboard-response","136","118291","0.0-136.0","3KJYX6QCMAXY9YJDNK2DSQUXVVNVJF","A2ML0070M8FDK1","3KVQ0UJWPX71V463XQYDOZYIDLRW5D","","669.2000000476837","img/animal5.png","75","669.7999999523163","2","1","2","1,0.7,0,0,1,0.7,0.7,0,1",""
"","html-keyboard-response","137","118597","0.0-137.0","3KJYX6QCMAXY9YJDNK2DSQUXVVNVJF","A2ML0070M8FDK1","3KVQ0UJWPX71V463XQYDOZYIDLRW5D","","null","<img src=""img/animal5.png"" style=""width:200px; border:14px solid green;"">","null","","","","","",""
"","image-keyboard-response","138","119347","0.0-138.0","3KJYX6QCMAXY9YJDNK2DSQUXVVNVJF","A2ML0070M8FDK1","3KVQ0UJWPX71V463XQYDOZYIDLRW5D","","749","img/animal2.png","76","749.6000000238419","3","1","3","1,0.7,0,0,1,0.7,0.7,0,1",""
"","html-keyboard-response","139","119653","0.0-139.0","3KJYX6QCMAXY9YJDNK2DSQUXVVNVJF","A2ML0070M8FDK1","3KVQ0UJWPX71V463XQYDOZYIDLRW5D","","null","<img src=""img/animal2.png"" style=""width:200px; border:14px solid green;"">","null","","","","","",""
"","image-keyboard-response","140","120179","0.0-140.0","3KJYX6QCMAXY9YJDNK2DSQUXVVNVJF","A2ML0070M8FDK1","3KVQ0UJWPX71V463XQYDOZYIDLRW5D","","524.7999999523163","img/animal2.png","76","525.5","3","1","3","1,0.7,0,0,1,0.7,0.7,0,1",""
"","html-keyboard-response","141","120485","0.0-141.0","3KJYX6QCMAXY9YJDNK2DSQUXVVNVJF","A2ML0070M8FDK1","3KVQ0UJWPX71V463XQYDOZYIDLRW5D","","null","<img src=""img/animal2.png"" style=""width:200px; border:14px solid green;"">","null","","","","","",""
"","image-keyboard-response","142","121291","0.0-142.0","3KJYX6QCMAXY9YJDNK2DSQUXVVNVJF","A2ML0070M8FDK1","3KVQ0UJWPX71V463XQYDOZYIDLRW5D","","805.3000000715256","img/animal1.png","74","806","1","1","1","1,0.7,0,0,1,0.7,0.7,0,1",""
"","html-keyboard-response","143","121597","0.0-143.0","3KJYX6QCMAXY9YJDNK2DSQUXVVNVJF","A2ML0070M8FDK1","3KVQ0UJWPX71V463XQYDOZYIDLRW5D","","null","<img src=""img/animal1.png"" style=""width:200px; border:14px solid green;"">","null","","","","","",""
"","image-keyboard-response","144","122395","0.0-144.0","3KJYX6QCMAXY9YJDNK2DSQUXVVNVJF","A2ML0070M8FDK1","3KVQ0UJWPX71V463XQYDOZYIDLRW5D","","797","img/animal5.png","75","797.8999999761581","2","1","2","1,0.7,0,0,1,0.7,0.7,0,1",""
"","html-keyboard-response","145","122701","0.0-145.0","3KJYX6QCMAXY9YJDNK2DSQUXVVNVJF","A2ML0070M8FDK1","3KVQ0UJWPX71V463XQYDOZYIDLRW5D","","null","<img src=""img/animal5.png"" style=""width:200px; border:14px solid green;"">","null","","","","","",""
"","image-keyboard-response","146","123291","0.0-146.0","3KJYX6QCMAXY9YJDNK2DSQUXVVNVJF","A2ML0070M8FDK1","3KVQ0UJWPX71V463XQYDOZYIDLRW5D","","588.6999999284744","img/animal5.png","75","589.3999999761581","2","1","2","1,0.7,0,0,1,0.7,0.7,0,1",""
"","html-keyboard-response","147","123597","0.0-147.0","3KJYX6QCMAXY9YJDNK2DSQUXVVNVJF","A2ML0070M8FDK1","3KVQ0UJWPX71V463XQYDOZYIDLRW5D","","null","<img src=""img/animal5.png"" style=""width:200px; border:14px solid green;"">","null","","","","","",""
"","image-keyboard-response","148","124035","0.0-148.0","3KJYX6QCMAXY9YJDNK2DSQUXVVNVJF","A2ML0070M8FDK1","3KVQ0UJWPX71V463XQYDOZYIDLRW5D","","437.1999999284744","img/animal5.png","75","437.89999997615814","2","1","2","1,0.7,0,0,1,0.7,0.7,0,1",""
"","html-keyboard-response","149","124341","0.0-149.0","3KJYX6QCMAXY9YJDNK2DSQUXVVNVJF","A2ML0070M8FDK1","3KVQ0UJWPX71V463XQYDOZYIDLRW5D","","null","<img src=""img/animal5.png"" style=""width:200px; border:14px solid green;"">","null","","","","","",""
"","image-keyboard-response","150","125107","0.0-150.0","3KJYX6QCMAXY9YJDNK2DSQUXVVNVJF","A2ML0070M8FDK1","3KVQ0UJWPX71V463XQYDOZYIDLRW5D","","764.7999999523163","img/animal2.png","76","765.5","3","1","3","1,0.7,0,0,1,0.7,0.7,0,1",""
"","html-keyboard-response","151","125413","0.0-151.0","3KJYX6QCMAXY9YJDNK2DSQUXVVNVJF","A2ML0070M8FDK1","3KVQ0UJWPX71V463XQYDOZYIDLRW5D","","null","<img src=""img/animal2.png"" style=""width:200px; border:14px solid green;"">","null","","","","","",""
"","image-keyboard-response","152","126155","0.0-152.0","3KJYX6QCMAXY9YJDNK2DSQUXVVNVJF","A2ML0070M8FDK1","3KVQ0UJWPX71V463XQYDOZYIDLRW5D","","740.7999999523163","img/animal5.png","75","741.3000000715256","2","1","2","1,0.7,0,0,1,0.7,0.7,0,1",""
"","html-keyboard-response","153","126461","0.0-153.0","3KJYX6QCMAXY9YJDNK2DSQUXVVNVJF","A2ML0070M8FDK1","3KVQ0UJWPX71V463XQYDOZYIDLRW5D","","null","<img src=""img/animal5.png"" style=""width:200px; border:14px solid green;"">","null","","","","","",""
"","image-keyboard-response","154","127091","0.0-154.0","3KJYX6QCMAXY9YJDNK2DSQUXVVNVJF","A2ML0070M8FDK1","3KVQ0UJWPX71V463XQYDOZYIDLRW5D","","628.7999999523163","img/animal2.png","76","629.4000000953674","3","1","3","1,0.7,0,0,1,0.7,0.7,0,1",""
"","html-keyboard-response","155","127398","0.0-155.0","3KJYX6QCMAXY9YJDNK2DSQUXVVNVJF","A2ML0070M8FDK1","3KVQ0UJWPX71V463XQYDOZYIDLRW5D","","null","<img src=""img/animal2.png"" style=""width:200px; border:14px solid green;"">","null","","","","","",""
"","image-keyboard-response","156","128131","0.0-156.0","3KJYX6QCMAXY9YJDNK2DSQUXVVNVJF","A2ML0070M8FDK1","3KVQ0UJWPX71V463XQYDOZYIDLRW5D","","732.5","img/animal2.png","76","733.1000000238419","3","1","3","1,0.7,0,0,1,0.7,0.7,0,1",""
"","html-keyboard-response","157","128437","0.0-157.0","3KJYX6QCMAXY9YJDNK2DSQUXVVNVJF","A2ML0070M8FDK1","3KVQ0UJWPX71V463XQYDOZYIDLRW5D","","null","<img src=""img/animal2.png"" style=""width:200px; border:14px solid green;"">","null","","","","","",""
"","image-keyboard-response","158","129171","0.0-158.0","3KJYX6QCMAXY9YJDNK2DSQUXVVNVJF","A2ML0070M8FDK1","3KVQ0UJWPX71V463XQYDOZYIDLRW5D","","732.5","img/animal1.png","74","733.3000000715256","1","1","1","1,0.7,0,0,1,0.7,0.7,0,1",""
"","html-keyboard-response","159","129478","0.0-159.0","3KJYX6QCMAXY9YJDNK2DSQUXVVNVJF","A2ML0070M8FDK1","3KVQ0UJWPX71V463XQYDOZYIDLRW5D","","null","<img src=""img/animal1.png"" style=""width:200px; border:14px solid green;"">","null","","","","","",""
"","image-keyboard-response","160","130123","0.0-160.0","3KJYX6QCMAXY9YJDNK2DSQUXVVNVJF","A2ML0070M8FDK1","3KVQ0UJWPX71V463XQYDOZYIDLRW5D","","644.5","img/animal5.png","75","645","2","1","2","1,0.7,0,0,1,0.7,0.7,0,1",""
"","html-keyboard-response","161","130430","0.0-161.0","3KJYX6QCMAXY9YJDNK2DSQUXVVNVJF","A2ML0070M8FDK1","3KVQ0UJWPX71V463XQYDOZYIDLRW5D","","null","<img src=""img/animal5.png"" style=""width:200px; border:14px solid green;"">","null","","","","","",""
"","image-keyboard-response","162","131219","0.0-162.0","3KJYX6QCMAXY9YJDNK2DSQUXVVNVJF","A2ML0070M8FDK1","3KVQ0UJWPX71V463XQYDOZYIDLRW5D","","788.2999999523163","img/animal2.png","76","788.7999999523163","3","1","3","1,0.7,0,0,1,0.7,0.7,0,1",""
"","html-keyboard-response","163","131526","0.0-163.0","3KJYX6QCMAXY9YJDNK2DSQUXVVNVJF","A2ML0070M8FDK1","3KVQ0UJWPX71V463XQYDOZYIDLRW5D","","null","<img src=""img/animal2.png"" style=""width:200px; border:14px solid green;"">","null","","","","","",""
"","image-keyboard-response","164","132211","0.0-164.0","3KJYX6QCMAXY9YJDNK2DSQUXVVNVJF","A2ML0070M8FDK1","3KVQ0UJWPX71V463XQYDOZYIDLRW5D","","684.6000000238419","img/animal5.png","75","685.3999999761581","2","1","2","1,0.7,0,0,1,0.7,0.7,0,1",""
"","html-keyboard-response","165","132518","0.0-165.0","3KJYX6QCMAXY9YJDNK2DSQUXVVNVJF","A2ML0070M8FDK1","3KVQ0UJWPX71V463XQYDOZYIDLRW5D","","null","<img src=""img/animal5.png"" style=""width:200px; border:14px solid green;"">","null","","","","","",""
"","image-keyboard-response","166","133091","0.0-166.0","3KJYX6QCMAXY9YJDNK2DSQUXVVNVJF","A2ML0070M8FDK1","3KVQ0UJWPX71V463XQYDOZYIDLRW5D","","572.1999999284744","img/animal2.png","76","572.7999999523163","3","1","3","1,0.7,0,0,1,0.7,0.7,0,1",""
"","html-keyboard-response","167","133398","0.0-167.0","3KJYX6QCMAXY9YJDNK2DSQUXVVNVJF","A2ML0070M8FDK1","3KVQ0UJWPX71V463XQYDOZYIDLRW5D","","null","<img src=""img/animal2.png"" style=""width:200px; border:14px solid green;"">","null","","","","","",""
"","image-keyboard-response","168","134099","0.0-168.0","3KJYX6QCMAXY9YJDNK2DSQUXVVNVJF","A2ML0070M8FDK1","3KVQ0UJWPX71V463XQYDOZYIDLRW5D","","700.3999999761581","img/animal2.png","76","701.1000000238419","3","1","3","1,0.7,0,0,1,0.7,0.7,0,1",""
"","html-keyboard-response","169","134406","0.0-169.0","3KJYX6QCMAXY9YJDNK2DSQUXVVNVJF","A2ML0070M8FDK1","3KVQ0UJWPX71V463XQYDOZYIDLRW5D","","null","<img src=""img/animal2.png"" style=""width:200px; border:14px solid green;"">","null","","","","","",""
"","image-keyboard-response","170","134947","0.0-170.0","3KJYX6QCMAXY9YJDNK2DSQUXVVNVJF","A2ML0070M8FDK1","3KVQ0UJWPX71V463XQYDOZYIDLRW5D","","540.3999999761581","img/animal5.png","75","541.1000000238419","2","1","2","1,0.7,0,0,1,0.7,0.7,0,1",""
"","html-keyboard-response","171","135254","0.0-171.0","3KJYX6QCMAXY9YJDNK2DSQUXVVNVJF","A2ML0070M8FDK1","3KVQ0UJWPX71V463XQYDOZYIDLRW5D","","null","<img src=""img/animal5.png"" style=""width:200px; border:14px solid green;"">","null","","","","","",""
"","image-keyboard-response","172","135723","0.0-172.0","3KJYX6QCMAXY9YJDNK2DSQUXVVNVJF","A2ML0070M8FDK1","3KVQ0UJWPX71V463XQYDOZYIDLRW5D","","468.10000002384186","img/animal5.png","75","468.7999999523163","2","1","2","1,0.7,0,0,1,0.7,0.7,0,1",""
"","html-keyboard-response","173","136030","0.0-173.0","3KJYX6QCMAXY9YJDNK2DSQUXVVNVJF","A2ML0070M8FDK1","3KVQ0UJWPX71V463XQYDOZYIDLRW5D","","null","<img src=""img/animal5.png"" style=""width:200px; border:14px solid green;"">","null","","","","","",""
"","image-keyboard-response","174","136547","0.0-174.0","3KJYX6QCMAXY9YJDNK2DSQUXVVNVJF","A2ML0070M8FDK1","3KVQ0UJWPX71V463XQYDOZYIDLRW5D","","516.1000000238419","img/animal5.png","75","516.8000000715256","2","1","2","1,0.7,0,0,1,0.7,0.7,0,1",""
"","html-keyboard-response","175","136854","0.0-175.0","3KJYX6QCMAXY9YJDNK2DSQUXVVNVJF","A2ML0070M8FDK1","3KVQ0UJWPX71V463XQYDOZYIDLRW5D","","null","<img src=""img/animal5.png"" style=""width:200px; border:14px solid green;"">","null","","","","","",""
"","image-keyboard-response","176","137219","0.0-176.0","3KJYX6QCMAXY9YJDNK2DSQUXVVNVJF","A2ML0070M8FDK1","3KVQ0UJWPX71V463XQYDOZYIDLRW5D","","364.1999999284744","img/animal5.png","75","364.90000009536743","2","1","2","1,0.7,0,0,1,0.7,0.7,0,1",""
"","html-keyboard-response","177","137526","0.0-177.0","3KJYX6QCMAXY9YJDNK2DSQUXVVNVJF","A2ML0070M8FDK1","3KVQ0UJWPX71V463XQYDOZYIDLRW5D","","null","<img src=""img/animal5.png"" style=""width:200px; border:14px solid green;"">","null","","","","","",""
"","image-keyboard-response","178","138043","0.0-178.0","3KJYX6QCMAXY9YJDNK2DSQUXVVNVJF","A2ML0070M8FDK1","3KVQ0UJWPX71V463XQYDOZYIDLRW5D","","516.2999999523163","img/animal2.png","76","516.9000000953674","3","1","3","1,0.7,0,0,1,0.7,0.7,0,1",""
"","html-keyboard-response","179","138350","0.0-179.0","3KJYX6QCMAXY9YJDNK2DSQUXVVNVJF","A2ML0070M8FDK1","3KVQ0UJWPX71V463XQYDOZYIDLRW5D","","null","<img src=""img/animal2.png"" style=""width:200px; border:14px solid green;"">","null","","","","","",""
"","image-keyboard-response","180","138731","0.0-180.0","3KJYX6QCMAXY9YJDNK2DSQUXVVNVJF","A2ML0070M8FDK1","3KVQ0UJWPX71V463XQYDOZYIDLRW5D","","380.1999999284744","img/animal2.png","76","380.90000009536743","3","1","3","1,0.7,0,0,1,0.7,0.7,0,1",""
"","html-keyboard-response","181","139038","0.0-181.0","3KJYX6QCMAXY9YJDNK2DSQUXVVNVJF","A2ML0070M8FDK1","3KVQ0UJWPX71V463XQYDOZYIDLRW5D","","null","<img src=""img/animal2.png"" style=""width:200px; border:14px solid green;"">","null","","","","","",""
"","html-keyboard-response","182","141518","0.0-182.0","3KJYX6QCMAXY9YJDNK2DSQUXVVNVJF","A2ML0070M8FDK1","3KVQ0UJWPX71V463XQYDOZYIDLRW5D","","","","","","","","","",""
"","image-keyboard-response","183","143195","0.0-183.0","3KJYX6QCMAXY9YJDNK2DSQUXVVNVJF","A2ML0070M8FDK1","3KVQ0UJWPX71V463XQYDOZYIDLRW5D","","1675.1999999284744","img/animal6.png","74","1676.1000000238419","1","0","3","1,0.7,0,1,0.7,0,0.7,0,1",""
"","html-keyboard-response","184","143501","0.0-184.0","3KJYX6QCMAXY9YJDNK2DSQUXVVNVJF","A2ML0070M8FDK1","3KVQ0UJWPX71V463XQYDOZYIDLRW5D","","null","<img src=""img/animal6.png"" style=""width:200px;border:14px solid red;"">","null","","","","","",""
"","image-keyboard-response","185","144827","0.0-185.0","3KJYX6QCMAXY9YJDNK2DSQUXVVNVJF","A2ML0070M8FDK1","3KVQ0UJWPX71V463XQYDOZYIDLRW5D","","1325.1000000238419","img/animal4.png","74","1325.7999999523163","1","1","2","1,0.7,0,1,0.7,0,0.7,0,1",""
"","html-keyboard-response","186","145133","0.0-186.0","3KJYX6QCMAXY9YJDNK2DSQUXVVNVJF","A2ML0070M8FDK1","3KVQ0UJWPX71V463XQYDOZYIDLRW5D","","null","<img src=""img/animal4.png"" style=""width:200px; border:14px solid green;"">","null","","","","","",""
"","image-keyboard-response","187","146338","0.0-187.0","3KJYX6QCMAXY9YJDNK2DSQUXVVNVJF","A2ML0070M8FDK1","3KVQ0UJWPX71V463XQYDOZYIDLRW5D","","1204.5","img/animal6.png","75","1205.0999999046326","2","0","3","1,0.7,0,1,0.7,0,0.7,0,1",""
"","html-keyboard-response","188","146645","0.0-188.0","3KJYX6QCMAXY9YJDNK2DSQUXVVNVJF","A2ML0070M8FDK1","3KVQ0UJWPX71V463XQYDOZYIDLRW5D","","null","<img src=""img/animal6.png"" style=""width:200px;border:14px solid red;"">","null","","","","","",""
"","image-keyboard-response","189","148635","0.0-189.0","3KJYX6QCMAXY9YJDNK2DSQUXVVNVJF","A2ML0070M8FDK1","3KVQ0UJWPX71V463XQYDOZYIDLRW5D","","1988.6999999284744","img/animal3.png","75","1989.3000000715256","2","1","1","1,0.7,0,1,0.7,0,0.7,0,1",""
"","html-keyboard-response","190","148941","0.0-190.0","3KJYX6QCMAXY9YJDNK2DSQUXVVNVJF","A2ML0070M8FDK1","3KVQ0UJWPX71V463XQYDOZYIDLRW5D","","null","<img src=""img/animal3.png"" style=""width:200px; border:14px solid green;"">","null","","","","","",""
"","image-keyboard-response","191","150002","0.0-191.0","3KJYX6QCMAXY9YJDNK2DSQUXVVNVJF","A2ML0070M8FDK1","3KVQ0UJWPX71V463XQYDOZYIDLRW5D","","1060.3999999761581","img/animal3.png","75","1061","2","1","1","1,0.7,0,1,0.7,0,0.7,0,1",""
"","html-keyboard-response","192","150310","0.0-192.0","3KJYX6QCMAXY9YJDNK2DSQUXVVNVJF","A2ML0070M8FDK1","3KVQ0UJWPX71V463XQYDOZYIDLRW5D","","null","<img src=""img/animal3.png"" style=""width:200px; border:14px solid green;"">","null","","","","","",""
"","image-keyboard-response","193","151155","0.0-193.0","3KJYX6QCMAXY9YJDNK2DSQUXVVNVJF","A2ML0070M8FDK1","3KVQ0UJWPX71V463XQYDOZYIDLRW5D","","844.5","img/animal6.png","76","845.2000000476837","3","1","3","1,0.7,0,1,0.7,0,0.7,0,1",""
"","html-keyboard-response","194","151462","0.0-194.0","3KJYX6QCMAXY9YJDNK2DSQUXVVNVJF","A2ML0070M8FDK1","3KVQ0UJWPX71V463XQYDOZYIDLRW5D","","null","<img src=""img/animal6.png"" style=""width:200px; border:14px solid green;"">","null","","","","","",""
"","image-keyboard-response","195","152099","0.0-195.0","3KJYX6QCMAXY9YJDNK2DSQUXVVNVJF","A2ML0070M8FDK1","3KVQ0UJWPX71V463XQYDOZYIDLRW5D","","636.5","img/animal6.png","76","637","3","1","3","1,0.7,0,1,0.7,0,0.7,0,1",""
"","html-keyboard-response","196","152406","0.0-196.0","3KJYX6QCMAXY9YJDNK2DSQUXVVNVJF","A2ML0070M8FDK1","3KVQ0UJWPX71V463XQYDOZYIDLRW5D","","null","<img src=""img/animal6.png"" style=""width:200px; border:14px solid green;"">","null","","","","","",""
"","image-keyboard-response","197","152946","0.0-197.0","3KJYX6QCMAXY9YJDNK2DSQUXVVNVJF","A2ML0070M8FDK1","3KVQ0UJWPX71V463XQYDOZYIDLRW5D","","539.8999999761581","img/animal6.png","76","540.6000000238419","3","1","3","1,0.7,0,1,0.7,0,0.7,0,1",""
"","html-keyboard-response","198","153254","0.0-198.0","3KJYX6QCMAXY9YJDNK2DSQUXVVNVJF","A2ML0070M8FDK1","3KVQ0UJWPX71V463XQYDOZYIDLRW5D","","null","<img src=""img/animal6.png"" style=""width:200px; border:14px solid green;"">","null","","","","","",""
"","image-keyboard-response","199","154323","0.0-199.0","3KJYX6QCMAXY9YJDNK2DSQUXVVNVJF","A2ML0070M8FDK1","3KVQ0UJWPX71V463XQYDOZYIDLRW5D","","1068.2999999523163","img/animal4.png","74","1069.1000000238419","1","1","2","1,0.7,0,1,0.7,0,0.7,0,1",""
"","html-keyboard-response","200","154630","0.0-200.0","3KJYX6QCMAXY9YJDNK2DSQUXVVNVJF","A2ML0070M8FDK1","3KVQ0UJWPX71V463XQYDOZYIDLRW5D","","null","<img src=""img/animal4.png"" style=""width:200px; border:14px solid green;"">","null","","","","","",""
"","image-keyboard-response","201","155355","0.0-201.0","3KJYX6QCMAXY9YJDNK2DSQUXVVNVJF","A2ML0070M8FDK1","3KVQ0UJWPX71V463XQYDOZYIDLRW5D","","724.6000000238419","img/animal6.png","76","725.0999999046326","3","1","3","1,0.7,0,1,0.7,0,0.7,0,1",""
"","html-keyboard-response","202","155662","0.0-202.0","3KJYX6QCMAXY9YJDNK2DSQUXVVNVJF","A2ML0070M8FDK1","3KVQ0UJWPX71V463XQYDOZYIDLRW5D","","null","<img src=""img/animal6.png"" style=""width:200px; border:14px solid green;"">","null","","","","","",""
"","image-keyboard-response","203","156434","0.0-203.0","3KJYX6QCMAXY9YJDNK2DSQUXVVNVJF","A2ML0070M8FDK1","3KVQ0UJWPX71V463XQYDOZYIDLRW5D","","771.7999999523163","img/animal4.png","74","772.5","1","1","2","1,0.7,0,1,0.7,0,0.7,0,1",""
"","html-keyboard-response","204","156742","0.0-204.0","3KJYX6QCMAXY9YJDNK2DSQUXVVNVJF","A2ML0070M8FDK1","3KVQ0UJWPX71V463XQYDOZYIDLRW5D","","null","<img src=""img/animal4.png"" style=""width:200px; border:14px solid green;"">","null","","","","","",""
"","image-keyboard-response","205","157554","0.0-205.0","3KJYX6QCMAXY9YJDNK2DSQUXVVNVJF","A2ML0070M8FDK1","3KVQ0UJWPX71V463XQYDOZYIDLRW5D","","811.7999999523163","img/animal3.png","75","812.5","2","1","1","1,0.7,0,1,0.7,0,0.7,0,1",""
"","html-keyboard-response","206","157862","0.0-206.0","3KJYX6QCMAXY9YJDNK2DSQUXVVNVJF","A2ML0070M8FDK1","3KVQ0UJWPX71V463XQYDOZYIDLRW5D","","null","<img src=""img/animal3.png"" style=""width:200px; border:14px solid green;"">","null","","","","","",""
"","image-keyboard-response","207","158771","0.0-207.0","3KJYX6QCMAXY9YJDNK2DSQUXVVNVJF","A2ML0070M8FDK1","3KVQ0UJWPX71V463XQYDOZYIDLRW5D","","908.0999999046326","img/animal6.png","76","908.7000000476837","3","1","3","1,0.7,0,1,0.7,0,0.7,0,1",""
"","html-keyboard-response","208","159078","0.0-208.0","3KJYX6QCMAXY9YJDNK2DSQUXVVNVJF","A2ML0070M8FDK1","3KVQ0UJWPX71V463XQYDOZYIDLRW5D","","null","<img src=""img/animal6.png"" style=""width:200px; border:14px solid green;"">","null","","","","","",""
"","image-keyboard-response","209","159794","0.0-209.0","3KJYX6QCMAXY9YJDNK2DSQUXVVNVJF","A2ML0070M8FDK1","3KVQ0UJWPX71V463XQYDOZYIDLRW5D","","715.1999999284744","img/animal3.png","75","716.3000000715256","2","0","1","1,0.7,0,1,0.7,0,0.7,0,1",""
"","html-keyboard-response","210","160102","0.0-210.0","3KJYX6QCMAXY9YJDNK2DSQUXVVNVJF","A2ML0070M8FDK1","3KVQ0UJWPX71V463XQYDOZYIDLRW5D","","null","<img src=""img/animal3.png"" style=""width:200px;border:14px solid red;"">","null","","","","","",""
"","image-keyboard-response","211","161106","0.0-211.0","3KJYX6QCMAXY9YJDNK2DSQUXVVNVJF","A2ML0070M8FDK1","3KVQ0UJWPX71V463XQYDOZYIDLRW5D","","1003.7000000476837","img/animal4.png","74","1004.3000000715256","1","1","2","1,0.7,0,1,0.7,0,0.7,0,1",""
"","html-keyboard-response","212","161413","0.0-212.0","3KJYX6QCMAXY9YJDNK2DSQUXVVNVJF","A2ML0070M8FDK1","3KVQ0UJWPX71V463XQYDOZYIDLRW5D","","null","<img src=""img/animal4.png"" style=""width:200px; border:14px solid green;"">","null","","","","","",""
"","image-keyboard-response","213","162987","0.0-213.0","3KJYX6QCMAXY9YJDNK2DSQUXVVNVJF","A2ML0070M8FDK1","3KVQ0UJWPX71V463XQYDOZYIDLRW5D","","1572.9000000953674","img/animal3.png","75","1573.5","2","1","1","1,0.7,0,1,0.7,0,0.7,0,1",""
"","html-keyboard-response","214","163293","0.0-214.0","3KJYX6QCMAXY9YJDNK2DSQUXVVNVJF","A2ML0070M8FDK1","3KVQ0UJWPX71V463XQYDOZYIDLRW5D","","null","<img src=""img/animal3.png"" style=""width:200px; border:14px solid green;"">","null","","","","","",""
"","image-keyboard-response","215","164106","0.0-215.0","3KJYX6QCMAXY9YJDNK2DSQUXVVNVJF","A2ML0070M8FDK1","3KVQ0UJWPX71V463XQYDOZYIDLRW5D","","812.6000000238419","img/animal3.png","75","813.2000000476837","2","0","1","1,0.7,0,1,0.7,0,0.7,0,1",""
"","html-keyboard-response","216","164413","0.0-216.0","3KJYX6QCMAXY9YJDNK2DSQUXVVNVJF","A2ML0070M8FDK1","3KVQ0UJWPX71V463XQYDOZYIDLRW5D","","null","<img src=""img/animal3.png"" style=""width:200px;border:14px solid red;"">","null","","","","","",""
"","image-keyboard-response","217","165418","0.0-217.0","3KJYX6QCMAXY9YJDNK2DSQUXVVNVJF","A2ML0070M8FDK1","3KVQ0UJWPX71V463XQYDOZYIDLRW5D","","1004.6000000238419","img/animal6.png","76","1005.2999999523163","3","1","3","1,0.7,0,1,0.7,0,0.7,0,1",""
"","html-keyboard-response","218","165725","0.0-218.0","3KJYX6QCMAXY9YJDNK2DSQUXVVNVJF","A2ML0070M8FDK1","3KVQ0UJWPX71V463XQYDOZYIDLRW5D","","null","<img src=""img/animal6.png"" style=""width:200px; border:14px solid green;"">","null","","","","","",""
"","image-keyboard-response","219","166250","0.0-219.0","3KJYX6QCMAXY9YJDNK2DSQUXVVNVJF","A2ML0070M8FDK1","3KVQ0UJWPX71V463XQYDOZYIDLRW5D","","524.5","img/animal6.png","76","525.0999999046326","3","1","3","1,0.7,0,1,0.7,0,0.7,0,1",""
"","html-keyboard-response","220","166557","0.0-220.0","3KJYX6QCMAXY9YJDNK2DSQUXVVNVJF","A2ML0070M8FDK1","3KVQ0UJWPX71V463XQYDOZYIDLRW5D","","null","<img src=""img/animal6.png"" style=""width:200px; border:14px solid green;"">","null","","","","","",""
"","image-keyboard-response","221","167979","0.0-221.0","3KJYX6QCMAXY9YJDNK2DSQUXVVNVJF","A2ML0070M8FDK1","3KVQ0UJWPX71V463XQYDOZYIDLRW5D","","1420.1999999284744","img/animal3.png","74","1421","1","1","1","1,0.7,0,1,0.7,0,0.7,0,1",""
"","html-keyboard-response","222","168287","0.0-222.0","3KJYX6QCMAXY9YJDNK2DSQUXVVNVJF","A2ML0070M8FDK1","3KVQ0UJWPX71V463XQYDOZYIDLRW5D","","null","<img src=""img/animal3.png"" style=""width:200px; border:14px solid green;"">","null","","","","","",""
"","image-keyboard-response","223","169884","0.0-223.0","3KJYX6QCMAXY9YJDNK2DSQUXVVNVJF","A2ML0070M8FDK1","3KVQ0UJWPX71V463XQYDOZYIDLRW5D","","1596.5","img/animal6.png","76","1597.1000000238419","3","1","3","1,0.7,0,1,0.7,0,0.7,0,1",""
"","html-keyboard-response","224","170190","0.0-224.0","3KJYX6QCMAXY9YJDNK2DSQUXVVNVJF","A2ML0070M8FDK1","3KVQ0UJWPX71V463XQYDOZYIDLRW5D","","null","<img src=""img/animal6.png"" style=""width:200px; border:14px solid green;"">","null","","","","","",""
"","image-keyboard-response","225","171531","0.0-225.0","3KJYX6QCMAXY9YJDNK2DSQUXVVNVJF","A2ML0070M8FDK1","3KVQ0UJWPX71V463XQYDOZYIDLRW5D","","1339.9000000953674","img/animal6.png","76","1340.8999999761581","3","1","3","1,0.7,0,1,0.7,0,0.7,0,1",""
"","html-keyboard-response","226","171839","0.0-226.0","3KJYX6QCMAXY9YJDNK2DSQUXVVNVJF","A2ML0070M8FDK1","3KVQ0UJWPX71V463XQYDOZYIDLRW5D","","null","<img src=""img/animal6.png"" style=""width:200px; border:14px solid green;"">","null","","","","","",""
"","image-keyboard-response","227","172852","0.0-227.0","3KJYX6QCMAXY9YJDNK2DSQUXVVNVJF","A2ML0070M8FDK1","3KVQ0UJWPX71V463XQYDOZYIDLRW5D","","1012.2000000476837","img/animal3.png","74","1012.8999999761581","1","1","1","1,0.7,0,1,0.7,0,0.7,0,1",""
"","html-keyboard-response","228","173159","0.0-228.0","3KJYX6QCMAXY9YJDNK2DSQUXVVNVJF","A2ML0070M8FDK1","3KVQ0UJWPX71V463XQYDOZYIDLRW5D","","null","<img src=""img/animal3.png"" style=""width:200px; border:14px solid green;"">","null","","","","","",""
"","image-keyboard-response","229","173787","0.0-229.0","3KJYX6QCMAXY9YJDNK2DSQUXVVNVJF","A2ML0070M8FDK1","3KVQ0UJWPX71V463XQYDOZYIDLRW5D","","627.9000000953674","img/animal3.png","74","628.5","1","1","1","1,0.7,0,1,0.7,0,0.7,0,1",""
"","html-keyboard-response","230","174095","0.0-230.0","3KJYX6QCMAXY9YJDNK2DSQUXVVNVJF","A2ML0070M8FDK1","3KVQ0UJWPX71V463XQYDOZYIDLRW5D","","null","<img src=""img/animal3.png"" style=""width:200px; border:14px solid green;"">","null","","","","","",""
"","image-keyboard-response","231","174740","0.0-231.0","3KJYX6QCMAXY9YJDNK2DSQUXVVNVJF","A2ML0070M8FDK1","3KVQ0UJWPX71V463XQYDOZYIDLRW5D","","644.2000000476837","img/animal4.png","75","644.7000000476837","2","0","2","1,0.7,0,1,0.7,0,0.7,0,1",""
"","html-keyboard-response","232","175047","0.0-232.0","3KJYX6QCMAXY9YJDNK2DSQUXVVNVJF","A2ML0070M8FDK1","3KVQ0UJWPX71V463XQYDOZYIDLRW5D","","null","<img src=""img/animal4.png"" style=""width:200px;border:14px solid red;"">","null","","","","","",""
"","image-keyboard-response","233","176060","0.0-233.0","3KJYX6QCMAXY9YJDNK2DSQUXVVNVJF","A2ML0070M8FDK1","3KVQ0UJWPX71V463XQYDOZYIDLRW5D","","1012.1000000238419","img/animal3.png","74","1012.7999999523163","1","1","1","1,0.7,0,1,0.7,0,0.7,0,1",""
"","html-keyboard-response","234","176367","0.0-234.0","3KJYX6QCMAXY9YJDNK2DSQUXVVNVJF","A2ML0070M8FDK1","3KVQ0UJWPX71V463XQYDOZYIDLRW5D","","null","<img src=""img/animal3.png"" style=""width:200px; border:14px solid green;"">","null","","","","","",""
"","image-keyboard-response","235","176931","0.0-235.0","3KJYX6QCMAXY9YJDNK2DSQUXVVNVJF","A2ML0070M8FDK1","3KVQ0UJWPX71V463XQYDOZYIDLRW5D","","563.7000000476837","img/animal3.png","74","564.5","1","1","1","1,0.7,0,1,0.7,0,0.7,0,1",""
"","html-keyboard-response","236","177239","0.0-236.0","3KJYX6QCMAXY9YJDNK2DSQUXVVNVJF","A2ML0070M8FDK1","3KVQ0UJWPX71V463XQYDOZYIDLRW5D","","null","<img src=""img/animal3.png"" style=""width:200px; border:14px solid green;"">","null","","","","","",""
"","image-keyboard-response","237","177852","0.0-237.0","3KJYX6QCMAXY9YJDNK2DSQUXVVNVJF","A2ML0070M8FDK1","3KVQ0UJWPX71V463XQYDOZYIDLRW5D","","611.8999999761581","img/animal4.png","74","612.6000000238419","1","1","2","1,0.7,0,1,0.7,0,0.7,0,1",""
"","html-keyboard-response","238","178159","0.0-238.0","3KJYX6QCMAXY9YJDNK2DSQUXVVNVJF","A2ML0070M8FDK1","3KVQ0UJWPX71V463XQYDOZYIDLRW5D","","null","<img src=""img/animal4.png"" style=""width:200px; border:14px solid green;"">","null","","","","","",""
"","image-keyboard-response","239","178699","0.0-239.0","3KJYX6QCMAXY9YJDNK2DSQUXVVNVJF","A2ML0070M8FDK1","3KVQ0UJWPX71V463XQYDOZYIDLRW5D","","539.7999999523163","img/animal4.png","74","540.3999999761581","1","1","2","1,0.7,0,1,0.7,0,0.7,0,1",""
"","html-keyboard-response","240","179007","0.0-240.0","3KJYX6QCMAXY9YJDNK2DSQUXVVNVJF","A2ML0070M8FDK1","3KVQ0UJWPX71V463XQYDOZYIDLRW5D","","null","<img src=""img/animal4.png"" style=""width:200px; border:14px solid green;"">","null","","","","","",""
"","image-keyboard-response","241","179676","0.0-241.0","3KJYX6QCMAXY9YJDNK2DSQUXVVNVJF","A2ML0070M8FDK1","3KVQ0UJWPX71V463XQYDOZYIDLRW5D","","667.7999999523163","img/animal6.png","76","668.5","3","1","3","1,0.7,0,1,0.7,0,0.7,0,1",""
"","html-keyboard-response","242","179983","0.0-242.0","3KJYX6QCMAXY9YJDNK2DSQUXVVNVJF","A2ML0070M8FDK1","3KVQ0UJWPX71V463XQYDOZYIDLRW5D","","null","<img src=""img/animal6.png"" style=""width:200px; border:14px solid green;"">","null","","","","","",""
"","image-keyboard-response","243","180355","0.0-243.0","3KJYX6QCMAXY9YJDNK2DSQUXVVNVJF","A2ML0070M8FDK1","3KVQ0UJWPX71V463XQYDOZYIDLRW5D","","371.60000002384186","img/animal6.png","76","372.1999999284744","3","1","3","1,0.7,0,1,0.7,0,0.7,0,1",""
"","html-keyboard-response","244","180663","0.0-244.0","3KJYX6QCMAXY9YJDNK2DSQUXVVNVJF","A2ML0070M8FDK1","3KVQ0UJWPX71V463XQYDOZYIDLRW5D","","null","<img src=""img/animal6.png"" style=""width:200px; border:14px solid green;"">","null","","","","","",""
"","image-keyboard-response","245","181315","0.0-245.0","3KJYX6QCMAXY9YJDNK2DSQUXVVNVJF","A2ML0070M8FDK1","3KVQ0UJWPX71V463XQYDOZYIDLRW5D","","651.5","img/animal4.png","74","652.1000000238419","1","1","2","1,0.7,0,1,0.7,0,0.7,0,1",""
"","html-keyboard-response","246","181623","0.0-246.0","3KJYX6QCMAXY9YJDNK2DSQUXVVNVJF","A2ML0070M8FDK1","3KVQ0UJWPX71V463XQYDOZYIDLRW5D","","null","<img src=""img/animal4.png"" style=""width:200px; border:14px solid green;"">","null","","","","","",""
"","image-keyboard-response","247","182051","0.0-247.0","3KJYX6QCMAXY9YJDNK2DSQUXVVNVJF","A2ML0070M8FDK1","3KVQ0UJWPX71V463XQYDOZYIDLRW5D","","427.3000000715256","img/animal4.png","74","428.10000002384186","1","1","2","1,0.7,0,1,0.7,0,0.7,0,1",""
"","html-keyboard-response","248","182359","0.0-248.0","3KJYX6QCMAXY9YJDNK2DSQUXVVNVJF","A2ML0070M8FDK1","3KVQ0UJWPX71V463XQYDOZYIDLRW5D","","null","<img src=""img/animal4.png"" style=""width:200px; border:14px solid green;"">","null","","","","","",""
"","image-keyboard-response","249","182723","0.0-249.0","3KJYX6QCMAXY9YJDNK2DSQUXVVNVJF","A2ML0070M8FDK1","3KVQ0UJWPX71V463XQYDOZYIDLRW5D","","363.40000009536743","img/animal4.png","74","364.10000002384186","1","1","2","1,0.7,0,1,0.7,0,0.7,0,1",""
"","html-keyboard-response","250","183031","0.0-250.0","3KJYX6QCMAXY9YJDNK2DSQUXVVNVJF","A2ML0070M8FDK1","3KVQ0UJWPX71V463XQYDOZYIDLRW5D","","null","<img src=""img/animal4.png"" style=""width:200px; border:14px solid green;"">","null","","","","","",""
"","image-keyboard-response","251","183476","0.0-251.0","3KJYX6QCMAXY9YJDNK2DSQUXVVNVJF","A2ML0070M8FDK1","3KVQ0UJWPX71V463XQYDOZYIDLRW5D","","443.6999999284744","img/animal4.png","74","444.3000000715256","1","1","2","1,0.7,0,1,0.7,0,0.7,0,1",""
"","html-keyboard-response","252","183783","0.0-252.0","3KJYX6QCMAXY9YJDNK2DSQUXVVNVJF","A2ML0070M8FDK1","3KVQ0UJWPX71V463XQYDOZYIDLRW5D","","null","<img src=""img/animal4.png"" style=""width:200px; border:14px solid green;"">","null","","","","","",""
"","image-keyboard-response","253","184467","0.0-253.0","3KJYX6QCMAXY9YJDNK2DSQUXVVNVJF","A2ML0070M8FDK1","3KVQ0UJWPX71V463XQYDOZYIDLRW5D","","683.4000000953674","img/animal6.png","76","684","3","1","3","1,0.7,0,1,0.7,0,0.7,0,1",""
"","html-keyboard-response","254","184774","0.0-254.0","3KJYX6QCMAXY9YJDNK2DSQUXVVNVJF","A2ML0070M8FDK1","3KVQ0UJWPX71V463XQYDOZYIDLRW5D","","null","<img src=""img/animal6.png"" style=""width:200px; border:14px solid green;"">","null","","","","","",""
"","image-keyboard-response","255","185908","0.0-255.0","3KJYX6QCMAXY9YJDNK2DSQUXVVNVJF","A2ML0070M8FDK1","3KVQ0UJWPX71V463XQYDOZYIDLRW5D","","1132","img/animal3.png","74","1133.0999999046326","1","1","1","1,0.7,0,1,0.7,0,0.7,0,1",""
"","html-keyboard-response","256","186214","0.0-256.0","3KJYX6QCMAXY9YJDNK2DSQUXVVNVJF","A2ML0070M8FDK1","3KVQ0UJWPX71V463XQYDOZYIDLRW5D","","null","<img src=""img/animal3.png"" style=""width:200px; border:14px solid green;"">","null","","","","","",""
"","image-keyboard-response","257","187052","0.0-257.0","3KJYX6QCMAXY9YJDNK2DSQUXVVNVJF","A2ML0070M8FDK1","3KVQ0UJWPX71V463XQYDOZYIDLRW5D","","836.6000000238419","img/animal6.png","76","837.2999999523163","3","1","3","1,0.7,0,1,0.7,0,0.7,0,1",""
"","html-keyboard-response","258","187358","0.0-258.0","3KJYX6QCMAXY9YJDNK2DSQUXVVNVJF","A2ML0070M8FDK1","3KVQ0UJWPX71V463XQYDOZYIDLRW5D","","null","<img src=""img/animal6.png"" style=""width:200px; border:14px solid green;"">","null","","","","","",""
"","image-keyboard-response","259","187947","0.0-259.0","3KJYX6QCMAXY9YJDNK2DSQUXVVNVJF","A2ML0070M8FDK1","3KVQ0UJWPX71V463XQYDOZYIDLRW5D","","588","img/animal6.png","76","588.6000000238419","3","1","3","1,0.7,0,1,0.7,0,0.7,0,1",""
"","html-keyboard-response","260","188254","0.0-260.0","3KJYX6QCMAXY9YJDNK2DSQUXVVNVJF","A2ML0070M8FDK1","3KVQ0UJWPX71V463XQYDOZYIDLRW5D","","null","<img src=""img/animal6.png"" style=""width:200px; border:14px solid green;"">","null","","","","","",""
"","image-keyboard-response","261","188916","0.0-261.0","3KJYX6QCMAXY9YJDNK2DSQUXVVNVJF","A2ML0070M8FDK1","3KVQ0UJWPX71V463XQYDOZYIDLRW5D","","660.3999999761581","img/animal4.png","74","661.0999999046326","1","1","2","1,0.7,0,1,0.7,0,0.7,0,1",""
"","html-keyboard-response","262","189222","0.0-262.0","3KJYX6QCMAXY9YJDNK2DSQUXVVNVJF","A2ML0070M8FDK1","3KVQ0UJWPX71V463XQYDOZYIDLRW5D","","null","<img src=""img/animal4.png"" style=""width:200px; border:14px solid green;"">","null","","","","","",""
"","image-keyboard-response","263","189787","0.0-263.0","3KJYX6QCMAXY9YJDNK2DSQUXVVNVJF","A2ML0070M8FDK1","3KVQ0UJWPX71V463XQYDOZYIDLRW5D","","563.8999999761581","img/animal4.png","74","564.5","1","1","2","1,0.7,0,1,0.7,0,0.7,0,1",""
"","html-keyboard-response","264","190094","0.0-264.0","3KJYX6QCMAXY9YJDNK2DSQUXVVNVJF","A2ML0070M8FDK1","3KVQ0UJWPX71V463XQYDOZYIDLRW5D","","null","<img src=""img/animal4.png"" style=""width:200px; border:14px solid green;"">","null","","","","","",""
"","image-keyboard-response","265","190635","0.0-265.0","3KJYX6QCMAXY9YJDNK2DSQUXVVNVJF","A2ML0070M8FDK1","3KVQ0UJWPX71V463XQYDOZYIDLRW5D","","539.8999999761581","img/animal3.png","74","540.5999999046326","1","1","1","1,0.7,0,1,0.7,0,0.7,0,1",""
"","html-keyboard-response","266","190942","0.0-266.0","3KJYX6QCMAXY9YJDNK2DSQUXVVNVJF","A2ML0070M8FDK1","3KVQ0UJWPX71V463XQYDOZYIDLRW5D","","null","<img src=""img/animal3.png"" style=""width:200px; border:14px solid green;"">","null","","","","","",""
"","image-keyboard-response","267","191659","0.0-267.0","3KJYX6QCMAXY9YJDNK2DSQUXVVNVJF","A2ML0070M8FDK1","3KVQ0UJWPX71V463XQYDOZYIDLRW5D","","716.1000000238419","img/animal6.png","76","716.7999999523163","3","1","3","1,0.7,0,1,0.7,0,0.7,0,1",""
"","html-keyboard-response","268","191967","0.0-268.0","3KJYX6QCMAXY9YJDNK2DSQUXVVNVJF","A2ML0070M8FDK1","3KVQ0UJWPX71V463XQYDOZYIDLRW5D","","null","<img src=""img/animal6.png"" style=""width:200px; border:14px solid green;"">","null","","","","","",""
"","image-keyboard-response","269","192691","0.0-269.0","3KJYX6QCMAXY9YJDNK2DSQUXVVNVJF","A2ML0070M8FDK1","3KVQ0UJWPX71V463XQYDOZYIDLRW5D","","724","img/animal4.png","74","724.7000000476837","1","1","2","1,0.7,0,1,0.7,0,0.7,0,1",""
"","html-keyboard-response","270","192999","0.0-270.0","3KJYX6QCMAXY9YJDNK2DSQUXVVNVJF","A2ML0070M8FDK1","3KVQ0UJWPX71V463XQYDOZYIDLRW5D","","null","<img src=""img/animal4.png"" style=""width:200px; border:14px solid green;"">","null","","","","","",""
"","image-keyboard-response","271","194275","0.0-271.0","3KJYX6QCMAXY9YJDNK2DSQUXVVNVJF","A2ML0070M8FDK1","3KVQ0UJWPX71V463XQYDOZYIDLRW5D","","1276.0999999046326","img/animal6.png","76","1276.8000000715256","3","1","3","1,0.7,0,1,0.7,0,0.7,0,1",""
"","html-keyboard-response","272","194583","0.0-272.0","3KJYX6QCMAXY9YJDNK2DSQUXVVNVJF","A2ML0070M8FDK1","3KVQ0UJWPX71V463XQYDOZYIDLRW5D","","null","<img src=""img/animal6.png"" style=""width:200px; border:14px solid green;"">","null","","","","","",""
"","image-keyboard-response","273","195259","0.0-273.0","3KJYX6QCMAXY9YJDNK2DSQUXVVNVJF","A2ML0070M8FDK1","3KVQ0UJWPX71V463XQYDOZYIDLRW5D","","675.5","img/animal3.png","74","676.3000000715256","1","1","1","1,0.7,0,1,0.7,0,0.7,0,1",""
"","html-keyboard-response","274","195567","0.0-274.0","3KJYX6QCMAXY9YJDNK2DSQUXVVNVJF","A2ML0070M8FDK1","3KVQ0UJWPX71V463XQYDOZYIDLRW5D","","null","<img src=""img/animal3.png"" style=""width:200px; border:14px solid green;"">","null","","","","","",""
"","image-keyboard-response","275","196259","0.0-275.0","3KJYX6QCMAXY9YJDNK2DSQUXVVNVJF","A2ML0070M8FDK1","3KVQ0UJWPX71V463XQYDOZYIDLRW5D","","692","img/animal4.png","74","692.7000000476837","1","1","2","1,0.7,0,1,0.7,0,0.7,0,1",""
"","html-keyboard-response","276","196567","0.0-276.0","3KJYX6QCMAXY9YJDNK2DSQUXVVNVJF","A2ML0070M8FDK1","3KVQ0UJWPX71V463XQYDOZYIDLRW5D","","null","<img src=""img/animal4.png"" style=""width:200px; border:14px solid green;"">","null","","","","","",""
"","image-keyboard-response","277","197163","0.0-277.0","3KJYX6QCMAXY9YJDNK2DSQUXVVNVJF","A2ML0070M8FDK1","3KVQ0UJWPX71V463XQYDOZYIDLRW5D","","596.1000000238419","img/animal4.png","74","596.6000000238419","1","1","2","1,0.7,0,1,0.7,0,0.7,0,1",""
"","html-keyboard-response","278","197471","0.0-278.0","3KJYX6QCMAXY9YJDNK2DSQUXVVNVJF","A2ML0070M8FDK1","3KVQ0UJWPX71V463XQYDOZYIDLRW5D","","null","<img src=""img/animal4.png"" style=""width:200px; border:14px solid green;"">","null","","","","","",""
"","image-keyboard-response","279","198019","0.0-279.0","3KJYX6QCMAXY9YJDNK2DSQUXVVNVJF","A2ML0070M8FDK1","3KVQ0UJWPX71V463XQYDOZYIDLRW5D","","547.3999999761581","img/animal6.png","76","548.1000000238419","3","1","3","1,0.7,0,1,0.7,0,0.7,0,1",""
"","html-keyboard-response","280","198327","0.0-280.0","3KJYX6QCMAXY9YJDNK2DSQUXVVNVJF","A2ML0070M8FDK1","3KVQ0UJWPX71V463XQYDOZYIDLRW5D","","null","<img src=""img/animal6.png"" style=""width:200px; border:14px solid green;"">","null","","","","","",""
"","image-keyboard-response","281","198955","0.0-281.0","3KJYX6QCMAXY9YJDNK2DSQUXVVNVJF","A2ML0070M8FDK1","3KVQ0UJWPX71V463XQYDOZYIDLRW5D","","627.3999999761581","img/animal3.png","74","628.2000000476837","1","1","1","1,0.7,0,1,0.7,0,0.7,0,1",""
"","html-keyboard-response","282","199263","0.0-282.0","3KJYX6QCMAXY9YJDNK2DSQUXVVNVJF","A2ML0070M8FDK1","3KVQ0UJWPX71V463XQYDOZYIDLRW5D","","null","<img src=""img/animal3.png"" style=""width:200px; border:14px solid green;"">","null","","","","","",""
"","image-keyboard-response","283","200547","0.0-283.0","3KJYX6QCMAXY9YJDNK2DSQUXVVNVJF","A2ML0070M8FDK1","3KVQ0UJWPX71V463XQYDOZYIDLRW5D","","1283.3999999761581","img/animal6.png","76","1284.1999999284744","3","1","3","1,0.7,0,1,0.7,0,0.7,0,1",""
"","html-keyboard-response","284","200855","0.0-284.0","3KJYX6QCMAXY9YJDNK2DSQUXVVNVJF","A2ML0070M8FDK1","3KVQ0UJWPX71V463XQYDOZYIDLRW5D","","null","<img src=""img/animal6.png"" style=""width:200px; border:14px solid green;"">","null","","","","","",""
"","image-keyboard-response","285","201435","0.0-285.0","3KJYX6QCMAXY9YJDNK2DSQUXVVNVJF","A2ML0070M8FDK1","3KVQ0UJWPX71V463XQYDOZYIDLRW5D","","579.7000000476837","img/animal4.png","74","580.2999999523163","1","1","2","1,0.7,0,1,0.7,0,0.7,0,1",""
"","html-keyboard-response","286","201743","0.0-286.0","3KJYX6QCMAXY9YJDNK2DSQUXVVNVJF","A2ML0070M8FDK1","3KVQ0UJWPX71V463XQYDOZYIDLRW5D","","null","<img src=""img/animal4.png"" style=""width:200px; border:14px solid green;"">","null","","","","","",""
"","image-keyboard-response","287","202563","0.0-287.0","3KJYX6QCMAXY9YJDNK2DSQUXVVNVJF","A2ML0070M8FDK1","3KVQ0UJWPX71V463XQYDOZYIDLRW5D","","819.2999999523163","img/animal3.png","74","819.9000000953674","1","1","1","1,0.7,0,1,0.7,0,0.7,0,1",""
"","html-keyboard-response","288","202871","0.0-288.0","3KJYX6QCMAXY9YJDNK2DSQUXVVNVJF","A2ML0070M8FDK1","3KVQ0UJWPX71V463XQYDOZYIDLRW5D","","null","<img src=""img/animal3.png"" style=""width:200px; border:14px solid green;"">","null","","","","","",""
"","image-keyboard-response","289","203611","0.0-289.0","3KJYX6QCMAXY9YJDNK2DSQUXVVNVJF","A2ML0070M8FDK1","3KVQ0UJWPX71V463XQYDOZYIDLRW5D","","739.2999999523163","img/animal6.png","76","740","3","1","3","1,0.7,0,1,0.7,0,0.7,0,1",""
"","html-keyboard-response","290","203919","0.0-290.0","3KJYX6QCMAXY9YJDNK2DSQUXVVNVJF","A2ML0070M8FDK1","3KVQ0UJWPX71V463XQYDOZYIDLRW5D","","null","<img src=""img/animal6.png"" style=""width:200px; border:14px solid green;"">","null","","","","","",""
"","image-keyboard-response","291","204659","0.0-291.0","3KJYX6QCMAXY9YJDNK2DSQUXVVNVJF","A2ML0070M8FDK1","3KVQ0UJWPX71V463XQYDOZYIDLRW5D","","739.0999999046326","img/animal4.png","74","739.8000000715256","1","1","2","1,0.7,0,1,0.7,0,0.7,0,1",""
"","html-keyboard-response","292","204967","0.0-292.0","3KJYX6QCMAXY9YJDNK2DSQUXVVNVJF","A2ML0070M8FDK1","3KVQ0UJWPX71V463XQYDOZYIDLRW5D","","null","<img src=""img/animal4.png"" style=""width:200px; border:14px solid green;"">","null","","","","","",""
"","image-keyboard-response","293","205531","0.0-293.0","3KJYX6QCMAXY9YJDNK2DSQUXVVNVJF","A2ML0070M8FDK1","3KVQ0UJWPX71V463XQYDOZYIDLRW5D","","563.3000000715256","img/animal3.png","74","564.1000000238419","1","1","1","1,0.7,0,1,0.7,0,0.7,0,1",""
"","html-keyboard-response","294","205839","0.0-294.0","3KJYX6QCMAXY9YJDNK2DSQUXVVNVJF","A2ML0070M8FDK1","3KVQ0UJWPX71V463XQYDOZYIDLRW5D","","null","<img src=""img/animal3.png"" style=""width:200px; border:14px solid green;"">","null","","","","","",""
"","image-keyboard-response","295","206483","0.0-295.0","3KJYX6QCMAXY9YJDNK2DSQUXVVNVJF","A2ML0070M8FDK1","3KVQ0UJWPX71V463XQYDOZYIDLRW5D","","643","img/animal6.png","76","643.5","3","1","3","1,0.7,0,1,0.7,0,0.7,0,1",""
"","html-keyboard-response","296","206790","0.0-296.0","3KJYX6QCMAXY9YJDNK2DSQUXVVNVJF","A2ML0070M8FDK1","3KVQ0UJWPX71V463XQYDOZYIDLRW5D","","null","<img src=""img/animal6.png"" style=""width:200px; border:14px solid green;"">","null","","","","","",""
"","image-keyboard-response","297","207444","0.0-297.0","3KJYX6QCMAXY9YJDNK2DSQUXVVNVJF","A2ML0070M8FDK1","3KVQ0UJWPX71V463XQYDOZYIDLRW5D","","652.5","img/animal6.png","76","653.3999999761581","3","1","3","1,0.7,0,1,0.7,0,0.7,0,1",""
"","html-keyboard-response","298","207750","0.0-298.0","3KJYX6QCMAXY9YJDNK2DSQUXVVNVJF","A2ML0070M8FDK1","3KVQ0UJWPX71V463XQYDOZYIDLRW5D","","null","<img src=""img/animal6.png"" style=""width:200px; border:14px solid green;"">","null","","","","","",""
"","image-keyboard-response","299","208219","0.0-299.0","3KJYX6QCMAXY9YJDNK2DSQUXVVNVJF","A2ML0070M8FDK1","3KVQ0UJWPX71V463XQYDOZYIDLRW5D","","467.89999997615814","img/animal6.png","76","468.60000002384186","3","1","3","1,0.7,0,1,0.7,0,0.7,0,1",""
"","html-keyboard-response","300","208526","0.0-300.0","3KJYX6QCMAXY9YJDNK2DSQUXVVNVJF","A2ML0070M8FDK1","3KVQ0UJWPX71V463XQYDOZYIDLRW5D","","null","<img src=""img/animal6.png"" style=""width:200px; border:14px solid green;"">","null","","","","","",""
"","image-keyboard-response","301","209027","0.0-301.0","3KJYX6QCMAXY9YJDNK2DSQUXVVNVJF","A2ML0070M8FDK1","3KVQ0UJWPX71V463XQYDOZYIDLRW5D","","500.3000000715256","img/animal4.png","74","501","1","1","2","1,0.7,0,1,0.7,0,0.7,0,1",""
"","html-keyboard-response","302","209334","0.0-302.0","3KJYX6QCMAXY9YJDNK2DSQUXVVNVJF","A2ML0070M8FDK1","3KVQ0UJWPX71V463XQYDOZYIDLRW5D","","null","<img src=""img/animal4.png"" style=""width:200px; border:14px solid green;"">","null","","","","","",""
"","image-keyboard-response","303","209691","0.0-303.0","3KJYX6QCMAXY9YJDNK2DSQUXVVNVJF","A2ML0070M8FDK1","3KVQ0UJWPX71V463XQYDOZYIDLRW5D","","356.10000002384186","img/animal3.png","74","356.7999999523163","1","1","1","1,0.7,0,1,0.7,0,0.7,0,1",""
"","html-keyboard-response","304","209998","0.0-304.0","3KJYX6QCMAXY9YJDNK2DSQUXVVNVJF","A2ML0070M8FDK1","3KVQ0UJWPX71V463XQYDOZYIDLRW5D","","null","<img src=""img/animal3.png"" style=""width:200px; border:14px solid green;"">","null","","","","","",""
"","image-keyboard-response","305","210499","0.0-305.0","3KJYX6QCMAXY9YJDNK2DSQUXVVNVJF","A2ML0070M8FDK1","3KVQ0UJWPX71V463XQYDOZYIDLRW5D","","500.2000000476837","img/animal3.png","74","500.7999999523163","1","1","1","1,0.7,0,1,0.7,0,0.7,0,1",""
"","html-keyboard-response","306","210806","0.0-306.0","3KJYX6QCMAXY9YJDNK2DSQUXVVNVJF","A2ML0070M8FDK1","3KVQ0UJWPX71V463XQYDOZYIDLRW5D","","null","<img src=""img/animal3.png"" style=""width:200px; border:14px solid green;"">","null","","","","","",""
"","image-keyboard-response","307","211227","0.0-307.0","3KJYX6QCMAXY9YJDNK2DSQUXVVNVJF","A2ML0070M8FDK1","3KVQ0UJWPX71V463XQYDOZYIDLRW5D","","419.7999999523163","img/animal3.png","74","420.60000002384186","1","1","1","1,0.7,0,1,0.7,0,0.7,0,1",""
"","html-keyboard-response","308","211534","0.0-308.0","3KJYX6QCMAXY9YJDNK2DSQUXVVNVJF","A2ML0070M8FDK1","3KVQ0UJWPX71V463XQYDOZYIDLRW5D","","null","<img src=""img/animal3.png"" style=""width:200px; border:14px solid green;"">","null","","","","","",""
"","image-keyboard-response","309","212163","0.0-309.0","3KJYX6QCMAXY9YJDNK2DSQUXVVNVJF","A2ML0070M8FDK1","3KVQ0UJWPX71V463XQYDOZYIDLRW5D","","627.7000000476837","img/animal6.png","76","628.3999999761581","3","1","3","1,0.7,0,1,0.7,0,0.7,0,1",""
"","html-keyboard-response","310","212470","0.0-310.0","3KJYX6QCMAXY9YJDNK2DSQUXVVNVJF","A2ML0070M8FDK1","3KVQ0UJWPX71V463XQYDOZYIDLRW5D","","null","<img src=""img/animal6.png"" style=""width:200px; border:14px solid green;"">","null","","","","","",""
"","image-keyboard-response","311","212835","0.0-311.0","3KJYX6QCMAXY9YJDNK2DSQUXVVNVJF","A2ML0070M8FDK1","3KVQ0UJWPX71V463XQYDOZYIDLRW5D","","363.60000002384186","img/animal6.png","76","364.2000000476837","3","1","3","1,0.7,0,1,0.7,0,0.7,0,1",""
"","html-keyboard-response","312","213142","0.0-312.0","3KJYX6QCMAXY9YJDNK2DSQUXVVNVJF","A2ML0070M8FDK1","3KVQ0UJWPX71V463XQYDOZYIDLRW5D","","null","<img src=""img/animal6.png"" style=""width:200px; border:14px solid green;"">","null","","","","","",""
"","image-keyboard-response","313","213539","0.0-313.0","3KJYX6QCMAXY9YJDNK2DSQUXVVNVJF","A2ML0070M8FDK1","3KVQ0UJWPX71V463XQYDOZYIDLRW5D","","395.6999999284744","img/animal6.png","76","396.39999997615814","3","1","3","1,0.7,0,1,0.7,0,0.7,0,1",""
"","html-keyboard-response","314","213846","0.0-314.0","3KJYX6QCMAXY9YJDNK2DSQUXVVNVJF","A2ML0070M8FDK1","3KVQ0UJWPX71V463XQYDOZYIDLRW5D","","null","<img src=""img/animal6.png"" style=""width:200px; border:14px solid green;"">","null","","","","","",""
"","image-keyboard-response","315","214411","0.0-315.0","3KJYX6QCMAXY9YJDNK2DSQUXVVNVJF","A2ML0070M8FDK1","3KVQ0UJWPX71V463XQYDOZYIDLRW5D","","564","img/animal4.png","74","564.7000000476837","1","1","2","1,0.7,0,1,0.7,0,0.7,0,1",""
"","html-keyboard-response","316","214721","0.0-316.0","3KJYX6QCMAXY9YJDNK2DSQUXVVNVJF","A2ML0070M8FDK1","3KVQ0UJWPX71V463XQYDOZYIDLRW5D","","null","<img src=""img/animal4.png"" style=""width:200px; border:14px solid green;"">","null","","","","","",""
"","image-keyboard-response","317","215275","0.0-317.0","3KJYX6QCMAXY9YJDNK2DSQUXVVNVJF","A2ML0070M8FDK1","3KVQ0UJWPX71V463XQYDOZYIDLRW5D","","553.3999999761581","img/animal3.png","74","554","1","1","1","1,0.7,0,1,0.7,0,0.7,0,1",""
"","html-keyboard-response","318","215582","0.0-318.0","3KJYX6QCMAXY9YJDNK2DSQUXVVNVJF","A2ML0070M8FDK1","3KVQ0UJWPX71V463XQYDOZYIDLRW5D","","null","<img src=""img/animal3.png"" style=""width:200px; border:14px solid green;"">","null","","","","","",""
"","image-keyboard-response","319","216083","0.0-319.0","3KJYX6QCMAXY9YJDNK2DSQUXVVNVJF","A2ML0070M8FDK1","3KVQ0UJWPX71V463XQYDOZYIDLRW5D","","499.7000000476837","img/animal3.png","74","500.1999999284744","1","1","1","1,0.7,0,1,0.7,0,0.7,0,1",""
"","html-keyboard-response","320","216390","0.0-320.0","3KJYX6QCMAXY9YJDNK2DSQUXVVNVJF","A2ML0070M8FDK1","3KVQ0UJWPX71V463XQYDOZYIDLRW5D","","null","<img src=""img/animal3.png"" style=""width:200px; border:14px solid green;"">","null","","","","","",""
"","image-keyboard-response","321","216724","0.0-321.0","3KJYX6QCMAXY9YJDNK2DSQUXVVNVJF","A2ML0070M8FDK1","3KVQ0UJWPX71V463XQYDOZYIDLRW5D","","333.10000002384186","img/animal3.png","74","333.8000000715256","1","1","1","1,0.7,0,1,0.7,0,0.7,0,1",""
"","html-keyboard-response","322","217030","0.0-322.0","3KJYX6QCMAXY9YJDNK2DSQUXVVNVJF","A2ML0070M8FDK1","3KVQ0UJWPX71V463XQYDOZYIDLRW5D","","null","<img src=""img/animal3.png"" style=""width:200px; border:14px solid green;"">","null","","","","","",""
"","image-keyboard-response","323","217531","0.0-323.0","3KJYX6QCMAXY9YJDNK2DSQUXVVNVJF","A2ML0070M8FDK1","3KVQ0UJWPX71V463XQYDOZYIDLRW5D","","499.89999997615814","img/animal4.png","74","500.60000002384186","1","1","2","1,0.7,0,1,0.7,0,0.7,0,1",""
"","html-keyboard-response","324","217838","0.0-324.0","3KJYX6QCMAXY9YJDNK2DSQUXVVNVJF","A2ML0070M8FDK1","3KVQ0UJWPX71V463XQYDOZYIDLRW5D","","null","<img src=""img/animal4.png"" style=""width:200px; border:14px solid green;"">","null","","","","","",""
"","image-keyboard-response","325","218227","0.0-325.0","3KJYX6QCMAXY9YJDNK2DSQUXVVNVJF","A2ML0070M8FDK1","3KVQ0UJWPX71V463XQYDOZYIDLRW5D","","387.60000002384186","img/animal4.png","74","388.10000002384186","1","1","2","1,0.7,0,1,0.7,0,0.7,0,1",""
"","html-keyboard-response","326","218535","0.0-326.0","3KJYX6QCMAXY9YJDNK2DSQUXVVNVJF","A2ML0070M8FDK1","3KVQ0UJWPX71V463XQYDOZYIDLRW5D","","null","<img src=""img/animal4.png"" style=""width:200px; border:14px solid green;"">","null","","","","","",""
"","image-keyboard-response","327","219067","0.0-327.0","3KJYX6QCMAXY9YJDNK2DSQUXVVNVJF","A2ML0070M8FDK1","3KVQ0UJWPX71V463XQYDOZYIDLRW5D","","531.6999999284744","img/animal6.png","76","532.2000000476837","3","1","3","1,0.7,0,1,0.7,0,0.7,0,1",""
"","html-keyboard-response","328","219375","0.0-328.0","3KJYX6QCMAXY9YJDNK2DSQUXVVNVJF","A2ML0070M8FDK1","3KVQ0UJWPX71V463XQYDOZYIDLRW5D","","null","<img src=""img/animal6.png"" style=""width:200px; border:14px solid green;"">","null","","","","","",""
"","image-keyboard-response","329","219947","0.0-329.0","3KJYX6QCMAXY9YJDNK2DSQUXVVNVJF","A2ML0070M8FDK1","3KVQ0UJWPX71V463XQYDOZYIDLRW5D","","571.2000000476837","img/animal4.png","74","571.8999999761581","1","1","2","1,0.7,0,1,0.7,0,0.7,0,1",""
"","html-keyboard-response","330","220255","0.0-330.0","3KJYX6QCMAXY9YJDNK2DSQUXVVNVJF","A2ML0070M8FDK1","3KVQ0UJWPX71V463XQYDOZYIDLRW5D","","null","<img src=""img/animal4.png"" style=""width:200px; border:14px solid green;"">","null","","","","","",""
"","image-keyboard-response","331","220699","0.0-331.0","3KJYX6QCMAXY9YJDNK2DSQUXVVNVJF","A2ML0070M8FDK1","3KVQ0UJWPX71V463XQYDOZYIDLRW5D","","443.7999999523163","img/animal4.png","74","444.39999997615814","1","1","2","1,0.7,0,1,0.7,0,0.7,0,1",""
"","html-keyboard-response","332","221007","0.0-332.0","3KJYX6QCMAXY9YJDNK2DSQUXVVNVJF","A2ML0070M8FDK1","3KVQ0UJWPX71V463XQYDOZYIDLRW5D","","null","<img src=""img/animal4.png"" style=""width:200px; border:14px solid green;"">","null","","","","","",""
"","image-keyboard-response","333","221787","0.0-333.0","3KJYX6QCMAXY9YJDNK2DSQUXVVNVJF","A2ML0070M8FDK1","3KVQ0UJWPX71V463XQYDOZYIDLRW5D","","779.2000000476837","img/animal3.png","74","780","1","1","1","1,0.7,0,1,0.7,0,0.7,0,1",""
"","html-keyboard-response","334","222095","0.0-334.0","3KJYX6QCMAXY9YJDNK2DSQUXVVNVJF","A2ML0070M8FDK1","3KVQ0UJWPX71V463XQYDOZYIDLRW5D","","null","<img src=""img/animal3.png"" style=""width:200px; border:14px solid green;"">","null","","","","","",""
"","image-keyboard-response","335","222635","0.0-335.0","3KJYX6QCMAXY9YJDNK2DSQUXVVNVJF","A2ML0070M8FDK1","3KVQ0UJWPX71V463XQYDOZYIDLRW5D","","539.6000000238419","img/animal6.png","74","540.2000000476837","1","1","3","1,0.7,0,1,0.7,0,0.7,0,1",""
"","html-keyboard-response","336","222943","0.0-336.0","3KJYX6QCMAXY9YJDNK2DSQUXVVNVJF","A2ML0070M8FDK1","3KVQ0UJWPX71V463XQYDOZYIDLRW5D","","null","<img src=""img/animal6.png"" style=""width:200px; border:14px solid green;"">","null","","","","","",""
"","image-keyboard-response","337","224475","0.0-337.0","3KJYX6QCMAXY9YJDNK2DSQUXVVNVJF","A2ML0070M8FDK1","3KVQ0UJWPX71V463XQYDOZYIDLRW5D","","1531.1000000238419","img/animal4.png","74","1531.6000000238419","1","1","2","1,0.7,0,1,0.7,0,0.7,0,1",""
"","html-keyboard-response","338","224783","0.0-338.0","3KJYX6QCMAXY9YJDNK2DSQUXVVNVJF","A2ML0070M8FDK1","3KVQ0UJWPX71V463XQYDOZYIDLRW5D","","null","<img src=""img/animal4.png"" style=""width:200px; border:14px solid green;"">","null","","","","","",""
"","image-keyboard-response","339","225483","0.0-339.0","3KJYX6QCMAXY9YJDNK2DSQUXVVNVJF","A2ML0070M8FDK1","3KVQ0UJWPX71V463XQYDOZYIDLRW5D","","699","img/animal4.png","74","699.6999999284744","1","1","2","1,0.7,0,1,0.7,0,0.7,0,1",""
"","html-keyboard-response","340","225791","0.0-340.0","3KJYX6QCMAXY9YJDNK2DSQUXVVNVJF","A2ML0070M8FDK1","3KVQ0UJWPX71V463XQYDOZYIDLRW5D","","null","<img src=""img/animal4.png"" style=""width:200px; border:14px solid green;"">","null","","","","","",""
"","image-keyboard-response","341","226219","0.0-341.0","3KJYX6QCMAXY9YJDNK2DSQUXVVNVJF","A2ML0070M8FDK1","3KVQ0UJWPX71V463XQYDOZYIDLRW5D","","426.7999999523163","img/animal4.png","74","427.5","1","1","2","1,0.7,0,1,0.7,0,0.7,0,1",""
"","html-keyboard-response","342","226527","0.0-342.0","3KJYX6QCMAXY9YJDNK2DSQUXVVNVJF","A2ML0070M8FDK1","3KVQ0UJWPX71V463XQYDOZYIDLRW5D","","null","<img src=""img/animal4.png"" style=""width:200px; border:14px solid green;"">","null","","","","","",""
"","image-keyboard-response","343","226931","0.0-343.0","3KJYX6QCMAXY9YJDNK2DSQUXVVNVJF","A2ML0070M8FDK1","3KVQ0UJWPX71V463XQYDOZYIDLRW5D","","403.1999999284744","img/animal4.png","74","403.8000000715256","1","1","2","1,0.7,0,1,0.7,0,0.7,0,1",""
"","html-keyboard-response","344","227239","0.0-344.0","3KJYX6QCMAXY9YJDNK2DSQUXVVNVJF","A2ML0070M8FDK1","3KVQ0UJWPX71V463XQYDOZYIDLRW5D","","null","<img src=""img/animal4.png"" style=""width:200px; border:14px solid green;"">","null","","","","","",""
"","image-keyboard-response","345","228356","0.0-345.0","3KJYX6QCMAXY9YJDNK2DSQUXVVNVJF","A2ML0070M8FDK1","3KVQ0UJWPX71V463XQYDOZYIDLRW5D","","1115.5","img/animal3.png","74","1116.1000000238419","1","1","1","1,0.7,0,1,0.7,0,0.7,0,1",""
"","html-keyboard-response","346","228664","0.0-346.0","3KJYX6QCMAXY9YJDNK2DSQUXVVNVJF","A2ML0070M8FDK1","3KVQ0UJWPX71V463XQYDOZYIDLRW5D","","null","<img src=""img/animal3.png"" style=""width:200px; border:14px solid green;"">","null","","","","","",""
"","image-keyboard-response","347","229123","0.0-347.0","3KJYX6QCMAXY9YJDNK2DSQUXVVNVJF","A2ML0070M8FDK1","3KVQ0UJWPX71V463XQYDOZYIDLRW5D","","458.7999999523163","img/animal3.png","74","459.5","1","1","1","1,0.7,0,1,0.7,0,0.7,0,1",""
"","html-keyboard-response","348","229431","0.0-348.0","3KJYX6QCMAXY9YJDNK2DSQUXVVNVJF","A2ML0070M8FDK1","3KVQ0UJWPX71V463XQYDOZYIDLRW5D","","null","<img src=""img/animal3.png"" style=""width:200px; border:14px solid green;"">","null","","","","","",""
"","image-keyboard-response","349","230099","0.0-349.0","3KJYX6QCMAXY9YJDNK2DSQUXVVNVJF","A2ML0070M8FDK1","3KVQ0UJWPX71V463XQYDOZYIDLRW5D","","668","img/animal4.png","74","668.6000000238419","1","1","2","1,0.7,0,1,0.7,0,0.7,0,1",""
"","html-keyboard-response","350","230407","0.0-350.0","3KJYX6QCMAXY9YJDNK2DSQUXVVNVJF","A2ML0070M8FDK1","3KVQ0UJWPX71V463XQYDOZYIDLRW5D","","null","<img src=""img/animal4.png"" style=""width:200px; border:14px solid green;"">","null","","","","","",""
"","image-keyboard-response","351","230931","0.0-351.0","3KJYX6QCMAXY9YJDNK2DSQUXVVNVJF","A2ML0070M8FDK1","3KVQ0UJWPX71V463XQYDOZYIDLRW5D","","523.7999999523163","img/animal3.png","74","524.3999999761581","1","1","1","1,0.7,0,1,0.7,0,0.7,0,1",""
"","html-keyboard-response","352","231239","0.0-352.0","3KJYX6QCMAXY9YJDNK2DSQUXVVNVJF","A2ML0070M8FDK1","3KVQ0UJWPX71V463XQYDOZYIDLRW5D","","null","<img src=""img/animal3.png"" style=""width:200px; border:14px solid green;"">","null","","","","","",""
"","image-keyboard-response","353","231859","0.0-353.0","3KJYX6QCMAXY9YJDNK2DSQUXVVNVJF","A2ML0070M8FDK1","3KVQ0UJWPX71V463XQYDOZYIDLRW5D","","620","img/animal6.png","76","620.3999999761581","3","1","3","1,0.7,0,1,0.7,0,0.7,0,1",""
"","html-keyboard-response","354","232167","0.0-354.0","3KJYX6QCMAXY9YJDNK2DSQUXVVNVJF","A2ML0070M8FDK1","3KVQ0UJWPX71V463XQYDOZYIDLRW5D","","null","<img src=""img/animal6.png"" style=""width:200px; border:14px solid green;"">","null","","","","","",""
"","image-keyboard-response","355","232923","0.0-355.0","3KJYX6QCMAXY9YJDNK2DSQUXVVNVJF","A2ML0070M8FDK1","3KVQ0UJWPX71V463XQYDOZYIDLRW5D","","755.8999999761581","img/animal4.png","74","756.5","1","1","2","1,0.7,0,1,0.7,0,0.7,0,1",""
"","html-keyboard-response","356","233231","0.0-356.0","3KJYX6QCMAXY9YJDNK2DSQUXVVNVJF","A2ML0070M8FDK1","3KVQ0UJWPX71V463XQYDOZYIDLRW5D","","null","<img src=""img/animal4.png"" style=""width:200px; border:14px solid green;"">","null","","","","","",""
"","image-keyboard-response","357","234539","0.0-357.0","3KJYX6QCMAXY9YJDNK2DSQUXVVNVJF","A2ML0070M8FDK1","3KVQ0UJWPX71V463XQYDOZYIDLRW5D","","1307.6000000238419","img/animal3.png","74","1308.2999999523163","1","1","1","1,0.7,0,1,0.7,0,0.7,0,1",""
"","html-keyboard-response","358","234847","0.0-358.0","3KJYX6QCMAXY9YJDNK2DSQUXVVNVJF","A2ML0070M8FDK1","3KVQ0UJWPX71V463XQYDOZYIDLRW5D","","null","<img src=""img/animal3.png"" style=""width:200px; border:14px solid green;"">","null","","","","","",""
"","image-keyboard-response","359","235347","0.0-359.0","3KJYX6QCMAXY9YJDNK2DSQUXVVNVJF","A2ML0070M8FDK1","3KVQ0UJWPX71V463XQYDOZYIDLRW5D","","499.6999999284744","img/animal3.png","74","500.39999997615814","1","1","1","1,0.7,0,1,0.7,0,0.7,0,1",""
"","html-keyboard-response","360","235655","0.0-360.0","3KJYX6QCMAXY9YJDNK2DSQUXVVNVJF","A2ML0070M8FDK1","3KVQ0UJWPX71V463XQYDOZYIDLRW5D","","null","<img src=""img/animal3.png"" style=""width:200px; border:14px solid green;"">","null","","","","","",""
"","image-keyboard-response","361","236123","0.0-361.0","3KJYX6QCMAXY9YJDNK2DSQUXVVNVJF","A2ML0070M8FDK1","3KVQ0UJWPX71V463XQYDOZYIDLRW5D","","467.5","img/animal3.png","74","468.10000002384186","1","1","1","1,0.7,0,1,0.7,0,0.7,0,1",""
"","html-keyboard-response","362","236431","0.0-362.0","3KJYX6QCMAXY9YJDNK2DSQUXVVNVJF","A2ML0070M8FDK1","3KVQ0UJWPX71V463XQYDOZYIDLRW5D","","null","<img src=""img/animal3.png"" style=""width:200px; border:14px solid green;"">","null","","","","","",""
"","instructions","363","239672","0.0-363.0","3KJYX6QCMAXY9YJDNK2DSQUXVVNVJF","A2ML0070M8FDK1","3KVQ0UJWPX71V463XQYDOZYIDLRW5D","[{""page_index"":0,""viewing_time"":3240}]","3240.2000000476837","","","","","","","",""
"","survey-text","364","244160","0.0-364.0","3KJYX6QCMAXY9YJDNK2DSQUXVVNVJF","A2ML0070M8FDK1","3KVQ0UJWPX71V463XQYDOZYIDLRW5D","","4486","","","","","","","","{""Q0"":""A2ML0070M8FDK1""}"
