"success","trial_type","trial_index","time_elapsed","internal_node_id","assignmentID","mturkID","hitID","view_history","rt","stimulus","key_press","reactionTime","chosenAction","reward","responses"
"true","fullscreen","0","6315","0.0-0.0","3KKG4CDWKJKA99NPHCADU6GHJS994M","A2MWAXV1YRK5GH","3SBNLSTU6UR0TCQ1NJ03LFGS7YQZDZ","","","","","","","",""
"","instructions","1","51387","0.0-1.0","3KKG4CDWKJKA99NPHCADU6GHJS994M","A2MWAXV1YRK5GH","3SBNLSTU6UR0TCQ1NJ03LFGS7YQZDZ","[{""page_index"":0,""viewing_time"":8135.5999999996275},{""page_index"":1,""viewing_time"":4590.200000000186},{""page_index"":2,""viewing_time"":3510},{""page_index"":3,""viewing_time"":5142},{""page_index"":4,""viewing_time"":5858},{""page_index"":5,""viewing_time"":6039.799999999814},{""page_index"":6,""viewing_time"":8454.400000000373},{""page_index"":7,""viewing_time"":3341.9000000003725}]","45072.299999999814","","","","","",""
"","image-keyboard-response","2","59736","0.0-2.0","3KKG4CDWKJKA99NPHCADU6GHJS994M","A2MWAXV1YRK5GH","3SBNLSTU6UR0TCQ1NJ03LFGS7YQZDZ","","8348.700000000186","img/animal4.png","74","8349.5","74","0",""
"","html-keyboard-response","3","60041","0.0-3.0","3KKG4CDWKJKA99NPHCADU6GHJS994M","A2MWAXV1YRK5GH","3SBNLSTU6UR0TCQ1NJ03LFGS7YQZDZ","","null","<img src=""img/animal4.png"" style=""width:200px;border:14px solid red;"">","null","","","",""
"","image-keyboard-response","4","64161","0.0-4.0","3KKG4CDWKJKA99NPHCADU6GHJS994M","A2MWAXV1YRK5GH","3SBNLSTU6UR0TCQ1NJ03LFGS7YQZDZ","","4119.600000000559","img/animal6.png","74","4120.299999999814","74","0",""
"","html-keyboard-response","5","64465","0.0-5.0","3KKG4CDWKJKA99NPHCADU6GHJS994M","A2MWAXV1YRK5GH","3SBNLSTU6UR0TCQ1NJ03LFGS7YQZDZ","","null","<img src=""img/animal6.png"" style=""width:200px;border:14px solid red;"">","null","","","",""
"","image-keyboard-response","6","68736","0.0-6.0","3KKG4CDWKJKA99NPHCADU6GHJS994M","A2MWAXV1YRK5GH","3SBNLSTU6UR0TCQ1NJ03LFGS7YQZDZ","","4270.399999999441","img/animal5.png","74","4270.799999999814","74","1",""
"","html-keyboard-response","7","69041","0.0-7.0","3KKG4CDWKJKA99NPHCADU6GHJS994M","A2MWAXV1YRK5GH","3SBNLSTU6UR0TCQ1NJ03LFGS7YQZDZ","","null","<img src=""img/animal5.png"" style=""width:200px; border:14px solid green;"">","null","","","",""
"","image-keyboard-response","8","70957","0.0-8.0","3KKG4CDWKJKA99NPHCADU6GHJS994M","A2MWAXV1YRK5GH","3SBNLSTU6UR0TCQ1NJ03LFGS7YQZDZ","","1914.6000000005588","img/animal5.png","74","1915.2000000001863","74","1",""
"","html-keyboard-response","9","71265","0.0-9.0","3KKG4CDWKJKA99NPHCADU6GHJS994M","A2MWAXV1YRK5GH","3SBNLSTU6UR0TCQ1NJ03LFGS7YQZDZ","","null","<img src=""img/animal5.png"" style=""width:200px; border:14px solid green;"">","null","","","",""
"","image-keyboard-response","10","72785","0.0-10.0","3KKG4CDWKJKA99NPHCADU6GHJS994M","A2MWAXV1YRK5GH","3SBNLSTU6UR0TCQ1NJ03LFGS7YQZDZ","","1520.1000000005588","img/animal6.png","75","1520.7000000001863","75","1",""
"","html-keyboard-response","11","73089","0.0-11.0","3KKG4CDWKJKA99NPHCADU6GHJS994M","A2MWAXV1YRK5GH","3SBNLSTU6UR0TCQ1NJ03LFGS7YQZDZ","","null","<img src=""img/animal6.png"" style=""width:200px; border:14px solid green;"">","null","","","",""
"","image-keyboard-response","12","78787","0.0-12.0","3KKG4CDWKJKA99NPHCADU6GHJS994M","A2MWAXV1YRK5GH","3SBNLSTU6UR0TCQ1NJ03LFGS7YQZDZ","","5697.399999999441","img/animal6.png","75","5698.100000000559","75","1",""
"","html-keyboard-response","13","79095","0.0-13.0","3KKG4CDWKJKA99NPHCADU6GHJS994M","A2MWAXV1YRK5GH","3SBNLSTU6UR0TCQ1NJ03LFGS7YQZDZ","","null","<img src=""img/animal6.png"" style=""width:200px; border:14px solid green;"">","null","","","",""
"","image-keyboard-response","14","82867","0.0-14.0","3KKG4CDWKJKA99NPHCADU6GHJS994M","A2MWAXV1YRK5GH","3SBNLSTU6UR0TCQ1NJ03LFGS7YQZDZ","","3770.699999999255","img/animal4.png","76","3771.2000000001863","76","0",""
"","html-keyboard-response","15","83177","0.0-15.0","3KKG4CDWKJKA99NPHCADU6GHJS994M","A2MWAXV1YRK5GH","3SBNLSTU6UR0TCQ1NJ03LFGS7YQZDZ","","null","<img src=""img/animal4.png"" style=""width:200px;border:14px solid red;"">","null","","","",""
"","image-keyboard-response","16","85822","0.0-16.0","3KKG4CDWKJKA99NPHCADU6GHJS994M","A2MWAXV1YRK5GH","3SBNLSTU6UR0TCQ1NJ03LFGS7YQZDZ","","2644","img/animal5.png","74","2644.7999999998137","74","1",""
"","html-keyboard-response","17","86128","0.0-17.0","3KKG4CDWKJKA99NPHCADU6GHJS994M","A2MWAXV1YRK5GH","3SBNLSTU6UR0TCQ1NJ03LFGS7YQZDZ","","null","<img src=""img/animal5.png"" style=""width:200px; border:14px solid green;"">","null","","","",""
"","image-keyboard-response","18","86722","0.0-18.0","3KKG4CDWKJKA99NPHCADU6GHJS994M","A2MWAXV1YRK5GH","3SBNLSTU6UR0TCQ1NJ03LFGS7YQZDZ","","592.7000000001863","img/animal5.png","74","593.1999999992549","74","1",""
"","html-keyboard-response","19","87024","0.0-19.0","3KKG4CDWKJKA99NPHCADU6GHJS994M","A2MWAXV1YRK5GH","3SBNLSTU6UR0TCQ1NJ03LFGS7YQZDZ","","null","<img src=""img/animal5.png"" style=""width:200px; border:14px solid green;"">","null","","","",""
"","image-keyboard-response","20","87547","0.0-20.0","3KKG4CDWKJKA99NPHCADU6GHJS994M","A2MWAXV1YRK5GH","3SBNLSTU6UR0TCQ1NJ03LFGS7YQZDZ","","522.5999999996275","img/animal5.png","74","523.0999999996275","74","1",""
"","html-keyboard-response","21","87856","0.0-21.0","3KKG4CDWKJKA99NPHCADU6GHJS994M","A2MWAXV1YRK5GH","3SBNLSTU6UR0TCQ1NJ03LFGS7YQZDZ","","null","<img src=""img/animal5.png"" style=""width:200px; border:14px solid green;"">","null","","","",""
"","image-keyboard-response","22","88372","0.0-22.0","3KKG4CDWKJKA99NPHCADU6GHJS994M","A2MWAXV1YRK5GH","3SBNLSTU6UR0TCQ1NJ03LFGS7YQZDZ","","515.1000000005588","img/animal5.png","74","515.6000000005588","74","0",""
"","html-keyboard-response","23","88680","0.0-23.0","3KKG4CDWKJKA99NPHCADU6GHJS994M","A2MWAXV1YRK5GH","3SBNLSTU6UR0TCQ1NJ03LFGS7YQZDZ","","null","<img src=""img/animal5.png"" style=""width:200px;border:14px solid red;"">","null","","","",""
"","image-keyboard-response","24","89362","0.0-24.0","3KKG4CDWKJKA99NPHCADU6GHJS994M","A2MWAXV1YRK5GH","3SBNLSTU6UR0TCQ1NJ03LFGS7YQZDZ","","681.3000000007451","img/animal5.png","74","681.9000000003725","74","1",""
"","html-keyboard-response","25","89672","0.0-25.0","3KKG4CDWKJKA99NPHCADU6GHJS994M","A2MWAXV1YRK5GH","3SBNLSTU6UR0TCQ1NJ03LFGS7YQZDZ","","null","<img src=""img/animal5.png"" style=""width:200px; border:14px solid green;"">","null","","","",""
"","image-keyboard-response","26","90157","0.0-26.0","3KKG4CDWKJKA99NPHCADU6GHJS994M","A2MWAXV1YRK5GH","3SBNLSTU6UR0TCQ1NJ03LFGS7YQZDZ","","484.40000000037253","img/animal5.png","74","484.90000000037253","74","0",""
"","html-keyboard-response","27","90463","0.0-27.0","3KKG4CDWKJKA99NPHCADU6GHJS994M","A2MWAXV1YRK5GH","3SBNLSTU6UR0TCQ1NJ03LFGS7YQZDZ","","null","<img src=""img/animal5.png"" style=""width:200px;border:14px solid red;"">","null","","","",""
"","image-keyboard-response","28","92497","0.0-28.0","3KKG4CDWKJKA99NPHCADU6GHJS994M","A2MWAXV1YRK5GH","3SBNLSTU6UR0TCQ1NJ03LFGS7YQZDZ","","2032.7999999998137","img/animal6.png","75","2033.4000000003725","75","1",""
"","html-keyboard-response","29","92800","0.0-29.0","3KKG4CDWKJKA99NPHCADU6GHJS994M","A2MWAXV1YRK5GH","3SBNLSTU6UR0TCQ1NJ03LFGS7YQZDZ","","null","<img src=""img/animal6.png"" style=""width:200px; border:14px solid green;"">","null","","","",""
"","image-keyboard-response","30","94072","0.0-30.0","3KKG4CDWKJKA99NPHCADU6GHJS994M","A2MWAXV1YRK5GH","3SBNLSTU6UR0TCQ1NJ03LFGS7YQZDZ","","1271.2000000001863","img/animal4.png","76","1271.5999999996275","76","0",""
"","html-keyboard-response","31","94376","0.0-31.0","3KKG4CDWKJKA99NPHCADU6GHJS994M","A2MWAXV1YRK5GH","3SBNLSTU6UR0TCQ1NJ03LFGS7YQZDZ","","null","<img src=""img/animal4.png"" style=""width:200px;border:14px solid red;"">","null","","","",""
"","image-keyboard-response","32","96277","0.0-32.0","3KKG4CDWKJKA99NPHCADU6GHJS994M","A2MWAXV1YRK5GH","3SBNLSTU6UR0TCQ1NJ03LFGS7YQZDZ","","1900.2999999998137","img/animal6.png","75","1900.800000000745","75","1",""
"","html-keyboard-response","33","96583","0.0-33.0","3KKG4CDWKJKA99NPHCADU6GHJS994M","A2MWAXV1YRK5GH","3SBNLSTU6UR0TCQ1NJ03LFGS7YQZDZ","","null","<img src=""img/animal6.png"" style=""width:200px; border:14px solid green;"">","null","","","",""
"","image-keyboard-response","34","97462","0.0-34.0","3KKG4CDWKJKA99NPHCADU6GHJS994M","A2MWAXV1YRK5GH","3SBNLSTU6UR0TCQ1NJ03LFGS7YQZDZ","","877.7999999998137","img/animal4.png","76","878.5","76","0",""
"","html-keyboard-response","35","97768","0.0-35.0","3KKG4CDWKJKA99NPHCADU6GHJS994M","A2MWAXV1YRK5GH","3SBNLSTU6UR0TCQ1NJ03LFGS7YQZDZ","","null","<img src=""img/animal4.png"" style=""width:200px;border:14px solid red;"">","null","","","",""
"","image-keyboard-response","36","98527","0.0-36.0","3KKG4CDWKJKA99NPHCADU6GHJS994M","A2MWAXV1YRK5GH","3SBNLSTU6UR0TCQ1NJ03LFGS7YQZDZ","","758","img/animal6.png","75","758.7000000001863","75","1",""
"","html-keyboard-response","37","98832","0.0-37.0","3KKG4CDWKJKA99NPHCADU6GHJS994M","A2MWAXV1YRK5GH","3SBNLSTU6UR0TCQ1NJ03LFGS7YQZDZ","","null","<img src=""img/animal6.png"" style=""width:200px; border:14px solid green;"">","null","","","",""
"","image-keyboard-response","38","100912","0.0-38.0","3KKG4CDWKJKA99NPHCADU6GHJS994M","A2MWAXV1YRK5GH","3SBNLSTU6UR0TCQ1NJ03LFGS7YQZDZ","","2079.5","img/animal4.png","75","2080.100000000559","75","0",""
"","html-keyboard-response","39","101215","0.0-39.0","3KKG4CDWKJKA99NPHCADU6GHJS994M","A2MWAXV1YRK5GH","3SBNLSTU6UR0TCQ1NJ03LFGS7YQZDZ","","null","<img src=""img/animal4.png"" style=""width:200px;border:14px solid red;"">","null","","","",""
"","image-keyboard-response","40","102263","0.0-40.0","3KKG4CDWKJKA99NPHCADU6GHJS994M","A2MWAXV1YRK5GH","3SBNLSTU6UR0TCQ1NJ03LFGS7YQZDZ","","1046.699999999255","img/animal5.png","74","1047.2000000001863","74","1",""
"","html-keyboard-response","41","102568","0.0-41.0","3KKG4CDWKJKA99NPHCADU6GHJS994M","A2MWAXV1YRK5GH","3SBNLSTU6UR0TCQ1NJ03LFGS7YQZDZ","","null","<img src=""img/animal5.png"" style=""width:200px; border:14px solid green;"">","null","","","",""
"","image-keyboard-response","42","103643","0.0-42.0","3KKG4CDWKJKA99NPHCADU6GHJS994M","A2MWAXV1YRK5GH","3SBNLSTU6UR0TCQ1NJ03LFGS7YQZDZ","","1074.300000000745","img/animal4.png","76","1074.7000000001863","76","0",""
"","html-keyboard-response","43","103952","0.0-43.0","3KKG4CDWKJKA99NPHCADU6GHJS994M","A2MWAXV1YRK5GH","3SBNLSTU6UR0TCQ1NJ03LFGS7YQZDZ","","null","<img src=""img/animal4.png"" style=""width:200px;border:14px solid red;"">","null","","","",""
"","image-keyboard-response","44","105262","0.0-44.0","3KKG4CDWKJKA99NPHCADU6GHJS994M","A2MWAXV1YRK5GH","3SBNLSTU6UR0TCQ1NJ03LFGS7YQZDZ","","1309.8999999994412","img/animal5.png","74","1310.5999999996275","74","1",""
"","html-keyboard-response","45","105567","0.0-45.0","3KKG4CDWKJKA99NPHCADU6GHJS994M","A2MWAXV1YRK5GH","3SBNLSTU6UR0TCQ1NJ03LFGS7YQZDZ","","null","<img src=""img/animal5.png"" style=""width:200px; border:14px solid green;"">","null","","","",""
"","image-keyboard-response","46","107153","0.0-46.0","3KKG4CDWKJKA99NPHCADU6GHJS994M","A2MWAXV1YRK5GH","3SBNLSTU6UR0TCQ1NJ03LFGS7YQZDZ","","1585.2999999998137","img/animal4.png","74","1585.800000000745","74","1",""
"","html-keyboard-response","47","107456","0.0-47.0","3KKG4CDWKJKA99NPHCADU6GHJS994M","A2MWAXV1YRK5GH","3SBNLSTU6UR0TCQ1NJ03LFGS7YQZDZ","","null","<img src=""img/animal4.png"" style=""width:200px; border:14px solid green;"">","null","","","",""
"","image-keyboard-response","48","113739","0.0-48.0","3KKG4CDWKJKA99NPHCADU6GHJS994M","A2MWAXV1YRK5GH","3SBNLSTU6UR0TCQ1NJ03LFGS7YQZDZ","","6282.5","img/animal5.png","74","6282.9000000003725","74","0",""
"","html-keyboard-response","49","114047","0.0-49.0","3KKG4CDWKJKA99NPHCADU6GHJS994M","A2MWAXV1YRK5GH","3SBNLSTU6UR0TCQ1NJ03LFGS7YQZDZ","","null","<img src=""img/animal5.png"" style=""width:200px;border:14px solid red;"">","null","","","",""
"","image-keyboard-response","50","114953","0.0-50.0","3KKG4CDWKJKA99NPHCADU6GHJS994M","A2MWAXV1YRK5GH","3SBNLSTU6UR0TCQ1NJ03LFGS7YQZDZ","","905.2000000001863","img/animal4.png","74","905.7000000001863","74","1",""
"","html-keyboard-response","51","115255","0.0-51.0","3KKG4CDWKJKA99NPHCADU6GHJS994M","A2MWAXV1YRK5GH","3SBNLSTU6UR0TCQ1NJ03LFGS7YQZDZ","","null","<img src=""img/animal4.png"" style=""width:200px; border:14px solid green;"">","null","","","",""
"","image-keyboard-response","52","116138","0.0-52.0","3KKG4CDWKJKA99NPHCADU6GHJS994M","A2MWAXV1YRK5GH","3SBNLSTU6UR0TCQ1NJ03LFGS7YQZDZ","","883","img/animal6.png","75","883.5","75","1",""
"","html-keyboard-response","53","116448","0.0-53.0","3KKG4CDWKJKA99NPHCADU6GHJS994M","A2MWAXV1YRK5GH","3SBNLSTU6UR0TCQ1NJ03LFGS7YQZDZ","","null","<img src=""img/animal6.png"" style=""width:200px; border:14px solid green;"">","null","","","",""
"","image-keyboard-response","54","117278","0.0-54.0","3KKG4CDWKJKA99NPHCADU6GHJS994M","A2MWAXV1YRK5GH","3SBNLSTU6UR0TCQ1NJ03LFGS7YQZDZ","","829.6000000005588","img/animal6.png","75","829.9000000003725","75","1",""
"","html-keyboard-response","55","117582","0.0-55.0","3KKG4CDWKJKA99NPHCADU6GHJS994M","A2MWAXV1YRK5GH","3SBNLSTU6UR0TCQ1NJ03LFGS7YQZDZ","","null","<img src=""img/animal6.png"" style=""width:200px; border:14px solid green;"">","null","","","",""
"","image-keyboard-response","56","118315","0.0-56.0","3KKG4CDWKJKA99NPHCADU6GHJS994M","A2MWAXV1YRK5GH","3SBNLSTU6UR0TCQ1NJ03LFGS7YQZDZ","","731.7000000001863","img/animal5.png","74","732.4000000003725","74","1",""
"","html-keyboard-response","57","118623","0.0-57.0","3KKG4CDWKJKA99NPHCADU6GHJS994M","A2MWAXV1YRK5GH","3SBNLSTU6UR0TCQ1NJ03LFGS7YQZDZ","","null","<img src=""img/animal5.png"" style=""width:200px; border:14px solid green;"">","null","","","",""
"","image-keyboard-response","58","119228","0.0-58.0","3KKG4CDWKJKA99NPHCADU6GHJS994M","A2MWAXV1YRK5GH","3SBNLSTU6UR0TCQ1NJ03LFGS7YQZDZ","","604.5999999996275","img/animal4.png","74","605.0999999996275","74","1",""
"","html-keyboard-response","59","119535","0.0-59.0","3KKG4CDWKJKA99NPHCADU6GHJS994M","A2MWAXV1YRK5GH","3SBNLSTU6UR0TCQ1NJ03LFGS7YQZDZ","","null","<img src=""img/animal4.png"" style=""width:200px; border:14px solid green;"">","null","","","",""
"","image-keyboard-response","60","120173","0.0-60.0","3KKG4CDWKJKA99NPHCADU6GHJS994M","A2MWAXV1YRK5GH","3SBNLSTU6UR0TCQ1NJ03LFGS7YQZDZ","","638","img/animal5.png","75","638.5","75","0",""
"","html-keyboard-response","61","120479","0.0-61.0","3KKG4CDWKJKA99NPHCADU6GHJS994M","A2MWAXV1YRK5GH","3SBNLSTU6UR0TCQ1NJ03LFGS7YQZDZ","","null","<img src=""img/animal5.png"" style=""width:200px;border:14px solid red;"">","null","","","",""
"","image-keyboard-response","62","121433","0.0-62.0","3KKG4CDWKJKA99NPHCADU6GHJS994M","A2MWAXV1YRK5GH","3SBNLSTU6UR0TCQ1NJ03LFGS7YQZDZ","","953.7999999998137","img/animal4.png","74","954.2999999998137","74","1",""
"","html-keyboard-response","63","121744","0.0-63.0","3KKG4CDWKJKA99NPHCADU6GHJS994M","A2MWAXV1YRK5GH","3SBNLSTU6UR0TCQ1NJ03LFGS7YQZDZ","","null","<img src=""img/animal4.png"" style=""width:200px; border:14px solid green;"">","null","","","",""
"","image-keyboard-response","64","122424","0.0-64.0","3KKG4CDWKJKA99NPHCADU6GHJS994M","A2MWAXV1YRK5GH","3SBNLSTU6UR0TCQ1NJ03LFGS7YQZDZ","","679.1000000005588","img/animal4.png","74","679.9000000003725","74","1",""
"","html-keyboard-response","65","122727","0.0-65.0","3KKG4CDWKJKA99NPHCADU6GHJS994M","A2MWAXV1YRK5GH","3SBNLSTU6UR0TCQ1NJ03LFGS7YQZDZ","","null","<img src=""img/animal4.png"" style=""width:200px; border:14px solid green;"">","null","","","",""
"","image-keyboard-response","66","123443","0.0-66.0","3KKG4CDWKJKA99NPHCADU6GHJS994M","A2MWAXV1YRK5GH","3SBNLSTU6UR0TCQ1NJ03LFGS7YQZDZ","","715.5999999996275","img/animal5.png","75","716.1000000005588","75","0",""
"","html-keyboard-response","67","123750","0.0-67.0","3KKG4CDWKJKA99NPHCADU6GHJS994M","A2MWAXV1YRK5GH","3SBNLSTU6UR0TCQ1NJ03LFGS7YQZDZ","","null","<img src=""img/animal5.png"" style=""width:200px;border:14px solid red;"">","null","","","",""
"","image-keyboard-response","68","127269","0.0-68.0","3KKG4CDWKJKA99NPHCADU6GHJS994M","A2MWAXV1YRK5GH","3SBNLSTU6UR0TCQ1NJ03LFGS7YQZDZ","","3517.2999999998137","img/animal6.png","75","3518.7000000001863","75","1",""
"","html-keyboard-response","69","127575","0.0-69.0","3KKG4CDWKJKA99NPHCADU6GHJS994M","A2MWAXV1YRK5GH","3SBNLSTU6UR0TCQ1NJ03LFGS7YQZDZ","","null","<img src=""img/animal6.png"" style=""width:200px; border:14px solid green;"">","null","","","",""
"","image-keyboard-response","70","128228","0.0-70.0","3KKG4CDWKJKA99NPHCADU6GHJS994M","A2MWAXV1YRK5GH","3SBNLSTU6UR0TCQ1NJ03LFGS7YQZDZ","","652.7000000001863","img/animal6.png","75","653.2999999998137","75","1",""
"","html-keyboard-response","71","128534","0.0-71.0","3KKG4CDWKJKA99NPHCADU6GHJS994M","A2MWAXV1YRK5GH","3SBNLSTU6UR0TCQ1NJ03LFGS7YQZDZ","","null","<img src=""img/animal6.png"" style=""width:200px; border:14px solid green;"">","null","","","",""
"","image-keyboard-response","72","129263","0.0-72.0","3KKG4CDWKJKA99NPHCADU6GHJS994M","A2MWAXV1YRK5GH","3SBNLSTU6UR0TCQ1NJ03LFGS7YQZDZ","","727.3999999994412","img/animal5.png","74","727.9000000003725","74","0",""
"","html-keyboard-response","73","129566","0.0-73.0","3KKG4CDWKJKA99NPHCADU6GHJS994M","A2MWAXV1YRK5GH","3SBNLSTU6UR0TCQ1NJ03LFGS7YQZDZ","","null","<img src=""img/animal5.png"" style=""width:200px;border:14px solid red;"">","null","","","",""
"","image-keyboard-response","74","130223","0.0-74.0","3KKG4CDWKJKA99NPHCADU6GHJS994M","A2MWAXV1YRK5GH","3SBNLSTU6UR0TCQ1NJ03LFGS7YQZDZ","","656.3999999994412","img/animal6.png","74","657","74","1",""
"","html-keyboard-response","75","130527","0.0-75.0","3KKG4CDWKJKA99NPHCADU6GHJS994M","A2MWAXV1YRK5GH","3SBNLSTU6UR0TCQ1NJ03LFGS7YQZDZ","","null","<img src=""img/animal6.png"" style=""width:200px; border:14px solid green;"">","null","","","",""
"","image-keyboard-response","76","132024","0.0-76.0","3KKG4CDWKJKA99NPHCADU6GHJS994M","A2MWAXV1YRK5GH","3SBNLSTU6UR0TCQ1NJ03LFGS7YQZDZ","","1496.0999999996275","img/animal5.png","74","1496.6000000005588","74","1",""
"","html-keyboard-response","77","132326","0.0-77.0","3KKG4CDWKJKA99NPHCADU6GHJS994M","A2MWAXV1YRK5GH","3SBNLSTU6UR0TCQ1NJ03LFGS7YQZDZ","","null","<img src=""img/animal5.png"" style=""width:200px; border:14px solid green;"">","null","","","",""
"","image-keyboard-response","78","133059","0.0-78.0","3KKG4CDWKJKA99NPHCADU6GHJS994M","A2MWAXV1YRK5GH","3SBNLSTU6UR0TCQ1NJ03LFGS7YQZDZ","","732.0999999996275","img/animal6.png","75","732.6000000005588","75","1",""
"","html-keyboard-response","79","133365","0.0-79.0","3KKG4CDWKJKA99NPHCADU6GHJS994M","A2MWAXV1YRK5GH","3SBNLSTU6UR0TCQ1NJ03LFGS7YQZDZ","","null","<img src=""img/animal6.png"" style=""width:200px; border:14px solid green;"">","null","","","",""
"","image-keyboard-response","80","134093","0.0-80.0","3KKG4CDWKJKA99NPHCADU6GHJS994M","A2MWAXV1YRK5GH","3SBNLSTU6UR0TCQ1NJ03LFGS7YQZDZ","","727.5","img/animal6.png","75","728","75","1",""
"","html-keyboard-response","81","134398","0.0-81.0","3KKG4CDWKJKA99NPHCADU6GHJS994M","A2MWAXV1YRK5GH","3SBNLSTU6UR0TCQ1NJ03LFGS7YQZDZ","","null","<img src=""img/animal6.png"" style=""width:200px; border:14px solid green;"">","null","","","",""
"","image-keyboard-response","82","135534","0.0-82.0","3KKG4CDWKJKA99NPHCADU6GHJS994M","A2MWAXV1YRK5GH","3SBNLSTU6UR0TCQ1NJ03LFGS7YQZDZ","","1135","img/animal4.png","74","1135.5","74","1",""
"","html-keyboard-response","83","135838","0.0-83.0","3KKG4CDWKJKA99NPHCADU6GHJS994M","A2MWAXV1YRK5GH","3SBNLSTU6UR0TCQ1NJ03LFGS7YQZDZ","","null","<img src=""img/animal4.png"" style=""width:200px; border:14px solid green;"">","null","","","",""
"","image-keyboard-response","84","136524","0.0-84.0","3KKG4CDWKJKA99NPHCADU6GHJS994M","A2MWAXV1YRK5GH","3SBNLSTU6UR0TCQ1NJ03LFGS7YQZDZ","","684.9000000003725","img/animal4.png","74","685.5999999996275","74","1",""
"","html-keyboard-response","85","136830","0.0-85.0","3KKG4CDWKJKA99NPHCADU6GHJS994M","A2MWAXV1YRK5GH","3SBNLSTU6UR0TCQ1NJ03LFGS7YQZDZ","","null","<img src=""img/animal4.png"" style=""width:200px; border:14px solid green;"">","null","","","",""
"","image-keyboard-response","86","137844","0.0-86.0","3KKG4CDWKJKA99NPHCADU6GHJS994M","A2MWAXV1YRK5GH","3SBNLSTU6UR0TCQ1NJ03LFGS7YQZDZ","","1013.5","img/animal6.png","75","1014.0999999996275","75","1",""
"","html-keyboard-response","87","138151","0.0-87.0","3KKG4CDWKJKA99NPHCADU6GHJS994M","A2MWAXV1YRK5GH","3SBNLSTU6UR0TCQ1NJ03LFGS7YQZDZ","","null","<img src=""img/animal6.png"" style=""width:200px; border:14px solid green;"">","null","","","",""
"","image-keyboard-response","88","139044","0.0-88.0","3KKG4CDWKJKA99NPHCADU6GHJS994M","A2MWAXV1YRK5GH","3SBNLSTU6UR0TCQ1NJ03LFGS7YQZDZ","","892.1999999992549","img/animal4.png","74","892.8999999994412","74","0",""
"","html-keyboard-response","89","139350","0.0-89.0","3KKG4CDWKJKA99NPHCADU6GHJS994M","A2MWAXV1YRK5GH","3SBNLSTU6UR0TCQ1NJ03LFGS7YQZDZ","","null","<img src=""img/animal4.png"" style=""width:200px;border:14px solid red;"">","null","","","",""
"","image-keyboard-response","90","140124","0.0-90.0","3KKG4CDWKJKA99NPHCADU6GHJS994M","A2MWAXV1YRK5GH","3SBNLSTU6UR0TCQ1NJ03LFGS7YQZDZ","","773","img/animal4.png","74","773.5","74","1",""
"","html-keyboard-response","91","140430","0.0-91.0","3KKG4CDWKJKA99NPHCADU6GHJS994M","A2MWAXV1YRK5GH","3SBNLSTU6UR0TCQ1NJ03LFGS7YQZDZ","","null","<img src=""img/animal4.png"" style=""width:200px; border:14px solid green;"">","null","","","",""
"","image-keyboard-response","92","141219","0.0-92.0","3KKG4CDWKJKA99NPHCADU6GHJS994M","A2MWAXV1YRK5GH","3SBNLSTU6UR0TCQ1NJ03LFGS7YQZDZ","","788.8999999994412","img/animal6.png","75","789.4000000003725","75","1",""
"","html-keyboard-response","93","141526","0.0-93.0","3KKG4CDWKJKA99NPHCADU6GHJS994M","A2MWAXV1YRK5GH","3SBNLSTU6UR0TCQ1NJ03LFGS7YQZDZ","","null","<img src=""img/animal6.png"" style=""width:200px; border:14px solid green;"">","null","","","",""
"","image-keyboard-response","94","142256","0.0-94.0","3KKG4CDWKJKA99NPHCADU6GHJS994M","A2MWAXV1YRK5GH","3SBNLSTU6UR0TCQ1NJ03LFGS7YQZDZ","","729","img/animal6.png","75","729.7999999998137","75","1",""
"","html-keyboard-response","95","142566","0.0-95.0","3KKG4CDWKJKA99NPHCADU6GHJS994M","A2MWAXV1YRK5GH","3SBNLSTU6UR0TCQ1NJ03LFGS7YQZDZ","","null","<img src=""img/animal6.png"" style=""width:200px; border:14px solid green;"">","null","","","",""
"","image-keyboard-response","96","143319","0.0-96.0","3KKG4CDWKJKA99NPHCADU6GHJS994M","A2MWAXV1YRK5GH","3SBNLSTU6UR0TCQ1NJ03LFGS7YQZDZ","","752","img/animal5.png","74","752.6000000005588","74","1",""
"","html-keyboard-response","97","143621","0.0-97.0","3KKG4CDWKJKA99NPHCADU6GHJS994M","A2MWAXV1YRK5GH","3SBNLSTU6UR0TCQ1NJ03LFGS7YQZDZ","","null","<img src=""img/animal5.png"" style=""width:200px; border:14px solid green;"">","null","","","",""
"","image-keyboard-response","98","144219","0.0-98.0","3KKG4CDWKJKA99NPHCADU6GHJS994M","A2MWAXV1YRK5GH","3SBNLSTU6UR0TCQ1NJ03LFGS7YQZDZ","","596.5","img/animal5.png","74","597.0999999996275","74","1",""
"","html-keyboard-response","99","144526","0.0-99.0","3KKG4CDWKJKA99NPHCADU6GHJS994M","A2MWAXV1YRK5GH","3SBNLSTU6UR0TCQ1NJ03LFGS7YQZDZ","","null","<img src=""img/animal5.png"" style=""width:200px; border:14px solid green;"">","null","","","",""
"","image-keyboard-response","100","145089","0.0-100.0","3KKG4CDWKJKA99NPHCADU6GHJS994M","A2MWAXV1YRK5GH","3SBNLSTU6UR0TCQ1NJ03LFGS7YQZDZ","","561.8999999994412","img/animal6.png","75","562.3999999994412","75","1",""
"","html-keyboard-response","101","145389","0.0-101.0","3KKG4CDWKJKA99NPHCADU6GHJS994M","A2MWAXV1YRK5GH","3SBNLSTU6UR0TCQ1NJ03LFGS7YQZDZ","","null","<img src=""img/animal6.png"" style=""width:200px; border:14px solid green;"">","null","","","",""
"","image-keyboard-response","102","145989","0.0-102.0","3KKG4CDWKJKA99NPHCADU6GHJS994M","A2MWAXV1YRK5GH","3SBNLSTU6UR0TCQ1NJ03LFGS7YQZDZ","","599","img/animal6.png","75","599.2999999998137","75","1",""
"","html-keyboard-response","103","146293","0.0-103.0","3KKG4CDWKJKA99NPHCADU6GHJS994M","A2MWAXV1YRK5GH","3SBNLSTU6UR0TCQ1NJ03LFGS7YQZDZ","","null","<img src=""img/animal6.png"" style=""width:200px; border:14px solid green;"">","null","","","",""
"","image-keyboard-response","104","146919","0.0-104.0","3KKG4CDWKJKA99NPHCADU6GHJS994M","A2MWAXV1YRK5GH","3SBNLSTU6UR0TCQ1NJ03LFGS7YQZDZ","","624.9000000003725","img/animal5.png","74","625.5","74","1",""
"","html-keyboard-response","105","147221","0.0-105.0","3KKG4CDWKJKA99NPHCADU6GHJS994M","A2MWAXV1YRK5GH","3SBNLSTU6UR0TCQ1NJ03LFGS7YQZDZ","","null","<img src=""img/animal5.png"" style=""width:200px; border:14px solid green;"">","null","","","",""
"","image-keyboard-response","106","147759","0.0-106.0","3KKG4CDWKJKA99NPHCADU6GHJS994M","A2MWAXV1YRK5GH","3SBNLSTU6UR0TCQ1NJ03LFGS7YQZDZ","","536.7000000001863","img/animal4.png","74","537.1999999992549","74","1",""
"","html-keyboard-response","107","148061","0.0-107.0","3KKG4CDWKJKA99NPHCADU6GHJS994M","A2MWAXV1YRK5GH","3SBNLSTU6UR0TCQ1NJ03LFGS7YQZDZ","","null","<img src=""img/animal4.png"" style=""width:200px; border:14px solid green;"">","null","","","",""
"","image-keyboard-response","108","148960","0.0-108.0","3KKG4CDWKJKA99NPHCADU6GHJS994M","A2MWAXV1YRK5GH","3SBNLSTU6UR0TCQ1NJ03LFGS7YQZDZ","","897.6999999992549","img/animal4.png","74","898.2999999998137","74","0",""
"","html-keyboard-response","109","149270","0.0-109.0","3KKG4CDWKJKA99NPHCADU6GHJS994M","A2MWAXV1YRK5GH","3SBNLSTU6UR0TCQ1NJ03LFGS7YQZDZ","","null","<img src=""img/animal4.png"" style=""width:200px;border:14px solid red;"">","null","","","",""
"","image-keyboard-response","110","150039","0.0-110.0","3KKG4CDWKJKA99NPHCADU6GHJS994M","A2MWAXV1YRK5GH","3SBNLSTU6UR0TCQ1NJ03LFGS7YQZDZ","","769.2000000001863","img/animal6.png","75","769.7999999998137","75","1",""
"","html-keyboard-response","111","150342","0.0-111.0","3KKG4CDWKJKA99NPHCADU6GHJS994M","A2MWAXV1YRK5GH","3SBNLSTU6UR0TCQ1NJ03LFGS7YQZDZ","","null","<img src=""img/animal6.png"" style=""width:200px; border:14px solid green;"">","null","","","",""
"","image-keyboard-response","112","150999","0.0-112.0","3KKG4CDWKJKA99NPHCADU6GHJS994M","A2MWAXV1YRK5GH","3SBNLSTU6UR0TCQ1NJ03LFGS7YQZDZ","","656.7000000001863","img/animal5.png","74","657.4000000003725","74","1",""
"","html-keyboard-response","113","151302","0.0-113.0","3KKG4CDWKJKA99NPHCADU6GHJS994M","A2MWAXV1YRK5GH","3SBNLSTU6UR0TCQ1NJ03LFGS7YQZDZ","","null","<img src=""img/animal5.png"" style=""width:200px; border:14px solid green;"">","null","","","",""
"","image-keyboard-response","114","151959","0.0-114.0","3KKG4CDWKJKA99NPHCADU6GHJS994M","A2MWAXV1YRK5GH","3SBNLSTU6UR0TCQ1NJ03LFGS7YQZDZ","","656.8999999994412","img/animal4.png","74","657.5","74","0",""
"","html-keyboard-response","115","152262","0.0-115.0","3KKG4CDWKJKA99NPHCADU6GHJS994M","A2MWAXV1YRK5GH","3SBNLSTU6UR0TCQ1NJ03LFGS7YQZDZ","","null","<img src=""img/animal4.png"" style=""width:200px;border:14px solid red;"">","null","","","",""
"","image-keyboard-response","116","153010","0.0-116.0","3KKG4CDWKJKA99NPHCADU6GHJS994M","A2MWAXV1YRK5GH","3SBNLSTU6UR0TCQ1NJ03LFGS7YQZDZ","","747.6000000005588","img/animal4.png","74","748.2000000001863","74","1",""
"","html-keyboard-response","117","153317","0.0-117.0","3KKG4CDWKJKA99NPHCADU6GHJS994M","A2MWAXV1YRK5GH","3SBNLSTU6UR0TCQ1NJ03LFGS7YQZDZ","","null","<img src=""img/animal4.png"" style=""width:200px; border:14px solid green;"">","null","","","",""
"","image-keyboard-response","118","154090","0.0-118.0","3KKG4CDWKJKA99NPHCADU6GHJS994M","A2MWAXV1YRK5GH","3SBNLSTU6UR0TCQ1NJ03LFGS7YQZDZ","","771.6000000005588","img/animal6.png","75","772.2000000001863","75","1",""
"","html-keyboard-response","119","154398","0.0-119.0","3KKG4CDWKJKA99NPHCADU6GHJS994M","A2MWAXV1YRK5GH","3SBNLSTU6UR0TCQ1NJ03LFGS7YQZDZ","","null","<img src=""img/animal6.png"" style=""width:200px; border:14px solid green;"">","null","","","",""
"","image-keyboard-response","120","155125","0.0-120.0","3KKG4CDWKJKA99NPHCADU6GHJS994M","A2MWAXV1YRK5GH","3SBNLSTU6UR0TCQ1NJ03LFGS7YQZDZ","","726.0999999996275","img/animal6.png","75","726.5999999996275","75","1",""
"","html-keyboard-response","121","155429","0.0-121.0","3KKG4CDWKJKA99NPHCADU6GHJS994M","A2MWAXV1YRK5GH","3SBNLSTU6UR0TCQ1NJ03LFGS7YQZDZ","","null","<img src=""img/animal6.png"" style=""width:200px; border:14px solid green;"">","null","","","",""
"","image-keyboard-response","122","156174","0.0-122.0","3KKG4CDWKJKA99NPHCADU6GHJS994M","A2MWAXV1YRK5GH","3SBNLSTU6UR0TCQ1NJ03LFGS7YQZDZ","","744","img/animal6.png","75","744.4000000003725","75","1",""
"","html-keyboard-response","123","156477","0.0-123.0","3KKG4CDWKJKA99NPHCADU6GHJS994M","A2MWAXV1YRK5GH","3SBNLSTU6UR0TCQ1NJ03LFGS7YQZDZ","","null","<img src=""img/animal6.png"" style=""width:200px; border:14px solid green;"">","null","","","",""
"","image-keyboard-response","124","157479","0.0-124.0","3KKG4CDWKJKA99NPHCADU6GHJS994M","A2MWAXV1YRK5GH","3SBNLSTU6UR0TCQ1NJ03LFGS7YQZDZ","","1001.6000000005588","img/animal5.png","74","1002.0999999996275","74","1",""
"","html-keyboard-response","125","157789","0.0-125.0","3KKG4CDWKJKA99NPHCADU6GHJS994M","A2MWAXV1YRK5GH","3SBNLSTU6UR0TCQ1NJ03LFGS7YQZDZ","","null","<img src=""img/animal5.png"" style=""width:200px; border:14px solid green;"">","null","","","",""
"","image-keyboard-response","126","158739","0.0-126.0","3KKG4CDWKJKA99NPHCADU6GHJS994M","A2MWAXV1YRK5GH","3SBNLSTU6UR0TCQ1NJ03LFGS7YQZDZ","","949.2999999998137","img/animal6.png","75","949.7999999998137","75","1",""
"","html-keyboard-response","127","159045","0.0-127.0","3KKG4CDWKJKA99NPHCADU6GHJS994M","A2MWAXV1YRK5GH","3SBNLSTU6UR0TCQ1NJ03LFGS7YQZDZ","","null","<img src=""img/animal6.png"" style=""width:200px; border:14px solid green;"">","null","","","",""
"","image-keyboard-response","128","159745","0.0-128.0","3KKG4CDWKJKA99NPHCADU6GHJS994M","A2MWAXV1YRK5GH","3SBNLSTU6UR0TCQ1NJ03LFGS7YQZDZ","","699.4000000003725","img/animal4.png","74","700.0999999996275","74","1",""
"","html-keyboard-response","129","160053","0.0-129.0","3KKG4CDWKJKA99NPHCADU6GHJS994M","A2MWAXV1YRK5GH","3SBNLSTU6UR0TCQ1NJ03LFGS7YQZDZ","","null","<img src=""img/animal4.png"" style=""width:200px; border:14px solid green;"">","null","","","",""
"","image-keyboard-response","130","161065","0.0-130.0","3KKG4CDWKJKA99NPHCADU6GHJS994M","A2MWAXV1YRK5GH","3SBNLSTU6UR0TCQ1NJ03LFGS7YQZDZ","","1010.9000000003725","img/animal5.png","74","1011.5","74","0",""
"","html-keyboard-response","131","161373","0.0-131.0","3KKG4CDWKJKA99NPHCADU6GHJS994M","A2MWAXV1YRK5GH","3SBNLSTU6UR0TCQ1NJ03LFGS7YQZDZ","","null","<img src=""img/animal5.png"" style=""width:200px;border:14px solid red;"">","null","","","",""
"","image-keyboard-response","132","162235","0.0-132.0","3KKG4CDWKJKA99NPHCADU6GHJS994M","A2MWAXV1YRK5GH","3SBNLSTU6UR0TCQ1NJ03LFGS7YQZDZ","","861.0999999996275","img/animal6.png","75","861.5","75","1",""
"","html-keyboard-response","133","162542","0.0-133.0","3KKG4CDWKJKA99NPHCADU6GHJS994M","A2MWAXV1YRK5GH","3SBNLSTU6UR0TCQ1NJ03LFGS7YQZDZ","","null","<img src=""img/animal6.png"" style=""width:200px; border:14px solid green;"">","null","","","",""
"","image-keyboard-response","134","163375","0.0-134.0","3KKG4CDWKJKA99NPHCADU6GHJS994M","A2MWAXV1YRK5GH","3SBNLSTU6UR0TCQ1NJ03LFGS7YQZDZ","","832.9000000003725","img/animal5.png","74","833.3999999994412","74","1",""
"","html-keyboard-response","135","163677","0.0-135.0","3KKG4CDWKJKA99NPHCADU6GHJS994M","A2MWAXV1YRK5GH","3SBNLSTU6UR0TCQ1NJ03LFGS7YQZDZ","","null","<img src=""img/animal5.png"" style=""width:200px; border:14px solid green;"">","null","","","",""
"","image-keyboard-response","136","164410","0.0-136.0","3KKG4CDWKJKA99NPHCADU6GHJS994M","A2MWAXV1YRK5GH","3SBNLSTU6UR0TCQ1NJ03LFGS7YQZDZ","","732.2999999998137","img/animal4.png","74","732.7000000001863","74","1",""
"","html-keyboard-response","137","164717","0.0-137.0","3KKG4CDWKJKA99NPHCADU6GHJS994M","A2MWAXV1YRK5GH","3SBNLSTU6UR0TCQ1NJ03LFGS7YQZDZ","","null","<img src=""img/animal4.png"" style=""width:200px; border:14px solid green;"">","null","","","",""
"","image-keyboard-response","138","165415","0.0-138.0","3KKG4CDWKJKA99NPHCADU6GHJS994M","A2MWAXV1YRK5GH","3SBNLSTU6UR0TCQ1NJ03LFGS7YQZDZ","","697.1999999992549","img/animal6.png","75","697.7999999998137","75","1",""
"","html-keyboard-response","139","165726","0.0-139.0","3KKG4CDWKJKA99NPHCADU6GHJS994M","A2MWAXV1YRK5GH","3SBNLSTU6UR0TCQ1NJ03LFGS7YQZDZ","","null","<img src=""img/animal6.png"" style=""width:200px; border:14px solid green;"">","null","","","",""
"","image-keyboard-response","140","166434","0.0-140.0","3KKG4CDWKJKA99NPHCADU6GHJS994M","A2MWAXV1YRK5GH","3SBNLSTU6UR0TCQ1NJ03LFGS7YQZDZ","","708.2000000001863","img/animal4.png","74","708.6999999992549","74","1",""
"","html-keyboard-response","141","166741","0.0-141.0","3KKG4CDWKJKA99NPHCADU6GHJS994M","A2MWAXV1YRK5GH","3SBNLSTU6UR0TCQ1NJ03LFGS7YQZDZ","","null","<img src=""img/animal4.png"" style=""width:200px; border:14px solid green;"">","null","","","",""
"","image-keyboard-response","142","167635","0.0-142.0","3KKG4CDWKJKA99NPHCADU6GHJS994M","A2MWAXV1YRK5GH","3SBNLSTU6UR0TCQ1NJ03LFGS7YQZDZ","","893.8999999994412","img/animal6.png","75","894.3999999994412","75","1",""
"","html-keyboard-response","143","167941","0.0-143.0","3KKG4CDWKJKA99NPHCADU6GHJS994M","A2MWAXV1YRK5GH","3SBNLSTU6UR0TCQ1NJ03LFGS7YQZDZ","","null","<img src=""img/animal6.png"" style=""width:200px; border:14px solid green;"">","null","","","",""
"","image-keyboard-response","144","168746","0.0-144.0","3KKG4CDWKJKA99NPHCADU6GHJS994M","A2MWAXV1YRK5GH","3SBNLSTU6UR0TCQ1NJ03LFGS7YQZDZ","","804.2000000001863","img/animal5.png","74","804.7000000001863","74","1",""
"","html-keyboard-response","145","169053","0.0-145.0","3KKG4CDWKJKA99NPHCADU6GHJS994M","A2MWAXV1YRK5GH","3SBNLSTU6UR0TCQ1NJ03LFGS7YQZDZ","","null","<img src=""img/animal5.png"" style=""width:200px; border:14px solid green;"">","null","","","",""
"","image-keyboard-response","146","170081","0.0-146.0","3KKG4CDWKJKA99NPHCADU6GHJS994M","A2MWAXV1YRK5GH","3SBNLSTU6UR0TCQ1NJ03LFGS7YQZDZ","","1028","img/animal4.png","74","1028.5","74","1",""
"","html-keyboard-response","147","170389","0.0-147.0","3KKG4CDWKJKA99NPHCADU6GHJS994M","A2MWAXV1YRK5GH","3SBNLSTU6UR0TCQ1NJ03LFGS7YQZDZ","","null","<img src=""img/animal4.png"" style=""width:200px; border:14px solid green;"">","null","","","",""
"","image-keyboard-response","148","170950","0.0-148.0","3KKG4CDWKJKA99NPHCADU6GHJS994M","A2MWAXV1YRK5GH","3SBNLSTU6UR0TCQ1NJ03LFGS7YQZDZ","","559.6999999992549","img/animal4.png","74","560.2999999998137","74","1",""
"","html-keyboard-response","149","171253","0.0-149.0","3KKG4CDWKJKA99NPHCADU6GHJS994M","A2MWAXV1YRK5GH","3SBNLSTU6UR0TCQ1NJ03LFGS7YQZDZ","","null","<img src=""img/animal4.png"" style=""width:200px; border:14px solid green;"">","null","","","",""
"","image-keyboard-response","150","173111","0.0-150.0","3KKG4CDWKJKA99NPHCADU6GHJS994M","A2MWAXV1YRK5GH","3SBNLSTU6UR0TCQ1NJ03LFGS7YQZDZ","","1857.4000000003725","img/animal4.png","74","1858.2000000001863","74","1",""
"","html-keyboard-response","151","173421","0.0-151.0","3KKG4CDWKJKA99NPHCADU6GHJS994M","A2MWAXV1YRK5GH","3SBNLSTU6UR0TCQ1NJ03LFGS7YQZDZ","","null","<img src=""img/animal4.png"" style=""width:200px; border:14px solid green;"">","null","","","",""
"","image-keyboard-response","152","174295","0.0-152.0","3KKG4CDWKJKA99NPHCADU6GHJS994M","A2MWAXV1YRK5GH","3SBNLSTU6UR0TCQ1NJ03LFGS7YQZDZ","","873.9000000003725","img/animal4.png","74","874.3000000007451","74","1",""
"","html-keyboard-response","153","174605","0.0-153.0","3KKG4CDWKJKA99NPHCADU6GHJS994M","A2MWAXV1YRK5GH","3SBNLSTU6UR0TCQ1NJ03LFGS7YQZDZ","","null","<img src=""img/animal4.png"" style=""width:200px; border:14px solid green;"">","null","","","",""
"","image-keyboard-response","154","175481","0.0-154.0","3KKG4CDWKJKA99NPHCADU6GHJS994M","A2MWAXV1YRK5GH","3SBNLSTU6UR0TCQ1NJ03LFGS7YQZDZ","","875.1999999992549","img/animal6.png","75","875.7999999998137","75","0",""
"","html-keyboard-response","155","175789","0.0-155.0","3KKG4CDWKJKA99NPHCADU6GHJS994M","A2MWAXV1YRK5GH","3SBNLSTU6UR0TCQ1NJ03LFGS7YQZDZ","","null","<img src=""img/animal6.png"" style=""width:200px;border:14px solid red;"">","null","","","",""
"","image-keyboard-response","156","177205","0.0-156.0","3KKG4CDWKJKA99NPHCADU6GHJS994M","A2MWAXV1YRK5GH","3SBNLSTU6UR0TCQ1NJ03LFGS7YQZDZ","","1415.7999999998137","img/animal4.png","74","1416.2000000001863","74","1",""
"","html-keyboard-response","157","177509","0.0-157.0","3KKG4CDWKJKA99NPHCADU6GHJS994M","A2MWAXV1YRK5GH","3SBNLSTU6UR0TCQ1NJ03LFGS7YQZDZ","","null","<img src=""img/animal4.png"" style=""width:200px; border:14px solid green;"">","null","","","",""
"","image-keyboard-response","158","178346","0.0-158.0","3KKG4CDWKJKA99NPHCADU6GHJS994M","A2MWAXV1YRK5GH","3SBNLSTU6UR0TCQ1NJ03LFGS7YQZDZ","","836.6000000005588","img/animal5.png","74","837.0999999996275","74","1",""
"","html-keyboard-response","159","178653","0.0-159.0","3KKG4CDWKJKA99NPHCADU6GHJS994M","A2MWAXV1YRK5GH","3SBNLSTU6UR0TCQ1NJ03LFGS7YQZDZ","","null","<img src=""img/animal5.png"" style=""width:200px; border:14px solid green;"">","null","","","",""
"","image-keyboard-response","160","179351","0.0-160.0","3KKG4CDWKJKA99NPHCADU6GHJS994M","A2MWAXV1YRK5GH","3SBNLSTU6UR0TCQ1NJ03LFGS7YQZDZ","","697.2999999998137","img/animal4.png","74","697.9000000003725","74","1",""
"","html-keyboard-response","161","179660","0.0-161.0","3KKG4CDWKJKA99NPHCADU6GHJS994M","A2MWAXV1YRK5GH","3SBNLSTU6UR0TCQ1NJ03LFGS7YQZDZ","","null","<img src=""img/animal4.png"" style=""width:200px; border:14px solid green;"">","null","","","",""
"","image-keyboard-response","162","180326","0.0-162.0","3KKG4CDWKJKA99NPHCADU6GHJS994M","A2MWAXV1YRK5GH","3SBNLSTU6UR0TCQ1NJ03LFGS7YQZDZ","","665.0999999996275","img/animal5.png","74","665.5","74","1",""
"","html-keyboard-response","163","180628","0.0-163.0","3KKG4CDWKJKA99NPHCADU6GHJS994M","A2MWAXV1YRK5GH","3SBNLSTU6UR0TCQ1NJ03LFGS7YQZDZ","","null","<img src=""img/animal5.png"" style=""width:200px; border:14px solid green;"">","null","","","",""
"","image-keyboard-response","164","181286","0.0-164.0","3KKG4CDWKJKA99NPHCADU6GHJS994M","A2MWAXV1YRK5GH","3SBNLSTU6UR0TCQ1NJ03LFGS7YQZDZ","","657.2999999998137","img/animal5.png","74","657.7999999998137","74","0",""
"","html-keyboard-response","165","181588","0.0-165.0","3KKG4CDWKJKA99NPHCADU6GHJS994M","A2MWAXV1YRK5GH","3SBNLSTU6UR0TCQ1NJ03LFGS7YQZDZ","","null","<img src=""img/animal5.png"" style=""width:200px;border:14px solid red;"">","null","","","",""
"","image-keyboard-response","166","182216","0.0-166.0","3KKG4CDWKJKA99NPHCADU6GHJS994M","A2MWAXV1YRK5GH","3SBNLSTU6UR0TCQ1NJ03LFGS7YQZDZ","","626.6000000005588","img/animal4.png","74","627.2000000001863","74","1",""
"","html-keyboard-response","167","182524","0.0-167.0","3KKG4CDWKJKA99NPHCADU6GHJS994M","A2MWAXV1YRK5GH","3SBNLSTU6UR0TCQ1NJ03LFGS7YQZDZ","","null","<img src=""img/animal4.png"" style=""width:200px; border:14px solid green;"">","null","","","",""
"","image-keyboard-response","168","183071","0.0-168.0","3KKG4CDWKJKA99NPHCADU6GHJS994M","A2MWAXV1YRK5GH","3SBNLSTU6UR0TCQ1NJ03LFGS7YQZDZ","","545.7000000001863","img/animal6.png","75","546.1999999992549","75","1",""
"","html-keyboard-response","169","183373","0.0-169.0","3KKG4CDWKJKA99NPHCADU6GHJS994M","A2MWAXV1YRK5GH","3SBNLSTU6UR0TCQ1NJ03LFGS7YQZDZ","","null","<img src=""img/animal6.png"" style=""width:200px; border:14px solid green;"">","null","","","",""
"","image-keyboard-response","170","184001","0.0-170.0","3KKG4CDWKJKA99NPHCADU6GHJS994M","A2MWAXV1YRK5GH","3SBNLSTU6UR0TCQ1NJ03LFGS7YQZDZ","","627.6000000005588","img/animal5.png","74","628","74","1",""
"","html-keyboard-response","171","184308","0.0-171.0","3KKG4CDWKJKA99NPHCADU6GHJS994M","A2MWAXV1YRK5GH","3SBNLSTU6UR0TCQ1NJ03LFGS7YQZDZ","","null","<img src=""img/animal5.png"" style=""width:200px; border:14px solid green;"">","null","","","",""
"","image-keyboard-response","172","184946","0.0-172.0","3KKG4CDWKJKA99NPHCADU6GHJS994M","A2MWAXV1YRK5GH","3SBNLSTU6UR0TCQ1NJ03LFGS7YQZDZ","","637.1000000005588","img/animal4.png","74","637.5999999996275","74","1",""
"","html-keyboard-response","173","185252","0.0-173.0","3KKG4CDWKJKA99NPHCADU6GHJS994M","A2MWAXV1YRK5GH","3SBNLSTU6UR0TCQ1NJ03LFGS7YQZDZ","","null","<img src=""img/animal4.png"" style=""width:200px; border:14px solid green;"">","null","","","",""
"","image-keyboard-response","174","186296","0.0-174.0","3KKG4CDWKJKA99NPHCADU6GHJS994M","A2MWAXV1YRK5GH","3SBNLSTU6UR0TCQ1NJ03LFGS7YQZDZ","","1043.0999999996275","img/animal6.png","75","1043.6000000005588","75","0",""
"","html-keyboard-response","175","186605","0.0-175.0","3KKG4CDWKJKA99NPHCADU6GHJS994M","A2MWAXV1YRK5GH","3SBNLSTU6UR0TCQ1NJ03LFGS7YQZDZ","","null","<img src=""img/animal6.png"" style=""width:200px;border:14px solid red;"">","null","","","",""
"","image-keyboard-response","176","187376","0.0-176.0","3KKG4CDWKJKA99NPHCADU6GHJS994M","A2MWAXV1YRK5GH","3SBNLSTU6UR0TCQ1NJ03LFGS7YQZDZ","","770.2000000001863","img/animal5.png","74","770.7999999998137","74","0",""
"","html-keyboard-response","177","187676","0.0-177.0","3KKG4CDWKJKA99NPHCADU6GHJS994M","A2MWAXV1YRK5GH","3SBNLSTU6UR0TCQ1NJ03LFGS7YQZDZ","","null","<img src=""img/animal5.png"" style=""width:200px;border:14px solid red;"">","null","","","",""
"","image-keyboard-response","178","188741","0.0-178.0","3KKG4CDWKJKA99NPHCADU6GHJS994M","A2MWAXV1YRK5GH","3SBNLSTU6UR0TCQ1NJ03LFGS7YQZDZ","","1064.0999999996275","img/animal6.png","75","1064.7999999998137","75","1",""
"","html-keyboard-response","179","189044","0.0-179.0","3KKG4CDWKJKA99NPHCADU6GHJS994M","A2MWAXV1YRK5GH","3SBNLSTU6UR0TCQ1NJ03LFGS7YQZDZ","","null","<img src=""img/animal6.png"" style=""width:200px; border:14px solid green;"">","null","","","",""
"","image-keyboard-response","180","190166","0.0-180.0","3KKG4CDWKJKA99NPHCADU6GHJS994M","A2MWAXV1YRK5GH","3SBNLSTU6UR0TCQ1NJ03LFGS7YQZDZ","","1121.800000000745","img/animal5.png","74","1122.2999999998137","74","0",""
"","html-keyboard-response","181","190476","0.0-181.0","3KKG4CDWKJKA99NPHCADU6GHJS994M","A2MWAXV1YRK5GH","3SBNLSTU6UR0TCQ1NJ03LFGS7YQZDZ","","null","<img src=""img/animal5.png"" style=""width:200px;border:14px solid red;"">","null","","","",""
"","html-keyboard-response","182","202624","0.0-182.0","3KKG4CDWKJKA99NPHCADU6GHJS994M","A2MWAXV1YRK5GH","3SBNLSTU6UR0TCQ1NJ03LFGS7YQZDZ","","","","","","","",""
"","image-keyboard-response","183","209127","0.0-183.0","3KKG4CDWKJKA99NPHCADU6GHJS994M","A2MWAXV1YRK5GH","3SBNLSTU6UR0TCQ1NJ03LFGS7YQZDZ","","6502.4000000003725","img/animal3.png","74","6502.9000000003725","74","0",""
"","html-keyboard-response","184","209435","0.0-184.0","3KKG4CDWKJKA99NPHCADU6GHJS994M","A2MWAXV1YRK5GH","3SBNLSTU6UR0TCQ1NJ03LFGS7YQZDZ","","null","<img src=""img/animal3.png"" style=""width:200px;border:14px solid red;"">","null","","","",""
"","image-keyboard-response","185","213643","0.0-185.0","3KKG4CDWKJKA99NPHCADU6GHJS994M","A2MWAXV1YRK5GH","3SBNLSTU6UR0TCQ1NJ03LFGS7YQZDZ","","4207.200000000186","img/animal2.png","74","4207.5999999996275","74","1",""
"","html-keyboard-response","186","213947","0.0-186.0","3KKG4CDWKJKA99NPHCADU6GHJS994M","A2MWAXV1YRK5GH","3SBNLSTU6UR0TCQ1NJ03LFGS7YQZDZ","","null","<img src=""img/animal2.png"" style=""width:200px; border:14px solid green;"">","null","","","",""
"","image-keyboard-response","187","219432","0.0-187.0","3KKG4CDWKJKA99NPHCADU6GHJS994M","A2MWAXV1YRK5GH","3SBNLSTU6UR0TCQ1NJ03LFGS7YQZDZ","","5484.699999999255","img/animal1.png","75","5485.100000000559","75","1",""
"","html-keyboard-response","188","219739","0.0-188.0","3KKG4CDWKJKA99NPHCADU6GHJS994M","A2MWAXV1YRK5GH","3SBNLSTU6UR0TCQ1NJ03LFGS7YQZDZ","","null","<img src=""img/animal1.png"" style=""width:200px; border:14px solid green;"">","null","","","",""
"","image-keyboard-response","189","223363","0.0-189.0","3KKG4CDWKJKA99NPHCADU6GHJS994M","A2MWAXV1YRK5GH","3SBNLSTU6UR0TCQ1NJ03LFGS7YQZDZ","","3623.4000000003725","img/animal2.png","74","3624.100000000559","74","1",""
"","html-keyboard-response","190","223666","0.0-190.0","3KKG4CDWKJKA99NPHCADU6GHJS994M","A2MWAXV1YRK5GH","3SBNLSTU6UR0TCQ1NJ03LFGS7YQZDZ","","null","<img src=""img/animal2.png"" style=""width:200px; border:14px solid green;"">","null","","","",""
"","image-keyboard-response","191","224487","0.0-191.0","3KKG4CDWKJKA99NPHCADU6GHJS994M","A2MWAXV1YRK5GH","3SBNLSTU6UR0TCQ1NJ03LFGS7YQZDZ","","820.8999999994412","img/animal1.png","75","821.3999999994412","75","1",""
"","html-keyboard-response","192","224794","0.0-192.0","3KKG4CDWKJKA99NPHCADU6GHJS994M","A2MWAXV1YRK5GH","3SBNLSTU6UR0TCQ1NJ03LFGS7YQZDZ","","null","<img src=""img/animal1.png"" style=""width:200px; border:14px solid green;"">","null","","","",""
"","image-keyboard-response","193","225897","0.0-193.0","3KKG4CDWKJKA99NPHCADU6GHJS994M","A2MWAXV1YRK5GH","3SBNLSTU6UR0TCQ1NJ03LFGS7YQZDZ","","1102.2000000001863","img/animal3.png","76","1102.800000000745","76","1",""
"","html-keyboard-response","194","226203","0.0-194.0","3KKG4CDWKJKA99NPHCADU6GHJS994M","A2MWAXV1YRK5GH","3SBNLSTU6UR0TCQ1NJ03LFGS7YQZDZ","","null","<img src=""img/animal3.png"" style=""width:200px; border:14px solid green;"">","null","","","",""
"","image-keyboard-response","195","231238","0.0-195.0","3KKG4CDWKJKA99NPHCADU6GHJS994M","A2MWAXV1YRK5GH","3SBNLSTU6UR0TCQ1NJ03LFGS7YQZDZ","","5034","img/animal1.png","75","5034.5","75","1",""
"","html-keyboard-response","196","231546","0.0-196.0","3KKG4CDWKJKA99NPHCADU6GHJS994M","A2MWAXV1YRK5GH","3SBNLSTU6UR0TCQ1NJ03LFGS7YQZDZ","","null","<img src=""img/animal1.png"" style=""width:200px; border:14px solid green;"">","null","","","",""
"","image-keyboard-response","197","232272","0.0-197.0","3KKG4CDWKJKA99NPHCADU6GHJS994M","A2MWAXV1YRK5GH","3SBNLSTU6UR0TCQ1NJ03LFGS7YQZDZ","","724.9000000003725","img/animal1.png","75","725.5999999996275","75","1",""
"","html-keyboard-response","198","232578","0.0-198.0","3KKG4CDWKJKA99NPHCADU6GHJS994M","A2MWAXV1YRK5GH","3SBNLSTU6UR0TCQ1NJ03LFGS7YQZDZ","","null","<img src=""img/animal1.png"" style=""width:200px; border:14px solid green;"">","null","","","",""
"","image-keyboard-response","199","233233","0.0-199.0","3KKG4CDWKJKA99NPHCADU6GHJS994M","A2MWAXV1YRK5GH","3SBNLSTU6UR0TCQ1NJ03LFGS7YQZDZ","","654.4000000003725","img/animal1.png","75","654.9000000003725","75","1",""
"","html-keyboard-response","200","233538","0.0-200.0","3KKG4CDWKJKA99NPHCADU6GHJS994M","A2MWAXV1YRK5GH","3SBNLSTU6UR0TCQ1NJ03LFGS7YQZDZ","","null","<img src=""img/animal1.png"" style=""width:200px; border:14px solid green;"">","null","","","",""
"","image-keyboard-response","201","235828","0.0-201.0","3KKG4CDWKJKA99NPHCADU6GHJS994M","A2MWAXV1YRK5GH","3SBNLSTU6UR0TCQ1NJ03LFGS7YQZDZ","","2290.5","img/animal3.png","76","2290.800000000745","76","1",""
"","html-keyboard-response","202","236138","0.0-202.0","3KKG4CDWKJKA99NPHCADU6GHJS994M","A2MWAXV1YRK5GH","3SBNLSTU6UR0TCQ1NJ03LFGS7YQZDZ","","null","<img src=""img/animal3.png"" style=""width:200px; border:14px solid green;"">","null","","","",""
"","image-keyboard-response","203","236668","0.0-203.0","3KKG4CDWKJKA99NPHCADU6GHJS994M","A2MWAXV1YRK5GH","3SBNLSTU6UR0TCQ1NJ03LFGS7YQZDZ","","528.7000000001863","img/animal3.png","76","529.2999999998137","76","1",""
"","html-keyboard-response","204","236970","0.0-204.0","3KKG4CDWKJKA99NPHCADU6GHJS994M","A2MWAXV1YRK5GH","3SBNLSTU6UR0TCQ1NJ03LFGS7YQZDZ","","null","<img src=""img/animal3.png"" style=""width:200px; border:14px solid green;"">","null","","","",""
"","image-keyboard-response","205","237568","0.0-205.0","3KKG4CDWKJKA99NPHCADU6GHJS994M","A2MWAXV1YRK5GH","3SBNLSTU6UR0TCQ1NJ03LFGS7YQZDZ","","597.1999999992549","img/animal3.png","76","597.5","76","1",""
"","html-keyboard-response","206","237874","0.0-206.0","3KKG4CDWKJKA99NPHCADU6GHJS994M","A2MWAXV1YRK5GH","3SBNLSTU6UR0TCQ1NJ03LFGS7YQZDZ","","null","<img src=""img/animal3.png"" style=""width:200px; border:14px solid green;"">","null","","","",""
"","image-keyboard-response","207","238738","0.0-207.0","3KKG4CDWKJKA99NPHCADU6GHJS994M","A2MWAXV1YRK5GH","3SBNLSTU6UR0TCQ1NJ03LFGS7YQZDZ","","863.5","img/animal1.png","75","864","75","1",""
"","html-keyboard-response","208","239042","0.0-208.0","3KKG4CDWKJKA99NPHCADU6GHJS994M","A2MWAXV1YRK5GH","3SBNLSTU6UR0TCQ1NJ03LFGS7YQZDZ","","null","<img src=""img/animal1.png"" style=""width:200px; border:14px solid green;"">","null","","","",""
"","image-keyboard-response","209","239578","0.0-209.0","3KKG4CDWKJKA99NPHCADU6GHJS994M","A2MWAXV1YRK5GH","3SBNLSTU6UR0TCQ1NJ03LFGS7YQZDZ","","535.2999999998137","img/animal1.png","75","535.7999999998137","75","1",""
"","html-keyboard-response","210","239882","0.0-210.0","3KKG4CDWKJKA99NPHCADU6GHJS994M","A2MWAXV1YRK5GH","3SBNLSTU6UR0TCQ1NJ03LFGS7YQZDZ","","null","<img src=""img/animal1.png"" style=""width:200px; border:14px solid green;"">","null","","","",""
"","image-keyboard-response","211","240673","0.0-211.0","3KKG4CDWKJKA99NPHCADU6GHJS994M","A2MWAXV1YRK5GH","3SBNLSTU6UR0TCQ1NJ03LFGS7YQZDZ","","790.5","img/animal2.png","74","791.2000000001863","74","1",""
"","html-keyboard-response","212","240978","0.0-212.0","3KKG4CDWKJKA99NPHCADU6GHJS994M","A2MWAXV1YRK5GH","3SBNLSTU6UR0TCQ1NJ03LFGS7YQZDZ","","null","<img src=""img/animal2.png"" style=""width:200px; border:14px solid green;"">","null","","","",""
"","image-keyboard-response","213","241528","0.0-213.0","3KKG4CDWKJKA99NPHCADU6GHJS994M","A2MWAXV1YRK5GH","3SBNLSTU6UR0TCQ1NJ03LFGS7YQZDZ","","549.5999999996275","img/animal2.png","74","550.0999999996275","74","1",""
"","html-keyboard-response","214","241833","0.0-214.0","3KKG4CDWKJKA99NPHCADU6GHJS994M","A2MWAXV1YRK5GH","3SBNLSTU6UR0TCQ1NJ03LFGS7YQZDZ","","null","<img src=""img/animal2.png"" style=""width:200px; border:14px solid green;"">","null","","","",""
"","image-keyboard-response","215","242758","0.0-215.0","3KKG4CDWKJKA99NPHCADU6GHJS994M","A2MWAXV1YRK5GH","3SBNLSTU6UR0TCQ1NJ03LFGS7YQZDZ","","924.8999999994412","img/animal1.png","75","925.2999999998137","75","1",""
"","html-keyboard-response","216","243065","0.0-216.0","3KKG4CDWKJKA99NPHCADU6GHJS994M","A2MWAXV1YRK5GH","3SBNLSTU6UR0TCQ1NJ03LFGS7YQZDZ","","null","<img src=""img/animal1.png"" style=""width:200px; border:14px solid green;"">","null","","","",""
"","image-keyboard-response","217","244138","0.0-217.0","3KKG4CDWKJKA99NPHCADU6GHJS994M","A2MWAXV1YRK5GH","3SBNLSTU6UR0TCQ1NJ03LFGS7YQZDZ","","1072.5","img/animal3.png","76","1073","76","1",""
"","html-keyboard-response","218","244441","0.0-218.0","3KKG4CDWKJKA99NPHCADU6GHJS994M","A2MWAXV1YRK5GH","3SBNLSTU6UR0TCQ1NJ03LFGS7YQZDZ","","null","<img src=""img/animal3.png"" style=""width:200px; border:14px solid green;"">","null","","","",""
"","image-keyboard-response","219","244873","0.0-219.0","3KKG4CDWKJKA99NPHCADU6GHJS994M","A2MWAXV1YRK5GH","3SBNLSTU6UR0TCQ1NJ03LFGS7YQZDZ","","430.70000000018626","img/animal3.png","76","431.09999999962747","76","1",""
"","html-keyboard-response","220","245178","0.0-220.0","3KKG4CDWKJKA99NPHCADU6GHJS994M","A2MWAXV1YRK5GH","3SBNLSTU6UR0TCQ1NJ03LFGS7YQZDZ","","null","<img src=""img/animal3.png"" style=""width:200px; border:14px solid green;"">","null","","","",""
"","image-keyboard-response","221","245698","0.0-221.0","3KKG4CDWKJKA99NPHCADU6GHJS994M","A2MWAXV1YRK5GH","3SBNLSTU6UR0TCQ1NJ03LFGS7YQZDZ","","519.0999999996275","img/animal3.png","76","519.6999999992549","76","1",""
"","html-keyboard-response","222","246001","0.0-222.0","3KKG4CDWKJKA99NPHCADU6GHJS994M","A2MWAXV1YRK5GH","3SBNLSTU6UR0TCQ1NJ03LFGS7YQZDZ","","null","<img src=""img/animal3.png"" style=""width:200px; border:14px solid green;"">","null","","","",""
"","image-keyboard-response","223","246748","0.0-223.0","3KKG4CDWKJKA99NPHCADU6GHJS994M","A2MWAXV1YRK5GH","3SBNLSTU6UR0TCQ1NJ03LFGS7YQZDZ","","746.7000000001863","img/animal1.png","75","747.1999999992549","75","1",""
"","html-keyboard-response","224","247058","0.0-224.0","3KKG4CDWKJKA99NPHCADU6GHJS994M","A2MWAXV1YRK5GH","3SBNLSTU6UR0TCQ1NJ03LFGS7YQZDZ","","null","<img src=""img/animal1.png"" style=""width:200px; border:14px solid green;"">","null","","","",""
"","image-keyboard-response","225","247873","0.0-225.0","3KKG4CDWKJKA99NPHCADU6GHJS994M","A2MWAXV1YRK5GH","3SBNLSTU6UR0TCQ1NJ03LFGS7YQZDZ","","814.5","img/animal2.png","74","814.7999999998137","74","1",""
"","html-keyboard-response","226","248177","0.0-226.0","3KKG4CDWKJKA99NPHCADU6GHJS994M","A2MWAXV1YRK5GH","3SBNLSTU6UR0TCQ1NJ03LFGS7YQZDZ","","null","<img src=""img/animal2.png"" style=""width:200px; border:14px solid green;"">","null","","","",""
"","image-keyboard-response","227","249388","0.0-227.0","3KKG4CDWKJKA99NPHCADU6GHJS994M","A2MWAXV1YRK5GH","3SBNLSTU6UR0TCQ1NJ03LFGS7YQZDZ","","1211.0999999996275","img/animal3.png","76","1211.5999999996275","76","1",""
"","html-keyboard-response","228","249698","0.0-228.0","3KKG4CDWKJKA99NPHCADU6GHJS994M","A2MWAXV1YRK5GH","3SBNLSTU6UR0TCQ1NJ03LFGS7YQZDZ","","null","<img src=""img/animal3.png"" style=""width:200px; border:14px solid green;"">","null","","","",""
"","image-keyboard-response","229","253229","0.0-229.0","3KKG4CDWKJKA99NPHCADU6GHJS994M","A2MWAXV1YRK5GH","3SBNLSTU6UR0TCQ1NJ03LFGS7YQZDZ","","3530.4000000003725","img/animal2.png","74","3530.899999999441","74","1",""
"","html-keyboard-response","230","253538","0.0-230.0","3KKG4CDWKJKA99NPHCADU6GHJS994M","A2MWAXV1YRK5GH","3SBNLSTU6UR0TCQ1NJ03LFGS7YQZDZ","","null","<img src=""img/animal2.png"" style=""width:200px; border:14px solid green;"">","null","","","",""
"","image-keyboard-response","231","254039","0.0-231.0","3KKG4CDWKJKA99NPHCADU6GHJS994M","A2MWAXV1YRK5GH","3SBNLSTU6UR0TCQ1NJ03LFGS7YQZDZ","","500.20000000018626","img/animal2.png","74","500.70000000018626","74","1",""
"","html-keyboard-response","232","254346","0.0-232.0","3KKG4CDWKJKA99NPHCADU6GHJS994M","A2MWAXV1YRK5GH","3SBNLSTU6UR0TCQ1NJ03LFGS7YQZDZ","","null","<img src=""img/animal2.png"" style=""width:200px; border:14px solid green;"">","null","","","",""
"","image-keyboard-response","233","255134","0.0-233.0","3KKG4CDWKJKA99NPHCADU6GHJS994M","A2MWAXV1YRK5GH","3SBNLSTU6UR0TCQ1NJ03LFGS7YQZDZ","","787.0999999996275","img/animal1.png","75","787.7999999998137","75","1",""
"","html-keyboard-response","234","255441","0.0-234.0","3KKG4CDWKJKA99NPHCADU6GHJS994M","A2MWAXV1YRK5GH","3SBNLSTU6UR0TCQ1NJ03LFGS7YQZDZ","","null","<img src=""img/animal1.png"" style=""width:200px; border:14px solid green;"">","null","","","",""
"","image-keyboard-response","235","256349","0.0-235.0","3KKG4CDWKJKA99NPHCADU6GHJS994M","A2MWAXV1YRK5GH","3SBNLSTU6UR0TCQ1NJ03LFGS7YQZDZ","","906.7999999998137","img/animal2.png","74","907.2999999998137","74","1",""
"","html-keyboard-response","236","256658","0.0-236.0","3KKG4CDWKJKA99NPHCADU6GHJS994M","A2MWAXV1YRK5GH","3SBNLSTU6UR0TCQ1NJ03LFGS7YQZDZ","","null","<img src=""img/animal2.png"" style=""width:200px; border:14px solid green;"">","null","","","",""
"","image-keyboard-response","237","257579","0.0-237.0","3KKG4CDWKJKA99NPHCADU6GHJS994M","A2MWAXV1YRK5GH","3SBNLSTU6UR0TCQ1NJ03LFGS7YQZDZ","","920.6999999992549","img/animal3.png","76","921.1000000005588","76","1",""
"","html-keyboard-response","238","257889","0.0-238.0","3KKG4CDWKJKA99NPHCADU6GHJS994M","A2MWAXV1YRK5GH","3SBNLSTU6UR0TCQ1NJ03LFGS7YQZDZ","","null","<img src=""img/animal3.png"" style=""width:200px; border:14px solid green;"">","null","","","",""
"","image-keyboard-response","239","258899","0.0-239.0","3KKG4CDWKJKA99NPHCADU6GHJS994M","A2MWAXV1YRK5GH","3SBNLSTU6UR0TCQ1NJ03LFGS7YQZDZ","","1008.9000000003725","img/animal2.png","74","1009.5","74","1",""
"","html-keyboard-response","240","259200","0.0-240.0","3KKG4CDWKJKA99NPHCADU6GHJS994M","A2MWAXV1YRK5GH","3SBNLSTU6UR0TCQ1NJ03LFGS7YQZDZ","","null","<img src=""img/animal2.png"" style=""width:200px; border:14px solid green;"">","null","","","",""
"","image-keyboard-response","241","260009","0.0-241.0","3KKG4CDWKJKA99NPHCADU6GHJS994M","A2MWAXV1YRK5GH","3SBNLSTU6UR0TCQ1NJ03LFGS7YQZDZ","","807.7999999998137","img/animal3.png","76","808.4000000003725","76","1",""
"","html-keyboard-response","242","260313","0.0-242.0","3KKG4CDWKJKA99NPHCADU6GHJS994M","A2MWAXV1YRK5GH","3SBNLSTU6UR0TCQ1NJ03LFGS7YQZDZ","","null","<img src=""img/animal3.png"" style=""width:200px; border:14px solid green;"">","null","","","",""
"","image-keyboard-response","243","260984","0.0-243.0","3KKG4CDWKJKA99NPHCADU6GHJS994M","A2MWAXV1YRK5GH","3SBNLSTU6UR0TCQ1NJ03LFGS7YQZDZ","","670.5","img/animal3.png","76","670.8999999994412","76","1",""
"","html-keyboard-response","244","261289","0.0-244.0","3KKG4CDWKJKA99NPHCADU6GHJS994M","A2MWAXV1YRK5GH","3SBNLSTU6UR0TCQ1NJ03LFGS7YQZDZ","","null","<img src=""img/animal3.png"" style=""width:200px; border:14px solid green;"">","null","","","",""
"","image-keyboard-response","245","262049","0.0-245.0","3KKG4CDWKJKA99NPHCADU6GHJS994M","A2MWAXV1YRK5GH","3SBNLSTU6UR0TCQ1NJ03LFGS7YQZDZ","","759.5","img/animal2.png","74","760.1000000005588","74","1",""
"","html-keyboard-response","246","262353","0.0-246.0","3KKG4CDWKJKA99NPHCADU6GHJS994M","A2MWAXV1YRK5GH","3SBNLSTU6UR0TCQ1NJ03LFGS7YQZDZ","","null","<img src=""img/animal2.png"" style=""width:200px; border:14px solid green;"">","null","","","",""
"","image-keyboard-response","247","263159","0.0-247.0","3KKG4CDWKJKA99NPHCADU6GHJS994M","A2MWAXV1YRK5GH","3SBNLSTU6UR0TCQ1NJ03LFGS7YQZDZ","","805.2000000001863","img/animal3.png","76","805.7999999998137","76","1",""
"","html-keyboard-response","248","263465","0.0-248.0","3KKG4CDWKJKA99NPHCADU6GHJS994M","A2MWAXV1YRK5GH","3SBNLSTU6UR0TCQ1NJ03LFGS7YQZDZ","","null","<img src=""img/animal3.png"" style=""width:200px; border:14px solid green;"">","null","","","",""
"","image-keyboard-response","249","264059","0.0-249.0","3KKG4CDWKJKA99NPHCADU6GHJS994M","A2MWAXV1YRK5GH","3SBNLSTU6UR0TCQ1NJ03LFGS7YQZDZ","","592.6999999992549","img/animal2.png","74","593.2999999998137","74","1",""
"","html-keyboard-response","250","264361","0.0-250.0","3KKG4CDWKJKA99NPHCADU6GHJS994M","A2MWAXV1YRK5GH","3SBNLSTU6UR0TCQ1NJ03LFGS7YQZDZ","","null","<img src=""img/animal2.png"" style=""width:200px; border:14px solid green;"">","null","","","",""
"","image-keyboard-response","251","265394","0.0-251.0","3KKG4CDWKJKA99NPHCADU6GHJS994M","A2MWAXV1YRK5GH","3SBNLSTU6UR0TCQ1NJ03LFGS7YQZDZ","","1032.5999999996275","img/animal2.png","74","1033.0999999996275","74","1",""
"","html-keyboard-response","252","265697","0.0-252.0","3KKG4CDWKJKA99NPHCADU6GHJS994M","A2MWAXV1YRK5GH","3SBNLSTU6UR0TCQ1NJ03LFGS7YQZDZ","","null","<img src=""img/animal2.png"" style=""width:200px; border:14px solid green;"">","null","","","",""
"","image-keyboard-response","253","266234","0.0-253.0","3KKG4CDWKJKA99NPHCADU6GHJS994M","A2MWAXV1YRK5GH","3SBNLSTU6UR0TCQ1NJ03LFGS7YQZDZ","","537","img/animal2.png","74","537.5","74","1",""
"","html-keyboard-response","254","266537","0.0-254.0","3KKG4CDWKJKA99NPHCADU6GHJS994M","A2MWAXV1YRK5GH","3SBNLSTU6UR0TCQ1NJ03LFGS7YQZDZ","","null","<img src=""img/animal2.png"" style=""width:200px; border:14px solid green;"">","null","","","",""
"","image-keyboard-response","255","267389","0.0-255.0","3KKG4CDWKJKA99NPHCADU6GHJS994M","A2MWAXV1YRK5GH","3SBNLSTU6UR0TCQ1NJ03LFGS7YQZDZ","","851.0999999996275","img/animal1.png","75","851.6000000005588","75","1",""
"","html-keyboard-response","256","267697","0.0-256.0","3KKG4CDWKJKA99NPHCADU6GHJS994M","A2MWAXV1YRK5GH","3SBNLSTU6UR0TCQ1NJ03LFGS7YQZDZ","","null","<img src=""img/animal1.png"" style=""width:200px; border:14px solid green;"">","null","","","",""
"","image-keyboard-response","257","268499","0.0-257.0","3KKG4CDWKJKA99NPHCADU6GHJS994M","A2MWAXV1YRK5GH","3SBNLSTU6UR0TCQ1NJ03LFGS7YQZDZ","","801.7000000001863","img/animal2.png","74","802.1999999992549","74","1",""
"","html-keyboard-response","258","268808","0.0-258.0","3KKG4CDWKJKA99NPHCADU6GHJS994M","A2MWAXV1YRK5GH","3SBNLSTU6UR0TCQ1NJ03LFGS7YQZDZ","","null","<img src=""img/animal2.png"" style=""width:200px; border:14px solid green;"">","null","","","",""
"","image-keyboard-response","259","269669","0.0-259.0","3KKG4CDWKJKA99NPHCADU6GHJS994M","A2MWAXV1YRK5GH","3SBNLSTU6UR0TCQ1NJ03LFGS7YQZDZ","","860.6999999992549","img/animal3.png","76","861.2000000001863","76","1",""
"","html-keyboard-response","260","269977","0.0-260.0","3KKG4CDWKJKA99NPHCADU6GHJS994M","A2MWAXV1YRK5GH","3SBNLSTU6UR0TCQ1NJ03LFGS7YQZDZ","","null","<img src=""img/animal3.png"" style=""width:200px; border:14px solid green;"">","null","","","",""
"","image-keyboard-response","261","272459","0.0-261.0","3KKG4CDWKJKA99NPHCADU6GHJS994M","A2MWAXV1YRK5GH","3SBNLSTU6UR0TCQ1NJ03LFGS7YQZDZ","","2481.899999999441","img/animal1.png","75","2482.399999999441","75","1",""
"","html-keyboard-response","262","272769","0.0-262.0","3KKG4CDWKJKA99NPHCADU6GHJS994M","A2MWAXV1YRK5GH","3SBNLSTU6UR0TCQ1NJ03LFGS7YQZDZ","","null","<img src=""img/animal1.png"" style=""width:200px; border:14px solid green;"">","null","","","",""
"","image-keyboard-response","263","273690","0.0-263.0","3KKG4CDWKJKA99NPHCADU6GHJS994M","A2MWAXV1YRK5GH","3SBNLSTU6UR0TCQ1NJ03LFGS7YQZDZ","","920.2000000001863","img/animal3.png","76","920.7000000001863","76","1",""
"","html-keyboard-response","264","273992","0.0-264.0","3KKG4CDWKJKA99NPHCADU6GHJS994M","A2MWAXV1YRK5GH","3SBNLSTU6UR0TCQ1NJ03LFGS7YQZDZ","","null","<img src=""img/animal3.png"" style=""width:200px; border:14px solid green;"">","null","","","",""
"","image-keyboard-response","265","274785","0.0-265.0","3KKG4CDWKJKA99NPHCADU6GHJS994M","A2MWAXV1YRK5GH","3SBNLSTU6UR0TCQ1NJ03LFGS7YQZDZ","","792.2999999998137","img/animal2.png","74","792.7000000001863","74","1",""
"","html-keyboard-response","266","275088","0.0-266.0","3KKG4CDWKJKA99NPHCADU6GHJS994M","A2MWAXV1YRK5GH","3SBNLSTU6UR0TCQ1NJ03LFGS7YQZDZ","","null","<img src=""img/animal2.png"" style=""width:200px; border:14px solid green;"">","null","","","",""
"","image-keyboard-response","267","276375","0.0-267.0","3KKG4CDWKJKA99NPHCADU6GHJS994M","A2MWAXV1YRK5GH","3SBNLSTU6UR0TCQ1NJ03LFGS7YQZDZ","","1285.7000000001863","img/animal3.png","76","1286.2000000001863","76","1",""
"","html-keyboard-response","268","276681","0.0-268.0","3KKG4CDWKJKA99NPHCADU6GHJS994M","A2MWAXV1YRK5GH","3SBNLSTU6UR0TCQ1NJ03LFGS7YQZDZ","","null","<img src=""img/animal3.png"" style=""width:200px; border:14px solid green;"">","null","","","",""
"","image-keyboard-response","269","277334","0.0-269.0","3KKG4CDWKJKA99NPHCADU6GHJS994M","A2MWAXV1YRK5GH","3SBNLSTU6UR0TCQ1NJ03LFGS7YQZDZ","","653.0999999996275","img/animal1.png","75","653.5","75","1",""
"","html-keyboard-response","270","277641","0.0-270.0","3KKG4CDWKJKA99NPHCADU6GHJS994M","A2MWAXV1YRK5GH","3SBNLSTU6UR0TCQ1NJ03LFGS7YQZDZ","","null","<img src=""img/animal1.png"" style=""width:200px; border:14px solid green;"">","null","","","",""
"","image-keyboard-response","271","278220","0.0-271.0","3KKG4CDWKJKA99NPHCADU6GHJS994M","A2MWAXV1YRK5GH","3SBNLSTU6UR0TCQ1NJ03LFGS7YQZDZ","","578","img/animal1.png","75","578.5","75","1",""
"","html-keyboard-response","272","278529","0.0-272.0","3KKG4CDWKJKA99NPHCADU6GHJS994M","A2MWAXV1YRK5GH","3SBNLSTU6UR0TCQ1NJ03LFGS7YQZDZ","","null","<img src=""img/animal1.png"" style=""width:200px; border:14px solid green;"">","null","","","",""
"","image-keyboard-response","273","279195","0.0-273.0","3KKG4CDWKJKA99NPHCADU6GHJS994M","A2MWAXV1YRK5GH","3SBNLSTU6UR0TCQ1NJ03LFGS7YQZDZ","","665.7999999998137","img/animal2.png","74","666.2000000001863","74","1",""
"","html-keyboard-response","274","279504","0.0-274.0","3KKG4CDWKJKA99NPHCADU6GHJS994M","A2MWAXV1YRK5GH","3SBNLSTU6UR0TCQ1NJ03LFGS7YQZDZ","","null","<img src=""img/animal2.png"" style=""width:200px; border:14px solid green;"">","null","","","",""
"","image-keyboard-response","275","280125","0.0-275.0","3KKG4CDWKJKA99NPHCADU6GHJS994M","A2MWAXV1YRK5GH","3SBNLSTU6UR0TCQ1NJ03LFGS7YQZDZ","","620.2999999998137","img/animal1.png","75","620.9000000003725","75","1",""
"","html-keyboard-response","276","280433","0.0-276.0","3KKG4CDWKJKA99NPHCADU6GHJS994M","A2MWAXV1YRK5GH","3SBNLSTU6UR0TCQ1NJ03LFGS7YQZDZ","","null","<img src=""img/animal1.png"" style=""width:200px; border:14px solid green;"">","null","","","",""
"","image-keyboard-response","277","280965","0.0-277.0","3KKG4CDWKJKA99NPHCADU6GHJS994M","A2MWAXV1YRK5GH","3SBNLSTU6UR0TCQ1NJ03LFGS7YQZDZ","","531.7000000001863","img/animal1.png","75","532.3000000007451","75","1",""
"","html-keyboard-response","278","281273","0.0-278.0","3KKG4CDWKJKA99NPHCADU6GHJS994M","A2MWAXV1YRK5GH","3SBNLSTU6UR0TCQ1NJ03LFGS7YQZDZ","","null","<img src=""img/animal1.png"" style=""width:200px; border:14px solid green;"">","null","","","",""
"","image-keyboard-response","279","281940","0.0-279.0","3KKG4CDWKJKA99NPHCADU6GHJS994M","A2MWAXV1YRK5GH","3SBNLSTU6UR0TCQ1NJ03LFGS7YQZDZ","","666.2000000001863","img/animal2.png","74","666.6999999992549","74","1",""
"","html-keyboard-response","280","282248","0.0-280.0","3KKG4CDWKJKA99NPHCADU6GHJS994M","A2MWAXV1YRK5GH","3SBNLSTU6UR0TCQ1NJ03LFGS7YQZDZ","","null","<img src=""img/animal2.png"" style=""width:200px; border:14px solid green;"">","null","","","",""
"","image-keyboard-response","281","282840","0.0-281.0","3KKG4CDWKJKA99NPHCADU6GHJS994M","A2MWAXV1YRK5GH","3SBNLSTU6UR0TCQ1NJ03LFGS7YQZDZ","","591.5999999996275","img/animal1.png","75","592.1000000005588","75","1",""
"","html-keyboard-response","282","283144","0.0-282.0","3KKG4CDWKJKA99NPHCADU6GHJS994M","A2MWAXV1YRK5GH","3SBNLSTU6UR0TCQ1NJ03LFGS7YQZDZ","","null","<img src=""img/animal1.png"" style=""width:200px; border:14px solid green;"">","null","","","",""
"","image-keyboard-response","283","283665","0.0-283.0","3KKG4CDWKJKA99NPHCADU6GHJS994M","A2MWAXV1YRK5GH","3SBNLSTU6UR0TCQ1NJ03LFGS7YQZDZ","","520.1000000005588","img/animal1.png","75","521.1999999992549","75","1",""
"","html-keyboard-response","284","283969","0.0-284.0","3KKG4CDWKJKA99NPHCADU6GHJS994M","A2MWAXV1YRK5GH","3SBNLSTU6UR0TCQ1NJ03LFGS7YQZDZ","","null","<img src=""img/animal1.png"" style=""width:200px; border:14px solid green;"">","null","","","",""
"","image-keyboard-response","285","284535","0.0-285.0","3KKG4CDWKJKA99NPHCADU6GHJS994M","A2MWAXV1YRK5GH","3SBNLSTU6UR0TCQ1NJ03LFGS7YQZDZ","","565.8000000007451","img/animal3.png","76","566.2999999998137","76","1",""
"","html-keyboard-response","286","284840","0.0-286.0","3KKG4CDWKJKA99NPHCADU6GHJS994M","A2MWAXV1YRK5GH","3SBNLSTU6UR0TCQ1NJ03LFGS7YQZDZ","","null","<img src=""img/animal3.png"" style=""width:200px; border:14px solid green;"">","null","","","",""
"","image-keyboard-response","287","285585","0.0-287.0","3KKG4CDWKJKA99NPHCADU6GHJS994M","A2MWAXV1YRK5GH","3SBNLSTU6UR0TCQ1NJ03LFGS7YQZDZ","","744.3999999994412","img/animal2.png","74","745.0999999996275","74","1",""
"","html-keyboard-response","288","285888","0.0-288.0","3KKG4CDWKJKA99NPHCADU6GHJS994M","A2MWAXV1YRK5GH","3SBNLSTU6UR0TCQ1NJ03LFGS7YQZDZ","","null","<img src=""img/animal2.png"" style=""width:200px; border:14px solid green;"">","null","","","",""
"","image-keyboard-response","289","286590","0.0-289.0","3KKG4CDWKJKA99NPHCADU6GHJS994M","A2MWAXV1YRK5GH","3SBNLSTU6UR0TCQ1NJ03LFGS7YQZDZ","","701.2999999998137","img/animal1.png","75","701.9000000003725","75","1",""
"","html-keyboard-response","290","286895","0.0-290.0","3KKG4CDWKJKA99NPHCADU6GHJS994M","A2MWAXV1YRK5GH","3SBNLSTU6UR0TCQ1NJ03LFGS7YQZDZ","","null","<img src=""img/animal1.png"" style=""width:200px; border:14px solid green;"">","null","","","",""
"","image-keyboard-response","291","287505","0.0-291.0","3KKG4CDWKJKA99NPHCADU6GHJS994M","A2MWAXV1YRK5GH","3SBNLSTU6UR0TCQ1NJ03LFGS7YQZDZ","","609.7999999998137","img/animal3.png","76","610.0999999996275","76","1",""
"","html-keyboard-response","292","287808","0.0-292.0","3KKG4CDWKJKA99NPHCADU6GHJS994M","A2MWAXV1YRK5GH","3SBNLSTU6UR0TCQ1NJ03LFGS7YQZDZ","","null","<img src=""img/animal3.png"" style=""width:200px; border:14px solid green;"">","null","","","",""
"","image-keyboard-response","293","288570","0.0-293.0","3KKG4CDWKJKA99NPHCADU6GHJS994M","A2MWAXV1YRK5GH","3SBNLSTU6UR0TCQ1NJ03LFGS7YQZDZ","","760.9000000003725","img/animal2.png","74","761.2000000001863","74","1",""
"","html-keyboard-response","294","288872","0.0-294.0","3KKG4CDWKJKA99NPHCADU6GHJS994M","A2MWAXV1YRK5GH","3SBNLSTU6UR0TCQ1NJ03LFGS7YQZDZ","","null","<img src=""img/animal2.png"" style=""width:200px; border:14px solid green;"">","null","","","",""
"","image-keyboard-response","295","289605","0.0-295.0","3KKG4CDWKJKA99NPHCADU6GHJS994M","A2MWAXV1YRK5GH","3SBNLSTU6UR0TCQ1NJ03LFGS7YQZDZ","","732","img/animal1.png","75","732.5","75","1",""
"","html-keyboard-response","296","289913","0.0-296.0","3KKG4CDWKJKA99NPHCADU6GHJS994M","A2MWAXV1YRK5GH","3SBNLSTU6UR0TCQ1NJ03LFGS7YQZDZ","","null","<img src=""img/animal1.png"" style=""width:200px; border:14px solid green;"">","null","","","",""
"","image-keyboard-response","297","290550","0.0-297.0","3KKG4CDWKJKA99NPHCADU6GHJS994M","A2MWAXV1YRK5GH","3SBNLSTU6UR0TCQ1NJ03LFGS7YQZDZ","","636.5","img/animal3.png","76","637","76","1",""
"","html-keyboard-response","298","290855","0.0-298.0","3KKG4CDWKJKA99NPHCADU6GHJS994M","A2MWAXV1YRK5GH","3SBNLSTU6UR0TCQ1NJ03LFGS7YQZDZ","","null","<img src=""img/animal3.png"" style=""width:200px; border:14px solid green;"">","null","","","",""
"","image-keyboard-response","299","291780","0.0-299.0","3KKG4CDWKJKA99NPHCADU6GHJS994M","A2MWAXV1YRK5GH","3SBNLSTU6UR0TCQ1NJ03LFGS7YQZDZ","","924.6999999992549","img/animal1.png","75","925.1999999992549","75","1",""
"","html-keyboard-response","300","292088","0.0-300.0","3KKG4CDWKJKA99NPHCADU6GHJS994M","A2MWAXV1YRK5GH","3SBNLSTU6UR0TCQ1NJ03LFGS7YQZDZ","","null","<img src=""img/animal1.png"" style=""width:200px; border:14px solid green;"">","null","","","",""
"","image-keyboard-response","301","292830","0.0-301.0","3KKG4CDWKJKA99NPHCADU6GHJS994M","A2MWAXV1YRK5GH","3SBNLSTU6UR0TCQ1NJ03LFGS7YQZDZ","","741.7000000001863","img/animal3.png","76","742.3000000007451","76","1",""
"","html-keyboard-response","302","293135","0.0-302.0","3KKG4CDWKJKA99NPHCADU6GHJS994M","A2MWAXV1YRK5GH","3SBNLSTU6UR0TCQ1NJ03LFGS7YQZDZ","","null","<img src=""img/animal3.png"" style=""width:200px; border:14px solid green;"">","null","","","",""
"","image-keyboard-response","303","293866","0.0-303.0","3KKG4CDWKJKA99NPHCADU6GHJS994M","A2MWAXV1YRK5GH","3SBNLSTU6UR0TCQ1NJ03LFGS7YQZDZ","","729.6000000005588","img/animal1.png","75","730","75","1",""
"","html-keyboard-response","304","294168","0.0-304.0","3KKG4CDWKJKA99NPHCADU6GHJS994M","A2MWAXV1YRK5GH","3SBNLSTU6UR0TCQ1NJ03LFGS7YQZDZ","","null","<img src=""img/animal1.png"" style=""width:200px; border:14px solid green;"">","null","","","",""
"","image-keyboard-response","305","294900","0.0-305.0","3KKG4CDWKJKA99NPHCADU6GHJS994M","A2MWAXV1YRK5GH","3SBNLSTU6UR0TCQ1NJ03LFGS7YQZDZ","","732.2999999998137","img/animal1.png","75","732.9000000003725","75","1",""
"","html-keyboard-response","306","295208","0.0-306.0","3KKG4CDWKJKA99NPHCADU6GHJS994M","A2MWAXV1YRK5GH","3SBNLSTU6UR0TCQ1NJ03LFGS7YQZDZ","","null","<img src=""img/animal1.png"" style=""width:200px; border:14px solid green;"">","null","","","",""
"","image-keyboard-response","307","295861","0.0-307.0","3KKG4CDWKJKA99NPHCADU6GHJS994M","A2MWAXV1YRK5GH","3SBNLSTU6UR0TCQ1NJ03LFGS7YQZDZ","","652.5","img/animal2.png","74","653.0999999996275","74","1",""
"","html-keyboard-response","308","296167","0.0-308.0","3KKG4CDWKJKA99NPHCADU6GHJS994M","A2MWAXV1YRK5GH","3SBNLSTU6UR0TCQ1NJ03LFGS7YQZDZ","","null","<img src=""img/animal2.png"" style=""width:200px; border:14px solid green;"">","null","","","",""
"","image-keyboard-response","309","297030","0.0-309.0","3KKG4CDWKJKA99NPHCADU6GHJS994M","A2MWAXV1YRK5GH","3SBNLSTU6UR0TCQ1NJ03LFGS7YQZDZ","","862.5","img/animal3.png","76","863","76","1",""
"","html-keyboard-response","310","297336","0.0-310.0","3KKG4CDWKJKA99NPHCADU6GHJS994M","A2MWAXV1YRK5GH","3SBNLSTU6UR0TCQ1NJ03LFGS7YQZDZ","","null","<img src=""img/animal3.png"" style=""width:200px; border:14px solid green;"">","null","","","",""
"","image-keyboard-response","311","298155","0.0-311.0","3KKG4CDWKJKA99NPHCADU6GHJS994M","A2MWAXV1YRK5GH","3SBNLSTU6UR0TCQ1NJ03LFGS7YQZDZ","","818.3999999994412","img/animal3.png","76","819","76","1",""
"","html-keyboard-response","312","298463","0.0-312.0","3KKG4CDWKJKA99NPHCADU6GHJS994M","A2MWAXV1YRK5GH","3SBNLSTU6UR0TCQ1NJ03LFGS7YQZDZ","","null","<img src=""img/animal3.png"" style=""width:200px; border:14px solid green;"">","null","","","",""
"","image-keyboard-response","313","299070","0.0-313.0","3KKG4CDWKJKA99NPHCADU6GHJS994M","A2MWAXV1YRK5GH","3SBNLSTU6UR0TCQ1NJ03LFGS7YQZDZ","","606.0999999996275","img/animal3.png","76","606.5","76","1",""
"","html-keyboard-response","314","299375","0.0-314.0","3KKG4CDWKJKA99NPHCADU6GHJS994M","A2MWAXV1YRK5GH","3SBNLSTU6UR0TCQ1NJ03LFGS7YQZDZ","","null","<img src=""img/animal3.png"" style=""width:200px; border:14px solid green;"">","null","","","",""
"","image-keyboard-response","315","300016","0.0-315.0","3KKG4CDWKJKA99NPHCADU6GHJS994M","A2MWAXV1YRK5GH","3SBNLSTU6UR0TCQ1NJ03LFGS7YQZDZ","","640.5999999996275","img/animal2.png","74","641.1000000005588","74","1",""
"","html-keyboard-response","316","300320","0.0-316.0","3KKG4CDWKJKA99NPHCADU6GHJS994M","A2MWAXV1YRK5GH","3SBNLSTU6UR0TCQ1NJ03LFGS7YQZDZ","","null","<img src=""img/animal2.png"" style=""width:200px; border:14px solid green;"">","null","","","",""
"","image-keyboard-response","317","300946","0.0-317.0","3KKG4CDWKJKA99NPHCADU6GHJS994M","A2MWAXV1YRK5GH","3SBNLSTU6UR0TCQ1NJ03LFGS7YQZDZ","","625.2000000001863","img/animal1.png","75","625.7999999998137","75","1",""
"","html-keyboard-response","318","301256","0.0-318.0","3KKG4CDWKJKA99NPHCADU6GHJS994M","A2MWAXV1YRK5GH","3SBNLSTU6UR0TCQ1NJ03LFGS7YQZDZ","","null","<img src=""img/animal1.png"" style=""width:200px; border:14px solid green;"">","null","","","",""
"","image-keyboard-response","319","301830","0.0-319.0","3KKG4CDWKJKA99NPHCADU6GHJS994M","A2MWAXV1YRK5GH","3SBNLSTU6UR0TCQ1NJ03LFGS7YQZDZ","","573.7999999998137","img/animal1.png","75","574.2999999998137","75","1",""
"","html-keyboard-response","320","302136","0.0-320.0","3KKG4CDWKJKA99NPHCADU6GHJS994M","A2MWAXV1YRK5GH","3SBNLSTU6UR0TCQ1NJ03LFGS7YQZDZ","","null","<img src=""img/animal1.png"" style=""width:200px; border:14px solid green;"">","null","","","",""
"","image-keyboard-response","321","302911","0.0-321.0","3KKG4CDWKJKA99NPHCADU6GHJS994M","A2MWAXV1YRK5GH","3SBNLSTU6UR0TCQ1NJ03LFGS7YQZDZ","","774.6000000005588","img/animal3.png","76","775.0999999996275","76","1",""
"","html-keyboard-response","322","303216","0.0-322.0","3KKG4CDWKJKA99NPHCADU6GHJS994M","A2MWAXV1YRK5GH","3SBNLSTU6UR0TCQ1NJ03LFGS7YQZDZ","","null","<img src=""img/animal3.png"" style=""width:200px; border:14px solid green;"">","null","","","",""
"","image-keyboard-response","323","303901","0.0-323.0","3KKG4CDWKJKA99NPHCADU6GHJS994M","A2MWAXV1YRK5GH","3SBNLSTU6UR0TCQ1NJ03LFGS7YQZDZ","","684.4000000003725","img/animal2.png","74","684.8999999994412","74","1",""
"","html-keyboard-response","324","304207","0.0-324.0","3KKG4CDWKJKA99NPHCADU6GHJS994M","A2MWAXV1YRK5GH","3SBNLSTU6UR0TCQ1NJ03LFGS7YQZDZ","","null","<img src=""img/animal2.png"" style=""width:200px; border:14px solid green;"">","null","","","",""
"","image-keyboard-response","325","304770","0.0-325.0","3KKG4CDWKJKA99NPHCADU6GHJS994M","A2MWAXV1YRK5GH","3SBNLSTU6UR0TCQ1NJ03LFGS7YQZDZ","","562.0999999996275","img/animal2.png","74","562.6000000005588","74","1",""
"","html-keyboard-response","326","305079","0.0-326.0","3KKG4CDWKJKA99NPHCADU6GHJS994M","A2MWAXV1YRK5GH","3SBNLSTU6UR0TCQ1NJ03LFGS7YQZDZ","","null","<img src=""img/animal2.png"" style=""width:200px; border:14px solid green;"">","null","","","",""
"","image-keyboard-response","327","305716","0.0-327.0","3KKG4CDWKJKA99NPHCADU6GHJS994M","A2MWAXV1YRK5GH","3SBNLSTU6UR0TCQ1NJ03LFGS7YQZDZ","","635.5999999996275","img/animal1.png","75","636.0999999996275","75","1",""
"","html-keyboard-response","328","306023","0.0-328.0","3KKG4CDWKJKA99NPHCADU6GHJS994M","A2MWAXV1YRK5GH","3SBNLSTU6UR0TCQ1NJ03LFGS7YQZDZ","","null","<img src=""img/animal1.png"" style=""width:200px; border:14px solid green;"">","null","","","",""
"","image-keyboard-response","329","306856","0.0-329.0","3KKG4CDWKJKA99NPHCADU6GHJS994M","A2MWAXV1YRK5GH","3SBNLSTU6UR0TCQ1NJ03LFGS7YQZDZ","","831.5999999996275","img/animal2.png","74","832.1000000005588","74","1",""
"","html-keyboard-response","330","307159","0.0-330.0","3KKG4CDWKJKA99NPHCADU6GHJS994M","A2MWAXV1YRK5GH","3SBNLSTU6UR0TCQ1NJ03LFGS7YQZDZ","","null","<img src=""img/animal2.png"" style=""width:200px; border:14px solid green;"">","null","","","",""
"","image-keyboard-response","331","307982","0.0-331.0","3KKG4CDWKJKA99NPHCADU6GHJS994M","A2MWAXV1YRK5GH","3SBNLSTU6UR0TCQ1NJ03LFGS7YQZDZ","","821.6000000005588","img/animal3.png","76","822.2000000001863","76","1",""
"","html-keyboard-response","332","308287","0.0-332.0","3KKG4CDWKJKA99NPHCADU6GHJS994M","A2MWAXV1YRK5GH","3SBNLSTU6UR0TCQ1NJ03LFGS7YQZDZ","","null","<img src=""img/animal3.png"" style=""width:200px; border:14px solid green;"">","null","","","",""
"","image-keyboard-response","333","309121","0.0-333.0","3KKG4CDWKJKA99NPHCADU6GHJS994M","A2MWAXV1YRK5GH","3SBNLSTU6UR0TCQ1NJ03LFGS7YQZDZ","","833.2999999998137","img/animal2.png","74","833.7999999998137","74","1",""
"","html-keyboard-response","334","309432","0.0-334.0","3KKG4CDWKJKA99NPHCADU6GHJS994M","A2MWAXV1YRK5GH","3SBNLSTU6UR0TCQ1NJ03LFGS7YQZDZ","","null","<img src=""img/animal2.png"" style=""width:200px; border:14px solid green;"">","null","","","",""
"","image-keyboard-response","335","310006","0.0-335.0","3KKG4CDWKJKA99NPHCADU6GHJS994M","A2MWAXV1YRK5GH","3SBNLSTU6UR0TCQ1NJ03LFGS7YQZDZ","","574.4000000003725","img/animal2.png","74","574.7000000001863","74","1",""
"","html-keyboard-response","336","310311","0.0-336.0","3KKG4CDWKJKA99NPHCADU6GHJS994M","A2MWAXV1YRK5GH","3SBNLSTU6UR0TCQ1NJ03LFGS7YQZDZ","","null","<img src=""img/animal2.png"" style=""width:200px; border:14px solid green;"">","null","","","",""
"","image-keyboard-response","337","310951","0.0-337.0","3KKG4CDWKJKA99NPHCADU6GHJS994M","A2MWAXV1YRK5GH","3SBNLSTU6UR0TCQ1NJ03LFGS7YQZDZ","","639.2999999998137","img/animal3.png","76","640.1000000005588","76","1",""
"","html-keyboard-response","338","311255","0.0-338.0","3KKG4CDWKJKA99NPHCADU6GHJS994M","A2MWAXV1YRK5GH","3SBNLSTU6UR0TCQ1NJ03LFGS7YQZDZ","","null","<img src=""img/animal3.png"" style=""width:200px; border:14px solid green;"">","null","","","",""
"","image-keyboard-response","339","312002","0.0-339.0","3KKG4CDWKJKA99NPHCADU6GHJS994M","A2MWAXV1YRK5GH","3SBNLSTU6UR0TCQ1NJ03LFGS7YQZDZ","","745.7999999998137","img/animal2.png","74","746.4000000003725","74","1",""
"","html-keyboard-response","340","312312","0.0-340.0","3KKG4CDWKJKA99NPHCADU6GHJS994M","A2MWAXV1YRK5GH","3SBNLSTU6UR0TCQ1NJ03LFGS7YQZDZ","","null","<img src=""img/animal2.png"" style=""width:200px; border:14px solid green;"">","null","","","",""
"","image-keyboard-response","341","313141","0.0-341.0","3KKG4CDWKJKA99NPHCADU6GHJS994M","A2MWAXV1YRK5GH","3SBNLSTU6UR0TCQ1NJ03LFGS7YQZDZ","","828.9000000003725","img/animal1.png","75","829.3999999994412","75","1",""
"","html-keyboard-response","342","313446","0.0-342.0","3KKG4CDWKJKA99NPHCADU6GHJS994M","A2MWAXV1YRK5GH","3SBNLSTU6UR0TCQ1NJ03LFGS7YQZDZ","","null","<img src=""img/animal1.png"" style=""width:200px; border:14px solid green;"">","null","","","",""
"","image-keyboard-response","343","314251","0.0-343.0","3KKG4CDWKJKA99NPHCADU6GHJS994M","A2MWAXV1YRK5GH","3SBNLSTU6UR0TCQ1NJ03LFGS7YQZDZ","","804.7999999998137","img/animal3.png","76","805.2999999998137","76","1",""
"","html-keyboard-response","344","314558","0.0-344.0","3KKG4CDWKJKA99NPHCADU6GHJS994M","A2MWAXV1YRK5GH","3SBNLSTU6UR0TCQ1NJ03LFGS7YQZDZ","","null","<img src=""img/animal3.png"" style=""width:200px; border:14px solid green;"">","null","","","",""
"","image-keyboard-response","345","315526","0.0-345.0","3KKG4CDWKJKA99NPHCADU6GHJS994M","A2MWAXV1YRK5GH","3SBNLSTU6UR0TCQ1NJ03LFGS7YQZDZ","","967.3999999994412","img/animal1.png","75","968.1000000005588","75","1",""
"","html-keyboard-response","346","315830","0.0-346.0","3KKG4CDWKJKA99NPHCADU6GHJS994M","A2MWAXV1YRK5GH","3SBNLSTU6UR0TCQ1NJ03LFGS7YQZDZ","","null","<img src=""img/animal1.png"" style=""width:200px; border:14px solid green;"">","null","","","",""
"","image-keyboard-response","347","316366","0.0-347.0","3KKG4CDWKJKA99NPHCADU6GHJS994M","A2MWAXV1YRK5GH","3SBNLSTU6UR0TCQ1NJ03LFGS7YQZDZ","","535.3000000007451","img/animal1.png","75","535.7999999998137","75","1",""
"","html-keyboard-response","348","316671","0.0-348.0","3KKG4CDWKJKA99NPHCADU6GHJS994M","A2MWAXV1YRK5GH","3SBNLSTU6UR0TCQ1NJ03LFGS7YQZDZ","","null","<img src=""img/animal1.png"" style=""width:200px; border:14px solid green;"">","null","","","",""
"","image-keyboard-response","349","317372","0.0-349.0","3KKG4CDWKJKA99NPHCADU6GHJS994M","A2MWAXV1YRK5GH","3SBNLSTU6UR0TCQ1NJ03LFGS7YQZDZ","","699.7999999998137","img/animal3.png","76","700.2000000001863","76","1",""
"","html-keyboard-response","350","317678","0.0-350.0","3KKG4CDWKJKA99NPHCADU6GHJS994M","A2MWAXV1YRK5GH","3SBNLSTU6UR0TCQ1NJ03LFGS7YQZDZ","","null","<img src=""img/animal3.png"" style=""width:200px; border:14px solid green;"">","null","","","",""
"","image-keyboard-response","351","318347","0.0-351.0","3KKG4CDWKJKA99NPHCADU6GHJS994M","A2MWAXV1YRK5GH","3SBNLSTU6UR0TCQ1NJ03LFGS7YQZDZ","","668.1000000005588","img/animal2.png","74","668.5999999996275","74","1",""
"","html-keyboard-response","352","318655","0.0-352.0","3KKG4CDWKJKA99NPHCADU6GHJS994M","A2MWAXV1YRK5GH","3SBNLSTU6UR0TCQ1NJ03LFGS7YQZDZ","","null","<img src=""img/animal2.png"" style=""width:200px; border:14px solid green;"">","null","","","",""
"","image-keyboard-response","353","319187","0.0-353.0","3KKG4CDWKJKA99NPHCADU6GHJS994M","A2MWAXV1YRK5GH","3SBNLSTU6UR0TCQ1NJ03LFGS7YQZDZ","","531.0999999996275","img/animal2.png","74","531.6999999992549","74","1",""
"","html-keyboard-response","354","319495","0.0-354.0","3KKG4CDWKJKA99NPHCADU6GHJS994M","A2MWAXV1YRK5GH","3SBNLSTU6UR0TCQ1NJ03LFGS7YQZDZ","","null","<img src=""img/animal2.png"" style=""width:200px; border:14px solid green;"">","null","","","",""
"","image-keyboard-response","355","320192","0.0-355.0","3KKG4CDWKJKA99NPHCADU6GHJS994M","A2MWAXV1YRK5GH","3SBNLSTU6UR0TCQ1NJ03LFGS7YQZDZ","","696.0999999996275","img/animal3.png","76","696.5999999996275","76","1",""
"","html-keyboard-response","356","320494","0.0-356.0","3KKG4CDWKJKA99NPHCADU6GHJS994M","A2MWAXV1YRK5GH","3SBNLSTU6UR0TCQ1NJ03LFGS7YQZDZ","","null","<img src=""img/animal3.png"" style=""width:200px; border:14px solid green;"">","null","","","",""
"","image-keyboard-response","357","321091","0.0-357.0","3KKG4CDWKJKA99NPHCADU6GHJS994M","A2MWAXV1YRK5GH","3SBNLSTU6UR0TCQ1NJ03LFGS7YQZDZ","","596.7000000001863","img/animal1.png","75","597.0999999996275","75","1",""
"","html-keyboard-response","358","321397","0.0-358.0","3KKG4CDWKJKA99NPHCADU6GHJS994M","A2MWAXV1YRK5GH","3SBNLSTU6UR0TCQ1NJ03LFGS7YQZDZ","","null","<img src=""img/animal1.png"" style=""width:200px; border:14px solid green;"">","null","","","",""
"","image-keyboard-response","359","322126","0.0-359.0","3KKG4CDWKJKA99NPHCADU6GHJS994M","A2MWAXV1YRK5GH","3SBNLSTU6UR0TCQ1NJ03LFGS7YQZDZ","","728.2000000001863","img/animal3.png","76","728.9000000003725","76","1",""
"","html-keyboard-response","360","322429","0.0-360.0","3KKG4CDWKJKA99NPHCADU6GHJS994M","A2MWAXV1YRK5GH","3SBNLSTU6UR0TCQ1NJ03LFGS7YQZDZ","","null","<img src=""img/animal3.png"" style=""width:200px; border:14px solid green;"">","null","","","",""
"","image-keyboard-response","361","323162","0.0-361.0","3KKG4CDWKJKA99NPHCADU6GHJS994M","A2MWAXV1YRK5GH","3SBNLSTU6UR0TCQ1NJ03LFGS7YQZDZ","","731.2000000001863","img/animal2.png","74","732.0999999996275","74","1",""
"","html-keyboard-response","362","323471","0.0-362.0","3KKG4CDWKJKA99NPHCADU6GHJS994M","A2MWAXV1YRK5GH","3SBNLSTU6UR0TCQ1NJ03LFGS7YQZDZ","","null","<img src=""img/animal2.png"" style=""width:200px; border:14px solid green;"">","null","","","",""
"","instructions","363","327543","0.0-363.0","3KKG4CDWKJKA99NPHCADU6GHJS994M","A2MWAXV1YRK5GH","3SBNLSTU6UR0TCQ1NJ03LFGS7YQZDZ","[{""page_index"":0,""viewing_time"":4072}]","4072.100000000559","","","","","",""
"","survey-text","364","333399","0.0-364.0","3KKG4CDWKJKA99NPHCADU6GHJS994M","A2MWAXV1YRK5GH","3SBNLSTU6UR0TCQ1NJ03LFGS7YQZDZ","","5854.700000000186","","","","","","{""Q0"":""A2MWAXV1YRK5GH""}"
