"success","trial_type","trial_index","time_elapsed","internal_node_id","assignmentID","mturkID","hitID","view_history","rt","stimulus","key_press","reactionTime","a","r","s","reward_cond","responses"
"true","fullscreen","0","2618","0.0-0.0","3ZOTGHDK5JXWIHT692PDPZRCTPNOSC","A2NXMRPHG86N2T","3A3KKYU7P33Z3BR9PPFZ5194ZCQMWU","","","","","","","","","",""
"","instructions","1","21997","0.0-1.0","3ZOTGHDK5JXWIHT692PDPZRCTPNOSC","A2NXMRPHG86N2T","3A3KKYU7P33Z3BR9PPFZ5194ZCQMWU","[{""page_index"":0,""viewing_time"":3957.600000023842},{""page_index"":1,""viewing_time"":917.5999999046326},{""page_index"":2,""viewing_time"":2851.8000000715256},{""page_index"":3,""viewing_time"":1880.1999999284744},{""page_index"":4,""viewing_time"":1232.1000000238419},{""page_index"":5,""viewing_time"":2539.8000000715256},{""page_index"":6,""viewing_time"":4034},{""page_index"":7,""viewing_time"":1963.6999999284744}]","19377.600000023842","","","","","","","",""
"","image-keyboard-response","2","23541","0.0-2.0","3ZOTGHDK5JXWIHT692PDPZRCTPNOSC","A2NXMRPHG86N2T","3A3KKYU7P33Z3BR9PPFZ5194ZCQMWU","","1541.8999999761581","img/animal6.png","74","1543.2000000476837","1","0","3","1,0.5,0,1,0,0.5,0.5,0,1",""
"","html-keyboard-response","3","23858","0.0-3.0","3ZOTGHDK5JXWIHT692PDPZRCTPNOSC","A2NXMRPHG86N2T","3A3KKYU7P33Z3BR9PPFZ5194ZCQMWU","","null","<img src=""img/animal6.png"" style=""width:200px;border:14px solid red;"">","null","","","","","",""
"","image-keyboard-response","4","24797","0.0-4.0","3ZOTGHDK5JXWIHT692PDPZRCTPNOSC","A2NXMRPHG86N2T","3A3KKYU7P33Z3BR9PPFZ5194ZCQMWU","","936.8999999761581","img/animal5.png","74","938.3999999761581","1","1","1","1,0.5,0,1,0,0.5,0.5,0,1",""
"","html-keyboard-response","5","25118","0.0-5.0","3ZOTGHDK5JXWIHT692PDPZRCTPNOSC","A2NXMRPHG86N2T","3A3KKYU7P33Z3BR9PPFZ5194ZCQMWU","","null","<img src=""img/animal5.png"" style=""width:200px; border:14px solid green;"">","null","","","","","",""
"","image-keyboard-response","6","26237","0.0-6.0","3ZOTGHDK5JXWIHT692PDPZRCTPNOSC","A2NXMRPHG86N2T","3A3KKYU7P33Z3BR9PPFZ5194ZCQMWU","","1118","img/animal4.png","74","1119.1000000238419","1","1","2","1,0.5,0,1,0,0.5,0.5,0,1",""
"","html-keyboard-response","7","26548","0.0-7.0","3ZOTGHDK5JXWIHT692PDPZRCTPNOSC","A2NXMRPHG86N2T","3A3KKYU7P33Z3BR9PPFZ5194ZCQMWU","","null","<img src=""img/animal4.png"" style=""width:200px; border:14px solid green;"">","null","","","","","",""
"","image-keyboard-response","8","27357","0.0-8.0","3ZOTGHDK5JXWIHT692PDPZRCTPNOSC","A2NXMRPHG86N2T","3A3KKYU7P33Z3BR9PPFZ5194ZCQMWU","","806.7999999523163","img/animal4.png","74","808.6000000238419","1","1","2","1,0.5,0,1,0,0.5,0.5,0,1",""
"","html-keyboard-response","9","27668","0.0-9.0","3ZOTGHDK5JXWIHT692PDPZRCTPNOSC","A2NXMRPHG86N2T","3A3KKYU7P33Z3BR9PPFZ5194ZCQMWU","","null","<img src=""img/animal4.png"" style=""width:200px; border:14px solid green;"">","null","","","","","",""
"","image-keyboard-response","10","28557","0.0-10.0","3ZOTGHDK5JXWIHT692PDPZRCTPNOSC","A2NXMRPHG86N2T","3A3KKYU7P33Z3BR9PPFZ5194ZCQMWU","","886.9000000953674","img/animal4.png","74","888.6000000238419","1","1","2","1,0.5,0,1,0,0.5,0.5,0,1",""
"","html-keyboard-response","11","28878","0.0-11.0","3ZOTGHDK5JXWIHT692PDPZRCTPNOSC","A2NXMRPHG86N2T","3A3KKYU7P33Z3BR9PPFZ5194ZCQMWU","","null","<img src=""img/animal4.png"" style=""width:200px; border:14px solid green;"">","null","","","","","",""
"","image-keyboard-response","12","29365","0.0-12.0","3ZOTGHDK5JXWIHT692PDPZRCTPNOSC","A2NXMRPHG86N2T","3A3KKYU7P33Z3BR9PPFZ5194ZCQMWU","","485.5","img/animal4.png","74","487.10000002384186","1","1","2","1,0.5,0,1,0,0.5,0.5,0,1",""
"","html-keyboard-response","13","29668","0.0-13.0","3ZOTGHDK5JXWIHT692PDPZRCTPNOSC","A2NXMRPHG86N2T","3A3KKYU7P33Z3BR9PPFZ5194ZCQMWU","","null","<img src=""img/animal4.png"" style=""width:200px; border:14px solid green;"">","null","","","","","",""
"","image-keyboard-response","14","30397","0.0-14.0","3ZOTGHDK5JXWIHT692PDPZRCTPNOSC","A2NXMRPHG86N2T","3A3KKYU7P33Z3BR9PPFZ5194ZCQMWU","","727.1000000238419","img/animal5.png","74","729","1","1","1","1,0.5,0,1,0,0.5,0.5,0,1",""
"","html-keyboard-response","15","30701","0.0-15.0","3ZOTGHDK5JXWIHT692PDPZRCTPNOSC","A2NXMRPHG86N2T","3A3KKYU7P33Z3BR9PPFZ5194ZCQMWU","","null","<img src=""img/animal5.png"" style=""width:200px; border:14px solid green;"">","null","","","","","",""
"","image-keyboard-response","16","31149","0.0-16.0","3ZOTGHDK5JXWIHT692PDPZRCTPNOSC","A2NXMRPHG86N2T","3A3KKYU7P33Z3BR9PPFZ5194ZCQMWU","","446","img/animal5.png","74","447.5","1","1","1","1,0.5,0,1,0,0.5,0.5,0,1",""
"","html-keyboard-response","17","31452","0.0-17.0","3ZOTGHDK5JXWIHT692PDPZRCTPNOSC","A2NXMRPHG86N2T","3A3KKYU7P33Z3BR9PPFZ5194ZCQMWU","","null","<img src=""img/animal5.png"" style=""width:200px; border:14px solid green;"">","null","","","","","",""
"","image-keyboard-response","18","32605","0.0-18.0","3ZOTGHDK5JXWIHT692PDPZRCTPNOSC","A2NXMRPHG86N2T","3A3KKYU7P33Z3BR9PPFZ5194ZCQMWU","","1151.7000000476837","img/animal4.png","74","1153.4000000953674","1","1","2","1,0.5,0,1,0,0.5,0.5,0,1",""
"","html-keyboard-response","19","32910","0.0-19.0","3ZOTGHDK5JXWIHT692PDPZRCTPNOSC","A2NXMRPHG86N2T","3A3KKYU7P33Z3BR9PPFZ5194ZCQMWU","","null","<img src=""img/animal4.png"" style=""width:200px; border:14px solid green;"">","null","","","","","",""
"","image-keyboard-response","20","33677","0.0-20.0","3ZOTGHDK5JXWIHT692PDPZRCTPNOSC","A2NXMRPHG86N2T","3A3KKYU7P33Z3BR9PPFZ5194ZCQMWU","","765.6000000238419","img/animal5.png","74","767.2999999523163","1","1","1","1,0.5,0,1,0,0.5,0.5,0,1",""
"","html-keyboard-response","21","33980","0.0-21.0","3ZOTGHDK5JXWIHT692PDPZRCTPNOSC","A2NXMRPHG86N2T","3A3KKYU7P33Z3BR9PPFZ5194ZCQMWU","","null","<img src=""img/animal5.png"" style=""width:200px; border:14px solid green;"">","null","","","","","",""
"","image-keyboard-response","22","34699","0.0-22.0","3ZOTGHDK5JXWIHT692PDPZRCTPNOSC","A2NXMRPHG86N2T","3A3KKYU7P33Z3BR9PPFZ5194ZCQMWU","","717.7000000476837","img/animal6.png","76","718.8000000715256","3","1","3","1,0.5,0,1,0,0.5,0.5,0,1",""
"","html-keyboard-response","23","35002","0.0-23.0","3ZOTGHDK5JXWIHT692PDPZRCTPNOSC","A2NXMRPHG86N2T","3A3KKYU7P33Z3BR9PPFZ5194ZCQMWU","","null","<img src=""img/animal6.png"" style=""width:200px; border:14px solid green;"">","null","","","","","",""
"","image-keyboard-response","24","35637","0.0-24.0","3ZOTGHDK5JXWIHT692PDPZRCTPNOSC","A2NXMRPHG86N2T","3A3KKYU7P33Z3BR9PPFZ5194ZCQMWU","","633","img/animal6.png","76","634.3999999761581","3","1","3","1,0.5,0,1,0,0.5,0.5,0,1",""
"","html-keyboard-response","25","35940","0.0-25.0","3ZOTGHDK5JXWIHT692PDPZRCTPNOSC","A2NXMRPHG86N2T","3A3KKYU7P33Z3BR9PPFZ5194ZCQMWU","","null","<img src=""img/animal6.png"" style=""width:200px; border:14px solid green;"">","null","","","","","",""
"","image-keyboard-response","26","36893","0.0-26.0","3ZOTGHDK5JXWIHT692PDPZRCTPNOSC","A2NXMRPHG86N2T","3A3KKYU7P33Z3BR9PPFZ5194ZCQMWU","","951.2000000476837","img/animal5.png","74","952.6000000238419","1","1","1","1,0.5,0,1,0,0.5,0.5,0,1",""
"","html-keyboard-response","27","37196","0.0-27.0","3ZOTGHDK5JXWIHT692PDPZRCTPNOSC","A2NXMRPHG86N2T","3A3KKYU7P33Z3BR9PPFZ5194ZCQMWU","","null","<img src=""img/animal5.png"" style=""width:200px; border:14px solid green;"">","null","","","","","",""
"","image-keyboard-response","28","38117","0.0-28.0","3ZOTGHDK5JXWIHT692PDPZRCTPNOSC","A2NXMRPHG86N2T","3A3KKYU7P33Z3BR9PPFZ5194ZCQMWU","","919.2000000476837","img/animal4.png","74","920.8999999761581","1","1","2","1,0.5,0,1,0,0.5,0.5,0,1",""
"","html-keyboard-response","29","38420","0.0-29.0","3ZOTGHDK5JXWIHT692PDPZRCTPNOSC","A2NXMRPHG86N2T","3A3KKYU7P33Z3BR9PPFZ5194ZCQMWU","","null","<img src=""img/animal4.png"" style=""width:200px; border:14px solid green;"">","null","","","","","",""
"","image-keyboard-response","30","39445","0.0-30.0","3ZOTGHDK5JXWIHT692PDPZRCTPNOSC","A2NXMRPHG86N2T","3A3KKYU7P33Z3BR9PPFZ5194ZCQMWU","","1023.8000000715256","img/animal6.png","76","1024.7999999523163","3","1","3","1,0.5,0,1,0,0.5,0.5,0,1",""
"","html-keyboard-response","31","39748","0.0-31.0","3ZOTGHDK5JXWIHT692PDPZRCTPNOSC","A2NXMRPHG86N2T","3A3KKYU7P33Z3BR9PPFZ5194ZCQMWU","","null","<img src=""img/animal6.png"" style=""width:200px; border:14px solid green;"">","null","","","","","",""
"","image-keyboard-response","32","40148","0.0-32.0","3ZOTGHDK5JXWIHT692PDPZRCTPNOSC","A2NXMRPHG86N2T","3A3KKYU7P33Z3BR9PPFZ5194ZCQMWU","","398.2000000476837","img/animal6.png","76","399.6999999284744","3","1","3","1,0.5,0,1,0,0.5,0.5,0,1",""
"","html-keyboard-response","33","40450","0.0-33.0","3ZOTGHDK5JXWIHT692PDPZRCTPNOSC","A2NXMRPHG86N2T","3A3KKYU7P33Z3BR9PPFZ5194ZCQMWU","","null","<img src=""img/animal6.png"" style=""width:200px; border:14px solid green;"">","null","","","","","",""
"","image-keyboard-response","34","40981","0.0-34.0","3ZOTGHDK5JXWIHT692PDPZRCTPNOSC","A2NXMRPHG86N2T","3A3KKYU7P33Z3BR9PPFZ5194ZCQMWU","","529","img/animal4.png","74","530.3999999761581","1","1","2","1,0.5,0,1,0,0.5,0.5,0,1",""
"","html-keyboard-response","35","41284","0.0-35.0","3ZOTGHDK5JXWIHT692PDPZRCTPNOSC","A2NXMRPHG86N2T","3A3KKYU7P33Z3BR9PPFZ5194ZCQMWU","","null","<img src=""img/animal4.png"" style=""width:200px; border:14px solid green;"">","null","","","","","",""
"","image-keyboard-response","36","42110","0.0-36.0","3ZOTGHDK5JXWIHT692PDPZRCTPNOSC","A2NXMRPHG86N2T","3A3KKYU7P33Z3BR9PPFZ5194ZCQMWU","","824.6000000238419","img/animal5.png","74","826.2000000476837","1","1","1","1,0.5,0,1,0,0.5,0.5,0,1",""
"","html-keyboard-response","37","42413","0.0-37.0","3ZOTGHDK5JXWIHT692PDPZRCTPNOSC","A2NXMRPHG86N2T","3A3KKYU7P33Z3BR9PPFZ5194ZCQMWU","","null","<img src=""img/animal5.png"" style=""width:200px; border:14px solid green;"">","null","","","","","",""
"","image-keyboard-response","38","43214","0.0-38.0","3ZOTGHDK5JXWIHT692PDPZRCTPNOSC","A2NXMRPHG86N2T","3A3KKYU7P33Z3BR9PPFZ5194ZCQMWU","","799.1000000238419","img/animal4.png","76","800.6000000238419","3","1","2","1,0.5,0,1,0,0.5,0.5,0,1",""
"","html-keyboard-response","39","43517","0.0-39.0","3ZOTGHDK5JXWIHT692PDPZRCTPNOSC","A2NXMRPHG86N2T","3A3KKYU7P33Z3BR9PPFZ5194ZCQMWU","","null","<img src=""img/animal4.png"" style=""width:200px; border:14px solid green;"">","null","","","","","",""
"","image-keyboard-response","40","45085","0.0-40.0","3ZOTGHDK5JXWIHT692PDPZRCTPNOSC","A2NXMRPHG86N2T","3A3KKYU7P33Z3BR9PPFZ5194ZCQMWU","","1566.3000000715256","img/animal6.png","74","1567.6000000238419","1","1","3","1,0.5,0,1,0,0.5,0.5,0,1",""
"","html-keyboard-response","41","45387","0.0-41.0","3ZOTGHDK5JXWIHT692PDPZRCTPNOSC","A2NXMRPHG86N2T","3A3KKYU7P33Z3BR9PPFZ5194ZCQMWU","","null","<img src=""img/animal6.png"" style=""width:200px; border:14px solid green;"">","null","","","","","",""
"","image-keyboard-response","42","46485","0.0-42.0","3ZOTGHDK5JXWIHT692PDPZRCTPNOSC","A2NXMRPHG86N2T","3A3KKYU7P33Z3BR9PPFZ5194ZCQMWU","","1095.2000000476837","img/animal5.png","74","1097.1000000238419","1","1","1","1,0.5,0,1,0,0.5,0.5,0,1",""
"","html-keyboard-response","43","46787","0.0-43.0","3ZOTGHDK5JXWIHT692PDPZRCTPNOSC","A2NXMRPHG86N2T","3A3KKYU7P33Z3BR9PPFZ5194ZCQMWU","","null","<img src=""img/animal5.png"" style=""width:200px; border:14px solid green;"">","null","","","","","",""
"","image-keyboard-response","44","48044","0.0-44.0","3ZOTGHDK5JXWIHT692PDPZRCTPNOSC","A2NXMRPHG86N2T","3A3KKYU7P33Z3BR9PPFZ5194ZCQMWU","","1255.6000000238419","img/animal6.png","74","1257","1","0","3","1,0.5,0,1,0,0.5,0.5,0,1",""
"","html-keyboard-response","45","48348","0.0-45.0","3ZOTGHDK5JXWIHT692PDPZRCTPNOSC","A2NXMRPHG86N2T","3A3KKYU7P33Z3BR9PPFZ5194ZCQMWU","","null","<img src=""img/animal6.png"" style=""width:200px;border:14px solid red;"">","null","","","","","",""
"","image-keyboard-response","46","49821","0.0-46.0","3ZOTGHDK5JXWIHT692PDPZRCTPNOSC","A2NXMRPHG86N2T","3A3KKYU7P33Z3BR9PPFZ5194ZCQMWU","","1471.7999999523163","img/animal4.png","74","1473.3000000715256","1","1","2","1,0.5,0,1,0,0.5,0.5,0,1",""
"","html-keyboard-response","47","50125","0.0-47.0","3ZOTGHDK5JXWIHT692PDPZRCTPNOSC","A2NXMRPHG86N2T","3A3KKYU7P33Z3BR9PPFZ5194ZCQMWU","","null","<img src=""img/animal4.png"" style=""width:200px; border:14px solid green;"">","null","","","","","",""
"","image-keyboard-response","48","50950","0.0-48.0","3ZOTGHDK5JXWIHT692PDPZRCTPNOSC","A2NXMRPHG86N2T","3A3KKYU7P33Z3BR9PPFZ5194ZCQMWU","","823.1999999284744","img/animal5.png","74","824.7999999523163","1","1","1","1,0.5,0,1,0,0.5,0.5,0,1",""
"","html-keyboard-response","49","51253","0.0-49.0","3ZOTGHDK5JXWIHT692PDPZRCTPNOSC","A2NXMRPHG86N2T","3A3KKYU7P33Z3BR9PPFZ5194ZCQMWU","","null","<img src=""img/animal5.png"" style=""width:200px; border:14px solid green;"">","null","","","","","",""
"","image-keyboard-response","50","51709","0.0-50.0","3ZOTGHDK5JXWIHT692PDPZRCTPNOSC","A2NXMRPHG86N2T","3A3KKYU7P33Z3BR9PPFZ5194ZCQMWU","","454.5","img/animal5.png","74","455.60000002384186","1","1","1","1,0.5,0,1,0,0.5,0.5,0,1",""
"","html-keyboard-response","51","52012","0.0-51.0","3ZOTGHDK5JXWIHT692PDPZRCTPNOSC","A2NXMRPHG86N2T","3A3KKYU7P33Z3BR9PPFZ5194ZCQMWU","","null","<img src=""img/animal5.png"" style=""width:200px; border:14px solid green;"">","null","","","","","",""
"","image-keyboard-response","52","52668","0.0-52.0","3ZOTGHDK5JXWIHT692PDPZRCTPNOSC","A2NXMRPHG86N2T","3A3KKYU7P33Z3BR9PPFZ5194ZCQMWU","","654.7000000476837","img/animal4.png","74","656.1000000238419","1","1","2","1,0.5,0,1,0,0.5,0.5,0,1",""
"","html-keyboard-response","53","52971","0.0-53.0","3ZOTGHDK5JXWIHT692PDPZRCTPNOSC","A2NXMRPHG86N2T","3A3KKYU7P33Z3BR9PPFZ5194ZCQMWU","","null","<img src=""img/animal4.png"" style=""width:200px; border:14px solid green;"">","null","","","","","",""
"","image-keyboard-response","54","53493","0.0-54.0","3ZOTGHDK5JXWIHT692PDPZRCTPNOSC","A2NXMRPHG86N2T","3A3KKYU7P33Z3BR9PPFZ5194ZCQMWU","","520.2000000476837","img/animal6.png","76","521.7000000476837","3","1","3","1,0.5,0,1,0,0.5,0.5,0,1",""
"","html-keyboard-response","55","53795","0.0-55.0","3ZOTGHDK5JXWIHT692PDPZRCTPNOSC","A2NXMRPHG86N2T","3A3KKYU7P33Z3BR9PPFZ5194ZCQMWU","","null","<img src=""img/animal6.png"" style=""width:200px; border:14px solid green;"">","null","","","","","",""
"","image-keyboard-response","56","54301","0.0-56.0","3ZOTGHDK5JXWIHT692PDPZRCTPNOSC","A2NXMRPHG86N2T","3A3KKYU7P33Z3BR9PPFZ5194ZCQMWU","","504","img/animal6.png","76","505.5","3","1","3","1,0.5,0,1,0,0.5,0.5,0,1",""
"","html-keyboard-response","57","54604","0.0-57.0","3ZOTGHDK5JXWIHT692PDPZRCTPNOSC","A2NXMRPHG86N2T","3A3KKYU7P33Z3BR9PPFZ5194ZCQMWU","","null","<img src=""img/animal6.png"" style=""width:200px; border:14px solid green;"">","null","","","","","",""
"","image-keyboard-response","58","55029","0.0-58.0","3ZOTGHDK5JXWIHT692PDPZRCTPNOSC","A2NXMRPHG86N2T","3A3KKYU7P33Z3BR9PPFZ5194ZCQMWU","","423.10000002384186","img/animal6.png","76","424.60000002384186","3","1","3","1,0.5,0,1,0,0.5,0.5,0,1",""
"","html-keyboard-response","59","55341","0.0-59.0","3ZOTGHDK5JXWIHT692PDPZRCTPNOSC","A2NXMRPHG86N2T","3A3KKYU7P33Z3BR9PPFZ5194ZCQMWU","","null","<img src=""img/animal6.png"" style=""width:200px; border:14px solid green;"">","null","","","","","",""
"","image-keyboard-response","60","55885","0.0-60.0","3ZOTGHDK5JXWIHT692PDPZRCTPNOSC","A2NXMRPHG86N2T","3A3KKYU7P33Z3BR9PPFZ5194ZCQMWU","","541.7999999523163","img/animal4.png","74","543.1999999284744","1","1","2","1,0.5,0,1,0,0.5,0.5,0,1",""
"","html-keyboard-response","61","56188","0.0-61.0","3ZOTGHDK5JXWIHT692PDPZRCTPNOSC","A2NXMRPHG86N2T","3A3KKYU7P33Z3BR9PPFZ5194ZCQMWU","","null","<img src=""img/animal4.png"" style=""width:200px; border:14px solid green;"">","null","","","","","",""
"","image-keyboard-response","62","56941","0.0-62.0","3ZOTGHDK5JXWIHT692PDPZRCTPNOSC","A2NXMRPHG86N2T","3A3KKYU7P33Z3BR9PPFZ5194ZCQMWU","","750.7000000476837","img/animal6.png","76","752.2000000476837","3","1","3","1,0.5,0,1,0,0.5,0.5,0,1",""
"","html-keyboard-response","63","57243","0.0-63.0","3ZOTGHDK5JXWIHT692PDPZRCTPNOSC","A2NXMRPHG86N2T","3A3KKYU7P33Z3BR9PPFZ5194ZCQMWU","","null","<img src=""img/animal6.png"" style=""width:200px; border:14px solid green;"">","null","","","","","",""
"","image-keyboard-response","64","58061","0.0-64.0","3ZOTGHDK5JXWIHT692PDPZRCTPNOSC","A2NXMRPHG86N2T","3A3KKYU7P33Z3BR9PPFZ5194ZCQMWU","","816","img/animal4.png","74","817.8999999761581","1","1","2","1,0.5,0,1,0,0.5,0.5,0,1",""
"","html-keyboard-response","65","58364","0.0-65.0","3ZOTGHDK5JXWIHT692PDPZRCTPNOSC","A2NXMRPHG86N2T","3A3KKYU7P33Z3BR9PPFZ5194ZCQMWU","","null","<img src=""img/animal4.png"" style=""width:200px; border:14px solid green;"">","null","","","","","",""
"","image-keyboard-response","66","58885","0.0-66.0","3ZOTGHDK5JXWIHT692PDPZRCTPNOSC","A2NXMRPHG86N2T","3A3KKYU7P33Z3BR9PPFZ5194ZCQMWU","","518.5","img/animal6.png","76","519.8999999761581","3","1","3","1,0.5,0,1,0,0.5,0.5,0,1",""
"","html-keyboard-response","67","59187","0.0-67.0","3ZOTGHDK5JXWIHT692PDPZRCTPNOSC","A2NXMRPHG86N2T","3A3KKYU7P33Z3BR9PPFZ5194ZCQMWU","","null","<img src=""img/animal6.png"" style=""width:200px; border:14px solid green;"">","null","","","","","",""
"","image-keyboard-response","68","59765","0.0-68.0","3ZOTGHDK5JXWIHT692PDPZRCTPNOSC","A2NXMRPHG86N2T","3A3KKYU7P33Z3BR9PPFZ5194ZCQMWU","","575.5999999046326","img/animal4.png","74","577.1999999284744","1","1","2","1,0.5,0,1,0,0.5,0.5,0,1",""
"","html-keyboard-response","69","60067","0.0-69.0","3ZOTGHDK5JXWIHT692PDPZRCTPNOSC","A2NXMRPHG86N2T","3A3KKYU7P33Z3BR9PPFZ5194ZCQMWU","","null","<img src=""img/animal4.png"" style=""width:200px; border:14px solid green;"">","null","","","","","",""
"","image-keyboard-response","70","60613","0.0-70.0","3ZOTGHDK5JXWIHT692PDPZRCTPNOSC","A2NXMRPHG86N2T","3A3KKYU7P33Z3BR9PPFZ5194ZCQMWU","","543.5","img/animal6.png","76","545.2000000476837","3","1","3","1,0.5,0,1,0,0.5,0.5,0,1",""
"","html-keyboard-response","71","60915","0.0-71.0","3ZOTGHDK5JXWIHT692PDPZRCTPNOSC","A2NXMRPHG86N2T","3A3KKYU7P33Z3BR9PPFZ5194ZCQMWU","","null","<img src=""img/animal6.png"" style=""width:200px; border:14px solid green;"">","null","","","","","",""
"","image-keyboard-response","72","61437","0.0-72.0","3ZOTGHDK5JXWIHT692PDPZRCTPNOSC","A2NXMRPHG86N2T","3A3KKYU7P33Z3BR9PPFZ5194ZCQMWU","","519.9000000953674","img/animal6.png","76","521.5","3","1","3","1,0.5,0,1,0,0.5,0.5,0,1",""
"","html-keyboard-response","73","61739","0.0-73.0","3ZOTGHDK5JXWIHT692PDPZRCTPNOSC","A2NXMRPHG86N2T","3A3KKYU7P33Z3BR9PPFZ5194ZCQMWU","","null","<img src=""img/animal6.png"" style=""width:200px; border:14px solid green;"">","null","","","","","",""
"","image-keyboard-response","74","62157","0.0-74.0","3ZOTGHDK5JXWIHT692PDPZRCTPNOSC","A2NXMRPHG86N2T","3A3KKYU7P33Z3BR9PPFZ5194ZCQMWU","","416.2000000476837","img/animal6.png","76","417.60000002384186","3","1","3","1,0.5,0,1,0,0.5,0.5,0,1",""
"","html-keyboard-response","75","62460","0.0-75.0","3ZOTGHDK5JXWIHT692PDPZRCTPNOSC","A2NXMRPHG86N2T","3A3KKYU7P33Z3BR9PPFZ5194ZCQMWU","","null","<img src=""img/animal6.png"" style=""width:200px; border:14px solid green;"">","null","","","","","",""
"","image-keyboard-response","76","63230","0.0-76.0","3ZOTGHDK5JXWIHT692PDPZRCTPNOSC","A2NXMRPHG86N2T","3A3KKYU7P33Z3BR9PPFZ5194ZCQMWU","","768.3000000715256","img/animal5.png","74","769.7999999523163","1","1","1","1,0.5,0,1,0,0.5,0.5,0,1",""
"","html-keyboard-response","77","63534","0.0-77.0","3ZOTGHDK5JXWIHT692PDPZRCTPNOSC","A2NXMRPHG86N2T","3A3KKYU7P33Z3BR9PPFZ5194ZCQMWU","","null","<img src=""img/animal5.png"" style=""width:200px; border:14px solid green;"">","null","","","","","",""
"","image-keyboard-response","78","63893","0.0-78.0","3ZOTGHDK5JXWIHT692PDPZRCTPNOSC","A2NXMRPHG86N2T","3A3KKYU7P33Z3BR9PPFZ5194ZCQMWU","","357.2999999523163","img/animal6.png","74","359","1","0","3","1,0.5,0,1,0,0.5,0.5,0,1",""
"","html-keyboard-response","79","64196","0.0-79.0","3ZOTGHDK5JXWIHT692PDPZRCTPNOSC","A2NXMRPHG86N2T","3A3KKYU7P33Z3BR9PPFZ5194ZCQMWU","","null","<img src=""img/animal6.png"" style=""width:200px;border:14px solid red;"">","null","","","","","",""
"","image-keyboard-response","80","64981","0.0-80.0","3ZOTGHDK5JXWIHT692PDPZRCTPNOSC","A2NXMRPHG86N2T","3A3KKYU7P33Z3BR9PPFZ5194ZCQMWU","","784.1999999284744","img/animal5.png","74","785.5999999046326","1","1","1","1,0.5,0,1,0,0.5,0.5,0,1",""
"","html-keyboard-response","81","65284","0.0-81.0","3ZOTGHDK5JXWIHT692PDPZRCTPNOSC","A2NXMRPHG86N2T","3A3KKYU7P33Z3BR9PPFZ5194ZCQMWU","","null","<img src=""img/animal5.png"" style=""width:200px; border:14px solid green;"">","null","","","","","",""
"","image-keyboard-response","82","65902","0.0-82.0","3ZOTGHDK5JXWIHT692PDPZRCTPNOSC","A2NXMRPHG86N2T","3A3KKYU7P33Z3BR9PPFZ5194ZCQMWU","","616.2999999523163","img/animal4.png","74","617.8000000715256","1","1","2","1,0.5,0,1,0,0.5,0.5,0,1",""
"","html-keyboard-response","83","66205","0.0-83.0","3ZOTGHDK5JXWIHT692PDPZRCTPNOSC","A2NXMRPHG86N2T","3A3KKYU7P33Z3BR9PPFZ5194ZCQMWU","","null","<img src=""img/animal4.png"" style=""width:200px; border:14px solid green;"">","null","","","","","",""
"","image-keyboard-response","84","67133","0.0-84.0","3ZOTGHDK5JXWIHT692PDPZRCTPNOSC","A2NXMRPHG86N2T","3A3KKYU7P33Z3BR9PPFZ5194ZCQMWU","","926.3999999761581","img/animal5.png","74","927.7999999523163","1","1","1","1,0.5,0,1,0,0.5,0.5,0,1",""
"","html-keyboard-response","85","67447","0.0-85.0","3ZOTGHDK5JXWIHT692PDPZRCTPNOSC","A2NXMRPHG86N2T","3A3KKYU7P33Z3BR9PPFZ5194ZCQMWU","","null","<img src=""img/animal5.png"" style=""width:200px; border:14px solid green;"">","null","","","","","",""
"","image-keyboard-response","86","67988","0.0-86.0","3ZOTGHDK5JXWIHT692PDPZRCTPNOSC","A2NXMRPHG86N2T","3A3KKYU7P33Z3BR9PPFZ5194ZCQMWU","","538.5999999046326","img/animal4.png","74","539.8999999761581","1","1","2","1,0.5,0,1,0,0.5,0.5,0,1",""
"","html-keyboard-response","87","68289","0.0-87.0","3ZOTGHDK5JXWIHT692PDPZRCTPNOSC","A2NXMRPHG86N2T","3A3KKYU7P33Z3BR9PPFZ5194ZCQMWU","","null","<img src=""img/animal4.png"" style=""width:200px; border:14px solid green;"">","null","","","","","",""
"","image-keyboard-response","88","68901","0.0-88.0","3ZOTGHDK5JXWIHT692PDPZRCTPNOSC","A2NXMRPHG86N2T","3A3KKYU7P33Z3BR9PPFZ5194ZCQMWU","","609.9000000953674","img/animal5.png","74","611.1000000238419","1","1","1","1,0.5,0,1,0,0.5,0.5,0,1",""
"","html-keyboard-response","89","69203","0.0-89.0","3ZOTGHDK5JXWIHT692PDPZRCTPNOSC","A2NXMRPHG86N2T","3A3KKYU7P33Z3BR9PPFZ5194ZCQMWU","","null","<img src=""img/animal5.png"" style=""width:200px; border:14px solid green;"">","null","","","","","",""
"","image-keyboard-response","90","69725","0.0-90.0","3ZOTGHDK5JXWIHT692PDPZRCTPNOSC","A2NXMRPHG86N2T","3A3KKYU7P33Z3BR9PPFZ5194ZCQMWU","","519.6000000238419","img/animal4.png","74","521.3000000715256","1","1","2","1,0.5,0,1,0,0.5,0.5,0,1",""
"","html-keyboard-response","91","70027","0.0-91.0","3ZOTGHDK5JXWIHT692PDPZRCTPNOSC","A2NXMRPHG86N2T","3A3KKYU7P33Z3BR9PPFZ5194ZCQMWU","","null","<img src=""img/animal4.png"" style=""width:200px; border:14px solid green;"">","null","","","","","",""
"","image-keyboard-response","92","70413","0.0-92.0","3ZOTGHDK5JXWIHT692PDPZRCTPNOSC","A2NXMRPHG86N2T","3A3KKYU7P33Z3BR9PPFZ5194ZCQMWU","","383.7999999523163","img/animal4.png","74","385.60000002384186","1","1","2","1,0.5,0,1,0,0.5,0.5,0,1",""
"","html-keyboard-response","93","70716","0.0-93.0","3ZOTGHDK5JXWIHT692PDPZRCTPNOSC","A2NXMRPHG86N2T","3A3KKYU7P33Z3BR9PPFZ5194ZCQMWU","","null","<img src=""img/animal4.png"" style=""width:200px; border:14px solid green;"">","null","","","","","",""
"","image-keyboard-response","94","71357","0.0-94.0","3ZOTGHDK5JXWIHT692PDPZRCTPNOSC","A2NXMRPHG86N2T","3A3KKYU7P33Z3BR9PPFZ5194ZCQMWU","","638.9000000953674","img/animal6.png","76","640.3999999761581","3","1","3","1,0.5,0,1,0,0.5,0.5,0,1",""
"","html-keyboard-response","95","71660","0.0-95.0","3ZOTGHDK5JXWIHT692PDPZRCTPNOSC","A2NXMRPHG86N2T","3A3KKYU7P33Z3BR9PPFZ5194ZCQMWU","","null","<img src=""img/animal6.png"" style=""width:200px; border:14px solid green;"">","null","","","","","",""
"","image-keyboard-response","96","72157","0.0-96.0","3ZOTGHDK5JXWIHT692PDPZRCTPNOSC","A2NXMRPHG86N2T","3A3KKYU7P33Z3BR9PPFZ5194ZCQMWU","","494.89999997615814","img/animal6.png","76","496.2999999523163","3","1","3","1,0.5,0,1,0,0.5,0.5,0,1",""
"","html-keyboard-response","97","72461","0.0-97.0","3ZOTGHDK5JXWIHT692PDPZRCTPNOSC","A2NXMRPHG86N2T","3A3KKYU7P33Z3BR9PPFZ5194ZCQMWU","","null","<img src=""img/animal6.png"" style=""width:200px; border:14px solid green;"">","null","","","","","",""
"","image-keyboard-response","98","72855","0.0-98.0","3ZOTGHDK5JXWIHT692PDPZRCTPNOSC","A2NXMRPHG86N2T","3A3KKYU7P33Z3BR9PPFZ5194ZCQMWU","","392.3000000715256","img/animal6.png","76","393.7999999523163","3","1","3","1,0.5,0,1,0,0.5,0.5,0,1",""
"","html-keyboard-response","99","73157","0.0-99.0","3ZOTGHDK5JXWIHT692PDPZRCTPNOSC","A2NXMRPHG86N2T","3A3KKYU7P33Z3BR9PPFZ5194ZCQMWU","","null","<img src=""img/animal6.png"" style=""width:200px; border:14px solid green;"">","null","","","","","",""
"","image-keyboard-response","100","73653","0.0-100.0","3ZOTGHDK5JXWIHT692PDPZRCTPNOSC","A2NXMRPHG86N2T","3A3KKYU7P33Z3BR9PPFZ5194ZCQMWU","","495.09999990463257","img/animal4.png","74","495.8000000715256","1","1","2","1,0.5,0,1,0,0.5,0.5,0,1",""
"","html-keyboard-response","101","73955","0.0-101.0","3ZOTGHDK5JXWIHT692PDPZRCTPNOSC","A2NXMRPHG86N2T","3A3KKYU7P33Z3BR9PPFZ5194ZCQMWU","","null","<img src=""img/animal4.png"" style=""width:200px; border:14px solid green;"">","null","","","","","",""
"","image-keyboard-response","102","74388","0.0-102.0","3ZOTGHDK5JXWIHT692PDPZRCTPNOSC","A2NXMRPHG86N2T","3A3KKYU7P33Z3BR9PPFZ5194ZCQMWU","","431.5","img/animal5.png","74","432.2999999523163","1","1","1","1,0.5,0,1,0,0.5,0.5,0,1",""
"","html-keyboard-response","103","74690","0.0-103.0","3ZOTGHDK5JXWIHT692PDPZRCTPNOSC","A2NXMRPHG86N2T","3A3KKYU7P33Z3BR9PPFZ5194ZCQMWU","","null","<img src=""img/animal5.png"" style=""width:200px; border:14px solid green;"">","null","","","","","",""
"","image-keyboard-response","104","75141","0.0-104.0","3ZOTGHDK5JXWIHT692PDPZRCTPNOSC","A2NXMRPHG86N2T","3A3KKYU7P33Z3BR9PPFZ5194ZCQMWU","","449.5","img/animal5.png","74","450.90000009536743","1","1","1","1,0.5,0,1,0,0.5,0.5,0,1",""
"","html-keyboard-response","105","75444","0.0-105.0","3ZOTGHDK5JXWIHT692PDPZRCTPNOSC","A2NXMRPHG86N2T","3A3KKYU7P33Z3BR9PPFZ5194ZCQMWU","","null","<img src=""img/animal5.png"" style=""width:200px; border:14px solid green;"">","null","","","","","",""
"","image-keyboard-response","106","75869","0.0-106.0","3ZOTGHDK5JXWIHT692PDPZRCTPNOSC","A2NXMRPHG86N2T","3A3KKYU7P33Z3BR9PPFZ5194ZCQMWU","","422.8000000715256","img/animal5.png","74","424.10000002384186","1","1","1","1,0.5,0,1,0,0.5,0.5,0,1",""
"","html-keyboard-response","107","76171","0.0-107.0","3ZOTGHDK5JXWIHT692PDPZRCTPNOSC","A2NXMRPHG86N2T","3A3KKYU7P33Z3BR9PPFZ5194ZCQMWU","","null","<img src=""img/animal5.png"" style=""width:200px; border:14px solid green;"">","null","","","","","",""
"","image-keyboard-response","108","76972","0.0-108.0","3ZOTGHDK5JXWIHT692PDPZRCTPNOSC","A2NXMRPHG86N2T","3A3KKYU7P33Z3BR9PPFZ5194ZCQMWU","","798.6000000238419","img/animal4.png","74","800","1","1","2","1,0.5,0,1,0,0.5,0.5,0,1",""
"","html-keyboard-response","109","77274","0.0-109.0","3ZOTGHDK5JXWIHT692PDPZRCTPNOSC","A2NXMRPHG86N2T","3A3KKYU7P33Z3BR9PPFZ5194ZCQMWU","","null","<img src=""img/animal4.png"" style=""width:200px; border:14px solid green;"">","null","","","","","",""
"","image-keyboard-response","110","77797","0.0-110.0","3ZOTGHDK5JXWIHT692PDPZRCTPNOSC","A2NXMRPHG86N2T","3A3KKYU7P33Z3BR9PPFZ5194ZCQMWU","","521.5","img/animal5.png","74","522.8999999761581","1","1","1","1,0.5,0,1,0,0.5,0.5,0,1",""
"","html-keyboard-response","111","78100","0.0-111.0","3ZOTGHDK5JXWIHT692PDPZRCTPNOSC","A2NXMRPHG86N2T","3A3KKYU7P33Z3BR9PPFZ5194ZCQMWU","","null","<img src=""img/animal5.png"" style=""width:200px; border:14px solid green;"">","null","","","","","",""
"","image-keyboard-response","112","78476","0.0-112.0","3ZOTGHDK5JXWIHT692PDPZRCTPNOSC","A2NXMRPHG86N2T","3A3KKYU7P33Z3BR9PPFZ5194ZCQMWU","","374.3000000715256","img/animal5.png","74","375.60000002384186","1","1","1","1,0.5,0,1,0,0.5,0.5,0,1",""
"","html-keyboard-response","113","78779","0.0-113.0","3ZOTGHDK5JXWIHT692PDPZRCTPNOSC","A2NXMRPHG86N2T","3A3KKYU7P33Z3BR9PPFZ5194ZCQMWU","","null","<img src=""img/animal5.png"" style=""width:200px; border:14px solid green;"">","null","","","","","",""
"","image-keyboard-response","114","79455","0.0-114.0","3ZOTGHDK5JXWIHT692PDPZRCTPNOSC","A2NXMRPHG86N2T","3A3KKYU7P33Z3BR9PPFZ5194ZCQMWU","","674.3999999761581","img/animal4.png","74","675.6999999284744","1","1","2","1,0.5,0,1,0,0.5,0.5,0,1",""
"","html-keyboard-response","115","79759","0.0-115.0","3ZOTGHDK5JXWIHT692PDPZRCTPNOSC","A2NXMRPHG86N2T","3A3KKYU7P33Z3BR9PPFZ5194ZCQMWU","","null","<img src=""img/animal4.png"" style=""width:200px; border:14px solid green;"">","null","","","","","",""
"","image-keyboard-response","116","80239","0.0-116.0","3ZOTGHDK5JXWIHT692PDPZRCTPNOSC","A2NXMRPHG86N2T","3A3KKYU7P33Z3BR9PPFZ5194ZCQMWU","","478.7000000476837","img/animal5.png","74","480.1999999284744","1","1","1","1,0.5,0,1,0,0.5,0.5,0,1",""
"","html-keyboard-response","117","80542","0.0-117.0","3ZOTGHDK5JXWIHT692PDPZRCTPNOSC","A2NXMRPHG86N2T","3A3KKYU7P33Z3BR9PPFZ5194ZCQMWU","","null","<img src=""img/animal5.png"" style=""width:200px; border:14px solid green;"">","null","","","","","",""
"","image-keyboard-response","118","80981","0.0-118.0","3ZOTGHDK5JXWIHT692PDPZRCTPNOSC","A2NXMRPHG86N2T","3A3KKYU7P33Z3BR9PPFZ5194ZCQMWU","","437.39999997615814","img/animal4.png","74","438.39999997615814","1","1","2","1,0.5,0,1,0,0.5,0.5,0,1",""
"","html-keyboard-response","119","81284","0.0-119.0","3ZOTGHDK5JXWIHT692PDPZRCTPNOSC","A2NXMRPHG86N2T","3A3KKYU7P33Z3BR9PPFZ5194ZCQMWU","","null","<img src=""img/animal4.png"" style=""width:200px; border:14px solid green;"">","null","","","","","",""
"","image-keyboard-response","120","81917","0.0-120.0","3ZOTGHDK5JXWIHT692PDPZRCTPNOSC","A2NXMRPHG86N2T","3A3KKYU7P33Z3BR9PPFZ5194ZCQMWU","","630.7000000476837","img/animal6.png","76","632.3999999761581","3","1","3","1,0.5,0,1,0,0.5,0.5,0,1",""
"","html-keyboard-response","121","82221","0.0-121.0","3ZOTGHDK5JXWIHT692PDPZRCTPNOSC","A2NXMRPHG86N2T","3A3KKYU7P33Z3BR9PPFZ5194ZCQMWU","","null","<img src=""img/animal6.png"" style=""width:200px; border:14px solid green;"">","null","","","","","",""
"","image-keyboard-response","122","82741","0.0-122.0","3ZOTGHDK5JXWIHT692PDPZRCTPNOSC","A2NXMRPHG86N2T","3A3KKYU7P33Z3BR9PPFZ5194ZCQMWU","","517.8999999761581","img/animal5.png","74","519.6000000238419","1","1","1","1,0.5,0,1,0,0.5,0.5,0,1",""
"","html-keyboard-response","123","83043","0.0-123.0","3ZOTGHDK5JXWIHT692PDPZRCTPNOSC","A2NXMRPHG86N2T","3A3KKYU7P33Z3BR9PPFZ5194ZCQMWU","","null","<img src=""img/animal5.png"" style=""width:200px; border:14px solid green;"">","null","","","","","",""
"","image-keyboard-response","124","83493","0.0-124.0","3ZOTGHDK5JXWIHT692PDPZRCTPNOSC","A2NXMRPHG86N2T","3A3KKYU7P33Z3BR9PPFZ5194ZCQMWU","","448","img/animal4.png","74","449.5","1","1","2","1,0.5,0,1,0,0.5,0.5,0,1",""
"","html-keyboard-response","125","83796","0.0-125.0","3ZOTGHDK5JXWIHT692PDPZRCTPNOSC","A2NXMRPHG86N2T","3A3KKYU7P33Z3BR9PPFZ5194ZCQMWU","","null","<img src=""img/animal4.png"" style=""width:200px; border:14px solid green;"">","null","","","","","",""
"","image-keyboard-response","126","84509","0.0-126.0","3ZOTGHDK5JXWIHT692PDPZRCTPNOSC","A2NXMRPHG86N2T","3A3KKYU7P33Z3BR9PPFZ5194ZCQMWU","","711.2000000476837","img/animal5.png","74","712.8999999761581","1","1","1","1,0.5,0,1,0,0.5,0.5,0,1",""
"","html-keyboard-response","127","84812","0.0-127.0","3ZOTGHDK5JXWIHT692PDPZRCTPNOSC","A2NXMRPHG86N2T","3A3KKYU7P33Z3BR9PPFZ5194ZCQMWU","","null","<img src=""img/animal5.png"" style=""width:200px; border:14px solid green;"">","null","","","","","",""
"","image-keyboard-response","128","85293","0.0-128.0","3ZOTGHDK5JXWIHT692PDPZRCTPNOSC","A2NXMRPHG86N2T","3A3KKYU7P33Z3BR9PPFZ5194ZCQMWU","","478.10000002384186","img/animal6.png","74","479.89999997615814","1","1","3","1,0.5,0,1,0,0.5,0.5,0,1",""
"","html-keyboard-response","129","85595","0.0-129.0","3ZOTGHDK5JXWIHT692PDPZRCTPNOSC","A2NXMRPHG86N2T","3A3KKYU7P33Z3BR9PPFZ5194ZCQMWU","","null","<img src=""img/animal6.png"" style=""width:200px; border:14px solid green;"">","null","","","","","",""
"","image-keyboard-response","130","86949","0.0-130.0","3ZOTGHDK5JXWIHT692PDPZRCTPNOSC","A2NXMRPHG86N2T","3A3KKYU7P33Z3BR9PPFZ5194ZCQMWU","","1352.9000000953674","img/animal6.png","74","1353.7000000476837","1","0","3","1,0.5,0,1,0,0.5,0.5,0,1",""
"","html-keyboard-response","131","87251","0.0-131.0","3ZOTGHDK5JXWIHT692PDPZRCTPNOSC","A2NXMRPHG86N2T","3A3KKYU7P33Z3BR9PPFZ5194ZCQMWU","","null","<img src=""img/animal6.png"" style=""width:200px;border:14px solid red;"">","null","","","","","",""
"","image-keyboard-response","132","88357","0.0-132.0","3ZOTGHDK5JXWIHT692PDPZRCTPNOSC","A2NXMRPHG86N2T","3A3KKYU7P33Z3BR9PPFZ5194ZCQMWU","","1103.2000000476837","img/animal5.png","74","1104.8999999761581","1","1","1","1,0.5,0,1,0,0.5,0.5,0,1",""
"","html-keyboard-response","133","88659","0.0-133.0","3ZOTGHDK5JXWIHT692PDPZRCTPNOSC","A2NXMRPHG86N2T","3A3KKYU7P33Z3BR9PPFZ5194ZCQMWU","","null","<img src=""img/animal5.png"" style=""width:200px; border:14px solid green;"">","null","","","","","",""
"","image-keyboard-response","134","89021","0.0-134.0","3ZOTGHDK5JXWIHT692PDPZRCTPNOSC","A2NXMRPHG86N2T","3A3KKYU7P33Z3BR9PPFZ5194ZCQMWU","","359.60000002384186","img/animal4.png","74","361.2000000476837","1","1","2","1,0.5,0,1,0,0.5,0.5,0,1",""
"","html-keyboard-response","135","89323","0.0-135.0","3ZOTGHDK5JXWIHT692PDPZRCTPNOSC","A2NXMRPHG86N2T","3A3KKYU7P33Z3BR9PPFZ5194ZCQMWU","","null","<img src=""img/animal4.png"" style=""width:200px; border:14px solid green;"">","null","","","","","",""
"","image-keyboard-response","136","90037","0.0-136.0","3ZOTGHDK5JXWIHT692PDPZRCTPNOSC","A2NXMRPHG86N2T","3A3KKYU7P33Z3BR9PPFZ5194ZCQMWU","","711.6999999284744","img/animal6.png","76","713.1000000238419","3","1","3","1,0.5,0,1,0,0.5,0.5,0,1",""
"","html-keyboard-response","137","90339","0.0-137.0","3ZOTGHDK5JXWIHT692PDPZRCTPNOSC","A2NXMRPHG86N2T","3A3KKYU7P33Z3BR9PPFZ5194ZCQMWU","","null","<img src=""img/animal6.png"" style=""width:200px; border:14px solid green;"">","null","","","","","",""
"","image-keyboard-response","138","90597","0.0-138.0","3ZOTGHDK5JXWIHT692PDPZRCTPNOSC","A2NXMRPHG86N2T","3A3KKYU7P33Z3BR9PPFZ5194ZCQMWU","","256.39999997615814","img/animal5.png","76","257.40000009536743","3","0","1","1,0.5,0,1,0,0.5,0.5,0,1",""
"","html-keyboard-response","139","90901","0.0-139.0","3ZOTGHDK5JXWIHT692PDPZRCTPNOSC","A2NXMRPHG86N2T","3A3KKYU7P33Z3BR9PPFZ5194ZCQMWU","","null","<img src=""img/animal5.png"" style=""width:200px;border:14px solid red;"">","null","","","","","",""
"","image-keyboard-response","140","92365","0.0-140.0","3ZOTGHDK5JXWIHT692PDPZRCTPNOSC","A2NXMRPHG86N2T","3A3KKYU7P33Z3BR9PPFZ5194ZCQMWU","","1462.5","img/animal4.png","76","1464.2000000476837","3","1","2","1,0.5,0,1,0,0.5,0.5,0,1",""
"","html-keyboard-response","141","92667","0.0-141.0","3ZOTGHDK5JXWIHT692PDPZRCTPNOSC","A2NXMRPHG86N2T","3A3KKYU7P33Z3BR9PPFZ5194ZCQMWU","","null","<img src=""img/animal4.png"" style=""width:200px; border:14px solid green;"">","null","","","","","",""
"","image-keyboard-response","142","93220","0.0-142.0","3ZOTGHDK5JXWIHT692PDPZRCTPNOSC","A2NXMRPHG86N2T","3A3KKYU7P33Z3BR9PPFZ5194ZCQMWU","","551.1999999284744","img/animal5.png","74","552.6000000238419","1","1","1","1,0.5,0,1,0,0.5,0.5,0,1",""
"","html-keyboard-response","143","93524","0.0-143.0","3ZOTGHDK5JXWIHT692PDPZRCTPNOSC","A2NXMRPHG86N2T","3A3KKYU7P33Z3BR9PPFZ5194ZCQMWU","","null","<img src=""img/animal5.png"" style=""width:200px; border:14px solid green;"">","null","","","","","",""
"","image-keyboard-response","144","94404","0.0-144.0","3ZOTGHDK5JXWIHT692PDPZRCTPNOSC","A2NXMRPHG86N2T","3A3KKYU7P33Z3BR9PPFZ5194ZCQMWU","","878.8000000715256","img/animal6.png","76","880.1999999284744","3","1","3","1,0.5,0,1,0,0.5,0.5,0,1",""
"","html-keyboard-response","145","94715","0.0-145.0","3ZOTGHDK5JXWIHT692PDPZRCTPNOSC","A2NXMRPHG86N2T","3A3KKYU7P33Z3BR9PPFZ5194ZCQMWU","","null","<img src=""img/animal6.png"" style=""width:200px; border:14px solid green;"">","null","","","","","",""
"","image-keyboard-response","146","95157","0.0-146.0","3ZOTGHDK5JXWIHT692PDPZRCTPNOSC","A2NXMRPHG86N2T","3A3KKYU7P33Z3BR9PPFZ5194ZCQMWU","","440.2999999523163","img/animal6.png","76","441.6999999284744","3","1","3","1,0.5,0,1,0,0.5,0.5,0,1",""
"","html-keyboard-response","147","95459","0.0-147.0","3ZOTGHDK5JXWIHT692PDPZRCTPNOSC","A2NXMRPHG86N2T","3A3KKYU7P33Z3BR9PPFZ5194ZCQMWU","","null","<img src=""img/animal6.png"" style=""width:200px; border:14px solid green;"">","null","","","","","",""
"","image-keyboard-response","148","95757","0.0-148.0","3ZOTGHDK5JXWIHT692PDPZRCTPNOSC","A2NXMRPHG86N2T","3A3KKYU7P33Z3BR9PPFZ5194ZCQMWU","","295.5","img/animal4.png","76","297.1999999284744","3","0","2","1,0.5,0,1,0,0.5,0.5,0,1",""
"","html-keyboard-response","149","96061","0.0-149.0","3ZOTGHDK5JXWIHT692PDPZRCTPNOSC","A2NXMRPHG86N2T","3A3KKYU7P33Z3BR9PPFZ5194ZCQMWU","","null","<img src=""img/animal4.png"" style=""width:200px;border:14px solid red;"">","null","","","","","",""
"","image-keyboard-response","150","97237","0.0-150.0","3ZOTGHDK5JXWIHT692PDPZRCTPNOSC","A2NXMRPHG86N2T","3A3KKYU7P33Z3BR9PPFZ5194ZCQMWU","","1174.5","img/animal5.png","74","1175.8999999761581","1","1","1","1,0.5,0,1,0,0.5,0.5,0,1",""
"","html-keyboard-response","151","97540","0.0-151.0","3ZOTGHDK5JXWIHT692PDPZRCTPNOSC","A2NXMRPHG86N2T","3A3KKYU7P33Z3BR9PPFZ5194ZCQMWU","","null","<img src=""img/animal5.png"" style=""width:200px; border:14px solid green;"">","null","","","","","",""
"","image-keyboard-response","152","98005","0.0-152.0","3ZOTGHDK5JXWIHT692PDPZRCTPNOSC","A2NXMRPHG86N2T","3A3KKYU7P33Z3BR9PPFZ5194ZCQMWU","","463.7999999523163","img/animal5.png","74","465.09999990463257","1","1","1","1,0.5,0,1,0,0.5,0.5,0,1",""
"","html-keyboard-response","153","98307","0.0-153.0","3ZOTGHDK5JXWIHT692PDPZRCTPNOSC","A2NXMRPHG86N2T","3A3KKYU7P33Z3BR9PPFZ5194ZCQMWU","","null","<img src=""img/animal5.png"" style=""width:200px; border:14px solid green;"">","null","","","","","",""
"","image-keyboard-response","154","99550","0.0-154.0","3ZOTGHDK5JXWIHT692PDPZRCTPNOSC","A2NXMRPHG86N2T","3A3KKYU7P33Z3BR9PPFZ5194ZCQMWU","","1240.6000000238419","img/animal4.png","74","1242.1000000238419","1","1","2","1,0.5,0,1,0,0.5,0.5,0,1",""
"","html-keyboard-response","155","99852","0.0-155.0","3ZOTGHDK5JXWIHT692PDPZRCTPNOSC","A2NXMRPHG86N2T","3A3KKYU7P33Z3BR9PPFZ5194ZCQMWU","","null","<img src=""img/animal4.png"" style=""width:200px; border:14px solid green;"">","null","","","","","",""
"","image-keyboard-response","156","100325","0.0-156.0","3ZOTGHDK5JXWIHT692PDPZRCTPNOSC","A2NXMRPHG86N2T","3A3KKYU7P33Z3BR9PPFZ5194ZCQMWU","","470.5","img/animal4.png","74","472.2000000476837","1","1","2","1,0.5,0,1,0,0.5,0.5,0,1",""
"","html-keyboard-response","157","100627","0.0-157.0","3ZOTGHDK5JXWIHT692PDPZRCTPNOSC","A2NXMRPHG86N2T","3A3KKYU7P33Z3BR9PPFZ5194ZCQMWU","","null","<img src=""img/animal4.png"" style=""width:200px; border:14px solid green;"">","null","","","","","",""
"","image-keyboard-response","158","101293","0.0-158.0","3ZOTGHDK5JXWIHT692PDPZRCTPNOSC","A2NXMRPHG86N2T","3A3KKYU7P33Z3BR9PPFZ5194ZCQMWU","","663.5","img/animal5.png","74","665.2999999523163","1","1","1","1,0.5,0,1,0,0.5,0.5,0,1",""
"","html-keyboard-response","159","101595","0.0-159.0","3ZOTGHDK5JXWIHT692PDPZRCTPNOSC","A2NXMRPHG86N2T","3A3KKYU7P33Z3BR9PPFZ5194ZCQMWU","","null","<img src=""img/animal5.png"" style=""width:200px; border:14px solid green;"">","null","","","","","",""
"","image-keyboard-response","160","102076","0.0-160.0","3ZOTGHDK5JXWIHT692PDPZRCTPNOSC","A2NXMRPHG86N2T","3A3KKYU7P33Z3BR9PPFZ5194ZCQMWU","","480.10000002384186","img/animal4.png","74","481.5","1","1","2","1,0.5,0,1,0,0.5,0.5,0,1",""
"","html-keyboard-response","161","102378","0.0-161.0","3ZOTGHDK5JXWIHT692PDPZRCTPNOSC","A2NXMRPHG86N2T","3A3KKYU7P33Z3BR9PPFZ5194ZCQMWU","","null","<img src=""img/animal4.png"" style=""width:200px; border:14px solid green;"">","null","","","","","",""
"","image-keyboard-response","162","103013","0.0-162.0","3ZOTGHDK5JXWIHT692PDPZRCTPNOSC","A2NXMRPHG86N2T","3A3KKYU7P33Z3BR9PPFZ5194ZCQMWU","","632.5","img/animal6.png","76","633.8999999761581","3","1","3","1,0.5,0,1,0,0.5,0.5,0,1",""
"","html-keyboard-response","163","103315","0.0-163.0","3ZOTGHDK5JXWIHT692PDPZRCTPNOSC","A2NXMRPHG86N2T","3A3KKYU7P33Z3BR9PPFZ5194ZCQMWU","","null","<img src=""img/animal6.png"" style=""width:200px; border:14px solid green;"">","null","","","","","",""
"","image-keyboard-response","164","103860","0.0-164.0","3ZOTGHDK5JXWIHT692PDPZRCTPNOSC","A2NXMRPHG86N2T","3A3KKYU7P33Z3BR9PPFZ5194ZCQMWU","","543.6000000238419","img/animal5.png","74","544.8999999761581","1","1","1","1,0.5,0,1,0,0.5,0.5,0,1",""
"","html-keyboard-response","165","104163","0.0-165.0","3ZOTGHDK5JXWIHT692PDPZRCTPNOSC","A2NXMRPHG86N2T","3A3KKYU7P33Z3BR9PPFZ5194ZCQMWU","","null","<img src=""img/animal5.png"" style=""width:200px; border:14px solid green;"">","null","","","","","",""
"","image-keyboard-response","166","104516","0.0-166.0","3ZOTGHDK5JXWIHT692PDPZRCTPNOSC","A2NXMRPHG86N2T","3A3KKYU7P33Z3BR9PPFZ5194ZCQMWU","","351.60000002384186","img/animal6.png","74","353","1","1","3","1,0.5,0,1,0,0.5,0.5,0,1",""
"","html-keyboard-response","167","104819","0.0-167.0","3ZOTGHDK5JXWIHT692PDPZRCTPNOSC","A2NXMRPHG86N2T","3A3KKYU7P33Z3BR9PPFZ5194ZCQMWU","","null","<img src=""img/animal6.png"" style=""width:200px; border:14px solid green;"">","null","","","","","",""
"","image-keyboard-response","168","106029","0.0-168.0","3ZOTGHDK5JXWIHT692PDPZRCTPNOSC","A2NXMRPHG86N2T","3A3KKYU7P33Z3BR9PPFZ5194ZCQMWU","","1208.7000000476837","img/animal6.png","74","1210.1000000238419","1","1","3","1,0.5,0,1,0,0.5,0.5,0,1",""
"","html-keyboard-response","169","106332","0.0-169.0","3ZOTGHDK5JXWIHT692PDPZRCTPNOSC","A2NXMRPHG86N2T","3A3KKYU7P33Z3BR9PPFZ5194ZCQMWU","","null","<img src=""img/animal6.png"" style=""width:200px; border:14px solid green;"">","null","","","","","",""
"","image-keyboard-response","170","107205","0.0-170.0","3ZOTGHDK5JXWIHT692PDPZRCTPNOSC","A2NXMRPHG86N2T","3A3KKYU7P33Z3BR9PPFZ5194ZCQMWU","","871.3000000715256","img/animal4.png","74","872.8999999761581","1","1","2","1,0.5,0,1,0,0.5,0.5,0,1",""
"","html-keyboard-response","171","107507","0.0-171.0","3ZOTGHDK5JXWIHT692PDPZRCTPNOSC","A2NXMRPHG86N2T","3A3KKYU7P33Z3BR9PPFZ5194ZCQMWU","","null","<img src=""img/animal4.png"" style=""width:200px; border:14px solid green;"">","null","","","","","",""
"","image-keyboard-response","172","108101","0.0-172.0","3ZOTGHDK5JXWIHT692PDPZRCTPNOSC","A2NXMRPHG86N2T","3A3KKYU7P33Z3BR9PPFZ5194ZCQMWU","","592.1000000238419","img/animal5.png","74","593.3999999761581","1","1","1","1,0.5,0,1,0,0.5,0.5,0,1",""
"","html-keyboard-response","173","108404","0.0-173.0","3ZOTGHDK5JXWIHT692PDPZRCTPNOSC","A2NXMRPHG86N2T","3A3KKYU7P33Z3BR9PPFZ5194ZCQMWU","","null","<img src=""img/animal5.png"" style=""width:200px; border:14px solid green;"">","null","","","","","",""
"","image-keyboard-response","174","108749","0.0-174.0","3ZOTGHDK5JXWIHT692PDPZRCTPNOSC","A2NXMRPHG86N2T","3A3KKYU7P33Z3BR9PPFZ5194ZCQMWU","","343.3000000715256","img/animal6.png","74","344.60000002384186","1","1","3","1,0.5,0,1,0,0.5,0.5,0,1",""
"","html-keyboard-response","175","109052","0.0-175.0","3ZOTGHDK5JXWIHT692PDPZRCTPNOSC","A2NXMRPHG86N2T","3A3KKYU7P33Z3BR9PPFZ5194ZCQMWU","","null","<img src=""img/animal6.png"" style=""width:200px; border:14px solid green;"">","null","","","","","",""
"","image-keyboard-response","176","109860","0.0-176.0","3ZOTGHDK5JXWIHT692PDPZRCTPNOSC","A2NXMRPHG86N2T","3A3KKYU7P33Z3BR9PPFZ5194ZCQMWU","","806.5","img/animal4.png","74","807.5","1","1","2","1,0.5,0,1,0,0.5,0.5,0,1",""
"","html-keyboard-response","177","110161","0.0-177.0","3ZOTGHDK5JXWIHT692PDPZRCTPNOSC","A2NXMRPHG86N2T","3A3KKYU7P33Z3BR9PPFZ5194ZCQMWU","","null","<img src=""img/animal4.png"" style=""width:200px; border:14px solid green;"">","null","","","","","",""
"","image-keyboard-response","178","110685","0.0-178.0","3ZOTGHDK5JXWIHT692PDPZRCTPNOSC","A2NXMRPHG86N2T","3A3KKYU7P33Z3BR9PPFZ5194ZCQMWU","","522.1999999284744","img/animal6.png","74","523.5","1","0","3","1,0.5,0,1,0,0.5,0.5,0,1",""
"","html-keyboard-response","179","110996","0.0-179.0","3ZOTGHDK5JXWIHT692PDPZRCTPNOSC","A2NXMRPHG86N2T","3A3KKYU7P33Z3BR9PPFZ5194ZCQMWU","","null","<img src=""img/animal6.png"" style=""width:200px;border:14px solid red;"">","null","","","","","",""
"","image-keyboard-response","180","111909","0.0-180.0","3ZOTGHDK5JXWIHT692PDPZRCTPNOSC","A2NXMRPHG86N2T","3A3KKYU7P33Z3BR9PPFZ5194ZCQMWU","","911.5","img/animal5.png","74","912.9000000953674","1","1","1","1,0.5,0,1,0,0.5,0.5,0,1",""
"","html-keyboard-response","181","112212","0.0-181.0","3ZOTGHDK5JXWIHT692PDPZRCTPNOSC","A2NXMRPHG86N2T","3A3KKYU7P33Z3BR9PPFZ5194ZCQMWU","","null","<img src=""img/animal5.png"" style=""width:200px; border:14px solid green;"">","null","","","","","",""
"","html-keyboard-response","182","116171","0.0-182.0","3ZOTGHDK5JXWIHT692PDPZRCTPNOSC","A2NXMRPHG86N2T","3A3KKYU7P33Z3BR9PPFZ5194ZCQMWU","","","","","","","","","",""
"","image-keyboard-response","183","118644","0.0-183.0","3ZOTGHDK5JXWIHT692PDPZRCTPNOSC","A2NXMRPHG86N2T","3A3KKYU7P33Z3BR9PPFZ5194ZCQMWU","","2471.7000000476837","img/animal1.png","74","2473.1999999284744","1","1","1","1,0.5,0,0,1,0.5,0.5,0,1",""
"","html-keyboard-response","184","118946","0.0-184.0","3ZOTGHDK5JXWIHT692PDPZRCTPNOSC","A2NXMRPHG86N2T","3A3KKYU7P33Z3BR9PPFZ5194ZCQMWU","","null","<img src=""img/animal1.png"" style=""width:200px; border:14px solid green;"">","null","","","","","",""
"","image-keyboard-response","185","120013","0.0-185.0","3ZOTGHDK5JXWIHT692PDPZRCTPNOSC","A2NXMRPHG86N2T","3A3KKYU7P33Z3BR9PPFZ5194ZCQMWU","","1064.8999999761581","img/animal2.png","75","1066.4000000953674","2","0","3","1,0.5,0,0,1,0.5,0.5,0,1",""
"","html-keyboard-response","186","120316","0.0-186.0","3ZOTGHDK5JXWIHT692PDPZRCTPNOSC","A2NXMRPHG86N2T","3A3KKYU7P33Z3BR9PPFZ5194ZCQMWU","","null","<img src=""img/animal2.png"" style=""width:200px;border:14px solid red;"">","null","","","","","",""
"","image-keyboard-response","187","120829","0.0-187.0","3ZOTGHDK5JXWIHT692PDPZRCTPNOSC","A2NXMRPHG86N2T","3A3KKYU7P33Z3BR9PPFZ5194ZCQMWU","","510.7000000476837","img/animal3.png","74","512.3999999761581","1","0","2","1,0.5,0,0,1,0.5,0.5,0,1",""
"","html-keyboard-response","188","121131","0.0-188.0","3ZOTGHDK5JXWIHT692PDPZRCTPNOSC","A2NXMRPHG86N2T","3A3KKYU7P33Z3BR9PPFZ5194ZCQMWU","","null","<img src=""img/animal3.png"" style=""width:200px;border:14px solid red;"">","null","","","","","",""
"","image-keyboard-response","189","121781","0.0-189.0","3ZOTGHDK5JXWIHT692PDPZRCTPNOSC","A2NXMRPHG86N2T","3A3KKYU7P33Z3BR9PPFZ5194ZCQMWU","","647.6999999284744","img/animal2.png","74","649.0999999046326","1","1","3","1,0.5,0,0,1,0.5,0.5,0,1",""
"","html-keyboard-response","190","122083","0.0-190.0","3ZOTGHDK5JXWIHT692PDPZRCTPNOSC","A2NXMRPHG86N2T","3A3KKYU7P33Z3BR9PPFZ5194ZCQMWU","","null","<img src=""img/animal2.png"" style=""width:200px; border:14px solid green;"">","null","","","","","",""
"","image-keyboard-response","191","122772","0.0-191.0","3ZOTGHDK5JXWIHT692PDPZRCTPNOSC","A2NXMRPHG86N2T","3A3KKYU7P33Z3BR9PPFZ5194ZCQMWU","","687.5","img/animal1.png","76","689.1999999284744","3","0","1","1,0.5,0,0,1,0.5,0.5,0,1",""
"","html-keyboard-response","192","123075","0.0-192.0","3ZOTGHDK5JXWIHT692PDPZRCTPNOSC","A2NXMRPHG86N2T","3A3KKYU7P33Z3BR9PPFZ5194ZCQMWU","","null","<img src=""img/animal1.png"" style=""width:200px;border:14px solid red;"">","null","","","","","",""
"","image-keyboard-response","193","123837","0.0-193.0","3ZOTGHDK5JXWIHT692PDPZRCTPNOSC","A2NXMRPHG86N2T","3A3KKYU7P33Z3BR9PPFZ5194ZCQMWU","","760.0999999046326","img/animal2.png","76","761.7999999523163","3","1","3","1,0.5,0,0,1,0.5,0.5,0,1",""
"","html-keyboard-response","194","124139","0.0-194.0","3ZOTGHDK5JXWIHT692PDPZRCTPNOSC","A2NXMRPHG86N2T","3A3KKYU7P33Z3BR9PPFZ5194ZCQMWU","","null","<img src=""img/animal2.png"" style=""width:200px; border:14px solid green;"">","null","","","","","",""
"","image-keyboard-response","195","125901","0.0-195.0","3ZOTGHDK5JXWIHT692PDPZRCTPNOSC","A2NXMRPHG86N2T","3A3KKYU7P33Z3BR9PPFZ5194ZCQMWU","","1759.5","img/animal3.png","76","1760.9000000953674","3","0","2","1,0.5,0,0,1,0.5,0.5,0,1",""
"","html-keyboard-response","196","126204","0.0-196.0","3ZOTGHDK5JXWIHT692PDPZRCTPNOSC","A2NXMRPHG86N2T","3A3KKYU7P33Z3BR9PPFZ5194ZCQMWU","","null","<img src=""img/animal3.png"" style=""width:200px;border:14px solid red;"">","null","","","","","",""
"","image-keyboard-response","197","126853","0.0-197.0","3ZOTGHDK5JXWIHT692PDPZRCTPNOSC","A2NXMRPHG86N2T","3A3KKYU7P33Z3BR9PPFZ5194ZCQMWU","","647.2999999523163","img/animal3.png","75","648.7999999523163","2","1","2","1,0.5,0,0,1,0.5,0.5,0,1",""
"","html-keyboard-response","198","127156","0.0-198.0","3ZOTGHDK5JXWIHT692PDPZRCTPNOSC","A2NXMRPHG86N2T","3A3KKYU7P33Z3BR9PPFZ5194ZCQMWU","","null","<img src=""img/animal3.png"" style=""width:200px; border:14px solid green;"">","null","","","","","",""
"","image-keyboard-response","199","128589","0.0-199.0","3ZOTGHDK5JXWIHT692PDPZRCTPNOSC","A2NXMRPHG86N2T","3A3KKYU7P33Z3BR9PPFZ5194ZCQMWU","","1431.7999999523163","img/animal3.png","75","1433.2000000476837","2","1","2","1,0.5,0,0,1,0.5,0.5,0,1",""
"","html-keyboard-response","200","128892","0.0-200.0","3ZOTGHDK5JXWIHT692PDPZRCTPNOSC","A2NXMRPHG86N2T","3A3KKYU7P33Z3BR9PPFZ5194ZCQMWU","","null","<img src=""img/animal3.png"" style=""width:200px; border:14px solid green;"">","null","","","","","",""
"","image-keyboard-response","201","130077","0.0-201.0","3ZOTGHDK5JXWIHT692PDPZRCTPNOSC","A2NXMRPHG86N2T","3A3KKYU7P33Z3BR9PPFZ5194ZCQMWU","","1183.5","img/animal1.png","76","1185.1000000238419","3","0","1","1,0.5,0,0,1,0.5,0.5,0,1",""
"","html-keyboard-response","202","130381","0.0-202.0","3ZOTGHDK5JXWIHT692PDPZRCTPNOSC","A2NXMRPHG86N2T","3A3KKYU7P33Z3BR9PPFZ5194ZCQMWU","","null","<img src=""img/animal1.png"" style=""width:200px;border:14px solid red;"">","null","","","","","",""
"","image-keyboard-response","203","130877","0.0-203.0","3ZOTGHDK5JXWIHT692PDPZRCTPNOSC","A2NXMRPHG86N2T","3A3KKYU7P33Z3BR9PPFZ5194ZCQMWU","","493.89999997615814","img/animal1.png","74","495.39999997615814","1","1","1","1,0.5,0,0,1,0.5,0.5,0,1",""
"","html-keyboard-response","204","131180","0.0-204.0","3ZOTGHDK5JXWIHT692PDPZRCTPNOSC","A2NXMRPHG86N2T","3A3KKYU7P33Z3BR9PPFZ5194ZCQMWU","","null","<img src=""img/animal1.png"" style=""width:200px; border:14px solid green;"">","null","","","","","",""
"","image-keyboard-response","205","132261","0.0-205.0","3ZOTGHDK5JXWIHT692PDPZRCTPNOSC","A2NXMRPHG86N2T","3A3KKYU7P33Z3BR9PPFZ5194ZCQMWU","","1079.3000000715256","img/animal2.png","76","1081","3","1","3","1,0.5,0,0,1,0.5,0.5,0,1",""
"","html-keyboard-response","206","132563","0.0-206.0","3ZOTGHDK5JXWIHT692PDPZRCTPNOSC","A2NXMRPHG86N2T","3A3KKYU7P33Z3BR9PPFZ5194ZCQMWU","","null","<img src=""img/animal2.png"" style=""width:200px; border:14px solid green;"">","null","","","","","",""
"","image-keyboard-response","207","133485","0.0-207.0","3ZOTGHDK5JXWIHT692PDPZRCTPNOSC","A2NXMRPHG86N2T","3A3KKYU7P33Z3BR9PPFZ5194ZCQMWU","","919.8999999761581","img/animal2.png","76","921.2999999523163","3","1","3","1,0.5,0,0,1,0.5,0.5,0,1",""
"","html-keyboard-response","208","133787","0.0-208.0","3ZOTGHDK5JXWIHT692PDPZRCTPNOSC","A2NXMRPHG86N2T","3A3KKYU7P33Z3BR9PPFZ5194ZCQMWU","","null","<img src=""img/animal2.png"" style=""width:200px; border:14px solid green;"">","null","","","","","",""
"","image-keyboard-response","209","134220","0.0-209.0","3ZOTGHDK5JXWIHT692PDPZRCTPNOSC","A2NXMRPHG86N2T","3A3KKYU7P33Z3BR9PPFZ5194ZCQMWU","","431.2000000476837","img/animal2.png","76","432.89999997615814","3","1","3","1,0.5,0,0,1,0.5,0.5,0,1",""
"","html-keyboard-response","210","134523","0.0-210.0","3ZOTGHDK5JXWIHT692PDPZRCTPNOSC","A2NXMRPHG86N2T","3A3KKYU7P33Z3BR9PPFZ5194ZCQMWU","","null","<img src=""img/animal2.png"" style=""width:200px; border:14px solid green;"">","null","","","","","",""
"","image-keyboard-response","211","135381","0.0-211.0","3ZOTGHDK5JXWIHT692PDPZRCTPNOSC","A2NXMRPHG86N2T","3A3KKYU7P33Z3BR9PPFZ5194ZCQMWU","","856.1999999284744","img/animal1.png","74","857.3000000715256","1","1","1","1,0.5,0,0,1,0.5,0.5,0,1",""
"","html-keyboard-response","212","135684","0.0-212.0","3ZOTGHDK5JXWIHT692PDPZRCTPNOSC","A2NXMRPHG86N2T","3A3KKYU7P33Z3BR9PPFZ5194ZCQMWU","","null","<img src=""img/animal1.png"" style=""width:200px; border:14px solid green;"">","null","","","","","",""
"","image-keyboard-response","213","136164","0.0-213.0","3ZOTGHDK5JXWIHT692PDPZRCTPNOSC","A2NXMRPHG86N2T","3A3KKYU7P33Z3BR9PPFZ5194ZCQMWU","","478.60000002384186","img/animal1.png","74","480.10000002384186","1","1","1","1,0.5,0,0,1,0.5,0.5,0,1",""
"","html-keyboard-response","214","136467","0.0-214.0","3ZOTGHDK5JXWIHT692PDPZRCTPNOSC","A2NXMRPHG86N2T","3A3KKYU7P33Z3BR9PPFZ5194ZCQMWU","","null","<img src=""img/animal1.png"" style=""width:200px; border:14px solid green;"">","null","","","","","",""
"","image-keyboard-response","215","137085","0.0-215.0","3ZOTGHDK5JXWIHT692PDPZRCTPNOSC","A2NXMRPHG86N2T","3A3KKYU7P33Z3BR9PPFZ5194ZCQMWU","","615.5","img/animal3.png","75","617.0999999046326","2","1","2","1,0.5,0,0,1,0.5,0.5,0,1",""
"","html-keyboard-response","216","137388","0.0-216.0","3ZOTGHDK5JXWIHT692PDPZRCTPNOSC","A2NXMRPHG86N2T","3A3KKYU7P33Z3BR9PPFZ5194ZCQMWU","","null","<img src=""img/animal3.png"" style=""width:200px; border:14px solid green;"">","null","","","","","",""
"","image-keyboard-response","217","137780","0.0-217.0","3ZOTGHDK5JXWIHT692PDPZRCTPNOSC","A2NXMRPHG86N2T","3A3KKYU7P33Z3BR9PPFZ5194ZCQMWU","","390.2000000476837","img/animal2.png","76","391.6999999284744","3","1","3","1,0.5,0,0,1,0.5,0.5,0,1",""
"","html-keyboard-response","218","138083","0.0-218.0","3ZOTGHDK5JXWIHT692PDPZRCTPNOSC","A2NXMRPHG86N2T","3A3KKYU7P33Z3BR9PPFZ5194ZCQMWU","","null","<img src=""img/animal2.png"" style=""width:200px; border:14px solid green;"">","null","","","","","",""
"","image-keyboard-response","219","138925","0.0-219.0","3ZOTGHDK5JXWIHT692PDPZRCTPNOSC","A2NXMRPHG86N2T","3A3KKYU7P33Z3BR9PPFZ5194ZCQMWU","","839.8999999761581","img/animal1.png","74","841.3999999761581","1","1","1","1,0.5,0,0,1,0.5,0.5,0,1",""
"","html-keyboard-response","220","139227","0.0-220.0","3ZOTGHDK5JXWIHT692PDPZRCTPNOSC","A2NXMRPHG86N2T","3A3KKYU7P33Z3BR9PPFZ5194ZCQMWU","","null","<img src=""img/animal1.png"" style=""width:200px; border:14px solid green;"">","null","","","","","",""
"","image-keyboard-response","221","140101","0.0-221.0","3ZOTGHDK5JXWIHT692PDPZRCTPNOSC","A2NXMRPHG86N2T","3A3KKYU7P33Z3BR9PPFZ5194ZCQMWU","","872.1000000238419","img/animal2.png","76","873.7999999523163","3","1","3","1,0.5,0,0,1,0.5,0.5,0,1",""
"","html-keyboard-response","222","140404","0.0-222.0","3ZOTGHDK5JXWIHT692PDPZRCTPNOSC","A2NXMRPHG86N2T","3A3KKYU7P33Z3BR9PPFZ5194ZCQMWU","","null","<img src=""img/animal2.png"" style=""width:200px; border:14px solid green;"">","null","","","","","",""
"","image-keyboard-response","223","141621","0.0-223.0","3ZOTGHDK5JXWIHT692PDPZRCTPNOSC","A2NXMRPHG86N2T","3A3KKYU7P33Z3BR9PPFZ5194ZCQMWU","","1214.8000000715256","img/animal3.png","75","1216.3000000715256","2","1","2","1,0.5,0,0,1,0.5,0.5,0,1",""
"","html-keyboard-response","224","141924","0.0-224.0","3ZOTGHDK5JXWIHT692PDPZRCTPNOSC","A2NXMRPHG86N2T","3A3KKYU7P33Z3BR9PPFZ5194ZCQMWU","","null","<img src=""img/animal3.png"" style=""width:200px; border:14px solid green;"">","null","","","","","",""
"","image-keyboard-response","225","142419","0.0-225.0","3ZOTGHDK5JXWIHT692PDPZRCTPNOSC","A2NXMRPHG86N2T","3A3KKYU7P33Z3BR9PPFZ5194ZCQMWU","","493.7000000476837","img/animal3.png","75","495.10000002384186","2","1","2","1,0.5,0,0,1,0.5,0.5,0,1",""
"","html-keyboard-response","226","142721","0.0-226.0","3ZOTGHDK5JXWIHT692PDPZRCTPNOSC","A2NXMRPHG86N2T","3A3KKYU7P33Z3BR9PPFZ5194ZCQMWU","","null","<img src=""img/animal3.png"" style=""width:200px; border:14px solid green;"">","null","","","","","",""
"","image-keyboard-response","227","143093","0.0-227.0","3ZOTGHDK5JXWIHT692PDPZRCTPNOSC","A2NXMRPHG86N2T","3A3KKYU7P33Z3BR9PPFZ5194ZCQMWU","","369.5","img/animal3.png","75","371.10000002384186","2","1","2","1,0.5,0,0,1,0.5,0.5,0,1",""
"","html-keyboard-response","228","143396","0.0-228.0","3ZOTGHDK5JXWIHT692PDPZRCTPNOSC","A2NXMRPHG86N2T","3A3KKYU7P33Z3BR9PPFZ5194ZCQMWU","","null","<img src=""img/animal3.png"" style=""width:200px; border:14px solid green;"">","null","","","","","",""
"","image-keyboard-response","229","143829","0.0-229.0","3ZOTGHDK5JXWIHT692PDPZRCTPNOSC","A2NXMRPHG86N2T","3A3KKYU7P33Z3BR9PPFZ5194ZCQMWU","","431.1999999284744","img/animal3.png","75","432.89999997615814","2","1","2","1,0.5,0,0,1,0.5,0.5,0,1",""
"","html-keyboard-response","230","144132","0.0-230.0","3ZOTGHDK5JXWIHT692PDPZRCTPNOSC","A2NXMRPHG86N2T","3A3KKYU7P33Z3BR9PPFZ5194ZCQMWU","","null","<img src=""img/animal3.png"" style=""width:200px; border:14px solid green;"">","null","","","","","",""
"","image-keyboard-response","231","145140","0.0-231.0","3ZOTGHDK5JXWIHT692PDPZRCTPNOSC","A2NXMRPHG86N2T","3A3KKYU7P33Z3BR9PPFZ5194ZCQMWU","","1007.2000000476837","img/animal1.png","74","1008.5","1","1","1","1,0.5,0,0,1,0.5,0.5,0,1",""
"","html-keyboard-response","232","145442","0.0-232.0","3ZOTGHDK5JXWIHT692PDPZRCTPNOSC","A2NXMRPHG86N2T","3A3KKYU7P33Z3BR9PPFZ5194ZCQMWU","","null","<img src=""img/animal1.png"" style=""width:200px; border:14px solid green;"">","null","","","","","",""
"","image-keyboard-response","233","146116","0.0-233.0","3ZOTGHDK5JXWIHT692PDPZRCTPNOSC","A2NXMRPHG86N2T","3A3KKYU7P33Z3BR9PPFZ5194ZCQMWU","","672.1000000238419","img/animal3.png","75","673.6000000238419","2","1","2","1,0.5,0,0,1,0.5,0.5,0,1",""
"","html-keyboard-response","234","146420","0.0-234.0","3ZOTGHDK5JXWIHT692PDPZRCTPNOSC","A2NXMRPHG86N2T","3A3KKYU7P33Z3BR9PPFZ5194ZCQMWU","","null","<img src=""img/animal3.png"" style=""width:200px; border:14px solid green;"">","null","","","","","",""
"","image-keyboard-response","235","146965","0.0-235.0","3ZOTGHDK5JXWIHT692PDPZRCTPNOSC","A2NXMRPHG86N2T","3A3KKYU7P33Z3BR9PPFZ5194ZCQMWU","","543.2999999523163","img/animal3.png","75","544.6000000238419","2","1","2","1,0.5,0,0,1,0.5,0.5,0,1",""
"","html-keyboard-response","236","147267","0.0-236.0","3ZOTGHDK5JXWIHT692PDPZRCTPNOSC","A2NXMRPHG86N2T","3A3KKYU7P33Z3BR9PPFZ5194ZCQMWU","","null","<img src=""img/animal3.png"" style=""width:200px; border:14px solid green;"">","null","","","","","",""
"","image-keyboard-response","237","148076","0.0-237.0","3ZOTGHDK5JXWIHT692PDPZRCTPNOSC","A2NXMRPHG86N2T","3A3KKYU7P33Z3BR9PPFZ5194ZCQMWU","","808","img/animal1.png","74","809.5","1","1","1","1,0.5,0,0,1,0.5,0.5,0,1",""
"","html-keyboard-response","238","148379","0.0-238.0","3ZOTGHDK5JXWIHT692PDPZRCTPNOSC","A2NXMRPHG86N2T","3A3KKYU7P33Z3BR9PPFZ5194ZCQMWU","","null","<img src=""img/animal1.png"" style=""width:200px; border:14px solid green;"">","null","","","","","",""
"","image-keyboard-response","239","148844","0.0-239.0","3ZOTGHDK5JXWIHT692PDPZRCTPNOSC","A2NXMRPHG86N2T","3A3KKYU7P33Z3BR9PPFZ5194ZCQMWU","","462.7999999523163","img/animal1.png","74","464.7999999523163","1","1","1","1,0.5,0,0,1,0.5,0.5,0,1",""
"","html-keyboard-response","240","149147","0.0-240.0","3ZOTGHDK5JXWIHT692PDPZRCTPNOSC","A2NXMRPHG86N2T","3A3KKYU7P33Z3BR9PPFZ5194ZCQMWU","","null","<img src=""img/animal1.png"" style=""width:200px; border:14px solid green;"">","null","","","","","",""
"","image-keyboard-response","241","149797","0.0-241.0","3ZOTGHDK5JXWIHT692PDPZRCTPNOSC","A2NXMRPHG86N2T","3A3KKYU7P33Z3BR9PPFZ5194ZCQMWU","","647.7999999523163","img/animal3.png","75","649.5","2","1","2","1,0.5,0,0,1,0.5,0.5,0,1",""
"","html-keyboard-response","242","150100","0.0-242.0","3ZOTGHDK5JXWIHT692PDPZRCTPNOSC","A2NXMRPHG86N2T","3A3KKYU7P33Z3BR9PPFZ5194ZCQMWU","","null","<img src=""img/animal3.png"" style=""width:200px; border:14px solid green;"">","null","","","","","",""
"","image-keyboard-response","243","150461","0.0-243.0","3ZOTGHDK5JXWIHT692PDPZRCTPNOSC","A2NXMRPHG86N2T","3A3KKYU7P33Z3BR9PPFZ5194ZCQMWU","","359.8000000715256","img/animal2.png","75","361.2000000476837","2","0","3","1,0.5,0,0,1,0.5,0.5,0,1",""
"","html-keyboard-response","244","150764","0.0-244.0","3ZOTGHDK5JXWIHT692PDPZRCTPNOSC","A2NXMRPHG86N2T","3A3KKYU7P33Z3BR9PPFZ5194ZCQMWU","","null","<img src=""img/animal2.png"" style=""width:200px;border:14px solid red;"">","null","","","","","",""
"","image-keyboard-response","245","151965","0.0-245.0","3ZOTGHDK5JXWIHT692PDPZRCTPNOSC","A2NXMRPHG86N2T","3A3KKYU7P33Z3BR9PPFZ5194ZCQMWU","","1199.1999999284744","img/animal1.png","74","1200.7999999523163","1","1","1","1,0.5,0,0,1,0.5,0.5,0,1",""
"","html-keyboard-response","246","152268","0.0-246.0","3ZOTGHDK5JXWIHT692PDPZRCTPNOSC","A2NXMRPHG86N2T","3A3KKYU7P33Z3BR9PPFZ5194ZCQMWU","","null","<img src=""img/animal1.png"" style=""width:200px; border:14px solid green;"">","null","","","","","",""
"","image-keyboard-response","247","153013","0.0-247.0","3ZOTGHDK5JXWIHT692PDPZRCTPNOSC","A2NXMRPHG86N2T","3A3KKYU7P33Z3BR9PPFZ5194ZCQMWU","","742.8999999761581","img/animal3.png","75","744.5999999046326","2","1","2","1,0.5,0,0,1,0.5,0.5,0,1",""
"","html-keyboard-response","248","153315","0.0-248.0","3ZOTGHDK5JXWIHT692PDPZRCTPNOSC","A2NXMRPHG86N2T","3A3KKYU7P33Z3BR9PPFZ5194ZCQMWU","","null","<img src=""img/animal3.png"" style=""width:200px; border:14px solid green;"">","null","","","","","",""
"","image-keyboard-response","249","154205","0.0-249.0","3ZOTGHDK5JXWIHT692PDPZRCTPNOSC","A2NXMRPHG86N2T","3A3KKYU7P33Z3BR9PPFZ5194ZCQMWU","","887.5999999046326","img/animal3.png","75","889","2","1","2","1,0.5,0,0,1,0.5,0.5,0,1",""
"","html-keyboard-response","250","154508","0.0-250.0","3ZOTGHDK5JXWIHT692PDPZRCTPNOSC","A2NXMRPHG86N2T","3A3KKYU7P33Z3BR9PPFZ5194ZCQMWU","","null","<img src=""img/animal3.png"" style=""width:200px; border:14px solid green;"">","null","","","","","",""
"","image-keyboard-response","251","155029","0.0-251.0","3ZOTGHDK5JXWIHT692PDPZRCTPNOSC","A2NXMRPHG86N2T","3A3KKYU7P33Z3BR9PPFZ5194ZCQMWU","","519","img/animal3.png","75","520.4000000953674","2","1","2","1,0.5,0,0,1,0.5,0.5,0,1",""
"","html-keyboard-response","252","155332","0.0-252.0","3ZOTGHDK5JXWIHT692PDPZRCTPNOSC","A2NXMRPHG86N2T","3A3KKYU7P33Z3BR9PPFZ5194ZCQMWU","","null","<img src=""img/animal3.png"" style=""width:200px; border:14px solid green;"">","null","","","","","",""
"","image-keyboard-response","253","156037","0.0-253.0","3ZOTGHDK5JXWIHT692PDPZRCTPNOSC","A2NXMRPHG86N2T","3A3KKYU7P33Z3BR9PPFZ5194ZCQMWU","","702.5","img/animal2.png","76","704.2000000476837","3","1","3","1,0.5,0,0,1,0.5,0.5,0,1",""
"","html-keyboard-response","254","156339","0.0-254.0","3ZOTGHDK5JXWIHT692PDPZRCTPNOSC","A2NXMRPHG86N2T","3A3KKYU7P33Z3BR9PPFZ5194ZCQMWU","","null","<img src=""img/animal2.png"" style=""width:200px; border:14px solid green;"">","null","","","","","",""
"","image-keyboard-response","255","157085","0.0-255.0","3ZOTGHDK5JXWIHT692PDPZRCTPNOSC","A2NXMRPHG86N2T","3A3KKYU7P33Z3BR9PPFZ5194ZCQMWU","","743.3999999761581","img/animal1.png","74","745.1999999284744","1","1","1","1,0.5,0,0,1,0.5,0.5,0,1",""
"","html-keyboard-response","256","157388","0.0-256.0","3ZOTGHDK5JXWIHT692PDPZRCTPNOSC","A2NXMRPHG86N2T","3A3KKYU7P33Z3BR9PPFZ5194ZCQMWU","","null","<img src=""img/animal1.png"" style=""width:200px; border:14px solid green;"">","null","","","","","",""
"","image-keyboard-response","257","158165","0.0-257.0","3ZOTGHDK5JXWIHT692PDPZRCTPNOSC","A2NXMRPHG86N2T","3A3KKYU7P33Z3BR9PPFZ5194ZCQMWU","","775.1000000238419","img/animal3.png","75","776.5999999046326","2","1","2","1,0.5,0,0,1,0.5,0.5,0,1",""
"","html-keyboard-response","258","158468","0.0-258.0","3ZOTGHDK5JXWIHT692PDPZRCTPNOSC","A2NXMRPHG86N2T","3A3KKYU7P33Z3BR9PPFZ5194ZCQMWU","","null","<img src=""img/animal3.png"" style=""width:200px; border:14px solid green;"">","null","","","","","",""
"","image-keyboard-response","259","159229","0.0-259.0","3ZOTGHDK5JXWIHT692PDPZRCTPNOSC","A2NXMRPHG86N2T","3A3KKYU7P33Z3BR9PPFZ5194ZCQMWU","","758.9000000953674","img/animal1.png","74","760.3000000715256","1","1","1","1,0.5,0,0,1,0.5,0.5,0,1",""
"","html-keyboard-response","260","159532","0.0-260.0","3ZOTGHDK5JXWIHT692PDPZRCTPNOSC","A2NXMRPHG86N2T","3A3KKYU7P33Z3BR9PPFZ5194ZCQMWU","","null","<img src=""img/animal1.png"" style=""width:200px; border:14px solid green;"">","null","","","","","",""
"","image-keyboard-response","261","159957","0.0-261.0","3ZOTGHDK5JXWIHT692PDPZRCTPNOSC","A2NXMRPHG86N2T","3A3KKYU7P33Z3BR9PPFZ5194ZCQMWU","","421","img/animal2.png","75","422.7000000476837","2","0","3","1,0.5,0,0,1,0.5,0.5,0,1",""
"","html-keyboard-response","262","160260","0.0-262.0","3ZOTGHDK5JXWIHT692PDPZRCTPNOSC","A2NXMRPHG86N2T","3A3KKYU7P33Z3BR9PPFZ5194ZCQMWU","","null","<img src=""img/animal2.png"" style=""width:200px;border:14px solid red;"">","null","","","","","",""
"","image-keyboard-response","263","160877","0.0-263.0","3ZOTGHDK5JXWIHT692PDPZRCTPNOSC","A2NXMRPHG86N2T","3A3KKYU7P33Z3BR9PPFZ5194ZCQMWU","","615.8000000715256","img/animal1.png","74","617.3000000715256","1","1","1","1,0.5,0,0,1,0.5,0.5,0,1",""
"","html-keyboard-response","264","161193","0.0-264.0","3ZOTGHDK5JXWIHT692PDPZRCTPNOSC","A2NXMRPHG86N2T","3A3KKYU7P33Z3BR9PPFZ5194ZCQMWU","","null","<img src=""img/animal1.png"" style=""width:200px; border:14px solid green;"">","null","","","","","",""
"","image-keyboard-response","265","162021","0.0-265.0","3ZOTGHDK5JXWIHT692PDPZRCTPNOSC","A2NXMRPHG86N2T","3A3KKYU7P33Z3BR9PPFZ5194ZCQMWU","","825.5","img/animal2.png","76","827.1000000238419","3","1","3","1,0.5,0,0,1,0.5,0.5,0,1",""
"","html-keyboard-response","266","162324","0.0-266.0","3ZOTGHDK5JXWIHT692PDPZRCTPNOSC","A2NXMRPHG86N2T","3A3KKYU7P33Z3BR9PPFZ5194ZCQMWU","","null","<img src=""img/animal2.png"" style=""width:200px; border:14px solid green;"">","null","","","","","",""
"","image-keyboard-response","267","163253","0.0-267.0","3ZOTGHDK5JXWIHT692PDPZRCTPNOSC","A2NXMRPHG86N2T","3A3KKYU7P33Z3BR9PPFZ5194ZCQMWU","","927.3000000715256","img/animal3.png","74","928.8000000715256","1","0","2","1,0.5,0,0,1,0.5,0.5,0,1",""
"","html-keyboard-response","268","163556","0.0-268.0","3ZOTGHDK5JXWIHT692PDPZRCTPNOSC","A2NXMRPHG86N2T","3A3KKYU7P33Z3BR9PPFZ5194ZCQMWU","","null","<img src=""img/animal3.png"" style=""width:200px;border:14px solid red;"">","null","","","","","",""
"","image-keyboard-response","269","164453","0.0-269.0","3ZOTGHDK5JXWIHT692PDPZRCTPNOSC","A2NXMRPHG86N2T","3A3KKYU7P33Z3BR9PPFZ5194ZCQMWU","","894.6999999284744","img/animal1.png","74","896.2000000476837","1","1","1","1,0.5,0,0,1,0.5,0.5,0,1",""
"","html-keyboard-response","270","164756","0.0-270.0","3ZOTGHDK5JXWIHT692PDPZRCTPNOSC","A2NXMRPHG86N2T","3A3KKYU7P33Z3BR9PPFZ5194ZCQMWU","","null","<img src=""img/animal1.png"" style=""width:200px; border:14px solid green;"">","null","","","","","",""
"","image-keyboard-response","271","165133","0.0-271.0","3ZOTGHDK5JXWIHT692PDPZRCTPNOSC","A2NXMRPHG86N2T","3A3KKYU7P33Z3BR9PPFZ5194ZCQMWU","","375.2000000476837","img/animal1.png","74","376.60000002384186","1","1","1","1,0.5,0,0,1,0.5,0.5,0,1",""
"","html-keyboard-response","272","165435","0.0-272.0","3ZOTGHDK5JXWIHT692PDPZRCTPNOSC","A2NXMRPHG86N2T","3A3KKYU7P33Z3BR9PPFZ5194ZCQMWU","","null","<img src=""img/animal1.png"" style=""width:200px; border:14px solid green;"">","null","","","","","",""
"","image-keyboard-response","273","166093","0.0-273.0","3ZOTGHDK5JXWIHT692PDPZRCTPNOSC","A2NXMRPHG86N2T","3A3KKYU7P33Z3BR9PPFZ5194ZCQMWU","","657.1999999284744","img/animal2.png","75","658.5","2","0","3","1,0.5,0,0,1,0.5,0.5,0,1",""
"","html-keyboard-response","274","166396","0.0-274.0","3ZOTGHDK5JXWIHT692PDPZRCTPNOSC","A2NXMRPHG86N2T","3A3KKYU7P33Z3BR9PPFZ5194ZCQMWU","","null","<img src=""img/animal2.png"" style=""width:200px;border:14px solid red;"">","null","","","","","",""
"","image-keyboard-response","275","167061","0.0-275.0","3ZOTGHDK5JXWIHT692PDPZRCTPNOSC","A2NXMRPHG86N2T","3A3KKYU7P33Z3BR9PPFZ5194ZCQMWU","","662.3000000715256","img/animal2.png","76","664.1999999284744","3","1","3","1,0.5,0,0,1,0.5,0.5,0,1",""
"","html-keyboard-response","276","167364","0.0-276.0","3ZOTGHDK5JXWIHT692PDPZRCTPNOSC","A2NXMRPHG86N2T","3A3KKYU7P33Z3BR9PPFZ5194ZCQMWU","","null","<img src=""img/animal2.png"" style=""width:200px; border:14px solid green;"">","null","","","","","",""
"","image-keyboard-response","277","168461","0.0-277.0","3ZOTGHDK5JXWIHT692PDPZRCTPNOSC","A2NXMRPHG86N2T","3A3KKYU7P33Z3BR9PPFZ5194ZCQMWU","","1095.3000000715256","img/animal3.png","74","1096.8000000715256","1","0","2","1,0.5,0,0,1,0.5,0.5,0,1",""
"","html-keyboard-response","278","168763","0.0-278.0","3ZOTGHDK5JXWIHT692PDPZRCTPNOSC","A2NXMRPHG86N2T","3A3KKYU7P33Z3BR9PPFZ5194ZCQMWU","","null","<img src=""img/animal3.png"" style=""width:200px;border:14px solid red;"">","null","","","","","",""
"","image-keyboard-response","279","169829","0.0-279.0","3ZOTGHDK5JXWIHT692PDPZRCTPNOSC","A2NXMRPHG86N2T","3A3KKYU7P33Z3BR9PPFZ5194ZCQMWU","","1063.8999999761581","img/animal3.png","76","1065.7999999523163","3","1","2","1,0.5,0,0,1,0.5,0.5,0,1",""
"","html-keyboard-response","280","170132","0.0-280.0","3ZOTGHDK5JXWIHT692PDPZRCTPNOSC","A2NXMRPHG86N2T","3A3KKYU7P33Z3BR9PPFZ5194ZCQMWU","","null","<img src=""img/animal3.png"" style=""width:200px; border:14px solid green;"">","null","","","","","",""
"","image-keyboard-response","281","171477","0.0-281.0","3ZOTGHDK5JXWIHT692PDPZRCTPNOSC","A2NXMRPHG86N2T","3A3KKYU7P33Z3BR9PPFZ5194ZCQMWU","","1343.6000000238419","img/animal2.png","74","1345.1000000238419","1","1","3","1,0.5,0,0,1,0.5,0.5,0,1",""
"","html-keyboard-response","282","171781","0.0-282.0","3ZOTGHDK5JXWIHT692PDPZRCTPNOSC","A2NXMRPHG86N2T","3A3KKYU7P33Z3BR9PPFZ5194ZCQMWU","","null","<img src=""img/animal2.png"" style=""width:200px; border:14px solid green;"">","null","","","","","",""
"","image-keyboard-response","283","172541","0.0-283.0","3ZOTGHDK5JXWIHT692PDPZRCTPNOSC","A2NXMRPHG86N2T","3A3KKYU7P33Z3BR9PPFZ5194ZCQMWU","","757.8000000715256","img/animal1.png","74","759.2000000476837","1","1","1","1,0.5,0,0,1,0.5,0.5,0,1",""
"","html-keyboard-response","284","172844","0.0-284.0","3ZOTGHDK5JXWIHT692PDPZRCTPNOSC","A2NXMRPHG86N2T","3A3KKYU7P33Z3BR9PPFZ5194ZCQMWU","","null","<img src=""img/animal1.png"" style=""width:200px; border:14px solid green;"">","null","","","","","",""
"","image-keyboard-response","285","173644","0.0-285.0","3ZOTGHDK5JXWIHT692PDPZRCTPNOSC","A2NXMRPHG86N2T","3A3KKYU7P33Z3BR9PPFZ5194ZCQMWU","","798","img/animal3.png","75","799.2999999523163","2","1","2","1,0.5,0,0,1,0.5,0.5,0,1",""
"","html-keyboard-response","286","173946","0.0-286.0","3ZOTGHDK5JXWIHT692PDPZRCTPNOSC","A2NXMRPHG86N2T","3A3KKYU7P33Z3BR9PPFZ5194ZCQMWU","","null","<img src=""img/animal3.png"" style=""width:200px; border:14px solid green;"">","null","","","","","",""
"","image-keyboard-response","287","174613","0.0-287.0","3ZOTGHDK5JXWIHT692PDPZRCTPNOSC","A2NXMRPHG86N2T","3A3KKYU7P33Z3BR9PPFZ5194ZCQMWU","","665.7000000476837","img/animal1.png","76","667.1000000238419","3","0","1","1,0.5,0,0,1,0.5,0.5,0,1",""
"","html-keyboard-response","288","174916","0.0-288.0","3ZOTGHDK5JXWIHT692PDPZRCTPNOSC","A2NXMRPHG86N2T","3A3KKYU7P33Z3BR9PPFZ5194ZCQMWU","","null","<img src=""img/animal1.png"" style=""width:200px;border:14px solid red;"">","null","","","","","",""
"","image-keyboard-response","289","176108","0.0-289.0","3ZOTGHDK5JXWIHT692PDPZRCTPNOSC","A2NXMRPHG86N2T","3A3KKYU7P33Z3BR9PPFZ5194ZCQMWU","","1190.5","img/animal1.png","74","1191.8000000715256","1","1","1","1,0.5,0,0,1,0.5,0.5,0,1",""
"","html-keyboard-response","290","176411","0.0-290.0","3ZOTGHDK5JXWIHT692PDPZRCTPNOSC","A2NXMRPHG86N2T","3A3KKYU7P33Z3BR9PPFZ5194ZCQMWU","","null","<img src=""img/animal1.png"" style=""width:200px; border:14px solid green;"">","null","","","","","",""
"","image-keyboard-response","291","177260","0.0-291.0","3ZOTGHDK5JXWIHT692PDPZRCTPNOSC","A2NXMRPHG86N2T","3A3KKYU7P33Z3BR9PPFZ5194ZCQMWU","","848.3999999761581","img/animal3.png","75","849.3999999761581","2","1","2","1,0.5,0,0,1,0.5,0.5,0,1",""
"","html-keyboard-response","292","177563","0.0-292.0","3ZOTGHDK5JXWIHT692PDPZRCTPNOSC","A2NXMRPHG86N2T","3A3KKYU7P33Z3BR9PPFZ5194ZCQMWU","","null","<img src=""img/animal3.png"" style=""width:200px; border:14px solid green;"">","null","","","","","",""
"","image-keyboard-response","293","177973","0.0-293.0","3ZOTGHDK5JXWIHT692PDPZRCTPNOSC","A2NXMRPHG86N2T","3A3KKYU7P33Z3BR9PPFZ5194ZCQMWU","","408.1999999284744","img/animal3.png","75","409.60000002384186","2","1","2","1,0.5,0,0,1,0.5,0.5,0,1",""
"","html-keyboard-response","294","178282","0.0-294.0","3ZOTGHDK5JXWIHT692PDPZRCTPNOSC","A2NXMRPHG86N2T","3A3KKYU7P33Z3BR9PPFZ5194ZCQMWU","","null","<img src=""img/animal3.png"" style=""width:200px; border:14px solid green;"">","null","","","","","",""
"","image-keyboard-response","295","178973","0.0-295.0","3ZOTGHDK5JXWIHT692PDPZRCTPNOSC","A2NXMRPHG86N2T","3A3KKYU7P33Z3BR9PPFZ5194ZCQMWU","","688.3000000715256","img/animal2.png","76","689.8999999761581","3","1","3","1,0.5,0,0,1,0.5,0.5,0,1",""
"","html-keyboard-response","296","179276","0.0-296.0","3ZOTGHDK5JXWIHT692PDPZRCTPNOSC","A2NXMRPHG86N2T","3A3KKYU7P33Z3BR9PPFZ5194ZCQMWU","","null","<img src=""img/animal2.png"" style=""width:200px; border:14px solid green;"">","null","","","","","",""
"","image-keyboard-response","297","180205","0.0-297.0","3ZOTGHDK5JXWIHT692PDPZRCTPNOSC","A2NXMRPHG86N2T","3A3KKYU7P33Z3BR9PPFZ5194ZCQMWU","","927.8999999761581","img/animal1.png","74","929.0999999046326","1","1","1","1,0.5,0,0,1,0.5,0.5,0,1",""
"","html-keyboard-response","298","180508","0.0-298.0","3ZOTGHDK5JXWIHT692PDPZRCTPNOSC","A2NXMRPHG86N2T","3A3KKYU7P33Z3BR9PPFZ5194ZCQMWU","","null","<img src=""img/animal1.png"" style=""width:200px; border:14px solid green;"">","null","","","","","",""
"","image-keyboard-response","299","181285","0.0-299.0","3ZOTGHDK5JXWIHT692PDPZRCTPNOSC","A2NXMRPHG86N2T","3A3KKYU7P33Z3BR9PPFZ5194ZCQMWU","","774.3999999761581","img/animal2.png","76","776","3","1","3","1,0.5,0,0,1,0.5,0.5,0,1",""
"","html-keyboard-response","300","181587","0.0-300.0","3ZOTGHDK5JXWIHT692PDPZRCTPNOSC","A2NXMRPHG86N2T","3A3KKYU7P33Z3BR9PPFZ5194ZCQMWU","","null","<img src=""img/animal2.png"" style=""width:200px; border:14px solid green;"">","null","","","","","",""
"","image-keyboard-response","301","182213","0.0-301.0","3ZOTGHDK5JXWIHT692PDPZRCTPNOSC","A2NXMRPHG86N2T","3A3KKYU7P33Z3BR9PPFZ5194ZCQMWU","","624","img/animal3.png","74","625.5","1","0","2","1,0.5,0,0,1,0.5,0.5,0,1",""
"","html-keyboard-response","302","182516","0.0-302.0","3ZOTGHDK5JXWIHT692PDPZRCTPNOSC","A2NXMRPHG86N2T","3A3KKYU7P33Z3BR9PPFZ5194ZCQMWU","","null","<img src=""img/animal3.png"" style=""width:200px;border:14px solid red;"">","null","","","","","",""
"","image-keyboard-response","303","183653","0.0-303.0","3ZOTGHDK5JXWIHT692PDPZRCTPNOSC","A2NXMRPHG86N2T","3A3KKYU7P33Z3BR9PPFZ5194ZCQMWU","","1134.8000000715256","img/animal2.png","76","1136.6000000238419","3","1","3","1,0.5,0,0,1,0.5,0.5,0,1",""
"","html-keyboard-response","304","183970","0.0-304.0","3ZOTGHDK5JXWIHT692PDPZRCTPNOSC","A2NXMRPHG86N2T","3A3KKYU7P33Z3BR9PPFZ5194ZCQMWU","","null","<img src=""img/animal2.png"" style=""width:200px; border:14px solid green;"">","null","","","","","",""
"","image-keyboard-response","305","184532","0.0-305.0","3ZOTGHDK5JXWIHT692PDPZRCTPNOSC","A2NXMRPHG86N2T","3A3KKYU7P33Z3BR9PPFZ5194ZCQMWU","","560.5","img/animal2.png","76","561.8999999761581","3","1","3","1,0.5,0,0,1,0.5,0.5,0,1",""
"","html-keyboard-response","306","184835","0.0-306.0","3ZOTGHDK5JXWIHT692PDPZRCTPNOSC","A2NXMRPHG86N2T","3A3KKYU7P33Z3BR9PPFZ5194ZCQMWU","","null","<img src=""img/animal2.png"" style=""width:200px; border:14px solid green;"">","null","","","","","",""
"","image-keyboard-response","307","185268","0.0-307.0","3ZOTGHDK5JXWIHT692PDPZRCTPNOSC","A2NXMRPHG86N2T","3A3KKYU7P33Z3BR9PPFZ5194ZCQMWU","","431.60000002384186","img/animal2.png","76","433.1999999284744","3","1","3","1,0.5,0,0,1,0.5,0.5,0,1",""
"","html-keyboard-response","308","185572","0.0-308.0","3ZOTGHDK5JXWIHT692PDPZRCTPNOSC","A2NXMRPHG86N2T","3A3KKYU7P33Z3BR9PPFZ5194ZCQMWU","","null","<img src=""img/animal2.png"" style=""width:200px; border:14px solid green;"">","null","","","","","",""
"","image-keyboard-response","309","185940","0.0-309.0","3ZOTGHDK5JXWIHT692PDPZRCTPNOSC","A2NXMRPHG86N2T","3A3KKYU7P33Z3BR9PPFZ5194ZCQMWU","","366.7000000476837","img/animal2.png","76","368.3000000715256","3","1","3","1,0.5,0,0,1,0.5,0.5,0,1",""
"","html-keyboard-response","310","186244","0.0-310.0","3ZOTGHDK5JXWIHT692PDPZRCTPNOSC","A2NXMRPHG86N2T","3A3KKYU7P33Z3BR9PPFZ5194ZCQMWU","","null","<img src=""img/animal2.png"" style=""width:200px; border:14px solid green;"">","null","","","","","",""
"","image-keyboard-response","311","187029","0.0-311.0","3ZOTGHDK5JXWIHT692PDPZRCTPNOSC","A2NXMRPHG86N2T","3A3KKYU7P33Z3BR9PPFZ5194ZCQMWU","","783.3000000715256","img/animal3.png","75","784.7000000476837","2","1","2","1,0.5,0,0,1,0.5,0.5,0,1",""
"","html-keyboard-response","312","187332","0.0-312.0","3ZOTGHDK5JXWIHT692PDPZRCTPNOSC","A2NXMRPHG86N2T","3A3KKYU7P33Z3BR9PPFZ5194ZCQMWU","","null","<img src=""img/animal3.png"" style=""width:200px; border:14px solid green;"">","null","","","","","",""
"","image-keyboard-response","313","188373","0.0-313.0","3ZOTGHDK5JXWIHT692PDPZRCTPNOSC","A2NXMRPHG86N2T","3A3KKYU7P33Z3BR9PPFZ5194ZCQMWU","","1039.2000000476837","img/animal1.png","74","1040.7999999523163","1","1","1","1,0.5,0,0,1,0.5,0.5,0,1",""
"","html-keyboard-response","314","188675","0.0-314.0","3ZOTGHDK5JXWIHT692PDPZRCTPNOSC","A2NXMRPHG86N2T","3A3KKYU7P33Z3BR9PPFZ5194ZCQMWU","","null","<img src=""img/animal1.png"" style=""width:200px; border:14px solid green;"">","null","","","","","",""
"","image-keyboard-response","315","189876","0.0-315.0","3ZOTGHDK5JXWIHT692PDPZRCTPNOSC","A2NXMRPHG86N2T","3A3KKYU7P33Z3BR9PPFZ5194ZCQMWU","","1199.5","img/animal2.png","76","1200.8999999761581","3","1","3","1,0.5,0,0,1,0.5,0.5,0,1",""
"","html-keyboard-response","316","190179","0.0-316.0","3ZOTGHDK5JXWIHT692PDPZRCTPNOSC","A2NXMRPHG86N2T","3A3KKYU7P33Z3BR9PPFZ5194ZCQMWU","","null","<img src=""img/animal2.png"" style=""width:200px; border:14px solid green;"">","null","","","","","",""
"","image-keyboard-response","317","190732","0.0-317.0","3ZOTGHDK5JXWIHT692PDPZRCTPNOSC","A2NXMRPHG86N2T","3A3KKYU7P33Z3BR9PPFZ5194ZCQMWU","","551.3000000715256","img/animal2.png","76","552.8999999761581","3","1","3","1,0.5,0,0,1,0.5,0.5,0,1",""
"","html-keyboard-response","318","191035","0.0-318.0","3ZOTGHDK5JXWIHT692PDPZRCTPNOSC","A2NXMRPHG86N2T","3A3KKYU7P33Z3BR9PPFZ5194ZCQMWU","","null","<img src=""img/animal2.png"" style=""width:200px; border:14px solid green;"">","null","","","","","",""
"","image-keyboard-response","319","191764","0.0-319.0","3ZOTGHDK5JXWIHT692PDPZRCTPNOSC","A2NXMRPHG86N2T","3A3KKYU7P33Z3BR9PPFZ5194ZCQMWU","","726.8999999761581","img/animal3.png","75","728.2000000476837","2","1","2","1,0.5,0,0,1,0.5,0.5,0,1",""
"","html-keyboard-response","320","192076","0.0-320.0","3ZOTGHDK5JXWIHT692PDPZRCTPNOSC","A2NXMRPHG86N2T","3A3KKYU7P33Z3BR9PPFZ5194ZCQMWU","","null","<img src=""img/animal3.png"" style=""width:200px; border:14px solid green;"">","null","","","","","",""
"","image-keyboard-response","321","193061","0.0-321.0","3ZOTGHDK5JXWIHT692PDPZRCTPNOSC","A2NXMRPHG86N2T","3A3KKYU7P33Z3BR9PPFZ5194ZCQMWU","","982.7999999523163","img/animal1.png","74","984.5","1","1","1","1,0.5,0,0,1,0.5,0.5,0,1",""
"","html-keyboard-response","322","193369","0.0-322.0","3ZOTGHDK5JXWIHT692PDPZRCTPNOSC","A2NXMRPHG86N2T","3A3KKYU7P33Z3BR9PPFZ5194ZCQMWU","","null","<img src=""img/animal1.png"" style=""width:200px; border:14px solid green;"">","null","","","","","",""
"","image-keyboard-response","323","194229","0.0-323.0","3ZOTGHDK5JXWIHT692PDPZRCTPNOSC","A2NXMRPHG86N2T","3A3KKYU7P33Z3BR9PPFZ5194ZCQMWU","","857.5","img/animal2.png","75","859.2000000476837","2","0","3","1,0.5,0,0,1,0.5,0.5,0,1",""
"","html-keyboard-response","324","194532","0.0-324.0","3ZOTGHDK5JXWIHT692PDPZRCTPNOSC","A2NXMRPHG86N2T","3A3KKYU7P33Z3BR9PPFZ5194ZCQMWU","","null","<img src=""img/animal2.png"" style=""width:200px;border:14px solid red;"">","null","","","","","",""
"","image-keyboard-response","325","195573","0.0-325.0","3ZOTGHDK5JXWIHT692PDPZRCTPNOSC","A2NXMRPHG86N2T","3A3KKYU7P33Z3BR9PPFZ5194ZCQMWU","","1038.7999999523163","img/animal2.png","76","1040.5","3","1","3","1,0.5,0,0,1,0.5,0.5,0,1",""
"","html-keyboard-response","326","195875","0.0-326.0","3ZOTGHDK5JXWIHT692PDPZRCTPNOSC","A2NXMRPHG86N2T","3A3KKYU7P33Z3BR9PPFZ5194ZCQMWU","","null","<img src=""img/animal2.png"" style=""width:200px; border:14px solid green;"">","null","","","","","",""
"","image-keyboard-response","327","196940","0.0-327.0","3ZOTGHDK5JXWIHT692PDPZRCTPNOSC","A2NXMRPHG86N2T","3A3KKYU7P33Z3BR9PPFZ5194ZCQMWU","","1063.1000000238419","img/animal1.png","74","1064.8000000715256","1","1","1","1,0.5,0,0,1,0.5,0.5,0,1",""
"","html-keyboard-response","328","197244","0.0-328.0","3ZOTGHDK5JXWIHT692PDPZRCTPNOSC","A2NXMRPHG86N2T","3A3KKYU7P33Z3BR9PPFZ5194ZCQMWU","","null","<img src=""img/animal1.png"" style=""width:200px; border:14px solid green;"">","null","","","","","",""
"","image-keyboard-response","329","198068","0.0-329.0","3ZOTGHDK5JXWIHT692PDPZRCTPNOSC","A2NXMRPHG86N2T","3A3KKYU7P33Z3BR9PPFZ5194ZCQMWU","","823.2000000476837","img/animal2.png","76","824.7000000476837","3","1","3","1,0.5,0,0,1,0.5,0.5,0,1",""
"","html-keyboard-response","330","198372","0.0-330.0","3ZOTGHDK5JXWIHT692PDPZRCTPNOSC","A2NXMRPHG86N2T","3A3KKYU7P33Z3BR9PPFZ5194ZCQMWU","","null","<img src=""img/animal2.png"" style=""width:200px; border:14px solid green;"">","null","","","","","",""
"","image-keyboard-response","331","198925","0.0-331.0","3ZOTGHDK5JXWIHT692PDPZRCTPNOSC","A2NXMRPHG86N2T","3A3KKYU7P33Z3BR9PPFZ5194ZCQMWU","","551.3999999761581","img/animal1.png","74","552.8999999761581","1","1","1","1,0.5,0,0,1,0.5,0.5,0,1",""
"","html-keyboard-response","332","199228","0.0-332.0","3ZOTGHDK5JXWIHT692PDPZRCTPNOSC","A2NXMRPHG86N2T","3A3KKYU7P33Z3BR9PPFZ5194ZCQMWU","","null","<img src=""img/animal1.png"" style=""width:200px; border:14px solid green;"">","null","","","","","",""
"","image-keyboard-response","333","200012","0.0-333.0","3ZOTGHDK5JXWIHT692PDPZRCTPNOSC","A2NXMRPHG86N2T","3A3KKYU7P33Z3BR9PPFZ5194ZCQMWU","","782.5","img/animal3.png","75","784.1000000238419","2","1","2","1,0.5,0,0,1,0.5,0.5,0,1",""
"","html-keyboard-response","334","200316","0.0-334.0","3ZOTGHDK5JXWIHT692PDPZRCTPNOSC","A2NXMRPHG86N2T","3A3KKYU7P33Z3BR9PPFZ5194ZCQMWU","","null","<img src=""img/animal3.png"" style=""width:200px; border:14px solid green;"">","null","","","","","",""
"","image-keyboard-response","335","201229","0.0-335.0","3ZOTGHDK5JXWIHT692PDPZRCTPNOSC","A2NXMRPHG86N2T","3A3KKYU7P33Z3BR9PPFZ5194ZCQMWU","","910.9000000953674","img/animal1.png","74","912.5","1","1","1","1,0.5,0,0,1,0.5,0.5,0,1",""
"","html-keyboard-response","336","201532","0.0-336.0","3ZOTGHDK5JXWIHT692PDPZRCTPNOSC","A2NXMRPHG86N2T","3A3KKYU7P33Z3BR9PPFZ5194ZCQMWU","","null","<img src=""img/animal1.png"" style=""width:200px; border:14px solid green;"">","null","","","","","",""
"","image-keyboard-response","337","202389","0.0-337.0","3ZOTGHDK5JXWIHT692PDPZRCTPNOSC","A2NXMRPHG86N2T","3A3KKYU7P33Z3BR9PPFZ5194ZCQMWU","","855.6000000238419","img/animal3.png","75","857.1000000238419","2","1","2","1,0.5,0,0,1,0.5,0.5,0,1",""
"","html-keyboard-response","338","202691","0.0-338.0","3ZOTGHDK5JXWIHT692PDPZRCTPNOSC","A2NXMRPHG86N2T","3A3KKYU7P33Z3BR9PPFZ5194ZCQMWU","","null","<img src=""img/animal3.png"" style=""width:200px; border:14px solid green;"">","null","","","","","",""
"","image-keyboard-response","339","203293","0.0-339.0","3ZOTGHDK5JXWIHT692PDPZRCTPNOSC","A2NXMRPHG86N2T","3A3KKYU7P33Z3BR9PPFZ5194ZCQMWU","","600.1000000238419","img/animal2.png","76","601.3999999761581","3","1","3","1,0.5,0,0,1,0.5,0.5,0,1",""
"","html-keyboard-response","340","203607","0.0-340.0","3ZOTGHDK5JXWIHT692PDPZRCTPNOSC","A2NXMRPHG86N2T","3A3KKYU7P33Z3BR9PPFZ5194ZCQMWU","","null","<img src=""img/animal2.png"" style=""width:200px; border:14px solid green;"">","null","","","","","",""
"","image-keyboard-response","341","204356","0.0-341.0","3ZOTGHDK5JXWIHT692PDPZRCTPNOSC","A2NXMRPHG86N2T","3A3KKYU7P33Z3BR9PPFZ5194ZCQMWU","","746.8999999761581","img/animal1.png","74","748.2000000476837","1","1","1","1,0.5,0,0,1,0.5,0.5,0,1",""
"","html-keyboard-response","342","204658","0.0-342.0","3ZOTGHDK5JXWIHT692PDPZRCTPNOSC","A2NXMRPHG86N2T","3A3KKYU7P33Z3BR9PPFZ5194ZCQMWU","","null","<img src=""img/animal1.png"" style=""width:200px; border:14px solid green;"">","null","","","","","",""
"","image-keyboard-response","343","205533","0.0-343.0","3ZOTGHDK5JXWIHT692PDPZRCTPNOSC","A2NXMRPHG86N2T","3A3KKYU7P33Z3BR9PPFZ5194ZCQMWU","","873.3999999761581","img/animal3.png","75","874.8999999761581","2","1","2","1,0.5,0,0,1,0.5,0.5,0,1",""
"","html-keyboard-response","344","205835","0.0-344.0","3ZOTGHDK5JXWIHT692PDPZRCTPNOSC","A2NXMRPHG86N2T","3A3KKYU7P33Z3BR9PPFZ5194ZCQMWU","","null","<img src=""img/animal3.png"" style=""width:200px; border:14px solid green;"">","null","","","","","",""
"","image-keyboard-response","345","207493","0.0-345.0","3ZOTGHDK5JXWIHT692PDPZRCTPNOSC","A2NXMRPHG86N2T","3A3KKYU7P33Z3BR9PPFZ5194ZCQMWU","","1655.3999999761581","img/animal2.png","76","1657","3","1","3","1,0.5,0,0,1,0.5,0.5,0,1",""
"","html-keyboard-response","346","207796","0.0-346.0","3ZOTGHDK5JXWIHT692PDPZRCTPNOSC","A2NXMRPHG86N2T","3A3KKYU7P33Z3BR9PPFZ5194ZCQMWU","","null","<img src=""img/animal2.png"" style=""width:200px; border:14px solid green;"">","null","","","","","",""
"","image-keyboard-response","347","208516","0.0-347.0","3ZOTGHDK5JXWIHT692PDPZRCTPNOSC","A2NXMRPHG86N2T","3A3KKYU7P33Z3BR9PPFZ5194ZCQMWU","","719","img/animal1.png","74","720.5","1","1","1","1,0.5,0,0,1,0.5,0.5,0,1",""
"","html-keyboard-response","348","208819","0.0-348.0","3ZOTGHDK5JXWIHT692PDPZRCTPNOSC","A2NXMRPHG86N2T","3A3KKYU7P33Z3BR9PPFZ5194ZCQMWU","","null","<img src=""img/animal1.png"" style=""width:200px; border:14px solid green;"">","null","","","","","",""
"","image-keyboard-response","349","209748","0.0-349.0","3ZOTGHDK5JXWIHT692PDPZRCTPNOSC","A2NXMRPHG86N2T","3A3KKYU7P33Z3BR9PPFZ5194ZCQMWU","","927.6000000238419","img/animal3.png","75","928.8999999761581","2","1","2","1,0.5,0,0,1,0.5,0.5,0,1",""
"","html-keyboard-response","350","210051","0.0-350.0","3ZOTGHDK5JXWIHT692PDPZRCTPNOSC","A2NXMRPHG86N2T","3A3KKYU7P33Z3BR9PPFZ5194ZCQMWU","","null","<img src=""img/animal3.png"" style=""width:200px; border:14px solid green;"">","null","","","","","",""
"","image-keyboard-response","351","210757","0.0-351.0","3ZOTGHDK5JXWIHT692PDPZRCTPNOSC","A2NXMRPHG86N2T","3A3KKYU7P33Z3BR9PPFZ5194ZCQMWU","","703.5999999046326","img/animal1.png","76","705","3","0","1","1,0.5,0,0,1,0.5,0.5,0,1",""
"","html-keyboard-response","352","211060","0.0-352.0","3ZOTGHDK5JXWIHT692PDPZRCTPNOSC","A2NXMRPHG86N2T","3A3KKYU7P33Z3BR9PPFZ5194ZCQMWU","","null","<img src=""img/animal1.png"" style=""width:200px;border:14px solid red;"">","null","","","","","",""
"","image-keyboard-response","353","212924","0.0-353.0","3ZOTGHDK5JXWIHT692PDPZRCTPNOSC","A2NXMRPHG86N2T","3A3KKYU7P33Z3BR9PPFZ5194ZCQMWU","","1863.1000000238419","img/animal2.png","76","1864.6999999284744","3","1","3","1,0.5,0,0,1,0.5,0.5,0,1",""
"","html-keyboard-response","354","213227","0.0-354.0","3ZOTGHDK5JXWIHT692PDPZRCTPNOSC","A2NXMRPHG86N2T","3A3KKYU7P33Z3BR9PPFZ5194ZCQMWU","","null","<img src=""img/animal2.png"" style=""width:200px; border:14px solid green;"">","null","","","","","",""
"","image-keyboard-response","355","213757","0.0-355.0","3ZOTGHDK5JXWIHT692PDPZRCTPNOSC","A2NXMRPHG86N2T","3A3KKYU7P33Z3BR9PPFZ5194ZCQMWU","","527.8000000715256","img/animal2.png","76","529.1000000238419","3","1","3","1,0.5,0,0,1,0.5,0.5,0,1",""
"","html-keyboard-response","356","214060","0.0-356.0","3ZOTGHDK5JXWIHT692PDPZRCTPNOSC","A2NXMRPHG86N2T","3A3KKYU7P33Z3BR9PPFZ5194ZCQMWU","","null","<img src=""img/animal2.png"" style=""width:200px; border:14px solid green;"">","null","","","","","",""
"","image-keyboard-response","357","214580","0.0-357.0","3ZOTGHDK5JXWIHT692PDPZRCTPNOSC","A2NXMRPHG86N2T","3A3KKYU7P33Z3BR9PPFZ5194ZCQMWU","","518.8000000715256","img/animal1.png","74","520.4000000953674","1","1","1","1,0.5,0,0,1,0.5,0.5,0,1",""
"","html-keyboard-response","358","214884","0.0-358.0","3ZOTGHDK5JXWIHT692PDPZRCTPNOSC","A2NXMRPHG86N2T","3A3KKYU7P33Z3BR9PPFZ5194ZCQMWU","","null","<img src=""img/animal1.png"" style=""width:200px; border:14px solid green;"">","null","","","","","",""
"","image-keyboard-response","359","215356","0.0-359.0","3ZOTGHDK5JXWIHT692PDPZRCTPNOSC","A2NXMRPHG86N2T","3A3KKYU7P33Z3BR9PPFZ5194ZCQMWU","","471.2000000476837","img/animal1.png","74","472.60000002384186","1","1","1","1,0.5,0,0,1,0.5,0.5,0,1",""
"","html-keyboard-response","360","215660","0.0-360.0","3ZOTGHDK5JXWIHT692PDPZRCTPNOSC","A2NXMRPHG86N2T","3A3KKYU7P33Z3BR9PPFZ5194ZCQMWU","","null","<img src=""img/animal1.png"" style=""width:200px; border:14px solid green;"">","null","","","","","",""
"","image-keyboard-response","361","216316","0.0-361.0","3ZOTGHDK5JXWIHT692PDPZRCTPNOSC","A2NXMRPHG86N2T","3A3KKYU7P33Z3BR9PPFZ5194ZCQMWU","","654.5","img/animal3.png","75","656","2","1","2","1,0.5,0,0,1,0.5,0.5,0,1",""
"","html-keyboard-response","362","216619","0.0-362.0","3ZOTGHDK5JXWIHT692PDPZRCTPNOSC","A2NXMRPHG86N2T","3A3KKYU7P33Z3BR9PPFZ5194ZCQMWU","","null","<img src=""img/animal3.png"" style=""width:200px; border:14px solid green;"">","null","","","","","",""
"","instructions","363","220103","0.0-363.0","3ZOTGHDK5JXWIHT692PDPZRCTPNOSC","A2NXMRPHG86N2T","3A3KKYU7P33Z3BR9PPFZ5194ZCQMWU","[{""page_index"":0,""viewing_time"":3482.899999976158}]","3483.5","","","","","","","",""
"","survey-text","364","224989","0.0-364.0","3ZOTGHDK5JXWIHT692PDPZRCTPNOSC","A2NXMRPHG86N2T","3A3KKYU7P33Z3BR9PPFZ5194ZCQMWU","","4882.799999952316","","","","","","","","{""Q0"":""A2NXMRPHG86N2T""}"
