"success","trial_type","trial_index","time_elapsed","internal_node_id","assignmentID","mturkID","hitID","view_history","rt","stimulus","key_press","reactionTime","a","r","s","reward_cond","responses"
"true","fullscreen","0","4146","0.0-0.0","3EKVH9QMEZQC9LLJPEWRNN29Q2Z2DD","A2PSR3CMNR1R9X","3QGHA0EA0JM3KKNCY0PQRLYANCJBWP","","","","","","","","","",""
"","instructions","1","19162","0.0-1.0","3EKVH9QMEZQC9LLJPEWRNN29Q2Z2DD","A2PSR3CMNR1R9X","3QGHA0EA0JM3KKNCY0PQRLYANCJBWP","[{""page_index"":0,""viewing_time"":6151.099999964237},{""page_index"":1,""viewing_time"":2917.800000011921},{""page_index"":2,""viewing_time"":419.89999997615814},{""page_index"":3,""viewing_time"":1404.1000000238419},{""page_index"":4,""viewing_time"":1204},{""page_index"":5,""viewing_time"":1696},{""page_index"":6,""viewing_time"":700},{""page_index"":7,""viewing_time"":520}]","15013.299999952316","","","","","","","",""
"","image-keyboard-response","2","21142","0.0-2.0","3EKVH9QMEZQC9LLJPEWRNN29Q2Z2DD","A2PSR3CMNR1R9X","3QGHA0EA0JM3KKNCY0PQRLYANCJBWP","","1979","img/animal2.png","74","1979.699999988079","1","1","1","0.5,0,1,1,0.5,0,0,1,0.5",""
"","html-keyboard-response","3","21450","0.0-3.0","3EKVH9QMEZQC9LLJPEWRNN29Q2Z2DD","A2PSR3CMNR1R9X","3QGHA0EA0JM3KKNCY0PQRLYANCJBWP","","null","<img src=""img/animal2.png"" style=""width:200px; border:14px solid green;"">","null","","","","","",""
"","image-keyboard-response","4","22047","0.0-4.0","3EKVH9QMEZQC9LLJPEWRNN29Q2Z2DD","A2PSR3CMNR1R9X","3QGHA0EA0JM3KKNCY0PQRLYANCJBWP","","594.6999999880791","img/animal2.png","74","596.0999999642372","1","1","1","0.5,0,1,1,0.5,0,0,1,0.5",""
"","html-keyboard-response","5","22362","0.0-5.0","3EKVH9QMEZQC9LLJPEWRNN29Q2Z2DD","A2PSR3CMNR1R9X","3QGHA0EA0JM3KKNCY0PQRLYANCJBWP","","null","<img src=""img/animal2.png"" style=""width:200px; border:14px solid green;"">","null","","","","","",""
"","image-keyboard-response","6","22927","0.0-6.0","3EKVH9QMEZQC9LLJPEWRNN29Q2Z2DD","A2PSR3CMNR1R9X","3QGHA0EA0JM3KKNCY0PQRLYANCJBWP","","562.6000000238419","img/animal6.png","75","563.9000000357628","2","1","2","0.5,0,1,1,0.5,0,0,1,0.5",""
"","html-keyboard-response","7","23234","0.0-7.0","3EKVH9QMEZQC9LLJPEWRNN29Q2Z2DD","A2PSR3CMNR1R9X","3QGHA0EA0JM3KKNCY0PQRLYANCJBWP","","null","<img src=""img/animal6.png"" style=""width:200px; border:14px solid green;"">","null","","","","","",""
"","image-keyboard-response","8","23830","0.0-8.0","3EKVH9QMEZQC9LLJPEWRNN29Q2Z2DD","A2PSR3CMNR1R9X","3QGHA0EA0JM3KKNCY0PQRLYANCJBWP","","594.8000000119209","img/animal4.png","75","596","2","1","3","0.5,0,1,1,0.5,0,0,1,0.5",""
"","html-keyboard-response","9","24135","0.0-9.0","3EKVH9QMEZQC9LLJPEWRNN29Q2Z2DD","A2PSR3CMNR1R9X","3QGHA0EA0JM3KKNCY0PQRLYANCJBWP","","null","<img src=""img/animal4.png"" style=""width:200px; border:14px solid green;"">","null","","","","","",""
"","image-keyboard-response","10","24751","0.0-10.0","3EKVH9QMEZQC9LLJPEWRNN29Q2Z2DD","A2PSR3CMNR1R9X","3QGHA0EA0JM3KKNCY0PQRLYANCJBWP","","614.5","img/animal6.png","75","615.6999999880791","2","1","2","0.5,0,1,1,0.5,0,0,1,0.5",""
"","html-keyboard-response","11","25063","0.0-11.0","3EKVH9QMEZQC9LLJPEWRNN29Q2Z2DD","A2PSR3CMNR1R9X","3QGHA0EA0JM3KKNCY0PQRLYANCJBWP","","null","<img src=""img/animal6.png"" style=""width:200px; border:14px solid green;"">","null","","","","","",""
"","image-keyboard-response","12","25639","0.0-12.0","3EKVH9QMEZQC9LLJPEWRNN29Q2Z2DD","A2PSR3CMNR1R9X","3QGHA0EA0JM3KKNCY0PQRLYANCJBWP","","573.9000000357628","img/animal2.png","74","575","1","1","1","0.5,0,1,1,0.5,0,0,1,0.5",""
"","html-keyboard-response","13","25944","0.0-13.0","3EKVH9QMEZQC9LLJPEWRNN29Q2Z2DD","A2PSR3CMNR1R9X","3QGHA0EA0JM3KKNCY0PQRLYANCJBWP","","null","<img src=""img/animal2.png"" style=""width:200px; border:14px solid green;"">","null","","","","","",""
"","image-keyboard-response","14","26359","0.0-14.0","3EKVH9QMEZQC9LLJPEWRNN29Q2Z2DD","A2PSR3CMNR1R9X","3QGHA0EA0JM3KKNCY0PQRLYANCJBWP","","412.80000001192093","img/animal2.png","74","413.89999997615814","1","1","1","0.5,0,1,1,0.5,0,0,1,0.5",""
"","html-keyboard-response","15","26673","0.0-15.0","3EKVH9QMEZQC9LLJPEWRNN29Q2Z2DD","A2PSR3CMNR1R9X","3QGHA0EA0JM3KKNCY0PQRLYANCJBWP","","null","<img src=""img/animal2.png"" style=""width:200px; border:14px solid green;"">","null","","","","","",""
"","image-keyboard-response","16","26983","0.0-16.0","3EKVH9QMEZQC9LLJPEWRNN29Q2Z2DD","A2PSR3CMNR1R9X","3QGHA0EA0JM3KKNCY0PQRLYANCJBWP","","308.39999997615814","img/animal2.png","74","309.0999999642372","1","0","1","0.5,0,1,1,0.5,0,0,1,0.5",""
"","html-keyboard-response","17","27297","0.0-17.0","3EKVH9QMEZQC9LLJPEWRNN29Q2Z2DD","A2PSR3CMNR1R9X","3QGHA0EA0JM3KKNCY0PQRLYANCJBWP","","null","<img src=""img/animal2.png"" style=""width:200px;border:14px solid red;"">","null","","","","","",""
"","image-keyboard-response","18","28487","0.0-18.0","3EKVH9QMEZQC9LLJPEWRNN29Q2Z2DD","A2PSR3CMNR1R9X","3QGHA0EA0JM3KKNCY0PQRLYANCJBWP","","1188.2000000476837","img/animal4.png","75","1189.6000000238419","2","1","3","0.5,0,1,1,0.5,0,0,1,0.5",""
"","html-keyboard-response","19","28798","0.0-19.0","3EKVH9QMEZQC9LLJPEWRNN29Q2Z2DD","A2PSR3CMNR1R9X","3QGHA0EA0JM3KKNCY0PQRLYANCJBWP","","null","<img src=""img/animal4.png"" style=""width:200px; border:14px solid green;"">","null","","","","","",""
"","image-keyboard-response","20","29158","0.0-20.0","3EKVH9QMEZQC9LLJPEWRNN29Q2Z2DD","A2PSR3CMNR1R9X","3QGHA0EA0JM3KKNCY0PQRLYANCJBWP","","358.5999999642372","img/animal2.png","75","359.2000000476837","2","0","1","0.5,0,1,1,0.5,0,0,1,0.5",""
"","html-keyboard-response","21","29467","0.0-21.0","3EKVH9QMEZQC9LLJPEWRNN29Q2Z2DD","A2PSR3CMNR1R9X","3QGHA0EA0JM3KKNCY0PQRLYANCJBWP","","null","<img src=""img/animal2.png"" style=""width:200px;border:14px solid red;"">","null","","","","","",""
"","image-keyboard-response","22","29855","0.0-22.0","3EKVH9QMEZQC9LLJPEWRNN29Q2Z2DD","A2PSR3CMNR1R9X","3QGHA0EA0JM3KKNCY0PQRLYANCJBWP","","386.5","img/animal2.png","74","387.5","1","0","1","0.5,0,1,1,0.5,0,0,1,0.5",""
"","html-keyboard-response","23","30157","0.0-23.0","3EKVH9QMEZQC9LLJPEWRNN29Q2Z2DD","A2PSR3CMNR1R9X","3QGHA0EA0JM3KKNCY0PQRLYANCJBWP","","null","<img src=""img/animal2.png"" style=""width:200px;border:14px solid red;"">","null","","","","","",""
"","image-keyboard-response","24","30727","0.0-24.0","3EKVH9QMEZQC9LLJPEWRNN29Q2Z2DD","A2PSR3CMNR1R9X","3QGHA0EA0JM3KKNCY0PQRLYANCJBWP","","567.8000000119209","img/animal4.png","75","568.8999999761581","2","1","3","0.5,0,1,1,0.5,0,0,1,0.5",""
"","html-keyboard-response","25","31029","0.0-25.0","3EKVH9QMEZQC9LLJPEWRNN29Q2Z2DD","A2PSR3CMNR1R9X","3QGHA0EA0JM3KKNCY0PQRLYANCJBWP","","null","<img src=""img/animal4.png"" style=""width:200px; border:14px solid green;"">","null","","","","","",""
"","image-keyboard-response","26","31591","0.0-26.0","3EKVH9QMEZQC9LLJPEWRNN29Q2Z2DD","A2PSR3CMNR1R9X","3QGHA0EA0JM3KKNCY0PQRLYANCJBWP","","560.3000000119209","img/animal6.png","75","561.3999999761581","2","1","2","0.5,0,1,1,0.5,0,0,1,0.5",""
"","html-keyboard-response","27","31894","0.0-27.0","3EKVH9QMEZQC9LLJPEWRNN29Q2Z2DD","A2PSR3CMNR1R9X","3QGHA0EA0JM3KKNCY0PQRLYANCJBWP","","null","<img src=""img/animal6.png"" style=""width:200px; border:14px solid green;"">","null","","","","","",""
"","image-keyboard-response","28","32247","0.0-28.0","3EKVH9QMEZQC9LLJPEWRNN29Q2Z2DD","A2PSR3CMNR1R9X","3QGHA0EA0JM3KKNCY0PQRLYANCJBWP","","351.69999998807907","img/animal6.png","75","352.89999997615814","2","0","2","0.5,0,1,1,0.5,0,0,1,0.5",""
"","html-keyboard-response","29","32548","0.0-29.0","3EKVH9QMEZQC9LLJPEWRNN29Q2Z2DD","A2PSR3CMNR1R9X","3QGHA0EA0JM3KKNCY0PQRLYANCJBWP","","null","<img src=""img/animal6.png"" style=""width:200px;border:14px solid red;"">","null","","","","","",""
"","image-keyboard-response","30","32863","0.0-30.0","3EKVH9QMEZQC9LLJPEWRNN29Q2Z2DD","A2PSR3CMNR1R9X","3QGHA0EA0JM3KKNCY0PQRLYANCJBWP","","312.60000002384186","img/animal6.png","75","313.89999997615814","2","0","2","0.5,0,1,1,0.5,0,0,1,0.5",""
"","html-keyboard-response","31","33164","0.0-31.0","3EKVH9QMEZQC9LLJPEWRNN29Q2Z2DD","A2PSR3CMNR1R9X","3QGHA0EA0JM3KKNCY0PQRLYANCJBWP","","null","<img src=""img/animal6.png"" style=""width:200px;border:14px solid red;"">","null","","","","","",""
"","image-keyboard-response","32","33671","0.0-32.0","3EKVH9QMEZQC9LLJPEWRNN29Q2Z2DD","A2PSR3CMNR1R9X","3QGHA0EA0JM3KKNCY0PQRLYANCJBWP","","504.7000000476837","img/animal2.png","74","505.89999997615814","1","0","1","0.5,0,1,1,0.5,0,0,1,0.5",""
"","html-keyboard-response","33","33973","0.0-33.0","3EKVH9QMEZQC9LLJPEWRNN29Q2Z2DD","A2PSR3CMNR1R9X","3QGHA0EA0JM3KKNCY0PQRLYANCJBWP","","null","<img src=""img/animal2.png"" style=""width:200px;border:14px solid red;"">","null","","","","","",""
"","image-keyboard-response","34","34503","0.0-34.0","3EKVH9QMEZQC9LLJPEWRNN29Q2Z2DD","A2PSR3CMNR1R9X","3QGHA0EA0JM3KKNCY0PQRLYANCJBWP","","528.6999999880791","img/animal4.png","75","529.4000000357628","2","1","3","0.5,0,1,1,0.5,0,0,1,0.5",""
"","html-keyboard-response","35","34805","0.0-35.0","3EKVH9QMEZQC9LLJPEWRNN29Q2Z2DD","A2PSR3CMNR1R9X","3QGHA0EA0JM3KKNCY0PQRLYANCJBWP","","null","<img src=""img/animal4.png"" style=""width:200px; border:14px solid green;"">","null","","","","","",""
"","image-keyboard-response","36","35231","0.0-36.0","3EKVH9QMEZQC9LLJPEWRNN29Q2Z2DD","A2PSR3CMNR1R9X","3QGHA0EA0JM3KKNCY0PQRLYANCJBWP","","424.89999997615814","img/animal6.png","75","425.39999997615814","2","0","2","0.5,0,1,1,0.5,0,0,1,0.5",""
"","html-keyboard-response","37","35533","0.0-37.0","3EKVH9QMEZQC9LLJPEWRNN29Q2Z2DD","A2PSR3CMNR1R9X","3QGHA0EA0JM3KKNCY0PQRLYANCJBWP","","null","<img src=""img/animal6.png"" style=""width:200px;border:14px solid red;"">","null","","","","","",""
"","image-keyboard-response","38","35871","0.0-38.0","3EKVH9QMEZQC9LLJPEWRNN29Q2Z2DD","A2PSR3CMNR1R9X","3QGHA0EA0JM3KKNCY0PQRLYANCJBWP","","335.80000001192093","img/animal6.png","75","337","2","0","2","0.5,0,1,1,0.5,0,0,1,0.5",""
"","html-keyboard-response","39","36174","0.0-39.0","3EKVH9QMEZQC9LLJPEWRNN29Q2Z2DD","A2PSR3CMNR1R9X","3QGHA0EA0JM3KKNCY0PQRLYANCJBWP","","null","<img src=""img/animal6.png"" style=""width:200px;border:14px solid red;"">","null","","","","","",""
"","image-keyboard-response","40","36535","0.0-40.0","3EKVH9QMEZQC9LLJPEWRNN29Q2Z2DD","A2PSR3CMNR1R9X","3QGHA0EA0JM3KKNCY0PQRLYANCJBWP","","359.69999998807907","img/animal4.png","74","360.9000000357628","1","0","3","0.5,0,1,1,0.5,0,0,1,0.5",""
"","html-keyboard-response","41","36836","0.0-41.0","3EKVH9QMEZQC9LLJPEWRNN29Q2Z2DD","A2PSR3CMNR1R9X","3QGHA0EA0JM3KKNCY0PQRLYANCJBWP","","null","<img src=""img/animal4.png"" style=""width:200px;border:14px solid red;"">","null","","","","","",""
"","image-keyboard-response","42","37166","0.0-42.0","3EKVH9QMEZQC9LLJPEWRNN29Q2Z2DD","A2PSR3CMNR1R9X","3QGHA0EA0JM3KKNCY0PQRLYANCJBWP","","328.30000001192093","img/animal2.png","75","329.39999997615814","2","0","1","0.5,0,1,1,0.5,0,0,1,0.5",""
"","html-keyboard-response","43","37467","0.0-43.0","3EKVH9QMEZQC9LLJPEWRNN29Q2Z2DD","A2PSR3CMNR1R9X","3QGHA0EA0JM3KKNCY0PQRLYANCJBWP","","null","<img src=""img/animal2.png"" style=""width:200px;border:14px solid red;"">","null","","","","","",""
"","image-keyboard-response","44","38167","0.0-44.0","3EKVH9QMEZQC9LLJPEWRNN29Q2Z2DD","A2PSR3CMNR1R9X","3QGHA0EA0JM3KKNCY0PQRLYANCJBWP","","697.6999999880791","img/animal6.png","75","698.8999999761581","2","1","2","0.5,0,1,1,0.5,0,0,1,0.5",""
"","html-keyboard-response","45","38468","0.0-45.0","3EKVH9QMEZQC9LLJPEWRNN29Q2Z2DD","A2PSR3CMNR1R9X","3QGHA0EA0JM3KKNCY0PQRLYANCJBWP","","null","<img src=""img/animal6.png"" style=""width:200px; border:14px solid green;"">","null","","","","","",""
"","image-keyboard-response","46","38766","0.0-46.0","3EKVH9QMEZQC9LLJPEWRNN29Q2Z2DD","A2PSR3CMNR1R9X","3QGHA0EA0JM3KKNCY0PQRLYANCJBWP","","296.89999997615814","img/animal6.png","75","297.5","2","0","2","0.5,0,1,1,0.5,0,0,1,0.5",""
"","html-keyboard-response","47","39067","0.0-47.0","3EKVH9QMEZQC9LLJPEWRNN29Q2Z2DD","A2PSR3CMNR1R9X","3QGHA0EA0JM3KKNCY0PQRLYANCJBWP","","null","<img src=""img/animal6.png"" style=""width:200px;border:14px solid red;"">","null","","","","","",""
"","image-keyboard-response","48","39543","0.0-48.0","3EKVH9QMEZQC9LLJPEWRNN29Q2Z2DD","A2PSR3CMNR1R9X","3QGHA0EA0JM3KKNCY0PQRLYANCJBWP","","474.2000000476837","img/animal2.png","74","475.39999997615814","1","0","1","0.5,0,1,1,0.5,0,0,1,0.5",""
"","html-keyboard-response","49","39845","0.0-49.0","3EKVH9QMEZQC9LLJPEWRNN29Q2Z2DD","A2PSR3CMNR1R9X","3QGHA0EA0JM3KKNCY0PQRLYANCJBWP","","null","<img src=""img/animal2.png"" style=""width:200px;border:14px solid red;"">","null","","","","","",""
"","image-keyboard-response","50","40135","0.0-50.0","3EKVH9QMEZQC9LLJPEWRNN29Q2Z2DD","A2PSR3CMNR1R9X","3QGHA0EA0JM3KKNCY0PQRLYANCJBWP","","288","img/animal4.png","74","289.10000002384186","1","0","3","0.5,0,1,1,0.5,0,0,1,0.5",""
"","html-keyboard-response","51","40436","0.0-51.0","3EKVH9QMEZQC9LLJPEWRNN29Q2Z2DD","A2PSR3CMNR1R9X","3QGHA0EA0JM3KKNCY0PQRLYANCJBWP","","null","<img src=""img/animal4.png"" style=""width:200px;border:14px solid red;"">","null","","","","","",""
"","image-keyboard-response","52","40902","0.0-52.0","3EKVH9QMEZQC9LLJPEWRNN29Q2Z2DD","A2PSR3CMNR1R9X","3QGHA0EA0JM3KKNCY0PQRLYANCJBWP","","464","img/animal6.png","75","464.89999997615814","2","0","2","0.5,0,1,1,0.5,0,0,1,0.5",""
"","html-keyboard-response","53","41202","0.0-53.0","3EKVH9QMEZQC9LLJPEWRNN29Q2Z2DD","A2PSR3CMNR1R9X","3QGHA0EA0JM3KKNCY0PQRLYANCJBWP","","null","<img src=""img/animal6.png"" style=""width:200px;border:14px solid red;"">","null","","","","","",""
"","image-keyboard-response","54","41758","0.0-54.0","3EKVH9QMEZQC9LLJPEWRNN29Q2Z2DD","A2PSR3CMNR1R9X","3QGHA0EA0JM3KKNCY0PQRLYANCJBWP","","554.5","img/animal2.png","74","555.5","1","0","1","0.5,0,1,1,0.5,0,0,1,0.5",""
"","html-keyboard-response","55","42059","0.0-55.0","3EKVH9QMEZQC9LLJPEWRNN29Q2Z2DD","A2PSR3CMNR1R9X","3QGHA0EA0JM3KKNCY0PQRLYANCJBWP","","null","<img src=""img/animal2.png"" style=""width:200px;border:14px solid red;"">","null","","","","","",""
"","image-keyboard-response","56","42687","0.0-56.0","3EKVH9QMEZQC9LLJPEWRNN29Q2Z2DD","A2PSR3CMNR1R9X","3QGHA0EA0JM3KKNCY0PQRLYANCJBWP","","625.8000000119209","img/animal2.png","76","626.8999999761581","3","1","1","0.5,0,1,1,0.5,0,0,1,0.5",""
"","html-keyboard-response","57","42989","0.0-57.0","3EKVH9QMEZQC9LLJPEWRNN29Q2Z2DD","A2PSR3CMNR1R9X","3QGHA0EA0JM3KKNCY0PQRLYANCJBWP","","null","<img src=""img/animal2.png"" style=""width:200px; border:14px solid green;"">","null","","","","","",""
"","image-keyboard-response","58","43599","0.0-58.0","3EKVH9QMEZQC9LLJPEWRNN29Q2Z2DD","A2PSR3CMNR1R9X","3QGHA0EA0JM3KKNCY0PQRLYANCJBWP","","607.7000000476837","img/animal6.png","75","608.8999999761581","2","1","2","0.5,0,1,1,0.5,0,0,1,0.5",""
"","html-keyboard-response","59","43900","0.0-59.0","3EKVH9QMEZQC9LLJPEWRNN29Q2Z2DD","A2PSR3CMNR1R9X","3QGHA0EA0JM3KKNCY0PQRLYANCJBWP","","null","<img src=""img/animal6.png"" style=""width:200px; border:14px solid green;"">","null","","","","","",""
"","image-keyboard-response","60","44647","0.0-60.0","3EKVH9QMEZQC9LLJPEWRNN29Q2Z2DD","A2PSR3CMNR1R9X","3QGHA0EA0JM3KKNCY0PQRLYANCJBWP","","744.9000000357628","img/animal4.png","75","746","2","1","3","0.5,0,1,1,0.5,0,0,1,0.5",""
"","html-keyboard-response","61","44949","0.0-61.0","3EKVH9QMEZQC9LLJPEWRNN29Q2Z2DD","A2PSR3CMNR1R9X","3QGHA0EA0JM3KKNCY0PQRLYANCJBWP","","null","<img src=""img/animal4.png"" style=""width:200px; border:14px solid green;"">","null","","","","","",""
"","image-keyboard-response","62","45319","0.0-62.0","3EKVH9QMEZQC9LLJPEWRNN29Q2Z2DD","A2PSR3CMNR1R9X","3QGHA0EA0JM3KKNCY0PQRLYANCJBWP","","368.30000001192093","img/animal4.png","75","369.69999998807907","2","1","3","0.5,0,1,1,0.5,0,0,1,0.5",""
"","html-keyboard-response","63","45621","0.0-63.0","3EKVH9QMEZQC9LLJPEWRNN29Q2Z2DD","A2PSR3CMNR1R9X","3QGHA0EA0JM3KKNCY0PQRLYANCJBWP","","null","<img src=""img/animal4.png"" style=""width:200px; border:14px solid green;"">","null","","","","","",""
"","image-keyboard-response","64","45935","0.0-64.0","3EKVH9QMEZQC9LLJPEWRNN29Q2Z2DD","A2PSR3CMNR1R9X","3QGHA0EA0JM3KKNCY0PQRLYANCJBWP","","312.30000001192093","img/animal4.png","75","313.60000002384186","2","1","3","0.5,0,1,1,0.5,0,0,1,0.5",""
"","html-keyboard-response","65","46238","0.0-65.0","3EKVH9QMEZQC9LLJPEWRNN29Q2Z2DD","A2PSR3CMNR1R9X","3QGHA0EA0JM3KKNCY0PQRLYANCJBWP","","null","<img src=""img/animal4.png"" style=""width:200px; border:14px solid green;"">","null","","","","","",""
"","image-keyboard-response","66","46543","0.0-66.0","3EKVH9QMEZQC9LLJPEWRNN29Q2Z2DD","A2PSR3CMNR1R9X","3QGHA0EA0JM3KKNCY0PQRLYANCJBWP","","303.5","img/animal4.png","75","304.5","2","1","3","0.5,0,1,1,0.5,0,0,1,0.5",""
"","html-keyboard-response","67","46844","0.0-67.0","3EKVH9QMEZQC9LLJPEWRNN29Q2Z2DD","A2PSR3CMNR1R9X","3QGHA0EA0JM3KKNCY0PQRLYANCJBWP","","null","<img src=""img/animal4.png"" style=""width:200px; border:14px solid green;"">","null","","","","","",""
"","image-keyboard-response","68","47367","0.0-68.0","3EKVH9QMEZQC9LLJPEWRNN29Q2Z2DD","A2PSR3CMNR1R9X","3QGHA0EA0JM3KKNCY0PQRLYANCJBWP","","520.8999999761581","img/animal6.png","76","522","3","0","2","0.5,0,1,1,0.5,0,0,1,0.5",""
"","html-keyboard-response","69","47668","0.0-69.0","3EKVH9QMEZQC9LLJPEWRNN29Q2Z2DD","A2PSR3CMNR1R9X","3QGHA0EA0JM3KKNCY0PQRLYANCJBWP","","null","<img src=""img/animal6.png"" style=""width:200px;border:14px solid red;"">","null","","","","","",""
"","image-keyboard-response","70","48215","0.0-70.0","3EKVH9QMEZQC9LLJPEWRNN29Q2Z2DD","A2PSR3CMNR1R9X","3QGHA0EA0JM3KKNCY0PQRLYANCJBWP","","544.8000000119209","img/animal2.png","76","546","3","1","1","0.5,0,1,1,0.5,0,0,1,0.5",""
"","html-keyboard-response","71","48516","0.0-71.0","3EKVH9QMEZQC9LLJPEWRNN29Q2Z2DD","A2PSR3CMNR1R9X","3QGHA0EA0JM3KKNCY0PQRLYANCJBWP","","null","<img src=""img/animal2.png"" style=""width:200px; border:14px solid green;"">","null","","","","","",""
"","image-keyboard-response","72","48943","0.0-72.0","3EKVH9QMEZQC9LLJPEWRNN29Q2Z2DD","A2PSR3CMNR1R9X","3QGHA0EA0JM3KKNCY0PQRLYANCJBWP","","425.60000002384186","img/animal4.png","75","426.19999998807907","2","1","3","0.5,0,1,1,0.5,0,0,1,0.5",""
"","html-keyboard-response","73","49245","0.0-73.0","3EKVH9QMEZQC9LLJPEWRNN29Q2Z2DD","A2PSR3CMNR1R9X","3QGHA0EA0JM3KKNCY0PQRLYANCJBWP","","null","<img src=""img/animal4.png"" style=""width:200px; border:14px solid green;"">","null","","","","","",""
"","image-keyboard-response","74","49686","0.0-74.0","3EKVH9QMEZQC9LLJPEWRNN29Q2Z2DD","A2PSR3CMNR1R9X","3QGHA0EA0JM3KKNCY0PQRLYANCJBWP","","440.30000001192093","img/animal2.png","75","441.39999997615814","2","0","1","0.5,0,1,1,0.5,0,0,1,0.5",""
"","html-keyboard-response","75","49988","0.0-75.0","3EKVH9QMEZQC9LLJPEWRNN29Q2Z2DD","A2PSR3CMNR1R9X","3QGHA0EA0JM3KKNCY0PQRLYANCJBWP","","null","<img src=""img/animal2.png"" style=""width:200px;border:14px solid red;"">","null","","","","","",""
"","image-keyboard-response","76","50446","0.0-76.0","3EKVH9QMEZQC9LLJPEWRNN29Q2Z2DD","A2PSR3CMNR1R9X","3QGHA0EA0JM3KKNCY0PQRLYANCJBWP","","456.5","img/animal4.png","75","457.60000002384186","2","1","3","0.5,0,1,1,0.5,0,0,1,0.5",""
"","html-keyboard-response","77","50748","0.0-77.0","3EKVH9QMEZQC9LLJPEWRNN29Q2Z2DD","A2PSR3CMNR1R9X","3QGHA0EA0JM3KKNCY0PQRLYANCJBWP","","null","<img src=""img/animal4.png"" style=""width:200px; border:14px solid green;"">","null","","","","","",""
"","image-keyboard-response","78","51078","0.0-78.0","3EKVH9QMEZQC9LLJPEWRNN29Q2Z2DD","A2PSR3CMNR1R9X","3QGHA0EA0JM3KKNCY0PQRLYANCJBWP","","329.5","img/animal4.png","75","330","2","1","3","0.5,0,1,1,0.5,0,0,1,0.5",""
"","html-keyboard-response","79","51381","0.0-79.0","3EKVH9QMEZQC9LLJPEWRNN29Q2Z2DD","A2PSR3CMNR1R9X","3QGHA0EA0JM3KKNCY0PQRLYANCJBWP","","null","<img src=""img/animal4.png"" style=""width:200px; border:14px solid green;"">","null","","","","","",""
"","image-keyboard-response","80","51694","0.0-80.0","3EKVH9QMEZQC9LLJPEWRNN29Q2Z2DD","A2PSR3CMNR1R9X","3QGHA0EA0JM3KKNCY0PQRLYANCJBWP","","312.80000001192093","img/animal4.png","75","313.30000001192093","2","1","3","0.5,0,1,1,0.5,0,0,1,0.5",""
"","html-keyboard-response","81","51996","0.0-81.0","3EKVH9QMEZQC9LLJPEWRNN29Q2Z2DD","A2PSR3CMNR1R9X","3QGHA0EA0JM3KKNCY0PQRLYANCJBWP","","null","<img src=""img/animal4.png"" style=""width:200px; border:14px solid green;"">","null","","","","","",""
"","image-keyboard-response","82","52679","0.0-82.0","3EKVH9QMEZQC9LLJPEWRNN29Q2Z2DD","A2PSR3CMNR1R9X","3QGHA0EA0JM3KKNCY0PQRLYANCJBWP","","680.8999999761581","img/animal6.png","76","682","3","0","2","0.5,0,1,1,0.5,0,0,1,0.5",""
"","html-keyboard-response","83","52981","0.0-83.0","3EKVH9QMEZQC9LLJPEWRNN29Q2Z2DD","A2PSR3CMNR1R9X","3QGHA0EA0JM3KKNCY0PQRLYANCJBWP","","null","<img src=""img/animal6.png"" style=""width:200px;border:14px solid red;"">","null","","","","","",""
"","image-keyboard-response","84","53759","0.0-84.0","3EKVH9QMEZQC9LLJPEWRNN29Q2Z2DD","A2PSR3CMNR1R9X","3QGHA0EA0JM3KKNCY0PQRLYANCJBWP","","776.1999999880791","img/animal2.png","76","777.2000000476837","3","1","1","0.5,0,1,1,0.5,0,0,1,0.5",""
"","html-keyboard-response","85","54060","0.0-85.0","3EKVH9QMEZQC9LLJPEWRNN29Q2Z2DD","A2PSR3CMNR1R9X","3QGHA0EA0JM3KKNCY0PQRLYANCJBWP","","null","<img src=""img/animal2.png"" style=""width:200px; border:14px solid green;"">","null","","","","","",""
"","image-keyboard-response","86","54574","0.0-86.0","3EKVH9QMEZQC9LLJPEWRNN29Q2Z2DD","A2PSR3CMNR1R9X","3QGHA0EA0JM3KKNCY0PQRLYANCJBWP","","512.8000000119209","img/animal2.png","76","513.8000000119209","3","1","1","0.5,0,1,1,0.5,0,0,1,0.5",""
"","html-keyboard-response","87","54877","0.0-87.0","3EKVH9QMEZQC9LLJPEWRNN29Q2Z2DD","A2PSR3CMNR1R9X","3QGHA0EA0JM3KKNCY0PQRLYANCJBWP","","null","<img src=""img/animal2.png"" style=""width:200px; border:14px solid green;"">","null","","","","","",""
"","image-keyboard-response","88","55694","0.0-88.0","3EKVH9QMEZQC9LLJPEWRNN29Q2Z2DD","A2PSR3CMNR1R9X","3QGHA0EA0JM3KKNCY0PQRLYANCJBWP","","816.2000000476837","img/animal4.png","74","817.2999999523163","1","0","3","0.5,0,1,1,0.5,0,0,1,0.5",""
"","html-keyboard-response","89","55997","0.0-89.0","3EKVH9QMEZQC9LLJPEWRNN29Q2Z2DD","A2PSR3CMNR1R9X","3QGHA0EA0JM3KKNCY0PQRLYANCJBWP","","null","<img src=""img/animal4.png"" style=""width:200px;border:14px solid red;"">","null","","","","","",""
"","image-keyboard-response","90","56678","0.0-90.0","3EKVH9QMEZQC9LLJPEWRNN29Q2Z2DD","A2PSR3CMNR1R9X","3QGHA0EA0JM3KKNCY0PQRLYANCJBWP","","680.0999999642372","img/animal2.png","76","681.0999999642372","3","1","1","0.5,0,1,1,0.5,0,0,1,0.5",""
"","html-keyboard-response","91","56981","0.0-91.0","3EKVH9QMEZQC9LLJPEWRNN29Q2Z2DD","A2PSR3CMNR1R9X","3QGHA0EA0JM3KKNCY0PQRLYANCJBWP","","null","<img src=""img/animal2.png"" style=""width:200px; border:14px solid green;"">","null","","","","","",""
"","image-keyboard-response","92","57805","0.0-92.0","3EKVH9QMEZQC9LLJPEWRNN29Q2Z2DD","A2PSR3CMNR1R9X","3QGHA0EA0JM3KKNCY0PQRLYANCJBWP","","823.4000000357628","img/animal4.png","75","824.3999999761581","2","1","3","0.5,0,1,1,0.5,0,0,1,0.5",""
"","html-keyboard-response","93","58106","0.0-93.0","3EKVH9QMEZQC9LLJPEWRNN29Q2Z2DD","A2PSR3CMNR1R9X","3QGHA0EA0JM3KKNCY0PQRLYANCJBWP","","null","<img src=""img/animal4.png"" style=""width:200px; border:14px solid green;"">","null","","","","","",""
"","image-keyboard-response","94","58758","0.0-94.0","3EKVH9QMEZQC9LLJPEWRNN29Q2Z2DD","A2PSR3CMNR1R9X","3QGHA0EA0JM3KKNCY0PQRLYANCJBWP","","650.5999999642372","img/animal2.png","76","651.5","3","1","1","0.5,0,1,1,0.5,0,0,1,0.5",""
"","html-keyboard-response","95","59059","0.0-95.0","3EKVH9QMEZQC9LLJPEWRNN29Q2Z2DD","A2PSR3CMNR1R9X","3QGHA0EA0JM3KKNCY0PQRLYANCJBWP","","null","<img src=""img/animal2.png"" style=""width:200px; border:14px solid green;"">","null","","","","","",""
"","image-keyboard-response","96","59462","0.0-96.0","3EKVH9QMEZQC9LLJPEWRNN29Q2Z2DD","A2PSR3CMNR1R9X","3QGHA0EA0JM3KKNCY0PQRLYANCJBWP","","401.89999997615814","img/animal2.png","76","403","3","1","1","0.5,0,1,1,0.5,0,0,1,0.5",""
"","html-keyboard-response","97","59765","0.0-97.0","3EKVH9QMEZQC9LLJPEWRNN29Q2Z2DD","A2PSR3CMNR1R9X","3QGHA0EA0JM3KKNCY0PQRLYANCJBWP","","null","<img src=""img/animal2.png"" style=""width:200px; border:14px solid green;"">","null","","","","","",""
"","image-keyboard-response","98","60078","0.0-98.0","3EKVH9QMEZQC9LLJPEWRNN29Q2Z2DD","A2PSR3CMNR1R9X","3QGHA0EA0JM3KKNCY0PQRLYANCJBWP","","312","img/animal2.png","76","313.19999998807907","3","1","1","0.5,0,1,1,0.5,0,0,1,0.5",""
"","html-keyboard-response","99","60380","0.0-99.0","3EKVH9QMEZQC9LLJPEWRNN29Q2Z2DD","A2PSR3CMNR1R9X","3QGHA0EA0JM3KKNCY0PQRLYANCJBWP","","null","<img src=""img/animal2.png"" style=""width:200px; border:14px solid green;"">","null","","","","","",""
"","image-keyboard-response","100","60854","0.0-100.0","3EKVH9QMEZQC9LLJPEWRNN29Q2Z2DD","A2PSR3CMNR1R9X","3QGHA0EA0JM3KKNCY0PQRLYANCJBWP","","473.80000001192093","img/animal4.png","75","474.39999997615814","2","1","3","0.5,0,1,1,0.5,0,0,1,0.5",""
"","html-keyboard-response","101","61157","0.0-101.0","3EKVH9QMEZQC9LLJPEWRNN29Q2Z2DD","A2PSR3CMNR1R9X","3QGHA0EA0JM3KKNCY0PQRLYANCJBWP","","null","<img src=""img/animal4.png"" style=""width:200px; border:14px solid green;"">","null","","","","","",""
"","image-keyboard-response","102","61902","0.0-102.0","3EKVH9QMEZQC9LLJPEWRNN29Q2Z2DD","A2PSR3CMNR1R9X","3QGHA0EA0JM3KKNCY0PQRLYANCJBWP","","744.5","img/animal6.png","76","745.5","3","0","2","0.5,0,1,1,0.5,0,0,1,0.5",""
"","html-keyboard-response","103","62204","0.0-103.0","3EKVH9QMEZQC9LLJPEWRNN29Q2Z2DD","A2PSR3CMNR1R9X","3QGHA0EA0JM3KKNCY0PQRLYANCJBWP","","null","<img src=""img/animal6.png"" style=""width:200px;border:14px solid red;"">","null","","","","","",""
"","image-keyboard-response","104","62887","0.0-104.0","3EKVH9QMEZQC9LLJPEWRNN29Q2Z2DD","A2PSR3CMNR1R9X","3QGHA0EA0JM3KKNCY0PQRLYANCJBWP","","681.1999999880791","img/animal4.png","75","682.3000000119209","2","1","3","0.5,0,1,1,0.5,0,0,1,0.5",""
"","html-keyboard-response","105","63188","0.0-105.0","3EKVH9QMEZQC9LLJPEWRNN29Q2Z2DD","A2PSR3CMNR1R9X","3QGHA0EA0JM3KKNCY0PQRLYANCJBWP","","null","<img src=""img/animal4.png"" style=""width:200px; border:14px solid green;"">","null","","","","","",""
"","image-keyboard-response","106","63958","0.0-106.0","3EKVH9QMEZQC9LLJPEWRNN29Q2Z2DD","A2PSR3CMNR1R9X","3QGHA0EA0JM3KKNCY0PQRLYANCJBWP","","769.5999999642372","img/animal6.png","74","770.1999999880791","1","1","2","0.5,0,1,1,0.5,0,0,1,0.5",""
"","html-keyboard-response","107","64260","0.0-107.0","3EKVH9QMEZQC9LLJPEWRNN29Q2Z2DD","A2PSR3CMNR1R9X","3QGHA0EA0JM3KKNCY0PQRLYANCJBWP","","null","<img src=""img/animal6.png"" style=""width:200px; border:14px solid green;"">","null","","","","","",""
"","image-keyboard-response","108","66214","0.0-108.0","3EKVH9QMEZQC9LLJPEWRNN29Q2Z2DD","A2PSR3CMNR1R9X","3QGHA0EA0JM3KKNCY0PQRLYANCJBWP","","1953.300000011921","img/animal4.png","75","1954.1000000238419","2","1","3","0.5,0,1,1,0.5,0,0,1,0.5",""
"","html-keyboard-response","109","66516","0.0-109.0","3EKVH9QMEZQC9LLJPEWRNN29Q2Z2DD","A2PSR3CMNR1R9X","3QGHA0EA0JM3KKNCY0PQRLYANCJBWP","","null","<img src=""img/animal4.png"" style=""width:200px; border:14px solid green;"">","null","","","","","",""
"","image-keyboard-response","110","66966","0.0-110.0","3EKVH9QMEZQC9LLJPEWRNN29Q2Z2DD","A2PSR3CMNR1R9X","3QGHA0EA0JM3KKNCY0PQRLYANCJBWP","","448.5","img/animal2.png","76","449.7999999523163","3","1","1","0.5,0,1,1,0.5,0,0,1,0.5",""
"","html-keyboard-response","111","67269","0.0-111.0","3EKVH9QMEZQC9LLJPEWRNN29Q2Z2DD","A2PSR3CMNR1R9X","3QGHA0EA0JM3KKNCY0PQRLYANCJBWP","","null","<img src=""img/animal2.png"" style=""width:200px; border:14px solid green;"">","null","","","","","",""
"","image-keyboard-response","112","67712","0.0-112.0","3EKVH9QMEZQC9LLJPEWRNN29Q2Z2DD","A2PSR3CMNR1R9X","3QGHA0EA0JM3KKNCY0PQRLYANCJBWP","","441.30000001192093","img/animal4.png","75","442.60000002384186","2","1","3","0.5,0,1,1,0.5,0,0,1,0.5",""
"","html-keyboard-response","113","68013","0.0-113.0","3EKVH9QMEZQC9LLJPEWRNN29Q2Z2DD","A2PSR3CMNR1R9X","3QGHA0EA0JM3KKNCY0PQRLYANCJBWP","","null","<img src=""img/animal4.png"" style=""width:200px; border:14px solid green;"">","null","","","","","",""
"","image-keyboard-response","114","68406","0.0-114.0","3EKVH9QMEZQC9LLJPEWRNN29Q2Z2DD","A2PSR3CMNR1R9X","3QGHA0EA0JM3KKNCY0PQRLYANCJBWP","","392","img/animal2.png","76","392.5","3","1","1","0.5,0,1,1,0.5,0,0,1,0.5",""
"","html-keyboard-response","115","68707","0.0-115.0","3EKVH9QMEZQC9LLJPEWRNN29Q2Z2DD","A2PSR3CMNR1R9X","3QGHA0EA0JM3KKNCY0PQRLYANCJBWP","","null","<img src=""img/animal2.png"" style=""width:200px; border:14px solid green;"">","null","","","","","",""
"","image-keyboard-response","116","69094","0.0-116.0","3EKVH9QMEZQC9LLJPEWRNN29Q2Z2DD","A2PSR3CMNR1R9X","3QGHA0EA0JM3KKNCY0PQRLYANCJBWP","","385.7000000476837","img/animal4.png","75","386.80000001192093","2","1","3","0.5,0,1,1,0.5,0,0,1,0.5",""
"","html-keyboard-response","117","69396","0.0-117.0","3EKVH9QMEZQC9LLJPEWRNN29Q2Z2DD","A2PSR3CMNR1R9X","3QGHA0EA0JM3KKNCY0PQRLYANCJBWP","","null","<img src=""img/animal4.png"" style=""width:200px; border:14px solid green;"">","null","","","","","",""
"","image-keyboard-response","118","69958","0.0-118.0","3EKVH9QMEZQC9LLJPEWRNN29Q2Z2DD","A2PSR3CMNR1R9X","3QGHA0EA0JM3KKNCY0PQRLYANCJBWP","","559.8999999761581","img/animal6.png","74","560.9000000357628","1","1","2","0.5,0,1,1,0.5,0,0,1,0.5",""
"","html-keyboard-response","119","70259","0.0-119.0","3EKVH9QMEZQC9LLJPEWRNN29Q2Z2DD","A2PSR3CMNR1R9X","3QGHA0EA0JM3KKNCY0PQRLYANCJBWP","","null","<img src=""img/animal6.png"" style=""width:200px; border:14px solid green;"">","null","","","","","",""
"","image-keyboard-response","120","70726","0.0-120.0","3EKVH9QMEZQC9LLJPEWRNN29Q2Z2DD","A2PSR3CMNR1R9X","3QGHA0EA0JM3KKNCY0PQRLYANCJBWP","","466.19999998807907","img/animal6.png","74","466.89999997615814","1","1","2","0.5,0,1,1,0.5,0,0,1,0.5",""
"","html-keyboard-response","121","71028","0.0-121.0","3EKVH9QMEZQC9LLJPEWRNN29Q2Z2DD","A2PSR3CMNR1R9X","3QGHA0EA0JM3KKNCY0PQRLYANCJBWP","","null","<img src=""img/animal6.png"" style=""width:200px; border:14px solid green;"">","null","","","","","",""
"","image-keyboard-response","122","71366","0.0-122.0","3EKVH9QMEZQC9LLJPEWRNN29Q2Z2DD","A2PSR3CMNR1R9X","3QGHA0EA0JM3KKNCY0PQRLYANCJBWP","","337.30000001192093","img/animal6.png","74","338.2999999523163","1","1","2","0.5,0,1,1,0.5,0,0,1,0.5",""
"","html-keyboard-response","123","71669","0.0-123.0","3EKVH9QMEZQC9LLJPEWRNN29Q2Z2DD","A2PSR3CMNR1R9X","3QGHA0EA0JM3KKNCY0PQRLYANCJBWP","","null","<img src=""img/animal6.png"" style=""width:200px; border:14px solid green;"">","null","","","","","",""
"","image-keyboard-response","124","72414","0.0-124.0","3EKVH9QMEZQC9LLJPEWRNN29Q2Z2DD","A2PSR3CMNR1R9X","3QGHA0EA0JM3KKNCY0PQRLYANCJBWP","","743.7999999523163","img/animal2.png","76","744.6999999880791","3","1","1","0.5,0,1,1,0.5,0,0,1,0.5",""
"","html-keyboard-response","125","72715","0.0-125.0","3EKVH9QMEZQC9LLJPEWRNN29Q2Z2DD","A2PSR3CMNR1R9X","3QGHA0EA0JM3KKNCY0PQRLYANCJBWP","","null","<img src=""img/animal2.png"" style=""width:200px; border:14px solid green;"">","null","","","","","",""
"","image-keyboard-response","126","73359","0.0-126.0","3EKVH9QMEZQC9LLJPEWRNN29Q2Z2DD","A2PSR3CMNR1R9X","3QGHA0EA0JM3KKNCY0PQRLYANCJBWP","","642","img/animal6.png","74","643.1000000238419","1","1","2","0.5,0,1,1,0.5,0,0,1,0.5",""
"","html-keyboard-response","127","73660","0.0-127.0","3EKVH9QMEZQC9LLJPEWRNN29Q2Z2DD","A2PSR3CMNR1R9X","3QGHA0EA0JM3KKNCY0PQRLYANCJBWP","","null","<img src=""img/animal6.png"" style=""width:200px; border:14px solid green;"">","null","","","","","",""
"","image-keyboard-response","128","74670","0.0-128.0","3EKVH9QMEZQC9LLJPEWRNN29Q2Z2DD","A2PSR3CMNR1R9X","3QGHA0EA0JM3KKNCY0PQRLYANCJBWP","","1008.8000000119209","img/animal4.png","75","1009.8999999761581","2","1","3","0.5,0,1,1,0.5,0,0,1,0.5",""
"","html-keyboard-response","129","74973","0.0-129.0","3EKVH9QMEZQC9LLJPEWRNN29Q2Z2DD","A2PSR3CMNR1R9X","3QGHA0EA0JM3KKNCY0PQRLYANCJBWP","","null","<img src=""img/animal4.png"" style=""width:200px; border:14px solid green;"">","null","","","","","",""
"","image-keyboard-response","130","75430","0.0-130.0","3EKVH9QMEZQC9LLJPEWRNN29Q2Z2DD","A2PSR3CMNR1R9X","3QGHA0EA0JM3KKNCY0PQRLYANCJBWP","","456.5","img/animal6.png","76","457.10000002384186","3","0","2","0.5,0,1,1,0.5,0,0,1,0.5",""
"","html-keyboard-response","131","75733","0.0-131.0","3EKVH9QMEZQC9LLJPEWRNN29Q2Z2DD","A2PSR3CMNR1R9X","3QGHA0EA0JM3KKNCY0PQRLYANCJBWP","","null","<img src=""img/animal6.png"" style=""width:200px;border:14px solid red;"">","null","","","","","",""
"","image-keyboard-response","132","76254","0.0-132.0","3EKVH9QMEZQC9LLJPEWRNN29Q2Z2DD","A2PSR3CMNR1R9X","3QGHA0EA0JM3KKNCY0PQRLYANCJBWP","","519.9000000357628","img/animal6.png","74","521.1000000238419","1","1","2","0.5,0,1,1,0.5,0,0,1,0.5",""
"","html-keyboard-response","133","76557","0.0-133.0","3EKVH9QMEZQC9LLJPEWRNN29Q2Z2DD","A2PSR3CMNR1R9X","3QGHA0EA0JM3KKNCY0PQRLYANCJBWP","","null","<img src=""img/animal6.png"" style=""width:200px; border:14px solid green;"">","null","","","","","",""
"","image-keyboard-response","134","77238","0.0-134.0","3EKVH9QMEZQC9LLJPEWRNN29Q2Z2DD","A2PSR3CMNR1R9X","3QGHA0EA0JM3KKNCY0PQRLYANCJBWP","","680.1000000238419","img/animal4.png","75","681.3999999761581","2","1","3","0.5,0,1,1,0.5,0,0,1,0.5",""
"","html-keyboard-response","135","77542","0.0-135.0","3EKVH9QMEZQC9LLJPEWRNN29Q2Z2DD","A2PSR3CMNR1R9X","3QGHA0EA0JM3KKNCY0PQRLYANCJBWP","","null","<img src=""img/animal4.png"" style=""width:200px; border:14px solid green;"">","null","","","","","",""
"","image-keyboard-response","136","77926","0.0-136.0","3EKVH9QMEZQC9LLJPEWRNN29Q2Z2DD","A2PSR3CMNR1R9X","3QGHA0EA0JM3KKNCY0PQRLYANCJBWP","","382.5","img/animal4.png","75","383.39999997615814","2","1","3","0.5,0,1,1,0.5,0,0,1,0.5",""
"","html-keyboard-response","137","78227","0.0-137.0","3EKVH9QMEZQC9LLJPEWRNN29Q2Z2DD","A2PSR3CMNR1R9X","3QGHA0EA0JM3KKNCY0PQRLYANCJBWP","","null","<img src=""img/animal4.png"" style=""width:200px; border:14px solid green;"">","null","","","","","",""
"","image-keyboard-response","138","78734","0.0-138.0","3EKVH9QMEZQC9LLJPEWRNN29Q2Z2DD","A2PSR3CMNR1R9X","3QGHA0EA0JM3KKNCY0PQRLYANCJBWP","","506.60000002384186","img/animal2.png","76","507.10000002384186","3","1","1","0.5,0,1,1,0.5,0,0,1,0.5",""
"","html-keyboard-response","139","79036","0.0-139.0","3EKVH9QMEZQC9LLJPEWRNN29Q2Z2DD","A2PSR3CMNR1R9X","3QGHA0EA0JM3KKNCY0PQRLYANCJBWP","","null","<img src=""img/animal2.png"" style=""width:200px; border:14px solid green;"">","null","","","","","",""
"","image-keyboard-response","140","79845","0.0-140.0","3EKVH9QMEZQC9LLJPEWRNN29Q2Z2DD","A2PSR3CMNR1R9X","3QGHA0EA0JM3KKNCY0PQRLYANCJBWP","","807.9000000357628","img/animal6.png","74","808.7999999523163","1","1","2","0.5,0,1,1,0.5,0,0,1,0.5",""
"","html-keyboard-response","141","80146","0.0-141.0","3EKVH9QMEZQC9LLJPEWRNN29Q2Z2DD","A2PSR3CMNR1R9X","3QGHA0EA0JM3KKNCY0PQRLYANCJBWP","","null","<img src=""img/animal6.png"" style=""width:200px; border:14px solid green;"">","null","","","","","",""
"","image-keyboard-response","142","80789","0.0-142.0","3EKVH9QMEZQC9LLJPEWRNN29Q2Z2DD","A2PSR3CMNR1R9X","3QGHA0EA0JM3KKNCY0PQRLYANCJBWP","","641.6999999880791","img/animal4.png","75","642.5999999642372","2","1","3","0.5,0,1,1,0.5,0,0,1,0.5",""
"","html-keyboard-response","143","81090","0.0-143.0","3EKVH9QMEZQC9LLJPEWRNN29Q2Z2DD","A2PSR3CMNR1R9X","3QGHA0EA0JM3KKNCY0PQRLYANCJBWP","","null","<img src=""img/animal4.png"" style=""width:200px; border:14px solid green;"">","null","","","","","",""
"","image-keyboard-response","144","81622","0.0-144.0","3EKVH9QMEZQC9LLJPEWRNN29Q2Z2DD","A2PSR3CMNR1R9X","3QGHA0EA0JM3KKNCY0PQRLYANCJBWP","","530.6000000238419","img/animal2.png","76","532","3","1","1","0.5,0,1,1,0.5,0,0,1,0.5",""
"","html-keyboard-response","145","81925","0.0-145.0","3EKVH9QMEZQC9LLJPEWRNN29Q2Z2DD","A2PSR3CMNR1R9X","3QGHA0EA0JM3KKNCY0PQRLYANCJBWP","","null","<img src=""img/animal2.png"" style=""width:200px; border:14px solid green;"">","null","","","","","",""
"","image-keyboard-response","146","82302","0.0-146.0","3EKVH9QMEZQC9LLJPEWRNN29Q2Z2DD","A2PSR3CMNR1R9X","3QGHA0EA0JM3KKNCY0PQRLYANCJBWP","","375.80000001192093","img/animal2.png","76","377","3","1","1","0.5,0,1,1,0.5,0,0,1,0.5",""
"","html-keyboard-response","147","82605","0.0-147.0","3EKVH9QMEZQC9LLJPEWRNN29Q2Z2DD","A2PSR3CMNR1R9X","3QGHA0EA0JM3KKNCY0PQRLYANCJBWP","","null","<img src=""img/animal2.png"" style=""width:200px; border:14px solid green;"">","null","","","","","",""
"","image-keyboard-response","148","82927","0.0-148.0","3EKVH9QMEZQC9LLJPEWRNN29Q2Z2DD","A2PSR3CMNR1R9X","3QGHA0EA0JM3KKNCY0PQRLYANCJBWP","","320.80000001192093","img/animal2.png","76","321.80000001192093","3","1","1","0.5,0,1,1,0.5,0,0,1,0.5",""
"","html-keyboard-response","149","83229","0.0-149.0","3EKVH9QMEZQC9LLJPEWRNN29Q2Z2DD","A2PSR3CMNR1R9X","3QGHA0EA0JM3KKNCY0PQRLYANCJBWP","","null","<img src=""img/animal2.png"" style=""width:200px; border:14px solid green;"">","null","","","","","",""
"","image-keyboard-response","150","83879","0.0-150.0","3EKVH9QMEZQC9LLJPEWRNN29Q2Z2DD","A2PSR3CMNR1R9X","3QGHA0EA0JM3KKNCY0PQRLYANCJBWP","","648","img/animal6.png","74","649.1999999880791","1","1","2","0.5,0,1,1,0.5,0,0,1,0.5",""
"","html-keyboard-response","151","84182","0.0-151.0","3EKVH9QMEZQC9LLJPEWRNN29Q2Z2DD","A2PSR3CMNR1R9X","3QGHA0EA0JM3KKNCY0PQRLYANCJBWP","","null","<img src=""img/animal6.png"" style=""width:200px; border:14px solid green;"">","null","","","","","",""
"","image-keyboard-response","152","84693","0.0-152.0","3EKVH9QMEZQC9LLJPEWRNN29Q2Z2DD","A2PSR3CMNR1R9X","3QGHA0EA0JM3KKNCY0PQRLYANCJBWP","","510.5999999642372","img/animal2.png","76","511.5","3","1","1","0.5,0,1,1,0.5,0,0,1,0.5",""
"","html-keyboard-response","153","84994","0.0-153.0","3EKVH9QMEZQC9LLJPEWRNN29Q2Z2DD","A2PSR3CMNR1R9X","3QGHA0EA0JM3KKNCY0PQRLYANCJBWP","","null","<img src=""img/animal2.png"" style=""width:200px; border:14px solid green;"">","null","","","","","",""
"","image-keyboard-response","154","85550","0.0-154.0","3EKVH9QMEZQC9LLJPEWRNN29Q2Z2DD","A2PSR3CMNR1R9X","3QGHA0EA0JM3KKNCY0PQRLYANCJBWP","","554.6999999880791","img/animal4.png","75","555.8999999761581","2","1","3","0.5,0,1,1,0.5,0,0,1,0.5",""
"","html-keyboard-response","155","85852","0.0-155.0","3EKVH9QMEZQC9LLJPEWRNN29Q2Z2DD","A2PSR3CMNR1R9X","3QGHA0EA0JM3KKNCY0PQRLYANCJBWP","","null","<img src=""img/animal4.png"" style=""width:200px; border:14px solid green;"">","null","","","","","",""
"","image-keyboard-response","156","86398","0.0-156.0","3EKVH9QMEZQC9LLJPEWRNN29Q2Z2DD","A2PSR3CMNR1R9X","3QGHA0EA0JM3KKNCY0PQRLYANCJBWP","","544.8999999761581","img/animal2.png","76","546","3","1","1","0.5,0,1,1,0.5,0,0,1,0.5",""
"","html-keyboard-response","157","86701","0.0-157.0","3EKVH9QMEZQC9LLJPEWRNN29Q2Z2DD","A2PSR3CMNR1R9X","3QGHA0EA0JM3KKNCY0PQRLYANCJBWP","","null","<img src=""img/animal2.png"" style=""width:200px; border:14px solid green;"">","null","","","","","",""
"","image-keyboard-response","158","87342","0.0-158.0","3EKVH9QMEZQC9LLJPEWRNN29Q2Z2DD","A2PSR3CMNR1R9X","3QGHA0EA0JM3KKNCY0PQRLYANCJBWP","","640.3000000119209","img/animal6.png","74","641.4000000357628","1","1","2","0.5,0,1,1,0.5,0,0,1,0.5",""
"","html-keyboard-response","159","87645","0.0-159.0","3EKVH9QMEZQC9LLJPEWRNN29Q2Z2DD","A2PSR3CMNR1R9X","3QGHA0EA0JM3KKNCY0PQRLYANCJBWP","","null","<img src=""img/animal6.png"" style=""width:200px; border:14px solid green;"">","null","","","","","",""
"","image-keyboard-response","160","88006","0.0-160.0","3EKVH9QMEZQC9LLJPEWRNN29Q2Z2DD","A2PSR3CMNR1R9X","3QGHA0EA0JM3KKNCY0PQRLYANCJBWP","","360.30000001192093","img/animal6.png","74","361.19999998807907","1","1","2","0.5,0,1,1,0.5,0,0,1,0.5",""
"","html-keyboard-response","161","88308","0.0-161.0","3EKVH9QMEZQC9LLJPEWRNN29Q2Z2DD","A2PSR3CMNR1R9X","3QGHA0EA0JM3KKNCY0PQRLYANCJBWP","","null","<img src=""img/animal6.png"" style=""width:200px; border:14px solid green;"">","null","","","","","",""
"","image-keyboard-response","162","88654","0.0-162.0","3EKVH9QMEZQC9LLJPEWRNN29Q2Z2DD","A2PSR3CMNR1R9X","3QGHA0EA0JM3KKNCY0PQRLYANCJBWP","","344.89999997615814","img/animal6.png","74","345.4000000357628","1","1","2","0.5,0,1,1,0.5,0,0,1,0.5",""
"","html-keyboard-response","163","88955","0.0-163.0","3EKVH9QMEZQC9LLJPEWRNN29Q2Z2DD","A2PSR3CMNR1R9X","3QGHA0EA0JM3KKNCY0PQRLYANCJBWP","","null","<img src=""img/animal6.png"" style=""width:200px; border:14px solid green;"">","null","","","","","",""
"","image-keyboard-response","164","89766","0.0-164.0","3EKVH9QMEZQC9LLJPEWRNN29Q2Z2DD","A2PSR3CMNR1R9X","3QGHA0EA0JM3KKNCY0PQRLYANCJBWP","","809.8000000119209","img/animal4.png","75","810.8999999761581","2","1","3","0.5,0,1,1,0.5,0,0,1,0.5",""
"","html-keyboard-response","165","90067","0.0-165.0","3EKVH9QMEZQC9LLJPEWRNN29Q2Z2DD","A2PSR3CMNR1R9X","3QGHA0EA0JM3KKNCY0PQRLYANCJBWP","","null","<img src=""img/animal4.png"" style=""width:200px; border:14px solid green;"">","null","","","","","",""
"","image-keyboard-response","166","90837","0.0-166.0","3EKVH9QMEZQC9LLJPEWRNN29Q2Z2DD","A2PSR3CMNR1R9X","3QGHA0EA0JM3KKNCY0PQRLYANCJBWP","","768.5999999642372","img/animal6.png","74","769.6999999880791","1","1","2","0.5,0,1,1,0.5,0,0,1,0.5",""
"","html-keyboard-response","167","91138","0.0-167.0","3EKVH9QMEZQC9LLJPEWRNN29Q2Z2DD","A2PSR3CMNR1R9X","3QGHA0EA0JM3KKNCY0PQRLYANCJBWP","","null","<img src=""img/animal6.png"" style=""width:200px; border:14px solid green;"">","null","","","","","",""
"","image-keyboard-response","168","91805","0.0-168.0","3EKVH9QMEZQC9LLJPEWRNN29Q2Z2DD","A2PSR3CMNR1R9X","3QGHA0EA0JM3KKNCY0PQRLYANCJBWP","","665.5999999642372","img/animal4.png","75","666.5","2","1","3","0.5,0,1,1,0.5,0,0,1,0.5",""
"","html-keyboard-response","169","92106","0.0-169.0","3EKVH9QMEZQC9LLJPEWRNN29Q2Z2DD","A2PSR3CMNR1R9X","3QGHA0EA0JM3KKNCY0PQRLYANCJBWP","","null","<img src=""img/animal4.png"" style=""width:200px; border:14px solid green;"">","null","","","","","",""
"","image-keyboard-response","170","92821","0.0-170.0","3EKVH9QMEZQC9LLJPEWRNN29Q2Z2DD","A2PSR3CMNR1R9X","3QGHA0EA0JM3KKNCY0PQRLYANCJBWP","","714.6999999880791","img/animal6.png","74","715.3000000119209","1","1","2","0.5,0,1,1,0.5,0,0,1,0.5",""
"","html-keyboard-response","171","93123","0.0-171.0","3EKVH9QMEZQC9LLJPEWRNN29Q2Z2DD","A2PSR3CMNR1R9X","3QGHA0EA0JM3KKNCY0PQRLYANCJBWP","","null","<img src=""img/animal6.png"" style=""width:200px; border:14px solid green;"">","null","","","","","",""
"","image-keyboard-response","172","93469","0.0-172.0","3EKVH9QMEZQC9LLJPEWRNN29Q2Z2DD","A2PSR3CMNR1R9X","3QGHA0EA0JM3KKNCY0PQRLYANCJBWP","","345.19999998807907","img/animal6.png","74","346.0999999642372","1","1","2","0.5,0,1,1,0.5,0,0,1,0.5",""
"","html-keyboard-response","173","93770","0.0-173.0","3EKVH9QMEZQC9LLJPEWRNN29Q2Z2DD","A2PSR3CMNR1R9X","3QGHA0EA0JM3KKNCY0PQRLYANCJBWP","","null","<img src=""img/animal6.png"" style=""width:200px; border:14px solid green;"">","null","","","","","",""
"","image-keyboard-response","174","94494","0.0-174.0","3EKVH9QMEZQC9LLJPEWRNN29Q2Z2DD","A2PSR3CMNR1R9X","3QGHA0EA0JM3KKNCY0PQRLYANCJBWP","","722.8999999761581","img/animal4.png","75","723.0999999642372","2","1","3","0.5,0,1,1,0.5,0,0,1,0.5",""
"","html-keyboard-response","175","94796","0.0-175.0","3EKVH9QMEZQC9LLJPEWRNN29Q2Z2DD","A2PSR3CMNR1R9X","3QGHA0EA0JM3KKNCY0PQRLYANCJBWP","","null","<img src=""img/animal4.png"" style=""width:200px; border:14px solid green;"">","null","","","","","",""
"","image-keyboard-response","176","95142","0.0-176.0","3EKVH9QMEZQC9LLJPEWRNN29Q2Z2DD","A2PSR3CMNR1R9X","3QGHA0EA0JM3KKNCY0PQRLYANCJBWP","","345.80000001192093","img/animal4.png","75","346.30000001192093","2","1","3","0.5,0,1,1,0.5,0,0,1,0.5",""
"","html-keyboard-response","177","95449","0.0-177.0","3EKVH9QMEZQC9LLJPEWRNN29Q2Z2DD","A2PSR3CMNR1R9X","3QGHA0EA0JM3KKNCY0PQRLYANCJBWP","","null","<img src=""img/animal4.png"" style=""width:200px; border:14px solid green;"">","null","","","","","",""
"","image-keyboard-response","178","95974","0.0-178.0","3EKVH9QMEZQC9LLJPEWRNN29Q2Z2DD","A2PSR3CMNR1R9X","3QGHA0EA0JM3KKNCY0PQRLYANCJBWP","","524.3000000119209","img/animal2.png","76","525.4000000357628","3","1","1","0.5,0,1,1,0.5,0,0,1,0.5",""
"","html-keyboard-response","179","96276","0.0-179.0","3EKVH9QMEZQC9LLJPEWRNN29Q2Z2DD","A2PSR3CMNR1R9X","3QGHA0EA0JM3KKNCY0PQRLYANCJBWP","","null","<img src=""img/animal2.png"" style=""width:200px; border:14px solid green;"">","null","","","","","",""
"","image-keyboard-response","180","97046","0.0-180.0","3EKVH9QMEZQC9LLJPEWRNN29Q2Z2DD","A2PSR3CMNR1R9X","3QGHA0EA0JM3KKNCY0PQRLYANCJBWP","","768.8000000119209","img/animal6.png","74","769.9000000357628","1","1","2","0.5,0,1,1,0.5,0,0,1,0.5",""
"","html-keyboard-response","181","97349","0.0-181.0","3EKVH9QMEZQC9LLJPEWRNN29Q2Z2DD","A2PSR3CMNR1R9X","3QGHA0EA0JM3KKNCY0PQRLYANCJBWP","","null","<img src=""img/animal6.png"" style=""width:200px; border:14px solid green;"">","null","","","","","",""
"","html-keyboard-response","182","101710","0.0-182.0","3EKVH9QMEZQC9LLJPEWRNN29Q2Z2DD","A2PSR3CMNR1R9X","3QGHA0EA0JM3KKNCY0PQRLYANCJBWP","","","","","","","","","",""
"","image-keyboard-response","183","103526","0.0-183.0","3EKVH9QMEZQC9LLJPEWRNN29Q2Z2DD","A2PSR3CMNR1R9X","3QGHA0EA0JM3KKNCY0PQRLYANCJBWP","","1816","img/animal3.png","74","1816.800000011921","1","1","3","0.7,0,0.8,0.7,0.8,0,0.7,0.8,0",""
"","html-keyboard-response","184","103829","0.0-184.0","3EKVH9QMEZQC9LLJPEWRNN29Q2Z2DD","A2PSR3CMNR1R9X","3QGHA0EA0JM3KKNCY0PQRLYANCJBWP","","null","<img src=""img/animal3.png"" style=""width:200px; border:14px solid green;"">","null","","","","","",""
"","image-keyboard-response","185","104406","0.0-185.0","3EKVH9QMEZQC9LLJPEWRNN29Q2Z2DD","A2PSR3CMNR1R9X","3QGHA0EA0JM3KKNCY0PQRLYANCJBWP","","576.3999999761581","img/animal3.png","74","577.1999999880791","1","1","3","0.7,0,0.8,0.7,0.8,0,0.7,0.8,0",""
"","html-keyboard-response","186","104708","0.0-186.0","3EKVH9QMEZQC9LLJPEWRNN29Q2Z2DD","A2PSR3CMNR1R9X","3QGHA0EA0JM3KKNCY0PQRLYANCJBWP","","null","<img src=""img/animal3.png"" style=""width:200px; border:14px solid green;"">","null","","","","","",""
"","image-keyboard-response","187","105528","0.0-187.0","3EKVH9QMEZQC9LLJPEWRNN29Q2Z2DD","A2PSR3CMNR1R9X","3QGHA0EA0JM3KKNCY0PQRLYANCJBWP","","819.3999999761581","img/animal5.png","75","819.8999999761581","2","1","2","0.7,0,0.8,0.7,0.8,0,0.7,0.8,0",""
"","html-keyboard-response","188","105829","0.0-188.0","3EKVH9QMEZQC9LLJPEWRNN29Q2Z2DD","A2PSR3CMNR1R9X","3QGHA0EA0JM3KKNCY0PQRLYANCJBWP","","null","<img src=""img/animal5.png"" style=""width:200px; border:14px solid green;"">","null","","","","","",""
"","image-keyboard-response","189","106406","0.0-189.0","3EKVH9QMEZQC9LLJPEWRNN29Q2Z2DD","A2PSR3CMNR1R9X","3QGHA0EA0JM3KKNCY0PQRLYANCJBWP","","576.2000000476837","img/animal3.png","74","577.1000000238419","1","0","3","0.7,0,0.8,0.7,0.8,0,0.7,0.8,0",""
"","html-keyboard-response","190","106708","0.0-190.0","3EKVH9QMEZQC9LLJPEWRNN29Q2Z2DD","A2PSR3CMNR1R9X","3QGHA0EA0JM3KKNCY0PQRLYANCJBWP","","null","<img src=""img/animal3.png"" style=""width:200px;border:14px solid red;"">","null","","","","","",""
"","image-keyboard-response","191","107734","0.0-191.0","3EKVH9QMEZQC9LLJPEWRNN29Q2Z2DD","A2PSR3CMNR1R9X","3QGHA0EA0JM3KKNCY0PQRLYANCJBWP","","1024.6000000238419","img/animal1.png","76","1026","3","1","1","0.7,0,0.8,0.7,0.8,0,0.7,0.8,0",""
"","html-keyboard-response","192","108037","0.0-192.0","3EKVH9QMEZQC9LLJPEWRNN29Q2Z2DD","A2PSR3CMNR1R9X","3QGHA0EA0JM3KKNCY0PQRLYANCJBWP","","null","<img src=""img/animal1.png"" style=""width:200px; border:14px solid green;"">","null","","","","","",""
"","image-keyboard-response","193","108446","0.0-193.0","3EKVH9QMEZQC9LLJPEWRNN29Q2Z2DD","A2PSR3CMNR1R9X","3QGHA0EA0JM3KKNCY0PQRLYANCJBWP","","408.30000001192093","img/animal1.png","76","408.89999997615814","3","1","1","0.7,0,0.8,0.7,0.8,0,0.7,0.8,0",""
"","html-keyboard-response","194","108748","0.0-194.0","3EKVH9QMEZQC9LLJPEWRNN29Q2Z2DD","A2PSR3CMNR1R9X","3QGHA0EA0JM3KKNCY0PQRLYANCJBWP","","null","<img src=""img/animal1.png"" style=""width:200px; border:14px solid green;"">","null","","","","","",""
"","image-keyboard-response","195","109239","0.0-195.0","3EKVH9QMEZQC9LLJPEWRNN29Q2Z2DD","A2PSR3CMNR1R9X","3QGHA0EA0JM3KKNCY0PQRLYANCJBWP","","488.80000001192093","img/animal3.png","74","490","1","1","3","0.7,0,0.8,0.7,0.8,0,0.7,0.8,0",""
"","html-keyboard-response","196","109548","0.0-196.0","3EKVH9QMEZQC9LLJPEWRNN29Q2Z2DD","A2PSR3CMNR1R9X","3QGHA0EA0JM3KKNCY0PQRLYANCJBWP","","null","<img src=""img/animal3.png"" style=""width:200px; border:14px solid green;"">","null","","","","","",""
"","image-keyboard-response","197","109926","0.0-197.0","3EKVH9QMEZQC9LLJPEWRNN29Q2Z2DD","A2PSR3CMNR1R9X","3QGHA0EA0JM3KKNCY0PQRLYANCJBWP","","377.30000001192093","img/animal3.png","74","378.5","1","1","3","0.7,0,0.8,0.7,0.8,0,0.7,0.8,0",""
"","html-keyboard-response","198","110228","0.0-198.0","3EKVH9QMEZQC9LLJPEWRNN29Q2Z2DD","A2PSR3CMNR1R9X","3QGHA0EA0JM3KKNCY0PQRLYANCJBWP","","null","<img src=""img/animal3.png"" style=""width:200px; border:14px solid green;"">","null","","","","","",""
"","image-keyboard-response","199","110774","0.0-199.0","3EKVH9QMEZQC9LLJPEWRNN29Q2Z2DD","A2PSR3CMNR1R9X","3QGHA0EA0JM3KKNCY0PQRLYANCJBWP","","544.6999999880791","img/animal5.png","75","545.7000000476837","2","0","2","0.7,0,0.8,0.7,0.8,0,0.7,0.8,0",""
"","html-keyboard-response","200","111075","0.0-200.0","3EKVH9QMEZQC9LLJPEWRNN29Q2Z2DD","A2PSR3CMNR1R9X","3QGHA0EA0JM3KKNCY0PQRLYANCJBWP","","null","<img src=""img/animal5.png"" style=""width:200px;border:14px solid red;"">","null","","","","","",""
"","image-keyboard-response","201","111822","0.0-201.0","3EKVH9QMEZQC9LLJPEWRNN29Q2Z2DD","A2PSR3CMNR1R9X","3QGHA0EA0JM3KKNCY0PQRLYANCJBWP","","745.3000000119209","img/animal3.png","74","746.1000000238419","1","1","3","0.7,0,0.8,0.7,0.8,0,0.7,0.8,0",""
"","html-keyboard-response","202","112123","0.0-202.0","3EKVH9QMEZQC9LLJPEWRNN29Q2Z2DD","A2PSR3CMNR1R9X","3QGHA0EA0JM3KKNCY0PQRLYANCJBWP","","null","<img src=""img/animal3.png"" style=""width:200px; border:14px solid green;"">","null","","","","","",""
"","image-keyboard-response","203","112942","0.0-203.0","3EKVH9QMEZQC9LLJPEWRNN29Q2Z2DD","A2PSR3CMNR1R9X","3QGHA0EA0JM3KKNCY0PQRLYANCJBWP","","817.6000000238419","img/animal1.png","76","818.6999999880791","3","1","1","0.7,0,0.8,0.7,0.8,0,0.7,0.8,0",""
"","html-keyboard-response","204","113244","0.0-204.0","3EKVH9QMEZQC9LLJPEWRNN29Q2Z2DD","A2PSR3CMNR1R9X","3QGHA0EA0JM3KKNCY0PQRLYANCJBWP","","null","<img src=""img/animal1.png"" style=""width:200px; border:14px solid green;"">","null","","","","","",""
"","image-keyboard-response","205","114302","0.0-205.0","3EKVH9QMEZQC9LLJPEWRNN29Q2Z2DD","A2PSR3CMNR1R9X","3QGHA0EA0JM3KKNCY0PQRLYANCJBWP","","1056.9000000357628","img/animal5.png","74","1058","1","1","2","0.7,0,0.8,0.7,0.8,0,0.7,0.8,0",""
"","html-keyboard-response","206","114605","0.0-206.0","3EKVH9QMEZQC9LLJPEWRNN29Q2Z2DD","A2PSR3CMNR1R9X","3QGHA0EA0JM3KKNCY0PQRLYANCJBWP","","null","<img src=""img/animal5.png"" style=""width:200px; border:14px solid green;"">","null","","","","","",""
"","image-keyboard-response","207","115350","0.0-207.0","3EKVH9QMEZQC9LLJPEWRNN29Q2Z2DD","A2PSR3CMNR1R9X","3QGHA0EA0JM3KKNCY0PQRLYANCJBWP","","743.6999999880791","img/animal1.png","76","744.8999999761581","3","1","1","0.7,0,0.8,0.7,0.8,0,0.7,0.8,0",""
"","html-keyboard-response","208","115652","0.0-208.0","3EKVH9QMEZQC9LLJPEWRNN29Q2Z2DD","A2PSR3CMNR1R9X","3QGHA0EA0JM3KKNCY0PQRLYANCJBWP","","null","<img src=""img/animal1.png"" style=""width:200px; border:14px solid green;"">","null","","","","","",""
"","image-keyboard-response","209","116623","0.0-209.0","3EKVH9QMEZQC9LLJPEWRNN29Q2Z2DD","A2PSR3CMNR1R9X","3QGHA0EA0JM3KKNCY0PQRLYANCJBWP","","969.1999999880791","img/animal5.png","74","970.3000000119209","1","1","2","0.7,0,0.8,0.7,0.8,0,0.7,0.8,0",""
"","html-keyboard-response","210","116925","0.0-210.0","3EKVH9QMEZQC9LLJPEWRNN29Q2Z2DD","A2PSR3CMNR1R9X","3QGHA0EA0JM3KKNCY0PQRLYANCJBWP","","null","<img src=""img/animal5.png"" style=""width:200px; border:14px solid green;"">","null","","","","","",""
"","image-keyboard-response","211","117294","0.0-211.0","3EKVH9QMEZQC9LLJPEWRNN29Q2Z2DD","A2PSR3CMNR1R9X","3QGHA0EA0JM3KKNCY0PQRLYANCJBWP","","367.60000002384186","img/animal5.png","74","368.69999998807907","1","1","2","0.7,0,0.8,0.7,0.8,0,0.7,0.8,0",""
"","html-keyboard-response","212","117597","0.0-212.0","3EKVH9QMEZQC9LLJPEWRNN29Q2Z2DD","A2PSR3CMNR1R9X","3QGHA0EA0JM3KKNCY0PQRLYANCJBWP","","null","<img src=""img/animal5.png"" style=""width:200px; border:14px solid green;"">","null","","","","","",""
"","image-keyboard-response","213","118014","0.0-213.0","3EKVH9QMEZQC9LLJPEWRNN29Q2Z2DD","A2PSR3CMNR1R9X","3QGHA0EA0JM3KKNCY0PQRLYANCJBWP","","415.89999997615814","img/animal3.png","74","417.19999998807907","1","1","3","0.7,0,0.8,0.7,0.8,0,0.7,0.8,0",""
"","html-keyboard-response","214","118316","0.0-214.0","3EKVH9QMEZQC9LLJPEWRNN29Q2Z2DD","A2PSR3CMNR1R9X","3QGHA0EA0JM3KKNCY0PQRLYANCJBWP","","null","<img src=""img/animal3.png"" style=""width:200px; border:14px solid green;"">","null","","","","","",""
"","image-keyboard-response","215","118662","0.0-215.0","3EKVH9QMEZQC9LLJPEWRNN29Q2Z2DD","A2PSR3CMNR1R9X","3QGHA0EA0JM3KKNCY0PQRLYANCJBWP","","344.9000000357628","img/animal3.png","74","346","1","0","3","0.7,0,0.8,0.7,0.8,0,0.7,0.8,0",""
"","html-keyboard-response","216","118965","0.0-216.0","3EKVH9QMEZQC9LLJPEWRNN29Q2Z2DD","A2PSR3CMNR1R9X","3QGHA0EA0JM3KKNCY0PQRLYANCJBWP","","null","<img src=""img/animal3.png"" style=""width:200px;border:14px solid red;"">","null","","","","","",""
"","image-keyboard-response","217","119454","0.0-217.0","3EKVH9QMEZQC9LLJPEWRNN29Q2Z2DD","A2PSR3CMNR1R9X","3QGHA0EA0JM3KKNCY0PQRLYANCJBWP","","488.10000002384186","img/animal3.png","74","490.7999999523163","1","0","3","0.7,0,0.8,0.7,0.8,0,0.7,0.8,0",""
"","html-keyboard-response","218","119766","0.0-218.0","3EKVH9QMEZQC9LLJPEWRNN29Q2Z2DD","A2PSR3CMNR1R9X","3QGHA0EA0JM3KKNCY0PQRLYANCJBWP","","null","<img src=""img/animal3.png"" style=""width:200px;border:14px solid red;"">","null","","","","","",""
"","image-keyboard-response","219","120277","0.0-219.0","3EKVH9QMEZQC9LLJPEWRNN29Q2Z2DD","A2PSR3CMNR1R9X","3QGHA0EA0JM3KKNCY0PQRLYANCJBWP","","511.10000002384186","img/animal5.png","76","511.60000002384186","3","0","2","0.7,0,0.8,0.7,0.8,0,0.7,0.8,0",""
"","html-keyboard-response","220","120586","0.0-220.0","3EKVH9QMEZQC9LLJPEWRNN29Q2Z2DD","A2PSR3CMNR1R9X","3QGHA0EA0JM3KKNCY0PQRLYANCJBWP","","null","<img src=""img/animal5.png"" style=""width:200px;border:14px solid red;"">","null","","","","","",""
"","image-keyboard-response","221","121358","0.0-221.0","3EKVH9QMEZQC9LLJPEWRNN29Q2Z2DD","A2PSR3CMNR1R9X","3QGHA0EA0JM3KKNCY0PQRLYANCJBWP","","770.7000000476837","img/animal1.png","76","772","3","1","1","0.7,0,0.8,0.7,0.8,0,0.7,0.8,0",""
"","html-keyboard-response","222","121666","0.0-222.0","3EKVH9QMEZQC9LLJPEWRNN29Q2Z2DD","A2PSR3CMNR1R9X","3QGHA0EA0JM3KKNCY0PQRLYANCJBWP","","null","<img src=""img/animal1.png"" style=""width:200px; border:14px solid green;"">","null","","","","","",""
"","image-keyboard-response","223","122286","0.0-223.0","3EKVH9QMEZQC9LLJPEWRNN29Q2Z2DD","A2PSR3CMNR1R9X","3QGHA0EA0JM3KKNCY0PQRLYANCJBWP","","617.8999999761581","img/animal5.png","74","619","1","0","2","0.7,0,0.8,0.7,0.8,0,0.7,0.8,0",""
"","html-keyboard-response","224","122587","0.0-224.0","3EKVH9QMEZQC9LLJPEWRNN29Q2Z2DD","A2PSR3CMNR1R9X","3QGHA0EA0JM3KKNCY0PQRLYANCJBWP","","null","<img src=""img/animal5.png"" style=""width:200px;border:14px solid red;"">","null","","","","","",""
"","image-keyboard-response","225","123246","0.0-225.0","3EKVH9QMEZQC9LLJPEWRNN29Q2Z2DD","A2PSR3CMNR1R9X","3QGHA0EA0JM3KKNCY0PQRLYANCJBWP","","657.6000000238419","img/animal3.png","74","658.7999999523163","1","1","3","0.7,0,0.8,0.7,0.8,0,0.7,0.8,0",""
"","html-keyboard-response","226","123548","0.0-226.0","3EKVH9QMEZQC9LLJPEWRNN29Q2Z2DD","A2PSR3CMNR1R9X","3QGHA0EA0JM3KKNCY0PQRLYANCJBWP","","null","<img src=""img/animal3.png"" style=""width:200px; border:14px solid green;"">","null","","","","","",""
"","image-keyboard-response","227","124670","0.0-227.0","3EKVH9QMEZQC9LLJPEWRNN29Q2Z2DD","A2PSR3CMNR1R9X","3QGHA0EA0JM3KKNCY0PQRLYANCJBWP","","1120.300000011921","img/animal1.png","76","1121.199999988079","3","1","1","0.7,0,0.8,0.7,0.8,0,0.7,0.8,0",""
"","html-keyboard-response","228","124972","0.0-228.0","3EKVH9QMEZQC9LLJPEWRNN29Q2Z2DD","A2PSR3CMNR1R9X","3QGHA0EA0JM3KKNCY0PQRLYANCJBWP","","null","<img src=""img/animal1.png"" style=""width:200px; border:14px solid green;"">","null","","","","","",""
"","image-keyboard-response","229","125342","0.0-229.0","3EKVH9QMEZQC9LLJPEWRNN29Q2Z2DD","A2PSR3CMNR1R9X","3QGHA0EA0JM3KKNCY0PQRLYANCJBWP","","369.60000002384186","img/animal1.png","76","370.19999998807907","3","1","1","0.7,0,0.8,0.7,0.8,0,0.7,0.8,0",""
"","html-keyboard-response","230","125644","0.0-230.0","3EKVH9QMEZQC9LLJPEWRNN29Q2Z2DD","A2PSR3CMNR1R9X","3QGHA0EA0JM3KKNCY0PQRLYANCJBWP","","null","<img src=""img/animal1.png"" style=""width:200px; border:14px solid green;"">","null","","","","","",""
"","image-keyboard-response","231","125974","0.0-231.0","3EKVH9QMEZQC9LLJPEWRNN29Q2Z2DD","A2PSR3CMNR1R9X","3QGHA0EA0JM3KKNCY0PQRLYANCJBWP","","329.5","img/animal1.png","76","330.0999999642372","3","1","1","0.7,0,0.8,0.7,0.8,0,0.7,0.8,0",""
"","html-keyboard-response","232","126276","0.0-232.0","3EKVH9QMEZQC9LLJPEWRNN29Q2Z2DD","A2PSR3CMNR1R9X","3QGHA0EA0JM3KKNCY0PQRLYANCJBWP","","null","<img src=""img/animal1.png"" style=""width:200px; border:14px solid green;"">","null","","","","","",""
"","image-keyboard-response","233","126565","0.0-233.0","3EKVH9QMEZQC9LLJPEWRNN29Q2Z2DD","A2PSR3CMNR1R9X","3QGHA0EA0JM3KKNCY0PQRLYANCJBWP","","287.80000001192093","img/animal1.png","76","288.7999999523163","3","1","1","0.7,0,0.8,0.7,0.8,0,0.7,0.8,0",""
"","html-keyboard-response","234","126866","0.0-234.0","3EKVH9QMEZQC9LLJPEWRNN29Q2Z2DD","A2PSR3CMNR1R9X","3QGHA0EA0JM3KKNCY0PQRLYANCJBWP","","null","<img src=""img/animal1.png"" style=""width:200px; border:14px solid green;"">","null","","","","","",""
"","image-keyboard-response","235","127351","0.0-235.0","3EKVH9QMEZQC9LLJPEWRNN29Q2Z2DD","A2PSR3CMNR1R9X","3QGHA0EA0JM3KKNCY0PQRLYANCJBWP","","482.89999997615814","img/animal3.png","74","484","1","0","3","0.7,0,0.8,0.7,0.8,0,0.7,0.8,0",""
"","html-keyboard-response","236","127654","0.0-236.0","3EKVH9QMEZQC9LLJPEWRNN29Q2Z2DD","A2PSR3CMNR1R9X","3QGHA0EA0JM3KKNCY0PQRLYANCJBWP","","null","<img src=""img/animal3.png"" style=""width:200px;border:14px solid red;"">","null","","","","","",""
"","image-keyboard-response","237","128822","0.0-237.0","3EKVH9QMEZQC9LLJPEWRNN29Q2Z2DD","A2PSR3CMNR1R9X","3QGHA0EA0JM3KKNCY0PQRLYANCJBWP","","1166.800000011921","img/animal1.png","76","1167.800000011921","3","1","1","0.7,0,0.8,0.7,0.8,0,0.7,0.8,0",""
"","html-keyboard-response","238","129123","0.0-238.0","3EKVH9QMEZQC9LLJPEWRNN29Q2Z2DD","A2PSR3CMNR1R9X","3QGHA0EA0JM3KKNCY0PQRLYANCJBWP","","null","<img src=""img/animal1.png"" style=""width:200px; border:14px solid green;"">","null","","","","","",""
"","image-keyboard-response","239","129734","0.0-239.0","3EKVH9QMEZQC9LLJPEWRNN29Q2Z2DD","A2PSR3CMNR1R9X","3QGHA0EA0JM3KKNCY0PQRLYANCJBWP","","609.8999999761581","img/animal5.png","74","611.0999999642372","1","1","2","0.7,0,0.8,0.7,0.8,0,0.7,0.8,0",""
"","html-keyboard-response","240","130036","0.0-240.0","3EKVH9QMEZQC9LLJPEWRNN29Q2Z2DD","A2PSR3CMNR1R9X","3QGHA0EA0JM3KKNCY0PQRLYANCJBWP","","null","<img src=""img/animal5.png"" style=""width:200px; border:14px solid green;"">","null","","","","","",""
"","image-keyboard-response","241","130525","0.0-241.0","3EKVH9QMEZQC9LLJPEWRNN29Q2Z2DD","A2PSR3CMNR1R9X","3QGHA0EA0JM3KKNCY0PQRLYANCJBWP","","488","img/animal3.png","74","488.7999999523163","1","1","3","0.7,0,0.8,0.7,0.8,0,0.7,0.8,0",""
"","html-keyboard-response","242","130828","0.0-242.0","3EKVH9QMEZQC9LLJPEWRNN29Q2Z2DD","A2PSR3CMNR1R9X","3QGHA0EA0JM3KKNCY0PQRLYANCJBWP","","null","<img src=""img/animal3.png"" style=""width:200px; border:14px solid green;"">","null","","","","","",""
"","image-keyboard-response","243","131318","0.0-243.0","3EKVH9QMEZQC9LLJPEWRNN29Q2Z2DD","A2PSR3CMNR1R9X","3QGHA0EA0JM3KKNCY0PQRLYANCJBWP","","489.60000002384186","img/animal5.png","74","490.39999997615814","1","0","2","0.7,0,0.8,0.7,0.8,0,0.7,0.8,0",""
"","html-keyboard-response","244","131620","0.0-244.0","3EKVH9QMEZQC9LLJPEWRNN29Q2Z2DD","A2PSR3CMNR1R9X","3QGHA0EA0JM3KKNCY0PQRLYANCJBWP","","null","<img src=""img/animal5.png"" style=""width:200px;border:14px solid red;"">","null","","","","","",""
"","image-keyboard-response","245","131966","0.0-245.0","3EKVH9QMEZQC9LLJPEWRNN29Q2Z2DD","A2PSR3CMNR1R9X","3QGHA0EA0JM3KKNCY0PQRLYANCJBWP","","344.30000001192093","img/animal5.png","74","345.5","1","1","2","0.7,0,0.8,0.7,0.8,0,0.7,0.8,0",""
"","html-keyboard-response","246","132269","0.0-246.0","3EKVH9QMEZQC9LLJPEWRNN29Q2Z2DD","A2PSR3CMNR1R9X","3QGHA0EA0JM3KKNCY0PQRLYANCJBWP","","null","<img src=""img/animal5.png"" style=""width:200px; border:14px solid green;"">","null","","","","","",""
"","image-keyboard-response","247","132646","0.0-247.0","3EKVH9QMEZQC9LLJPEWRNN29Q2Z2DD","A2PSR3CMNR1R9X","3QGHA0EA0JM3KKNCY0PQRLYANCJBWP","","375.4000000357628","img/animal5.png","74","376.5999999642372","1","1","2","0.7,0,0.8,0.7,0.8,0,0.7,0.8,0",""
"","html-keyboard-response","248","132948","0.0-248.0","3EKVH9QMEZQC9LLJPEWRNN29Q2Z2DD","A2PSR3CMNR1R9X","3QGHA0EA0JM3KKNCY0PQRLYANCJBWP","","null","<img src=""img/animal5.png"" style=""width:200px; border:14px solid green;"">","null","","","","","",""
"","image-keyboard-response","249","133278","0.0-249.0","3EKVH9QMEZQC9LLJPEWRNN29Q2Z2DD","A2PSR3CMNR1R9X","3QGHA0EA0JM3KKNCY0PQRLYANCJBWP","","329.60000002384186","img/animal5.png","74","330.30000001192093","1","0","2","0.7,0,0.8,0.7,0.8,0,0.7,0.8,0",""
"","html-keyboard-response","250","133581","0.0-250.0","3EKVH9QMEZQC9LLJPEWRNN29Q2Z2DD","A2PSR3CMNR1R9X","3QGHA0EA0JM3KKNCY0PQRLYANCJBWP","","null","<img src=""img/animal5.png"" style=""width:200px;border:14px solid red;"">","null","","","","","",""
"","image-keyboard-response","251","133926","0.0-251.0","3EKVH9QMEZQC9LLJPEWRNN29Q2Z2DD","A2PSR3CMNR1R9X","3QGHA0EA0JM3KKNCY0PQRLYANCJBWP","","344.4000000357628","img/animal5.png","74","345.60000002384186","1","1","2","0.7,0,0.8,0.7,0.8,0,0.7,0.8,0",""
"","html-keyboard-response","252","134228","0.0-252.0","3EKVH9QMEZQC9LLJPEWRNN29Q2Z2DD","A2PSR3CMNR1R9X","3QGHA0EA0JM3KKNCY0PQRLYANCJBWP","","null","<img src=""img/animal5.png"" style=""width:200px; border:14px solid green;"">","null","","","","","",""
"","image-keyboard-response","253","134766","0.0-253.0","3EKVH9QMEZQC9LLJPEWRNN29Q2Z2DD","A2PSR3CMNR1R9X","3QGHA0EA0JM3KKNCY0PQRLYANCJBWP","","536.6999999880791","img/animal1.png","76","537.7000000476837","3","0","1","0.7,0,0.8,0.7,0.8,0,0.7,0.8,0",""
"","html-keyboard-response","254","135067","0.0-254.0","3EKVH9QMEZQC9LLJPEWRNN29Q2Z2DD","A2PSR3CMNR1R9X","3QGHA0EA0JM3KKNCY0PQRLYANCJBWP","","null","<img src=""img/animal1.png"" style=""width:200px;border:14px solid red;"">","null","","","","","",""
"","image-keyboard-response","255","135630","0.0-255.0","3EKVH9QMEZQC9LLJPEWRNN29Q2Z2DD","A2PSR3CMNR1R9X","3QGHA0EA0JM3KKNCY0PQRLYANCJBWP","","561.3999999761581","img/animal5.png","74","562.6999999880791","1","1","2","0.7,0,0.8,0.7,0.8,0,0.7,0.8,0",""
"","html-keyboard-response","256","135933","0.0-256.0","3EKVH9QMEZQC9LLJPEWRNN29Q2Z2DD","A2PSR3CMNR1R9X","3QGHA0EA0JM3KKNCY0PQRLYANCJBWP","","null","<img src=""img/animal5.png"" style=""width:200px; border:14px solid green;"">","null","","","","","",""
"","image-keyboard-response","257","136598","0.0-257.0","3EKVH9QMEZQC9LLJPEWRNN29Q2Z2DD","A2PSR3CMNR1R9X","3QGHA0EA0JM3KKNCY0PQRLYANCJBWP","","664","img/animal3.png","74","665.1000000238419","1","1","3","0.7,0,0.8,0.7,0.8,0,0.7,0.8,0",""
"","html-keyboard-response","258","136901","0.0-258.0","3EKVH9QMEZQC9LLJPEWRNN29Q2Z2DD","A2PSR3CMNR1R9X","3QGHA0EA0JM3KKNCY0PQRLYANCJBWP","","null","<img src=""img/animal3.png"" style=""width:200px; border:14px solid green;"">","null","","","","","",""
"","image-keyboard-response","259","137591","0.0-259.0","3EKVH9QMEZQC9LLJPEWRNN29Q2Z2DD","A2PSR3CMNR1R9X","3QGHA0EA0JM3KKNCY0PQRLYANCJBWP","","688.3999999761581","img/animal1.png","76","689.6000000238419","3","1","1","0.7,0,0.8,0.7,0.8,0,0.7,0.8,0",""
"","html-keyboard-response","260","137894","0.0-260.0","3EKVH9QMEZQC9LLJPEWRNN29Q2Z2DD","A2PSR3CMNR1R9X","3QGHA0EA0JM3KKNCY0PQRLYANCJBWP","","null","<img src=""img/animal1.png"" style=""width:200px; border:14px solid green;"">","null","","","","","",""
"","image-keyboard-response","261","138534","0.0-261.0","3EKVH9QMEZQC9LLJPEWRNN29Q2Z2DD","A2PSR3CMNR1R9X","3QGHA0EA0JM3KKNCY0PQRLYANCJBWP","","638.6999999880791","img/animal5.png","74","639.9000000357628","1","1","2","0.7,0,0.8,0.7,0.8,0,0.7,0.8,0",""
"","html-keyboard-response","262","138836","0.0-262.0","3EKVH9QMEZQC9LLJPEWRNN29Q2Z2DD","A2PSR3CMNR1R9X","3QGHA0EA0JM3KKNCY0PQRLYANCJBWP","","null","<img src=""img/animal5.png"" style=""width:200px; border:14px solid green;"">","null","","","","","",""
"","image-keyboard-response","263","139493","0.0-263.0","3EKVH9QMEZQC9LLJPEWRNN29Q2Z2DD","A2PSR3CMNR1R9X","3QGHA0EA0JM3KKNCY0PQRLYANCJBWP","","656.1999999880791","img/animal1.png","76","657","3","1","1","0.7,0,0.8,0.7,0.8,0,0.7,0.8,0",""
"","html-keyboard-response","264","139794","0.0-264.0","3EKVH9QMEZQC9LLJPEWRNN29Q2Z2DD","A2PSR3CMNR1R9X","3QGHA0EA0JM3KKNCY0PQRLYANCJBWP","","null","<img src=""img/animal1.png"" style=""width:200px; border:14px solid green;"">","null","","","","","",""
"","image-keyboard-response","265","140230","0.0-265.0","3EKVH9QMEZQC9LLJPEWRNN29Q2Z2DD","A2PSR3CMNR1R9X","3QGHA0EA0JM3KKNCY0PQRLYANCJBWP","","435.10000002384186","img/animal5.png","74","435.69999998807907","1","0","2","0.7,0,0.8,0.7,0.8,0,0.7,0.8,0",""
"","html-keyboard-response","266","140534","0.0-266.0","3EKVH9QMEZQC9LLJPEWRNN29Q2Z2DD","A2PSR3CMNR1R9X","3QGHA0EA0JM3KKNCY0PQRLYANCJBWP","","null","<img src=""img/animal5.png"" style=""width:200px;border:14px solid red;"">","null","","","","","",""
"","image-keyboard-response","267","140910","0.0-267.0","3EKVH9QMEZQC9LLJPEWRNN29Q2Z2DD","A2PSR3CMNR1R9X","3QGHA0EA0JM3KKNCY0PQRLYANCJBWP","","374.9000000357628","img/animal5.png","74","376.0999999642372","1","1","2","0.7,0,0.8,0.7,0.8,0,0.7,0.8,0",""
"","html-keyboard-response","268","141213","0.0-268.0","3EKVH9QMEZQC9LLJPEWRNN29Q2Z2DD","A2PSR3CMNR1R9X","3QGHA0EA0JM3KKNCY0PQRLYANCJBWP","","null","<img src=""img/animal5.png"" style=""width:200px; border:14px solid green;"">","null","","","","","",""
"","image-keyboard-response","269","141781","0.0-269.0","3EKVH9QMEZQC9LLJPEWRNN29Q2Z2DD","A2PSR3CMNR1R9X","3QGHA0EA0JM3KKNCY0PQRLYANCJBWP","","567.9000000357628","img/animal1.png","76","568.2999999523163","3","1","1","0.7,0,0.8,0.7,0.8,0,0.7,0.8,0",""
"","html-keyboard-response","270","142083","0.0-270.0","3EKVH9QMEZQC9LLJPEWRNN29Q2Z2DD","A2PSR3CMNR1R9X","3QGHA0EA0JM3KKNCY0PQRLYANCJBWP","","null","<img src=""img/animal1.png"" style=""width:200px; border:14px solid green;"">","null","","","","","",""
"","image-keyboard-response","271","142478","0.0-271.0","3EKVH9QMEZQC9LLJPEWRNN29Q2Z2DD","A2PSR3CMNR1R9X","3QGHA0EA0JM3KKNCY0PQRLYANCJBWP","","395","img/animal1.png","76","395.5","3","1","1","0.7,0,0.8,0.7,0.8,0,0.7,0.8,0",""
"","html-keyboard-response","272","142780","0.0-272.0","3EKVH9QMEZQC9LLJPEWRNN29Q2Z2DD","A2PSR3CMNR1R9X","3QGHA0EA0JM3KKNCY0PQRLYANCJBWP","","null","<img src=""img/animal1.png"" style=""width:200px; border:14px solid green;"">","null","","","","","",""
"","image-keyboard-response","273","143118","0.0-273.0","3EKVH9QMEZQC9LLJPEWRNN29Q2Z2DD","A2PSR3CMNR1R9X","3QGHA0EA0JM3KKNCY0PQRLYANCJBWP","","337.5","img/animal1.png","76","338.19999998807907","3","0","1","0.7,0,0.8,0.7,0.8,0,0.7,0.8,0",""
"","html-keyboard-response","274","143420","0.0-274.0","3EKVH9QMEZQC9LLJPEWRNN29Q2Z2DD","A2PSR3CMNR1R9X","3QGHA0EA0JM3KKNCY0PQRLYANCJBWP","","null","<img src=""img/animal1.png"" style=""width:200px;border:14px solid red;"">","null","","","","","",""
"","image-keyboard-response","275","144006","0.0-275.0","3EKVH9QMEZQC9LLJPEWRNN29Q2Z2DD","A2PSR3CMNR1R9X","3QGHA0EA0JM3KKNCY0PQRLYANCJBWP","","585.3999999761581","img/animal5.png","74","586.0999999642372","1","1","2","0.7,0,0.8,0.7,0.8,0,0.7,0.8,0",""
"","html-keyboard-response","276","144308","0.0-276.0","3EKVH9QMEZQC9LLJPEWRNN29Q2Z2DD","A2PSR3CMNR1R9X","3QGHA0EA0JM3KKNCY0PQRLYANCJBWP","","null","<img src=""img/animal5.png"" style=""width:200px; border:14px solid green;"">","null","","","","","",""
"","image-keyboard-response","277","144838","0.0-277.0","3EKVH9QMEZQC9LLJPEWRNN29Q2Z2DD","A2PSR3CMNR1R9X","3QGHA0EA0JM3KKNCY0PQRLYANCJBWP","","528.5","img/animal1.png","76","529.7000000476837","3","1","1","0.7,0,0.8,0.7,0.8,0,0.7,0.8,0",""
"","html-keyboard-response","278","145141","0.0-278.0","3EKVH9QMEZQC9LLJPEWRNN29Q2Z2DD","A2PSR3CMNR1R9X","3QGHA0EA0JM3KKNCY0PQRLYANCJBWP","","null","<img src=""img/animal1.png"" style=""width:200px; border:14px solid green;"">","null","","","","","",""
"","image-keyboard-response","279","145701","0.0-279.0","3EKVH9QMEZQC9LLJPEWRNN29Q2Z2DD","A2PSR3CMNR1R9X","3QGHA0EA0JM3KKNCY0PQRLYANCJBWP","","559.5","img/animal3.png","74","560","1","1","3","0.7,0,0.8,0.7,0.8,0,0.7,0.8,0",""
"","html-keyboard-response","280","146002","0.0-280.0","3EKVH9QMEZQC9LLJPEWRNN29Q2Z2DD","A2PSR3CMNR1R9X","3QGHA0EA0JM3KKNCY0PQRLYANCJBWP","","null","<img src=""img/animal3.png"" style=""width:200px; border:14px solid green;"">","null","","","","","",""
"","image-keyboard-response","281","146502","0.0-281.0","3EKVH9QMEZQC9LLJPEWRNN29Q2Z2DD","A2PSR3CMNR1R9X","3QGHA0EA0JM3KKNCY0PQRLYANCJBWP","","498.7000000476837","img/animal3.png","74","500","1","1","3","0.7,0,0.8,0.7,0.8,0,0.7,0.8,0",""
"","html-keyboard-response","282","146806","0.0-282.0","3EKVH9QMEZQC9LLJPEWRNN29Q2Z2DD","A2PSR3CMNR1R9X","3QGHA0EA0JM3KKNCY0PQRLYANCJBWP","","null","<img src=""img/animal3.png"" style=""width:200px; border:14px solid green;"">","null","","","","","",""
"","image-keyboard-response","283","147118","0.0-283.0","3EKVH9QMEZQC9LLJPEWRNN29Q2Z2DD","A2PSR3CMNR1R9X","3QGHA0EA0JM3KKNCY0PQRLYANCJBWP","","311.69999998807907","img/animal3.png","74","312.39999997615814","1","1","3","0.7,0,0.8,0.7,0.8,0,0.7,0.8,0",""
"","html-keyboard-response","284","147420","0.0-284.0","3EKVH9QMEZQC9LLJPEWRNN29Q2Z2DD","A2PSR3CMNR1R9X","3QGHA0EA0JM3KKNCY0PQRLYANCJBWP","","null","<img src=""img/animal3.png"" style=""width:200px; border:14px solid green;"">","null","","","","","",""
"","image-keyboard-response","285","147718","0.0-285.0","3EKVH9QMEZQC9LLJPEWRNN29Q2Z2DD","A2PSR3CMNR1R9X","3QGHA0EA0JM3KKNCY0PQRLYANCJBWP","","295.89999997615814","img/animal3.png","74","296.80000001192093","1","1","3","0.7,0,0.8,0.7,0.8,0,0.7,0.8,0",""
"","html-keyboard-response","286","148019","0.0-286.0","3EKVH9QMEZQC9LLJPEWRNN29Q2Z2DD","A2PSR3CMNR1R9X","3QGHA0EA0JM3KKNCY0PQRLYANCJBWP","","null","<img src=""img/animal3.png"" style=""width:200px; border:14px solid green;"">","null","","","","","",""
"","image-keyboard-response","287","148326","0.0-287.0","3EKVH9QMEZQC9LLJPEWRNN29Q2Z2DD","A2PSR3CMNR1R9X","3QGHA0EA0JM3KKNCY0PQRLYANCJBWP","","305.80000001192093","img/animal3.png","74","306.9000000357628","1","1","3","0.7,0,0.8,0.7,0.8,0,0.7,0.8,0",""
"","html-keyboard-response","288","148628","0.0-288.0","3EKVH9QMEZQC9LLJPEWRNN29Q2Z2DD","A2PSR3CMNR1R9X","3QGHA0EA0JM3KKNCY0PQRLYANCJBWP","","null","<img src=""img/animal3.png"" style=""width:200px; border:14px solid green;"">","null","","","","","",""
"","image-keyboard-response","289","148901","0.0-289.0","3EKVH9QMEZQC9LLJPEWRNN29Q2Z2DD","A2PSR3CMNR1R9X","3QGHA0EA0JM3KKNCY0PQRLYANCJBWP","","272.10000002384186","img/animal5.png","74","273.19999998807907","1","0","2","0.7,0,0.8,0.7,0.8,0,0.7,0.8,0",""
"","html-keyboard-response","290","149203","0.0-290.0","3EKVH9QMEZQC9LLJPEWRNN29Q2Z2DD","A2PSR3CMNR1R9X","3QGHA0EA0JM3KKNCY0PQRLYANCJBWP","","null","<img src=""img/animal5.png"" style=""width:200px;border:14px solid red;"">","null","","","","","",""
"","image-keyboard-response","291","149966","0.0-291.0","3EKVH9QMEZQC9LLJPEWRNN29Q2Z2DD","A2PSR3CMNR1R9X","3QGHA0EA0JM3KKNCY0PQRLYANCJBWP","","762.1000000238419","img/animal3.png","74","763.0999999642372","1","1","3","0.7,0,0.8,0.7,0.8,0,0.7,0.8,0",""
"","html-keyboard-response","292","150268","0.0-292.0","3EKVH9QMEZQC9LLJPEWRNN29Q2Z2DD","A2PSR3CMNR1R9X","3QGHA0EA0JM3KKNCY0PQRLYANCJBWP","","null","<img src=""img/animal3.png"" style=""width:200px; border:14px solid green;"">","null","","","","","",""
"","image-keyboard-response","293","150758","0.0-293.0","3EKVH9QMEZQC9LLJPEWRNN29Q2Z2DD","A2PSR3CMNR1R9X","3QGHA0EA0JM3KKNCY0PQRLYANCJBWP","","488.80000001192093","img/animal5.png","75","490","2","1","2","0.7,0,0.8,0.7,0.8,0,0.7,0.8,0",""
"","html-keyboard-response","294","151059","0.0-294.0","3EKVH9QMEZQC9LLJPEWRNN29Q2Z2DD","A2PSR3CMNR1R9X","3QGHA0EA0JM3KKNCY0PQRLYANCJBWP","","null","<img src=""img/animal5.png"" style=""width:200px; border:14px solid green;"">","null","","","","","",""
"","image-keyboard-response","295","151438","0.0-295.0","3EKVH9QMEZQC9LLJPEWRNN29Q2Z2DD","A2PSR3CMNR1R9X","3QGHA0EA0JM3KKNCY0PQRLYANCJBWP","","377.69999998807907","img/animal5.png","75","378.80000001192093","2","0","2","0.7,0,0.8,0.7,0.8,0,0.7,0.8,0",""
"","html-keyboard-response","296","151740","0.0-296.0","3EKVH9QMEZQC9LLJPEWRNN29Q2Z2DD","A2PSR3CMNR1R9X","3QGHA0EA0JM3KKNCY0PQRLYANCJBWP","","null","<img src=""img/animal5.png"" style=""width:200px;border:14px solid red;"">","null","","","","","",""
"","image-keyboard-response","297","152230","0.0-297.0","3EKVH9QMEZQC9LLJPEWRNN29Q2Z2DD","A2PSR3CMNR1R9X","3QGHA0EA0JM3KKNCY0PQRLYANCJBWP","","488.5","img/animal3.png","74","489.60000002384186","1","1","3","0.7,0,0.8,0.7,0.8,0,0.7,0.8,0",""
"","html-keyboard-response","298","152532","0.0-298.0","3EKVH9QMEZQC9LLJPEWRNN29Q2Z2DD","A2PSR3CMNR1R9X","3QGHA0EA0JM3KKNCY0PQRLYANCJBWP","","null","<img src=""img/animal3.png"" style=""width:200px; border:14px solid green;"">","null","","","","","",""
"","image-keyboard-response","299","152933","0.0-299.0","3EKVH9QMEZQC9LLJPEWRNN29Q2Z2DD","A2PSR3CMNR1R9X","3QGHA0EA0JM3KKNCY0PQRLYANCJBWP","","399.9000000357628","img/animal5.png","75","400.89999997615814","2","1","2","0.7,0,0.8,0.7,0.8,0,0.7,0.8,0",""
"","html-keyboard-response","300","153235","0.0-300.0","3EKVH9QMEZQC9LLJPEWRNN29Q2Z2DD","A2PSR3CMNR1R9X","3QGHA0EA0JM3KKNCY0PQRLYANCJBWP","","null","<img src=""img/animal5.png"" style=""width:200px; border:14px solid green;"">","null","","","","","",""
"","image-keyboard-response","301","153622","0.0-301.0","3EKVH9QMEZQC9LLJPEWRNN29Q2Z2DD","A2PSR3CMNR1R9X","3QGHA0EA0JM3KKNCY0PQRLYANCJBWP","","385.60000002384186","img/animal1.png","74","386.80000001192093","1","0","1","0.7,0,0.8,0.7,0.8,0,0.7,0.8,0",""
"","html-keyboard-response","302","153924","0.0-302.0","3EKVH9QMEZQC9LLJPEWRNN29Q2Z2DD","A2PSR3CMNR1R9X","3QGHA0EA0JM3KKNCY0PQRLYANCJBWP","","null","<img src=""img/animal1.png"" style=""width:200px;border:14px solid red;"">","null","","","","","",""
"","image-keyboard-response","303","154006","0.0-303.0","3EKVH9QMEZQC9LLJPEWRNN29Q2Z2DD","A2PSR3CMNR1R9X","3QGHA0EA0JM3KKNCY0PQRLYANCJBWP","","81.30000001192093","img/animal3.png","76","81.90000003576279","3","0","3","0.7,0,0.8,0.7,0.8,0,0.7,0.8,0",""
"","html-keyboard-response","304","154307","0.0-304.0","3EKVH9QMEZQC9LLJPEWRNN29Q2Z2DD","A2PSR3CMNR1R9X","3QGHA0EA0JM3KKNCY0PQRLYANCJBWP","","null","<img src=""img/animal3.png"" style=""width:200px;border:14px solid red;"">","null","","","","","",""
"","image-keyboard-response","305","155062","0.0-305.0","3EKVH9QMEZQC9LLJPEWRNN29Q2Z2DD","A2PSR3CMNR1R9X","3QGHA0EA0JM3KKNCY0PQRLYANCJBWP","","753.6999999880791","img/animal1.png","76","754.8000000119209","3","1","1","0.7,0,0.8,0.7,0.8,0,0.7,0.8,0",""
"","html-keyboard-response","306","155364","0.0-306.0","3EKVH9QMEZQC9LLJPEWRNN29Q2Z2DD","A2PSR3CMNR1R9X","3QGHA0EA0JM3KKNCY0PQRLYANCJBWP","","null","<img src=""img/animal1.png"" style=""width:200px; border:14px solid green;"">","null","","","","","",""
"","image-keyboard-response","307","155757","0.0-307.0","3EKVH9QMEZQC9LLJPEWRNN29Q2Z2DD","A2PSR3CMNR1R9X","3QGHA0EA0JM3KKNCY0PQRLYANCJBWP","","392.0999999642372","img/animal1.png","76","393.0999999642372","3","1","1","0.7,0,0.8,0.7,0.8,0,0.7,0.8,0",""
"","html-keyboard-response","308","156059","0.0-308.0","3EKVH9QMEZQC9LLJPEWRNN29Q2Z2DD","A2PSR3CMNR1R9X","3QGHA0EA0JM3KKNCY0PQRLYANCJBWP","","null","<img src=""img/animal1.png"" style=""width:200px; border:14px solid green;"">","null","","","","","",""
"","image-keyboard-response","309","156390","0.0-309.0","3EKVH9QMEZQC9LLJPEWRNN29Q2Z2DD","A2PSR3CMNR1R9X","3QGHA0EA0JM3KKNCY0PQRLYANCJBWP","","329.7000000476837","img/animal1.png","76","330.69999998807907","3","1","1","0.7,0,0.8,0.7,0.8,0,0.7,0.8,0",""
"","html-keyboard-response","310","156693","0.0-310.0","3EKVH9QMEZQC9LLJPEWRNN29Q2Z2DD","A2PSR3CMNR1R9X","3QGHA0EA0JM3KKNCY0PQRLYANCJBWP","","null","<img src=""img/animal1.png"" style=""width:200px; border:14px solid green;"">","null","","","","","",""
"","image-keyboard-response","311","157446","0.0-311.0","3EKVH9QMEZQC9LLJPEWRNN29Q2Z2DD","A2PSR3CMNR1R9X","3QGHA0EA0JM3KKNCY0PQRLYANCJBWP","","752.5","img/animal5.png","75","753.1000000238419","2","1","2","0.7,0,0.8,0.7,0.8,0,0.7,0.8,0",""
"","html-keyboard-response","312","157748","0.0-312.0","3EKVH9QMEZQC9LLJPEWRNN29Q2Z2DD","A2PSR3CMNR1R9X","3QGHA0EA0JM3KKNCY0PQRLYANCJBWP","","null","<img src=""img/animal5.png"" style=""width:200px; border:14px solid green;"">","null","","","","","",""
"","image-keyboard-response","313","158135","0.0-313.0","3EKVH9QMEZQC9LLJPEWRNN29Q2Z2DD","A2PSR3CMNR1R9X","3QGHA0EA0JM3KKNCY0PQRLYANCJBWP","","386.0999999642372","img/animal3.png","74","386.69999998807907","1","0","3","0.7,0,0.8,0.7,0.8,0,0.7,0.8,0",""
"","html-keyboard-response","314","158437","0.0-314.0","3EKVH9QMEZQC9LLJPEWRNN29Q2Z2DD","A2PSR3CMNR1R9X","3QGHA0EA0JM3KKNCY0PQRLYANCJBWP","","null","<img src=""img/animal3.png"" style=""width:200px;border:14px solid red;"">","null","","","","","",""
"","image-keyboard-response","315","158942","0.0-315.0","3EKVH9QMEZQC9LLJPEWRNN29Q2Z2DD","A2PSR3CMNR1R9X","3QGHA0EA0JM3KKNCY0PQRLYANCJBWP","","504.5","img/animal5.png","75","505.19999998807907","2","1","2","0.7,0,0.8,0.7,0.8,0,0.7,0.8,0",""
"","html-keyboard-response","316","159245","0.0-316.0","3EKVH9QMEZQC9LLJPEWRNN29Q2Z2DD","A2PSR3CMNR1R9X","3QGHA0EA0JM3KKNCY0PQRLYANCJBWP","","null","<img src=""img/animal5.png"" style=""width:200px; border:14px solid green;"">","null","","","","","",""
"","image-keyboard-response","317","159869","0.0-317.0","3EKVH9QMEZQC9LLJPEWRNN29Q2Z2DD","A2PSR3CMNR1R9X","3QGHA0EA0JM3KKNCY0PQRLYANCJBWP","","623.1000000238419","img/animal3.png","76","624","3","0","3","0.7,0,0.8,0.7,0.8,0,0.7,0.8,0",""
"","html-keyboard-response","318","160171","0.0-318.0","3EKVH9QMEZQC9LLJPEWRNN29Q2Z2DD","A2PSR3CMNR1R9X","3QGHA0EA0JM3KKNCY0PQRLYANCJBWP","","null","<img src=""img/animal3.png"" style=""width:200px;border:14px solid red;"">","null","","","","","",""
"","image-keyboard-response","319","161022","0.0-319.0","3EKVH9QMEZQC9LLJPEWRNN29Q2Z2DD","A2PSR3CMNR1R9X","3QGHA0EA0JM3KKNCY0PQRLYANCJBWP","","850.1999999880791","img/animal1.png","76","851.3000000119209","3","0","1","0.7,0,0.8,0.7,0.8,0,0.7,0.8,0",""
"","html-keyboard-response","320","161324","0.0-320.0","3EKVH9QMEZQC9LLJPEWRNN29Q2Z2DD","A2PSR3CMNR1R9X","3QGHA0EA0JM3KKNCY0PQRLYANCJBWP","","null","<img src=""img/animal1.png"" style=""width:200px;border:14px solid red;"">","null","","","","","",""
"","image-keyboard-response","321","161870","0.0-321.0","3EKVH9QMEZQC9LLJPEWRNN29Q2Z2DD","A2PSR3CMNR1R9X","3QGHA0EA0JM3KKNCY0PQRLYANCJBWP","","544.6999999880791","img/animal3.png","74","546","1","1","3","0.7,0,0.8,0.7,0.8,0,0.7,0.8,0",""
"","html-keyboard-response","322","162172","0.0-322.0","3EKVH9QMEZQC9LLJPEWRNN29Q2Z2DD","A2PSR3CMNR1R9X","3QGHA0EA0JM3KKNCY0PQRLYANCJBWP","","null","<img src=""img/animal3.png"" style=""width:200px; border:14px solid green;"">","null","","","","","",""
"","image-keyboard-response","323","162510","0.0-323.0","3EKVH9QMEZQC9LLJPEWRNN29Q2Z2DD","A2PSR3CMNR1R9X","3QGHA0EA0JM3KKNCY0PQRLYANCJBWP","","336.69999998807907","img/animal3.png","74","338","1","1","3","0.7,0,0.8,0.7,0.8,0,0.7,0.8,0",""
"","html-keyboard-response","324","162813","0.0-324.0","3EKVH9QMEZQC9LLJPEWRNN29Q2Z2DD","A2PSR3CMNR1R9X","3QGHA0EA0JM3KKNCY0PQRLYANCJBWP","","null","<img src=""img/animal3.png"" style=""width:200px; border:14px solid green;"">","null","","","","","",""
"","image-keyboard-response","325","163358","0.0-325.0","3EKVH9QMEZQC9LLJPEWRNN29Q2Z2DD","A2PSR3CMNR1R9X","3QGHA0EA0JM3KKNCY0PQRLYANCJBWP","","544.6999999880791","img/animal5.png","75","545.4000000357628","2","1","2","0.7,0,0.8,0.7,0.8,0,0.7,0.8,0",""
"","html-keyboard-response","326","163660","0.0-326.0","3EKVH9QMEZQC9LLJPEWRNN29Q2Z2DD","A2PSR3CMNR1R9X","3QGHA0EA0JM3KKNCY0PQRLYANCJBWP","","null","<img src=""img/animal5.png"" style=""width:200px; border:14px solid green;"">","null","","","","","",""
"","image-keyboard-response","327","164054","0.0-327.0","3EKVH9QMEZQC9LLJPEWRNN29Q2Z2DD","A2PSR3CMNR1R9X","3QGHA0EA0JM3KKNCY0PQRLYANCJBWP","","392.39999997615814","img/animal5.png","75","393.69999998807907","2","1","2","0.7,0,0.8,0.7,0.8,0,0.7,0.8,0",""
"","html-keyboard-response","328","164356","0.0-328.0","3EKVH9QMEZQC9LLJPEWRNN29Q2Z2DD","A2PSR3CMNR1R9X","3QGHA0EA0JM3KKNCY0PQRLYANCJBWP","","null","<img src=""img/animal5.png"" style=""width:200px; border:14px solid green;"">","null","","","","","",""
"","image-keyboard-response","329","164910","0.0-329.0","3EKVH9QMEZQC9LLJPEWRNN29Q2Z2DD","A2PSR3CMNR1R9X","3QGHA0EA0JM3KKNCY0PQRLYANCJBWP","","552.1999999880791","img/animal1.png","76","553.5","3","1","1","0.7,0,0.8,0.7,0.8,0,0.7,0.8,0",""
"","html-keyboard-response","330","165212","0.0-330.0","3EKVH9QMEZQC9LLJPEWRNN29Q2Z2DD","A2PSR3CMNR1R9X","3QGHA0EA0JM3KKNCY0PQRLYANCJBWP","","null","<img src=""img/animal1.png"" style=""width:200px; border:14px solid green;"">","null","","","","","",""
"","image-keyboard-response","331","165797","0.0-331.0","3EKVH9QMEZQC9LLJPEWRNN29Q2Z2DD","A2PSR3CMNR1R9X","3QGHA0EA0JM3KKNCY0PQRLYANCJBWP","","584","img/animal3.png","74","584.9000000357628","1","1","3","0.7,0,0.8,0.7,0.8,0,0.7,0.8,0",""
"","html-keyboard-response","332","166099","0.0-332.0","3EKVH9QMEZQC9LLJPEWRNN29Q2Z2DD","A2PSR3CMNR1R9X","3QGHA0EA0JM3KKNCY0PQRLYANCJBWP","","null","<img src=""img/animal3.png"" style=""width:200px; border:14px solid green;"">","null","","","","","",""
"","image-keyboard-response","333","166581","0.0-333.0","3EKVH9QMEZQC9LLJPEWRNN29Q2Z2DD","A2PSR3CMNR1R9X","3QGHA0EA0JM3KKNCY0PQRLYANCJBWP","","481.4000000357628","img/animal1.png","75","482.19999998807907","2","0","1","0.7,0,0.8,0.7,0.8,0,0.7,0.8,0",""
"","html-keyboard-response","334","166883","0.0-334.0","3EKVH9QMEZQC9LLJPEWRNN29Q2Z2DD","A2PSR3CMNR1R9X","3QGHA0EA0JM3KKNCY0PQRLYANCJBWP","","null","<img src=""img/animal1.png"" style=""width:200px;border:14px solid red;"">","null","","","","","",""
"","image-keyboard-response","335","167509","0.0-335.0","3EKVH9QMEZQC9LLJPEWRNN29Q2Z2DD","A2PSR3CMNR1R9X","3QGHA0EA0JM3KKNCY0PQRLYANCJBWP","","624.8000000119209","img/animal3.png","74","625.8000000119209","1","1","3","0.7,0,0.8,0.7,0.8,0,0.7,0.8,0",""
"","html-keyboard-response","336","167810","0.0-336.0","3EKVH9QMEZQC9LLJPEWRNN29Q2Z2DD","A2PSR3CMNR1R9X","3QGHA0EA0JM3KKNCY0PQRLYANCJBWP","","null","<img src=""img/animal3.png"" style=""width:200px; border:14px solid green;"">","null","","","","","",""
"","image-keyboard-response","337","168341","0.0-337.0","3EKVH9QMEZQC9LLJPEWRNN29Q2Z2DD","A2PSR3CMNR1R9X","3QGHA0EA0JM3KKNCY0PQRLYANCJBWP","","531.1000000238419","img/animal1.png","76","531.6000000238419","3","1","1","0.7,0,0.8,0.7,0.8,0,0.7,0.8,0",""
"","html-keyboard-response","338","168644","0.0-338.0","3EKVH9QMEZQC9LLJPEWRNN29Q2Z2DD","A2PSR3CMNR1R9X","3QGHA0EA0JM3KKNCY0PQRLYANCJBWP","","null","<img src=""img/animal1.png"" style=""width:200px; border:14px solid green;"">","null","","","","","",""
"","image-keyboard-response","339","169094","0.0-339.0","3EKVH9QMEZQC9LLJPEWRNN29Q2Z2DD","A2PSR3CMNR1R9X","3QGHA0EA0JM3KKNCY0PQRLYANCJBWP","","449.80000001192093","img/animal3.png","74","450.4000000357628","1","1","3","0.7,0,0.8,0.7,0.8,0,0.7,0.8,0",""
"","html-keyboard-response","340","169398","0.0-340.0","3EKVH9QMEZQC9LLJPEWRNN29Q2Z2DD","A2PSR3CMNR1R9X","3QGHA0EA0JM3KKNCY0PQRLYANCJBWP","","null","<img src=""img/animal3.png"" style=""width:200px; border:14px solid green;"">","null","","","","","",""
"","image-keyboard-response","341","169813","0.0-341.0","3EKVH9QMEZQC9LLJPEWRNN29Q2Z2DD","A2PSR3CMNR1R9X","3QGHA0EA0JM3KKNCY0PQRLYANCJBWP","","414.4000000357628","img/animal1.png","76","415.5","3","1","1","0.7,0,0.8,0.7,0.8,0,0.7,0.8,0",""
"","html-keyboard-response","342","170114","0.0-342.0","3EKVH9QMEZQC9LLJPEWRNN29Q2Z2DD","A2PSR3CMNR1R9X","3QGHA0EA0JM3KKNCY0PQRLYANCJBWP","","null","<img src=""img/animal1.png"" style=""width:200px; border:14px solid green;"">","null","","","","","",""
"","image-keyboard-response","343","170637","0.0-343.0","3EKVH9QMEZQC9LLJPEWRNN29Q2Z2DD","A2PSR3CMNR1R9X","3QGHA0EA0JM3KKNCY0PQRLYANCJBWP","","521.3000000119209","img/animal5.png","75","522.3000000119209","2","1","2","0.7,0,0.8,0.7,0.8,0,0.7,0.8,0",""
"","html-keyboard-response","344","170939","0.0-344.0","3EKVH9QMEZQC9LLJPEWRNN29Q2Z2DD","A2PSR3CMNR1R9X","3QGHA0EA0JM3KKNCY0PQRLYANCJBWP","","null","<img src=""img/animal5.png"" style=""width:200px; border:14px solid green;"">","null","","","","","",""
"","image-keyboard-response","345","171422","0.0-345.0","3EKVH9QMEZQC9LLJPEWRNN29Q2Z2DD","A2PSR3CMNR1R9X","3QGHA0EA0JM3KKNCY0PQRLYANCJBWP","","481.60000002384186","img/animal1.png","74","482.89999997615814","1","1","1","0.7,0,0.8,0.7,0.8,0,0.7,0.8,0",""
"","html-keyboard-response","346","171724","0.0-346.0","3EKVH9QMEZQC9LLJPEWRNN29Q2Z2DD","A2PSR3CMNR1R9X","3QGHA0EA0JM3KKNCY0PQRLYANCJBWP","","null","<img src=""img/animal1.png"" style=""width:200px; border:14px solid green;"">","null","","","","","",""
"","image-keyboard-response","347","172662","0.0-347.0","3EKVH9QMEZQC9LLJPEWRNN29Q2Z2DD","A2PSR3CMNR1R9X","3QGHA0EA0JM3KKNCY0PQRLYANCJBWP","","936.6999999880791","img/animal5.png","74","937.8000000119209","1","0","2","0.7,0,0.8,0.7,0.8,0,0.7,0.8,0",""
"","html-keyboard-response","348","172965","0.0-348.0","3EKVH9QMEZQC9LLJPEWRNN29Q2Z2DD","A2PSR3CMNR1R9X","3QGHA0EA0JM3KKNCY0PQRLYANCJBWP","","null","<img src=""img/animal5.png"" style=""width:200px;border:14px solid red;"">","null","","","","","",""
"","image-keyboard-response","349","173646","0.0-349.0","3EKVH9QMEZQC9LLJPEWRNN29Q2Z2DD","A2PSR3CMNR1R9X","3QGHA0EA0JM3KKNCY0PQRLYANCJBWP","","679.5999999642372","img/animal3.png","74","680.8000000119209","1","1","3","0.7,0,0.8,0.7,0.8,0,0.7,0.8,0",""
"","html-keyboard-response","350","173948","0.0-350.0","3EKVH9QMEZQC9LLJPEWRNN29Q2Z2DD","A2PSR3CMNR1R9X","3QGHA0EA0JM3KKNCY0PQRLYANCJBWP","","null","<img src=""img/animal3.png"" style=""width:200px; border:14px solid green;"">","null","","","","","",""
"","image-keyboard-response","351","174503","0.0-351.0","3EKVH9QMEZQC9LLJPEWRNN29Q2Z2DD","A2PSR3CMNR1R9X","3QGHA0EA0JM3KKNCY0PQRLYANCJBWP","","553.8999999761581","img/animal1.png","76","555.1000000238419","3","0","1","0.7,0,0.8,0.7,0.8,0,0.7,0.8,0",""
"","html-keyboard-response","352","174810","0.0-352.0","3EKVH9QMEZQC9LLJPEWRNN29Q2Z2DD","A2PSR3CMNR1R9X","3QGHA0EA0JM3KKNCY0PQRLYANCJBWP","","null","<img src=""img/animal1.png"" style=""width:200px;border:14px solid red;"">","null","","","","","",""
"","image-keyboard-response","353","175214","0.0-353.0","3EKVH9QMEZQC9LLJPEWRNN29Q2Z2DD","A2PSR3CMNR1R9X","3QGHA0EA0JM3KKNCY0PQRLYANCJBWP","","403.39999997615814","img/animal1.png","76","404","3","0","1","0.7,0,0.8,0.7,0.8,0,0.7,0.8,0",""
"","html-keyboard-response","354","175516","0.0-354.0","3EKVH9QMEZQC9LLJPEWRNN29Q2Z2DD","A2PSR3CMNR1R9X","3QGHA0EA0JM3KKNCY0PQRLYANCJBWP","","null","<img src=""img/animal1.png"" style=""width:200px;border:14px solid red;"">","null","","","","","",""
"","image-keyboard-response","355","175901","0.0-355.0","3EKVH9QMEZQC9LLJPEWRNN29Q2Z2DD","A2PSR3CMNR1R9X","3QGHA0EA0JM3KKNCY0PQRLYANCJBWP","","383.69999998807907","img/animal1.png","76","384.60000002384186","3","1","1","0.7,0,0.8,0.7,0.8,0,0.7,0.8,0",""
"","html-keyboard-response","356","176204","0.0-356.0","3EKVH9QMEZQC9LLJPEWRNN29Q2Z2DD","A2PSR3CMNR1R9X","3QGHA0EA0JM3KKNCY0PQRLYANCJBWP","","null","<img src=""img/animal1.png"" style=""width:200px; border:14px solid green;"">","null","","","","","",""
"","image-keyboard-response","357","176765","0.0-357.0","3EKVH9QMEZQC9LLJPEWRNN29Q2Z2DD","A2PSR3CMNR1R9X","3QGHA0EA0JM3KKNCY0PQRLYANCJBWP","","560.1000000238419","img/animal3.png","74","561.1000000238419","1","1","3","0.7,0,0.8,0.7,0.8,0,0.7,0.8,0",""
"","html-keyboard-response","358","177067","0.0-358.0","3EKVH9QMEZQC9LLJPEWRNN29Q2Z2DD","A2PSR3CMNR1R9X","3QGHA0EA0JM3KKNCY0PQRLYANCJBWP","","null","<img src=""img/animal3.png"" style=""width:200px; border:14px solid green;"">","null","","","","","",""
"","image-keyboard-response","359","177702","0.0-359.0","3EKVH9QMEZQC9LLJPEWRNN29Q2Z2DD","A2PSR3CMNR1R9X","3QGHA0EA0JM3KKNCY0PQRLYANCJBWP","","633.6999999880791","img/animal5.png","75","634.8999999761581","2","1","2","0.7,0,0.8,0.7,0.8,0,0.7,0.8,0",""
"","html-keyboard-response","360","178004","0.0-360.0","3EKVH9QMEZQC9LLJPEWRNN29Q2Z2DD","A2PSR3CMNR1R9X","3QGHA0EA0JM3KKNCY0PQRLYANCJBWP","","null","<img src=""img/animal5.png"" style=""width:200px; border:14px solid green;"">","null","","","","","",""
"","image-keyboard-response","361","178390","0.0-361.0","3EKVH9QMEZQC9LLJPEWRNN29Q2Z2DD","A2PSR3CMNR1R9X","3QGHA0EA0JM3KKNCY0PQRLYANCJBWP","","385","img/animal5.png","75","386.19999998807907","2","0","2","0.7,0,0.8,0.7,0.8,0,0.7,0.8,0",""
"","html-keyboard-response","362","178693","0.0-362.0","3EKVH9QMEZQC9LLJPEWRNN29Q2Z2DD","A2PSR3CMNR1R9X","3QGHA0EA0JM3KKNCY0PQRLYANCJBWP","","null","<img src=""img/animal5.png"" style=""width:200px;border:14px solid red;"">","null","","","","","",""
"","instructions","363","182003","0.0-363.0","3EKVH9QMEZQC9LLJPEWRNN29Q2Z2DD","A2PSR3CMNR1R9X","3QGHA0EA0JM3KKNCY0PQRLYANCJBWP","[{""page_index"":0,""viewing_time"":3309.899999976158}]","3310","","","","","","","",""
"","survey-text","364","184433","0.0-364.0","3EKVH9QMEZQC9LLJPEWRNN29Q2Z2DD","A2PSR3CMNR1R9X","3QGHA0EA0JM3KKNCY0PQRLYANCJBWP","","2428.5","","","","","","","","{""Q0"":""A2PSR3CMNR1R9X""}"
