"success","trial_type","trial_index","time_elapsed","internal_node_id","assignmentID","mturkID","hitID","view_history","rt","stimulus","key_press","reactionTime","a","r","s","reward_cond","responses"
"true","fullscreen","0","2504","0.0-0.0","3A1COHJ8NKH47GSARROIOZUA4TXH8F","A2TLN8489YGY81","3S829FDFT2NBOHQMM1CIOU0HZYXDXL","","","","","","","","","",""
"","instructions","1","34796","0.0-1.0","3A1COHJ8NKH47GSARROIOZUA4TXH8F","A2TLN8489YGY81","3S829FDFT2NBOHQMM1CIOU0HZYXDXL","[{""page_index"":0,""viewing_time"":8326.60000000149},{""page_index"":1,""viewing_time"":2856.7999999970198},{""page_index"":2,""viewing_time"":3155.7000000029802},{""page_index"":3,""viewing_time"":4167},{""page_index"":4,""viewing_time"":2129},{""page_index"":5,""viewing_time"":3333.60000000149},{""page_index"":6,""viewing_time"":6949},{""page_index"":7,""viewing_time"":1372}]","32290.80000000447","","","","","","","",""
"","image-keyboard-response","2","37274","0.0-2.0","3A1COHJ8NKH47GSARROIOZUA4TXH8F","A2TLN8489YGY81","3S829FDFT2NBOHQMM1CIOU0HZYXDXL","","2476.10000000149","img/animal1.png","74","2477.39999999851","1","1","2","0.5,0,1,1,0.5,0,0,1,0.5",""
"","html-keyboard-response","3","37576","0.0-3.0","3A1COHJ8NKH47GSARROIOZUA4TXH8F","A2TLN8489YGY81","3S829FDFT2NBOHQMM1CIOU0HZYXDXL","","null","<img src=""img/animal1.png"" style=""width:200px; border:14px solid green;"">","null","","","","","",""
"","image-keyboard-response","4","38290","0.0-4.0","3A1COHJ8NKH47GSARROIOZUA4TXH8F","A2TLN8489YGY81","3S829FDFT2NBOHQMM1CIOU0HZYXDXL","","712.7999999970198","img/animal1.png","74","714","1","1","2","0.5,0,1,1,0.5,0,0,1,0.5",""
"","html-keyboard-response","5","38592","0.0-5.0","3A1COHJ8NKH47GSARROIOZUA4TXH8F","A2TLN8489YGY81","3S829FDFT2NBOHQMM1CIOU0HZYXDXL","","null","<img src=""img/animal1.png"" style=""width:200px; border:14px solid green;"">","null","","","","","",""
"","image-keyboard-response","6","39573","0.0-6.0","3A1COHJ8NKH47GSARROIOZUA4TXH8F","A2TLN8489YGY81","3S829FDFT2NBOHQMM1CIOU0HZYXDXL","","980.2000000029802","img/animal2.png","75","981","2","0","1","0.5,0,1,1,0.5,0,0,1,0.5",""
"","html-keyboard-response","7","39876","0.0-7.0","3A1COHJ8NKH47GSARROIOZUA4TXH8F","A2TLN8489YGY81","3S829FDFT2NBOHQMM1CIOU0HZYXDXL","","null","<img src=""img/animal2.png"" style=""width:200px;border:14px solid red;"">","null","","","","","",""
"","image-keyboard-response","8","40638","0.0-8.0","3A1COHJ8NKH47GSARROIOZUA4TXH8F","A2TLN8489YGY81","3S829FDFT2NBOHQMM1CIOU0HZYXDXL","","761.1000000014901","img/animal1.png","74","761.8999999985099","1","1","2","0.5,0,1,1,0.5,0,0,1,0.5",""
"","html-keyboard-response","9","40940","0.0-9.0","3A1COHJ8NKH47GSARROIOZUA4TXH8F","A2TLN8489YGY81","3S829FDFT2NBOHQMM1CIOU0HZYXDXL","","null","<img src=""img/animal1.png"" style=""width:200px; border:14px solid green;"">","null","","","","","",""
"","image-keyboard-response","10","42180","0.0-10.0","3A1COHJ8NKH47GSARROIOZUA4TXH8F","A2TLN8489YGY81","3S829FDFT2NBOHQMM1CIOU0HZYXDXL","","1238.6000000014901","img/animal3.png","75","1239.3999999985099","2","1","3","0.5,0,1,1,0.5,0,0,1,0.5",""
"","html-keyboard-response","11","42481","0.0-11.0","3A1COHJ8NKH47GSARROIOZUA4TXH8F","A2TLN8489YGY81","3S829FDFT2NBOHQMM1CIOU0HZYXDXL","","null","<img src=""img/animal3.png"" style=""width:200px; border:14px solid green;"">","null","","","","","",""
"","image-keyboard-response","12","43202","0.0-12.0","3A1COHJ8NKH47GSARROIOZUA4TXH8F","A2TLN8489YGY81","3S829FDFT2NBOHQMM1CIOU0HZYXDXL","","720.2999999970198","img/animal1.png","74","720.8999999985099","1","1","2","0.5,0,1,1,0.5,0,0,1,0.5",""
"","html-keyboard-response","13","43504","0.0-13.0","3A1COHJ8NKH47GSARROIOZUA4TXH8F","A2TLN8489YGY81","3S829FDFT2NBOHQMM1CIOU0HZYXDXL","","null","<img src=""img/animal1.png"" style=""width:200px; border:14px solid green;"">","null","","","","","",""
"","image-keyboard-response","14","44060","0.0-14.0","3A1COHJ8NKH47GSARROIOZUA4TXH8F","A2TLN8489YGY81","3S829FDFT2NBOHQMM1CIOU0HZYXDXL","","554.8999999985099","img/animal3.png","75","555.7000000029802","2","1","3","0.5,0,1,1,0.5,0,0,1,0.5",""
"","html-keyboard-response","15","44362","0.0-15.0","3A1COHJ8NKH47GSARROIOZUA4TXH8F","A2TLN8489YGY81","3S829FDFT2NBOHQMM1CIOU0HZYXDXL","","null","<img src=""img/animal3.png"" style=""width:200px; border:14px solid green;"">","null","","","","","",""
"","image-keyboard-response","16","44900","0.0-16.0","3A1COHJ8NKH47GSARROIOZUA4TXH8F","A2TLN8489YGY81","3S829FDFT2NBOHQMM1CIOU0HZYXDXL","","536.7999999970198","img/animal3.png","75","537.5","2","1","3","0.5,0,1,1,0.5,0,0,1,0.5",""
"","html-keyboard-response","17","45201","0.0-17.0","3A1COHJ8NKH47GSARROIOZUA4TXH8F","A2TLN8489YGY81","3S829FDFT2NBOHQMM1CIOU0HZYXDXL","","null","<img src=""img/animal3.png"" style=""width:200px; border:14px solid green;"">","null","","","","","",""
"","image-keyboard-response","18","45636","0.0-18.0","3A1COHJ8NKH47GSARROIOZUA4TXH8F","A2TLN8489YGY81","3S829FDFT2NBOHQMM1CIOU0HZYXDXL","","433.5","img/animal3.png","75","434.40000000596046","2","1","3","0.5,0,1,1,0.5,0,0,1,0.5",""
"","html-keyboard-response","19","45938","0.0-19.0","3A1COHJ8NKH47GSARROIOZUA4TXH8F","A2TLN8489YGY81","3S829FDFT2NBOHQMM1CIOU0HZYXDXL","","null","<img src=""img/animal3.png"" style=""width:200px; border:14px solid green;"">","null","","","","","",""
"","image-keyboard-response","20","46420","0.0-20.0","3A1COHJ8NKH47GSARROIOZUA4TXH8F","A2TLN8489YGY81","3S829FDFT2NBOHQMM1CIOU0HZYXDXL","","480.8999999985099","img/animal3.png","75","482","2","1","3","0.5,0,1,1,0.5,0,0,1,0.5",""
"","html-keyboard-response","21","46721","0.0-21.0","3A1COHJ8NKH47GSARROIOZUA4TXH8F","A2TLN8489YGY81","3S829FDFT2NBOHQMM1CIOU0HZYXDXL","","null","<img src=""img/animal3.png"" style=""width:200px; border:14px solid green;"">","null","","","","","",""
"","image-keyboard-response","22","47115","0.0-22.0","3A1COHJ8NKH47GSARROIOZUA4TXH8F","A2TLN8489YGY81","3S829FDFT2NBOHQMM1CIOU0HZYXDXL","","393.1000000014901","img/animal3.png","75","393.80000000447035","2","1","3","0.5,0,1,1,0.5,0,0,1,0.5",""
"","html-keyboard-response","23","47417","0.0-23.0","3A1COHJ8NKH47GSARROIOZUA4TXH8F","A2TLN8489YGY81","3S829FDFT2NBOHQMM1CIOU0HZYXDXL","","null","<img src=""img/animal3.png"" style=""width:200px; border:14px solid green;"">","null","","","","","",""
"","image-keyboard-response","24","48441","0.0-24.0","3A1COHJ8NKH47GSARROIOZUA4TXH8F","A2TLN8489YGY81","3S829FDFT2NBOHQMM1CIOU0HZYXDXL","","1022.6999999955297","img/animal2.png","76","1023.6000000014901","3","1","1","0.5,0,1,1,0.5,0,0,1,0.5",""
"","html-keyboard-response","25","48743","0.0-25.0","3A1COHJ8NKH47GSARROIOZUA4TXH8F","A2TLN8489YGY81","3S829FDFT2NBOHQMM1CIOU0HZYXDXL","","null","<img src=""img/animal2.png"" style=""width:200px; border:14px solid green;"">","null","","","","","",""
"","image-keyboard-response","26","49597","0.0-26.0","3A1COHJ8NKH47GSARROIOZUA4TXH8F","A2TLN8489YGY81","3S829FDFT2NBOHQMM1CIOU0HZYXDXL","","852.6000000014901","img/animal3.png","75","853.3999999985099","2","1","3","0.5,0,1,1,0.5,0,0,1,0.5",""
"","html-keyboard-response","27","49914","0.0-27.0","3A1COHJ8NKH47GSARROIOZUA4TXH8F","A2TLN8489YGY81","3S829FDFT2NBOHQMM1CIOU0HZYXDXL","","null","<img src=""img/animal3.png"" style=""width:200px; border:14px solid green;"">","null","","","","","",""
"","image-keyboard-response","28","50645","0.0-28.0","3A1COHJ8NKH47GSARROIOZUA4TXH8F","A2TLN8489YGY81","3S829FDFT2NBOHQMM1CIOU0HZYXDXL","","729.8999999985099","img/animal1.png","74","730.9000000059605","1","1","2","0.5,0,1,1,0.5,0,0,1,0.5",""
"","html-keyboard-response","29","50947","0.0-29.0","3A1COHJ8NKH47GSARROIOZUA4TXH8F","A2TLN8489YGY81","3S829FDFT2NBOHQMM1CIOU0HZYXDXL","","null","<img src=""img/animal1.png"" style=""width:200px; border:14px solid green;"">","null","","","","","",""
"","image-keyboard-response","30","51361","0.0-30.0","3A1COHJ8NKH47GSARROIOZUA4TXH8F","A2TLN8489YGY81","3S829FDFT2NBOHQMM1CIOU0HZYXDXL","","413.1000000014901","img/animal1.png","74","413.90000000596046","1","1","2","0.5,0,1,1,0.5,0,0,1,0.5",""
"","html-keyboard-response","31","51663","0.0-31.0","3A1COHJ8NKH47GSARROIOZUA4TXH8F","A2TLN8489YGY81","3S829FDFT2NBOHQMM1CIOU0HZYXDXL","","null","<img src=""img/animal1.png"" style=""width:200px; border:14px solid green;"">","null","","","","","",""
"","image-keyboard-response","32","52815","0.0-32.0","3A1COHJ8NKH47GSARROIOZUA4TXH8F","A2TLN8489YGY81","3S829FDFT2NBOHQMM1CIOU0HZYXDXL","","1151.3999999985099","img/animal2.png","75","1152.0999999940395","2","0","1","0.5,0,1,1,0.5,0,0,1,0.5",""
"","html-keyboard-response","33","53117","0.0-33.0","3A1COHJ8NKH47GSARROIOZUA4TXH8F","A2TLN8489YGY81","3S829FDFT2NBOHQMM1CIOU0HZYXDXL","","null","<img src=""img/animal2.png"" style=""width:200px;border:14px solid red;"">","null","","","","","",""
"","image-keyboard-response","34","53718","0.0-34.0","3A1COHJ8NKH47GSARROIOZUA4TXH8F","A2TLN8489YGY81","3S829FDFT2NBOHQMM1CIOU0HZYXDXL","","600","img/animal2.png","76","601","3","1","1","0.5,0,1,1,0.5,0,0,1,0.5",""
"","html-keyboard-response","35","54020","0.0-35.0","3A1COHJ8NKH47GSARROIOZUA4TXH8F","A2TLN8489YGY81","3S829FDFT2NBOHQMM1CIOU0HZYXDXL","","null","<img src=""img/animal2.png"" style=""width:200px; border:14px solid green;"">","null","","","","","",""
"","image-keyboard-response","36","54733","0.0-36.0","3A1COHJ8NKH47GSARROIOZUA4TXH8F","A2TLN8489YGY81","3S829FDFT2NBOHQMM1CIOU0HZYXDXL","","712.2000000029802","img/animal3.png","75","712.8999999985099","2","1","3","0.5,0,1,1,0.5,0,0,1,0.5",""
"","html-keyboard-response","37","55034","0.0-37.0","3A1COHJ8NKH47GSARROIOZUA4TXH8F","A2TLN8489YGY81","3S829FDFT2NBOHQMM1CIOU0HZYXDXL","","null","<img src=""img/animal3.png"" style=""width:200px; border:14px solid green;"">","null","","","","","",""
"","image-keyboard-response","38","55516","0.0-38.0","3A1COHJ8NKH47GSARROIOZUA4TXH8F","A2TLN8489YGY81","3S829FDFT2NBOHQMM1CIOU0HZYXDXL","","480.1000000014901","img/animal3.png","75","480.8999999985099","2","1","3","0.5,0,1,1,0.5,0,0,1,0.5",""
"","html-keyboard-response","39","55818","0.0-39.0","3A1COHJ8NKH47GSARROIOZUA4TXH8F","A2TLN8489YGY81","3S829FDFT2NBOHQMM1CIOU0HZYXDXL","","null","<img src=""img/animal3.png"" style=""width:200px; border:14px solid green;"">","null","","","","","",""
"","image-keyboard-response","40","56389","0.0-40.0","3A1COHJ8NKH47GSARROIOZUA4TXH8F","A2TLN8489YGY81","3S829FDFT2NBOHQMM1CIOU0HZYXDXL","","569.8000000044703","img/animal2.png","76","570.6000000014901","3","1","1","0.5,0,1,1,0.5,0,0,1,0.5",""
"","html-keyboard-response","41","56690","0.0-41.0","3A1COHJ8NKH47GSARROIOZUA4TXH8F","A2TLN8489YGY81","3S829FDFT2NBOHQMM1CIOU0HZYXDXL","","null","<img src=""img/animal2.png"" style=""width:200px; border:14px solid green;"">","null","","","","","",""
"","image-keyboard-response","42","57548","0.0-42.0","3A1COHJ8NKH47GSARROIOZUA4TXH8F","A2TLN8489YGY81","3S829FDFT2NBOHQMM1CIOU0HZYXDXL","","857.3999999985099","img/animal3.png","75","858.1999999955297","2","1","3","0.5,0,1,1,0.5,0,0,1,0.5",""
"","html-keyboard-response","43","57850","0.0-43.0","3A1COHJ8NKH47GSARROIOZUA4TXH8F","A2TLN8489YGY81","3S829FDFT2NBOHQMM1CIOU0HZYXDXL","","null","<img src=""img/animal3.png"" style=""width:200px; border:14px solid green;"">","null","","","","","",""
"","image-keyboard-response","44","58912","0.0-44.0","3A1COHJ8NKH47GSARROIOZUA4TXH8F","A2TLN8489YGY81","3S829FDFT2NBOHQMM1CIOU0HZYXDXL","","1060.2999999970198","img/animal2.png","76","1060.8999999985099","3","1","1","0.5,0,1,1,0.5,0,0,1,0.5",""
"","html-keyboard-response","45","59213","0.0-45.0","3A1COHJ8NKH47GSARROIOZUA4TXH8F","A2TLN8489YGY81","3S829FDFT2NBOHQMM1CIOU0HZYXDXL","","null","<img src=""img/animal2.png"" style=""width:200px; border:14px solid green;"">","null","","","","","",""
"","image-keyboard-response","46","60039","0.0-46.0","3A1COHJ8NKH47GSARROIOZUA4TXH8F","A2TLN8489YGY81","3S829FDFT2NBOHQMM1CIOU0HZYXDXL","","824.1999999955297","img/animal1.png","74","825","1","1","2","0.5,0,1,1,0.5,0,0,1,0.5",""
"","html-keyboard-response","47","60340","0.0-47.0","3A1COHJ8NKH47GSARROIOZUA4TXH8F","A2TLN8489YGY81","3S829FDFT2NBOHQMM1CIOU0HZYXDXL","","null","<img src=""img/animal1.png"" style=""width:200px; border:14px solid green;"">","null","","","","","",""
"","image-keyboard-response","48","60937","0.0-48.0","3A1COHJ8NKH47GSARROIOZUA4TXH8F","A2TLN8489YGY81","3S829FDFT2NBOHQMM1CIOU0HZYXDXL","","596.1000000014901","img/animal2.png","76","596.8999999985099","3","1","1","0.5,0,1,1,0.5,0,0,1,0.5",""
"","html-keyboard-response","49","61239","0.0-49.0","3A1COHJ8NKH47GSARROIOZUA4TXH8F","A2TLN8489YGY81","3S829FDFT2NBOHQMM1CIOU0HZYXDXL","","null","<img src=""img/animal2.png"" style=""width:200px; border:14px solid green;"">","null","","","","","",""
"","image-keyboard-response","50","62342","0.0-50.0","3A1COHJ8NKH47GSARROIOZUA4TXH8F","A2TLN8489YGY81","3S829FDFT2NBOHQMM1CIOU0HZYXDXL","","1102.3000000044703","img/animal1.png","74","1103.2000000029802","1","1","2","0.5,0,1,1,0.5,0,0,1,0.5",""
"","html-keyboard-response","51","62644","0.0-51.0","3A1COHJ8NKH47GSARROIOZUA4TXH8F","A2TLN8489YGY81","3S829FDFT2NBOHQMM1CIOU0HZYXDXL","","null","<img src=""img/animal1.png"" style=""width:200px; border:14px solid green;"">","null","","","","","",""
"","image-keyboard-response","52","63083","0.0-52.0","3A1COHJ8NKH47GSARROIOZUA4TXH8F","A2TLN8489YGY81","3S829FDFT2NBOHQMM1CIOU0HZYXDXL","","437.3999999985099","img/animal1.png","74","438.70000000298023","1","1","2","0.5,0,1,1,0.5,0,0,1,0.5",""
"","html-keyboard-response","53","63385","0.0-53.0","3A1COHJ8NKH47GSARROIOZUA4TXH8F","A2TLN8489YGY81","3S829FDFT2NBOHQMM1CIOU0HZYXDXL","","null","<img src=""img/animal1.png"" style=""width:200px; border:14px solid green;"">","null","","","","","",""
"","image-keyboard-response","54","64289","0.0-54.0","3A1COHJ8NKH47GSARROIOZUA4TXH8F","A2TLN8489YGY81","3S829FDFT2NBOHQMM1CIOU0HZYXDXL","","902.7999999970198","img/animal3.png","75","903.7999999970198","2","1","3","0.5,0,1,1,0.5,0,0,1,0.5",""
"","html-keyboard-response","55","64591","0.0-55.0","3A1COHJ8NKH47GSARROIOZUA4TXH8F","A2TLN8489YGY81","3S829FDFT2NBOHQMM1CIOU0HZYXDXL","","null","<img src=""img/animal3.png"" style=""width:200px; border:14px solid green;"">","null","","","","","",""
"","image-keyboard-response","56","65416","0.0-56.0","3A1COHJ8NKH47GSARROIOZUA4TXH8F","A2TLN8489YGY81","3S829FDFT2NBOHQMM1CIOU0HZYXDXL","","824.1999999955297","img/animal1.png","74","824.9000000059605","1","1","2","0.5,0,1,1,0.5,0,0,1,0.5",""
"","html-keyboard-response","57","65719","0.0-57.0","3A1COHJ8NKH47GSARROIOZUA4TXH8F","A2TLN8489YGY81","3S829FDFT2NBOHQMM1CIOU0HZYXDXL","","null","<img src=""img/animal1.png"" style=""width:200px; border:14px solid green;"">","null","","","","","",""
"","image-keyboard-response","58","66368","0.0-58.0","3A1COHJ8NKH47GSARROIOZUA4TXH8F","A2TLN8489YGY81","3S829FDFT2NBOHQMM1CIOU0HZYXDXL","","648.2000000029802","img/animal2.png","76","649","3","1","1","0.5,0,1,1,0.5,0,0,1,0.5",""
"","html-keyboard-response","59","66670","0.0-59.0","3A1COHJ8NKH47GSARROIOZUA4TXH8F","A2TLN8489YGY81","3S829FDFT2NBOHQMM1CIOU0HZYXDXL","","null","<img src=""img/animal2.png"" style=""width:200px; border:14px solid green;"">","null","","","","","",""
"","image-keyboard-response","60","68130","0.0-60.0","3A1COHJ8NKH47GSARROIOZUA4TXH8F","A2TLN8489YGY81","3S829FDFT2NBOHQMM1CIOU0HZYXDXL","","1459","img/animal3.png","75","1460","2","1","3","0.5,0,1,1,0.5,0,0,1,0.5",""
"","html-keyboard-response","61","68432","0.0-61.0","3A1COHJ8NKH47GSARROIOZUA4TXH8F","A2TLN8489YGY81","3S829FDFT2NBOHQMM1CIOU0HZYXDXL","","null","<img src=""img/animal3.png"" style=""width:200px; border:14px solid green;"">","null","","","","","",""
"","image-keyboard-response","62","69240","0.0-62.0","3A1COHJ8NKH47GSARROIOZUA4TXH8F","A2TLN8489YGY81","3S829FDFT2NBOHQMM1CIOU0HZYXDXL","","806.3999999985099","img/animal2.png","76","807.3000000044703","3","1","1","0.5,0,1,1,0.5,0,0,1,0.5",""
"","html-keyboard-response","63","69542","0.0-63.0","3A1COHJ8NKH47GSARROIOZUA4TXH8F","A2TLN8489YGY81","3S829FDFT2NBOHQMM1CIOU0HZYXDXL","","null","<img src=""img/animal2.png"" style=""width:200px; border:14px solid green;"">","null","","","","","",""
"","image-keyboard-response","64","70271","0.0-64.0","3A1COHJ8NKH47GSARROIOZUA4TXH8F","A2TLN8489YGY81","3S829FDFT2NBOHQMM1CIOU0HZYXDXL","","728.5","img/animal1.png","74","729.3000000044703","1","1","2","0.5,0,1,1,0.5,0,0,1,0.5",""
"","html-keyboard-response","65","70573","0.0-65.0","3A1COHJ8NKH47GSARROIOZUA4TXH8F","A2TLN8489YGY81","3S829FDFT2NBOHQMM1CIOU0HZYXDXL","","null","<img src=""img/animal1.png"" style=""width:200px; border:14px solid green;"">","null","","","","","",""
"","image-keyboard-response","66","71925","0.0-66.0","3A1COHJ8NKH47GSARROIOZUA4TXH8F","A2TLN8489YGY81","3S829FDFT2NBOHQMM1CIOU0HZYXDXL","","1351","img/animal3.png","75","1351.7000000029802","2","1","3","0.5,0,1,1,0.5,0,0,1,0.5",""
"","html-keyboard-response","67","72226","0.0-67.0","3A1COHJ8NKH47GSARROIOZUA4TXH8F","A2TLN8489YGY81","3S829FDFT2NBOHQMM1CIOU0HZYXDXL","","null","<img src=""img/animal3.png"" style=""width:200px; border:14px solid green;"">","null","","","","","",""
"","image-keyboard-response","68","72940","0.0-68.0","3A1COHJ8NKH47GSARROIOZUA4TXH8F","A2TLN8489YGY81","3S829FDFT2NBOHQMM1CIOU0HZYXDXL","","712.2999999970198","img/animal1.png","74","712.8999999985099","1","1","2","0.5,0,1,1,0.5,0,0,1,0.5",""
"","html-keyboard-response","69","73241","0.0-69.0","3A1COHJ8NKH47GSARROIOZUA4TXH8F","A2TLN8489YGY81","3S829FDFT2NBOHQMM1CIOU0HZYXDXL","","null","<img src=""img/animal1.png"" style=""width:200px; border:14px solid green;"">","null","","","","","",""
"","image-keyboard-response","70","73925","0.0-70.0","3A1COHJ8NKH47GSARROIOZUA4TXH8F","A2TLN8489YGY81","3S829FDFT2NBOHQMM1CIOU0HZYXDXL","","683.9000000059605","img/animal2.png","76","684.7000000029802","3","1","1","0.5,0,1,1,0.5,0,0,1,0.5",""
"","html-keyboard-response","71","74228","0.0-71.0","3A1COHJ8NKH47GSARROIOZUA4TXH8F","A2TLN8489YGY81","3S829FDFT2NBOHQMM1CIOU0HZYXDXL","","null","<img src=""img/animal2.png"" style=""width:200px; border:14px solid green;"">","null","","","","","",""
"","image-keyboard-response","72","75048","0.0-72.0","3A1COHJ8NKH47GSARROIOZUA4TXH8F","A2TLN8489YGY81","3S829FDFT2NBOHQMM1CIOU0HZYXDXL","","819","img/animal3.png","75","819.7999999970198","2","1","3","0.5,0,1,1,0.5,0,0,1,0.5",""
"","html-keyboard-response","73","75349","0.0-73.0","3A1COHJ8NKH47GSARROIOZUA4TXH8F","A2TLN8489YGY81","3S829FDFT2NBOHQMM1CIOU0HZYXDXL","","null","<img src=""img/animal3.png"" style=""width:200px; border:14px solid green;"">","null","","","","","",""
"","image-keyboard-response","74","76241","0.0-74.0","3A1COHJ8NKH47GSARROIOZUA4TXH8F","A2TLN8489YGY81","3S829FDFT2NBOHQMM1CIOU0HZYXDXL","","891.5","img/animal1.png","74","892.2999999970198","1","1","2","0.5,0,1,1,0.5,0,0,1,0.5",""
"","html-keyboard-response","75","76543","0.0-75.0","3A1COHJ8NKH47GSARROIOZUA4TXH8F","A2TLN8489YGY81","3S829FDFT2NBOHQMM1CIOU0HZYXDXL","","null","<img src=""img/animal1.png"" style=""width:200px; border:14px solid green;"">","null","","","","","",""
"","image-keyboard-response","76","76995","0.0-76.0","3A1COHJ8NKH47GSARROIOZUA4TXH8F","A2TLN8489YGY81","3S829FDFT2NBOHQMM1CIOU0HZYXDXL","","450.79999999701977","img/animal1.png","74","451.3999999985099","1","1","2","0.5,0,1,1,0.5,0,0,1,0.5",""
"","html-keyboard-response","77","77297","0.0-77.0","3A1COHJ8NKH47GSARROIOZUA4TXH8F","A2TLN8489YGY81","3S829FDFT2NBOHQMM1CIOU0HZYXDXL","","null","<img src=""img/animal1.png"" style=""width:200px; border:14px solid green;"">","null","","","","","",""
"","image-keyboard-response","78","77707","0.0-78.0","3A1COHJ8NKH47GSARROIOZUA4TXH8F","A2TLN8489YGY81","3S829FDFT2NBOHQMM1CIOU0HZYXDXL","","409","img/animal1.png","74","409.80000000447035","1","1","2","0.5,0,1,1,0.5,0,0,1,0.5",""
"","html-keyboard-response","79","78008","0.0-79.0","3A1COHJ8NKH47GSARROIOZUA4TXH8F","A2TLN8489YGY81","3S829FDFT2NBOHQMM1CIOU0HZYXDXL","","null","<img src=""img/animal1.png"" style=""width:200px; border:14px solid green;"">","null","","","","","",""
"","image-keyboard-response","80","78688","0.0-80.0","3A1COHJ8NKH47GSARROIOZUA4TXH8F","A2TLN8489YGY81","3S829FDFT2NBOHQMM1CIOU0HZYXDXL","","679.1000000014901","img/animal3.png","75","679.8000000044703","2","1","3","0.5,0,1,1,0.5,0,0,1,0.5",""
"","html-keyboard-response","81","78990","0.0-81.0","3A1COHJ8NKH47GSARROIOZUA4TXH8F","A2TLN8489YGY81","3S829FDFT2NBOHQMM1CIOU0HZYXDXL","","null","<img src=""img/animal3.png"" style=""width:200px; border:14px solid green;"">","null","","","","","",""
"","image-keyboard-response","82","79396","0.0-82.0","3A1COHJ8NKH47GSARROIOZUA4TXH8F","A2TLN8489YGY81","3S829FDFT2NBOHQMM1CIOU0HZYXDXL","","405.6000000014901","img/animal3.png","75","406.5","2","1","3","0.5,0,1,1,0.5,0,0,1,0.5",""
"","html-keyboard-response","83","79699","0.0-83.0","3A1COHJ8NKH47GSARROIOZUA4TXH8F","A2TLN8489YGY81","3S829FDFT2NBOHQMM1CIOU0HZYXDXL","","null","<img src=""img/animal3.png"" style=""width:200px; border:14px solid green;"">","null","","","","","",""
"","image-keyboard-response","84","80523","0.0-84.0","3A1COHJ8NKH47GSARROIOZUA4TXH8F","A2TLN8489YGY81","3S829FDFT2NBOHQMM1CIOU0HZYXDXL","","823.2999999970198","img/animal2.png","76","824.1000000014901","3","1","1","0.5,0,1,1,0.5,0,0,1,0.5",""
"","html-keyboard-response","85","80826","0.0-85.0","3A1COHJ8NKH47GSARROIOZUA4TXH8F","A2TLN8489YGY81","3S829FDFT2NBOHQMM1CIOU0HZYXDXL","","null","<img src=""img/animal2.png"" style=""width:200px; border:14px solid green;"">","null","","","","","",""
"","image-keyboard-response","86","81194","0.0-86.0","3A1COHJ8NKH47GSARROIOZUA4TXH8F","A2TLN8489YGY81","3S829FDFT2NBOHQMM1CIOU0HZYXDXL","","367.30000000447035","img/animal2.png","76","368.1000000014901","3","1","1","0.5,0,1,1,0.5,0,0,1,0.5",""
"","html-keyboard-response","87","81496","0.0-87.0","3A1COHJ8NKH47GSARROIOZUA4TXH8F","A2TLN8489YGY81","3S829FDFT2NBOHQMM1CIOU0HZYXDXL","","null","<img src=""img/animal2.png"" style=""width:200px; border:14px solid green;"">","null","","","","","",""
"","image-keyboard-response","88","82350","0.0-88.0","3A1COHJ8NKH47GSARROIOZUA4TXH8F","A2TLN8489YGY81","3S829FDFT2NBOHQMM1CIOU0HZYXDXL","","852.6999999955297","img/animal3.png","75","853.5","2","1","3","0.5,0,1,1,0.5,0,0,1,0.5",""
"","html-keyboard-response","89","82651","0.0-89.0","3A1COHJ8NKH47GSARROIOZUA4TXH8F","A2TLN8489YGY81","3S829FDFT2NBOHQMM1CIOU0HZYXDXL","","null","<img src=""img/animal3.png"" style=""width:200px; border:14px solid green;"">","null","","","","","",""
"","image-keyboard-response","90","83004","0.0-90.0","3A1COHJ8NKH47GSARROIOZUA4TXH8F","A2TLN8489YGY81","3S829FDFT2NBOHQMM1CIOU0HZYXDXL","","352.09999999403954","img/animal3.png","75","352.80000000447035","2","1","3","0.5,0,1,1,0.5,0,0,1,0.5",""
"","html-keyboard-response","91","83306","0.0-91.0","3A1COHJ8NKH47GSARROIOZUA4TXH8F","A2TLN8489YGY81","3S829FDFT2NBOHQMM1CIOU0HZYXDXL","","null","<img src=""img/animal3.png"" style=""width:200px; border:14px solid green;"">","null","","","","","",""
"","image-keyboard-response","92","83653","0.0-92.0","3A1COHJ8NKH47GSARROIOZUA4TXH8F","A2TLN8489YGY81","3S829FDFT2NBOHQMM1CIOU0HZYXDXL","","346.5","img/animal3.png","75","347.5","2","1","3","0.5,0,1,1,0.5,0,0,1,0.5",""
"","html-keyboard-response","93","83956","0.0-93.0","3A1COHJ8NKH47GSARROIOZUA4TXH8F","A2TLN8489YGY81","3S829FDFT2NBOHQMM1CIOU0HZYXDXL","","null","<img src=""img/animal3.png"" style=""width:200px; border:14px solid green;"">","null","","","","","",""
"","image-keyboard-response","94","84726","0.0-94.0","3A1COHJ8NKH47GSARROIOZUA4TXH8F","A2TLN8489YGY81","3S829FDFT2NBOHQMM1CIOU0HZYXDXL","","769.6999999955297","img/animal2.png","76","770.5999999940395","3","1","1","0.5,0,1,1,0.5,0,0,1,0.5",""
"","html-keyboard-response","95","85028","0.0-95.0","3A1COHJ8NKH47GSARROIOZUA4TXH8F","A2TLN8489YGY81","3S829FDFT2NBOHQMM1CIOU0HZYXDXL","","null","<img src=""img/animal2.png"" style=""width:200px; border:14px solid green;"">","null","","","","","",""
"","image-keyboard-response","96","85409","0.0-96.0","3A1COHJ8NKH47GSARROIOZUA4TXH8F","A2TLN8489YGY81","3S829FDFT2NBOHQMM1CIOU0HZYXDXL","","379.40000000596046","img/animal2.png","76","380.29999999701977","3","1","1","0.5,0,1,1,0.5,0,0,1,0.5",""
"","html-keyboard-response","97","85711","0.0-97.0","3A1COHJ8NKH47GSARROIOZUA4TXH8F","A2TLN8489YGY81","3S829FDFT2NBOHQMM1CIOU0HZYXDXL","","null","<img src=""img/animal2.png"" style=""width:200px; border:14px solid green;"">","null","","","","","",""
"","image-keyboard-response","98","86042","0.0-98.0","3A1COHJ8NKH47GSARROIOZUA4TXH8F","A2TLN8489YGY81","3S829FDFT2NBOHQMM1CIOU0HZYXDXL","","329.80000000447035","img/animal2.png","76","330.79999999701977","3","1","1","0.5,0,1,1,0.5,0,0,1,0.5",""
"","html-keyboard-response","99","86344","0.0-99.0","3A1COHJ8NKH47GSARROIOZUA4TXH8F","A2TLN8489YGY81","3S829FDFT2NBOHQMM1CIOU0HZYXDXL","","null","<img src=""img/animal2.png"" style=""width:200px; border:14px solid green;"">","null","","","","","",""
"","image-keyboard-response","100","86671","0.0-100.0","3A1COHJ8NKH47GSARROIOZUA4TXH8F","A2TLN8489YGY81","3S829FDFT2NBOHQMM1CIOU0HZYXDXL","","325.80000000447035","img/animal2.png","76","326.79999999701977","3","1","1","0.5,0,1,1,0.5,0,0,1,0.5",""
"","html-keyboard-response","101","86973","0.0-101.0","3A1COHJ8NKH47GSARROIOZUA4TXH8F","A2TLN8489YGY81","3S829FDFT2NBOHQMM1CIOU0HZYXDXL","","null","<img src=""img/animal2.png"" style=""width:200px; border:14px solid green;"">","null","","","","","",""
"","image-keyboard-response","102","87321","0.0-102.0","3A1COHJ8NKH47GSARROIOZUA4TXH8F","A2TLN8489YGY81","3S829FDFT2NBOHQMM1CIOU0HZYXDXL","","346.6000000014901","img/animal2.png","76","347.5","3","1","1","0.5,0,1,1,0.5,0,0,1,0.5",""
"","html-keyboard-response","103","87622","0.0-103.0","3A1COHJ8NKH47GSARROIOZUA4TXH8F","A2TLN8489YGY81","3S829FDFT2NBOHQMM1CIOU0HZYXDXL","","null","<img src=""img/animal2.png"" style=""width:200px; border:14px solid green;"">","null","","","","","",""
"","image-keyboard-response","104","87987","0.0-104.0","3A1COHJ8NKH47GSARROIOZUA4TXH8F","A2TLN8489YGY81","3S829FDFT2NBOHQMM1CIOU0HZYXDXL","","363.6000000014901","img/animal2.png","76","364.3999999985099","3","1","1","0.5,0,1,1,0.5,0,0,1,0.5",""
"","html-keyboard-response","105","88288","0.0-105.0","3A1COHJ8NKH47GSARROIOZUA4TXH8F","A2TLN8489YGY81","3S829FDFT2NBOHQMM1CIOU0HZYXDXL","","null","<img src=""img/animal2.png"" style=""width:200px; border:14px solid green;"">","null","","","","","",""
"","image-keyboard-response","106","88554","0.0-106.0","3A1COHJ8NKH47GSARROIOZUA4TXH8F","A2TLN8489YGY81","3S829FDFT2NBOHQMM1CIOU0HZYXDXL","","264.6000000014901","img/animal1.png","76","265.3999999985099","3","0","2","0.5,0,1,1,0.5,0,0,1,0.5",""
"","html-keyboard-response","107","88856","0.0-107.0","3A1COHJ8NKH47GSARROIOZUA4TXH8F","A2TLN8489YGY81","3S829FDFT2NBOHQMM1CIOU0HZYXDXL","","null","<img src=""img/animal1.png"" style=""width:200px;border:14px solid red;"">","null","","","","","",""
"","image-keyboard-response","108","89220","0.0-108.0","3A1COHJ8NKH47GSARROIOZUA4TXH8F","A2TLN8489YGY81","3S829FDFT2NBOHQMM1CIOU0HZYXDXL","","362.79999999701977","img/animal1.png","74","363.79999999701977","1","1","2","0.5,0,1,1,0.5,0,0,1,0.5",""
"","html-keyboard-response","109","89522","0.0-109.0","3A1COHJ8NKH47GSARROIOZUA4TXH8F","A2TLN8489YGY81","3S829FDFT2NBOHQMM1CIOU0HZYXDXL","","null","<img src=""img/animal1.png"" style=""width:200px; border:14px solid green;"">","null","","","","","",""
"","image-keyboard-response","110","91222","0.0-110.0","3A1COHJ8NKH47GSARROIOZUA4TXH8F","A2TLN8489YGY81","3S829FDFT2NBOHQMM1CIOU0HZYXDXL","","1699.3000000044703","img/animal2.png","76","1700","3","1","1","0.5,0,1,1,0.5,0,0,1,0.5",""
"","html-keyboard-response","111","91524","0.0-111.0","3A1COHJ8NKH47GSARROIOZUA4TXH8F","A2TLN8489YGY81","3S829FDFT2NBOHQMM1CIOU0HZYXDXL","","null","<img src=""img/animal2.png"" style=""width:200px; border:14px solid green;"">","null","","","","","",""
"","image-keyboard-response","112","92253","0.0-112.0","3A1COHJ8NKH47GSARROIOZUA4TXH8F","A2TLN8489YGY81","3S829FDFT2NBOHQMM1CIOU0HZYXDXL","","728.6999999955297","img/animal1.png","74","729.5","1","1","2","0.5,0,1,1,0.5,0,0,1,0.5",""
"","html-keyboard-response","113","92554","0.0-113.0","3A1COHJ8NKH47GSARROIOZUA4TXH8F","A2TLN8489YGY81","3S829FDFT2NBOHQMM1CIOU0HZYXDXL","","null","<img src=""img/animal1.png"" style=""width:200px; border:14px solid green;"">","null","","","","","",""
"","image-keyboard-response","114","93359","0.0-114.0","3A1COHJ8NKH47GSARROIOZUA4TXH8F","A2TLN8489YGY81","3S829FDFT2NBOHQMM1CIOU0HZYXDXL","","804.1000000014901","img/animal2.png","76","804.7999999970198","3","1","1","0.5,0,1,1,0.5,0,0,1,0.5",""
"","html-keyboard-response","115","93661","0.0-115.0","3A1COHJ8NKH47GSARROIOZUA4TXH8F","A2TLN8489YGY81","3S829FDFT2NBOHQMM1CIOU0HZYXDXL","","null","<img src=""img/animal2.png"" style=""width:200px; border:14px solid green;"">","null","","","","","",""
"","image-keyboard-response","116","94299","0.0-116.0","3A1COHJ8NKH47GSARROIOZUA4TXH8F","A2TLN8489YGY81","3S829FDFT2NBOHQMM1CIOU0HZYXDXL","","637.1000000014901","img/animal3.png","75","637.9000000059605","2","1","3","0.5,0,1,1,0.5,0,0,1,0.5",""
"","html-keyboard-response","117","94601","0.0-117.0","3A1COHJ8NKH47GSARROIOZUA4TXH8F","A2TLN8489YGY81","3S829FDFT2NBOHQMM1CIOU0HZYXDXL","","null","<img src=""img/animal3.png"" style=""width:200px; border:14px solid green;"">","null","","","","","",""
"","image-keyboard-response","118","95459","0.0-118.0","3A1COHJ8NKH47GSARROIOZUA4TXH8F","A2TLN8489YGY81","3S829FDFT2NBOHQMM1CIOU0HZYXDXL","","857.1999999955297","img/animal2.png","76","858","3","1","1","0.5,0,1,1,0.5,0,0,1,0.5",""
"","html-keyboard-response","119","95761","0.0-119.0","3A1COHJ8NKH47GSARROIOZUA4TXH8F","A2TLN8489YGY81","3S829FDFT2NBOHQMM1CIOU0HZYXDXL","","null","<img src=""img/animal2.png"" style=""width:200px; border:14px solid green;"">","null","","","","","",""
"","image-keyboard-response","120","96370","0.0-120.0","3A1COHJ8NKH47GSARROIOZUA4TXH8F","A2TLN8489YGY81","3S829FDFT2NBOHQMM1CIOU0HZYXDXL","","608.3999999985099","img/animal1.png","74","609.2000000029802","1","1","2","0.5,0,1,1,0.5,0,0,1,0.5",""
"","html-keyboard-response","121","96672","0.0-121.0","3A1COHJ8NKH47GSARROIOZUA4TXH8F","A2TLN8489YGY81","3S829FDFT2NBOHQMM1CIOU0HZYXDXL","","null","<img src=""img/animal1.png"" style=""width:200px; border:14px solid green;"">","null","","","","","",""
"","image-keyboard-response","122","97310","0.0-122.0","3A1COHJ8NKH47GSARROIOZUA4TXH8F","A2TLN8489YGY81","3S829FDFT2NBOHQMM1CIOU0HZYXDXL","","637.1000000014901","img/animal3.png","75","637.8999999985099","2","1","3","0.5,0,1,1,0.5,0,0,1,0.5",""
"","html-keyboard-response","123","97613","0.0-123.0","3A1COHJ8NKH47GSARROIOZUA4TXH8F","A2TLN8489YGY81","3S829FDFT2NBOHQMM1CIOU0HZYXDXL","","null","<img src=""img/animal3.png"" style=""width:200px; border:14px solid green;"">","null","","","","","",""
"","image-keyboard-response","124","98234","0.0-124.0","3A1COHJ8NKH47GSARROIOZUA4TXH8F","A2TLN8489YGY81","3S829FDFT2NBOHQMM1CIOU0HZYXDXL","","619.6999999955297","img/animal2.png","76","620.5","3","1","1","0.5,0,1,1,0.5,0,0,1,0.5",""
"","html-keyboard-response","125","98536","0.0-125.0","3A1COHJ8NKH47GSARROIOZUA4TXH8F","A2TLN8489YGY81","3S829FDFT2NBOHQMM1CIOU0HZYXDXL","","null","<img src=""img/animal2.png"" style=""width:200px; border:14px solid green;"">","null","","","","","",""
"","image-keyboard-response","126","99348","0.0-126.0","3A1COHJ8NKH47GSARROIOZUA4TXH8F","A2TLN8489YGY81","3S829FDFT2NBOHQMM1CIOU0HZYXDXL","","811.5999999940395","img/animal3.png","75","812.2999999970198","2","1","3","0.5,0,1,1,0.5,0,0,1,0.5",""
"","html-keyboard-response","127","99651","0.0-127.0","3A1COHJ8NKH47GSARROIOZUA4TXH8F","A2TLN8489YGY81","3S829FDFT2NBOHQMM1CIOU0HZYXDXL","","null","<img src=""img/animal3.png"" style=""width:200px; border:14px solid green;"">","null","","","","","",""
"","image-keyboard-response","128","100122","0.0-128.0","3A1COHJ8NKH47GSARROIOZUA4TXH8F","A2TLN8489YGY81","3S829FDFT2NBOHQMM1CIOU0HZYXDXL","","470.29999999701977","img/animal3.png","75","471","2","1","3","0.5,0,1,1,0.5,0,0,1,0.5",""
"","html-keyboard-response","129","100423","0.0-129.0","3A1COHJ8NKH47GSARROIOZUA4TXH8F","A2TLN8489YGY81","3S829FDFT2NBOHQMM1CIOU0HZYXDXL","","null","<img src=""img/animal3.png"" style=""width:200px; border:14px solid green;"">","null","","","","","",""
"","image-keyboard-response","130","101154","0.0-130.0","3A1COHJ8NKH47GSARROIOZUA4TXH8F","A2TLN8489YGY81","3S829FDFT2NBOHQMM1CIOU0HZYXDXL","","729.1999999955297","img/animal2.png","76","730","3","1","1","0.5,0,1,1,0.5,0,0,1,0.5",""
"","html-keyboard-response","131","101455","0.0-131.0","3A1COHJ8NKH47GSARROIOZUA4TXH8F","A2TLN8489YGY81","3S829FDFT2NBOHQMM1CIOU0HZYXDXL","","null","<img src=""img/animal2.png"" style=""width:200px; border:14px solid green;"">","null","","","","","",""
"","image-keyboard-response","132","101936","0.0-132.0","3A1COHJ8NKH47GSARROIOZUA4TXH8F","A2TLN8489YGY81","3S829FDFT2NBOHQMM1CIOU0HZYXDXL","","480.5","img/animal2.png","76","481.20000000298023","3","1","1","0.5,0,1,1,0.5,0,0,1,0.5",""
"","html-keyboard-response","133","102252","0.0-133.0","3A1COHJ8NKH47GSARROIOZUA4TXH8F","A2TLN8489YGY81","3S829FDFT2NBOHQMM1CIOU0HZYXDXL","","null","<img src=""img/animal2.png"" style=""width:200px; border:14px solid green;"">","null","","","","","",""
"","image-keyboard-response","134","102860","0.0-134.0","3A1COHJ8NKH47GSARROIOZUA4TXH8F","A2TLN8489YGY81","3S829FDFT2NBOHQMM1CIOU0HZYXDXL","","606.5","img/animal1.png","74","607.3999999985099","1","1","2","0.5,0,1,1,0.5,0,0,1,0.5",""
"","html-keyboard-response","135","103162","0.0-135.0","3A1COHJ8NKH47GSARROIOZUA4TXH8F","A2TLN8489YGY81","3S829FDFT2NBOHQMM1CIOU0HZYXDXL","","null","<img src=""img/animal1.png"" style=""width:200px; border:14px solid green;"">","null","","","","","",""
"","image-keyboard-response","136","103874","0.0-136.0","3A1COHJ8NKH47GSARROIOZUA4TXH8F","A2TLN8489YGY81","3S829FDFT2NBOHQMM1CIOU0HZYXDXL","","711.3999999985099","img/animal2.png","76","712.2000000029802","3","1","1","0.5,0,1,1,0.5,0,0,1,0.5",""
"","html-keyboard-response","137","104176","0.0-137.0","3A1COHJ8NKH47GSARROIOZUA4TXH8F","A2TLN8489YGY81","3S829FDFT2NBOHQMM1CIOU0HZYXDXL","","null","<img src=""img/animal2.png"" style=""width:200px; border:14px solid green;"">","null","","","","","",""
"","image-keyboard-response","138","105055","0.0-138.0","3A1COHJ8NKH47GSARROIOZUA4TXH8F","A2TLN8489YGY81","3S829FDFT2NBOHQMM1CIOU0HZYXDXL","","877.7000000029802","img/animal1.png","74","878.5","1","1","2","0.5,0,1,1,0.5,0,0,1,0.5",""
"","html-keyboard-response","139","105357","0.0-139.0","3A1COHJ8NKH47GSARROIOZUA4TXH8F","A2TLN8489YGY81","3S829FDFT2NBOHQMM1CIOU0HZYXDXL","","null","<img src=""img/animal1.png"" style=""width:200px; border:14px solid green;"">","null","","","","","",""
"","image-keyboard-response","140","105758","0.0-140.0","3A1COHJ8NKH47GSARROIOZUA4TXH8F","A2TLN8489YGY81","3S829FDFT2NBOHQMM1CIOU0HZYXDXL","","400.20000000298023","img/animal1.png","74","400.90000000596046","1","1","2","0.5,0,1,1,0.5,0,0,1,0.5",""
"","html-keyboard-response","141","106060","0.0-141.0","3A1COHJ8NKH47GSARROIOZUA4TXH8F","A2TLN8489YGY81","3S829FDFT2NBOHQMM1CIOU0HZYXDXL","","null","<img src=""img/animal1.png"" style=""width:200px; border:14px solid green;"">","null","","","","","",""
"","image-keyboard-response","142","106429","0.0-142.0","3A1COHJ8NKH47GSARROIOZUA4TXH8F","A2TLN8489YGY81","3S829FDFT2NBOHQMM1CIOU0HZYXDXL","","368.3999999985099","img/animal1.png","74","369.19999999552965","1","1","2","0.5,0,1,1,0.5,0,0,1,0.5",""
"","html-keyboard-response","143","106731","0.0-143.0","3A1COHJ8NKH47GSARROIOZUA4TXH8F","A2TLN8489YGY81","3S829FDFT2NBOHQMM1CIOU0HZYXDXL","","null","<img src=""img/animal1.png"" style=""width:200px; border:14px solid green;"">","null","","","","","",""
"","image-keyboard-response","144","107099","0.0-144.0","3A1COHJ8NKH47GSARROIOZUA4TXH8F","A2TLN8489YGY81","3S829FDFT2NBOHQMM1CIOU0HZYXDXL","","367","img/animal1.png","74","367.8999999985099","1","1","2","0.5,0,1,1,0.5,0,0,1,0.5",""
"","html-keyboard-response","145","107401","0.0-145.0","3A1COHJ8NKH47GSARROIOZUA4TXH8F","A2TLN8489YGY81","3S829FDFT2NBOHQMM1CIOU0HZYXDXL","","null","<img src=""img/animal1.png"" style=""width:200px; border:14px solid green;"">","null","","","","","",""
"","image-keyboard-response","146","108081","0.0-146.0","3A1COHJ8NKH47GSARROIOZUA4TXH8F","A2TLN8489YGY81","3S829FDFT2NBOHQMM1CIOU0HZYXDXL","","679.1000000014901","img/animal2.png","76","679.7999999970198","3","1","1","0.5,0,1,1,0.5,0,0,1,0.5",""
"","html-keyboard-response","147","108383","0.0-147.0","3A1COHJ8NKH47GSARROIOZUA4TXH8F","A2TLN8489YGY81","3S829FDFT2NBOHQMM1CIOU0HZYXDXL","","null","<img src=""img/animal2.png"" style=""width:200px; border:14px solid green;"">","null","","","","","",""
"","image-keyboard-response","148","108768","0.0-148.0","3A1COHJ8NKH47GSARROIOZUA4TXH8F","A2TLN8489YGY81","3S829FDFT2NBOHQMM1CIOU0HZYXDXL","","383.6000000014901","img/animal2.png","76","384.30000000447035","3","1","1","0.5,0,1,1,0.5,0,0,1,0.5",""
"","html-keyboard-response","149","109069","0.0-149.0","3A1COHJ8NKH47GSARROIOZUA4TXH8F","A2TLN8489YGY81","3S829FDFT2NBOHQMM1CIOU0HZYXDXL","","null","<img src=""img/animal2.png"" style=""width:200px; border:14px solid green;"">","null","","","","","",""
"","image-keyboard-response","150","109720","0.0-150.0","3A1COHJ8NKH47GSARROIOZUA4TXH8F","A2TLN8489YGY81","3S829FDFT2NBOHQMM1CIOU0HZYXDXL","","649.7999999970198","img/animal3.png","75","650.5","2","1","3","0.5,0,1,1,0.5,0,0,1,0.5",""
"","html-keyboard-response","151","110022","0.0-151.0","3A1COHJ8NKH47GSARROIOZUA4TXH8F","A2TLN8489YGY81","3S829FDFT2NBOHQMM1CIOU0HZYXDXL","","null","<img src=""img/animal3.png"" style=""width:200px; border:14px solid green;"">","null","","","","","",""
"","image-keyboard-response","152","110673","0.0-152.0","3A1COHJ8NKH47GSARROIOZUA4TXH8F","A2TLN8489YGY81","3S829FDFT2NBOHQMM1CIOU0HZYXDXL","","649.8999999985099","img/animal3.png","75","650.6000000014901","2","1","3","0.5,0,1,1,0.5,0,0,1,0.5",""
"","html-keyboard-response","153","110975","0.0-153.0","3A1COHJ8NKH47GSARROIOZUA4TXH8F","A2TLN8489YGY81","3S829FDFT2NBOHQMM1CIOU0HZYXDXL","","null","<img src=""img/animal3.png"" style=""width:200px; border:14px solid green;"">","null","","","","","",""
"","image-keyboard-response","154","111700","0.0-154.0","3A1COHJ8NKH47GSARROIOZUA4TXH8F","A2TLN8489YGY81","3S829FDFT2NBOHQMM1CIOU0HZYXDXL","","723.8999999985099","img/animal2.png","76","724.7000000029802","3","1","1","0.5,0,1,1,0.5,0,0,1,0.5",""
"","html-keyboard-response","155","112001","0.0-155.0","3A1COHJ8NKH47GSARROIOZUA4TXH8F","A2TLN8489YGY81","3S829FDFT2NBOHQMM1CIOU0HZYXDXL","","null","<img src=""img/animal2.png"" style=""width:200px; border:14px solid green;"">","null","","","","","",""
"","image-keyboard-response","156","113345","0.0-156.0","3A1COHJ8NKH47GSARROIOZUA4TXH8F","A2TLN8489YGY81","3S829FDFT2NBOHQMM1CIOU0HZYXDXL","","1343.5","img/animal1.png","74","1344.1999999955297","1","1","2","0.5,0,1,1,0.5,0,0,1,0.5",""
"","html-keyboard-response","157","113647","0.0-157.0","3A1COHJ8NKH47GSARROIOZUA4TXH8F","A2TLN8489YGY81","3S829FDFT2NBOHQMM1CIOU0HZYXDXL","","null","<img src=""img/animal1.png"" style=""width:200px; border:14px solid green;"">","null","","","","","",""
"","image-keyboard-response","158","114007","0.0-158.0","3A1COHJ8NKH47GSARROIOZUA4TXH8F","A2TLN8489YGY81","3S829FDFT2NBOHQMM1CIOU0HZYXDXL","","358.59999999403954","img/animal1.png","74","359.70000000298023","1","1","2","0.5,0,1,1,0.5,0,0,1,0.5",""
"","html-keyboard-response","159","114308","0.0-159.0","3A1COHJ8NKH47GSARROIOZUA4TXH8F","A2TLN8489YGY81","3S829FDFT2NBOHQMM1CIOU0HZYXDXL","","null","<img src=""img/animal1.png"" style=""width:200px; border:14px solid green;"">","null","","","","","",""
"","image-keyboard-response","160","114922","0.0-160.0","3A1COHJ8NKH47GSARROIOZUA4TXH8F","A2TLN8489YGY81","3S829FDFT2NBOHQMM1CIOU0HZYXDXL","","613","img/animal2.png","76","613.8999999985099","3","1","1","0.5,0,1,1,0.5,0,0,1,0.5",""
"","html-keyboard-response","161","115223","0.0-161.0","3A1COHJ8NKH47GSARROIOZUA4TXH8F","A2TLN8489YGY81","3S829FDFT2NBOHQMM1CIOU0HZYXDXL","","null","<img src=""img/animal2.png"" style=""width:200px; border:14px solid green;"">","null","","","","","",""
"","image-keyboard-response","162","115999","0.0-162.0","3A1COHJ8NKH47GSARROIOZUA4TXH8F","A2TLN8489YGY81","3S829FDFT2NBOHQMM1CIOU0HZYXDXL","","774.8999999985099","img/animal1.png","74","775.7000000029802","1","1","2","0.5,0,1,1,0.5,0,0,1,0.5",""
"","html-keyboard-response","163","116300","0.0-163.0","3A1COHJ8NKH47GSARROIOZUA4TXH8F","A2TLN8489YGY81","3S829FDFT2NBOHQMM1CIOU0HZYXDXL","","null","<img src=""img/animal1.png"" style=""width:200px; border:14px solid green;"">","null","","","","","",""
"","image-keyboard-response","164","116906","0.0-164.0","3A1COHJ8NKH47GSARROIOZUA4TXH8F","A2TLN8489YGY81","3S829FDFT2NBOHQMM1CIOU0HZYXDXL","","604.8000000044703","img/animal2.png","76","605.6000000014901","3","1","1","0.5,0,1,1,0.5,0,0,1,0.5",""
"","html-keyboard-response","165","117207","0.0-165.0","3A1COHJ8NKH47GSARROIOZUA4TXH8F","A2TLN8489YGY81","3S829FDFT2NBOHQMM1CIOU0HZYXDXL","","null","<img src=""img/animal2.png"" style=""width:200px; border:14px solid green;"">","null","","","","","",""
"","image-keyboard-response","166","117833","0.0-166.0","3A1COHJ8NKH47GSARROIOZUA4TXH8F","A2TLN8489YGY81","3S829FDFT2NBOHQMM1CIOU0HZYXDXL","","624.6999999955297","img/animal3.png","75","625.6000000014901","2","1","3","0.5,0,1,1,0.5,0,0,1,0.5",""
"","html-keyboard-response","167","118134","0.0-167.0","3A1COHJ8NKH47GSARROIOZUA4TXH8F","A2TLN8489YGY81","3S829FDFT2NBOHQMM1CIOU0HZYXDXL","","null","<img src=""img/animal3.png"" style=""width:200px; border:14px solid green;"">","null","","","","","",""
"","image-keyboard-response","168","118521","0.0-168.0","3A1COHJ8NKH47GSARROIOZUA4TXH8F","A2TLN8489YGY81","3S829FDFT2NBOHQMM1CIOU0HZYXDXL","","385.1000000014901","img/animal3.png","75","385.8999999985099","2","1","3","0.5,0,1,1,0.5,0,0,1,0.5",""
"","html-keyboard-response","169","118822","0.0-169.0","3A1COHJ8NKH47GSARROIOZUA4TXH8F","A2TLN8489YGY81","3S829FDFT2NBOHQMM1CIOU0HZYXDXL","","null","<img src=""img/animal3.png"" style=""width:200px; border:14px solid green;"">","null","","","","","",""
"","image-keyboard-response","170","120140","0.0-170.0","3A1COHJ8NKH47GSARROIOZUA4TXH8F","A2TLN8489YGY81","3S829FDFT2NBOHQMM1CIOU0HZYXDXL","","1317.3000000044703","img/animal1.png","74","1318.1000000014901","1","1","2","0.5,0,1,1,0.5,0,0,1,0.5",""
"","html-keyboard-response","171","120442","0.0-171.0","3A1COHJ8NKH47GSARROIOZUA4TXH8F","A2TLN8489YGY81","3S829FDFT2NBOHQMM1CIOU0HZYXDXL","","null","<img src=""img/animal1.png"" style=""width:200px; border:14px solid green;"">","null","","","","","",""
"","image-keyboard-response","172","121188","0.0-172.0","3A1COHJ8NKH47GSARROIOZUA4TXH8F","A2TLN8489YGY81","3S829FDFT2NBOHQMM1CIOU0HZYXDXL","","745.5","img/animal3.png","75","746.2999999970198","2","1","3","0.5,0,1,1,0.5,0,0,1,0.5",""
"","html-keyboard-response","173","121490","0.0-173.0","3A1COHJ8NKH47GSARROIOZUA4TXH8F","A2TLN8489YGY81","3S829FDFT2NBOHQMM1CIOU0HZYXDXL","","null","<img src=""img/animal3.png"" style=""width:200px; border:14px solid green;"">","null","","","","","",""
"","image-keyboard-response","174","122610","0.0-174.0","3A1COHJ8NKH47GSARROIOZUA4TXH8F","A2TLN8489YGY81","3S829FDFT2NBOHQMM1CIOU0HZYXDXL","","1118.7999999970198","img/animal1.png","74","1119.6000000014901","1","1","2","0.5,0,1,1,0.5,0,0,1,0.5",""
"","html-keyboard-response","175","122912","0.0-175.0","3A1COHJ8NKH47GSARROIOZUA4TXH8F","A2TLN8489YGY81","3S829FDFT2NBOHQMM1CIOU0HZYXDXL","","null","<img src=""img/animal1.png"" style=""width:200px; border:14px solid green;"">","null","","","","","",""
"","image-keyboard-response","176","123272","0.0-176.0","3A1COHJ8NKH47GSARROIOZUA4TXH8F","A2TLN8489YGY81","3S829FDFT2NBOHQMM1CIOU0HZYXDXL","","358.5","img/animal1.png","74","359.6000000014901","1","1","2","0.5,0,1,1,0.5,0,0,1,0.5",""
"","html-keyboard-response","177","123574","0.0-177.0","3A1COHJ8NKH47GSARROIOZUA4TXH8F","A2TLN8489YGY81","3S829FDFT2NBOHQMM1CIOU0HZYXDXL","","null","<img src=""img/animal1.png"" style=""width:200px; border:14px solid green;"">","null","","","","","",""
"","image-keyboard-response","178","124419","0.0-178.0","3A1COHJ8NKH47GSARROIOZUA4TXH8F","A2TLN8489YGY81","3S829FDFT2NBOHQMM1CIOU0HZYXDXL","","844.5","img/animal3.png","75","845.1999999955297","2","1","3","0.5,0,1,1,0.5,0,0,1,0.5",""
"","html-keyboard-response","179","124722","0.0-179.0","3A1COHJ8NKH47GSARROIOZUA4TXH8F","A2TLN8489YGY81","3S829FDFT2NBOHQMM1CIOU0HZYXDXL","","null","<img src=""img/animal3.png"" style=""width:200px; border:14px solid green;"">","null","","","","","",""
"","image-keyboard-response","180","125094","0.0-180.0","3A1COHJ8NKH47GSARROIOZUA4TXH8F","A2TLN8489YGY81","3S829FDFT2NBOHQMM1CIOU0HZYXDXL","","371.30000000447035","img/animal3.png","75","372.09999999403954","2","1","3","0.5,0,1,1,0.5,0,0,1,0.5",""
"","html-keyboard-response","181","125395","0.0-181.0","3A1COHJ8NKH47GSARROIOZUA4TXH8F","A2TLN8489YGY81","3S829FDFT2NBOHQMM1CIOU0HZYXDXL","","null","<img src=""img/animal3.png"" style=""width:200px; border:14px solid green;"">","null","","","","","",""
"","html-keyboard-response","182","127063","0.0-182.0","3A1COHJ8NKH47GSARROIOZUA4TXH8F","A2TLN8489YGY81","3S829FDFT2NBOHQMM1CIOU0HZYXDXL","","","","","","","","","",""
"","image-keyboard-response","183","129178","0.0-183.0","3A1COHJ8NKH47GSARROIOZUA4TXH8F","A2TLN8489YGY81","3S829FDFT2NBOHQMM1CIOU0HZYXDXL","","2113.89999999851","img/animal5.png","74","2115","1","1","1","0.7,0,0.8,0.7,0.8,0,0.7,0.8,0",""
"","html-keyboard-response","184","129481","0.0-184.0","3A1COHJ8NKH47GSARROIOZUA4TXH8F","A2TLN8489YGY81","3S829FDFT2NBOHQMM1CIOU0HZYXDXL","","null","<img src=""img/animal5.png"" style=""width:200px; border:14px solid green;"">","null","","","","","",""
"","image-keyboard-response","185","129985","0.0-185.0","3A1COHJ8NKH47GSARROIOZUA4TXH8F","A2TLN8489YGY81","3S829FDFT2NBOHQMM1CIOU0HZYXDXL","","504","img/animal5.png","74","504.79999999701977","1","1","1","0.7,0,0.8,0.7,0.8,0,0.7,0.8,0",""
"","html-keyboard-response","186","130301","0.0-186.0","3A1COHJ8NKH47GSARROIOZUA4TXH8F","A2TLN8489YGY81","3S829FDFT2NBOHQMM1CIOU0HZYXDXL","","null","<img src=""img/animal5.png"" style=""width:200px; border:14px solid green;"">","null","","","","","",""
"","image-keyboard-response","187","130730","0.0-187.0","3A1COHJ8NKH47GSARROIOZUA4TXH8F","A2TLN8489YGY81","3S829FDFT2NBOHQMM1CIOU0HZYXDXL","","428.29999999701977","img/animal5.png","74","429.1000000014901","1","1","1","0.7,0,0.8,0.7,0.8,0,0.7,0.8,0",""
"","html-keyboard-response","188","131032","0.0-188.0","3A1COHJ8NKH47GSARROIOZUA4TXH8F","A2TLN8489YGY81","3S829FDFT2NBOHQMM1CIOU0HZYXDXL","","null","<img src=""img/animal5.png"" style=""width:200px; border:14px solid green;"">","null","","","","","",""
"","image-keyboard-response","189","131534","0.0-189.0","3A1COHJ8NKH47GSARROIOZUA4TXH8F","A2TLN8489YGY81","3S829FDFT2NBOHQMM1CIOU0HZYXDXL","","500.5","img/animal5.png","74","501.3999999985099","1","0","1","0.7,0,0.8,0.7,0.8,0,0.7,0.8,0",""
"","html-keyboard-response","190","131835","0.0-190.0","3A1COHJ8NKH47GSARROIOZUA4TXH8F","A2TLN8489YGY81","3S829FDFT2NBOHQMM1CIOU0HZYXDXL","","null","<img src=""img/animal5.png"" style=""width:200px;border:14px solid red;"">","null","","","","","",""
"","image-keyboard-response","191","133391","0.0-191.0","3A1COHJ8NKH47GSARROIOZUA4TXH8F","A2TLN8489YGY81","3S829FDFT2NBOHQMM1CIOU0HZYXDXL","","1554.6999999955297","img/animal6.png","76","1555.5","3","0","2","0.7,0,0.8,0.7,0.8,0,0.7,0.8,0",""
"","html-keyboard-response","192","133692","0.0-192.0","3A1COHJ8NKH47GSARROIOZUA4TXH8F","A2TLN8489YGY81","3S829FDFT2NBOHQMM1CIOU0HZYXDXL","","null","<img src=""img/animal6.png"" style=""width:200px;border:14px solid red;"">","null","","","","","",""
"","image-keyboard-response","193","134360","0.0-193.0","3A1COHJ8NKH47GSARROIOZUA4TXH8F","A2TLN8489YGY81","3S829FDFT2NBOHQMM1CIOU0HZYXDXL","","666.2000000029802","img/animal6.png","75","667.2000000029802","2","1","2","0.7,0,0.8,0.7,0.8,0,0.7,0.8,0",""
"","html-keyboard-response","194","134662","0.0-194.0","3A1COHJ8NKH47GSARROIOZUA4TXH8F","A2TLN8489YGY81","3S829FDFT2NBOHQMM1CIOU0HZYXDXL","","null","<img src=""img/animal6.png"" style=""width:200px; border:14px solid green;"">","null","","","","","",""
"","image-keyboard-response","195","135316","0.0-195.0","3A1COHJ8NKH47GSARROIOZUA4TXH8F","A2TLN8489YGY81","3S829FDFT2NBOHQMM1CIOU0HZYXDXL","","652.5","img/animal6.png","75","653.6999999955297","2","1","2","0.7,0,0.8,0.7,0.8,0,0.7,0.8,0",""
"","html-keyboard-response","196","135619","0.0-196.0","3A1COHJ8NKH47GSARROIOZUA4TXH8F","A2TLN8489YGY81","3S829FDFT2NBOHQMM1CIOU0HZYXDXL","","null","<img src=""img/animal6.png"" style=""width:200px; border:14px solid green;"">","null","","","","","",""
"","image-keyboard-response","197","136584","0.0-197.0","3A1COHJ8NKH47GSARROIOZUA4TXH8F","A2TLN8489YGY81","3S829FDFT2NBOHQMM1CIOU0HZYXDXL","","964.3999999985099","img/animal4.png","76","965.3999999985099","3","0","3","0.7,0,0.8,0.7,0.8,0,0.7,0.8,0",""
"","html-keyboard-response","198","136886","0.0-198.0","3A1COHJ8NKH47GSARROIOZUA4TXH8F","A2TLN8489YGY81","3S829FDFT2NBOHQMM1CIOU0HZYXDXL","","null","<img src=""img/animal4.png"" style=""width:200px;border:14px solid red;"">","null","","","","","",""
"","image-keyboard-response","199","138305","0.0-199.0","3A1COHJ8NKH47GSARROIOZUA4TXH8F","A2TLN8489YGY81","3S829FDFT2NBOHQMM1CIOU0HZYXDXL","","1417.1000000014901","img/animal5.png","74","1417.8999999985099","1","1","1","0.7,0,0.8,0.7,0.8,0,0.7,0.8,0",""
"","html-keyboard-response","200","138607","0.0-200.0","3A1COHJ8NKH47GSARROIOZUA4TXH8F","A2TLN8489YGY81","3S829FDFT2NBOHQMM1CIOU0HZYXDXL","","null","<img src=""img/animal5.png"" style=""width:200px; border:14px solid green;"">","null","","","","","",""
"","image-keyboard-response","201","139087","0.0-201.0","3A1COHJ8NKH47GSARROIOZUA4TXH8F","A2TLN8489YGY81","3S829FDFT2NBOHQMM1CIOU0HZYXDXL","","479.1000000014901","img/animal5.png","74","480","1","1","1","0.7,0,0.8,0.7,0.8,0,0.7,0.8,0",""
"","html-keyboard-response","202","139388","0.0-202.0","3A1COHJ8NKH47GSARROIOZUA4TXH8F","A2TLN8489YGY81","3S829FDFT2NBOHQMM1CIOU0HZYXDXL","","null","<img src=""img/animal5.png"" style=""width:200px; border:14px solid green;"">","null","","","","","",""
"","image-keyboard-response","203","140098","0.0-203.0","3A1COHJ8NKH47GSARROIOZUA4TXH8F","A2TLN8489YGY81","3S829FDFT2NBOHQMM1CIOU0HZYXDXL","","708.7999999970198","img/animal6.png","75","709.5999999940395","2","0","2","0.7,0,0.8,0.7,0.8,0,0.7,0.8,0",""
"","html-keyboard-response","204","140400","0.0-204.0","3A1COHJ8NKH47GSARROIOZUA4TXH8F","A2TLN8489YGY81","3S829FDFT2NBOHQMM1CIOU0HZYXDXL","","null","<img src=""img/animal6.png"" style=""width:200px;border:14px solid red;"">","null","","","","","",""
"","image-keyboard-response","205","141374","0.0-205.0","3A1COHJ8NKH47GSARROIOZUA4TXH8F","A2TLN8489YGY81","3S829FDFT2NBOHQMM1CIOU0HZYXDXL","","973.2999999970198","img/animal5.png","74","974.1999999955297","1","0","1","0.7,0,0.8,0.7,0.8,0,0.7,0.8,0",""
"","html-keyboard-response","206","141675","0.0-206.0","3A1COHJ8NKH47GSARROIOZUA4TXH8F","A2TLN8489YGY81","3S829FDFT2NBOHQMM1CIOU0HZYXDXL","","null","<img src=""img/animal5.png"" style=""width:200px;border:14px solid red;"">","null","","","","","",""
"","image-keyboard-response","207","142434","0.0-207.0","3A1COHJ8NKH47GSARROIOZUA4TXH8F","A2TLN8489YGY81","3S829FDFT2NBOHQMM1CIOU0HZYXDXL","","757.7999999970198","img/animal6.png","75","758.7000000029802","2","1","2","0.7,0,0.8,0.7,0.8,0,0.7,0.8,0",""
"","html-keyboard-response","208","142736","0.0-208.0","3A1COHJ8NKH47GSARROIOZUA4TXH8F","A2TLN8489YGY81","3S829FDFT2NBOHQMM1CIOU0HZYXDXL","","null","<img src=""img/animal6.png"" style=""width:200px; border:14px solid green;"">","null","","","","","",""
"","image-keyboard-response","209","143739","0.0-209.0","3A1COHJ8NKH47GSARROIOZUA4TXH8F","A2TLN8489YGY81","3S829FDFT2NBOHQMM1CIOU0HZYXDXL","","1002.3999999985099","img/animal4.png","76","1003.2999999970198","3","0","3","0.7,0,0.8,0.7,0.8,0,0.7,0.8,0",""
"","html-keyboard-response","210","144041","0.0-210.0","3A1COHJ8NKH47GSARROIOZUA4TXH8F","A2TLN8489YGY81","3S829FDFT2NBOHQMM1CIOU0HZYXDXL","","null","<img src=""img/animal4.png"" style=""width:200px;border:14px solid red;"">","null","","","","","",""
"","image-keyboard-response","211","144795","0.0-211.0","3A1COHJ8NKH47GSARROIOZUA4TXH8F","A2TLN8489YGY81","3S829FDFT2NBOHQMM1CIOU0HZYXDXL","","752.8999999985099","img/animal4.png","76","753.6999999955297","3","0","3","0.7,0,0.8,0.7,0.8,0,0.7,0.8,0",""
"","html-keyboard-response","212","145097","0.0-212.0","3A1COHJ8NKH47GSARROIOZUA4TXH8F","A2TLN8489YGY81","3S829FDFT2NBOHQMM1CIOU0HZYXDXL","","null","<img src=""img/animal4.png"" style=""width:200px;border:14px solid red;"">","null","","","","","",""
"","image-keyboard-response","213","146490","0.0-213.0","3A1COHJ8NKH47GSARROIOZUA4TXH8F","A2TLN8489YGY81","3S829FDFT2NBOHQMM1CIOU0HZYXDXL","","1392.3999999985099","img/animal6.png","76","1393.2000000029802","3","0","2","0.7,0,0.8,0.7,0.8,0,0.7,0.8,0",""
"","html-keyboard-response","214","146792","0.0-214.0","3A1COHJ8NKH47GSARROIOZUA4TXH8F","A2TLN8489YGY81","3S829FDFT2NBOHQMM1CIOU0HZYXDXL","","null","<img src=""img/animal6.png"" style=""width:200px;border:14px solid red;"">","null","","","","","",""
"","image-keyboard-response","215","147812","0.0-215.0","3A1COHJ8NKH47GSARROIOZUA4TXH8F","A2TLN8489YGY81","3S829FDFT2NBOHQMM1CIOU0HZYXDXL","","1018.8999999985099","img/animal5.png","74","1019.6999999955297","1","1","1","0.7,0,0.8,0.7,0.8,0,0.7,0.8,0",""
"","html-keyboard-response","216","148113","0.0-216.0","3A1COHJ8NKH47GSARROIOZUA4TXH8F","A2TLN8489YGY81","3S829FDFT2NBOHQMM1CIOU0HZYXDXL","","null","<img src=""img/animal5.png"" style=""width:200px; border:14px solid green;"">","null","","","","","",""
"","image-keyboard-response","217","148752","0.0-217.0","3A1COHJ8NKH47GSARROIOZUA4TXH8F","A2TLN8489YGY81","3S829FDFT2NBOHQMM1CIOU0HZYXDXL","","637.6999999955297","img/animal5.png","74","638.4000000059605","1","1","1","0.7,0,0.8,0.7,0.8,0,0.7,0.8,0",""
"","html-keyboard-response","218","149054","0.0-218.0","3A1COHJ8NKH47GSARROIOZUA4TXH8F","A2TLN8489YGY81","3S829FDFT2NBOHQMM1CIOU0HZYXDXL","","null","<img src=""img/animal5.png"" style=""width:200px; border:14px solid green;"">","null","","","","","",""
"","image-keyboard-response","219","149447","0.0-219.0","3A1COHJ8NKH47GSARROIOZUA4TXH8F","A2TLN8489YGY81","3S829FDFT2NBOHQMM1CIOU0HZYXDXL","","392.30000000447035","img/animal5.png","74","393.1000000014901","1","1","1","0.7,0,0.8,0.7,0.8,0,0.7,0.8,0",""
"","html-keyboard-response","220","149750","0.0-220.0","3A1COHJ8NKH47GSARROIOZUA4TXH8F","A2TLN8489YGY81","3S829FDFT2NBOHQMM1CIOU0HZYXDXL","","null","<img src=""img/animal5.png"" style=""width:200px; border:14px solid green;"">","null","","","","","",""
"","image-keyboard-response","221","151068","0.0-221.0","3A1COHJ8NKH47GSARROIOZUA4TXH8F","A2TLN8489YGY81","3S829FDFT2NBOHQMM1CIOU0HZYXDXL","","1316.9000000059605","img/animal6.png","76","1317.8000000044703","3","0","2","0.7,0,0.8,0.7,0.8,0,0.7,0.8,0",""
"","html-keyboard-response","222","151369","0.0-222.0","3A1COHJ8NKH47GSARROIOZUA4TXH8F","A2TLN8489YGY81","3S829FDFT2NBOHQMM1CIOU0HZYXDXL","","null","<img src=""img/animal6.png"" style=""width:200px;border:14px solid red;"">","null","","","","","",""
"","image-keyboard-response","223","152613","0.0-223.0","3A1COHJ8NKH47GSARROIOZUA4TXH8F","A2TLN8489YGY81","3S829FDFT2NBOHQMM1CIOU0HZYXDXL","","1242.6000000014901","img/animal5.png","74","1243.5","1","0","1","0.7,0,0.8,0.7,0.8,0,0.7,0.8,0",""
"","html-keyboard-response","224","152916","0.0-224.0","3A1COHJ8NKH47GSARROIOZUA4TXH8F","A2TLN8489YGY81","3S829FDFT2NBOHQMM1CIOU0HZYXDXL","","null","<img src=""img/animal5.png"" style=""width:200px;border:14px solid red;"">","null","","","","","",""
"","image-keyboard-response","225","153478","0.0-225.0","3A1COHJ8NKH47GSARROIOZUA4TXH8F","A2TLN8489YGY81","3S829FDFT2NBOHQMM1CIOU0HZYXDXL","","561.8999999985099","img/animal5.png","75","562.5999999940395","2","0","1","0.7,0,0.8,0.7,0.8,0,0.7,0.8,0",""
"","html-keyboard-response","226","153780","0.0-226.0","3A1COHJ8NKH47GSARROIOZUA4TXH8F","A2TLN8489YGY81","3S829FDFT2NBOHQMM1CIOU0HZYXDXL","","null","<img src=""img/animal5.png"" style=""width:200px;border:14px solid red;"">","null","","","","","",""
"","image-keyboard-response","227","155397","0.0-227.0","3A1COHJ8NKH47GSARROIOZUA4TXH8F","A2TLN8489YGY81","3S829FDFT2NBOHQMM1CIOU0HZYXDXL","","1615.8999999985099","img/animal6.png","75","1616.8999999985099","2","0","2","0.7,0,0.8,0.7,0.8,0,0.7,0.8,0",""
"","html-keyboard-response","228","155699","0.0-228.0","3A1COHJ8NKH47GSARROIOZUA4TXH8F","A2TLN8489YGY81","3S829FDFT2NBOHQMM1CIOU0HZYXDXL","","null","<img src=""img/animal6.png"" style=""width:200px;border:14px solid red;"">","null","","","","","",""
"","image-keyboard-response","229","156549","0.0-229.0","3A1COHJ8NKH47GSARROIOZUA4TXH8F","A2TLN8489YGY81","3S829FDFT2NBOHQMM1CIOU0HZYXDXL","","849","img/animal5.png","76","849.7999999970198","3","0","1","0.7,0,0.8,0.7,0.8,0,0.7,0.8,0",""
"","html-keyboard-response","230","156855","0.0-230.0","3A1COHJ8NKH47GSARROIOZUA4TXH8F","A2TLN8489YGY81","3S829FDFT2NBOHQMM1CIOU0HZYXDXL","","null","<img src=""img/animal5.png"" style=""width:200px;border:14px solid red;"">","null","","","","","",""
"","image-keyboard-response","231","160235","0.0-231.0","3A1COHJ8NKH47GSARROIOZUA4TXH8F","A2TLN8489YGY81","3S829FDFT2NBOHQMM1CIOU0HZYXDXL","","3379.39999999851","img/animal6.png","74","3380.2999999970198","1","1","2","0.7,0,0.8,0.7,0.8,0,0.7,0.8,0",""
"","html-keyboard-response","232","160552","0.0-232.0","3A1COHJ8NKH47GSARROIOZUA4TXH8F","A2TLN8489YGY81","3S829FDFT2NBOHQMM1CIOU0HZYXDXL","","null","<img src=""img/animal6.png"" style=""width:200px; border:14px solid green;"">","null","","","","","",""
"","image-keyboard-response","233","165216","0.0-233.0","3A1COHJ8NKH47GSARROIOZUA4TXH8F","A2TLN8489YGY81","3S829FDFT2NBOHQMM1CIOU0HZYXDXL","","4663.10000000149","img/animal4.png","74","4664","1","0","3","0.7,0,0.8,0.7,0.8,0,0.7,0.8,0",""
"","html-keyboard-response","234","165517","0.0-234.0","3A1COHJ8NKH47GSARROIOZUA4TXH8F","A2TLN8489YGY81","3S829FDFT2NBOHQMM1CIOU0HZYXDXL","","null","<img src=""img/animal4.png"" style=""width:200px;border:14px solid red;"">","null","","","","","",""
"","image-keyboard-response","235","166670","0.0-235.0","3A1COHJ8NKH47GSARROIOZUA4TXH8F","A2TLN8489YGY81","3S829FDFT2NBOHQMM1CIOU0HZYXDXL","","1151.6000000014901","img/animal5.png","74","1152.3999999985099","1","0","1","0.7,0,0.8,0.7,0.8,0,0.7,0.8,0",""
"","html-keyboard-response","236","166972","0.0-236.0","3A1COHJ8NKH47GSARROIOZUA4TXH8F","A2TLN8489YGY81","3S829FDFT2NBOHQMM1CIOU0HZYXDXL","","null","<img src=""img/animal5.png"" style=""width:200px;border:14px solid red;"">","null","","","","","",""
"","image-keyboard-response","237","167731","0.0-237.0","3A1COHJ8NKH47GSARROIOZUA4TXH8F","A2TLN8489YGY81","3S829FDFT2NBOHQMM1CIOU0HZYXDXL","","757.9000000059605","img/animal5.png","75","758.7999999970198","2","0","1","0.7,0,0.8,0.7,0.8,0,0.7,0.8,0",""
"","html-keyboard-response","238","168033","0.0-238.0","3A1COHJ8NKH47GSARROIOZUA4TXH8F","A2TLN8489YGY81","3S829FDFT2NBOHQMM1CIOU0HZYXDXL","","null","<img src=""img/animal5.png"" style=""width:200px;border:14px solid red;"">","null","","","","","",""
"","image-keyboard-response","239","169438","0.0-239.0","3A1COHJ8NKH47GSARROIOZUA4TXH8F","A2TLN8489YGY81","3S829FDFT2NBOHQMM1CIOU0HZYXDXL","","1404.5999999940395","img/animal6.png","74","1405.3999999985099","1","1","2","0.7,0,0.8,0.7,0.8,0,0.7,0.8,0",""
"","html-keyboard-response","240","169740","0.0-240.0","3A1COHJ8NKH47GSARROIOZUA4TXH8F","A2TLN8489YGY81","3S829FDFT2NBOHQMM1CIOU0HZYXDXL","","null","<img src=""img/animal6.png"" style=""width:200px; border:14px solid green;"">","null","","","","","",""
"","image-keyboard-response","241","171303","0.0-241.0","3A1COHJ8NKH47GSARROIOZUA4TXH8F","A2TLN8489YGY81","3S829FDFT2NBOHQMM1CIOU0HZYXDXL","","1562.6000000014901","img/animal5.png","76","1563.3999999985099","3","1","1","0.7,0,0.8,0.7,0.8,0,0.7,0.8,0",""
"","html-keyboard-response","242","171605","0.0-242.0","3A1COHJ8NKH47GSARROIOZUA4TXH8F","A2TLN8489YGY81","3S829FDFT2NBOHQMM1CIOU0HZYXDXL","","null","<img src=""img/animal5.png"" style=""width:200px; border:14px solid green;"">","null","","","","","",""
"","image-keyboard-response","243","173886","0.0-243.0","3A1COHJ8NKH47GSARROIOZUA4TXH8F","A2TLN8489YGY81","3S829FDFT2NBOHQMM1CIOU0HZYXDXL","","2279.5","img/animal4.png","75","2280.4000000059605","2","1","3","0.7,0,0.8,0.7,0.8,0,0.7,0.8,0",""
"","html-keyboard-response","244","174187","0.0-244.0","3A1COHJ8NKH47GSARROIOZUA4TXH8F","A2TLN8489YGY81","3S829FDFT2NBOHQMM1CIOU0HZYXDXL","","null","<img src=""img/animal4.png"" style=""width:200px; border:14px solid green;"">","null","","","","","",""
"","image-keyboard-response","245","174751","0.0-245.0","3A1COHJ8NKH47GSARROIOZUA4TXH8F","A2TLN8489YGY81","3S829FDFT2NBOHQMM1CIOU0HZYXDXL","","563.1999999955297","img/animal4.png","75","563.8999999985099","2","0","3","0.7,0,0.8,0.7,0.8,0,0.7,0.8,0",""
"","html-keyboard-response","246","175053","0.0-246.0","3A1COHJ8NKH47GSARROIOZUA4TXH8F","A2TLN8489YGY81","3S829FDFT2NBOHQMM1CIOU0HZYXDXL","","null","<img src=""img/animal4.png"" style=""width:200px;border:14px solid red;"">","null","","","","","",""
"","image-keyboard-response","247","176559","0.0-247.0","3A1COHJ8NKH47GSARROIOZUA4TXH8F","A2TLN8489YGY81","3S829FDFT2NBOHQMM1CIOU0HZYXDXL","","1504.7999999970198","img/animal5.png","76","1505.5","3","1","1","0.7,0,0.8,0.7,0.8,0,0.7,0.8,0",""
"","html-keyboard-response","248","176861","0.0-248.0","3A1COHJ8NKH47GSARROIOZUA4TXH8F","A2TLN8489YGY81","3S829FDFT2NBOHQMM1CIOU0HZYXDXL","","null","<img src=""img/animal5.png"" style=""width:200px; border:14px solid green;"">","null","","","","","",""
"","image-keyboard-response","249","178196","0.0-249.0","3A1COHJ8NKH47GSARROIOZUA4TXH8F","A2TLN8489YGY81","3S829FDFT2NBOHQMM1CIOU0HZYXDXL","","1333","img/animal6.png","74","1334.2000000029802","1","0","2","0.7,0,0.8,0.7,0.8,0,0.7,0.8,0",""
"","html-keyboard-response","250","178498","0.0-250.0","3A1COHJ8NKH47GSARROIOZUA4TXH8F","A2TLN8489YGY81","3S829FDFT2NBOHQMM1CIOU0HZYXDXL","","null","<img src=""img/animal6.png"" style=""width:200px;border:14px solid red;"">","null","","","","","",""
"","image-keyboard-response","251","180579","0.0-251.0","3A1COHJ8NKH47GSARROIOZUA4TXH8F","A2TLN8489YGY81","3S829FDFT2NBOHQMM1CIOU0HZYXDXL","","2080.2999999970198","img/animal5.png","75","2081.10000000149","2","0","1","0.7,0,0.8,0.7,0.8,0,0.7,0.8,0",""
"","html-keyboard-response","252","180881","0.0-252.0","3A1COHJ8NKH47GSARROIOZUA4TXH8F","A2TLN8489YGY81","3S829FDFT2NBOHQMM1CIOU0HZYXDXL","","null","<img src=""img/animal5.png"" style=""width:200px;border:14px solid red;"">","null","","","","","",""
"","image-keyboard-response","253","182092","0.0-253.0","3A1COHJ8NKH47GSARROIOZUA4TXH8F","A2TLN8489YGY81","3S829FDFT2NBOHQMM1CIOU0HZYXDXL","","1209.3000000044703","img/animal4.png","75","1210.1000000014901","2","1","3","0.7,0,0.8,0.7,0.8,0,0.7,0.8,0",""
"","html-keyboard-response","254","182393","0.0-254.0","3A1COHJ8NKH47GSARROIOZUA4TXH8F","A2TLN8489YGY81","3S829FDFT2NBOHQMM1CIOU0HZYXDXL","","null","<img src=""img/animal4.png"" style=""width:200px; border:14px solid green;"">","null","","","","","",""
"","image-keyboard-response","255","185645","0.0-255.0","3A1COHJ8NKH47GSARROIOZUA4TXH8F","A2TLN8489YGY81","3S829FDFT2NBOHQMM1CIOU0HZYXDXL","","3251.4000000059605","img/animal6.png","74","3252.2000000029802","1","0","2","0.7,0,0.8,0.7,0.8,0,0.7,0.8,0",""
"","html-keyboard-response","256","185947","0.0-256.0","3A1COHJ8NKH47GSARROIOZUA4TXH8F","A2TLN8489YGY81","3S829FDFT2NBOHQMM1CIOU0HZYXDXL","","null","<img src=""img/animal6.png"" style=""width:200px;border:14px solid red;"">","null","","","","","",""
"","image-keyboard-response","257","188132","0.0-257.0","3A1COHJ8NKH47GSARROIOZUA4TXH8F","A2TLN8489YGY81","3S829FDFT2NBOHQMM1CIOU0HZYXDXL","","2184.5","img/animal4.png","76","2185.2999999970198","3","0","3","0.7,0,0.8,0.7,0.8,0,0.7,0.8,0",""
"","html-keyboard-response","258","188435","0.0-258.0","3A1COHJ8NKH47GSARROIOZUA4TXH8F","A2TLN8489YGY81","3S829FDFT2NBOHQMM1CIOU0HZYXDXL","","null","<img src=""img/animal4.png"" style=""width:200px;border:14px solid red;"">","null","","","","","",""
"","image-keyboard-response","259","190943","0.0-259.0","3A1COHJ8NKH47GSARROIOZUA4TXH8F","A2TLN8489YGY81","3S829FDFT2NBOHQMM1CIOU0HZYXDXL","","2507","img/animal6.png","75","2507.9000000059605","2","1","2","0.7,0,0.8,0.7,0.8,0,0.7,0.8,0",""
"","html-keyboard-response","260","191246","0.0-260.0","3A1COHJ8NKH47GSARROIOZUA4TXH8F","A2TLN8489YGY81","3S829FDFT2NBOHQMM1CIOU0HZYXDXL","","null","<img src=""img/animal6.png"" style=""width:200px; border:14px solid green;"">","null","","","","","",""
"","image-keyboard-response","261","191871","0.0-261.0","3A1COHJ8NKH47GSARROIOZUA4TXH8F","A2TLN8489YGY81","3S829FDFT2NBOHQMM1CIOU0HZYXDXL","","624.2999999970198","img/animal6.png","75","625.1000000014901","2","1","2","0.7,0,0.8,0.7,0.8,0,0.7,0.8,0",""
"","html-keyboard-response","262","192172","0.0-262.0","3A1COHJ8NKH47GSARROIOZUA4TXH8F","A2TLN8489YGY81","3S829FDFT2NBOHQMM1CIOU0HZYXDXL","","null","<img src=""img/animal6.png"" style=""width:200px; border:14px solid green;"">","null","","","","","",""
"","image-keyboard-response","263","192653","0.0-263.0","3A1COHJ8NKH47GSARROIOZUA4TXH8F","A2TLN8489YGY81","3S829FDFT2NBOHQMM1CIOU0HZYXDXL","","480","img/animal6.png","75","480.70000000298023","2","0","2","0.7,0,0.8,0.7,0.8,0,0.7,0.8,0",""
"","html-keyboard-response","264","192955","0.0-264.0","3A1COHJ8NKH47GSARROIOZUA4TXH8F","A2TLN8489YGY81","3S829FDFT2NBOHQMM1CIOU0HZYXDXL","","null","<img src=""img/animal6.png"" style=""width:200px;border:14px solid red;"">","null","","","","","",""
"","image-keyboard-response","265","195866","0.0-265.0","3A1COHJ8NKH47GSARROIOZUA4TXH8F","A2TLN8489YGY81","3S829FDFT2NBOHQMM1CIOU0HZYXDXL","","2910.39999999851","img/animal5.png","74","2911.10000000149","1","1","1","0.7,0,0.8,0.7,0.8,0,0.7,0.8,0",""
"","html-keyboard-response","266","196169","0.0-266.0","3A1COHJ8NKH47GSARROIOZUA4TXH8F","A2TLN8489YGY81","3S829FDFT2NBOHQMM1CIOU0HZYXDXL","","null","<img src=""img/animal5.png"" style=""width:200px; border:14px solid green;"">","null","","","","","",""
"","image-keyboard-response","267","198188","0.0-267.0","3A1COHJ8NKH47GSARROIOZUA4TXH8F","A2TLN8489YGY81","3S829FDFT2NBOHQMM1CIOU0HZYXDXL","","2018","img/animal6.png","75","2018.7999999970198","2","1","2","0.7,0,0.8,0.7,0.8,0,0.7,0.8,0",""
"","html-keyboard-response","268","198489","0.0-268.0","3A1COHJ8NKH47GSARROIOZUA4TXH8F","A2TLN8489YGY81","3S829FDFT2NBOHQMM1CIOU0HZYXDXL","","null","<img src=""img/animal6.png"" style=""width:200px; border:14px solid green;"">","null","","","","","",""
"","image-keyboard-response","269","198850","0.0-269.0","3A1COHJ8NKH47GSARROIOZUA4TXH8F","A2TLN8489YGY81","3S829FDFT2NBOHQMM1CIOU0HZYXDXL","","359.80000000447035","img/animal6.png","75","360.6000000014901","2","1","2","0.7,0,0.8,0.7,0.8,0,0.7,0.8,0",""
"","html-keyboard-response","270","199152","0.0-270.0","3A1COHJ8NKH47GSARROIOZUA4TXH8F","A2TLN8489YGY81","3S829FDFT2NBOHQMM1CIOU0HZYXDXL","","null","<img src=""img/animal6.png"" style=""width:200px; border:14px solid green;"">","null","","","","","",""
"","image-keyboard-response","271","199483","0.0-271.0","3A1COHJ8NKH47GSARROIOZUA4TXH8F","A2TLN8489YGY81","3S829FDFT2NBOHQMM1CIOU0HZYXDXL","","330.3999999985099","img/animal6.png","75","331.20000000298023","2","0","2","0.7,0,0.8,0.7,0.8,0,0.7,0.8,0",""
"","html-keyboard-response","272","199784","0.0-272.0","3A1COHJ8NKH47GSARROIOZUA4TXH8F","A2TLN8489YGY81","3S829FDFT2NBOHQMM1CIOU0HZYXDXL","","null","<img src=""img/animal6.png"" style=""width:200px;border:14px solid red;"">","null","","","","","",""
"","image-keyboard-response","273","200871","0.0-273.0","3A1COHJ8NKH47GSARROIOZUA4TXH8F","A2TLN8489YGY81","3S829FDFT2NBOHQMM1CIOU0HZYXDXL","","1086.0999999940395","img/animal4.png","76","1086.8999999985099","3","0","3","0.7,0,0.8,0.7,0.8,0,0.7,0.8,0",""
"","html-keyboard-response","274","201173","0.0-274.0","3A1COHJ8NKH47GSARROIOZUA4TXH8F","A2TLN8489YGY81","3S829FDFT2NBOHQMM1CIOU0HZYXDXL","","null","<img src=""img/animal4.png"" style=""width:200px;border:14px solid red;"">","null","","","","","",""
"","image-keyboard-response","275","203130","0.0-275.0","3A1COHJ8NKH47GSARROIOZUA4TXH8F","A2TLN8489YGY81","3S829FDFT2NBOHQMM1CIOU0HZYXDXL","","1956.7000000029802","img/animal4.png","75","1957.6000000014901","2","1","3","0.7,0,0.8,0.7,0.8,0,0.7,0.8,0",""
"","html-keyboard-response","276","203432","0.0-276.0","3A1COHJ8NKH47GSARROIOZUA4TXH8F","A2TLN8489YGY81","3S829FDFT2NBOHQMM1CIOU0HZYXDXL","","null","<img src=""img/animal4.png"" style=""width:200px; border:14px solid green;"">","null","","","","","",""
"","image-keyboard-response","277","203954","0.0-277.0","3A1COHJ8NKH47GSARROIOZUA4TXH8F","A2TLN8489YGY81","3S829FDFT2NBOHQMM1CIOU0HZYXDXL","","520.7000000029802","img/animal4.png","75","521.5","2","1","3","0.7,0,0.8,0.7,0.8,0,0.7,0.8,0",""
"","html-keyboard-response","278","204256","0.0-278.0","3A1COHJ8NKH47GSARROIOZUA4TXH8F","A2TLN8489YGY81","3S829FDFT2NBOHQMM1CIOU0HZYXDXL","","null","<img src=""img/animal4.png"" style=""width:200px; border:14px solid green;"">","null","","","","","",""
"","image-keyboard-response","279","205342","0.0-279.0","3A1COHJ8NKH47GSARROIOZUA4TXH8F","A2TLN8489YGY81","3S829FDFT2NBOHQMM1CIOU0HZYXDXL","","1084.8000000044703","img/animal6.png","75","1085.5","2","1","2","0.7,0,0.8,0.7,0.8,0,0.7,0.8,0",""
"","html-keyboard-response","280","205644","0.0-280.0","3A1COHJ8NKH47GSARROIOZUA4TXH8F","A2TLN8489YGY81","3S829FDFT2NBOHQMM1CIOU0HZYXDXL","","null","<img src=""img/animal6.png"" style=""width:200px; border:14px solid green;"">","null","","","","","",""
"","image-keyboard-response","281","206286","0.0-281.0","3A1COHJ8NKH47GSARROIOZUA4TXH8F","A2TLN8489YGY81","3S829FDFT2NBOHQMM1CIOU0HZYXDXL","","641","img/animal4.png","75","641.8000000044703","2","1","3","0.7,0,0.8,0.7,0.8,0,0.7,0.8,0",""
"","html-keyboard-response","282","206589","0.0-282.0","3A1COHJ8NKH47GSARROIOZUA4TXH8F","A2TLN8489YGY81","3S829FDFT2NBOHQMM1CIOU0HZYXDXL","","null","<img src=""img/animal4.png"" style=""width:200px; border:14px solid green;"">","null","","","","","",""
"","image-keyboard-response","283","207068","0.0-283.0","3A1COHJ8NKH47GSARROIOZUA4TXH8F","A2TLN8489YGY81","3S829FDFT2NBOHQMM1CIOU0HZYXDXL","","478.80000000447035","img/animal4.png","75","479.5","2","1","3","0.7,0,0.8,0.7,0.8,0,0.7,0.8,0",""
"","html-keyboard-response","284","207371","0.0-284.0","3A1COHJ8NKH47GSARROIOZUA4TXH8F","A2TLN8489YGY81","3S829FDFT2NBOHQMM1CIOU0HZYXDXL","","null","<img src=""img/animal4.png"" style=""width:200px; border:14px solid green;"">","null","","","","","",""
"","image-keyboard-response","285","208544","0.0-285.0","3A1COHJ8NKH47GSARROIOZUA4TXH8F","A2TLN8489YGY81","3S829FDFT2NBOHQMM1CIOU0HZYXDXL","","1172.1999999955297","img/animal5.png","74","1173","1","1","1","0.7,0,0.8,0.7,0.8,0,0.7,0.8,0",""
"","html-keyboard-response","286","208845","0.0-286.0","3A1COHJ8NKH47GSARROIOZUA4TXH8F","A2TLN8489YGY81","3S829FDFT2NBOHQMM1CIOU0HZYXDXL","","null","<img src=""img/animal5.png"" style=""width:200px; border:14px solid green;"">","null","","","","","",""
"","image-keyboard-response","287","209616","0.0-287.0","3A1COHJ8NKH47GSARROIOZUA4TXH8F","A2TLN8489YGY81","3S829FDFT2NBOHQMM1CIOU0HZYXDXL","","770","img/animal6.png","75","771","2","1","2","0.7,0,0.8,0.7,0.8,0,0.7,0.8,0",""
"","html-keyboard-response","288","209918","0.0-288.0","3A1COHJ8NKH47GSARROIOZUA4TXH8F","A2TLN8489YGY81","3S829FDFT2NBOHQMM1CIOU0HZYXDXL","","null","<img src=""img/animal6.png"" style=""width:200px; border:14px solid green;"">","null","","","","","",""
"","image-keyboard-response","289","211108","0.0-289.0","3A1COHJ8NKH47GSARROIOZUA4TXH8F","A2TLN8489YGY81","3S829FDFT2NBOHQMM1CIOU0HZYXDXL","","1188.9000000059605","img/animal5.png","75","1189.8000000044703","2","0","1","0.7,0,0.8,0.7,0.8,0,0.7,0.8,0",""
"","html-keyboard-response","290","211410","0.0-290.0","3A1COHJ8NKH47GSARROIOZUA4TXH8F","A2TLN8489YGY81","3S829FDFT2NBOHQMM1CIOU0HZYXDXL","","null","<img src=""img/animal5.png"" style=""width:200px;border:14px solid red;"">","null","","","","","",""
"","image-keyboard-response","291","212119","0.0-291.0","3A1COHJ8NKH47GSARROIOZUA4TXH8F","A2TLN8489YGY81","3S829FDFT2NBOHQMM1CIOU0HZYXDXL","","707","img/animal6.png","75","708","2","1","2","0.7,0,0.8,0.7,0.8,0,0.7,0.8,0",""
"","html-keyboard-response","292","212420","0.0-292.0","3A1COHJ8NKH47GSARROIOZUA4TXH8F","A2TLN8489YGY81","3S829FDFT2NBOHQMM1CIOU0HZYXDXL","","null","<img src=""img/animal6.png"" style=""width:200px; border:14px solid green;"">","null","","","","","",""
"","image-keyboard-response","293","212975","0.0-293.0","3A1COHJ8NKH47GSARROIOZUA4TXH8F","A2TLN8489YGY81","3S829FDFT2NBOHQMM1CIOU0HZYXDXL","","555","img/animal4.png","75","555.6999999955297","2","1","3","0.7,0,0.8,0.7,0.8,0,0.7,0.8,0",""
"","html-keyboard-response","294","213277","0.0-294.0","3A1COHJ8NKH47GSARROIOZUA4TXH8F","A2TLN8489YGY81","3S829FDFT2NBOHQMM1CIOU0HZYXDXL","","null","<img src=""img/animal4.png"" style=""width:200px; border:14px solid green;"">","null","","","","","",""
"","image-keyboard-response","295","214492","0.0-295.0","3A1COHJ8NKH47GSARROIOZUA4TXH8F","A2TLN8489YGY81","3S829FDFT2NBOHQMM1CIOU0HZYXDXL","","1214.2999999970198","img/animal5.png","75","1215.2000000029802","2","0","1","0.7,0,0.8,0.7,0.8,0,0.7,0.8,0",""
"","html-keyboard-response","296","214800","0.0-296.0","3A1COHJ8NKH47GSARROIOZUA4TXH8F","A2TLN8489YGY81","3S829FDFT2NBOHQMM1CIOU0HZYXDXL","","null","<img src=""img/animal5.png"" style=""width:200px;border:14px solid red;"">","null","","","","","",""
"","image-keyboard-response","297","215573","0.0-297.0","3A1COHJ8NKH47GSARROIOZUA4TXH8F","A2TLN8489YGY81","3S829FDFT2NBOHQMM1CIOU0HZYXDXL","","772.6000000014901","img/animal4.png","75","773.6000000014901","2","0","3","0.7,0,0.8,0.7,0.8,0,0.7,0.8,0",""
"","html-keyboard-response","298","215876","0.0-298.0","3A1COHJ8NKH47GSARROIOZUA4TXH8F","A2TLN8489YGY81","3S829FDFT2NBOHQMM1CIOU0HZYXDXL","","null","<img src=""img/animal4.png"" style=""width:200px;border:14px solid red;"">","null","","","","","",""
"","image-keyboard-response","299","216576","0.0-299.0","3A1COHJ8NKH47GSARROIOZUA4TXH8F","A2TLN8489YGY81","3S829FDFT2NBOHQMM1CIOU0HZYXDXL","","698.2999999970198","img/animal6.png","75","699.3999999985099","2","1","2","0.7,0,0.8,0.7,0.8,0,0.7,0.8,0",""
"","html-keyboard-response","300","216877","0.0-300.0","3A1COHJ8NKH47GSARROIOZUA4TXH8F","A2TLN8489YGY81","3S829FDFT2NBOHQMM1CIOU0HZYXDXL","","null","<img src=""img/animal6.png"" style=""width:200px; border:14px solid green;"">","null","","","","","",""
"","image-keyboard-response","301","217681","0.0-301.0","3A1COHJ8NKH47GSARROIOZUA4TXH8F","A2TLN8489YGY81","3S829FDFT2NBOHQMM1CIOU0HZYXDXL","","803.3000000044703","img/animal4.png","75","804.1000000014901","2","1","3","0.7,0,0.8,0.7,0.8,0,0.7,0.8,0",""
"","html-keyboard-response","302","217983","0.0-302.0","3A1COHJ8NKH47GSARROIOZUA4TXH8F","A2TLN8489YGY81","3S829FDFT2NBOHQMM1CIOU0HZYXDXL","","null","<img src=""img/animal4.png"" style=""width:200px; border:14px solid green;"">","null","","","","","",""
"","image-keyboard-response","303","218427","0.0-303.0","3A1COHJ8NKH47GSARROIOZUA4TXH8F","A2TLN8489YGY81","3S829FDFT2NBOHQMM1CIOU0HZYXDXL","","442.5","img/animal4.png","75","443.30000000447035","2","1","3","0.7,0,0.8,0.7,0.8,0,0.7,0.8,0",""
"","html-keyboard-response","304","218729","0.0-304.0","3A1COHJ8NKH47GSARROIOZUA4TXH8F","A2TLN8489YGY81","3S829FDFT2NBOHQMM1CIOU0HZYXDXL","","null","<img src=""img/animal4.png"" style=""width:200px; border:14px solid green;"">","null","","","","","",""
"","image-keyboard-response","305","220167","0.0-305.0","3A1COHJ8NKH47GSARROIOZUA4TXH8F","A2TLN8489YGY81","3S829FDFT2NBOHQMM1CIOU0HZYXDXL","","1437.6000000014901","img/animal5.png","74","1438.3999999985099","1","1","1","0.7,0,0.8,0.7,0.8,0,0.7,0.8,0",""
"","html-keyboard-response","306","220470","0.0-306.0","3A1COHJ8NKH47GSARROIOZUA4TXH8F","A2TLN8489YGY81","3S829FDFT2NBOHQMM1CIOU0HZYXDXL","","null","<img src=""img/animal5.png"" style=""width:200px; border:14px solid green;"">","null","","","","","",""
"","image-keyboard-response","307","221231","0.0-307.0","3A1COHJ8NKH47GSARROIOZUA4TXH8F","A2TLN8489YGY81","3S829FDFT2NBOHQMM1CIOU0HZYXDXL","","760.4000000059605","img/animal6.png","75","761.1000000014901","2","0","2","0.7,0,0.8,0.7,0.8,0,0.7,0.8,0",""
"","html-keyboard-response","308","221532","0.0-308.0","3A1COHJ8NKH47GSARROIOZUA4TXH8F","A2TLN8489YGY81","3S829FDFT2NBOHQMM1CIOU0HZYXDXL","","null","<img src=""img/animal6.png"" style=""width:200px;border:14px solid red;"">","null","","","","","",""
"","image-keyboard-response","309","223175","0.0-309.0","3A1COHJ8NKH47GSARROIOZUA4TXH8F","A2TLN8489YGY81","3S829FDFT2NBOHQMM1CIOU0HZYXDXL","","1641.7000000029802","img/animal5.png","74","1642.6000000014901","1","1","1","0.7,0,0.8,0.7,0.8,0,0.7,0.8,0",""
"","html-keyboard-response","310","223476","0.0-310.0","3A1COHJ8NKH47GSARROIOZUA4TXH8F","A2TLN8489YGY81","3S829FDFT2NBOHQMM1CIOU0HZYXDXL","","null","<img src=""img/animal5.png"" style=""width:200px; border:14px solid green;"">","null","","","","","",""
"","image-keyboard-response","311","223945","0.0-311.0","3A1COHJ8NKH47GSARROIOZUA4TXH8F","A2TLN8489YGY81","3S829FDFT2NBOHQMM1CIOU0HZYXDXL","","467.8999999985099","img/animal5.png","74","468.69999999552965","1","1","1","0.7,0,0.8,0.7,0.8,0,0.7,0.8,0",""
"","html-keyboard-response","312","224248","0.0-312.0","3A1COHJ8NKH47GSARROIOZUA4TXH8F","A2TLN8489YGY81","3S829FDFT2NBOHQMM1CIOU0HZYXDXL","","null","<img src=""img/animal5.png"" style=""width:200px; border:14px solid green;"">","null","","","","","",""
"","image-keyboard-response","313","225312","0.0-313.0","3A1COHJ8NKH47GSARROIOZUA4TXH8F","A2TLN8489YGY81","3S829FDFT2NBOHQMM1CIOU0HZYXDXL","","1063.8000000044703","img/animal4.png","75","1064.5","2","1","3","0.7,0,0.8,0.7,0.8,0,0.7,0.8,0",""
"","html-keyboard-response","314","225615","0.0-314.0","3A1COHJ8NKH47GSARROIOZUA4TXH8F","A2TLN8489YGY81","3S829FDFT2NBOHQMM1CIOU0HZYXDXL","","null","<img src=""img/animal4.png"" style=""width:200px; border:14px solid green;"">","null","","","","","",""
"","image-keyboard-response","315","226004","0.0-315.0","3A1COHJ8NKH47GSARROIOZUA4TXH8F","A2TLN8489YGY81","3S829FDFT2NBOHQMM1CIOU0HZYXDXL","","387.30000000447035","img/animal4.png","75","388.29999999701977","2","1","3","0.7,0,0.8,0.7,0.8,0,0.7,0.8,0",""
"","html-keyboard-response","316","226305","0.0-316.0","3A1COHJ8NKH47GSARROIOZUA4TXH8F","A2TLN8489YGY81","3S829FDFT2NBOHQMM1CIOU0HZYXDXL","","null","<img src=""img/animal4.png"" style=""width:200px; border:14px solid green;"">","null","","","","","",""
"","image-keyboard-response","317","226695","0.0-317.0","3A1COHJ8NKH47GSARROIOZUA4TXH8F","A2TLN8489YGY81","3S829FDFT2NBOHQMM1CIOU0HZYXDXL","","388.29999999701977","img/animal4.png","75","389","2","1","3","0.7,0,0.8,0.7,0.8,0,0.7,0.8,0",""
"","html-keyboard-response","318","226997","0.0-318.0","3A1COHJ8NKH47GSARROIOZUA4TXH8F","A2TLN8489YGY81","3S829FDFT2NBOHQMM1CIOU0HZYXDXL","","null","<img src=""img/animal4.png"" style=""width:200px; border:14px solid green;"">","null","","","","","",""
"","image-keyboard-response","319","227332","0.0-319.0","3A1COHJ8NKH47GSARROIOZUA4TXH8F","A2TLN8489YGY81","3S829FDFT2NBOHQMM1CIOU0HZYXDXL","","333.8999999985099","img/animal4.png","75","334.6000000014901","2","1","3","0.7,0,0.8,0.7,0.8,0,0.7,0.8,0",""
"","html-keyboard-response","320","227634","0.0-320.0","3A1COHJ8NKH47GSARROIOZUA4TXH8F","A2TLN8489YGY81","3S829FDFT2NBOHQMM1CIOU0HZYXDXL","","null","<img src=""img/animal4.png"" style=""width:200px; border:14px solid green;"">","null","","","","","",""
"","image-keyboard-response","321","228430","0.0-321.0","3A1COHJ8NKH47GSARROIOZUA4TXH8F","A2TLN8489YGY81","3S829FDFT2NBOHQMM1CIOU0HZYXDXL","","794.6999999955297","img/animal6.png","75","795.2999999970198","2","1","2","0.7,0,0.8,0.7,0.8,0,0.7,0.8,0",""
"","html-keyboard-response","322","228732","0.0-322.0","3A1COHJ8NKH47GSARROIOZUA4TXH8F","A2TLN8489YGY81","3S829FDFT2NBOHQMM1CIOU0HZYXDXL","","null","<img src=""img/animal6.png"" style=""width:200px; border:14px solid green;"">","null","","","","","",""
"","image-keyboard-response","323","229254","0.0-323.0","3A1COHJ8NKH47GSARROIOZUA4TXH8F","A2TLN8489YGY81","3S829FDFT2NBOHQMM1CIOU0HZYXDXL","","521.1999999955297","img/animal6.png","75","521.8999999985099","2","0","2","0.7,0,0.8,0.7,0.8,0,0.7,0.8,0",""
"","html-keyboard-response","324","229555","0.0-324.0","3A1COHJ8NKH47GSARROIOZUA4TXH8F","A2TLN8489YGY81","3S829FDFT2NBOHQMM1CIOU0HZYXDXL","","null","<img src=""img/animal6.png"" style=""width:200px;border:14px solid red;"">","null","","","","","",""
"","image-keyboard-response","325","230476","0.0-325.0","3A1COHJ8NKH47GSARROIOZUA4TXH8F","A2TLN8489YGY81","3S829FDFT2NBOHQMM1CIOU0HZYXDXL","","920","img/animal4.png","75","920.8000000044703","2","1","3","0.7,0,0.8,0.7,0.8,0,0.7,0.8,0",""
"","html-keyboard-response","326","230778","0.0-326.0","3A1COHJ8NKH47GSARROIOZUA4TXH8F","A2TLN8489YGY81","3S829FDFT2NBOHQMM1CIOU0HZYXDXL","","null","<img src=""img/animal4.png"" style=""width:200px; border:14px solid green;"">","null","","","","","",""
"","image-keyboard-response","327","231151","0.0-327.0","3A1COHJ8NKH47GSARROIOZUA4TXH8F","A2TLN8489YGY81","3S829FDFT2NBOHQMM1CIOU0HZYXDXL","","372.09999999403954","img/animal4.png","75","372.8999999985099","2","1","3","0.7,0,0.8,0.7,0.8,0,0.7,0.8,0",""
"","html-keyboard-response","328","231453","0.0-328.0","3A1COHJ8NKH47GSARROIOZUA4TXH8F","A2TLN8489YGY81","3S829FDFT2NBOHQMM1CIOU0HZYXDXL","","null","<img src=""img/animal4.png"" style=""width:200px; border:14px solid green;"">","null","","","","","",""
"","image-keyboard-response","329","232680","0.0-329.0","3A1COHJ8NKH47GSARROIOZUA4TXH8F","A2TLN8489YGY81","3S829FDFT2NBOHQMM1CIOU0HZYXDXL","","1226.1000000014901","img/animal5.png","74","1226.8000000044703","1","0","1","0.7,0,0.8,0.7,0.8,0,0.7,0.8,0",""
"","html-keyboard-response","330","232982","0.0-330.0","3A1COHJ8NKH47GSARROIOZUA4TXH8F","A2TLN8489YGY81","3S829FDFT2NBOHQMM1CIOU0HZYXDXL","","null","<img src=""img/animal5.png"" style=""width:200px;border:14px solid red;"">","null","","","","","",""
"","image-keyboard-response","331","235723","0.0-331.0","3A1COHJ8NKH47GSARROIOZUA4TXH8F","A2TLN8489YGY81","3S829FDFT2NBOHQMM1CIOU0HZYXDXL","","2740.6999999955297","img/animal6.png","75","2741.5","2","0","2","0.7,0,0.8,0.7,0.8,0,0.7,0.8,0",""
"","html-keyboard-response","332","236026","0.0-332.0","3A1COHJ8NKH47GSARROIOZUA4TXH8F","A2TLN8489YGY81","3S829FDFT2NBOHQMM1CIOU0HZYXDXL","","null","<img src=""img/animal6.png"" style=""width:200px;border:14px solid red;"">","null","","","","","",""
"","image-keyboard-response","333","236580","0.0-333.0","3A1COHJ8NKH47GSARROIOZUA4TXH8F","A2TLN8489YGY81","3S829FDFT2NBOHQMM1CIOU0HZYXDXL","","553.5999999940395","img/animal6.png","76","554.2999999970198","3","0","2","0.7,0,0.8,0.7,0.8,0,0.7,0.8,0",""
"","html-keyboard-response","334","236881","0.0-334.0","3A1COHJ8NKH47GSARROIOZUA4TXH8F","A2TLN8489YGY81","3S829FDFT2NBOHQMM1CIOU0HZYXDXL","","null","<img src=""img/animal6.png"" style=""width:200px;border:14px solid red;"">","null","","","","","",""
"","image-keyboard-response","335","238046","0.0-335.0","3A1COHJ8NKH47GSARROIOZUA4TXH8F","A2TLN8489YGY81","3S829FDFT2NBOHQMM1CIOU0HZYXDXL","","1164.3999999985099","img/animal4.png","75","1165.2999999970198","2","1","3","0.7,0,0.8,0.7,0.8,0,0.7,0.8,0",""
"","html-keyboard-response","336","238348","0.0-336.0","3A1COHJ8NKH47GSARROIOZUA4TXH8F","A2TLN8489YGY81","3S829FDFT2NBOHQMM1CIOU0HZYXDXL","","null","<img src=""img/animal4.png"" style=""width:200px; border:14px solid green;"">","null","","","","","",""
"","image-keyboard-response","337","238771","0.0-337.0","3A1COHJ8NKH47GSARROIOZUA4TXH8F","A2TLN8489YGY81","3S829FDFT2NBOHQMM1CIOU0HZYXDXL","","421.3999999985099","img/animal4.png","75","422.20000000298023","2","1","3","0.7,0,0.8,0.7,0.8,0,0.7,0.8,0",""
"","html-keyboard-response","338","239072","0.0-338.0","3A1COHJ8NKH47GSARROIOZUA4TXH8F","A2TLN8489YGY81","3S829FDFT2NBOHQMM1CIOU0HZYXDXL","","null","<img src=""img/animal4.png"" style=""width:200px; border:14px solid green;"">","null","","","","","",""
"","image-keyboard-response","339","239437","0.0-339.0","3A1COHJ8NKH47GSARROIOZUA4TXH8F","A2TLN8489YGY81","3S829FDFT2NBOHQMM1CIOU0HZYXDXL","","364.5","img/animal4.png","75","365.30000000447035","2","1","3","0.7,0,0.8,0.7,0.8,0,0.7,0.8,0",""
"","html-keyboard-response","340","239739","0.0-340.0","3A1COHJ8NKH47GSARROIOZUA4TXH8F","A2TLN8489YGY81","3S829FDFT2NBOHQMM1CIOU0HZYXDXL","","null","<img src=""img/animal4.png"" style=""width:200px; border:14px solid green;"">","null","","","","","",""
"","image-keyboard-response","341","241896","0.0-341.0","3A1COHJ8NKH47GSARROIOZUA4TXH8F","A2TLN8489YGY81","3S829FDFT2NBOHQMM1CIOU0HZYXDXL","","2155.1999999955297","img/animal6.png","75","2156.10000000149","2","1","2","0.7,0,0.8,0.7,0.8,0,0.7,0.8,0",""
"","html-keyboard-response","342","242197","0.0-342.0","3A1COHJ8NKH47GSARROIOZUA4TXH8F","A2TLN8489YGY81","3S829FDFT2NBOHQMM1CIOU0HZYXDXL","","null","<img src=""img/animal6.png"" style=""width:200px; border:14px solid green;"">","null","","","","","",""
"","image-keyboard-response","343","242553","0.0-343.0","3A1COHJ8NKH47GSARROIOZUA4TXH8F","A2TLN8489YGY81","3S829FDFT2NBOHQMM1CIOU0HZYXDXL","","355.1000000014901","img/animal6.png","75","355.8999999985099","2","1","2","0.7,0,0.8,0.7,0.8,0,0.7,0.8,0",""
"","html-keyboard-response","344","242855","0.0-344.0","3A1COHJ8NKH47GSARROIOZUA4TXH8F","A2TLN8489YGY81","3S829FDFT2NBOHQMM1CIOU0HZYXDXL","","null","<img src=""img/animal6.png"" style=""width:200px; border:14px solid green;"">","null","","","","","",""
"","image-keyboard-response","345","243995","0.0-345.0","3A1COHJ8NKH47GSARROIOZUA4TXH8F","A2TLN8489YGY81","3S829FDFT2NBOHQMM1CIOU0HZYXDXL","","1139.5","img/animal5.png","74","1140.3999999985099","1","1","1","0.7,0,0.8,0.7,0.8,0,0.7,0.8,0",""
"","html-keyboard-response","346","244297","0.0-346.0","3A1COHJ8NKH47GSARROIOZUA4TXH8F","A2TLN8489YGY81","3S829FDFT2NBOHQMM1CIOU0HZYXDXL","","null","<img src=""img/animal5.png"" style=""width:200px; border:14px solid green;"">","null","","","","","",""
"","image-keyboard-response","347","244678","0.0-347.0","3A1COHJ8NKH47GSARROIOZUA4TXH8F","A2TLN8489YGY81","3S829FDFT2NBOHQMM1CIOU0HZYXDXL","","380.20000000298023","img/animal5.png","74","380.80000000447035","1","1","1","0.7,0,0.8,0.7,0.8,0,0.7,0.8,0",""
"","html-keyboard-response","348","244980","0.0-348.0","3A1COHJ8NKH47GSARROIOZUA4TXH8F","A2TLN8489YGY81","3S829FDFT2NBOHQMM1CIOU0HZYXDXL","","null","<img src=""img/animal5.png"" style=""width:200px; border:14px solid green;"">","null","","","","","",""
"","image-keyboard-response","349","246327","0.0-349.0","3A1COHJ8NKH47GSARROIOZUA4TXH8F","A2TLN8489YGY81","3S829FDFT2NBOHQMM1CIOU0HZYXDXL","","1346.4000000059605","img/animal4.png","75","1347.1999999955297","2","0","3","0.7,0,0.8,0.7,0.8,0,0.7,0.8,0",""
"","html-keyboard-response","350","246629","0.0-350.0","3A1COHJ8NKH47GSARROIOZUA4TXH8F","A2TLN8489YGY81","3S829FDFT2NBOHQMM1CIOU0HZYXDXL","","null","<img src=""img/animal4.png"" style=""width:200px;border:14px solid red;"">","null","","","","","",""
"","image-keyboard-response","351","246948","0.0-351.0","3A1COHJ8NKH47GSARROIOZUA4TXH8F","A2TLN8489YGY81","3S829FDFT2NBOHQMM1CIOU0HZYXDXL","","317.79999999701977","img/animal4.png","75","318.6000000014901","2","1","3","0.7,0,0.8,0.7,0.8,0,0.7,0.8,0",""
"","html-keyboard-response","352","247251","0.0-352.0","3A1COHJ8NKH47GSARROIOZUA4TXH8F","A2TLN8489YGY81","3S829FDFT2NBOHQMM1CIOU0HZYXDXL","","null","<img src=""img/animal4.png"" style=""width:200px; border:14px solid green;"">","null","","","","","",""
"","image-keyboard-response","353","248668","0.0-353.0","3A1COHJ8NKH47GSARROIOZUA4TXH8F","A2TLN8489YGY81","3S829FDFT2NBOHQMM1CIOU0HZYXDXL","","1415.7999999970198","img/animal5.png","74","1416.6000000014901","1","1","1","0.7,0,0.8,0.7,0.8,0,0.7,0.8,0",""
"","html-keyboard-response","354","248970","0.0-354.0","3A1COHJ8NKH47GSARROIOZUA4TXH8F","A2TLN8489YGY81","3S829FDFT2NBOHQMM1CIOU0HZYXDXL","","null","<img src=""img/animal5.png"" style=""width:200px; border:14px solid green;"">","null","","","","","",""
"","image-keyboard-response","355","249521","0.0-355.0","3A1COHJ8NKH47GSARROIOZUA4TXH8F","A2TLN8489YGY81","3S829FDFT2NBOHQMM1CIOU0HZYXDXL","","549.5","img/animal4.png","75","550.3999999985099","2","1","3","0.7,0,0.8,0.7,0.8,0,0.7,0.8,0",""
"","html-keyboard-response","356","249823","0.0-356.0","3A1COHJ8NKH47GSARROIOZUA4TXH8F","A2TLN8489YGY81","3S829FDFT2NBOHQMM1CIOU0HZYXDXL","","null","<img src=""img/animal4.png"" style=""width:200px; border:14px solid green;"">","null","","","","","",""
"","image-keyboard-response","357","250681","0.0-357.0","3A1COHJ8NKH47GSARROIOZUA4TXH8F","A2TLN8489YGY81","3S829FDFT2NBOHQMM1CIOU0HZYXDXL","","857.1000000014901","img/animal5.png","74","857.8999999985099","1","1","1","0.7,0,0.8,0.7,0.8,0,0.7,0.8,0",""
"","html-keyboard-response","358","250982","0.0-358.0","3A1COHJ8NKH47GSARROIOZUA4TXH8F","A2TLN8489YGY81","3S829FDFT2NBOHQMM1CIOU0HZYXDXL","","null","<img src=""img/animal5.png"" style=""width:200px; border:14px solid green;"">","null","","","","","",""
"","image-keyboard-response","359","251542","0.0-359.0","3A1COHJ8NKH47GSARROIOZUA4TXH8F","A2TLN8489YGY81","3S829FDFT2NBOHQMM1CIOU0HZYXDXL","","558.9000000059605","img/animal4.png","75","559.7000000029802","2","1","3","0.7,0,0.8,0.7,0.8,0,0.7,0.8,0",""
"","html-keyboard-response","360","251847","0.0-360.0","3A1COHJ8NKH47GSARROIOZUA4TXH8F","A2TLN8489YGY81","3S829FDFT2NBOHQMM1CIOU0HZYXDXL","","null","<img src=""img/animal4.png"" style=""width:200px; border:14px solid green;"">","null","","","","","",""
"","image-keyboard-response","361","252685","0.0-361.0","3A1COHJ8NKH47GSARROIOZUA4TXH8F","A2TLN8489YGY81","3S829FDFT2NBOHQMM1CIOU0HZYXDXL","","837.3000000044703","img/animal6.png","75","838.1000000014901","2","1","2","0.7,0,0.8,0.7,0.8,0,0.7,0.8,0",""
"","html-keyboard-response","362","253000","0.0-362.0","3A1COHJ8NKH47GSARROIOZUA4TXH8F","A2TLN8489YGY81","3S829FDFT2NBOHQMM1CIOU0HZYXDXL","","null","<img src=""img/animal6.png"" style=""width:200px; border:14px solid green;"">","null","","","","","",""
"","instructions","363","256447","0.0-363.0","3A1COHJ8NKH47GSARROIOZUA4TXH8F","A2TLN8489YGY81","3S829FDFT2NBOHQMM1CIOU0HZYXDXL","[{""page_index"":0,""viewing_time"":3445.60000000149}]","3445.89999999851","","","","","","","",""
"","survey-text","364","261502","0.0-364.0","3A1COHJ8NKH47GSARROIOZUA4TXH8F","A2TLN8489YGY81","3S829FDFT2NBOHQMM1CIOU0HZYXDXL","","5052.79999999702","","","","","","","","{""Q0"":""A2TLN8489YGY81""}"
