"success","trial_type","trial_index","time_elapsed","internal_node_id","assignmentID","mturkID","hitID","view_history","rt","stimulus","key_press","reactionTime","a","r","s","reward_cond","responses"
"true","fullscreen","0","3050","0.0-0.0","3WMINLGALCPR9WA92XUV9Z3PHPSAC3","A2TXZVXQU5FQZ9","3FW4EL5A3LANKRP91N782LFHPY722Q","","","","","","","","","",""
"","instructions","1","15730","0.0-1.0","3WMINLGALCPR9WA92XUV9Z3PHPSAC3","A2TXZVXQU5FQZ9","3FW4EL5A3LANKRP91N782LFHPY722Q","[{""page_index"":0,""viewing_time"":3976.7999999821186},{""page_index"":1,""viewing_time"":1352},{""page_index"":2,""viewing_time"":939.0999999940395},{""page_index"":3,""viewing_time"":1474.800000011921},{""page_index"":4,""viewing_time"":1709.5999999940395},{""page_index"":5,""viewing_time"":1266.300000011921},{""page_index"":6,""viewing_time"":1064.199999988079},{""page_index"":7,""viewing_time"":890.3000000119209}]","12674.09999999404","","","","","","","",""
"","image-keyboard-response","2","17986","0.0-2.0","3WMINLGALCPR9WA92XUV9Z3PHPSAC3","A2TXZVXQU5FQZ9","3FW4EL5A3LANKRP91N782LFHPY722Q","","2255","img/animal5.png","74","2256.5","1","0","3","0.5,0,1,1,0.5,0,0,1,0.5",""
"","html-keyboard-response","3","18293","0.0-3.0","3WMINLGALCPR9WA92XUV9Z3PHPSAC3","A2TXZVXQU5FQZ9","3FW4EL5A3LANKRP91N782LFHPY722Q","","null","<img src=""img/animal5.png"" style=""width:200px;border:14px solid red;"">","null","","","","","",""
"","image-keyboard-response","4","18526","0.0-4.0","3WMINLGALCPR9WA92XUV9Z3PHPSAC3","A2TXZVXQU5FQZ9","3FW4EL5A3LANKRP91N782LFHPY722Q","","231.40000000596046","img/animal1.png","75","232.69999998807907","2","1","2","0.5,0,1,1,0.5,0,0,1,0.5",""
"","html-keyboard-response","5","18830","0.0-5.0","3WMINLGALCPR9WA92XUV9Z3PHPSAC3","A2TXZVXQU5FQZ9","3FW4EL5A3LANKRP91N782LFHPY722Q","","null","<img src=""img/animal1.png"" style=""width:200px; border:14px solid green;"">","null","","","","","",""
"","image-keyboard-response","6","19061","0.0-6.0","3WMINLGALCPR9WA92XUV9Z3PHPSAC3","A2TXZVXQU5FQZ9","3FW4EL5A3LANKRP91N782LFHPY722Q","","227.5","img/animal1.png","74","230","1","1","2","0.5,0,1,1,0.5,0,0,1,0.5",""
"","html-keyboard-response","7","19369","0.0-7.0","3WMINLGALCPR9WA92XUV9Z3PHPSAC3","A2TXZVXQU5FQZ9","3FW4EL5A3LANKRP91N782LFHPY722Q","","null","<img src=""img/animal1.png"" style=""width:200px; border:14px solid green;"">","null","","","","","",""
"","image-keyboard-response","8","19624","0.0-8.0","3WMINLGALCPR9WA92XUV9Z3PHPSAC3","A2TXZVXQU5FQZ9","3FW4EL5A3LANKRP91N782LFHPY722Q","","253.40000000596046","img/animal5.png","75","254.2999999821186","2","1","3","0.5,0,1,1,0.5,0,0,1,0.5",""
"","html-keyboard-response","9","19939","0.0-9.0","3WMINLGALCPR9WA92XUV9Z3PHPSAC3","A2TXZVXQU5FQZ9","3FW4EL5A3LANKRP91N782LFHPY722Q","","null","<img src=""img/animal5.png"" style=""width:200px; border:14px solid green;"">","null","","","","","",""
"","image-keyboard-response","10","20167","0.0-10.0","3WMINLGALCPR9WA92XUV9Z3PHPSAC3","A2TXZVXQU5FQZ9","3FW4EL5A3LANKRP91N782LFHPY722Q","","226.80000001192093","img/animal1.png","76","227.7000000178814","3","0","2","0.5,0,1,1,0.5,0,0,1,0.5",""
"","html-keyboard-response","11","20473","0.0-11.0","3WMINLGALCPR9WA92XUV9Z3PHPSAC3","A2TXZVXQU5FQZ9","3FW4EL5A3LANKRP91N782LFHPY722Q","","null","<img src=""img/animal1.png"" style=""width:200px;border:14px solid red;"">","null","","","","","",""
"","image-keyboard-response","12","20698","0.0-12.0","3WMINLGALCPR9WA92XUV9Z3PHPSAC3","A2TXZVXQU5FQZ9","3FW4EL5A3LANKRP91N782LFHPY722Q","","224","img/animal4.png","75","224.90000000596046","2","0","1","0.5,0,1,1,0.5,0,0,1,0.5",""
"","html-keyboard-response","13","21005","0.0-13.0","3WMINLGALCPR9WA92XUV9Z3PHPSAC3","A2TXZVXQU5FQZ9","3FW4EL5A3LANKRP91N782LFHPY722Q","","null","<img src=""img/animal4.png"" style=""width:200px;border:14px solid red;"">","null","","","","","",""
"","image-keyboard-response","14","21288","0.0-14.0","3WMINLGALCPR9WA92XUV9Z3PHPSAC3","A2TXZVXQU5FQZ9","3FW4EL5A3LANKRP91N782LFHPY722Q","","281.09999999403954","img/animal5.png","74","282.30000001192093","1","0","3","0.5,0,1,1,0.5,0,0,1,0.5",""
"","html-keyboard-response","15","21590","0.0-15.0","3WMINLGALCPR9WA92XUV9Z3PHPSAC3","A2TXZVXQU5FQZ9","3FW4EL5A3LANKRP91N782LFHPY722Q","","null","<img src=""img/animal5.png"" style=""width:200px;border:14px solid red;"">","null","","","","","",""
"","image-keyboard-response","16","21843","0.0-16.0","3WMINLGALCPR9WA92XUV9Z3PHPSAC3","A2TXZVXQU5FQZ9","3FW4EL5A3LANKRP91N782LFHPY722Q","","251.80000001192093","img/animal4.png","74","252.60000002384186","1","1","1","0.5,0,1,1,0.5,0,0,1,0.5",""
"","html-keyboard-response","17","22159","0.0-17.0","3WMINLGALCPR9WA92XUV9Z3PHPSAC3","A2TXZVXQU5FQZ9","3FW4EL5A3LANKRP91N782LFHPY722Q","","null","<img src=""img/animal4.png"" style=""width:200px; border:14px solid green;"">","null","","","","","",""
"","image-keyboard-response","18","22411","0.0-18.0","3WMINLGALCPR9WA92XUV9Z3PHPSAC3","A2TXZVXQU5FQZ9","3FW4EL5A3LANKRP91N782LFHPY722Q","","250.2000000178814","img/animal1.png","75","251.09999999403954","2","1","2","0.5,0,1,1,0.5,0,0,1,0.5",""
"","html-keyboard-response","19","22714","0.0-19.0","3WMINLGALCPR9WA92XUV9Z3PHPSAC3","A2TXZVXQU5FQZ9","3FW4EL5A3LANKRP91N782LFHPY722Q","","null","<img src=""img/animal1.png"" style=""width:200px; border:14px solid green;"">","null","","","","","",""
"","image-keyboard-response","20","23017","0.0-20.0","3WMINLGALCPR9WA92XUV9Z3PHPSAC3","A2TXZVXQU5FQZ9","3FW4EL5A3LANKRP91N782LFHPY722Q","","302.30000001192093","img/animal1.png","76","303.5","3","0","2","0.5,0,1,1,0.5,0,0,1,0.5",""
"","html-keyboard-response","21","23326","0.0-21.0","3WMINLGALCPR9WA92XUV9Z3PHPSAC3","A2TXZVXQU5FQZ9","3FW4EL5A3LANKRP91N782LFHPY722Q","","null","<img src=""img/animal1.png"" style=""width:200px;border:14px solid red;"">","null","","","","","",""
"","image-keyboard-response","22","23513","0.0-22.0","3WMINLGALCPR9WA92XUV9Z3PHPSAC3","A2TXZVXQU5FQZ9","3FW4EL5A3LANKRP91N782LFHPY722Q","","185.69999998807907","img/animal5.png","75","186.90000000596046","2","1","3","0.5,0,1,1,0.5,0,0,1,0.5",""
"","html-keyboard-response","23","23820","0.0-23.0","3WMINLGALCPR9WA92XUV9Z3PHPSAC3","A2TXZVXQU5FQZ9","3FW4EL5A3LANKRP91N782LFHPY722Q","","null","<img src=""img/animal5.png"" style=""width:200px; border:14px solid green;"">","null","","","","","",""
"","image-keyboard-response","24","24082","0.0-24.0","3WMINLGALCPR9WA92XUV9Z3PHPSAC3","A2TXZVXQU5FQZ9","3FW4EL5A3LANKRP91N782LFHPY722Q","","261.10000002384186","img/animal5.png","74","261.80000001192093","1","0","3","0.5,0,1,1,0.5,0,0,1,0.5",""
"","html-keyboard-response","25","24389","0.0-25.0","3WMINLGALCPR9WA92XUV9Z3PHPSAC3","A2TXZVXQU5FQZ9","3FW4EL5A3LANKRP91N782LFHPY722Q","","null","<img src=""img/animal5.png"" style=""width:200px;border:14px solid red;"">","null","","","","","",""
"","image-keyboard-response","26","24682","0.0-26.0","3WMINLGALCPR9WA92XUV9Z3PHPSAC3","A2TXZVXQU5FQZ9","3FW4EL5A3LANKRP91N782LFHPY722Q","","291.90000000596046","img/animal1.png","75","292.60000002384186","2","0","2","0.5,0,1,1,0.5,0,0,1,0.5",""
"","html-keyboard-response","27","24992","0.0-27.0","3WMINLGALCPR9WA92XUV9Z3PHPSAC3","A2TXZVXQU5FQZ9","3FW4EL5A3LANKRP91N782LFHPY722Q","","null","<img src=""img/animal1.png"" style=""width:200px;border:14px solid red;"">","null","","","","","",""
"","image-keyboard-response","28","25203","0.0-28.0","3WMINLGALCPR9WA92XUV9Z3PHPSAC3","A2TXZVXQU5FQZ9","3FW4EL5A3LANKRP91N782LFHPY722Q","","210.30000001192093","img/animal5.png","74","211.2999999821186","1","0","3","0.5,0,1,1,0.5,0,0,1,0.5",""
"","html-keyboard-response","29","25519","0.0-29.0","3WMINLGALCPR9WA92XUV9Z3PHPSAC3","A2TXZVXQU5FQZ9","3FW4EL5A3LANKRP91N782LFHPY722Q","","null","<img src=""img/animal5.png"" style=""width:200px;border:14px solid red;"">","null","","","","","",""
"","image-keyboard-response","30","25762","0.0-30.0","3WMINLGALCPR9WA92XUV9Z3PHPSAC3","A2TXZVXQU5FQZ9","3FW4EL5A3LANKRP91N782LFHPY722Q","","242","img/animal4.png","76","242.90000000596046","3","1","1","0.5,0,1,1,0.5,0,0,1,0.5",""
"","html-keyboard-response","31","26078","0.0-31.0","3WMINLGALCPR9WA92XUV9Z3PHPSAC3","A2TXZVXQU5FQZ9","3FW4EL5A3LANKRP91N782LFHPY722Q","","null","<img src=""img/animal4.png"" style=""width:200px; border:14px solid green;"">","null","","","","","",""
"","image-keyboard-response","32","26321","0.0-32.0","3WMINLGALCPR9WA92XUV9Z3PHPSAC3","A2TXZVXQU5FQZ9","3FW4EL5A3LANKRP91N782LFHPY722Q","","242.40000000596046","img/animal5.png","75","243.2999999821186","2","1","3","0.5,0,1,1,0.5,0,0,1,0.5",""
"","html-keyboard-response","33","26636","0.0-33.0","3WMINLGALCPR9WA92XUV9Z3PHPSAC3","A2TXZVXQU5FQZ9","3FW4EL5A3LANKRP91N782LFHPY722Q","","null","<img src=""img/animal5.png"" style=""width:200px; border:14px solid green;"">","null","","","","","",""
"","image-keyboard-response","34","26921","0.0-34.0","3WMINLGALCPR9WA92XUV9Z3PHPSAC3","A2TXZVXQU5FQZ9","3FW4EL5A3LANKRP91N782LFHPY722Q","","284.5","img/animal4.png","74","285.69999998807907","1","1","1","0.5,0,1,1,0.5,0,0,1,0.5",""
"","html-keyboard-response","35","27231","0.0-35.0","3WMINLGALCPR9WA92XUV9Z3PHPSAC3","A2TXZVXQU5FQZ9","3FW4EL5A3LANKRP91N782LFHPY722Q","","null","<img src=""img/animal4.png"" style=""width:200px; border:14px solid green;"">","null","","","","","",""
"","image-keyboard-response","36","27526","0.0-36.0","3WMINLGALCPR9WA92XUV9Z3PHPSAC3","A2TXZVXQU5FQZ9","3FW4EL5A3LANKRP91N782LFHPY722Q","","293.40000000596046","img/animal4.png","75","294.5","2","0","1","0.5,0,1,1,0.5,0,0,1,0.5",""
"","html-keyboard-response","37","27831","0.0-37.0","3WMINLGALCPR9WA92XUV9Z3PHPSAC3","A2TXZVXQU5FQZ9","3FW4EL5A3LANKRP91N782LFHPY722Q","","null","<img src=""img/animal4.png"" style=""width:200px;border:14px solid red;"">","null","","","","","",""
"","image-keyboard-response","38","28097","0.0-38.0","3WMINLGALCPR9WA92XUV9Z3PHPSAC3","A2TXZVXQU5FQZ9","3FW4EL5A3LANKRP91N782LFHPY722Q","","263.7999999821186","img/animal5.png","76","265.2000000178814","3","0","3","0.5,0,1,1,0.5,0,0,1,0.5",""
"","html-keyboard-response","39","28403","0.0-39.0","3WMINLGALCPR9WA92XUV9Z3PHPSAC3","A2TXZVXQU5FQZ9","3FW4EL5A3LANKRP91N782LFHPY722Q","","null","<img src=""img/animal5.png"" style=""width:200px;border:14px solid red;"">","null","","","","","",""
"","image-keyboard-response","40","28631","0.0-40.0","3WMINLGALCPR9WA92XUV9Z3PHPSAC3","A2TXZVXQU5FQZ9","3FW4EL5A3LANKRP91N782LFHPY722Q","","226.40000000596046","img/animal1.png","75","227.2999999821186","2","1","2","0.5,0,1,1,0.5,0,0,1,0.5",""
"","html-keyboard-response","41","28936","0.0-41.0","3WMINLGALCPR9WA92XUV9Z3PHPSAC3","A2TXZVXQU5FQZ9","3FW4EL5A3LANKRP91N782LFHPY722Q","","null","<img src=""img/animal1.png"" style=""width:200px; border:14px solid green;"">","null","","","","","",""
"","image-keyboard-response","42","29228","0.0-42.0","3WMINLGALCPR9WA92XUV9Z3PHPSAC3","A2TXZVXQU5FQZ9","3FW4EL5A3LANKRP91N782LFHPY722Q","","290.90000000596046","img/animal4.png","74","291.80000001192093","1","1","1","0.5,0,1,1,0.5,0,0,1,0.5",""
"","html-keyboard-response","43","29536","0.0-43.0","3WMINLGALCPR9WA92XUV9Z3PHPSAC3","A2TXZVXQU5FQZ9","3FW4EL5A3LANKRP91N782LFHPY722Q","","null","<img src=""img/animal4.png"" style=""width:200px; border:14px solid green;"">","null","","","","","",""
"","image-keyboard-response","44","29763","0.0-44.0","3WMINLGALCPR9WA92XUV9Z3PHPSAC3","A2TXZVXQU5FQZ9","3FW4EL5A3LANKRP91N782LFHPY722Q","","225.89999997615814","img/animal4.png","75","226.90000000596046","2","0","1","0.5,0,1,1,0.5,0,0,1,0.5",""
"","html-keyboard-response","45","30076","0.0-45.0","3WMINLGALCPR9WA92XUV9Z3PHPSAC3","A2TXZVXQU5FQZ9","3FW4EL5A3LANKRP91N782LFHPY722Q","","null","<img src=""img/animal4.png"" style=""width:200px;border:14px solid red;"">","null","","","","","",""
"","image-keyboard-response","46","30270","0.0-46.0","3WMINLGALCPR9WA92XUV9Z3PHPSAC3","A2TXZVXQU5FQZ9","3FW4EL5A3LANKRP91N782LFHPY722Q","","192.80000001192093","img/animal1.png","76","193.59999999403954","3","0","2","0.5,0,1,1,0.5,0,0,1,0.5",""
"","html-keyboard-response","47","30573","0.0-47.0","3WMINLGALCPR9WA92XUV9Z3PHPSAC3","A2TXZVXQU5FQZ9","3FW4EL5A3LANKRP91N782LFHPY722Q","","null","<img src=""img/animal1.png"" style=""width:200px;border:14px solid red;"">","null","","","","","",""
"","image-keyboard-response","48","30852","0.0-48.0","3WMINLGALCPR9WA92XUV9Z3PHPSAC3","A2TXZVXQU5FQZ9","3FW4EL5A3LANKRP91N782LFHPY722Q","","278","img/animal1.png","75","278.90000000596046","2","1","2","0.5,0,1,1,0.5,0,0,1,0.5",""
"","html-keyboard-response","49","31157","0.0-49.0","3WMINLGALCPR9WA92XUV9Z3PHPSAC3","A2TXZVXQU5FQZ9","3FW4EL5A3LANKRP91N782LFHPY722Q","","null","<img src=""img/animal1.png"" style=""width:200px; border:14px solid green;"">","null","","","","","",""
"","image-keyboard-response","50","31392","0.0-50.0","3WMINLGALCPR9WA92XUV9Z3PHPSAC3","A2TXZVXQU5FQZ9","3FW4EL5A3LANKRP91N782LFHPY722Q","","233.19999998807907","img/animal4.png","74","234.90000000596046","1","0","1","0.5,0,1,1,0.5,0,0,1,0.5",""
"","html-keyboard-response","51","31695","0.0-51.0","3WMINLGALCPR9WA92XUV9Z3PHPSAC3","A2TXZVXQU5FQZ9","3FW4EL5A3LANKRP91N782LFHPY722Q","","null","<img src=""img/animal4.png"" style=""width:200px;border:14px solid red;"">","null","","","","","",""
"","image-keyboard-response","52","31907","0.0-52.0","3WMINLGALCPR9WA92XUV9Z3PHPSAC3","A2TXZVXQU5FQZ9","3FW4EL5A3LANKRP91N782LFHPY722Q","","210.2999999821186","img/animal5.png","75","211.2999999821186","2","1","3","0.5,0,1,1,0.5,0,0,1,0.5",""
"","html-keyboard-response","53","32215","0.0-53.0","3WMINLGALCPR9WA92XUV9Z3PHPSAC3","A2TXZVXQU5FQZ9","3FW4EL5A3LANKRP91N782LFHPY722Q","","null","<img src=""img/animal5.png"" style=""width:200px; border:14px solid green;"">","null","","","","","",""
"","image-keyboard-response","54","32514","0.0-54.0","3WMINLGALCPR9WA92XUV9Z3PHPSAC3","A2TXZVXQU5FQZ9","3FW4EL5A3LANKRP91N782LFHPY722Q","","298.09999999403954","img/animal4.png","76","298.90000000596046","3","1","1","0.5,0,1,1,0.5,0,0,1,0.5",""
"","html-keyboard-response","55","32820","0.0-55.0","3WMINLGALCPR9WA92XUV9Z3PHPSAC3","A2TXZVXQU5FQZ9","3FW4EL5A3LANKRP91N782LFHPY722Q","","null","<img src=""img/animal4.png"" style=""width:200px; border:14px solid green;"">","null","","","","","",""
"","image-keyboard-response","56","33006","0.0-56.0","3WMINLGALCPR9WA92XUV9Z3PHPSAC3","A2TXZVXQU5FQZ9","3FW4EL5A3LANKRP91N782LFHPY722Q","","184.59999999403954","img/animal4.png","75","185.69999998807907","2","0","1","0.5,0,1,1,0.5,0,0,1,0.5",""
"","html-keyboard-response","57","33316","0.0-57.0","3WMINLGALCPR9WA92XUV9Z3PHPSAC3","A2TXZVXQU5FQZ9","3FW4EL5A3LANKRP91N782LFHPY722Q","","null","<img src=""img/animal4.png"" style=""width:200px;border:14px solid red;"">","null","","","","","",""
"","image-keyboard-response","58","33560","0.0-58.0","3WMINLGALCPR9WA92XUV9Z3PHPSAC3","A2TXZVXQU5FQZ9","3FW4EL5A3LANKRP91N782LFHPY722Q","","243.09999999403954","img/animal5.png","76","244","3","0","3","0.5,0,1,1,0.5,0,0,1,0.5",""
"","html-keyboard-response","59","33863","0.0-59.0","3WMINLGALCPR9WA92XUV9Z3PHPSAC3","A2TXZVXQU5FQZ9","3FW4EL5A3LANKRP91N782LFHPY722Q","","null","<img src=""img/animal5.png"" style=""width:200px;border:14px solid red;"">","null","","","","","",""
"","image-keyboard-response","60","34087","0.0-60.0","3WMINLGALCPR9WA92XUV9Z3PHPSAC3","A2TXZVXQU5FQZ9","3FW4EL5A3LANKRP91N782LFHPY722Q","","223.19999998807907","img/animal1.png","75","224.09999999403954","2","1","2","0.5,0,1,1,0.5,0,0,1,0.5",""
"","html-keyboard-response","61","34393","0.0-61.0","3WMINLGALCPR9WA92XUV9Z3PHPSAC3","A2TXZVXQU5FQZ9","3FW4EL5A3LANKRP91N782LFHPY722Q","","null","<img src=""img/animal1.png"" style=""width:200px; border:14px solid green;"">","null","","","","","",""
"","image-keyboard-response","62","34676","0.0-62.0","3WMINLGALCPR9WA92XUV9Z3PHPSAC3","A2TXZVXQU5FQZ9","3FW4EL5A3LANKRP91N782LFHPY722Q","","281.40000000596046","img/animal1.png","74","282.5","1","1","2","0.5,0,1,1,0.5,0,0,1,0.5",""
"","html-keyboard-response","63","34980","0.0-63.0","3WMINLGALCPR9WA92XUV9Z3PHPSAC3","A2TXZVXQU5FQZ9","3FW4EL5A3LANKRP91N782LFHPY722Q","","null","<img src=""img/animal1.png"" style=""width:200px; border:14px solid green;"">","null","","","","","",""
"","image-keyboard-response","64","35252","0.0-64.0","3WMINLGALCPR9WA92XUV9Z3PHPSAC3","A2TXZVXQU5FQZ9","3FW4EL5A3LANKRP91N782LFHPY722Q","","271.2999999821186","img/animal4.png","74","272.2999999821186","1","1","1","0.5,0,1,1,0.5,0,0,1,0.5",""
"","html-keyboard-response","65","35561","0.0-65.0","3WMINLGALCPR9WA92XUV9Z3PHPSAC3","A2TXZVXQU5FQZ9","3FW4EL5A3LANKRP91N782LFHPY722Q","","null","<img src=""img/animal4.png"" style=""width:200px; border:14px solid green;"">","null","","","","","",""
"","image-keyboard-response","66","35819","0.0-66.0","3WMINLGALCPR9WA92XUV9Z3PHPSAC3","A2TXZVXQU5FQZ9","3FW4EL5A3LANKRP91N782LFHPY722Q","","257.40000000596046","img/animal4.png","74","258.39999997615814","1","1","1","0.5,0,1,1,0.5,0,0,1,0.5",""
"","html-keyboard-response","67","36129","0.0-67.0","3WMINLGALCPR9WA92XUV9Z3PHPSAC3","A2TXZVXQU5FQZ9","3FW4EL5A3LANKRP91N782LFHPY722Q","","null","<img src=""img/animal4.png"" style=""width:200px; border:14px solid green;"">","null","","","","","",""
"","image-keyboard-response","68","36414","0.0-68.0","3WMINLGALCPR9WA92XUV9Z3PHPSAC3","A2TXZVXQU5FQZ9","3FW4EL5A3LANKRP91N782LFHPY722Q","","284.09999999403954","img/animal5.png","74","284.90000000596046","1","0","3","0.5,0,1,1,0.5,0,0,1,0.5",""
"","html-keyboard-response","69","36722","0.0-69.0","3WMINLGALCPR9WA92XUV9Z3PHPSAC3","A2TXZVXQU5FQZ9","3FW4EL5A3LANKRP91N782LFHPY722Q","","null","<img src=""img/animal5.png"" style=""width:200px;border:14px solid red;"">","null","","","","","",""
"","image-keyboard-response","70","36949","0.0-70.0","3WMINLGALCPR9WA92XUV9Z3PHPSAC3","A2TXZVXQU5FQZ9","3FW4EL5A3LANKRP91N782LFHPY722Q","","226.09999999403954","img/animal1.png","75","227.2000000178814","2","1","2","0.5,0,1,1,0.5,0,0,1,0.5",""
"","html-keyboard-response","71","37252","0.0-71.0","3WMINLGALCPR9WA92XUV9Z3PHPSAC3","A2TXZVXQU5FQZ9","3FW4EL5A3LANKRP91N782LFHPY722Q","","null","<img src=""img/animal1.png"" style=""width:200px; border:14px solid green;"">","null","","","","","",""
"","image-keyboard-response","72","37511","0.0-72.0","3WMINLGALCPR9WA92XUV9Z3PHPSAC3","A2TXZVXQU5FQZ9","3FW4EL5A3LANKRP91N782LFHPY722Q","","257.59999999403954","img/animal1.png","75","258.69999998807907","2","1","2","0.5,0,1,1,0.5,0,0,1,0.5",""
"","html-keyboard-response","73","37819","0.0-73.0","3WMINLGALCPR9WA92XUV9Z3PHPSAC3","A2TXZVXQU5FQZ9","3FW4EL5A3LANKRP91N782LFHPY722Q","","null","<img src=""img/animal1.png"" style=""width:200px; border:14px solid green;"">","null","","","","","",""
"","image-keyboard-response","74","38103","0.0-74.0","3WMINLGALCPR9WA92XUV9Z3PHPSAC3","A2TXZVXQU5FQZ9","3FW4EL5A3LANKRP91N782LFHPY722Q","","282.30000001192093","img/animal5.png","75","283.30000001192093","2","1","3","0.5,0,1,1,0.5,0,0,1,0.5",""
"","html-keyboard-response","75","38409","0.0-75.0","3WMINLGALCPR9WA92XUV9Z3PHPSAC3","A2TXZVXQU5FQZ9","3FW4EL5A3LANKRP91N782LFHPY722Q","","null","<img src=""img/animal5.png"" style=""width:200px; border:14px solid green;"">","null","","","","","",""
"","image-keyboard-response","76","38620","0.0-76.0","3WMINLGALCPR9WA92XUV9Z3PHPSAC3","A2TXZVXQU5FQZ9","3FW4EL5A3LANKRP91N782LFHPY722Q","","210","img/animal1.png","75","211.09999999403954","2","1","2","0.5,0,1,1,0.5,0,0,1,0.5",""
"","html-keyboard-response","77","38924","0.0-77.0","3WMINLGALCPR9WA92XUV9Z3PHPSAC3","A2TXZVXQU5FQZ9","3FW4EL5A3LANKRP91N782LFHPY722Q","","null","<img src=""img/animal1.png"" style=""width:200px; border:14px solid green;"">","null","","","","","",""
"","image-keyboard-response","78","39150","0.0-78.0","3WMINLGALCPR9WA92XUV9Z3PHPSAC3","A2TXZVXQU5FQZ9","3FW4EL5A3LANKRP91N782LFHPY722Q","","224.69999998807907","img/animal4.png","76","225.5","3","1","1","0.5,0,1,1,0.5,0,0,1,0.5",""
"","html-keyboard-response","79","39455","0.0-79.0","3WMINLGALCPR9WA92XUV9Z3PHPSAC3","A2TXZVXQU5FQZ9","3FW4EL5A3LANKRP91N782LFHPY722Q","","null","<img src=""img/animal4.png"" style=""width:200px; border:14px solid green;"">","null","","","","","",""
"","image-keyboard-response","80","39767","0.0-80.0","3WMINLGALCPR9WA92XUV9Z3PHPSAC3","A2TXZVXQU5FQZ9","3FW4EL5A3LANKRP91N782LFHPY722Q","","310","img/animal5.png","76","311.2999999821186","3","1","3","0.5,0,1,1,0.5,0,0,1,0.5",""
"","html-keyboard-response","81","40070","0.0-81.0","3WMINLGALCPR9WA92XUV9Z3PHPSAC3","A2TXZVXQU5FQZ9","3FW4EL5A3LANKRP91N782LFHPY722Q","","null","<img src=""img/animal5.png"" style=""width:200px; border:14px solid green;"">","null","","","","","",""
"","image-keyboard-response","82","40321","0.0-82.0","3WMINLGALCPR9WA92XUV9Z3PHPSAC3","A2TXZVXQU5FQZ9","3FW4EL5A3LANKRP91N782LFHPY722Q","","250.39999997615814","img/animal5.png","75","251.09999999403954","2","1","3","0.5,0,1,1,0.5,0,0,1,0.5",""
"","html-keyboard-response","83","40630","0.0-83.0","3WMINLGALCPR9WA92XUV9Z3PHPSAC3","A2TXZVXQU5FQZ9","3FW4EL5A3LANKRP91N782LFHPY722Q","","null","<img src=""img/animal5.png"" style=""width:200px; border:14px solid green;"">","null","","","","","",""
"","image-keyboard-response","84","40807","0.0-84.0","3WMINLGALCPR9WA92XUV9Z3PHPSAC3","A2TXZVXQU5FQZ9","3FW4EL5A3LANKRP91N782LFHPY722Q","","175.40000000596046","img/animal4.png","76","176.5","3","1","1","0.5,0,1,1,0.5,0,0,1,0.5",""
"","html-keyboard-response","85","41110","0.0-85.0","3WMINLGALCPR9WA92XUV9Z3PHPSAC3","A2TXZVXQU5FQZ9","3FW4EL5A3LANKRP91N782LFHPY722Q","","null","<img src=""img/animal4.png"" style=""width:200px; border:14px solid green;"">","null","","","","","",""
"","image-keyboard-response","86","41342","0.0-86.0","3WMINLGALCPR9WA92XUV9Z3PHPSAC3","A2TXZVXQU5FQZ9","3FW4EL5A3LANKRP91N782LFHPY722Q","","231.09999999403954","img/animal1.png","75","232","2","1","2","0.5,0,1,1,0.5,0,0,1,0.5",""
"","html-keyboard-response","87","41648","0.0-87.0","3WMINLGALCPR9WA92XUV9Z3PHPSAC3","A2TXZVXQU5FQZ9","3FW4EL5A3LANKRP91N782LFHPY722Q","","null","<img src=""img/animal1.png"" style=""width:200px; border:14px solid green;"">","null","","","","","",""
"","image-keyboard-response","88","41955","0.0-88.0","3WMINLGALCPR9WA92XUV9Z3PHPSAC3","A2TXZVXQU5FQZ9","3FW4EL5A3LANKRP91N782LFHPY722Q","","305.59999999403954","img/animal5.png","74","307.09999999403954","1","0","3","0.5,0,1,1,0.5,0,0,1,0.5",""
"","html-keyboard-response","89","42259","0.0-89.0","3WMINLGALCPR9WA92XUV9Z3PHPSAC3","A2TXZVXQU5FQZ9","3FW4EL5A3LANKRP91N782LFHPY722Q","","null","<img src=""img/animal5.png"" style=""width:200px;border:14px solid red;"">","null","","","","","",""
"","image-keyboard-response","90","42470","0.0-90.0","3WMINLGALCPR9WA92XUV9Z3PHPSAC3","A2TXZVXQU5FQZ9","3FW4EL5A3LANKRP91N782LFHPY722Q","","209.39999997615814","img/animal1.png","75","210.2000000178814","2","1","2","0.5,0,1,1,0.5,0,0,1,0.5",""
"","html-keyboard-response","91","42772","0.0-91.0","3WMINLGALCPR9WA92XUV9Z3PHPSAC3","A2TXZVXQU5FQZ9","3FW4EL5A3LANKRP91N782LFHPY722Q","","null","<img src=""img/animal1.png"" style=""width:200px; border:14px solid green;"">","null","","","","","",""
"","image-keyboard-response","92","42960","0.0-92.0","3WMINLGALCPR9WA92XUV9Z3PHPSAC3","A2TXZVXQU5FQZ9","3FW4EL5A3LANKRP91N782LFHPY722Q","","186.7000000178814","img/animal1.png","76","187.7999999821186","3","0","2","0.5,0,1,1,0.5,0,0,1,0.5",""
"","html-keyboard-response","93","43269","0.0-93.0","3WMINLGALCPR9WA92XUV9Z3PHPSAC3","A2TXZVXQU5FQZ9","3FW4EL5A3LANKRP91N782LFHPY722Q","","null","<img src=""img/animal1.png"" style=""width:200px;border:14px solid red;"">","null","","","","","",""
"","image-keyboard-response","94","43613","0.0-94.0","3WMINLGALCPR9WA92XUV9Z3PHPSAC3","A2TXZVXQU5FQZ9","3FW4EL5A3LANKRP91N782LFHPY722Q","","343","img/animal4.png","75","344.09999999403954","2","0","1","0.5,0,1,1,0.5,0,0,1,0.5",""
"","html-keyboard-response","95","43920","0.0-95.0","3WMINLGALCPR9WA92XUV9Z3PHPSAC3","A2TXZVXQU5FQZ9","3FW4EL5A3LANKRP91N782LFHPY722Q","","null","<img src=""img/animal4.png"" style=""width:200px;border:14px solid red;"">","null","","","","","",""
"","image-keyboard-response","96","44126","0.0-96.0","3WMINLGALCPR9WA92XUV9Z3PHPSAC3","A2TXZVXQU5FQZ9","3FW4EL5A3LANKRP91N782LFHPY722Q","","205.59999999403954","img/animal4.png","74","206.40000000596046","1","1","1","0.5,0,1,1,0.5,0,0,1,0.5",""
"","html-keyboard-response","97","44436","0.0-97.0","3WMINLGALCPR9WA92XUV9Z3PHPSAC3","A2TXZVXQU5FQZ9","3FW4EL5A3LANKRP91N782LFHPY722Q","","null","<img src=""img/animal4.png"" style=""width:200px; border:14px solid green;"">","null","","","","","",""
"","image-keyboard-response","98","44719","0.0-98.0","3WMINLGALCPR9WA92XUV9Z3PHPSAC3","A2TXZVXQU5FQZ9","3FW4EL5A3LANKRP91N782LFHPY722Q","","282","img/animal5.png","74","282.7999999821186","1","0","3","0.5,0,1,1,0.5,0,0,1,0.5",""
"","html-keyboard-response","99","45022","0.0-99.0","3WMINLGALCPR9WA92XUV9Z3PHPSAC3","A2TXZVXQU5FQZ9","3FW4EL5A3LANKRP91N782LFHPY722Q","","null","<img src=""img/animal5.png"" style=""width:200px;border:14px solid red;"">","null","","","","","",""
"","image-keyboard-response","100","45246","0.0-100.0","3WMINLGALCPR9WA92XUV9Z3PHPSAC3","A2TXZVXQU5FQZ9","3FW4EL5A3LANKRP91N782LFHPY722Q","","222.7000000178814","img/animal4.png","74","223.80000001192093","1","0","1","0.5,0,1,1,0.5,0,0,1,0.5",""
"","html-keyboard-response","101","45551","0.0-101.0","3WMINLGALCPR9WA92XUV9Z3PHPSAC3","A2TXZVXQU5FQZ9","3FW4EL5A3LANKRP91N782LFHPY722Q","","null","<img src=""img/animal4.png"" style=""width:200px;border:14px solid red;"">","null","","","","","",""
"","image-keyboard-response","102","45810","0.0-102.0","3WMINLGALCPR9WA92XUV9Z3PHPSAC3","A2TXZVXQU5FQZ9","3FW4EL5A3LANKRP91N782LFHPY722Q","","256.7999999821186","img/animal4.png","74","258","1","0","1","0.5,0,1,1,0.5,0,0,1,0.5",""
"","html-keyboard-response","103","46116","0.0-103.0","3WMINLGALCPR9WA92XUV9Z3PHPSAC3","A2TXZVXQU5FQZ9","3FW4EL5A3LANKRP91N782LFHPY722Q","","null","<img src=""img/animal4.png"" style=""width:200px;border:14px solid red;"">","null","","","","","",""
"","image-keyboard-response","104","46357","0.0-104.0","3WMINLGALCPR9WA92XUV9Z3PHPSAC3","A2TXZVXQU5FQZ9","3FW4EL5A3LANKRP91N782LFHPY722Q","","239.59999999403954","img/animal5.png","75","240.7000000178814","2","1","3","0.5,0,1,1,0.5,0,0,1,0.5",""
"","html-keyboard-response","105","46669","0.0-105.0","3WMINLGALCPR9WA92XUV9Z3PHPSAC3","A2TXZVXQU5FQZ9","3FW4EL5A3LANKRP91N782LFHPY722Q","","null","<img src=""img/animal5.png"" style=""width:200px; border:14px solid green;"">","null","","","","","",""
"","image-keyboard-response","106","46901","0.0-106.0","3WMINLGALCPR9WA92XUV9Z3PHPSAC3","A2TXZVXQU5FQZ9","3FW4EL5A3LANKRP91N782LFHPY722Q","","230.40000000596046","img/animal1.png","75","231.30000001192093","2","1","2","0.5,0,1,1,0.5,0,0,1,0.5",""
"","html-keyboard-response","107","47203","0.0-107.0","3WMINLGALCPR9WA92XUV9Z3PHPSAC3","A2TXZVXQU5FQZ9","3FW4EL5A3LANKRP91N782LFHPY722Q","","null","<img src=""img/animal1.png"" style=""width:200px; border:14px solid green;"">","null","","","","","",""
"","image-keyboard-response","108","47432","0.0-108.0","3WMINLGALCPR9WA92XUV9Z3PHPSAC3","A2TXZVXQU5FQZ9","3FW4EL5A3LANKRP91N782LFHPY722Q","","227.39999997615814","img/animal4.png","75","228.39999997615814","2","0","1","0.5,0,1,1,0.5,0,0,1,0.5",""
"","html-keyboard-response","109","47738","0.0-109.0","3WMINLGALCPR9WA92XUV9Z3PHPSAC3","A2TXZVXQU5FQZ9","3FW4EL5A3LANKRP91N782LFHPY722Q","","null","<img src=""img/animal4.png"" style=""width:200px;border:14px solid red;"">","null","","","","","",""
"","image-keyboard-response","110","48031","0.0-110.0","3WMINLGALCPR9WA92XUV9Z3PHPSAC3","A2TXZVXQU5FQZ9","3FW4EL5A3LANKRP91N782LFHPY722Q","","291.7999999821186","img/animal4.png","75","292.59999999403954","2","0","1","0.5,0,1,1,0.5,0,0,1,0.5",""
"","html-keyboard-response","111","48333","0.0-111.0","3WMINLGALCPR9WA92XUV9Z3PHPSAC3","A2TXZVXQU5FQZ9","3FW4EL5A3LANKRP91N782LFHPY722Q","","null","<img src=""img/animal4.png"" style=""width:200px;border:14px solid red;"">","null","","","","","",""
"","image-keyboard-response","112","48528","0.0-112.0","3WMINLGALCPR9WA92XUV9Z3PHPSAC3","A2TXZVXQU5FQZ9","3FW4EL5A3LANKRP91N782LFHPY722Q","","193.30000001192093","img/animal1.png","76","194.30000001192093","3","0","2","0.5,0,1,1,0.5,0,0,1,0.5",""
"","html-keyboard-response","113","48832","0.0-113.0","3WMINLGALCPR9WA92XUV9Z3PHPSAC3","A2TXZVXQU5FQZ9","3FW4EL5A3LANKRP91N782LFHPY722Q","","null","<img src=""img/animal1.png"" style=""width:200px;border:14px solid red;"">","null","","","","","",""
"","image-keyboard-response","114","49072","0.0-114.0","3WMINLGALCPR9WA92XUV9Z3PHPSAC3","A2TXZVXQU5FQZ9","3FW4EL5A3LANKRP91N782LFHPY722Q","","238.90000000596046","img/animal4.png","76","239.90000000596046","3","1","1","0.5,0,1,1,0.5,0,0,1,0.5",""
"","html-keyboard-response","115","49377","0.0-115.0","3WMINLGALCPR9WA92XUV9Z3PHPSAC3","A2TXZVXQU5FQZ9","3FW4EL5A3LANKRP91N782LFHPY722Q","","null","<img src=""img/animal4.png"" style=""width:200px; border:14px solid green;"">","null","","","","","",""
"","image-keyboard-response","116","49607","0.0-116.0","3WMINLGALCPR9WA92XUV9Z3PHPSAC3","A2TXZVXQU5FQZ9","3FW4EL5A3LANKRP91N782LFHPY722Q","","229.2999999821186","img/animal5.png","75","230.2000000178814","2","1","3","0.5,0,1,1,0.5,0,0,1,0.5",""
"","html-keyboard-response","117","49909","0.0-117.0","3WMINLGALCPR9WA92XUV9Z3PHPSAC3","A2TXZVXQU5FQZ9","3FW4EL5A3LANKRP91N782LFHPY722Q","","null","<img src=""img/animal5.png"" style=""width:200px; border:14px solid green;"">","null","","","","","",""
"","image-keyboard-response","118","50210","0.0-118.0","3WMINLGALCPR9WA92XUV9Z3PHPSAC3","A2TXZVXQU5FQZ9","3FW4EL5A3LANKRP91N782LFHPY722Q","","300.2999999821186","img/animal4.png","74","301.09999999403954","1","0","1","0.5,0,1,1,0.5,0,0,1,0.5",""
"","html-keyboard-response","119","50515","0.0-119.0","3WMINLGALCPR9WA92XUV9Z3PHPSAC3","A2TXZVXQU5FQZ9","3FW4EL5A3LANKRP91N782LFHPY722Q","","null","<img src=""img/animal4.png"" style=""width:200px;border:14px solid red;"">","null","","","","","",""
"","image-keyboard-response","120","50651","0.0-120.0","3WMINLGALCPR9WA92XUV9Z3PHPSAC3","A2TXZVXQU5FQZ9","3FW4EL5A3LANKRP91N782LFHPY722Q","","135.2000000178814","img/animal5.png","75","135.90000000596046","2","1","3","0.5,0,1,1,0.5,0,0,1,0.5",""
"","html-keyboard-response","121","50957","0.0-121.0","3WMINLGALCPR9WA92XUV9Z3PHPSAC3","A2TXZVXQU5FQZ9","3FW4EL5A3LANKRP91N782LFHPY722Q","","null","<img src=""img/animal5.png"" style=""width:200px; border:14px solid green;"">","null","","","","","",""
"","image-keyboard-response","122","51201","0.0-122.0","3WMINLGALCPR9WA92XUV9Z3PHPSAC3","A2TXZVXQU5FQZ9","3FW4EL5A3LANKRP91N782LFHPY722Q","","242.59999999403954","img/animal5.png","76","243.40000000596046","3","0","3","0.5,0,1,1,0.5,0,0,1,0.5",""
"","html-keyboard-response","123","51510","0.0-123.0","3WMINLGALCPR9WA92XUV9Z3PHPSAC3","A2TXZVXQU5FQZ9","3FW4EL5A3LANKRP91N782LFHPY722Q","","null","<img src=""img/animal5.png"" style=""width:200px;border:14px solid red;"">","null","","","","","",""
"","image-keyboard-response","124","51781","0.0-124.0","3WMINLGALCPR9WA92XUV9Z3PHPSAC3","A2TXZVXQU5FQZ9","3FW4EL5A3LANKRP91N782LFHPY722Q","","269.59999999403954","img/animal1.png","75","270.5","2","1","2","0.5,0,1,1,0.5,0,0,1,0.5",""
"","html-keyboard-response","125","52089","0.0-125.0","3WMINLGALCPR9WA92XUV9Z3PHPSAC3","A2TXZVXQU5FQZ9","3FW4EL5A3LANKRP91N782LFHPY722Q","","null","<img src=""img/animal1.png"" style=""width:200px; border:14px solid green;"">","null","","","","","",""
"","image-keyboard-response","126","52355","0.0-126.0","3WMINLGALCPR9WA92XUV9Z3PHPSAC3","A2TXZVXQU5FQZ9","3FW4EL5A3LANKRP91N782LFHPY722Q","","264.5","img/animal1.png","74","265.60000002384186","1","1","2","0.5,0,1,1,0.5,0,0,1,0.5",""
"","html-keyboard-response","127","52658","0.0-127.0","3WMINLGALCPR9WA92XUV9Z3PHPSAC3","A2TXZVXQU5FQZ9","3FW4EL5A3LANKRP91N782LFHPY722Q","","null","<img src=""img/animal1.png"" style=""width:200px; border:14px solid green;"">","null","","","","","",""
"","image-keyboard-response","128","52902","0.0-128.0","3WMINLGALCPR9WA92XUV9Z3PHPSAC3","A2TXZVXQU5FQZ9","3FW4EL5A3LANKRP91N782LFHPY722Q","","243.2999999821186","img/animal1.png","75","243.90000000596046","2","1","2","0.5,0,1,1,0.5,0,0,1,0.5",""
"","html-keyboard-response","129","53207","0.0-129.0","3WMINLGALCPR9WA92XUV9Z3PHPSAC3","A2TXZVXQU5FQZ9","3FW4EL5A3LANKRP91N782LFHPY722Q","","null","<img src=""img/animal1.png"" style=""width:200px; border:14px solid green;"">","null","","","","","",""
"","image-keyboard-response","130","53497","0.0-130.0","3WMINLGALCPR9WA92XUV9Z3PHPSAC3","A2TXZVXQU5FQZ9","3FW4EL5A3LANKRP91N782LFHPY722Q","","288.89999997615814","img/animal4.png","76","290.10000002384186","3","1","1","0.5,0,1,1,0.5,0,0,1,0.5",""
"","html-keyboard-response","131","53815","0.0-131.0","3WMINLGALCPR9WA92XUV9Z3PHPSAC3","A2TXZVXQU5FQZ9","3FW4EL5A3LANKRP91N782LFHPY722Q","","null","<img src=""img/animal4.png"" style=""width:200px; border:14px solid green;"">","null","","","","","",""
"","image-keyboard-response","132","54076","0.0-132.0","3WMINLGALCPR9WA92XUV9Z3PHPSAC3","A2TXZVXQU5FQZ9","3FW4EL5A3LANKRP91N782LFHPY722Q","","260.5","img/animal4.png","75","261.2999999821186","2","0","1","0.5,0,1,1,0.5,0,0,1,0.5",""
"","html-keyboard-response","133","54385","0.0-133.0","3WMINLGALCPR9WA92XUV9Z3PHPSAC3","A2TXZVXQU5FQZ9","3FW4EL5A3LANKRP91N782LFHPY722Q","","null","<img src=""img/animal4.png"" style=""width:200px;border:14px solid red;"">","null","","","","","",""
"","image-keyboard-response","134","54800","0.0-134.0","3WMINLGALCPR9WA92XUV9Z3PHPSAC3","A2TXZVXQU5FQZ9","3FW4EL5A3LANKRP91N782LFHPY722Q","","413.7000000178814","img/animal5.png","74","414.90000000596046","1","0","3","0.5,0,1,1,0.5,0,0,1,0.5",""
"","html-keyboard-response","135","55103","0.0-135.0","3WMINLGALCPR9WA92XUV9Z3PHPSAC3","A2TXZVXQU5FQZ9","3FW4EL5A3LANKRP91N782LFHPY722Q","","null","<img src=""img/animal5.png"" style=""width:200px;border:14px solid red;"">","null","","","","","",""
"","image-keyboard-response","136","55394","0.0-136.0","3WMINLGALCPR9WA92XUV9Z3PHPSAC3","A2TXZVXQU5FQZ9","3FW4EL5A3LANKRP91N782LFHPY722Q","","290.5","img/animal5.png","75","291.59999999403954","2","1","3","0.5,0,1,1,0.5,0,0,1,0.5",""
"","html-keyboard-response","137","55704","0.0-137.0","3WMINLGALCPR9WA92XUV9Z3PHPSAC3","A2TXZVXQU5FQZ9","3FW4EL5A3LANKRP91N782LFHPY722Q","","null","<img src=""img/animal5.png"" style=""width:200px; border:14px solid green;"">","null","","","","","",""
"","image-keyboard-response","138","55979","0.0-138.0","3WMINLGALCPR9WA92XUV9Z3PHPSAC3","A2TXZVXQU5FQZ9","3FW4EL5A3LANKRP91N782LFHPY722Q","","273.5","img/animal4.png","74","274.30000001192093","1","0","1","0.5,0,1,1,0.5,0,0,1,0.5",""
"","html-keyboard-response","139","56286","0.0-139.0","3WMINLGALCPR9WA92XUV9Z3PHPSAC3","A2TXZVXQU5FQZ9","3FW4EL5A3LANKRP91N782LFHPY722Q","","null","<img src=""img/animal4.png"" style=""width:200px;border:14px solid red;"">","null","","","","","",""
"","image-keyboard-response","140","56484","0.0-140.0","3WMINLGALCPR9WA92XUV9Z3PHPSAC3","A2TXZVXQU5FQZ9","3FW4EL5A3LANKRP91N782LFHPY722Q","","198.09999999403954","img/animal1.png","75","198.7000000178814","2","0","2","0.5,0,1,1,0.5,0,0,1,0.5",""
"","html-keyboard-response","141","56787","0.0-141.0","3WMINLGALCPR9WA92XUV9Z3PHPSAC3","A2TXZVXQU5FQZ9","3FW4EL5A3LANKRP91N782LFHPY722Q","","null","<img src=""img/animal1.png"" style=""width:200px;border:14px solid red;"">","null","","","","","",""
"","image-keyboard-response","142","57056","0.0-142.0","3WMINLGALCPR9WA92XUV9Z3PHPSAC3","A2TXZVXQU5FQZ9","3FW4EL5A3LANKRP91N782LFHPY722Q","","268","img/animal5.png","76","268.80000001192093","3","0","3","0.5,0,1,1,0.5,0,0,1,0.5",""
"","html-keyboard-response","143","57357","0.0-143.0","3WMINLGALCPR9WA92XUV9Z3PHPSAC3","A2TXZVXQU5FQZ9","3FW4EL5A3LANKRP91N782LFHPY722Q","","null","<img src=""img/animal5.png"" style=""width:200px;border:14px solid red;"">","null","","","","","",""
"","image-keyboard-response","144","57676","0.0-144.0","3WMINLGALCPR9WA92XUV9Z3PHPSAC3","A2TXZVXQU5FQZ9","3FW4EL5A3LANKRP91N782LFHPY722Q","","318","img/animal1.png","74","318.90000000596046","1","1","2","0.5,0,1,1,0.5,0,0,1,0.5",""
"","html-keyboard-response","145","57982","0.0-145.0","3WMINLGALCPR9WA92XUV9Z3PHPSAC3","A2TXZVXQU5FQZ9","3FW4EL5A3LANKRP91N782LFHPY722Q","","null","<img src=""img/animal1.png"" style=""width:200px; border:14px solid green;"">","null","","","","","",""
"","image-keyboard-response","146","58176","0.0-146.0","3WMINLGALCPR9WA92XUV9Z3PHPSAC3","A2TXZVXQU5FQZ9","3FW4EL5A3LANKRP91N782LFHPY722Q","","192.40000000596046","img/animal4.png","75","193.5","2","0","1","0.5,0,1,1,0.5,0,0,1,0.5",""
"","html-keyboard-response","147","58483","0.0-147.0","3WMINLGALCPR9WA92XUV9Z3PHPSAC3","A2TXZVXQU5FQZ9","3FW4EL5A3LANKRP91N782LFHPY722Q","","null","<img src=""img/animal4.png"" style=""width:200px;border:14px solid red;"">","null","","","","","",""
"","image-keyboard-response","148","58757","0.0-148.0","3WMINLGALCPR9WA92XUV9Z3PHPSAC3","A2TXZVXQU5FQZ9","3FW4EL5A3LANKRP91N782LFHPY722Q","","272.90000000596046","img/animal4.png","76","274","3","1","1","0.5,0,1,1,0.5,0,0,1,0.5",""
"","html-keyboard-response","149","59067","0.0-149.0","3WMINLGALCPR9WA92XUV9Z3PHPSAC3","A2TXZVXQU5FQZ9","3FW4EL5A3LANKRP91N782LFHPY722Q","","null","<img src=""img/animal4.png"" style=""width:200px; border:14px solid green;"">","null","","","","","",""
"","image-keyboard-response","150","59385","0.0-150.0","3WMINLGALCPR9WA92XUV9Z3PHPSAC3","A2TXZVXQU5FQZ9","3FW4EL5A3LANKRP91N782LFHPY722Q","","316.5","img/animal5.png","74","317.30000001192093","1","0","3","0.5,0,1,1,0.5,0,0,1,0.5",""
"","html-keyboard-response","151","59688","0.0-151.0","3WMINLGALCPR9WA92XUV9Z3PHPSAC3","A2TXZVXQU5FQZ9","3FW4EL5A3LANKRP91N782LFHPY722Q","","null","<img src=""img/animal5.png"" style=""width:200px;border:14px solid red;"">","null","","","","","",""
"","image-keyboard-response","152","59922","0.0-152.0","3WMINLGALCPR9WA92XUV9Z3PHPSAC3","A2TXZVXQU5FQZ9","3FW4EL5A3LANKRP91N782LFHPY722Q","","233.09999999403954","img/animal4.png","75","234","2","0","1","0.5,0,1,1,0.5,0,0,1,0.5",""
"","html-keyboard-response","153","60229","0.0-153.0","3WMINLGALCPR9WA92XUV9Z3PHPSAC3","A2TXZVXQU5FQZ9","3FW4EL5A3LANKRP91N782LFHPY722Q","","null","<img src=""img/animal4.png"" style=""width:200px;border:14px solid red;"">","null","","","","","",""
"","image-keyboard-response","154","60568","0.0-154.0","3WMINLGALCPR9WA92XUV9Z3PHPSAC3","A2TXZVXQU5FQZ9","3FW4EL5A3LANKRP91N782LFHPY722Q","","337.5","img/animal5.png","76","338.5","3","1","3","0.5,0,1,1,0.5,0,0,1,0.5",""
"","html-keyboard-response","155","60886","0.0-155.0","3WMINLGALCPR9WA92XUV9Z3PHPSAC3","A2TXZVXQU5FQZ9","3FW4EL5A3LANKRP91N782LFHPY722Q","","null","<img src=""img/animal5.png"" style=""width:200px; border:14px solid green;"">","null","","","","","",""
"","image-keyboard-response","156","61017","0.0-156.0","3WMINLGALCPR9WA92XUV9Z3PHPSAC3","A2TXZVXQU5FQZ9","3FW4EL5A3LANKRP91N782LFHPY722Q","","135.2999999821186","img/animal1.png","75","136.09999999403954","2","1","2","0.5,0,1,1,0.5,0,0,1,0.5",""
"","html-keyboard-response","157","61320","0.0-157.0","3WMINLGALCPR9WA92XUV9Z3PHPSAC3","A2TXZVXQU5FQZ9","3FW4EL5A3LANKRP91N782LFHPY722Q","","null","<img src=""img/animal1.png"" style=""width:200px; border:14px solid green;"">","null","","","","","",""
"","image-keyboard-response","158","61582","0.0-158.0","3WMINLGALCPR9WA92XUV9Z3PHPSAC3","A2TXZVXQU5FQZ9","3FW4EL5A3LANKRP91N782LFHPY722Q","","261.09999999403954","img/animal4.png","74","262.30000001192093","1","0","1","0.5,0,1,1,0.5,0,0,1,0.5",""
"","html-keyboard-response","159","61885","0.0-159.0","3WMINLGALCPR9WA92XUV9Z3PHPSAC3","A2TXZVXQU5FQZ9","3FW4EL5A3LANKRP91N782LFHPY722Q","","null","<img src=""img/animal4.png"" style=""width:200px;border:14px solid red;"">","null","","","","","",""
"","image-keyboard-response","160","62158","0.0-160.0","3WMINLGALCPR9WA92XUV9Z3PHPSAC3","A2TXZVXQU5FQZ9","3FW4EL5A3LANKRP91N782LFHPY722Q","","271.7999999821186","img/animal1.png","75","272.90000000596046","2","0","2","0.5,0,1,1,0.5,0,0,1,0.5",""
"","html-keyboard-response","161","62460","0.0-161.0","3WMINLGALCPR9WA92XUV9Z3PHPSAC3","A2TXZVXQU5FQZ9","3FW4EL5A3LANKRP91N782LFHPY722Q","","null","<img src=""img/animal1.png"" style=""width:200px;border:14px solid red;"">","null","","","","","",""
"","image-keyboard-response","162","62681","0.0-162.0","3WMINLGALCPR9WA92XUV9Z3PHPSAC3","A2TXZVXQU5FQZ9","3FW4EL5A3LANKRP91N782LFHPY722Q","","220","img/animal1.png","76","221","3","0","2","0.5,0,1,1,0.5,0,0,1,0.5",""
"","html-keyboard-response","163","62986","0.0-163.0","3WMINLGALCPR9WA92XUV9Z3PHPSAC3","A2TXZVXQU5FQZ9","3FW4EL5A3LANKRP91N782LFHPY722Q","","null","<img src=""img/animal1.png"" style=""width:200px;border:14px solid red;"">","null","","","","","",""
"","image-keyboard-response","164","63323","0.0-164.0","3WMINLGALCPR9WA92XUV9Z3PHPSAC3","A2TXZVXQU5FQZ9","3FW4EL5A3LANKRP91N782LFHPY722Q","","335.30000001192093","img/animal1.png","74","336.80000001192093","1","1","2","0.5,0,1,1,0.5,0,0,1,0.5",""
"","html-keyboard-response","165","63633","0.0-165.0","3WMINLGALCPR9WA92XUV9Z3PHPSAC3","A2TXZVXQU5FQZ9","3FW4EL5A3LANKRP91N782LFHPY722Q","","null","<img src=""img/animal1.png"" style=""width:200px; border:14px solid green;"">","null","","","","","",""
"","image-keyboard-response","166","63849","0.0-166.0","3WMINLGALCPR9WA92XUV9Z3PHPSAC3","A2TXZVXQU5FQZ9","3FW4EL5A3LANKRP91N782LFHPY722Q","","214.7999999821186","img/animal1.png","75","215.59999999403954","2","1","2","0.5,0,1,1,0.5,0,0,1,0.5",""
"","html-keyboard-response","167","64155","0.0-167.0","3WMINLGALCPR9WA92XUV9Z3PHPSAC3","A2TXZVXQU5FQZ9","3FW4EL5A3LANKRP91N782LFHPY722Q","","null","<img src=""img/animal1.png"" style=""width:200px; border:14px solid green;"">","null","","","","","",""
"","image-keyboard-response","168","64379","0.0-168.0","3WMINLGALCPR9WA92XUV9Z3PHPSAC3","A2TXZVXQU5FQZ9","3FW4EL5A3LANKRP91N782LFHPY722Q","","222.59999999403954","img/animal5.png","76","223.40000000596046","3","0","3","0.5,0,1,1,0.5,0,0,1,0.5",""
"","html-keyboard-response","169","64685","0.0-169.0","3WMINLGALCPR9WA92XUV9Z3PHPSAC3","A2TXZVXQU5FQZ9","3FW4EL5A3LANKRP91N782LFHPY722Q","","null","<img src=""img/animal5.png"" style=""width:200px;border:14px solid red;"">","null","","","","","",""
"","image-keyboard-response","170","64969","0.0-170.0","3WMINLGALCPR9WA92XUV9Z3PHPSAC3","A2TXZVXQU5FQZ9","3FW4EL5A3LANKRP91N782LFHPY722Q","","283.30000001192093","img/animal5.png","75","284.40000000596046","2","1","3","0.5,0,1,1,0.5,0,0,1,0.5",""
"","html-keyboard-response","171","65273","0.0-171.0","3WMINLGALCPR9WA92XUV9Z3PHPSAC3","A2TXZVXQU5FQZ9","3FW4EL5A3LANKRP91N782LFHPY722Q","","null","<img src=""img/animal5.png"" style=""width:200px; border:14px solid green;"">","null","","","","","",""
"","image-keyboard-response","172","65545","0.0-172.0","3WMINLGALCPR9WA92XUV9Z3PHPSAC3","A2TXZVXQU5FQZ9","3FW4EL5A3LANKRP91N782LFHPY722Q","","269.7999999821186","img/animal4.png","74","271.30000001192093","1","1","1","0.5,0,1,1,0.5,0,0,1,0.5",""
"","html-keyboard-response","173","65850","0.0-173.0","3WMINLGALCPR9WA92XUV9Z3PHPSAC3","A2TXZVXQU5FQZ9","3FW4EL5A3LANKRP91N782LFHPY722Q","","null","<img src=""img/animal4.png"" style=""width:200px; border:14px solid green;"">","null","","","","","",""
"","image-keyboard-response","174","66141","0.0-174.0","3WMINLGALCPR9WA92XUV9Z3PHPSAC3","A2TXZVXQU5FQZ9","3FW4EL5A3LANKRP91N782LFHPY722Q","","290","img/animal5.png","75","290.90000000596046","2","1","3","0.5,0,1,1,0.5,0,0,1,0.5",""
"","html-keyboard-response","175","66447","0.0-175.0","3WMINLGALCPR9WA92XUV9Z3PHPSAC3","A2TXZVXQU5FQZ9","3FW4EL5A3LANKRP91N782LFHPY722Q","","null","<img src=""img/animal5.png"" style=""width:200px; border:14px solid green;"">","null","","","","","",""
"","image-keyboard-response","176","66635","0.0-176.0","3WMINLGALCPR9WA92XUV9Z3PHPSAC3","A2TXZVXQU5FQZ9","3FW4EL5A3LANKRP91N782LFHPY722Q","","187","img/animal1.png","76","188","3","0","2","0.5,0,1,1,0.5,0,0,1,0.5",""
"","html-keyboard-response","177","66941","0.0-177.0","3WMINLGALCPR9WA92XUV9Z3PHPSAC3","A2TXZVXQU5FQZ9","3FW4EL5A3LANKRP91N782LFHPY722Q","","null","<img src=""img/animal1.png"" style=""width:200px;border:14px solid red;"">","null","","","","","",""
"","image-keyboard-response","178","67226","0.0-178.0","3WMINLGALCPR9WA92XUV9Z3PHPSAC3","A2TXZVXQU5FQZ9","3FW4EL5A3LANKRP91N782LFHPY722Q","","283.2999999821186","img/animal5.png","74","284.5","1","0","3","0.5,0,1,1,0.5,0,0,1,0.5",""
"","html-keyboard-response","179","67529","0.0-179.0","3WMINLGALCPR9WA92XUV9Z3PHPSAC3","A2TXZVXQU5FQZ9","3FW4EL5A3LANKRP91N782LFHPY722Q","","null","<img src=""img/animal5.png"" style=""width:200px;border:14px solid red;"">","null","","","","","",""
"","image-keyboard-response","180","67792","0.0-180.0","3WMINLGALCPR9WA92XUV9Z3PHPSAC3","A2TXZVXQU5FQZ9","3FW4EL5A3LANKRP91N782LFHPY722Q","","261.7000000178814","img/animal5.png","75","262.80000001192093","2","1","3","0.5,0,1,1,0.5,0,0,1,0.5",""
"","html-keyboard-response","181","68101","0.0-181.0","3WMINLGALCPR9WA92XUV9Z3PHPSAC3","A2TXZVXQU5FQZ9","3FW4EL5A3LANKRP91N782LFHPY722Q","","null","<img src=""img/animal5.png"" style=""width:200px; border:14px solid green;"">","null","","","","","",""
"","html-keyboard-response","182","70068","0.0-182.0","3WMINLGALCPR9WA92XUV9Z3PHPSAC3","A2TXZVXQU5FQZ9","3FW4EL5A3LANKRP91N782LFHPY722Q","","","","","","","","","",""
"","image-keyboard-response","183","70625","0.0-183.0","3WMINLGALCPR9WA92XUV9Z3PHPSAC3","A2TXZVXQU5FQZ9","3FW4EL5A3LANKRP91N782LFHPY722Q","","555.6000000238419","img/animal3.png","75","557.3000000119209","2","1","2","0.7,0,0.8,0.7,0.8,0,0.7,0.8,0",""
"","html-keyboard-response","184","70929","0.0-184.0","3WMINLGALCPR9WA92XUV9Z3PHPSAC3","A2TXZVXQU5FQZ9","3FW4EL5A3LANKRP91N782LFHPY722Q","","null","<img src=""img/animal3.png"" style=""width:200px; border:14px solid green;"">","null","","","","","",""
"","image-keyboard-response","185","71067","0.0-185.0","3WMINLGALCPR9WA92XUV9Z3PHPSAC3","A2TXZVXQU5FQZ9","3FW4EL5A3LANKRP91N782LFHPY722Q","","137","img/animal2.png","74","138.30000001192093","1","0","3","0.7,0,0.8,0.7,0.8,0,0.7,0.8,0",""
"","html-keyboard-response","186","71374","0.0-186.0","3WMINLGALCPR9WA92XUV9Z3PHPSAC3","A2TXZVXQU5FQZ9","3FW4EL5A3LANKRP91N782LFHPY722Q","","null","<img src=""img/animal2.png"" style=""width:200px;border:14px solid red;"">","null","","","","","",""
"","image-keyboard-response","187","71538","0.0-187.0","3WMINLGALCPR9WA92XUV9Z3PHPSAC3","A2TXZVXQU5FQZ9","3FW4EL5A3LANKRP91N782LFHPY722Q","","163","img/animal3.png","75","164.19999998807907","2","0","2","0.7,0,0.8,0.7,0.8,0,0.7,0.8,0",""
"","html-keyboard-response","188","71846","0.0-188.0","3WMINLGALCPR9WA92XUV9Z3PHPSAC3","A2TXZVXQU5FQZ9","3FW4EL5A3LANKRP91N782LFHPY722Q","","null","<img src=""img/animal3.png"" style=""width:200px;border:14px solid red;"">","null","","","","","",""
"","image-keyboard-response","189","72031","0.0-189.0","3WMINLGALCPR9WA92XUV9Z3PHPSAC3","A2TXZVXQU5FQZ9","3FW4EL5A3LANKRP91N782LFHPY722Q","","183.59999999403954","img/animal6.png","76","184.5","3","1","1","0.7,0,0.8,0.7,0.8,0,0.7,0.8,0",""
"","html-keyboard-response","190","72340","0.0-190.0","3WMINLGALCPR9WA92XUV9Z3PHPSAC3","A2TXZVXQU5FQZ9","3FW4EL5A3LANKRP91N782LFHPY722Q","","null","<img src=""img/animal6.png"" style=""width:200px; border:14px solid green;"">","null","","","","","",""
"","image-keyboard-response","191","72535","0.0-191.0","3WMINLGALCPR9WA92XUV9Z3PHPSAC3","A2TXZVXQU5FQZ9","3FW4EL5A3LANKRP91N782LFHPY722Q","","193.59999999403954","img/animal6.png","75","194.5","2","0","1","0.7,0,0.8,0.7,0.8,0,0.7,0.8,0",""
"","html-keyboard-response","192","72842","0.0-192.0","3WMINLGALCPR9WA92XUV9Z3PHPSAC3","A2TXZVXQU5FQZ9","3FW4EL5A3LANKRP91N782LFHPY722Q","","null","<img src=""img/animal6.png"" style=""width:200px;border:14px solid red;"">","null","","","","","",""
"","image-keyboard-response","193","73071","0.0-193.0","3WMINLGALCPR9WA92XUV9Z3PHPSAC3","A2TXZVXQU5FQZ9","3FW4EL5A3LANKRP91N782LFHPY722Q","","227.10000002384186","img/animal3.png","74","228.09999999403954","1","1","2","0.7,0,0.8,0.7,0.8,0,0.7,0.8,0",""
"","html-keyboard-response","194","73375","0.0-194.0","3WMINLGALCPR9WA92XUV9Z3PHPSAC3","A2TXZVXQU5FQZ9","3FW4EL5A3LANKRP91N782LFHPY722Q","","null","<img src=""img/animal3.png"" style=""width:200px; border:14px solid green;"">","null","","","","","",""
"","image-keyboard-response","195","73608","0.0-195.0","3WMINLGALCPR9WA92XUV9Z3PHPSAC3","A2TXZVXQU5FQZ9","3FW4EL5A3LANKRP91N782LFHPY722Q","","230.69999998807907","img/animal3.png","75","231.80000001192093","2","1","2","0.7,0,0.8,0.7,0.8,0,0.7,0.8,0",""
"","html-keyboard-response","196","73917","0.0-196.0","3WMINLGALCPR9WA92XUV9Z3PHPSAC3","A2TXZVXQU5FQZ9","3FW4EL5A3LANKRP91N782LFHPY722Q","","null","<img src=""img/animal3.png"" style=""width:200px; border:14px solid green;"">","null","","","","","",""
"","image-keyboard-response","197","74124","0.0-197.0","3WMINLGALCPR9WA92XUV9Z3PHPSAC3","A2TXZVXQU5FQZ9","3FW4EL5A3LANKRP91N782LFHPY722Q","","206.10000002384186","img/animal3.png","74","206.90000000596046","1","1","2","0.7,0,0.8,0.7,0.8,0,0.7,0.8,0",""
"","html-keyboard-response","198","74427","0.0-198.0","3WMINLGALCPR9WA92XUV9Z3PHPSAC3","A2TXZVXQU5FQZ9","3FW4EL5A3LANKRP91N782LFHPY722Q","","null","<img src=""img/animal3.png"" style=""width:200px; border:14px solid green;"">","null","","","","","",""
"","image-keyboard-response","199","74692","0.0-199.0","3WMINLGALCPR9WA92XUV9Z3PHPSAC3","A2TXZVXQU5FQZ9","3FW4EL5A3LANKRP91N782LFHPY722Q","","263.90000000596046","img/animal2.png","74","264.89999997615814","1","1","3","0.7,0,0.8,0.7,0.8,0,0.7,0.8,0",""
"","html-keyboard-response","200","75016","0.0-200.0","3WMINLGALCPR9WA92XUV9Z3PHPSAC3","A2TXZVXQU5FQZ9","3FW4EL5A3LANKRP91N782LFHPY722Q","","null","<img src=""img/animal2.png"" style=""width:200px; border:14px solid green;"">","null","","","","","",""
"","image-keyboard-response","201","75210","0.0-201.0","3WMINLGALCPR9WA92XUV9Z3PHPSAC3","A2TXZVXQU5FQZ9","3FW4EL5A3LANKRP91N782LFHPY722Q","","192.80000001192093","img/animal6.png","74","194","1","1","1","0.7,0,0.8,0.7,0.8,0,0.7,0.8,0",""
"","html-keyboard-response","202","75527","0.0-202.0","3WMINLGALCPR9WA92XUV9Z3PHPSAC3","A2TXZVXQU5FQZ9","3FW4EL5A3LANKRP91N782LFHPY722Q","","null","<img src=""img/animal6.png"" style=""width:200px; border:14px solid green;"">","null","","","","","",""
"","image-keyboard-response","203","75749","0.0-203.0","3WMINLGALCPR9WA92XUV9Z3PHPSAC3","A2TXZVXQU5FQZ9","3FW4EL5A3LANKRP91N782LFHPY722Q","","219.59999999403954","img/animal2.png","75","221.39999997615814","2","0","3","0.7,0,0.8,0.7,0.8,0,0.7,0.8,0",""
"","html-keyboard-response","204","76054","0.0-204.0","3WMINLGALCPR9WA92XUV9Z3PHPSAC3","A2TXZVXQU5FQZ9","3FW4EL5A3LANKRP91N782LFHPY722Q","","null","<img src=""img/animal2.png"" style=""width:200px;border:14px solid red;"">","null","","","","","",""
"","image-keyboard-response","205","76194","0.0-205.0","3WMINLGALCPR9WA92XUV9Z3PHPSAC3","A2TXZVXQU5FQZ9","3FW4EL5A3LANKRP91N782LFHPY722Q","","138.5","img/animal2.png","76","139.5","3","0","3","0.7,0,0.8,0.7,0.8,0,0.7,0.8,0",""
"","html-keyboard-response","206","76511","0.0-206.0","3WMINLGALCPR9WA92XUV9Z3PHPSAC3","A2TXZVXQU5FQZ9","3FW4EL5A3LANKRP91N782LFHPY722Q","","null","<img src=""img/animal2.png"" style=""width:200px;border:14px solid red;"">","null","","","","","",""
"","image-keyboard-response","207","76715","0.0-207.0","3WMINLGALCPR9WA92XUV9Z3PHPSAC3","A2TXZVXQU5FQZ9","3FW4EL5A3LANKRP91N782LFHPY722Q","","202.90000000596046","img/animal3.png","75","203.80000001192093","2","1","2","0.7,0,0.8,0.7,0.8,0,0.7,0.8,0",""
"","html-keyboard-response","208","77017","0.0-208.0","3WMINLGALCPR9WA92XUV9Z3PHPSAC3","A2TXZVXQU5FQZ9","3FW4EL5A3LANKRP91N782LFHPY722Q","","null","<img src=""img/animal3.png"" style=""width:200px; border:14px solid green;"">","null","","","","","",""
"","image-keyboard-response","209","77242","0.0-209.0","3WMINLGALCPR9WA92XUV9Z3PHPSAC3","A2TXZVXQU5FQZ9","3FW4EL5A3LANKRP91N782LFHPY722Q","","223.80000001192093","img/animal6.png","74","224.69999998807907","1","1","1","0.7,0,0.8,0.7,0.8,0,0.7,0.8,0",""
"","html-keyboard-response","210","77545","0.0-210.0","3WMINLGALCPR9WA92XUV9Z3PHPSAC3","A2TXZVXQU5FQZ9","3FW4EL5A3LANKRP91N782LFHPY722Q","","null","<img src=""img/animal6.png"" style=""width:200px; border:14px solid green;"">","null","","","","","",""
"","image-keyboard-response","211","77771","0.0-211.0","3WMINLGALCPR9WA92XUV9Z3PHPSAC3","A2TXZVXQU5FQZ9","3FW4EL5A3LANKRP91N782LFHPY722Q","","225.5","img/animal3.png","74","226.5","1","1","2","0.7,0,0.8,0.7,0.8,0,0.7,0.8,0",""
"","html-keyboard-response","212","78077","0.0-212.0","3WMINLGALCPR9WA92XUV9Z3PHPSAC3","A2TXZVXQU5FQZ9","3FW4EL5A3LANKRP91N782LFHPY722Q","","null","<img src=""img/animal3.png"" style=""width:200px; border:14px solid green;"">","null","","","","","",""
"","image-keyboard-response","213","78319","0.0-213.0","3WMINLGALCPR9WA92XUV9Z3PHPSAC3","A2TXZVXQU5FQZ9","3FW4EL5A3LANKRP91N782LFHPY722Q","","240.7999999821186","img/animal3.png","75","241.59999999403954","2","1","2","0.7,0,0.8,0.7,0.8,0,0.7,0.8,0",""
"","html-keyboard-response","214","78623","0.0-214.0","3WMINLGALCPR9WA92XUV9Z3PHPSAC3","A2TXZVXQU5FQZ9","3FW4EL5A3LANKRP91N782LFHPY722Q","","null","<img src=""img/animal3.png"" style=""width:200px; border:14px solid green;"">","null","","","","","",""
"","image-keyboard-response","215","78845","0.0-215.0","3WMINLGALCPR9WA92XUV9Z3PHPSAC3","A2TXZVXQU5FQZ9","3FW4EL5A3LANKRP91N782LFHPY722Q","","220.2000000178814","img/animal6.png","74","221.30000001192093","1","1","1","0.7,0,0.8,0.7,0.8,0,0.7,0.8,0",""
"","html-keyboard-response","216","79154","0.0-216.0","3WMINLGALCPR9WA92XUV9Z3PHPSAC3","A2TXZVXQU5FQZ9","3FW4EL5A3LANKRP91N782LFHPY722Q","","null","<img src=""img/animal6.png"" style=""width:200px; border:14px solid green;"">","null","","","","","",""
"","image-keyboard-response","217","79409","0.0-217.0","3WMINLGALCPR9WA92XUV9Z3PHPSAC3","A2TXZVXQU5FQZ9","3FW4EL5A3LANKRP91N782LFHPY722Q","","253.40000000596046","img/animal2.png","74","254.40000000596046","1","1","3","0.7,0,0.8,0.7,0.8,0,0.7,0.8,0",""
"","html-keyboard-response","218","79716","0.0-218.0","3WMINLGALCPR9WA92XUV9Z3PHPSAC3","A2TXZVXQU5FQZ9","3FW4EL5A3LANKRP91N782LFHPY722Q","","null","<img src=""img/animal2.png"" style=""width:200px; border:14px solid green;"">","null","","","","","",""
"","image-keyboard-response","219","79930","0.0-219.0","3WMINLGALCPR9WA92XUV9Z3PHPSAC3","A2TXZVXQU5FQZ9","3FW4EL5A3LANKRP91N782LFHPY722Q","","212.5","img/animal2.png","75","213.59999999403954","2","0","3","0.7,0,0.8,0.7,0.8,0,0.7,0.8,0",""
"","html-keyboard-response","220","80234","0.0-220.0","3WMINLGALCPR9WA92XUV9Z3PHPSAC3","A2TXZVXQU5FQZ9","3FW4EL5A3LANKRP91N782LFHPY722Q","","null","<img src=""img/animal2.png"" style=""width:200px;border:14px solid red;"">","null","","","","","",""
"","image-keyboard-response","221","80416","0.0-221.0","3WMINLGALCPR9WA92XUV9Z3PHPSAC3","A2TXZVXQU5FQZ9","3FW4EL5A3LANKRP91N782LFHPY722Q","","181.69999998807907","img/animal2.png","74","182.59999999403954","1","1","3","0.7,0,0.8,0.7,0.8,0,0.7,0.8,0",""
"","html-keyboard-response","222","80720","0.0-222.0","3WMINLGALCPR9WA92XUV9Z3PHPSAC3","A2TXZVXQU5FQZ9","3FW4EL5A3LANKRP91N782LFHPY722Q","","null","<img src=""img/animal2.png"" style=""width:200px; border:14px solid green;"">","null","","","","","",""
"","image-keyboard-response","223","80943","0.0-223.0","3WMINLGALCPR9WA92XUV9Z3PHPSAC3","A2TXZVXQU5FQZ9","3FW4EL5A3LANKRP91N782LFHPY722Q","","221.40000000596046","img/animal2.png","74","222.40000000596046","1","1","3","0.7,0,0.8,0.7,0.8,0,0.7,0.8,0",""
"","html-keyboard-response","224","81246","0.0-224.0","3WMINLGALCPR9WA92XUV9Z3PHPSAC3","A2TXZVXQU5FQZ9","3FW4EL5A3LANKRP91N782LFHPY722Q","","null","<img src=""img/animal2.png"" style=""width:200px; border:14px solid green;"">","null","","","","","",""
"","image-keyboard-response","225","81522","0.0-225.0","3WMINLGALCPR9WA92XUV9Z3PHPSAC3","A2TXZVXQU5FQZ9","3FW4EL5A3LANKRP91N782LFHPY722Q","","274.90000000596046","img/animal2.png","74","275.90000000596046","1","1","3","0.7,0,0.8,0.7,0.8,0,0.7,0.8,0",""
"","html-keyboard-response","226","81826","0.0-226.0","3WMINLGALCPR9WA92XUV9Z3PHPSAC3","A2TXZVXQU5FQZ9","3FW4EL5A3LANKRP91N782LFHPY722Q","","null","<img src=""img/animal2.png"" style=""width:200px; border:14px solid green;"">","null","","","","","",""
"","image-keyboard-response","227","82049","0.0-227.0","3WMINLGALCPR9WA92XUV9Z3PHPSAC3","A2TXZVXQU5FQZ9","3FW4EL5A3LANKRP91N782LFHPY722Q","","222.09999999403954","img/animal3.png","74","223","1","1","2","0.7,0,0.8,0.7,0.8,0,0.7,0.8,0",""
"","html-keyboard-response","228","82353","0.0-228.0","3WMINLGALCPR9WA92XUV9Z3PHPSAC3","A2TXZVXQU5FQZ9","3FW4EL5A3LANKRP91N782LFHPY722Q","","null","<img src=""img/animal3.png"" style=""width:200px; border:14px solid green;"">","null","","","","","",""
"","image-keyboard-response","229","82549","0.0-229.0","3WMINLGALCPR9WA92XUV9Z3PHPSAC3","A2TXZVXQU5FQZ9","3FW4EL5A3LANKRP91N782LFHPY722Q","","194.59999999403954","img/animal2.png","74","195.40000000596046","1","1","3","0.7,0,0.8,0.7,0.8,0,0.7,0.8,0",""
"","html-keyboard-response","230","82855","0.0-230.0","3WMINLGALCPR9WA92XUV9Z3PHPSAC3","A2TXZVXQU5FQZ9","3FW4EL5A3LANKRP91N782LFHPY722Q","","null","<img src=""img/animal2.png"" style=""width:200px; border:14px solid green;"">","null","","","","","",""
"","image-keyboard-response","231","83085","0.0-231.0","3WMINLGALCPR9WA92XUV9Z3PHPSAC3","A2TXZVXQU5FQZ9","3FW4EL5A3LANKRP91N782LFHPY722Q","","229.09999999403954","img/animal2.png","74","230.2000000178814","1","1","3","0.7,0,0.8,0.7,0.8,0,0.7,0.8,0",""
"","html-keyboard-response","232","83387","0.0-232.0","3WMINLGALCPR9WA92XUV9Z3PHPSAC3","A2TXZVXQU5FQZ9","3FW4EL5A3LANKRP91N782LFHPY722Q","","null","<img src=""img/animal2.png"" style=""width:200px; border:14px solid green;"">","null","","","","","",""
"","image-keyboard-response","233","83592","0.0-233.0","3WMINLGALCPR9WA92XUV9Z3PHPSAC3","A2TXZVXQU5FQZ9","3FW4EL5A3LANKRP91N782LFHPY722Q","","203.2999999821186","img/animal3.png","74","204.60000002384186","1","1","2","0.7,0,0.8,0.7,0.8,0,0.7,0.8,0",""
"","html-keyboard-response","234","83899","0.0-234.0","3WMINLGALCPR9WA92XUV9Z3PHPSAC3","A2TXZVXQU5FQZ9","3FW4EL5A3LANKRP91N782LFHPY722Q","","null","<img src=""img/animal3.png"" style=""width:200px; border:14px solid green;"">","null","","","","","",""
"","image-keyboard-response","235","84148","0.0-235.0","3WMINLGALCPR9WA92XUV9Z3PHPSAC3","A2TXZVXQU5FQZ9","3FW4EL5A3LANKRP91N782LFHPY722Q","","248.30000001192093","img/animal2.png","74","249","1","0","3","0.7,0,0.8,0.7,0.8,0,0.7,0.8,0",""
"","html-keyboard-response","236","84460","0.0-236.0","3WMINLGALCPR9WA92XUV9Z3PHPSAC3","A2TXZVXQU5FQZ9","3FW4EL5A3LANKRP91N782LFHPY722Q","","null","<img src=""img/animal2.png"" style=""width:200px;border:14px solid red;"">","null","","","","","",""
"","image-keyboard-response","237","84680","0.0-237.0","3WMINLGALCPR9WA92XUV9Z3PHPSAC3","A2TXZVXQU5FQZ9","3FW4EL5A3LANKRP91N782LFHPY722Q","","218.59999999403954","img/animal3.png","75","219.60000002384186","2","1","2","0.7,0,0.8,0.7,0.8,0,0.7,0.8,0",""
"","html-keyboard-response","238","84988","0.0-238.0","3WMINLGALCPR9WA92XUV9Z3PHPSAC3","A2TXZVXQU5FQZ9","3FW4EL5A3LANKRP91N782LFHPY722Q","","null","<img src=""img/animal3.png"" style=""width:200px; border:14px solid green;"">","null","","","","","",""
"","image-keyboard-response","239","85257","0.0-239.0","3WMINLGALCPR9WA92XUV9Z3PHPSAC3","A2TXZVXQU5FQZ9","3FW4EL5A3LANKRP91N782LFHPY722Q","","267.2000000178814","img/animal6.png","75","268.19999998807907","2","0","1","0.7,0,0.8,0.7,0.8,0,0.7,0.8,0",""
"","html-keyboard-response","240","85565","0.0-240.0","3WMINLGALCPR9WA92XUV9Z3PHPSAC3","A2TXZVXQU5FQZ9","3FW4EL5A3LANKRP91N782LFHPY722Q","","null","<img src=""img/animal6.png"" style=""width:200px;border:14px solid red;"">","null","","","","","",""
"","image-keyboard-response","241","85743","0.0-241.0","3WMINLGALCPR9WA92XUV9Z3PHPSAC3","A2TXZVXQU5FQZ9","3FW4EL5A3LANKRP91N782LFHPY722Q","","176.7999999821186","img/animal3.png","76","177.80000001192093","3","0","2","0.7,0,0.8,0.7,0.8,0,0.7,0.8,0",""
"","html-keyboard-response","242","86050","0.0-242.0","3WMINLGALCPR9WA92XUV9Z3PHPSAC3","A2TXZVXQU5FQZ9","3FW4EL5A3LANKRP91N782LFHPY722Q","","null","<img src=""img/animal3.png"" style=""width:200px;border:14px solid red;"">","null","","","","","",""
"","image-keyboard-response","243","86224","0.0-243.0","3WMINLGALCPR9WA92XUV9Z3PHPSAC3","A2TXZVXQU5FQZ9","3FW4EL5A3LANKRP91N782LFHPY722Q","","172.59999999403954","img/animal6.png","76","173.69999998807907","3","0","1","0.7,0,0.8,0.7,0.8,0,0.7,0.8,0",""
"","html-keyboard-response","244","86533","0.0-244.0","3WMINLGALCPR9WA92XUV9Z3PHPSAC3","A2TXZVXQU5FQZ9","3FW4EL5A3LANKRP91N782LFHPY722Q","","null","<img src=""img/animal6.png"" style=""width:200px;border:14px solid red;"">","null","","","","","",""
"","image-keyboard-response","245","86720","0.0-245.0","3WMINLGALCPR9WA92XUV9Z3PHPSAC3","A2TXZVXQU5FQZ9","3FW4EL5A3LANKRP91N782LFHPY722Q","","185.59999999403954","img/animal2.png","74","186.60000002384186","1","1","3","0.7,0,0.8,0.7,0.8,0,0.7,0.8,0",""
"","html-keyboard-response","246","87030","0.0-246.0","3WMINLGALCPR9WA92XUV9Z3PHPSAC3","A2TXZVXQU5FQZ9","3FW4EL5A3LANKRP91N782LFHPY722Q","","null","<img src=""img/animal2.png"" style=""width:200px; border:14px solid green;"">","null","","","","","",""
"","image-keyboard-response","247","87314","0.0-247.0","3WMINLGALCPR9WA92XUV9Z3PHPSAC3","A2TXZVXQU5FQZ9","3FW4EL5A3LANKRP91N782LFHPY722Q","","282","img/animal6.png","75","283.2999999821186","2","0","1","0.7,0,0.8,0.7,0.8,0,0.7,0.8,0",""
"","html-keyboard-response","248","87616","0.0-248.0","3WMINLGALCPR9WA92XUV9Z3PHPSAC3","A2TXZVXQU5FQZ9","3FW4EL5A3LANKRP91N782LFHPY722Q","","null","<img src=""img/animal6.png"" style=""width:200px;border:14px solid red;"">","null","","","","","",""
"","image-keyboard-response","249","87788","0.0-249.0","3WMINLGALCPR9WA92XUV9Z3PHPSAC3","A2TXZVXQU5FQZ9","3FW4EL5A3LANKRP91N782LFHPY722Q","","171.09999999403954","img/animal3.png","74","171.90000000596046","1","1","2","0.7,0,0.8,0.7,0.8,0,0.7,0.8,0",""
"","html-keyboard-response","250","88093","0.0-250.0","3WMINLGALCPR9WA92XUV9Z3PHPSAC3","A2TXZVXQU5FQZ9","3FW4EL5A3LANKRP91N782LFHPY722Q","","null","<img src=""img/animal3.png"" style=""width:200px; border:14px solid green;"">","null","","","","","",""
"","image-keyboard-response","251","88330","0.0-251.0","3WMINLGALCPR9WA92XUV9Z3PHPSAC3","A2TXZVXQU5FQZ9","3FW4EL5A3LANKRP91N782LFHPY722Q","","235.59999999403954","img/animal2.png","74","236.5","1","0","3","0.7,0,0.8,0.7,0.8,0,0.7,0.8,0",""
"","html-keyboard-response","252","88634","0.0-252.0","3WMINLGALCPR9WA92XUV9Z3PHPSAC3","A2TXZVXQU5FQZ9","3FW4EL5A3LANKRP91N782LFHPY722Q","","null","<img src=""img/animal2.png"" style=""width:200px;border:14px solid red;"">","null","","","","","",""
"","image-keyboard-response","253","88848","0.0-253.0","3WMINLGALCPR9WA92XUV9Z3PHPSAC3","A2TXZVXQU5FQZ9","3FW4EL5A3LANKRP91N782LFHPY722Q","","212.69999998807907","img/animal2.png","74","213.7000000178814","1","1","3","0.7,0,0.8,0.7,0.8,0,0.7,0.8,0",""
"","html-keyboard-response","254","89153","0.0-254.0","3WMINLGALCPR9WA92XUV9Z3PHPSAC3","A2TXZVXQU5FQZ9","3FW4EL5A3LANKRP91N782LFHPY722Q","","null","<img src=""img/animal2.png"" style=""width:200px; border:14px solid green;"">","null","","","","","",""
"","image-keyboard-response","255","89415","0.0-255.0","3WMINLGALCPR9WA92XUV9Z3PHPSAC3","A2TXZVXQU5FQZ9","3FW4EL5A3LANKRP91N782LFHPY722Q","","260.7000000178814","img/animal3.png","75","261.80000001192093","2","1","2","0.7,0,0.8,0.7,0.8,0,0.7,0.8,0",""
"","html-keyboard-response","256","89720","0.0-256.0","3WMINLGALCPR9WA92XUV9Z3PHPSAC3","A2TXZVXQU5FQZ9","3FW4EL5A3LANKRP91N782LFHPY722Q","","null","<img src=""img/animal3.png"" style=""width:200px; border:14px solid green;"">","null","","","","","",""
"","image-keyboard-response","257","89881","0.0-257.0","3WMINLGALCPR9WA92XUV9Z3PHPSAC3","A2TXZVXQU5FQZ9","3FW4EL5A3LANKRP91N782LFHPY722Q","","159.2999999821186","img/animal6.png","74","160.39999997615814","1","1","1","0.7,0,0.8,0.7,0.8,0,0.7,0.8,0",""
"","html-keyboard-response","258","90191","0.0-258.0","3WMINLGALCPR9WA92XUV9Z3PHPSAC3","A2TXZVXQU5FQZ9","3FW4EL5A3LANKRP91N782LFHPY722Q","","null","<img src=""img/animal6.png"" style=""width:200px; border:14px solid green;"">","null","","","","","",""
"","image-keyboard-response","259","90397","0.0-259.0","3WMINLGALCPR9WA92XUV9Z3PHPSAC3","A2TXZVXQU5FQZ9","3FW4EL5A3LANKRP91N782LFHPY722Q","","204.59999999403954","img/animal3.png","74","205.7999999821186","1","0","2","0.7,0,0.8,0.7,0.8,0,0.7,0.8,0",""
"","html-keyboard-response","260","90705","0.0-260.0","3WMINLGALCPR9WA92XUV9Z3PHPSAC3","A2TXZVXQU5FQZ9","3FW4EL5A3LANKRP91N782LFHPY722Q","","null","<img src=""img/animal3.png"" style=""width:200px;border:14px solid red;"">","null","","","","","",""
"","image-keyboard-response","261","90930","0.0-261.0","3WMINLGALCPR9WA92XUV9Z3PHPSAC3","A2TXZVXQU5FQZ9","3FW4EL5A3LANKRP91N782LFHPY722Q","","224.09999999403954","img/animal6.png","75","224.90000000596046","2","0","1","0.7,0,0.8,0.7,0.8,0,0.7,0.8,0",""
"","html-keyboard-response","262","91235","0.0-262.0","3WMINLGALCPR9WA92XUV9Z3PHPSAC3","A2TXZVXQU5FQZ9","3FW4EL5A3LANKRP91N782LFHPY722Q","","null","<img src=""img/animal6.png"" style=""width:200px;border:14px solid red;"">","null","","","","","",""
"","image-keyboard-response","263","91390","0.0-263.0","3WMINLGALCPR9WA92XUV9Z3PHPSAC3","A2TXZVXQU5FQZ9","3FW4EL5A3LANKRP91N782LFHPY722Q","","153.7000000178814","img/animal2.png","74","154.59999999403954","1","1","3","0.7,0,0.8,0.7,0.8,0,0.7,0.8,0",""
"","html-keyboard-response","264","91696","0.0-264.0","3WMINLGALCPR9WA92XUV9Z3PHPSAC3","A2TXZVXQU5FQZ9","3FW4EL5A3LANKRP91N782LFHPY722Q","","null","<img src=""img/animal2.png"" style=""width:200px; border:14px solid green;"">","null","","","","","",""
"","image-keyboard-response","265","91929","0.0-265.0","3WMINLGALCPR9WA92XUV9Z3PHPSAC3","A2TXZVXQU5FQZ9","3FW4EL5A3LANKRP91N782LFHPY722Q","","231.7000000178814","img/animal6.png","74","232.59999999403954","1","1","1","0.7,0,0.8,0.7,0.8,0,0.7,0.8,0",""
"","html-keyboard-response","266","92238","0.0-266.0","3WMINLGALCPR9WA92XUV9Z3PHPSAC3","A2TXZVXQU5FQZ9","3FW4EL5A3LANKRP91N782LFHPY722Q","","null","<img src=""img/animal6.png"" style=""width:200px; border:14px solid green;"">","null","","","","","",""
"","image-keyboard-response","267","92439","0.0-267.0","3WMINLGALCPR9WA92XUV9Z3PHPSAC3","A2TXZVXQU5FQZ9","3FW4EL5A3LANKRP91N782LFHPY722Q","","198.69999998807907","img/animal6.png","75","200.19999998807907","2","0","1","0.7,0,0.8,0.7,0.8,0,0.7,0.8,0",""
"","html-keyboard-response","268","92743","0.0-268.0","3WMINLGALCPR9WA92XUV9Z3PHPSAC3","A2TXZVXQU5FQZ9","3FW4EL5A3LANKRP91N782LFHPY722Q","","null","<img src=""img/animal6.png"" style=""width:200px;border:14px solid red;"">","null","","","","","",""
"","image-keyboard-response","269","92923","0.0-269.0","3WMINLGALCPR9WA92XUV9Z3PHPSAC3","A2TXZVXQU5FQZ9","3FW4EL5A3LANKRP91N782LFHPY722Q","","178.30000001192093","img/animal3.png","74","179.30000001192093","1","1","2","0.7,0,0.8,0.7,0.8,0,0.7,0.8,0",""
"","html-keyboard-response","270","93227","0.0-270.0","3WMINLGALCPR9WA92XUV9Z3PHPSAC3","A2TXZVXQU5FQZ9","3FW4EL5A3LANKRP91N782LFHPY722Q","","null","<img src=""img/animal3.png"" style=""width:200px; border:14px solid green;"">","null","","","","","",""
"","image-keyboard-response","271","93471","0.0-271.0","3WMINLGALCPR9WA92XUV9Z3PHPSAC3","A2TXZVXQU5FQZ9","3FW4EL5A3LANKRP91N782LFHPY722Q","","243.5","img/animal3.png","74","244.5","1","1","2","0.7,0,0.8,0.7,0.8,0,0.7,0.8,0",""
"","html-keyboard-response","272","93777","0.0-272.0","3WMINLGALCPR9WA92XUV9Z3PHPSAC3","A2TXZVXQU5FQZ9","3FW4EL5A3LANKRP91N782LFHPY722Q","","null","<img src=""img/animal3.png"" style=""width:200px; border:14px solid green;"">","null","","","","","",""
"","image-keyboard-response","273","94026","0.0-273.0","3WMINLGALCPR9WA92XUV9Z3PHPSAC3","A2TXZVXQU5FQZ9","3FW4EL5A3LANKRP91N782LFHPY722Q","","247.39999997615814","img/animal3.png","74","248.5","1","1","2","0.7,0,0.8,0.7,0.8,0,0.7,0.8,0",""
"","html-keyboard-response","274","94340","0.0-274.0","3WMINLGALCPR9WA92XUV9Z3PHPSAC3","A2TXZVXQU5FQZ9","3FW4EL5A3LANKRP91N782LFHPY722Q","","null","<img src=""img/animal3.png"" style=""width:200px; border:14px solid green;"">","null","","","","","",""
"","image-keyboard-response","275","94569","0.0-275.0","3WMINLGALCPR9WA92XUV9Z3PHPSAC3","A2TXZVXQU5FQZ9","3FW4EL5A3LANKRP91N782LFHPY722Q","","228.19999998807907","img/animal6.png","74","229.09999999403954","1","1","1","0.7,0,0.8,0.7,0.8,0,0.7,0.8,0",""
"","html-keyboard-response","276","94873","0.0-276.0","3WMINLGALCPR9WA92XUV9Z3PHPSAC3","A2TXZVXQU5FQZ9","3FW4EL5A3LANKRP91N782LFHPY722Q","","null","<img src=""img/animal6.png"" style=""width:200px; border:14px solid green;"">","null","","","","","",""
"","image-keyboard-response","277","95083","0.0-277.0","3WMINLGALCPR9WA92XUV9Z3PHPSAC3","A2TXZVXQU5FQZ9","3FW4EL5A3LANKRP91N782LFHPY722Q","","208.5","img/animal6.png","74","209.5","1","0","1","0.7,0,0.8,0.7,0.8,0,0.7,0.8,0",""
"","html-keyboard-response","278","95386","0.0-278.0","3WMINLGALCPR9WA92XUV9Z3PHPSAC3","A2TXZVXQU5FQZ9","3FW4EL5A3LANKRP91N782LFHPY722Q","","null","<img src=""img/animal6.png"" style=""width:200px;border:14px solid red;"">","null","","","","","",""
"","image-keyboard-response","279","95618","0.0-279.0","3WMINLGALCPR9WA92XUV9Z3PHPSAC3","A2TXZVXQU5FQZ9","3FW4EL5A3LANKRP91N782LFHPY722Q","","231.40000000596046","img/animal2.png","74","232.2999999821186","1","0","3","0.7,0,0.8,0.7,0.8,0,0.7,0.8,0",""
"","html-keyboard-response","280","95926","0.0-280.0","3WMINLGALCPR9WA92XUV9Z3PHPSAC3","A2TXZVXQU5FQZ9","3FW4EL5A3LANKRP91N782LFHPY722Q","","null","<img src=""img/animal2.png"" style=""width:200px;border:14px solid red;"">","null","","","","","",""
"","image-keyboard-response","281","96087","0.0-281.0","3WMINLGALCPR9WA92XUV9Z3PHPSAC3","A2TXZVXQU5FQZ9","3FW4EL5A3LANKRP91N782LFHPY722Q","","160.09999999403954","img/animal6.png","75","161.09999999403954","2","0","1","0.7,0,0.8,0.7,0.8,0,0.7,0.8,0",""
"","html-keyboard-response","282","96402","0.0-282.0","3WMINLGALCPR9WA92XUV9Z3PHPSAC3","A2TXZVXQU5FQZ9","3FW4EL5A3LANKRP91N782LFHPY722Q","","null","<img src=""img/animal6.png"" style=""width:200px;border:14px solid red;"">","null","","","","","",""
"","image-keyboard-response","283","96572","0.0-283.0","3WMINLGALCPR9WA92XUV9Z3PHPSAC3","A2TXZVXQU5FQZ9","3FW4EL5A3LANKRP91N782LFHPY722Q","","168","img/animal6.png","74","169.10000002384186","1","1","1","0.7,0,0.8,0.7,0.8,0,0.7,0.8,0",""
"","html-keyboard-response","284","96878","0.0-284.0","3WMINLGALCPR9WA92XUV9Z3PHPSAC3","A2TXZVXQU5FQZ9","3FW4EL5A3LANKRP91N782LFHPY722Q","","null","<img src=""img/animal6.png"" style=""width:200px; border:14px solid green;"">","null","","","","","",""
"","image-keyboard-response","285","97064","0.0-285.0","3WMINLGALCPR9WA92XUV9Z3PHPSAC3","A2TXZVXQU5FQZ9","3FW4EL5A3LANKRP91N782LFHPY722Q","","183.7000000178814","img/animal3.png","74","185.30000001192093","1","1","2","0.7,0,0.8,0.7,0.8,0,0.7,0.8,0",""
"","html-keyboard-response","286","97369","0.0-286.0","3WMINLGALCPR9WA92XUV9Z3PHPSAC3","A2TXZVXQU5FQZ9","3FW4EL5A3LANKRP91N782LFHPY722Q","","null","<img src=""img/animal3.png"" style=""width:200px; border:14px solid green;"">","null","","","","","",""
"","image-keyboard-response","287","97617","0.0-287.0","3WMINLGALCPR9WA92XUV9Z3PHPSAC3","A2TXZVXQU5FQZ9","3FW4EL5A3LANKRP91N782LFHPY722Q","","246.5","img/animal6.png","74","247.5","1","1","1","0.7,0,0.8,0.7,0.8,0,0.7,0.8,0",""
"","html-keyboard-response","288","97920","0.0-288.0","3WMINLGALCPR9WA92XUV9Z3PHPSAC3","A2TXZVXQU5FQZ9","3FW4EL5A3LANKRP91N782LFHPY722Q","","null","<img src=""img/animal6.png"" style=""width:200px; border:14px solid green;"">","null","","","","","",""
"","image-keyboard-response","289","98123","0.0-289.0","3WMINLGALCPR9WA92XUV9Z3PHPSAC3","A2TXZVXQU5FQZ9","3FW4EL5A3LANKRP91N782LFHPY722Q","","201.09999999403954","img/animal2.png","74","202.2000000178814","1","0","3","0.7,0,0.8,0.7,0.8,0,0.7,0.8,0",""
"","html-keyboard-response","290","98432","0.0-290.0","3WMINLGALCPR9WA92XUV9Z3PHPSAC3","A2TXZVXQU5FQZ9","3FW4EL5A3LANKRP91N782LFHPY722Q","","null","<img src=""img/animal2.png"" style=""width:200px;border:14px solid red;"">","null","","","","","",""
"","image-keyboard-response","291","98563","0.0-291.0","3WMINLGALCPR9WA92XUV9Z3PHPSAC3","A2TXZVXQU5FQZ9","3FW4EL5A3LANKRP91N782LFHPY722Q","","129.59999999403954","img/animal2.png","75","130.7999999821186","2","0","3","0.7,0,0.8,0.7,0.8,0,0.7,0.8,0",""
"","html-keyboard-response","292","98867","0.0-292.0","3WMINLGALCPR9WA92XUV9Z3PHPSAC3","A2TXZVXQU5FQZ9","3FW4EL5A3LANKRP91N782LFHPY722Q","","null","<img src=""img/animal2.png"" style=""width:200px;border:14px solid red;"">","null","","","","","",""
"","image-keyboard-response","293","99060","0.0-293.0","3WMINLGALCPR9WA92XUV9Z3PHPSAC3","A2TXZVXQU5FQZ9","3FW4EL5A3LANKRP91N782LFHPY722Q","","191.2000000178814","img/animal3.png","74","192.80000001192093","1","1","2","0.7,0,0.8,0.7,0.8,0,0.7,0.8,0",""
"","html-keyboard-response","294","99377","0.0-294.0","3WMINLGALCPR9WA92XUV9Z3PHPSAC3","A2TXZVXQU5FQZ9","3FW4EL5A3LANKRP91N782LFHPY722Q","","null","<img src=""img/animal3.png"" style=""width:200px; border:14px solid green;"">","null","","","","","",""
"","image-keyboard-response","295","99583","0.0-295.0","3WMINLGALCPR9WA92XUV9Z3PHPSAC3","A2TXZVXQU5FQZ9","3FW4EL5A3LANKRP91N782LFHPY722Q","","205","img/animal2.png","74","206.09999999403954","1","1","3","0.7,0,0.8,0.7,0.8,0,0.7,0.8,0",""
"","html-keyboard-response","296","99888","0.0-296.0","3WMINLGALCPR9WA92XUV9Z3PHPSAC3","A2TXZVXQU5FQZ9","3FW4EL5A3LANKRP91N782LFHPY722Q","","null","<img src=""img/animal2.png"" style=""width:200px; border:14px solid green;"">","null","","","","","",""
"","image-keyboard-response","297","100108","0.0-297.0","3WMINLGALCPR9WA92XUV9Z3PHPSAC3","A2TXZVXQU5FQZ9","3FW4EL5A3LANKRP91N782LFHPY722Q","","218.19999998807907","img/animal6.png","74","219.10000002384186","1","0","1","0.7,0,0.8,0.7,0.8,0,0.7,0.8,0",""
"","html-keyboard-response","298","100415","0.0-298.0","3WMINLGALCPR9WA92XUV9Z3PHPSAC3","A2TXZVXQU5FQZ9","3FW4EL5A3LANKRP91N782LFHPY722Q","","null","<img src=""img/animal6.png"" style=""width:200px;border:14px solid red;"">","null","","","","","",""
"","image-keyboard-response","299","100626","0.0-299.0","3WMINLGALCPR9WA92XUV9Z3PHPSAC3","A2TXZVXQU5FQZ9","3FW4EL5A3LANKRP91N782LFHPY722Q","","210","img/animal3.png","75","211.30000001192093","2","1","2","0.7,0,0.8,0.7,0.8,0,0.7,0.8,0",""
"","html-keyboard-response","300","100935","0.0-300.0","3WMINLGALCPR9WA92XUV9Z3PHPSAC3","A2TXZVXQU5FQZ9","3FW4EL5A3LANKRP91N782LFHPY722Q","","null","<img src=""img/animal3.png"" style=""width:200px; border:14px solid green;"">","null","","","","","",""
"","image-keyboard-response","301","101123","0.0-301.0","3WMINLGALCPR9WA92XUV9Z3PHPSAC3","A2TXZVXQU5FQZ9","3FW4EL5A3LANKRP91N782LFHPY722Q","","186.80000001192093","img/animal3.png","74","187.7000000178814","1","0","2","0.7,0,0.8,0.7,0.8,0,0.7,0.8,0",""
"","html-keyboard-response","302","101426","0.0-302.0","3WMINLGALCPR9WA92XUV9Z3PHPSAC3","A2TXZVXQU5FQZ9","3FW4EL5A3LANKRP91N782LFHPY722Q","","null","<img src=""img/animal3.png"" style=""width:200px;border:14px solid red;"">","null","","","","","",""
"","image-keyboard-response","303","101660","0.0-303.0","3WMINLGALCPR9WA92XUV9Z3PHPSAC3","A2TXZVXQU5FQZ9","3FW4EL5A3LANKRP91N782LFHPY722Q","","232.7000000178814","img/animal3.png","74","233.5","1","1","2","0.7,0,0.8,0.7,0.8,0,0.7,0.8,0",""
"","html-keyboard-response","304","101966","0.0-304.0","3WMINLGALCPR9WA92XUV9Z3PHPSAC3","A2TXZVXQU5FQZ9","3FW4EL5A3LANKRP91N782LFHPY722Q","","null","<img src=""img/animal3.png"" style=""width:200px; border:14px solid green;"">","null","","","","","",""
"","image-keyboard-response","305","102172","0.0-305.0","3WMINLGALCPR9WA92XUV9Z3PHPSAC3","A2TXZVXQU5FQZ9","3FW4EL5A3LANKRP91N782LFHPY722Q","","204.69999998807907","img/animal3.png","74","205.5","1","0","2","0.7,0,0.8,0.7,0.8,0,0.7,0.8,0",""
"","html-keyboard-response","306","102474","0.0-306.0","3WMINLGALCPR9WA92XUV9Z3PHPSAC3","A2TXZVXQU5FQZ9","3FW4EL5A3LANKRP91N782LFHPY722Q","","null","<img src=""img/animal3.png"" style=""width:200px;border:14px solid red;"">","null","","","","","",""
"","image-keyboard-response","307","102714","0.0-307.0","3WMINLGALCPR9WA92XUV9Z3PHPSAC3","A2TXZVXQU5FQZ9","3FW4EL5A3LANKRP91N782LFHPY722Q","","238.40000000596046","img/animal2.png","74","239.40000000596046","1","1","3","0.7,0,0.8,0.7,0.8,0,0.7,0.8,0",""
"","html-keyboard-response","308","103025","0.0-308.0","3WMINLGALCPR9WA92XUV9Z3PHPSAC3","A2TXZVXQU5FQZ9","3FW4EL5A3LANKRP91N782LFHPY722Q","","null","<img src=""img/animal2.png"" style=""width:200px; border:14px solid green;"">","null","","","","","",""
"","image-keyboard-response","309","103215","0.0-309.0","3WMINLGALCPR9WA92XUV9Z3PHPSAC3","A2TXZVXQU5FQZ9","3FW4EL5A3LANKRP91N782LFHPY722Q","","188.5","img/animal6.png","74","189.69999998807907","1","1","1","0.7,0,0.8,0.7,0.8,0,0.7,0.8,0",""
"","html-keyboard-response","310","103518","0.0-310.0","3WMINLGALCPR9WA92XUV9Z3PHPSAC3","A2TXZVXQU5FQZ9","3FW4EL5A3LANKRP91N782LFHPY722Q","","null","<img src=""img/animal6.png"" style=""width:200px; border:14px solid green;"">","null","","","","","",""
"","image-keyboard-response","311","103747","0.0-311.0","3WMINLGALCPR9WA92XUV9Z3PHPSAC3","A2TXZVXQU5FQZ9","3FW4EL5A3LANKRP91N782LFHPY722Q","","227.7000000178814","img/animal2.png","74","228.69999998807907","1","0","3","0.7,0,0.8,0.7,0.8,0,0.7,0.8,0",""
"","html-keyboard-response","312","104055","0.0-312.0","3WMINLGALCPR9WA92XUV9Z3PHPSAC3","A2TXZVXQU5FQZ9","3FW4EL5A3LANKRP91N782LFHPY722Q","","null","<img src=""img/animal2.png"" style=""width:200px;border:14px solid red;"">","null","","","","","",""
"","image-keyboard-response","313","104273","0.0-313.0","3WMINLGALCPR9WA92XUV9Z3PHPSAC3","A2TXZVXQU5FQZ9","3FW4EL5A3LANKRP91N782LFHPY722Q","","217.59999999403954","img/animal3.png","74","218.5","1","1","2","0.7,0,0.8,0.7,0.8,0,0.7,0.8,0",""
"","html-keyboard-response","314","104575","0.0-314.0","3WMINLGALCPR9WA92XUV9Z3PHPSAC3","A2TXZVXQU5FQZ9","3FW4EL5A3LANKRP91N782LFHPY722Q","","null","<img src=""img/animal3.png"" style=""width:200px; border:14px solid green;"">","null","","","","","",""
"","image-keyboard-response","315","104855","0.0-315.0","3WMINLGALCPR9WA92XUV9Z3PHPSAC3","A2TXZVXQU5FQZ9","3FW4EL5A3LANKRP91N782LFHPY722Q","","278.09999999403954","img/animal2.png","74","279.19999998807907","1","1","3","0.7,0,0.8,0.7,0.8,0,0.7,0.8,0",""
"","html-keyboard-response","316","105163","0.0-316.0","3WMINLGALCPR9WA92XUV9Z3PHPSAC3","A2TXZVXQU5FQZ9","3FW4EL5A3LANKRP91N782LFHPY722Q","","null","<img src=""img/animal2.png"" style=""width:200px; border:14px solid green;"">","null","","","","","",""
"","image-keyboard-response","317","105371","0.0-317.0","3WMINLGALCPR9WA92XUV9Z3PHPSAC3","A2TXZVXQU5FQZ9","3FW4EL5A3LANKRP91N782LFHPY722Q","","207.19999998807907","img/animal2.png","74","208.09999999403954","1","0","3","0.7,0,0.8,0.7,0.8,0,0.7,0.8,0",""
"","html-keyboard-response","318","105673","0.0-318.0","3WMINLGALCPR9WA92XUV9Z3PHPSAC3","A2TXZVXQU5FQZ9","3FW4EL5A3LANKRP91N782LFHPY722Q","","null","<img src=""img/animal2.png"" style=""width:200px;border:14px solid red;"">","null","","","","","",""
"","image-keyboard-response","319","105929","0.0-319.0","3WMINLGALCPR9WA92XUV9Z3PHPSAC3","A2TXZVXQU5FQZ9","3FW4EL5A3LANKRP91N782LFHPY722Q","","255","img/animal3.png","74","256.2000000178814","1","1","2","0.7,0,0.8,0.7,0.8,0,0.7,0.8,0",""
"","html-keyboard-response","320","106232","0.0-320.0","3WMINLGALCPR9WA92XUV9Z3PHPSAC3","A2TXZVXQU5FQZ9","3FW4EL5A3LANKRP91N782LFHPY722Q","","null","<img src=""img/animal3.png"" style=""width:200px; border:14px solid green;"">","null","","","","","",""
"","image-keyboard-response","321","106386","0.0-321.0","3WMINLGALCPR9WA92XUV9Z3PHPSAC3","A2TXZVXQU5FQZ9","3FW4EL5A3LANKRP91N782LFHPY722Q","","152.39999997615814","img/animal6.png","74","153.39999997615814","1","0","1","0.7,0,0.8,0.7,0.8,0,0.7,0.8,0",""
"","html-keyboard-response","322","106702","0.0-322.0","3WMINLGALCPR9WA92XUV9Z3PHPSAC3","A2TXZVXQU5FQZ9","3FW4EL5A3LANKRP91N782LFHPY722Q","","null","<img src=""img/animal6.png"" style=""width:200px;border:14px solid red;"">","null","","","","","",""
"","image-keyboard-response","323","107040","0.0-323.0","3WMINLGALCPR9WA92XUV9Z3PHPSAC3","A2TXZVXQU5FQZ9","3FW4EL5A3LANKRP91N782LFHPY722Q","","336.90000000596046","img/animal2.png","74","337.90000000596046","1","0","3","0.7,0,0.8,0.7,0.8,0,0.7,0.8,0",""
"","html-keyboard-response","324","107351","0.0-324.0","3WMINLGALCPR9WA92XUV9Z3PHPSAC3","A2TXZVXQU5FQZ9","3FW4EL5A3LANKRP91N782LFHPY722Q","","null","<img src=""img/animal2.png"" style=""width:200px;border:14px solid red;"">","null","","","","","",""
"","image-keyboard-response","325","107537","0.0-325.0","3WMINLGALCPR9WA92XUV9Z3PHPSAC3","A2TXZVXQU5FQZ9","3FW4EL5A3LANKRP91N782LFHPY722Q","","185.09999999403954","img/animal6.png","74","186","1","0","1","0.7,0,0.8,0.7,0.8,0,0.7,0.8,0",""
"","html-keyboard-response","326","107845","0.0-326.0","3WMINLGALCPR9WA92XUV9Z3PHPSAC3","A2TXZVXQU5FQZ9","3FW4EL5A3LANKRP91N782LFHPY722Q","","null","<img src=""img/animal6.png"" style=""width:200px;border:14px solid red;"">","null","","","","","",""
"","image-keyboard-response","327","107930","0.0-327.0","3WMINLGALCPR9WA92XUV9Z3PHPSAC3","A2TXZVXQU5FQZ9","3FW4EL5A3LANKRP91N782LFHPY722Q","","84.39999997615814","img/animal3.png","74","85.30000001192093","1","1","2","0.7,0,0.8,0.7,0.8,0,0.7,0.8,0",""
"","html-keyboard-response","328","108232","0.0-328.0","3WMINLGALCPR9WA92XUV9Z3PHPSAC3","A2TXZVXQU5FQZ9","3FW4EL5A3LANKRP91N782LFHPY722Q","","null","<img src=""img/animal3.png"" style=""width:200px; border:14px solid green;"">","null","","","","","",""
"","image-keyboard-response","329","108382","0.0-329.0","3WMINLGALCPR9WA92XUV9Z3PHPSAC3","A2TXZVXQU5FQZ9","3FW4EL5A3LANKRP91N782LFHPY722Q","","148.59999999403954","img/animal6.png","75","150.10000002384186","2","0","1","0.7,0,0.8,0.7,0.8,0,0.7,0.8,0",""
"","html-keyboard-response","330","108690","0.0-330.0","3WMINLGALCPR9WA92XUV9Z3PHPSAC3","A2TXZVXQU5FQZ9","3FW4EL5A3LANKRP91N782LFHPY722Q","","null","<img src=""img/animal6.png"" style=""width:200px;border:14px solid red;"">","null","","","","","",""
"","image-keyboard-response","331","108884","0.0-331.0","3WMINLGALCPR9WA92XUV9Z3PHPSAC3","A2TXZVXQU5FQZ9","3FW4EL5A3LANKRP91N782LFHPY722Q","","192.59999999403954","img/animal6.png","75","193.80000001192093","2","0","1","0.7,0,0.8,0.7,0.8,0,0.7,0.8,0",""
"","html-keyboard-response","332","109193","0.0-332.0","3WMINLGALCPR9WA92XUV9Z3PHPSAC3","A2TXZVXQU5FQZ9","3FW4EL5A3LANKRP91N782LFHPY722Q","","null","<img src=""img/animal6.png"" style=""width:200px;border:14px solid red;"">","null","","","","","",""
"","image-keyboard-response","333","109659","0.0-333.0","3WMINLGALCPR9WA92XUV9Z3PHPSAC3","A2TXZVXQU5FQZ9","3FW4EL5A3LANKRP91N782LFHPY722Q","","464.80000001192093","img/animal6.png","76","465.69999998807907","3","1","1","0.7,0,0.8,0.7,0.8,0,0.7,0.8,0",""
"","html-keyboard-response","334","109965","0.0-334.0","3WMINLGALCPR9WA92XUV9Z3PHPSAC3","A2TXZVXQU5FQZ9","3FW4EL5A3LANKRP91N782LFHPY722Q","","null","<img src=""img/animal6.png"" style=""width:200px; border:14px solid green;"">","null","","","","","",""
"","image-keyboard-response","335","110157","0.0-335.0","3WMINLGALCPR9WA92XUV9Z3PHPSAC3","A2TXZVXQU5FQZ9","3FW4EL5A3LANKRP91N782LFHPY722Q","","190.90000000596046","img/animal6.png","76","191.80000001192093","3","1","1","0.7,0,0.8,0.7,0.8,0,0.7,0.8,0",""
"","html-keyboard-response","336","110459","0.0-336.0","3WMINLGALCPR9WA92XUV9Z3PHPSAC3","A2TXZVXQU5FQZ9","3FW4EL5A3LANKRP91N782LFHPY722Q","","null","<img src=""img/animal6.png"" style=""width:200px; border:14px solid green;"">","null","","","","","",""
"","image-keyboard-response","337","110710","0.0-337.0","3WMINLGALCPR9WA92XUV9Z3PHPSAC3","A2TXZVXQU5FQZ9","3FW4EL5A3LANKRP91N782LFHPY722Q","","249","img/animal3.png","76","250.09999999403954","3","0","2","0.7,0,0.8,0.7,0.8,0,0.7,0.8,0",""
"","html-keyboard-response","338","111018","0.0-338.0","3WMINLGALCPR9WA92XUV9Z3PHPSAC3","A2TXZVXQU5FQZ9","3FW4EL5A3LANKRP91N782LFHPY722Q","","null","<img src=""img/animal3.png"" style=""width:200px;border:14px solid red;"">","null","","","","","",""
"","image-keyboard-response","339","111156","0.0-339.0","3WMINLGALCPR9WA92XUV9Z3PHPSAC3","A2TXZVXQU5FQZ9","3FW4EL5A3LANKRP91N782LFHPY722Q","","136.30000001192093","img/animal6.png","74","137.69999998807907","1","1","1","0.7,0,0.8,0.7,0.8,0,0.7,0.8,0",""
"","html-keyboard-response","340","111459","0.0-340.0","3WMINLGALCPR9WA92XUV9Z3PHPSAC3","A2TXZVXQU5FQZ9","3FW4EL5A3LANKRP91N782LFHPY722Q","","null","<img src=""img/animal6.png"" style=""width:200px; border:14px solid green;"">","null","","","","","",""
"","image-keyboard-response","341","111724","0.0-341.0","3WMINLGALCPR9WA92XUV9Z3PHPSAC3","A2TXZVXQU5FQZ9","3FW4EL5A3LANKRP91N782LFHPY722Q","","264.2999999821186","img/animal3.png","74","265.2999999821186","1","0","2","0.7,0,0.8,0.7,0.8,0,0.7,0.8,0",""
"","html-keyboard-response","342","112027","0.0-342.0","3WMINLGALCPR9WA92XUV9Z3PHPSAC3","A2TXZVXQU5FQZ9","3FW4EL5A3LANKRP91N782LFHPY722Q","","null","<img src=""img/animal3.png"" style=""width:200px;border:14px solid red;"">","null","","","","","",""
"","image-keyboard-response","343","112278","0.0-343.0","3WMINLGALCPR9WA92XUV9Z3PHPSAC3","A2TXZVXQU5FQZ9","3FW4EL5A3LANKRP91N782LFHPY722Q","","249.69999998807907","img/animal2.png","74","251.10000002384186","1","1","3","0.7,0,0.8,0.7,0.8,0,0.7,0.8,0",""
"","html-keyboard-response","344","112580","0.0-344.0","3WMINLGALCPR9WA92XUV9Z3PHPSAC3","A2TXZVXQU5FQZ9","3FW4EL5A3LANKRP91N782LFHPY722Q","","null","<img src=""img/animal2.png"" style=""width:200px; border:14px solid green;"">","null","","","","","",""
"","image-keyboard-response","345","112825","0.0-345.0","3WMINLGALCPR9WA92XUV9Z3PHPSAC3","A2TXZVXQU5FQZ9","3FW4EL5A3LANKRP91N782LFHPY722Q","","242.89999997615814","img/animal6.png","75","244","2","0","1","0.7,0,0.8,0.7,0.8,0,0.7,0.8,0",""
"","html-keyboard-response","346","113127","0.0-346.0","3WMINLGALCPR9WA92XUV9Z3PHPSAC3","A2TXZVXQU5FQZ9","3FW4EL5A3LANKRP91N782LFHPY722Q","","null","<img src=""img/animal6.png"" style=""width:200px;border:14px solid red;"">","null","","","","","",""
"","image-keyboard-response","347","113352","0.0-347.0","3WMINLGALCPR9WA92XUV9Z3PHPSAC3","A2TXZVXQU5FQZ9","3FW4EL5A3LANKRP91N782LFHPY722Q","","223.59999999403954","img/animal2.png","74","225","1","0","3","0.7,0,0.8,0.7,0.8,0,0.7,0.8,0",""
"","html-keyboard-response","348","113658","0.0-348.0","3WMINLGALCPR9WA92XUV9Z3PHPSAC3","A2TXZVXQU5FQZ9","3FW4EL5A3LANKRP91N782LFHPY722Q","","null","<img src=""img/animal2.png"" style=""width:200px;border:14px solid red;"">","null","","","","","",""
"","image-keyboard-response","349","113879","0.0-349.0","3WMINLGALCPR9WA92XUV9Z3PHPSAC3","A2TXZVXQU5FQZ9","3FW4EL5A3LANKRP91N782LFHPY722Q","","220.09999999403954","img/animal2.png","74","221.5","1","1","3","0.7,0,0.8,0.7,0.8,0,0.7,0.8,0",""
"","html-keyboard-response","350","114183","0.0-350.0","3WMINLGALCPR9WA92XUV9Z3PHPSAC3","A2TXZVXQU5FQZ9","3FW4EL5A3LANKRP91N782LFHPY722Q","","null","<img src=""img/animal2.png"" style=""width:200px; border:14px solid green;"">","null","","","","","",""
"","image-keyboard-response","351","114405","0.0-351.0","3WMINLGALCPR9WA92XUV9Z3PHPSAC3","A2TXZVXQU5FQZ9","3FW4EL5A3LANKRP91N782LFHPY722Q","","220.2999999821186","img/animal6.png","75","221.59999999403954","2","0","1","0.7,0,0.8,0.7,0.8,0,0.7,0.8,0",""
"","html-keyboard-response","352","114713","0.0-352.0","3WMINLGALCPR9WA92XUV9Z3PHPSAC3","A2TXZVXQU5FQZ9","3FW4EL5A3LANKRP91N782LFHPY722Q","","null","<img src=""img/animal6.png"" style=""width:200px;border:14px solid red;"">","null","","","","","",""
"","image-keyboard-response","353","114909","0.0-353.0","3WMINLGALCPR9WA92XUV9Z3PHPSAC3","A2TXZVXQU5FQZ9","3FW4EL5A3LANKRP91N782LFHPY722Q","","194.40000000596046","img/animal6.png","74","195.7000000178814","1","1","1","0.7,0,0.8,0.7,0.8,0,0.7,0.8,0",""
"","html-keyboard-response","354","115214","0.0-354.0","3WMINLGALCPR9WA92XUV9Z3PHPSAC3","A2TXZVXQU5FQZ9","3FW4EL5A3LANKRP91N782LFHPY722Q","","null","<img src=""img/animal6.png"" style=""width:200px; border:14px solid green;"">","null","","","","","",""
"","image-keyboard-response","355","115455","0.0-355.0","3WMINLGALCPR9WA92XUV9Z3PHPSAC3","A2TXZVXQU5FQZ9","3FW4EL5A3LANKRP91N782LFHPY722Q","","240.40000000596046","img/animal6.png","74","241.59999999403954","1","1","1","0.7,0,0.8,0.7,0.8,0,0.7,0.8,0",""
"","html-keyboard-response","356","115762","0.0-356.0","3WMINLGALCPR9WA92XUV9Z3PHPSAC3","A2TXZVXQU5FQZ9","3FW4EL5A3LANKRP91N782LFHPY722Q","","null","<img src=""img/animal6.png"" style=""width:200px; border:14px solid green;"">","null","","","","","",""
"","image-keyboard-response","357","116014","0.0-357.0","3WMINLGALCPR9WA92XUV9Z3PHPSAC3","A2TXZVXQU5FQZ9","3FW4EL5A3LANKRP91N782LFHPY722Q","","251.19999998807907","img/animal2.png","74","252.19999998807907","1","1","3","0.7,0,0.8,0.7,0.8,0,0.7,0.8,0",""
"","html-keyboard-response","358","116320","0.0-358.0","3WMINLGALCPR9WA92XUV9Z3PHPSAC3","A2TXZVXQU5FQZ9","3FW4EL5A3LANKRP91N782LFHPY722Q","","null","<img src=""img/animal2.png"" style=""width:200px; border:14px solid green;"">","null","","","","","",""
"","image-keyboard-response","359","116527","0.0-359.0","3WMINLGALCPR9WA92XUV9Z3PHPSAC3","A2TXZVXQU5FQZ9","3FW4EL5A3LANKRP91N782LFHPY722Q","","206.59999999403954","img/animal2.png","74","207.5","1","1","3","0.7,0,0.8,0.7,0.8,0,0.7,0.8,0",""
"","html-keyboard-response","360","116837","0.0-360.0","3WMINLGALCPR9WA92XUV9Z3PHPSAC3","A2TXZVXQU5FQZ9","3FW4EL5A3LANKRP91N782LFHPY722Q","","null","<img src=""img/animal2.png"" style=""width:200px; border:14px solid green;"">","null","","","","","",""
"","image-keyboard-response","361","117051","0.0-361.0","3WMINLGALCPR9WA92XUV9Z3PHPSAC3","A2TXZVXQU5FQZ9","3FW4EL5A3LANKRP91N782LFHPY722Q","","212.90000000596046","img/animal3.png","74","213.89999997615814","1","1","2","0.7,0,0.8,0.7,0.8,0,0.7,0.8,0",""
"","html-keyboard-response","362","117359","0.0-362.0","3WMINLGALCPR9WA92XUV9Z3PHPSAC3","A2TXZVXQU5FQZ9","3FW4EL5A3LANKRP91N782LFHPY722Q","","null","<img src=""img/animal3.png"" style=""width:200px; border:14px solid green;"">","null","","","","","",""
"","instructions","363","122140","0.0-363.0","3WMINLGALCPR9WA92XUV9Z3PHPSAC3","A2TXZVXQU5FQZ9","3FW4EL5A3LANKRP91N782LFHPY722Q","[{""page_index"":0,""viewing_time"":4779.4000000059605}]","4779.9000000059605","","","","","","","",""
"","survey-text","364","125919","0.0-364.0","3WMINLGALCPR9WA92XUV9Z3PHPSAC3","A2TXZVXQU5FQZ9","3FW4EL5A3LANKRP91N782LFHPY722Q","","3776.300000011921","","","","","","","","{""Q0"":""A2TXZVXQU5FQZ9""}"
