"success","trial_type","trial_index","time_elapsed","internal_node_id","assignmentID","mturkID","hitID","view_history","rt","stimulus","key_press","reactionTime","chosenAction","reward","responses"
"true","fullscreen","0","2761","0.0-0.0","3ZWFC4W1UVTQBPG0VA6ICVD2E4ORFF","A2V6E7SGEU0EFD","3LN3BXKGC0HZB1VNEMH4SWP73O3GW1","","","","","","","",""
"","instructions","1","298187","0.0-1.0","3ZWFC4W1UVTQBPG0VA6ICVD2E4ORFF","A2V6E7SGEU0EFD","3LN3BXKGC0HZB1VNEMH4SWP73O3GW1","[{""page_index"":0,""viewing_time"":5722.79999999702},{""page_index"":1,""viewing_time"":4049.7999999970198},{""page_index"":2,""viewing_time"":1780},{""page_index"":3,""viewing_time"":1817},{""page_index"":4,""viewing_time"":1757.3000000044703},{""page_index"":5,""viewing_time"":70845.10000000149},{""page_index"":6,""viewing_time"":47444.39999999851},{""page_index"":7,""viewing_time"":162007.6000000015}]","295424.69999999553","","","","","",""
"","image-keyboard-response","2","300353","0.0-2.0","3ZWFC4W1UVTQBPG0VA6ICVD2E4ORFF","A2V6E7SGEU0EFD","3LN3BXKGC0HZB1VNEMH4SWP73O3GW1","","2163.5","img/animal4.png","75","2165.2000000029802","75","1",""
"","html-keyboard-response","3","300656","0.0-3.0","3ZWFC4W1UVTQBPG0VA6ICVD2E4ORFF","A2V6E7SGEU0EFD","3LN3BXKGC0HZB1VNEMH4SWP73O3GW1","","null","<img src=""img/animal4.png"" style=""width:200px; border:14px solid green;"">","null","","","",""
"","image-keyboard-response","4","301270","0.0-4.0","3ZWFC4W1UVTQBPG0VA6ICVD2E4ORFF","A2V6E7SGEU0EFD","3LN3BXKGC0HZB1VNEMH4SWP73O3GW1","","612.1000000014901","img/animal1.png","76","613.8000000044703","76","1",""
"","html-keyboard-response","5","301578","0.0-5.0","3ZWFC4W1UVTQBPG0VA6ICVD2E4ORFF","A2V6E7SGEU0EFD","3LN3BXKGC0HZB1VNEMH4SWP73O3GW1","","null","<img src=""img/animal1.png"" style=""width:200px; border:14px solid green;"">","null","","","",""
"","image-keyboard-response","6","302189","0.0-6.0","3ZWFC4W1UVTQBPG0VA6ICVD2E4ORFF","A2V6E7SGEU0EFD","3LN3BXKGC0HZB1VNEMH4SWP73O3GW1","","609.3999999985099","img/animal4.png","75","610.6000000014901","75","1",""
"","html-keyboard-response","7","302491","0.0-7.0","3ZWFC4W1UVTQBPG0VA6ICVD2E4ORFF","A2V6E7SGEU0EFD","3LN3BXKGC0HZB1VNEMH4SWP73O3GW1","","null","<img src=""img/animal4.png"" style=""width:200px; border:14px solid green;"">","null","","","",""
"","image-keyboard-response","8","302935","0.0-8.0","3ZWFC4W1UVTQBPG0VA6ICVD2E4ORFF","A2V6E7SGEU0EFD","3LN3BXKGC0HZB1VNEMH4SWP73O3GW1","","441.8999999985099","img/animal4.png","75","443.19999999552965","75","1",""
"","html-keyboard-response","9","303236","0.0-9.0","3ZWFC4W1UVTQBPG0VA6ICVD2E4ORFF","A2V6E7SGEU0EFD","3LN3BXKGC0HZB1VNEMH4SWP73O3GW1","","null","<img src=""img/animal4.png"" style=""width:200px; border:14px solid green;"">","null","","","",""
"","image-keyboard-response","10","303538","0.0-10.0","3ZWFC4W1UVTQBPG0VA6ICVD2E4ORFF","A2V6E7SGEU0EFD","3LN3BXKGC0HZB1VNEMH4SWP73O3GW1","","301.20000000298023","img/animal4.png","75","302.1000000014901","75","0",""
"","html-keyboard-response","11","303840","0.0-11.0","3ZWFC4W1UVTQBPG0VA6ICVD2E4ORFF","A2V6E7SGEU0EFD","3LN3BXKGC0HZB1VNEMH4SWP73O3GW1","","null","<img src=""img/animal4.png"" style=""width:200px;border:14px solid red;"">","null","","","",""
"","image-keyboard-response","12","304224","0.0-12.0","3ZWFC4W1UVTQBPG0VA6ICVD2E4ORFF","A2V6E7SGEU0EFD","3LN3BXKGC0HZB1VNEMH4SWP73O3GW1","","383.5","img/animal4.png","74","384.19999999552965","74","0",""
"","html-keyboard-response","13","304526","0.0-13.0","3ZWFC4W1UVTQBPG0VA6ICVD2E4ORFF","A2V6E7SGEU0EFD","3LN3BXKGC0HZB1VNEMH4SWP73O3GW1","","null","<img src=""img/animal4.png"" style=""width:200px;border:14px solid red;"">","null","","","",""
"","image-keyboard-response","14","305090","0.0-14.0","3ZWFC4W1UVTQBPG0VA6ICVD2E4ORFF","A2V6E7SGEU0EFD","3LN3BXKGC0HZB1VNEMH4SWP73O3GW1","","563.1000000014901","img/animal1.png","75","563.8999999985099","75","0",""
"","html-keyboard-response","15","305392","0.0-15.0","3ZWFC4W1UVTQBPG0VA6ICVD2E4ORFF","A2V6E7SGEU0EFD","3LN3BXKGC0HZB1VNEMH4SWP73O3GW1","","null","<img src=""img/animal1.png"" style=""width:200px;border:14px solid red;"">","null","","","",""
"","image-keyboard-response","16","306071","0.0-16.0","3ZWFC4W1UVTQBPG0VA6ICVD2E4ORFF","A2V6E7SGEU0EFD","3LN3BXKGC0HZB1VNEMH4SWP73O3GW1","","677.8999999985099","img/animal3.png","75","678.7000000029802","75","1",""
"","html-keyboard-response","17","306372","0.0-17.0","3ZWFC4W1UVTQBPG0VA6ICVD2E4ORFF","A2V6E7SGEU0EFD","3LN3BXKGC0HZB1VNEMH4SWP73O3GW1","","null","<img src=""img/animal3.png"" style=""width:200px; border:14px solid green;"">","null","","","",""
"","image-keyboard-response","18","306928","0.0-18.0","3ZWFC4W1UVTQBPG0VA6ICVD2E4ORFF","A2V6E7SGEU0EFD","3LN3BXKGC0HZB1VNEMH4SWP73O3GW1","","555.3999999985099","img/animal1.png","76","556.3999999985099","76","1",""
"","html-keyboard-response","19","307229","0.0-19.0","3ZWFC4W1UVTQBPG0VA6ICVD2E4ORFF","A2V6E7SGEU0EFD","3LN3BXKGC0HZB1VNEMH4SWP73O3GW1","","null","<img src=""img/animal1.png"" style=""width:200px; border:14px solid green;"">","null","","","",""
"","image-keyboard-response","20","307783","0.0-20.0","3ZWFC4W1UVTQBPG0VA6ICVD2E4ORFF","A2V6E7SGEU0EFD","3LN3BXKGC0HZB1VNEMH4SWP73O3GW1","","552.8000000044703","img/animal3.png","75","553.3999999985099","75","1",""
"","html-keyboard-response","21","308084","0.0-21.0","3ZWFC4W1UVTQBPG0VA6ICVD2E4ORFF","A2V6E7SGEU0EFD","3LN3BXKGC0HZB1VNEMH4SWP73O3GW1","","null","<img src=""img/animal3.png"" style=""width:200px; border:14px solid green;"">","null","","","",""
"","image-keyboard-response","22","308587","0.0-22.0","3ZWFC4W1UVTQBPG0VA6ICVD2E4ORFF","A2V6E7SGEU0EFD","3LN3BXKGC0HZB1VNEMH4SWP73O3GW1","","500.59999999403954","img/animal4.png","76","502","76","0",""
"","html-keyboard-response","23","308888","0.0-23.0","3ZWFC4W1UVTQBPG0VA6ICVD2E4ORFF","A2V6E7SGEU0EFD","3LN3BXKGC0HZB1VNEMH4SWP73O3GW1","","null","<img src=""img/animal4.png"" style=""width:200px;border:14px solid red;"">","null","","","",""
"","image-keyboard-response","24","309243","0.0-24.0","3ZWFC4W1UVTQBPG0VA6ICVD2E4ORFF","A2V6E7SGEU0EFD","3LN3BXKGC0HZB1VNEMH4SWP73O3GW1","","354","img/animal4.png","75","354.80000000447035","75","1",""
"","html-keyboard-response","25","309545","0.0-25.0","3ZWFC4W1UVTQBPG0VA6ICVD2E4ORFF","A2V6E7SGEU0EFD","3LN3BXKGC0HZB1VNEMH4SWP73O3GW1","","null","<img src=""img/animal4.png"" style=""width:200px; border:14px solid green;"">","null","","","",""
"","image-keyboard-response","26","310613","0.0-26.0","3ZWFC4W1UVTQBPG0VA6ICVD2E4ORFF","A2V6E7SGEU0EFD","3LN3BXKGC0HZB1VNEMH4SWP73O3GW1","","1067.2999999970198","img/animal3.png","75","1068","75","1",""
"","html-keyboard-response","27","310914","0.0-27.0","3ZWFC4W1UVTQBPG0VA6ICVD2E4ORFF","A2V6E7SGEU0EFD","3LN3BXKGC0HZB1VNEMH4SWP73O3GW1","","null","<img src=""img/animal3.png"" style=""width:200px; border:14px solid green;"">","null","","","",""
"","image-keyboard-response","28","311240","0.0-28.0","3ZWFC4W1UVTQBPG0VA6ICVD2E4ORFF","A2V6E7SGEU0EFD","3LN3BXKGC0HZB1VNEMH4SWP73O3GW1","","324.79999999701977","img/animal3.png","75","325.69999999552965","75","0",""
"","html-keyboard-response","29","311542","0.0-29.0","3ZWFC4W1UVTQBPG0VA6ICVD2E4ORFF","A2V6E7SGEU0EFD","3LN3BXKGC0HZB1VNEMH4SWP73O3GW1","","null","<img src=""img/animal3.png"" style=""width:200px;border:14px solid red;"">","null","","","",""
"","image-keyboard-response","30","312385","0.0-30.0","3ZWFC4W1UVTQBPG0VA6ICVD2E4ORFF","A2V6E7SGEU0EFD","3LN3BXKGC0HZB1VNEMH4SWP73O3GW1","","841.5","img/animal1.png","76","842.3000000044703","76","1",""
"","html-keyboard-response","31","312686","0.0-31.0","3ZWFC4W1UVTQBPG0VA6ICVD2E4ORFF","A2V6E7SGEU0EFD","3LN3BXKGC0HZB1VNEMH4SWP73O3GW1","","null","<img src=""img/animal1.png"" style=""width:200px; border:14px solid green;"">","null","","","",""
"","image-keyboard-response","32","313376","0.0-32.0","3ZWFC4W1UVTQBPG0VA6ICVD2E4ORFF","A2V6E7SGEU0EFD","3LN3BXKGC0HZB1VNEMH4SWP73O3GW1","","689.5","img/animal3.png","75","690.4000000059605","75","1",""
"","html-keyboard-response","33","313678","0.0-33.0","3ZWFC4W1UVTQBPG0VA6ICVD2E4ORFF","A2V6E7SGEU0EFD","3LN3BXKGC0HZB1VNEMH4SWP73O3GW1","","null","<img src=""img/animal3.png"" style=""width:200px; border:14px solid green;"">","null","","","",""
"","image-keyboard-response","34","314380","0.0-34.0","3ZWFC4W1UVTQBPG0VA6ICVD2E4ORFF","A2V6E7SGEU0EFD","3LN3BXKGC0HZB1VNEMH4SWP73O3GW1","","701.6000000014901","img/animal4.png","75","702.4000000059605","75","0",""
"","html-keyboard-response","35","314682","0.0-35.0","3ZWFC4W1UVTQBPG0VA6ICVD2E4ORFF","A2V6E7SGEU0EFD","3LN3BXKGC0HZB1VNEMH4SWP73O3GW1","","null","<img src=""img/animal4.png"" style=""width:200px;border:14px solid red;"">","null","","","",""
"","image-keyboard-response","36","315453","0.0-36.0","3ZWFC4W1UVTQBPG0VA6ICVD2E4ORFF","A2V6E7SGEU0EFD","3LN3BXKGC0HZB1VNEMH4SWP73O3GW1","","770","img/animal3.png","74","771.3000000044703","74","1",""
"","html-keyboard-response","37","315754","0.0-37.0","3ZWFC4W1UVTQBPG0VA6ICVD2E4ORFF","A2V6E7SGEU0EFD","3LN3BXKGC0HZB1VNEMH4SWP73O3GW1","","null","<img src=""img/animal3.png"" style=""width:200px; border:14px solid green;"">","null","","","",""
"","image-keyboard-response","38","316489","0.0-38.0","3ZWFC4W1UVTQBPG0VA6ICVD2E4ORFF","A2V6E7SGEU0EFD","3LN3BXKGC0HZB1VNEMH4SWP73O3GW1","","734.5","img/animal1.png","76","735.1000000014901","76","0",""
"","html-keyboard-response","39","316790","0.0-39.0","3ZWFC4W1UVTQBPG0VA6ICVD2E4ORFF","A2V6E7SGEU0EFD","3LN3BXKGC0HZB1VNEMH4SWP73O3GW1","","null","<img src=""img/animal1.png"" style=""width:200px;border:14px solid red;"">","null","","","",""
"","image-keyboard-response","40","317170","0.0-40.0","3ZWFC4W1UVTQBPG0VA6ICVD2E4ORFF","A2V6E7SGEU0EFD","3LN3BXKGC0HZB1VNEMH4SWP73O3GW1","","378.80000000447035","img/animal1.png","75","380.1000000014901","75","0",""
"","html-keyboard-response","41","317472","0.0-41.0","3ZWFC4W1UVTQBPG0VA6ICVD2E4ORFF","A2V6E7SGEU0EFD","3LN3BXKGC0HZB1VNEMH4SWP73O3GW1","","null","<img src=""img/animal1.png"" style=""width:200px;border:14px solid red;"">","null","","","",""
"","image-keyboard-response","42","318473","0.0-42.0","3ZWFC4W1UVTQBPG0VA6ICVD2E4ORFF","A2V6E7SGEU0EFD","3LN3BXKGC0HZB1VNEMH4SWP73O3GW1","","1000.2000000029802","img/animal3.png","75","1001.0999999940395","75","1",""
"","html-keyboard-response","43","318774","0.0-43.0","3ZWFC4W1UVTQBPG0VA6ICVD2E4ORFF","A2V6E7SGEU0EFD","3LN3BXKGC0HZB1VNEMH4SWP73O3GW1","","null","<img src=""img/animal3.png"" style=""width:200px; border:14px solid green;"">","null","","","",""
"","image-keyboard-response","44","319512","0.0-44.0","3ZWFC4W1UVTQBPG0VA6ICVD2E4ORFF","A2V6E7SGEU0EFD","3LN3BXKGC0HZB1VNEMH4SWP73O3GW1","","736.2000000029802","img/animal4.png","74","737.5","74","1",""
"","html-keyboard-response","45","319814","0.0-45.0","3ZWFC4W1UVTQBPG0VA6ICVD2E4ORFF","A2V6E7SGEU0EFD","3LN3BXKGC0HZB1VNEMH4SWP73O3GW1","","null","<img src=""img/animal4.png"" style=""width:200px; border:14px solid green;"">","null","","","",""
"","image-keyboard-response","46","320622","0.0-46.0","3ZWFC4W1UVTQBPG0VA6ICVD2E4ORFF","A2V6E7SGEU0EFD","3LN3BXKGC0HZB1VNEMH4SWP73O3GW1","","806.8999999985099","img/animal3.png","75","807.6000000014901","75","1",""
"","html-keyboard-response","47","320923","0.0-47.0","3ZWFC4W1UVTQBPG0VA6ICVD2E4ORFF","A2V6E7SGEU0EFD","3LN3BXKGC0HZB1VNEMH4SWP73O3GW1","","null","<img src=""img/animal3.png"" style=""width:200px; border:14px solid green;"">","null","","","",""
"","image-keyboard-response","48","321333","0.0-48.0","3ZWFC4W1UVTQBPG0VA6ICVD2E4ORFF","A2V6E7SGEU0EFD","3LN3BXKGC0HZB1VNEMH4SWP73O3GW1","","408.69999999552965","img/animal3.png","75","409.5","75","0",""
"","html-keyboard-response","49","321634","0.0-49.0","3ZWFC4W1UVTQBPG0VA6ICVD2E4ORFF","A2V6E7SGEU0EFD","3LN3BXKGC0HZB1VNEMH4SWP73O3GW1","","null","<img src=""img/animal3.png"" style=""width:200px;border:14px solid red;"">","null","","","",""
"","image-keyboard-response","50","322173","0.0-50.0","3ZWFC4W1UVTQBPG0VA6ICVD2E4ORFF","A2V6E7SGEU0EFD","3LN3BXKGC0HZB1VNEMH4SWP73O3GW1","","538.1000000014901","img/animal4.png","74","538.7999999970198","74","0",""
"","html-keyboard-response","51","322475","0.0-51.0","3ZWFC4W1UVTQBPG0VA6ICVD2E4ORFF","A2V6E7SGEU0EFD","3LN3BXKGC0HZB1VNEMH4SWP73O3GW1","","null","<img src=""img/animal4.png"" style=""width:200px;border:14px solid red;"">","null","","","",""
"","image-keyboard-response","52","323221","0.0-52.0","3ZWFC4W1UVTQBPG0VA6ICVD2E4ORFF","A2V6E7SGEU0EFD","3LN3BXKGC0HZB1VNEMH4SWP73O3GW1","","746","img/animal3.png","74","746.8999999985099","74","1",""
"","html-keyboard-response","53","323523","0.0-53.0","3ZWFC4W1UVTQBPG0VA6ICVD2E4ORFF","A2V6E7SGEU0EFD","3LN3BXKGC0HZB1VNEMH4SWP73O3GW1","","null","<img src=""img/animal3.png"" style=""width:200px; border:14px solid green;"">","null","","","",""
"","image-keyboard-response","54","323908","0.0-54.0","3ZWFC4W1UVTQBPG0VA6ICVD2E4ORFF","A2V6E7SGEU0EFD","3LN3BXKGC0HZB1VNEMH4SWP73O3GW1","","384.29999999701977","img/animal3.png","74","385.1000000014901","74","1",""
"","html-keyboard-response","55","324210","0.0-55.0","3ZWFC4W1UVTQBPG0VA6ICVD2E4ORFF","A2V6E7SGEU0EFD","3LN3BXKGC0HZB1VNEMH4SWP73O3GW1","","null","<img src=""img/animal3.png"" style=""width:200px; border:14px solid green;"">","null","","","",""
"","image-keyboard-response","56","324967","0.0-56.0","3ZWFC4W1UVTQBPG0VA6ICVD2E4ORFF","A2V6E7SGEU0EFD","3LN3BXKGC0HZB1VNEMH4SWP73O3GW1","","755.8000000044703","img/animal1.png","76","756.5","76","1",""
"","html-keyboard-response","57","325268","0.0-57.0","3ZWFC4W1UVTQBPG0VA6ICVD2E4ORFF","A2V6E7SGEU0EFD","3LN3BXKGC0HZB1VNEMH4SWP73O3GW1","","null","<img src=""img/animal1.png"" style=""width:200px; border:14px solid green;"">","null","","","",""
"","image-keyboard-response","58","326086","0.0-58.0","3ZWFC4W1UVTQBPG0VA6ICVD2E4ORFF","A2V6E7SGEU0EFD","3LN3BXKGC0HZB1VNEMH4SWP73O3GW1","","816.3999999985099","img/animal4.png","75","817.2000000029802","75","1",""
"","html-keyboard-response","59","326388","0.0-59.0","3ZWFC4W1UVTQBPG0VA6ICVD2E4ORFF","A2V6E7SGEU0EFD","3LN3BXKGC0HZB1VNEMH4SWP73O3GW1","","null","<img src=""img/animal4.png"" style=""width:200px; border:14px solid green;"">","null","","","",""
"","image-keyboard-response","60","326743","0.0-60.0","3ZWFC4W1UVTQBPG0VA6ICVD2E4ORFF","A2V6E7SGEU0EFD","3LN3BXKGC0HZB1VNEMH4SWP73O3GW1","","354.30000000447035","img/animal4.png","75","355.1000000014901","75","0",""
"","html-keyboard-response","61","327044","0.0-61.0","3ZWFC4W1UVTQBPG0VA6ICVD2E4ORFF","A2V6E7SGEU0EFD","3LN3BXKGC0HZB1VNEMH4SWP73O3GW1","","null","<img src=""img/animal4.png"" style=""width:200px;border:14px solid red;"">","null","","","",""
"","image-keyboard-response","62","327682","0.0-62.0","3ZWFC4W1UVTQBPG0VA6ICVD2E4ORFF","A2V6E7SGEU0EFD","3LN3BXKGC0HZB1VNEMH4SWP73O3GW1","","636.9000000059605","img/animal3.png","74","637.6000000014901","74","1",""
"","html-keyboard-response","63","327984","0.0-63.0","3ZWFC4W1UVTQBPG0VA6ICVD2E4ORFF","A2V6E7SGEU0EFD","3LN3BXKGC0HZB1VNEMH4SWP73O3GW1","","null","<img src=""img/animal3.png"" style=""width:200px; border:14px solid green;"">","null","","","",""
"","image-keyboard-response","64","328704","0.0-64.0","3ZWFC4W1UVTQBPG0VA6ICVD2E4ORFF","A2V6E7SGEU0EFD","3LN3BXKGC0HZB1VNEMH4SWP73O3GW1","","719.8999999985099","img/animal4.png","74","720.5999999940395","74","0",""
"","html-keyboard-response","65","329007","0.0-65.0","3ZWFC4W1UVTQBPG0VA6ICVD2E4ORFF","A2V6E7SGEU0EFD","3LN3BXKGC0HZB1VNEMH4SWP73O3GW1","","null","<img src=""img/animal4.png"" style=""width:200px;border:14px solid red;"">","null","","","",""
"","image-keyboard-response","66","329441","0.0-66.0","3ZWFC4W1UVTQBPG0VA6ICVD2E4ORFF","A2V6E7SGEU0EFD","3LN3BXKGC0HZB1VNEMH4SWP73O3GW1","","433","img/animal4.png","75","434.20000000298023","75","1",""
"","html-keyboard-response","67","329743","0.0-67.0","3ZWFC4W1UVTQBPG0VA6ICVD2E4ORFF","A2V6E7SGEU0EFD","3LN3BXKGC0HZB1VNEMH4SWP73O3GW1","","null","<img src=""img/animal4.png"" style=""width:200px; border:14px solid green;"">","null","","","",""
"","image-keyboard-response","68","330651","0.0-68.0","3ZWFC4W1UVTQBPG0VA6ICVD2E4ORFF","A2V6E7SGEU0EFD","3LN3BXKGC0HZB1VNEMH4SWP73O3GW1","","907.7000000029802","img/animal1.png","76","908.6000000014901","76","0",""
"","html-keyboard-response","69","330953","0.0-69.0","3ZWFC4W1UVTQBPG0VA6ICVD2E4ORFF","A2V6E7SGEU0EFD","3LN3BXKGC0HZB1VNEMH4SWP73O3GW1","","null","<img src=""img/animal1.png"" style=""width:200px;border:14px solid red;"">","null","","","",""
"","image-keyboard-response","70","331501","0.0-70.0","3ZWFC4W1UVTQBPG0VA6ICVD2E4ORFF","A2V6E7SGEU0EFD","3LN3BXKGC0HZB1VNEMH4SWP73O3GW1","","544","img/animal1.png","76","545.2999999970198","76","1",""
"","html-keyboard-response","71","331803","0.0-71.0","3ZWFC4W1UVTQBPG0VA6ICVD2E4ORFF","A2V6E7SGEU0EFD","3LN3BXKGC0HZB1VNEMH4SWP73O3GW1","","null","<img src=""img/animal1.png"" style=""width:200px; border:14px solid green;"">","null","","","",""
"","image-keyboard-response","72","332209","0.0-72.0","3ZWFC4W1UVTQBPG0VA6ICVD2E4ORFF","A2V6E7SGEU0EFD","3LN3BXKGC0HZB1VNEMH4SWP73O3GW1","","406.1000000014901","img/animal1.png","76","406.79999999701977","76","1",""
"","html-keyboard-response","73","332511","0.0-73.0","3ZWFC4W1UVTQBPG0VA6ICVD2E4ORFF","A2V6E7SGEU0EFD","3LN3BXKGC0HZB1VNEMH4SWP73O3GW1","","null","<img src=""img/animal1.png"" style=""width:200px; border:14px solid green;"">","null","","","",""
"","image-keyboard-response","74","333421","0.0-74.0","3ZWFC4W1UVTQBPG0VA6ICVD2E4ORFF","A2V6E7SGEU0EFD","3LN3BXKGC0HZB1VNEMH4SWP73O3GW1","","909.2000000029802","img/animal4.png","75","910","75","1",""
"","html-keyboard-response","75","333722","0.0-75.0","3ZWFC4W1UVTQBPG0VA6ICVD2E4ORFF","A2V6E7SGEU0EFD","3LN3BXKGC0HZB1VNEMH4SWP73O3GW1","","null","<img src=""img/animal4.png"" style=""width:200px; border:14px solid green;"">","null","","","",""
"","image-keyboard-response","76","334074","0.0-76.0","3ZWFC4W1UVTQBPG0VA6ICVD2E4ORFF","A2V6E7SGEU0EFD","3LN3BXKGC0HZB1VNEMH4SWP73O3GW1","","351.3999999985099","img/animal4.png","75","352","75","0",""
"","html-keyboard-response","77","334376","0.0-77.0","3ZWFC4W1UVTQBPG0VA6ICVD2E4ORFF","A2V6E7SGEU0EFD","3LN3BXKGC0HZB1VNEMH4SWP73O3GW1","","null","<img src=""img/animal4.png"" style=""width:200px;border:14px solid red;"">","null","","","",""
"","image-keyboard-response","78","335277","0.0-78.0","3ZWFC4W1UVTQBPG0VA6ICVD2E4ORFF","A2V6E7SGEU0EFD","3LN3BXKGC0HZB1VNEMH4SWP73O3GW1","","899.2000000029802","img/animal3.png","75","900","75","0",""
"","html-keyboard-response","79","335578","0.0-79.0","3ZWFC4W1UVTQBPG0VA6ICVD2E4ORFF","A2V6E7SGEU0EFD","3LN3BXKGC0HZB1VNEMH4SWP73O3GW1","","null","<img src=""img/animal3.png"" style=""width:200px;border:14px solid red;"">","null","","","",""
"","image-keyboard-response","80","335892","0.0-80.0","3ZWFC4W1UVTQBPG0VA6ICVD2E4ORFF","A2V6E7SGEU0EFD","3LN3BXKGC0HZB1VNEMH4SWP73O3GW1","","312.8999999985099","img/animal3.png","74","313.5","74","1",""
"","html-keyboard-response","81","336192","0.0-81.0","3ZWFC4W1UVTQBPG0VA6ICVD2E4ORFF","A2V6E7SGEU0EFD","3LN3BXKGC0HZB1VNEMH4SWP73O3GW1","","null","<img src=""img/animal3.png"" style=""width:200px; border:14px solid green;"">","null","","","",""
"","image-keyboard-response","82","336535","0.0-82.0","3ZWFC4W1UVTQBPG0VA6ICVD2E4ORFF","A2V6E7SGEU0EFD","3LN3BXKGC0HZB1VNEMH4SWP73O3GW1","","342.1000000014901","img/animal3.png","74","342.8999999985099","74","1",""
"","html-keyboard-response","83","336837","0.0-83.0","3ZWFC4W1UVTQBPG0VA6ICVD2E4ORFF","A2V6E7SGEU0EFD","3LN3BXKGC0HZB1VNEMH4SWP73O3GW1","","null","<img src=""img/animal3.png"" style=""width:200px; border:14px solid green;"">","null","","","",""
"","image-keyboard-response","84","337116","0.0-84.0","3ZWFC4W1UVTQBPG0VA6ICVD2E4ORFF","A2V6E7SGEU0EFD","3LN3BXKGC0HZB1VNEMH4SWP73O3GW1","","278.1000000014901","img/animal3.png","74","278.8999999985099","74","1",""
"","html-keyboard-response","85","337418","0.0-85.0","3ZWFC4W1UVTQBPG0VA6ICVD2E4ORFF","A2V6E7SGEU0EFD","3LN3BXKGC0HZB1VNEMH4SWP73O3GW1","","null","<img src=""img/animal3.png"" style=""width:200px; border:14px solid green;"">","null","","","",""
"","image-keyboard-response","86","337701","0.0-86.0","3ZWFC4W1UVTQBPG0VA6ICVD2E4ORFF","A2V6E7SGEU0EFD","3LN3BXKGC0HZB1VNEMH4SWP73O3GW1","","282","img/animal3.png","74","282.70000000298023","74","1",""
"","html-keyboard-response","87","338004","0.0-87.0","3ZWFC4W1UVTQBPG0VA6ICVD2E4ORFF","A2V6E7SGEU0EFD","3LN3BXKGC0HZB1VNEMH4SWP73O3GW1","","null","<img src=""img/animal3.png"" style=""width:200px; border:14px solid green;"">","null","","","",""
"","image-keyboard-response","88","338770","0.0-88.0","3ZWFC4W1UVTQBPG0VA6ICVD2E4ORFF","A2V6E7SGEU0EFD","3LN3BXKGC0HZB1VNEMH4SWP73O3GW1","","766","img/animal4.png","74","766.7999999970198","74","1",""
"","html-keyboard-response","89","339072","0.0-89.0","3ZWFC4W1UVTQBPG0VA6ICVD2E4ORFF","A2V6E7SGEU0EFD","3LN3BXKGC0HZB1VNEMH4SWP73O3GW1","","null","<img src=""img/animal4.png"" style=""width:200px; border:14px solid green;"">","null","","","",""
"","image-keyboard-response","90","339677","0.0-90.0","3ZWFC4W1UVTQBPG0VA6ICVD2E4ORFF","A2V6E7SGEU0EFD","3LN3BXKGC0HZB1VNEMH4SWP73O3GW1","","604.1999999955297","img/animal3.png","74","604.8999999985099","74","0",""
"","html-keyboard-response","91","339979","0.0-91.0","3ZWFC4W1UVTQBPG0VA6ICVD2E4ORFF","A2V6E7SGEU0EFD","3LN3BXKGC0HZB1VNEMH4SWP73O3GW1","","null","<img src=""img/animal3.png"" style=""width:200px;border:14px solid red;"">","null","","","",""
"","image-keyboard-response","92","340401","0.0-92.0","3ZWFC4W1UVTQBPG0VA6ICVD2E4ORFF","A2V6E7SGEU0EFD","3LN3BXKGC0HZB1VNEMH4SWP73O3GW1","","420.29999999701977","img/animal3.png","75","421.6000000014901","75","1",""
"","html-keyboard-response","93","340703","0.0-93.0","3ZWFC4W1UVTQBPG0VA6ICVD2E4ORFF","A2V6E7SGEU0EFD","3LN3BXKGC0HZB1VNEMH4SWP73O3GW1","","null","<img src=""img/animal3.png"" style=""width:200px; border:14px solid green;"">","null","","","",""
"","image-keyboard-response","94","341342","0.0-94.0","3ZWFC4W1UVTQBPG0VA6ICVD2E4ORFF","A2V6E7SGEU0EFD","3LN3BXKGC0HZB1VNEMH4SWP73O3GW1","","637.8999999985099","img/animal1.png","76","638.6000000014901","76","1",""
"","html-keyboard-response","95","341643","0.0-95.0","3ZWFC4W1UVTQBPG0VA6ICVD2E4ORFF","A2V6E7SGEU0EFD","3LN3BXKGC0HZB1VNEMH4SWP73O3GW1","","null","<img src=""img/animal1.png"" style=""width:200px; border:14px solid green;"">","null","","","",""
"","image-keyboard-response","96","341977","0.0-96.0","3ZWFC4W1UVTQBPG0VA6ICVD2E4ORFF","A2V6E7SGEU0EFD","3LN3BXKGC0HZB1VNEMH4SWP73O3GW1","","333.3999999985099","img/animal1.png","76","334.20000000298023","76","1",""
"","html-keyboard-response","97","342278","0.0-97.0","3ZWFC4W1UVTQBPG0VA6ICVD2E4ORFF","A2V6E7SGEU0EFD","3LN3BXKGC0HZB1VNEMH4SWP73O3GW1","","null","<img src=""img/animal1.png"" style=""width:200px; border:14px solid green;"">","null","","","",""
"","image-keyboard-response","98","343065","0.0-98.0","3ZWFC4W1UVTQBPG0VA6ICVD2E4ORFF","A2V6E7SGEU0EFD","3LN3BXKGC0HZB1VNEMH4SWP73O3GW1","","786.7000000029802","img/animal4.png","74","787.2999999970198","74","1",""
"","html-keyboard-response","99","343367","0.0-99.0","3ZWFC4W1UVTQBPG0VA6ICVD2E4ORFF","A2V6E7SGEU0EFD","3LN3BXKGC0HZB1VNEMH4SWP73O3GW1","","null","<img src=""img/animal4.png"" style=""width:200px; border:14px solid green;"">","null","","","",""
"","image-keyboard-response","100","343689","0.0-100.0","3ZWFC4W1UVTQBPG0VA6ICVD2E4ORFF","A2V6E7SGEU0EFD","3LN3BXKGC0HZB1VNEMH4SWP73O3GW1","","321.40000000596046","img/animal4.png","74","322.1000000014901","74","0",""
"","html-keyboard-response","101","343990","0.0-101.0","3ZWFC4W1UVTQBPG0VA6ICVD2E4ORFF","A2V6E7SGEU0EFD","3LN3BXKGC0HZB1VNEMH4SWP73O3GW1","","null","<img src=""img/animal4.png"" style=""width:200px;border:14px solid red;"">","null","","","",""
"","image-keyboard-response","102","344505","0.0-102.0","3ZWFC4W1UVTQBPG0VA6ICVD2E4ORFF","A2V6E7SGEU0EFD","3LN3BXKGC0HZB1VNEMH4SWP73O3GW1","","513.7999999970198","img/animal1.png","75","514.7000000029802","75","0",""
"","html-keyboard-response","103","344806","0.0-103.0","3ZWFC4W1UVTQBPG0VA6ICVD2E4ORFF","A2V6E7SGEU0EFD","3LN3BXKGC0HZB1VNEMH4SWP73O3GW1","","null","<img src=""img/animal1.png"" style=""width:200px;border:14px solid red;"">","null","","","",""
"","image-keyboard-response","104","345739","0.0-104.0","3ZWFC4W1UVTQBPG0VA6ICVD2E4ORFF","A2V6E7SGEU0EFD","3LN3BXKGC0HZB1VNEMH4SWP73O3GW1","","932.2000000029802","img/animal3.png","74","933","74","1",""
"","html-keyboard-response","105","346041","0.0-105.0","3ZWFC4W1UVTQBPG0VA6ICVD2E4ORFF","A2V6E7SGEU0EFD","3LN3BXKGC0HZB1VNEMH4SWP73O3GW1","","null","<img src=""img/animal3.png"" style=""width:200px; border:14px solid green;"">","null","","","",""
"","image-keyboard-response","106","346730","0.0-106.0","3ZWFC4W1UVTQBPG0VA6ICVD2E4ORFF","A2V6E7SGEU0EFD","3LN3BXKGC0HZB1VNEMH4SWP73O3GW1","","687.8999999985099","img/animal1.png","76","688.5","76","1",""
"","html-keyboard-response","107","347032","0.0-107.0","3ZWFC4W1UVTQBPG0VA6ICVD2E4ORFF","A2V6E7SGEU0EFD","3LN3BXKGC0HZB1VNEMH4SWP73O3GW1","","null","<img src=""img/animal1.png"" style=""width:200px; border:14px solid green;"">","null","","","",""
"","image-keyboard-response","108","347346","0.0-108.0","3ZWFC4W1UVTQBPG0VA6ICVD2E4ORFF","A2V6E7SGEU0EFD","3LN3BXKGC0HZB1VNEMH4SWP73O3GW1","","312.8999999985099","img/animal1.png","76","313.6000000014901","76","0",""
"","html-keyboard-response","109","347648","0.0-109.0","3ZWFC4W1UVTQBPG0VA6ICVD2E4ORFF","A2V6E7SGEU0EFD","3LN3BXKGC0HZB1VNEMH4SWP73O3GW1","","null","<img src=""img/animal1.png"" style=""width:200px;border:14px solid red;"">","null","","","",""
"","image-keyboard-response","110","348394","0.0-110.0","3ZWFC4W1UVTQBPG0VA6ICVD2E4ORFF","A2V6E7SGEU0EFD","3LN3BXKGC0HZB1VNEMH4SWP73O3GW1","","744.7999999970198","img/animal3.png","75","745.8999999985099","75","1",""
"","html-keyboard-response","111","348695","0.0-111.0","3ZWFC4W1UVTQBPG0VA6ICVD2E4ORFF","A2V6E7SGEU0EFD","3LN3BXKGC0HZB1VNEMH4SWP73O3GW1","","null","<img src=""img/animal3.png"" style=""width:200px; border:14px solid green;"">","null","","","",""
"","image-keyboard-response","112","349574","0.0-112.0","3ZWFC4W1UVTQBPG0VA6ICVD2E4ORFF","A2V6E7SGEU0EFD","3LN3BXKGC0HZB1VNEMH4SWP73O3GW1","","878","img/animal4.png","75","879.1999999955297","75","1",""
"","html-keyboard-response","113","349877","0.0-113.0","3ZWFC4W1UVTQBPG0VA6ICVD2E4ORFF","A2V6E7SGEU0EFD","3LN3BXKGC0HZB1VNEMH4SWP73O3GW1","","null","<img src=""img/animal4.png"" style=""width:200px; border:14px solid green;"">","null","","","",""
"","image-keyboard-response","114","350487","0.0-114.0","3ZWFC4W1UVTQBPG0VA6ICVD2E4ORFF","A2V6E7SGEU0EFD","3LN3BXKGC0HZB1VNEMH4SWP73O3GW1","","609.1999999955297","img/animal1.png","74","609.6999999955297","74","1",""
"","html-keyboard-response","115","350789","0.0-115.0","3ZWFC4W1UVTQBPG0VA6ICVD2E4ORFF","A2V6E7SGEU0EFD","3LN3BXKGC0HZB1VNEMH4SWP73O3GW1","","null","<img src=""img/animal1.png"" style=""width:200px; border:14px solid green;"">","null","","","",""
"","image-keyboard-response","116","351712","0.0-116.0","3ZWFC4W1UVTQBPG0VA6ICVD2E4ORFF","A2V6E7SGEU0EFD","3LN3BXKGC0HZB1VNEMH4SWP73O3GW1","","922.3999999985099","img/animal4.png","75","923","75","1",""
"","html-keyboard-response","117","352013","0.0-117.0","3ZWFC4W1UVTQBPG0VA6ICVD2E4ORFF","A2V6E7SGEU0EFD","3LN3BXKGC0HZB1VNEMH4SWP73O3GW1","","null","<img src=""img/animal4.png"" style=""width:200px; border:14px solid green;"">","null","","","",""
"","image-keyboard-response","118","352510","0.0-118.0","3ZWFC4W1UVTQBPG0VA6ICVD2E4ORFF","A2V6E7SGEU0EFD","3LN3BXKGC0HZB1VNEMH4SWP73O3GW1","","495.80000000447035","img/animal1.png","74","496.3999999985099","74","0",""
"","html-keyboard-response","119","352811","0.0-119.0","3ZWFC4W1UVTQBPG0VA6ICVD2E4ORFF","A2V6E7SGEU0EFD","3LN3BXKGC0HZB1VNEMH4SWP73O3GW1","","null","<img src=""img/animal1.png"" style=""width:200px;border:14px solid red;"">","null","","","",""
"","image-keyboard-response","120","353170","0.0-120.0","3ZWFC4W1UVTQBPG0VA6ICVD2E4ORFF","A2V6E7SGEU0EFD","3LN3BXKGC0HZB1VNEMH4SWP73O3GW1","","358.19999999552965","img/animal1.png","75","359","75","0",""
"","html-keyboard-response","121","353472","0.0-121.0","3ZWFC4W1UVTQBPG0VA6ICVD2E4ORFF","A2V6E7SGEU0EFD","3LN3BXKGC0HZB1VNEMH4SWP73O3GW1","","null","<img src=""img/animal1.png"" style=""width:200px;border:14px solid red;"">","null","","","",""
"","image-keyboard-response","122","354674","0.0-122.0","3ZWFC4W1UVTQBPG0VA6ICVD2E4ORFF","A2V6E7SGEU0EFD","3LN3BXKGC0HZB1VNEMH4SWP73O3GW1","","1200.6999999955297","img/animal4.png","75","1201.7999999970198","75","1",""
"","html-keyboard-response","123","354975","0.0-123.0","3ZWFC4W1UVTQBPG0VA6ICVD2E4ORFF","A2V6E7SGEU0EFD","3LN3BXKGC0HZB1VNEMH4SWP73O3GW1","","null","<img src=""img/animal4.png"" style=""width:200px; border:14px solid green;"">","null","","","",""
"","image-keyboard-response","124","355611","0.0-124.0","3ZWFC4W1UVTQBPG0VA6ICVD2E4ORFF","A2V6E7SGEU0EFD","3LN3BXKGC0HZB1VNEMH4SWP73O3GW1","","634.8999999985099","img/animal3.png","74","635.7000000029802","74","1",""
"","html-keyboard-response","125","355913","0.0-125.0","3ZWFC4W1UVTQBPG0VA6ICVD2E4ORFF","A2V6E7SGEU0EFD","3LN3BXKGC0HZB1VNEMH4SWP73O3GW1","","null","<img src=""img/animal3.png"" style=""width:200px; border:14px solid green;"">","null","","","",""
"","image-keyboard-response","126","356220","0.0-126.0","3ZWFC4W1UVTQBPG0VA6ICVD2E4ORFF","A2V6E7SGEU0EFD","3LN3BXKGC0HZB1VNEMH4SWP73O3GW1","","306.5","img/animal3.png","74","307.19999999552965","74","1",""
"","html-keyboard-response","127","356521","0.0-127.0","3ZWFC4W1UVTQBPG0VA6ICVD2E4ORFF","A2V6E7SGEU0EFD","3LN3BXKGC0HZB1VNEMH4SWP73O3GW1","","null","<img src=""img/animal3.png"" style=""width:200px; border:14px solid green;"">","null","","","",""
"","image-keyboard-response","128","357267","0.0-128.0","3ZWFC4W1UVTQBPG0VA6ICVD2E4ORFF","A2V6E7SGEU0EFD","3LN3BXKGC0HZB1VNEMH4SWP73O3GW1","","745","img/animal1.png","76","745.6999999955297","76","1",""
"","html-keyboard-response","129","357570","0.0-129.0","3ZWFC4W1UVTQBPG0VA6ICVD2E4ORFF","A2V6E7SGEU0EFD","3LN3BXKGC0HZB1VNEMH4SWP73O3GW1","","null","<img src=""img/animal1.png"" style=""width:200px; border:14px solid green;"">","null","","","",""
"","image-keyboard-response","130","358034","0.0-130.0","3ZWFC4W1UVTQBPG0VA6ICVD2E4ORFF","A2V6E7SGEU0EFD","3LN3BXKGC0HZB1VNEMH4SWP73O3GW1","","463.5","img/animal4.png","74","464.29999999701977","74","0",""
"","html-keyboard-response","131","358335","0.0-131.0","3ZWFC4W1UVTQBPG0VA6ICVD2E4ORFF","A2V6E7SGEU0EFD","3LN3BXKGC0HZB1VNEMH4SWP73O3GW1","","null","<img src=""img/animal4.png"" style=""width:200px;border:14px solid red;"">","null","","","",""
"","image-keyboard-response","132","358707","0.0-132.0","3ZWFC4W1UVTQBPG0VA6ICVD2E4ORFF","A2V6E7SGEU0EFD","3LN3BXKGC0HZB1VNEMH4SWP73O3GW1","","370.70000000298023","img/animal1.png","75","371.70000000298023","75","0",""
"","html-keyboard-response","133","359009","0.0-133.0","3ZWFC4W1UVTQBPG0VA6ICVD2E4ORFF","A2V6E7SGEU0EFD","3LN3BXKGC0HZB1VNEMH4SWP73O3GW1","","null","<img src=""img/animal1.png"" style=""width:200px;border:14px solid red;"">","null","","","",""
"","image-keyboard-response","134","359375","0.0-134.0","3ZWFC4W1UVTQBPG0VA6ICVD2E4ORFF","A2V6E7SGEU0EFD","3LN3BXKGC0HZB1VNEMH4SWP73O3GW1","","365.30000000447035","img/animal1.png","76","366.1000000014901","76","1",""
"","html-keyboard-response","135","359676","0.0-135.0","3ZWFC4W1UVTQBPG0VA6ICVD2E4ORFF","A2V6E7SGEU0EFD","3LN3BXKGC0HZB1VNEMH4SWP73O3GW1","","null","<img src=""img/animal1.png"" style=""width:200px; border:14px solid green;"">","null","","","",""
"","image-keyboard-response","136","360050","0.0-136.0","3ZWFC4W1UVTQBPG0VA6ICVD2E4ORFF","A2V6E7SGEU0EFD","3LN3BXKGC0HZB1VNEMH4SWP73O3GW1","","374","img/animal1.png","76","374.70000000298023","76","1",""
"","html-keyboard-response","137","360351","0.0-137.0","3ZWFC4W1UVTQBPG0VA6ICVD2E4ORFF","A2V6E7SGEU0EFD","3LN3BXKGC0HZB1VNEMH4SWP73O3GW1","","null","<img src=""img/animal1.png"" style=""width:200px; border:14px solid green;"">","null","","","",""
"","image-keyboard-response","138","360823","0.0-138.0","3ZWFC4W1UVTQBPG0VA6ICVD2E4ORFF","A2V6E7SGEU0EFD","3LN3BXKGC0HZB1VNEMH4SWP73O3GW1","","471.29999999701977","img/animal4.png","74","471.8999999985099","74","1",""
"","html-keyboard-response","139","361124","0.0-139.0","3ZWFC4W1UVTQBPG0VA6ICVD2E4ORFF","A2V6E7SGEU0EFD","3LN3BXKGC0HZB1VNEMH4SWP73O3GW1","","null","<img src=""img/animal4.png"" style=""width:200px; border:14px solid green;"">","null","","","",""
"","image-keyboard-response","140","361665","0.0-140.0","3ZWFC4W1UVTQBPG0VA6ICVD2E4ORFF","A2V6E7SGEU0EFD","3LN3BXKGC0HZB1VNEMH4SWP73O3GW1","","538.8999999985099","img/animal1.png","76","539.7999999970198","76","1",""
"","html-keyboard-response","141","361966","0.0-141.0","3ZWFC4W1UVTQBPG0VA6ICVD2E4ORFF","A2V6E7SGEU0EFD","3LN3BXKGC0HZB1VNEMH4SWP73O3GW1","","null","<img src=""img/animal1.png"" style=""width:200px; border:14px solid green;"">","null","","","",""
"","image-keyboard-response","142","362512","0.0-142.0","3ZWFC4W1UVTQBPG0VA6ICVD2E4ORFF","A2V6E7SGEU0EFD","3LN3BXKGC0HZB1VNEMH4SWP73O3GW1","","545.6000000014901","img/animal4.png","76","546.1999999955297","76","0",""
"","html-keyboard-response","143","362814","0.0-143.0","3ZWFC4W1UVTQBPG0VA6ICVD2E4ORFF","A2V6E7SGEU0EFD","3LN3BXKGC0HZB1VNEMH4SWP73O3GW1","","null","<img src=""img/animal4.png"" style=""width:200px;border:14px solid red;"">","null","","","",""
"","image-keyboard-response","144","363281","0.0-144.0","3ZWFC4W1UVTQBPG0VA6ICVD2E4ORFF","A2V6E7SGEU0EFD","3LN3BXKGC0HZB1VNEMH4SWP73O3GW1","","466.1000000014901","img/animal1.png","75","466.80000000447035","75","0",""
"","html-keyboard-response","145","363582","0.0-145.0","3ZWFC4W1UVTQBPG0VA6ICVD2E4ORFF","A2V6E7SGEU0EFD","3LN3BXKGC0HZB1VNEMH4SWP73O3GW1","","null","<img src=""img/animal1.png"" style=""width:200px;border:14px solid red;"">","null","","","",""
"","image-keyboard-response","146","363919","0.0-146.0","3ZWFC4W1UVTQBPG0VA6ICVD2E4ORFF","A2V6E7SGEU0EFD","3LN3BXKGC0HZB1VNEMH4SWP73O3GW1","","336","img/animal4.png","74","336.70000000298023","74","1",""
"","html-keyboard-response","147","364221","0.0-147.0","3ZWFC4W1UVTQBPG0VA6ICVD2E4ORFF","A2V6E7SGEU0EFD","3LN3BXKGC0HZB1VNEMH4SWP73O3GW1","","null","<img src=""img/animal4.png"" style=""width:200px; border:14px solid green;"">","null","","","",""
"","image-keyboard-response","148","364826","0.0-148.0","3ZWFC4W1UVTQBPG0VA6ICVD2E4ORFF","A2V6E7SGEU0EFD","3LN3BXKGC0HZB1VNEMH4SWP73O3GW1","","603.6999999955297","img/animal3.png","75","605.1000000014901","75","1",""
"","html-keyboard-response","149","365127","0.0-149.0","3ZWFC4W1UVTQBPG0VA6ICVD2E4ORFF","A2V6E7SGEU0EFD","3LN3BXKGC0HZB1VNEMH4SWP73O3GW1","","null","<img src=""img/animal3.png"" style=""width:200px; border:14px solid green;"">","null","","","",""
"","image-keyboard-response","150","365703","0.0-150.0","3ZWFC4W1UVTQBPG0VA6ICVD2E4ORFF","A2V6E7SGEU0EFD","3LN3BXKGC0HZB1VNEMH4SWP73O3GW1","","574.6000000014901","img/animal4.png","74","575.2000000029802","74","1",""
"","html-keyboard-response","151","366004","0.0-151.0","3ZWFC4W1UVTQBPG0VA6ICVD2E4ORFF","A2V6E7SGEU0EFD","3LN3BXKGC0HZB1VNEMH4SWP73O3GW1","","null","<img src=""img/animal4.png"" style=""width:200px; border:14px solid green;"">","null","","","",""
"","image-keyboard-response","152","366486","0.0-152.0","3ZWFC4W1UVTQBPG0VA6ICVD2E4ORFF","A2V6E7SGEU0EFD","3LN3BXKGC0HZB1VNEMH4SWP73O3GW1","","481.30000000447035","img/animal3.png","75","482.19999999552965","75","1",""
"","html-keyboard-response","153","366787","0.0-153.0","3ZWFC4W1UVTQBPG0VA6ICVD2E4ORFF","A2V6E7SGEU0EFD","3LN3BXKGC0HZB1VNEMH4SWP73O3GW1","","null","<img src=""img/animal3.png"" style=""width:200px; border:14px solid green;"">","null","","","",""
"","image-keyboard-response","154","367384","0.0-154.0","3ZWFC4W1UVTQBPG0VA6ICVD2E4ORFF","A2V6E7SGEU0EFD","3LN3BXKGC0HZB1VNEMH4SWP73O3GW1","","595","img/animal1.png","76","596.3000000044703","76","0",""
"","html-keyboard-response","155","367686","0.0-155.0","3ZWFC4W1UVTQBPG0VA6ICVD2E4ORFF","A2V6E7SGEU0EFD","3LN3BXKGC0HZB1VNEMH4SWP73O3GW1","","null","<img src=""img/animal1.png"" style=""width:200px;border:14px solid red;"">","null","","","",""
"","image-keyboard-response","156","368733","0.0-156.0","3ZWFC4W1UVTQBPG0VA6ICVD2E4ORFF","A2V6E7SGEU0EFD","3LN3BXKGC0HZB1VNEMH4SWP73O3GW1","","1046.1999999955297","img/animal3.png","74","1047","74","0",""
"","html-keyboard-response","157","369035","0.0-157.0","3ZWFC4W1UVTQBPG0VA6ICVD2E4ORFF","A2V6E7SGEU0EFD","3LN3BXKGC0HZB1VNEMH4SWP73O3GW1","","null","<img src=""img/animal3.png"" style=""width:200px;border:14px solid red;"">","null","","","",""
"","image-keyboard-response","158","369760","0.0-158.0","3ZWFC4W1UVTQBPG0VA6ICVD2E4ORFF","A2V6E7SGEU0EFD","3LN3BXKGC0HZB1VNEMH4SWP73O3GW1","","723.2999999970198","img/animal1.png","76","724.3999999985099","76","1",""
"","html-keyboard-response","159","370061","0.0-159.0","3ZWFC4W1UVTQBPG0VA6ICVD2E4ORFF","A2V6E7SGEU0EFD","3LN3BXKGC0HZB1VNEMH4SWP73O3GW1","","null","<img src=""img/animal1.png"" style=""width:200px; border:14px solid green;"">","null","","","",""
"","image-keyboard-response","160","370472","0.0-160.0","3ZWFC4W1UVTQBPG0VA6ICVD2E4ORFF","A2V6E7SGEU0EFD","3LN3BXKGC0HZB1VNEMH4SWP73O3GW1","","410.70000000298023","img/animal1.png","76","411.3999999985099","76","1",""
"","html-keyboard-response","161","370773","0.0-161.0","3ZWFC4W1UVTQBPG0VA6ICVD2E4ORFF","A2V6E7SGEU0EFD","3LN3BXKGC0HZB1VNEMH4SWP73O3GW1","","null","<img src=""img/animal1.png"" style=""width:200px; border:14px solid green;"">","null","","","",""
"","image-keyboard-response","162","371095","0.0-162.0","3ZWFC4W1UVTQBPG0VA6ICVD2E4ORFF","A2V6E7SGEU0EFD","3LN3BXKGC0HZB1VNEMH4SWP73O3GW1","","320.80000000447035","img/animal1.png","76","321.5","76","1",""
"","html-keyboard-response","163","371396","0.0-163.0","3ZWFC4W1UVTQBPG0VA6ICVD2E4ORFF","A2V6E7SGEU0EFD","3LN3BXKGC0HZB1VNEMH4SWP73O3GW1","","null","<img src=""img/animal1.png"" style=""width:200px; border:14px solid green;"">","null","","","",""
"","image-keyboard-response","164","371799","0.0-164.0","3ZWFC4W1UVTQBPG0VA6ICVD2E4ORFF","A2V6E7SGEU0EFD","3LN3BXKGC0HZB1VNEMH4SWP73O3GW1","","402.20000000298023","img/animal3.png","75","402.8999999985099","75","1",""
"","html-keyboard-response","165","372100","0.0-165.0","3ZWFC4W1UVTQBPG0VA6ICVD2E4ORFF","A2V6E7SGEU0EFD","3LN3BXKGC0HZB1VNEMH4SWP73O3GW1","","null","<img src=""img/animal3.png"" style=""width:200px; border:14px solid green;"">","null","","","",""
"","image-keyboard-response","166","373164","0.0-166.0","3ZWFC4W1UVTQBPG0VA6ICVD2E4ORFF","A2V6E7SGEU0EFD","3LN3BXKGC0HZB1VNEMH4SWP73O3GW1","","1062.7000000029802","img/animal4.png","75","1063.7999999970198","75","0",""
"","html-keyboard-response","167","373465","0.0-167.0","3ZWFC4W1UVTQBPG0VA6ICVD2E4ORFF","A2V6E7SGEU0EFD","3LN3BXKGC0HZB1VNEMH4SWP73O3GW1","","null","<img src=""img/animal4.png"" style=""width:200px;border:14px solid red;"">","null","","","",""
"","image-keyboard-response","168","374151","0.0-168.0","3ZWFC4W1UVTQBPG0VA6ICVD2E4ORFF","A2V6E7SGEU0EFD","3LN3BXKGC0HZB1VNEMH4SWP73O3GW1","","684.8999999985099","img/animal3.png","75","685.8999999985099","75","1",""
"","html-keyboard-response","169","374453","0.0-169.0","3ZWFC4W1UVTQBPG0VA6ICVD2E4ORFF","A2V6E7SGEU0EFD","3LN3BXKGC0HZB1VNEMH4SWP73O3GW1","","null","<img src=""img/animal3.png"" style=""width:200px; border:14px solid green;"">","null","","","",""
"","image-keyboard-response","170","374927","0.0-170.0","3ZWFC4W1UVTQBPG0VA6ICVD2E4ORFF","A2V6E7SGEU0EFD","3LN3BXKGC0HZB1VNEMH4SWP73O3GW1","","473.5","img/animal4.png","74","474.19999999552965","74","1",""
"","html-keyboard-response","171","375228","0.0-171.0","3ZWFC4W1UVTQBPG0VA6ICVD2E4ORFF","A2V6E7SGEU0EFD","3LN3BXKGC0HZB1VNEMH4SWP73O3GW1","","null","<img src=""img/animal4.png"" style=""width:200px; border:14px solid green;"">","null","","","",""
"","image-keyboard-response","172","375811","0.0-172.0","3ZWFC4W1UVTQBPG0VA6ICVD2E4ORFF","A2V6E7SGEU0EFD","3LN3BXKGC0HZB1VNEMH4SWP73O3GW1","","582","img/animal1.png","76","582.6999999955297","76","1",""
"","html-keyboard-response","173","376112","0.0-173.0","3ZWFC4W1UVTQBPG0VA6ICVD2E4ORFF","A2V6E7SGEU0EFD","3LN3BXKGC0HZB1VNEMH4SWP73O3GW1","","null","<img src=""img/animal1.png"" style=""width:200px; border:14px solid green;"">","null","","","",""
"","image-keyboard-response","174","377051","0.0-174.0","3ZWFC4W1UVTQBPG0VA6ICVD2E4ORFF","A2V6E7SGEU0EFD","3LN3BXKGC0HZB1VNEMH4SWP73O3GW1","","938.6000000014901","img/animal3.png","74","939.4000000059605","74","1",""
"","html-keyboard-response","175","377353","0.0-175.0","3ZWFC4W1UVTQBPG0VA6ICVD2E4ORFF","A2V6E7SGEU0EFD","3LN3BXKGC0HZB1VNEMH4SWP73O3GW1","","null","<img src=""img/animal3.png"" style=""width:200px; border:14px solid green;"">","null","","","",""
"","image-keyboard-response","176","377699","0.0-176.0","3ZWFC4W1UVTQBPG0VA6ICVD2E4ORFF","A2V6E7SGEU0EFD","3LN3BXKGC0HZB1VNEMH4SWP73O3GW1","","345.29999999701977","img/animal3.png","74","346.1000000014901","74","0",""
"","html-keyboard-response","177","378001","0.0-177.0","3ZWFC4W1UVTQBPG0VA6ICVD2E4ORFF","A2V6E7SGEU0EFD","3LN3BXKGC0HZB1VNEMH4SWP73O3GW1","","null","<img src=""img/animal3.png"" style=""width:200px;border:14px solid red;"">","null","","","",""
"","image-keyboard-response","178","378675","0.0-178.0","3ZWFC4W1UVTQBPG0VA6ICVD2E4ORFF","A2V6E7SGEU0EFD","3LN3BXKGC0HZB1VNEMH4SWP73O3GW1","","673.7000000029802","img/animal1.png","76","674.6999999955297","76","1",""
"","html-keyboard-response","179","378977","0.0-179.0","3ZWFC4W1UVTQBPG0VA6ICVD2E4ORFF","A2V6E7SGEU0EFD","3LN3BXKGC0HZB1VNEMH4SWP73O3GW1","","null","<img src=""img/animal1.png"" style=""width:200px; border:14px solid green;"">","null","","","",""
"","image-keyboard-response","180","379577","0.0-180.0","3ZWFC4W1UVTQBPG0VA6ICVD2E4ORFF","A2V6E7SGEU0EFD","3LN3BXKGC0HZB1VNEMH4SWP73O3GW1","","598.3999999985099","img/animal4.png","75","599.3999999985099","75","1",""
"","html-keyboard-response","181","379879","0.0-181.0","3ZWFC4W1UVTQBPG0VA6ICVD2E4ORFF","A2V6E7SGEU0EFD","3LN3BXKGC0HZB1VNEMH4SWP73O3GW1","","null","<img src=""img/animal4.png"" style=""width:200px; border:14px solid green;"">","null","","","",""
"","html-keyboard-response","182","424369","0.0-182.0","3ZWFC4W1UVTQBPG0VA6ICVD2E4ORFF","A2V6E7SGEU0EFD","3LN3BXKGC0HZB1VNEMH4SWP73O3GW1","","","","","","","",""
"","image-keyboard-response","183","426219","0.0-183.0","3ZWFC4W1UVTQBPG0VA6ICVD2E4ORFF","A2V6E7SGEU0EFD","3LN3BXKGC0HZB1VNEMH4SWP73O3GW1","","1848.5","img/animal6.png","76","1849.8999999985099","76","0",""
"","html-keyboard-response","184","426530","0.0-184.0","3ZWFC4W1UVTQBPG0VA6ICVD2E4ORFF","A2V6E7SGEU0EFD","3LN3BXKGC0HZB1VNEMH4SWP73O3GW1","","null","<img src=""img/animal6.png"" style=""width:200px;border:14px solid red;"">","null","","","",""
"","image-keyboard-response","185","427102","0.0-185.0","3ZWFC4W1UVTQBPG0VA6ICVD2E4ORFF","A2V6E7SGEU0EFD","3LN3BXKGC0HZB1VNEMH4SWP73O3GW1","","571.7000000029802","img/animal5.png","76","572.3999999985099","76","0",""
"","html-keyboard-response","186","427409","0.0-186.0","3ZWFC4W1UVTQBPG0VA6ICVD2E4ORFF","A2V6E7SGEU0EFD","3LN3BXKGC0HZB1VNEMH4SWP73O3GW1","","null","<img src=""img/animal5.png"" style=""width:200px;border:14px solid red;"">","null","","","",""
"","image-keyboard-response","187","427633","0.0-187.0","3ZWFC4W1UVTQBPG0VA6ICVD2E4ORFF","A2V6E7SGEU0EFD","3LN3BXKGC0HZB1VNEMH4SWP73O3GW1","","222.89999999850988","img/animal2.png","76","224.09999999403954","76","1",""
"","html-keyboard-response","188","427941","0.0-188.0","3ZWFC4W1UVTQBPG0VA6ICVD2E4ORFF","A2V6E7SGEU0EFD","3LN3BXKGC0HZB1VNEMH4SWP73O3GW1","","null","<img src=""img/animal2.png"" style=""width:200px; border:14px solid green;"">","null","","","",""
"","image-keyboard-response","189","428449","0.0-189.0","3ZWFC4W1UVTQBPG0VA6ICVD2E4ORFF","A2V6E7SGEU0EFD","3LN3BXKGC0HZB1VNEMH4SWP73O3GW1","","507.1000000014901","img/animal5.png","75","507.8999999985099","75","1",""
"","html-keyboard-response","190","428751","0.0-190.0","3ZWFC4W1UVTQBPG0VA6ICVD2E4ORFF","A2V6E7SGEU0EFD","3LN3BXKGC0HZB1VNEMH4SWP73O3GW1","","null","<img src=""img/animal5.png"" style=""width:200px; border:14px solid green;"">","null","","","",""
"","image-keyboard-response","191","429309","0.0-191.0","3ZWFC4W1UVTQBPG0VA6ICVD2E4ORFF","A2V6E7SGEU0EFD","3LN3BXKGC0HZB1VNEMH4SWP73O3GW1","","557","img/animal6.png","74","557.6000000014901","74","1",""
"","html-keyboard-response","192","429610","0.0-192.0","3ZWFC4W1UVTQBPG0VA6ICVD2E4ORFF","A2V6E7SGEU0EFD","3LN3BXKGC0HZB1VNEMH4SWP73O3GW1","","null","<img src=""img/animal6.png"" style=""width:200px; border:14px solid green;"">","null","","","",""
"","image-keyboard-response","193","430119","0.0-193.0","3ZWFC4W1UVTQBPG0VA6ICVD2E4ORFF","A2V6E7SGEU0EFD","3LN3BXKGC0HZB1VNEMH4SWP73O3GW1","","508.79999999701977","img/animal5.png","75","509.3999999985099","75","1",""
"","html-keyboard-response","194","430422","0.0-194.0","3ZWFC4W1UVTQBPG0VA6ICVD2E4ORFF","A2V6E7SGEU0EFD","3LN3BXKGC0HZB1VNEMH4SWP73O3GW1","","null","<img src=""img/animal5.png"" style=""width:200px; border:14px solid green;"">","null","","","",""
"","image-keyboard-response","195","431185","0.0-195.0","3ZWFC4W1UVTQBPG0VA6ICVD2E4ORFF","A2V6E7SGEU0EFD","3LN3BXKGC0HZB1VNEMH4SWP73O3GW1","","762.7000000029802","img/animal6.png","74","763.6000000014901","74","1",""
"","html-keyboard-response","196","431488","0.0-196.0","3ZWFC4W1UVTQBPG0VA6ICVD2E4ORFF","A2V6E7SGEU0EFD","3LN3BXKGC0HZB1VNEMH4SWP73O3GW1","","null","<img src=""img/animal6.png"" style=""width:200px; border:14px solid green;"">","null","","","",""
"","image-keyboard-response","197","432175","0.0-197.0","3ZWFC4W1UVTQBPG0VA6ICVD2E4ORFF","A2V6E7SGEU0EFD","3LN3BXKGC0HZB1VNEMH4SWP73O3GW1","","685.1000000014901","img/animal2.png","76","685.8000000044703","76","1",""
"","html-keyboard-response","198","432476","0.0-198.0","3ZWFC4W1UVTQBPG0VA6ICVD2E4ORFF","A2V6E7SGEU0EFD","3LN3BXKGC0HZB1VNEMH4SWP73O3GW1","","null","<img src=""img/animal2.png"" style=""width:200px; border:14px solid green;"">","null","","","",""
"","image-keyboard-response","199","433850","0.0-199.0","3ZWFC4W1UVTQBPG0VA6ICVD2E4ORFF","A2V6E7SGEU0EFD","3LN3BXKGC0HZB1VNEMH4SWP73O3GW1","","1372.7000000029802","img/animal5.png","75","1373.3999999985099","75","1",""
"","html-keyboard-response","200","434152","0.0-200.0","3ZWFC4W1UVTQBPG0VA6ICVD2E4ORFF","A2V6E7SGEU0EFD","3LN3BXKGC0HZB1VNEMH4SWP73O3GW1","","null","<img src=""img/animal5.png"" style=""width:200px; border:14px solid green;"">","null","","","",""
"","image-keyboard-response","201","434657","0.0-201.0","3ZWFC4W1UVTQBPG0VA6ICVD2E4ORFF","A2V6E7SGEU0EFD","3LN3BXKGC0HZB1VNEMH4SWP73O3GW1","","504","img/animal6.png","74","505.29999999701977","74","1",""
"","html-keyboard-response","202","434959","0.0-202.0","3ZWFC4W1UVTQBPG0VA6ICVD2E4ORFF","A2V6E7SGEU0EFD","3LN3BXKGC0HZB1VNEMH4SWP73O3GW1","","null","<img src=""img/animal6.png"" style=""width:200px; border:14px solid green;"">","null","","","",""
"","image-keyboard-response","203","435417","0.0-203.0","3ZWFC4W1UVTQBPG0VA6ICVD2E4ORFF","A2V6E7SGEU0EFD","3LN3BXKGC0HZB1VNEMH4SWP73O3GW1","","458","img/animal6.png","74","458.6000000014901","74","1",""
"","html-keyboard-response","204","435731","0.0-204.0","3ZWFC4W1UVTQBPG0VA6ICVD2E4ORFF","A2V6E7SGEU0EFD","3LN3BXKGC0HZB1VNEMH4SWP73O3GW1","","null","<img src=""img/animal6.png"" style=""width:200px; border:14px solid green;"">","null","","","",""
"","image-keyboard-response","205","436328","0.0-205.0","3ZWFC4W1UVTQBPG0VA6ICVD2E4ORFF","A2V6E7SGEU0EFD","3LN3BXKGC0HZB1VNEMH4SWP73O3GW1","","595.7999999970198","img/animal5.png","75","596.6000000014901","75","1",""
"","html-keyboard-response","206","436629","0.0-206.0","3ZWFC4W1UVTQBPG0VA6ICVD2E4ORFF","A2V6E7SGEU0EFD","3LN3BXKGC0HZB1VNEMH4SWP73O3GW1","","null","<img src=""img/animal5.png"" style=""width:200px; border:14px solid green;"">","null","","","",""
"","image-keyboard-response","207","436958","0.0-207.0","3ZWFC4W1UVTQBPG0VA6ICVD2E4ORFF","A2V6E7SGEU0EFD","3LN3BXKGC0HZB1VNEMH4SWP73O3GW1","","328.79999999701977","img/animal5.png","75","329.6000000014901","75","1",""
"","html-keyboard-response","208","437260","0.0-208.0","3ZWFC4W1UVTQBPG0VA6ICVD2E4ORFF","A2V6E7SGEU0EFD","3LN3BXKGC0HZB1VNEMH4SWP73O3GW1","","null","<img src=""img/animal5.png"" style=""width:200px; border:14px solid green;"">","null","","","",""
"","image-keyboard-response","209","437953","0.0-209.0","3ZWFC4W1UVTQBPG0VA6ICVD2E4ORFF","A2V6E7SGEU0EFD","3LN3BXKGC0HZB1VNEMH4SWP73O3GW1","","691.2999999970198","img/animal6.png","74","692.0999999940395","74","1",""
"","html-keyboard-response","210","438255","0.0-210.0","3ZWFC4W1UVTQBPG0VA6ICVD2E4ORFF","A2V6E7SGEU0EFD","3LN3BXKGC0HZB1VNEMH4SWP73O3GW1","","null","<img src=""img/animal6.png"" style=""width:200px; border:14px solid green;"">","null","","","",""
"","image-keyboard-response","211","438796","0.0-211.0","3ZWFC4W1UVTQBPG0VA6ICVD2E4ORFF","A2V6E7SGEU0EFD","3LN3BXKGC0HZB1VNEMH4SWP73O3GW1","","540.1999999955297","img/animal5.png","75","541.3999999985099","75","1",""
"","html-keyboard-response","212","439104","0.0-212.0","3ZWFC4W1UVTQBPG0VA6ICVD2E4ORFF","A2V6E7SGEU0EFD","3LN3BXKGC0HZB1VNEMH4SWP73O3GW1","","null","<img src=""img/animal5.png"" style=""width:200px; border:14px solid green;"">","null","","","",""
"","image-keyboard-response","213","439527","0.0-213.0","3ZWFC4W1UVTQBPG0VA6ICVD2E4ORFF","A2V6E7SGEU0EFD","3LN3BXKGC0HZB1VNEMH4SWP73O3GW1","","421.6000000014901","img/animal2.png","76","423.1000000014901","76","1",""
"","html-keyboard-response","214","439829","0.0-214.0","3ZWFC4W1UVTQBPG0VA6ICVD2E4ORFF","A2V6E7SGEU0EFD","3LN3BXKGC0HZB1VNEMH4SWP73O3GW1","","null","<img src=""img/animal2.png"" style=""width:200px; border:14px solid green;"">","null","","","",""
"","image-keyboard-response","215","440815","0.0-215.0","3ZWFC4W1UVTQBPG0VA6ICVD2E4ORFF","A2V6E7SGEU0EFD","3LN3BXKGC0HZB1VNEMH4SWP73O3GW1","","985.3999999985099","img/animal6.png","74","986.1999999955297","74","1",""
"","html-keyboard-response","216","441117","0.0-216.0","3ZWFC4W1UVTQBPG0VA6ICVD2E4ORFF","A2V6E7SGEU0EFD","3LN3BXKGC0HZB1VNEMH4SWP73O3GW1","","null","<img src=""img/animal6.png"" style=""width:200px; border:14px solid green;"">","null","","","",""
"","image-keyboard-response","217","441440","0.0-217.0","3ZWFC4W1UVTQBPG0VA6ICVD2E4ORFF","A2V6E7SGEU0EFD","3LN3BXKGC0HZB1VNEMH4SWP73O3GW1","","322.29999999701977","img/animal6.png","74","323.1000000014901","74","1",""
"","html-keyboard-response","218","441741","0.0-218.0","3ZWFC4W1UVTQBPG0VA6ICVD2E4ORFF","A2V6E7SGEU0EFD","3LN3BXKGC0HZB1VNEMH4SWP73O3GW1","","null","<img src=""img/animal6.png"" style=""width:200px; border:14px solid green;"">","null","","","",""
"","image-keyboard-response","219","442025","0.0-219.0","3ZWFC4W1UVTQBPG0VA6ICVD2E4ORFF","A2V6E7SGEU0EFD","3LN3BXKGC0HZB1VNEMH4SWP73O3GW1","","282.8999999985099","img/animal6.png","74","283.90000000596046","74","1",""
"","html-keyboard-response","220","442327","0.0-220.0","3ZWFC4W1UVTQBPG0VA6ICVD2E4ORFF","A2V6E7SGEU0EFD","3LN3BXKGC0HZB1VNEMH4SWP73O3GW1","","null","<img src=""img/animal6.png"" style=""width:200px; border:14px solid green;"">","null","","","",""
"","image-keyboard-response","221","442860","0.0-221.0","3ZWFC4W1UVTQBPG0VA6ICVD2E4ORFF","A2V6E7SGEU0EFD","3LN3BXKGC0HZB1VNEMH4SWP73O3GW1","","532.2000000029802","img/animal2.png","75","533","75","0",""
"","html-keyboard-response","222","443162","0.0-222.0","3ZWFC4W1UVTQBPG0VA6ICVD2E4ORFF","A2V6E7SGEU0EFD","3LN3BXKGC0HZB1VNEMH4SWP73O3GW1","","null","<img src=""img/animal2.png"" style=""width:200px;border:14px solid red;"">","null","","","",""
"","image-keyboard-response","223","443803","0.0-223.0","3ZWFC4W1UVTQBPG0VA6ICVD2E4ORFF","A2V6E7SGEU0EFD","3LN3BXKGC0HZB1VNEMH4SWP73O3GW1","","640.7000000029802","img/animal2.png","76","641.8000000044703","76","1",""
"","html-keyboard-response","224","444105","0.0-224.0","3ZWFC4W1UVTQBPG0VA6ICVD2E4ORFF","A2V6E7SGEU0EFD","3LN3BXKGC0HZB1VNEMH4SWP73O3GW1","","null","<img src=""img/animal2.png"" style=""width:200px; border:14px solid green;"">","null","","","",""
"","image-keyboard-response","225","444632","0.0-225.0","3ZWFC4W1UVTQBPG0VA6ICVD2E4ORFF","A2V6E7SGEU0EFD","3LN3BXKGC0HZB1VNEMH4SWP73O3GW1","","525.2999999970198","img/animal5.png","75","526.5","75","1",""
"","html-keyboard-response","226","444933","0.0-226.0","3ZWFC4W1UVTQBPG0VA6ICVD2E4ORFF","A2V6E7SGEU0EFD","3LN3BXKGC0HZB1VNEMH4SWP73O3GW1","","null","<img src=""img/animal5.png"" style=""width:200px; border:14px solid green;"">","null","","","",""
"","image-keyboard-response","227","445434","0.0-227.0","3ZWFC4W1UVTQBPG0VA6ICVD2E4ORFF","A2V6E7SGEU0EFD","3LN3BXKGC0HZB1VNEMH4SWP73O3GW1","","500.5","img/animal2.png","76","501.1000000014901","76","1",""
"","html-keyboard-response","228","445736","0.0-228.0","3ZWFC4W1UVTQBPG0VA6ICVD2E4ORFF","A2V6E7SGEU0EFD","3LN3BXKGC0HZB1VNEMH4SWP73O3GW1","","null","<img src=""img/animal2.png"" style=""width:200px; border:14px solid green;"">","null","","","",""
"","image-keyboard-response","229","446070","0.0-229.0","3ZWFC4W1UVTQBPG0VA6ICVD2E4ORFF","A2V6E7SGEU0EFD","3LN3BXKGC0HZB1VNEMH4SWP73O3GW1","","333.29999999701977","img/animal2.png","76","334.5","76","1",""
"","html-keyboard-response","230","446372","0.0-230.0","3ZWFC4W1UVTQBPG0VA6ICVD2E4ORFF","A2V6E7SGEU0EFD","3LN3BXKGC0HZB1VNEMH4SWP73O3GW1","","null","<img src=""img/animal2.png"" style=""width:200px; border:14px solid green;"">","null","","","",""
"","image-keyboard-response","231","446634","0.0-231.0","3ZWFC4W1UVTQBPG0VA6ICVD2E4ORFF","A2V6E7SGEU0EFD","3LN3BXKGC0HZB1VNEMH4SWP73O3GW1","","260.90000000596046","img/animal2.png","76","261.40000000596046","76","1",""
"","html-keyboard-response","232","446936","0.0-232.0","3ZWFC4W1UVTQBPG0VA6ICVD2E4ORFF","A2V6E7SGEU0EFD","3LN3BXKGC0HZB1VNEMH4SWP73O3GW1","","null","<img src=""img/animal2.png"" style=""width:200px; border:14px solid green;"">","null","","","",""
"","image-keyboard-response","233","447454","0.0-233.0","3ZWFC4W1UVTQBPG0VA6ICVD2E4ORFF","A2V6E7SGEU0EFD","3LN3BXKGC0HZB1VNEMH4SWP73O3GW1","","517.6000000014901","img/animal5.png","75","518.1000000014901","75","1",""
"","html-keyboard-response","234","447755","0.0-234.0","3ZWFC4W1UVTQBPG0VA6ICVD2E4ORFF","A2V6E7SGEU0EFD","3LN3BXKGC0HZB1VNEMH4SWP73O3GW1","","null","<img src=""img/animal5.png"" style=""width:200px; border:14px solid green;"">","null","","","",""
"","image-keyboard-response","235","448307","0.0-235.0","3ZWFC4W1UVTQBPG0VA6ICVD2E4ORFF","A2V6E7SGEU0EFD","3LN3BXKGC0HZB1VNEMH4SWP73O3GW1","","551","img/animal6.png","74","552","74","1",""
"","html-keyboard-response","236","448608","0.0-236.0","3ZWFC4W1UVTQBPG0VA6ICVD2E4ORFF","A2V6E7SGEU0EFD","3LN3BXKGC0HZB1VNEMH4SWP73O3GW1","","null","<img src=""img/animal6.png"" style=""width:200px; border:14px solid green;"">","null","","","",""
"","image-keyboard-response","237","448933","0.0-237.0","3ZWFC4W1UVTQBPG0VA6ICVD2E4ORFF","A2V6E7SGEU0EFD","3LN3BXKGC0HZB1VNEMH4SWP73O3GW1","","323.20000000298023","img/animal6.png","74","324.5","74","1",""
"","html-keyboard-response","238","449235","0.0-238.0","3ZWFC4W1UVTQBPG0VA6ICVD2E4ORFF","A2V6E7SGEU0EFD","3LN3BXKGC0HZB1VNEMH4SWP73O3GW1","","null","<img src=""img/animal6.png"" style=""width:200px; border:14px solid green;"">","null","","","",""
"","image-keyboard-response","239","449490","0.0-239.0","3ZWFC4W1UVTQBPG0VA6ICVD2E4ORFF","A2V6E7SGEU0EFD","3LN3BXKGC0HZB1VNEMH4SWP73O3GW1","","254.40000000596046","img/animal6.png","74","255.19999999552965","74","1",""
"","html-keyboard-response","240","449793","0.0-240.0","3ZWFC4W1UVTQBPG0VA6ICVD2E4ORFF","A2V6E7SGEU0EFD","3LN3BXKGC0HZB1VNEMH4SWP73O3GW1","","null","<img src=""img/animal6.png"" style=""width:200px; border:14px solid green;"">","null","","","",""
"","image-keyboard-response","241","450061","0.0-241.0","3ZWFC4W1UVTQBPG0VA6ICVD2E4ORFF","A2V6E7SGEU0EFD","3LN3BXKGC0HZB1VNEMH4SWP73O3GW1","","266.59999999403954","img/animal6.png","74","267.70000000298023","74","1",""
"","html-keyboard-response","242","450369","0.0-242.0","3ZWFC4W1UVTQBPG0VA6ICVD2E4ORFF","A2V6E7SGEU0EFD","3LN3BXKGC0HZB1VNEMH4SWP73O3GW1","","null","<img src=""img/animal6.png"" style=""width:200px; border:14px solid green;"">","null","","","",""
"","image-keyboard-response","243","450808","0.0-243.0","3ZWFC4W1UVTQBPG0VA6ICVD2E4ORFF","A2V6E7SGEU0EFD","3LN3BXKGC0HZB1VNEMH4SWP73O3GW1","","438.5","img/animal2.png","75","439.3999999985099","75","0",""
"","html-keyboard-response","244","451110","0.0-244.0","3ZWFC4W1UVTQBPG0VA6ICVD2E4ORFF","A2V6E7SGEU0EFD","3LN3BXKGC0HZB1VNEMH4SWP73O3GW1","","null","<img src=""img/animal2.png"" style=""width:200px;border:14px solid red;"">","null","","","",""
"","image-keyboard-response","245","451582","0.0-245.0","3ZWFC4W1UVTQBPG0VA6ICVD2E4ORFF","A2V6E7SGEU0EFD","3LN3BXKGC0HZB1VNEMH4SWP73O3GW1","","470.20000000298023","img/animal2.png","76","471.5","76","1",""
"","html-keyboard-response","246","451886","0.0-246.0","3ZWFC4W1UVTQBPG0VA6ICVD2E4ORFF","A2V6E7SGEU0EFD","3LN3BXKGC0HZB1VNEMH4SWP73O3GW1","","null","<img src=""img/animal2.png"" style=""width:200px; border:14px solid green;"">","null","","","",""
"","image-keyboard-response","247","452430","0.0-247.0","3ZWFC4W1UVTQBPG0VA6ICVD2E4ORFF","A2V6E7SGEU0EFD","3LN3BXKGC0HZB1VNEMH4SWP73O3GW1","","543.3000000044703","img/animal5.png","75","544.0999999940395","75","1",""
"","html-keyboard-response","248","452732","0.0-248.0","3ZWFC4W1UVTQBPG0VA6ICVD2E4ORFF","A2V6E7SGEU0EFD","3LN3BXKGC0HZB1VNEMH4SWP73O3GW1","","null","<img src=""img/animal5.png"" style=""width:200px; border:14px solid green;"">","null","","","",""
"","image-keyboard-response","249","453130","0.0-249.0","3ZWFC4W1UVTQBPG0VA6ICVD2E4ORFF","A2V6E7SGEU0EFD","3LN3BXKGC0HZB1VNEMH4SWP73O3GW1","","397","img/animal2.png","76","397.6000000014901","76","1",""
"","html-keyboard-response","250","453432","0.0-250.0","3ZWFC4W1UVTQBPG0VA6ICVD2E4ORFF","A2V6E7SGEU0EFD","3LN3BXKGC0HZB1VNEMH4SWP73O3GW1","","null","<img src=""img/animal2.png"" style=""width:200px; border:14px solid green;"">","null","","","",""
"","image-keyboard-response","251","453987","0.0-251.0","3ZWFC4W1UVTQBPG0VA6ICVD2E4ORFF","A2V6E7SGEU0EFD","3LN3BXKGC0HZB1VNEMH4SWP73O3GW1","","554.2000000029802","img/animal5.png","75","554.9000000059605","75","1",""
"","html-keyboard-response","252","454288","0.0-252.0","3ZWFC4W1UVTQBPG0VA6ICVD2E4ORFF","A2V6E7SGEU0EFD","3LN3BXKGC0HZB1VNEMH4SWP73O3GW1","","null","<img src=""img/animal5.png"" style=""width:200px; border:14px solid green;"">","null","","","",""
"","image-keyboard-response","253","454627","0.0-253.0","3ZWFC4W1UVTQBPG0VA6ICVD2E4ORFF","A2V6E7SGEU0EFD","3LN3BXKGC0HZB1VNEMH4SWP73O3GW1","","338.09999999403954","img/animal5.png","75","338.8999999985099","75","1",""
"","html-keyboard-response","254","454928","0.0-254.0","3ZWFC4W1UVTQBPG0VA6ICVD2E4ORFF","A2V6E7SGEU0EFD","3LN3BXKGC0HZB1VNEMH4SWP73O3GW1","","null","<img src=""img/animal5.png"" style=""width:200px; border:14px solid green;"">","null","","","",""
"","image-keyboard-response","255","455438","0.0-255.0","3ZWFC4W1UVTQBPG0VA6ICVD2E4ORFF","A2V6E7SGEU0EFD","3LN3BXKGC0HZB1VNEMH4SWP73O3GW1","","508.30000000447035","img/animal6.png","74","509.5","74","1",""
"","html-keyboard-response","256","455739","0.0-256.0","3ZWFC4W1UVTQBPG0VA6ICVD2E4ORFF","A2V6E7SGEU0EFD","3LN3BXKGC0HZB1VNEMH4SWP73O3GW1","","null","<img src=""img/animal6.png"" style=""width:200px; border:14px solid green;"">","null","","","",""
"","image-keyboard-response","257","456617","0.0-257.0","3ZWFC4W1UVTQBPG0VA6ICVD2E4ORFF","A2V6E7SGEU0EFD","3LN3BXKGC0HZB1VNEMH4SWP73O3GW1","","876.7999999970198","img/animal5.png","76","877.5","76","0",""
"","html-keyboard-response","258","456919","0.0-258.0","3ZWFC4W1UVTQBPG0VA6ICVD2E4ORFF","A2V6E7SGEU0EFD","3LN3BXKGC0HZB1VNEMH4SWP73O3GW1","","null","<img src=""img/animal5.png"" style=""width:200px;border:14px solid red;"">","null","","","",""
"","image-keyboard-response","259","457179","0.0-259.0","3ZWFC4W1UVTQBPG0VA6ICVD2E4ORFF","A2V6E7SGEU0EFD","3LN3BXKGC0HZB1VNEMH4SWP73O3GW1","","259.29999999701977","img/animal5.png","75","259.79999999701977","75","1",""
"","html-keyboard-response","260","457480","0.0-260.0","3ZWFC4W1UVTQBPG0VA6ICVD2E4ORFF","A2V6E7SGEU0EFD","3LN3BXKGC0HZB1VNEMH4SWP73O3GW1","","null","<img src=""img/animal5.png"" style=""width:200px; border:14px solid green;"">","null","","","",""
"","image-keyboard-response","261","457799","0.0-261.0","3ZWFC4W1UVTQBPG0VA6ICVD2E4ORFF","A2V6E7SGEU0EFD","3LN3BXKGC0HZB1VNEMH4SWP73O3GW1","","318","img/animal5.png","75","318.79999999701977","75","1",""
"","html-keyboard-response","262","458101","0.0-262.0","3ZWFC4W1UVTQBPG0VA6ICVD2E4ORFF","A2V6E7SGEU0EFD","3LN3BXKGC0HZB1VNEMH4SWP73O3GW1","","null","<img src=""img/animal5.png"" style=""width:200px; border:14px solid green;"">","null","","","",""
"","image-keyboard-response","263","458472","0.0-263.0","3ZWFC4W1UVTQBPG0VA6ICVD2E4ORFF","A2V6E7SGEU0EFD","3LN3BXKGC0HZB1VNEMH4SWP73O3GW1","","370.79999999701977","img/animal2.png","76","371.6000000014901","76","1",""
"","html-keyboard-response","264","458774","0.0-264.0","3ZWFC4W1UVTQBPG0VA6ICVD2E4ORFF","A2V6E7SGEU0EFD","3LN3BXKGC0HZB1VNEMH4SWP73O3GW1","","null","<img src=""img/animal2.png"" style=""width:200px; border:14px solid green;"">","null","","","",""
"","image-keyboard-response","265","459290","0.0-265.0","3ZWFC4W1UVTQBPG0VA6ICVD2E4ORFF","A2V6E7SGEU0EFD","3LN3BXKGC0HZB1VNEMH4SWP73O3GW1","","515","img/animal6.png","74","515.6999999955297","74","1",""
"","html-keyboard-response","266","459591","0.0-266.0","3ZWFC4W1UVTQBPG0VA6ICVD2E4ORFF","A2V6E7SGEU0EFD","3LN3BXKGC0HZB1VNEMH4SWP73O3GW1","","null","<img src=""img/animal6.png"" style=""width:200px; border:14px solid green;"">","null","","","",""
"","image-keyboard-response","267","459920","0.0-267.0","3ZWFC4W1UVTQBPG0VA6ICVD2E4ORFF","A2V6E7SGEU0EFD","3LN3BXKGC0HZB1VNEMH4SWP73O3GW1","","328.09999999403954","img/animal6.png","74","328.69999999552965","74","1",""
"","html-keyboard-response","268","460222","0.0-268.0","3ZWFC4W1UVTQBPG0VA6ICVD2E4ORFF","A2V6E7SGEU0EFD","3LN3BXKGC0HZB1VNEMH4SWP73O3GW1","","null","<img src=""img/animal6.png"" style=""width:200px; border:14px solid green;"">","null","","","",""
"","image-keyboard-response","269","460534","0.0-269.0","3ZWFC4W1UVTQBPG0VA6ICVD2E4ORFF","A2V6E7SGEU0EFD","3LN3BXKGC0HZB1VNEMH4SWP73O3GW1","","311.30000000447035","img/animal6.png","74","312.19999999552965","74","1",""
"","html-keyboard-response","270","460836","0.0-270.0","3ZWFC4W1UVTQBPG0VA6ICVD2E4ORFF","A2V6E7SGEU0EFD","3LN3BXKGC0HZB1VNEMH4SWP73O3GW1","","null","<img src=""img/animal6.png"" style=""width:200px; border:14px solid green;"">","null","","","",""
"","image-keyboard-response","271","461411","0.0-271.0","3ZWFC4W1UVTQBPG0VA6ICVD2E4ORFF","A2V6E7SGEU0EFD","3LN3BXKGC0HZB1VNEMH4SWP73O3GW1","","573.5","img/animal2.png","76","574.7999999970198","76","1",""
"","html-keyboard-response","272","461713","0.0-272.0","3ZWFC4W1UVTQBPG0VA6ICVD2E4ORFF","A2V6E7SGEU0EFD","3LN3BXKGC0HZB1VNEMH4SWP73O3GW1","","null","<img src=""img/animal2.png"" style=""width:200px; border:14px solid green;"">","null","","","",""
"","image-keyboard-response","273","462205","0.0-273.0","3ZWFC4W1UVTQBPG0VA6ICVD2E4ORFF","A2V6E7SGEU0EFD","3LN3BXKGC0HZB1VNEMH4SWP73O3GW1","","490.3999999985099","img/animal5.png","75","491.1000000014901","75","1",""
"","html-keyboard-response","274","462506","0.0-274.0","3ZWFC4W1UVTQBPG0VA6ICVD2E4ORFF","A2V6E7SGEU0EFD","3LN3BXKGC0HZB1VNEMH4SWP73O3GW1","","null","<img src=""img/animal5.png"" style=""width:200px; border:14px solid green;"">","null","","","",""
"","image-keyboard-response","275","462926","0.0-275.0","3ZWFC4W1UVTQBPG0VA6ICVD2E4ORFF","A2V6E7SGEU0EFD","3LN3BXKGC0HZB1VNEMH4SWP73O3GW1","","419.5","img/animal5.png","75","420.20000000298023","75","1",""
"","html-keyboard-response","276","463228","0.0-276.0","3ZWFC4W1UVTQBPG0VA6ICVD2E4ORFF","A2V6E7SGEU0EFD","3LN3BXKGC0HZB1VNEMH4SWP73O3GW1","","null","<img src=""img/animal5.png"" style=""width:200px; border:14px solid green;"">","null","","","",""
"","image-keyboard-response","277","464505","0.0-277.0","3ZWFC4W1UVTQBPG0VA6ICVD2E4ORFF","A2V6E7SGEU0EFD","3LN3BXKGC0HZB1VNEMH4SWP73O3GW1","","1275.4000000059605","img/animal6.png","74","1276.2999999970198","74","1",""
"","html-keyboard-response","278","464806","0.0-278.0","3ZWFC4W1UVTQBPG0VA6ICVD2E4ORFF","A2V6E7SGEU0EFD","3LN3BXKGC0HZB1VNEMH4SWP73O3GW1","","null","<img src=""img/animal6.png"" style=""width:200px; border:14px solid green;"">","null","","","",""
"","image-keyboard-response","279","465907","0.0-279.0","3ZWFC4W1UVTQBPG0VA6ICVD2E4ORFF","A2V6E7SGEU0EFD","3LN3BXKGC0HZB1VNEMH4SWP73O3GW1","","1099.6000000014901","img/animal5.png","75","1101.2000000029802","75","1",""
"","html-keyboard-response","280","466209","0.0-280.0","3ZWFC4W1UVTQBPG0VA6ICVD2E4ORFF","A2V6E7SGEU0EFD","3LN3BXKGC0HZB1VNEMH4SWP73O3GW1","","null","<img src=""img/animal5.png"" style=""width:200px; border:14px solid green;"">","null","","","",""
"","image-keyboard-response","281","466814","0.0-281.0","3ZWFC4W1UVTQBPG0VA6ICVD2E4ORFF","A2V6E7SGEU0EFD","3LN3BXKGC0HZB1VNEMH4SWP73O3GW1","","603.8000000044703","img/animal6.png","74","604.5","74","1",""
"","html-keyboard-response","282","467116","0.0-282.0","3ZWFC4W1UVTQBPG0VA6ICVD2E4ORFF","A2V6E7SGEU0EFD","3LN3BXKGC0HZB1VNEMH4SWP73O3GW1","","null","<img src=""img/animal6.png"" style=""width:200px; border:14px solid green;"">","null","","","",""
"","image-keyboard-response","283","467495","0.0-283.0","3ZWFC4W1UVTQBPG0VA6ICVD2E4ORFF","A2V6E7SGEU0EFD","3LN3BXKGC0HZB1VNEMH4SWP73O3GW1","","378.70000000298023","img/animal6.png","74","379.40000000596046","74","1",""
"","html-keyboard-response","284","467798","0.0-284.0","3ZWFC4W1UVTQBPG0VA6ICVD2E4ORFF","A2V6E7SGEU0EFD","3LN3BXKGC0HZB1VNEMH4SWP73O3GW1","","null","<img src=""img/animal6.png"" style=""width:200px; border:14px solid green;"">","null","","","",""
"","image-keyboard-response","285","468400","0.0-285.0","3ZWFC4W1UVTQBPG0VA6ICVD2E4ORFF","A2V6E7SGEU0EFD","3LN3BXKGC0HZB1VNEMH4SWP73O3GW1","","600.8000000044703","img/animal2.png","76","601.5","76","1",""
"","html-keyboard-response","286","468701","0.0-286.0","3ZWFC4W1UVTQBPG0VA6ICVD2E4ORFF","A2V6E7SGEU0EFD","3LN3BXKGC0HZB1VNEMH4SWP73O3GW1","","null","<img src=""img/animal2.png"" style=""width:200px; border:14px solid green;"">","null","","","",""
"","image-keyboard-response","287","469336","0.0-287.0","3ZWFC4W1UVTQBPG0VA6ICVD2E4ORFF","A2V6E7SGEU0EFD","3LN3BXKGC0HZB1VNEMH4SWP73O3GW1","","633.8999999985099","img/animal6.png","74","634.6999999955297","74","1",""
"","html-keyboard-response","288","469639","0.0-288.0","3ZWFC4W1UVTQBPG0VA6ICVD2E4ORFF","A2V6E7SGEU0EFD","3LN3BXKGC0HZB1VNEMH4SWP73O3GW1","","null","<img src=""img/animal6.png"" style=""width:200px; border:14px solid green;"">","null","","","",""
"","image-keyboard-response","289","470724","0.0-289.0","3ZWFC4W1UVTQBPG0VA6ICVD2E4ORFF","A2V6E7SGEU0EFD","3LN3BXKGC0HZB1VNEMH4SWP73O3GW1","","1084.1000000014901","img/animal2.png","76","1084.7999999970198","76","1",""
"","html-keyboard-response","290","471026","0.0-290.0","3ZWFC4W1UVTQBPG0VA6ICVD2E4ORFF","A2V6E7SGEU0EFD","3LN3BXKGC0HZB1VNEMH4SWP73O3GW1","","null","<img src=""img/animal2.png"" style=""width:200px; border:14px solid green;"">","null","","","",""
"","image-keyboard-response","291","471354","0.0-291.0","3ZWFC4W1UVTQBPG0VA6ICVD2E4ORFF","A2V6E7SGEU0EFD","3LN3BXKGC0HZB1VNEMH4SWP73O3GW1","","327.3999999985099","img/animal2.png","76","328.3999999985099","76","1",""
"","html-keyboard-response","292","471656","0.0-292.0","3ZWFC4W1UVTQBPG0VA6ICVD2E4ORFF","A2V6E7SGEU0EFD","3LN3BXKGC0HZB1VNEMH4SWP73O3GW1","","null","<img src=""img/animal2.png"" style=""width:200px; border:14px solid green;"">","null","","","",""
"","image-keyboard-response","293","472424","0.0-293.0","3ZWFC4W1UVTQBPG0VA6ICVD2E4ORFF","A2V6E7SGEU0EFD","3LN3BXKGC0HZB1VNEMH4SWP73O3GW1","","767.1000000014901","img/animal5.png","75","767.9000000059605","75","1",""
"","html-keyboard-response","294","472725","0.0-294.0","3ZWFC4W1UVTQBPG0VA6ICVD2E4ORFF","A2V6E7SGEU0EFD","3LN3BXKGC0HZB1VNEMH4SWP73O3GW1","","null","<img src=""img/animal5.png"" style=""width:200px; border:14px solid green;"">","null","","","",""
"","image-keyboard-response","295","473283","0.0-295.0","3ZWFC4W1UVTQBPG0VA6ICVD2E4ORFF","A2V6E7SGEU0EFD","3LN3BXKGC0HZB1VNEMH4SWP73O3GW1","","557.1999999955297","img/animal6.png","74","558","74","1",""
"","html-keyboard-response","296","473585","0.0-296.0","3ZWFC4W1UVTQBPG0VA6ICVD2E4ORFF","A2V6E7SGEU0EFD","3LN3BXKGC0HZB1VNEMH4SWP73O3GW1","","null","<img src=""img/animal6.png"" style=""width:200px; border:14px solid green;"">","null","","","",""
"","image-keyboard-response","297","474389","0.0-297.0","3ZWFC4W1UVTQBPG0VA6ICVD2E4ORFF","A2V6E7SGEU0EFD","3LN3BXKGC0HZB1VNEMH4SWP73O3GW1","","802.7999999970198","img/animal2.png","76","803.6000000014901","76","1",""
"","html-keyboard-response","298","474691","0.0-298.0","3ZWFC4W1UVTQBPG0VA6ICVD2E4ORFF","A2V6E7SGEU0EFD","3LN3BXKGC0HZB1VNEMH4SWP73O3GW1","","null","<img src=""img/animal2.png"" style=""width:200px; border:14px solid green;"">","null","","","",""
"","image-keyboard-response","299","475205","0.0-299.0","3ZWFC4W1UVTQBPG0VA6ICVD2E4ORFF","A2V6E7SGEU0EFD","3LN3BXKGC0HZB1VNEMH4SWP73O3GW1","","513.1999999955297","img/animal5.png","75","513.8999999985099","75","1",""
"","html-keyboard-response","300","475507","0.0-300.0","3ZWFC4W1UVTQBPG0VA6ICVD2E4ORFF","A2V6E7SGEU0EFD","3LN3BXKGC0HZB1VNEMH4SWP73O3GW1","","null","<img src=""img/animal5.png"" style=""width:200px; border:14px solid green;"">","null","","","",""
"","image-keyboard-response","301","476102","0.0-301.0","3ZWFC4W1UVTQBPG0VA6ICVD2E4ORFF","A2V6E7SGEU0EFD","3LN3BXKGC0HZB1VNEMH4SWP73O3GW1","","594.9000000059605","img/animal2.png","76","595.5","76","1",""
"","html-keyboard-response","302","476404","0.0-302.0","3ZWFC4W1UVTQBPG0VA6ICVD2E4ORFF","A2V6E7SGEU0EFD","3LN3BXKGC0HZB1VNEMH4SWP73O3GW1","","null","<img src=""img/animal2.png"" style=""width:200px; border:14px solid green;"">","null","","","",""
"","image-keyboard-response","303","476851","0.0-303.0","3ZWFC4W1UVTQBPG0VA6ICVD2E4ORFF","A2V6E7SGEU0EFD","3LN3BXKGC0HZB1VNEMH4SWP73O3GW1","","445.8999999985099","img/animal5.png","74","446.6000000014901","74","0",""
"","html-keyboard-response","304","477152","0.0-304.0","3ZWFC4W1UVTQBPG0VA6ICVD2E4ORFF","A2V6E7SGEU0EFD","3LN3BXKGC0HZB1VNEMH4SWP73O3GW1","","null","<img src=""img/animal5.png"" style=""width:200px;border:14px solid red;"">","null","","","",""
"","image-keyboard-response","305","477752","0.0-305.0","3ZWFC4W1UVTQBPG0VA6ICVD2E4ORFF","A2V6E7SGEU0EFD","3LN3BXKGC0HZB1VNEMH4SWP73O3GW1","","598.8000000044703","img/animal2.png","76","599.6000000014901","76","1",""
"","html-keyboard-response","306","478053","0.0-306.0","3ZWFC4W1UVTQBPG0VA6ICVD2E4ORFF","A2V6E7SGEU0EFD","3LN3BXKGC0HZB1VNEMH4SWP73O3GW1","","null","<img src=""img/animal2.png"" style=""width:200px; border:14px solid green;"">","null","","","",""
"","image-keyboard-response","307","478518","0.0-307.0","3ZWFC4W1UVTQBPG0VA6ICVD2E4ORFF","A2V6E7SGEU0EFD","3LN3BXKGC0HZB1VNEMH4SWP73O3GW1","","463.79999999701977","img/animal5.png","75","464.6000000014901","75","1",""
"","html-keyboard-response","308","478821","0.0-308.0","3ZWFC4W1UVTQBPG0VA6ICVD2E4ORFF","A2V6E7SGEU0EFD","3LN3BXKGC0HZB1VNEMH4SWP73O3GW1","","null","<img src=""img/animal5.png"" style=""width:200px; border:14px solid green;"">","null","","","",""
"","image-keyboard-response","309","479198","0.0-309.0","3ZWFC4W1UVTQBPG0VA6ICVD2E4ORFF","A2V6E7SGEU0EFD","3LN3BXKGC0HZB1VNEMH4SWP73O3GW1","","376.30000000447035","img/animal5.png","75","377.3999999985099","75","1",""
"","html-keyboard-response","310","479500","0.0-310.0","3ZWFC4W1UVTQBPG0VA6ICVD2E4ORFF","A2V6E7SGEU0EFD","3LN3BXKGC0HZB1VNEMH4SWP73O3GW1","","null","<img src=""img/animal5.png"" style=""width:200px; border:14px solid green;"">","null","","","",""
"","image-keyboard-response","311","479798","0.0-311.0","3ZWFC4W1UVTQBPG0VA6ICVD2E4ORFF","A2V6E7SGEU0EFD","3LN3BXKGC0HZB1VNEMH4SWP73O3GW1","","296.59999999403954","img/animal5.png","76","297.79999999701977","76","0",""
"","html-keyboard-response","312","480100","0.0-312.0","3ZWFC4W1UVTQBPG0VA6ICVD2E4ORFF","A2V6E7SGEU0EFD","3LN3BXKGC0HZB1VNEMH4SWP73O3GW1","","null","<img src=""img/animal5.png"" style=""width:200px;border:14px solid red;"">","null","","","",""
"","image-keyboard-response","313","480445","0.0-313.0","3ZWFC4W1UVTQBPG0VA6ICVD2E4ORFF","A2V6E7SGEU0EFD","3LN3BXKGC0HZB1VNEMH4SWP73O3GW1","","343.29999999701977","img/animal5.png","75","344.3999999985099","75","1",""
"","html-keyboard-response","314","480747","0.0-314.0","3ZWFC4W1UVTQBPG0VA6ICVD2E4ORFF","A2V6E7SGEU0EFD","3LN3BXKGC0HZB1VNEMH4SWP73O3GW1","","null","<img src=""img/animal5.png"" style=""width:200px; border:14px solid green;"">","null","","","",""
"","image-keyboard-response","315","481030","0.0-315.0","3ZWFC4W1UVTQBPG0VA6ICVD2E4ORFF","A2V6E7SGEU0EFD","3LN3BXKGC0HZB1VNEMH4SWP73O3GW1","","281.79999999701977","img/animal5.png","75","282.5","75","1",""
"","html-keyboard-response","316","481332","0.0-316.0","3ZWFC4W1UVTQBPG0VA6ICVD2E4ORFF","A2V6E7SGEU0EFD","3LN3BXKGC0HZB1VNEMH4SWP73O3GW1","","null","<img src=""img/animal5.png"" style=""width:200px; border:14px solid green;"">","null","","","",""
"","image-keyboard-response","317","481913","0.0-317.0","3ZWFC4W1UVTQBPG0VA6ICVD2E4ORFF","A2V6E7SGEU0EFD","3LN3BXKGC0HZB1VNEMH4SWP73O3GW1","","580.5","img/animal6.png","74","581.3000000044703","74","1",""
"","html-keyboard-response","318","482215","0.0-318.0","3ZWFC4W1UVTQBPG0VA6ICVD2E4ORFF","A2V6E7SGEU0EFD","3LN3BXKGC0HZB1VNEMH4SWP73O3GW1","","null","<img src=""img/animal6.png"" style=""width:200px; border:14px solid green;"">","null","","","",""
"","image-keyboard-response","319","482835","0.0-319.0","3ZWFC4W1UVTQBPG0VA6ICVD2E4ORFF","A2V6E7SGEU0EFD","3LN3BXKGC0HZB1VNEMH4SWP73O3GW1","","617","img/animal2.png","76","618.2000000029802","76","1",""
"","html-keyboard-response","320","483137","0.0-320.0","3ZWFC4W1UVTQBPG0VA6ICVD2E4ORFF","A2V6E7SGEU0EFD","3LN3BXKGC0HZB1VNEMH4SWP73O3GW1","","null","<img src=""img/animal2.png"" style=""width:200px; border:14px solid green;"">","null","","","",""
"","image-keyboard-response","321","483699","0.0-321.0","3ZWFC4W1UVTQBPG0VA6ICVD2E4ORFF","A2V6E7SGEU0EFD","3LN3BXKGC0HZB1VNEMH4SWP73O3GW1","","561","img/animal2.png","76","561.8999999985099","76","1",""
"","html-keyboard-response","322","484001","0.0-322.0","3ZWFC4W1UVTQBPG0VA6ICVD2E4ORFF","A2V6E7SGEU0EFD","3LN3BXKGC0HZB1VNEMH4SWP73O3GW1","","null","<img src=""img/animal2.png"" style=""width:200px; border:14px solid green;"">","null","","","",""
"","image-keyboard-response","323","484563","0.0-323.0","3ZWFC4W1UVTQBPG0VA6ICVD2E4ORFF","A2V6E7SGEU0EFD","3LN3BXKGC0HZB1VNEMH4SWP73O3GW1","","561.0999999940395","img/animal5.png","75","562.1000000014901","75","1",""
"","html-keyboard-response","324","484865","0.0-324.0","3ZWFC4W1UVTQBPG0VA6ICVD2E4ORFF","A2V6E7SGEU0EFD","3LN3BXKGC0HZB1VNEMH4SWP73O3GW1","","null","<img src=""img/animal5.png"" style=""width:200px; border:14px solid green;"">","null","","","",""
"","image-keyboard-response","325","485546","0.0-325.0","3ZWFC4W1UVTQBPG0VA6ICVD2E4ORFF","A2V6E7SGEU0EFD","3LN3BXKGC0HZB1VNEMH4SWP73O3GW1","","680.3000000044703","img/animal2.png","76","680.8999999985099","76","1",""
"","html-keyboard-response","326","485847","0.0-326.0","3ZWFC4W1UVTQBPG0VA6ICVD2E4ORFF","A2V6E7SGEU0EFD","3LN3BXKGC0HZB1VNEMH4SWP73O3GW1","","null","<img src=""img/animal2.png"" style=""width:200px; border:14px solid green;"">","null","","","",""
"","image-keyboard-response","327","486195","0.0-327.0","3ZWFC4W1UVTQBPG0VA6ICVD2E4ORFF","A2V6E7SGEU0EFD","3LN3BXKGC0HZB1VNEMH4SWP73O3GW1","","346.5","img/animal2.png","76","347.19999999552965","76","1",""
"","html-keyboard-response","328","486497","0.0-328.0","3ZWFC4W1UVTQBPG0VA6ICVD2E4ORFF","A2V6E7SGEU0EFD","3LN3BXKGC0HZB1VNEMH4SWP73O3GW1","","null","<img src=""img/animal2.png"" style=""width:200px; border:14px solid green;"">","null","","","",""
"","image-keyboard-response","329","486818","0.0-329.0","3ZWFC4W1UVTQBPG0VA6ICVD2E4ORFF","A2V6E7SGEU0EFD","3LN3BXKGC0HZB1VNEMH4SWP73O3GW1","","320.40000000596046","img/animal2.png","76","321.1000000014901","76","1",""
"","html-keyboard-response","330","487120","0.0-330.0","3ZWFC4W1UVTQBPG0VA6ICVD2E4ORFF","A2V6E7SGEU0EFD","3LN3BXKGC0HZB1VNEMH4SWP73O3GW1","","null","<img src=""img/animal2.png"" style=""width:200px; border:14px solid green;"">","null","","","",""
"","image-keyboard-response","331","487768","0.0-331.0","3ZWFC4W1UVTQBPG0VA6ICVD2E4ORFF","A2V6E7SGEU0EFD","3LN3BXKGC0HZB1VNEMH4SWP73O3GW1","","647","img/animal6.png","74","647.7000000029802","74","1",""
"","html-keyboard-response","332","488070","0.0-332.0","3ZWFC4W1UVTQBPG0VA6ICVD2E4ORFF","A2V6E7SGEU0EFD","3LN3BXKGC0HZB1VNEMH4SWP73O3GW1","","null","<img src=""img/animal6.png"" style=""width:200px; border:14px solid green;"">","null","","","",""
"","image-keyboard-response","333","488730","0.0-333.0","3ZWFC4W1UVTQBPG0VA6ICVD2E4ORFF","A2V6E7SGEU0EFD","3LN3BXKGC0HZB1VNEMH4SWP73O3GW1","","658.3000000044703","img/animal5.png","75","659","75","1",""
"","html-keyboard-response","334","489031","0.0-334.0","3ZWFC4W1UVTQBPG0VA6ICVD2E4ORFF","A2V6E7SGEU0EFD","3LN3BXKGC0HZB1VNEMH4SWP73O3GW1","","null","<img src=""img/animal5.png"" style=""width:200px; border:14px solid green;"">","null","","","",""
"","image-keyboard-response","335","489755","0.0-335.0","3ZWFC4W1UVTQBPG0VA6ICVD2E4ORFF","A2V6E7SGEU0EFD","3LN3BXKGC0HZB1VNEMH4SWP73O3GW1","","723.1999999955297","img/animal6.png","74","724","74","1",""
"","html-keyboard-response","336","490056","0.0-336.0","3ZWFC4W1UVTQBPG0VA6ICVD2E4ORFF","A2V6E7SGEU0EFD","3LN3BXKGC0HZB1VNEMH4SWP73O3GW1","","null","<img src=""img/animal6.png"" style=""width:200px; border:14px solid green;"">","null","","","",""
"","image-keyboard-response","337","490924","0.0-337.0","3ZWFC4W1UVTQBPG0VA6ICVD2E4ORFF","A2V6E7SGEU0EFD","3LN3BXKGC0HZB1VNEMH4SWP73O3GW1","","866.3999999985099","img/animal2.png","76","867.7999999970198","76","1",""
"","html-keyboard-response","338","491226","0.0-338.0","3ZWFC4W1UVTQBPG0VA6ICVD2E4ORFF","A2V6E7SGEU0EFD","3LN3BXKGC0HZB1VNEMH4SWP73O3GW1","","null","<img src=""img/animal2.png"" style=""width:200px; border:14px solid green;"">","null","","","",""
"","image-keyboard-response","339","491528","0.0-339.0","3ZWFC4W1UVTQBPG0VA6ICVD2E4ORFF","A2V6E7SGEU0EFD","3LN3BXKGC0HZB1VNEMH4SWP73O3GW1","","301.29999999701977","img/animal2.png","76","302.19999999552965","76","1",""
"","html-keyboard-response","340","491830","0.0-340.0","3ZWFC4W1UVTQBPG0VA6ICVD2E4ORFF","A2V6E7SGEU0EFD","3LN3BXKGC0HZB1VNEMH4SWP73O3GW1","","null","<img src=""img/animal2.png"" style=""width:200px; border:14px solid green;"">","null","","","",""
"","image-keyboard-response","341","492540","0.0-341.0","3ZWFC4W1UVTQBPG0VA6ICVD2E4ORFF","A2V6E7SGEU0EFD","3LN3BXKGC0HZB1VNEMH4SWP73O3GW1","","709.8999999985099","img/animal6.png","74","710.7000000029802","74","1",""
"","html-keyboard-response","342","492842","0.0-342.0","3ZWFC4W1UVTQBPG0VA6ICVD2E4ORFF","A2V6E7SGEU0EFD","3LN3BXKGC0HZB1VNEMH4SWP73O3GW1","","null","<img src=""img/animal6.png"" style=""width:200px; border:14px solid green;"">","null","","","",""
"","image-keyboard-response","343","493609","0.0-343.0","3ZWFC4W1UVTQBPG0VA6ICVD2E4ORFF","A2V6E7SGEU0EFD","3LN3BXKGC0HZB1VNEMH4SWP73O3GW1","","765.2999999970198","img/animal2.png","75","767","75","0",""
"","html-keyboard-response","344","493911","0.0-344.0","3ZWFC4W1UVTQBPG0VA6ICVD2E4ORFF","A2V6E7SGEU0EFD","3LN3BXKGC0HZB1VNEMH4SWP73O3GW1","","null","<img src=""img/animal2.png"" style=""width:200px;border:14px solid red;"">","null","","","",""
"","image-keyboard-response","345","494803","0.0-345.0","3ZWFC4W1UVTQBPG0VA6ICVD2E4ORFF","A2V6E7SGEU0EFD","3LN3BXKGC0HZB1VNEMH4SWP73O3GW1","","891.2999999970198","img/animal5.png","75","892.2000000029802","75","1",""
"","html-keyboard-response","346","495105","0.0-346.0","3ZWFC4W1UVTQBPG0VA6ICVD2E4ORFF","A2V6E7SGEU0EFD","3LN3BXKGC0HZB1VNEMH4SWP73O3GW1","","null","<img src=""img/animal5.png"" style=""width:200px; border:14px solid green;"">","null","","","",""
"","image-keyboard-response","347","495511","0.0-347.0","3ZWFC4W1UVTQBPG0VA6ICVD2E4ORFF","A2V6E7SGEU0EFD","3LN3BXKGC0HZB1VNEMH4SWP73O3GW1","","405.3999999985099","img/animal2.png","76","406.1000000014901","76","1",""
"","html-keyboard-response","348","495813","0.0-348.0","3ZWFC4W1UVTQBPG0VA6ICVD2E4ORFF","A2V6E7SGEU0EFD","3LN3BXKGC0HZB1VNEMH4SWP73O3GW1","","null","<img src=""img/animal2.png"" style=""width:200px; border:14px solid green;"">","null","","","",""
"","image-keyboard-response","349","496302","0.0-349.0","3ZWFC4W1UVTQBPG0VA6ICVD2E4ORFF","A2V6E7SGEU0EFD","3LN3BXKGC0HZB1VNEMH4SWP73O3GW1","","488.3999999985099","img/animal6.png","74","489.1000000014901","74","1",""
"","html-keyboard-response","350","496603","0.0-350.0","3ZWFC4W1UVTQBPG0VA6ICVD2E4ORFF","A2V6E7SGEU0EFD","3LN3BXKGC0HZB1VNEMH4SWP73O3GW1","","null","<img src=""img/animal6.png"" style=""width:200px; border:14px solid green;"">","null","","","",""
"","image-keyboard-response","351","497105","0.0-351.0","3ZWFC4W1UVTQBPG0VA6ICVD2E4ORFF","A2V6E7SGEU0EFD","3LN3BXKGC0HZB1VNEMH4SWP73O3GW1","","501.20000000298023","img/animal5.png","75","502","75","1",""
"","html-keyboard-response","352","497407","0.0-352.0","3ZWFC4W1UVTQBPG0VA6ICVD2E4ORFF","A2V6E7SGEU0EFD","3LN3BXKGC0HZB1VNEMH4SWP73O3GW1","","null","<img src=""img/animal5.png"" style=""width:200px; border:14px solid green;"">","null","","","",""
"","image-keyboard-response","353","497896","0.0-353.0","3ZWFC4W1UVTQBPG0VA6ICVD2E4ORFF","A2V6E7SGEU0EFD","3LN3BXKGC0HZB1VNEMH4SWP73O3GW1","","487.5","img/animal2.png","76","488.29999999701977","76","1",""
"","html-keyboard-response","354","498207","0.0-354.0","3ZWFC4W1UVTQBPG0VA6ICVD2E4ORFF","A2V6E7SGEU0EFD","3LN3BXKGC0HZB1VNEMH4SWP73O3GW1","","null","<img src=""img/animal2.png"" style=""width:200px; border:14px solid green;"">","null","","","",""
"","image-keyboard-response","355","498968","0.0-355.0","3ZWFC4W1UVTQBPG0VA6ICVD2E4ORFF","A2V6E7SGEU0EFD","3LN3BXKGC0HZB1VNEMH4SWP73O3GW1","","760.6000000014901","img/animal6.png","74","761.5","74","1",""
"","html-keyboard-response","356","499270","0.0-356.0","3ZWFC4W1UVTQBPG0VA6ICVD2E4ORFF","A2V6E7SGEU0EFD","3LN3BXKGC0HZB1VNEMH4SWP73O3GW1","","null","<img src=""img/animal6.png"" style=""width:200px; border:14px solid green;"">","null","","","",""
"","image-keyboard-response","357","499800","0.0-357.0","3ZWFC4W1UVTQBPG0VA6ICVD2E4ORFF","A2V6E7SGEU0EFD","3LN3BXKGC0HZB1VNEMH4SWP73O3GW1","","528.3999999985099","img/animal6.png","74","529.0999999940395","74","1",""
"","html-keyboard-response","358","500101","0.0-358.0","3ZWFC4W1UVTQBPG0VA6ICVD2E4ORFF","A2V6E7SGEU0EFD","3LN3BXKGC0HZB1VNEMH4SWP73O3GW1","","null","<img src=""img/animal6.png"" style=""width:200px; border:14px solid green;"">","null","","","",""
"","image-keyboard-response","359","500421","0.0-359.0","3ZWFC4W1UVTQBPG0VA6ICVD2E4ORFF","A2V6E7SGEU0EFD","3LN3BXKGC0HZB1VNEMH4SWP73O3GW1","","320.1000000014901","img/animal6.png","74","320.70000000298023","74","1",""
"","html-keyboard-response","360","500723","0.0-360.0","3ZWFC4W1UVTQBPG0VA6ICVD2E4ORFF","A2V6E7SGEU0EFD","3LN3BXKGC0HZB1VNEMH4SWP73O3GW1","","null","<img src=""img/animal6.png"" style=""width:200px; border:14px solid green;"">","null","","","",""
"","image-keyboard-response","361","501565","0.0-361.0","3ZWFC4W1UVTQBPG0VA6ICVD2E4ORFF","A2V6E7SGEU0EFD","3LN3BXKGC0HZB1VNEMH4SWP73O3GW1","","840.6999999955297","img/animal2.png","76","841.7999999970198","76","1",""
"","html-keyboard-response","362","501866","0.0-362.0","3ZWFC4W1UVTQBPG0VA6ICVD2E4ORFF","A2V6E7SGEU0EFD","3LN3BXKGC0HZB1VNEMH4SWP73O3GW1","","null","<img src=""img/animal2.png"" style=""width:200px; border:14px solid green;"">","null","","","",""
"","instructions","363","504282","0.0-363.0","3ZWFC4W1UVTQBPG0VA6ICVD2E4ORFF","A2V6E7SGEU0EFD","3LN3BXKGC0HZB1VNEMH4SWP73O3GW1","[{""page_index"":0,""viewing_time"":2414.89999999851}]","2415.2000000029802","","","","","",""
"","survey-text","364","506643","0.0-364.0","3ZWFC4W1UVTQBPG0VA6ICVD2E4ORFF","A2V6E7SGEU0EFD","3LN3BXKGC0HZB1VNEMH4SWP73O3GW1","","2359.3000000044703","","","","","","{""Q0"":""A2V6E7SGEU0EFD""}"
