"success","trial_type","trial_index","time_elapsed","internal_node_id","assignmentID","mturkID","hitID","view_history","rt","stimulus","key_press","reactionTime","a","r","s","reward_cond","responses"
"true","fullscreen","0","8466","0.0-0.0","352YTHGROWZ3OF58FOY57NE5271H48","A2Y7L7R5UTQ5R2","3FW4EL5A3LANKRP91N782LFHPY722Q","","","","","","","","","",""
"","instructions","1","33153","0.0-1.0","352YTHGROWZ3OF58FOY57NE5271H48","A2Y7L7R5UTQ5R2","3FW4EL5A3LANKRP91N782LFHPY722Q","[{""page_index"":0,""viewing_time"":10762},{""page_index"":1,""viewing_time"":1737},{""page_index"":2,""viewing_time"":3061},{""page_index"":3,""viewing_time"":2740},{""page_index"":4,""viewing_time"":1806},{""page_index"":5,""viewing_time"":1411},{""page_index"":6,""viewing_time"":1675},{""page_index"":7,""viewing_time"":1491}]","24684","","","","","","","",""
"","image-keyboard-response","2","35516","0.0-2.0","352YTHGROWZ3OF58FOY57NE5271H48","A2Y7L7R5UTQ5R2","3FW4EL5A3LANKRP91N782LFHPY722Q","","2361","img/animal6.png","74","2363","1","1","2","0.7,0,0.8,0.7,0.8,0,0.7,0.8,0",""
"","html-keyboard-response","3","35820","0.0-3.0","352YTHGROWZ3OF58FOY57NE5271H48","A2Y7L7R5UTQ5R2","3FW4EL5A3LANKRP91N782LFHPY722Q","","null","<img src=""img/animal6.png"" style=""width:200px; border:14px solid green;"">","null","","","","","",""
"","image-keyboard-response","4","37012","0.0-4.0","352YTHGROWZ3OF58FOY57NE5271H48","A2Y7L7R5UTQ5R2","3FW4EL5A3LANKRP91N782LFHPY722Q","","1189","img/animal5.png","75","1191","2","1","3","0.7,0,0.8,0.7,0.8,0,0.7,0.8,0",""
"","html-keyboard-response","5","37314","0.0-5.0","352YTHGROWZ3OF58FOY57NE5271H48","A2Y7L7R5UTQ5R2","3FW4EL5A3LANKRP91N782LFHPY722Q","","null","<img src=""img/animal5.png"" style=""width:200px; border:14px solid green;"">","null","","","","","",""
"","image-keyboard-response","6","38213","0.0-6.0","352YTHGROWZ3OF58FOY57NE5271H48","A2Y7L7R5UTQ5R2","3FW4EL5A3LANKRP91N782LFHPY722Q","","898","img/animal3.png","76","899","3","1","1","0.7,0,0.8,0.7,0.8,0,0.7,0.8,0",""
"","html-keyboard-response","7","38517","0.0-7.0","352YTHGROWZ3OF58FOY57NE5271H48","A2Y7L7R5UTQ5R2","3FW4EL5A3LANKRP91N782LFHPY722Q","","null","<img src=""img/animal3.png"" style=""width:200px; border:14px solid green;"">","null","","","","","",""
"","image-keyboard-response","8","40787","0.0-8.0","352YTHGROWZ3OF58FOY57NE5271H48","A2Y7L7R5UTQ5R2","3FW4EL5A3LANKRP91N782LFHPY722Q","","2269","img/animal3.png","76","2270","3","1","1","0.7,0,0.8,0.7,0.8,0,0.7,0.8,0",""
"","html-keyboard-response","9","41091","0.0-9.0","352YTHGROWZ3OF58FOY57NE5271H48","A2Y7L7R5UTQ5R2","3FW4EL5A3LANKRP91N782LFHPY722Q","","null","<img src=""img/animal3.png"" style=""width:200px; border:14px solid green;"">","null","","","","","",""
"","image-keyboard-response","10","42557","0.0-10.0","352YTHGROWZ3OF58FOY57NE5271H48","A2Y7L7R5UTQ5R2","3FW4EL5A3LANKRP91N782LFHPY722Q","","1464","img/animal3.png","76","1466","3","1","1","0.7,0,0.8,0.7,0.8,0,0.7,0.8,0",""
"","html-keyboard-response","11","42859","0.0-11.0","352YTHGROWZ3OF58FOY57NE5271H48","A2Y7L7R5UTQ5R2","3FW4EL5A3LANKRP91N782LFHPY722Q","","null","<img src=""img/animal3.png"" style=""width:200px; border:14px solid green;"">","null","","","","","",""
"","image-keyboard-response","12","43846","0.0-12.0","352YTHGROWZ3OF58FOY57NE5271H48","A2Y7L7R5UTQ5R2","3FW4EL5A3LANKRP91N782LFHPY722Q","","985","img/animal3.png","76","987","3","1","1","0.7,0,0.8,0.7,0.8,0,0.7,0.8,0",""
"","html-keyboard-response","13","44148","0.0-13.0","352YTHGROWZ3OF58FOY57NE5271H48","A2Y7L7R5UTQ5R2","3FW4EL5A3LANKRP91N782LFHPY722Q","","null","<img src=""img/animal3.png"" style=""width:200px; border:14px solid green;"">","null","","","","","",""
"","image-keyboard-response","14","45801","0.0-14.0","352YTHGROWZ3OF58FOY57NE5271H48","A2Y7L7R5UTQ5R2","3FW4EL5A3LANKRP91N782LFHPY722Q","","1651","img/animal5.png","74","1653","1","0","3","0.7,0,0.8,0.7,0.8,0,0.7,0.8,0",""
"","html-keyboard-response","15","46104","0.0-15.0","352YTHGROWZ3OF58FOY57NE5271H48","A2Y7L7R5UTQ5R2","3FW4EL5A3LANKRP91N782LFHPY722Q","","null","<img src=""img/animal5.png"" style=""width:200px;border:14px solid red;"">","null","","","","","",""
"","image-keyboard-response","16","47213","0.0-16.0","352YTHGROWZ3OF58FOY57NE5271H48","A2Y7L7R5UTQ5R2","3FW4EL5A3LANKRP91N782LFHPY722Q","","1108","img/animal3.png","76","1109","3","1","1","0.7,0,0.8,0.7,0.8,0,0.7,0.8,0",""
"","html-keyboard-response","17","47515","0.0-17.0","352YTHGROWZ3OF58FOY57NE5271H48","A2Y7L7R5UTQ5R2","3FW4EL5A3LANKRP91N782LFHPY722Q","","null","<img src=""img/animal3.png"" style=""width:200px; border:14px solid green;"">","null","","","","","",""
"","image-keyboard-response","18","48794","0.0-18.0","352YTHGROWZ3OF58FOY57NE5271H48","A2Y7L7R5UTQ5R2","3FW4EL5A3LANKRP91N782LFHPY722Q","","1277","img/animal5.png","75","1279","2","1","3","0.7,0,0.8,0.7,0.8,0,0.7,0.8,0",""
"","html-keyboard-response","19","49097","0.0-19.0","352YTHGROWZ3OF58FOY57NE5271H48","A2Y7L7R5UTQ5R2","3FW4EL5A3LANKRP91N782LFHPY722Q","","null","<img src=""img/animal5.png"" style=""width:200px; border:14px solid green;"">","null","","","","","",""
"","image-keyboard-response","20","50476","0.0-20.0","352YTHGROWZ3OF58FOY57NE5271H48","A2Y7L7R5UTQ5R2","3FW4EL5A3LANKRP91N782LFHPY722Q","","1377","img/animal3.png","76","1379","3","1","1","0.7,0,0.8,0.7,0.8,0,0.7,0.8,0",""
"","html-keyboard-response","21","50778","0.0-21.0","352YTHGROWZ3OF58FOY57NE5271H48","A2Y7L7R5UTQ5R2","3FW4EL5A3LANKRP91N782LFHPY722Q","","null","<img src=""img/animal3.png"" style=""width:200px; border:14px solid green;"">","null","","","","","",""
"","image-keyboard-response","22","52349","0.0-22.0","352YTHGROWZ3OF58FOY57NE5271H48","A2Y7L7R5UTQ5R2","3FW4EL5A3LANKRP91N782LFHPY722Q","","1571","img/animal5.png","75","1572","2","1","3","0.7,0,0.8,0.7,0.8,0,0.7,0.8,0",""
"","html-keyboard-response","23","52652","0.0-23.0","352YTHGROWZ3OF58FOY57NE5271H48","A2Y7L7R5UTQ5R2","3FW4EL5A3LANKRP91N782LFHPY722Q","","null","<img src=""img/animal5.png"" style=""width:200px; border:14px solid green;"">","null","","","","","",""
"","image-keyboard-response","24","53839","0.0-24.0","352YTHGROWZ3OF58FOY57NE5271H48","A2Y7L7R5UTQ5R2","3FW4EL5A3LANKRP91N782LFHPY722Q","","1187","img/animal3.png","76","1187","3","1","1","0.7,0,0.8,0.7,0.8,0,0.7,0.8,0",""
"","html-keyboard-response","25","54140","0.0-25.0","352YTHGROWZ3OF58FOY57NE5271H48","A2Y7L7R5UTQ5R2","3FW4EL5A3LANKRP91N782LFHPY722Q","","null","<img src=""img/animal3.png"" style=""width:200px; border:14px solid green;"">","null","","","","","",""
"","image-keyboard-response","26","55283","0.0-26.0","352YTHGROWZ3OF58FOY57NE5271H48","A2Y7L7R5UTQ5R2","3FW4EL5A3LANKRP91N782LFHPY722Q","","1142","img/animal6.png","74","1143","1","0","2","0.7,0,0.8,0.7,0.8,0,0.7,0.8,0",""
"","html-keyboard-response","27","55587","0.0-27.0","352YTHGROWZ3OF58FOY57NE5271H48","A2Y7L7R5UTQ5R2","3FW4EL5A3LANKRP91N782LFHPY722Q","","null","<img src=""img/animal6.png"" style=""width:200px;border:14px solid red;"">","null","","","","","",""
"","image-keyboard-response","28","57649","0.0-28.0","352YTHGROWZ3OF58FOY57NE5271H48","A2Y7L7R5UTQ5R2","3FW4EL5A3LANKRP91N782LFHPY722Q","","2060","img/animal3.png","76","2062","3","1","1","0.7,0,0.8,0.7,0.8,0,0.7,0.8,0",""
"","html-keyboard-response","29","57953","0.0-29.0","352YTHGROWZ3OF58FOY57NE5271H48","A2Y7L7R5UTQ5R2","3FW4EL5A3LANKRP91N782LFHPY722Q","","null","<img src=""img/animal3.png"" style=""width:200px; border:14px solid green;"">","null","","","","","",""
"","image-keyboard-response","30","58974","0.0-30.0","352YTHGROWZ3OF58FOY57NE5271H48","A2Y7L7R5UTQ5R2","3FW4EL5A3LANKRP91N782LFHPY722Q","","1018","img/animal3.png","76","1020","3","1","1","0.7,0,0.8,0.7,0.8,0,0.7,0.8,0",""
"","html-keyboard-response","31","59276","0.0-31.0","352YTHGROWZ3OF58FOY57NE5271H48","A2Y7L7R5UTQ5R2","3FW4EL5A3LANKRP91N782LFHPY722Q","","null","<img src=""img/animal3.png"" style=""width:200px; border:14px solid green;"">","null","","","","","",""
"","image-keyboard-response","32","61069","0.0-32.0","352YTHGROWZ3OF58FOY57NE5271H48","A2Y7L7R5UTQ5R2","3FW4EL5A3LANKRP91N782LFHPY722Q","","1792","img/animal5.png","74","1793","1","1","3","0.7,0,0.8,0.7,0.8,0,0.7,0.8,0",""
"","html-keyboard-response","33","61371","0.0-33.0","352YTHGROWZ3OF58FOY57NE5271H48","A2Y7L7R5UTQ5R2","3FW4EL5A3LANKRP91N782LFHPY722Q","","null","<img src=""img/animal5.png"" style=""width:200px; border:14px solid green;"">","null","","","","","",""
"","image-keyboard-response","34","62636","0.0-34.0","352YTHGROWZ3OF58FOY57NE5271H48","A2Y7L7R5UTQ5R2","3FW4EL5A3LANKRP91N782LFHPY722Q","","1265","img/animal3.png","76","1265","3","1","1","0.7,0,0.8,0.7,0.8,0,0.7,0.8,0",""
"","html-keyboard-response","35","62939","0.0-35.0","352YTHGROWZ3OF58FOY57NE5271H48","A2Y7L7R5UTQ5R2","3FW4EL5A3LANKRP91N782LFHPY722Q","","null","<img src=""img/animal3.png"" style=""width:200px; border:14px solid green;"">","null","","","","","",""
"","image-keyboard-response","36","64285","0.0-36.0","352YTHGROWZ3OF58FOY57NE5271H48","A2Y7L7R5UTQ5R2","3FW4EL5A3LANKRP91N782LFHPY722Q","","1344","img/animal6.png","75","1346","2","1","2","0.7,0,0.8,0.7,0.8,0,0.7,0.8,0",""
"","html-keyboard-response","37","64585","0.0-37.0","352YTHGROWZ3OF58FOY57NE5271H48","A2Y7L7R5UTQ5R2","3FW4EL5A3LANKRP91N782LFHPY722Q","","null","<img src=""img/animal6.png"" style=""width:200px; border:14px solid green;"">","null","","","","","",""
"","image-keyboard-response","38","65627","0.0-38.0","352YTHGROWZ3OF58FOY57NE5271H48","A2Y7L7R5UTQ5R2","3FW4EL5A3LANKRP91N782LFHPY722Q","","1042","img/animal6.png","75","1042","2","1","2","0.7,0,0.8,0.7,0.8,0,0.7,0.8,0",""
"","html-keyboard-response","39","65930","0.0-39.0","352YTHGROWZ3OF58FOY57NE5271H48","A2Y7L7R5UTQ5R2","3FW4EL5A3LANKRP91N782LFHPY722Q","","null","<img src=""img/animal6.png"" style=""width:200px; border:14px solid green;"">","null","","","","","",""
"","image-keyboard-response","40","67185","0.0-40.0","352YTHGROWZ3OF58FOY57NE5271H48","A2Y7L7R5UTQ5R2","3FW4EL5A3LANKRP91N782LFHPY722Q","","1250","img/animal5.png","74","1254","1","0","3","0.7,0,0.8,0.7,0.8,0,0.7,0.8,0",""
"","html-keyboard-response","41","67489","0.0-41.0","352YTHGROWZ3OF58FOY57NE5271H48","A2Y7L7R5UTQ5R2","3FW4EL5A3LANKRP91N782LFHPY722Q","","null","<img src=""img/animal5.png"" style=""width:200px;border:14px solid red;"">","null","","","","","",""
"","image-keyboard-response","42","69784","0.0-42.0","352YTHGROWZ3OF58FOY57NE5271H48","A2Y7L7R5UTQ5R2","3FW4EL5A3LANKRP91N782LFHPY722Q","","2294","img/animal6.png","75","2294","2","1","2","0.7,0,0.8,0.7,0.8,0,0.7,0.8,0",""
"","html-keyboard-response","43","70085","0.0-43.0","352YTHGROWZ3OF58FOY57NE5271H48","A2Y7L7R5UTQ5R2","3FW4EL5A3LANKRP91N782LFHPY722Q","","null","<img src=""img/animal6.png"" style=""width:200px; border:14px solid green;"">","null","","","","","",""
"","image-keyboard-response","44","71466","0.0-44.0","352YTHGROWZ3OF58FOY57NE5271H48","A2Y7L7R5UTQ5R2","3FW4EL5A3LANKRP91N782LFHPY722Q","","1380","img/animal3.png","76","1381","3","0","1","0.7,0,0.8,0.7,0.8,0,0.7,0.8,0",""
"","html-keyboard-response","45","71769","0.0-45.0","352YTHGROWZ3OF58FOY57NE5271H48","A2Y7L7R5UTQ5R2","3FW4EL5A3LANKRP91N782LFHPY722Q","","null","<img src=""img/animal3.png"" style=""width:200px;border:14px solid red;"">","null","","","","","",""
"","image-keyboard-response","46","75863","0.0-46.0","352YTHGROWZ3OF58FOY57NE5271H48","A2Y7L7R5UTQ5R2","3FW4EL5A3LANKRP91N782LFHPY722Q","","4093","img/animal5.png","74","4095","1","1","3","0.7,0,0.8,0.7,0.8,0,0.7,0.8,0",""
"","html-keyboard-response","47","76165","0.0-47.0","352YTHGROWZ3OF58FOY57NE5271H48","A2Y7L7R5UTQ5R2","3FW4EL5A3LANKRP91N782LFHPY722Q","","null","<img src=""img/animal5.png"" style=""width:200px; border:14px solid green;"">","null","","","","","",""
"","image-keyboard-response","48","77999","0.0-48.0","352YTHGROWZ3OF58FOY57NE5271H48","A2Y7L7R5UTQ5R2","3FW4EL5A3LANKRP91N782LFHPY722Q","","1832","img/animal6.png","75","1834","2","1","2","0.7,0,0.8,0.7,0.8,0,0.7,0.8,0",""
"","html-keyboard-response","49","78302","0.0-49.0","352YTHGROWZ3OF58FOY57NE5271H48","A2Y7L7R5UTQ5R2","3FW4EL5A3LANKRP91N782LFHPY722Q","","null","<img src=""img/animal6.png"" style=""width:200px; border:14px solid green;"">","null","","","","","",""
"","image-keyboard-response","50","79067","0.0-50.0","352YTHGROWZ3OF58FOY57NE5271H48","A2Y7L7R5UTQ5R2","3FW4EL5A3LANKRP91N782LFHPY722Q","","763","img/animal3.png","76","765","3","1","1","0.7,0,0.8,0.7,0.8,0,0.7,0.8,0",""
"","html-keyboard-response","51","79370","0.0-51.0","352YTHGROWZ3OF58FOY57NE5271H48","A2Y7L7R5UTQ5R2","3FW4EL5A3LANKRP91N782LFHPY722Q","","null","<img src=""img/animal3.png"" style=""width:200px; border:14px solid green;"">","null","","","","","",""
"","image-keyboard-response","52","80812","0.0-52.0","352YTHGROWZ3OF58FOY57NE5271H48","A2Y7L7R5UTQ5R2","3FW4EL5A3LANKRP91N782LFHPY722Q","","1441","img/animal5.png","74","1442","1","0","3","0.7,0,0.8,0.7,0.8,0,0.7,0.8,0",""
"","html-keyboard-response","53","81114","0.0-53.0","352YTHGROWZ3OF58FOY57NE5271H48","A2Y7L7R5UTQ5R2","3FW4EL5A3LANKRP91N782LFHPY722Q","","null","<img src=""img/animal5.png"" style=""width:200px;border:14px solid red;"">","null","","","","","",""
"","image-keyboard-response","54","82678","0.0-54.0","352YTHGROWZ3OF58FOY57NE5271H48","A2Y7L7R5UTQ5R2","3FW4EL5A3LANKRP91N782LFHPY722Q","","1564","img/animal6.png","75","1564","2","1","2","0.7,0,0.8,0.7,0.8,0,0.7,0.8,0",""
"","html-keyboard-response","55","82979","0.0-55.0","352YTHGROWZ3OF58FOY57NE5271H48","A2Y7L7R5UTQ5R2","3FW4EL5A3LANKRP91N782LFHPY722Q","","null","<img src=""img/animal6.png"" style=""width:200px; border:14px solid green;"">","null","","","","","",""
"","image-keyboard-response","56","83613","0.0-56.0","352YTHGROWZ3OF58FOY57NE5271H48","A2Y7L7R5UTQ5R2","3FW4EL5A3LANKRP91N782LFHPY722Q","","633","img/animal6.png","76","634","3","0","2","0.7,0,0.8,0.7,0.8,0,0.7,0.8,0",""
"","html-keyboard-response","57","83971","0.0-57.0","352YTHGROWZ3OF58FOY57NE5271H48","A2Y7L7R5UTQ5R2","3FW4EL5A3LANKRP91N782LFHPY722Q","","null","<img src=""img/animal6.png"" style=""width:200px;border:14px solid red;"">","null","","","","","",""
"","image-keyboard-response","58","85511","0.0-58.0","352YTHGROWZ3OF58FOY57NE5271H48","A2Y7L7R5UTQ5R2","3FW4EL5A3LANKRP91N782LFHPY722Q","","1508","img/animal6.png","75","1508","2","1","2","0.7,0,0.8,0.7,0.8,0,0.7,0.8,0",""
"","html-keyboard-response","59","85838","0.0-59.0","352YTHGROWZ3OF58FOY57NE5271H48","A2Y7L7R5UTQ5R2","3FW4EL5A3LANKRP91N782LFHPY722Q","","null","<img src=""img/animal6.png"" style=""width:200px; border:14px solid green;"">","null","","","","","",""
"","image-keyboard-response","60","86486","0.0-60.0","352YTHGROWZ3OF58FOY57NE5271H48","A2Y7L7R5UTQ5R2","3FW4EL5A3LANKRP91N782LFHPY722Q","","648","img/animal5.png","75","648","2","1","3","0.7,0,0.8,0.7,0.8,0,0.7,0.8,0",""
"","html-keyboard-response","61","86788","0.0-61.0","352YTHGROWZ3OF58FOY57NE5271H48","A2Y7L7R5UTQ5R2","3FW4EL5A3LANKRP91N782LFHPY722Q","","null","<img src=""img/animal5.png"" style=""width:200px; border:14px solid green;"">","null","","","","","",""
"","image-keyboard-response","62","87706","0.0-62.0","352YTHGROWZ3OF58FOY57NE5271H48","A2Y7L7R5UTQ5R2","3FW4EL5A3LANKRP91N782LFHPY722Q","","917","img/animal3.png","76","918","3","0","1","0.7,0,0.8,0.7,0.8,0,0.7,0.8,0",""
"","html-keyboard-response","63","88008","0.0-63.0","352YTHGROWZ3OF58FOY57NE5271H48","A2Y7L7R5UTQ5R2","3FW4EL5A3LANKRP91N782LFHPY722Q","","null","<img src=""img/animal3.png"" style=""width:200px;border:14px solid red;"">","null","","","","","",""
"","image-keyboard-response","64","88809","0.0-64.0","352YTHGROWZ3OF58FOY57NE5271H48","A2Y7L7R5UTQ5R2","3FW4EL5A3LANKRP91N782LFHPY722Q","","800","img/animal5.png","74","801","1","0","3","0.7,0,0.8,0.7,0.8,0,0.7,0.8,0",""
"","html-keyboard-response","65","89112","0.0-65.0","352YTHGROWZ3OF58FOY57NE5271H48","A2Y7L7R5UTQ5R2","3FW4EL5A3LANKRP91N782LFHPY722Q","","null","<img src=""img/animal5.png"" style=""width:200px;border:14px solid red;"">","null","","","","","",""
"","image-keyboard-response","66","89935","0.0-66.0","352YTHGROWZ3OF58FOY57NE5271H48","A2Y7L7R5UTQ5R2","3FW4EL5A3LANKRP91N782LFHPY722Q","","823","img/animal6.png","75","823","2","1","2","0.7,0,0.8,0.7,0.8,0,0.7,0.8,0",""
"","html-keyboard-response","67","90237","0.0-67.0","352YTHGROWZ3OF58FOY57NE5271H48","A2Y7L7R5UTQ5R2","3FW4EL5A3LANKRP91N782LFHPY722Q","","null","<img src=""img/animal6.png"" style=""width:200px; border:14px solid green;"">","null","","","","","",""
"","image-keyboard-response","68","91188","0.0-68.0","352YTHGROWZ3OF58FOY57NE5271H48","A2Y7L7R5UTQ5R2","3FW4EL5A3LANKRP91N782LFHPY722Q","","949","img/animal6.png","75","951","2","1","2","0.7,0,0.8,0.7,0.8,0,0.7,0.8,0",""
"","html-keyboard-response","69","91490","0.0-69.0","352YTHGROWZ3OF58FOY57NE5271H48","A2Y7L7R5UTQ5R2","3FW4EL5A3LANKRP91N782LFHPY722Q","","null","<img src=""img/animal6.png"" style=""width:200px; border:14px solid green;"">","null","","","","","",""
"","image-keyboard-response","70","92557","0.0-70.0","352YTHGROWZ3OF58FOY57NE5271H48","A2Y7L7R5UTQ5R2","3FW4EL5A3LANKRP91N782LFHPY722Q","","1066","img/animal3.png","76","1067","3","1","1","0.7,0,0.8,0.7,0.8,0,0.7,0.8,0",""
"","html-keyboard-response","71","92859","0.0-71.0","352YTHGROWZ3OF58FOY57NE5271H48","A2Y7L7R5UTQ5R2","3FW4EL5A3LANKRP91N782LFHPY722Q","","null","<img src=""img/animal3.png"" style=""width:200px; border:14px solid green;"">","null","","","","","",""
"","image-keyboard-response","72","94272","0.0-72.0","352YTHGROWZ3OF58FOY57NE5271H48","A2Y7L7R5UTQ5R2","3FW4EL5A3LANKRP91N782LFHPY722Q","","1412","img/animal5.png","75","1413","2","1","3","0.7,0,0.8,0.7,0.8,0,0.7,0.8,0",""
"","html-keyboard-response","73","94573","0.0-73.0","352YTHGROWZ3OF58FOY57NE5271H48","A2Y7L7R5UTQ5R2","3FW4EL5A3LANKRP91N782LFHPY722Q","","null","<img src=""img/animal5.png"" style=""width:200px; border:14px solid green;"">","null","","","","","",""
"","image-keyboard-response","74","96574","0.0-74.0","352YTHGROWZ3OF58FOY57NE5271H48","A2Y7L7R5UTQ5R2","3FW4EL5A3LANKRP91N782LFHPY722Q","","2000","img/animal3.png","74","2001","1","1","1","0.7,0,0.8,0.7,0.8,0,0.7,0.8,0",""
"","html-keyboard-response","75","96875","0.0-75.0","352YTHGROWZ3OF58FOY57NE5271H48","A2Y7L7R5UTQ5R2","3FW4EL5A3LANKRP91N782LFHPY722Q","","null","<img src=""img/animal3.png"" style=""width:200px; border:14px solid green;"">","null","","","","","",""
"","image-keyboard-response","76","98748","0.0-76.0","352YTHGROWZ3OF58FOY57NE5271H48","A2Y7L7R5UTQ5R2","3FW4EL5A3LANKRP91N782LFHPY722Q","","1872","img/animal6.png","75","1873","2","1","2","0.7,0,0.8,0.7,0.8,0,0.7,0.8,0",""
"","html-keyboard-response","77","99049","0.0-77.0","352YTHGROWZ3OF58FOY57NE5271H48","A2Y7L7R5UTQ5R2","3FW4EL5A3LANKRP91N782LFHPY722Q","","null","<img src=""img/animal6.png"" style=""width:200px; border:14px solid green;"">","null","","","","","",""
"","image-keyboard-response","78","100229","0.0-78.0","352YTHGROWZ3OF58FOY57NE5271H48","A2Y7L7R5UTQ5R2","3FW4EL5A3LANKRP91N782LFHPY722Q","","1178","img/animal5.png","76","1180","3","0","3","0.7,0,0.8,0.7,0.8,0,0.7,0.8,0",""
"","html-keyboard-response","79","100530","0.0-79.0","352YTHGROWZ3OF58FOY57NE5271H48","A2Y7L7R5UTQ5R2","3FW4EL5A3LANKRP91N782LFHPY722Q","","null","<img src=""img/animal5.png"" style=""width:200px;border:14px solid red;"">","null","","","","","",""
"","image-keyboard-response","80","101301","0.0-80.0","352YTHGROWZ3OF58FOY57NE5271H48","A2Y7L7R5UTQ5R2","3FW4EL5A3LANKRP91N782LFHPY722Q","","770","img/animal6.png","75","771","2","0","2","0.7,0,0.8,0.7,0.8,0,0.7,0.8,0",""
"","html-keyboard-response","81","101602","0.0-81.0","352YTHGROWZ3OF58FOY57NE5271H48","A2Y7L7R5UTQ5R2","3FW4EL5A3LANKRP91N782LFHPY722Q","","null","<img src=""img/animal6.png"" style=""width:200px;border:14px solid red;"">","null","","","","","",""
"","image-keyboard-response","82","102230","0.0-82.0","352YTHGROWZ3OF58FOY57NE5271H48","A2Y7L7R5UTQ5R2","3FW4EL5A3LANKRP91N782LFHPY722Q","","627","img/animal6.png","74","628","1","1","2","0.7,0,0.8,0.7,0.8,0,0.7,0.8,0",""
"","html-keyboard-response","83","102533","0.0-83.0","352YTHGROWZ3OF58FOY57NE5271H48","A2Y7L7R5UTQ5R2","3FW4EL5A3LANKRP91N782LFHPY722Q","","null","<img src=""img/animal6.png"" style=""width:200px; border:14px solid green;"">","null","","","","","",""
"","image-keyboard-response","84","103295","0.0-84.0","352YTHGROWZ3OF58FOY57NE5271H48","A2Y7L7R5UTQ5R2","3FW4EL5A3LANKRP91N782LFHPY722Q","","761","img/animal6.png","74","762","1","1","2","0.7,0,0.8,0.7,0.8,0,0.7,0.8,0",""
"","html-keyboard-response","85","103597","0.0-85.0","352YTHGROWZ3OF58FOY57NE5271H48","A2Y7L7R5UTQ5R2","3FW4EL5A3LANKRP91N782LFHPY722Q","","null","<img src=""img/animal6.png"" style=""width:200px; border:14px solid green;"">","null","","","","","",""
"","image-keyboard-response","86","104447","0.0-86.0","352YTHGROWZ3OF58FOY57NE5271H48","A2Y7L7R5UTQ5R2","3FW4EL5A3LANKRP91N782LFHPY722Q","","849","img/animal6.png","74","850","1","0","2","0.7,0,0.8,0.7,0.8,0,0.7,0.8,0",""
"","html-keyboard-response","87","104748","0.0-87.0","352YTHGROWZ3OF58FOY57NE5271H48","A2Y7L7R5UTQ5R2","3FW4EL5A3LANKRP91N782LFHPY722Q","","null","<img src=""img/animal6.png"" style=""width:200px;border:14px solid red;"">","null","","","","","",""
"","image-keyboard-response","88","105688","0.0-88.0","352YTHGROWZ3OF58FOY57NE5271H48","A2Y7L7R5UTQ5R2","3FW4EL5A3LANKRP91N782LFHPY722Q","","939","img/animal6.png","75","942","2","1","2","0.7,0,0.8,0.7,0.8,0,0.7,0.8,0",""
"","html-keyboard-response","89","105993","0.0-89.0","352YTHGROWZ3OF58FOY57NE5271H48","A2Y7L7R5UTQ5R2","3FW4EL5A3LANKRP91N782LFHPY722Q","","null","<img src=""img/animal6.png"" style=""width:200px; border:14px solid green;"">","null","","","","","",""
"","image-keyboard-response","90","106945","0.0-90.0","352YTHGROWZ3OF58FOY57NE5271H48","A2Y7L7R5UTQ5R2","3FW4EL5A3LANKRP91N782LFHPY722Q","","951","img/animal3.png","76","952","3","1","1","0.7,0,0.8,0.7,0.8,0,0.7,0.8,0",""
"","html-keyboard-response","91","107247","0.0-91.0","352YTHGROWZ3OF58FOY57NE5271H48","A2Y7L7R5UTQ5R2","3FW4EL5A3LANKRP91N782LFHPY722Q","","null","<img src=""img/animal3.png"" style=""width:200px; border:14px solid green;"">","null","","","","","",""
"","image-keyboard-response","92","108717","0.0-92.0","352YTHGROWZ3OF58FOY57NE5271H48","A2Y7L7R5UTQ5R2","3FW4EL5A3LANKRP91N782LFHPY722Q","","1470","img/animal6.png","75","1470","2","1","2","0.7,0,0.8,0.7,0.8,0,0.7,0.8,0",""
"","html-keyboard-response","93","109019","0.0-93.0","352YTHGROWZ3OF58FOY57NE5271H48","A2Y7L7R5UTQ5R2","3FW4EL5A3LANKRP91N782LFHPY722Q","","null","<img src=""img/animal6.png"" style=""width:200px; border:14px solid green;"">","null","","","","","",""
"","image-keyboard-response","94","110160","0.0-94.0","352YTHGROWZ3OF58FOY57NE5271H48","A2Y7L7R5UTQ5R2","3FW4EL5A3LANKRP91N782LFHPY722Q","","1140","img/animal6.png","75","1141","2","1","2","0.7,0,0.8,0.7,0.8,0,0.7,0.8,0",""
"","html-keyboard-response","95","110462","0.0-95.0","352YTHGROWZ3OF58FOY57NE5271H48","A2Y7L7R5UTQ5R2","3FW4EL5A3LANKRP91N782LFHPY722Q","","null","<img src=""img/animal6.png"" style=""width:200px; border:14px solid green;"">","null","","","","","",""
"","image-keyboard-response","96","111270","0.0-96.0","352YTHGROWZ3OF58FOY57NE5271H48","A2Y7L7R5UTQ5R2","3FW4EL5A3LANKRP91N782LFHPY722Q","","806","img/animal6.png","75","808","2","1","2","0.7,0,0.8,0.7,0.8,0,0.7,0.8,0",""
"","html-keyboard-response","97","111572","0.0-97.0","352YTHGROWZ3OF58FOY57NE5271H48","A2Y7L7R5UTQ5R2","3FW4EL5A3LANKRP91N782LFHPY722Q","","null","<img src=""img/animal6.png"" style=""width:200px; border:14px solid green;"">","null","","","","","",""
"","image-keyboard-response","98","112449","0.0-98.0","352YTHGROWZ3OF58FOY57NE5271H48","A2Y7L7R5UTQ5R2","3FW4EL5A3LANKRP91N782LFHPY722Q","","875","img/animal6.png","74","877","1","1","2","0.7,0,0.8,0.7,0.8,0,0.7,0.8,0",""
"","html-keyboard-response","99","112751","0.0-99.0","352YTHGROWZ3OF58FOY57NE5271H48","A2Y7L7R5UTQ5R2","3FW4EL5A3LANKRP91N782LFHPY722Q","","null","<img src=""img/animal6.png"" style=""width:200px; border:14px solid green;"">","null","","","","","",""
"","image-keyboard-response","100","113799","0.0-100.0","352YTHGROWZ3OF58FOY57NE5271H48","A2Y7L7R5UTQ5R2","3FW4EL5A3LANKRP91N782LFHPY722Q","","1046","img/animal3.png","76","1048","3","1","1","0.7,0,0.8,0.7,0.8,0,0.7,0.8,0",""
"","html-keyboard-response","101","114101","0.0-101.0","352YTHGROWZ3OF58FOY57NE5271H48","A2Y7L7R5UTQ5R2","3FW4EL5A3LANKRP91N782LFHPY722Q","","null","<img src=""img/animal3.png"" style=""width:200px; border:14px solid green;"">","null","","","","","",""
"","image-keyboard-response","102","114869","0.0-102.0","352YTHGROWZ3OF58FOY57NE5271H48","A2Y7L7R5UTQ5R2","3FW4EL5A3LANKRP91N782LFHPY722Q","","765","img/animal3.png","76","768","3","1","1","0.7,0,0.8,0.7,0.8,0,0.7,0.8,0",""
"","html-keyboard-response","103","115169","0.0-103.0","352YTHGROWZ3OF58FOY57NE5271H48","A2Y7L7R5UTQ5R2","3FW4EL5A3LANKRP91N782LFHPY722Q","","null","<img src=""img/animal3.png"" style=""width:200px; border:14px solid green;"">","null","","","","","",""
"","image-keyboard-response","104","115855","0.0-104.0","352YTHGROWZ3OF58FOY57NE5271H48","A2Y7L7R5UTQ5R2","3FW4EL5A3LANKRP91N782LFHPY722Q","","685","img/animal3.png","76","686","3","1","1","0.7,0,0.8,0.7,0.8,0,0.7,0.8,0",""
"","html-keyboard-response","105","116159","0.0-105.0","352YTHGROWZ3OF58FOY57NE5271H48","A2Y7L7R5UTQ5R2","3FW4EL5A3LANKRP91N782LFHPY722Q","","null","<img src=""img/animal3.png"" style=""width:200px; border:14px solid green;"">","null","","","","","",""
"","image-keyboard-response","106","117459","0.0-106.0","352YTHGROWZ3OF58FOY57NE5271H48","A2Y7L7R5UTQ5R2","3FW4EL5A3LANKRP91N782LFHPY722Q","","1298","img/animal5.png","74","1300","1","0","3","0.7,0,0.8,0.7,0.8,0,0.7,0.8,0",""
"","html-keyboard-response","107","117762","0.0-107.0","352YTHGROWZ3OF58FOY57NE5271H48","A2Y7L7R5UTQ5R2","3FW4EL5A3LANKRP91N782LFHPY722Q","","null","<img src=""img/animal5.png"" style=""width:200px;border:14px solid red;"">","null","","","","","",""
"","image-keyboard-response","108","118414","0.0-108.0","352YTHGROWZ3OF58FOY57NE5271H48","A2Y7L7R5UTQ5R2","3FW4EL5A3LANKRP91N782LFHPY722Q","","651","img/animal6.png","75","652","2","1","2","0.7,0,0.8,0.7,0.8,0,0.7,0.8,0",""
"","html-keyboard-response","109","118718","0.0-109.0","352YTHGROWZ3OF58FOY57NE5271H48","A2Y7L7R5UTQ5R2","3FW4EL5A3LANKRP91N782LFHPY722Q","","null","<img src=""img/animal6.png"" style=""width:200px; border:14px solid green;"">","null","","","","","",""
"","image-keyboard-response","110","119728","0.0-110.0","352YTHGROWZ3OF58FOY57NE5271H48","A2Y7L7R5UTQ5R2","3FW4EL5A3LANKRP91N782LFHPY722Q","","1008","img/animal3.png","76","1010","3","1","1","0.7,0,0.8,0.7,0.8,0,0.7,0.8,0",""
"","html-keyboard-response","111","120029","0.0-111.0","352YTHGROWZ3OF58FOY57NE5271H48","A2Y7L7R5UTQ5R2","3FW4EL5A3LANKRP91N782LFHPY722Q","","null","<img src=""img/animal3.png"" style=""width:200px; border:14px solid green;"">","null","","","","","",""
"","image-keyboard-response","112","120870","0.0-112.0","352YTHGROWZ3OF58FOY57NE5271H48","A2Y7L7R5UTQ5R2","3FW4EL5A3LANKRP91N782LFHPY722Q","","839","img/animal3.png","76","841","3","0","1","0.7,0,0.8,0.7,0.8,0,0.7,0.8,0",""
"","html-keyboard-response","113","121172","0.0-113.0","352YTHGROWZ3OF58FOY57NE5271H48","A2Y7L7R5UTQ5R2","3FW4EL5A3LANKRP91N782LFHPY722Q","","null","<img src=""img/animal3.png"" style=""width:200px;border:14px solid red;"">","null","","","","","",""
"","image-keyboard-response","114","121944","0.0-114.0","352YTHGROWZ3OF58FOY57NE5271H48","A2Y7L7R5UTQ5R2","3FW4EL5A3LANKRP91N782LFHPY722Q","","771","img/animal5.png","75","772","2","0","3","0.7,0,0.8,0.7,0.8,0,0.7,0.8,0",""
"","html-keyboard-response","115","122248","0.0-115.0","352YTHGROWZ3OF58FOY57NE5271H48","A2Y7L7R5UTQ5R2","3FW4EL5A3LANKRP91N782LFHPY722Q","","null","<img src=""img/animal5.png"" style=""width:200px;border:14px solid red;"">","null","","","","","",""
"","image-keyboard-response","116","122861","0.0-116.0","352YTHGROWZ3OF58FOY57NE5271H48","A2Y7L7R5UTQ5R2","3FW4EL5A3LANKRP91N782LFHPY722Q","","612","img/animal3.png","74","613","1","1","1","0.7,0,0.8,0.7,0.8,0,0.7,0.8,0",""
"","html-keyboard-response","117","123163","0.0-117.0","352YTHGROWZ3OF58FOY57NE5271H48","A2Y7L7R5UTQ5R2","3FW4EL5A3LANKRP91N782LFHPY722Q","","null","<img src=""img/animal3.png"" style=""width:200px; border:14px solid green;"">","null","","","","","",""
"","image-keyboard-response","118","123999","0.0-118.0","352YTHGROWZ3OF58FOY57NE5271H48","A2Y7L7R5UTQ5R2","3FW4EL5A3LANKRP91N782LFHPY722Q","","835","img/animal3.png","74","836","1","1","1","0.7,0,0.8,0.7,0.8,0,0.7,0.8,0",""
"","html-keyboard-response","119","124301","0.0-119.0","352YTHGROWZ3OF58FOY57NE5271H48","A2Y7L7R5UTQ5R2","3FW4EL5A3LANKRP91N782LFHPY722Q","","null","<img src=""img/animal3.png"" style=""width:200px; border:14px solid green;"">","null","","","","","",""
"","image-keyboard-response","120","125016","0.0-120.0","352YTHGROWZ3OF58FOY57NE5271H48","A2Y7L7R5UTQ5R2","3FW4EL5A3LANKRP91N782LFHPY722Q","","714","img/animal3.png","74","715","1","1","1","0.7,0,0.8,0.7,0.8,0,0.7,0.8,0",""
"","html-keyboard-response","121","125318","0.0-121.0","352YTHGROWZ3OF58FOY57NE5271H48","A2Y7L7R5UTQ5R2","3FW4EL5A3LANKRP91N782LFHPY722Q","","null","<img src=""img/animal3.png"" style=""width:200px; border:14px solid green;"">","null","","","","","",""
"","image-keyboard-response","122","126369","0.0-122.0","352YTHGROWZ3OF58FOY57NE5271H48","A2Y7L7R5UTQ5R2","3FW4EL5A3LANKRP91N782LFHPY722Q","","1051","img/animal6.png","75","1051","2","1","2","0.7,0,0.8,0.7,0.8,0,0.7,0.8,0",""
"","html-keyboard-response","123","126672","0.0-123.0","352YTHGROWZ3OF58FOY57NE5271H48","A2Y7L7R5UTQ5R2","3FW4EL5A3LANKRP91N782LFHPY722Q","","null","<img src=""img/animal6.png"" style=""width:200px; border:14px solid green;"">","null","","","","","",""
"","image-keyboard-response","124","127199","0.0-124.0","352YTHGROWZ3OF58FOY57NE5271H48","A2Y7L7R5UTQ5R2","3FW4EL5A3LANKRP91N782LFHPY722Q","","527","img/animal5.png","76","527","3","0","3","0.7,0,0.8,0.7,0.8,0,0.7,0.8,0",""
"","html-keyboard-response","125","127501","0.0-125.0","352YTHGROWZ3OF58FOY57NE5271H48","A2Y7L7R5UTQ5R2","3FW4EL5A3LANKRP91N782LFHPY722Q","","null","<img src=""img/animal5.png"" style=""width:200px;border:14px solid red;"">","null","","","","","",""
"","image-keyboard-response","126","128044","0.0-126.0","352YTHGROWZ3OF58FOY57NE5271H48","A2Y7L7R5UTQ5R2","3FW4EL5A3LANKRP91N782LFHPY722Q","","543","img/animal5.png","76","543","3","0","3","0.7,0,0.8,0.7,0.8,0,0.7,0.8,0",""
"","html-keyboard-response","127","128345","0.0-127.0","352YTHGROWZ3OF58FOY57NE5271H48","A2Y7L7R5UTQ5R2","3FW4EL5A3LANKRP91N782LFHPY722Q","","null","<img src=""img/animal5.png"" style=""width:200px;border:14px solid red;"">","null","","","","","",""
"","image-keyboard-response","128","128889","0.0-128.0","352YTHGROWZ3OF58FOY57NE5271H48","A2Y7L7R5UTQ5R2","3FW4EL5A3LANKRP91N782LFHPY722Q","","544","img/animal3.png","75","545","2","0","1","0.7,0,0.8,0.7,0.8,0,0.7,0.8,0",""
"","html-keyboard-response","129","129193","0.0-129.0","352YTHGROWZ3OF58FOY57NE5271H48","A2Y7L7R5UTQ5R2","3FW4EL5A3LANKRP91N782LFHPY722Q","","null","<img src=""img/animal3.png"" style=""width:200px;border:14px solid red;"">","null","","","","","",""
"","image-keyboard-response","130","129789","0.0-130.0","352YTHGROWZ3OF58FOY57NE5271H48","A2Y7L7R5UTQ5R2","3FW4EL5A3LANKRP91N782LFHPY722Q","","595","img/animal5.png","75","596","2","1","3","0.7,0,0.8,0.7,0.8,0,0.7,0.8,0",""
"","html-keyboard-response","131","130093","0.0-131.0","352YTHGROWZ3OF58FOY57NE5271H48","A2Y7L7R5UTQ5R2","3FW4EL5A3LANKRP91N782LFHPY722Q","","null","<img src=""img/animal5.png"" style=""width:200px; border:14px solid green;"">","null","","","","","",""
"","image-keyboard-response","132","130660","0.0-132.0","352YTHGROWZ3OF58FOY57NE5271H48","A2Y7L7R5UTQ5R2","3FW4EL5A3LANKRP91N782LFHPY722Q","","566","img/animal5.png","74","566","1","0","3","0.7,0,0.8,0.7,0.8,0,0.7,0.8,0",""
"","html-keyboard-response","133","130962","0.0-133.0","352YTHGROWZ3OF58FOY57NE5271H48","A2Y7L7R5UTQ5R2","3FW4EL5A3LANKRP91N782LFHPY722Q","","null","<img src=""img/animal5.png"" style=""width:200px;border:14px solid red;"">","null","","","","","",""
"","image-keyboard-response","134","131814","0.0-134.0","352YTHGROWZ3OF58FOY57NE5271H48","A2Y7L7R5UTQ5R2","3FW4EL5A3LANKRP91N782LFHPY722Q","","852","img/animal3.png","75","852","2","0","1","0.7,0,0.8,0.7,0.8,0,0.7,0.8,0",""
"","html-keyboard-response","135","132116","0.0-135.0","352YTHGROWZ3OF58FOY57NE5271H48","A2Y7L7R5UTQ5R2","3FW4EL5A3LANKRP91N782LFHPY722Q","","null","<img src=""img/animal3.png"" style=""width:200px;border:14px solid red;"">","null","","","","","",""
"","image-keyboard-response","136","132772","0.0-136.0","352YTHGROWZ3OF58FOY57NE5271H48","A2Y7L7R5UTQ5R2","3FW4EL5A3LANKRP91N782LFHPY722Q","","655","img/animal6.png","76","656","3","0","2","0.7,0,0.8,0.7,0.8,0,0.7,0.8,0",""
"","html-keyboard-response","137","133073","0.0-137.0","352YTHGROWZ3OF58FOY57NE5271H48","A2Y7L7R5UTQ5R2","3FW4EL5A3LANKRP91N782LFHPY722Q","","null","<img src=""img/animal6.png"" style=""width:200px;border:14px solid red;"">","null","","","","","",""
"","image-keyboard-response","138","133884","0.0-138.0","352YTHGROWZ3OF58FOY57NE5271H48","A2Y7L7R5UTQ5R2","3FW4EL5A3LANKRP91N782LFHPY722Q","","810","img/animal3.png","76","811","3","0","1","0.7,0,0.8,0.7,0.8,0,0.7,0.8,0",""
"","html-keyboard-response","139","134186","0.0-139.0","352YTHGROWZ3OF58FOY57NE5271H48","A2Y7L7R5UTQ5R2","3FW4EL5A3LANKRP91N782LFHPY722Q","","null","<img src=""img/animal3.png"" style=""width:200px;border:14px solid red;"">","null","","","","","",""
"","image-keyboard-response","140","134879","0.0-140.0","352YTHGROWZ3OF58FOY57NE5271H48","A2Y7L7R5UTQ5R2","3FW4EL5A3LANKRP91N782LFHPY722Q","","692","img/animal6.png","75","693","2","1","2","0.7,0,0.8,0.7,0.8,0,0.7,0.8,0",""
"","html-keyboard-response","141","135182","0.0-141.0","352YTHGROWZ3OF58FOY57NE5271H48","A2Y7L7R5UTQ5R2","3FW4EL5A3LANKRP91N782LFHPY722Q","","null","<img src=""img/animal6.png"" style=""width:200px; border:14px solid green;"">","null","","","","","",""
"","image-keyboard-response","142","135876","0.0-142.0","352YTHGROWZ3OF58FOY57NE5271H48","A2Y7L7R5UTQ5R2","3FW4EL5A3LANKRP91N782LFHPY722Q","","692","img/animal6.png","75","694","2","1","2","0.7,0,0.8,0.7,0.8,0,0.7,0.8,0",""
"","html-keyboard-response","143","136177","0.0-143.0","352YTHGROWZ3OF58FOY57NE5271H48","A2Y7L7R5UTQ5R2","3FW4EL5A3LANKRP91N782LFHPY722Q","","null","<img src=""img/animal6.png"" style=""width:200px; border:14px solid green;"">","null","","","","","",""
"","image-keyboard-response","144","136940","0.0-144.0","352YTHGROWZ3OF58FOY57NE5271H48","A2Y7L7R5UTQ5R2","3FW4EL5A3LANKRP91N782LFHPY722Q","","762","img/animal5.png","74","764","1","1","3","0.7,0,0.8,0.7,0.8,0,0.7,0.8,0",""
"","html-keyboard-response","145","137243","0.0-145.0","352YTHGROWZ3OF58FOY57NE5271H48","A2Y7L7R5UTQ5R2","3FW4EL5A3LANKRP91N782LFHPY722Q","","null","<img src=""img/animal5.png"" style=""width:200px; border:14px solid green;"">","null","","","","","",""
"","image-keyboard-response","146","137903","0.0-146.0","352YTHGROWZ3OF58FOY57NE5271H48","A2Y7L7R5UTQ5R2","3FW4EL5A3LANKRP91N782LFHPY722Q","","659","img/animal3.png","74","660","1","1","1","0.7,0,0.8,0.7,0.8,0,0.7,0.8,0",""
"","html-keyboard-response","147","138204","0.0-147.0","352YTHGROWZ3OF58FOY57NE5271H48","A2Y7L7R5UTQ5R2","3FW4EL5A3LANKRP91N782LFHPY722Q","","null","<img src=""img/animal3.png"" style=""width:200px; border:14px solid green;"">","null","","","","","",""
"","image-keyboard-response","148","138844","0.0-148.0","352YTHGROWZ3OF58FOY57NE5271H48","A2Y7L7R5UTQ5R2","3FW4EL5A3LANKRP91N782LFHPY722Q","","640","img/animal5.png","74","641","1","1","3","0.7,0,0.8,0.7,0.8,0,0.7,0.8,0",""
"","html-keyboard-response","149","139146","0.0-149.0","352YTHGROWZ3OF58FOY57NE5271H48","A2Y7L7R5UTQ5R2","3FW4EL5A3LANKRP91N782LFHPY722Q","","null","<img src=""img/animal5.png"" style=""width:200px; border:14px solid green;"">","null","","","","","",""
"","image-keyboard-response","150","139850","0.0-150.0","352YTHGROWZ3OF58FOY57NE5271H48","A2Y7L7R5UTQ5R2","3FW4EL5A3LANKRP91N782LFHPY722Q","","704","img/animal6.png","74","704","1","0","2","0.7,0,0.8,0.7,0.8,0,0.7,0.8,0",""
"","html-keyboard-response","151","140151","0.0-151.0","352YTHGROWZ3OF58FOY57NE5271H48","A2Y7L7R5UTQ5R2","3FW4EL5A3LANKRP91N782LFHPY722Q","","null","<img src=""img/animal6.png"" style=""width:200px;border:14px solid red;"">","null","","","","","",""
"","image-keyboard-response","152","140712","0.0-152.0","352YTHGROWZ3OF58FOY57NE5271H48","A2Y7L7R5UTQ5R2","3FW4EL5A3LANKRP91N782LFHPY722Q","","560","img/animal5.png","75","561","2","0","3","0.7,0,0.8,0.7,0.8,0,0.7,0.8,0",""
"","html-keyboard-response","153","141013","0.0-153.0","352YTHGROWZ3OF58FOY57NE5271H48","A2Y7L7R5UTQ5R2","3FW4EL5A3LANKRP91N782LFHPY722Q","","null","<img src=""img/animal5.png"" style=""width:200px;border:14px solid red;"">","null","","","","","",""
"","image-keyboard-response","154","141704","0.0-154.0","352YTHGROWZ3OF58FOY57NE5271H48","A2Y7L7R5UTQ5R2","3FW4EL5A3LANKRP91N782LFHPY722Q","","691","img/animal5.png","76","691","3","0","3","0.7,0,0.8,0.7,0.8,0,0.7,0.8,0",""
"","html-keyboard-response","155","142007","0.0-155.0","352YTHGROWZ3OF58FOY57NE5271H48","A2Y7L7R5UTQ5R2","3FW4EL5A3LANKRP91N782LFHPY722Q","","null","<img src=""img/animal5.png"" style=""width:200px;border:14px solid red;"">","null","","","","","",""
"","image-keyboard-response","156","142643","0.0-156.0","352YTHGROWZ3OF58FOY57NE5271H48","A2Y7L7R5UTQ5R2","3FW4EL5A3LANKRP91N782LFHPY722Q","","634","img/animal3.png","75","636","2","0","1","0.7,0,0.8,0.7,0.8,0,0.7,0.8,0",""
"","html-keyboard-response","157","142943","0.0-157.0","352YTHGROWZ3OF58FOY57NE5271H48","A2Y7L7R5UTQ5R2","3FW4EL5A3LANKRP91N782LFHPY722Q","","null","<img src=""img/animal3.png"" style=""width:200px;border:14px solid red;"">","null","","","","","",""
"","image-keyboard-response","158","143523","0.0-158.0","352YTHGROWZ3OF58FOY57NE5271H48","A2Y7L7R5UTQ5R2","3FW4EL5A3LANKRP91N782LFHPY722Q","","580","img/animal5.png","76","580","3","0","3","0.7,0,0.8,0.7,0.8,0,0.7,0.8,0",""
"","html-keyboard-response","159","143857","0.0-159.0","352YTHGROWZ3OF58FOY57NE5271H48","A2Y7L7R5UTQ5R2","3FW4EL5A3LANKRP91N782LFHPY722Q","","null","<img src=""img/animal5.png"" style=""width:200px;border:14px solid red;"">","null","","","","","",""
"","image-keyboard-response","160","145239","0.0-160.0","352YTHGROWZ3OF58FOY57NE5271H48","A2Y7L7R5UTQ5R2","3FW4EL5A3LANKRP91N782LFHPY722Q","","1381","img/animal5.png","74","1382","1","1","3","0.7,0,0.8,0.7,0.8,0,0.7,0.8,0",""
"","html-keyboard-response","161","145542","0.0-161.0","352YTHGROWZ3OF58FOY57NE5271H48","A2Y7L7R5UTQ5R2","3FW4EL5A3LANKRP91N782LFHPY722Q","","null","<img src=""img/animal5.png"" style=""width:200px; border:14px solid green;"">","null","","","","","",""
"","image-keyboard-response","162","146366","0.0-162.0","352YTHGROWZ3OF58FOY57NE5271H48","A2Y7L7R5UTQ5R2","3FW4EL5A3LANKRP91N782LFHPY722Q","","823","img/animal5.png","74","824","1","1","3","0.7,0,0.8,0.7,0.8,0,0.7,0.8,0",""
"","html-keyboard-response","163","146667","0.0-163.0","352YTHGROWZ3OF58FOY57NE5271H48","A2Y7L7R5UTQ5R2","3FW4EL5A3LANKRP91N782LFHPY722Q","","null","<img src=""img/animal5.png"" style=""width:200px; border:14px solid green;"">","null","","","","","",""
"","image-keyboard-response","164","147375","0.0-164.0","352YTHGROWZ3OF58FOY57NE5271H48","A2Y7L7R5UTQ5R2","3FW4EL5A3LANKRP91N782LFHPY722Q","","706","img/animal5.png","75","707","2","1","3","0.7,0,0.8,0.7,0.8,0,0.7,0.8,0",""
"","html-keyboard-response","165","147679","0.0-165.0","352YTHGROWZ3OF58FOY57NE5271H48","A2Y7L7R5UTQ5R2","3FW4EL5A3LANKRP91N782LFHPY722Q","","null","<img src=""img/animal5.png"" style=""width:200px; border:14px solid green;"">","null","","","","","",""
"","image-keyboard-response","166","148451","0.0-166.0","352YTHGROWZ3OF58FOY57NE5271H48","A2Y7L7R5UTQ5R2","3FW4EL5A3LANKRP91N782LFHPY722Q","","771","img/animal5.png","74","772","1","1","3","0.7,0,0.8,0.7,0.8,0,0.7,0.8,0",""
"","html-keyboard-response","167","148753","0.0-167.0","352YTHGROWZ3OF58FOY57NE5271H48","A2Y7L7R5UTQ5R2","3FW4EL5A3LANKRP91N782LFHPY722Q","","null","<img src=""img/animal5.png"" style=""width:200px; border:14px solid green;"">","null","","","","","",""
"","image-keyboard-response","168","149960","0.0-168.0","352YTHGROWZ3OF58FOY57NE5271H48","A2Y7L7R5UTQ5R2","3FW4EL5A3LANKRP91N782LFHPY722Q","","1206","img/animal6.png","75","1207","2","0","2","0.7,0,0.8,0.7,0.8,0,0.7,0.8,0",""
"","html-keyboard-response","169","150263","0.0-169.0","352YTHGROWZ3OF58FOY57NE5271H48","A2Y7L7R5UTQ5R2","3FW4EL5A3LANKRP91N782LFHPY722Q","","null","<img src=""img/animal6.png"" style=""width:200px;border:14px solid red;"">","null","","","","","",""
"","image-keyboard-response","170","151119","0.0-170.0","352YTHGROWZ3OF58FOY57NE5271H48","A2Y7L7R5UTQ5R2","3FW4EL5A3LANKRP91N782LFHPY722Q","","855","img/animal6.png","74","856","1","1","2","0.7,0,0.8,0.7,0.8,0,0.7,0.8,0",""
"","html-keyboard-response","171","151422","0.0-171.0","352YTHGROWZ3OF58FOY57NE5271H48","A2Y7L7R5UTQ5R2","3FW4EL5A3LANKRP91N782LFHPY722Q","","null","<img src=""img/animal6.png"" style=""width:200px; border:14px solid green;"">","null","","","","","",""
"","image-keyboard-response","172","153282","0.0-172.0","352YTHGROWZ3OF58FOY57NE5271H48","A2Y7L7R5UTQ5R2","3FW4EL5A3LANKRP91N782LFHPY722Q","","1848","img/animal5.png","75","1849","2","1","3","0.7,0,0.8,0.7,0.8,0,0.7,0.8,0",""
"","html-keyboard-response","173","153584","0.0-173.0","352YTHGROWZ3OF58FOY57NE5271H48","A2Y7L7R5UTQ5R2","3FW4EL5A3LANKRP91N782LFHPY722Q","","null","<img src=""img/animal5.png"" style=""width:200px; border:14px solid green;"">","null","","","","","",""
"","image-keyboard-response","174","154651","0.0-174.0","352YTHGROWZ3OF58FOY57NE5271H48","A2Y7L7R5UTQ5R2","3FW4EL5A3LANKRP91N782LFHPY722Q","","1067","img/animal6.png","74","1067","1","0","2","0.7,0,0.8,0.7,0.8,0,0.7,0.8,0",""
"","html-keyboard-response","175","154954","0.0-175.0","352YTHGROWZ3OF58FOY57NE5271H48","A2Y7L7R5UTQ5R2","3FW4EL5A3LANKRP91N782LFHPY722Q","","null","<img src=""img/animal6.png"" style=""width:200px;border:14px solid red;"">","null","","","","","",""
"","image-keyboard-response","176","155711","0.0-176.0","352YTHGROWZ3OF58FOY57NE5271H48","A2Y7L7R5UTQ5R2","3FW4EL5A3LANKRP91N782LFHPY722Q","","756","img/animal5.png","75","757","2","0","3","0.7,0,0.8,0.7,0.8,0,0.7,0.8,0",""
"","html-keyboard-response","177","156012","0.0-177.0","352YTHGROWZ3OF58FOY57NE5271H48","A2Y7L7R5UTQ5R2","3FW4EL5A3LANKRP91N782LFHPY722Q","","null","<img src=""img/animal5.png"" style=""width:200px;border:14px solid red;"">","null","","","","","",""
"","image-keyboard-response","178","156669","0.0-178.0","352YTHGROWZ3OF58FOY57NE5271H48","A2Y7L7R5UTQ5R2","3FW4EL5A3LANKRP91N782LFHPY722Q","","656","img/animal3.png","74","657","1","0","1","0.7,0,0.8,0.7,0.8,0,0.7,0.8,0",""
"","html-keyboard-response","179","156971","0.0-179.0","352YTHGROWZ3OF58FOY57NE5271H48","A2Y7L7R5UTQ5R2","3FW4EL5A3LANKRP91N782LFHPY722Q","","null","<img src=""img/animal3.png"" style=""width:200px;border:14px solid red;"">","null","","","","","",""
"","image-keyboard-response","180","157611","0.0-180.0","352YTHGROWZ3OF58FOY57NE5271H48","A2Y7L7R5UTQ5R2","3FW4EL5A3LANKRP91N782LFHPY722Q","","639","img/animal5.png","76","640","3","0","3","0.7,0,0.8,0.7,0.8,0,0.7,0.8,0",""
"","html-keyboard-response","181","157931","0.0-181.0","352YTHGROWZ3OF58FOY57NE5271H48","A2Y7L7R5UTQ5R2","3FW4EL5A3LANKRP91N782LFHPY722Q","","null","<img src=""img/animal5.png"" style=""width:200px;border:14px solid red;"">","null","","","","","",""
"","html-keyboard-response","182","161132","0.0-182.0","352YTHGROWZ3OF58FOY57NE5271H48","A2Y7L7R5UTQ5R2","3FW4EL5A3LANKRP91N782LFHPY722Q","","","","","","","","","",""
"","image-keyboard-response","183","163470","0.0-183.0","352YTHGROWZ3OF58FOY57NE5271H48","A2Y7L7R5UTQ5R2","3FW4EL5A3LANKRP91N782LFHPY722Q","","2335","img/animal4.png","74","2337","1","1","2","0.5,0,1,1,0.5,0,0,1,0.5",""
"","html-keyboard-response","184","163773","0.0-184.0","352YTHGROWZ3OF58FOY57NE5271H48","A2Y7L7R5UTQ5R2","3FW4EL5A3LANKRP91N782LFHPY722Q","","null","<img src=""img/animal4.png"" style=""width:200px; border:14px solid green;"">","null","","","","","",""
"","image-keyboard-response","185","164548","0.0-185.0","352YTHGROWZ3OF58FOY57NE5271H48","A2Y7L7R5UTQ5R2","3FW4EL5A3LANKRP91N782LFHPY722Q","","773","img/animal4.png","75","775","2","1","2","0.5,0,1,1,0.5,0,0,1,0.5",""
"","html-keyboard-response","186","164850","0.0-186.0","352YTHGROWZ3OF58FOY57NE5271H48","A2Y7L7R5UTQ5R2","3FW4EL5A3LANKRP91N782LFHPY722Q","","null","<img src=""img/animal4.png"" style=""width:200px; border:14px solid green;"">","null","","","","","",""
"","image-keyboard-response","187","165512","0.0-187.0","352YTHGROWZ3OF58FOY57NE5271H48","A2Y7L7R5UTQ5R2","3FW4EL5A3LANKRP91N782LFHPY722Q","","661","img/animal1.png","74","662","1","0","3","0.5,0,1,1,0.5,0,0,1,0.5",""
"","html-keyboard-response","188","165814","0.0-188.0","352YTHGROWZ3OF58FOY57NE5271H48","A2Y7L7R5UTQ5R2","3FW4EL5A3LANKRP91N782LFHPY722Q","","null","<img src=""img/animal1.png"" style=""width:200px;border:14px solid red;"">","null","","","","","",""
"","image-keyboard-response","189","166537","0.0-189.0","352YTHGROWZ3OF58FOY57NE5271H48","A2Y7L7R5UTQ5R2","3FW4EL5A3LANKRP91N782LFHPY722Q","","722","img/animal4.png","74","722","1","1","2","0.5,0,1,1,0.5,0,0,1,0.5",""
"","html-keyboard-response","190","166840","0.0-190.0","352YTHGROWZ3OF58FOY57NE5271H48","A2Y7L7R5UTQ5R2","3FW4EL5A3LANKRP91N782LFHPY722Q","","null","<img src=""img/animal4.png"" style=""width:200px; border:14px solid green;"">","null","","","","","",""
"","image-keyboard-response","191","167554","0.0-191.0","352YTHGROWZ3OF58FOY57NE5271H48","A2Y7L7R5UTQ5R2","3FW4EL5A3LANKRP91N782LFHPY722Q","","712","img/animal1.png","75","714","2","1","3","0.5,0,1,1,0.5,0,0,1,0.5",""
"","html-keyboard-response","192","167857","0.0-192.0","352YTHGROWZ3OF58FOY57NE5271H48","A2Y7L7R5UTQ5R2","3FW4EL5A3LANKRP91N782LFHPY722Q","","null","<img src=""img/animal1.png"" style=""width:200px; border:14px solid green;"">","null","","","","","",""
"","image-keyboard-response","193","168460","0.0-193.0","352YTHGROWZ3OF58FOY57NE5271H48","A2Y7L7R5UTQ5R2","3FW4EL5A3LANKRP91N782LFHPY722Q","","601","img/animal4.png","76","603","3","0","2","0.5,0,1,1,0.5,0,0,1,0.5",""
"","html-keyboard-response","194","168761","0.0-194.0","352YTHGROWZ3OF58FOY57NE5271H48","A2Y7L7R5UTQ5R2","3FW4EL5A3LANKRP91N782LFHPY722Q","","null","<img src=""img/animal4.png"" style=""width:200px;border:14px solid red;"">","null","","","","","",""
"","image-keyboard-response","195","169387","0.0-195.0","352YTHGROWZ3OF58FOY57NE5271H48","A2Y7L7R5UTQ5R2","3FW4EL5A3LANKRP91N782LFHPY722Q","","624","img/animal2.png","75","626","2","0","1","0.5,0,1,1,0.5,0,0,1,0.5",""
"","html-keyboard-response","196","169690","0.0-196.0","352YTHGROWZ3OF58FOY57NE5271H48","A2Y7L7R5UTQ5R2","3FW4EL5A3LANKRP91N782LFHPY722Q","","null","<img src=""img/animal2.png"" style=""width:200px;border:14px solid red;"">","null","","","","","",""
"","image-keyboard-response","197","170338","0.0-197.0","352YTHGROWZ3OF58FOY57NE5271H48","A2Y7L7R5UTQ5R2","3FW4EL5A3LANKRP91N782LFHPY722Q","","646","img/animal2.png","74","648","1","1","1","0.5,0,1,1,0.5,0,0,1,0.5",""
"","html-keyboard-response","198","170639","0.0-198.0","352YTHGROWZ3OF58FOY57NE5271H48","A2Y7L7R5UTQ5R2","3FW4EL5A3LANKRP91N782LFHPY722Q","","null","<img src=""img/animal2.png"" style=""width:200px; border:14px solid green;"">","null","","","","","",""
"","image-keyboard-response","199","171380","0.0-199.0","352YTHGROWZ3OF58FOY57NE5271H48","A2Y7L7R5UTQ5R2","3FW4EL5A3LANKRP91N782LFHPY722Q","","740","img/animal2.png","74","741","1","0","1","0.5,0,1,1,0.5,0,0,1,0.5",""
"","html-keyboard-response","200","171683","0.0-200.0","352YTHGROWZ3OF58FOY57NE5271H48","A2Y7L7R5UTQ5R2","3FW4EL5A3LANKRP91N782LFHPY722Q","","null","<img src=""img/animal2.png"" style=""width:200px;border:14px solid red;"">","null","","","","","",""
"","image-keyboard-response","201","172227","0.0-201.0","352YTHGROWZ3OF58FOY57NE5271H48","A2Y7L7R5UTQ5R2","3FW4EL5A3LANKRP91N782LFHPY722Q","","543","img/animal2.png","75","544","2","0","1","0.5,0,1,1,0.5,0,0,1,0.5",""
"","html-keyboard-response","202","172531","0.0-202.0","352YTHGROWZ3OF58FOY57NE5271H48","A2Y7L7R5UTQ5R2","3FW4EL5A3LANKRP91N782LFHPY722Q","","null","<img src=""img/animal2.png"" style=""width:200px;border:14px solid red;"">","null","","","","","",""
"","image-keyboard-response","203","173254","0.0-203.0","352YTHGROWZ3OF58FOY57NE5271H48","A2Y7L7R5UTQ5R2","3FW4EL5A3LANKRP91N782LFHPY722Q","","723","img/animal1.png","75","723","2","1","3","0.5,0,1,1,0.5,0,0,1,0.5",""
"","html-keyboard-response","204","173557","0.0-204.0","352YTHGROWZ3OF58FOY57NE5271H48","A2Y7L7R5UTQ5R2","3FW4EL5A3LANKRP91N782LFHPY722Q","","null","<img src=""img/animal1.png"" style=""width:200px; border:14px solid green;"">","null","","","","","",""
"","image-keyboard-response","205","174168","0.0-205.0","352YTHGROWZ3OF58FOY57NE5271H48","A2Y7L7R5UTQ5R2","3FW4EL5A3LANKRP91N782LFHPY722Q","","610","img/animal4.png","75","611","2","1","2","0.5,0,1,1,0.5,0,0,1,0.5",""
"","html-keyboard-response","206","174470","0.0-206.0","352YTHGROWZ3OF58FOY57NE5271H48","A2Y7L7R5UTQ5R2","3FW4EL5A3LANKRP91N782LFHPY722Q","","null","<img src=""img/animal4.png"" style=""width:200px; border:14px solid green;"">","null","","","","","",""
"","image-keyboard-response","207","175615","0.0-207.0","352YTHGROWZ3OF58FOY57NE5271H48","A2Y7L7R5UTQ5R2","3FW4EL5A3LANKRP91N782LFHPY722Q","","1144","img/animal2.png","75","1145","2","0","1","0.5,0,1,1,0.5,0,0,1,0.5",""
"","html-keyboard-response","208","175917","0.0-208.0","352YTHGROWZ3OF58FOY57NE5271H48","A2Y7L7R5UTQ5R2","3FW4EL5A3LANKRP91N782LFHPY722Q","","null","<img src=""img/animal2.png"" style=""width:200px;border:14px solid red;"">","null","","","","","",""
"","image-keyboard-response","209","176490","0.0-209.0","352YTHGROWZ3OF58FOY57NE5271H48","A2Y7L7R5UTQ5R2","3FW4EL5A3LANKRP91N782LFHPY722Q","","572","img/animal1.png","75","573","2","1","3","0.5,0,1,1,0.5,0,0,1,0.5",""
"","html-keyboard-response","210","176792","0.0-210.0","352YTHGROWZ3OF58FOY57NE5271H48","A2Y7L7R5UTQ5R2","3FW4EL5A3LANKRP91N782LFHPY722Q","","null","<img src=""img/animal1.png"" style=""width:200px; border:14px solid green;"">","null","","","","","",""
"","image-keyboard-response","211","177521","0.0-211.0","352YTHGROWZ3OF58FOY57NE5271H48","A2Y7L7R5UTQ5R2","3FW4EL5A3LANKRP91N782LFHPY722Q","","729","img/animal2.png","74","729","1","0","1","0.5,0,1,1,0.5,0,0,1,0.5",""
"","html-keyboard-response","212","177826","0.0-212.0","352YTHGROWZ3OF58FOY57NE5271H48","A2Y7L7R5UTQ5R2","3FW4EL5A3LANKRP91N782LFHPY722Q","","null","<img src=""img/animal2.png"" style=""width:200px;border:14px solid red;"">","null","","","","","",""
"","image-keyboard-response","213","178476","0.0-213.0","352YTHGROWZ3OF58FOY57NE5271H48","A2Y7L7R5UTQ5R2","3FW4EL5A3LANKRP91N782LFHPY722Q","","649","img/animal1.png","75","650","2","1","3","0.5,0,1,1,0.5,0,0,1,0.5",""
"","html-keyboard-response","214","178779","0.0-214.0","352YTHGROWZ3OF58FOY57NE5271H48","A2Y7L7R5UTQ5R2","3FW4EL5A3LANKRP91N782LFHPY722Q","","null","<img src=""img/animal1.png"" style=""width:200px; border:14px solid green;"">","null","","","","","",""
"","image-keyboard-response","215","179436","0.0-215.0","352YTHGROWZ3OF58FOY57NE5271H48","A2Y7L7R5UTQ5R2","3FW4EL5A3LANKRP91N782LFHPY722Q","","655","img/animal1.png","76","657","3","0","3","0.5,0,1,1,0.5,0,0,1,0.5",""
"","html-keyboard-response","216","179739","0.0-216.0","352YTHGROWZ3OF58FOY57NE5271H48","A2Y7L7R5UTQ5R2","3FW4EL5A3LANKRP91N782LFHPY722Q","","null","<img src=""img/animal1.png"" style=""width:200px;border:14px solid red;"">","null","","","","","",""
"","image-keyboard-response","217","180319","0.0-217.0","352YTHGROWZ3OF58FOY57NE5271H48","A2Y7L7R5UTQ5R2","3FW4EL5A3LANKRP91N782LFHPY722Q","","579","img/animal1.png","75","580","2","1","3","0.5,0,1,1,0.5,0,0,1,0.5",""
"","html-keyboard-response","218","180622","0.0-218.0","352YTHGROWZ3OF58FOY57NE5271H48","A2Y7L7R5UTQ5R2","3FW4EL5A3LANKRP91N782LFHPY722Q","","null","<img src=""img/animal1.png"" style=""width:200px; border:14px solid green;"">","null","","","","","",""
"","image-keyboard-response","219","181156","0.0-219.0","352YTHGROWZ3OF58FOY57NE5271H48","A2Y7L7R5UTQ5R2","3FW4EL5A3LANKRP91N782LFHPY722Q","","532","img/animal2.png","74","534","1","0","1","0.5,0,1,1,0.5,0,0,1,0.5",""
"","html-keyboard-response","220","181458","0.0-220.0","352YTHGROWZ3OF58FOY57NE5271H48","A2Y7L7R5UTQ5R2","3FW4EL5A3LANKRP91N782LFHPY722Q","","null","<img src=""img/animal2.png"" style=""width:200px;border:14px solid red;"">","null","","","","","",""
"","image-keyboard-response","221","181923","0.0-221.0","352YTHGROWZ3OF58FOY57NE5271H48","A2Y7L7R5UTQ5R2","3FW4EL5A3LANKRP91N782LFHPY722Q","","463","img/animal1.png","74","465","1","0","3","0.5,0,1,1,0.5,0,0,1,0.5",""
"","html-keyboard-response","222","182224","0.0-222.0","352YTHGROWZ3OF58FOY57NE5271H48","A2Y7L7R5UTQ5R2","3FW4EL5A3LANKRP91N782LFHPY722Q","","null","<img src=""img/animal1.png"" style=""width:200px;border:14px solid red;"">","null","","","","","",""
"","image-keyboard-response","223","183186","0.0-223.0","352YTHGROWZ3OF58FOY57NE5271H48","A2Y7L7R5UTQ5R2","3FW4EL5A3LANKRP91N782LFHPY722Q","","961","img/animal1.png","75","962","2","1","3","0.5,0,1,1,0.5,0,0,1,0.5",""
"","html-keyboard-response","224","183488","0.0-224.0","352YTHGROWZ3OF58FOY57NE5271H48","A2Y7L7R5UTQ5R2","3FW4EL5A3LANKRP91N782LFHPY722Q","","null","<img src=""img/animal1.png"" style=""width:200px; border:14px solid green;"">","null","","","","","",""
"","image-keyboard-response","225","184128","0.0-225.0","352YTHGROWZ3OF58FOY57NE5271H48","A2Y7L7R5UTQ5R2","3FW4EL5A3LANKRP91N782LFHPY722Q","","639","img/animal4.png","75","640","2","1","2","0.5,0,1,1,0.5,0,0,1,0.5",""
"","html-keyboard-response","226","184430","0.0-226.0","352YTHGROWZ3OF58FOY57NE5271H48","A2Y7L7R5UTQ5R2","3FW4EL5A3LANKRP91N782LFHPY722Q","","null","<img src=""img/animal4.png"" style=""width:200px; border:14px solid green;"">","null","","","","","",""
"","image-keyboard-response","227","185076","0.0-227.0","352YTHGROWZ3OF58FOY57NE5271H48","A2Y7L7R5UTQ5R2","3FW4EL5A3LANKRP91N782LFHPY722Q","","645","img/animal2.png","75","646","2","0","1","0.5,0,1,1,0.5,0,0,1,0.5",""
"","html-keyboard-response","228","185378","0.0-228.0","352YTHGROWZ3OF58FOY57NE5271H48","A2Y7L7R5UTQ5R2","3FW4EL5A3LANKRP91N782LFHPY722Q","","null","<img src=""img/animal2.png"" style=""width:200px;border:14px solid red;"">","null","","","","","",""
"","image-keyboard-response","229","186023","0.0-229.0","352YTHGROWZ3OF58FOY57NE5271H48","A2Y7L7R5UTQ5R2","3FW4EL5A3LANKRP91N782LFHPY722Q","","643","img/animal4.png","74","645","1","1","2","0.5,0,1,1,0.5,0,0,1,0.5",""
"","html-keyboard-response","230","186330","0.0-230.0","352YTHGROWZ3OF58FOY57NE5271H48","A2Y7L7R5UTQ5R2","3FW4EL5A3LANKRP91N782LFHPY722Q","","null","<img src=""img/animal4.png"" style=""width:200px; border:14px solid green;"">","null","","","","","",""
"","image-keyboard-response","231","186991","0.0-231.0","352YTHGROWZ3OF58FOY57NE5271H48","A2Y7L7R5UTQ5R2","3FW4EL5A3LANKRP91N782LFHPY722Q","","659","img/animal4.png","74","661","1","1","2","0.5,0,1,1,0.5,0,0,1,0.5",""
"","html-keyboard-response","232","187293","0.0-232.0","352YTHGROWZ3OF58FOY57NE5271H48","A2Y7L7R5UTQ5R2","3FW4EL5A3LANKRP91N782LFHPY722Q","","null","<img src=""img/animal4.png"" style=""width:200px; border:14px solid green;"">","null","","","","","",""
"","image-keyboard-response","233","187788","0.0-233.0","352YTHGROWZ3OF58FOY57NE5271H48","A2Y7L7R5UTQ5R2","3FW4EL5A3LANKRP91N782LFHPY722Q","","494","img/animal4.png","74","495","1","1","2","0.5,0,1,1,0.5,0,0,1,0.5",""
"","html-keyboard-response","234","188093","0.0-234.0","352YTHGROWZ3OF58FOY57NE5271H48","A2Y7L7R5UTQ5R2","3FW4EL5A3LANKRP91N782LFHPY722Q","","null","<img src=""img/animal4.png"" style=""width:200px; border:14px solid green;"">","null","","","","","",""
"","image-keyboard-response","235","188677","0.0-235.0","352YTHGROWZ3OF58FOY57NE5271H48","A2Y7L7R5UTQ5R2","3FW4EL5A3LANKRP91N782LFHPY722Q","","582","img/animal4.png","75","584","2","0","2","0.5,0,1,1,0.5,0,0,1,0.5",""
"","html-keyboard-response","236","188978","0.0-236.0","352YTHGROWZ3OF58FOY57NE5271H48","A2Y7L7R5UTQ5R2","3FW4EL5A3LANKRP91N782LFHPY722Q","","null","<img src=""img/animal4.png"" style=""width:200px;border:14px solid red;"">","null","","","","","",""
"","image-keyboard-response","237","189513","0.0-237.0","352YTHGROWZ3OF58FOY57NE5271H48","A2Y7L7R5UTQ5R2","3FW4EL5A3LANKRP91N782LFHPY722Q","","534","img/animal1.png","75","535","2","1","3","0.5,0,1,1,0.5,0,0,1,0.5",""
"","html-keyboard-response","238","189816","0.0-238.0","352YTHGROWZ3OF58FOY57NE5271H48","A2Y7L7R5UTQ5R2","3FW4EL5A3LANKRP91N782LFHPY722Q","","null","<img src=""img/animal1.png"" style=""width:200px; border:14px solid green;"">","null","","","","","",""
"","image-keyboard-response","239","190916","0.0-239.0","352YTHGROWZ3OF58FOY57NE5271H48","A2Y7L7R5UTQ5R2","3FW4EL5A3LANKRP91N782LFHPY722Q","","1098","img/animal1.png","76","1100","3","1","3","0.5,0,1,1,0.5,0,0,1,0.5",""
"","html-keyboard-response","240","191217","0.0-240.0","352YTHGROWZ3OF58FOY57NE5271H48","A2Y7L7R5UTQ5R2","3FW4EL5A3LANKRP91N782LFHPY722Q","","null","<img src=""img/animal1.png"" style=""width:200px; border:14px solid green;"">","null","","","","","",""
"","image-keyboard-response","241","191540","0.0-241.0","352YTHGROWZ3OF58FOY57NE5271H48","A2Y7L7R5UTQ5R2","3FW4EL5A3LANKRP91N782LFHPY722Q","","322","img/animal1.png","75","324","2","1","3","0.5,0,1,1,0.5,0,0,1,0.5",""
"","html-keyboard-response","242","191842","0.0-242.0","352YTHGROWZ3OF58FOY57NE5271H48","A2Y7L7R5UTQ5R2","3FW4EL5A3LANKRP91N782LFHPY722Q","","null","<img src=""img/animal1.png"" style=""width:200px; border:14px solid green;"">","null","","","","","",""
"","image-keyboard-response","243","192214","0.0-243.0","352YTHGROWZ3OF58FOY57NE5271H48","A2Y7L7R5UTQ5R2","3FW4EL5A3LANKRP91N782LFHPY722Q","","372","img/animal2.png","75","372","2","0","1","0.5,0,1,1,0.5,0,0,1,0.5",""
"","html-keyboard-response","244","192516","0.0-244.0","352YTHGROWZ3OF58FOY57NE5271H48","A2Y7L7R5UTQ5R2","3FW4EL5A3LANKRP91N782LFHPY722Q","","null","<img src=""img/animal2.png"" style=""width:200px;border:14px solid red;"">","null","","","","","",""
"","image-keyboard-response","245","192839","0.0-245.0","352YTHGROWZ3OF58FOY57NE5271H48","A2Y7L7R5UTQ5R2","3FW4EL5A3LANKRP91N782LFHPY722Q","","323","img/animal2.png","74","324","1","1","1","0.5,0,1,1,0.5,0,0,1,0.5",""
"","html-keyboard-response","246","193141","0.0-246.0","352YTHGROWZ3OF58FOY57NE5271H48","A2Y7L7R5UTQ5R2","3FW4EL5A3LANKRP91N782LFHPY722Q","","null","<img src=""img/animal2.png"" style=""width:200px; border:14px solid green;"">","null","","","","","",""
"","image-keyboard-response","247","193226","0.0-247.0","352YTHGROWZ3OF58FOY57NE5271H48","A2Y7L7R5UTQ5R2","3FW4EL5A3LANKRP91N782LFHPY722Q","","84","img/animal1.png","74","85","1","0","3","0.5,0,1,1,0.5,0,0,1,0.5",""
"","html-keyboard-response","248","193529","0.0-248.0","352YTHGROWZ3OF58FOY57NE5271H48","A2Y7L7R5UTQ5R2","3FW4EL5A3LANKRP91N782LFHPY722Q","","null","<img src=""img/animal1.png"" style=""width:200px;border:14px solid red;"">","null","","","","","",""
"","image-keyboard-response","249","194539","0.0-249.0","352YTHGROWZ3OF58FOY57NE5271H48","A2Y7L7R5UTQ5R2","3FW4EL5A3LANKRP91N782LFHPY722Q","","1009","img/animal2.png","74","1010","1","1","1","0.5,0,1,1,0.5,0,0,1,0.5",""
"","html-keyboard-response","250","194841","0.0-250.0","352YTHGROWZ3OF58FOY57NE5271H48","A2Y7L7R5UTQ5R2","3FW4EL5A3LANKRP91N782LFHPY722Q","","null","<img src=""img/animal2.png"" style=""width:200px; border:14px solid green;"">","null","","","","","",""
"","image-keyboard-response","251","195412","0.0-251.0","352YTHGROWZ3OF58FOY57NE5271H48","A2Y7L7R5UTQ5R2","3FW4EL5A3LANKRP91N782LFHPY722Q","","571","img/animal4.png","75","571","2","0","2","0.5,0,1,1,0.5,0,0,1,0.5",""
"","html-keyboard-response","252","195714","0.0-252.0","352YTHGROWZ3OF58FOY57NE5271H48","A2Y7L7R5UTQ5R2","3FW4EL5A3LANKRP91N782LFHPY722Q","","null","<img src=""img/animal4.png"" style=""width:200px;border:14px solid red;"">","null","","","","","",""
"","image-keyboard-response","253","196530","0.0-253.0","352YTHGROWZ3OF58FOY57NE5271H48","A2Y7L7R5UTQ5R2","3FW4EL5A3LANKRP91N782LFHPY722Q","","814","img/animal1.png","75","816","2","1","3","0.5,0,1,1,0.5,0,0,1,0.5",""
"","html-keyboard-response","254","196834","0.0-254.0","352YTHGROWZ3OF58FOY57NE5271H48","A2Y7L7R5UTQ5R2","3FW4EL5A3LANKRP91N782LFHPY722Q","","null","<img src=""img/animal1.png"" style=""width:200px; border:14px solid green;"">","null","","","","","",""
"","image-keyboard-response","255","203463","0.0-255.0","352YTHGROWZ3OF58FOY57NE5271H48","A2Y7L7R5UTQ5R2","3FW4EL5A3LANKRP91N782LFHPY722Q","","6628","img/animal4.png","74","6629","1","1","2","0.5,0,1,1,0.5,0,0,1,0.5",""
"","html-keyboard-response","256","203765","0.0-256.0","352YTHGROWZ3OF58FOY57NE5271H48","A2Y7L7R5UTQ5R2","3FW4EL5A3LANKRP91N782LFHPY722Q","","null","<img src=""img/animal4.png"" style=""width:200px; border:14px solid green;"">","null","","","","","",""
"","image-keyboard-response","257","204456","0.0-257.0","352YTHGROWZ3OF58FOY57NE5271H48","A2Y7L7R5UTQ5R2","3FW4EL5A3LANKRP91N782LFHPY722Q","","691","img/animal2.png","75","692","2","0","1","0.5,0,1,1,0.5,0,0,1,0.5",""
"","html-keyboard-response","258","204758","0.0-258.0","352YTHGROWZ3OF58FOY57NE5271H48","A2Y7L7R5UTQ5R2","3FW4EL5A3LANKRP91N782LFHPY722Q","","null","<img src=""img/animal2.png"" style=""width:200px;border:14px solid red;"">","null","","","","","",""
"","image-keyboard-response","259","205067","0.0-259.0","352YTHGROWZ3OF58FOY57NE5271H48","A2Y7L7R5UTQ5R2","3FW4EL5A3LANKRP91N782LFHPY722Q","","307","img/animal4.png","76","309","3","0","2","0.5,0,1,1,0.5,0,0,1,0.5",""
"","html-keyboard-response","260","205368","0.0-260.0","352YTHGROWZ3OF58FOY57NE5271H48","A2Y7L7R5UTQ5R2","3FW4EL5A3LANKRP91N782LFHPY722Q","","null","<img src=""img/animal4.png"" style=""width:200px;border:14px solid red;"">","null","","","","","",""
"","image-keyboard-response","261","205764","0.0-261.0","352YTHGROWZ3OF58FOY57NE5271H48","A2Y7L7R5UTQ5R2","3FW4EL5A3LANKRP91N782LFHPY722Q","","394","img/animal2.png","75","396","2","0","1","0.5,0,1,1,0.5,0,0,1,0.5",""
"","html-keyboard-response","262","206065","0.0-262.0","352YTHGROWZ3OF58FOY57NE5271H48","A2Y7L7R5UTQ5R2","3FW4EL5A3LANKRP91N782LFHPY722Q","","null","<img src=""img/animal2.png"" style=""width:200px;border:14px solid red;"">","null","","","","","",""
"","image-keyboard-response","263","206326","0.0-263.0","352YTHGROWZ3OF58FOY57NE5271H48","A2Y7L7R5UTQ5R2","3FW4EL5A3LANKRP91N782LFHPY722Q","","260","img/animal4.png","74","260","1","1","2","0.5,0,1,1,0.5,0,0,1,0.5",""
"","html-keyboard-response","264","206628","0.0-264.0","352YTHGROWZ3OF58FOY57NE5271H48","A2Y7L7R5UTQ5R2","3FW4EL5A3LANKRP91N782LFHPY722Q","","null","<img src=""img/animal4.png"" style=""width:200px; border:14px solid green;"">","null","","","","","",""
"","image-keyboard-response","265","206845","0.0-265.0","352YTHGROWZ3OF58FOY57NE5271H48","A2Y7L7R5UTQ5R2","3FW4EL5A3LANKRP91N782LFHPY722Q","","216","img/animal2.png","75","217","2","0","1","0.5,0,1,1,0.5,0,0,1,0.5",""
"","html-keyboard-response","266","207149","0.0-266.0","352YTHGROWZ3OF58FOY57NE5271H48","A2Y7L7R5UTQ5R2","3FW4EL5A3LANKRP91N782LFHPY722Q","","null","<img src=""img/animal2.png"" style=""width:200px;border:14px solid red;"">","null","","","","","",""
"","image-keyboard-response","267","207359","0.0-267.0","352YTHGROWZ3OF58FOY57NE5271H48","A2Y7L7R5UTQ5R2","3FW4EL5A3LANKRP91N782LFHPY722Q","","208","img/animal1.png","75","210","2","1","3","0.5,0,1,1,0.5,0,0,1,0.5",""
"","html-keyboard-response","268","207662","0.0-268.0","352YTHGROWZ3OF58FOY57NE5271H48","A2Y7L7R5UTQ5R2","3FW4EL5A3LANKRP91N782LFHPY722Q","","null","<img src=""img/animal1.png"" style=""width:200px; border:14px solid green;"">","null","","","","","",""
"","image-keyboard-response","269","207808","0.0-269.0","352YTHGROWZ3OF58FOY57NE5271H48","A2Y7L7R5UTQ5R2","3FW4EL5A3LANKRP91N782LFHPY722Q","","146","img/animal4.png","75","146","2","0","2","0.5,0,1,1,0.5,0,0,1,0.5",""
"","html-keyboard-response","270","208137","0.0-270.0","352YTHGROWZ3OF58FOY57NE5271H48","A2Y7L7R5UTQ5R2","3FW4EL5A3LANKRP91N782LFHPY722Q","","null","<img src=""img/animal4.png"" style=""width:200px;border:14px solid red;"">","null","","","","","",""
"","image-keyboard-response","271","208985","0.0-271.0","352YTHGROWZ3OF58FOY57NE5271H48","A2Y7L7R5UTQ5R2","3FW4EL5A3LANKRP91N782LFHPY722Q","","847","img/animal4.png","76","847","3","0","2","0.5,0,1,1,0.5,0,0,1,0.5",""
"","html-keyboard-response","272","209288","0.0-272.0","352YTHGROWZ3OF58FOY57NE5271H48","A2Y7L7R5UTQ5R2","3FW4EL5A3LANKRP91N782LFHPY722Q","","null","<img src=""img/animal4.png"" style=""width:200px;border:14px solid red;"">","null","","","","","",""
"","image-keyboard-response","273","209386","0.0-273.0","352YTHGROWZ3OF58FOY57NE5271H48","A2Y7L7R5UTQ5R2","3FW4EL5A3LANKRP91N782LFHPY722Q","","96","img/animal4.png","75","98","2","1","2","0.5,0,1,1,0.5,0,0,1,0.5",""
"","html-keyboard-response","274","209738","0.0-274.0","352YTHGROWZ3OF58FOY57NE5271H48","A2Y7L7R5UTQ5R2","3FW4EL5A3LANKRP91N782LFHPY722Q","","null","<img src=""img/animal4.png"" style=""width:200px; border:14px solid green;"">","null","","","","","",""
"","image-keyboard-response","275","209924","0.0-275.0","352YTHGROWZ3OF58FOY57NE5271H48","A2Y7L7R5UTQ5R2","3FW4EL5A3LANKRP91N782LFHPY722Q","","186","img/animal1.png","75","186","2","1","3","0.5,0,1,1,0.5,0,0,1,0.5",""
"","html-keyboard-response","276","210229","0.0-276.0","352YTHGROWZ3OF58FOY57NE5271H48","A2Y7L7R5UTQ5R2","3FW4EL5A3LANKRP91N782LFHPY722Q","","null","<img src=""img/animal1.png"" style=""width:200px; border:14px solid green;"">","null","","","","","",""
"","image-keyboard-response","277","211404","0.0-277.0","352YTHGROWZ3OF58FOY57NE5271H48","A2Y7L7R5UTQ5R2","3FW4EL5A3LANKRP91N782LFHPY722Q","","1172","img/animal1.png","75","1174","2","1","3","0.5,0,1,1,0.5,0,0,1,0.5",""
"","html-keyboard-response","278","211706","0.0-278.0","352YTHGROWZ3OF58FOY57NE5271H48","A2Y7L7R5UTQ5R2","3FW4EL5A3LANKRP91N782LFHPY722Q","","null","<img src=""img/animal1.png"" style=""width:200px; border:14px solid green;"">","null","","","","","",""
"","image-keyboard-response","279","212299","0.0-279.0","352YTHGROWZ3OF58FOY57NE5271H48","A2Y7L7R5UTQ5R2","3FW4EL5A3LANKRP91N782LFHPY722Q","","593","img/animal4.png","75","593","2","0","2","0.5,0,1,1,0.5,0,0,1,0.5",""
"","html-keyboard-response","280","212602","0.0-280.0","352YTHGROWZ3OF58FOY57NE5271H48","A2Y7L7R5UTQ5R2","3FW4EL5A3LANKRP91N782LFHPY722Q","","null","<img src=""img/animal4.png"" style=""width:200px;border:14px solid red;"">","null","","","","","",""
"","image-keyboard-response","281","213181","0.0-281.0","352YTHGROWZ3OF58FOY57NE5271H48","A2Y7L7R5UTQ5R2","3FW4EL5A3LANKRP91N782LFHPY722Q","","577","img/animal4.png","75","579","2","1","2","0.5,0,1,1,0.5,0,0,1,0.5",""
"","html-keyboard-response","282","213483","0.0-282.0","352YTHGROWZ3OF58FOY57NE5271H48","A2Y7L7R5UTQ5R2","3FW4EL5A3LANKRP91N782LFHPY722Q","","null","<img src=""img/animal4.png"" style=""width:200px; border:14px solid green;"">","null","","","","","",""
"","image-keyboard-response","283","213644","0.0-283.0","352YTHGROWZ3OF58FOY57NE5271H48","A2Y7L7R5UTQ5R2","3FW4EL5A3LANKRP91N782LFHPY722Q","","160","img/animal4.png","74","161","1","1","2","0.5,0,1,1,0.5,0,0,1,0.5",""
"","html-keyboard-response","284","213946","0.0-284.0","352YTHGROWZ3OF58FOY57NE5271H48","A2Y7L7R5UTQ5R2","3FW4EL5A3LANKRP91N782LFHPY722Q","","null","<img src=""img/animal4.png"" style=""width:200px; border:14px solid green;"">","null","","","","","",""
"","image-keyboard-response","285","214356","0.0-285.0","352YTHGROWZ3OF58FOY57NE5271H48","A2Y7L7R5UTQ5R2","3FW4EL5A3LANKRP91N782LFHPY722Q","","409","img/animal4.png","74","410","1","1","2","0.5,0,1,1,0.5,0,0,1,0.5",""
"","html-keyboard-response","286","214659","0.0-286.0","352YTHGROWZ3OF58FOY57NE5271H48","A2Y7L7R5UTQ5R2","3FW4EL5A3LANKRP91N782LFHPY722Q","","null","<img src=""img/animal4.png"" style=""width:200px; border:14px solid green;"">","null","","","","","",""
"","image-keyboard-response","287","214761","0.0-287.0","352YTHGROWZ3OF58FOY57NE5271H48","A2Y7L7R5UTQ5R2","3FW4EL5A3LANKRP91N782LFHPY722Q","","100","img/animal4.png","74","101","1","1","2","0.5,0,1,1,0.5,0,0,1,0.5",""
"","html-keyboard-response","288","215062","0.0-288.0","352YTHGROWZ3OF58FOY57NE5271H48","A2Y7L7R5UTQ5R2","3FW4EL5A3LANKRP91N782LFHPY722Q","","null","<img src=""img/animal4.png"" style=""width:200px; border:14px solid green;"">","null","","","","","",""
"","image-keyboard-response","289","215134","0.0-289.0","352YTHGROWZ3OF58FOY57NE5271H48","A2Y7L7R5UTQ5R2","3FW4EL5A3LANKRP91N782LFHPY722Q","","71","img/animal2.png","74","72","1","1","1","0.5,0,1,1,0.5,0,0,1,0.5",""
"","html-keyboard-response","290","215437","0.0-290.0","352YTHGROWZ3OF58FOY57NE5271H48","A2Y7L7R5UTQ5R2","3FW4EL5A3LANKRP91N782LFHPY722Q","","null","<img src=""img/animal2.png"" style=""width:200px; border:14px solid green;"">","null","","","","","",""
"","image-keyboard-response","291","216023","0.0-291.0","352YTHGROWZ3OF58FOY57NE5271H48","A2Y7L7R5UTQ5R2","3FW4EL5A3LANKRP91N782LFHPY722Q","","585","img/animal4.png","74","586","1","1","2","0.5,0,1,1,0.5,0,0,1,0.5",""
"","html-keyboard-response","292","216325","0.0-292.0","352YTHGROWZ3OF58FOY57NE5271H48","A2Y7L7R5UTQ5R2","3FW4EL5A3LANKRP91N782LFHPY722Q","","null","<img src=""img/animal4.png"" style=""width:200px; border:14px solid green;"">","null","","","","","",""
"","image-keyboard-response","293","216965","0.0-293.0","352YTHGROWZ3OF58FOY57NE5271H48","A2Y7L7R5UTQ5R2","3FW4EL5A3LANKRP91N782LFHPY722Q","","640","img/animal4.png","75","640","2","1","2","0.5,0,1,1,0.5,0,0,1,0.5",""
"","html-keyboard-response","294","217266","0.0-294.0","352YTHGROWZ3OF58FOY57NE5271H48","A2Y7L7R5UTQ5R2","3FW4EL5A3LANKRP91N782LFHPY722Q","","null","<img src=""img/animal4.png"" style=""width:200px; border:14px solid green;"">","null","","","","","",""
"","image-keyboard-response","295","218270","0.0-295.0","352YTHGROWZ3OF58FOY57NE5271H48","A2Y7L7R5UTQ5R2","3FW4EL5A3LANKRP91N782LFHPY722Q","","1004","img/animal2.png","75","1004","2","0","1","0.5,0,1,1,0.5,0,0,1,0.5",""
"","html-keyboard-response","296","218571","0.0-296.0","352YTHGROWZ3OF58FOY57NE5271H48","A2Y7L7R5UTQ5R2","3FW4EL5A3LANKRP91N782LFHPY722Q","","null","<img src=""img/animal2.png"" style=""width:200px;border:14px solid red;"">","null","","","","","",""
"","image-keyboard-response","297","219557","0.0-297.0","352YTHGROWZ3OF58FOY57NE5271H48","A2Y7L7R5UTQ5R2","3FW4EL5A3LANKRP91N782LFHPY722Q","","985","img/animal2.png","75","986","2","0","1","0.5,0,1,1,0.5,0,0,1,0.5",""
"","html-keyboard-response","298","219861","0.0-298.0","352YTHGROWZ3OF58FOY57NE5271H48","A2Y7L7R5UTQ5R2","3FW4EL5A3LANKRP91N782LFHPY722Q","","null","<img src=""img/animal2.png"" style=""width:200px;border:14px solid red;"">","null","","","","","",""
"","image-keyboard-response","299","219960","0.0-299.0","352YTHGROWZ3OF58FOY57NE5271H48","A2Y7L7R5UTQ5R2","3FW4EL5A3LANKRP91N782LFHPY722Q","","98","img/animal4.png","75","99","2","0","2","0.5,0,1,1,0.5,0,0,1,0.5",""
"","html-keyboard-response","300","220263","0.0-300.0","352YTHGROWZ3OF58FOY57NE5271H48","A2Y7L7R5UTQ5R2","3FW4EL5A3LANKRP91N782LFHPY722Q","","null","<img src=""img/animal4.png"" style=""width:200px;border:14px solid red;"">","null","","","","","",""
"","image-keyboard-response","301","220450","0.0-301.0","352YTHGROWZ3OF58FOY57NE5271H48","A2Y7L7R5UTQ5R2","3FW4EL5A3LANKRP91N782LFHPY722Q","","185","img/animal1.png","74","187","1","0","3","0.5,0,1,1,0.5,0,0,1,0.5",""
"","html-keyboard-response","302","220752","0.0-302.0","352YTHGROWZ3OF58FOY57NE5271H48","A2Y7L7R5UTQ5R2","3FW4EL5A3LANKRP91N782LFHPY722Q","","null","<img src=""img/animal1.png"" style=""width:200px;border:14px solid red;"">","null","","","","","",""
"","image-keyboard-response","303","220800","0.0-303.0","352YTHGROWZ3OF58FOY57NE5271H48","A2Y7L7R5UTQ5R2","3FW4EL5A3LANKRP91N782LFHPY722Q","","48","img/animal2.png","74","49","1","0","1","0.5,0,1,1,0.5,0,0,1,0.5",""
"","html-keyboard-response","304","221103","0.0-304.0","352YTHGROWZ3OF58FOY57NE5271H48","A2Y7L7R5UTQ5R2","3FW4EL5A3LANKRP91N782LFHPY722Q","","null","<img src=""img/animal2.png"" style=""width:200px;border:14px solid red;"">","null","","","","","",""
"","image-keyboard-response","305","225974","0.0-305.0","352YTHGROWZ3OF58FOY57NE5271H48","A2Y7L7R5UTQ5R2","3FW4EL5A3LANKRP91N782LFHPY722Q","","4871","img/animal1.png","74","4871","1","0","3","0.5,0,1,1,0.5,0,0,1,0.5",""
"","html-keyboard-response","306","226276","0.0-306.0","352YTHGROWZ3OF58FOY57NE5271H48","A2Y7L7R5UTQ5R2","3FW4EL5A3LANKRP91N782LFHPY722Q","","null","<img src=""img/animal1.png"" style=""width:200px;border:14px solid red;"">","null","","","","","",""
"","image-keyboard-response","307","226682","0.0-307.0","352YTHGROWZ3OF58FOY57NE5271H48","A2Y7L7R5UTQ5R2","3FW4EL5A3LANKRP91N782LFHPY722Q","","404","img/animal1.png","75","406","2","1","3","0.5,0,1,1,0.5,0,0,1,0.5",""
"","html-keyboard-response","308","226984","0.0-308.0","352YTHGROWZ3OF58FOY57NE5271H48","A2Y7L7R5UTQ5R2","3FW4EL5A3LANKRP91N782LFHPY722Q","","null","<img src=""img/animal1.png"" style=""width:200px; border:14px solid green;"">","null","","","","","",""
"","image-keyboard-response","309","227267","0.0-309.0","352YTHGROWZ3OF58FOY57NE5271H48","A2Y7L7R5UTQ5R2","3FW4EL5A3LANKRP91N782LFHPY722Q","","282","img/animal2.png","75","283","2","0","1","0.5,0,1,1,0.5,0,0,1,0.5",""
"","html-keyboard-response","310","227569","0.0-310.0","352YTHGROWZ3OF58FOY57NE5271H48","A2Y7L7R5UTQ5R2","3FW4EL5A3LANKRP91N782LFHPY722Q","","null","<img src=""img/animal2.png"" style=""width:200px;border:14px solid red;"">","null","","","","","",""
"","image-keyboard-response","311","227757","0.0-311.0","352YTHGROWZ3OF58FOY57NE5271H48","A2Y7L7R5UTQ5R2","3FW4EL5A3LANKRP91N782LFHPY722Q","","188","img/animal1.png","76","188","3","1","3","0.5,0,1,1,0.5,0,0,1,0.5",""
"","html-keyboard-response","312","228060","0.0-312.0","352YTHGROWZ3OF58FOY57NE5271H48","A2Y7L7R5UTQ5R2","3FW4EL5A3LANKRP91N782LFHPY722Q","","null","<img src=""img/animal1.png"" style=""width:200px; border:14px solid green;"">","null","","","","","",""
"","image-keyboard-response","313","228174","0.0-313.0","352YTHGROWZ3OF58FOY57NE5271H48","A2Y7L7R5UTQ5R2","3FW4EL5A3LANKRP91N782LFHPY722Q","","113","img/animal1.png","76","115","3","0","3","0.5,0,1,1,0.5,0,0,1,0.5",""
"","html-keyboard-response","314","228477","0.0-314.0","352YTHGROWZ3OF58FOY57NE5271H48","A2Y7L7R5UTQ5R2","3FW4EL5A3LANKRP91N782LFHPY722Q","","null","<img src=""img/animal1.png"" style=""width:200px;border:14px solid red;"">","null","","","","","",""
"","image-keyboard-response","315","228618","0.0-315.0","352YTHGROWZ3OF58FOY57NE5271H48","A2Y7L7R5UTQ5R2","3FW4EL5A3LANKRP91N782LFHPY722Q","","139","img/animal1.png","75","141","2","1","3","0.5,0,1,1,0.5,0,0,1,0.5",""
"","html-keyboard-response","316","228919","0.0-316.0","352YTHGROWZ3OF58FOY57NE5271H48","A2Y7L7R5UTQ5R2","3FW4EL5A3LANKRP91N782LFHPY722Q","","null","<img src=""img/animal1.png"" style=""width:200px; border:14px solid green;"">","null","","","","","",""
"","image-keyboard-response","317","230569","0.0-317.0","352YTHGROWZ3OF58FOY57NE5271H48","A2Y7L7R5UTQ5R2","3FW4EL5A3LANKRP91N782LFHPY722Q","","1648","img/animal2.png","75","1649","2","0","1","0.5,0,1,1,0.5,0,0,1,0.5",""
"","html-keyboard-response","318","230889","0.0-318.0","352YTHGROWZ3OF58FOY57NE5271H48","A2Y7L7R5UTQ5R2","3FW4EL5A3LANKRP91N782LFHPY722Q","","null","<img src=""img/animal2.png"" style=""width:200px;border:14px solid red;"">","null","","","","","",""
"","image-keyboard-response","319","232368","0.0-319.0","352YTHGROWZ3OF58FOY57NE5271H48","A2Y7L7R5UTQ5R2","3FW4EL5A3LANKRP91N782LFHPY722Q","","1478","img/animal1.png","75","1479","2","1","3","0.5,0,1,1,0.5,0,0,1,0.5",""
"","html-keyboard-response","320","232669","0.0-320.0","352YTHGROWZ3OF58FOY57NE5271H48","A2Y7L7R5UTQ5R2","3FW4EL5A3LANKRP91N782LFHPY722Q","","null","<img src=""img/animal1.png"" style=""width:200px; border:14px solid green;"">","null","","","","","",""
"","image-keyboard-response","321","232780","0.0-321.0","352YTHGROWZ3OF58FOY57NE5271H48","A2Y7L7R5UTQ5R2","3FW4EL5A3LANKRP91N782LFHPY722Q","","110","img/animal1.png","75","111","2","1","3","0.5,0,1,1,0.5,0,0,1,0.5",""
"","html-keyboard-response","322","233082","0.0-322.0","352YTHGROWZ3OF58FOY57NE5271H48","A2Y7L7R5UTQ5R2","3FW4EL5A3LANKRP91N782LFHPY722Q","","null","<img src=""img/animal1.png"" style=""width:200px; border:14px solid green;"">","null","","","","","",""
"","image-keyboard-response","323","233311","0.0-323.0","352YTHGROWZ3OF58FOY57NE5271H48","A2Y7L7R5UTQ5R2","3FW4EL5A3LANKRP91N782LFHPY722Q","","227","img/animal2.png","74","229","1","0","1","0.5,0,1,1,0.5,0,0,1,0.5",""
"","html-keyboard-response","324","233612","0.0-324.0","352YTHGROWZ3OF58FOY57NE5271H48","A2Y7L7R5UTQ5R2","3FW4EL5A3LANKRP91N782LFHPY722Q","","null","<img src=""img/animal2.png"" style=""width:200px;border:14px solid red;"">","null","","","","","",""
"","image-keyboard-response","325","233894","0.0-325.0","352YTHGROWZ3OF58FOY57NE5271H48","A2Y7L7R5UTQ5R2","3FW4EL5A3LANKRP91N782LFHPY722Q","","281","img/animal2.png","75","282","2","0","1","0.5,0,1,1,0.5,0,0,1,0.5",""
"","html-keyboard-response","326","234196","0.0-326.0","352YTHGROWZ3OF58FOY57NE5271H48","A2Y7L7R5UTQ5R2","3FW4EL5A3LANKRP91N782LFHPY722Q","","null","<img src=""img/animal2.png"" style=""width:200px;border:14px solid red;"">","null","","","","","",""
"","image-keyboard-response","327","234656","0.0-327.0","352YTHGROWZ3OF58FOY57NE5271H48","A2Y7L7R5UTQ5R2","3FW4EL5A3LANKRP91N782LFHPY722Q","","459","img/animal1.png","75","460","2","1","3","0.5,0,1,1,0.5,0,0,1,0.5",""
"","html-keyboard-response","328","234960","0.0-328.0","352YTHGROWZ3OF58FOY57NE5271H48","A2Y7L7R5UTQ5R2","3FW4EL5A3LANKRP91N782LFHPY722Q","","null","<img src=""img/animal1.png"" style=""width:200px; border:14px solid green;"">","null","","","","","",""
"","image-keyboard-response","329","235261","0.0-329.0","352YTHGROWZ3OF58FOY57NE5271H48","A2Y7L7R5UTQ5R2","3FW4EL5A3LANKRP91N782LFHPY722Q","","301","img/animal2.png","75","302","2","0","1","0.5,0,1,1,0.5,0,0,1,0.5",""
"","html-keyboard-response","330","235564","0.0-330.0","352YTHGROWZ3OF58FOY57NE5271H48","A2Y7L7R5UTQ5R2","3FW4EL5A3LANKRP91N782LFHPY722Q","","null","<img src=""img/animal2.png"" style=""width:200px;border:14px solid red;"">","null","","","","","",""
"","image-keyboard-response","331","235935","0.0-331.0","352YTHGROWZ3OF58FOY57NE5271H48","A2Y7L7R5UTQ5R2","3FW4EL5A3LANKRP91N782LFHPY722Q","","370","img/animal4.png","75","371","2","1","2","0.5,0,1,1,0.5,0,0,1,0.5",""
"","html-keyboard-response","332","236239","0.0-332.0","352YTHGROWZ3OF58FOY57NE5271H48","A2Y7L7R5UTQ5R2","3FW4EL5A3LANKRP91N782LFHPY722Q","","null","<img src=""img/animal4.png"" style=""width:200px; border:14px solid green;"">","null","","","","","",""
"","image-keyboard-response","333","236471","0.0-333.0","352YTHGROWZ3OF58FOY57NE5271H48","A2Y7L7R5UTQ5R2","3FW4EL5A3LANKRP91N782LFHPY722Q","","231","img/animal2.png","75","232","2","0","1","0.5,0,1,1,0.5,0,0,1,0.5",""
"","html-keyboard-response","334","236774","0.0-334.0","352YTHGROWZ3OF58FOY57NE5271H48","A2Y7L7R5UTQ5R2","3FW4EL5A3LANKRP91N782LFHPY722Q","","null","<img src=""img/animal2.png"" style=""width:200px;border:14px solid red;"">","null","","","","","",""
"","image-keyboard-response","335","237127","0.0-335.0","352YTHGROWZ3OF58FOY57NE5271H48","A2Y7L7R5UTQ5R2","3FW4EL5A3LANKRP91N782LFHPY722Q","","353","img/animal1.png","75","353","2","1","3","0.5,0,1,1,0.5,0,0,1,0.5",""
"","html-keyboard-response","336","237430","0.0-336.0","352YTHGROWZ3OF58FOY57NE5271H48","A2Y7L7R5UTQ5R2","3FW4EL5A3LANKRP91N782LFHPY722Q","","null","<img src=""img/animal1.png"" style=""width:200px; border:14px solid green;"">","null","","","","","",""
"","image-keyboard-response","337","237805","0.0-337.0","352YTHGROWZ3OF58FOY57NE5271H48","A2Y7L7R5UTQ5R2","3FW4EL5A3LANKRP91N782LFHPY722Q","","374","img/animal2.png","76","375","3","1","1","0.5,0,1,1,0.5,0,0,1,0.5",""
"","html-keyboard-response","338","238112","0.0-338.0","352YTHGROWZ3OF58FOY57NE5271H48","A2Y7L7R5UTQ5R2","3FW4EL5A3LANKRP91N782LFHPY722Q","","null","<img src=""img/animal2.png"" style=""width:200px; border:14px solid green;"">","null","","","","","",""
"","image-keyboard-response","339","238472","0.0-339.0","352YTHGROWZ3OF58FOY57NE5271H48","A2Y7L7R5UTQ5R2","3FW4EL5A3LANKRP91N782LFHPY722Q","","359","img/animal2.png","76","360","3","1","1","0.5,0,1,1,0.5,0,0,1,0.5",""
"","html-keyboard-response","340","238774","0.0-340.0","352YTHGROWZ3OF58FOY57NE5271H48","A2Y7L7R5UTQ5R2","3FW4EL5A3LANKRP91N782LFHPY722Q","","null","<img src=""img/animal2.png"" style=""width:200px; border:14px solid green;"">","null","","","","","",""
"","image-keyboard-response","341","239029","0.0-341.0","352YTHGROWZ3OF58FOY57NE5271H48","A2Y7L7R5UTQ5R2","3FW4EL5A3LANKRP91N782LFHPY722Q","","254","img/animal2.png","75","255","2","0","1","0.5,0,1,1,0.5,0,0,1,0.5",""
"","html-keyboard-response","342","239333","0.0-342.0","352YTHGROWZ3OF58FOY57NE5271H48","A2Y7L7R5UTQ5R2","3FW4EL5A3LANKRP91N782LFHPY722Q","","null","<img src=""img/animal2.png"" style=""width:200px;border:14px solid red;"">","null","","","","","",""
"","image-keyboard-response","343","239601","0.0-343.0","352YTHGROWZ3OF58FOY57NE5271H48","A2Y7L7R5UTQ5R2","3FW4EL5A3LANKRP91N782LFHPY722Q","","266","img/animal2.png","75","268","2","0","1","0.5,0,1,1,0.5,0,0,1,0.5",""
"","html-keyboard-response","344","239903","0.0-344.0","352YTHGROWZ3OF58FOY57NE5271H48","A2Y7L7R5UTQ5R2","3FW4EL5A3LANKRP91N782LFHPY722Q","","null","<img src=""img/animal2.png"" style=""width:200px;border:14px solid red;"">","null","","","","","",""
"","image-keyboard-response","345","240201","0.0-345.0","352YTHGROWZ3OF58FOY57NE5271H48","A2Y7L7R5UTQ5R2","3FW4EL5A3LANKRP91N782LFHPY722Q","","296","img/animal4.png","75","298","2","1","2","0.5,0,1,1,0.5,0,0,1,0.5",""
"","html-keyboard-response","346","240503","0.0-346.0","352YTHGROWZ3OF58FOY57NE5271H48","A2Y7L7R5UTQ5R2","3FW4EL5A3LANKRP91N782LFHPY722Q","","null","<img src=""img/animal4.png"" style=""width:200px; border:14px solid green;"">","null","","","","","",""
"","image-keyboard-response","347","240798","0.0-347.0","352YTHGROWZ3OF58FOY57NE5271H48","A2Y7L7R5UTQ5R2","3FW4EL5A3LANKRP91N782LFHPY722Q","","293","img/animal1.png","75","295","2","1","3","0.5,0,1,1,0.5,0,0,1,0.5",""
"","html-keyboard-response","348","241101","0.0-348.0","352YTHGROWZ3OF58FOY57NE5271H48","A2Y7L7R5UTQ5R2","3FW4EL5A3LANKRP91N782LFHPY722Q","","null","<img src=""img/animal1.png"" style=""width:200px; border:14px solid green;"">","null","","","","","",""
"","image-keyboard-response","349","241445","0.0-349.0","352YTHGROWZ3OF58FOY57NE5271H48","A2Y7L7R5UTQ5R2","3FW4EL5A3LANKRP91N782LFHPY722Q","","342","img/animal2.png","76","344","3","1","1","0.5,0,1,1,0.5,0,0,1,0.5",""
"","html-keyboard-response","350","241747","0.0-350.0","352YTHGROWZ3OF58FOY57NE5271H48","A2Y7L7R5UTQ5R2","3FW4EL5A3LANKRP91N782LFHPY722Q","","null","<img src=""img/animal2.png"" style=""width:200px; border:14px solid green;"">","null","","","","","",""
"","image-keyboard-response","351","241991","0.0-351.0","352YTHGROWZ3OF58FOY57NE5271H48","A2Y7L7R5UTQ5R2","3FW4EL5A3LANKRP91N782LFHPY722Q","","243","img/animal2.png","75","244","2","0","1","0.5,0,1,1,0.5,0,0,1,0.5",""
"","html-keyboard-response","352","242294","0.0-352.0","352YTHGROWZ3OF58FOY57NE5271H48","A2Y7L7R5UTQ5R2","3FW4EL5A3LANKRP91N782LFHPY722Q","","null","<img src=""img/animal2.png"" style=""width:200px;border:14px solid red;"">","null","","","","","",""
"","image-keyboard-response","353","242460","0.0-353.0","352YTHGROWZ3OF58FOY57NE5271H48","A2Y7L7R5UTQ5R2","3FW4EL5A3LANKRP91N782LFHPY722Q","","164","img/animal4.png","75","166","2","1","2","0.5,0,1,1,0.5,0,0,1,0.5",""
"","html-keyboard-response","354","242761","0.0-354.0","352YTHGROWZ3OF58FOY57NE5271H48","A2Y7L7R5UTQ5R2","3FW4EL5A3LANKRP91N782LFHPY722Q","","null","<img src=""img/animal4.png"" style=""width:200px; border:14px solid green;"">","null","","","","","",""
"","image-keyboard-response","355","242990","0.0-355.0","352YTHGROWZ3OF58FOY57NE5271H48","A2Y7L7R5UTQ5R2","3FW4EL5A3LANKRP91N782LFHPY722Q","","229","img/animal1.png","74","229","1","0","3","0.5,0,1,1,0.5,0,0,1,0.5",""
"","html-keyboard-response","356","243292","0.0-356.0","352YTHGROWZ3OF58FOY57NE5271H48","A2Y7L7R5UTQ5R2","3FW4EL5A3LANKRP91N782LFHPY722Q","","null","<img src=""img/animal1.png"" style=""width:200px;border:14px solid red;"">","null","","","","","",""
"","image-keyboard-response","357","243550","0.0-357.0","352YTHGROWZ3OF58FOY57NE5271H48","A2Y7L7R5UTQ5R2","3FW4EL5A3LANKRP91N782LFHPY722Q","","233","img/animal4.png","74","258","1","1","2","0.5,0,1,1,0.5,0,0,1,0.5",""
"","html-keyboard-response","358","243852","0.0-358.0","352YTHGROWZ3OF58FOY57NE5271H48","A2Y7L7R5UTQ5R2","3FW4EL5A3LANKRP91N782LFHPY722Q","","null","<img src=""img/animal4.png"" style=""width:200px; border:14px solid green;"">","null","","","","","",""
"","image-keyboard-response","359","244020","0.0-359.0","352YTHGROWZ3OF58FOY57NE5271H48","A2Y7L7R5UTQ5R2","3FW4EL5A3LANKRP91N782LFHPY722Q","","167","img/animal1.png","75","168","2","1","3","0.5,0,1,1,0.5,0,0,1,0.5",""
"","html-keyboard-response","360","244322","0.0-360.0","352YTHGROWZ3OF58FOY57NE5271H48","A2Y7L7R5UTQ5R2","3FW4EL5A3LANKRP91N782LFHPY722Q","","null","<img src=""img/animal1.png"" style=""width:200px; border:14px solid green;"">","null","","","","","",""
"","image-keyboard-response","361","245080","0.0-361.0","352YTHGROWZ3OF58FOY57NE5271H48","A2Y7L7R5UTQ5R2","3FW4EL5A3LANKRP91N782LFHPY722Q","","756","img/animal4.png","75","758","2","0","2","0.5,0,1,1,0.5,0,0,1,0.5",""
"","html-keyboard-response","362","245382","0.0-362.0","352YTHGROWZ3OF58FOY57NE5271H48","A2Y7L7R5UTQ5R2","3FW4EL5A3LANKRP91N782LFHPY722Q","","null","<img src=""img/animal4.png"" style=""width:200px;border:14px solid red;"">","null","","","","","",""
"","instructions","363","252190","0.0-363.0","352YTHGROWZ3OF58FOY57NE5271H48","A2Y7L7R5UTQ5R2","3FW4EL5A3LANKRP91N782LFHPY722Q","[{""page_index"":0,""viewing_time"":6807}]","6808","","","","","","","",""
"","survey-text","364","266949","0.0-364.0","352YTHGROWZ3OF58FOY57NE5271H48","A2Y7L7R5UTQ5R2","3FW4EL5A3LANKRP91N782LFHPY722Q","","14739","","","","","","","","{""Q0"":""A2Y7L7R5UTQ5R2""}"
