"success","trial_type","trial_index","time_elapsed","internal_node_id","assignmentID","mturkID","hitID","view_history","rt","stimulus","key_press","reactionTime","a","r","s","reward_cond","responses"
"true","fullscreen","0","6401","0.0-0.0","39U1BHVTDMD8BSDZF4ABB1PN0H5T3B","A324M5ZRHX7RUV","3UAU495MIIEABANG75FBFHDC9WUUOI","","","","","","","","","",""
"","instructions","1","19445","0.0-1.0","39U1BHVTDMD8BSDZF4ABB1PN0H5T3B","A324M5ZRHX7RUV","3UAU495MIIEABANG75FBFHDC9WUUOI","[{""page_index"":0,""viewing_time"":2139.600000023842},{""page_index"":1,""viewing_time"":2341.600000023842},{""page_index"":2,""viewing_time"":1231.2999999523163},{""page_index"":3,""viewing_time"":2352},{""page_index"":4,""viewing_time"":1788.7999999523163},{""page_index"":5,""viewing_time"":1003.9000000953674},{""page_index"":6,""viewing_time"":986.8999999761581},{""page_index"":7,""viewing_time"":1198}]","13042.899999976158","","","","","","","",""
"","image-keyboard-response","2","20503","0.0-2.0","39U1BHVTDMD8BSDZF4ABB1PN0H5T3B","A324M5ZRHX7RUV","3UAU495MIIEABANG75FBFHDC9WUUOI","","1057","img/animal1.png","74","1058","1","1","1","1,0.5,0,1,0,0.5,0.5,0,1",""
"","html-keyboard-response","3","20813","0.0-3.0","39U1BHVTDMD8BSDZF4ABB1PN0H5T3B","A324M5ZRHX7RUV","3UAU495MIIEABANG75FBFHDC9WUUOI","","null","<img src=""img/animal1.png"" style=""width:200px; border:14px solid green;"">","null","","","","","",""
"","image-keyboard-response","4","21252","0.0-4.0","39U1BHVTDMD8BSDZF4ABB1PN0H5T3B","A324M5ZRHX7RUV","3UAU495MIIEABANG75FBFHDC9WUUOI","","438.5","img/animal1.png","74","439.39999997615814","1","1","1","1,0.5,0,1,0,0.5,0.5,0,1",""
"","html-keyboard-response","5","21554","0.0-5.0","39U1BHVTDMD8BSDZF4ABB1PN0H5T3B","A324M5ZRHX7RUV","3UAU495MIIEABANG75FBFHDC9WUUOI","","null","<img src=""img/animal1.png"" style=""width:200px; border:14px solid green;"">","null","","","","","",""
"","image-keyboard-response","6","22091","0.0-6.0","39U1BHVTDMD8BSDZF4ABB1PN0H5T3B","A324M5ZRHX7RUV","3UAU495MIIEABANG75FBFHDC9WUUOI","","536.8999999761581","img/animal3.png","75","537.5999999046326","2","0","2","1,0.5,0,1,0,0.5,0.5,0,1",""
"","html-keyboard-response","7","22393","0.0-7.0","39U1BHVTDMD8BSDZF4ABB1PN0H5T3B","A324M5ZRHX7RUV","3UAU495MIIEABANG75FBFHDC9WUUOI","","null","<img src=""img/animal3.png"" style=""width:200px;border:14px solid red;"">","null","","","","","",""
"","image-keyboard-response","8","22742","0.0-8.0","39U1BHVTDMD8BSDZF4ABB1PN0H5T3B","A324M5ZRHX7RUV","3UAU495MIIEABANG75FBFHDC9WUUOI","","347.8000000715256","img/animal3.png","76","348.60000002384186","3","0","2","1,0.5,0,1,0,0.5,0.5,0,1",""
"","html-keyboard-response","9","23056","0.0-9.0","39U1BHVTDMD8BSDZF4ABB1PN0H5T3B","A324M5ZRHX7RUV","3UAU495MIIEABANG75FBFHDC9WUUOI","","null","<img src=""img/animal3.png"" style=""width:200px;border:14px solid red;"">","null","","","","","",""
"","image-keyboard-response","10","23668","0.0-10.0","39U1BHVTDMD8BSDZF4ABB1PN0H5T3B","A324M5ZRHX7RUV","3UAU495MIIEABANG75FBFHDC9WUUOI","","611.5","img/animal1.png","74","612.2000000476837","1","1","1","1,0.5,0,1,0,0.5,0.5,0,1",""
"","html-keyboard-response","11","23979","0.0-11.0","39U1BHVTDMD8BSDZF4ABB1PN0H5T3B","A324M5ZRHX7RUV","3UAU495MIIEABANG75FBFHDC9WUUOI","","null","<img src=""img/animal1.png"" style=""width:200px; border:14px solid green;"">","null","","","","","",""
"","image-keyboard-response","12","24496","0.0-12.0","39U1BHVTDMD8BSDZF4ABB1PN0H5T3B","A324M5ZRHX7RUV","3UAU495MIIEABANG75FBFHDC9WUUOI","","513.8000000715256","img/animal3.png","75","516.7000000476837","2","0","2","1,0.5,0,1,0,0.5,0.5,0,1",""
"","html-keyboard-response","13","24808","0.0-13.0","39U1BHVTDMD8BSDZF4ABB1PN0H5T3B","A324M5ZRHX7RUV","3UAU495MIIEABANG75FBFHDC9WUUOI","","null","<img src=""img/animal3.png"" style=""width:200px;border:14px solid red;"">","null","","","","","",""
"","image-keyboard-response","14","25162","0.0-14.0","39U1BHVTDMD8BSDZF4ABB1PN0H5T3B","A324M5ZRHX7RUV","3UAU495MIIEABANG75FBFHDC9WUUOI","","352.60000002384186","img/animal3.png","75","353.89999997615814","2","0","2","1,0.5,0,1,0,0.5,0.5,0,1",""
"","html-keyboard-response","15","25463","0.0-15.0","39U1BHVTDMD8BSDZF4ABB1PN0H5T3B","A324M5ZRHX7RUV","3UAU495MIIEABANG75FBFHDC9WUUOI","","null","<img src=""img/animal3.png"" style=""width:200px;border:14px solid red;"">","null","","","","","",""
"","image-keyboard-response","16","25959","0.0-16.0","39U1BHVTDMD8BSDZF4ABB1PN0H5T3B","A324M5ZRHX7RUV","3UAU495MIIEABANG75FBFHDC9WUUOI","","495","img/animal1.png","74","495.8000000715256","1","1","1","1,0.5,0,1,0,0.5,0.5,0,1",""
"","html-keyboard-response","17","26263","0.0-17.0","39U1BHVTDMD8BSDZF4ABB1PN0H5T3B","A324M5ZRHX7RUV","3UAU495MIIEABANG75FBFHDC9WUUOI","","null","<img src=""img/animal1.png"" style=""width:200px; border:14px solid green;"">","null","","","","","",""
"","image-keyboard-response","18","26850","0.0-18.0","39U1BHVTDMD8BSDZF4ABB1PN0H5T3B","A324M5ZRHX7RUV","3UAU495MIIEABANG75FBFHDC9WUUOI","","585.5","img/animal1.png","74","586.2999999523163","1","1","1","1,0.5,0,1,0,0.5,0.5,0,1",""
"","html-keyboard-response","19","27165","0.0-19.0","39U1BHVTDMD8BSDZF4ABB1PN0H5T3B","A324M5ZRHX7RUV","3UAU495MIIEABANG75FBFHDC9WUUOI","","null","<img src=""img/animal1.png"" style=""width:200px; border:14px solid green;"">","null","","","","","",""
"","image-keyboard-response","20","27815","0.0-20.0","39U1BHVTDMD8BSDZF4ABB1PN0H5T3B","A324M5ZRHX7RUV","3UAU495MIIEABANG75FBFHDC9WUUOI","","648.5","img/animal3.png","74","649.3000000715256","1","1","2","1,0.5,0,1,0,0.5,0.5,0,1",""
"","html-keyboard-response","21","28121","0.0-21.0","39U1BHVTDMD8BSDZF4ABB1PN0H5T3B","A324M5ZRHX7RUV","3UAU495MIIEABANG75FBFHDC9WUUOI","","null","<img src=""img/animal3.png"" style=""width:200px; border:14px solid green;"">","null","","","","","",""
"","image-keyboard-response","22","28892","0.0-22.0","39U1BHVTDMD8BSDZF4ABB1PN0H5T3B","A324M5ZRHX7RUV","3UAU495MIIEABANG75FBFHDC9WUUOI","","770.8000000715256","img/animal4.png","76","771.7000000476837","3","1","3","1,0.5,0,1,0,0.5,0.5,0,1",""
"","html-keyboard-response","23","29205","0.0-23.0","39U1BHVTDMD8BSDZF4ABB1PN0H5T3B","A324M5ZRHX7RUV","3UAU495MIIEABANG75FBFHDC9WUUOI","","null","<img src=""img/animal4.png"" style=""width:200px; border:14px solid green;"">","null","","","","","",""
"","image-keyboard-response","24","29716","0.0-24.0","39U1BHVTDMD8BSDZF4ABB1PN0H5T3B","A324M5ZRHX7RUV","3UAU495MIIEABANG75FBFHDC9WUUOI","","510.5","img/animal4.png","76","511.1999999284744","3","1","3","1,0.5,0,1,0,0.5,0.5,0,1",""
"","html-keyboard-response","25","30017","0.0-25.0","39U1BHVTDMD8BSDZF4ABB1PN0H5T3B","A324M5ZRHX7RUV","3UAU495MIIEABANG75FBFHDC9WUUOI","","null","<img src=""img/animal4.png"" style=""width:200px; border:14px solid green;"">","null","","","","","",""
"","image-keyboard-response","26","30449","0.0-26.0","39U1BHVTDMD8BSDZF4ABB1PN0H5T3B","A324M5ZRHX7RUV","3UAU495MIIEABANG75FBFHDC9WUUOI","","431","img/animal4.png","76","431.7000000476837","3","1","3","1,0.5,0,1,0,0.5,0.5,0,1",""
"","html-keyboard-response","27","30753","0.0-27.0","39U1BHVTDMD8BSDZF4ABB1PN0H5T3B","A324M5ZRHX7RUV","3UAU495MIIEABANG75FBFHDC9WUUOI","","null","<img src=""img/animal4.png"" style=""width:200px; border:14px solid green;"">","null","","","","","",""
"","image-keyboard-response","28","31331","0.0-28.0","39U1BHVTDMD8BSDZF4ABB1PN0H5T3B","A324M5ZRHX7RUV","3UAU495MIIEABANG75FBFHDC9WUUOI","","577.2999999523163","img/animal4.png","76","577.9000000953674","3","1","3","1,0.5,0,1,0,0.5,0.5,0,1",""
"","html-keyboard-response","29","31633","0.0-29.0","39U1BHVTDMD8BSDZF4ABB1PN0H5T3B","A324M5ZRHX7RUV","3UAU495MIIEABANG75FBFHDC9WUUOI","","null","<img src=""img/animal4.png"" style=""width:200px; border:14px solid green;"">","null","","","","","",""
"","image-keyboard-response","30","32400","0.0-30.0","39U1BHVTDMD8BSDZF4ABB1PN0H5T3B","A324M5ZRHX7RUV","3UAU495MIIEABANG75FBFHDC9WUUOI","","766.3000000715256","img/animal1.png","74","767","1","1","1","1,0.5,0,1,0,0.5,0.5,0,1",""
"","html-keyboard-response","31","32702","0.0-31.0","39U1BHVTDMD8BSDZF4ABB1PN0H5T3B","A324M5ZRHX7RUV","3UAU495MIIEABANG75FBFHDC9WUUOI","","null","<img src=""img/animal1.png"" style=""width:200px; border:14px solid green;"">","null","","","","","",""
"","image-keyboard-response","32","33321","0.0-32.0","39U1BHVTDMD8BSDZF4ABB1PN0H5T3B","A324M5ZRHX7RUV","3UAU495MIIEABANG75FBFHDC9WUUOI","","618.8000000715256","img/animal3.png","74","619.2999999523163","1","1","2","1,0.5,0,1,0,0.5,0.5,0,1",""
"","html-keyboard-response","33","33622","0.0-33.0","39U1BHVTDMD8BSDZF4ABB1PN0H5T3B","A324M5ZRHX7RUV","3UAU495MIIEABANG75FBFHDC9WUUOI","","null","<img src=""img/animal3.png"" style=""width:200px; border:14px solid green;"">","null","","","","","",""
"","image-keyboard-response","34","34349","0.0-34.0","39U1BHVTDMD8BSDZF4ABB1PN0H5T3B","A324M5ZRHX7RUV","3UAU495MIIEABANG75FBFHDC9WUUOI","","725.5999999046326","img/animal1.png","74","726.1000000238419","1","1","1","1,0.5,0,1,0,0.5,0.5,0,1",""
"","html-keyboard-response","35","34650","0.0-35.0","39U1BHVTDMD8BSDZF4ABB1PN0H5T3B","A324M5ZRHX7RUV","3UAU495MIIEABANG75FBFHDC9WUUOI","","null","<img src=""img/animal1.png"" style=""width:200px; border:14px solid green;"">","null","","","","","",""
"","image-keyboard-response","36","35123","0.0-36.0","39U1BHVTDMD8BSDZF4ABB1PN0H5T3B","A324M5ZRHX7RUV","3UAU495MIIEABANG75FBFHDC9WUUOI","","472.60000002384186","img/animal1.png","74","473.2999999523163","1","1","1","1,0.5,0,1,0,0.5,0.5,0,1",""
"","html-keyboard-response","37","35426","0.0-37.0","39U1BHVTDMD8BSDZF4ABB1PN0H5T3B","A324M5ZRHX7RUV","3UAU495MIIEABANG75FBFHDC9WUUOI","","null","<img src=""img/animal1.png"" style=""width:200px; border:14px solid green;"">","null","","","","","",""
"","image-keyboard-response","38","36162","0.0-38.0","39U1BHVTDMD8BSDZF4ABB1PN0H5T3B","A324M5ZRHX7RUV","3UAU495MIIEABANG75FBFHDC9WUUOI","","734.9000000953674","img/animal4.png","75","735.6000000238419","2","0","3","1,0.5,0,1,0,0.5,0.5,0,1",""
"","html-keyboard-response","39","36463","0.0-39.0","39U1BHVTDMD8BSDZF4ABB1PN0H5T3B","A324M5ZRHX7RUV","3UAU495MIIEABANG75FBFHDC9WUUOI","","null","<img src=""img/animal4.png"" style=""width:200px;border:14px solid red;"">","null","","","","","",""
"","image-keyboard-response","40","36783","0.0-40.0","39U1BHVTDMD8BSDZF4ABB1PN0H5T3B","A324M5ZRHX7RUV","3UAU495MIIEABANG75FBFHDC9WUUOI","","319.5","img/animal1.png","76","320.2000000476837","3","0","1","1,0.5,0,1,0,0.5,0.5,0,1",""
"","html-keyboard-response","41","37084","0.0-41.0","39U1BHVTDMD8BSDZF4ABB1PN0H5T3B","A324M5ZRHX7RUV","3UAU495MIIEABANG75FBFHDC9WUUOI","","null","<img src=""img/animal1.png"" style=""width:200px;border:14px solid red;"">","null","","","","","",""
"","image-keyboard-response","42","37409","0.0-42.0","39U1BHVTDMD8BSDZF4ABB1PN0H5T3B","A324M5ZRHX7RUV","3UAU495MIIEABANG75FBFHDC9WUUOI","","323.89999997615814","img/animal4.png","74","324.6999999284744","1","0","3","1,0.5,0,1,0,0.5,0.5,0,1",""
"","html-keyboard-response","43","37711","0.0-43.0","39U1BHVTDMD8BSDZF4ABB1PN0H5T3B","A324M5ZRHX7RUV","3UAU495MIIEABANG75FBFHDC9WUUOI","","null","<img src=""img/animal4.png"" style=""width:200px;border:14px solid red;"">","null","","","","","",""
"","image-keyboard-response","44","38082","0.0-44.0","39U1BHVTDMD8BSDZF4ABB1PN0H5T3B","A324M5ZRHX7RUV","3UAU495MIIEABANG75FBFHDC9WUUOI","","370.39999997615814","img/animal4.png","76","370.89999997615814","3","1","3","1,0.5,0,1,0,0.5,0.5,0,1",""
"","html-keyboard-response","45","38384","0.0-45.0","39U1BHVTDMD8BSDZF4ABB1PN0H5T3B","A324M5ZRHX7RUV","3UAU495MIIEABANG75FBFHDC9WUUOI","","null","<img src=""img/animal4.png"" style=""width:200px; border:14px solid green;"">","null","","","","","",""
"","image-keyboard-response","46","38799","0.0-46.0","39U1BHVTDMD8BSDZF4ABB1PN0H5T3B","A324M5ZRHX7RUV","3UAU495MIIEABANG75FBFHDC9WUUOI","","414.5","img/animal4.png","76","415.5","3","1","3","1,0.5,0,1,0,0.5,0.5,0,1",""
"","html-keyboard-response","47","39101","0.0-47.0","39U1BHVTDMD8BSDZF4ABB1PN0H5T3B","A324M5ZRHX7RUV","3UAU495MIIEABANG75FBFHDC9WUUOI","","null","<img src=""img/animal4.png"" style=""width:200px; border:14px solid green;"">","null","","","","","",""
"","image-keyboard-response","48","39713","0.0-48.0","39U1BHVTDMD8BSDZF4ABB1PN0H5T3B","A324M5ZRHX7RUV","3UAU495MIIEABANG75FBFHDC9WUUOI","","612","img/animal3.png","74","612.5","1","1","2","1,0.5,0,1,0,0.5,0.5,0,1",""
"","html-keyboard-response","49","40015","0.0-49.0","39U1BHVTDMD8BSDZF4ABB1PN0H5T3B","A324M5ZRHX7RUV","3UAU495MIIEABANG75FBFHDC9WUUOI","","null","<img src=""img/animal3.png"" style=""width:200px; border:14px solid green;"">","null","","","","","",""
"","image-keyboard-response","50","40425","0.0-50.0","39U1BHVTDMD8BSDZF4ABB1PN0H5T3B","A324M5ZRHX7RUV","3UAU495MIIEABANG75FBFHDC9WUUOI","","409.5","img/animal3.png","74","410.10000002384186","1","1","2","1,0.5,0,1,0,0.5,0.5,0,1",""
"","html-keyboard-response","51","40727","0.0-51.0","39U1BHVTDMD8BSDZF4ABB1PN0H5T3B","A324M5ZRHX7RUV","3UAU495MIIEABANG75FBFHDC9WUUOI","","null","<img src=""img/animal3.png"" style=""width:200px; border:14px solid green;"">","null","","","","","",""
"","image-keyboard-response","52","41127","0.0-52.0","39U1BHVTDMD8BSDZF4ABB1PN0H5T3B","A324M5ZRHX7RUV","3UAU495MIIEABANG75FBFHDC9WUUOI","","399.40000009536743","img/animal3.png","74","400","1","1","2","1,0.5,0,1,0,0.5,0.5,0,1",""
"","html-keyboard-response","53","41429","0.0-53.0","39U1BHVTDMD8BSDZF4ABB1PN0H5T3B","A324M5ZRHX7RUV","3UAU495MIIEABANG75FBFHDC9WUUOI","","null","<img src=""img/animal3.png"" style=""width:200px; border:14px solid green;"">","null","","","","","",""
"","image-keyboard-response","54","42070","0.0-54.0","39U1BHVTDMD8BSDZF4ABB1PN0H5T3B","A324M5ZRHX7RUV","3UAU495MIIEABANG75FBFHDC9WUUOI","","640.2000000476837","img/animal1.png","74","640.8999999761581","1","1","1","1,0.5,0,1,0,0.5,0.5,0,1",""
"","html-keyboard-response","55","42372","0.0-55.0","39U1BHVTDMD8BSDZF4ABB1PN0H5T3B","A324M5ZRHX7RUV","3UAU495MIIEABANG75FBFHDC9WUUOI","","null","<img src=""img/animal1.png"" style=""width:200px; border:14px solid green;"">","null","","","","","",""
"","image-keyboard-response","56","42790","0.0-56.0","39U1BHVTDMD8BSDZF4ABB1PN0H5T3B","A324M5ZRHX7RUV","3UAU495MIIEABANG75FBFHDC9WUUOI","","416.7999999523163","img/animal3.png","74","417.5","1","1","2","1,0.5,0,1,0,0.5,0.5,0,1",""
"","html-keyboard-response","57","43093","0.0-57.0","39U1BHVTDMD8BSDZF4ABB1PN0H5T3B","A324M5ZRHX7RUV","3UAU495MIIEABANG75FBFHDC9WUUOI","","null","<img src=""img/animal3.png"" style=""width:200px; border:14px solid green;"">","null","","","","","",""
"","image-keyboard-response","58","43641","0.0-58.0","39U1BHVTDMD8BSDZF4ABB1PN0H5T3B","A324M5ZRHX7RUV","3UAU495MIIEABANG75FBFHDC9WUUOI","","547.6000000238419","img/animal1.png","74","548.1999999284744","1","1","1","1,0.5,0,1,0,0.5,0.5,0,1",""
"","html-keyboard-response","59","43942","0.0-59.0","39U1BHVTDMD8BSDZF4ABB1PN0H5T3B","A324M5ZRHX7RUV","3UAU495MIIEABANG75FBFHDC9WUUOI","","null","<img src=""img/animal1.png"" style=""width:200px; border:14px solid green;"">","null","","","","","",""
"","image-keyboard-response","60","44453","0.0-60.0","39U1BHVTDMD8BSDZF4ABB1PN0H5T3B","A324M5ZRHX7RUV","3UAU495MIIEABANG75FBFHDC9WUUOI","","510.1999999284744","img/animal3.png","74","510.7999999523163","1","1","2","1,0.5,0,1,0,0.5,0.5,0,1",""
"","html-keyboard-response","61","44756","0.0-61.0","39U1BHVTDMD8BSDZF4ABB1PN0H5T3B","A324M5ZRHX7RUV","3UAU495MIIEABANG75FBFHDC9WUUOI","","null","<img src=""img/animal3.png"" style=""width:200px; border:14px solid green;"">","null","","","","","",""
"","image-keyboard-response","62","45397","0.0-62.0","39U1BHVTDMD8BSDZF4ABB1PN0H5T3B","A324M5ZRHX7RUV","3UAU495MIIEABANG75FBFHDC9WUUOI","","639.8999999761581","img/animal4.png","76","640.5","3","1","3","1,0.5,0,1,0,0.5,0.5,0,1",""
"","html-keyboard-response","63","45699","0.0-63.0","39U1BHVTDMD8BSDZF4ABB1PN0H5T3B","A324M5ZRHX7RUV","3UAU495MIIEABANG75FBFHDC9WUUOI","","null","<img src=""img/animal4.png"" style=""width:200px; border:14px solid green;"">","null","","","","","",""
"","image-keyboard-response","64","46161","0.0-64.0","39U1BHVTDMD8BSDZF4ABB1PN0H5T3B","A324M5ZRHX7RUV","3UAU495MIIEABANG75FBFHDC9WUUOI","","461.5","img/animal3.png","74","462.2000000476837","1","1","2","1,0.5,0,1,0,0.5,0.5,0,1",""
"","html-keyboard-response","65","46463","0.0-65.0","39U1BHVTDMD8BSDZF4ABB1PN0H5T3B","A324M5ZRHX7RUV","3UAU495MIIEABANG75FBFHDC9WUUOI","","null","<img src=""img/animal3.png"" style=""width:200px; border:14px solid green;"">","null","","","","","",""
"","image-keyboard-response","66","46909","0.0-66.0","39U1BHVTDMD8BSDZF4ABB1PN0H5T3B","A324M5ZRHX7RUV","3UAU495MIIEABANG75FBFHDC9WUUOI","","444","img/animal3.png","74","445.89999997615814","1","1","2","1,0.5,0,1,0,0.5,0.5,0,1",""
"","html-keyboard-response","67","47211","0.0-67.0","39U1BHVTDMD8BSDZF4ABB1PN0H5T3B","A324M5ZRHX7RUV","3UAU495MIIEABANG75FBFHDC9WUUOI","","null","<img src=""img/animal3.png"" style=""width:200px; border:14px solid green;"">","null","","","","","",""
"","image-keyboard-response","68","47650","0.0-68.0","39U1BHVTDMD8BSDZF4ABB1PN0H5T3B","A324M5ZRHX7RUV","3UAU495MIIEABANG75FBFHDC9WUUOI","","438.10000002384186","img/animal3.png","74","438.8000000715256","1","1","2","1,0.5,0,1,0,0.5,0.5,0,1",""
"","html-keyboard-response","69","47951","0.0-69.0","39U1BHVTDMD8BSDZF4ABB1PN0H5T3B","A324M5ZRHX7RUV","3UAU495MIIEABANG75FBFHDC9WUUOI","","null","<img src=""img/animal3.png"" style=""width:200px; border:14px solid green;"">","null","","","","","",""
"","image-keyboard-response","70","48468","0.0-70.0","39U1BHVTDMD8BSDZF4ABB1PN0H5T3B","A324M5ZRHX7RUV","3UAU495MIIEABANG75FBFHDC9WUUOI","","516","img/animal1.png","76","517.2000000476837","3","0","1","1,0.5,0,1,0,0.5,0.5,0,1",""
"","html-keyboard-response","71","48770","0.0-71.0","39U1BHVTDMD8BSDZF4ABB1PN0H5T3B","A324M5ZRHX7RUV","3UAU495MIIEABANG75FBFHDC9WUUOI","","null","<img src=""img/animal1.png"" style=""width:200px;border:14px solid red;"">","null","","","","","",""
"","image-keyboard-response","72","49253","0.0-72.0","39U1BHVTDMD8BSDZF4ABB1PN0H5T3B","A324M5ZRHX7RUV","3UAU495MIIEABANG75FBFHDC9WUUOI","","482.2999999523163","img/animal3.png","74","483","1","1","2","1,0.5,0,1,0,0.5,0.5,0,1",""
"","html-keyboard-response","73","49553","0.0-73.0","39U1BHVTDMD8BSDZF4ABB1PN0H5T3B","A324M5ZRHX7RUV","3UAU495MIIEABANG75FBFHDC9WUUOI","","null","<img src=""img/animal3.png"" style=""width:200px; border:14px solid green;"">","null","","","","","",""
"","image-keyboard-response","74","50201","0.0-74.0","39U1BHVTDMD8BSDZF4ABB1PN0H5T3B","A324M5ZRHX7RUV","3UAU495MIIEABANG75FBFHDC9WUUOI","","647.2000000476837","img/animal1.png","74","647.7999999523163","1","1","1","1,0.5,0,1,0,0.5,0.5,0,1",""
"","html-keyboard-response","75","50503","0.0-75.0","39U1BHVTDMD8BSDZF4ABB1PN0H5T3B","A324M5ZRHX7RUV","3UAU495MIIEABANG75FBFHDC9WUUOI","","null","<img src=""img/animal1.png"" style=""width:200px; border:14px solid green;"">","null","","","","","",""
"","image-keyboard-response","76","50940","0.0-76.0","39U1BHVTDMD8BSDZF4ABB1PN0H5T3B","A324M5ZRHX7RUV","3UAU495MIIEABANG75FBFHDC9WUUOI","","436.09999990463257","img/animal3.png","74","437.2999999523163","1","1","2","1,0.5,0,1,0,0.5,0.5,0,1",""
"","html-keyboard-response","77","51241","0.0-77.0","39U1BHVTDMD8BSDZF4ABB1PN0H5T3B","A324M5ZRHX7RUV","3UAU495MIIEABANG75FBFHDC9WUUOI","","null","<img src=""img/animal3.png"" style=""width:200px; border:14px solid green;"">","null","","","","","",""
"","image-keyboard-response","78","51855","0.0-78.0","39U1BHVTDMD8BSDZF4ABB1PN0H5T3B","A324M5ZRHX7RUV","3UAU495MIIEABANG75FBFHDC9WUUOI","","612.6000000238419","img/animal4.png","76","613.1000000238419","3","1","3","1,0.5,0,1,0,0.5,0.5,0,1",""
"","html-keyboard-response","79","52156","0.0-79.0","39U1BHVTDMD8BSDZF4ABB1PN0H5T3B","A324M5ZRHX7RUV","3UAU495MIIEABANG75FBFHDC9WUUOI","","null","<img src=""img/animal4.png"" style=""width:200px; border:14px solid green;"">","null","","","","","",""
"","image-keyboard-response","80","52565","0.0-80.0","39U1BHVTDMD8BSDZF4ABB1PN0H5T3B","A324M5ZRHX7RUV","3UAU495MIIEABANG75FBFHDC9WUUOI","","407.3000000715256","img/animal1.png","74","408.10000002384186","1","1","1","1,0.5,0,1,0,0.5,0.5,0,1",""
"","html-keyboard-response","81","52867","0.0-81.0","39U1BHVTDMD8BSDZF4ABB1PN0H5T3B","A324M5ZRHX7RUV","3UAU495MIIEABANG75FBFHDC9WUUOI","","null","<img src=""img/animal1.png"" style=""width:200px; border:14px solid green;"">","null","","","","","",""
"","image-keyboard-response","82","53321","0.0-82.0","39U1BHVTDMD8BSDZF4ABB1PN0H5T3B","A324M5ZRHX7RUV","3UAU495MIIEABANG75FBFHDC9WUUOI","","453.2999999523163","img/animal4.png","76","454","3","1","3","1,0.5,0,1,0,0.5,0.5,0,1",""
"","html-keyboard-response","83","53623","0.0-83.0","39U1BHVTDMD8BSDZF4ABB1PN0H5T3B","A324M5ZRHX7RUV","3UAU495MIIEABANG75FBFHDC9WUUOI","","null","<img src=""img/animal4.png"" style=""width:200px; border:14px solid green;"">","null","","","","","",""
"","image-keyboard-response","84","54157","0.0-84.0","39U1BHVTDMD8BSDZF4ABB1PN0H5T3B","A324M5ZRHX7RUV","3UAU495MIIEABANG75FBFHDC9WUUOI","","533.2999999523163","img/animal4.png","76","534","3","1","3","1,0.5,0,1,0,0.5,0.5,0,1",""
"","html-keyboard-response","85","54458","0.0-85.0","39U1BHVTDMD8BSDZF4ABB1PN0H5T3B","A324M5ZRHX7RUV","3UAU495MIIEABANG75FBFHDC9WUUOI","","null","<img src=""img/animal4.png"" style=""width:200px; border:14px solid green;"">","null","","","","","",""
"","image-keyboard-response","86","54900","0.0-86.0","39U1BHVTDMD8BSDZF4ABB1PN0H5T3B","A324M5ZRHX7RUV","3UAU495MIIEABANG75FBFHDC9WUUOI","","441","img/animal3.png","74","441.5","1","1","2","1,0.5,0,1,0,0.5,0.5,0,1",""
"","html-keyboard-response","87","55201","0.0-87.0","39U1BHVTDMD8BSDZF4ABB1PN0H5T3B","A324M5ZRHX7RUV","3UAU495MIIEABANG75FBFHDC9WUUOI","","null","<img src=""img/animal3.png"" style=""width:200px; border:14px solid green;"">","null","","","","","",""
"","image-keyboard-response","88","55871","0.0-88.0","39U1BHVTDMD8BSDZF4ABB1PN0H5T3B","A324M5ZRHX7RUV","3UAU495MIIEABANG75FBFHDC9WUUOI","","668.6999999284744","img/animal3.png","74","669.3999999761581","1","1","2","1,0.5,0,1,0,0.5,0.5,0,1",""
"","html-keyboard-response","89","56172","0.0-89.0","39U1BHVTDMD8BSDZF4ABB1PN0H5T3B","A324M5ZRHX7RUV","3UAU495MIIEABANG75FBFHDC9WUUOI","","null","<img src=""img/animal3.png"" style=""width:200px; border:14px solid green;"">","null","","","","","",""
"","image-keyboard-response","90","56828","0.0-90.0","39U1BHVTDMD8BSDZF4ABB1PN0H5T3B","A324M5ZRHX7RUV","3UAU495MIIEABANG75FBFHDC9WUUOI","","654.6000000238419","img/animal1.png","74","655.1000000238419","1","1","1","1,0.5,0,1,0,0.5,0.5,0,1",""
"","html-keyboard-response","91","57130","0.0-91.0","39U1BHVTDMD8BSDZF4ABB1PN0H5T3B","A324M5ZRHX7RUV","3UAU495MIIEABANG75FBFHDC9WUUOI","","null","<img src=""img/animal1.png"" style=""width:200px; border:14px solid green;"">","null","","","","","",""
"","image-keyboard-response","92","58104","0.0-92.0","39U1BHVTDMD8BSDZF4ABB1PN0H5T3B","A324M5ZRHX7RUV","3UAU495MIIEABANG75FBFHDC9WUUOI","","972.6999999284744","img/animal1.png","74","973.3999999761581","1","1","1","1,0.5,0,1,0,0.5,0.5,0,1",""
"","html-keyboard-response","93","58406","0.0-93.0","39U1BHVTDMD8BSDZF4ABB1PN0H5T3B","A324M5ZRHX7RUV","3UAU495MIIEABANG75FBFHDC9WUUOI","","null","<img src=""img/animal1.png"" style=""width:200px; border:14px solid green;"">","null","","","","","",""
"","image-keyboard-response","94","59374","0.0-94.0","39U1BHVTDMD8BSDZF4ABB1PN0H5T3B","A324M5ZRHX7RUV","3UAU495MIIEABANG75FBFHDC9WUUOI","","967","img/animal4.png","76","967.6000000238419","3","1","3","1,0.5,0,1,0,0.5,0.5,0,1",""
"","html-keyboard-response","95","59675","0.0-95.0","39U1BHVTDMD8BSDZF4ABB1PN0H5T3B","A324M5ZRHX7RUV","3UAU495MIIEABANG75FBFHDC9WUUOI","","null","<img src=""img/animal4.png"" style=""width:200px; border:14px solid green;"">","null","","","","","",""
"","image-keyboard-response","96","60035","0.0-96.0","39U1BHVTDMD8BSDZF4ABB1PN0H5T3B","A324M5ZRHX7RUV","3UAU495MIIEABANG75FBFHDC9WUUOI","","359.2000000476837","img/animal4.png","76","359.7999999523163","3","1","3","1,0.5,0,1,0,0.5,0.5,0,1",""
"","html-keyboard-response","97","60338","0.0-97.0","39U1BHVTDMD8BSDZF4ABB1PN0H5T3B","A324M5ZRHX7RUV","3UAU495MIIEABANG75FBFHDC9WUUOI","","null","<img src=""img/animal4.png"" style=""width:200px; border:14px solid green;"">","null","","","","","",""
"","image-keyboard-response","98","60741","0.0-98.0","39U1BHVTDMD8BSDZF4ABB1PN0H5T3B","A324M5ZRHX7RUV","3UAU495MIIEABANG75FBFHDC9WUUOI","","401.7999999523163","img/animal4.png","76","402.7000000476837","3","1","3","1,0.5,0,1,0,0.5,0.5,0,1",""
"","html-keyboard-response","99","61043","0.0-99.0","39U1BHVTDMD8BSDZF4ABB1PN0H5T3B","A324M5ZRHX7RUV","3UAU495MIIEABANG75FBFHDC9WUUOI","","null","<img src=""img/animal4.png"" style=""width:200px; border:14px solid green;"">","null","","","","","",""
"","image-keyboard-response","100","61489","0.0-100.0","39U1BHVTDMD8BSDZF4ABB1PN0H5T3B","A324M5ZRHX7RUV","3UAU495MIIEABANG75FBFHDC9WUUOI","","445.5","img/animal3.png","74","446.10000002384186","1","1","2","1,0.5,0,1,0,0.5,0.5,0,1",""
"","html-keyboard-response","101","61790","0.0-101.0","39U1BHVTDMD8BSDZF4ABB1PN0H5T3B","A324M5ZRHX7RUV","3UAU495MIIEABANG75FBFHDC9WUUOI","","null","<img src=""img/animal3.png"" style=""width:200px; border:14px solid green;"">","null","","","","","",""
"","image-keyboard-response","102","62987","0.0-102.0","39U1BHVTDMD8BSDZF4ABB1PN0H5T3B","A324M5ZRHX7RUV","3UAU495MIIEABANG75FBFHDC9WUUOI","","1194.9000000953674","img/animal3.png","74","1195.5","1","1","2","1,0.5,0,1,0,0.5,0.5,0,1",""
"","html-keyboard-response","103","63301","0.0-103.0","39U1BHVTDMD8BSDZF4ABB1PN0H5T3B","A324M5ZRHX7RUV","3UAU495MIIEABANG75FBFHDC9WUUOI","","null","<img src=""img/animal3.png"" style=""width:200px; border:14px solid green;"">","null","","","","","",""
"","image-keyboard-response","104","63686","0.0-104.0","39U1BHVTDMD8BSDZF4ABB1PN0H5T3B","A324M5ZRHX7RUV","3UAU495MIIEABANG75FBFHDC9WUUOI","","384.89999997615814","img/animal3.png","74","385.60000002384186","1","1","2","1,0.5,0,1,0,0.5,0.5,0,1",""
"","html-keyboard-response","105","63987","0.0-105.0","39U1BHVTDMD8BSDZF4ABB1PN0H5T3B","A324M5ZRHX7RUV","3UAU495MIIEABANG75FBFHDC9WUUOI","","null","<img src=""img/animal3.png"" style=""width:200px; border:14px solid green;"">","null","","","","","",""
"","image-keyboard-response","106","64583","0.0-106.0","39U1BHVTDMD8BSDZF4ABB1PN0H5T3B","A324M5ZRHX7RUV","3UAU495MIIEABANG75FBFHDC9WUUOI","","594.6999999284744","img/animal1.png","74","595.2000000476837","1","1","1","1,0.5,0,1,0,0.5,0.5,0,1",""
"","html-keyboard-response","107","64884","0.0-107.0","39U1BHVTDMD8BSDZF4ABB1PN0H5T3B","A324M5ZRHX7RUV","3UAU495MIIEABANG75FBFHDC9WUUOI","","null","<img src=""img/animal1.png"" style=""width:200px; border:14px solid green;"">","null","","","","","",""
"","image-keyboard-response","108","65381","0.0-108.0","39U1BHVTDMD8BSDZF4ABB1PN0H5T3B","A324M5ZRHX7RUV","3UAU495MIIEABANG75FBFHDC9WUUOI","","497.10000002384186","img/animal1.png","74","498.1999999284744","1","1","1","1,0.5,0,1,0,0.5,0.5,0,1",""
"","html-keyboard-response","109","65683","0.0-109.0","39U1BHVTDMD8BSDZF4ABB1PN0H5T3B","A324M5ZRHX7RUV","3UAU495MIIEABANG75FBFHDC9WUUOI","","null","<img src=""img/animal1.png"" style=""width:200px; border:14px solid green;"">","null","","","","","",""
"","image-keyboard-response","110","66073","0.0-110.0","39U1BHVTDMD8BSDZF4ABB1PN0H5T3B","A324M5ZRHX7RUV","3UAU495MIIEABANG75FBFHDC9WUUOI","","389.60000002384186","img/animal1.png","74","390.2999999523163","1","1","1","1,0.5,0,1,0,0.5,0.5,0,1",""
"","html-keyboard-response","111","66375","0.0-111.0","39U1BHVTDMD8BSDZF4ABB1PN0H5T3B","A324M5ZRHX7RUV","3UAU495MIIEABANG75FBFHDC9WUUOI","","null","<img src=""img/animal1.png"" style=""width:200px; border:14px solid green;"">","null","","","","","",""
"","image-keyboard-response","112","66722","0.0-112.0","39U1BHVTDMD8BSDZF4ABB1PN0H5T3B","A324M5ZRHX7RUV","3UAU495MIIEABANG75FBFHDC9WUUOI","","346.5","img/animal1.png","74","347.1999999284744","1","1","1","1,0.5,0,1,0,0.5,0.5,0,1",""
"","html-keyboard-response","113","67023","0.0-113.0","39U1BHVTDMD8BSDZF4ABB1PN0H5T3B","A324M5ZRHX7RUV","3UAU495MIIEABANG75FBFHDC9WUUOI","","null","<img src=""img/animal1.png"" style=""width:200px; border:14px solid green;"">","null","","","","","",""
"","image-keyboard-response","114","67557","0.0-114.0","39U1BHVTDMD8BSDZF4ABB1PN0H5T3B","A324M5ZRHX7RUV","3UAU495MIIEABANG75FBFHDC9WUUOI","","532.8999999761581","img/animal3.png","74","533.6000000238419","1","1","2","1,0.5,0,1,0,0.5,0.5,0,1",""
"","html-keyboard-response","115","67859","0.0-115.0","39U1BHVTDMD8BSDZF4ABB1PN0H5T3B","A324M5ZRHX7RUV","3UAU495MIIEABANG75FBFHDC9WUUOI","","null","<img src=""img/animal3.png"" style=""width:200px; border:14px solid green;"">","null","","","","","",""
"","image-keyboard-response","116","68489","0.0-116.0","39U1BHVTDMD8BSDZF4ABB1PN0H5T3B","A324M5ZRHX7RUV","3UAU495MIIEABANG75FBFHDC9WUUOI","","629.2999999523163","img/animal4.png","76","630.3000000715256","3","1","3","1,0.5,0,1,0,0.5,0.5,0,1",""
"","html-keyboard-response","117","68791","0.0-117.0","39U1BHVTDMD8BSDZF4ABB1PN0H5T3B","A324M5ZRHX7RUV","3UAU495MIIEABANG75FBFHDC9WUUOI","","null","<img src=""img/animal4.png"" style=""width:200px; border:14px solid green;"">","null","","","","","",""
"","image-keyboard-response","118","69233","0.0-118.0","39U1BHVTDMD8BSDZF4ABB1PN0H5T3B","A324M5ZRHX7RUV","3UAU495MIIEABANG75FBFHDC9WUUOI","","440.89999997615814","img/animal1.png","74","441.5","1","1","1","1,0.5,0,1,0,0.5,0.5,0,1",""
"","html-keyboard-response","119","69534","0.0-119.0","39U1BHVTDMD8BSDZF4ABB1PN0H5T3B","A324M5ZRHX7RUV","3UAU495MIIEABANG75FBFHDC9WUUOI","","null","<img src=""img/animal1.png"" style=""width:200px; border:14px solid green;"">","null","","","","","",""
"","image-keyboard-response","120","69941","0.0-120.0","39U1BHVTDMD8BSDZF4ABB1PN0H5T3B","A324M5ZRHX7RUV","3UAU495MIIEABANG75FBFHDC9WUUOI","","404.89999997615814","img/animal4.png","74","405.6999999284744","1","1","3","1,0.5,0,1,0,0.5,0.5,0,1",""
"","html-keyboard-response","121","70243","0.0-121.0","39U1BHVTDMD8BSDZF4ABB1PN0H5T3B","A324M5ZRHX7RUV","3UAU495MIIEABANG75FBFHDC9WUUOI","","null","<img src=""img/animal4.png"" style=""width:200px; border:14px solid green;"">","null","","","","","",""
"","image-keyboard-response","122","70893","0.0-122.0","39U1BHVTDMD8BSDZF4ABB1PN0H5T3B","A324M5ZRHX7RUV","3UAU495MIIEABANG75FBFHDC9WUUOI","","648.6000000238419","img/animal1.png","74","649.3000000715256","1","1","1","1,0.5,0,1,0,0.5,0.5,0,1",""
"","html-keyboard-response","123","71195","0.0-123.0","39U1BHVTDMD8BSDZF4ABB1PN0H5T3B","A324M5ZRHX7RUV","3UAU495MIIEABANG75FBFHDC9WUUOI","","null","<img src=""img/animal1.png"" style=""width:200px; border:14px solid green;"">","null","","","","","",""
"","image-keyboard-response","124","71691","0.0-124.0","39U1BHVTDMD8BSDZF4ABB1PN0H5T3B","A324M5ZRHX7RUV","3UAU495MIIEABANG75FBFHDC9WUUOI","","495.60000002384186","img/animal3.png","74","496.2000000476837","1","1","2","1,0.5,0,1,0,0.5,0.5,0,1",""
"","html-keyboard-response","125","71993","0.0-125.0","39U1BHVTDMD8BSDZF4ABB1PN0H5T3B","A324M5ZRHX7RUV","3UAU495MIIEABANG75FBFHDC9WUUOI","","null","<img src=""img/animal3.png"" style=""width:200px; border:14px solid green;"">","null","","","","","",""
"","image-keyboard-response","126","72755","0.0-126.0","39U1BHVTDMD8BSDZF4ABB1PN0H5T3B","A324M5ZRHX7RUV","3UAU495MIIEABANG75FBFHDC9WUUOI","","761.5","img/animal4.png","74","762.1000000238419","1","1","3","1,0.5,0,1,0,0.5,0.5,0,1",""
"","html-keyboard-response","127","73057","0.0-127.0","39U1BHVTDMD8BSDZF4ABB1PN0H5T3B","A324M5ZRHX7RUV","3UAU495MIIEABANG75FBFHDC9WUUOI","","null","<img src=""img/animal4.png"" style=""width:200px; border:14px solid green;"">","null","","","","","",""
"","image-keyboard-response","128","73722","0.0-128.0","39U1BHVTDMD8BSDZF4ABB1PN0H5T3B","A324M5ZRHX7RUV","3UAU495MIIEABANG75FBFHDC9WUUOI","","664.3000000715256","img/animal4.png","74","664.8999999761581","1","1","3","1,0.5,0,1,0,0.5,0.5,0,1",""
"","html-keyboard-response","129","74025","0.0-129.0","39U1BHVTDMD8BSDZF4ABB1PN0H5T3B","A324M5ZRHX7RUV","3UAU495MIIEABANG75FBFHDC9WUUOI","","null","<img src=""img/animal4.png"" style=""width:200px; border:14px solid green;"">","null","","","","","",""
"","image-keyboard-response","130","74660","0.0-130.0","39U1BHVTDMD8BSDZF4ABB1PN0H5T3B","A324M5ZRHX7RUV","3UAU495MIIEABANG75FBFHDC9WUUOI","","634.2000000476837","img/animal1.png","74","635.5","1","1","1","1,0.5,0,1,0,0.5,0.5,0,1",""
"","html-keyboard-response","131","74961","0.0-131.0","39U1BHVTDMD8BSDZF4ABB1PN0H5T3B","A324M5ZRHX7RUV","3UAU495MIIEABANG75FBFHDC9WUUOI","","null","<img src=""img/animal1.png"" style=""width:200px; border:14px solid green;"">","null","","","","","",""
"","image-keyboard-response","132","75390","0.0-132.0","39U1BHVTDMD8BSDZF4ABB1PN0H5T3B","A324M5ZRHX7RUV","3UAU495MIIEABANG75FBFHDC9WUUOI","","427","img/animal4.png","74","427.6999999284744","1","0","3","1,0.5,0,1,0,0.5,0.5,0,1",""
"","html-keyboard-response","133","75691","0.0-133.0","39U1BHVTDMD8BSDZF4ABB1PN0H5T3B","A324M5ZRHX7RUV","3UAU495MIIEABANG75FBFHDC9WUUOI","","null","<img src=""img/animal4.png"" style=""width:200px;border:14px solid red;"">","null","","","","","",""
"","image-keyboard-response","134","76106","0.0-134.0","39U1BHVTDMD8BSDZF4ABB1PN0H5T3B","A324M5ZRHX7RUV","3UAU495MIIEABANG75FBFHDC9WUUOI","","414.10000002384186","img/animal1.png","74","414.7000000476837","1","1","1","1,0.5,0,1,0,0.5,0.5,0,1",""
"","html-keyboard-response","135","76408","0.0-135.0","39U1BHVTDMD8BSDZF4ABB1PN0H5T3B","A324M5ZRHX7RUV","3UAU495MIIEABANG75FBFHDC9WUUOI","","null","<img src=""img/animal1.png"" style=""width:200px; border:14px solid green;"">","null","","","","","",""
"","image-keyboard-response","136","76861","0.0-136.0","39U1BHVTDMD8BSDZF4ABB1PN0H5T3B","A324M5ZRHX7RUV","3UAU495MIIEABANG75FBFHDC9WUUOI","","452.10000002384186","img/animal1.png","74","452.6999999284744","1","1","1","1,0.5,0,1,0,0.5,0.5,0,1",""
"","html-keyboard-response","137","77163","0.0-137.0","39U1BHVTDMD8BSDZF4ABB1PN0H5T3B","A324M5ZRHX7RUV","3UAU495MIIEABANG75FBFHDC9WUUOI","","null","<img src=""img/animal1.png"" style=""width:200px; border:14px solid green;"">","null","","","","","",""
"","image-keyboard-response","138","77604","0.0-138.0","39U1BHVTDMD8BSDZF4ABB1PN0H5T3B","A324M5ZRHX7RUV","3UAU495MIIEABANG75FBFHDC9WUUOI","","439.39999997615814","img/animal3.png","74","440","1","1","2","1,0.5,0,1,0,0.5,0.5,0,1",""
"","html-keyboard-response","139","77905","0.0-139.0","39U1BHVTDMD8BSDZF4ABB1PN0H5T3B","A324M5ZRHX7RUV","3UAU495MIIEABANG75FBFHDC9WUUOI","","null","<img src=""img/animal3.png"" style=""width:200px; border:14px solid green;"">","null","","","","","",""
"","image-keyboard-response","140","78365","0.0-140.0","39U1BHVTDMD8BSDZF4ABB1PN0H5T3B","A324M5ZRHX7RUV","3UAU495MIIEABANG75FBFHDC9WUUOI","","459.2999999523163","img/animal3.png","74","459.90000009536743","1","1","2","1,0.5,0,1,0,0.5,0.5,0,1",""
"","html-keyboard-response","141","78667","0.0-141.0","39U1BHVTDMD8BSDZF4ABB1PN0H5T3B","A324M5ZRHX7RUV","3UAU495MIIEABANG75FBFHDC9WUUOI","","null","<img src=""img/animal3.png"" style=""width:200px; border:14px solid green;"">","null","","","","","",""
"","image-keyboard-response","142","79203","0.0-142.0","39U1BHVTDMD8BSDZF4ABB1PN0H5T3B","A324M5ZRHX7RUV","3UAU495MIIEABANG75FBFHDC9WUUOI","","534.6000000238419","img/animal4.png","76","535.2999999523163","3","1","3","1,0.5,0,1,0,0.5,0.5,0,1",""
"","html-keyboard-response","143","79505","0.0-143.0","39U1BHVTDMD8BSDZF4ABB1PN0H5T3B","A324M5ZRHX7RUV","3UAU495MIIEABANG75FBFHDC9WUUOI","","null","<img src=""img/animal4.png"" style=""width:200px; border:14px solid green;"">","null","","","","","",""
"","image-keyboard-response","144","80042","0.0-144.0","39U1BHVTDMD8BSDZF4ABB1PN0H5T3B","A324M5ZRHX7RUV","3UAU495MIIEABANG75FBFHDC9WUUOI","","536.6000000238419","img/animal4.png","76","537","3","1","3","1,0.5,0,1,0,0.5,0.5,0,1",""
"","html-keyboard-response","145","80344","0.0-145.0","39U1BHVTDMD8BSDZF4ABB1PN0H5T3B","A324M5ZRHX7RUV","3UAU495MIIEABANG75FBFHDC9WUUOI","","null","<img src=""img/animal4.png"" style=""width:200px; border:14px solid green;"">","null","","","","","",""
"","image-keyboard-response","146","80710","0.0-146.0","39U1BHVTDMD8BSDZF4ABB1PN0H5T3B","A324M5ZRHX7RUV","3UAU495MIIEABANG75FBFHDC9WUUOI","","365.6999999284744","img/animal3.png","74","367.09999990463257","1","1","2","1,0.5,0,1,0,0.5,0.5,0,1",""
"","html-keyboard-response","147","81012","0.0-147.0","39U1BHVTDMD8BSDZF4ABB1PN0H5T3B","A324M5ZRHX7RUV","3UAU495MIIEABANG75FBFHDC9WUUOI","","null","<img src=""img/animal3.png"" style=""width:200px; border:14px solid green;"">","null","","","","","",""
"","image-keyboard-response","148","81577","0.0-148.0","39U1BHVTDMD8BSDZF4ABB1PN0H5T3B","A324M5ZRHX7RUV","3UAU495MIIEABANG75FBFHDC9WUUOI","","563.5","img/animal4.png","76","564.3000000715256","3","1","3","1,0.5,0,1,0,0.5,0.5,0,1",""
"","html-keyboard-response","149","81879","0.0-149.0","39U1BHVTDMD8BSDZF4ABB1PN0H5T3B","A324M5ZRHX7RUV","3UAU495MIIEABANG75FBFHDC9WUUOI","","null","<img src=""img/animal4.png"" style=""width:200px; border:14px solid green;"">","null","","","","","",""
"","image-keyboard-response","150","82329","0.0-150.0","39U1BHVTDMD8BSDZF4ABB1PN0H5T3B","A324M5ZRHX7RUV","3UAU495MIIEABANG75FBFHDC9WUUOI","","449.09999990463257","img/animal3.png","74","449.7000000476837","1","1","2","1,0.5,0,1,0,0.5,0.5,0,1",""
"","html-keyboard-response","151","82630","0.0-151.0","39U1BHVTDMD8BSDZF4ABB1PN0H5T3B","A324M5ZRHX7RUV","3UAU495MIIEABANG75FBFHDC9WUUOI","","null","<img src=""img/animal3.png"" style=""width:200px; border:14px solid green;"">","null","","","","","",""
"","image-keyboard-response","152","84087","0.0-152.0","39U1BHVTDMD8BSDZF4ABB1PN0H5T3B","A324M5ZRHX7RUV","3UAU495MIIEABANG75FBFHDC9WUUOI","","1456.3000000715256","img/animal4.png","74","1456.8999999761581","1","1","3","1,0.5,0,1,0,0.5,0.5,0,1",""
"","html-keyboard-response","153","84389","0.0-153.0","39U1BHVTDMD8BSDZF4ABB1PN0H5T3B","A324M5ZRHX7RUV","3UAU495MIIEABANG75FBFHDC9WUUOI","","null","<img src=""img/animal4.png"" style=""width:200px; border:14px solid green;"">","null","","","","","",""
"","image-keyboard-response","154","84818","0.0-154.0","39U1BHVTDMD8BSDZF4ABB1PN0H5T3B","A324M5ZRHX7RUV","3UAU495MIIEABANG75FBFHDC9WUUOI","","428.40000009536743","img/animal4.png","74","429","1","1","3","1,0.5,0,1,0,0.5,0.5,0,1",""
"","html-keyboard-response","155","85120","0.0-155.0","39U1BHVTDMD8BSDZF4ABB1PN0H5T3B","A324M5ZRHX7RUV","3UAU495MIIEABANG75FBFHDC9WUUOI","","null","<img src=""img/animal4.png"" style=""width:200px; border:14px solid green;"">","null","","","","","",""
"","image-keyboard-response","156","85574","0.0-156.0","39U1BHVTDMD8BSDZF4ABB1PN0H5T3B","A324M5ZRHX7RUV","3UAU495MIIEABANG75FBFHDC9WUUOI","","453.10000002384186","img/animal4.png","74","453.60000002384186","1","0","3","1,0.5,0,1,0,0.5,0.5,0,1",""
"","html-keyboard-response","157","85876","0.0-157.0","39U1BHVTDMD8BSDZF4ABB1PN0H5T3B","A324M5ZRHX7RUV","3UAU495MIIEABANG75FBFHDC9WUUOI","","null","<img src=""img/animal4.png"" style=""width:200px;border:14px solid red;"">","null","","","","","",""
"","image-keyboard-response","158","86426","0.0-158.0","39U1BHVTDMD8BSDZF4ABB1PN0H5T3B","A324M5ZRHX7RUV","3UAU495MIIEABANG75FBFHDC9WUUOI","","548.9000000953674","img/animal1.png","74","549.7000000476837","1","1","1","1,0.5,0,1,0,0.5,0.5,0,1",""
"","html-keyboard-response","159","86727","0.0-159.0","39U1BHVTDMD8BSDZF4ABB1PN0H5T3B","A324M5ZRHX7RUV","3UAU495MIIEABANG75FBFHDC9WUUOI","","null","<img src=""img/animal1.png"" style=""width:200px; border:14px solid green;"">","null","","","","","",""
"","image-keyboard-response","160","87158","0.0-160.0","39U1BHVTDMD8BSDZF4ABB1PN0H5T3B","A324M5ZRHX7RUV","3UAU495MIIEABANG75FBFHDC9WUUOI","","430","img/animal1.png","74","431.3000000715256","1","1","1","1,0.5,0,1,0,0.5,0.5,0,1",""
"","html-keyboard-response","161","87460","0.0-161.0","39U1BHVTDMD8BSDZF4ABB1PN0H5T3B","A324M5ZRHX7RUV","3UAU495MIIEABANG75FBFHDC9WUUOI","","null","<img src=""img/animal1.png"" style=""width:200px; border:14px solid green;"">","null","","","","","",""
"","image-keyboard-response","162","88219","0.0-162.0","39U1BHVTDMD8BSDZF4ABB1PN0H5T3B","A324M5ZRHX7RUV","3UAU495MIIEABANG75FBFHDC9WUUOI","","757.2000000476837","img/animal4.png","76","757.7999999523163","3","1","3","1,0.5,0,1,0,0.5,0.5,0,1",""
"","html-keyboard-response","163","88520","0.0-163.0","39U1BHVTDMD8BSDZF4ABB1PN0H5T3B","A324M5ZRHX7RUV","3UAU495MIIEABANG75FBFHDC9WUUOI","","null","<img src=""img/animal4.png"" style=""width:200px; border:14px solid green;"">","null","","","","","",""
"","image-keyboard-response","164","88950","0.0-164.0","39U1BHVTDMD8BSDZF4ABB1PN0H5T3B","A324M5ZRHX7RUV","3UAU495MIIEABANG75FBFHDC9WUUOI","","429.10000002384186","img/animal3.png","74","429.7999999523163","1","1","2","1,0.5,0,1,0,0.5,0.5,0,1",""
"","html-keyboard-response","165","89251","0.0-165.0","39U1BHVTDMD8BSDZF4ABB1PN0H5T3B","A324M5ZRHX7RUV","3UAU495MIIEABANG75FBFHDC9WUUOI","","null","<img src=""img/animal3.png"" style=""width:200px; border:14px solid green;"">","null","","","","","",""
"","image-keyboard-response","166","90274","0.0-166.0","39U1BHVTDMD8BSDZF4ABB1PN0H5T3B","A324M5ZRHX7RUV","3UAU495MIIEABANG75FBFHDC9WUUOI","","1022.1000000238419","img/animal4.png","76","1022.7000000476837","3","1","3","1,0.5,0,1,0,0.5,0.5,0,1",""
"","html-keyboard-response","167","90576","0.0-167.0","39U1BHVTDMD8BSDZF4ABB1PN0H5T3B","A324M5ZRHX7RUV","3UAU495MIIEABANG75FBFHDC9WUUOI","","null","<img src=""img/animal4.png"" style=""width:200px; border:14px solid green;"">","null","","","","","",""
"","image-keyboard-response","168","91150","0.0-168.0","39U1BHVTDMD8BSDZF4ABB1PN0H5T3B","A324M5ZRHX7RUV","3UAU495MIIEABANG75FBFHDC9WUUOI","","573.5","img/animal1.png","74","574.0999999046326","1","1","1","1,0.5,0,1,0,0.5,0.5,0,1",""
"","html-keyboard-response","169","91452","0.0-169.0","39U1BHVTDMD8BSDZF4ABB1PN0H5T3B","A324M5ZRHX7RUV","3UAU495MIIEABANG75FBFHDC9WUUOI","","null","<img src=""img/animal1.png"" style=""width:200px; border:14px solid green;"">","null","","","","","",""
"","image-keyboard-response","170","92745","0.0-170.0","39U1BHVTDMD8BSDZF4ABB1PN0H5T3B","A324M5ZRHX7RUV","3UAU495MIIEABANG75FBFHDC9WUUOI","","1291.8999999761581","img/animal4.png","76","1292.8000000715256","3","1","3","1,0.5,0,1,0,0.5,0.5,0,1",""
"","html-keyboard-response","171","93046","0.0-171.0","39U1BHVTDMD8BSDZF4ABB1PN0H5T3B","A324M5ZRHX7RUV","3UAU495MIIEABANG75FBFHDC9WUUOI","","null","<img src=""img/animal4.png"" style=""width:200px; border:14px solid green;"">","null","","","","","",""
"","image-keyboard-response","172","93523","0.0-172.0","39U1BHVTDMD8BSDZF4ABB1PN0H5T3B","A324M5ZRHX7RUV","3UAU495MIIEABANG75FBFHDC9WUUOI","","476.7000000476837","img/animal3.png","74","477.1999999284744","1","1","2","1,0.5,0,1,0,0.5,0.5,0,1",""
"","html-keyboard-response","173","93824","0.0-173.0","39U1BHVTDMD8BSDZF4ABB1PN0H5T3B","A324M5ZRHX7RUV","3UAU495MIIEABANG75FBFHDC9WUUOI","","null","<img src=""img/animal3.png"" style=""width:200px; border:14px solid green;"">","null","","","","","",""
"","image-keyboard-response","174","94548","0.0-174.0","39U1BHVTDMD8BSDZF4ABB1PN0H5T3B","A324M5ZRHX7RUV","3UAU495MIIEABANG75FBFHDC9WUUOI","","722.5","img/animal1.png","74","723.2999999523163","1","1","1","1,0.5,0,1,0,0.5,0.5,0,1",""
"","html-keyboard-response","175","94850","0.0-175.0","39U1BHVTDMD8BSDZF4ABB1PN0H5T3B","A324M5ZRHX7RUV","3UAU495MIIEABANG75FBFHDC9WUUOI","","null","<img src=""img/animal1.png"" style=""width:200px; border:14px solid green;"">","null","","","","","",""
"","image-keyboard-response","176","95366","0.0-176.0","39U1BHVTDMD8BSDZF4ABB1PN0H5T3B","A324M5ZRHX7RUV","3UAU495MIIEABANG75FBFHDC9WUUOI","","514.8000000715256","img/animal4.png","76","515.5","3","1","3","1,0.5,0,1,0,0.5,0.5,0,1",""
"","html-keyboard-response","177","95667","0.0-177.0","39U1BHVTDMD8BSDZF4ABB1PN0H5T3B","A324M5ZRHX7RUV","3UAU495MIIEABANG75FBFHDC9WUUOI","","null","<img src=""img/animal4.png"" style=""width:200px; border:14px solid green;"">","null","","","","","",""
"","image-keyboard-response","178","96161","0.0-178.0","39U1BHVTDMD8BSDZF4ABB1PN0H5T3B","A324M5ZRHX7RUV","3UAU495MIIEABANG75FBFHDC9WUUOI","","492.2000000476837","img/animal1.png","74","493.2999999523163","1","1","1","1,0.5,0,1,0,0.5,0.5,0,1",""
"","html-keyboard-response","179","96463","0.0-179.0","39U1BHVTDMD8BSDZF4ABB1PN0H5T3B","A324M5ZRHX7RUV","3UAU495MIIEABANG75FBFHDC9WUUOI","","null","<img src=""img/animal1.png"" style=""width:200px; border:14px solid green;"">","null","","","","","",""
"","image-keyboard-response","180","96960","0.0-180.0","39U1BHVTDMD8BSDZF4ABB1PN0H5T3B","A324M5ZRHX7RUV","3UAU495MIIEABANG75FBFHDC9WUUOI","","495.7999999523163","img/animal3.png","74","496.39999997615814","1","1","2","1,0.5,0,1,0,0.5,0.5,0,1",""
"","html-keyboard-response","181","97262","0.0-181.0","39U1BHVTDMD8BSDZF4ABB1PN0H5T3B","A324M5ZRHX7RUV","3UAU495MIIEABANG75FBFHDC9WUUOI","","null","<img src=""img/animal3.png"" style=""width:200px; border:14px solid green;"">","null","","","","","",""
"","html-keyboard-response","182","98970","0.0-182.0","39U1BHVTDMD8BSDZF4ABB1PN0H5T3B","A324M5ZRHX7RUV","3UAU495MIIEABANG75FBFHDC9WUUOI","","","","","","","","","",""
"","image-keyboard-response","183","100317","0.0-183.0","39U1BHVTDMD8BSDZF4ABB1PN0H5T3B","A324M5ZRHX7RUV","3UAU495MIIEABANG75FBFHDC9WUUOI","","1345.4000000953674","img/animal5.png","74","1346.7999999523163","1","1","1","1,0.5,0,0,1,0.5,0.5,0,1",""
"","html-keyboard-response","184","100619","0.0-184.0","39U1BHVTDMD8BSDZF4ABB1PN0H5T3B","A324M5ZRHX7RUV","3UAU495MIIEABANG75FBFHDC9WUUOI","","null","<img src=""img/animal5.png"" style=""width:200px; border:14px solid green;"">","null","","","","","",""
"","image-keyboard-response","185","101271","0.0-185.0","39U1BHVTDMD8BSDZF4ABB1PN0H5T3B","A324M5ZRHX7RUV","3UAU495MIIEABANG75FBFHDC9WUUOI","","651.1000000238419","img/animal5.png","74","651.6000000238419","1","1","1","1,0.5,0,0,1,0.5,0.5,0,1",""
"","html-keyboard-response","186","101574","0.0-186.0","39U1BHVTDMD8BSDZF4ABB1PN0H5T3B","A324M5ZRHX7RUV","3UAU495MIIEABANG75FBFHDC9WUUOI","","null","<img src=""img/animal5.png"" style=""width:200px; border:14px solid green;"">","null","","","","","",""
"","image-keyboard-response","187","102130","0.0-187.0","39U1BHVTDMD8BSDZF4ABB1PN0H5T3B","A324M5ZRHX7RUV","3UAU495MIIEABANG75FBFHDC9WUUOI","","554.5","img/animal6.png","75","555.3000000715256","2","0","3","1,0.5,0,0,1,0.5,0.5,0,1",""
"","html-keyboard-response","188","102431","0.0-188.0","39U1BHVTDMD8BSDZF4ABB1PN0H5T3B","A324M5ZRHX7RUV","3UAU495MIIEABANG75FBFHDC9WUUOI","","null","<img src=""img/animal6.png"" style=""width:200px;border:14px solid red;"">","null","","","","","",""
"","image-keyboard-response","189","103094","0.0-189.0","39U1BHVTDMD8BSDZF4ABB1PN0H5T3B","A324M5ZRHX7RUV","3UAU495MIIEABANG75FBFHDC9WUUOI","","662.5","img/animal2.png","76","663.1000000238419","3","1","2","1,0.5,0,0,1,0.5,0.5,0,1",""
"","html-keyboard-response","190","103396","0.0-190.0","39U1BHVTDMD8BSDZF4ABB1PN0H5T3B","A324M5ZRHX7RUV","3UAU495MIIEABANG75FBFHDC9WUUOI","","null","<img src=""img/animal2.png"" style=""width:200px; border:14px solid green;"">","null","","","","","",""
"","image-keyboard-response","191","103882","0.0-191.0","39U1BHVTDMD8BSDZF4ABB1PN0H5T3B","A324M5ZRHX7RUV","3UAU495MIIEABANG75FBFHDC9WUUOI","","485.2000000476837","img/animal2.png","76","486.1999999284744","3","0","2","1,0.5,0,0,1,0.5,0.5,0,1",""
"","html-keyboard-response","192","104184","0.0-192.0","39U1BHVTDMD8BSDZF4ABB1PN0H5T3B","A324M5ZRHX7RUV","3UAU495MIIEABANG75FBFHDC9WUUOI","","null","<img src=""img/animal2.png"" style=""width:200px;border:14px solid red;"">","null","","","","","",""
"","image-keyboard-response","193","105025","0.0-193.0","39U1BHVTDMD8BSDZF4ABB1PN0H5T3B","A324M5ZRHX7RUV","3UAU495MIIEABANG75FBFHDC9WUUOI","","839.5","img/animal5.png","76","841","3","0","1","1,0.5,0,0,1,0.5,0.5,0,1",""
"","html-keyboard-response","194","105327","0.0-194.0","39U1BHVTDMD8BSDZF4ABB1PN0H5T3B","A324M5ZRHX7RUV","3UAU495MIIEABANG75FBFHDC9WUUOI","","null","<img src=""img/animal5.png"" style=""width:200px;border:14px solid red;"">","null","","","","","",""
"","image-keyboard-response","195","106179","0.0-195.0","39U1BHVTDMD8BSDZF4ABB1PN0H5T3B","A324M5ZRHX7RUV","3UAU495MIIEABANG75FBFHDC9WUUOI","","851.2999999523163","img/animal6.png","74","852","1","1","3","1,0.5,0,0,1,0.5,0.5,0,1",""
"","html-keyboard-response","196","106480","0.0-196.0","39U1BHVTDMD8BSDZF4ABB1PN0H5T3B","A324M5ZRHX7RUV","3UAU495MIIEABANG75FBFHDC9WUUOI","","null","<img src=""img/animal6.png"" style=""width:200px; border:14px solid green;"">","null","","","","","",""
"","image-keyboard-response","197","107359","0.0-197.0","39U1BHVTDMD8BSDZF4ABB1PN0H5T3B","A324M5ZRHX7RUV","3UAU495MIIEABANG75FBFHDC9WUUOI","","877.8000000715256","img/animal2.png","76","879","3","1","2","1,0.5,0,0,1,0.5,0.5,0,1",""
"","html-keyboard-response","198","107661","0.0-198.0","39U1BHVTDMD8BSDZF4ABB1PN0H5T3B","A324M5ZRHX7RUV","3UAU495MIIEABANG75FBFHDC9WUUOI","","null","<img src=""img/animal2.png"" style=""width:200px; border:14px solid green;"">","null","","","","","",""
"","image-keyboard-response","199","108181","0.0-199.0","39U1BHVTDMD8BSDZF4ABB1PN0H5T3B","A324M5ZRHX7RUV","3UAU495MIIEABANG75FBFHDC9WUUOI","","519.5","img/animal5.png","75","520.2000000476837","2","1","1","1,0.5,0,0,1,0.5,0.5,0,1",""
"","html-keyboard-response","200","108482","0.0-200.0","39U1BHVTDMD8BSDZF4ABB1PN0H5T3B","A324M5ZRHX7RUV","3UAU495MIIEABANG75FBFHDC9WUUOI","","null","<img src=""img/animal5.png"" style=""width:200px; border:14px solid green;"">","null","","","","","",""
"","image-keyboard-response","201","109406","0.0-201.0","39U1BHVTDMD8BSDZF4ABB1PN0H5T3B","A324M5ZRHX7RUV","3UAU495MIIEABANG75FBFHDC9WUUOI","","923.1000000238419","img/animal6.png","74","923.7000000476837","1","1","3","1,0.5,0,0,1,0.5,0.5,0,1",""
"","html-keyboard-response","202","109708","0.0-202.0","39U1BHVTDMD8BSDZF4ABB1PN0H5T3B","A324M5ZRHX7RUV","3UAU495MIIEABANG75FBFHDC9WUUOI","","null","<img src=""img/animal6.png"" style=""width:200px; border:14px solid green;"">","null","","","","","",""
"","image-keyboard-response","203","110411","0.0-203.0","39U1BHVTDMD8BSDZF4ABB1PN0H5T3B","A324M5ZRHX7RUV","3UAU495MIIEABANG75FBFHDC9WUUOI","","701.8999999761581","img/animal2.png","76","702.8000000715256","3","1","2","1,0.5,0,0,1,0.5,0.5,0,1",""
"","html-keyboard-response","204","110712","0.0-204.0","39U1BHVTDMD8BSDZF4ABB1PN0H5T3B","A324M5ZRHX7RUV","3UAU495MIIEABANG75FBFHDC9WUUOI","","null","<img src=""img/animal2.png"" style=""width:200px; border:14px solid green;"">","null","","","","","",""
"","image-keyboard-response","205","111327","0.0-205.0","39U1BHVTDMD8BSDZF4ABB1PN0H5T3B","A324M5ZRHX7RUV","3UAU495MIIEABANG75FBFHDC9WUUOI","","614","img/animal2.png","76","614.6000000238419","3","1","2","1,0.5,0,0,1,0.5,0.5,0,1",""
"","html-keyboard-response","206","111629","0.0-206.0","39U1BHVTDMD8BSDZF4ABB1PN0H5T3B","A324M5ZRHX7RUV","3UAU495MIIEABANG75FBFHDC9WUUOI","","null","<img src=""img/animal2.png"" style=""width:200px; border:14px solid green;"">","null","","","","","",""
"","image-keyboard-response","207","112313","0.0-207.0","39U1BHVTDMD8BSDZF4ABB1PN0H5T3B","A324M5ZRHX7RUV","3UAU495MIIEABANG75FBFHDC9WUUOI","","682.6000000238419","img/animal5.png","74","684","1","1","1","1,0.5,0,0,1,0.5,0.5,0,1",""
"","html-keyboard-response","208","112615","0.0-208.0","39U1BHVTDMD8BSDZF4ABB1PN0H5T3B","A324M5ZRHX7RUV","3UAU495MIIEABANG75FBFHDC9WUUOI","","null","<img src=""img/animal5.png"" style=""width:200px; border:14px solid green;"">","null","","","","","",""
"","image-keyboard-response","209","113197","0.0-209.0","39U1BHVTDMD8BSDZF4ABB1PN0H5T3B","A324M5ZRHX7RUV","3UAU495MIIEABANG75FBFHDC9WUUOI","","581.6000000238419","img/animal5.png","74","582.5","1","1","1","1,0.5,0,0,1,0.5,0.5,0,1",""
"","html-keyboard-response","210","113500","0.0-210.0","39U1BHVTDMD8BSDZF4ABB1PN0H5T3B","A324M5ZRHX7RUV","3UAU495MIIEABANG75FBFHDC9WUUOI","","null","<img src=""img/animal5.png"" style=""width:200px; border:14px solid green;"">","null","","","","","",""
"","image-keyboard-response","211","114080","0.0-211.0","39U1BHVTDMD8BSDZF4ABB1PN0H5T3B","A324M5ZRHX7RUV","3UAU495MIIEABANG75FBFHDC9WUUOI","","579.7999999523163","img/animal6.png","75","580.3999999761581","2","0","3","1,0.5,0,0,1,0.5,0.5,0,1",""
"","html-keyboard-response","212","114382","0.0-212.0","39U1BHVTDMD8BSDZF4ABB1PN0H5T3B","A324M5ZRHX7RUV","3UAU495MIIEABANG75FBFHDC9WUUOI","","null","<img src=""img/animal6.png"" style=""width:200px;border:14px solid red;"">","null","","","","","",""
"","image-keyboard-response","213","114903","0.0-213.0","39U1BHVTDMD8BSDZF4ABB1PN0H5T3B","A324M5ZRHX7RUV","3UAU495MIIEABANG75FBFHDC9WUUOI","","519.8999999761581","img/animal5.png","74","520.5999999046326","1","1","1","1,0.5,0,0,1,0.5,0.5,0,1",""
"","html-keyboard-response","214","115205","0.0-214.0","39U1BHVTDMD8BSDZF4ABB1PN0H5T3B","A324M5ZRHX7RUV","3UAU495MIIEABANG75FBFHDC9WUUOI","","null","<img src=""img/animal5.png"" style=""width:200px; border:14px solid green;"">","null","","","","","",""
"","image-keyboard-response","215","115833","0.0-215.0","39U1BHVTDMD8BSDZF4ABB1PN0H5T3B","A324M5ZRHX7RUV","3UAU495MIIEABANG75FBFHDC9WUUOI","","627.5","img/animal2.png","76","628.1000000238419","3","1","2","1,0.5,0,0,1,0.5,0.5,0,1",""
"","html-keyboard-response","216","116134","0.0-216.0","39U1BHVTDMD8BSDZF4ABB1PN0H5T3B","A324M5ZRHX7RUV","3UAU495MIIEABANG75FBFHDC9WUUOI","","null","<img src=""img/animal2.png"" style=""width:200px; border:14px solid green;"">","null","","","","","",""
"","image-keyboard-response","217","116600","0.0-217.0","39U1BHVTDMD8BSDZF4ABB1PN0H5T3B","A324M5ZRHX7RUV","3UAU495MIIEABANG75FBFHDC9WUUOI","","465.10000002384186","img/animal2.png","76","466.60000002384186","3","0","2","1,0.5,0,0,1,0.5,0.5,0,1",""
"","html-keyboard-response","218","116902","0.0-218.0","39U1BHVTDMD8BSDZF4ABB1PN0H5T3B","A324M5ZRHX7RUV","3UAU495MIIEABANG75FBFHDC9WUUOI","","null","<img src=""img/animal2.png"" style=""width:200px;border:14px solid red;"">","null","","","","","",""
"","image-keyboard-response","219","117569","0.0-219.0","39U1BHVTDMD8BSDZF4ABB1PN0H5T3B","A324M5ZRHX7RUV","3UAU495MIIEABANG75FBFHDC9WUUOI","","666.1000000238419","img/animal6.png","75","666.8000000715256","2","0","3","1,0.5,0,0,1,0.5,0.5,0,1",""
"","html-keyboard-response","220","117870","0.0-220.0","39U1BHVTDMD8BSDZF4ABB1PN0H5T3B","A324M5ZRHX7RUV","3UAU495MIIEABANG75FBFHDC9WUUOI","","null","<img src=""img/animal6.png"" style=""width:200px;border:14px solid red;"">","null","","","","","",""
"","image-keyboard-response","221","118524","0.0-221.0","39U1BHVTDMD8BSDZF4ABB1PN0H5T3B","A324M5ZRHX7RUV","3UAU495MIIEABANG75FBFHDC9WUUOI","","652.7999999523163","img/animal5.png","74","653.3999999761581","1","1","1","1,0.5,0,0,1,0.5,0.5,0,1",""
"","html-keyboard-response","222","118825","0.0-222.0","39U1BHVTDMD8BSDZF4ABB1PN0H5T3B","A324M5ZRHX7RUV","3UAU495MIIEABANG75FBFHDC9WUUOI","","null","<img src=""img/animal5.png"" style=""width:200px; border:14px solid green;"">","null","","","","","",""
"","image-keyboard-response","223","119507","0.0-223.0","39U1BHVTDMD8BSDZF4ABB1PN0H5T3B","A324M5ZRHX7RUV","3UAU495MIIEABANG75FBFHDC9WUUOI","","681.0999999046326","img/animal6.png","76","683.2000000476837","3","1","3","1,0.5,0,0,1,0.5,0.5,0,1",""
"","html-keyboard-response","224","119810","0.0-224.0","39U1BHVTDMD8BSDZF4ABB1PN0H5T3B","A324M5ZRHX7RUV","3UAU495MIIEABANG75FBFHDC9WUUOI","","null","<img src=""img/animal6.png"" style=""width:200px; border:14px solid green;"">","null","","","","","",""
"","image-keyboard-response","225","120710","0.0-225.0","39U1BHVTDMD8BSDZF4ABB1PN0H5T3B","A324M5ZRHX7RUV","3UAU495MIIEABANG75FBFHDC9WUUOI","","899.1999999284744","img/animal2.png","75","899.7999999523163","2","1","2","1,0.5,0,0,1,0.5,0.5,0,1",""
"","html-keyboard-response","226","121012","0.0-226.0","39U1BHVTDMD8BSDZF4ABB1PN0H5T3B","A324M5ZRHX7RUV","3UAU495MIIEABANG75FBFHDC9WUUOI","","null","<img src=""img/animal2.png"" style=""width:200px; border:14px solid green;"">","null","","","","","",""
"","image-keyboard-response","227","121982","0.0-227.0","39U1BHVTDMD8BSDZF4ABB1PN0H5T3B","A324M5ZRHX7RUV","3UAU495MIIEABANG75FBFHDC9WUUOI","","969.6000000238419","img/animal5.png","74","970.0999999046326","1","1","1","1,0.5,0,0,1,0.5,0.5,0,1",""
"","html-keyboard-response","228","122284","0.0-228.0","39U1BHVTDMD8BSDZF4ABB1PN0H5T3B","A324M5ZRHX7RUV","3UAU495MIIEABANG75FBFHDC9WUUOI","","null","<img src=""img/animal5.png"" style=""width:200px; border:14px solid green;"">","null","","","","","",""
"","image-keyboard-response","229","122869","0.0-229.0","39U1BHVTDMD8BSDZF4ABB1PN0H5T3B","A324M5ZRHX7RUV","3UAU495MIIEABANG75FBFHDC9WUUOI","","583.4000000953674","img/animal6.png","74","584.3999999761581","1","0","3","1,0.5,0,0,1,0.5,0.5,0,1",""
"","html-keyboard-response","230","123171","0.0-230.0","39U1BHVTDMD8BSDZF4ABB1PN0H5T3B","A324M5ZRHX7RUV","3UAU495MIIEABANG75FBFHDC9WUUOI","","null","<img src=""img/animal6.png"" style=""width:200px;border:14px solid red;"">","null","","","","","",""
"","image-keyboard-response","231","123815","0.0-231.0","39U1BHVTDMD8BSDZF4ABB1PN0H5T3B","A324M5ZRHX7RUV","3UAU495MIIEABANG75FBFHDC9WUUOI","","642.5","img/animal5.png","74","643.5","1","1","1","1,0.5,0,0,1,0.5,0.5,0,1",""
"","html-keyboard-response","232","124116","0.0-232.0","39U1BHVTDMD8BSDZF4ABB1PN0H5T3B","A324M5ZRHX7RUV","3UAU495MIIEABANG75FBFHDC9WUUOI","","null","<img src=""img/animal5.png"" style=""width:200px; border:14px solid green;"">","null","","","","","",""
"","image-keyboard-response","233","124737","0.0-233.0","39U1BHVTDMD8BSDZF4ABB1PN0H5T3B","A324M5ZRHX7RUV","3UAU495MIIEABANG75FBFHDC9WUUOI","","619.3000000715256","img/animal5.png","74","620.7000000476837","1","1","1","1,0.5,0,0,1,0.5,0.5,0,1",""
"","html-keyboard-response","234","125039","0.0-234.0","39U1BHVTDMD8BSDZF4ABB1PN0H5T3B","A324M5ZRHX7RUV","3UAU495MIIEABANG75FBFHDC9WUUOI","","null","<img src=""img/animal5.png"" style=""width:200px; border:14px solid green;"">","null","","","","","",""
"","image-keyboard-response","235","125620","0.0-235.0","39U1BHVTDMD8BSDZF4ABB1PN0H5T3B","A324M5ZRHX7RUV","3UAU495MIIEABANG75FBFHDC9WUUOI","","579.4000000953674","img/animal6.png","75","580.1000000238419","2","0","3","1,0.5,0,0,1,0.5,0.5,0,1",""
"","html-keyboard-response","236","125922","0.0-236.0","39U1BHVTDMD8BSDZF4ABB1PN0H5T3B","A324M5ZRHX7RUV","3UAU495MIIEABANG75FBFHDC9WUUOI","","null","<img src=""img/animal6.png"" style=""width:200px;border:14px solid red;"">","null","","","","","",""
"","image-keyboard-response","237","126661","0.0-237.0","39U1BHVTDMD8BSDZF4ABB1PN0H5T3B","A324M5ZRHX7RUV","3UAU495MIIEABANG75FBFHDC9WUUOI","","738.3000000715256","img/animal5.png","74","739","1","1","1","1,0.5,0,0,1,0.5,0.5,0,1",""
"","html-keyboard-response","238","126962","0.0-238.0","39U1BHVTDMD8BSDZF4ABB1PN0H5T3B","A324M5ZRHX7RUV","3UAU495MIIEABANG75FBFHDC9WUUOI","","null","<img src=""img/animal5.png"" style=""width:200px; border:14px solid green;"">","null","","","","","",""
"","image-keyboard-response","239","127551","0.0-239.0","39U1BHVTDMD8BSDZF4ABB1PN0H5T3B","A324M5ZRHX7RUV","3UAU495MIIEABANG75FBFHDC9WUUOI","","587.1000000238419","img/animal2.png","75","588.8999999761581","2","1","2","1,0.5,0,0,1,0.5,0.5,0,1",""
"","html-keyboard-response","240","127854","0.0-240.0","39U1BHVTDMD8BSDZF4ABB1PN0H5T3B","A324M5ZRHX7RUV","3UAU495MIIEABANG75FBFHDC9WUUOI","","null","<img src=""img/animal2.png"" style=""width:200px; border:14px solid green;"">","null","","","","","",""
"","image-keyboard-response","241","128426","0.0-241.0","39U1BHVTDMD8BSDZF4ABB1PN0H5T3B","A324M5ZRHX7RUV","3UAU495MIIEABANG75FBFHDC9WUUOI","","570.8999999761581","img/animal6.png","76","571.6999999284744","3","1","3","1,0.5,0,0,1,0.5,0.5,0,1",""
"","html-keyboard-response","242","128728","0.0-242.0","39U1BHVTDMD8BSDZF4ABB1PN0H5T3B","A324M5ZRHX7RUV","3UAU495MIIEABANG75FBFHDC9WUUOI","","null","<img src=""img/animal6.png"" style=""width:200px; border:14px solid green;"">","null","","","","","",""
"","image-keyboard-response","243","129230","0.0-243.0","39U1BHVTDMD8BSDZF4ABB1PN0H5T3B","A324M5ZRHX7RUV","3UAU495MIIEABANG75FBFHDC9WUUOI","","500.3000000715256","img/animal2.png","75","501.1999999284744","2","1","2","1,0.5,0,0,1,0.5,0.5,0,1",""
"","html-keyboard-response","244","129531","0.0-244.0","39U1BHVTDMD8BSDZF4ABB1PN0H5T3B","A324M5ZRHX7RUV","3UAU495MIIEABANG75FBFHDC9WUUOI","","null","<img src=""img/animal2.png"" style=""width:200px; border:14px solid green;"">","null","","","","","",""
"","image-keyboard-response","245","130087","0.0-245.0","39U1BHVTDMD8BSDZF4ABB1PN0H5T3B","A324M5ZRHX7RUV","3UAU495MIIEABANG75FBFHDC9WUUOI","","555.2999999523163","img/animal6.png","76","555.8999999761581","3","1","3","1,0.5,0,0,1,0.5,0.5,0,1",""
"","html-keyboard-response","246","130389","0.0-246.0","39U1BHVTDMD8BSDZF4ABB1PN0H5T3B","A324M5ZRHX7RUV","3UAU495MIIEABANG75FBFHDC9WUUOI","","null","<img src=""img/animal6.png"" style=""width:200px; border:14px solid green;"">","null","","","","","",""
"","image-keyboard-response","247","130995","0.0-247.0","39U1BHVTDMD8BSDZF4ABB1PN0H5T3B","A324M5ZRHX7RUV","3UAU495MIIEABANG75FBFHDC9WUUOI","","605.2000000476837","img/animal2.png","75","605.8999999761581","2","1","2","1,0.5,0,0,1,0.5,0.5,0,1",""
"","html-keyboard-response","248","131297","0.0-248.0","39U1BHVTDMD8BSDZF4ABB1PN0H5T3B","A324M5ZRHX7RUV","3UAU495MIIEABANG75FBFHDC9WUUOI","","null","<img src=""img/animal2.png"" style=""width:200px; border:14px solid green;"">","null","","","","","",""
"","image-keyboard-response","249","131904","0.0-249.0","39U1BHVTDMD8BSDZF4ABB1PN0H5T3B","A324M5ZRHX7RUV","3UAU495MIIEABANG75FBFHDC9WUUOI","","606.7999999523163","img/animal2.png","75","607.2000000476837","2","1","2","1,0.5,0,0,1,0.5,0.5,0,1",""
"","html-keyboard-response","250","132206","0.0-250.0","39U1BHVTDMD8BSDZF4ABB1PN0H5T3B","A324M5ZRHX7RUV","3UAU495MIIEABANG75FBFHDC9WUUOI","","null","<img src=""img/animal2.png"" style=""width:200px; border:14px solid green;"">","null","","","","","",""
"","image-keyboard-response","251","132662","0.0-251.0","39U1BHVTDMD8BSDZF4ABB1PN0H5T3B","A324M5ZRHX7RUV","3UAU495MIIEABANG75FBFHDC9WUUOI","","455.5","img/animal2.png","75","456.10000002384186","2","1","2","1,0.5,0,0,1,0.5,0.5,0,1",""
"","html-keyboard-response","252","132963","0.0-252.0","39U1BHVTDMD8BSDZF4ABB1PN0H5T3B","A324M5ZRHX7RUV","3UAU495MIIEABANG75FBFHDC9WUUOI","","null","<img src=""img/animal2.png"" style=""width:200px; border:14px solid green;"">","null","","","","","",""
"","image-keyboard-response","253","133666","0.0-253.0","39U1BHVTDMD8BSDZF4ABB1PN0H5T3B","A324M5ZRHX7RUV","3UAU495MIIEABANG75FBFHDC9WUUOI","","701.8999999761581","img/animal5.png","74","702.6999999284744","1","1","1","1,0.5,0,0,1,0.5,0.5,0,1",""
"","html-keyboard-response","254","133967","0.0-254.0","39U1BHVTDMD8BSDZF4ABB1PN0H5T3B","A324M5ZRHX7RUV","3UAU495MIIEABANG75FBFHDC9WUUOI","","null","<img src=""img/animal5.png"" style=""width:200px; border:14px solid green;"">","null","","","","","",""
"","image-keyboard-response","255","134420","0.0-255.0","39U1BHVTDMD8BSDZF4ABB1PN0H5T3B","A324M5ZRHX7RUV","3UAU495MIIEABANG75FBFHDC9WUUOI","","452.5","img/animal5.png","74","453.2000000476837","1","1","1","1,0.5,0,0,1,0.5,0.5,0,1",""
"","html-keyboard-response","256","134722","0.0-256.0","39U1BHVTDMD8BSDZF4ABB1PN0H5T3B","A324M5ZRHX7RUV","3UAU495MIIEABANG75FBFHDC9WUUOI","","null","<img src=""img/animal5.png"" style=""width:200px; border:14px solid green;"">","null","","","","","",""
"","image-keyboard-response","257","135255","0.0-257.0","39U1BHVTDMD8BSDZF4ABB1PN0H5T3B","A324M5ZRHX7RUV","3UAU495MIIEABANG75FBFHDC9WUUOI","","531.5","img/animal2.png","76","532.2000000476837","3","0","2","1,0.5,0,0,1,0.5,0.5,0,1",""
"","html-keyboard-response","258","135556","0.0-258.0","39U1BHVTDMD8BSDZF4ABB1PN0H5T3B","A324M5ZRHX7RUV","3UAU495MIIEABANG75FBFHDC9WUUOI","","null","<img src=""img/animal2.png"" style=""width:200px;border:14px solid red;"">","null","","","","","",""
"","image-keyboard-response","259","136201","0.0-259.0","39U1BHVTDMD8BSDZF4ABB1PN0H5T3B","A324M5ZRHX7RUV","3UAU495MIIEABANG75FBFHDC9WUUOI","","643.1000000238419","img/animal6.png","76","644.0999999046326","3","1","3","1,0.5,0,0,1,0.5,0.5,0,1",""
"","html-keyboard-response","260","136503","0.0-260.0","39U1BHVTDMD8BSDZF4ABB1PN0H5T3B","A324M5ZRHX7RUV","3UAU495MIIEABANG75FBFHDC9WUUOI","","null","<img src=""img/animal6.png"" style=""width:200px; border:14px solid green;"">","null","","","","","",""
"","image-keyboard-response","261","136906","0.0-261.0","39U1BHVTDMD8BSDZF4ABB1PN0H5T3B","A324M5ZRHX7RUV","3UAU495MIIEABANG75FBFHDC9WUUOI","","401.8000000715256","img/animal2.png","75","403.2000000476837","2","1","2","1,0.5,0,0,1,0.5,0.5,0,1",""
"","html-keyboard-response","262","137209","0.0-262.0","39U1BHVTDMD8BSDZF4ABB1PN0H5T3B","A324M5ZRHX7RUV","3UAU495MIIEABANG75FBFHDC9WUUOI","","null","<img src=""img/animal2.png"" style=""width:200px; border:14px solid green;"">","null","","","","","",""
"","image-keyboard-response","263","137803","0.0-263.0","39U1BHVTDMD8BSDZF4ABB1PN0H5T3B","A324M5ZRHX7RUV","3UAU495MIIEABANG75FBFHDC9WUUOI","","593.3000000715256","img/animal6.png","76","593.7999999523163","3","1","3","1,0.5,0,0,1,0.5,0.5,0,1",""
"","html-keyboard-response","264","138105","0.0-264.0","39U1BHVTDMD8BSDZF4ABB1PN0H5T3B","A324M5ZRHX7RUV","3UAU495MIIEABANG75FBFHDC9WUUOI","","null","<img src=""img/animal6.png"" style=""width:200px; border:14px solid green;"">","null","","","","","",""
"","image-keyboard-response","265","138690","0.0-265.0","39U1BHVTDMD8BSDZF4ABB1PN0H5T3B","A324M5ZRHX7RUV","3UAU495MIIEABANG75FBFHDC9WUUOI","","584.3999999761581","img/animal6.png","76","585.1000000238419","3","1","3","1,0.5,0,0,1,0.5,0.5,0,1",""
"","html-keyboard-response","266","138991","0.0-266.0","39U1BHVTDMD8BSDZF4ABB1PN0H5T3B","A324M5ZRHX7RUV","3UAU495MIIEABANG75FBFHDC9WUUOI","","null","<img src=""img/animal6.png"" style=""width:200px; border:14px solid green;"">","null","","","","","",""
"","image-keyboard-response","267","139402","0.0-267.0","39U1BHVTDMD8BSDZF4ABB1PN0H5T3B","A324M5ZRHX7RUV","3UAU495MIIEABANG75FBFHDC9WUUOI","","410","img/animal6.png","76","410.7999999523163","3","1","3","1,0.5,0,0,1,0.5,0.5,0,1",""
"","html-keyboard-response","268","139704","0.0-268.0","39U1BHVTDMD8BSDZF4ABB1PN0H5T3B","A324M5ZRHX7RUV","3UAU495MIIEABANG75FBFHDC9WUUOI","","null","<img src=""img/animal6.png"" style=""width:200px; border:14px solid green;"">","null","","","","","",""
"","image-keyboard-response","269","140192","0.0-269.0","39U1BHVTDMD8BSDZF4ABB1PN0H5T3B","A324M5ZRHX7RUV","3UAU495MIIEABANG75FBFHDC9WUUOI","","487.2000000476837","img/animal2.png","75","487.7999999523163","2","1","2","1,0.5,0,0,1,0.5,0.5,0,1",""
"","html-keyboard-response","270","140493","0.0-270.0","39U1BHVTDMD8BSDZF4ABB1PN0H5T3B","A324M5ZRHX7RUV","3UAU495MIIEABANG75FBFHDC9WUUOI","","null","<img src=""img/animal2.png"" style=""width:200px; border:14px solid green;"">","null","","","","","",""
"","image-keyboard-response","271","140883","0.0-271.0","39U1BHVTDMD8BSDZF4ABB1PN0H5T3B","A324M5ZRHX7RUV","3UAU495MIIEABANG75FBFHDC9WUUOI","","390","img/animal2.png","75","390.7000000476837","2","1","2","1,0.5,0,0,1,0.5,0.5,0,1",""
"","html-keyboard-response","272","141185","0.0-272.0","39U1BHVTDMD8BSDZF4ABB1PN0H5T3B","A324M5ZRHX7RUV","3UAU495MIIEABANG75FBFHDC9WUUOI","","null","<img src=""img/animal2.png"" style=""width:200px; border:14px solid green;"">","null","","","","","",""
"","image-keyboard-response","273","141774","0.0-273.0","39U1BHVTDMD8BSDZF4ABB1PN0H5T3B","A324M5ZRHX7RUV","3UAU495MIIEABANG75FBFHDC9WUUOI","","588.6999999284744","img/animal6.png","76","589.5","3","1","3","1,0.5,0,0,1,0.5,0.5,0,1",""
"","html-keyboard-response","274","142075","0.0-274.0","39U1BHVTDMD8BSDZF4ABB1PN0H5T3B","A324M5ZRHX7RUV","3UAU495MIIEABANG75FBFHDC9WUUOI","","null","<img src=""img/animal6.png"" style=""width:200px; border:14px solid green;"">","null","","","","","",""
"","image-keyboard-response","275","142677","0.0-275.0","39U1BHVTDMD8BSDZF4ABB1PN0H5T3B","A324M5ZRHX7RUV","3UAU495MIIEABANG75FBFHDC9WUUOI","","600.9000000953674","img/animal2.png","75","601.7000000476837","2","1","2","1,0.5,0,0,1,0.5,0.5,0,1",""
"","html-keyboard-response","276","142978","0.0-276.0","39U1BHVTDMD8BSDZF4ABB1PN0H5T3B","A324M5ZRHX7RUV","3UAU495MIIEABANG75FBFHDC9WUUOI","","null","<img src=""img/animal2.png"" style=""width:200px; border:14px solid green;"">","null","","","","","",""
"","image-keyboard-response","277","143779","0.0-277.0","39U1BHVTDMD8BSDZF4ABB1PN0H5T3B","A324M5ZRHX7RUV","3UAU495MIIEABANG75FBFHDC9WUUOI","","800.6000000238419","img/animal5.png","74","801.2000000476837","1","1","1","1,0.5,0,0,1,0.5,0.5,0,1",""
"","html-keyboard-response","278","144081","0.0-278.0","39U1BHVTDMD8BSDZF4ABB1PN0H5T3B","A324M5ZRHX7RUV","3UAU495MIIEABANG75FBFHDC9WUUOI","","null","<img src=""img/animal5.png"" style=""width:200px; border:14px solid green;"">","null","","","","","",""
"","image-keyboard-response","279","144466","0.0-279.0","39U1BHVTDMD8BSDZF4ABB1PN0H5T3B","A324M5ZRHX7RUV","3UAU495MIIEABANG75FBFHDC9WUUOI","","383.8000000715256","img/animal5.png","74","384.5","1","1","1","1,0.5,0,0,1,0.5,0.5,0,1",""
"","html-keyboard-response","280","144767","0.0-280.0","39U1BHVTDMD8BSDZF4ABB1PN0H5T3B","A324M5ZRHX7RUV","3UAU495MIIEABANG75FBFHDC9WUUOI","","null","<img src=""img/animal5.png"" style=""width:200px; border:14px solid green;"">","null","","","","","",""
"","image-keyboard-response","281","145184","0.0-281.0","39U1BHVTDMD8BSDZF4ABB1PN0H5T3B","A324M5ZRHX7RUV","3UAU495MIIEABANG75FBFHDC9WUUOI","","415.2000000476837","img/animal5.png","74","416.5","1","1","1","1,0.5,0,0,1,0.5,0.5,0,1",""
"","html-keyboard-response","282","145486","0.0-282.0","39U1BHVTDMD8BSDZF4ABB1PN0H5T3B","A324M5ZRHX7RUV","3UAU495MIIEABANG75FBFHDC9WUUOI","","null","<img src=""img/animal5.png"" style=""width:200px; border:14px solid green;"">","null","","","","","",""
"","image-keyboard-response","283","145912","0.0-283.0","39U1BHVTDMD8BSDZF4ABB1PN0H5T3B","A324M5ZRHX7RUV","3UAU495MIIEABANG75FBFHDC9WUUOI","","424.6999999284744","img/animal5.png","74","426.2000000476837","1","1","1","1,0.5,0,0,1,0.5,0.5,0,1",""
"","html-keyboard-response","284","146214","0.0-284.0","39U1BHVTDMD8BSDZF4ABB1PN0H5T3B","A324M5ZRHX7RUV","3UAU495MIIEABANG75FBFHDC9WUUOI","","null","<img src=""img/animal5.png"" style=""width:200px; border:14px solid green;"">","null","","","","","",""
"","image-keyboard-response","285","146824","0.0-285.0","39U1BHVTDMD8BSDZF4ABB1PN0H5T3B","A324M5ZRHX7RUV","3UAU495MIIEABANG75FBFHDC9WUUOI","","609.5","img/animal2.png","76","610.1000000238419","3","1","2","1,0.5,0,0,1,0.5,0.5,0,1",""
"","html-keyboard-response","286","147126","0.0-286.0","39U1BHVTDMD8BSDZF4ABB1PN0H5T3B","A324M5ZRHX7RUV","3UAU495MIIEABANG75FBFHDC9WUUOI","","null","<img src=""img/animal2.png"" style=""width:200px; border:14px solid green;"">","null","","","","","",""
"","image-keyboard-response","287","148252","0.0-287.0","39U1BHVTDMD8BSDZF4ABB1PN0H5T3B","A324M5ZRHX7RUV","3UAU495MIIEABANG75FBFHDC9WUUOI","","1124.5","img/animal2.png","76","1125.2999999523163","3","0","2","1,0.5,0,0,1,0.5,0.5,0,1",""
"","html-keyboard-response","288","148554","0.0-288.0","39U1BHVTDMD8BSDZF4ABB1PN0H5T3B","A324M5ZRHX7RUV","3UAU495MIIEABANG75FBFHDC9WUUOI","","null","<img src=""img/animal2.png"" style=""width:200px;border:14px solid red;"">","null","","","","","",""
"","image-keyboard-response","289","149064","0.0-289.0","39U1BHVTDMD8BSDZF4ABB1PN0H5T3B","A324M5ZRHX7RUV","3UAU495MIIEABANG75FBFHDC9WUUOI","","508.89999997615814","img/animal6.png","76","509.60000002384186","3","1","3","1,0.5,0,0,1,0.5,0.5,0,1",""
"","html-keyboard-response","290","149365","0.0-290.0","39U1BHVTDMD8BSDZF4ABB1PN0H5T3B","A324M5ZRHX7RUV","3UAU495MIIEABANG75FBFHDC9WUUOI","","null","<img src=""img/animal6.png"" style=""width:200px; border:14px solid green;"">","null","","","","","",""
"","image-keyboard-response","291","149839","0.0-291.0","39U1BHVTDMD8BSDZF4ABB1PN0H5T3B","A324M5ZRHX7RUV","3UAU495MIIEABANG75FBFHDC9WUUOI","","473","img/animal2.png","75","473.8000000715256","2","1","2","1,0.5,0,0,1,0.5,0.5,0,1",""
"","html-keyboard-response","292","150141","0.0-292.0","39U1BHVTDMD8BSDZF4ABB1PN0H5T3B","A324M5ZRHX7RUV","3UAU495MIIEABANG75FBFHDC9WUUOI","","null","<img src=""img/animal2.png"" style=""width:200px; border:14px solid green;"">","null","","","","","",""
"","image-keyboard-response","293","150567","0.0-293.0","39U1BHVTDMD8BSDZF4ABB1PN0H5T3B","A324M5ZRHX7RUV","3UAU495MIIEABANG75FBFHDC9WUUOI","","425.3000000715256","img/animal6.png","76","426.5","3","1","3","1,0.5,0,0,1,0.5,0.5,0,1",""
"","html-keyboard-response","294","150870","0.0-294.0","39U1BHVTDMD8BSDZF4ABB1PN0H5T3B","A324M5ZRHX7RUV","3UAU495MIIEABANG75FBFHDC9WUUOI","","null","<img src=""img/animal6.png"" style=""width:200px; border:14px solid green;"">","null","","","","","",""
"","image-keyboard-response","295","151439","0.0-295.0","39U1BHVTDMD8BSDZF4ABB1PN0H5T3B","A324M5ZRHX7RUV","3UAU495MIIEABANG75FBFHDC9WUUOI","","568.4000000953674","img/animal6.png","76","569.2000000476837","3","1","3","1,0.5,0,0,1,0.5,0.5,0,1",""
"","html-keyboard-response","296","151740","0.0-296.0","39U1BHVTDMD8BSDZF4ABB1PN0H5T3B","A324M5ZRHX7RUV","3UAU495MIIEABANG75FBFHDC9WUUOI","","null","<img src=""img/animal6.png"" style=""width:200px; border:14px solid green;"">","null","","","","","",""
"","image-keyboard-response","297","152257","0.0-297.0","39U1BHVTDMD8BSDZF4ABB1PN0H5T3B","A324M5ZRHX7RUV","3UAU495MIIEABANG75FBFHDC9WUUOI","","516","img/animal5.png","75","516.6000000238419","2","1","1","1,0.5,0,0,1,0.5,0.5,0,1",""
"","html-keyboard-response","298","152558","0.0-298.0","39U1BHVTDMD8BSDZF4ABB1PN0H5T3B","A324M5ZRHX7RUV","3UAU495MIIEABANG75FBFHDC9WUUOI","","null","<img src=""img/animal5.png"" style=""width:200px; border:14px solid green;"">","null","","","","","",""
"","image-keyboard-response","299","153665","0.0-299.0","39U1BHVTDMD8BSDZF4ABB1PN0H5T3B","A324M5ZRHX7RUV","3UAU495MIIEABANG75FBFHDC9WUUOI","","1106","img/animal2.png","75","1106.6000000238419","2","1","2","1,0.5,0,0,1,0.5,0.5,0,1",""
"","html-keyboard-response","300","153966","0.0-300.0","39U1BHVTDMD8BSDZF4ABB1PN0H5T3B","A324M5ZRHX7RUV","3UAU495MIIEABANG75FBFHDC9WUUOI","","null","<img src=""img/animal2.png"" style=""width:200px; border:14px solid green;"">","null","","","","","",""
"","image-keyboard-response","301","154559","0.0-301.0","39U1BHVTDMD8BSDZF4ABB1PN0H5T3B","A324M5ZRHX7RUV","3UAU495MIIEABANG75FBFHDC9WUUOI","","592.1999999284744","img/animal6.png","76","592.9000000953674","3","1","3","1,0.5,0,0,1,0.5,0.5,0,1",""
"","html-keyboard-response","302","154862","0.0-302.0","39U1BHVTDMD8BSDZF4ABB1PN0H5T3B","A324M5ZRHX7RUV","3UAU495MIIEABANG75FBFHDC9WUUOI","","null","<img src=""img/animal6.png"" style=""width:200px; border:14px solid green;"">","null","","","","","",""
"","image-keyboard-response","303","156607","0.0-303.0","39U1BHVTDMD8BSDZF4ABB1PN0H5T3B","A324M5ZRHX7RUV","3UAU495MIIEABANG75FBFHDC9WUUOI","","1743.7000000476837","img/animal6.png","76","1745","3","1","3","1,0.5,0,0,1,0.5,0.5,0,1",""
"","html-keyboard-response","304","156910","0.0-304.0","39U1BHVTDMD8BSDZF4ABB1PN0H5T3B","A324M5ZRHX7RUV","3UAU495MIIEABANG75FBFHDC9WUUOI","","null","<img src=""img/animal6.png"" style=""width:200px; border:14px solid green;"">","null","","","","","",""
"","image-keyboard-response","305","157274","0.0-305.0","39U1BHVTDMD8BSDZF4ABB1PN0H5T3B","A324M5ZRHX7RUV","3UAU495MIIEABANG75FBFHDC9WUUOI","","362.5","img/animal6.png","76","363.5","3","1","3","1,0.5,0,0,1,0.5,0.5,0,1",""
"","html-keyboard-response","306","157576","0.0-306.0","39U1BHVTDMD8BSDZF4ABB1PN0H5T3B","A324M5ZRHX7RUV","3UAU495MIIEABANG75FBFHDC9WUUOI","","null","<img src=""img/animal6.png"" style=""width:200px; border:14px solid green;"">","null","","","","","",""
"","image-keyboard-response","307","158001","0.0-307.0","39U1BHVTDMD8BSDZF4ABB1PN0H5T3B","A324M5ZRHX7RUV","3UAU495MIIEABANG75FBFHDC9WUUOI","","424.39999997615814","img/animal6.png","76","425.39999997615814","3","1","3","1,0.5,0,0,1,0.5,0.5,0,1",""
"","html-keyboard-response","308","158303","0.0-308.0","39U1BHVTDMD8BSDZF4ABB1PN0H5T3B","A324M5ZRHX7RUV","3UAU495MIIEABANG75FBFHDC9WUUOI","","null","<img src=""img/animal6.png"" style=""width:200px; border:14px solid green;"">","null","","","","","",""
"","image-keyboard-response","309","158749","0.0-309.0","39U1BHVTDMD8BSDZF4ABB1PN0H5T3B","A324M5ZRHX7RUV","3UAU495MIIEABANG75FBFHDC9WUUOI","","445.2000000476837","img/animal6.png","76","445.7999999523163","3","1","3","1,0.5,0,0,1,0.5,0.5,0,1",""
"","html-keyboard-response","310","159050","0.0-310.0","39U1BHVTDMD8BSDZF4ABB1PN0H5T3B","A324M5ZRHX7RUV","3UAU495MIIEABANG75FBFHDC9WUUOI","","null","<img src=""img/animal6.png"" style=""width:200px; border:14px solid green;"">","null","","","","","",""
"","image-keyboard-response","311","159606","0.0-311.0","39U1BHVTDMD8BSDZF4ABB1PN0H5T3B","A324M5ZRHX7RUV","3UAU495MIIEABANG75FBFHDC9WUUOI","","555.0999999046326","img/animal2.png","75","556","2","1","2","1,0.5,0,0,1,0.5,0.5,0,1",""
"","html-keyboard-response","312","159908","0.0-312.0","39U1BHVTDMD8BSDZF4ABB1PN0H5T3B","A324M5ZRHX7RUV","3UAU495MIIEABANG75FBFHDC9WUUOI","","null","<img src=""img/animal2.png"" style=""width:200px; border:14px solid green;"">","null","","","","","",""
"","image-keyboard-response","313","160490","0.0-313.0","39U1BHVTDMD8BSDZF4ABB1PN0H5T3B","A324M5ZRHX7RUV","3UAU495MIIEABANG75FBFHDC9WUUOI","","580.6999999284744","img/animal5.png","74","581.6000000238419","1","1","1","1,0.5,0,0,1,0.5,0.5,0,1",""
"","html-keyboard-response","314","160792","0.0-314.0","39U1BHVTDMD8BSDZF4ABB1PN0H5T3B","A324M5ZRHX7RUV","3UAU495MIIEABANG75FBFHDC9WUUOI","","null","<img src=""img/animal5.png"" style=""width:200px; border:14px solid green;"">","null","","","","","",""
"","image-keyboard-response","315","161339","0.0-315.0","39U1BHVTDMD8BSDZF4ABB1PN0H5T3B","A324M5ZRHX7RUV","3UAU495MIIEABANG75FBFHDC9WUUOI","","546.1999999284744","img/animal6.png","76","547.1000000238419","3","1","3","1,0.5,0,0,1,0.5,0.5,0,1",""
"","html-keyboard-response","316","161641","0.0-316.0","39U1BHVTDMD8BSDZF4ABB1PN0H5T3B","A324M5ZRHX7RUV","3UAU495MIIEABANG75FBFHDC9WUUOI","","null","<img src=""img/animal6.png"" style=""width:200px; border:14px solid green;"">","null","","","","","",""
"","image-keyboard-response","317","162238","0.0-317.0","39U1BHVTDMD8BSDZF4ABB1PN0H5T3B","A324M5ZRHX7RUV","3UAU495MIIEABANG75FBFHDC9WUUOI","","596.3999999761581","img/animal5.png","75","597.7000000476837","2","1","1","1,0.5,0,0,1,0.5,0.5,0,1",""
"","html-keyboard-response","318","162541","0.0-318.0","39U1BHVTDMD8BSDZF4ABB1PN0H5T3B","A324M5ZRHX7RUV","3UAU495MIIEABANG75FBFHDC9WUUOI","","null","<img src=""img/animal5.png"" style=""width:200px; border:14px solid green;"">","null","","","","","",""
"","image-keyboard-response","319","163259","0.0-319.0","39U1BHVTDMD8BSDZF4ABB1PN0H5T3B","A324M5ZRHX7RUV","3UAU495MIIEABANG75FBFHDC9WUUOI","","717.5","img/animal2.png","75","718.1999999284744","2","1","2","1,0.5,0,0,1,0.5,0.5,0,1",""
"","html-keyboard-response","320","163565","0.0-320.0","39U1BHVTDMD8BSDZF4ABB1PN0H5T3B","A324M5ZRHX7RUV","3UAU495MIIEABANG75FBFHDC9WUUOI","","null","<img src=""img/animal2.png"" style=""width:200px; border:14px solid green;"">","null","","","","","",""
"","image-keyboard-response","321","164046","0.0-321.0","39U1BHVTDMD8BSDZF4ABB1PN0H5T3B","A324M5ZRHX7RUV","3UAU495MIIEABANG75FBFHDC9WUUOI","","479.10000002384186","img/animal6.png","76","480.3000000715256","3","1","3","1,0.5,0,0,1,0.5,0.5,0,1",""
"","html-keyboard-response","322","164349","0.0-322.0","39U1BHVTDMD8BSDZF4ABB1PN0H5T3B","A324M5ZRHX7RUV","3UAU495MIIEABANG75FBFHDC9WUUOI","","null","<img src=""img/animal6.png"" style=""width:200px; border:14px solid green;"">","null","","","","","",""
"","image-keyboard-response","323","164929","0.0-323.0","39U1BHVTDMD8BSDZF4ABB1PN0H5T3B","A324M5ZRHX7RUV","3UAU495MIIEABANG75FBFHDC9WUUOI","","579.2000000476837","img/animal5.png","74","579.8999999761581","1","1","1","1,0.5,0,0,1,0.5,0.5,0,1",""
"","html-keyboard-response","324","165231","0.0-324.0","39U1BHVTDMD8BSDZF4ABB1PN0H5T3B","A324M5ZRHX7RUV","3UAU495MIIEABANG75FBFHDC9WUUOI","","null","<img src=""img/animal5.png"" style=""width:200px; border:14px solid green;"">","null","","","","","",""
"","image-keyboard-response","325","166239","0.0-325.0","39U1BHVTDMD8BSDZF4ABB1PN0H5T3B","A324M5ZRHX7RUV","3UAU495MIIEABANG75FBFHDC9WUUOI","","1006.5999999046326","img/animal2.png","76","1007.2999999523163","3","1","2","1,0.5,0,0,1,0.5,0.5,0,1",""
"","html-keyboard-response","326","166541","0.0-326.0","39U1BHVTDMD8BSDZF4ABB1PN0H5T3B","A324M5ZRHX7RUV","3UAU495MIIEABANG75FBFHDC9WUUOI","","null","<img src=""img/animal2.png"" style=""width:200px; border:14px solid green;"">","null","","","","","",""
"","image-keyboard-response","327","167073","0.0-327.0","39U1BHVTDMD8BSDZF4ABB1PN0H5T3B","A324M5ZRHX7RUV","3UAU495MIIEABANG75FBFHDC9WUUOI","","531.5999999046326","img/animal5.png","75","532.2000000476837","2","1","1","1,0.5,0,0,1,0.5,0.5,0,1",""
"","html-keyboard-response","328","167375","0.0-328.0","39U1BHVTDMD8BSDZF4ABB1PN0H5T3B","A324M5ZRHX7RUV","3UAU495MIIEABANG75FBFHDC9WUUOI","","null","<img src=""img/animal5.png"" style=""width:200px; border:14px solid green;"">","null","","","","","",""
"","image-keyboard-response","329","168069","0.0-329.0","39U1BHVTDMD8BSDZF4ABB1PN0H5T3B","A324M5ZRHX7RUV","3UAU495MIIEABANG75FBFHDC9WUUOI","","692.6000000238419","img/animal6.png","76","693.8999999761581","3","1","3","1,0.5,0,0,1,0.5,0.5,0,1",""
"","html-keyboard-response","330","168372","0.0-330.0","39U1BHVTDMD8BSDZF4ABB1PN0H5T3B","A324M5ZRHX7RUV","3UAU495MIIEABANG75FBFHDC9WUUOI","","null","<img src=""img/animal6.png"" style=""width:200px; border:14px solid green;"">","null","","","","","",""
"","image-keyboard-response","331","169021","0.0-331.0","39U1BHVTDMD8BSDZF4ABB1PN0H5T3B","A324M5ZRHX7RUV","3UAU495MIIEABANG75FBFHDC9WUUOI","","647.0999999046326","img/animal5.png","74","648.0999999046326","1","1","1","1,0.5,0,0,1,0.5,0.5,0,1",""
"","html-keyboard-response","332","169323","0.0-332.0","39U1BHVTDMD8BSDZF4ABB1PN0H5T3B","A324M5ZRHX7RUV","3UAU495MIIEABANG75FBFHDC9WUUOI","","null","<img src=""img/animal5.png"" style=""width:200px; border:14px solid green;"">","null","","","","","",""
"","image-keyboard-response","333","169787","0.0-333.0","39U1BHVTDMD8BSDZF4ABB1PN0H5T3B","A324M5ZRHX7RUV","3UAU495MIIEABANG75FBFHDC9WUUOI","","463.8000000715256","img/animal2.png","75","464.60000002384186","2","1","2","1,0.5,0,0,1,0.5,0.5,0,1",""
"","html-keyboard-response","334","170088","0.0-334.0","39U1BHVTDMD8BSDZF4ABB1PN0H5T3B","A324M5ZRHX7RUV","3UAU495MIIEABANG75FBFHDC9WUUOI","","null","<img src=""img/animal2.png"" style=""width:200px; border:14px solid green;"">","null","","","","","",""
"","image-keyboard-response","335","170793","0.0-335.0","39U1BHVTDMD8BSDZF4ABB1PN0H5T3B","A324M5ZRHX7RUV","3UAU495MIIEABANG75FBFHDC9WUUOI","","703.3999999761581","img/animal5.png","74","704.1000000238419","1","1","1","1,0.5,0,0,1,0.5,0.5,0,1",""
"","html-keyboard-response","336","171094","0.0-336.0","39U1BHVTDMD8BSDZF4ABB1PN0H5T3B","A324M5ZRHX7RUV","3UAU495MIIEABANG75FBFHDC9WUUOI","","null","<img src=""img/animal5.png"" style=""width:200px; border:14px solid green;"">","null","","","","","",""
"","image-keyboard-response","337","171686","0.0-337.0","39U1BHVTDMD8BSDZF4ABB1PN0H5T3B","A324M5ZRHX7RUV","3UAU495MIIEABANG75FBFHDC9WUUOI","","591.4000000953674","img/animal2.png","75","592.0999999046326","2","1","2","1,0.5,0,0,1,0.5,0.5,0,1",""
"","html-keyboard-response","338","171988","0.0-338.0","39U1BHVTDMD8BSDZF4ABB1PN0H5T3B","A324M5ZRHX7RUV","3UAU495MIIEABANG75FBFHDC9WUUOI","","null","<img src=""img/animal2.png"" style=""width:200px; border:14px solid green;"">","null","","","","","",""
"","image-keyboard-response","339","172671","0.0-339.0","39U1BHVTDMD8BSDZF4ABB1PN0H5T3B","A324M5ZRHX7RUV","3UAU495MIIEABANG75FBFHDC9WUUOI","","681.3000000715256","img/animal5.png","74","682.2999999523163","1","1","1","1,0.5,0,0,1,0.5,0.5,0,1",""
"","html-keyboard-response","340","172974","0.0-340.0","39U1BHVTDMD8BSDZF4ABB1PN0H5T3B","A324M5ZRHX7RUV","3UAU495MIIEABANG75FBFHDC9WUUOI","","null","<img src=""img/animal5.png"" style=""width:200px; border:14px solid green;"">","null","","","","","",""
"","image-keyboard-response","341","173471","0.0-341.0","39U1BHVTDMD8BSDZF4ABB1PN0H5T3B","A324M5ZRHX7RUV","3UAU495MIIEABANG75FBFHDC9WUUOI","","496.39999997615814","img/animal5.png","74","497","1","1","1","1,0.5,0,0,1,0.5,0.5,0,1",""
"","html-keyboard-response","342","173772","0.0-342.0","39U1BHVTDMD8BSDZF4ABB1PN0H5T3B","A324M5ZRHX7RUV","3UAU495MIIEABANG75FBFHDC9WUUOI","","null","<img src=""img/animal5.png"" style=""width:200px; border:14px solid green;"">","null","","","","","",""
"","image-keyboard-response","343","174774","0.0-343.0","39U1BHVTDMD8BSDZF4ABB1PN0H5T3B","A324M5ZRHX7RUV","3UAU495MIIEABANG75FBFHDC9WUUOI","","1001.1000000238419","img/animal5.png","74","1001.7000000476837","1","1","1","1,0.5,0,0,1,0.5,0.5,0,1",""
"","html-keyboard-response","344","175075","0.0-344.0","39U1BHVTDMD8BSDZF4ABB1PN0H5T3B","A324M5ZRHX7RUV","3UAU495MIIEABANG75FBFHDC9WUUOI","","null","<img src=""img/animal5.png"" style=""width:200px; border:14px solid green;"">","null","","","","","",""
"","image-keyboard-response","345","176106","0.0-345.0","39U1BHVTDMD8BSDZF4ABB1PN0H5T3B","A324M5ZRHX7RUV","3UAU495MIIEABANG75FBFHDC9WUUOI","","1030.5999999046326","img/animal2.png","75","1031.2000000476837","2","1","2","1,0.5,0,0,1,0.5,0.5,0,1",""
"","html-keyboard-response","346","176407","0.0-346.0","39U1BHVTDMD8BSDZF4ABB1PN0H5T3B","A324M5ZRHX7RUV","3UAU495MIIEABANG75FBFHDC9WUUOI","","null","<img src=""img/animal2.png"" style=""width:200px; border:14px solid green;"">","null","","","","","",""
"","image-keyboard-response","347","176870","0.0-347.0","39U1BHVTDMD8BSDZF4ABB1PN0H5T3B","A324M5ZRHX7RUV","3UAU495MIIEABANG75FBFHDC9WUUOI","","462.2999999523163","img/animal5.png","74","463.1999999284744","1","1","1","1,0.5,0,0,1,0.5,0.5,0,1",""
"","html-keyboard-response","348","177173","0.0-348.0","39U1BHVTDMD8BSDZF4ABB1PN0H5T3B","A324M5ZRHX7RUV","3UAU495MIIEABANG75FBFHDC9WUUOI","","null","<img src=""img/animal5.png"" style=""width:200px; border:14px solid green;"">","null","","","","","",""
"","image-keyboard-response","349","177687","0.0-349.0","39U1BHVTDMD8BSDZF4ABB1PN0H5T3B","A324M5ZRHX7RUV","3UAU495MIIEABANG75FBFHDC9WUUOI","","512.7999999523163","img/animal2.png","75","514.1000000238419","2","1","2","1,0.5,0,0,1,0.5,0.5,0,1",""
"","html-keyboard-response","350","177988","0.0-350.0","39U1BHVTDMD8BSDZF4ABB1PN0H5T3B","A324M5ZRHX7RUV","3UAU495MIIEABANG75FBFHDC9WUUOI","","null","<img src=""img/animal2.png"" style=""width:200px; border:14px solid green;"">","null","","","","","",""
"","image-keyboard-response","351","178614","0.0-351.0","39U1BHVTDMD8BSDZF4ABB1PN0H5T3B","A324M5ZRHX7RUV","3UAU495MIIEABANG75FBFHDC9WUUOI","","624","img/animal6.png","76","626","3","1","3","1,0.5,0,0,1,0.5,0.5,0,1",""
"","html-keyboard-response","352","178917","0.0-352.0","39U1BHVTDMD8BSDZF4ABB1PN0H5T3B","A324M5ZRHX7RUV","3UAU495MIIEABANG75FBFHDC9WUUOI","","null","<img src=""img/animal6.png"" style=""width:200px; border:14px solid green;"">","null","","","","","",""
"","image-keyboard-response","353","179587","0.0-353.0","39U1BHVTDMD8BSDZF4ABB1PN0H5T3B","A324M5ZRHX7RUV","3UAU495MIIEABANG75FBFHDC9WUUOI","","669.1999999284744","img/animal6.png","76","670","3","1","3","1,0.5,0,0,1,0.5,0.5,0,1",""
"","html-keyboard-response","354","179889","0.0-354.0","39U1BHVTDMD8BSDZF4ABB1PN0H5T3B","A324M5ZRHX7RUV","3UAU495MIIEABANG75FBFHDC9WUUOI","","null","<img src=""img/animal6.png"" style=""width:200px; border:14px solid green;"">","null","","","","","",""
"","image-keyboard-response","355","180303","0.0-355.0","39U1BHVTDMD8BSDZF4ABB1PN0H5T3B","A324M5ZRHX7RUV","3UAU495MIIEABANG75FBFHDC9WUUOI","","412.89999997615814","img/animal6.png","76","413.5","3","1","3","1,0.5,0,0,1,0.5,0.5,0,1",""
"","html-keyboard-response","356","180606","0.0-356.0","39U1BHVTDMD8BSDZF4ABB1PN0H5T3B","A324M5ZRHX7RUV","3UAU495MIIEABANG75FBFHDC9WUUOI","","null","<img src=""img/animal6.png"" style=""width:200px; border:14px solid green;"">","null","","","","","",""
"","image-keyboard-response","357","181229","0.0-357.0","39U1BHVTDMD8BSDZF4ABB1PN0H5T3B","A324M5ZRHX7RUV","3UAU495MIIEABANG75FBFHDC9WUUOI","","622.3999999761581","img/animal5.png","74","623.1000000238419","1","1","1","1,0.5,0,0,1,0.5,0.5,0,1",""
"","html-keyboard-response","358","181531","0.0-358.0","39U1BHVTDMD8BSDZF4ABB1PN0H5T3B","A324M5ZRHX7RUV","3UAU495MIIEABANG75FBFHDC9WUUOI","","null","<img src=""img/animal5.png"" style=""width:200px; border:14px solid green;"">","null","","","","","",""
"","image-keyboard-response","359","182210","0.0-359.0","39U1BHVTDMD8BSDZF4ABB1PN0H5T3B","A324M5ZRHX7RUV","3UAU495MIIEABANG75FBFHDC9WUUOI","","677.5","img/animal2.png","76","678.2999999523163","3","1","2","1,0.5,0,0,1,0.5,0.5,0,1",""
"","html-keyboard-response","360","182512","0.0-360.0","39U1BHVTDMD8BSDZF4ABB1PN0H5T3B","A324M5ZRHX7RUV","3UAU495MIIEABANG75FBFHDC9WUUOI","","null","<img src=""img/animal2.png"" style=""width:200px; border:14px solid green;"">","null","","","","","",""
"","image-keyboard-response","361","183158","0.0-361.0","39U1BHVTDMD8BSDZF4ABB1PN0H5T3B","A324M5ZRHX7RUV","3UAU495MIIEABANG75FBFHDC9WUUOI","","645.2999999523163","img/animal6.png","76","645.9000000953674","3","1","3","1,0.5,0,0,1,0.5,0.5,0,1",""
"","html-keyboard-response","362","183460","0.0-362.0","39U1BHVTDMD8BSDZF4ABB1PN0H5T3B","A324M5ZRHX7RUV","3UAU495MIIEABANG75FBFHDC9WUUOI","","null","<img src=""img/animal6.png"" style=""width:200px; border:14px solid green;"">","null","","","","","",""
"","instructions","363","186649","0.0-363.0","39U1BHVTDMD8BSDZF4ABB1PN0H5T3B","A324M5ZRHX7RUV","3UAU495MIIEABANG75FBFHDC9WUUOI","[{""page_index"":0,""viewing_time"":3187.7999999523163}]","3188","","","","","","","",""
"","survey-text","364","188216","0.0-364.0","39U1BHVTDMD8BSDZF4ABB1PN0H5T3B","A324M5ZRHX7RUV","3UAU495MIIEABANG75FBFHDC9WUUOI","","1565","","","","","","","","{""Q0"":""A324M5ZRHX7RUV""}"
