"success","trial_type","trial_index","time_elapsed","internal_node_id","assignmentID","mturkID","hitID","view_history","rt","stimulus","key_press","reactionTime","a","r","s","reward_cond","responses"
"true","fullscreen","0","4393","0.0-0.0","31QTRG6Q2UZBZ3HGN8UHWLK3LZZYP6","A37GOI3N77WX21","329E6HTMSWO7MPPIUTRHLR63CI0K3O","","","","","","","","","",""
"","instructions","1","375166","0.0-1.0","31QTRG6Q2UZBZ3HGN8UHWLK3LZZYP6","A37GOI3N77WX21","329E6HTMSWO7MPPIUTRHLR63CI0K3O","[{""page_index"":0,""viewing_time"":175695.89999997616},{""page_index"":1,""viewing_time"":165136.89999997616},{""page_index"":2,""viewing_time"":5952.700000047684},{""page_index"":3,""viewing_time"":9520.100000023842},{""page_index"":4,""viewing_time"":2551.600000023842},{""page_index"":5,""viewing_time"":6088.199999928474},{""page_index"":6,""viewing_time"":4584},{""page_index"":7,""viewing_time"":1240.3999999761581}]","370770.60000002384","","","","","","","",""
"","image-keyboard-response","2","376282","0.0-2.0","31QTRG6Q2UZBZ3HGN8UHWLK3LZZYP6","A37GOI3N77WX21","329E6HTMSWO7MPPIUTRHLR63CI0K3O","","1114.7000000476837","img/animal3.png","74","1116.1000000238419","1","1","3","1,0.5,0,0,1,0.5,0.5,0,1",""
"","html-keyboard-response","3","376584","0.0-3.0","31QTRG6Q2UZBZ3HGN8UHWLK3LZZYP6","A37GOI3N77WX21","329E6HTMSWO7MPPIUTRHLR63CI0K3O","","null","<img src=""img/animal3.png"" style=""width:200px; border:14px solid green;"">","null","","","","","",""
"","image-keyboard-response","4","378290","0.0-4.0","31QTRG6Q2UZBZ3HGN8UHWLK3LZZYP6","A37GOI3N77WX21","329E6HTMSWO7MPPIUTRHLR63CI0K3O","","1704.8999999761581","img/animal5.png","75","1705.7999999523163","2","1","2","1,0.5,0,0,1,0.5,0.5,0,1",""
"","html-keyboard-response","5","378592","0.0-5.0","31QTRG6Q2UZBZ3HGN8UHWLK3LZZYP6","A37GOI3N77WX21","329E6HTMSWO7MPPIUTRHLR63CI0K3O","","null","<img src=""img/animal5.png"" style=""width:200px; border:14px solid green;"">","null","","","","","",""
"","image-keyboard-response","6","379690","0.0-6.0","31QTRG6Q2UZBZ3HGN8UHWLK3LZZYP6","A37GOI3N77WX21","329E6HTMSWO7MPPIUTRHLR63CI0K3O","","1097.3999999761581","img/animal1.png","76","1098.2000000476837","3","0","1","1,0.5,0,0,1,0.5,0.5,0,1",""
"","html-keyboard-response","7","379992","0.0-7.0","31QTRG6Q2UZBZ3HGN8UHWLK3LZZYP6","A37GOI3N77WX21","329E6HTMSWO7MPPIUTRHLR63CI0K3O","","null","<img src=""img/animal1.png"" style=""width:200px;border:14px solid red;"">","null","","","","","",""
"","image-keyboard-response","8","380931","0.0-8.0","31QTRG6Q2UZBZ3HGN8UHWLK3LZZYP6","A37GOI3N77WX21","329E6HTMSWO7MPPIUTRHLR63CI0K3O","","937.1000000238419","img/animal3.png","74","938","1","1","3","1,0.5,0,0,1,0.5,0.5,0,1",""
"","html-keyboard-response","9","381233","0.0-9.0","31QTRG6Q2UZBZ3HGN8UHWLK3LZZYP6","A37GOI3N77WX21","329E6HTMSWO7MPPIUTRHLR63CI0K3O","","null","<img src=""img/animal3.png"" style=""width:200px; border:14px solid green;"">","null","","","","","",""
"","image-keyboard-response","10","382074","0.0-10.0","31QTRG6Q2UZBZ3HGN8UHWLK3LZZYP6","A37GOI3N77WX21","329E6HTMSWO7MPPIUTRHLR63CI0K3O","","840","img/animal1.png","74","840.8999999761581","1","1","1","1,0.5,0,0,1,0.5,0.5,0,1",""
"","html-keyboard-response","11","382383","0.0-11.0","31QTRG6Q2UZBZ3HGN8UHWLK3LZZYP6","A37GOI3N77WX21","329E6HTMSWO7MPPIUTRHLR63CI0K3O","","null","<img src=""img/animal1.png"" style=""width:200px; border:14px solid green;"">","null","","","","","",""
"","image-keyboard-response","12","383347","0.0-12.0","31QTRG6Q2UZBZ3HGN8UHWLK3LZZYP6","A37GOI3N77WX21","329E6HTMSWO7MPPIUTRHLR63CI0K3O","","962.8999999761581","img/animal5.png","75","963.7000000476837","2","1","2","1,0.5,0,0,1,0.5,0.5,0,1",""
"","html-keyboard-response","13","383649","0.0-13.0","31QTRG6Q2UZBZ3HGN8UHWLK3LZZYP6","A37GOI3N77WX21","329E6HTMSWO7MPPIUTRHLR63CI0K3O","","null","<img src=""img/animal5.png"" style=""width:200px; border:14px solid green;"">","null","","","","","",""
"","image-keyboard-response","14","384282","0.0-14.0","31QTRG6Q2UZBZ3HGN8UHWLK3LZZYP6","A37GOI3N77WX21","329E6HTMSWO7MPPIUTRHLR63CI0K3O","","632.5","img/animal3.png","74","633.2000000476837","1","0","3","1,0.5,0,0,1,0.5,0.5,0,1",""
"","html-keyboard-response","15","384584","0.0-15.0","31QTRG6Q2UZBZ3HGN8UHWLK3LZZYP6","A37GOI3N77WX21","329E6HTMSWO7MPPIUTRHLR63CI0K3O","","null","<img src=""img/animal3.png"" style=""width:200px;border:14px solid red;"">","null","","","","","",""
"","image-keyboard-response","16","385507","0.0-16.0","31QTRG6Q2UZBZ3HGN8UHWLK3LZZYP6","A37GOI3N77WX21","329E6HTMSWO7MPPIUTRHLR63CI0K3O","","921.2000000476837","img/animal3.png","74","922","1","1","3","1,0.5,0,0,1,0.5,0.5,0,1",""
"","html-keyboard-response","17","385809","0.0-17.0","31QTRG6Q2UZBZ3HGN8UHWLK3LZZYP6","A37GOI3N77WX21","329E6HTMSWO7MPPIUTRHLR63CI0K3O","","null","<img src=""img/animal3.png"" style=""width:200px; border:14px solid green;"">","null","","","","","",""
"","image-keyboard-response","18","386458","0.0-18.0","31QTRG6Q2UZBZ3HGN8UHWLK3LZZYP6","A37GOI3N77WX21","329E6HTMSWO7MPPIUTRHLR63CI0K3O","","648.0999999046326","img/animal3.png","74","649.2000000476837","1","1","3","1,0.5,0,0,1,0.5,0.5,0,1",""
"","html-keyboard-response","19","386761","0.0-19.0","31QTRG6Q2UZBZ3HGN8UHWLK3LZZYP6","A37GOI3N77WX21","329E6HTMSWO7MPPIUTRHLR63CI0K3O","","null","<img src=""img/animal3.png"" style=""width:200px; border:14px solid green;"">","null","","","","","",""
"","image-keyboard-response","20","387754","0.0-20.0","31QTRG6Q2UZBZ3HGN8UHWLK3LZZYP6","A37GOI3N77WX21","329E6HTMSWO7MPPIUTRHLR63CI0K3O","","992.5","img/animal1.png","74","993.6000000238419","1","1","1","1,0.5,0,0,1,0.5,0.5,0,1",""
"","html-keyboard-response","21","388056","0.0-21.0","31QTRG6Q2UZBZ3HGN8UHWLK3LZZYP6","A37GOI3N77WX21","329E6HTMSWO7MPPIUTRHLR63CI0K3O","","null","<img src=""img/animal1.png"" style=""width:200px; border:14px solid green;"">","null","","","","","",""
"","image-keyboard-response","22","388714","0.0-22.0","31QTRG6Q2UZBZ3HGN8UHWLK3LZZYP6","A37GOI3N77WX21","329E6HTMSWO7MPPIUTRHLR63CI0K3O","","657.1000000238419","img/animal3.png","74","658.1000000238419","1","0","3","1,0.5,0,0,1,0.5,0.5,0,1",""
"","html-keyboard-response","23","389016","0.0-23.0","31QTRG6Q2UZBZ3HGN8UHWLK3LZZYP6","A37GOI3N77WX21","329E6HTMSWO7MPPIUTRHLR63CI0K3O","","null","<img src=""img/animal3.png"" style=""width:200px;border:14px solid red;"">","null","","","","","",""
"","image-keyboard-response","24","389466","0.0-24.0","31QTRG6Q2UZBZ3HGN8UHWLK3LZZYP6","A37GOI3N77WX21","329E6HTMSWO7MPPIUTRHLR63CI0K3O","","449.10000002384186","img/animal1.png","74","450","1","1","1","1,0.5,0,0,1,0.5,0.5,0,1",""
"","html-keyboard-response","25","389769","0.0-25.0","31QTRG6Q2UZBZ3HGN8UHWLK3LZZYP6","A37GOI3N77WX21","329E6HTMSWO7MPPIUTRHLR63CI0K3O","","null","<img src=""img/animal1.png"" style=""width:200px; border:14px solid green;"">","null","","","","","",""
"","image-keyboard-response","26","390250","0.0-26.0","31QTRG6Q2UZBZ3HGN8UHWLK3LZZYP6","A37GOI3N77WX21","329E6HTMSWO7MPPIUTRHLR63CI0K3O","","480.1999999284744","img/animal1.png","74","481.2000000476837","1","1","1","1,0.5,0,0,1,0.5,0.5,0,1",""
"","html-keyboard-response","27","390552","0.0-27.0","31QTRG6Q2UZBZ3HGN8UHWLK3LZZYP6","A37GOI3N77WX21","329E6HTMSWO7MPPIUTRHLR63CI0K3O","","null","<img src=""img/animal1.png"" style=""width:200px; border:14px solid green;"">","null","","","","","",""
"","image-keyboard-response","28","391307","0.0-28.0","31QTRG6Q2UZBZ3HGN8UHWLK3LZZYP6","A37GOI3N77WX21","329E6HTMSWO7MPPIUTRHLR63CI0K3O","","753.8999999761581","img/animal5.png","75","754.6000000238419","2","1","2","1,0.5,0,0,1,0.5,0.5,0,1",""
"","html-keyboard-response","29","391608","0.0-29.0","31QTRG6Q2UZBZ3HGN8UHWLK3LZZYP6","A37GOI3N77WX21","329E6HTMSWO7MPPIUTRHLR63CI0K3O","","null","<img src=""img/animal5.png"" style=""width:200px; border:14px solid green;"">","null","","","","","",""
"","image-keyboard-response","30","392234","0.0-30.0","31QTRG6Q2UZBZ3HGN8UHWLK3LZZYP6","A37GOI3N77WX21","329E6HTMSWO7MPPIUTRHLR63CI0K3O","","625.2999999523163","img/animal1.png","74","626.1000000238419","1","1","1","1,0.5,0,0,1,0.5,0.5,0,1",""
"","html-keyboard-response","31","392541","0.0-31.0","31QTRG6Q2UZBZ3HGN8UHWLK3LZZYP6","A37GOI3N77WX21","329E6HTMSWO7MPPIUTRHLR63CI0K3O","","null","<img src=""img/animal1.png"" style=""width:200px; border:14px solid green;"">","null","","","","","",""
"","image-keyboard-response","32","393155","0.0-32.0","31QTRG6Q2UZBZ3HGN8UHWLK3LZZYP6","A37GOI3N77WX21","329E6HTMSWO7MPPIUTRHLR63CI0K3O","","612.7999999523163","img/animal5.png","75","613.6000000238419","2","1","2","1,0.5,0,0,1,0.5,0.5,0,1",""
"","html-keyboard-response","33","393456","0.0-33.0","31QTRG6Q2UZBZ3HGN8UHWLK3LZZYP6","A37GOI3N77WX21","329E6HTMSWO7MPPIUTRHLR63CI0K3O","","null","<img src=""img/animal5.png"" style=""width:200px; border:14px solid green;"">","null","","","","","",""
"","image-keyboard-response","34","393947","0.0-34.0","31QTRG6Q2UZBZ3HGN8UHWLK3LZZYP6","A37GOI3N77WX21","329E6HTMSWO7MPPIUTRHLR63CI0K3O","","489.39999997615814","img/animal5.png","75","490.1999999284744","2","1","2","1,0.5,0,0,1,0.5,0.5,0,1",""
"","html-keyboard-response","35","394249","0.0-35.0","31QTRG6Q2UZBZ3HGN8UHWLK3LZZYP6","A37GOI3N77WX21","329E6HTMSWO7MPPIUTRHLR63CI0K3O","","null","<img src=""img/animal5.png"" style=""width:200px; border:14px solid green;"">","null","","","","","",""
"","image-keyboard-response","36","394771","0.0-36.0","31QTRG6Q2UZBZ3HGN8UHWLK3LZZYP6","A37GOI3N77WX21","329E6HTMSWO7MPPIUTRHLR63CI0K3O","","520.7000000476837","img/animal3.png","74","521.3999999761581","1","1","3","1,0.5,0,0,1,0.5,0.5,0,1",""
"","html-keyboard-response","37","395072","0.0-37.0","31QTRG6Q2UZBZ3HGN8UHWLK3LZZYP6","A37GOI3N77WX21","329E6HTMSWO7MPPIUTRHLR63CI0K3O","","null","<img src=""img/animal3.png"" style=""width:200px; border:14px solid green;"">","null","","","","","",""
"","image-keyboard-response","38","395563","0.0-38.0","31QTRG6Q2UZBZ3HGN8UHWLK3LZZYP6","A37GOI3N77WX21","329E6HTMSWO7MPPIUTRHLR63CI0K3O","","489.3000000715256","img/animal5.png","74","490.09999990463257","1","0","2","1,0.5,0,0,1,0.5,0.5,0,1",""
"","html-keyboard-response","39","395865","0.0-39.0","31QTRG6Q2UZBZ3HGN8UHWLK3LZZYP6","A37GOI3N77WX21","329E6HTMSWO7MPPIUTRHLR63CI0K3O","","null","<img src=""img/animal5.png"" style=""width:200px;border:14px solid red;"">","null","","","","","",""
"","image-keyboard-response","40","396443","0.0-40.0","31QTRG6Q2UZBZ3HGN8UHWLK3LZZYP6","A37GOI3N77WX21","329E6HTMSWO7MPPIUTRHLR63CI0K3O","","576.7000000476837","img/animal3.png","74","577.4000000953674","1","0","3","1,0.5,0,0,1,0.5,0.5,0,1",""
"","html-keyboard-response","41","396745","0.0-41.0","31QTRG6Q2UZBZ3HGN8UHWLK3LZZYP6","A37GOI3N77WX21","329E6HTMSWO7MPPIUTRHLR63CI0K3O","","null","<img src=""img/animal3.png"" style=""width:200px;border:14px solid red;"">","null","","","","","",""
"","image-keyboard-response","42","397442","0.0-42.0","31QTRG6Q2UZBZ3HGN8UHWLK3LZZYP6","A37GOI3N77WX21","329E6HTMSWO7MPPIUTRHLR63CI0K3O","","696.6000000238419","img/animal5.png","75","697.5","2","1","2","1,0.5,0,0,1,0.5,0.5,0,1",""
"","html-keyboard-response","43","397744","0.0-43.0","31QTRG6Q2UZBZ3HGN8UHWLK3LZZYP6","A37GOI3N77WX21","329E6HTMSWO7MPPIUTRHLR63CI0K3O","","null","<img src=""img/animal5.png"" style=""width:200px; border:14px solid green;"">","null","","","","","",""
"","image-keyboard-response","44","398779","0.0-44.0","31QTRG6Q2UZBZ3HGN8UHWLK3LZZYP6","A37GOI3N77WX21","329E6HTMSWO7MPPIUTRHLR63CI0K3O","","1033.1999999284744","img/animal5.png","75","1034.1999999284744","2","1","2","1,0.5,0,0,1,0.5,0.5,0,1",""
"","html-keyboard-response","45","399081","0.0-45.0","31QTRG6Q2UZBZ3HGN8UHWLK3LZZYP6","A37GOI3N77WX21","329E6HTMSWO7MPPIUTRHLR63CI0K3O","","null","<img src=""img/animal5.png"" style=""width:200px; border:14px solid green;"">","null","","","","","",""
"","image-keyboard-response","46","399619","0.0-46.0","31QTRG6Q2UZBZ3HGN8UHWLK3LZZYP6","A37GOI3N77WX21","329E6HTMSWO7MPPIUTRHLR63CI0K3O","","536.5","img/animal5.png","75","537.2999999523163","2","1","2","1,0.5,0,0,1,0.5,0.5,0,1",""
"","html-keyboard-response","47","399925","0.0-47.0","31QTRG6Q2UZBZ3HGN8UHWLK3LZZYP6","A37GOI3N77WX21","329E6HTMSWO7MPPIUTRHLR63CI0K3O","","null","<img src=""img/animal5.png"" style=""width:200px; border:14px solid green;"">","null","","","","","",""
"","image-keyboard-response","48","400347","0.0-48.0","31QTRG6Q2UZBZ3HGN8UHWLK3LZZYP6","A37GOI3N77WX21","329E6HTMSWO7MPPIUTRHLR63CI0K3O","","420.7999999523163","img/animal5.png","75","421.90000009536743","2","1","2","1,0.5,0,0,1,0.5,0.5,0,1",""
"","html-keyboard-response","49","400648","0.0-49.0","31QTRG6Q2UZBZ3HGN8UHWLK3LZZYP6","A37GOI3N77WX21","329E6HTMSWO7MPPIUTRHLR63CI0K3O","","null","<img src=""img/animal5.png"" style=""width:200px; border:14px solid green;"">","null","","","","","",""
"","image-keyboard-response","50","401307","0.0-50.0","31QTRG6Q2UZBZ3HGN8UHWLK3LZZYP6","A37GOI3N77WX21","329E6HTMSWO7MPPIUTRHLR63CI0K3O","","657.6000000238419","img/animal1.png","74","658.3999999761581","1","1","1","1,0.5,0,0,1,0.5,0.5,0,1",""
"","html-keyboard-response","51","401608","0.0-51.0","31QTRG6Q2UZBZ3HGN8UHWLK3LZZYP6","A37GOI3N77WX21","329E6HTMSWO7MPPIUTRHLR63CI0K3O","","null","<img src=""img/animal1.png"" style=""width:200px; border:14px solid green;"">","null","","","","","",""
"","image-keyboard-response","52","402563","0.0-52.0","31QTRG6Q2UZBZ3HGN8UHWLK3LZZYP6","A37GOI3N77WX21","329E6HTMSWO7MPPIUTRHLR63CI0K3O","","953.3000000715256","img/animal5.png","75","954.2999999523163","2","1","2","1,0.5,0,0,1,0.5,0.5,0,1",""
"","html-keyboard-response","53","402864","0.0-53.0","31QTRG6Q2UZBZ3HGN8UHWLK3LZZYP6","A37GOI3N77WX21","329E6HTMSWO7MPPIUTRHLR63CI0K3O","","null","<img src=""img/animal5.png"" style=""width:200px; border:14px solid green;"">","null","","","","","",""
"","image-keyboard-response","54","403434","0.0-54.0","31QTRG6Q2UZBZ3HGN8UHWLK3LZZYP6","A37GOI3N77WX21","329E6HTMSWO7MPPIUTRHLR63CI0K3O","","569.1000000238419","img/animal3.png","74","569.9000000953674","1","0","3","1,0.5,0,0,1,0.5,0.5,0,1",""
"","html-keyboard-response","55","403737","0.0-55.0","31QTRG6Q2UZBZ3HGN8UHWLK3LZZYP6","A37GOI3N77WX21","329E6HTMSWO7MPPIUTRHLR63CI0K3O","","null","<img src=""img/animal3.png"" style=""width:200px;border:14px solid red;"">","null","","","","","",""
"","image-keyboard-response","56","404594","0.0-56.0","31QTRG6Q2UZBZ3HGN8UHWLK3LZZYP6","A37GOI3N77WX21","329E6HTMSWO7MPPIUTRHLR63CI0K3O","","856.2000000476837","img/animal5.png","75","857.0999999046326","2","1","2","1,0.5,0,0,1,0.5,0.5,0,1",""
"","html-keyboard-response","57","404897","0.0-57.0","31QTRG6Q2UZBZ3HGN8UHWLK3LZZYP6","A37GOI3N77WX21","329E6HTMSWO7MPPIUTRHLR63CI0K3O","","null","<img src=""img/animal5.png"" style=""width:200px; border:14px solid green;"">","null","","","","","",""
"","image-keyboard-response","58","405450","0.0-58.0","31QTRG6Q2UZBZ3HGN8UHWLK3LZZYP6","A37GOI3N77WX21","329E6HTMSWO7MPPIUTRHLR63CI0K3O","","552.6999999284744","img/animal5.png","75","553.6000000238419","2","1","2","1,0.5,0,0,1,0.5,0.5,0,1",""
"","html-keyboard-response","59","405754","0.0-59.0","31QTRG6Q2UZBZ3HGN8UHWLK3LZZYP6","A37GOI3N77WX21","329E6HTMSWO7MPPIUTRHLR63CI0K3O","","null","<img src=""img/animal5.png"" style=""width:200px; border:14px solid green;"">","null","","","","","",""
"","image-keyboard-response","60","406314","0.0-60.0","31QTRG6Q2UZBZ3HGN8UHWLK3LZZYP6","A37GOI3N77WX21","329E6HTMSWO7MPPIUTRHLR63CI0K3O","","559.6000000238419","img/animal3.png","76","560.5","3","1","3","1,0.5,0,0,1,0.5,0.5,0,1",""
"","html-keyboard-response","61","406616","0.0-61.0","31QTRG6Q2UZBZ3HGN8UHWLK3LZZYP6","A37GOI3N77WX21","329E6HTMSWO7MPPIUTRHLR63CI0K3O","","null","<img src=""img/animal3.png"" style=""width:200px; border:14px solid green;"">","null","","","","","",""
"","image-keyboard-response","62","407890","0.0-62.0","31QTRG6Q2UZBZ3HGN8UHWLK3LZZYP6","A37GOI3N77WX21","329E6HTMSWO7MPPIUTRHLR63CI0K3O","","1273","img/animal1.png","74","1273.8000000715256","1","1","1","1,0.5,0,0,1,0.5,0.5,0,1",""
"","html-keyboard-response","63","408192","0.0-63.0","31QTRG6Q2UZBZ3HGN8UHWLK3LZZYP6","A37GOI3N77WX21","329E6HTMSWO7MPPIUTRHLR63CI0K3O","","null","<img src=""img/animal1.png"" style=""width:200px; border:14px solid green;"">","null","","","","","",""
"","image-keyboard-response","64","409026","0.0-64.0","31QTRG6Q2UZBZ3HGN8UHWLK3LZZYP6","A37GOI3N77WX21","329E6HTMSWO7MPPIUTRHLR63CI0K3O","","833.7000000476837","img/animal5.png","75","834.6000000238419","2","1","2","1,0.5,0,0,1,0.5,0.5,0,1",""
"","html-keyboard-response","65","409329","0.0-65.0","31QTRG6Q2UZBZ3HGN8UHWLK3LZZYP6","A37GOI3N77WX21","329E6HTMSWO7MPPIUTRHLR63CI0K3O","","null","<img src=""img/animal5.png"" style=""width:200px; border:14px solid green;"">","null","","","","","",""
"","image-keyboard-response","66","409906","0.0-66.0","31QTRG6Q2UZBZ3HGN8UHWLK3LZZYP6","A37GOI3N77WX21","329E6HTMSWO7MPPIUTRHLR63CI0K3O","","576.3000000715256","img/animal5.png","75","577.1999999284744","2","1","2","1,0.5,0,0,1,0.5,0.5,0,1",""
"","html-keyboard-response","67","410209","0.0-67.0","31QTRG6Q2UZBZ3HGN8UHWLK3LZZYP6","A37GOI3N77WX21","329E6HTMSWO7MPPIUTRHLR63CI0K3O","","null","<img src=""img/animal5.png"" style=""width:200px; border:14px solid green;"">","null","","","","","",""
"","image-keyboard-response","68","410626","0.0-68.0","31QTRG6Q2UZBZ3HGN8UHWLK3LZZYP6","A37GOI3N77WX21","329E6HTMSWO7MPPIUTRHLR63CI0K3O","","416.39999997615814","img/animal3.png","76","417.2000000476837","3","1","3","1,0.5,0,0,1,0.5,0.5,0,1",""
"","html-keyboard-response","69","410929","0.0-69.0","31QTRG6Q2UZBZ3HGN8UHWLK3LZZYP6","A37GOI3N77WX21","329E6HTMSWO7MPPIUTRHLR63CI0K3O","","null","<img src=""img/animal3.png"" style=""width:200px; border:14px solid green;"">","null","","","","","",""
"","image-keyboard-response","70","411418","0.0-70.0","31QTRG6Q2UZBZ3HGN8UHWLK3LZZYP6","A37GOI3N77WX21","329E6HTMSWO7MPPIUTRHLR63CI0K3O","","488","img/animal3.png","76","488.7999999523163","3","1","3","1,0.5,0,0,1,0.5,0.5,0,1",""
"","html-keyboard-response","71","411720","0.0-71.0","31QTRG6Q2UZBZ3HGN8UHWLK3LZZYP6","A37GOI3N77WX21","329E6HTMSWO7MPPIUTRHLR63CI0K3O","","null","<img src=""img/animal3.png"" style=""width:200px; border:14px solid green;"">","null","","","","","",""
"","image-keyboard-response","72","412338","0.0-72.0","31QTRG6Q2UZBZ3HGN8UHWLK3LZZYP6","A37GOI3N77WX21","329E6HTMSWO7MPPIUTRHLR63CI0K3O","","617","img/animal1.png","74","617.7999999523163","1","1","1","1,0.5,0,0,1,0.5,0.5,0,1",""
"","html-keyboard-response","73","412640","0.0-73.0","31QTRG6Q2UZBZ3HGN8UHWLK3LZZYP6","A37GOI3N77WX21","329E6HTMSWO7MPPIUTRHLR63CI0K3O","","null","<img src=""img/animal1.png"" style=""width:200px; border:14px solid green;"">","null","","","","","",""
"","image-keyboard-response","74","413043","0.0-74.0","31QTRG6Q2UZBZ3HGN8UHWLK3LZZYP6","A37GOI3N77WX21","329E6HTMSWO7MPPIUTRHLR63CI0K3O","","401.2999999523163","img/animal1.png","74","402.10000002384186","1","1","1","1,0.5,0,0,1,0.5,0.5,0,1",""
"","html-keyboard-response","75","413345","0.0-75.0","31QTRG6Q2UZBZ3HGN8UHWLK3LZZYP6","A37GOI3N77WX21","329E6HTMSWO7MPPIUTRHLR63CI0K3O","","null","<img src=""img/animal1.png"" style=""width:200px; border:14px solid green;"">","null","","","","","",""
"","image-keyboard-response","76","413730","0.0-76.0","31QTRG6Q2UZBZ3HGN8UHWLK3LZZYP6","A37GOI3N77WX21","329E6HTMSWO7MPPIUTRHLR63CI0K3O","","384.10000002384186","img/animal1.png","74","385.1999999284744","1","1","1","1,0.5,0,0,1,0.5,0.5,0,1",""
"","html-keyboard-response","77","414032","0.0-77.0","31QTRG6Q2UZBZ3HGN8UHWLK3LZZYP6","A37GOI3N77WX21","329E6HTMSWO7MPPIUTRHLR63CI0K3O","","null","<img src=""img/animal1.png"" style=""width:200px; border:14px solid green;"">","null","","","","","",""
"","image-keyboard-response","78","414579","0.0-78.0","31QTRG6Q2UZBZ3HGN8UHWLK3LZZYP6","A37GOI3N77WX21","329E6HTMSWO7MPPIUTRHLR63CI0K3O","","545","img/animal3.png","76","545.9000000953674","3","1","3","1,0.5,0,0,1,0.5,0.5,0,1",""
"","html-keyboard-response","79","414882","0.0-79.0","31QTRG6Q2UZBZ3HGN8UHWLK3LZZYP6","A37GOI3N77WX21","329E6HTMSWO7MPPIUTRHLR63CI0K3O","","null","<img src=""img/animal3.png"" style=""width:200px; border:14px solid green;"">","null","","","","","",""
"","image-keyboard-response","80","415579","0.0-80.0","31QTRG6Q2UZBZ3HGN8UHWLK3LZZYP6","A37GOI3N77WX21","329E6HTMSWO7MPPIUTRHLR63CI0K3O","","696.1000000238419","img/animal1.png","74","696.8999999761581","1","1","1","1,0.5,0,0,1,0.5,0.5,0,1",""
"","html-keyboard-response","81","415881","0.0-81.0","31QTRG6Q2UZBZ3HGN8UHWLK3LZZYP6","A37GOI3N77WX21","329E6HTMSWO7MPPIUTRHLR63CI0K3O","","null","<img src=""img/animal1.png"" style=""width:200px; border:14px solid green;"">","null","","","","","",""
"","image-keyboard-response","82","416498","0.0-82.0","31QTRG6Q2UZBZ3HGN8UHWLK3LZZYP6","A37GOI3N77WX21","329E6HTMSWO7MPPIUTRHLR63CI0K3O","","616.1000000238419","img/animal3.png","76","616.6999999284744","3","1","3","1,0.5,0,0,1,0.5,0.5,0,1",""
"","html-keyboard-response","83","416800","0.0-83.0","31QTRG6Q2UZBZ3HGN8UHWLK3LZZYP6","A37GOI3N77WX21","329E6HTMSWO7MPPIUTRHLR63CI0K3O","","null","<img src=""img/animal3.png"" style=""width:200px; border:14px solid green;"">","null","","","","","",""
"","image-keyboard-response","84","418179","0.0-84.0","31QTRG6Q2UZBZ3HGN8UHWLK3LZZYP6","A37GOI3N77WX21","329E6HTMSWO7MPPIUTRHLR63CI0K3O","","1377.2999999523163","img/animal3.png","76","1378.1999999284744","3","1","3","1,0.5,0,0,1,0.5,0.5,0,1",""
"","html-keyboard-response","85","418481","0.0-85.0","31QTRG6Q2UZBZ3HGN8UHWLK3LZZYP6","A37GOI3N77WX21","329E6HTMSWO7MPPIUTRHLR63CI0K3O","","null","<img src=""img/animal3.png"" style=""width:200px; border:14px solid green;"">","null","","","","","",""
"","image-keyboard-response","86","418930","0.0-86.0","31QTRG6Q2UZBZ3HGN8UHWLK3LZZYP6","A37GOI3N77WX21","329E6HTMSWO7MPPIUTRHLR63CI0K3O","","448.2999999523163","img/animal3.png","76","449.10000002384186","3","1","3","1,0.5,0,0,1,0.5,0.5,0,1",""
"","html-keyboard-response","87","419232","0.0-87.0","31QTRG6Q2UZBZ3HGN8UHWLK3LZZYP6","A37GOI3N77WX21","329E6HTMSWO7MPPIUTRHLR63CI0K3O","","null","<img src=""img/animal3.png"" style=""width:200px; border:14px solid green;"">","null","","","","","",""
"","image-keyboard-response","88","419954","0.0-88.0","31QTRG6Q2UZBZ3HGN8UHWLK3LZZYP6","A37GOI3N77WX21","329E6HTMSWO7MPPIUTRHLR63CI0K3O","","721.5","img/animal5.png","75","722.1999999284744","2","1","2","1,0.5,0,0,1,0.5,0.5,0,1",""
"","html-keyboard-response","89","420256","0.0-89.0","31QTRG6Q2UZBZ3HGN8UHWLK3LZZYP6","A37GOI3N77WX21","329E6HTMSWO7MPPIUTRHLR63CI0K3O","","null","<img src=""img/animal5.png"" style=""width:200px; border:14px solid green;"">","null","","","","","",""
"","image-keyboard-response","90","420834","0.0-90.0","31QTRG6Q2UZBZ3HGN8UHWLK3LZZYP6","A37GOI3N77WX21","329E6HTMSWO7MPPIUTRHLR63CI0K3O","","577","img/animal3.png","76","577.7999999523163","3","1","3","1,0.5,0,0,1,0.5,0.5,0,1",""
"","html-keyboard-response","91","421136","0.0-91.0","31QTRG6Q2UZBZ3HGN8UHWLK3LZZYP6","A37GOI3N77WX21","329E6HTMSWO7MPPIUTRHLR63CI0K3O","","null","<img src=""img/animal3.png"" style=""width:200px; border:14px solid green;"">","null","","","","","",""
"","image-keyboard-response","92","421650","0.0-92.0","31QTRG6Q2UZBZ3HGN8UHWLK3LZZYP6","A37GOI3N77WX21","329E6HTMSWO7MPPIUTRHLR63CI0K3O","","513.2000000476837","img/animal3.png","76","513.8999999761581","3","1","3","1,0.5,0,0,1,0.5,0.5,0,1",""
"","html-keyboard-response","93","421952","0.0-93.0","31QTRG6Q2UZBZ3HGN8UHWLK3LZZYP6","A37GOI3N77WX21","329E6HTMSWO7MPPIUTRHLR63CI0K3O","","null","<img src=""img/animal3.png"" style=""width:200px; border:14px solid green;"">","null","","","","","",""
"","image-keyboard-response","94","422522","0.0-94.0","31QTRG6Q2UZBZ3HGN8UHWLK3LZZYP6","A37GOI3N77WX21","329E6HTMSWO7MPPIUTRHLR63CI0K3O","","569","img/animal1.png","75","569.8999999761581","2","1","1","1,0.5,0,0,1,0.5,0.5,0,1",""
"","html-keyboard-response","95","422835","0.0-95.0","31QTRG6Q2UZBZ3HGN8UHWLK3LZZYP6","A37GOI3N77WX21","329E6HTMSWO7MPPIUTRHLR63CI0K3O","","null","<img src=""img/animal1.png"" style=""width:200px; border:14px solid green;"">","null","","","","","",""
"","image-keyboard-response","96","424514","0.0-96.0","31QTRG6Q2UZBZ3HGN8UHWLK3LZZYP6","A37GOI3N77WX21","329E6HTMSWO7MPPIUTRHLR63CI0K3O","","1678.1000000238419","img/animal1.png","74","1679.2999999523163","1","1","1","1,0.5,0,0,1,0.5,0.5,0,1",""
"","html-keyboard-response","97","424817","0.0-97.0","31QTRG6Q2UZBZ3HGN8UHWLK3LZZYP6","A37GOI3N77WX21","329E6HTMSWO7MPPIUTRHLR63CI0K3O","","null","<img src=""img/animal1.png"" style=""width:200px; border:14px solid green;"">","null","","","","","",""
"","image-keyboard-response","98","425538","0.0-98.0","31QTRG6Q2UZBZ3HGN8UHWLK3LZZYP6","A37GOI3N77WX21","329E6HTMSWO7MPPIUTRHLR63CI0K3O","","720.3000000715256","img/animal5.png","75","721.7000000476837","2","1","2","1,0.5,0,0,1,0.5,0.5,0,1",""
"","html-keyboard-response","99","425840","0.0-99.0","31QTRG6Q2UZBZ3HGN8UHWLK3LZZYP6","A37GOI3N77WX21","329E6HTMSWO7MPPIUTRHLR63CI0K3O","","null","<img src=""img/animal5.png"" style=""width:200px; border:14px solid green;"">","null","","","","","",""
"","image-keyboard-response","100","426579","0.0-100.0","31QTRG6Q2UZBZ3HGN8UHWLK3LZZYP6","A37GOI3N77WX21","329E6HTMSWO7MPPIUTRHLR63CI0K3O","","737.1999999284744","img/animal3.png","76","738","3","1","3","1,0.5,0,0,1,0.5,0.5,0,1",""
"","html-keyboard-response","101","426880","0.0-101.0","31QTRG6Q2UZBZ3HGN8UHWLK3LZZYP6","A37GOI3N77WX21","329E6HTMSWO7MPPIUTRHLR63CI0K3O","","null","<img src=""img/animal3.png"" style=""width:200px; border:14px solid green;"">","null","","","","","",""
"","image-keyboard-response","102","427339","0.0-102.0","31QTRG6Q2UZBZ3HGN8UHWLK3LZZYP6","A37GOI3N77WX21","329E6HTMSWO7MPPIUTRHLR63CI0K3O","","457.1999999284744","img/animal1.png","74","458.10000002384186","1","1","1","1,0.5,0,0,1,0.5,0.5,0,1",""
"","html-keyboard-response","103","427640","0.0-103.0","31QTRG6Q2UZBZ3HGN8UHWLK3LZZYP6","A37GOI3N77WX21","329E6HTMSWO7MPPIUTRHLR63CI0K3O","","null","<img src=""img/animal1.png"" style=""width:200px; border:14px solid green;"">","null","","","","","",""
"","image-keyboard-response","104","428162","0.0-104.0","31QTRG6Q2UZBZ3HGN8UHWLK3LZZYP6","A37GOI3N77WX21","329E6HTMSWO7MPPIUTRHLR63CI0K3O","","521.5","img/animal5.png","75","522.2999999523163","2","1","2","1,0.5,0,0,1,0.5,0.5,0,1",""
"","html-keyboard-response","105","428464","0.0-105.0","31QTRG6Q2UZBZ3HGN8UHWLK3LZZYP6","A37GOI3N77WX21","329E6HTMSWO7MPPIUTRHLR63CI0K3O","","null","<img src=""img/animal5.png"" style=""width:200px; border:14px solid green;"">","null","","","","","",""
"","image-keyboard-response","106","428986","0.0-106.0","31QTRG6Q2UZBZ3HGN8UHWLK3LZZYP6","A37GOI3N77WX21","329E6HTMSWO7MPPIUTRHLR63CI0K3O","","521.5","img/animal5.png","75","522.5","2","1","2","1,0.5,0,0,1,0.5,0.5,0,1",""
"","html-keyboard-response","107","429288","0.0-107.0","31QTRG6Q2UZBZ3HGN8UHWLK3LZZYP6","A37GOI3N77WX21","329E6HTMSWO7MPPIUTRHLR63CI0K3O","","null","<img src=""img/animal5.png"" style=""width:200px; border:14px solid green;"">","null","","","","","",""
"","image-keyboard-response","108","429691","0.0-108.0","31QTRG6Q2UZBZ3HGN8UHWLK3LZZYP6","A37GOI3N77WX21","329E6HTMSWO7MPPIUTRHLR63CI0K3O","","401.1999999284744","img/animal5.png","75","402","2","1","2","1,0.5,0,0,1,0.5,0.5,0,1",""
"","html-keyboard-response","109","429993","0.0-109.0","31QTRG6Q2UZBZ3HGN8UHWLK3LZZYP6","A37GOI3N77WX21","329E6HTMSWO7MPPIUTRHLR63CI0K3O","","null","<img src=""img/animal5.png"" style=""width:200px; border:14px solid green;"">","null","","","","","",""
"","image-keyboard-response","110","430362","0.0-110.0","31QTRG6Q2UZBZ3HGN8UHWLK3LZZYP6","A37GOI3N77WX21","329E6HTMSWO7MPPIUTRHLR63CI0K3O","","368","img/animal5.png","75","368.7000000476837","2","1","2","1,0.5,0,0,1,0.5,0.5,0,1",""
"","html-keyboard-response","111","430664","0.0-111.0","31QTRG6Q2UZBZ3HGN8UHWLK3LZZYP6","A37GOI3N77WX21","329E6HTMSWO7MPPIUTRHLR63CI0K3O","","null","<img src=""img/animal5.png"" style=""width:200px; border:14px solid green;"">","null","","","","","",""
"","image-keyboard-response","112","431227","0.0-112.0","31QTRG6Q2UZBZ3HGN8UHWLK3LZZYP6","A37GOI3N77WX21","329E6HTMSWO7MPPIUTRHLR63CI0K3O","","561.5","img/animal1.png","74","562.3000000715256","1","1","1","1,0.5,0,0,1,0.5,0.5,0,1",""
"","html-keyboard-response","113","431529","0.0-113.0","31QTRG6Q2UZBZ3HGN8UHWLK3LZZYP6","A37GOI3N77WX21","329E6HTMSWO7MPPIUTRHLR63CI0K3O","","null","<img src=""img/animal1.png"" style=""width:200px; border:14px solid green;"">","null","","","","","",""
"","image-keyboard-response","114","431986","0.0-114.0","31QTRG6Q2UZBZ3HGN8UHWLK3LZZYP6","A37GOI3N77WX21","329E6HTMSWO7MPPIUTRHLR63CI0K3O","","456","img/animal3.png","76","456.7999999523163","3","1","3","1,0.5,0,0,1,0.5,0.5,0,1",""
"","html-keyboard-response","115","432289","0.0-115.0","31QTRG6Q2UZBZ3HGN8UHWLK3LZZYP6","A37GOI3N77WX21","329E6HTMSWO7MPPIUTRHLR63CI0K3O","","null","<img src=""img/animal3.png"" style=""width:200px; border:14px solid green;"">","null","","","","","",""
"","image-keyboard-response","116","433259","0.0-116.0","31QTRG6Q2UZBZ3HGN8UHWLK3LZZYP6","A37GOI3N77WX21","329E6HTMSWO7MPPIUTRHLR63CI0K3O","","968.8999999761581","img/animal5.png","75","969.8000000715256","2","1","2","1,0.5,0,0,1,0.5,0.5,0,1",""
"","html-keyboard-response","117","433561","0.0-117.0","31QTRG6Q2UZBZ3HGN8UHWLK3LZZYP6","A37GOI3N77WX21","329E6HTMSWO7MPPIUTRHLR63CI0K3O","","null","<img src=""img/animal5.png"" style=""width:200px; border:14px solid green;"">","null","","","","","",""
"","image-keyboard-response","118","434187","0.0-118.0","31QTRG6Q2UZBZ3HGN8UHWLK3LZZYP6","A37GOI3N77WX21","329E6HTMSWO7MPPIUTRHLR63CI0K3O","","624.6999999284744","img/animal1.png","74","625.5","1","1","1","1,0.5,0,0,1,0.5,0.5,0,1",""
"","html-keyboard-response","119","434489","0.0-119.0","31QTRG6Q2UZBZ3HGN8UHWLK3LZZYP6","A37GOI3N77WX21","329E6HTMSWO7MPPIUTRHLR63CI0K3O","","null","<img src=""img/animal1.png"" style=""width:200px; border:14px solid green;"">","null","","","","","",""
"","image-keyboard-response","120","435170","0.0-120.0","31QTRG6Q2UZBZ3HGN8UHWLK3LZZYP6","A37GOI3N77WX21","329E6HTMSWO7MPPIUTRHLR63CI0K3O","","680.5","img/animal5.png","75","681.7000000476837","2","1","2","1,0.5,0,0,1,0.5,0.5,0,1",""
"","html-keyboard-response","121","435472","0.0-121.0","31QTRG6Q2UZBZ3HGN8UHWLK3LZZYP6","A37GOI3N77WX21","329E6HTMSWO7MPPIUTRHLR63CI0K3O","","null","<img src=""img/animal5.png"" style=""width:200px; border:14px solid green;"">","null","","","","","",""
"","image-keyboard-response","122","436411","0.0-122.0","31QTRG6Q2UZBZ3HGN8UHWLK3LZZYP6","A37GOI3N77WX21","329E6HTMSWO7MPPIUTRHLR63CI0K3O","","937.0999999046326","img/animal1.png","74","938.0999999046326","1","1","1","1,0.5,0,0,1,0.5,0.5,0,1",""
"","html-keyboard-response","123","436713","0.0-123.0","31QTRG6Q2UZBZ3HGN8UHWLK3LZZYP6","A37GOI3N77WX21","329E6HTMSWO7MPPIUTRHLR63CI0K3O","","null","<img src=""img/animal1.png"" style=""width:200px; border:14px solid green;"">","null","","","","","",""
"","image-keyboard-response","124","437387","0.0-124.0","31QTRG6Q2UZBZ3HGN8UHWLK3LZZYP6","A37GOI3N77WX21","329E6HTMSWO7MPPIUTRHLR63CI0K3O","","672.5","img/animal5.png","75","673.2999999523163","2","1","2","1,0.5,0,0,1,0.5,0.5,0,1",""
"","html-keyboard-response","125","437689","0.0-125.0","31QTRG6Q2UZBZ3HGN8UHWLK3LZZYP6","A37GOI3N77WX21","329E6HTMSWO7MPPIUTRHLR63CI0K3O","","null","<img src=""img/animal5.png"" style=""width:200px; border:14px solid green;"">","null","","","","","",""
"","image-keyboard-response","126","438242","0.0-126.0","31QTRG6Q2UZBZ3HGN8UHWLK3LZZYP6","A37GOI3N77WX21","329E6HTMSWO7MPPIUTRHLR63CI0K3O","","552.6999999284744","img/animal5.png","75","553.6000000238419","2","1","2","1,0.5,0,0,1,0.5,0.5,0,1",""
"","html-keyboard-response","127","438545","0.0-127.0","31QTRG6Q2UZBZ3HGN8UHWLK3LZZYP6","A37GOI3N77WX21","329E6HTMSWO7MPPIUTRHLR63CI0K3O","","null","<img src=""img/animal5.png"" style=""width:200px; border:14px solid green;"">","null","","","","","",""
"","image-keyboard-response","128","439075","0.0-128.0","31QTRG6Q2UZBZ3HGN8UHWLK3LZZYP6","A37GOI3N77WX21","329E6HTMSWO7MPPIUTRHLR63CI0K3O","","528.7999999523163","img/animal1.png","74","529.6000000238419","1","1","1","1,0.5,0,0,1,0.5,0.5,0,1",""
"","html-keyboard-response","129","439377","0.0-129.0","31QTRG6Q2UZBZ3HGN8UHWLK3LZZYP6","A37GOI3N77WX21","329E6HTMSWO7MPPIUTRHLR63CI0K3O","","null","<img src=""img/animal1.png"" style=""width:200px; border:14px solid green;"">","null","","","","","",""
"","image-keyboard-response","130","440627","0.0-130.0","31QTRG6Q2UZBZ3HGN8UHWLK3LZZYP6","A37GOI3N77WX21","329E6HTMSWO7MPPIUTRHLR63CI0K3O","","1248.2999999523163","img/animal3.png","76","1249.2000000476837","3","1","3","1,0.5,0,0,1,0.5,0.5,0,1",""
"","html-keyboard-response","131","440928","0.0-131.0","31QTRG6Q2UZBZ3HGN8UHWLK3LZZYP6","A37GOI3N77WX21","329E6HTMSWO7MPPIUTRHLR63CI0K3O","","null","<img src=""img/animal3.png"" style=""width:200px; border:14px solid green;"">","null","","","","","",""
"","image-keyboard-response","132","441450","0.0-132.0","31QTRG6Q2UZBZ3HGN8UHWLK3LZZYP6","A37GOI3N77WX21","329E6HTMSWO7MPPIUTRHLR63CI0K3O","","521.3999999761581","img/animal5.png","74","522.2000000476837","1","0","2","1,0.5,0,0,1,0.5,0.5,0,1",""
"","html-keyboard-response","133","441752","0.0-133.0","31QTRG6Q2UZBZ3HGN8UHWLK3LZZYP6","A37GOI3N77WX21","329E6HTMSWO7MPPIUTRHLR63CI0K3O","","null","<img src=""img/animal5.png"" style=""width:200px;border:14px solid red;"">","null","","","","","",""
"","image-keyboard-response","134","443627","0.0-134.0","31QTRG6Q2UZBZ3HGN8UHWLK3LZZYP6","A37GOI3N77WX21","329E6HTMSWO7MPPIUTRHLR63CI0K3O","","1873.6000000238419","img/animal3.png","76","1874.3999999761581","3","1","3","1,0.5,0,0,1,0.5,0.5,0,1",""
"","html-keyboard-response","135","443929","0.0-135.0","31QTRG6Q2UZBZ3HGN8UHWLK3LZZYP6","A37GOI3N77WX21","329E6HTMSWO7MPPIUTRHLR63CI0K3O","","null","<img src=""img/animal3.png"" style=""width:200px; border:14px solid green;"">","null","","","","","",""
"","image-keyboard-response","136","444898","0.0-136.0","31QTRG6Q2UZBZ3HGN8UHWLK3LZZYP6","A37GOI3N77WX21","329E6HTMSWO7MPPIUTRHLR63CI0K3O","","968.5","img/animal5.png","75","969.2999999523163","2","1","2","1,0.5,0,0,1,0.5,0.5,0,1",""
"","html-keyboard-response","137","445200","0.0-137.0","31QTRG6Q2UZBZ3HGN8UHWLK3LZZYP6","A37GOI3N77WX21","329E6HTMSWO7MPPIUTRHLR63CI0K3O","","null","<img src=""img/animal5.png"" style=""width:200px; border:14px solid green;"">","null","","","","","",""
"","image-keyboard-response","138","445771","0.0-138.0","31QTRG6Q2UZBZ3HGN8UHWLK3LZZYP6","A37GOI3N77WX21","329E6HTMSWO7MPPIUTRHLR63CI0K3O","","569.3999999761581","img/animal1.png","74","570.2000000476837","1","1","1","1,0.5,0,0,1,0.5,0.5,0,1",""
"","html-keyboard-response","139","446072","0.0-139.0","31QTRG6Q2UZBZ3HGN8UHWLK3LZZYP6","A37GOI3N77WX21","329E6HTMSWO7MPPIUTRHLR63CI0K3O","","null","<img src=""img/animal1.png"" style=""width:200px; border:14px solid green;"">","null","","","","","",""
"","image-keyboard-response","140","447115","0.0-140.0","31QTRG6Q2UZBZ3HGN8UHWLK3LZZYP6","A37GOI3N77WX21","329E6HTMSWO7MPPIUTRHLR63CI0K3O","","1041.2999999523163","img/animal3.png","76","1042","3","1","3","1,0.5,0,0,1,0.5,0.5,0,1",""
"","html-keyboard-response","141","447416","0.0-141.0","31QTRG6Q2UZBZ3HGN8UHWLK3LZZYP6","A37GOI3N77WX21","329E6HTMSWO7MPPIUTRHLR63CI0K3O","","null","<img src=""img/animal3.png"" style=""width:200px; border:14px solid green;"">","null","","","","","",""
"","image-keyboard-response","142","448051","0.0-142.0","31QTRG6Q2UZBZ3HGN8UHWLK3LZZYP6","A37GOI3N77WX21","329E6HTMSWO7MPPIUTRHLR63CI0K3O","","633.8000000715256","img/animal5.png","75","634.6999999284744","2","1","2","1,0.5,0,0,1,0.5,0.5,0,1",""
"","html-keyboard-response","143","448352","0.0-143.0","31QTRG6Q2UZBZ3HGN8UHWLK3LZZYP6","A37GOI3N77WX21","329E6HTMSWO7MPPIUTRHLR63CI0K3O","","null","<img src=""img/animal5.png"" style=""width:200px; border:14px solid green;"">","null","","","","","",""
"","image-keyboard-response","144","449283","0.0-144.0","31QTRG6Q2UZBZ3HGN8UHWLK3LZZYP6","A37GOI3N77WX21","329E6HTMSWO7MPPIUTRHLR63CI0K3O","","929.2000000476837","img/animal3.png","76","930.1000000238419","3","1","3","1,0.5,0,0,1,0.5,0.5,0,1",""
"","html-keyboard-response","145","449584","0.0-145.0","31QTRG6Q2UZBZ3HGN8UHWLK3LZZYP6","A37GOI3N77WX21","329E6HTMSWO7MPPIUTRHLR63CI0K3O","","null","<img src=""img/animal3.png"" style=""width:200px; border:14px solid green;"">","null","","","","","",""
"","image-keyboard-response","146","450874","0.0-146.0","31QTRG6Q2UZBZ3HGN8UHWLK3LZZYP6","A37GOI3N77WX21","329E6HTMSWO7MPPIUTRHLR63CI0K3O","","1289.1000000238419","img/animal1.png","74","1289.8999999761581","1","1","1","1,0.5,0,0,1,0.5,0.5,0,1",""
"","html-keyboard-response","147","451176","0.0-147.0","31QTRG6Q2UZBZ3HGN8UHWLK3LZZYP6","A37GOI3N77WX21","329E6HTMSWO7MPPIUTRHLR63CI0K3O","","null","<img src=""img/animal1.png"" style=""width:200px; border:14px solid green;"">","null","","","","","",""
"","image-keyboard-response","148","451635","0.0-148.0","31QTRG6Q2UZBZ3HGN8UHWLK3LZZYP6","A37GOI3N77WX21","329E6HTMSWO7MPPIUTRHLR63CI0K3O","","457.60000002384186","img/animal1.png","74","458.3000000715256","1","1","1","1,0.5,0,0,1,0.5,0.5,0,1",""
"","html-keyboard-response","149","451937","0.0-149.0","31QTRG6Q2UZBZ3HGN8UHWLK3LZZYP6","A37GOI3N77WX21","329E6HTMSWO7MPPIUTRHLR63CI0K3O","","null","<img src=""img/animal1.png"" style=""width:200px; border:14px solid green;"">","null","","","","","",""
"","image-keyboard-response","150","452499","0.0-150.0","31QTRG6Q2UZBZ3HGN8UHWLK3LZZYP6","A37GOI3N77WX21","329E6HTMSWO7MPPIUTRHLR63CI0K3O","","560.2999999523163","img/animal1.png","74","561.2000000476837","1","1","1","1,0.5,0,0,1,0.5,0.5,0,1",""
"","html-keyboard-response","151","452801","0.0-151.0","31QTRG6Q2UZBZ3HGN8UHWLK3LZZYP6","A37GOI3N77WX21","329E6HTMSWO7MPPIUTRHLR63CI0K3O","","null","<img src=""img/animal1.png"" style=""width:200px; border:14px solid green;"">","null","","","","","",""
"","image-keyboard-response","152","454579","0.0-152.0","31QTRG6Q2UZBZ3HGN8UHWLK3LZZYP6","A37GOI3N77WX21","329E6HTMSWO7MPPIUTRHLR63CI0K3O","","1776.5","img/animal1.png","74","1777.3999999761581","1","1","1","1,0.5,0,0,1,0.5,0.5,0,1",""
"","html-keyboard-response","153","454880","0.0-153.0","31QTRG6Q2UZBZ3HGN8UHWLK3LZZYP6","A37GOI3N77WX21","329E6HTMSWO7MPPIUTRHLR63CI0K3O","","null","<img src=""img/animal1.png"" style=""width:200px; border:14px solid green;"">","null","","","","","",""
"","image-keyboard-response","154","455571","0.0-154.0","31QTRG6Q2UZBZ3HGN8UHWLK3LZZYP6","A37GOI3N77WX21","329E6HTMSWO7MPPIUTRHLR63CI0K3O","","689.3999999761581","img/animal3.png","76","690.2999999523163","3","1","3","1,0.5,0,0,1,0.5,0.5,0,1",""
"","html-keyboard-response","155","455873","0.0-155.0","31QTRG6Q2UZBZ3HGN8UHWLK3LZZYP6","A37GOI3N77WX21","329E6HTMSWO7MPPIUTRHLR63CI0K3O","","null","<img src=""img/animal3.png"" style=""width:200px; border:14px solid green;"">","null","","","","","",""
"","image-keyboard-response","156","456635","0.0-156.0","31QTRG6Q2UZBZ3HGN8UHWLK3LZZYP6","A37GOI3N77WX21","329E6HTMSWO7MPPIUTRHLR63CI0K3O","","760.7000000476837","img/animal1.png","74","761.5","1","1","1","1,0.5,0,0,1,0.5,0.5,0,1",""
"","html-keyboard-response","157","456937","0.0-157.0","31QTRG6Q2UZBZ3HGN8UHWLK3LZZYP6","A37GOI3N77WX21","329E6HTMSWO7MPPIUTRHLR63CI0K3O","","null","<img src=""img/animal1.png"" style=""width:200px; border:14px solid green;"">","null","","","","","",""
"","image-keyboard-response","158","457419","0.0-158.0","31QTRG6Q2UZBZ3HGN8UHWLK3LZZYP6","A37GOI3N77WX21","329E6HTMSWO7MPPIUTRHLR63CI0K3O","","480.6999999284744","img/animal1.png","74","481.60000002384186","1","1","1","1,0.5,0,0,1,0.5,0.5,0,1",""
"","html-keyboard-response","159","457721","0.0-159.0","31QTRG6Q2UZBZ3HGN8UHWLK3LZZYP6","A37GOI3N77WX21","329E6HTMSWO7MPPIUTRHLR63CI0K3O","","null","<img src=""img/animal1.png"" style=""width:200px; border:14px solid green;"">","null","","","","","",""
"","image-keyboard-response","160","458091","0.0-160.0","31QTRG6Q2UZBZ3HGN8UHWLK3LZZYP6","A37GOI3N77WX21","329E6HTMSWO7MPPIUTRHLR63CI0K3O","","368.60000002384186","img/animal1.png","74","369.7999999523163","1","1","1","1,0.5,0,0,1,0.5,0.5,0,1",""
"","html-keyboard-response","161","458397","0.0-161.0","31QTRG6Q2UZBZ3HGN8UHWLK3LZZYP6","A37GOI3N77WX21","329E6HTMSWO7MPPIUTRHLR63CI0K3O","","null","<img src=""img/animal1.png"" style=""width:200px; border:14px solid green;"">","null","","","","","",""
"","image-keyboard-response","162","458755","0.0-162.0","31QTRG6Q2UZBZ3HGN8UHWLK3LZZYP6","A37GOI3N77WX21","329E6HTMSWO7MPPIUTRHLR63CI0K3O","","357.3000000715256","img/animal1.png","74","358","1","1","1","1,0.5,0,0,1,0.5,0.5,0,1",""
"","html-keyboard-response","163","459057","0.0-163.0","31QTRG6Q2UZBZ3HGN8UHWLK3LZZYP6","A37GOI3N77WX21","329E6HTMSWO7MPPIUTRHLR63CI0K3O","","null","<img src=""img/animal1.png"" style=""width:200px; border:14px solid green;"">","null","","","","","",""
"","image-keyboard-response","164","459763","0.0-164.0","31QTRG6Q2UZBZ3HGN8UHWLK3LZZYP6","A37GOI3N77WX21","329E6HTMSWO7MPPIUTRHLR63CI0K3O","","704.8999999761581","img/animal3.png","76","705.6000000238419","3","1","3","1,0.5,0,0,1,0.5,0.5,0,1",""
"","html-keyboard-response","165","460065","0.0-165.0","31QTRG6Q2UZBZ3HGN8UHWLK3LZZYP6","A37GOI3N77WX21","329E6HTMSWO7MPPIUTRHLR63CI0K3O","","null","<img src=""img/animal3.png"" style=""width:200px; border:14px solid green;"">","null","","","","","",""
"","image-keyboard-response","166","460451","0.0-166.0","31QTRG6Q2UZBZ3HGN8UHWLK3LZZYP6","A37GOI3N77WX21","329E6HTMSWO7MPPIUTRHLR63CI0K3O","","385","img/animal3.png","76","385.8000000715256","3","1","3","1,0.5,0,0,1,0.5,0.5,0,1",""
"","html-keyboard-response","167","460753","0.0-167.0","31QTRG6Q2UZBZ3HGN8UHWLK3LZZYP6","A37GOI3N77WX21","329E6HTMSWO7MPPIUTRHLR63CI0K3O","","null","<img src=""img/animal3.png"" style=""width:200px; border:14px solid green;"">","null","","","","","",""
"","image-keyboard-response","168","461315","0.0-168.0","31QTRG6Q2UZBZ3HGN8UHWLK3LZZYP6","A37GOI3N77WX21","329E6HTMSWO7MPPIUTRHLR63CI0K3O","","561.3999999761581","img/animal5.png","75","562.0999999046326","2","1","2","1,0.5,0,0,1,0.5,0.5,0,1",""
"","html-keyboard-response","169","461617","0.0-169.0","31QTRG6Q2UZBZ3HGN8UHWLK3LZZYP6","A37GOI3N77WX21","329E6HTMSWO7MPPIUTRHLR63CI0K3O","","null","<img src=""img/animal5.png"" style=""width:200px; border:14px solid green;"">","null","","","","","",""
"","image-keyboard-response","170","462387","0.0-170.0","31QTRG6Q2UZBZ3HGN8UHWLK3LZZYP6","A37GOI3N77WX21","329E6HTMSWO7MPPIUTRHLR63CI0K3O","","768.8999999761581","img/animal3.png","76","769.7999999523163","3","1","3","1,0.5,0,0,1,0.5,0.5,0,1",""
"","html-keyboard-response","171","462689","0.0-171.0","31QTRG6Q2UZBZ3HGN8UHWLK3LZZYP6","A37GOI3N77WX21","329E6HTMSWO7MPPIUTRHLR63CI0K3O","","null","<img src=""img/animal3.png"" style=""width:200px; border:14px solid green;"">","null","","","","","",""
"","image-keyboard-response","172","463139","0.0-172.0","31QTRG6Q2UZBZ3HGN8UHWLK3LZZYP6","A37GOI3N77WX21","329E6HTMSWO7MPPIUTRHLR63CI0K3O","","449.2000000476837","img/animal3.png","76","450.10000002384186","3","1","3","1,0.5,0,0,1,0.5,0.5,0,1",""
"","html-keyboard-response","173","463441","0.0-173.0","31QTRG6Q2UZBZ3HGN8UHWLK3LZZYP6","A37GOI3N77WX21","329E6HTMSWO7MPPIUTRHLR63CI0K3O","","null","<img src=""img/animal3.png"" style=""width:200px; border:14px solid green;"">","null","","","","","",""
"","image-keyboard-response","174","463819","0.0-174.0","31QTRG6Q2UZBZ3HGN8UHWLK3LZZYP6","A37GOI3N77WX21","329E6HTMSWO7MPPIUTRHLR63CI0K3O","","377.2999999523163","img/animal3.png","76","378.10000002384186","3","1","3","1,0.5,0,0,1,0.5,0.5,0,1",""
"","html-keyboard-response","175","464122","0.0-175.0","31QTRG6Q2UZBZ3HGN8UHWLK3LZZYP6","A37GOI3N77WX21","329E6HTMSWO7MPPIUTRHLR63CI0K3O","","null","<img src=""img/animal3.png"" style=""width:200px; border:14px solid green;"">","null","","","","","",""
"","image-keyboard-response","176","464795","0.0-176.0","31QTRG6Q2UZBZ3HGN8UHWLK3LZZYP6","A37GOI3N77WX21","329E6HTMSWO7MPPIUTRHLR63CI0K3O","","672.1000000238419","img/animal5.png","75","672.8000000715256","2","1","2","1,0.5,0,0,1,0.5,0.5,0,1",""
"","html-keyboard-response","177","465097","0.0-177.0","31QTRG6Q2UZBZ3HGN8UHWLK3LZZYP6","A37GOI3N77WX21","329E6HTMSWO7MPPIUTRHLR63CI0K3O","","null","<img src=""img/animal5.png"" style=""width:200px; border:14px solid green;"">","null","","","","","",""
"","image-keyboard-response","178","465803","0.0-178.0","31QTRG6Q2UZBZ3HGN8UHWLK3LZZYP6","A37GOI3N77WX21","329E6HTMSWO7MPPIUTRHLR63CI0K3O","","704.6000000238419","img/animal1.png","74","705.6000000238419","1","1","1","1,0.5,0,0,1,0.5,0.5,0,1",""
"","html-keyboard-response","179","466105","0.0-179.0","31QTRG6Q2UZBZ3HGN8UHWLK3LZZYP6","A37GOI3N77WX21","329E6HTMSWO7MPPIUTRHLR63CI0K3O","","null","<img src=""img/animal1.png"" style=""width:200px; border:14px solid green;"">","null","","","","","",""
"","image-keyboard-response","180","466515","0.0-180.0","31QTRG6Q2UZBZ3HGN8UHWLK3LZZYP6","A37GOI3N77WX21","329E6HTMSWO7MPPIUTRHLR63CI0K3O","","409.3000000715256","img/animal1.png","74","410.2000000476837","1","1","1","1,0.5,0,0,1,0.5,0.5,0,1",""
"","html-keyboard-response","181","466817","0.0-181.0","31QTRG6Q2UZBZ3HGN8UHWLK3LZZYP6","A37GOI3N77WX21","329E6HTMSWO7MPPIUTRHLR63CI0K3O","","null","<img src=""img/animal1.png"" style=""width:200px; border:14px solid green;"">","null","","","","","",""
"","html-keyboard-response","182","469453","0.0-182.0","31QTRG6Q2UZBZ3HGN8UHWLK3LZZYP6","A37GOI3N77WX21","329E6HTMSWO7MPPIUTRHLR63CI0K3O","","","","","","","","","",""
"","image-keyboard-response","183","470811","0.0-183.0","31QTRG6Q2UZBZ3HGN8UHWLK3LZZYP6","A37GOI3N77WX21","329E6HTMSWO7MPPIUTRHLR63CI0K3O","","1356.3999999761581","img/animal6.png","74","1357.5","1","1","2","1,0.5,0,1,0.5,0,0.5,0,1",""
"","html-keyboard-response","184","471113","0.0-184.0","31QTRG6Q2UZBZ3HGN8UHWLK3LZZYP6","A37GOI3N77WX21","329E6HTMSWO7MPPIUTRHLR63CI0K3O","","null","<img src=""img/animal6.png"" style=""width:200px; border:14px solid green;"">","null","","","","","",""
"","image-keyboard-response","185","471939","0.0-185.0","31QTRG6Q2UZBZ3HGN8UHWLK3LZZYP6","A37GOI3N77WX21","329E6HTMSWO7MPPIUTRHLR63CI0K3O","","825.3000000715256","img/animal4.png","75","826.2000000476837","2","1","1","1,0.5,0,1,0.5,0,0.5,0,1",""
"","html-keyboard-response","186","472240","0.0-186.0","31QTRG6Q2UZBZ3HGN8UHWLK3LZZYP6","A37GOI3N77WX21","329E6HTMSWO7MPPIUTRHLR63CI0K3O","","null","<img src=""img/animal4.png"" style=""width:200px; border:14px solid green;"">","null","","","","","",""
"","image-keyboard-response","187","472867","0.0-187.0","31QTRG6Q2UZBZ3HGN8UHWLK3LZZYP6","A37GOI3N77WX21","329E6HTMSWO7MPPIUTRHLR63CI0K3O","","625.5","img/animal2.png","76","626.3999999761581","3","1","3","1,0.5,0,1,0.5,0,0.5,0,1",""
"","html-keyboard-response","188","473169","0.0-188.0","31QTRG6Q2UZBZ3HGN8UHWLK3LZZYP6","A37GOI3N77WX21","329E6HTMSWO7MPPIUTRHLR63CI0K3O","","null","<img src=""img/animal2.png"" style=""width:200px; border:14px solid green;"">","null","","","","","",""
"","image-keyboard-response","189","473955","0.0-189.0","31QTRG6Q2UZBZ3HGN8UHWLK3LZZYP6","A37GOI3N77WX21","329E6HTMSWO7MPPIUTRHLR63CI0K3O","","784.7999999523163","img/animal4.png","75","785.8999999761581","2","0","1","1,0.5,0,1,0.5,0,0.5,0,1",""
"","html-keyboard-response","190","474257","0.0-190.0","31QTRG6Q2UZBZ3HGN8UHWLK3LZZYP6","A37GOI3N77WX21","329E6HTMSWO7MPPIUTRHLR63CI0K3O","","null","<img src=""img/animal4.png"" style=""width:200px;border:14px solid red;"">","null","","","","","",""
"","image-keyboard-response","191","475115","0.0-191.0","31QTRG6Q2UZBZ3HGN8UHWLK3LZZYP6","A37GOI3N77WX21","329E6HTMSWO7MPPIUTRHLR63CI0K3O","","856.6000000238419","img/animal4.png","75","857.3999999761581","2","0","1","1,0.5,0,1,0.5,0,0.5,0,1",""
"","html-keyboard-response","192","475418","0.0-192.0","31QTRG6Q2UZBZ3HGN8UHWLK3LZZYP6","A37GOI3N77WX21","329E6HTMSWO7MPPIUTRHLR63CI0K3O","","null","<img src=""img/animal4.png"" style=""width:200px;border:14px solid red;"">","null","","","","","",""
"","image-keyboard-response","193","476363","0.0-193.0","31QTRG6Q2UZBZ3HGN8UHWLK3LZZYP6","A37GOI3N77WX21","329E6HTMSWO7MPPIUTRHLR63CI0K3O","","944.1000000238419","img/animal6.png","74","945.0999999046326","1","1","2","1,0.5,0,1,0.5,0,0.5,0,1",""
"","html-keyboard-response","194","476664","0.0-194.0","31QTRG6Q2UZBZ3HGN8UHWLK3LZZYP6","A37GOI3N77WX21","329E6HTMSWO7MPPIUTRHLR63CI0K3O","","null","<img src=""img/animal6.png"" style=""width:200px; border:14px solid green;"">","null","","","","","",""
"","image-keyboard-response","195","477147","0.0-195.0","31QTRG6Q2UZBZ3HGN8UHWLK3LZZYP6","A37GOI3N77WX21","329E6HTMSWO7MPPIUTRHLR63CI0K3O","","481.90000009536743","img/animal6.png","74","482.60000002384186","1","1","2","1,0.5,0,1,0.5,0,0.5,0,1",""
"","html-keyboard-response","196","477450","0.0-196.0","31QTRG6Q2UZBZ3HGN8UHWLK3LZZYP6","A37GOI3N77WX21","329E6HTMSWO7MPPIUTRHLR63CI0K3O","","null","<img src=""img/animal6.png"" style=""width:200px; border:14px solid green;"">","null","","","","","",""
"","image-keyboard-response","197","477843","0.0-197.0","31QTRG6Q2UZBZ3HGN8UHWLK3LZZYP6","A37GOI3N77WX21","329E6HTMSWO7MPPIUTRHLR63CI0K3O","","392.5","img/animal6.png","74","393.2000000476837","1","1","2","1,0.5,0,1,0.5,0,0.5,0,1",""
"","html-keyboard-response","198","478145","0.0-198.0","31QTRG6Q2UZBZ3HGN8UHWLK3LZZYP6","A37GOI3N77WX21","329E6HTMSWO7MPPIUTRHLR63CI0K3O","","null","<img src=""img/animal6.png"" style=""width:200px; border:14px solid green;"">","null","","","","","",""
"","image-keyboard-response","199","479515","0.0-199.0","31QTRG6Q2UZBZ3HGN8UHWLK3LZZYP6","A37GOI3N77WX21","329E6HTMSWO7MPPIUTRHLR63CI0K3O","","1369.1000000238419","img/animal2.png","74","1369.7999999523163","1","0","3","1,0.5,0,1,0.5,0,0.5,0,1",""
"","html-keyboard-response","200","479818","0.0-200.0","31QTRG6Q2UZBZ3HGN8UHWLK3LZZYP6","A37GOI3N77WX21","329E6HTMSWO7MPPIUTRHLR63CI0K3O","","null","<img src=""img/animal2.png"" style=""width:200px;border:14px solid red;"">","null","","","","","",""
"","image-keyboard-response","201","480579","0.0-201.0","31QTRG6Q2UZBZ3HGN8UHWLK3LZZYP6","A37GOI3N77WX21","329E6HTMSWO7MPPIUTRHLR63CI0K3O","","759.7000000476837","img/animal6.png","74","760.7999999523163","1","1","2","1,0.5,0,1,0.5,0,0.5,0,1",""
"","html-keyboard-response","202","480881","0.0-202.0","31QTRG6Q2UZBZ3HGN8UHWLK3LZZYP6","A37GOI3N77WX21","329E6HTMSWO7MPPIUTRHLR63CI0K3O","","null","<img src=""img/animal6.png"" style=""width:200px; border:14px solid green;"">","null","","","","","",""
"","image-keyboard-response","203","481867","0.0-203.0","31QTRG6Q2UZBZ3HGN8UHWLK3LZZYP6","A37GOI3N77WX21","329E6HTMSWO7MPPIUTRHLR63CI0K3O","","984.8999999761581","img/animal4.png","76","985.6000000238419","3","0","1","1,0.5,0,1,0.5,0,0.5,0,1",""
"","html-keyboard-response","204","482170","0.0-204.0","31QTRG6Q2UZBZ3HGN8UHWLK3LZZYP6","A37GOI3N77WX21","329E6HTMSWO7MPPIUTRHLR63CI0K3O","","null","<img src=""img/animal4.png"" style=""width:200px;border:14px solid red;"">","null","","","","","",""
"","image-keyboard-response","205","483539","0.0-205.0","31QTRG6Q2UZBZ3HGN8UHWLK3LZZYP6","A37GOI3N77WX21","329E6HTMSWO7MPPIUTRHLR63CI0K3O","","1368.1999999284744","img/animal2.png","75","1368.8999999761581","2","0","3","1,0.5,0,1,0.5,0,0.5,0,1",""
"","html-keyboard-response","206","483853","0.0-206.0","31QTRG6Q2UZBZ3HGN8UHWLK3LZZYP6","A37GOI3N77WX21","329E6HTMSWO7MPPIUTRHLR63CI0K3O","","null","<img src=""img/animal2.png"" style=""width:200px;border:14px solid red;"">","null","","","","","",""
"","image-keyboard-response","207","485035","0.0-207.0","31QTRG6Q2UZBZ3HGN8UHWLK3LZZYP6","A37GOI3N77WX21","329E6HTMSWO7MPPIUTRHLR63CI0K3O","","1180.3999999761581","img/animal4.png","74","1181.1000000238419","1","1","1","1,0.5,0,1,0.5,0,0.5,0,1",""
"","html-keyboard-response","208","485337","0.0-208.0","31QTRG6Q2UZBZ3HGN8UHWLK3LZZYP6","A37GOI3N77WX21","329E6HTMSWO7MPPIUTRHLR63CI0K3O","","null","<img src=""img/animal4.png"" style=""width:200px; border:14px solid green;"">","null","","","","","",""
"","image-keyboard-response","209","487099","0.0-209.0","31QTRG6Q2UZBZ3HGN8UHWLK3LZZYP6","A37GOI3N77WX21","329E6HTMSWO7MPPIUTRHLR63CI0K3O","","1761.3999999761581","img/animal2.png","74","1762.2000000476837","1","0","3","1,0.5,0,1,0.5,0,0.5,0,1",""
"","html-keyboard-response","210","487401","0.0-210.0","31QTRG6Q2UZBZ3HGN8UHWLK3LZZYP6","A37GOI3N77WX21","329E6HTMSWO7MPPIUTRHLR63CI0K3O","","null","<img src=""img/animal2.png"" style=""width:200px;border:14px solid red;"">","null","","","","","",""
"","image-keyboard-response","211","488227","0.0-211.0","31QTRG6Q2UZBZ3HGN8UHWLK3LZZYP6","A37GOI3N77WX21","329E6HTMSWO7MPPIUTRHLR63CI0K3O","","825.1000000238419","img/animal4.png","74","825.8999999761581","1","1","1","1,0.5,0,1,0.5,0,0.5,0,1",""
"","html-keyboard-response","212","488530","0.0-212.0","31QTRG6Q2UZBZ3HGN8UHWLK3LZZYP6","A37GOI3N77WX21","329E6HTMSWO7MPPIUTRHLR63CI0K3O","","null","<img src=""img/animal4.png"" style=""width:200px; border:14px solid green;"">","null","","","","","",""
"","image-keyboard-response","213","489147","0.0-213.0","31QTRG6Q2UZBZ3HGN8UHWLK3LZZYP6","A37GOI3N77WX21","329E6HTMSWO7MPPIUTRHLR63CI0K3O","","616.3000000715256","img/animal4.png","74","617.1000000238419","1","1","1","1,0.5,0,1,0.5,0,0.5,0,1",""
"","html-keyboard-response","214","489450","0.0-214.0","31QTRG6Q2UZBZ3HGN8UHWLK3LZZYP6","A37GOI3N77WX21","329E6HTMSWO7MPPIUTRHLR63CI0K3O","","null","<img src=""img/animal4.png"" style=""width:200px; border:14px solid green;"">","null","","","","","",""
"","image-keyboard-response","215","489931","0.0-215.0","31QTRG6Q2UZBZ3HGN8UHWLK3LZZYP6","A37GOI3N77WX21","329E6HTMSWO7MPPIUTRHLR63CI0K3O","","480.3000000715256","img/animal6.png","74","481.10000002384186","1","1","2","1,0.5,0,1,0.5,0,0.5,0,1",""
"","html-keyboard-response","216","490233","0.0-216.0","31QTRG6Q2UZBZ3HGN8UHWLK3LZZYP6","A37GOI3N77WX21","329E6HTMSWO7MPPIUTRHLR63CI0K3O","","null","<img src=""img/animal6.png"" style=""width:200px; border:14px solid green;"">","null","","","","","",""
"","image-keyboard-response","217","491267","0.0-217.0","31QTRG6Q2UZBZ3HGN8UHWLK3LZZYP6","A37GOI3N77WX21","329E6HTMSWO7MPPIUTRHLR63CI0K3O","","1033.6000000238419","img/animal2.png","76","1034.5","3","1","3","1,0.5,0,1,0.5,0,0.5,0,1",""
"","html-keyboard-response","218","491569","0.0-218.0","31QTRG6Q2UZBZ3HGN8UHWLK3LZZYP6","A37GOI3N77WX21","329E6HTMSWO7MPPIUTRHLR63CI0K3O","","null","<img src=""img/animal2.png"" style=""width:200px; border:14px solid green;"">","null","","","","","",""
"","image-keyboard-response","219","493635","0.0-219.0","31QTRG6Q2UZBZ3HGN8UHWLK3LZZYP6","A37GOI3N77WX21","329E6HTMSWO7MPPIUTRHLR63CI0K3O","","2065","img/animal4.png","74","2065.8000000715256","1","1","1","1,0.5,0,1,0.5,0,0.5,0,1",""
"","html-keyboard-response","220","493938","0.0-220.0","31QTRG6Q2UZBZ3HGN8UHWLK3LZZYP6","A37GOI3N77WX21","329E6HTMSWO7MPPIUTRHLR63CI0K3O","","null","<img src=""img/animal4.png"" style=""width:200px; border:14px solid green;"">","null","","","","","",""
"","image-keyboard-response","221","494611","0.0-221.0","31QTRG6Q2UZBZ3HGN8UHWLK3LZZYP6","A37GOI3N77WX21","329E6HTMSWO7MPPIUTRHLR63CI0K3O","","672.6999999284744","img/animal6.png","74","673.6000000238419","1","1","2","1,0.5,0,1,0.5,0,0.5,0,1",""
"","html-keyboard-response","222","494914","0.0-222.0","31QTRG6Q2UZBZ3HGN8UHWLK3LZZYP6","A37GOI3N77WX21","329E6HTMSWO7MPPIUTRHLR63CI0K3O","","null","<img src=""img/animal6.png"" style=""width:200px; border:14px solid green;"">","null","","","","","",""
"","image-keyboard-response","223","495387","0.0-223.0","31QTRG6Q2UZBZ3HGN8UHWLK3LZZYP6","A37GOI3N77WX21","329E6HTMSWO7MPPIUTRHLR63CI0K3O","","472.60000002384186","img/animal4.png","74","473.40000009536743","1","1","1","1,0.5,0,1,0.5,0,0.5,0,1",""
"","html-keyboard-response","224","495690","0.0-224.0","31QTRG6Q2UZBZ3HGN8UHWLK3LZZYP6","A37GOI3N77WX21","329E6HTMSWO7MPPIUTRHLR63CI0K3O","","null","<img src=""img/animal4.png"" style=""width:200px; border:14px solid green;"">","null","","","","","",""
"","image-keyboard-response","225","496075","0.0-225.0","31QTRG6Q2UZBZ3HGN8UHWLK3LZZYP6","A37GOI3N77WX21","329E6HTMSWO7MPPIUTRHLR63CI0K3O","","384.5","img/animal4.png","74","385.2000000476837","1","1","1","1,0.5,0,1,0.5,0,0.5,0,1",""
"","html-keyboard-response","226","496377","0.0-226.0","31QTRG6Q2UZBZ3HGN8UHWLK3LZZYP6","A37GOI3N77WX21","329E6HTMSWO7MPPIUTRHLR63CI0K3O","","null","<img src=""img/animal4.png"" style=""width:200px; border:14px solid green;"">","null","","","","","",""
"","image-keyboard-response","227","496708","0.0-227.0","31QTRG6Q2UZBZ3HGN8UHWLK3LZZYP6","A37GOI3N77WX21","329E6HTMSWO7MPPIUTRHLR63CI0K3O","","329.5","img/animal4.png","74","330.39999997615814","1","1","1","1,0.5,0,1,0.5,0,0.5,0,1",""
"","html-keyboard-response","228","497010","0.0-228.0","31QTRG6Q2UZBZ3HGN8UHWLK3LZZYP6","A37GOI3N77WX21","329E6HTMSWO7MPPIUTRHLR63CI0K3O","","null","<img src=""img/animal4.png"" style=""width:200px; border:14px solid green;"">","null","","","","","",""
"","image-keyboard-response","229","497651","0.0-229.0","31QTRG6Q2UZBZ3HGN8UHWLK3LZZYP6","A37GOI3N77WX21","329E6HTMSWO7MPPIUTRHLR63CI0K3O","","640.6999999284744","img/animal6.png","74","641.6000000238419","1","1","2","1,0.5,0,1,0.5,0,0.5,0,1",""
"","html-keyboard-response","230","497953","0.0-230.0","31QTRG6Q2UZBZ3HGN8UHWLK3LZZYP6","A37GOI3N77WX21","329E6HTMSWO7MPPIUTRHLR63CI0K3O","","null","<img src=""img/animal6.png"" style=""width:200px; border:14px solid green;"">","null","","","","","",""
"","image-keyboard-response","231","498691","0.0-231.0","31QTRG6Q2UZBZ3HGN8UHWLK3LZZYP6","A37GOI3N77WX21","329E6HTMSWO7MPPIUTRHLR63CI0K3O","","737.6999999284744","img/animal4.png","74","738.5999999046326","1","1","1","1,0.5,0,1,0.5,0,0.5,0,1",""
"","html-keyboard-response","232","498993","0.0-232.0","31QTRG6Q2UZBZ3HGN8UHWLK3LZZYP6","A37GOI3N77WX21","329E6HTMSWO7MPPIUTRHLR63CI0K3O","","null","<img src=""img/animal4.png"" style=""width:200px; border:14px solid green;"">","null","","","","","",""
"","image-keyboard-response","233","499371","0.0-233.0","31QTRG6Q2UZBZ3HGN8UHWLK3LZZYP6","A37GOI3N77WX21","329E6HTMSWO7MPPIUTRHLR63CI0K3O","","377","img/animal4.png","74","377.89999997615814","1","1","1","1,0.5,0,1,0.5,0,0.5,0,1",""
"","html-keyboard-response","234","499673","0.0-234.0","31QTRG6Q2UZBZ3HGN8UHWLK3LZZYP6","A37GOI3N77WX21","329E6HTMSWO7MPPIUTRHLR63CI0K3O","","null","<img src=""img/animal4.png"" style=""width:200px; border:14px solid green;"">","null","","","","","",""
"","image-keyboard-response","235","500364","0.0-235.0","31QTRG6Q2UZBZ3HGN8UHWLK3LZZYP6","A37GOI3N77WX21","329E6HTMSWO7MPPIUTRHLR63CI0K3O","","689.8000000715256","img/animal6.png","74","690.5","1","1","2","1,0.5,0,1,0.5,0,0.5,0,1",""
"","html-keyboard-response","236","500665","0.0-236.0","31QTRG6Q2UZBZ3HGN8UHWLK3LZZYP6","A37GOI3N77WX21","329E6HTMSWO7MPPIUTRHLR63CI0K3O","","null","<img src=""img/animal6.png"" style=""width:200px; border:14px solid green;"">","null","","","","","",""
"","image-keyboard-response","237","501283","0.0-237.0","31QTRG6Q2UZBZ3HGN8UHWLK3LZZYP6","A37GOI3N77WX21","329E6HTMSWO7MPPIUTRHLR63CI0K3O","","617","img/animal4.png","74","617.8000000715256","1","1","1","1,0.5,0,1,0.5,0,0.5,0,1",""
"","html-keyboard-response","238","501585","0.0-238.0","31QTRG6Q2UZBZ3HGN8UHWLK3LZZYP6","A37GOI3N77WX21","329E6HTMSWO7MPPIUTRHLR63CI0K3O","","null","<img src=""img/animal4.png"" style=""width:200px; border:14px solid green;"">","null","","","","","",""
"","image-keyboard-response","239","502091","0.0-239.0","31QTRG6Q2UZBZ3HGN8UHWLK3LZZYP6","A37GOI3N77WX21","329E6HTMSWO7MPPIUTRHLR63CI0K3O","","505.2000000476837","img/animal6.png","74","506","1","1","2","1,0.5,0,1,0.5,0,0.5,0,1",""
"","html-keyboard-response","240","502394","0.0-240.0","31QTRG6Q2UZBZ3HGN8UHWLK3LZZYP6","A37GOI3N77WX21","329E6HTMSWO7MPPIUTRHLR63CI0K3O","","null","<img src=""img/animal6.png"" style=""width:200px; border:14px solid green;"">","null","","","","","",""
"","image-keyboard-response","241","502931","0.0-241.0","31QTRG6Q2UZBZ3HGN8UHWLK3LZZYP6","A37GOI3N77WX21","329E6HTMSWO7MPPIUTRHLR63CI0K3O","","536.1000000238419","img/animal2.png","76","537.1000000238419","3","1","3","1,0.5,0,1,0.5,0,0.5,0,1",""
"","html-keyboard-response","242","503233","0.0-242.0","31QTRG6Q2UZBZ3HGN8UHWLK3LZZYP6","A37GOI3N77WX21","329E6HTMSWO7MPPIUTRHLR63CI0K3O","","null","<img src=""img/animal2.png"" style=""width:200px; border:14px solid green;"">","null","","","","","",""
"","image-keyboard-response","243","503747","0.0-243.0","31QTRG6Q2UZBZ3HGN8UHWLK3LZZYP6","A37GOI3N77WX21","329E6HTMSWO7MPPIUTRHLR63CI0K3O","","513.1999999284744","img/animal6.png","74","514.1000000238419","1","1","2","1,0.5,0,1,0.5,0,0.5,0,1",""
"","html-keyboard-response","244","504049","0.0-244.0","31QTRG6Q2UZBZ3HGN8UHWLK3LZZYP6","A37GOI3N77WX21","329E6HTMSWO7MPPIUTRHLR63CI0K3O","","null","<img src=""img/animal6.png"" style=""width:200px; border:14px solid green;"">","null","","","","","",""
"","image-keyboard-response","245","504459","0.0-245.0","31QTRG6Q2UZBZ3HGN8UHWLK3LZZYP6","A37GOI3N77WX21","329E6HTMSWO7MPPIUTRHLR63CI0K3O","","408.90000009536743","img/animal6.png","74","410.10000002384186","1","1","2","1,0.5,0,1,0.5,0,0.5,0,1",""
"","html-keyboard-response","246","504761","0.0-246.0","31QTRG6Q2UZBZ3HGN8UHWLK3LZZYP6","A37GOI3N77WX21","329E6HTMSWO7MPPIUTRHLR63CI0K3O","","null","<img src=""img/animal6.png"" style=""width:200px; border:14px solid green;"">","null","","","","","",""
"","image-keyboard-response","247","505187","0.0-247.0","31QTRG6Q2UZBZ3HGN8UHWLK3LZZYP6","A37GOI3N77WX21","329E6HTMSWO7MPPIUTRHLR63CI0K3O","","425.2999999523163","img/animal2.png","76","426","3","1","3","1,0.5,0,1,0.5,0,0.5,0,1",""
"","html-keyboard-response","248","505489","0.0-248.0","31QTRG6Q2UZBZ3HGN8UHWLK3LZZYP6","A37GOI3N77WX21","329E6HTMSWO7MPPIUTRHLR63CI0K3O","","null","<img src=""img/animal2.png"" style=""width:200px; border:14px solid green;"">","null","","","","","",""
"","image-keyboard-response","249","505955","0.0-249.0","31QTRG6Q2UZBZ3HGN8UHWLK3LZZYP6","A37GOI3N77WX21","329E6HTMSWO7MPPIUTRHLR63CI0K3O","","464.7999999523163","img/animal4.png","74","465.7999999523163","1","1","1","1,0.5,0,1,0.5,0,0.5,0,1",""
"","html-keyboard-response","250","506258","0.0-250.0","31QTRG6Q2UZBZ3HGN8UHWLK3LZZYP6","A37GOI3N77WX21","329E6HTMSWO7MPPIUTRHLR63CI0K3O","","null","<img src=""img/animal4.png"" style=""width:200px; border:14px solid green;"">","null","","","","","",""
"","image-keyboard-response","251","506691","0.0-251.0","31QTRG6Q2UZBZ3HGN8UHWLK3LZZYP6","A37GOI3N77WX21","329E6HTMSWO7MPPIUTRHLR63CI0K3O","","432.5","img/animal4.png","74","433.2000000476837","1","1","1","1,0.5,0,1,0.5,0,0.5,0,1",""
"","html-keyboard-response","252","507000","0.0-252.0","31QTRG6Q2UZBZ3HGN8UHWLK3LZZYP6","A37GOI3N77WX21","329E6HTMSWO7MPPIUTRHLR63CI0K3O","","null","<img src=""img/animal4.png"" style=""width:200px; border:14px solid green;"">","null","","","","","",""
"","image-keyboard-response","253","507435","0.0-253.0","31QTRG6Q2UZBZ3HGN8UHWLK3LZZYP6","A37GOI3N77WX21","329E6HTMSWO7MPPIUTRHLR63CI0K3O","","434.60000002384186","img/animal2.png","76","435.39999997615814","3","1","3","1,0.5,0,1,0.5,0,0.5,0,1",""
"","html-keyboard-response","254","507737","0.0-254.0","31QTRG6Q2UZBZ3HGN8UHWLK3LZZYP6","A37GOI3N77WX21","329E6HTMSWO7MPPIUTRHLR63CI0K3O","","null","<img src=""img/animal2.png"" style=""width:200px; border:14px solid green;"">","null","","","","","",""
"","image-keyboard-response","255","508348","0.0-255.0","31QTRG6Q2UZBZ3HGN8UHWLK3LZZYP6","A37GOI3N77WX21","329E6HTMSWO7MPPIUTRHLR63CI0K3O","","609.3000000715256","img/animal6.png","74","610","1","1","2","1,0.5,0,1,0.5,0,0.5,0,1",""
"","html-keyboard-response","256","508649","0.0-256.0","31QTRG6Q2UZBZ3HGN8UHWLK3LZZYP6","A37GOI3N77WX21","329E6HTMSWO7MPPIUTRHLR63CI0K3O","","null","<img src=""img/animal6.png"" style=""width:200px; border:14px solid green;"">","null","","","","","",""
"","image-keyboard-response","257","509171","0.0-257.0","31QTRG6Q2UZBZ3HGN8UHWLK3LZZYP6","A37GOI3N77WX21","329E6HTMSWO7MPPIUTRHLR63CI0K3O","","521","img/animal2.png","76","521.7999999523163","3","1","3","1,0.5,0,1,0.5,0,0.5,0,1",""
"","html-keyboard-response","258","509473","0.0-258.0","31QTRG6Q2UZBZ3HGN8UHWLK3LZZYP6","A37GOI3N77WX21","329E6HTMSWO7MPPIUTRHLR63CI0K3O","","null","<img src=""img/animal2.png"" style=""width:200px; border:14px solid green;"">","null","","","","","",""
"","image-keyboard-response","259","509875","0.0-259.0","31QTRG6Q2UZBZ3HGN8UHWLK3LZZYP6","A37GOI3N77WX21","329E6HTMSWO7MPPIUTRHLR63CI0K3O","","400.60000002384186","img/animal2.png","76","401.60000002384186","3","1","3","1,0.5,0,1,0.5,0,0.5,0,1",""
"","html-keyboard-response","260","510178","0.0-260.0","31QTRG6Q2UZBZ3HGN8UHWLK3LZZYP6","A37GOI3N77WX21","329E6HTMSWO7MPPIUTRHLR63CI0K3O","","null","<img src=""img/animal2.png"" style=""width:200px; border:14px solid green;"">","null","","","","","",""
"","image-keyboard-response","261","510548","0.0-261.0","31QTRG6Q2UZBZ3HGN8UHWLK3LZZYP6","A37GOI3N77WX21","329E6HTMSWO7MPPIUTRHLR63CI0K3O","","368.7999999523163","img/animal2.png","76","369.7000000476837","3","1","3","1,0.5,0,1,0.5,0,0.5,0,1",""
"","html-keyboard-response","262","510850","0.0-262.0","31QTRG6Q2UZBZ3HGN8UHWLK3LZZYP6","A37GOI3N77WX21","329E6HTMSWO7MPPIUTRHLR63CI0K3O","","null","<img src=""img/animal2.png"" style=""width:200px; border:14px solid green;"">","null","","","","","",""
"","image-keyboard-response","263","511515","0.0-263.0","31QTRG6Q2UZBZ3HGN8UHWLK3LZZYP6","A37GOI3N77WX21","329E6HTMSWO7MPPIUTRHLR63CI0K3O","","664.6000000238419","img/animal6.png","74","665.3999999761581","1","1","2","1,0.5,0,1,0.5,0,0.5,0,1",""
"","html-keyboard-response","264","511818","0.0-264.0","31QTRG6Q2UZBZ3HGN8UHWLK3LZZYP6","A37GOI3N77WX21","329E6HTMSWO7MPPIUTRHLR63CI0K3O","","null","<img src=""img/animal6.png"" style=""width:200px; border:14px solid green;"">","null","","","","","",""
"","image-keyboard-response","265","512420","0.0-265.0","31QTRG6Q2UZBZ3HGN8UHWLK3LZZYP6","A37GOI3N77WX21","329E6HTMSWO7MPPIUTRHLR63CI0K3O","","600.6999999284744","img/animal4.png","74","601.6999999284744","1","1","1","1,0.5,0,1,0.5,0,0.5,0,1",""
"","html-keyboard-response","266","512722","0.0-266.0","31QTRG6Q2UZBZ3HGN8UHWLK3LZZYP6","A37GOI3N77WX21","329E6HTMSWO7MPPIUTRHLR63CI0K3O","","null","<img src=""img/animal4.png"" style=""width:200px; border:14px solid green;"">","null","","","","","",""
"","image-keyboard-response","267","513515","0.0-267.0","31QTRG6Q2UZBZ3HGN8UHWLK3LZZYP6","A37GOI3N77WX21","329E6HTMSWO7MPPIUTRHLR63CI0K3O","","792.7999999523163","img/animal2.png","76","793.6000000238419","3","1","3","1,0.5,0,1,0.5,0,0.5,0,1",""
"","html-keyboard-response","268","513817","0.0-268.0","31QTRG6Q2UZBZ3HGN8UHWLK3LZZYP6","A37GOI3N77WX21","329E6HTMSWO7MPPIUTRHLR63CI0K3O","","null","<img src=""img/animal2.png"" style=""width:200px; border:14px solid green;"">","null","","","","","",""
"","image-keyboard-response","269","514379","0.0-269.0","31QTRG6Q2UZBZ3HGN8UHWLK3LZZYP6","A37GOI3N77WX21","329E6HTMSWO7MPPIUTRHLR63CI0K3O","","561.3999999761581","img/animal4.png","74","562.2000000476837","1","1","1","1,0.5,0,1,0.5,0,0.5,0,1",""
"","html-keyboard-response","270","514681","0.0-270.0","31QTRG6Q2UZBZ3HGN8UHWLK3LZZYP6","A37GOI3N77WX21","329E6HTMSWO7MPPIUTRHLR63CI0K3O","","null","<img src=""img/animal4.png"" style=""width:200px; border:14px solid green;"">","null","","","","","",""
"","image-keyboard-response","271","515235","0.0-271.0","31QTRG6Q2UZBZ3HGN8UHWLK3LZZYP6","A37GOI3N77WX21","329E6HTMSWO7MPPIUTRHLR63CI0K3O","","553.6000000238419","img/animal2.png","76","554.4000000953674","3","1","3","1,0.5,0,1,0.5,0,0.5,0,1",""
"","html-keyboard-response","272","515538","0.0-272.0","31QTRG6Q2UZBZ3HGN8UHWLK3LZZYP6","A37GOI3N77WX21","329E6HTMSWO7MPPIUTRHLR63CI0K3O","","null","<img src=""img/animal2.png"" style=""width:200px; border:14px solid green;"">","null","","","","","",""
"","image-keyboard-response","273","515955","0.0-273.0","31QTRG6Q2UZBZ3HGN8UHWLK3LZZYP6","A37GOI3N77WX21","329E6HTMSWO7MPPIUTRHLR63CI0K3O","","416.60000002384186","img/animal2.png","76","417.40000009536743","3","1","3","1,0.5,0,1,0.5,0,0.5,0,1",""
"","html-keyboard-response","274","516258","0.0-274.0","31QTRG6Q2UZBZ3HGN8UHWLK3LZZYP6","A37GOI3N77WX21","329E6HTMSWO7MPPIUTRHLR63CI0K3O","","null","<img src=""img/animal2.png"" style=""width:200px; border:14px solid green;"">","null","","","","","",""
"","image-keyboard-response","275","516763","0.0-275.0","31QTRG6Q2UZBZ3HGN8UHWLK3LZZYP6","A37GOI3N77WX21","329E6HTMSWO7MPPIUTRHLR63CI0K3O","","504.10000002384186","img/animal6.png","74","504.89999997615814","1","1","2","1,0.5,0,1,0.5,0,0.5,0,1",""
"","html-keyboard-response","276","517065","0.0-276.0","31QTRG6Q2UZBZ3HGN8UHWLK3LZZYP6","A37GOI3N77WX21","329E6HTMSWO7MPPIUTRHLR63CI0K3O","","null","<img src=""img/animal6.png"" style=""width:200px; border:14px solid green;"">","null","","","","","",""
"","image-keyboard-response","277","517571","0.0-277.0","31QTRG6Q2UZBZ3HGN8UHWLK3LZZYP6","A37GOI3N77WX21","329E6HTMSWO7MPPIUTRHLR63CI0K3O","","505.5","img/animal6.png","74","506.39999997615814","1","1","2","1,0.5,0,1,0.5,0,0.5,0,1",""
"","html-keyboard-response","278","517874","0.0-278.0","31QTRG6Q2UZBZ3HGN8UHWLK3LZZYP6","A37GOI3N77WX21","329E6HTMSWO7MPPIUTRHLR63CI0K3O","","null","<img src=""img/animal6.png"" style=""width:200px; border:14px solid green;"">","null","","","","","",""
"","image-keyboard-response","279","519627","0.0-279.0","31QTRG6Q2UZBZ3HGN8UHWLK3LZZYP6","A37GOI3N77WX21","329E6HTMSWO7MPPIUTRHLR63CI0K3O","","1752.8999999761581","img/animal4.png","74","1753.6999999284744","1","1","1","1,0.5,0,1,0.5,0,0.5,0,1",""
"","html-keyboard-response","280","519929","0.0-280.0","31QTRG6Q2UZBZ3HGN8UHWLK3LZZYP6","A37GOI3N77WX21","329E6HTMSWO7MPPIUTRHLR63CI0K3O","","null","<img src=""img/animal4.png"" style=""width:200px; border:14px solid green;"">","null","","","","","",""
"","image-keyboard-response","281","520532","0.0-281.0","31QTRG6Q2UZBZ3HGN8UHWLK3LZZYP6","A37GOI3N77WX21","329E6HTMSWO7MPPIUTRHLR63CI0K3O","","601.8000000715256","img/animal2.png","76","602.6000000238419","3","1","3","1,0.5,0,1,0.5,0,0.5,0,1",""
"","html-keyboard-response","282","520834","0.0-282.0","31QTRG6Q2UZBZ3HGN8UHWLK3LZZYP6","A37GOI3N77WX21","329E6HTMSWO7MPPIUTRHLR63CI0K3O","","null","<img src=""img/animal2.png"" style=""width:200px; border:14px solid green;"">","null","","","","","",""
"","image-keyboard-response","283","521356","0.0-283.0","31QTRG6Q2UZBZ3HGN8UHWLK3LZZYP6","A37GOI3N77WX21","329E6HTMSWO7MPPIUTRHLR63CI0K3O","","520.0999999046326","img/animal6.png","74","521.3999999761581","1","1","2","1,0.5,0,1,0.5,0,0.5,0,1",""
"","html-keyboard-response","284","521659","0.0-284.0","31QTRG6Q2UZBZ3HGN8UHWLK3LZZYP6","A37GOI3N77WX21","329E6HTMSWO7MPPIUTRHLR63CI0K3O","","null","<img src=""img/animal6.png"" style=""width:200px; border:14px solid green;"">","null","","","","","",""
"","image-keyboard-response","285","522307","0.0-285.0","31QTRG6Q2UZBZ3HGN8UHWLK3LZZYP6","A37GOI3N77WX21","329E6HTMSWO7MPPIUTRHLR63CI0K3O","","647.7000000476837","img/animal2.png","76","648.5","3","1","3","1,0.5,0,1,0.5,0,0.5,0,1",""
"","html-keyboard-response","286","522610","0.0-286.0","31QTRG6Q2UZBZ3HGN8UHWLK3LZZYP6","A37GOI3N77WX21","329E6HTMSWO7MPPIUTRHLR63CI0K3O","","null","<img src=""img/animal2.png"" style=""width:200px; border:14px solid green;"">","null","","","","","",""
"","image-keyboard-response","287","523531","0.0-287.0","31QTRG6Q2UZBZ3HGN8UHWLK3LZZYP6","A37GOI3N77WX21","329E6HTMSWO7MPPIUTRHLR63CI0K3O","","921","img/animal4.png","74","921.7000000476837","1","1","1","1,0.5,0,1,0.5,0,0.5,0,1",""
"","html-keyboard-response","288","523833","0.0-288.0","31QTRG6Q2UZBZ3HGN8UHWLK3LZZYP6","A37GOI3N77WX21","329E6HTMSWO7MPPIUTRHLR63CI0K3O","","null","<img src=""img/animal4.png"" style=""width:200px; border:14px solid green;"">","null","","","","","",""
"","image-keyboard-response","289","524555","0.0-289.0","31QTRG6Q2UZBZ3HGN8UHWLK3LZZYP6","A37GOI3N77WX21","329E6HTMSWO7MPPIUTRHLR63CI0K3O","","720.7000000476837","img/animal2.png","76","721.4000000953674","3","1","3","1,0.5,0,1,0.5,0,0.5,0,1",""
"","html-keyboard-response","290","524857","0.0-290.0","31QTRG6Q2UZBZ3HGN8UHWLK3LZZYP6","A37GOI3N77WX21","329E6HTMSWO7MPPIUTRHLR63CI0K3O","","null","<img src=""img/animal2.png"" style=""width:200px; border:14px solid green;"">","null","","","","","",""
"","image-keyboard-response","291","525363","0.0-291.0","31QTRG6Q2UZBZ3HGN8UHWLK3LZZYP6","A37GOI3N77WX21","329E6HTMSWO7MPPIUTRHLR63CI0K3O","","504.90000009536743","img/animal6.png","74","505.89999997615814","1","1","2","1,0.5,0,1,0.5,0,0.5,0,1",""
"","html-keyboard-response","292","525665","0.0-292.0","31QTRG6Q2UZBZ3HGN8UHWLK3LZZYP6","A37GOI3N77WX21","329E6HTMSWO7MPPIUTRHLR63CI0K3O","","null","<img src=""img/animal6.png"" style=""width:200px; border:14px solid green;"">","null","","","","","",""
"","image-keyboard-response","293","526051","0.0-293.0","31QTRG6Q2UZBZ3HGN8UHWLK3LZZYP6","A37GOI3N77WX21","329E6HTMSWO7MPPIUTRHLR63CI0K3O","","384.7999999523163","img/animal6.png","74","385.60000002384186","1","1","2","1,0.5,0,1,0.5,0,0.5,0,1",""
"","html-keyboard-response","294","526353","0.0-294.0","31QTRG6Q2UZBZ3HGN8UHWLK3LZZYP6","A37GOI3N77WX21","329E6HTMSWO7MPPIUTRHLR63CI0K3O","","null","<img src=""img/animal6.png"" style=""width:200px; border:14px solid green;"">","null","","","","","",""
"","image-keyboard-response","295","526699","0.0-295.0","31QTRG6Q2UZBZ3HGN8UHWLK3LZZYP6","A37GOI3N77WX21","329E6HTMSWO7MPPIUTRHLR63CI0K3O","","344.8000000715256","img/animal6.png","74","345.5","1","1","2","1,0.5,0,1,0.5,0,0.5,0,1",""
"","html-keyboard-response","296","527002","0.0-296.0","31QTRG6Q2UZBZ3HGN8UHWLK3LZZYP6","A37GOI3N77WX21","329E6HTMSWO7MPPIUTRHLR63CI0K3O","","null","<img src=""img/animal6.png"" style=""width:200px; border:14px solid green;"">","null","","","","","",""
"","image-keyboard-response","297","527371","0.0-297.0","31QTRG6Q2UZBZ3HGN8UHWLK3LZZYP6","A37GOI3N77WX21","329E6HTMSWO7MPPIUTRHLR63CI0K3O","","367.8000000715256","img/animal6.png","74","368.59999990463257","1","1","2","1,0.5,0,1,0.5,0,0.5,0,1",""
"","html-keyboard-response","298","527672","0.0-298.0","31QTRG6Q2UZBZ3HGN8UHWLK3LZZYP6","A37GOI3N77WX21","329E6HTMSWO7MPPIUTRHLR63CI0K3O","","null","<img src=""img/animal6.png"" style=""width:200px; border:14px solid green;"">","null","","","","","",""
"","image-keyboard-response","299","528211","0.0-299.0","31QTRG6Q2UZBZ3HGN8UHWLK3LZZYP6","A37GOI3N77WX21","329E6HTMSWO7MPPIUTRHLR63CI0K3O","","537.6000000238419","img/animal4.png","74","538.6000000238419","1","1","1","1,0.5,0,1,0.5,0,0.5,0,1",""
"","html-keyboard-response","300","528513","0.0-300.0","31QTRG6Q2UZBZ3HGN8UHWLK3LZZYP6","A37GOI3N77WX21","329E6HTMSWO7MPPIUTRHLR63CI0K3O","","null","<img src=""img/animal4.png"" style=""width:200px; border:14px solid green;"">","null","","","","","",""
"","image-keyboard-response","301","529267","0.0-301.0","31QTRG6Q2UZBZ3HGN8UHWLK3LZZYP6","A37GOI3N77WX21","329E6HTMSWO7MPPIUTRHLR63CI0K3O","","753.4000000953674","img/animal2.png","76","754.1000000238419","3","1","3","1,0.5,0,1,0.5,0,0.5,0,1",""
"","html-keyboard-response","302","529569","0.0-302.0","31QTRG6Q2UZBZ3HGN8UHWLK3LZZYP6","A37GOI3N77WX21","329E6HTMSWO7MPPIUTRHLR63CI0K3O","","null","<img src=""img/animal2.png"" style=""width:200px; border:14px solid green;"">","null","","","","","",""
"","image-keyboard-response","303","530267","0.0-303.0","31QTRG6Q2UZBZ3HGN8UHWLK3LZZYP6","A37GOI3N77WX21","329E6HTMSWO7MPPIUTRHLR63CI0K3O","","697.1000000238419","img/animal2.png","76","697.7999999523163","3","1","3","1,0.5,0,1,0.5,0,0.5,0,1",""
"","html-keyboard-response","304","530569","0.0-304.0","31QTRG6Q2UZBZ3HGN8UHWLK3LZZYP6","A37GOI3N77WX21","329E6HTMSWO7MPPIUTRHLR63CI0K3O","","null","<img src=""img/animal2.png"" style=""width:200px; border:14px solid green;"">","null","","","","","",""
"","image-keyboard-response","305","531315","0.0-305.0","31QTRG6Q2UZBZ3HGN8UHWLK3LZZYP6","A37GOI3N77WX21","329E6HTMSWO7MPPIUTRHLR63CI0K3O","","745.3999999761581","img/animal2.png","76","746.3000000715256","3","1","3","1,0.5,0,1,0.5,0,0.5,0,1",""
"","html-keyboard-response","306","531618","0.0-306.0","31QTRG6Q2UZBZ3HGN8UHWLK3LZZYP6","A37GOI3N77WX21","329E6HTMSWO7MPPIUTRHLR63CI0K3O","","null","<img src=""img/animal2.png"" style=""width:200px; border:14px solid green;"">","null","","","","","",""
"","image-keyboard-response","307","532955","0.0-307.0","31QTRG6Q2UZBZ3HGN8UHWLK3LZZYP6","A37GOI3N77WX21","329E6HTMSWO7MPPIUTRHLR63CI0K3O","","1336.2999999523163","img/animal4.png","74","1337.1000000238419","1","1","1","1,0.5,0,1,0.5,0,0.5,0,1",""
"","html-keyboard-response","308","533257","0.0-308.0","31QTRG6Q2UZBZ3HGN8UHWLK3LZZYP6","A37GOI3N77WX21","329E6HTMSWO7MPPIUTRHLR63CI0K3O","","null","<img src=""img/animal4.png"" style=""width:200px; border:14px solid green;"">","null","","","","","",""
"","image-keyboard-response","309","533707","0.0-309.0","31QTRG6Q2UZBZ3HGN8UHWLK3LZZYP6","A37GOI3N77WX21","329E6HTMSWO7MPPIUTRHLR63CI0K3O","","448.8000000715256","img/animal4.png","74","449.7000000476837","1","1","1","1,0.5,0,1,0.5,0,0.5,0,1",""
"","html-keyboard-response","310","534010","0.0-310.0","31QTRG6Q2UZBZ3HGN8UHWLK3LZZYP6","A37GOI3N77WX21","329E6HTMSWO7MPPIUTRHLR63CI0K3O","","null","<img src=""img/animal4.png"" style=""width:200px; border:14px solid green;"">","null","","","","","",""
"","image-keyboard-response","311","534427","0.0-311.0","31QTRG6Q2UZBZ3HGN8UHWLK3LZZYP6","A37GOI3N77WX21","329E6HTMSWO7MPPIUTRHLR63CI0K3O","","415.60000002384186","img/animal4.png","74","416.5","1","1","1","1,0.5,0,1,0.5,0,0.5,0,1",""
"","html-keyboard-response","312","534729","0.0-312.0","31QTRG6Q2UZBZ3HGN8UHWLK3LZZYP6","A37GOI3N77WX21","329E6HTMSWO7MPPIUTRHLR63CI0K3O","","null","<img src=""img/animal4.png"" style=""width:200px; border:14px solid green;"">","null","","","","","",""
"","image-keyboard-response","313","536275","0.0-313.0","31QTRG6Q2UZBZ3HGN8UHWLK3LZZYP6","A37GOI3N77WX21","329E6HTMSWO7MPPIUTRHLR63CI0K3O","","1545.6000000238419","img/animal6.png","74","1546.4000000953674","1","1","2","1,0.5,0,1,0.5,0,0.5,0,1",""
"","html-keyboard-response","314","536578","0.0-314.0","31QTRG6Q2UZBZ3HGN8UHWLK3LZZYP6","A37GOI3N77WX21","329E6HTMSWO7MPPIUTRHLR63CI0K3O","","null","<img src=""img/animal6.png"" style=""width:200px; border:14px solid green;"">","null","","","","","",""
"","image-keyboard-response","315","537075","0.0-315.0","31QTRG6Q2UZBZ3HGN8UHWLK3LZZYP6","A37GOI3N77WX21","329E6HTMSWO7MPPIUTRHLR63CI0K3O","","495.7999999523163","img/animal2.png","76","496.7999999523163","3","1","3","1,0.5,0,1,0.5,0,0.5,0,1",""
"","html-keyboard-response","316","537377","0.0-316.0","31QTRG6Q2UZBZ3HGN8UHWLK3LZZYP6","A37GOI3N77WX21","329E6HTMSWO7MPPIUTRHLR63CI0K3O","","null","<img src=""img/animal2.png"" style=""width:200px; border:14px solid green;"">","null","","","","","",""
"","image-keyboard-response","317","538379","0.0-317.0","31QTRG6Q2UZBZ3HGN8UHWLK3LZZYP6","A37GOI3N77WX21","329E6HTMSWO7MPPIUTRHLR63CI0K3O","","1001.1999999284744","img/animal6.png","74","1002","1","1","2","1,0.5,0,1,0.5,0,0.5,0,1",""
"","html-keyboard-response","318","538681","0.0-318.0","31QTRG6Q2UZBZ3HGN8UHWLK3LZZYP6","A37GOI3N77WX21","329E6HTMSWO7MPPIUTRHLR63CI0K3O","","null","<img src=""img/animal6.png"" style=""width:200px; border:14px solid green;"">","null","","","","","",""
"","image-keyboard-response","319","539795","0.0-319.0","31QTRG6Q2UZBZ3HGN8UHWLK3LZZYP6","A37GOI3N77WX21","329E6HTMSWO7MPPIUTRHLR63CI0K3O","","1112.8999999761581","img/animal4.png","74","1113.7999999523163","1","1","1","1,0.5,0,1,0.5,0,0.5,0,1",""
"","html-keyboard-response","320","540098","0.0-320.0","31QTRG6Q2UZBZ3HGN8UHWLK3LZZYP6","A37GOI3N77WX21","329E6HTMSWO7MPPIUTRHLR63CI0K3O","","null","<img src=""img/animal4.png"" style=""width:200px; border:14px solid green;"">","null","","","","","",""
"","image-keyboard-response","321","542051","0.0-321.0","31QTRG6Q2UZBZ3HGN8UHWLK3LZZYP6","A37GOI3N77WX21","329E6HTMSWO7MPPIUTRHLR63CI0K3O","","1952.6000000238419","img/animal6.png","74","1953.6000000238419","1","1","2","1,0.5,0,1,0.5,0,0.5,0,1",""
"","html-keyboard-response","322","542354","0.0-322.0","31QTRG6Q2UZBZ3HGN8UHWLK3LZZYP6","A37GOI3N77WX21","329E6HTMSWO7MPPIUTRHLR63CI0K3O","","null","<img src=""img/animal6.png"" style=""width:200px; border:14px solid green;"">","null","","","","","",""
"","image-keyboard-response","323","542827","0.0-323.0","31QTRG6Q2UZBZ3HGN8UHWLK3LZZYP6","A37GOI3N77WX21","329E6HTMSWO7MPPIUTRHLR63CI0K3O","","471.90000009536743","img/animal6.png","74","472.89999997615814","1","1","2","1,0.5,0,1,0.5,0,0.5,0,1",""
"","html-keyboard-response","324","543129","0.0-324.0","31QTRG6Q2UZBZ3HGN8UHWLK3LZZYP6","A37GOI3N77WX21","329E6HTMSWO7MPPIUTRHLR63CI0K3O","","null","<img src=""img/animal6.png"" style=""width:200px; border:14px solid green;"">","null","","","","","",""
"","image-keyboard-response","325","543875","0.0-325.0","31QTRG6Q2UZBZ3HGN8UHWLK3LZZYP6","A37GOI3N77WX21","329E6HTMSWO7MPPIUTRHLR63CI0K3O","","745.8999999761581","img/animal4.png","74","746.6000000238419","1","1","1","1,0.5,0,1,0.5,0,0.5,0,1",""
"","html-keyboard-response","326","544178","0.0-326.0","31QTRG6Q2UZBZ3HGN8UHWLK3LZZYP6","A37GOI3N77WX21","329E6HTMSWO7MPPIUTRHLR63CI0K3O","","null","<img src=""img/animal4.png"" style=""width:200px; border:14px solid green;"">","null","","","","","",""
"","image-keyboard-response","327","544803","0.0-327.0","31QTRG6Q2UZBZ3HGN8UHWLK3LZZYP6","A37GOI3N77WX21","329E6HTMSWO7MPPIUTRHLR63CI0K3O","","624.1000000238419","img/animal6.png","74","624.8999999761581","1","1","2","1,0.5,0,1,0.5,0,0.5,0,1",""
"","html-keyboard-response","328","545105","0.0-328.0","31QTRG6Q2UZBZ3HGN8UHWLK3LZZYP6","A37GOI3N77WX21","329E6HTMSWO7MPPIUTRHLR63CI0K3O","","null","<img src=""img/animal6.png"" style=""width:200px; border:14px solid green;"">","null","","","","","",""
"","image-keyboard-response","329","547563","0.0-329.0","31QTRG6Q2UZBZ3HGN8UHWLK3LZZYP6","A37GOI3N77WX21","329E6HTMSWO7MPPIUTRHLR63CI0K3O","","2457.100000023842","img/animal6.png","74","2458","1","1","2","1,0.5,0,1,0.5,0,0.5,0,1",""
"","html-keyboard-response","330","547866","0.0-330.0","31QTRG6Q2UZBZ3HGN8UHWLK3LZZYP6","A37GOI3N77WX21","329E6HTMSWO7MPPIUTRHLR63CI0K3O","","null","<img src=""img/animal6.png"" style=""width:200px; border:14px solid green;"">","null","","","","","",""
"","image-keyboard-response","331","548427","0.0-331.0","31QTRG6Q2UZBZ3HGN8UHWLK3LZZYP6","A37GOI3N77WX21","329E6HTMSWO7MPPIUTRHLR63CI0K3O","","560","img/animal4.png","74","560.8999999761581","1","1","1","1,0.5,0,1,0.5,0,0.5,0,1",""
"","html-keyboard-response","332","548729","0.0-332.0","31QTRG6Q2UZBZ3HGN8UHWLK3LZZYP6","A37GOI3N77WX21","329E6HTMSWO7MPPIUTRHLR63CI0K3O","","null","<img src=""img/animal4.png"" style=""width:200px; border:14px solid green;"">","null","","","","","",""
"","image-keyboard-response","333","549339","0.0-333.0","31QTRG6Q2UZBZ3HGN8UHWLK3LZZYP6","A37GOI3N77WX21","329E6HTMSWO7MPPIUTRHLR63CI0K3O","","608.8999999761581","img/animal2.png","76","609.6999999284744","3","1","3","1,0.5,0,1,0.5,0,0.5,0,1",""
"","html-keyboard-response","334","549642","0.0-334.0","31QTRG6Q2UZBZ3HGN8UHWLK3LZZYP6","A37GOI3N77WX21","329E6HTMSWO7MPPIUTRHLR63CI0K3O","","null","<img src=""img/animal2.png"" style=""width:200px; border:14px solid green;"">","null","","","","","",""
"","image-keyboard-response","335","550027","0.0-335.0","31QTRG6Q2UZBZ3HGN8UHWLK3LZZYP6","A37GOI3N77WX21","329E6HTMSWO7MPPIUTRHLR63CI0K3O","","384.39999997615814","img/animal2.png","76","385.5","3","1","3","1,0.5,0,1,0.5,0,0.5,0,1",""
"","html-keyboard-response","336","550329","0.0-336.0","31QTRG6Q2UZBZ3HGN8UHWLK3LZZYP6","A37GOI3N77WX21","329E6HTMSWO7MPPIUTRHLR63CI0K3O","","null","<img src=""img/animal2.png"" style=""width:200px; border:14px solid green;"">","null","","","","","",""
"","image-keyboard-response","337","552747","0.0-337.0","31QTRG6Q2UZBZ3HGN8UHWLK3LZZYP6","A37GOI3N77WX21","329E6HTMSWO7MPPIUTRHLR63CI0K3O","","2417.1999999284744","img/animal2.png","76","2418.100000023842","3","1","3","1,0.5,0,1,0.5,0,0.5,0,1",""
"","html-keyboard-response","338","553051","0.0-338.0","31QTRG6Q2UZBZ3HGN8UHWLK3LZZYP6","A37GOI3N77WX21","329E6HTMSWO7MPPIUTRHLR63CI0K3O","","null","<img src=""img/animal2.png"" style=""width:200px; border:14px solid green;"">","null","","","","","",""
"","image-keyboard-response","339","553451","0.0-339.0","31QTRG6Q2UZBZ3HGN8UHWLK3LZZYP6","A37GOI3N77WX21","329E6HTMSWO7MPPIUTRHLR63CI0K3O","","393.7999999523163","img/animal2.png","76","396.40000009536743","3","1","3","1,0.5,0,1,0.5,0,0.5,0,1",""
"","html-keyboard-response","340","553753","0.0-340.0","31QTRG6Q2UZBZ3HGN8UHWLK3LZZYP6","A37GOI3N77WX21","329E6HTMSWO7MPPIUTRHLR63CI0K3O","","null","<img src=""img/animal2.png"" style=""width:200px; border:14px solid green;"">","null","","","","","",""
"","image-keyboard-response","341","554204","0.0-341.0","31QTRG6Q2UZBZ3HGN8UHWLK3LZZYP6","A37GOI3N77WX21","329E6HTMSWO7MPPIUTRHLR63CI0K3O","","449.39999997615814","img/animal2.png","76","450.60000002384186","3","1","3","1,0.5,0,1,0.5,0,0.5,0,1",""
"","html-keyboard-response","342","554505","0.0-342.0","31QTRG6Q2UZBZ3HGN8UHWLK3LZZYP6","A37GOI3N77WX21","329E6HTMSWO7MPPIUTRHLR63CI0K3O","","null","<img src=""img/animal2.png"" style=""width:200px; border:14px solid green;"">","null","","","","","",""
"","image-keyboard-response","343","555035","0.0-343.0","31QTRG6Q2UZBZ3HGN8UHWLK3LZZYP6","A37GOI3N77WX21","329E6HTMSWO7MPPIUTRHLR63CI0K3O","","528.8999999761581","img/animal6.png","74","529.7000000476837","1","1","2","1,0.5,0,1,0.5,0,0.5,0,1",""
"","html-keyboard-response","344","555338","0.0-344.0","31QTRG6Q2UZBZ3HGN8UHWLK3LZZYP6","A37GOI3N77WX21","329E6HTMSWO7MPPIUTRHLR63CI0K3O","","null","<img src=""img/animal6.png"" style=""width:200px; border:14px solid green;"">","null","","","","","",""
"","image-keyboard-response","345","555755","0.0-345.0","31QTRG6Q2UZBZ3HGN8UHWLK3LZZYP6","A37GOI3N77WX21","329E6HTMSWO7MPPIUTRHLR63CI0K3O","","416.5","img/animal6.png","74","417.2999999523163","1","1","2","1,0.5,0,1,0.5,0,0.5,0,1",""
"","html-keyboard-response","346","556057","0.0-346.0","31QTRG6Q2UZBZ3HGN8UHWLK3LZZYP6","A37GOI3N77WX21","329E6HTMSWO7MPPIUTRHLR63CI0K3O","","null","<img src=""img/animal6.png"" style=""width:200px; border:14px solid green;"">","null","","","","","",""
"","image-keyboard-response","347","556452","0.0-347.0","31QTRG6Q2UZBZ3HGN8UHWLK3LZZYP6","A37GOI3N77WX21","329E6HTMSWO7MPPIUTRHLR63CI0K3O","","393.8000000715256","img/animal6.png","74","394.60000002384186","1","1","2","1,0.5,0,1,0.5,0,0.5,0,1",""
"","html-keyboard-response","348","556754","0.0-348.0","31QTRG6Q2UZBZ3HGN8UHWLK3LZZYP6","A37GOI3N77WX21","329E6HTMSWO7MPPIUTRHLR63CI0K3O","","null","<img src=""img/animal6.png"" style=""width:200px; border:14px solid green;"">","null","","","","","",""
"","image-keyboard-response","349","557315","0.0-349.0","31QTRG6Q2UZBZ3HGN8UHWLK3LZZYP6","A37GOI3N77WX21","329E6HTMSWO7MPPIUTRHLR63CI0K3O","","560.6999999284744","img/animal2.png","76","561.6000000238419","3","1","3","1,0.5,0,1,0.5,0,0.5,0,1",""
"","html-keyboard-response","350","557617","0.0-350.0","31QTRG6Q2UZBZ3HGN8UHWLK3LZZYP6","A37GOI3N77WX21","329E6HTMSWO7MPPIUTRHLR63CI0K3O","","null","<img src=""img/animal2.png"" style=""width:200px; border:14px solid green;"">","null","","","","","",""
"","image-keyboard-response","351","558299","0.0-351.0","31QTRG6Q2UZBZ3HGN8UHWLK3LZZYP6","A37GOI3N77WX21","329E6HTMSWO7MPPIUTRHLR63CI0K3O","","681.3999999761581","img/animal4.png","74","682.4000000953674","1","1","1","1,0.5,0,1,0.5,0,0.5,0,1",""
"","html-keyboard-response","352","558602","0.0-352.0","31QTRG6Q2UZBZ3HGN8UHWLK3LZZYP6","A37GOI3N77WX21","329E6HTMSWO7MPPIUTRHLR63CI0K3O","","null","<img src=""img/animal4.png"" style=""width:200px; border:14px solid green;"">","null","","","","","",""
"","image-keyboard-response","353","559307","0.0-353.0","31QTRG6Q2UZBZ3HGN8UHWLK3LZZYP6","A37GOI3N77WX21","329E6HTMSWO7MPPIUTRHLR63CI0K3O","","704.1999999284744","img/animal2.png","76","705.1000000238419","3","1","3","1,0.5,0,1,0.5,0,0.5,0,1",""
"","html-keyboard-response","354","559609","0.0-354.0","31QTRG6Q2UZBZ3HGN8UHWLK3LZZYP6","A37GOI3N77WX21","329E6HTMSWO7MPPIUTRHLR63CI0K3O","","null","<img src=""img/animal2.png"" style=""width:200px; border:14px solid green;"">","null","","","","","",""
"","image-keyboard-response","355","560123","0.0-355.0","31QTRG6Q2UZBZ3HGN8UHWLK3LZZYP6","A37GOI3N77WX21","329E6HTMSWO7MPPIUTRHLR63CI0K3O","","513.5999999046326","img/animal4.png","74","514.3999999761581","1","1","1","1,0.5,0,1,0.5,0,0.5,0,1",""
"","html-keyboard-response","356","560425","0.0-356.0","31QTRG6Q2UZBZ3HGN8UHWLK3LZZYP6","A37GOI3N77WX21","329E6HTMSWO7MPPIUTRHLR63CI0K3O","","null","<img src=""img/animal4.png"" style=""width:200px; border:14px solid green;"">","null","","","","","",""
"","image-keyboard-response","357","560867","0.0-357.0","31QTRG6Q2UZBZ3HGN8UHWLK3LZZYP6","A37GOI3N77WX21","329E6HTMSWO7MPPIUTRHLR63CI0K3O","","441.7999999523163","img/animal4.png","74","442.7000000476837","1","1","1","1,0.5,0,1,0.5,0,0.5,0,1",""
"","html-keyboard-response","358","561170","0.0-358.0","31QTRG6Q2UZBZ3HGN8UHWLK3LZZYP6","A37GOI3N77WX21","329E6HTMSWO7MPPIUTRHLR63CI0K3O","","null","<img src=""img/animal4.png"" style=""width:200px; border:14px solid green;"">","null","","","","","",""
"","image-keyboard-response","359","561676","0.0-359.0","31QTRG6Q2UZBZ3HGN8UHWLK3LZZYP6","A37GOI3N77WX21","329E6HTMSWO7MPPIUTRHLR63CI0K3O","","504.89999997615814","img/animal2.png","76","505.89999997615814","3","1","3","1,0.5,0,1,0.5,0,0.5,0,1",""
"","html-keyboard-response","360","561977","0.0-360.0","31QTRG6Q2UZBZ3HGN8UHWLK3LZZYP6","A37GOI3N77WX21","329E6HTMSWO7MPPIUTRHLR63CI0K3O","","null","<img src=""img/animal2.png"" style=""width:200px; border:14px solid green;"">","null","","","","","",""
"","image-keyboard-response","361","562475","0.0-361.0","31QTRG6Q2UZBZ3HGN8UHWLK3LZZYP6","A37GOI3N77WX21","329E6HTMSWO7MPPIUTRHLR63CI0K3O","","496.89999997615814","img/animal2.png","76","497.5","3","1","3","1,0.5,0,1,0.5,0,0.5,0,1",""
"","html-keyboard-response","362","562777","0.0-362.0","31QTRG6Q2UZBZ3HGN8UHWLK3LZZYP6","A37GOI3N77WX21","329E6HTMSWO7MPPIUTRHLR63CI0K3O","","null","<img src=""img/animal2.png"" style=""width:200px; border:14px solid green;"">","null","","","","","",""
"","instructions","363","566126","0.0-363.0","31QTRG6Q2UZBZ3HGN8UHWLK3LZZYP6","A37GOI3N77WX21","329E6HTMSWO7MPPIUTRHLR63CI0K3O","[{""page_index"":0,""viewing_time"":3348}]","3348.5","","","","","","","",""
"","survey-text","364","574071","0.0-364.0","31QTRG6Q2UZBZ3HGN8UHWLK3LZZYP6","A37GOI3N77WX21","329E6HTMSWO7MPPIUTRHLR63CI0K3O","","7941.700000047684","","","","","","","","{""Q0"":""A37GOI3N77WX21""}"
