"success","trial_type","trial_index","time_elapsed","internal_node_id","assignmentID","mturkID","hitID","view_history","rt","stimulus","key_press","reactionTime","chosenAction","reward","responses"
"true","fullscreen","0","2555","0.0-0.0","36V4Q8R5ZLMW5YTH4ILV2VN6FJYQMK","A38DHLB88V8DL8","3SBNLSTU6UR0TCQ1NJ03LFGS7YQZDZ","","","","","","","",""
"","instructions","1","26361","0.0-1.0","36V4Q8R5ZLMW5YTH4ILV2VN6FJYQMK","A38DHLB88V8DL8","3SBNLSTU6UR0TCQ1NJ03LFGS7YQZDZ","[{""page_index"":0,""viewing_time"":7734.099999964237},{""page_index"":1,""viewing_time"":969.8000000119209},{""page_index"":2,""viewing_time"":962.1999999880791},{""page_index"":3,""viewing_time"":5660},{""page_index"":4,""viewing_time"":4037.600000023842},{""page_index"":5,""viewing_time"":1664.5},{""page_index"":6,""viewing_time"":1577.8999999761581},{""page_index"":7,""viewing_time"":1197.800000011921}]","23804.5","","","","","",""
"","image-keyboard-response","2","26983","0.0-2.0","36V4Q8R5ZLMW5YTH4ILV2VN6FJYQMK","A38DHLB88V8DL8","3SBNLSTU6UR0TCQ1NJ03LFGS7YQZDZ","","621.1999999880791","img/animal2.png","74","622.1000000238419","74","0",""
"","html-keyboard-response","3","27297","0.0-3.0","36V4Q8R5ZLMW5YTH4ILV2VN6FJYQMK","A38DHLB88V8DL8","3SBNLSTU6UR0TCQ1NJ03LFGS7YQZDZ","","null","<img src=""img/animal2.png"" style=""width:200px;border:14px solid red;"">","null","","","",""
"","image-keyboard-response","4","28255","0.0-4.0","36V4Q8R5ZLMW5YTH4ILV2VN6FJYQMK","A38DHLB88V8DL8","3SBNLSTU6UR0TCQ1NJ03LFGS7YQZDZ","","957.3999999761581","img/animal5.png","75","958","75","1",""
"","html-keyboard-response","5","28560","0.0-5.0","36V4Q8R5ZLMW5YTH4ILV2VN6FJYQMK","A38DHLB88V8DL8","3SBNLSTU6UR0TCQ1NJ03LFGS7YQZDZ","","null","<img src=""img/animal5.png"" style=""width:200px; border:14px solid green;"">","null","","","",""
"","image-keyboard-response","6","29951","0.0-6.0","36V4Q8R5ZLMW5YTH4ILV2VN6FJYQMK","A38DHLB88V8DL8","3SBNLSTU6UR0TCQ1NJ03LFGS7YQZDZ","","1389.5999999642372","img/animal2.png","76","1390.199999988079","76","0",""
"","html-keyboard-response","7","30258","0.0-7.0","36V4Q8R5ZLMW5YTH4ILV2VN6FJYQMK","A38DHLB88V8DL8","3SBNLSTU6UR0TCQ1NJ03LFGS7YQZDZ","","null","<img src=""img/animal2.png"" style=""width:200px;border:14px solid red;"">","null","","","",""
"","image-keyboard-response","8","30959","0.0-8.0","36V4Q8R5ZLMW5YTH4ILV2VN6FJYQMK","A38DHLB88V8DL8","3SBNLSTU6UR0TCQ1NJ03LFGS7YQZDZ","","700.0999999642372","img/animal2.png","74","700.7000000476837","74","1",""
"","html-keyboard-response","9","31261","0.0-9.0","36V4Q8R5ZLMW5YTH4ILV2VN6FJYQMK","A38DHLB88V8DL8","3SBNLSTU6UR0TCQ1NJ03LFGS7YQZDZ","","null","<img src=""img/animal2.png"" style=""width:200px; border:14px solid green;"">","null","","","",""
"","image-keyboard-response","10","32519","0.0-10.0","36V4Q8R5ZLMW5YTH4ILV2VN6FJYQMK","A38DHLB88V8DL8","3SBNLSTU6UR0TCQ1NJ03LFGS7YQZDZ","","1257.300000011921","img/animal2.png","74","1257.8999999761581","74","1",""
"","html-keyboard-response","11","32822","0.0-11.0","36V4Q8R5ZLMW5YTH4ILV2VN6FJYQMK","A38DHLB88V8DL8","3SBNLSTU6UR0TCQ1NJ03LFGS7YQZDZ","","null","<img src=""img/animal2.png"" style=""width:200px; border:14px solid green;"">","null","","","",""
"","image-keyboard-response","12","33679","0.0-12.0","36V4Q8R5ZLMW5YTH4ILV2VN6FJYQMK","A38DHLB88V8DL8","3SBNLSTU6UR0TCQ1NJ03LFGS7YQZDZ","","856.3999999761581","img/animal4.png","76","856.9000000357628","76","1",""
"","html-keyboard-response","13","33980","0.0-13.0","36V4Q8R5ZLMW5YTH4ILV2VN6FJYQMK","A38DHLB88V8DL8","3SBNLSTU6UR0TCQ1NJ03LFGS7YQZDZ","","null","<img src=""img/animal4.png"" style=""width:200px; border:14px solid green;"">","null","","","",""
"","image-keyboard-response","14","34703","0.0-14.0","36V4Q8R5ZLMW5YTH4ILV2VN6FJYQMK","A38DHLB88V8DL8","3SBNLSTU6UR0TCQ1NJ03LFGS7YQZDZ","","722.4000000357628","img/animal5.png","75","722.8999999761581","75","1",""
"","html-keyboard-response","15","35004","0.0-15.0","36V4Q8R5ZLMW5YTH4ILV2VN6FJYQMK","A38DHLB88V8DL8","3SBNLSTU6UR0TCQ1NJ03LFGS7YQZDZ","","null","<img src=""img/animal5.png"" style=""width:200px; border:14px solid green;"">","null","","","",""
"","image-keyboard-response","16","35687","0.0-16.0","36V4Q8R5ZLMW5YTH4ILV2VN6FJYQMK","A38DHLB88V8DL8","3SBNLSTU6UR0TCQ1NJ03LFGS7YQZDZ","","682.3000000119209","img/animal2.png","74","682.8999999761581","74","1",""
"","html-keyboard-response","17","35988","0.0-17.0","36V4Q8R5ZLMW5YTH4ILV2VN6FJYQMK","A38DHLB88V8DL8","3SBNLSTU6UR0TCQ1NJ03LFGS7YQZDZ","","null","<img src=""img/animal2.png"" style=""width:200px; border:14px solid green;"">","null","","","",""
"","image-keyboard-response","18","36431","0.0-18.0","36V4Q8R5ZLMW5YTH4ILV2VN6FJYQMK","A38DHLB88V8DL8","3SBNLSTU6UR0TCQ1NJ03LFGS7YQZDZ","","442.10000002384186","img/animal2.png","74","442.60000002384186","74","0",""
"","html-keyboard-response","19","36733","0.0-19.0","36V4Q8R5ZLMW5YTH4ILV2VN6FJYQMK","A38DHLB88V8DL8","3SBNLSTU6UR0TCQ1NJ03LFGS7YQZDZ","","null","<img src=""img/animal2.png"" style=""width:200px;border:14px solid red;"">","null","","","",""
"","image-keyboard-response","20","38207","0.0-20.0","36V4Q8R5ZLMW5YTH4ILV2VN6FJYQMK","A38DHLB88V8DL8","3SBNLSTU6UR0TCQ1NJ03LFGS7YQZDZ","","1473.7999999523163","img/animal4.png","75","1474.300000011921","75","0",""
"","html-keyboard-response","21","38508","0.0-21.0","36V4Q8R5ZLMW5YTH4ILV2VN6FJYQMK","A38DHLB88V8DL8","3SBNLSTU6UR0TCQ1NJ03LFGS7YQZDZ","","null","<img src=""img/animal4.png"" style=""width:200px;border:14px solid red;"">","null","","","",""
"","image-keyboard-response","22","39983","0.0-22.0","36V4Q8R5ZLMW5YTH4ILV2VN6FJYQMK","A38DHLB88V8DL8","3SBNLSTU6UR0TCQ1NJ03LFGS7YQZDZ","","1474","img/animal2.png","74","1474.800000011921","74","0",""
"","html-keyboard-response","23","40284","0.0-23.0","36V4Q8R5ZLMW5YTH4ILV2VN6FJYQMK","A38DHLB88V8DL8","3SBNLSTU6UR0TCQ1NJ03LFGS7YQZDZ","","null","<img src=""img/animal2.png"" style=""width:200px;border:14px solid red;"">","null","","","",""
"","image-keyboard-response","24","41023","0.0-24.0","36V4Q8R5ZLMW5YTH4ILV2VN6FJYQMK","A38DHLB88V8DL8","3SBNLSTU6UR0TCQ1NJ03LFGS7YQZDZ","","738.8000000119209","img/animal4.png","76","739.2000000476837","76","1",""
"","html-keyboard-response","25","41324","0.0-25.0","36V4Q8R5ZLMW5YTH4ILV2VN6FJYQMK","A38DHLB88V8DL8","3SBNLSTU6UR0TCQ1NJ03LFGS7YQZDZ","","null","<img src=""img/animal4.png"" style=""width:200px; border:14px solid green;"">","null","","","",""
"","image-keyboard-response","26","41999","0.0-26.0","36V4Q8R5ZLMW5YTH4ILV2VN6FJYQMK","A38DHLB88V8DL8","3SBNLSTU6UR0TCQ1NJ03LFGS7YQZDZ","","674","img/animal5.png","75","674.5","75","1",""
"","html-keyboard-response","27","42301","0.0-27.0","36V4Q8R5ZLMW5YTH4ILV2VN6FJYQMK","A38DHLB88V8DL8","3SBNLSTU6UR0TCQ1NJ03LFGS7YQZDZ","","null","<img src=""img/animal5.png"" style=""width:200px; border:14px solid green;"">","null","","","",""
"","image-keyboard-response","28","42887","0.0-28.0","36V4Q8R5ZLMW5YTH4ILV2VN6FJYQMK","A38DHLB88V8DL8","3SBNLSTU6UR0TCQ1NJ03LFGS7YQZDZ","","585.5999999642372","img/animal2.png","74","586","74","0",""
"","html-keyboard-response","29","43188","0.0-29.0","36V4Q8R5ZLMW5YTH4ILV2VN6FJYQMK","A38DHLB88V8DL8","3SBNLSTU6UR0TCQ1NJ03LFGS7YQZDZ","","null","<img src=""img/animal2.png"" style=""width:200px;border:14px solid red;"">","null","","","",""
"","image-keyboard-response","30","44016","0.0-30.0","36V4Q8R5ZLMW5YTH4ILV2VN6FJYQMK","A38DHLB88V8DL8","3SBNLSTU6UR0TCQ1NJ03LFGS7YQZDZ","","826.6000000238419","img/animal4.png","76","827.0999999642372","76","1",""
"","html-keyboard-response","31","44317","0.0-31.0","36V4Q8R5ZLMW5YTH4ILV2VN6FJYQMK","A38DHLB88V8DL8","3SBNLSTU6UR0TCQ1NJ03LFGS7YQZDZ","","null","<img src=""img/animal4.png"" style=""width:200px; border:14px solid green;"">","null","","","",""
"","image-keyboard-response","32","44799","0.0-32.0","36V4Q8R5ZLMW5YTH4ILV2VN6FJYQMK","A38DHLB88V8DL8","3SBNLSTU6UR0TCQ1NJ03LFGS7YQZDZ","","481.5","img/animal5.png","75","482.19999998807907","75","0",""
"","html-keyboard-response","33","45100","0.0-33.0","36V4Q8R5ZLMW5YTH4ILV2VN6FJYQMK","A38DHLB88V8DL8","3SBNLSTU6UR0TCQ1NJ03LFGS7YQZDZ","","null","<img src=""img/animal5.png"" style=""width:200px;border:14px solid red;"">","null","","","",""
"","image-keyboard-response","34","45679","0.0-34.0","36V4Q8R5ZLMW5YTH4ILV2VN6FJYQMK","A38DHLB88V8DL8","3SBNLSTU6UR0TCQ1NJ03LFGS7YQZDZ","","578","img/animal4.png","74","578.5","74","0",""
"","html-keyboard-response","35","45980","0.0-35.0","36V4Q8R5ZLMW5YTH4ILV2VN6FJYQMK","A38DHLB88V8DL8","3SBNLSTU6UR0TCQ1NJ03LFGS7YQZDZ","","null","<img src=""img/animal4.png"" style=""width:200px;border:14px solid red;"">","null","","","",""
"","image-keyboard-response","36","46848","0.0-36.0","36V4Q8R5ZLMW5YTH4ILV2VN6FJYQMK","A38DHLB88V8DL8","3SBNLSTU6UR0TCQ1NJ03LFGS7YQZDZ","","867.3999999761581","img/animal5.png","74","867.8000000119209","74","0",""
"","html-keyboard-response","37","47149","0.0-37.0","36V4Q8R5ZLMW5YTH4ILV2VN6FJYQMK","A38DHLB88V8DL8","3SBNLSTU6UR0TCQ1NJ03LFGS7YQZDZ","","null","<img src=""img/animal5.png"" style=""width:200px;border:14px solid red;"">","null","","","",""
"","image-keyboard-response","38","48311","0.0-38.0","36V4Q8R5ZLMW5YTH4ILV2VN6FJYQMK","A38DHLB88V8DL8","3SBNLSTU6UR0TCQ1NJ03LFGS7YQZDZ","","1161.199999988079","img/animal5.png","75","1161.800000011921","75","1",""
"","html-keyboard-response","39","48612","0.0-39.0","36V4Q8R5ZLMW5YTH4ILV2VN6FJYQMK","A38DHLB88V8DL8","3SBNLSTU6UR0TCQ1NJ03LFGS7YQZDZ","","null","<img src=""img/animal5.png"" style=""width:200px; border:14px solid green;"">","null","","","",""
"","image-keyboard-response","40","49423","0.0-40.0","36V4Q8R5ZLMW5YTH4ILV2VN6FJYQMK","A38DHLB88V8DL8","3SBNLSTU6UR0TCQ1NJ03LFGS7YQZDZ","","809.6000000238419","img/animal4.png","76","810.0999999642372","76","0",""
"","html-keyboard-response","41","49724","0.0-41.0","36V4Q8R5ZLMW5YTH4ILV2VN6FJYQMK","A38DHLB88V8DL8","3SBNLSTU6UR0TCQ1NJ03LFGS7YQZDZ","","null","<img src=""img/animal4.png"" style=""width:200px;border:14px solid red;"">","null","","","",""
"","image-keyboard-response","42","50319","0.0-42.0","36V4Q8R5ZLMW5YTH4ILV2VN6FJYQMK","A38DHLB88V8DL8","3SBNLSTU6UR0TCQ1NJ03LFGS7YQZDZ","","593.6000000238419","img/animal2.png","74","594","74","1",""
"","html-keyboard-response","43","50619","0.0-43.0","36V4Q8R5ZLMW5YTH4ILV2VN6FJYQMK","A38DHLB88V8DL8","3SBNLSTU6UR0TCQ1NJ03LFGS7YQZDZ","","null","<img src=""img/animal2.png"" style=""width:200px; border:14px solid green;"">","null","","","",""
"","image-keyboard-response","44","51223","0.0-44.0","36V4Q8R5ZLMW5YTH4ILV2VN6FJYQMK","A38DHLB88V8DL8","3SBNLSTU6UR0TCQ1NJ03LFGS7YQZDZ","","602.8999999761581","img/animal4.png","76","603.1999999880791","76","1",""
"","html-keyboard-response","45","51524","0.0-45.0","36V4Q8R5ZLMW5YTH4ILV2VN6FJYQMK","A38DHLB88V8DL8","3SBNLSTU6UR0TCQ1NJ03LFGS7YQZDZ","","null","<img src=""img/animal4.png"" style=""width:200px; border:14px solid green;"">","null","","","",""
"","image-keyboard-response","46","52079","0.0-46.0","36V4Q8R5ZLMW5YTH4ILV2VN6FJYQMK","A38DHLB88V8DL8","3SBNLSTU6UR0TCQ1NJ03LFGS7YQZDZ","","554.4000000357628","img/animal4.png","76","554.8999999761581","76","1",""
"","html-keyboard-response","47","52380","0.0-47.0","36V4Q8R5ZLMW5YTH4ILV2VN6FJYQMK","A38DHLB88V8DL8","3SBNLSTU6UR0TCQ1NJ03LFGS7YQZDZ","","null","<img src=""img/animal4.png"" style=""width:200px; border:14px solid green;"">","null","","","",""
"","image-keyboard-response","48","53047","0.0-48.0","36V4Q8R5ZLMW5YTH4ILV2VN6FJYQMK","A38DHLB88V8DL8","3SBNLSTU6UR0TCQ1NJ03LFGS7YQZDZ","","666.0999999642372","img/animal5.png","75","666.8000000119209","75","1",""
"","html-keyboard-response","49","53348","0.0-49.0","36V4Q8R5ZLMW5YTH4ILV2VN6FJYQMK","A38DHLB88V8DL8","3SBNLSTU6UR0TCQ1NJ03LFGS7YQZDZ","","null","<img src=""img/animal5.png"" style=""width:200px; border:14px solid green;"">","null","","","",""
"","image-keyboard-response","50","54070","0.0-50.0","36V4Q8R5ZLMW5YTH4ILV2VN6FJYQMK","A38DHLB88V8DL8","3SBNLSTU6UR0TCQ1NJ03LFGS7YQZDZ","","721.5","img/animal4.png","76","721.8999999761581","76","1",""
"","html-keyboard-response","51","54372","0.0-51.0","36V4Q8R5ZLMW5YTH4ILV2VN6FJYQMK","A38DHLB88V8DL8","3SBNLSTU6UR0TCQ1NJ03LFGS7YQZDZ","","null","<img src=""img/animal4.png"" style=""width:200px; border:14px solid green;"">","null","","","",""
"","image-keyboard-response","52","54871","0.0-52.0","36V4Q8R5ZLMW5YTH4ILV2VN6FJYQMK","A38DHLB88V8DL8","3SBNLSTU6UR0TCQ1NJ03LFGS7YQZDZ","","498.7999999523163","img/animal2.png","74","499.2000000476837","74","0",""
"","html-keyboard-response","53","55172","0.0-53.0","36V4Q8R5ZLMW5YTH4ILV2VN6FJYQMK","A38DHLB88V8DL8","3SBNLSTU6UR0TCQ1NJ03LFGS7YQZDZ","","null","<img src=""img/animal2.png"" style=""width:200px;border:14px solid red;"">","null","","","",""
"","image-keyboard-response","54","55344","0.0-54.0","36V4Q8R5ZLMW5YTH4ILV2VN6FJYQMK","A38DHLB88V8DL8","3SBNLSTU6UR0TCQ1NJ03LFGS7YQZDZ","","170.5999999642372","img/animal2.png","74","171.20000004768372","74","1",""
"","html-keyboard-response","55","55645","0.0-55.0","36V4Q8R5ZLMW5YTH4ILV2VN6FJYQMK","A38DHLB88V8DL8","3SBNLSTU6UR0TCQ1NJ03LFGS7YQZDZ","","null","<img src=""img/animal2.png"" style=""width:200px; border:14px solid green;"">","null","","","",""
"","image-keyboard-response","56","57271","0.0-56.0","36V4Q8R5ZLMW5YTH4ILV2VN6FJYQMK","A38DHLB88V8DL8","3SBNLSTU6UR0TCQ1NJ03LFGS7YQZDZ","","1624.5","img/animal5.png","75","1625.300000011921","75","1",""
"","html-keyboard-response","57","57576","0.0-57.0","36V4Q8R5ZLMW5YTH4ILV2VN6FJYQMK","A38DHLB88V8DL8","3SBNLSTU6UR0TCQ1NJ03LFGS7YQZDZ","","null","<img src=""img/animal5.png"" style=""width:200px; border:14px solid green;"">","null","","","",""
"","image-keyboard-response","58","58159","0.0-58.0","36V4Q8R5ZLMW5YTH4ILV2VN6FJYQMK","A38DHLB88V8DL8","3SBNLSTU6UR0TCQ1NJ03LFGS7YQZDZ","","582.3999999761581","img/animal2.png","74","582.6999999880791","74","1",""
"","html-keyboard-response","59","58464","0.0-59.0","36V4Q8R5ZLMW5YTH4ILV2VN6FJYQMK","A38DHLB88V8DL8","3SBNLSTU6UR0TCQ1NJ03LFGS7YQZDZ","","null","<img src=""img/animal2.png"" style=""width:200px; border:14px solid green;"">","null","","","",""
"","image-keyboard-response","60","58975","0.0-60.0","36V4Q8R5ZLMW5YTH4ILV2VN6FJYQMK","A38DHLB88V8DL8","3SBNLSTU6UR0TCQ1NJ03LFGS7YQZDZ","","509.89999997615814","img/animal5.png","75","510.5","75","1",""
"","html-keyboard-response","61","59276","0.0-61.0","36V4Q8R5ZLMW5YTH4ILV2VN6FJYQMK","A38DHLB88V8DL8","3SBNLSTU6UR0TCQ1NJ03LFGS7YQZDZ","","null","<img src=""img/animal5.png"" style=""width:200px; border:14px solid green;"">","null","","","",""
"","image-keyboard-response","62","60247","0.0-62.0","36V4Q8R5ZLMW5YTH4ILV2VN6FJYQMK","A38DHLB88V8DL8","3SBNLSTU6UR0TCQ1NJ03LFGS7YQZDZ","","970.2000000476837","img/animal4.png","76","970.6999999880791","76","0",""
"","html-keyboard-response","63","60547","0.0-63.0","36V4Q8R5ZLMW5YTH4ILV2VN6FJYQMK","A38DHLB88V8DL8","3SBNLSTU6UR0TCQ1NJ03LFGS7YQZDZ","","null","<img src=""img/animal4.png"" style=""width:200px;border:14px solid red;"">","null","","","",""
"","image-keyboard-response","64","61383","0.0-64.0","36V4Q8R5ZLMW5YTH4ILV2VN6FJYQMK","A38DHLB88V8DL8","3SBNLSTU6UR0TCQ1NJ03LFGS7YQZDZ","","834.8999999761581","img/animal5.png","75","835.5","75","1",""
"","html-keyboard-response","65","61685","0.0-65.0","36V4Q8R5ZLMW5YTH4ILV2VN6FJYQMK","A38DHLB88V8DL8","3SBNLSTU6UR0TCQ1NJ03LFGS7YQZDZ","","null","<img src=""img/animal5.png"" style=""width:200px; border:14px solid green;"">","null","","","",""
"","image-keyboard-response","66","62303","0.0-66.0","36V4Q8R5ZLMW5YTH4ILV2VN6FJYQMK","A38DHLB88V8DL8","3SBNLSTU6UR0TCQ1NJ03LFGS7YQZDZ","","617.3000000119209","img/animal2.png","74","617.9000000357628","74","1",""
"","html-keyboard-response","67","62605","0.0-67.0","36V4Q8R5ZLMW5YTH4ILV2VN6FJYQMK","A38DHLB88V8DL8","3SBNLSTU6UR0TCQ1NJ03LFGS7YQZDZ","","null","<img src=""img/animal2.png"" style=""width:200px; border:14px solid green;"">","null","","","",""
"","image-keyboard-response","68","63279","0.0-68.0","36V4Q8R5ZLMW5YTH4ILV2VN6FJYQMK","A38DHLB88V8DL8","3SBNLSTU6UR0TCQ1NJ03LFGS7YQZDZ","","673.8999999761581","img/animal5.png","75","674.3999999761581","75","1",""
"","html-keyboard-response","69","63580","0.0-69.0","36V4Q8R5ZLMW5YTH4ILV2VN6FJYQMK","A38DHLB88V8DL8","3SBNLSTU6UR0TCQ1NJ03LFGS7YQZDZ","","null","<img src=""img/animal5.png"" style=""width:200px; border:14px solid green;"">","null","","","",""
"","image-keyboard-response","70","64238","0.0-70.0","36V4Q8R5ZLMW5YTH4ILV2VN6FJYQMK","A38DHLB88V8DL8","3SBNLSTU6UR0TCQ1NJ03LFGS7YQZDZ","","657.8999999761581","img/animal2.png","74","658.4000000357628","74","1",""
"","html-keyboard-response","71","64540","0.0-71.0","36V4Q8R5ZLMW5YTH4ILV2VN6FJYQMK","A38DHLB88V8DL8","3SBNLSTU6UR0TCQ1NJ03LFGS7YQZDZ","","null","<img src=""img/animal2.png"" style=""width:200px; border:14px solid green;"">","null","","","",""
"","image-keyboard-response","72","65094","0.0-72.0","36V4Q8R5ZLMW5YTH4ILV2VN6FJYQMK","A38DHLB88V8DL8","3SBNLSTU6UR0TCQ1NJ03LFGS7YQZDZ","","553.6000000238419","img/animal2.png","74","554.0999999642372","74","1",""
"","html-keyboard-response","73","65396","0.0-73.0","36V4Q8R5ZLMW5YTH4ILV2VN6FJYQMK","A38DHLB88V8DL8","3SBNLSTU6UR0TCQ1NJ03LFGS7YQZDZ","","null","<img src=""img/animal2.png"" style=""width:200px; border:14px solid green;"">","null","","","",""
"","image-keyboard-response","74","65958","0.0-74.0","36V4Q8R5ZLMW5YTH4ILV2VN6FJYQMK","A38DHLB88V8DL8","3SBNLSTU6UR0TCQ1NJ03LFGS7YQZDZ","","562.0999999642372","img/animal5.png","75","562.3999999761581","75","1",""
"","html-keyboard-response","75","66260","0.0-75.0","36V4Q8R5ZLMW5YTH4ILV2VN6FJYQMK","A38DHLB88V8DL8","3SBNLSTU6UR0TCQ1NJ03LFGS7YQZDZ","","null","<img src=""img/animal5.png"" style=""width:200px; border:14px solid green;"">","null","","","",""
"","image-keyboard-response","76","67055","0.0-76.0","36V4Q8R5ZLMW5YTH4ILV2VN6FJYQMK","A38DHLB88V8DL8","3SBNLSTU6UR0TCQ1NJ03LFGS7YQZDZ","","794.6999999880791","img/animal4.png","76","795.1999999880791","76","1",""
"","html-keyboard-response","77","67357","0.0-77.0","36V4Q8R5ZLMW5YTH4ILV2VN6FJYQMK","A38DHLB88V8DL8","3SBNLSTU6UR0TCQ1NJ03LFGS7YQZDZ","","null","<img src=""img/animal4.png"" style=""width:200px; border:14px solid green;"">","null","","","",""
"","image-keyboard-response","78","67830","0.0-78.0","36V4Q8R5ZLMW5YTH4ILV2VN6FJYQMK","A38DHLB88V8DL8","3SBNLSTU6UR0TCQ1NJ03LFGS7YQZDZ","","472.9000000357628","img/animal5.png","75","473.4000000357628","75","0",""
"","html-keyboard-response","79","68132","0.0-79.0","36V4Q8R5ZLMW5YTH4ILV2VN6FJYQMK","A38DHLB88V8DL8","3SBNLSTU6UR0TCQ1NJ03LFGS7YQZDZ","","null","<img src=""img/animal5.png"" style=""width:200px;border:14px solid red;"">","null","","","",""
"","image-keyboard-response","80","68495","0.0-80.0","36V4Q8R5ZLMW5YTH4ILV2VN6FJYQMK","A38DHLB88V8DL8","3SBNLSTU6UR0TCQ1NJ03LFGS7YQZDZ","","362.19999998807907","img/animal5.png","75","362.60000002384186","75","1",""
"","html-keyboard-response","81","68797","0.0-81.0","36V4Q8R5ZLMW5YTH4ILV2VN6FJYQMK","A38DHLB88V8DL8","3SBNLSTU6UR0TCQ1NJ03LFGS7YQZDZ","","null","<img src=""img/animal5.png"" style=""width:200px; border:14px solid green;"">","null","","","",""
"","image-keyboard-response","82","69495","0.0-82.0","36V4Q8R5ZLMW5YTH4ILV2VN6FJYQMK","A38DHLB88V8DL8","3SBNLSTU6UR0TCQ1NJ03LFGS7YQZDZ","","697.3000000119209","img/animal2.png","74","697.8000000119209","74","0",""
"","html-keyboard-response","83","69797","0.0-83.0","36V4Q8R5ZLMW5YTH4ILV2VN6FJYQMK","A38DHLB88V8DL8","3SBNLSTU6UR0TCQ1NJ03LFGS7YQZDZ","","null","<img src=""img/animal2.png"" style=""width:200px;border:14px solid red;"">","null","","","",""
"","image-keyboard-response","84","69966","0.0-84.0","36V4Q8R5ZLMW5YTH4ILV2VN6FJYQMK","A38DHLB88V8DL8","3SBNLSTU6UR0TCQ1NJ03LFGS7YQZDZ","","168.60000002384186","img/animal2.png","74","169.19999998807907","74","1",""
"","html-keyboard-response","85","70267","0.0-85.0","36V4Q8R5ZLMW5YTH4ILV2VN6FJYQMK","A38DHLB88V8DL8","3SBNLSTU6UR0TCQ1NJ03LFGS7YQZDZ","","null","<img src=""img/animal2.png"" style=""width:200px; border:14px solid green;"">","null","","","",""
"","image-keyboard-response","86","70759","0.0-86.0","36V4Q8R5ZLMW5YTH4ILV2VN6FJYQMK","A38DHLB88V8DL8","3SBNLSTU6UR0TCQ1NJ03LFGS7YQZDZ","","490.80000001192093","img/animal2.png","74","491.2000000476837","74","0",""
"","html-keyboard-response","87","71060","0.0-87.0","36V4Q8R5ZLMW5YTH4ILV2VN6FJYQMK","A38DHLB88V8DL8","3SBNLSTU6UR0TCQ1NJ03LFGS7YQZDZ","","null","<img src=""img/animal2.png"" style=""width:200px;border:14px solid red;"">","null","","","",""
"","image-keyboard-response","88","71695","0.0-88.0","36V4Q8R5ZLMW5YTH4ILV2VN6FJYQMK","A38DHLB88V8DL8","3SBNLSTU6UR0TCQ1NJ03LFGS7YQZDZ","","634.6000000238419","img/animal4.png","76","635.0999999642372","76","1",""
"","html-keyboard-response","89","71997","0.0-89.0","36V4Q8R5ZLMW5YTH4ILV2VN6FJYQMK","A38DHLB88V8DL8","3SBNLSTU6UR0TCQ1NJ03LFGS7YQZDZ","","null","<img src=""img/animal4.png"" style=""width:200px; border:14px solid green;"">","null","","","",""
"","image-keyboard-response","90","72375","0.0-90.0","36V4Q8R5ZLMW5YTH4ILV2VN6FJYQMK","A38DHLB88V8DL8","3SBNLSTU6UR0TCQ1NJ03LFGS7YQZDZ","","377.19999998807907","img/animal4.png","76","377.69999998807907","76","1",""
"","html-keyboard-response","91","72676","0.0-91.0","36V4Q8R5ZLMW5YTH4ILV2VN6FJYQMK","A38DHLB88V8DL8","3SBNLSTU6UR0TCQ1NJ03LFGS7YQZDZ","","null","<img src=""img/animal4.png"" style=""width:200px; border:14px solid green;"">","null","","","",""
"","image-keyboard-response","92","73159","0.0-92.0","36V4Q8R5ZLMW5YTH4ILV2VN6FJYQMK","A38DHLB88V8DL8","3SBNLSTU6UR0TCQ1NJ03LFGS7YQZDZ","","481.7999999523163","img/animal2.png","74","482.30000001192093","74","1",""
"","html-keyboard-response","93","73472","0.0-93.0","36V4Q8R5ZLMW5YTH4ILV2VN6FJYQMK","A38DHLB88V8DL8","3SBNLSTU6UR0TCQ1NJ03LFGS7YQZDZ","","null","<img src=""img/animal2.png"" style=""width:200px; border:14px solid green;"">","null","","","",""
"","image-keyboard-response","94","74191","0.0-94.0","36V4Q8R5ZLMW5YTH4ILV2VN6FJYQMK","A38DHLB88V8DL8","3SBNLSTU6UR0TCQ1NJ03LFGS7YQZDZ","","717.9000000357628","img/animal4.png","76","718.2999999523163","76","0",""
"","html-keyboard-response","95","74493","0.0-95.0","36V4Q8R5ZLMW5YTH4ILV2VN6FJYQMK","A38DHLB88V8DL8","3SBNLSTU6UR0TCQ1NJ03LFGS7YQZDZ","","null","<img src=""img/animal4.png"" style=""width:200px;border:14px solid red;"">","null","","","",""
"","image-keyboard-response","96","74679","0.0-96.0","36V4Q8R5ZLMW5YTH4ILV2VN6FJYQMK","A38DHLB88V8DL8","3SBNLSTU6UR0TCQ1NJ03LFGS7YQZDZ","","185.5","img/animal2.png","76","185.89999997615814","76","0",""
"","html-keyboard-response","97","74981","0.0-97.0","36V4Q8R5ZLMW5YTH4ILV2VN6FJYQMK","A38DHLB88V8DL8","3SBNLSTU6UR0TCQ1NJ03LFGS7YQZDZ","","null","<img src=""img/animal2.png"" style=""width:200px;border:14px solid red;"">","null","","","",""
"","image-keyboard-response","98","76031","0.0-98.0","36V4Q8R5ZLMW5YTH4ILV2VN6FJYQMK","A38DHLB88V8DL8","3SBNLSTU6UR0TCQ1NJ03LFGS7YQZDZ","","1049.199999988079","img/animal5.png","75","1049.6000000238419","75","1",""
"","html-keyboard-response","99","76344","0.0-99.0","36V4Q8R5ZLMW5YTH4ILV2VN6FJYQMK","A38DHLB88V8DL8","3SBNLSTU6UR0TCQ1NJ03LFGS7YQZDZ","","null","<img src=""img/animal5.png"" style=""width:200px; border:14px solid green;"">","null","","","",""
"","image-keyboard-response","100","77071","0.0-100.0","36V4Q8R5ZLMW5YTH4ILV2VN6FJYQMK","A38DHLB88V8DL8","3SBNLSTU6UR0TCQ1NJ03LFGS7YQZDZ","","726.2999999523163","img/animal4.png","76","726.7000000476837","76","0",""
"","html-keyboard-response","101","77373","0.0-101.0","36V4Q8R5ZLMW5YTH4ILV2VN6FJYQMK","A38DHLB88V8DL8","3SBNLSTU6UR0TCQ1NJ03LFGS7YQZDZ","","null","<img src=""img/animal4.png"" style=""width:200px;border:14px solid red;"">","null","","","",""
"","image-keyboard-response","102","77839","0.0-102.0","36V4Q8R5ZLMW5YTH4ILV2VN6FJYQMK","A38DHLB88V8DL8","3SBNLSTU6UR0TCQ1NJ03LFGS7YQZDZ","","465.30000001192093","img/animal2.png","74","465.69999998807907","74","1",""
"","html-keyboard-response","103","78140","0.0-103.0","36V4Q8R5ZLMW5YTH4ILV2VN6FJYQMK","A38DHLB88V8DL8","3SBNLSTU6UR0TCQ1NJ03LFGS7YQZDZ","","null","<img src=""img/animal2.png"" style=""width:200px; border:14px solid green;"">","null","","","",""
"","image-keyboard-response","104","78535","0.0-104.0","36V4Q8R5ZLMW5YTH4ILV2VN6FJYQMK","A38DHLB88V8DL8","3SBNLSTU6UR0TCQ1NJ03LFGS7YQZDZ","","394.5","img/animal2.png","74","394.89999997615814","74","0",""
"","html-keyboard-response","105","78836","0.0-105.0","36V4Q8R5ZLMW5YTH4ILV2VN6FJYQMK","A38DHLB88V8DL8","3SBNLSTU6UR0TCQ1NJ03LFGS7YQZDZ","","null","<img src=""img/animal2.png"" style=""width:200px;border:14px solid red;"">","null","","","",""
"","image-keyboard-response","106","79399","0.0-106.0","36V4Q8R5ZLMW5YTH4ILV2VN6FJYQMK","A38DHLB88V8DL8","3SBNLSTU6UR0TCQ1NJ03LFGS7YQZDZ","","562.1000000238419","img/animal5.png","75","562.6999999880791","75","1",""
"","html-keyboard-response","107","79701","0.0-107.0","36V4Q8R5ZLMW5YTH4ILV2VN6FJYQMK","A38DHLB88V8DL8","3SBNLSTU6UR0TCQ1NJ03LFGS7YQZDZ","","null","<img src=""img/animal5.png"" style=""width:200px; border:14px solid green;"">","null","","","",""
"","image-keyboard-response","108","80303","0.0-108.0","36V4Q8R5ZLMW5YTH4ILV2VN6FJYQMK","A38DHLB88V8DL8","3SBNLSTU6UR0TCQ1NJ03LFGS7YQZDZ","","601.5","img/animal4.png","76","602","76","1",""
"","html-keyboard-response","109","80604","0.0-109.0","36V4Q8R5ZLMW5YTH4ILV2VN6FJYQMK","A38DHLB88V8DL8","3SBNLSTU6UR0TCQ1NJ03LFGS7YQZDZ","","null","<img src=""img/animal4.png"" style=""width:200px; border:14px solid green;"">","null","","","",""
"","image-keyboard-response","110","81359","0.0-110.0","36V4Q8R5ZLMW5YTH4ILV2VN6FJYQMK","A38DHLB88V8DL8","3SBNLSTU6UR0TCQ1NJ03LFGS7YQZDZ","","754.2999999523163","img/animal5.png","75","754.6999999880791","75","1",""
"","html-keyboard-response","111","81661","0.0-111.0","36V4Q8R5ZLMW5YTH4ILV2VN6FJYQMK","A38DHLB88V8DL8","3SBNLSTU6UR0TCQ1NJ03LFGS7YQZDZ","","null","<img src=""img/animal5.png"" style=""width:200px; border:14px solid green;"">","null","","","",""
"","image-keyboard-response","112","82063","0.0-112.0","36V4Q8R5ZLMW5YTH4ILV2VN6FJYQMK","A38DHLB88V8DL8","3SBNLSTU6UR0TCQ1NJ03LFGS7YQZDZ","","401.30000001192093","img/animal5.png","75","401.69999998807907","75","1",""
"","html-keyboard-response","113","82368","0.0-113.0","36V4Q8R5ZLMW5YTH4ILV2VN6FJYQMK","A38DHLB88V8DL8","3SBNLSTU6UR0TCQ1NJ03LFGS7YQZDZ","","null","<img src=""img/animal5.png"" style=""width:200px; border:14px solid green;"">","null","","","",""
"","image-keyboard-response","114","82735","0.0-114.0","36V4Q8R5ZLMW5YTH4ILV2VN6FJYQMK","A38DHLB88V8DL8","3SBNLSTU6UR0TCQ1NJ03LFGS7YQZDZ","","366.69999998807907","img/animal5.png","75","367.39999997615814","75","1",""
"","html-keyboard-response","115","83036","0.0-115.0","36V4Q8R5ZLMW5YTH4ILV2VN6FJYQMK","A38DHLB88V8DL8","3SBNLSTU6UR0TCQ1NJ03LFGS7YQZDZ","","null","<img src=""img/animal5.png"" style=""width:200px; border:14px solid green;"">","null","","","",""
"","image-keyboard-response","116","83694","0.0-116.0","36V4Q8R5ZLMW5YTH4ILV2VN6FJYQMK","A38DHLB88V8DL8","3SBNLSTU6UR0TCQ1NJ03LFGS7YQZDZ","","657.6000000238419","img/animal4.png","76","658.1000000238419","76","1",""
"","html-keyboard-response","117","83996","0.0-117.0","36V4Q8R5ZLMW5YTH4ILV2VN6FJYQMK","A38DHLB88V8DL8","3SBNLSTU6UR0TCQ1NJ03LFGS7YQZDZ","","null","<img src=""img/animal4.png"" style=""width:200px; border:14px solid green;"">","null","","","",""
"","image-keyboard-response","118","84767","0.0-118.0","36V4Q8R5ZLMW5YTH4ILV2VN6FJYQMK","A38DHLB88V8DL8","3SBNLSTU6UR0TCQ1NJ03LFGS7YQZDZ","","770.3000000119209","img/animal5.png","75","770.8000000119209","75","0",""
"","html-keyboard-response","119","85068","0.0-119.0","36V4Q8R5ZLMW5YTH4ILV2VN6FJYQMK","A38DHLB88V8DL8","3SBNLSTU6UR0TCQ1NJ03LFGS7YQZDZ","","null","<img src=""img/animal5.png"" style=""width:200px;border:14px solid red;"">","null","","","",""
"","image-keyboard-response","120","85879","0.0-120.0","36V4Q8R5ZLMW5YTH4ILV2VN6FJYQMK","A38DHLB88V8DL8","3SBNLSTU6UR0TCQ1NJ03LFGS7YQZDZ","","810.5","img/animal4.png","76","810.8999999761581","76","0",""
"","html-keyboard-response","121","86180","0.0-121.0","36V4Q8R5ZLMW5YTH4ILV2VN6FJYQMK","A38DHLB88V8DL8","3SBNLSTU6UR0TCQ1NJ03LFGS7YQZDZ","","null","<img src=""img/animal4.png"" style=""width:200px;border:14px solid red;"">","null","","","",""
"","image-keyboard-response","122","86695","0.0-122.0","36V4Q8R5ZLMW5YTH4ILV2VN6FJYQMK","A38DHLB88V8DL8","3SBNLSTU6UR0TCQ1NJ03LFGS7YQZDZ","","514.1999999880791","img/animal2.png","74","514.7000000476837","74","1",""
"","html-keyboard-response","123","86996","0.0-123.0","36V4Q8R5ZLMW5YTH4ILV2VN6FJYQMK","A38DHLB88V8DL8","3SBNLSTU6UR0TCQ1NJ03LFGS7YQZDZ","","null","<img src=""img/animal2.png"" style=""width:200px; border:14px solid green;"">","null","","","",""
"","image-keyboard-response","124","87663","0.0-124.0","36V4Q8R5ZLMW5YTH4ILV2VN6FJYQMK","A38DHLB88V8DL8","3SBNLSTU6UR0TCQ1NJ03LFGS7YQZDZ","","665.8000000119209","img/animal5.png","75","666.5","75","0",""
"","html-keyboard-response","125","87964","0.0-125.0","36V4Q8R5ZLMW5YTH4ILV2VN6FJYQMK","A38DHLB88V8DL8","3SBNLSTU6UR0TCQ1NJ03LFGS7YQZDZ","","null","<img src=""img/animal5.png"" style=""width:200px;border:14px solid red;"">","null","","","",""
"","image-keyboard-response","126","88367","0.0-126.0","36V4Q8R5ZLMW5YTH4ILV2VN6FJYQMK","A38DHLB88V8DL8","3SBNLSTU6UR0TCQ1NJ03LFGS7YQZDZ","","402.19999998807907","img/animal5.png","75","402.60000002384186","75","1",""
"","html-keyboard-response","127","88668","0.0-127.0","36V4Q8R5ZLMW5YTH4ILV2VN6FJYQMK","A38DHLB88V8DL8","3SBNLSTU6UR0TCQ1NJ03LFGS7YQZDZ","","null","<img src=""img/animal5.png"" style=""width:200px; border:14px solid green;"">","null","","","",""
"","image-keyboard-response","128","89263","0.0-128.0","36V4Q8R5ZLMW5YTH4ILV2VN6FJYQMK","A38DHLB88V8DL8","3SBNLSTU6UR0TCQ1NJ03LFGS7YQZDZ","","594.6000000238419","img/animal5.png","75","595.0999999642372","75","1",""
"","html-keyboard-response","129","89564","0.0-129.0","36V4Q8R5ZLMW5YTH4ILV2VN6FJYQMK","A38DHLB88V8DL8","3SBNLSTU6UR0TCQ1NJ03LFGS7YQZDZ","","null","<img src=""img/animal5.png"" style=""width:200px; border:14px solid green;"">","null","","","",""
"","image-keyboard-response","130","90007","0.0-130.0","36V4Q8R5ZLMW5YTH4ILV2VN6FJYQMK","A38DHLB88V8DL8","3SBNLSTU6UR0TCQ1NJ03LFGS7YQZDZ","","442","img/animal5.png","75","442.5999999642372","75","1",""
"","html-keyboard-response","131","90308","0.0-131.0","36V4Q8R5ZLMW5YTH4ILV2VN6FJYQMK","A38DHLB88V8DL8","3SBNLSTU6UR0TCQ1NJ03LFGS7YQZDZ","","null","<img src=""img/animal5.png"" style=""width:200px; border:14px solid green;"">","null","","","",""
"","image-keyboard-response","132","90870","0.0-132.0","36V4Q8R5ZLMW5YTH4ILV2VN6FJYQMK","A38DHLB88V8DL8","3SBNLSTU6UR0TCQ1NJ03LFGS7YQZDZ","","562.1999999880791","img/animal2.png","74","562.6000000238419","74","0",""
"","html-keyboard-response","133","91172","0.0-133.0","36V4Q8R5ZLMW5YTH4ILV2VN6FJYQMK","A38DHLB88V8DL8","3SBNLSTU6UR0TCQ1NJ03LFGS7YQZDZ","","null","<img src=""img/animal2.png"" style=""width:200px;border:14px solid red;"">","null","","","",""
"","image-keyboard-response","134","91926","0.0-134.0","36V4Q8R5ZLMW5YTH4ILV2VN6FJYQMK","A38DHLB88V8DL8","3SBNLSTU6UR0TCQ1NJ03LFGS7YQZDZ","","753.5999999642372","img/animal4.png","76","754.0999999642372","76","0",""
"","html-keyboard-response","135","92227","0.0-135.0","36V4Q8R5ZLMW5YTH4ILV2VN6FJYQMK","A38DHLB88V8DL8","3SBNLSTU6UR0TCQ1NJ03LFGS7YQZDZ","","null","<img src=""img/animal4.png"" style=""width:200px;border:14px solid red;"">","null","","","",""
"","image-keyboard-response","136","92727","0.0-136.0","36V4Q8R5ZLMW5YTH4ILV2VN6FJYQMK","A38DHLB88V8DL8","3SBNLSTU6UR0TCQ1NJ03LFGS7YQZDZ","","499.30000001192093","img/animal4.png","76","499.80000001192093","76","1",""
"","html-keyboard-response","137","93028","0.0-137.0","36V4Q8R5ZLMW5YTH4ILV2VN6FJYQMK","A38DHLB88V8DL8","3SBNLSTU6UR0TCQ1NJ03LFGS7YQZDZ","","null","<img src=""img/animal4.png"" style=""width:200px; border:14px solid green;"">","null","","","",""
"","image-keyboard-response","138","93439","0.0-138.0","36V4Q8R5ZLMW5YTH4ILV2VN6FJYQMK","A38DHLB88V8DL8","3SBNLSTU6UR0TCQ1NJ03LFGS7YQZDZ","","410.10000002384186","img/animal4.png","76","410.60000002384186","76","1",""
"","html-keyboard-response","139","93740","0.0-139.0","36V4Q8R5ZLMW5YTH4ILV2VN6FJYQMK","A38DHLB88V8DL8","3SBNLSTU6UR0TCQ1NJ03LFGS7YQZDZ","","null","<img src=""img/animal4.png"" style=""width:200px; border:14px solid green;"">","null","","","",""
"","image-keyboard-response","140","94431","0.0-140.0","36V4Q8R5ZLMW5YTH4ILV2VN6FJYQMK","A38DHLB88V8DL8","3SBNLSTU6UR0TCQ1NJ03LFGS7YQZDZ","","690.2999999523163","img/animal5.png","75","690.8999999761581","75","1",""
"","html-keyboard-response","141","94732","0.0-141.0","36V4Q8R5ZLMW5YTH4ILV2VN6FJYQMK","A38DHLB88V8DL8","3SBNLSTU6UR0TCQ1NJ03LFGS7YQZDZ","","null","<img src=""img/animal5.png"" style=""width:200px; border:14px solid green;"">","null","","","",""
"","image-keyboard-response","142","95463","0.0-142.0","36V4Q8R5ZLMW5YTH4ILV2VN6FJYQMK","A38DHLB88V8DL8","3SBNLSTU6UR0TCQ1NJ03LFGS7YQZDZ","","730.5","img/animal4.png","76","731.1000000238419","76","0",""
"","html-keyboard-response","143","95765","0.0-143.0","36V4Q8R5ZLMW5YTH4ILV2VN6FJYQMK","A38DHLB88V8DL8","3SBNLSTU6UR0TCQ1NJ03LFGS7YQZDZ","","null","<img src=""img/animal4.png"" style=""width:200px;border:14px solid red;"">","null","","","",""
"","image-keyboard-response","144","96511","0.0-144.0","36V4Q8R5ZLMW5YTH4ILV2VN6FJYQMK","A38DHLB88V8DL8","3SBNLSTU6UR0TCQ1NJ03LFGS7YQZDZ","","745.8999999761581","img/animal5.png","75","746.3000000119209","75","1",""
"","html-keyboard-response","145","96813","0.0-145.0","36V4Q8R5ZLMW5YTH4ILV2VN6FJYQMK","A38DHLB88V8DL8","3SBNLSTU6UR0TCQ1NJ03LFGS7YQZDZ","","null","<img src=""img/animal5.png"" style=""width:200px; border:14px solid green;"">","null","","","",""
"","image-keyboard-response","146","97335","0.0-146.0","36V4Q8R5ZLMW5YTH4ILV2VN6FJYQMK","A38DHLB88V8DL8","3SBNLSTU6UR0TCQ1NJ03LFGS7YQZDZ","","521.1999999880791","img/animal2.png","74","521.6000000238419","74","1",""
"","html-keyboard-response","147","97637","0.0-147.0","36V4Q8R5ZLMW5YTH4ILV2VN6FJYQMK","A38DHLB88V8DL8","3SBNLSTU6UR0TCQ1NJ03LFGS7YQZDZ","","null","<img src=""img/animal2.png"" style=""width:200px; border:14px solid green;"">","null","","","",""
"","image-keyboard-response","148","98487","0.0-148.0","36V4Q8R5ZLMW5YTH4ILV2VN6FJYQMK","A38DHLB88V8DL8","3SBNLSTU6UR0TCQ1NJ03LFGS7YQZDZ","","849.1999999880791","img/animal5.png","75","849.8000000119209","75","1",""
"","html-keyboard-response","149","98788","0.0-149.0","36V4Q8R5ZLMW5YTH4ILV2VN6FJYQMK","A38DHLB88V8DL8","3SBNLSTU6UR0TCQ1NJ03LFGS7YQZDZ","","null","<img src=""img/animal5.png"" style=""width:200px; border:14px solid green;"">","null","","","",""
"","image-keyboard-response","150","99415","0.0-150.0","36V4Q8R5ZLMW5YTH4ILV2VN6FJYQMK","A38DHLB88V8DL8","3SBNLSTU6UR0TCQ1NJ03LFGS7YQZDZ","","626.1999999880791","img/animal4.png","76","626.6999999880791","76","0",""
"","html-keyboard-response","151","99716","0.0-151.0","36V4Q8R5ZLMW5YTH4ILV2VN6FJYQMK","A38DHLB88V8DL8","3SBNLSTU6UR0TCQ1NJ03LFGS7YQZDZ","","null","<img src=""img/animal4.png"" style=""width:200px;border:14px solid red;"">","null","","","",""
"","image-keyboard-response","152","100247","0.0-152.0","36V4Q8R5ZLMW5YTH4ILV2VN6FJYQMK","A38DHLB88V8DL8","3SBNLSTU6UR0TCQ1NJ03LFGS7YQZDZ","","530.3000000119209","img/animal4.png","76","530.8999999761581","76","0",""
"","html-keyboard-response","153","100549","0.0-153.0","36V4Q8R5ZLMW5YTH4ILV2VN6FJYQMK","A38DHLB88V8DL8","3SBNLSTU6UR0TCQ1NJ03LFGS7YQZDZ","","null","<img src=""img/animal4.png"" style=""width:200px;border:14px solid red;"">","null","","","",""
"","image-keyboard-response","154","100951","0.0-154.0","36V4Q8R5ZLMW5YTH4ILV2VN6FJYQMK","A38DHLB88V8DL8","3SBNLSTU6UR0TCQ1NJ03LFGS7YQZDZ","","401.7000000476837","img/animal4.png","76","402.19999998807907","76","1",""
"","html-keyboard-response","155","101252","0.0-155.0","36V4Q8R5ZLMW5YTH4ILV2VN6FJYQMK","A38DHLB88V8DL8","3SBNLSTU6UR0TCQ1NJ03LFGS7YQZDZ","","null","<img src=""img/animal4.png"" style=""width:200px; border:14px solid green;"">","null","","","",""
"","image-keyboard-response","156","101911","0.0-156.0","36V4Q8R5ZLMW5YTH4ILV2VN6FJYQMK","A38DHLB88V8DL8","3SBNLSTU6UR0TCQ1NJ03LFGS7YQZDZ","","658.1999999880791","img/animal4.png","76","658.8000000119209","76","1",""
"","html-keyboard-response","157","102212","0.0-157.0","36V4Q8R5ZLMW5YTH4ILV2VN6FJYQMK","A38DHLB88V8DL8","3SBNLSTU6UR0TCQ1NJ03LFGS7YQZDZ","","null","<img src=""img/animal4.png"" style=""width:200px; border:14px solid green;"">","null","","","",""
"","image-keyboard-response","158","102783","0.0-158.0","36V4Q8R5ZLMW5YTH4ILV2VN6FJYQMK","A38DHLB88V8DL8","3SBNLSTU6UR0TCQ1NJ03LFGS7YQZDZ","","569.7999999523163","img/animal2.png","74","570.3000000119209","74","1",""
"","html-keyboard-response","159","103084","0.0-159.0","36V4Q8R5ZLMW5YTH4ILV2VN6FJYQMK","A38DHLB88V8DL8","3SBNLSTU6UR0TCQ1NJ03LFGS7YQZDZ","","null","<img src=""img/animal2.png"" style=""width:200px; border:14px solid green;"">","null","","","",""
"","image-keyboard-response","160","103471","0.0-160.0","36V4Q8R5ZLMW5YTH4ILV2VN6FJYQMK","A38DHLB88V8DL8","3SBNLSTU6UR0TCQ1NJ03LFGS7YQZDZ","","386.9000000357628","img/animal2.png","74","387.30000001192093","74","1",""
"","html-keyboard-response","161","103773","0.0-161.0","36V4Q8R5ZLMW5YTH4ILV2VN6FJYQMK","A38DHLB88V8DL8","3SBNLSTU6UR0TCQ1NJ03LFGS7YQZDZ","","null","<img src=""img/animal2.png"" style=""width:200px; border:14px solid green;"">","null","","","",""
"","image-keyboard-response","162","104199","0.0-162.0","36V4Q8R5ZLMW5YTH4ILV2VN6FJYQMK","A38DHLB88V8DL8","3SBNLSTU6UR0TCQ1NJ03LFGS7YQZDZ","","425.19999998807907","img/animal2.png","74","425.5999999642372","74","1",""
"","html-keyboard-response","163","104500","0.0-163.0","36V4Q8R5ZLMW5YTH4ILV2VN6FJYQMK","A38DHLB88V8DL8","3SBNLSTU6UR0TCQ1NJ03LFGS7YQZDZ","","null","<img src=""img/animal2.png"" style=""width:200px; border:14px solid green;"">","null","","","",""
"","image-keyboard-response","164","104831","0.0-164.0","36V4Q8R5ZLMW5YTH4ILV2VN6FJYQMK","A38DHLB88V8DL8","3SBNLSTU6UR0TCQ1NJ03LFGS7YQZDZ","","330.9000000357628","img/animal2.png","74","331.5","74","0",""
"","html-keyboard-response","165","105142","0.0-165.0","36V4Q8R5ZLMW5YTH4ILV2VN6FJYQMK","A38DHLB88V8DL8","3SBNLSTU6UR0TCQ1NJ03LFGS7YQZDZ","","null","<img src=""img/animal2.png"" style=""width:200px;border:14px solid red;"">","null","","","",""
"","image-keyboard-response","166","105951","0.0-166.0","36V4Q8R5ZLMW5YTH4ILV2VN6FJYQMK","A38DHLB88V8DL8","3SBNLSTU6UR0TCQ1NJ03LFGS7YQZDZ","","808.1000000238419","img/animal4.png","76","808.5999999642372","76","1",""
"","html-keyboard-response","167","106264","0.0-167.0","36V4Q8R5ZLMW5YTH4ILV2VN6FJYQMK","A38DHLB88V8DL8","3SBNLSTU6UR0TCQ1NJ03LFGS7YQZDZ","","null","<img src=""img/animal4.png"" style=""width:200px; border:14px solid green;"">","null","","","",""
"","image-keyboard-response","168","106863","0.0-168.0","36V4Q8R5ZLMW5YTH4ILV2VN6FJYQMK","A38DHLB88V8DL8","3SBNLSTU6UR0TCQ1NJ03LFGS7YQZDZ","","598.5","img/animal5.png","75","599.1000000238419","75","1",""
"","html-keyboard-response","169","107164","0.0-169.0","36V4Q8R5ZLMW5YTH4ILV2VN6FJYQMK","A38DHLB88V8DL8","3SBNLSTU6UR0TCQ1NJ03LFGS7YQZDZ","","null","<img src=""img/animal5.png"" style=""width:200px; border:14px solid green;"">","null","","","",""
"","image-keyboard-response","170","107511","0.0-170.0","36V4Q8R5ZLMW5YTH4ILV2VN6FJYQMK","A38DHLB88V8DL8","3SBNLSTU6UR0TCQ1NJ03LFGS7YQZDZ","","345.80000001192093","img/animal5.png","75","346.30000001192093","75","0",""
"","html-keyboard-response","171","107811","0.0-171.0","36V4Q8R5ZLMW5YTH4ILV2VN6FJYQMK","A38DHLB88V8DL8","3SBNLSTU6UR0TCQ1NJ03LFGS7YQZDZ","","null","<img src=""img/animal5.png"" style=""width:200px;border:14px solid red;"">","null","","","",""
"","image-keyboard-response","172","108223","0.0-172.0","36V4Q8R5ZLMW5YTH4ILV2VN6FJYQMK","A38DHLB88V8DL8","3SBNLSTU6UR0TCQ1NJ03LFGS7YQZDZ","","410.5","img/animal5.png","75","411","75","1",""
"","html-keyboard-response","173","108523","0.0-173.0","36V4Q8R5ZLMW5YTH4ILV2VN6FJYQMK","A38DHLB88V8DL8","3SBNLSTU6UR0TCQ1NJ03LFGS7YQZDZ","","null","<img src=""img/animal5.png"" style=""width:200px; border:14px solid green;"">","null","","","",""
"","image-keyboard-response","174","109103","0.0-174.0","36V4Q8R5ZLMW5YTH4ILV2VN6FJYQMK","A38DHLB88V8DL8","3SBNLSTU6UR0TCQ1NJ03LFGS7YQZDZ","","579.1000000238419","img/animal4.png","76","579.6999999880791","76","1",""
"","html-keyboard-response","175","109404","0.0-175.0","36V4Q8R5ZLMW5YTH4ILV2VN6FJYQMK","A38DHLB88V8DL8","3SBNLSTU6UR0TCQ1NJ03LFGS7YQZDZ","","null","<img src=""img/animal4.png"" style=""width:200px; border:14px solid green;"">","null","","","",""
"","image-keyboard-response","176","110071","0.0-176.0","36V4Q8R5ZLMW5YTH4ILV2VN6FJYQMK","A38DHLB88V8DL8","3SBNLSTU6UR0TCQ1NJ03LFGS7YQZDZ","","666.1999999880791","img/animal2.png","74","666.8999999761581","74","1",""
"","html-keyboard-response","177","110372","0.0-177.0","36V4Q8R5ZLMW5YTH4ILV2VN6FJYQMK","A38DHLB88V8DL8","3SBNLSTU6UR0TCQ1NJ03LFGS7YQZDZ","","null","<img src=""img/animal2.png"" style=""width:200px; border:14px solid green;"">","null","","","",""
"","image-keyboard-response","178","110943","0.0-178.0","36V4Q8R5ZLMW5YTH4ILV2VN6FJYQMK","A38DHLB88V8DL8","3SBNLSTU6UR0TCQ1NJ03LFGS7YQZDZ","","569.6999999880791","img/animal4.png","76","570.1999999880791","76","0",""
"","html-keyboard-response","179","111244","0.0-179.0","36V4Q8R5ZLMW5YTH4ILV2VN6FJYQMK","A38DHLB88V8DL8","3SBNLSTU6UR0TCQ1NJ03LFGS7YQZDZ","","null","<img src=""img/animal4.png"" style=""width:200px;border:14px solid red;"">","null","","","",""
"","image-keyboard-response","180","111439","0.0-180.0","36V4Q8R5ZLMW5YTH4ILV2VN6FJYQMK","A38DHLB88V8DL8","3SBNLSTU6UR0TCQ1NJ03LFGS7YQZDZ","","194","img/animal4.png","76","194.5","76","1",""
"","html-keyboard-response","181","111739","0.0-181.0","36V4Q8R5ZLMW5YTH4ILV2VN6FJYQMK","A38DHLB88V8DL8","3SBNLSTU6UR0TCQ1NJ03LFGS7YQZDZ","","null","<img src=""img/animal4.png"" style=""width:200px; border:14px solid green;"">","null","","","",""
"","html-keyboard-response","182","114572","0.0-182.0","36V4Q8R5ZLMW5YTH4ILV2VN6FJYQMK","A38DHLB88V8DL8","3SBNLSTU6UR0TCQ1NJ03LFGS7YQZDZ","","","","","","","",""
"","image-keyboard-response","183","115671","0.0-183.0","36V4Q8R5ZLMW5YTH4ILV2VN6FJYQMK","A38DHLB88V8DL8","3SBNLSTU6UR0TCQ1NJ03LFGS7YQZDZ","","1097.699999988079","img/animal3.png","74","1098.300000011921","74","0",""
"","html-keyboard-response","184","115972","0.0-184.0","36V4Q8R5ZLMW5YTH4ILV2VN6FJYQMK","A38DHLB88V8DL8","3SBNLSTU6UR0TCQ1NJ03LFGS7YQZDZ","","null","<img src=""img/animal3.png"" style=""width:200px;border:14px solid red;"">","null","","","",""
"","image-keyboard-response","185","116487","0.0-185.0","36V4Q8R5ZLMW5YTH4ILV2VN6FJYQMK","A38DHLB88V8DL8","3SBNLSTU6UR0TCQ1NJ03LFGS7YQZDZ","","513.7000000476837","img/animal3.png","75","514.3000000119209","75","0",""
"","html-keyboard-response","186","116788","0.0-186.0","36V4Q8R5ZLMW5YTH4ILV2VN6FJYQMK","A38DHLB88V8DL8","3SBNLSTU6UR0TCQ1NJ03LFGS7YQZDZ","","null","<img src=""img/animal3.png"" style=""width:200px;border:14px solid red;"">","null","","","",""
"","image-keyboard-response","187","117287","0.0-187.0","36V4Q8R5ZLMW5YTH4ILV2VN6FJYQMK","A38DHLB88V8DL8","3SBNLSTU6UR0TCQ1NJ03LFGS7YQZDZ","","498.10000002384186","img/animal3.png","76","498.60000002384186","76","1",""
"","html-keyboard-response","188","117588","0.0-188.0","36V4Q8R5ZLMW5YTH4ILV2VN6FJYQMK","A38DHLB88V8DL8","3SBNLSTU6UR0TCQ1NJ03LFGS7YQZDZ","","null","<img src=""img/animal3.png"" style=""width:200px; border:14px solid green;"">","null","","","",""
"","image-keyboard-response","189","119055","0.0-189.0","36V4Q8R5ZLMW5YTH4ILV2VN6FJYQMK","A38DHLB88V8DL8","3SBNLSTU6UR0TCQ1NJ03LFGS7YQZDZ","","1466","img/animal6.png","75","1466.3999999761581","75","1",""
"","html-keyboard-response","190","119357","0.0-190.0","36V4Q8R5ZLMW5YTH4ILV2VN6FJYQMK","A38DHLB88V8DL8","3SBNLSTU6UR0TCQ1NJ03LFGS7YQZDZ","","null","<img src=""img/animal6.png"" style=""width:200px; border:14px solid green;"">","null","","","",""
"","image-keyboard-response","191","120015","0.0-191.0","36V4Q8R5ZLMW5YTH4ILV2VN6FJYQMK","A38DHLB88V8DL8","3SBNLSTU6UR0TCQ1NJ03LFGS7YQZDZ","","657.8000000119209","img/animal6.png","75","658.3000000119209","75","0",""
"","html-keyboard-response","192","120316","0.0-192.0","36V4Q8R5ZLMW5YTH4ILV2VN6FJYQMK","A38DHLB88V8DL8","3SBNLSTU6UR0TCQ1NJ03LFGS7YQZDZ","","null","<img src=""img/animal6.png"" style=""width:200px;border:14px solid red;"">","null","","","",""
"","image-keyboard-response","193","120727","0.0-193.0","36V4Q8R5ZLMW5YTH4ILV2VN6FJYQMK","A38DHLB88V8DL8","3SBNLSTU6UR0TCQ1NJ03LFGS7YQZDZ","","410.5","img/animal6.png","75","410.9000000357628","75","1",""
"","html-keyboard-response","194","121028","0.0-194.0","36V4Q8R5ZLMW5YTH4ILV2VN6FJYQMK","A38DHLB88V8DL8","3SBNLSTU6UR0TCQ1NJ03LFGS7YQZDZ","","null","<img src=""img/animal6.png"" style=""width:200px; border:14px solid green;"">","null","","","",""
"","image-keyboard-response","195","121695","0.0-195.0","36V4Q8R5ZLMW5YTH4ILV2VN6FJYQMK","A38DHLB88V8DL8","3SBNLSTU6UR0TCQ1NJ03LFGS7YQZDZ","","665.5","img/animal3.png","76","665.9000000357628","76","1",""
"","html-keyboard-response","196","121995","0.0-196.0","36V4Q8R5ZLMW5YTH4ILV2VN6FJYQMK","A38DHLB88V8DL8","3SBNLSTU6UR0TCQ1NJ03LFGS7YQZDZ","","null","<img src=""img/animal3.png"" style=""width:200px; border:14px solid green;"">","null","","","",""
"","image-keyboard-response","197","122847","0.0-197.0","36V4Q8R5ZLMW5YTH4ILV2VN6FJYQMK","A38DHLB88V8DL8","3SBNLSTU6UR0TCQ1NJ03LFGS7YQZDZ","","851.5","img/animal1.png","74","851.9000000357628","74","0",""
"","html-keyboard-response","198","123149","0.0-198.0","36V4Q8R5ZLMW5YTH4ILV2VN6FJYQMK","A38DHLB88V8DL8","3SBNLSTU6UR0TCQ1NJ03LFGS7YQZDZ","","null","<img src=""img/animal1.png"" style=""width:200px;border:14px solid red;"">","null","","","",""
"","image-keyboard-response","199","124007","0.0-199.0","36V4Q8R5ZLMW5YTH4ILV2VN6FJYQMK","A38DHLB88V8DL8","3SBNLSTU6UR0TCQ1NJ03LFGS7YQZDZ","","857.5999999642372","img/animal3.png","76","858","76","1",""
"","html-keyboard-response","200","124308","0.0-200.0","36V4Q8R5ZLMW5YTH4ILV2VN6FJYQMK","A38DHLB88V8DL8","3SBNLSTU6UR0TCQ1NJ03LFGS7YQZDZ","","null","<img src=""img/animal3.png"" style=""width:200px; border:14px solid green;"">","null","","","",""
"","image-keyboard-response","201","125119","0.0-201.0","36V4Q8R5ZLMW5YTH4ILV2VN6FJYQMK","A38DHLB88V8DL8","3SBNLSTU6UR0TCQ1NJ03LFGS7YQZDZ","","810.4000000357628","img/animal6.png","75","810.8000000119209","75","1",""
"","html-keyboard-response","202","125421","0.0-202.0","36V4Q8R5ZLMW5YTH4ILV2VN6FJYQMK","A38DHLB88V8DL8","3SBNLSTU6UR0TCQ1NJ03LFGS7YQZDZ","","null","<img src=""img/animal6.png"" style=""width:200px; border:14px solid green;"">","null","","","",""
"","image-keyboard-response","203","125983","0.0-203.0","36V4Q8R5ZLMW5YTH4ILV2VN6FJYQMK","A38DHLB88V8DL8","3SBNLSTU6UR0TCQ1NJ03LFGS7YQZDZ","","561.6000000238419","img/animal1.png","74","562.1999999880791","74","0",""
"","html-keyboard-response","204","126284","0.0-204.0","36V4Q8R5ZLMW5YTH4ILV2VN6FJYQMK","A38DHLB88V8DL8","3SBNLSTU6UR0TCQ1NJ03LFGS7YQZDZ","","null","<img src=""img/animal1.png"" style=""width:200px;border:14px solid red;"">","null","","","",""
"","image-keyboard-response","205","126687","0.0-205.0","36V4Q8R5ZLMW5YTH4ILV2VN6FJYQMK","A38DHLB88V8DL8","3SBNLSTU6UR0TCQ1NJ03LFGS7YQZDZ","","402.5999999642372","img/animal1.png","74","403.10000002384186","74","0",""
"","html-keyboard-response","206","126995","0.0-206.0","36V4Q8R5ZLMW5YTH4ILV2VN6FJYQMK","A38DHLB88V8DL8","3SBNLSTU6UR0TCQ1NJ03LFGS7YQZDZ","","null","<img src=""img/animal1.png"" style=""width:200px;border:14px solid red;"">","null","","","",""
"","image-keyboard-response","207","127822","0.0-207.0","36V4Q8R5ZLMW5YTH4ILV2VN6FJYQMK","A38DHLB88V8DL8","3SBNLSTU6UR0TCQ1NJ03LFGS7YQZDZ","","826.8000000119209","img/animal3.png","76","827.5","76","1",""
"","html-keyboard-response","208","128123","0.0-208.0","36V4Q8R5ZLMW5YTH4ILV2VN6FJYQMK","A38DHLB88V8DL8","3SBNLSTU6UR0TCQ1NJ03LFGS7YQZDZ","","null","<img src=""img/animal3.png"" style=""width:200px; border:14px solid green;"">","null","","","",""
"","image-keyboard-response","209","128655","0.0-209.0","36V4Q8R5ZLMW5YTH4ILV2VN6FJYQMK","A38DHLB88V8DL8","3SBNLSTU6UR0TCQ1NJ03LFGS7YQZDZ","","531.3000000119209","img/animal1.png","75","531.6999999880791","75","1",""
"","html-keyboard-response","210","128956","0.0-210.0","36V4Q8R5ZLMW5YTH4ILV2VN6FJYQMK","A38DHLB88V8DL8","3SBNLSTU6UR0TCQ1NJ03LFGS7YQZDZ","","null","<img src=""img/animal1.png"" style=""width:200px; border:14px solid green;"">","null","","","",""
"","image-keyboard-response","211","129695","0.0-211.0","36V4Q8R5ZLMW5YTH4ILV2VN6FJYQMK","A38DHLB88V8DL8","3SBNLSTU6UR0TCQ1NJ03LFGS7YQZDZ","","737.6999999880791","img/animal3.png","76","738.0999999642372","76","1",""
"","html-keyboard-response","212","129996","0.0-212.0","36V4Q8R5ZLMW5YTH4ILV2VN6FJYQMK","A38DHLB88V8DL8","3SBNLSTU6UR0TCQ1NJ03LFGS7YQZDZ","","null","<img src=""img/animal3.png"" style=""width:200px; border:14px solid green;"">","null","","","",""
"","image-keyboard-response","213","130423","0.0-213.0","36V4Q8R5ZLMW5YTH4ILV2VN6FJYQMK","A38DHLB88V8DL8","3SBNLSTU6UR0TCQ1NJ03LFGS7YQZDZ","","426.80000001192093","img/animal3.png","76","427.4000000357628","76","1",""
"","html-keyboard-response","214","130724","0.0-214.0","36V4Q8R5ZLMW5YTH4ILV2VN6FJYQMK","A38DHLB88V8DL8","3SBNLSTU6UR0TCQ1NJ03LFGS7YQZDZ","","null","<img src=""img/animal3.png"" style=""width:200px; border:14px solid green;"">","null","","","",""
"","image-keyboard-response","215","131367","0.0-215.0","36V4Q8R5ZLMW5YTH4ILV2VN6FJYQMK","A38DHLB88V8DL8","3SBNLSTU6UR0TCQ1NJ03LFGS7YQZDZ","","642.6000000238419","img/animal6.png","75","643.0999999642372","75","1",""
"","html-keyboard-response","216","131669","0.0-216.0","36V4Q8R5ZLMW5YTH4ILV2VN6FJYQMK","A38DHLB88V8DL8","3SBNLSTU6UR0TCQ1NJ03LFGS7YQZDZ","","null","<img src=""img/animal6.png"" style=""width:200px; border:14px solid green;"">","null","","","",""
"","image-keyboard-response","217","132455","0.0-217.0","36V4Q8R5ZLMW5YTH4ILV2VN6FJYQMK","A38DHLB88V8DL8","3SBNLSTU6UR0TCQ1NJ03LFGS7YQZDZ","","786","img/animal3.png","76","786.5","76","1",""
"","html-keyboard-response","218","132756","0.0-218.0","36V4Q8R5ZLMW5YTH4ILV2VN6FJYQMK","A38DHLB88V8DL8","3SBNLSTU6UR0TCQ1NJ03LFGS7YQZDZ","","null","<img src=""img/animal3.png"" style=""width:200px; border:14px solid green;"">","null","","","",""
"","image-keyboard-response","219","133511","0.0-219.0","36V4Q8R5ZLMW5YTH4ILV2VN6FJYQMK","A38DHLB88V8DL8","3SBNLSTU6UR0TCQ1NJ03LFGS7YQZDZ","","754","img/animal6.png","75","754.5","75","1",""
"","html-keyboard-response","220","133812","0.0-220.0","36V4Q8R5ZLMW5YTH4ILV2VN6FJYQMK","A38DHLB88V8DL8","3SBNLSTU6UR0TCQ1NJ03LFGS7YQZDZ","","null","<img src=""img/animal6.png"" style=""width:200px; border:14px solid green;"">","null","","","",""
"","image-keyboard-response","221","134295","0.0-221.0","36V4Q8R5ZLMW5YTH4ILV2VN6FJYQMK","A38DHLB88V8DL8","3SBNLSTU6UR0TCQ1NJ03LFGS7YQZDZ","","482","img/animal6.png","75","482.39999997615814","75","1",""
"","html-keyboard-response","222","134596","0.0-222.0","36V4Q8R5ZLMW5YTH4ILV2VN6FJYQMK","A38DHLB88V8DL8","3SBNLSTU6UR0TCQ1NJ03LFGS7YQZDZ","","null","<img src=""img/animal6.png"" style=""width:200px; border:14px solid green;"">","null","","","",""
"","image-keyboard-response","223","134983","0.0-223.0","36V4Q8R5ZLMW5YTH4ILV2VN6FJYQMK","A38DHLB88V8DL8","3SBNLSTU6UR0TCQ1NJ03LFGS7YQZDZ","","385.89999997615814","img/animal6.png","75","386.5","75","1",""
"","html-keyboard-response","224","135284","0.0-224.0","36V4Q8R5ZLMW5YTH4ILV2VN6FJYQMK","A38DHLB88V8DL8","3SBNLSTU6UR0TCQ1NJ03LFGS7YQZDZ","","null","<img src=""img/animal6.png"" style=""width:200px; border:14px solid green;"">","null","","","",""
"","image-keyboard-response","225","135687","0.0-225.0","36V4Q8R5ZLMW5YTH4ILV2VN6FJYQMK","A38DHLB88V8DL8","3SBNLSTU6UR0TCQ1NJ03LFGS7YQZDZ","","402.5","img/animal6.png","75","403","75","0",""
"","html-keyboard-response","226","135988","0.0-226.0","36V4Q8R5ZLMW5YTH4ILV2VN6FJYQMK","A38DHLB88V8DL8","3SBNLSTU6UR0TCQ1NJ03LFGS7YQZDZ","","null","<img src=""img/animal6.png"" style=""width:200px;border:14px solid red;"">","null","","","",""
"","image-keyboard-response","227","136823","0.0-227.0","36V4Q8R5ZLMW5YTH4ILV2VN6FJYQMK","A38DHLB88V8DL8","3SBNLSTU6UR0TCQ1NJ03LFGS7YQZDZ","","834.5","img/animal1.png","75","834.8999999761581","75","1",""
"","html-keyboard-response","228","137124","0.0-228.0","36V4Q8R5ZLMW5YTH4ILV2VN6FJYQMK","A38DHLB88V8DL8","3SBNLSTU6UR0TCQ1NJ03LFGS7YQZDZ","","null","<img src=""img/animal1.png"" style=""width:200px; border:14px solid green;"">","null","","","",""
"","image-keyboard-response","229","137711","0.0-229.0","36V4Q8R5ZLMW5YTH4ILV2VN6FJYQMK","A38DHLB88V8DL8","3SBNLSTU6UR0TCQ1NJ03LFGS7YQZDZ","","586.2000000476837","img/animal3.png","76","586.6999999880791","76","1",""
"","html-keyboard-response","230","138012","0.0-230.0","36V4Q8R5ZLMW5YTH4ILV2VN6FJYQMK","A38DHLB88V8DL8","3SBNLSTU6UR0TCQ1NJ03LFGS7YQZDZ","","null","<img src=""img/animal3.png"" style=""width:200px; border:14px solid green;"">","null","","","",""
"","image-keyboard-response","231","138679","0.0-231.0","36V4Q8R5ZLMW5YTH4ILV2VN6FJYQMK","A38DHLB88V8DL8","3SBNLSTU6UR0TCQ1NJ03LFGS7YQZDZ","","666.6999999880791","img/animal1.png","75","667","75","1",""
"","html-keyboard-response","232","138980","0.0-232.0","36V4Q8R5ZLMW5YTH4ILV2VN6FJYQMK","A38DHLB88V8DL8","3SBNLSTU6UR0TCQ1NJ03LFGS7YQZDZ","","null","<img src=""img/animal1.png"" style=""width:200px; border:14px solid green;"">","null","","","",""
"","image-keyboard-response","233","139495","0.0-233.0","36V4Q8R5ZLMW5YTH4ILV2VN6FJYQMK","A38DHLB88V8DL8","3SBNLSTU6UR0TCQ1NJ03LFGS7YQZDZ","","514.0999999642372","img/animal3.png","76","514.5","76","1",""
"","html-keyboard-response","234","139796","0.0-234.0","36V4Q8R5ZLMW5YTH4ILV2VN6FJYQMK","A38DHLB88V8DL8","3SBNLSTU6UR0TCQ1NJ03LFGS7YQZDZ","","null","<img src=""img/animal3.png"" style=""width:200px; border:14px solid green;"">","null","","","",""
"","image-keyboard-response","235","140175","0.0-235.0","36V4Q8R5ZLMW5YTH4ILV2VN6FJYQMK","A38DHLB88V8DL8","3SBNLSTU6UR0TCQ1NJ03LFGS7YQZDZ","","378.4000000357628","img/animal1.png","75","378.80000001192093","75","1",""
"","html-keyboard-response","236","140483","0.0-236.0","36V4Q8R5ZLMW5YTH4ILV2VN6FJYQMK","A38DHLB88V8DL8","3SBNLSTU6UR0TCQ1NJ03LFGS7YQZDZ","","null","<img src=""img/animal1.png"" style=""width:200px; border:14px solid green;"">","null","","","",""
"","image-keyboard-response","237","140959","0.0-237.0","36V4Q8R5ZLMW5YTH4ILV2VN6FJYQMK","A38DHLB88V8DL8","3SBNLSTU6UR0TCQ1NJ03LFGS7YQZDZ","","475.30000001192093","img/animal3.png","76","476.10000002384186","76","1",""
"","html-keyboard-response","238","141261","0.0-238.0","36V4Q8R5ZLMW5YTH4ILV2VN6FJYQMK","A38DHLB88V8DL8","3SBNLSTU6UR0TCQ1NJ03LFGS7YQZDZ","","null","<img src=""img/animal3.png"" style=""width:200px; border:14px solid green;"">","null","","","",""
"","image-keyboard-response","239","141743","0.0-239.0","36V4Q8R5ZLMW5YTH4ILV2VN6FJYQMK","A38DHLB88V8DL8","3SBNLSTU6UR0TCQ1NJ03LFGS7YQZDZ","","481.39999997615814","img/animal3.png","75","481.80000001192093","75","0",""
"","html-keyboard-response","240","142044","0.0-240.0","36V4Q8R5ZLMW5YTH4ILV2VN6FJYQMK","A38DHLB88V8DL8","3SBNLSTU6UR0TCQ1NJ03LFGS7YQZDZ","","null","<img src=""img/animal3.png"" style=""width:200px;border:14px solid red;"">","null","","","",""
"","image-keyboard-response","241","142799","0.0-241.0","36V4Q8R5ZLMW5YTH4ILV2VN6FJYQMK","A38DHLB88V8DL8","3SBNLSTU6UR0TCQ1NJ03LFGS7YQZDZ","","755","img/animal1.png","75","755.5","75","1",""
"","html-keyboard-response","242","143100","0.0-242.0","36V4Q8R5ZLMW5YTH4ILV2VN6FJYQMK","A38DHLB88V8DL8","3SBNLSTU6UR0TCQ1NJ03LFGS7YQZDZ","","null","<img src=""img/animal1.png"" style=""width:200px; border:14px solid green;"">","null","","","",""
"","image-keyboard-response","243","143863","0.0-243.0","36V4Q8R5ZLMW5YTH4ILV2VN6FJYQMK","A38DHLB88V8DL8","3SBNLSTU6UR0TCQ1NJ03LFGS7YQZDZ","","762.1999999880791","img/animal6.png","75","762.5","75","0",""
"","html-keyboard-response","244","144164","0.0-244.0","36V4Q8R5ZLMW5YTH4ILV2VN6FJYQMK","A38DHLB88V8DL8","3SBNLSTU6UR0TCQ1NJ03LFGS7YQZDZ","","null","<img src=""img/animal6.png"" style=""width:200px;border:14px solid red;"">","null","","","",""
"","image-keyboard-response","245","144767","0.0-245.0","36V4Q8R5ZLMW5YTH4ILV2VN6FJYQMK","A38DHLB88V8DL8","3SBNLSTU6UR0TCQ1NJ03LFGS7YQZDZ","","601.8999999761581","img/animal3.png","76","602.5","76","1",""
"","html-keyboard-response","246","145069","0.0-246.0","36V4Q8R5ZLMW5YTH4ILV2VN6FJYQMK","A38DHLB88V8DL8","3SBNLSTU6UR0TCQ1NJ03LFGS7YQZDZ","","null","<img src=""img/animal3.png"" style=""width:200px; border:14px solid green;"">","null","","","",""
"","image-keyboard-response","247","145439","0.0-247.0","36V4Q8R5ZLMW5YTH4ILV2VN6FJYQMK","A38DHLB88V8DL8","3SBNLSTU6UR0TCQ1NJ03LFGS7YQZDZ","","369.39999997615814","img/animal3.png","76","369.89999997615814","76","1",""
"","html-keyboard-response","248","145740","0.0-248.0","36V4Q8R5ZLMW5YTH4ILV2VN6FJYQMK","A38DHLB88V8DL8","3SBNLSTU6UR0TCQ1NJ03LFGS7YQZDZ","","null","<img src=""img/animal3.png"" style=""width:200px; border:14px solid green;"">","null","","","",""
"","image-keyboard-response","249","146183","0.0-249.0","36V4Q8R5ZLMW5YTH4ILV2VN6FJYQMK","A38DHLB88V8DL8","3SBNLSTU6UR0TCQ1NJ03LFGS7YQZDZ","","442.2999999523163","img/animal3.png","76","442.80000001192093","76","1",""
"","html-keyboard-response","250","146484","0.0-250.0","36V4Q8R5ZLMW5YTH4ILV2VN6FJYQMK","A38DHLB88V8DL8","3SBNLSTU6UR0TCQ1NJ03LFGS7YQZDZ","","null","<img src=""img/animal3.png"" style=""width:200px; border:14px solid green;"">","null","","","",""
"","image-keyboard-response","251","146927","0.0-251.0","36V4Q8R5ZLMW5YTH4ILV2VN6FJYQMK","A38DHLB88V8DL8","3SBNLSTU6UR0TCQ1NJ03LFGS7YQZDZ","","442.60000002384186","img/animal1.png","75","443","75","1",""
"","html-keyboard-response","252","147228","0.0-252.0","36V4Q8R5ZLMW5YTH4ILV2VN6FJYQMK","A38DHLB88V8DL8","3SBNLSTU6UR0TCQ1NJ03LFGS7YQZDZ","","null","<img src=""img/animal1.png"" style=""width:200px; border:14px solid green;"">","null","","","",""
"","image-keyboard-response","253","148039","0.0-253.0","36V4Q8R5ZLMW5YTH4ILV2VN6FJYQMK","A38DHLB88V8DL8","3SBNLSTU6UR0TCQ1NJ03LFGS7YQZDZ","","810.3000000119209","img/animal6.png","75","810.8000000119209","75","0",""
"","html-keyboard-response","254","148340","0.0-254.0","36V4Q8R5ZLMW5YTH4ILV2VN6FJYQMK","A38DHLB88V8DL8","3SBNLSTU6UR0TCQ1NJ03LFGS7YQZDZ","","null","<img src=""img/animal6.png"" style=""width:200px;border:14px solid red;"">","null","","","",""
"","image-keyboard-response","255","148543","0.0-255.0","36V4Q8R5ZLMW5YTH4ILV2VN6FJYQMK","A38DHLB88V8DL8","3SBNLSTU6UR0TCQ1NJ03LFGS7YQZDZ","","201.89999997615814","img/animal1.png","75","202.5","75","1",""
"","html-keyboard-response","256","148844","0.0-256.0","36V4Q8R5ZLMW5YTH4ILV2VN6FJYQMK","A38DHLB88V8DL8","3SBNLSTU6UR0TCQ1NJ03LFGS7YQZDZ","","null","<img src=""img/animal1.png"" style=""width:200px; border:14px solid green;"">","null","","","",""
"","image-keyboard-response","257","149551","0.0-257.0","36V4Q8R5ZLMW5YTH4ILV2VN6FJYQMK","A38DHLB88V8DL8","3SBNLSTU6UR0TCQ1NJ03LFGS7YQZDZ","","706.3999999761581","img/animal1.png","75","706.9000000357628","75","1",""
"","html-keyboard-response","258","149853","0.0-258.0","36V4Q8R5ZLMW5YTH4ILV2VN6FJYQMK","A38DHLB88V8DL8","3SBNLSTU6UR0TCQ1NJ03LFGS7YQZDZ","","null","<img src=""img/animal1.png"" style=""width:200px; border:14px solid green;"">","null","","","",""
"","image-keyboard-response","259","150272","0.0-259.0","36V4Q8R5ZLMW5YTH4ILV2VN6FJYQMK","A38DHLB88V8DL8","3SBNLSTU6UR0TCQ1NJ03LFGS7YQZDZ","","418.4000000357628","img/animal1.png","75","418.9000000357628","75","1",""
"","html-keyboard-response","260","150573","0.0-260.0","36V4Q8R5ZLMW5YTH4ILV2VN6FJYQMK","A38DHLB88V8DL8","3SBNLSTU6UR0TCQ1NJ03LFGS7YQZDZ","","null","<img src=""img/animal1.png"" style=""width:200px; border:14px solid green;"">","null","","","",""
"","image-keyboard-response","261","151063","0.0-261.0","36V4Q8R5ZLMW5YTH4ILV2VN6FJYQMK","A38DHLB88V8DL8","3SBNLSTU6UR0TCQ1NJ03LFGS7YQZDZ","","489.19999998807907","img/animal3.png","76","489.69999998807907","76","1",""
"","html-keyboard-response","262","151364","0.0-262.0","36V4Q8R5ZLMW5YTH4ILV2VN6FJYQMK","A38DHLB88V8DL8","3SBNLSTU6UR0TCQ1NJ03LFGS7YQZDZ","","null","<img src=""img/animal3.png"" style=""width:200px; border:14px solid green;"">","null","","","",""
"","image-keyboard-response","263","151975","0.0-263.0","36V4Q8R5ZLMW5YTH4ILV2VN6FJYQMK","A38DHLB88V8DL8","3SBNLSTU6UR0TCQ1NJ03LFGS7YQZDZ","","609.8999999761581","img/animal1.png","75","610.3000000119209","75","1",""
"","html-keyboard-response","264","152276","0.0-264.0","36V4Q8R5ZLMW5YTH4ILV2VN6FJYQMK","A38DHLB88V8DL8","3SBNLSTU6UR0TCQ1NJ03LFGS7YQZDZ","","null","<img src=""img/animal1.png"" style=""width:200px; border:14px solid green;"">","null","","","",""
"","image-keyboard-response","265","152783","0.0-265.0","36V4Q8R5ZLMW5YTH4ILV2VN6FJYQMK","A38DHLB88V8DL8","3SBNLSTU6UR0TCQ1NJ03LFGS7YQZDZ","","506.60000002384186","img/animal3.png","76","507.10000002384186","76","1",""
"","html-keyboard-response","266","153085","0.0-266.0","36V4Q8R5ZLMW5YTH4ILV2VN6FJYQMK","A38DHLB88V8DL8","3SBNLSTU6UR0TCQ1NJ03LFGS7YQZDZ","","null","<img src=""img/animal3.png"" style=""width:200px; border:14px solid green;"">","null","","","",""
"","image-keyboard-response","267","153863","0.0-267.0","36V4Q8R5ZLMW5YTH4ILV2VN6FJYQMK","A38DHLB88V8DL8","3SBNLSTU6UR0TCQ1NJ03LFGS7YQZDZ","","777.3999999761581","img/animal1.png","75","778","75","1",""
"","html-keyboard-response","268","154169","0.0-268.0","36V4Q8R5ZLMW5YTH4ILV2VN6FJYQMK","A38DHLB88V8DL8","3SBNLSTU6UR0TCQ1NJ03LFGS7YQZDZ","","null","<img src=""img/animal1.png"" style=""width:200px; border:14px solid green;"">","null","","","",""
"","image-keyboard-response","269","154535","0.0-269.0","36V4Q8R5ZLMW5YTH4ILV2VN6FJYQMK","A38DHLB88V8DL8","3SBNLSTU6UR0TCQ1NJ03LFGS7YQZDZ","","365.5","img/animal1.png","75","366.0999999642372","75","1",""
"","html-keyboard-response","270","154837","0.0-270.0","36V4Q8R5ZLMW5YTH4ILV2VN6FJYQMK","A38DHLB88V8DL8","3SBNLSTU6UR0TCQ1NJ03LFGS7YQZDZ","","null","<img src=""img/animal1.png"" style=""width:200px; border:14px solid green;"">","null","","","",""
"","image-keyboard-response","271","155239","0.0-271.0","36V4Q8R5ZLMW5YTH4ILV2VN6FJYQMK","A38DHLB88V8DL8","3SBNLSTU6UR0TCQ1NJ03LFGS7YQZDZ","","401.5","img/animal1.png","75","402","75","1",""
"","html-keyboard-response","272","155540","0.0-272.0","36V4Q8R5ZLMW5YTH4ILV2VN6FJYQMK","A38DHLB88V8DL8","3SBNLSTU6UR0TCQ1NJ03LFGS7YQZDZ","","null","<img src=""img/animal1.png"" style=""width:200px; border:14px solid green;"">","null","","","",""
"","image-keyboard-response","273","156055","0.0-273.0","36V4Q8R5ZLMW5YTH4ILV2VN6FJYQMK","A38DHLB88V8DL8","3SBNLSTU6UR0TCQ1NJ03LFGS7YQZDZ","","514.6000000238419","img/animal6.png","76","515.1000000238419","76","0",""
"","html-keyboard-response","274","156356","0.0-274.0","36V4Q8R5ZLMW5YTH4ILV2VN6FJYQMK","A38DHLB88V8DL8","3SBNLSTU6UR0TCQ1NJ03LFGS7YQZDZ","","null","<img src=""img/animal6.png"" style=""width:200px;border:14px solid red;"">","null","","","",""
"","image-keyboard-response","275","156711","0.0-275.0","36V4Q8R5ZLMW5YTH4ILV2VN6FJYQMK","A38DHLB88V8DL8","3SBNLSTU6UR0TCQ1NJ03LFGS7YQZDZ","","354.10000002384186","img/animal6.png","75","354.5999999642372","75","0",""
"","html-keyboard-response","276","157012","0.0-276.0","36V4Q8R5ZLMW5YTH4ILV2VN6FJYQMK","A38DHLB88V8DL8","3SBNLSTU6UR0TCQ1NJ03LFGS7YQZDZ","","null","<img src=""img/animal6.png"" style=""width:200px;border:14px solid red;"">","null","","","",""
"","image-keyboard-response","277","157687","0.0-277.0","36V4Q8R5ZLMW5YTH4ILV2VN6FJYQMK","A38DHLB88V8DL8","3SBNLSTU6UR0TCQ1NJ03LFGS7YQZDZ","","674.1999999880791","img/animal3.png","76","674.5999999642372","76","1",""
"","html-keyboard-response","278","157987","0.0-278.0","36V4Q8R5ZLMW5YTH4ILV2VN6FJYQMK","A38DHLB88V8DL8","3SBNLSTU6UR0TCQ1NJ03LFGS7YQZDZ","","null","<img src=""img/animal3.png"" style=""width:200px; border:14px solid green;"">","null","","","",""
"","image-keyboard-response","279","158519","0.0-279.0","36V4Q8R5ZLMW5YTH4ILV2VN6FJYQMK","A38DHLB88V8DL8","3SBNLSTU6UR0TCQ1NJ03LFGS7YQZDZ","","531.2999999523163","img/animal1.png","75","531.6999999880791","75","1",""
"","html-keyboard-response","280","158820","0.0-280.0","36V4Q8R5ZLMW5YTH4ILV2VN6FJYQMK","A38DHLB88V8DL8","3SBNLSTU6UR0TCQ1NJ03LFGS7YQZDZ","","null","<img src=""img/animal1.png"" style=""width:200px; border:14px solid green;"">","null","","","",""
"","image-keyboard-response","281","159407","0.0-281.0","36V4Q8R5ZLMW5YTH4ILV2VN6FJYQMK","A38DHLB88V8DL8","3SBNLSTU6UR0TCQ1NJ03LFGS7YQZDZ","","586.2999999523163","img/animal6.png","75","586.9000000357628","75","0",""
"","html-keyboard-response","282","159709","0.0-282.0","36V4Q8R5ZLMW5YTH4ILV2VN6FJYQMK","A38DHLB88V8DL8","3SBNLSTU6UR0TCQ1NJ03LFGS7YQZDZ","","null","<img src=""img/animal6.png"" style=""width:200px;border:14px solid red;"">","null","","","",""
"","image-keyboard-response","283","160102","0.0-283.0","36V4Q8R5ZLMW5YTH4ILV2VN6FJYQMK","A38DHLB88V8DL8","3SBNLSTU6UR0TCQ1NJ03LFGS7YQZDZ","","393.10000002384186","img/animal6.png","75","393.4000000357628","75","1",""
"","html-keyboard-response","284","160403","0.0-284.0","36V4Q8R5ZLMW5YTH4ILV2VN6FJYQMK","A38DHLB88V8DL8","3SBNLSTU6UR0TCQ1NJ03LFGS7YQZDZ","","null","<img src=""img/animal6.png"" style=""width:200px; border:14px solid green;"">","null","","","",""
"","image-keyboard-response","285","160991","0.0-285.0","36V4Q8R5ZLMW5YTH4ILV2VN6FJYQMK","A38DHLB88V8DL8","3SBNLSTU6UR0TCQ1NJ03LFGS7YQZDZ","","586.6999999880791","img/animal1.png","75","587.3000000119209","75","1",""
"","html-keyboard-response","286","161292","0.0-286.0","36V4Q8R5ZLMW5YTH4ILV2VN6FJYQMK","A38DHLB88V8DL8","3SBNLSTU6UR0TCQ1NJ03LFGS7YQZDZ","","null","<img src=""img/animal1.png"" style=""width:200px; border:14px solid green;"">","null","","","",""
"","image-keyboard-response","287","161903","0.0-287.0","36V4Q8R5ZLMW5YTH4ILV2VN6FJYQMK","A38DHLB88V8DL8","3SBNLSTU6UR0TCQ1NJ03LFGS7YQZDZ","","610.2999999523163","img/animal3.png","76","610.8000000119209","76","1",""
"","html-keyboard-response","288","162204","0.0-288.0","36V4Q8R5ZLMW5YTH4ILV2VN6FJYQMK","A38DHLB88V8DL8","3SBNLSTU6UR0TCQ1NJ03LFGS7YQZDZ","","null","<img src=""img/animal3.png"" style=""width:200px; border:14px solid green;"">","null","","","",""
"","image-keyboard-response","289","162887","0.0-289.0","36V4Q8R5ZLMW5YTH4ILV2VN6FJYQMK","A38DHLB88V8DL8","3SBNLSTU6UR0TCQ1NJ03LFGS7YQZDZ","","682.2999999523163","img/animal6.png","75","682.6999999880791","75","1",""
"","html-keyboard-response","290","163189","0.0-290.0","36V4Q8R5ZLMW5YTH4ILV2VN6FJYQMK","A38DHLB88V8DL8","3SBNLSTU6UR0TCQ1NJ03LFGS7YQZDZ","","null","<img src=""img/animal6.png"" style=""width:200px; border:14px solid green;"">","null","","","",""
"","image-keyboard-response","291","163647","0.0-291.0","36V4Q8R5ZLMW5YTH4ILV2VN6FJYQMK","A38DHLB88V8DL8","3SBNLSTU6UR0TCQ1NJ03LFGS7YQZDZ","","457.69999998807907","img/animal1.png","75","458.19999998807907","75","1",""
"","html-keyboard-response","292","163949","0.0-292.0","36V4Q8R5ZLMW5YTH4ILV2VN6FJYQMK","A38DHLB88V8DL8","3SBNLSTU6UR0TCQ1NJ03LFGS7YQZDZ","","null","<img src=""img/animal1.png"" style=""width:200px; border:14px solid green;"">","null","","","",""
"","image-keyboard-response","293","164567","0.0-293.0","36V4Q8R5ZLMW5YTH4ILV2VN6FJYQMK","A38DHLB88V8DL8","3SBNLSTU6UR0TCQ1NJ03LFGS7YQZDZ","","617.6999999880791","img/animal3.png","76","618.2000000476837","76","1",""
"","html-keyboard-response","294","164868","0.0-294.0","36V4Q8R5ZLMW5YTH4ILV2VN6FJYQMK","A38DHLB88V8DL8","3SBNLSTU6UR0TCQ1NJ03LFGS7YQZDZ","","null","<img src=""img/animal3.png"" style=""width:200px; border:14px solid green;"">","null","","","",""
"","image-keyboard-response","295","165407","0.0-295.0","36V4Q8R5ZLMW5YTH4ILV2VN6FJYQMK","A38DHLB88V8DL8","3SBNLSTU6UR0TCQ1NJ03LFGS7YQZDZ","","538.5999999642372","img/animal1.png","75","539.1999999880791","75","1",""
"","html-keyboard-response","296","165708","0.0-296.0","36V4Q8R5ZLMW5YTH4ILV2VN6FJYQMK","A38DHLB88V8DL8","3SBNLSTU6UR0TCQ1NJ03LFGS7YQZDZ","","null","<img src=""img/animal1.png"" style=""width:200px; border:14px solid green;"">","null","","","",""
"","image-keyboard-response","297","166255","0.0-297.0","36V4Q8R5ZLMW5YTH4ILV2VN6FJYQMK","A38DHLB88V8DL8","3SBNLSTU6UR0TCQ1NJ03LFGS7YQZDZ","","546.1000000238419","img/animal6.png","76","546.6000000238419","76","0",""
"","html-keyboard-response","298","166557","0.0-298.0","36V4Q8R5ZLMW5YTH4ILV2VN6FJYQMK","A38DHLB88V8DL8","3SBNLSTU6UR0TCQ1NJ03LFGS7YQZDZ","","null","<img src=""img/animal6.png"" style=""width:200px;border:14px solid red;"">","null","","","",""
"","image-keyboard-response","299","166967","0.0-299.0","36V4Q8R5ZLMW5YTH4ILV2VN6FJYQMK","A38DHLB88V8DL8","3SBNLSTU6UR0TCQ1NJ03LFGS7YQZDZ","","409.5","img/animal6.png","75","410","75","1",""
"","html-keyboard-response","300","167268","0.0-300.0","36V4Q8R5ZLMW5YTH4ILV2VN6FJYQMK","A38DHLB88V8DL8","3SBNLSTU6UR0TCQ1NJ03LFGS7YQZDZ","","null","<img src=""img/animal6.png"" style=""width:200px; border:14px solid green;"">","null","","","",""
"","image-keyboard-response","301","167719","0.0-301.0","36V4Q8R5ZLMW5YTH4ILV2VN6FJYQMK","A38DHLB88V8DL8","3SBNLSTU6UR0TCQ1NJ03LFGS7YQZDZ","","449.60000002384186","img/animal6.png","75","450","75","0",""
"","html-keyboard-response","302","168020","0.0-302.0","36V4Q8R5ZLMW5YTH4ILV2VN6FJYQMK","A38DHLB88V8DL8","3SBNLSTU6UR0TCQ1NJ03LFGS7YQZDZ","","null","<img src=""img/animal6.png"" style=""width:200px;border:14px solid red;"">","null","","","",""
"","image-keyboard-response","303","168871","0.0-303.0","36V4Q8R5ZLMW5YTH4ILV2VN6FJYQMK","A38DHLB88V8DL8","3SBNLSTU6UR0TCQ1NJ03LFGS7YQZDZ","","850.8000000119209","img/animal1.png","75","851.1000000238419","75","1",""
"","html-keyboard-response","304","169173","0.0-304.0","36V4Q8R5ZLMW5YTH4ILV2VN6FJYQMK","A38DHLB88V8DL8","3SBNLSTU6UR0TCQ1NJ03LFGS7YQZDZ","","null","<img src=""img/animal1.png"" style=""width:200px; border:14px solid green;"">","null","","","",""
"","image-keyboard-response","305","169902","0.0-305.0","36V4Q8R5ZLMW5YTH4ILV2VN6FJYQMK","A38DHLB88V8DL8","3SBNLSTU6UR0TCQ1NJ03LFGS7YQZDZ","","729.3000000119209","img/animal6.png","75","729.9000000357628","75","1",""
"","html-keyboard-response","306","170204","0.0-306.0","36V4Q8R5ZLMW5YTH4ILV2VN6FJYQMK","A38DHLB88V8DL8","3SBNLSTU6UR0TCQ1NJ03LFGS7YQZDZ","","null","<img src=""img/animal6.png"" style=""width:200px; border:14px solid green;"">","null","","","",""
"","image-keyboard-response","307","170831","0.0-307.0","36V4Q8R5ZLMW5YTH4ILV2VN6FJYQMK","A38DHLB88V8DL8","3SBNLSTU6UR0TCQ1NJ03LFGS7YQZDZ","","626.6999999880791","img/animal1.png","75","627","75","1",""
"","html-keyboard-response","308","171136","0.0-308.0","36V4Q8R5ZLMW5YTH4ILV2VN6FJYQMK","A38DHLB88V8DL8","3SBNLSTU6UR0TCQ1NJ03LFGS7YQZDZ","","null","<img src=""img/animal1.png"" style=""width:200px; border:14px solid green;"">","null","","","",""
"","image-keyboard-response","309","171807","0.0-309.0","36V4Q8R5ZLMW5YTH4ILV2VN6FJYQMK","A38DHLB88V8DL8","3SBNLSTU6UR0TCQ1NJ03LFGS7YQZDZ","","669.9000000357628","img/animal3.png","76","670.2999999523163","76","1",""
"","html-keyboard-response","310","172108","0.0-310.0","36V4Q8R5ZLMW5YTH4ILV2VN6FJYQMK","A38DHLB88V8DL8","3SBNLSTU6UR0TCQ1NJ03LFGS7YQZDZ","","null","<img src=""img/animal3.png"" style=""width:200px; border:14px solid green;"">","null","","","",""
"","image-keyboard-response","311","172487","0.0-311.0","36V4Q8R5ZLMW5YTH4ILV2VN6FJYQMK","A38DHLB88V8DL8","3SBNLSTU6UR0TCQ1NJ03LFGS7YQZDZ","","377.89999997615814","img/animal3.png","76","378.5","76","1",""
"","html-keyboard-response","312","172789","0.0-312.0","36V4Q8R5ZLMW5YTH4ILV2VN6FJYQMK","A38DHLB88V8DL8","3SBNLSTU6UR0TCQ1NJ03LFGS7YQZDZ","","null","<img src=""img/animal3.png"" style=""width:200px; border:14px solid green;"">","null","","","",""
"","image-keyboard-response","313","173319","0.0-313.0","36V4Q8R5ZLMW5YTH4ILV2VN6FJYQMK","A38DHLB88V8DL8","3SBNLSTU6UR0TCQ1NJ03LFGS7YQZDZ","","530","img/animal1.png","75","530.5999999642372","75","1",""
"","html-keyboard-response","314","173621","0.0-314.0","36V4Q8R5ZLMW5YTH4ILV2VN6FJYQMK","A38DHLB88V8DL8","3SBNLSTU6UR0TCQ1NJ03LFGS7YQZDZ","","null","<img src=""img/animal1.png"" style=""width:200px; border:14px solid green;"">","null","","","",""
"","image-keyboard-response","315","174279","0.0-315.0","36V4Q8R5ZLMW5YTH4ILV2VN6FJYQMK","A38DHLB88V8DL8","3SBNLSTU6UR0TCQ1NJ03LFGS7YQZDZ","","657.6000000238419","img/animal3.png","76","658.1000000238419","76","1",""
"","html-keyboard-response","316","174581","0.0-316.0","36V4Q8R5ZLMW5YTH4ILV2VN6FJYQMK","A38DHLB88V8DL8","3SBNLSTU6UR0TCQ1NJ03LFGS7YQZDZ","","null","<img src=""img/animal3.png"" style=""width:200px; border:14px solid green;"">","null","","","",""
"","image-keyboard-response","317","175231","0.0-317.0","36V4Q8R5ZLMW5YTH4ILV2VN6FJYQMK","A38DHLB88V8DL8","3SBNLSTU6UR0TCQ1NJ03LFGS7YQZDZ","","649.3999999761581","img/animal6.png","75","649.8999999761581","75","1",""
"","html-keyboard-response","318","175532","0.0-318.0","36V4Q8R5ZLMW5YTH4ILV2VN6FJYQMK","A38DHLB88V8DL8","3SBNLSTU6UR0TCQ1NJ03LFGS7YQZDZ","","null","<img src=""img/animal6.png"" style=""width:200px; border:14px solid green;"">","null","","","",""
"","image-keyboard-response","319","175919","0.0-319.0","36V4Q8R5ZLMW5YTH4ILV2VN6FJYQMK","A38DHLB88V8DL8","3SBNLSTU6UR0TCQ1NJ03LFGS7YQZDZ","","385.89999997615814","img/animal6.png","75","386.4000000357628","75","1",""
"","html-keyboard-response","320","176220","0.0-320.0","36V4Q8R5ZLMW5YTH4ILV2VN6FJYQMK","A38DHLB88V8DL8","3SBNLSTU6UR0TCQ1NJ03LFGS7YQZDZ","","null","<img src=""img/animal6.png"" style=""width:200px; border:14px solid green;"">","null","","","",""
"","image-keyboard-response","321","176855","0.0-321.0","36V4Q8R5ZLMW5YTH4ILV2VN6FJYQMK","A38DHLB88V8DL8","3SBNLSTU6UR0TCQ1NJ03LFGS7YQZDZ","","634.3999999761581","img/animal1.png","75","634.8000000119209","75","1",""
"","html-keyboard-response","322","177157","0.0-322.0","36V4Q8R5ZLMW5YTH4ILV2VN6FJYQMK","A38DHLB88V8DL8","3SBNLSTU6UR0TCQ1NJ03LFGS7YQZDZ","","null","<img src=""img/animal1.png"" style=""width:200px; border:14px solid green;"">","null","","","",""
"","image-keyboard-response","323","177567","0.0-323.0","36V4Q8R5ZLMW5YTH4ILV2VN6FJYQMK","A38DHLB88V8DL8","3SBNLSTU6UR0TCQ1NJ03LFGS7YQZDZ","","410","img/animal1.png","75","410.7000000476837","75","1",""
"","html-keyboard-response","324","177869","0.0-324.0","36V4Q8R5ZLMW5YTH4ILV2VN6FJYQMK","A38DHLB88V8DL8","3SBNLSTU6UR0TCQ1NJ03LFGS7YQZDZ","","null","<img src=""img/animal1.png"" style=""width:200px; border:14px solid green;"">","null","","","",""
"","image-keyboard-response","325","178535","0.0-325.0","36V4Q8R5ZLMW5YTH4ILV2VN6FJYQMK","A38DHLB88V8DL8","3SBNLSTU6UR0TCQ1NJ03LFGS7YQZDZ","","666","img/animal6.png","75","666.3999999761581","75","1",""
"","html-keyboard-response","326","178837","0.0-326.0","36V4Q8R5ZLMW5YTH4ILV2VN6FJYQMK","A38DHLB88V8DL8","3SBNLSTU6UR0TCQ1NJ03LFGS7YQZDZ","","null","<img src=""img/animal6.png"" style=""width:200px; border:14px solid green;"">","null","","","",""
"","image-keyboard-response","327","179463","0.0-327.0","36V4Q8R5ZLMW5YTH4ILV2VN6FJYQMK","A38DHLB88V8DL8","3SBNLSTU6UR0TCQ1NJ03LFGS7YQZDZ","","625.6999999880791","img/animal3.png","76","626.1000000238419","76","1",""
"","html-keyboard-response","328","179764","0.0-328.0","36V4Q8R5ZLMW5YTH4ILV2VN6FJYQMK","A38DHLB88V8DL8","3SBNLSTU6UR0TCQ1NJ03LFGS7YQZDZ","","null","<img src=""img/animal3.png"" style=""width:200px; border:14px solid green;"">","null","","","",""
"","image-keyboard-response","329","180359","0.0-329.0","36V4Q8R5ZLMW5YTH4ILV2VN6FJYQMK","A38DHLB88V8DL8","3SBNLSTU6UR0TCQ1NJ03LFGS7YQZDZ","","594.5999999642372","img/animal1.png","75","595","75","1",""
"","html-keyboard-response","330","180660","0.0-330.0","36V4Q8R5ZLMW5YTH4ILV2VN6FJYQMK","A38DHLB88V8DL8","3SBNLSTU6UR0TCQ1NJ03LFGS7YQZDZ","","null","<img src=""img/animal1.png"" style=""width:200px; border:14px solid green;"">","null","","","",""
"","image-keyboard-response","331","181271","0.0-331.0","36V4Q8R5ZLMW5YTH4ILV2VN6FJYQMK","A38DHLB88V8DL8","3SBNLSTU6UR0TCQ1NJ03LFGS7YQZDZ","","610.3000000119209","img/animal3.png","76","610.8999999761581","76","1",""
"","html-keyboard-response","332","181573","0.0-332.0","36V4Q8R5ZLMW5YTH4ILV2VN6FJYQMK","A38DHLB88V8DL8","3SBNLSTU6UR0TCQ1NJ03LFGS7YQZDZ","","null","<img src=""img/animal3.png"" style=""width:200px; border:14px solid green;"">","null","","","",""
"","image-keyboard-response","333","182071","0.0-333.0","36V4Q8R5ZLMW5YTH4ILV2VN6FJYQMK","A38DHLB88V8DL8","3SBNLSTU6UR0TCQ1NJ03LFGS7YQZDZ","","498.30000001192093","img/animal1.png","75","498.69999998807907","75","1",""
"","html-keyboard-response","334","182373","0.0-334.0","36V4Q8R5ZLMW5YTH4ILV2VN6FJYQMK","A38DHLB88V8DL8","3SBNLSTU6UR0TCQ1NJ03LFGS7YQZDZ","","null","<img src=""img/animal1.png"" style=""width:200px; border:14px solid green;"">","null","","","",""
"","image-keyboard-response","335","183063","0.0-335.0","36V4Q8R5ZLMW5YTH4ILV2VN6FJYQMK","A38DHLB88V8DL8","3SBNLSTU6UR0TCQ1NJ03LFGS7YQZDZ","","689.8000000119209","img/animal6.png","75","690.4000000357628","75","0",""
"","html-keyboard-response","336","183365","0.0-336.0","36V4Q8R5ZLMW5YTH4ILV2VN6FJYQMK","A38DHLB88V8DL8","3SBNLSTU6UR0TCQ1NJ03LFGS7YQZDZ","","null","<img src=""img/animal6.png"" style=""width:200px;border:14px solid red;"">","null","","","",""
"","image-keyboard-response","337","183551","0.0-337.0","36V4Q8R5ZLMW5YTH4ILV2VN6FJYQMK","A38DHLB88V8DL8","3SBNLSTU6UR0TCQ1NJ03LFGS7YQZDZ","","185.69999998807907","img/animal1.png","75","186.19999998807907","75","1",""
"","html-keyboard-response","338","183852","0.0-338.0","36V4Q8R5ZLMW5YTH4ILV2VN6FJYQMK","A38DHLB88V8DL8","3SBNLSTU6UR0TCQ1NJ03LFGS7YQZDZ","","null","<img src=""img/animal1.png"" style=""width:200px; border:14px solid green;"">","null","","","",""
"","image-keyboard-response","339","184583","0.0-339.0","36V4Q8R5ZLMW5YTH4ILV2VN6FJYQMK","A38DHLB88V8DL8","3SBNLSTU6UR0TCQ1NJ03LFGS7YQZDZ","","730.0999999642372","img/animal3.png","76","730.5999999642372","76","1",""
"","html-keyboard-response","340","184885","0.0-340.0","36V4Q8R5ZLMW5YTH4ILV2VN6FJYQMK","A38DHLB88V8DL8","3SBNLSTU6UR0TCQ1NJ03LFGS7YQZDZ","","null","<img src=""img/animal3.png"" style=""width:200px; border:14px solid green;"">","null","","","",""
"","image-keyboard-response","341","185439","0.0-341.0","36V4Q8R5ZLMW5YTH4ILV2VN6FJYQMK","A38DHLB88V8DL8","3SBNLSTU6UR0TCQ1NJ03LFGS7YQZDZ","","554","img/animal1.png","75","554.3999999761581","75","1",""
"","html-keyboard-response","342","185741","0.0-342.0","36V4Q8R5ZLMW5YTH4ILV2VN6FJYQMK","A38DHLB88V8DL8","3SBNLSTU6UR0TCQ1NJ03LFGS7YQZDZ","","null","<img src=""img/animal1.png"" style=""width:200px; border:14px solid green;"">","null","","","",""
"","image-keyboard-response","343","186359","0.0-343.0","36V4Q8R5ZLMW5YTH4ILV2VN6FJYQMK","A38DHLB88V8DL8","3SBNLSTU6UR0TCQ1NJ03LFGS7YQZDZ","","617.5999999642372","img/animal6.png","76","618.0999999642372","76","0",""
"","html-keyboard-response","344","186661","0.0-344.0","36V4Q8R5ZLMW5YTH4ILV2VN6FJYQMK","A38DHLB88V8DL8","3SBNLSTU6UR0TCQ1NJ03LFGS7YQZDZ","","null","<img src=""img/animal6.png"" style=""width:200px;border:14px solid red;"">","null","","","",""
"","image-keyboard-response","345","186983","0.0-345.0","36V4Q8R5ZLMW5YTH4ILV2VN6FJYQMK","A38DHLB88V8DL8","3SBNLSTU6UR0TCQ1NJ03LFGS7YQZDZ","","321.30000001192093","img/animal6.png","75","321.7999999523163","75","1",""
"","html-keyboard-response","346","187286","0.0-346.0","36V4Q8R5ZLMW5YTH4ILV2VN6FJYQMK","A38DHLB88V8DL8","3SBNLSTU6UR0TCQ1NJ03LFGS7YQZDZ","","null","<img src=""img/animal6.png"" style=""width:200px; border:14px solid green;"">","null","","","",""
"","image-keyboard-response","347","187871","0.0-347.0","36V4Q8R5ZLMW5YTH4ILV2VN6FJYQMK","A38DHLB88V8DL8","3SBNLSTU6UR0TCQ1NJ03LFGS7YQZDZ","","584.8999999761581","img/animal3.png","76","585.5","76","1",""
"","html-keyboard-response","348","188173","0.0-348.0","36V4Q8R5ZLMW5YTH4ILV2VN6FJYQMK","A38DHLB88V8DL8","3SBNLSTU6UR0TCQ1NJ03LFGS7YQZDZ","","null","<img src=""img/animal3.png"" style=""width:200px; border:14px solid green;"">","null","","","",""
"","image-keyboard-response","349","189015","0.0-349.0","36V4Q8R5ZLMW5YTH4ILV2VN6FJYQMK","A38DHLB88V8DL8","3SBNLSTU6UR0TCQ1NJ03LFGS7YQZDZ","","841.9000000357628","img/animal6.png","75","842.3999999761581","75","1",""
"","html-keyboard-response","350","189317","0.0-350.0","36V4Q8R5ZLMW5YTH4ILV2VN6FJYQMK","A38DHLB88V8DL8","3SBNLSTU6UR0TCQ1NJ03LFGS7YQZDZ","","null","<img src=""img/animal6.png"" style=""width:200px; border:14px solid green;"">","null","","","",""
"","image-keyboard-response","351","189943","0.0-351.0","36V4Q8R5ZLMW5YTH4ILV2VN6FJYQMK","A38DHLB88V8DL8","3SBNLSTU6UR0TCQ1NJ03LFGS7YQZDZ","","625","img/animal3.png","76","625.4000000357628","76","1",""
"","html-keyboard-response","352","190244","0.0-352.0","36V4Q8R5ZLMW5YTH4ILV2VN6FJYQMK","A38DHLB88V8DL8","3SBNLSTU6UR0TCQ1NJ03LFGS7YQZDZ","","null","<img src=""img/animal3.png"" style=""width:200px; border:14px solid green;"">","null","","","",""
"","image-keyboard-response","353","191015","0.0-353.0","36V4Q8R5ZLMW5YTH4ILV2VN6FJYQMK","A38DHLB88V8DL8","3SBNLSTU6UR0TCQ1NJ03LFGS7YQZDZ","","770.1000000238419","img/animal6.png","75","770.6000000238419","75","1",""
"","html-keyboard-response","354","191323","0.0-354.0","36V4Q8R5ZLMW5YTH4ILV2VN6FJYQMK","A38DHLB88V8DL8","3SBNLSTU6UR0TCQ1NJ03LFGS7YQZDZ","","null","<img src=""img/animal6.png"" style=""width:200px; border:14px solid green;"">","null","","","",""
"","image-keyboard-response","355","191943","0.0-355.0","36V4Q8R5ZLMW5YTH4ILV2VN6FJYQMK","A38DHLB88V8DL8","3SBNLSTU6UR0TCQ1NJ03LFGS7YQZDZ","","619.3000000119209","img/animal1.png","75","619.8999999761581","75","1",""
"","html-keyboard-response","356","192244","0.0-356.0","36V4Q8R5ZLMW5YTH4ILV2VN6FJYQMK","A38DHLB88V8DL8","3SBNLSTU6UR0TCQ1NJ03LFGS7YQZDZ","","null","<img src=""img/animal1.png"" style=""width:200px; border:14px solid green;"">","null","","","",""
"","image-keyboard-response","357","192727","0.0-357.0","36V4Q8R5ZLMW5YTH4ILV2VN6FJYQMK","A38DHLB88V8DL8","3SBNLSTU6UR0TCQ1NJ03LFGS7YQZDZ","","482.39999997615814","img/animal6.png","75","482.80000001192093","75","1",""
"","html-keyboard-response","358","193029","0.0-358.0","36V4Q8R5ZLMW5YTH4ILV2VN6FJYQMK","A38DHLB88V8DL8","3SBNLSTU6UR0TCQ1NJ03LFGS7YQZDZ","","null","<img src=""img/animal6.png"" style=""width:200px; border:14px solid green;"">","null","","","",""
"","image-keyboard-response","359","193958","0.0-359.0","36V4Q8R5ZLMW5YTH4ILV2VN6FJYQMK","A38DHLB88V8DL8","3SBNLSTU6UR0TCQ1NJ03LFGS7YQZDZ","","929.3000000119209","img/animal3.png","76","929.6999999880791","76","1",""
"","html-keyboard-response","360","194259","0.0-360.0","36V4Q8R5ZLMW5YTH4ILV2VN6FJYQMK","A38DHLB88V8DL8","3SBNLSTU6UR0TCQ1NJ03LFGS7YQZDZ","","null","<img src=""img/animal3.png"" style=""width:200px; border:14px solid green;"">","null","","","",""
"","image-keyboard-response","361","194919","0.0-361.0","36V4Q8R5ZLMW5YTH4ILV2VN6FJYQMK","A38DHLB88V8DL8","3SBNLSTU6UR0TCQ1NJ03LFGS7YQZDZ","","659.1000000238419","img/animal6.png","75","659.6000000238419","75","0",""
"","html-keyboard-response","362","195221","0.0-362.0","36V4Q8R5ZLMW5YTH4ILV2VN6FJYQMK","A38DHLB88V8DL8","3SBNLSTU6UR0TCQ1NJ03LFGS7YQZDZ","","null","<img src=""img/animal6.png"" style=""width:200px;border:14px solid red;"">","null","","","",""
"","instructions","363","198979","0.0-363.0","36V4Q8R5ZLMW5YTH4ILV2VN6FJYQMK","A38DHLB88V8DL8","3SBNLSTU6UR0TCQ1NJ03LFGS7YQZDZ","[{""page_index"":0,""viewing_time"":3757.399999976158}]","3757.599999964237","","","","","",""
"","survey-text","364","204833","0.0-364.0","36V4Q8R5ZLMW5YTH4ILV2VN6FJYQMK","A38DHLB88V8DL8","3SBNLSTU6UR0TCQ1NJ03LFGS7YQZDZ","","5853.199999988079","","","","","","{""Q0"":""A38DHLB88V8DL8""}"
