"success","trial_type","trial_index","time_elapsed","internal_node_id","assignmentID","mturkID","hitID","view_history","rt","stimulus","key_press","reactionTime","a","r","s","reward_cond","responses"
"true","fullscreen","0","3054","0.0-0.0","3IAEQB9FMF6YL1JQ3YLYBUIYU86WDZ","A3AJR1PM02424Y","3FW4EL5A3LANKRP91N782LFHPY722Q","","","","","","","","","",""
"","instructions","1","23361","0.0-1.0","3IAEQB9FMF6YL1JQ3YLYBUIYU86WDZ","A3AJR1PM02424Y","3FW4EL5A3LANKRP91N782LFHPY722Q","[{""page_index"":0,""viewing_time"":9602.699999928474},{""page_index"":1,""viewing_time"":1552.8999999761581},{""page_index"":2,""viewing_time"":1596.2000000476837},{""page_index"":3,""viewing_time"":1976.7999999523163},{""page_index"":4,""viewing_time"":1490.5},{""page_index"":5,""viewing_time"":1811},{""page_index"":6,""viewing_time"":1234.8000000715256},{""page_index"":7,""viewing_time"":1040.5}]","20306.299999952316","","","","","","","",""
"","image-keyboard-response","2","24524","0.0-2.0","3IAEQB9FMF6YL1JQ3YLYBUIYU86WDZ","A3AJR1PM02424Y","3FW4EL5A3LANKRP91N782LFHPY722Q","","1161.1999999284744","img/animal5.png","74","1162.7999999523163","1","0","1","0.5,0,1,1,0.5,0,0,1,0.5",""
"","html-keyboard-response","3","24838","0.0-3.0","3IAEQB9FMF6YL1JQ3YLYBUIYU86WDZ","A3AJR1PM02424Y","3FW4EL5A3LANKRP91N782LFHPY722Q","","null","<img src=""img/animal5.png"" style=""width:200px;border:14px solid red;"">","null","","","","","",""
"","image-keyboard-response","4","25525","0.0-4.0","3IAEQB9FMF6YL1JQ3YLYBUIYU86WDZ","A3AJR1PM02424Y","3FW4EL5A3LANKRP91N782LFHPY722Q","","685.5","img/animal4.png","74","686.6999999284744","1","0","3","0.5,0,1,1,0.5,0,0,1,0.5",""
"","html-keyboard-response","5","25832","0.0-5.0","3IAEQB9FMF6YL1JQ3YLYBUIYU86WDZ","A3AJR1PM02424Y","3FW4EL5A3LANKRP91N782LFHPY722Q","","null","<img src=""img/animal4.png"" style=""width:200px;border:14px solid red;"">","null","","","","","",""
"","image-keyboard-response","6","27198","0.0-6.0","3IAEQB9FMF6YL1JQ3YLYBUIYU86WDZ","A3AJR1PM02424Y","3FW4EL5A3LANKRP91N782LFHPY722Q","","1364.8999999761581","img/animal5.png","75","1366","2","0","1","0.5,0,1,1,0.5,0,0,1,0.5",""
"","html-keyboard-response","7","27516","0.0-7.0","3IAEQB9FMF6YL1JQ3YLYBUIYU86WDZ","A3AJR1PM02424Y","3FW4EL5A3LANKRP91N782LFHPY722Q","","null","<img src=""img/animal5.png"" style=""width:200px;border:14px solid red;"">","null","","","","","",""
"","image-keyboard-response","8","28335","0.0-8.0","3IAEQB9FMF6YL1JQ3YLYBUIYU86WDZ","A3AJR1PM02424Y","3FW4EL5A3LANKRP91N782LFHPY722Q","","817.7999999523163","img/animal2.png","74","818.7999999523163","1","1","2","0.5,0,1,1,0.5,0,0,1,0.5",""
"","html-keyboard-response","9","28652","0.0-9.0","3IAEQB9FMF6YL1JQ3YLYBUIYU86WDZ","A3AJR1PM02424Y","3FW4EL5A3LANKRP91N782LFHPY722Q","","null","<img src=""img/animal2.png"" style=""width:200px; border:14px solid green;"">","null","","","","","",""
"","image-keyboard-response","10","29775","0.0-10.0","3IAEQB9FMF6YL1JQ3YLYBUIYU86WDZ","A3AJR1PM02424Y","3FW4EL5A3LANKRP91N782LFHPY722Q","","1121.3999999761581","img/animal4.png","76","1122.8999999761581","3","0","3","0.5,0,1,1,0.5,0,0,1,0.5",""
"","html-keyboard-response","11","30077","0.0-11.0","3IAEQB9FMF6YL1JQ3YLYBUIYU86WDZ","A3AJR1PM02424Y","3FW4EL5A3LANKRP91N782LFHPY722Q","","null","<img src=""img/animal4.png"" style=""width:200px;border:14px solid red;"">","null","","","","","",""
"","image-keyboard-response","12","30596","0.0-12.0","3IAEQB9FMF6YL1JQ3YLYBUIYU86WDZ","A3AJR1PM02424Y","3FW4EL5A3LANKRP91N782LFHPY722Q","","518.2999999523163","img/animal4.png","75","519.2999999523163","2","1","3","0.5,0,1,1,0.5,0,0,1,0.5",""
"","html-keyboard-response","13","30900","0.0-13.0","3IAEQB9FMF6YL1JQ3YLYBUIYU86WDZ","A3AJR1PM02424Y","3FW4EL5A3LANKRP91N782LFHPY722Q","","null","<img src=""img/animal4.png"" style=""width:200px; border:14px solid green;"">","null","","","","","",""
"","image-keyboard-response","14","31835","0.0-14.0","3IAEQB9FMF6YL1JQ3YLYBUIYU86WDZ","A3AJR1PM02424Y","3FW4EL5A3LANKRP91N782LFHPY722Q","","934","img/animal4.png","75","935.5","2","1","3","0.5,0,1,1,0.5,0,0,1,0.5",""
"","html-keyboard-response","15","32146","0.0-15.0","3IAEQB9FMF6YL1JQ3YLYBUIYU86WDZ","A3AJR1PM02424Y","3FW4EL5A3LANKRP91N782LFHPY722Q","","null","<img src=""img/animal4.png"" style=""width:200px; border:14px solid green;"">","null","","","","","",""
"","image-keyboard-response","16","32843","0.0-16.0","3IAEQB9FMF6YL1JQ3YLYBUIYU86WDZ","A3AJR1PM02424Y","3FW4EL5A3LANKRP91N782LFHPY722Q","","694.8999999761581","img/animal4.png","75","696.1999999284744","2","1","3","0.5,0,1,1,0.5,0,0,1,0.5",""
"","html-keyboard-response","17","33150","0.0-17.0","3IAEQB9FMF6YL1JQ3YLYBUIYU86WDZ","A3AJR1PM02424Y","3FW4EL5A3LANKRP91N782LFHPY722Q","","null","<img src=""img/animal4.png"" style=""width:200px; border:14px solid green;"">","null","","","","","",""
"","image-keyboard-response","18","33537","0.0-18.0","3IAEQB9FMF6YL1JQ3YLYBUIYU86WDZ","A3AJR1PM02424Y","3FW4EL5A3LANKRP91N782LFHPY722Q","","383.7999999523163","img/animal4.png","75","385.60000002384186","2","1","3","0.5,0,1,1,0.5,0,0,1,0.5",""
"","html-keyboard-response","19","33843","0.0-19.0","3IAEQB9FMF6YL1JQ3YLYBUIYU86WDZ","A3AJR1PM02424Y","3FW4EL5A3LANKRP91N782LFHPY722Q","","null","<img src=""img/animal4.png"" style=""width:200px; border:14px solid green;"">","null","","","","","",""
"","image-keyboard-response","20","34717","0.0-20.0","3IAEQB9FMF6YL1JQ3YLYBUIYU86WDZ","A3AJR1PM02424Y","3FW4EL5A3LANKRP91N782LFHPY722Q","","871.4000000953674","img/animal5.png","76","873.7000000476837","3","1","1","0.5,0,1,1,0.5,0,0,1,0.5",""
"","html-keyboard-response","21","35024","0.0-21.0","3IAEQB9FMF6YL1JQ3YLYBUIYU86WDZ","A3AJR1PM02424Y","3FW4EL5A3LANKRP91N782LFHPY722Q","","null","<img src=""img/animal5.png"" style=""width:200px; border:14px solid green;"">","null","","","","","",""
"","image-keyboard-response","22","35653","0.0-22.0","3IAEQB9FMF6YL1JQ3YLYBUIYU86WDZ","A3AJR1PM02424Y","3FW4EL5A3LANKRP91N782LFHPY722Q","","626.8000000715256","img/animal2.png","74","628.2999999523163","1","1","2","0.5,0,1,1,0.5,0,0,1,0.5",""
"","html-keyboard-response","23","35958","0.0-23.0","3IAEQB9FMF6YL1JQ3YLYBUIYU86WDZ","A3AJR1PM02424Y","3FW4EL5A3LANKRP91N782LFHPY722Q","","null","<img src=""img/animal2.png"" style=""width:200px; border:14px solid green;"">","null","","","","","",""
"","image-keyboard-response","24","36598","0.0-24.0","3IAEQB9FMF6YL1JQ3YLYBUIYU86WDZ","A3AJR1PM02424Y","3FW4EL5A3LANKRP91N782LFHPY722Q","","639.2999999523163","img/animal5.png","76","640.7000000476837","3","1","1","0.5,0,1,1,0.5,0,0,1,0.5",""
"","html-keyboard-response","25","36912","0.0-25.0","3IAEQB9FMF6YL1JQ3YLYBUIYU86WDZ","A3AJR1PM02424Y","3FW4EL5A3LANKRP91N782LFHPY722Q","","null","<img src=""img/animal5.png"" style=""width:200px; border:14px solid green;"">","null","","","","","",""
"","image-keyboard-response","26","37602","0.0-26.0","3IAEQB9FMF6YL1JQ3YLYBUIYU86WDZ","A3AJR1PM02424Y","3FW4EL5A3LANKRP91N782LFHPY722Q","","688.3999999761581","img/animal5.png","76","689.2999999523163","3","1","1","0.5,0,1,1,0.5,0,0,1,0.5",""
"","html-keyboard-response","27","37917","0.0-27.0","3IAEQB9FMF6YL1JQ3YLYBUIYU86WDZ","A3AJR1PM02424Y","3FW4EL5A3LANKRP91N782LFHPY722Q","","null","<img src=""img/animal5.png"" style=""width:200px; border:14px solid green;"">","null","","","","","",""
"","image-keyboard-response","28","38507","0.0-28.0","3IAEQB9FMF6YL1JQ3YLYBUIYU86WDZ","A3AJR1PM02424Y","3FW4EL5A3LANKRP91N782LFHPY722Q","","588.8000000715256","img/animal4.png","75","590","2","1","3","0.5,0,1,1,0.5,0,0,1,0.5",""
"","html-keyboard-response","29","38811","0.0-29.0","3IAEQB9FMF6YL1JQ3YLYBUIYU86WDZ","A3AJR1PM02424Y","3FW4EL5A3LANKRP91N782LFHPY722Q","","null","<img src=""img/animal4.png"" style=""width:200px; border:14px solid green;"">","null","","","","","",""
"","image-keyboard-response","30","39205","0.0-30.0","3IAEQB9FMF6YL1JQ3YLYBUIYU86WDZ","A3AJR1PM02424Y","3FW4EL5A3LANKRP91N782LFHPY722Q","","393","img/animal4.png","75","394.39999997615814","2","1","3","0.5,0,1,1,0.5,0,0,1,0.5",""
"","html-keyboard-response","31","39516","0.0-31.0","3IAEQB9FMF6YL1JQ3YLYBUIYU86WDZ","A3AJR1PM02424Y","3FW4EL5A3LANKRP91N782LFHPY722Q","","null","<img src=""img/animal4.png"" style=""width:200px; border:14px solid green;"">","null","","","","","",""
"","image-keyboard-response","32","40446","0.0-32.0","3IAEQB9FMF6YL1JQ3YLYBUIYU86WDZ","A3AJR1PM02424Y","3FW4EL5A3LANKRP91N782LFHPY722Q","","927.3999999761581","img/animal4.png","75","929.5","2","1","3","0.5,0,1,1,0.5,0,0,1,0.5",""
"","html-keyboard-response","33","40756","0.0-33.0","3IAEQB9FMF6YL1JQ3YLYBUIYU86WDZ","A3AJR1PM02424Y","3FW4EL5A3LANKRP91N782LFHPY722Q","","null","<img src=""img/animal4.png"" style=""width:200px; border:14px solid green;"">","null","","","","","",""
"","image-keyboard-response","34","41200","0.0-34.0","3IAEQB9FMF6YL1JQ3YLYBUIYU86WDZ","A3AJR1PM02424Y","3FW4EL5A3LANKRP91N782LFHPY722Q","","441.5","img/animal4.png","75","443.7000000476837","2","1","3","0.5,0,1,1,0.5,0,0,1,0.5",""
"","html-keyboard-response","35","41507","0.0-35.0","3IAEQB9FMF6YL1JQ3YLYBUIYU86WDZ","A3AJR1PM02424Y","3FW4EL5A3LANKRP91N782LFHPY722Q","","null","<img src=""img/animal4.png"" style=""width:200px; border:14px solid green;"">","null","","","","","",""
"","image-keyboard-response","36","42070","0.0-36.0","3IAEQB9FMF6YL1JQ3YLYBUIYU86WDZ","A3AJR1PM02424Y","3FW4EL5A3LANKRP91N782LFHPY722Q","","561.1000000238419","img/animal2.png","74","562.7000000476837","1","1","2","0.5,0,1,1,0.5,0,0,1,0.5",""
"","html-keyboard-response","37","42374","0.0-37.0","3IAEQB9FMF6YL1JQ3YLYBUIYU86WDZ","A3AJR1PM02424Y","3FW4EL5A3LANKRP91N782LFHPY722Q","","null","<img src=""img/animal2.png"" style=""width:200px; border:14px solid green;"">","null","","","","","",""
"","image-keyboard-response","38","43105","0.0-38.0","3IAEQB9FMF6YL1JQ3YLYBUIYU86WDZ","A3AJR1PM02424Y","3FW4EL5A3LANKRP91N782LFHPY722Q","","728.9000000953674","img/animal5.png","76","730.7000000476837","3","1","1","0.5,0,1,1,0.5,0,0,1,0.5",""
"","html-keyboard-response","39","43408","0.0-39.0","3IAEQB9FMF6YL1JQ3YLYBUIYU86WDZ","A3AJR1PM02424Y","3FW4EL5A3LANKRP91N782LFHPY722Q","","null","<img src=""img/animal5.png"" style=""width:200px; border:14px solid green;"">","null","","","","","",""
"","image-keyboard-response","40","44209","0.0-40.0","3IAEQB9FMF6YL1JQ3YLYBUIYU86WDZ","A3AJR1PM02424Y","3FW4EL5A3LANKRP91N782LFHPY722Q","","798.7999999523163","img/animal5.png","76","801","3","1","1","0.5,0,1,1,0.5,0,0,1,0.5",""
"","html-keyboard-response","41","44519","0.0-41.0","3IAEQB9FMF6YL1JQ3YLYBUIYU86WDZ","A3AJR1PM02424Y","3FW4EL5A3LANKRP91N782LFHPY722Q","","null","<img src=""img/animal5.png"" style=""width:200px; border:14px solid green;"">","null","","","","","",""
"","image-keyboard-response","42","45411","0.0-42.0","3IAEQB9FMF6YL1JQ3YLYBUIYU86WDZ","A3AJR1PM02424Y","3FW4EL5A3LANKRP91N782LFHPY722Q","","890.6000000238419","img/animal4.png","75","892.2000000476837","2","1","3","0.5,0,1,1,0.5,0,0,1,0.5",""
"","html-keyboard-response","43","45720","0.0-43.0","3IAEQB9FMF6YL1JQ3YLYBUIYU86WDZ","A3AJR1PM02424Y","3FW4EL5A3LANKRP91N782LFHPY722Q","","null","<img src=""img/animal4.png"" style=""width:200px; border:14px solid green;"">","null","","","","","",""
"","image-keyboard-response","44","46585","0.0-44.0","3IAEQB9FMF6YL1JQ3YLYBUIYU86WDZ","A3AJR1PM02424Y","3FW4EL5A3LANKRP91N782LFHPY722Q","","862.7000000476837","img/animal4.png","75","864.2000000476837","2","1","3","0.5,0,1,1,0.5,0,0,1,0.5",""
"","html-keyboard-response","45","46890","0.0-45.0","3IAEQB9FMF6YL1JQ3YLYBUIYU86WDZ","A3AJR1PM02424Y","3FW4EL5A3LANKRP91N782LFHPY722Q","","null","<img src=""img/animal4.png"" style=""width:200px; border:14px solid green;"">","null","","","","","",""
"","image-keyboard-response","46","47429","0.0-46.0","3IAEQB9FMF6YL1JQ3YLYBUIYU86WDZ","A3AJR1PM02424Y","3FW4EL5A3LANKRP91N782LFHPY722Q","","538.1000000238419","img/animal2.png","74","539.1999999284744","1","1","2","0.5,0,1,1,0.5,0,0,1,0.5",""
"","html-keyboard-response","47","47731","0.0-47.0","3IAEQB9FMF6YL1JQ3YLYBUIYU86WDZ","A3AJR1PM02424Y","3FW4EL5A3LANKRP91N782LFHPY722Q","","null","<img src=""img/animal2.png"" style=""width:200px; border:14px solid green;"">","null","","","","","",""
"","image-keyboard-response","48","48283","0.0-48.0","3IAEQB9FMF6YL1JQ3YLYBUIYU86WDZ","A3AJR1PM02424Y","3FW4EL5A3LANKRP91N782LFHPY722Q","","549.5999999046326","img/animal5.png","74","551.7000000476837","1","1","1","0.5,0,1,1,0.5,0,0,1,0.5",""
"","html-keyboard-response","49","48595","0.0-49.0","3IAEQB9FMF6YL1JQ3YLYBUIYU86WDZ","A3AJR1PM02424Y","3FW4EL5A3LANKRP91N782LFHPY722Q","","null","<img src=""img/animal5.png"" style=""width:200px; border:14px solid green;"">","null","","","","","",""
"","image-keyboard-response","50","51397","0.0-50.0","3IAEQB9FMF6YL1JQ3YLYBUIYU86WDZ","A3AJR1PM02424Y","3FW4EL5A3LANKRP91N782LFHPY722Q","","2801","img/animal5.png","76","2801.9000000953674","3","1","1","0.5,0,1,1,0.5,0,0,1,0.5",""
"","html-keyboard-response","51","51700","0.0-51.0","3IAEQB9FMF6YL1JQ3YLYBUIYU86WDZ","A3AJR1PM02424Y","3FW4EL5A3LANKRP91N782LFHPY722Q","","null","<img src=""img/animal5.png"" style=""width:200px; border:14px solid green;"">","null","","","","","",""
"","image-keyboard-response","52","52438","0.0-52.0","3IAEQB9FMF6YL1JQ3YLYBUIYU86WDZ","A3AJR1PM02424Y","3FW4EL5A3LANKRP91N782LFHPY722Q","","736.5999999046326","img/animal4.png","75","737.8999999761581","2","1","3","0.5,0,1,1,0.5,0,0,1,0.5",""
"","html-keyboard-response","53","52749","0.0-53.0","3IAEQB9FMF6YL1JQ3YLYBUIYU86WDZ","A3AJR1PM02424Y","3FW4EL5A3LANKRP91N782LFHPY722Q","","null","<img src=""img/animal4.png"" style=""width:200px; border:14px solid green;"">","null","","","","","",""
"","image-keyboard-response","54","54145","0.0-54.0","3IAEQB9FMF6YL1JQ3YLYBUIYU86WDZ","A3AJR1PM02424Y","3FW4EL5A3LANKRP91N782LFHPY722Q","","1394.6999999284744","img/animal5.png","76","1396.2000000476837","3","1","1","0.5,0,1,1,0.5,0,0,1,0.5",""
"","html-keyboard-response","55","54450","0.0-55.0","3IAEQB9FMF6YL1JQ3YLYBUIYU86WDZ","A3AJR1PM02424Y","3FW4EL5A3LANKRP91N782LFHPY722Q","","null","<img src=""img/animal5.png"" style=""width:200px; border:14px solid green;"">","null","","","","","",""
"","image-keyboard-response","56","55373","0.0-56.0","3IAEQB9FMF6YL1JQ3YLYBUIYU86WDZ","A3AJR1PM02424Y","3FW4EL5A3LANKRP91N782LFHPY722Q","","922.1000000238419","img/animal5.png","74","923","1","1","1","0.5,0,1,1,0.5,0,0,1,0.5",""
"","html-keyboard-response","57","55690","0.0-57.0","3IAEQB9FMF6YL1JQ3YLYBUIYU86WDZ","A3AJR1PM02424Y","3FW4EL5A3LANKRP91N782LFHPY722Q","","null","<img src=""img/animal5.png"" style=""width:200px; border:14px solid green;"">","null","","","","","",""
"","image-keyboard-response","58","56393","0.0-58.0","3IAEQB9FMF6YL1JQ3YLYBUIYU86WDZ","A3AJR1PM02424Y","3FW4EL5A3LANKRP91N782LFHPY722Q","","701.4000000953674","img/animal2.png","74","703.1000000238419","1","1","2","0.5,0,1,1,0.5,0,0,1,0.5",""
"","html-keyboard-response","59","56700","0.0-59.0","3IAEQB9FMF6YL1JQ3YLYBUIYU86WDZ","A3AJR1PM02424Y","3FW4EL5A3LANKRP91N782LFHPY722Q","","null","<img src=""img/animal2.png"" style=""width:200px; border:14px solid green;"">","null","","","","","",""
"","image-keyboard-response","60","59394","0.0-60.0","3IAEQB9FMF6YL1JQ3YLYBUIYU86WDZ","A3AJR1PM02424Y","3FW4EL5A3LANKRP91N782LFHPY722Q","","2692.2999999523163","img/animal5.png","76","2693.3000000715256","3","1","1","0.5,0,1,1,0.5,0,0,1,0.5",""
"","html-keyboard-response","61","59707","0.0-61.0","3IAEQB9FMF6YL1JQ3YLYBUIYU86WDZ","A3AJR1PM02424Y","3FW4EL5A3LANKRP91N782LFHPY722Q","","null","<img src=""img/animal5.png"" style=""width:200px; border:14px solid green;"">","null","","","","","",""
"","image-keyboard-response","62","60353","0.0-62.0","3IAEQB9FMF6YL1JQ3YLYBUIYU86WDZ","A3AJR1PM02424Y","3FW4EL5A3LANKRP91N782LFHPY722Q","","643.3000000715256","img/animal4.png","75","645.3999999761581","2","1","3","0.5,0,1,1,0.5,0,0,1,0.5",""
"","html-keyboard-response","63","60661","0.0-63.0","3IAEQB9FMF6YL1JQ3YLYBUIYU86WDZ","A3AJR1PM02424Y","3FW4EL5A3LANKRP91N782LFHPY722Q","","null","<img src=""img/animal4.png"" style=""width:200px; border:14px solid green;"">","null","","","","","",""
"","image-keyboard-response","64","61303","0.0-64.0","3IAEQB9FMF6YL1JQ3YLYBUIYU86WDZ","A3AJR1PM02424Y","3FW4EL5A3LANKRP91N782LFHPY722Q","","641.1000000238419","img/animal2.png","74","642.1000000238419","1","1","2","0.5,0,1,1,0.5,0,0,1,0.5",""
"","html-keyboard-response","65","61607","0.0-65.0","3IAEQB9FMF6YL1JQ3YLYBUIYU86WDZ","A3AJR1PM02424Y","3FW4EL5A3LANKRP91N782LFHPY722Q","","null","<img src=""img/animal2.png"" style=""width:200px; border:14px solid green;"">","null","","","","","",""
"","image-keyboard-response","66","64410","0.0-66.0","3IAEQB9FMF6YL1JQ3YLYBUIYU86WDZ","A3AJR1PM02424Y","3FW4EL5A3LANKRP91N782LFHPY722Q","","2801.600000023842","img/animal5.png","76","2803.1999999284744","3","1","1","0.5,0,1,1,0.5,0,0,1,0.5",""
"","html-keyboard-response","67","64713","0.0-67.0","3IAEQB9FMF6YL1JQ3YLYBUIYU86WDZ","A3AJR1PM02424Y","3FW4EL5A3LANKRP91N782LFHPY722Q","","null","<img src=""img/animal5.png"" style=""width:200px; border:14px solid green;"">","null","","","","","",""
"","image-keyboard-response","68","65236","0.0-68.0","3IAEQB9FMF6YL1JQ3YLYBUIYU86WDZ","A3AJR1PM02424Y","3FW4EL5A3LANKRP91N782LFHPY722Q","","521.2000000476837","img/animal2.png","74","522.7999999523163","1","1","2","0.5,0,1,1,0.5,0,0,1,0.5",""
"","html-keyboard-response","69","65540","0.0-69.0","3IAEQB9FMF6YL1JQ3YLYBUIYU86WDZ","A3AJR1PM02424Y","3FW4EL5A3LANKRP91N782LFHPY722Q","","null","<img src=""img/animal2.png"" style=""width:200px; border:14px solid green;"">","null","","","","","",""
"","image-keyboard-response","70","66320","0.0-70.0","3IAEQB9FMF6YL1JQ3YLYBUIYU86WDZ","A3AJR1PM02424Y","3FW4EL5A3LANKRP91N782LFHPY722Q","","778.9000000953674","img/animal5.png","76","780.1999999284744","3","1","1","0.5,0,1,1,0.5,0,0,1,0.5",""
"","html-keyboard-response","71","66627","0.0-71.0","3IAEQB9FMF6YL1JQ3YLYBUIYU86WDZ","A3AJR1PM02424Y","3FW4EL5A3LANKRP91N782LFHPY722Q","","null","<img src=""img/animal5.png"" style=""width:200px; border:14px solid green;"">","null","","","","","",""
"","image-keyboard-response","72","67161","0.0-72.0","3IAEQB9FMF6YL1JQ3YLYBUIYU86WDZ","A3AJR1PM02424Y","3FW4EL5A3LANKRP91N782LFHPY722Q","","533.1000000238419","img/animal2.png","74","534.1000000238419","1","1","2","0.5,0,1,1,0.5,0,0,1,0.5",""
"","html-keyboard-response","73","67471","0.0-73.0","3IAEQB9FMF6YL1JQ3YLYBUIYU86WDZ","A3AJR1PM02424Y","3FW4EL5A3LANKRP91N782LFHPY722Q","","null","<img src=""img/animal2.png"" style=""width:200px; border:14px solid green;"">","null","","","","","",""
"","image-keyboard-response","74","68058","0.0-74.0","3IAEQB9FMF6YL1JQ3YLYBUIYU86WDZ","A3AJR1PM02424Y","3FW4EL5A3LANKRP91N782LFHPY722Q","","585.8000000715256","img/animal4.png","75","587.1000000238419","2","1","3","0.5,0,1,1,0.5,0,0,1,0.5",""
"","html-keyboard-response","75","68361","0.0-75.0","3IAEQB9FMF6YL1JQ3YLYBUIYU86WDZ","A3AJR1PM02424Y","3FW4EL5A3LANKRP91N782LFHPY722Q","","null","<img src=""img/animal4.png"" style=""width:200px; border:14px solid green;"">","null","","","","","",""
"","image-keyboard-response","76","68994","0.0-76.0","3IAEQB9FMF6YL1JQ3YLYBUIYU86WDZ","A3AJR1PM02424Y","3FW4EL5A3LANKRP91N782LFHPY722Q","","632.1000000238419","img/animal5.png","76","633.1000000238419","3","1","1","0.5,0,1,1,0.5,0,0,1,0.5",""
"","html-keyboard-response","77","69300","0.0-77.0","3IAEQB9FMF6YL1JQ3YLYBUIYU86WDZ","A3AJR1PM02424Y","3FW4EL5A3LANKRP91N782LFHPY722Q","","null","<img src=""img/animal5.png"" style=""width:200px; border:14px solid green;"">","null","","","","","",""
"","image-keyboard-response","78","70117","0.0-78.0","3IAEQB9FMF6YL1JQ3YLYBUIYU86WDZ","A3AJR1PM02424Y","3FW4EL5A3LANKRP91N782LFHPY722Q","","816.5","img/animal2.png","74","817.3999999761581","1","1","2","0.5,0,1,1,0.5,0,0,1,0.5",""
"","html-keyboard-response","79","70423","0.0-79.0","3IAEQB9FMF6YL1JQ3YLYBUIYU86WDZ","A3AJR1PM02424Y","3FW4EL5A3LANKRP91N782LFHPY722Q","","null","<img src=""img/animal2.png"" style=""width:200px; border:14px solid green;"">","null","","","","","",""
"","image-keyboard-response","80","71034","0.0-80.0","3IAEQB9FMF6YL1JQ3YLYBUIYU86WDZ","A3AJR1PM02424Y","3FW4EL5A3LANKRP91N782LFHPY722Q","","610.5","img/animal2.png","74","611.3999999761581","1","1","2","0.5,0,1,1,0.5,0,0,1,0.5",""
"","html-keyboard-response","81","71340","0.0-81.0","3IAEQB9FMF6YL1JQ3YLYBUIYU86WDZ","A3AJR1PM02424Y","3FW4EL5A3LANKRP91N782LFHPY722Q","","null","<img src=""img/animal2.png"" style=""width:200px; border:14px solid green;"">","null","","","","","",""
"","image-keyboard-response","82","71944","0.0-82.0","3IAEQB9FMF6YL1JQ3YLYBUIYU86WDZ","A3AJR1PM02424Y","3FW4EL5A3LANKRP91N782LFHPY722Q","","602.2999999523163","img/animal5.png","76","604","3","1","1","0.5,0,1,1,0.5,0,0,1,0.5",""
"","html-keyboard-response","83","72251","0.0-83.0","3IAEQB9FMF6YL1JQ3YLYBUIYU86WDZ","A3AJR1PM02424Y","3FW4EL5A3LANKRP91N782LFHPY722Q","","null","<img src=""img/animal5.png"" style=""width:200px; border:14px solid green;"">","null","","","","","",""
"","image-keyboard-response","84","72868","0.0-84.0","3IAEQB9FMF6YL1JQ3YLYBUIYU86WDZ","A3AJR1PM02424Y","3FW4EL5A3LANKRP91N782LFHPY722Q","","615","img/animal5.png","76","616.5","3","1","1","0.5,0,1,1,0.5,0,0,1,0.5",""
"","html-keyboard-response","85","73175","0.0-85.0","3IAEQB9FMF6YL1JQ3YLYBUIYU86WDZ","A3AJR1PM02424Y","3FW4EL5A3LANKRP91N782LFHPY722Q","","null","<img src=""img/animal5.png"" style=""width:200px; border:14px solid green;"">","null","","","","","",""
"","image-keyboard-response","86","73657","0.0-86.0","3IAEQB9FMF6YL1JQ3YLYBUIYU86WDZ","A3AJR1PM02424Y","3FW4EL5A3LANKRP91N782LFHPY722Q","","480.3000000715256","img/animal2.png","74","481.2999999523163","1","1","2","0.5,0,1,1,0.5,0,0,1,0.5",""
"","html-keyboard-response","87","73964","0.0-87.0","3IAEQB9FMF6YL1JQ3YLYBUIYU86WDZ","A3AJR1PM02424Y","3FW4EL5A3LANKRP91N782LFHPY722Q","","null","<img src=""img/animal2.png"" style=""width:200px; border:14px solid green;"">","null","","","","","",""
"","image-keyboard-response","88","74492","0.0-88.0","3IAEQB9FMF6YL1JQ3YLYBUIYU86WDZ","A3AJR1PM02424Y","3FW4EL5A3LANKRP91N782LFHPY722Q","","526.6000000238419","img/animal5.png","76","528","3","1","1","0.5,0,1,1,0.5,0,0,1,0.5",""
"","html-keyboard-response","89","74798","0.0-89.0","3IAEQB9FMF6YL1JQ3YLYBUIYU86WDZ","A3AJR1PM02424Y","3FW4EL5A3LANKRP91N782LFHPY722Q","","null","<img src=""img/animal5.png"" style=""width:200px; border:14px solid green;"">","null","","","","","",""
"","image-keyboard-response","90","75421","0.0-90.0","3IAEQB9FMF6YL1JQ3YLYBUIYU86WDZ","A3AJR1PM02424Y","3FW4EL5A3LANKRP91N782LFHPY722Q","","619.8999999761581","img/animal4.png","75","622.2000000476837","2","1","3","0.5,0,1,1,0.5,0,0,1,0.5",""
"","html-keyboard-response","91","75729","0.0-91.0","3IAEQB9FMF6YL1JQ3YLYBUIYU86WDZ","A3AJR1PM02424Y","3FW4EL5A3LANKRP91N782LFHPY722Q","","null","<img src=""img/animal4.png"" style=""width:200px; border:14px solid green;"">","null","","","","","",""
"","image-keyboard-response","92","76346","0.0-92.0","3IAEQB9FMF6YL1JQ3YLYBUIYU86WDZ","A3AJR1PM02424Y","3FW4EL5A3LANKRP91N782LFHPY722Q","","615.8999999761581","img/animal4.png","75","616.8999999761581","2","1","3","0.5,0,1,1,0.5,0,0,1,0.5",""
"","html-keyboard-response","93","76664","0.0-93.0","3IAEQB9FMF6YL1JQ3YLYBUIYU86WDZ","A3AJR1PM02424Y","3FW4EL5A3LANKRP91N782LFHPY722Q","","null","<img src=""img/animal4.png"" style=""width:200px; border:14px solid green;"">","null","","","","","",""
"","image-keyboard-response","94","77180","0.0-94.0","3IAEQB9FMF6YL1JQ3YLYBUIYU86WDZ","A3AJR1PM02424Y","3FW4EL5A3LANKRP91N782LFHPY722Q","","513.8000000715256","img/animal4.png","75","515.7999999523163","2","1","3","0.5,0,1,1,0.5,0,0,1,0.5",""
"","html-keyboard-response","95","77486","0.0-95.0","3IAEQB9FMF6YL1JQ3YLYBUIYU86WDZ","A3AJR1PM02424Y","3FW4EL5A3LANKRP91N782LFHPY722Q","","null","<img src=""img/animal4.png"" style=""width:200px; border:14px solid green;"">","null","","","","","",""
"","image-keyboard-response","96","78229","0.0-96.0","3IAEQB9FMF6YL1JQ3YLYBUIYU86WDZ","A3AJR1PM02424Y","3FW4EL5A3LANKRP91N782LFHPY722Q","","741.3999999761581","img/animal5.png","76","742.7000000476837","3","1","1","0.5,0,1,1,0.5,0,0,1,0.5",""
"","html-keyboard-response","97","78534","0.0-97.0","3IAEQB9FMF6YL1JQ3YLYBUIYU86WDZ","A3AJR1PM02424Y","3FW4EL5A3LANKRP91N782LFHPY722Q","","null","<img src=""img/animal5.png"" style=""width:200px; border:14px solid green;"">","null","","","","","",""
"","image-keyboard-response","98","79095","0.0-98.0","3IAEQB9FMF6YL1JQ3YLYBUIYU86WDZ","A3AJR1PM02424Y","3FW4EL5A3LANKRP91N782LFHPY722Q","","560.3999999761581","img/animal5.png","76","561.2000000476837","3","1","1","0.5,0,1,1,0.5,0,0,1,0.5",""
"","html-keyboard-response","99","79404","0.0-99.0","3IAEQB9FMF6YL1JQ3YLYBUIYU86WDZ","A3AJR1PM02424Y","3FW4EL5A3LANKRP91N782LFHPY722Q","","null","<img src=""img/animal5.png"" style=""width:200px; border:14px solid green;"">","null","","","","","",""
"","image-keyboard-response","100","79974","0.0-100.0","3IAEQB9FMF6YL1JQ3YLYBUIYU86WDZ","A3AJR1PM02424Y","3FW4EL5A3LANKRP91N782LFHPY722Q","","568.3999999761581","img/animal2.png","74","569.7000000476837","1","1","2","0.5,0,1,1,0.5,0,0,1,0.5",""
"","html-keyboard-response","101","80282","0.0-101.0","3IAEQB9FMF6YL1JQ3YLYBUIYU86WDZ","A3AJR1PM02424Y","3FW4EL5A3LANKRP91N782LFHPY722Q","","null","<img src=""img/animal2.png"" style=""width:200px; border:14px solid green;"">","null","","","","","",""
"","image-keyboard-response","102","80746","0.0-102.0","3IAEQB9FMF6YL1JQ3YLYBUIYU86WDZ","A3AJR1PM02424Y","3FW4EL5A3LANKRP91N782LFHPY722Q","","462.7999999523163","img/animal2.png","74","464.10000002384186","1","1","2","0.5,0,1,1,0.5,0,0,1,0.5",""
"","html-keyboard-response","103","81052","0.0-103.0","3IAEQB9FMF6YL1JQ3YLYBUIYU86WDZ","A3AJR1PM02424Y","3FW4EL5A3LANKRP91N782LFHPY722Q","","null","<img src=""img/animal2.png"" style=""width:200px; border:14px solid green;"">","null","","","","","",""
"","image-keyboard-response","104","81682","0.0-104.0","3IAEQB9FMF6YL1JQ3YLYBUIYU86WDZ","A3AJR1PM02424Y","3FW4EL5A3LANKRP91N782LFHPY722Q","","627.6999999284744","img/animal2.png","74","629.7999999523163","1","1","2","0.5,0,1,1,0.5,0,0,1,0.5",""
"","html-keyboard-response","105","81991","0.0-105.0","3IAEQB9FMF6YL1JQ3YLYBUIYU86WDZ","A3AJR1PM02424Y","3FW4EL5A3LANKRP91N782LFHPY722Q","","null","<img src=""img/animal2.png"" style=""width:200px; border:14px solid green;"">","null","","","","","",""
"","image-keyboard-response","106","82473","0.0-106.0","3IAEQB9FMF6YL1JQ3YLYBUIYU86WDZ","A3AJR1PM02424Y","3FW4EL5A3LANKRP91N782LFHPY722Q","","479.89999997615814","img/animal4.png","75","481.5","2","1","3","0.5,0,1,1,0.5,0,0,1,0.5",""
"","html-keyboard-response","107","82782","0.0-107.0","3IAEQB9FMF6YL1JQ3YLYBUIYU86WDZ","A3AJR1PM02424Y","3FW4EL5A3LANKRP91N782LFHPY722Q","","null","<img src=""img/animal4.png"" style=""width:200px; border:14px solid green;"">","null","","","","","",""
"","image-keyboard-response","108","83288","0.0-108.0","3IAEQB9FMF6YL1JQ3YLYBUIYU86WDZ","A3AJR1PM02424Y","3FW4EL5A3LANKRP91N782LFHPY722Q","","503.5","img/animal2.png","74","505.7000000476837","1","1","2","0.5,0,1,1,0.5,0,0,1,0.5",""
"","html-keyboard-response","109","83600","0.0-109.0","3IAEQB9FMF6YL1JQ3YLYBUIYU86WDZ","A3AJR1PM02424Y","3FW4EL5A3LANKRP91N782LFHPY722Q","","null","<img src=""img/animal2.png"" style=""width:200px; border:14px solid green;"">","null","","","","","",""
"","image-keyboard-response","110","84070","0.0-110.0","3IAEQB9FMF6YL1JQ3YLYBUIYU86WDZ","A3AJR1PM02424Y","3FW4EL5A3LANKRP91N782LFHPY722Q","","469.1999999284744","img/animal5.png","76","470.3000000715256","3","1","1","0.5,0,1,1,0.5,0,0,1,0.5",""
"","html-keyboard-response","111","84378","0.0-111.0","3IAEQB9FMF6YL1JQ3YLYBUIYU86WDZ","A3AJR1PM02424Y","3FW4EL5A3LANKRP91N782LFHPY722Q","","null","<img src=""img/animal5.png"" style=""width:200px; border:14px solid green;"">","null","","","","","",""
"","image-keyboard-response","112","84880","0.0-112.0","3IAEQB9FMF6YL1JQ3YLYBUIYU86WDZ","A3AJR1PM02424Y","3FW4EL5A3LANKRP91N782LFHPY722Q","","494.39999997615814","img/animal5.png","76","498.6999999284744","3","1","1","0.5,0,1,1,0.5,0,0,1,0.5",""
"","html-keyboard-response","113","85188","0.0-113.0","3IAEQB9FMF6YL1JQ3YLYBUIYU86WDZ","A3AJR1PM02424Y","3FW4EL5A3LANKRP91N782LFHPY722Q","","null","<img src=""img/animal5.png"" style=""width:200px; border:14px solid green;"">","null","","","","","",""
"","image-keyboard-response","114","85738","0.0-114.0","3IAEQB9FMF6YL1JQ3YLYBUIYU86WDZ","A3AJR1PM02424Y","3FW4EL5A3LANKRP91N782LFHPY722Q","","548.8000000715256","img/animal4.png","75","549.8999999761581","2","1","3","0.5,0,1,1,0.5,0,0,1,0.5",""
"","html-keyboard-response","115","86048","0.0-115.0","3IAEQB9FMF6YL1JQ3YLYBUIYU86WDZ","A3AJR1PM02424Y","3FW4EL5A3LANKRP91N782LFHPY722Q","","null","<img src=""img/animal4.png"" style=""width:200px; border:14px solid green;"">","null","","","","","",""
"","image-keyboard-response","116","86505","0.0-116.0","3IAEQB9FMF6YL1JQ3YLYBUIYU86WDZ","A3AJR1PM02424Y","3FW4EL5A3LANKRP91N782LFHPY722Q","","454.3000000715256","img/animal2.png","74","456.60000002384186","1","1","2","0.5,0,1,1,0.5,0,0,1,0.5",""
"","html-keyboard-response","117","86812","0.0-117.0","3IAEQB9FMF6YL1JQ3YLYBUIYU86WDZ","A3AJR1PM02424Y","3FW4EL5A3LANKRP91N782LFHPY722Q","","null","<img src=""img/animal2.png"" style=""width:200px; border:14px solid green;"">","null","","","","","",""
"","image-keyboard-response","118","87650","0.0-118.0","3IAEQB9FMF6YL1JQ3YLYBUIYU86WDZ","A3AJR1PM02424Y","3FW4EL5A3LANKRP91N782LFHPY722Q","","837.6000000238419","img/animal4.png","75","838.6000000238419","2","1","3","0.5,0,1,1,0.5,0,0,1,0.5",""
"","html-keyboard-response","119","87957","0.0-119.0","3IAEQB9FMF6YL1JQ3YLYBUIYU86WDZ","A3AJR1PM02424Y","3FW4EL5A3LANKRP91N782LFHPY722Q","","null","<img src=""img/animal4.png"" style=""width:200px; border:14px solid green;"">","null","","","","","",""
"","image-keyboard-response","120","88438","0.0-120.0","3IAEQB9FMF6YL1JQ3YLYBUIYU86WDZ","A3AJR1PM02424Y","3FW4EL5A3LANKRP91N782LFHPY722Q","","479.90000009536743","img/animal4.png","75","481","2","1","3","0.5,0,1,1,0.5,0,0,1,0.5",""
"","html-keyboard-response","121","88744","0.0-121.0","3IAEQB9FMF6YL1JQ3YLYBUIYU86WDZ","A3AJR1PM02424Y","3FW4EL5A3LANKRP91N782LFHPY722Q","","null","<img src=""img/animal4.png"" style=""width:200px; border:14px solid green;"">","null","","","","","",""
"","image-keyboard-response","122","89439","0.0-122.0","3IAEQB9FMF6YL1JQ3YLYBUIYU86WDZ","A3AJR1PM02424Y","3FW4EL5A3LANKRP91N782LFHPY722Q","","693.2999999523163","img/animal2.png","74","694.5","1","1","2","0.5,0,1,1,0.5,0,0,1,0.5",""
"","html-keyboard-response","123","89744","0.0-123.0","3IAEQB9FMF6YL1JQ3YLYBUIYU86WDZ","A3AJR1PM02424Y","3FW4EL5A3LANKRP91N782LFHPY722Q","","null","<img src=""img/animal2.png"" style=""width:200px; border:14px solid green;"">","null","","","","","",""
"","image-keyboard-response","124","90386","0.0-124.0","3IAEQB9FMF6YL1JQ3YLYBUIYU86WDZ","A3AJR1PM02424Y","3FW4EL5A3LANKRP91N782LFHPY722Q","","640.8000000715256","img/animal4.png","75","641.8000000715256","2","1","3","0.5,0,1,1,0.5,0,0,1,0.5",""
"","html-keyboard-response","125","90689","0.0-125.0","3IAEQB9FMF6YL1JQ3YLYBUIYU86WDZ","A3AJR1PM02424Y","3FW4EL5A3LANKRP91N782LFHPY722Q","","null","<img src=""img/animal4.png"" style=""width:200px; border:14px solid green;"">","null","","","","","",""
"","image-keyboard-response","126","91168","0.0-126.0","3IAEQB9FMF6YL1JQ3YLYBUIYU86WDZ","A3AJR1PM02424Y","3FW4EL5A3LANKRP91N782LFHPY722Q","","477.59999990463257","img/animal2.png","74","478.5","1","1","2","0.5,0,1,1,0.5,0,0,1,0.5",""
"","html-keyboard-response","127","91484","0.0-127.0","3IAEQB9FMF6YL1JQ3YLYBUIYU86WDZ","A3AJR1PM02424Y","3FW4EL5A3LANKRP91N782LFHPY722Q","","null","<img src=""img/animal2.png"" style=""width:200px; border:14px solid green;"">","null","","","","","",""
"","image-keyboard-response","128","92046","0.0-128.0","3IAEQB9FMF6YL1JQ3YLYBUIYU86WDZ","A3AJR1PM02424Y","3FW4EL5A3LANKRP91N782LFHPY722Q","","559.8000000715256","img/animal5.png","76","562","3","1","1","0.5,0,1,1,0.5,0,0,1,0.5",""
"","html-keyboard-response","129","92356","0.0-129.0","3IAEQB9FMF6YL1JQ3YLYBUIYU86WDZ","A3AJR1PM02424Y","3FW4EL5A3LANKRP91N782LFHPY722Q","","null","<img src=""img/animal5.png"" style=""width:200px; border:14px solid green;"">","null","","","","","",""
"","image-keyboard-response","130","93012","0.0-130.0","3IAEQB9FMF6YL1JQ3YLYBUIYU86WDZ","A3AJR1PM02424Y","3FW4EL5A3LANKRP91N782LFHPY722Q","","654.1999999284744","img/animal2.png","74","655.9000000953674","1","1","2","0.5,0,1,1,0.5,0,0,1,0.5",""
"","html-keyboard-response","131","93319","0.0-131.0","3IAEQB9FMF6YL1JQ3YLYBUIYU86WDZ","A3AJR1PM02424Y","3FW4EL5A3LANKRP91N782LFHPY722Q","","null","<img src=""img/animal2.png"" style=""width:200px; border:14px solid green;"">","null","","","","","",""
"","image-keyboard-response","132","94111","0.0-132.0","3IAEQB9FMF6YL1JQ3YLYBUIYU86WDZ","A3AJR1PM02424Y","3FW4EL5A3LANKRP91N782LFHPY722Q","","791.1000000238419","img/animal4.png","75","792.3999999761581","2","1","3","0.5,0,1,1,0.5,0,0,1,0.5",""
"","html-keyboard-response","133","94421","0.0-133.0","3IAEQB9FMF6YL1JQ3YLYBUIYU86WDZ","A3AJR1PM02424Y","3FW4EL5A3LANKRP91N782LFHPY722Q","","null","<img src=""img/animal4.png"" style=""width:200px; border:14px solid green;"">","null","","","","","",""
"","image-keyboard-response","134","95296","0.0-134.0","3IAEQB9FMF6YL1JQ3YLYBUIYU86WDZ","A3AJR1PM02424Y","3FW4EL5A3LANKRP91N782LFHPY722Q","","874.1000000238419","img/animal5.png","76","875.1999999284744","3","1","1","0.5,0,1,1,0.5,0,0,1,0.5",""
"","html-keyboard-response","135","95605","0.0-135.0","3IAEQB9FMF6YL1JQ3YLYBUIYU86WDZ","A3AJR1PM02424Y","3FW4EL5A3LANKRP91N782LFHPY722Q","","null","<img src=""img/animal5.png"" style=""width:200px; border:14px solid green;"">","null","","","","","",""
"","image-keyboard-response","136","96185","0.0-136.0","3IAEQB9FMF6YL1JQ3YLYBUIYU86WDZ","A3AJR1PM02424Y","3FW4EL5A3LANKRP91N782LFHPY722Q","","577.7999999523163","img/animal4.png","75","579.6000000238419","2","1","3","0.5,0,1,1,0.5,0,0,1,0.5",""
"","html-keyboard-response","137","96489","0.0-137.0","3IAEQB9FMF6YL1JQ3YLYBUIYU86WDZ","A3AJR1PM02424Y","3FW4EL5A3LANKRP91N782LFHPY722Q","","null","<img src=""img/animal4.png"" style=""width:200px; border:14px solid green;"">","null","","","","","",""
"","image-keyboard-response","138","97058","0.0-138.0","3IAEQB9FMF6YL1JQ3YLYBUIYU86WDZ","A3AJR1PM02424Y","3FW4EL5A3LANKRP91N782LFHPY722Q","","566.3000000715256","img/animal5.png","76","568.5","3","1","1","0.5,0,1,1,0.5,0,0,1,0.5",""
"","html-keyboard-response","139","97362","0.0-139.0","3IAEQB9FMF6YL1JQ3YLYBUIYU86WDZ","A3AJR1PM02424Y","3FW4EL5A3LANKRP91N782LFHPY722Q","","null","<img src=""img/animal5.png"" style=""width:200px; border:14px solid green;"">","null","","","","","",""
"","image-keyboard-response","140","97877","0.0-140.0","3IAEQB9FMF6YL1JQ3YLYBUIYU86WDZ","A3AJR1PM02424Y","3FW4EL5A3LANKRP91N782LFHPY722Q","","513.3000000715256","img/animal2.png","74","514.2999999523163","1","1","2","0.5,0,1,1,0.5,0,0,1,0.5",""
"","html-keyboard-response","141","98181","0.0-141.0","3IAEQB9FMF6YL1JQ3YLYBUIYU86WDZ","A3AJR1PM02424Y","3FW4EL5A3LANKRP91N782LFHPY722Q","","null","<img src=""img/animal2.png"" style=""width:200px; border:14px solid green;"">","null","","","","","",""
"","image-keyboard-response","142","98804","0.0-142.0","3IAEQB9FMF6YL1JQ3YLYBUIYU86WDZ","A3AJR1PM02424Y","3FW4EL5A3LANKRP91N782LFHPY722Q","","621.1999999284744","img/animal2.png","74","622.1999999284744","1","1","2","0.5,0,1,1,0.5,0,0,1,0.5",""
"","html-keyboard-response","143","99106","0.0-143.0","3IAEQB9FMF6YL1JQ3YLYBUIYU86WDZ","A3AJR1PM02424Y","3FW4EL5A3LANKRP91N782LFHPY722Q","","null","<img src=""img/animal2.png"" style=""width:200px; border:14px solid green;"">","null","","","","","",""
"","image-keyboard-response","144","99707","0.0-144.0","3IAEQB9FMF6YL1JQ3YLYBUIYU86WDZ","A3AJR1PM02424Y","3FW4EL5A3LANKRP91N782LFHPY722Q","","598.5","img/animal4.png","75","599.7999999523163","2","1","3","0.5,0,1,1,0.5,0,0,1,0.5",""
"","html-keyboard-response","145","100011","0.0-145.0","3IAEQB9FMF6YL1JQ3YLYBUIYU86WDZ","A3AJR1PM02424Y","3FW4EL5A3LANKRP91N782LFHPY722Q","","null","<img src=""img/animal4.png"" style=""width:200px; border:14px solid green;"">","null","","","","","",""
"","image-keyboard-response","146","100748","0.0-146.0","3IAEQB9FMF6YL1JQ3YLYBUIYU86WDZ","A3AJR1PM02424Y","3FW4EL5A3LANKRP91N782LFHPY722Q","","735.8999999761581","img/animal4.png","75","736.7999999523163","2","1","3","0.5,0,1,1,0.5,0,0,1,0.5",""
"","html-keyboard-response","147","101056","0.0-147.0","3IAEQB9FMF6YL1JQ3YLYBUIYU86WDZ","A3AJR1PM02424Y","3FW4EL5A3LANKRP91N782LFHPY722Q","","null","<img src=""img/animal4.png"" style=""width:200px; border:14px solid green;"">","null","","","","","",""
"","image-keyboard-response","148","101615","0.0-148.0","3IAEQB9FMF6YL1JQ3YLYBUIYU86WDZ","A3AJR1PM02424Y","3FW4EL5A3LANKRP91N782LFHPY722Q","","557.8999999761581","img/animal4.png","75","558.6999999284744","2","1","3","0.5,0,1,1,0.5,0,0,1,0.5",""
"","html-keyboard-response","149","101923","0.0-149.0","3IAEQB9FMF6YL1JQ3YLYBUIYU86WDZ","A3AJR1PM02424Y","3FW4EL5A3LANKRP91N782LFHPY722Q","","null","<img src=""img/animal4.png"" style=""width:200px; border:14px solid green;"">","null","","","","","",""
"","image-keyboard-response","150","102483","0.0-150.0","3IAEQB9FMF6YL1JQ3YLYBUIYU86WDZ","A3AJR1PM02424Y","3FW4EL5A3LANKRP91N782LFHPY722Q","","558.1999999284744","img/animal2.png","74","560.3000000715256","1","1","2","0.5,0,1,1,0.5,0,0,1,0.5",""
"","html-keyboard-response","151","102792","0.0-151.0","3IAEQB9FMF6YL1JQ3YLYBUIYU86WDZ","A3AJR1PM02424Y","3FW4EL5A3LANKRP91N782LFHPY722Q","","null","<img src=""img/animal2.png"" style=""width:200px; border:14px solid green;"">","null","","","","","",""
"","image-keyboard-response","152","103393","0.0-152.0","3IAEQB9FMF6YL1JQ3YLYBUIYU86WDZ","A3AJR1PM02424Y","3FW4EL5A3LANKRP91N782LFHPY722Q","","600.6000000238419","img/animal5.png","76","601.5","3","1","1","0.5,0,1,1,0.5,0,0,1,0.5",""
"","html-keyboard-response","153","103710","0.0-153.0","3IAEQB9FMF6YL1JQ3YLYBUIYU86WDZ","A3AJR1PM02424Y","3FW4EL5A3LANKRP91N782LFHPY722Q","","null","<img src=""img/animal5.png"" style=""width:200px; border:14px solid green;"">","null","","","","","",""
"","image-keyboard-response","154","104145","0.0-154.0","3IAEQB9FMF6YL1JQ3YLYBUIYU86WDZ","A3AJR1PM02424Y","3FW4EL5A3LANKRP91N782LFHPY722Q","","432.39999997615814","img/animal5.png","76","434","3","1","1","0.5,0,1,1,0.5,0,0,1,0.5",""
"","html-keyboard-response","155","104455","0.0-155.0","3IAEQB9FMF6YL1JQ3YLYBUIYU86WDZ","A3AJR1PM02424Y","3FW4EL5A3LANKRP91N782LFHPY722Q","","null","<img src=""img/animal5.png"" style=""width:200px; border:14px solid green;"">","null","","","","","",""
"","image-keyboard-response","156","104966","0.0-156.0","3IAEQB9FMF6YL1JQ3YLYBUIYU86WDZ","A3AJR1PM02424Y","3FW4EL5A3LANKRP91N782LFHPY722Q","","510.1999999284744","img/animal2.png","74","511.2000000476837","1","1","2","0.5,0,1,1,0.5,0,0,1,0.5",""
"","html-keyboard-response","157","105273","0.0-157.0","3IAEQB9FMF6YL1JQ3YLYBUIYU86WDZ","A3AJR1PM02424Y","3FW4EL5A3LANKRP91N782LFHPY722Q","","null","<img src=""img/animal2.png"" style=""width:200px; border:14px solid green;"">","null","","","","","",""
"","image-keyboard-response","158","105900","0.0-158.0","3IAEQB9FMF6YL1JQ3YLYBUIYU86WDZ","A3AJR1PM02424Y","3FW4EL5A3LANKRP91N782LFHPY722Q","","625","img/animal5.png","76","626.1000000238419","3","1","1","0.5,0,1,1,0.5,0,0,1,0.5",""
"","html-keyboard-response","159","106208","0.0-159.0","3IAEQB9FMF6YL1JQ3YLYBUIYU86WDZ","A3AJR1PM02424Y","3FW4EL5A3LANKRP91N782LFHPY722Q","","null","<img src=""img/animal5.png"" style=""width:200px; border:14px solid green;"">","null","","","","","",""
"","image-keyboard-response","160","106636","0.0-160.0","3IAEQB9FMF6YL1JQ3YLYBUIYU86WDZ","A3AJR1PM02424Y","3FW4EL5A3LANKRP91N782LFHPY722Q","","426.8000000715256","img/animal5.png","76","427.5","3","1","1","0.5,0,1,1,0.5,0,0,1,0.5",""
"","html-keyboard-response","161","106938","0.0-161.0","3IAEQB9FMF6YL1JQ3YLYBUIYU86WDZ","A3AJR1PM02424Y","3FW4EL5A3LANKRP91N782LFHPY722Q","","null","<img src=""img/animal5.png"" style=""width:200px; border:14px solid green;"">","null","","","","","",""
"","image-keyboard-response","162","107434","0.0-162.0","3IAEQB9FMF6YL1JQ3YLYBUIYU86WDZ","A3AJR1PM02424Y","3FW4EL5A3LANKRP91N782LFHPY722Q","","494.39999997615814","img/animal2.png","74","495.5","1","1","2","0.5,0,1,1,0.5,0,0,1,0.5",""
"","html-keyboard-response","163","107740","0.0-163.0","3IAEQB9FMF6YL1JQ3YLYBUIYU86WDZ","A3AJR1PM02424Y","3FW4EL5A3LANKRP91N782LFHPY722Q","","null","<img src=""img/animal2.png"" style=""width:200px; border:14px solid green;"">","null","","","","","",""
"","image-keyboard-response","164","108185","0.0-164.0","3IAEQB9FMF6YL1JQ3YLYBUIYU86WDZ","A3AJR1PM02424Y","3FW4EL5A3LANKRP91N782LFHPY722Q","","443.10000002384186","img/animal2.png","74","444.09999990463257","1","1","2","0.5,0,1,1,0.5,0,0,1,0.5",""
"","html-keyboard-response","165","108488","0.0-165.0","3IAEQB9FMF6YL1JQ3YLYBUIYU86WDZ","A3AJR1PM02424Y","3FW4EL5A3LANKRP91N782LFHPY722Q","","null","<img src=""img/animal2.png"" style=""width:200px; border:14px solid green;"">","null","","","","","",""
"","image-keyboard-response","166","108967","0.0-166.0","3IAEQB9FMF6YL1JQ3YLYBUIYU86WDZ","A3AJR1PM02424Y","3FW4EL5A3LANKRP91N782LFHPY722Q","","478.2999999523163","img/animal2.png","74","479.40000009536743","1","1","2","0.5,0,1,1,0.5,0,0,1,0.5",""
"","html-keyboard-response","167","109274","0.0-167.0","3IAEQB9FMF6YL1JQ3YLYBUIYU86WDZ","A3AJR1PM02424Y","3FW4EL5A3LANKRP91N782LFHPY722Q","","null","<img src=""img/animal2.png"" style=""width:200px; border:14px solid green;"">","null","","","","","",""
"","image-keyboard-response","168","109722","0.0-168.0","3IAEQB9FMF6YL1JQ3YLYBUIYU86WDZ","A3AJR1PM02424Y","3FW4EL5A3LANKRP91N782LFHPY722Q","","447","img/animal4.png","75","448.2000000476837","2","1","3","0.5,0,1,1,0.5,0,0,1,0.5",""
"","html-keyboard-response","169","110028","0.0-169.0","3IAEQB9FMF6YL1JQ3YLYBUIYU86WDZ","A3AJR1PM02424Y","3FW4EL5A3LANKRP91N782LFHPY722Q","","null","<img src=""img/animal4.png"" style=""width:200px; border:14px solid green;"">","null","","","","","",""
"","image-keyboard-response","170","110711","0.0-170.0","3IAEQB9FMF6YL1JQ3YLYBUIYU86WDZ","A3AJR1PM02424Y","3FW4EL5A3LANKRP91N782LFHPY722Q","","681.3999999761581","img/animal2.png","74","682.3999999761581","1","1","2","0.5,0,1,1,0.5,0,0,1,0.5",""
"","html-keyboard-response","171","111022","0.0-171.0","3IAEQB9FMF6YL1JQ3YLYBUIYU86WDZ","A3AJR1PM02424Y","3FW4EL5A3LANKRP91N782LFHPY722Q","","null","<img src=""img/animal2.png"" style=""width:200px; border:14px solid green;"">","null","","","","","",""
"","image-keyboard-response","172","111719","0.0-172.0","3IAEQB9FMF6YL1JQ3YLYBUIYU86WDZ","A3AJR1PM02424Y","3FW4EL5A3LANKRP91N782LFHPY722Q","","696.1999999284744","img/animal2.png","74","697.5","1","1","2","0.5,0,1,1,0.5,0,0,1,0.5",""
"","html-keyboard-response","173","112029","0.0-173.0","3IAEQB9FMF6YL1JQ3YLYBUIYU86WDZ","A3AJR1PM02424Y","3FW4EL5A3LANKRP91N782LFHPY722Q","","null","<img src=""img/animal2.png"" style=""width:200px; border:14px solid green;"">","null","","","","","",""
"","image-keyboard-response","174","112713","0.0-174.0","3IAEQB9FMF6YL1JQ3YLYBUIYU86WDZ","A3AJR1PM02424Y","3FW4EL5A3LANKRP91N782LFHPY722Q","","682","img/animal2.png","74","682.8999999761581","1","1","2","0.5,0,1,1,0.5,0,0,1,0.5",""
"","html-keyboard-response","175","113017","0.0-175.0","3IAEQB9FMF6YL1JQ3YLYBUIYU86WDZ","A3AJR1PM02424Y","3FW4EL5A3LANKRP91N782LFHPY722Q","","null","<img src=""img/animal2.png"" style=""width:200px; border:14px solid green;"">","null","","","","","",""
"","image-keyboard-response","176","113511","0.0-176.0","3IAEQB9FMF6YL1JQ3YLYBUIYU86WDZ","A3AJR1PM02424Y","3FW4EL5A3LANKRP91N782LFHPY722Q","","493.2000000476837","img/animal2.png","74","494.2000000476837","1","1","2","0.5,0,1,1,0.5,0,0,1,0.5",""
"","html-keyboard-response","177","113817","0.0-177.0","3IAEQB9FMF6YL1JQ3YLYBUIYU86WDZ","A3AJR1PM02424Y","3FW4EL5A3LANKRP91N782LFHPY722Q","","null","<img src=""img/animal2.png"" style=""width:200px; border:14px solid green;"">","null","","","","","",""
"","image-keyboard-response","178","114338","0.0-178.0","3IAEQB9FMF6YL1JQ3YLYBUIYU86WDZ","A3AJR1PM02424Y","3FW4EL5A3LANKRP91N782LFHPY722Q","","520.1000000238419","img/animal4.png","75","521","2","1","3","0.5,0,1,1,0.5,0,0,1,0.5",""
"","html-keyboard-response","179","114640","0.0-179.0","3IAEQB9FMF6YL1JQ3YLYBUIYU86WDZ","A3AJR1PM02424Y","3FW4EL5A3LANKRP91N782LFHPY722Q","","null","<img src=""img/animal4.png"" style=""width:200px; border:14px solid green;"">","null","","","","","",""
"","image-keyboard-response","180","115154","0.0-180.0","3IAEQB9FMF6YL1JQ3YLYBUIYU86WDZ","A3AJR1PM02424Y","3FW4EL5A3LANKRP91N782LFHPY722Q","","511.7999999523163","img/animal5.png","76","513.8000000715256","3","1","1","0.5,0,1,1,0.5,0,0,1,0.5",""
"","html-keyboard-response","181","115462","0.0-181.0","3IAEQB9FMF6YL1JQ3YLYBUIYU86WDZ","A3AJR1PM02424Y","3FW4EL5A3LANKRP91N782LFHPY722Q","","null","<img src=""img/animal5.png"" style=""width:200px; border:14px solid green;"">","null","","","","","",""
"","html-keyboard-response","182","121656","0.0-182.0","3IAEQB9FMF6YL1JQ3YLYBUIYU86WDZ","A3AJR1PM02424Y","3FW4EL5A3LANKRP91N782LFHPY722Q","","","","","","","","","",""
"","image-keyboard-response","183","122719","0.0-183.0","3IAEQB9FMF6YL1JQ3YLYBUIYU86WDZ","A3AJR1PM02424Y","3FW4EL5A3LANKRP91N782LFHPY722Q","","1060.5","img/animal6.png","74","1062","1","1","2","0.7,0,0.8,0.7,0.8,0,0.7,0.8,0",""
"","html-keyboard-response","184","123023","0.0-184.0","3IAEQB9FMF6YL1JQ3YLYBUIYU86WDZ","A3AJR1PM02424Y","3FW4EL5A3LANKRP91N782LFHPY722Q","","null","<img src=""img/animal6.png"" style=""width:200px; border:14px solid green;"">","null","","","","","",""
"","image-keyboard-response","185","123835","0.0-185.0","3IAEQB9FMF6YL1JQ3YLYBUIYU86WDZ","A3AJR1PM02424Y","3FW4EL5A3LANKRP91N782LFHPY722Q","","810.2000000476837","img/animal6.png","74","811.3999999761581","1","1","2","0.7,0,0.8,0.7,0.8,0,0.7,0.8,0",""
"","html-keyboard-response","186","124145","0.0-186.0","3IAEQB9FMF6YL1JQ3YLYBUIYU86WDZ","A3AJR1PM02424Y","3FW4EL5A3LANKRP91N782LFHPY722Q","","null","<img src=""img/animal6.png"" style=""width:200px; border:14px solid green;"">","null","","","","","",""
"","image-keyboard-response","187","124939","0.0-187.0","3IAEQB9FMF6YL1JQ3YLYBUIYU86WDZ","A3AJR1PM02424Y","3FW4EL5A3LANKRP91N782LFHPY722Q","","792.5","img/animal1.png","75","794.4000000953674","2","0","1","0.7,0,0.8,0.7,0.8,0,0.7,0.8,0",""
"","html-keyboard-response","188","125250","0.0-188.0","3IAEQB9FMF6YL1JQ3YLYBUIYU86WDZ","A3AJR1PM02424Y","3FW4EL5A3LANKRP91N782LFHPY722Q","","null","<img src=""img/animal1.png"" style=""width:200px;border:14px solid red;"">","null","","","","","",""
"","image-keyboard-response","189","125811","0.0-189.0","3IAEQB9FMF6YL1JQ3YLYBUIYU86WDZ","A3AJR1PM02424Y","3FW4EL5A3LANKRP91N782LFHPY722Q","","559.8999999761581","img/animal6.png","74","560.8999999761581","1","1","2","0.7,0,0.8,0.7,0.8,0,0.7,0.8,0",""
"","html-keyboard-response","190","126120","0.0-190.0","3IAEQB9FMF6YL1JQ3YLYBUIYU86WDZ","A3AJR1PM02424Y","3FW4EL5A3LANKRP91N782LFHPY722Q","","null","<img src=""img/animal6.png"" style=""width:200px; border:14px solid green;"">","null","","","","","",""
"","image-keyboard-response","191","126551","0.0-191.0","3IAEQB9FMF6YL1JQ3YLYBUIYU86WDZ","A3AJR1PM02424Y","3FW4EL5A3LANKRP91N782LFHPY722Q","","428.40000009536743","img/animal1.png","76","430.7000000476837","3","0","1","0.7,0,0.8,0.7,0.8,0,0.7,0.8,0",""
"","html-keyboard-response","192","126862","0.0-192.0","3IAEQB9FMF6YL1JQ3YLYBUIYU86WDZ","A3AJR1PM02424Y","3FW4EL5A3LANKRP91N782LFHPY722Q","","null","<img src=""img/animal1.png"" style=""width:200px;border:14px solid red;"">","null","","","","","",""
"","image-keyboard-response","193","127779","0.0-193.0","3IAEQB9FMF6YL1JQ3YLYBUIYU86WDZ","A3AJR1PM02424Y","3FW4EL5A3LANKRP91N782LFHPY722Q","","915.3999999761581","img/animal6.png","74","917.1000000238419","1","1","2","0.7,0,0.8,0.7,0.8,0,0.7,0.8,0",""
"","html-keyboard-response","194","128087","0.0-194.0","3IAEQB9FMF6YL1JQ3YLYBUIYU86WDZ","A3AJR1PM02424Y","3FW4EL5A3LANKRP91N782LFHPY722Q","","null","<img src=""img/animal6.png"" style=""width:200px; border:14px solid green;"">","null","","","","","",""
"","image-keyboard-response","195","129295","0.0-195.0","3IAEQB9FMF6YL1JQ3YLYBUIYU86WDZ","A3AJR1PM02424Y","3FW4EL5A3LANKRP91N782LFHPY722Q","","1206.5","img/animal3.png","75","1207.6000000238419","2","1","3","0.7,0,0.8,0.7,0.8,0,0.7,0.8,0",""
"","html-keyboard-response","196","129598","0.0-196.0","3IAEQB9FMF6YL1JQ3YLYBUIYU86WDZ","A3AJR1PM02424Y","3FW4EL5A3LANKRP91N782LFHPY722Q","","null","<img src=""img/animal3.png"" style=""width:200px; border:14px solid green;"">","null","","","","","",""
"","image-keyboard-response","197","131257","0.0-197.0","3IAEQB9FMF6YL1JQ3YLYBUIYU86WDZ","A3AJR1PM02424Y","3FW4EL5A3LANKRP91N782LFHPY722Q","","1656.6000000238419","img/animal1.png","76","1658.6999999284744","3","1","1","0.7,0,0.8,0.7,0.8,0,0.7,0.8,0",""
"","html-keyboard-response","198","131562","0.0-198.0","3IAEQB9FMF6YL1JQ3YLYBUIYU86WDZ","A3AJR1PM02424Y","3FW4EL5A3LANKRP91N782LFHPY722Q","","null","<img src=""img/animal1.png"" style=""width:200px; border:14px solid green;"">","null","","","","","",""
"","image-keyboard-response","199","132107","0.0-199.0","3IAEQB9FMF6YL1JQ3YLYBUIYU86WDZ","A3AJR1PM02424Y","3FW4EL5A3LANKRP91N782LFHPY722Q","","543.8000000715256","img/animal6.png","74","545.2999999523163","1","0","2","0.7,0,0.8,0.7,0.8,0,0.7,0.8,0",""
"","html-keyboard-response","200","132414","0.0-200.0","3IAEQB9FMF6YL1JQ3YLYBUIYU86WDZ","A3AJR1PM02424Y","3FW4EL5A3LANKRP91N782LFHPY722Q","","null","<img src=""img/animal6.png"" style=""width:200px;border:14px solid red;"">","null","","","","","",""
"","image-keyboard-response","201","133518","0.0-201.0","3IAEQB9FMF6YL1JQ3YLYBUIYU86WDZ","A3AJR1PM02424Y","3FW4EL5A3LANKRP91N782LFHPY722Q","","1101.7000000476837","img/animal1.png","75","1103.3999999761581","2","0","1","0.7,0,0.8,0.7,0.8,0,0.7,0.8,0",""
"","html-keyboard-response","202","133821","0.0-202.0","3IAEQB9FMF6YL1JQ3YLYBUIYU86WDZ","A3AJR1PM02424Y","3FW4EL5A3LANKRP91N782LFHPY722Q","","null","<img src=""img/animal1.png"" style=""width:200px;border:14px solid red;"">","null","","","","","",""
"","image-keyboard-response","203","134737","0.0-203.0","3IAEQB9FMF6YL1JQ3YLYBUIYU86WDZ","A3AJR1PM02424Y","3FW4EL5A3LANKRP91N782LFHPY722Q","","920.2000000476837","img/animal1.png","76","921.6000000238419","3","1","1","0.7,0,0.8,0.7,0.8,0,0.7,0.8,0",""
"","html-keyboard-response","204","135042","0.0-204.0","3IAEQB9FMF6YL1JQ3YLYBUIYU86WDZ","A3AJR1PM02424Y","3FW4EL5A3LANKRP91N782LFHPY722Q","","null","<img src=""img/animal1.png"" style=""width:200px; border:14px solid green;"">","null","","","","","",""
"","image-keyboard-response","205","135946","0.0-205.0","3IAEQB9FMF6YL1JQ3YLYBUIYU86WDZ","A3AJR1PM02424Y","3FW4EL5A3LANKRP91N782LFHPY722Q","","902.5","img/animal3.png","75","903.9000000953674","2","1","3","0.7,0,0.8,0.7,0.8,0,0.7,0.8,0",""
"","html-keyboard-response","206","136261","0.0-206.0","3IAEQB9FMF6YL1JQ3YLYBUIYU86WDZ","A3AJR1PM02424Y","3FW4EL5A3LANKRP91N782LFHPY722Q","","null","<img src=""img/animal3.png"" style=""width:200px; border:14px solid green;"">","null","","","","","",""
"","image-keyboard-response","207","137000","0.0-207.0","3IAEQB9FMF6YL1JQ3YLYBUIYU86WDZ","A3AJR1PM02424Y","3FW4EL5A3LANKRP91N782LFHPY722Q","","736.8999999761581","img/animal3.png","75","739.1000000238419","2","1","3","0.7,0,0.8,0.7,0.8,0,0.7,0.8,0",""
"","html-keyboard-response","208","137311","0.0-208.0","3IAEQB9FMF6YL1JQ3YLYBUIYU86WDZ","A3AJR1PM02424Y","3FW4EL5A3LANKRP91N782LFHPY722Q","","null","<img src=""img/animal3.png"" style=""width:200px; border:14px solid green;"">","null","","","","","",""
"","image-keyboard-response","209","137637","0.0-209.0","3IAEQB9FMF6YL1JQ3YLYBUIYU86WDZ","A3AJR1PM02424Y","3FW4EL5A3LANKRP91N782LFHPY722Q","","324.40000009536743","img/animal3.png","75","325.7999999523163","2","1","3","0.7,0,0.8,0.7,0.8,0,0.7,0.8,0",""
"","html-keyboard-response","210","137944","0.0-210.0","3IAEQB9FMF6YL1JQ3YLYBUIYU86WDZ","A3AJR1PM02424Y","3FW4EL5A3LANKRP91N782LFHPY722Q","","null","<img src=""img/animal3.png"" style=""width:200px; border:14px solid green;"">","null","","","","","",""
"","image-keyboard-response","211","138528","0.0-211.0","3IAEQB9FMF6YL1JQ3YLYBUIYU86WDZ","A3AJR1PM02424Y","3FW4EL5A3LANKRP91N782LFHPY722Q","","583.3999999761581","img/animal6.png","74","584.8999999761581","1","1","2","0.7,0,0.8,0.7,0.8,0,0.7,0.8,0",""
"","html-keyboard-response","212","138832","0.0-212.0","3IAEQB9FMF6YL1JQ3YLYBUIYU86WDZ","A3AJR1PM02424Y","3FW4EL5A3LANKRP91N782LFHPY722Q","","null","<img src=""img/animal6.png"" style=""width:200px; border:14px solid green;"">","null","","","","","",""
"","image-keyboard-response","213","139506","0.0-213.0","3IAEQB9FMF6YL1JQ3YLYBUIYU86WDZ","A3AJR1PM02424Y","3FW4EL5A3LANKRP91N782LFHPY722Q","","671","img/animal1.png","76","673.1000000238419","3","1","1","0.7,0,0.8,0.7,0.8,0,0.7,0.8,0",""
"","html-keyboard-response","214","139814","0.0-214.0","3IAEQB9FMF6YL1JQ3YLYBUIYU86WDZ","A3AJR1PM02424Y","3FW4EL5A3LANKRP91N782LFHPY722Q","","null","<img src=""img/animal1.png"" style=""width:200px; border:14px solid green;"">","null","","","","","",""
"","image-keyboard-response","215","140531","0.0-215.0","3IAEQB9FMF6YL1JQ3YLYBUIYU86WDZ","A3AJR1PM02424Y","3FW4EL5A3LANKRP91N782LFHPY722Q","","715.8000000715256","img/animal6.png","74","716.7000000476837","1","0","2","0.7,0,0.8,0.7,0.8,0,0.7,0.8,0",""
"","html-keyboard-response","216","140837","0.0-216.0","3IAEQB9FMF6YL1JQ3YLYBUIYU86WDZ","A3AJR1PM02424Y","3FW4EL5A3LANKRP91N782LFHPY722Q","","null","<img src=""img/animal6.png"" style=""width:200px;border:14px solid red;"">","null","","","","","",""
"","image-keyboard-response","217","141273","0.0-217.0","3IAEQB9FMF6YL1JQ3YLYBUIYU86WDZ","A3AJR1PM02424Y","3FW4EL5A3LANKRP91N782LFHPY722Q","","434.5","img/animal6.png","74","435.5","1","0","2","0.7,0,0.8,0.7,0.8,0,0.7,0.8,0",""
"","html-keyboard-response","218","141581","0.0-218.0","3IAEQB9FMF6YL1JQ3YLYBUIYU86WDZ","A3AJR1PM02424Y","3FW4EL5A3LANKRP91N782LFHPY722Q","","null","<img src=""img/animal6.png"" style=""width:200px;border:14px solid red;"">","null","","","","","",""
"","image-keyboard-response","219","142340","0.0-219.0","3IAEQB9FMF6YL1JQ3YLYBUIYU86WDZ","A3AJR1PM02424Y","3FW4EL5A3LANKRP91N782LFHPY722Q","","757.1000000238419","img/animal1.png","76","758.8999999761581","3","1","1","0.7,0,0.8,0.7,0.8,0,0.7,0.8,0",""
"","html-keyboard-response","220","142643","0.0-220.0","3IAEQB9FMF6YL1JQ3YLYBUIYU86WDZ","A3AJR1PM02424Y","3FW4EL5A3LANKRP91N782LFHPY722Q","","null","<img src=""img/animal1.png"" style=""width:200px; border:14px solid green;"">","null","","","","","",""
"","image-keyboard-response","221","143397","0.0-221.0","3IAEQB9FMF6YL1JQ3YLYBUIYU86WDZ","A3AJR1PM02424Y","3FW4EL5A3LANKRP91N782LFHPY722Q","","751.2000000476837","img/animal6.png","74","753","1","1","2","0.7,0,0.8,0.7,0.8,0,0.7,0.8,0",""
"","html-keyboard-response","222","143705","0.0-222.0","3IAEQB9FMF6YL1JQ3YLYBUIYU86WDZ","A3AJR1PM02424Y","3FW4EL5A3LANKRP91N782LFHPY722Q","","null","<img src=""img/animal6.png"" style=""width:200px; border:14px solid green;"">","null","","","","","",""
"","image-keyboard-response","223","144489","0.0-223.0","3IAEQB9FMF6YL1JQ3YLYBUIYU86WDZ","A3AJR1PM02424Y","3FW4EL5A3LANKRP91N782LFHPY722Q","","781.7000000476837","img/animal1.png","76","783.3999999761581","3","1","1","0.7,0,0.8,0.7,0.8,0,0.7,0.8,0",""
"","html-keyboard-response","224","144798","0.0-224.0","3IAEQB9FMF6YL1JQ3YLYBUIYU86WDZ","A3AJR1PM02424Y","3FW4EL5A3LANKRP91N782LFHPY722Q","","null","<img src=""img/animal1.png"" style=""width:200px; border:14px solid green;"">","null","","","","","",""
"","image-keyboard-response","225","145641","0.0-225.0","3IAEQB9FMF6YL1JQ3YLYBUIYU86WDZ","A3AJR1PM02424Y","3FW4EL5A3LANKRP91N782LFHPY722Q","","840.4000000953674","img/animal1.png","76","842.1000000238419","3","1","1","0.7,0,0.8,0.7,0.8,0,0.7,0.8,0",""
"","html-keyboard-response","226","145950","0.0-226.0","3IAEQB9FMF6YL1JQ3YLYBUIYU86WDZ","A3AJR1PM02424Y","3FW4EL5A3LANKRP91N782LFHPY722Q","","null","<img src=""img/animal1.png"" style=""width:200px; border:14px solid green;"">","null","","","","","",""
"","image-keyboard-response","227","146474","0.0-227.0","3IAEQB9FMF6YL1JQ3YLYBUIYU86WDZ","A3AJR1PM02424Y","3FW4EL5A3LANKRP91N782LFHPY722Q","","521","img/animal6.png","74","522.3999999761581","1","0","2","0.7,0,0.8,0.7,0.8,0,0.7,0.8,0",""
"","html-keyboard-response","228","146781","0.0-228.0","3IAEQB9FMF6YL1JQ3YLYBUIYU86WDZ","A3AJR1PM02424Y","3FW4EL5A3LANKRP91N782LFHPY722Q","","null","<img src=""img/animal6.png"" style=""width:200px;border:14px solid red;"">","null","","","","","",""
"","image-keyboard-response","229","147456","0.0-229.0","3IAEQB9FMF6YL1JQ3YLYBUIYU86WDZ","A3AJR1PM02424Y","3FW4EL5A3LANKRP91N782LFHPY722Q","","672","img/animal1.png","76","674.0999999046326","3","1","1","0.7,0,0.8,0.7,0.8,0,0.7,0.8,0",""
"","html-keyboard-response","230","147765","0.0-230.0","3IAEQB9FMF6YL1JQ3YLYBUIYU86WDZ","A3AJR1PM02424Y","3FW4EL5A3LANKRP91N782LFHPY722Q","","null","<img src=""img/animal1.png"" style=""width:200px; border:14px solid green;"">","null","","","","","",""
"","image-keyboard-response","231","148337","0.0-231.0","3IAEQB9FMF6YL1JQ3YLYBUIYU86WDZ","A3AJR1PM02424Y","3FW4EL5A3LANKRP91N782LFHPY722Q","","570.9000000953674","img/animal3.png","75","572.1000000238419","2","1","3","0.7,0,0.8,0.7,0.8,0,0.7,0.8,0",""
"","html-keyboard-response","232","148647","0.0-232.0","3IAEQB9FMF6YL1JQ3YLYBUIYU86WDZ","A3AJR1PM02424Y","3FW4EL5A3LANKRP91N782LFHPY722Q","","null","<img src=""img/animal3.png"" style=""width:200px; border:14px solid green;"">","null","","","","","",""
"","image-keyboard-response","233","150658","0.0-233.0","3IAEQB9FMF6YL1JQ3YLYBUIYU86WDZ","A3AJR1PM02424Y","3FW4EL5A3LANKRP91N782LFHPY722Q","","2008.1000000238419","img/animal1.png","76","2009.8999999761581","3","1","1","0.7,0,0.8,0.7,0.8,0,0.7,0.8,0",""
"","html-keyboard-response","234","150962","0.0-234.0","3IAEQB9FMF6YL1JQ3YLYBUIYU86WDZ","A3AJR1PM02424Y","3FW4EL5A3LANKRP91N782LFHPY722Q","","null","<img src=""img/animal1.png"" style=""width:200px; border:14px solid green;"">","null","","","","","",""
"","image-keyboard-response","235","151469","0.0-235.0","3IAEQB9FMF6YL1JQ3YLYBUIYU86WDZ","A3AJR1PM02424Y","3FW4EL5A3LANKRP91N782LFHPY722Q","","505.7000000476837","img/animal6.png","74","507.2000000476837","1","1","2","0.7,0,0.8,0.7,0.8,0,0.7,0.8,0",""
"","html-keyboard-response","236","151775","0.0-236.0","3IAEQB9FMF6YL1JQ3YLYBUIYU86WDZ","A3AJR1PM02424Y","3FW4EL5A3LANKRP91N782LFHPY722Q","","null","<img src=""img/animal6.png"" style=""width:200px; border:14px solid green;"">","null","","","","","",""
"","image-keyboard-response","237","152370","0.0-237.0","3IAEQB9FMF6YL1JQ3YLYBUIYU86WDZ","A3AJR1PM02424Y","3FW4EL5A3LANKRP91N782LFHPY722Q","","592.3999999761581","img/animal6.png","74","594.6000000238419","1","1","2","0.7,0,0.8,0.7,0.8,0,0.7,0.8,0",""
"","html-keyboard-response","238","152676","0.0-238.0","3IAEQB9FMF6YL1JQ3YLYBUIYU86WDZ","A3AJR1PM02424Y","3FW4EL5A3LANKRP91N782LFHPY722Q","","null","<img src=""img/animal6.png"" style=""width:200px; border:14px solid green;"">","null","","","","","",""
"","image-keyboard-response","239","153432","0.0-239.0","3IAEQB9FMF6YL1JQ3YLYBUIYU86WDZ","A3AJR1PM02424Y","3FW4EL5A3LANKRP91N782LFHPY722Q","","753.2000000476837","img/animal1.png","76","755.3999999761581","3","1","1","0.7,0,0.8,0.7,0.8,0,0.7,0.8,0",""
"","html-keyboard-response","240","153742","0.0-240.0","3IAEQB9FMF6YL1JQ3YLYBUIYU86WDZ","A3AJR1PM02424Y","3FW4EL5A3LANKRP91N782LFHPY722Q","","null","<img src=""img/animal1.png"" style=""width:200px; border:14px solid green;"">","null","","","","","",""
"","image-keyboard-response","241","154384","0.0-241.0","3IAEQB9FMF6YL1JQ3YLYBUIYU86WDZ","A3AJR1PM02424Y","3FW4EL5A3LANKRP91N782LFHPY722Q","","640.1999999284744","img/animal6.png","74","641.5","1","0","2","0.7,0,0.8,0.7,0.8,0,0.7,0.8,0",""
"","html-keyboard-response","242","154691","0.0-242.0","3IAEQB9FMF6YL1JQ3YLYBUIYU86WDZ","A3AJR1PM02424Y","3FW4EL5A3LANKRP91N782LFHPY722Q","","null","<img src=""img/animal6.png"" style=""width:200px;border:14px solid red;"">","null","","","","","",""
"","image-keyboard-response","243","155192","0.0-243.0","3IAEQB9FMF6YL1JQ3YLYBUIYU86WDZ","A3AJR1PM02424Y","3FW4EL5A3LANKRP91N782LFHPY722Q","","500","img/animal6.png","74","501.39999997615814","1","1","2","0.7,0,0.8,0.7,0.8,0,0.7,0.8,0",""
"","html-keyboard-response","244","155496","0.0-244.0","3IAEQB9FMF6YL1JQ3YLYBUIYU86WDZ","A3AJR1PM02424Y","3FW4EL5A3LANKRP91N782LFHPY722Q","","null","<img src=""img/animal6.png"" style=""width:200px; border:14px solid green;"">","null","","","","","",""
"","image-keyboard-response","245","156123","0.0-245.0","3IAEQB9FMF6YL1JQ3YLYBUIYU86WDZ","A3AJR1PM02424Y","3FW4EL5A3LANKRP91N782LFHPY722Q","","625","img/animal3.png","75","626.1000000238419","2","0","3","0.7,0,0.8,0.7,0.8,0,0.7,0.8,0",""
"","html-keyboard-response","246","156430","0.0-246.0","3IAEQB9FMF6YL1JQ3YLYBUIYU86WDZ","A3AJR1PM02424Y","3FW4EL5A3LANKRP91N782LFHPY722Q","","null","<img src=""img/animal3.png"" style=""width:200px;border:14px solid red;"">","null","","","","","",""
"","image-keyboard-response","247","157413","0.0-247.0","3IAEQB9FMF6YL1JQ3YLYBUIYU86WDZ","A3AJR1PM02424Y","3FW4EL5A3LANKRP91N782LFHPY722Q","","980.8999999761581","img/animal1.png","76","982.6000000238419","3","0","1","0.7,0,0.8,0.7,0.8,0,0.7,0.8,0",""
"","html-keyboard-response","248","157728","0.0-248.0","3IAEQB9FMF6YL1JQ3YLYBUIYU86WDZ","A3AJR1PM02424Y","3FW4EL5A3LANKRP91N782LFHPY722Q","","null","<img src=""img/animal1.png"" style=""width:200px;border:14px solid red;"">","null","","","","","",""
"","image-keyboard-response","249","158692","0.0-249.0","3IAEQB9FMF6YL1JQ3YLYBUIYU86WDZ","A3AJR1PM02424Y","3FW4EL5A3LANKRP91N782LFHPY722Q","","962.3999999761581","img/animal1.png","76","963.8000000715256","3","0","1","0.7,0,0.8,0.7,0.8,0,0.7,0.8,0",""
"","html-keyboard-response","250","158997","0.0-250.0","3IAEQB9FMF6YL1JQ3YLYBUIYU86WDZ","A3AJR1PM02424Y","3FW4EL5A3LANKRP91N782LFHPY722Q","","null","<img src=""img/animal1.png"" style=""width:200px;border:14px solid red;"">","null","","","","","",""
"","image-keyboard-response","251","159674","0.0-251.0","3IAEQB9FMF6YL1JQ3YLYBUIYU86WDZ","A3AJR1PM02424Y","3FW4EL5A3LANKRP91N782LFHPY722Q","","674.1000000238419","img/animal3.png","75","676.1999999284744","2","1","3","0.7,0,0.8,0.7,0.8,0,0.7,0.8,0",""
"","html-keyboard-response","252","159985","0.0-252.0","3IAEQB9FMF6YL1JQ3YLYBUIYU86WDZ","A3AJR1PM02424Y","3FW4EL5A3LANKRP91N782LFHPY722Q","","null","<img src=""img/animal3.png"" style=""width:200px; border:14px solid green;"">","null","","","","","",""
"","image-keyboard-response","253","160526","0.0-253.0","3IAEQB9FMF6YL1JQ3YLYBUIYU86WDZ","A3AJR1PM02424Y","3FW4EL5A3LANKRP91N782LFHPY722Q","","539.8000000715256","img/animal1.png","76","541.2999999523163","3","1","1","0.7,0,0.8,0.7,0.8,0,0.7,0.8,0",""
"","html-keyboard-response","254","160834","0.0-254.0","3IAEQB9FMF6YL1JQ3YLYBUIYU86WDZ","A3AJR1PM02424Y","3FW4EL5A3LANKRP91N782LFHPY722Q","","null","<img src=""img/animal1.png"" style=""width:200px; border:14px solid green;"">","null","","","","","",""
"","image-keyboard-response","255","161351","0.0-255.0","3IAEQB9FMF6YL1JQ3YLYBUIYU86WDZ","A3AJR1PM02424Y","3FW4EL5A3LANKRP91N782LFHPY722Q","","516.2000000476837","img/animal6.png","74","517.1999999284744","1","1","2","0.7,0,0.8,0.7,0.8,0,0.7,0.8,0",""
"","html-keyboard-response","256","161654","0.0-256.0","3IAEQB9FMF6YL1JQ3YLYBUIYU86WDZ","A3AJR1PM02424Y","3FW4EL5A3LANKRP91N782LFHPY722Q","","null","<img src=""img/animal6.png"" style=""width:200px; border:14px solid green;"">","null","","","","","",""
"","image-keyboard-response","257","162759","0.0-257.0","3IAEQB9FMF6YL1JQ3YLYBUIYU86WDZ","A3AJR1PM02424Y","3FW4EL5A3LANKRP91N782LFHPY722Q","","1103.2999999523163","img/animal1.png","76","1104.3000000715256","3","1","1","0.7,0,0.8,0.7,0.8,0,0.7,0.8,0",""
"","html-keyboard-response","258","163068","0.0-258.0","3IAEQB9FMF6YL1JQ3YLYBUIYU86WDZ","A3AJR1PM02424Y","3FW4EL5A3LANKRP91N782LFHPY722Q","","null","<img src=""img/animal1.png"" style=""width:200px; border:14px solid green;"">","null","","","","","",""
"","image-keyboard-response","259","163451","0.0-259.0","3IAEQB9FMF6YL1JQ3YLYBUIYU86WDZ","A3AJR1PM02424Y","3FW4EL5A3LANKRP91N782LFHPY722Q","","381.7999999523163","img/animal1.png","76","383.40000009536743","3","1","1","0.7,0,0.8,0.7,0.8,0,0.7,0.8,0",""
"","html-keyboard-response","260","163763","0.0-260.0","3IAEQB9FMF6YL1JQ3YLYBUIYU86WDZ","A3AJR1PM02424Y","3FW4EL5A3LANKRP91N782LFHPY722Q","","null","<img src=""img/animal1.png"" style=""width:200px; border:14px solid green;"">","null","","","","","",""
"","image-keyboard-response","261","164318","0.0-261.0","3IAEQB9FMF6YL1JQ3YLYBUIYU86WDZ","A3AJR1PM02424Y","3FW4EL5A3LANKRP91N782LFHPY722Q","","552.5","img/animal3.png","75","554.7999999523163","2","1","3","0.7,0,0.8,0.7,0.8,0,0.7,0.8,0",""
"","html-keyboard-response","262","164627","0.0-262.0","3IAEQB9FMF6YL1JQ3YLYBUIYU86WDZ","A3AJR1PM02424Y","3FW4EL5A3LANKRP91N782LFHPY722Q","","null","<img src=""img/animal3.png"" style=""width:200px; border:14px solid green;"">","null","","","","","",""
"","image-keyboard-response","263","164998","0.0-263.0","3IAEQB9FMF6YL1JQ3YLYBUIYU86WDZ","A3AJR1PM02424Y","3FW4EL5A3LANKRP91N782LFHPY722Q","","369.6999999284744","img/animal3.png","75","370.7999999523163","2","1","3","0.7,0,0.8,0.7,0.8,0,0.7,0.8,0",""
"","html-keyboard-response","264","165301","0.0-264.0","3IAEQB9FMF6YL1JQ3YLYBUIYU86WDZ","A3AJR1PM02424Y","3FW4EL5A3LANKRP91N782LFHPY722Q","","null","<img src=""img/animal3.png"" style=""width:200px; border:14px solid green;"">","null","","","","","",""
"","image-keyboard-response","265","165720","0.0-265.0","3IAEQB9FMF6YL1JQ3YLYBUIYU86WDZ","A3AJR1PM02424Y","3FW4EL5A3LANKRP91N782LFHPY722Q","","417.90000009536743","img/animal3.png","75","418.7999999523163","2","1","3","0.7,0,0.8,0.7,0.8,0,0.7,0.8,0",""
"","html-keyboard-response","266","166024","0.0-266.0","3IAEQB9FMF6YL1JQ3YLYBUIYU86WDZ","A3AJR1PM02424Y","3FW4EL5A3LANKRP91N782LFHPY722Q","","null","<img src=""img/animal3.png"" style=""width:200px; border:14px solid green;"">","null","","","","","",""
"","image-keyboard-response","267","166817","0.0-267.0","3IAEQB9FMF6YL1JQ3YLYBUIYU86WDZ","A3AJR1PM02424Y","3FW4EL5A3LANKRP91N782LFHPY722Q","","789.8999999761581","img/animal3.png","75","791.7000000476837","2","0","3","0.7,0,0.8,0.7,0.8,0,0.7,0.8,0",""
"","html-keyboard-response","268","167124","0.0-268.0","3IAEQB9FMF6YL1JQ3YLYBUIYU86WDZ","A3AJR1PM02424Y","3FW4EL5A3LANKRP91N782LFHPY722Q","","null","<img src=""img/animal3.png"" style=""width:200px;border:14px solid red;"">","null","","","","","",""
"","image-keyboard-response","269","167655","0.0-269.0","3IAEQB9FMF6YL1JQ3YLYBUIYU86WDZ","A3AJR1PM02424Y","3FW4EL5A3LANKRP91N782LFHPY722Q","","528.5","img/animal6.png","74","530.6999999284744","1","0","2","0.7,0,0.8,0.7,0.8,0,0.7,0.8,0",""
"","html-keyboard-response","270","167962","0.0-270.0","3IAEQB9FMF6YL1JQ3YLYBUIYU86WDZ","A3AJR1PM02424Y","3FW4EL5A3LANKRP91N782LFHPY722Q","","null","<img src=""img/animal6.png"" style=""width:200px;border:14px solid red;"">","null","","","","","",""
"","image-keyboard-response","271","168672","0.0-271.0","3IAEQB9FMF6YL1JQ3YLYBUIYU86WDZ","A3AJR1PM02424Y","3FW4EL5A3LANKRP91N782LFHPY722Q","","708.1000000238419","img/animal3.png","75","709.6000000238419","2","1","3","0.7,0,0.8,0.7,0.8,0,0.7,0.8,0",""
"","html-keyboard-response","272","168975","0.0-272.0","3IAEQB9FMF6YL1JQ3YLYBUIYU86WDZ","A3AJR1PM02424Y","3FW4EL5A3LANKRP91N782LFHPY722Q","","null","<img src=""img/animal3.png"" style=""width:200px; border:14px solid green;"">","null","","","","","",""
"","image-keyboard-response","273","169710","0.0-273.0","3IAEQB9FMF6YL1JQ3YLYBUIYU86WDZ","A3AJR1PM02424Y","3FW4EL5A3LANKRP91N782LFHPY722Q","","733.1000000238419","img/animal1.png","76","734.4000000953674","3","1","1","0.7,0,0.8,0.7,0.8,0,0.7,0.8,0",""
"","html-keyboard-response","274","170014","0.0-274.0","3IAEQB9FMF6YL1JQ3YLYBUIYU86WDZ","A3AJR1PM02424Y","3FW4EL5A3LANKRP91N782LFHPY722Q","","null","<img src=""img/animal1.png"" style=""width:200px; border:14px solid green;"">","null","","","","","",""
"","image-keyboard-response","275","170600","0.0-275.0","3IAEQB9FMF6YL1JQ3YLYBUIYU86WDZ","A3AJR1PM02424Y","3FW4EL5A3LANKRP91N782LFHPY722Q","","583.3999999761581","img/animal6.png","74","585.1999999284744","1","0","2","0.7,0,0.8,0.7,0.8,0,0.7,0.8,0",""
"","html-keyboard-response","276","170910","0.0-276.0","3IAEQB9FMF6YL1JQ3YLYBUIYU86WDZ","A3AJR1PM02424Y","3FW4EL5A3LANKRP91N782LFHPY722Q","","null","<img src=""img/animal6.png"" style=""width:200px;border:14px solid red;"">","null","","","","","",""
"","image-keyboard-response","277","174964","0.0-277.0","3IAEQB9FMF6YL1JQ3YLYBUIYU86WDZ","A3AJR1PM02424Y","3FW4EL5A3LANKRP91N782LFHPY722Q","","4051.899999976158","img/animal1.png","76","4054","3","1","1","0.7,0,0.8,0.7,0.8,0,0.7,0.8,0",""
"","html-keyboard-response","278","175268","0.0-278.0","3IAEQB9FMF6YL1JQ3YLYBUIYU86WDZ","A3AJR1PM02424Y","3FW4EL5A3LANKRP91N782LFHPY722Q","","null","<img src=""img/animal1.png"" style=""width:200px; border:14px solid green;"">","null","","","","","",""
"","image-keyboard-response","279","175630","0.0-279.0","3IAEQB9FMF6YL1JQ3YLYBUIYU86WDZ","A3AJR1PM02424Y","3FW4EL5A3LANKRP91N782LFHPY722Q","","361.39999997615814","img/animal3.png","75","362.59999990463257","2","1","3","0.7,0,0.8,0.7,0.8,0,0.7,0.8,0",""
"","html-keyboard-response","280","175934","0.0-280.0","3IAEQB9FMF6YL1JQ3YLYBUIYU86WDZ","A3AJR1PM02424Y","3FW4EL5A3LANKRP91N782LFHPY722Q","","null","<img src=""img/animal3.png"" style=""width:200px; border:14px solid green;"">","null","","","","","",""
"","image-keyboard-response","281","176622","0.0-281.0","3IAEQB9FMF6YL1JQ3YLYBUIYU86WDZ","A3AJR1PM02424Y","3FW4EL5A3LANKRP91N782LFHPY722Q","","686.6000000238419","img/animal1.png","76","687.8000000715256","3","1","1","0.7,0,0.8,0.7,0.8,0,0.7,0.8,0",""
"","html-keyboard-response","282","176925","0.0-282.0","3IAEQB9FMF6YL1JQ3YLYBUIYU86WDZ","A3AJR1PM02424Y","3FW4EL5A3LANKRP91N782LFHPY722Q","","null","<img src=""img/animal1.png"" style=""width:200px; border:14px solid green;"">","null","","","","","",""
"","image-keyboard-response","283","177447","0.0-283.0","3IAEQB9FMF6YL1JQ3YLYBUIYU86WDZ","A3AJR1PM02424Y","3FW4EL5A3LANKRP91N782LFHPY722Q","","521.1000000238419","img/animal3.png","75","522.2000000476837","2","0","3","0.7,0,0.8,0.7,0.8,0,0.7,0.8,0",""
"","html-keyboard-response","284","177755","0.0-284.0","3IAEQB9FMF6YL1JQ3YLYBUIYU86WDZ","A3AJR1PM02424Y","3FW4EL5A3LANKRP91N782LFHPY722Q","","null","<img src=""img/animal3.png"" style=""width:200px;border:14px solid red;"">","null","","","","","",""
"","image-keyboard-response","285","178380","0.0-285.0","3IAEQB9FMF6YL1JQ3YLYBUIYU86WDZ","A3AJR1PM02424Y","3FW4EL5A3LANKRP91N782LFHPY722Q","","623.6999999284744","img/animal1.png","76","625.2000000476837","3","1","1","0.7,0,0.8,0.7,0.8,0,0.7,0.8,0",""
"","html-keyboard-response","286","178698","0.0-286.0","3IAEQB9FMF6YL1JQ3YLYBUIYU86WDZ","A3AJR1PM02424Y","3FW4EL5A3LANKRP91N782LFHPY722Q","","null","<img src=""img/animal1.png"" style=""width:200px; border:14px solid green;"">","null","","","","","",""
"","image-keyboard-response","287","179174","0.0-287.0","3IAEQB9FMF6YL1JQ3YLYBUIYU86WDZ","A3AJR1PM02424Y","3FW4EL5A3LANKRP91N782LFHPY722Q","","473.6999999284744","img/animal6.png","74","475.3000000715256","1","1","2","0.7,0,0.8,0.7,0.8,0,0.7,0.8,0",""
"","html-keyboard-response","288","179483","0.0-288.0","3IAEQB9FMF6YL1JQ3YLYBUIYU86WDZ","A3AJR1PM02424Y","3FW4EL5A3LANKRP91N782LFHPY722Q","","null","<img src=""img/animal6.png"" style=""width:200px; border:14px solid green;"">","null","","","","","",""
"","image-keyboard-response","289","180106","0.0-289.0","3IAEQB9FMF6YL1JQ3YLYBUIYU86WDZ","A3AJR1PM02424Y","3FW4EL5A3LANKRP91N782LFHPY722Q","","620.5","img/animal3.png","75","622.1999999284744","2","1","3","0.7,0,0.8,0.7,0.8,0,0.7,0.8,0",""
"","html-keyboard-response","290","180412","0.0-290.0","3IAEQB9FMF6YL1JQ3YLYBUIYU86WDZ","A3AJR1PM02424Y","3FW4EL5A3LANKRP91N782LFHPY722Q","","null","<img src=""img/animal3.png"" style=""width:200px; border:14px solid green;"">","null","","","","","",""
"","image-keyboard-response","291","181028","0.0-291.0","3IAEQB9FMF6YL1JQ3YLYBUIYU86WDZ","A3AJR1PM02424Y","3FW4EL5A3LANKRP91N782LFHPY722Q","","613.1999999284744","img/animal1.png","76","615.8000000715256","3","1","1","0.7,0,0.8,0.7,0.8,0,0.7,0.8,0",""
"","html-keyboard-response","292","181336","0.0-292.0","3IAEQB9FMF6YL1JQ3YLYBUIYU86WDZ","A3AJR1PM02424Y","3FW4EL5A3LANKRP91N782LFHPY722Q","","null","<img src=""img/animal1.png"" style=""width:200px; border:14px solid green;"">","null","","","","","",""
"","image-keyboard-response","293","181796","0.0-293.0","3IAEQB9FMF6YL1JQ3YLYBUIYU86WDZ","A3AJR1PM02424Y","3FW4EL5A3LANKRP91N782LFHPY722Q","","458.2000000476837","img/animal1.png","76","459.3000000715256","3","1","1","0.7,0,0.8,0.7,0.8,0,0.7,0.8,0",""
"","html-keyboard-response","294","182103","0.0-294.0","3IAEQB9FMF6YL1JQ3YLYBUIYU86WDZ","A3AJR1PM02424Y","3FW4EL5A3LANKRP91N782LFHPY722Q","","null","<img src=""img/animal1.png"" style=""width:200px; border:14px solid green;"">","null","","","","","",""
"","image-keyboard-response","295","182587","0.0-295.0","3IAEQB9FMF6YL1JQ3YLYBUIYU86WDZ","A3AJR1PM02424Y","3FW4EL5A3LANKRP91N782LFHPY722Q","","483.39999997615814","img/animal6.png","74","484.3000000715256","1","0","2","0.7,0,0.8,0.7,0.8,0,0.7,0.8,0",""
"","html-keyboard-response","296","182890","0.0-296.0","3IAEQB9FMF6YL1JQ3YLYBUIYU86WDZ","A3AJR1PM02424Y","3FW4EL5A3LANKRP91N782LFHPY722Q","","null","<img src=""img/animal6.png"" style=""width:200px;border:14px solid red;"">","null","","","","","",""
"","image-keyboard-response","297","183420","0.0-297.0","3IAEQB9FMF6YL1JQ3YLYBUIYU86WDZ","A3AJR1PM02424Y","3FW4EL5A3LANKRP91N782LFHPY722Q","","528.2999999523163","img/animal3.png","75","529.7999999523163","2","1","3","0.7,0,0.8,0.7,0.8,0,0.7,0.8,0",""
"","html-keyboard-response","298","183730","0.0-298.0","3IAEQB9FMF6YL1JQ3YLYBUIYU86WDZ","A3AJR1PM02424Y","3FW4EL5A3LANKRP91N782LFHPY722Q","","null","<img src=""img/animal3.png"" style=""width:200px; border:14px solid green;"">","null","","","","","",""
"","image-keyboard-response","299","184532","0.0-299.0","3IAEQB9FMF6YL1JQ3YLYBUIYU86WDZ","A3AJR1PM02424Y","3FW4EL5A3LANKRP91N782LFHPY722Q","","800.1999999284744","img/animal1.png","76","801","3","0","1","0.7,0,0.8,0.7,0.8,0,0.7,0.8,0",""
"","html-keyboard-response","300","184839","0.0-300.0","3IAEQB9FMF6YL1JQ3YLYBUIYU86WDZ","A3AJR1PM02424Y","3FW4EL5A3LANKRP91N782LFHPY722Q","","null","<img src=""img/animal1.png"" style=""width:200px;border:14px solid red;"">","null","","","","","",""
"","image-keyboard-response","301","185435","0.0-301.0","3IAEQB9FMF6YL1JQ3YLYBUIYU86WDZ","A3AJR1PM02424Y","3FW4EL5A3LANKRP91N782LFHPY722Q","","593.3999999761581","img/animal6.png","74","595.6000000238419","1","0","2","0.7,0,0.8,0.7,0.8,0,0.7,0.8,0",""
"","html-keyboard-response","302","185745","0.0-302.0","3IAEQB9FMF6YL1JQ3YLYBUIYU86WDZ","A3AJR1PM02424Y","3FW4EL5A3LANKRP91N782LFHPY722Q","","null","<img src=""img/animal6.png"" style=""width:200px;border:14px solid red;"">","null","","","","","",""
"","image-keyboard-response","303","186205","0.0-303.0","3IAEQB9FMF6YL1JQ3YLYBUIYU86WDZ","A3AJR1PM02424Y","3FW4EL5A3LANKRP91N782LFHPY722Q","","458.39999997615814","img/animal6.png","74","459.39999997615814","1","1","2","0.7,0,0.8,0.7,0.8,0,0.7,0.8,0",""
"","html-keyboard-response","304","186511","0.0-304.0","3IAEQB9FMF6YL1JQ3YLYBUIYU86WDZ","A3AJR1PM02424Y","3FW4EL5A3LANKRP91N782LFHPY722Q","","null","<img src=""img/animal6.png"" style=""width:200px; border:14px solid green;"">","null","","","","","",""
"","image-keyboard-response","305","187103","0.0-305.0","3IAEQB9FMF6YL1JQ3YLYBUIYU86WDZ","A3AJR1PM02424Y","3FW4EL5A3LANKRP91N782LFHPY722Q","","589.3000000715256","img/animal3.png","75","591.5","2","1","3","0.7,0,0.8,0.7,0.8,0,0.7,0.8,0",""
"","html-keyboard-response","306","187411","0.0-306.0","3IAEQB9FMF6YL1JQ3YLYBUIYU86WDZ","A3AJR1PM02424Y","3FW4EL5A3LANKRP91N782LFHPY722Q","","null","<img src=""img/animal3.png"" style=""width:200px; border:14px solid green;"">","null","","","","","",""
"","image-keyboard-response","307","187895","0.0-307.0","3IAEQB9FMF6YL1JQ3YLYBUIYU86WDZ","A3AJR1PM02424Y","3FW4EL5A3LANKRP91N782LFHPY722Q","","483.3000000715256","img/animal3.png","75","484.6999999284744","2","1","3","0.7,0,0.8,0.7,0.8,0,0.7,0.8,0",""
"","html-keyboard-response","308","188206","0.0-308.0","3IAEQB9FMF6YL1JQ3YLYBUIYU86WDZ","A3AJR1PM02424Y","3FW4EL5A3LANKRP91N782LFHPY722Q","","null","<img src=""img/animal3.png"" style=""width:200px; border:14px solid green;"">","null","","","","","",""
"","image-keyboard-response","309","188785","0.0-309.0","3IAEQB9FMF6YL1JQ3YLYBUIYU86WDZ","A3AJR1PM02424Y","3FW4EL5A3LANKRP91N782LFHPY722Q","","577.2999999523163","img/animal3.png","75","578.2999999523163","2","1","3","0.7,0,0.8,0.7,0.8,0,0.7,0.8,0",""
"","html-keyboard-response","310","189092","0.0-310.0","3IAEQB9FMF6YL1JQ3YLYBUIYU86WDZ","A3AJR1PM02424Y","3FW4EL5A3LANKRP91N782LFHPY722Q","","null","<img src=""img/animal3.png"" style=""width:200px; border:14px solid green;"">","null","","","","","",""
"","image-keyboard-response","311","189874","0.0-311.0","3IAEQB9FMF6YL1JQ3YLYBUIYU86WDZ","A3AJR1PM02424Y","3FW4EL5A3LANKRP91N782LFHPY722Q","","780.7000000476837","img/animal6.png","74","781.7000000476837","1","1","2","0.7,0,0.8,0.7,0.8,0,0.7,0.8,0",""
"","html-keyboard-response","312","190183","0.0-312.0","3IAEQB9FMF6YL1JQ3YLYBUIYU86WDZ","A3AJR1PM02424Y","3FW4EL5A3LANKRP91N782LFHPY722Q","","null","<img src=""img/animal6.png"" style=""width:200px; border:14px solid green;"">","null","","","","","",""
"","image-keyboard-response","313","191224","0.0-313.0","3IAEQB9FMF6YL1JQ3YLYBUIYU86WDZ","A3AJR1PM02424Y","3FW4EL5A3LANKRP91N782LFHPY722Q","","1039.6999999284744","img/animal3.png","75","1040.7000000476837","2","1","3","0.7,0,0.8,0.7,0.8,0,0.7,0.8,0",""
"","html-keyboard-response","314","191534","0.0-314.0","3IAEQB9FMF6YL1JQ3YLYBUIYU86WDZ","A3AJR1PM02424Y","3FW4EL5A3LANKRP91N782LFHPY722Q","","null","<img src=""img/animal3.png"" style=""width:200px; border:14px solid green;"">","null","","","","","",""
"","image-keyboard-response","315","191988","0.0-315.0","3IAEQB9FMF6YL1JQ3YLYBUIYU86WDZ","A3AJR1PM02424Y","3FW4EL5A3LANKRP91N782LFHPY722Q","","452.39999997615814","img/animal3.png","75","453.89999997615814","2","1","3","0.7,0,0.8,0.7,0.8,0,0.7,0.8,0",""
"","html-keyboard-response","316","192292","0.0-316.0","3IAEQB9FMF6YL1JQ3YLYBUIYU86WDZ","A3AJR1PM02424Y","3FW4EL5A3LANKRP91N782LFHPY722Q","","null","<img src=""img/animal3.png"" style=""width:200px; border:14px solid green;"">","null","","","","","",""
"","image-keyboard-response","317","192820","0.0-317.0","3IAEQB9FMF6YL1JQ3YLYBUIYU86WDZ","A3AJR1PM02424Y","3FW4EL5A3LANKRP91N782LFHPY722Q","","526","img/animal6.png","74","527.3999999761581","1","0","2","0.7,0,0.8,0.7,0.8,0,0.7,0.8,0",""
"","html-keyboard-response","318","193130","0.0-318.0","3IAEQB9FMF6YL1JQ3YLYBUIYU86WDZ","A3AJR1PM02424Y","3FW4EL5A3LANKRP91N782LFHPY722Q","","null","<img src=""img/animal6.png"" style=""width:200px;border:14px solid red;"">","null","","","","","",""
"","image-keyboard-response","319","193689","0.0-319.0","3IAEQB9FMF6YL1JQ3YLYBUIYU86WDZ","A3AJR1PM02424Y","3FW4EL5A3LANKRP91N782LFHPY722Q","","558.1000000238419","img/animal3.png","75","559.1000000238419","2","0","3","0.7,0,0.8,0.7,0.8,0,0.7,0.8,0",""
"","html-keyboard-response","320","193993","0.0-320.0","3IAEQB9FMF6YL1JQ3YLYBUIYU86WDZ","A3AJR1PM02424Y","3FW4EL5A3LANKRP91N782LFHPY722Q","","null","<img src=""img/animal3.png"" style=""width:200px;border:14px solid red;"">","null","","","","","",""
"","image-keyboard-response","321","194496","0.0-321.0","3IAEQB9FMF6YL1JQ3YLYBUIYU86WDZ","A3AJR1PM02424Y","3FW4EL5A3LANKRP91N782LFHPY722Q","","501.60000002384186","img/animal3.png","75","502.60000002384186","2","1","3","0.7,0,0.8,0.7,0.8,0,0.7,0.8,0",""
"","html-keyboard-response","322","194807","0.0-322.0","3IAEQB9FMF6YL1JQ3YLYBUIYU86WDZ","A3AJR1PM02424Y","3FW4EL5A3LANKRP91N782LFHPY722Q","","null","<img src=""img/animal3.png"" style=""width:200px; border:14px solid green;"">","null","","","","","",""
"","image-keyboard-response","323","195195","0.0-323.0","3IAEQB9FMF6YL1JQ3YLYBUIYU86WDZ","A3AJR1PM02424Y","3FW4EL5A3LANKRP91N782LFHPY722Q","","387","img/animal3.png","75","388","2","0","3","0.7,0,0.8,0.7,0.8,0,0.7,0.8,0",""
"","html-keyboard-response","324","195498","0.0-324.0","3IAEQB9FMF6YL1JQ3YLYBUIYU86WDZ","A3AJR1PM02424Y","3FW4EL5A3LANKRP91N782LFHPY722Q","","null","<img src=""img/animal3.png"" style=""width:200px;border:14px solid red;"">","null","","","","","",""
"","image-keyboard-response","325","195940","0.0-325.0","3IAEQB9FMF6YL1JQ3YLYBUIYU86WDZ","A3AJR1PM02424Y","3FW4EL5A3LANKRP91N782LFHPY722Q","","441.59999990463257","img/animal6.png","74","442.60000002384186","1","1","2","0.7,0,0.8,0.7,0.8,0,0.7,0.8,0",""
"","html-keyboard-response","326","196250","0.0-326.0","3IAEQB9FMF6YL1JQ3YLYBUIYU86WDZ","A3AJR1PM02424Y","3FW4EL5A3LANKRP91N782LFHPY722Q","","null","<img src=""img/animal6.png"" style=""width:200px; border:14px solid green;"">","null","","","","","",""
"","image-keyboard-response","327","196692","0.0-327.0","3IAEQB9FMF6YL1JQ3YLYBUIYU86WDZ","A3AJR1PM02424Y","3FW4EL5A3LANKRP91N782LFHPY722Q","","439.59999990463257","img/animal6.png","74","441.2000000476837","1","0","2","0.7,0,0.8,0.7,0.8,0,0.7,0.8,0",""
"","html-keyboard-response","328","196998","0.0-328.0","3IAEQB9FMF6YL1JQ3YLYBUIYU86WDZ","A3AJR1PM02424Y","3FW4EL5A3LANKRP91N782LFHPY722Q","","null","<img src=""img/animal6.png"" style=""width:200px;border:14px solid red;"">","null","","","","","",""
"","image-keyboard-response","329","197660","0.0-329.0","3IAEQB9FMF6YL1JQ3YLYBUIYU86WDZ","A3AJR1PM02424Y","3FW4EL5A3LANKRP91N782LFHPY722Q","","661","img/animal6.png","74","662.2000000476837","1","0","2","0.7,0,0.8,0.7,0.8,0,0.7,0.8,0",""
"","html-keyboard-response","330","197963","0.0-330.0","3IAEQB9FMF6YL1JQ3YLYBUIYU86WDZ","A3AJR1PM02424Y","3FW4EL5A3LANKRP91N782LFHPY722Q","","null","<img src=""img/animal6.png"" style=""width:200px;border:14px solid red;"">","null","","","","","",""
"","image-keyboard-response","331","198381","0.0-331.0","3IAEQB9FMF6YL1JQ3YLYBUIYU86WDZ","A3AJR1PM02424Y","3FW4EL5A3LANKRP91N782LFHPY722Q","","416.3000000715256","img/animal6.png","74","417.5","1","0","2","0.7,0,0.8,0.7,0.8,0,0.7,0.8,0",""
"","html-keyboard-response","332","198683","0.0-332.0","3IAEQB9FMF6YL1JQ3YLYBUIYU86WDZ","A3AJR1PM02424Y","3FW4EL5A3LANKRP91N782LFHPY722Q","","null","<img src=""img/animal6.png"" style=""width:200px;border:14px solid red;"">","null","","","","","",""
"","image-keyboard-response","333","199340","0.0-333.0","3IAEQB9FMF6YL1JQ3YLYBUIYU86WDZ","A3AJR1PM02424Y","3FW4EL5A3LANKRP91N782LFHPY722Q","","655.5","img/animal1.png","76","657","3","1","1","0.7,0,0.8,0.7,0.8,0,0.7,0.8,0",""
"","html-keyboard-response","334","199650","0.0-334.0","3IAEQB9FMF6YL1JQ3YLYBUIYU86WDZ","A3AJR1PM02424Y","3FW4EL5A3LANKRP91N782LFHPY722Q","","null","<img src=""img/animal1.png"" style=""width:200px; border:14px solid green;"">","null","","","","","",""
"","image-keyboard-response","335","199980","0.0-335.0","3IAEQB9FMF6YL1JQ3YLYBUIYU86WDZ","A3AJR1PM02424Y","3FW4EL5A3LANKRP91N782LFHPY722Q","","327.7000000476837","img/animal1.png","76","330","3","1","1","0.7,0,0.8,0.7,0.8,0,0.7,0.8,0",""
"","html-keyboard-response","336","200292","0.0-336.0","3IAEQB9FMF6YL1JQ3YLYBUIYU86WDZ","A3AJR1PM02424Y","3FW4EL5A3LANKRP91N782LFHPY722Q","","null","<img src=""img/animal1.png"" style=""width:200px; border:14px solid green;"">","null","","","","","",""
"","image-keyboard-response","337","201000","0.0-337.0","3IAEQB9FMF6YL1JQ3YLYBUIYU86WDZ","A3AJR1PM02424Y","3FW4EL5A3LANKRP91N782LFHPY722Q","","705.6999999284744","img/animal6.png","74","707.5","1","1","2","0.7,0,0.8,0.7,0.8,0,0.7,0.8,0",""
"","html-keyboard-response","338","201311","0.0-338.0","3IAEQB9FMF6YL1JQ3YLYBUIYU86WDZ","A3AJR1PM02424Y","3FW4EL5A3LANKRP91N782LFHPY722Q","","null","<img src=""img/animal6.png"" style=""width:200px; border:14px solid green;"">","null","","","","","",""
"","image-keyboard-response","339","202107","0.0-339.0","3IAEQB9FMF6YL1JQ3YLYBUIYU86WDZ","A3AJR1PM02424Y","3FW4EL5A3LANKRP91N782LFHPY722Q","","795","img/animal1.png","76","796.1000000238419","3","1","1","0.7,0,0.8,0.7,0.8,0,0.7,0.8,0",""
"","html-keyboard-response","340","202415","0.0-340.0","3IAEQB9FMF6YL1JQ3YLYBUIYU86WDZ","A3AJR1PM02424Y","3FW4EL5A3LANKRP91N782LFHPY722Q","","null","<img src=""img/animal1.png"" style=""width:200px; border:14px solid green;"">","null","","","","","",""
"","image-keyboard-response","341","202900","0.0-341.0","3IAEQB9FMF6YL1JQ3YLYBUIYU86WDZ","A3AJR1PM02424Y","3FW4EL5A3LANKRP91N782LFHPY722Q","","481.90000009536743","img/animal6.png","74","484.2000000476837","1","1","2","0.7,0,0.8,0.7,0.8,0,0.7,0.8,0",""
"","html-keyboard-response","342","203208","0.0-342.0","3IAEQB9FMF6YL1JQ3YLYBUIYU86WDZ","A3AJR1PM02424Y","3FW4EL5A3LANKRP91N782LFHPY722Q","","null","<img src=""img/animal6.png"" style=""width:200px; border:14px solid green;"">","null","","","","","",""
"","image-keyboard-response","343","203590","0.0-343.0","3IAEQB9FMF6YL1JQ3YLYBUIYU86WDZ","A3AJR1PM02424Y","3FW4EL5A3LANKRP91N782LFHPY722Q","","379.2000000476837","img/animal1.png","76","381.5","3","0","1","0.7,0,0.8,0.7,0.8,0,0.7,0.8,0",""
"","html-keyboard-response","344","203898","0.0-344.0","3IAEQB9FMF6YL1JQ3YLYBUIYU86WDZ","A3AJR1PM02424Y","3FW4EL5A3LANKRP91N782LFHPY722Q","","null","<img src=""img/animal1.png"" style=""width:200px;border:14px solid red;"">","null","","","","","",""
"","image-keyboard-response","345","204407","0.0-345.0","3IAEQB9FMF6YL1JQ3YLYBUIYU86WDZ","A3AJR1PM02424Y","3FW4EL5A3LANKRP91N782LFHPY722Q","","507.6999999284744","img/animal6.png","74","508.89999997615814","1","1","2","0.7,0,0.8,0.7,0.8,0,0.7,0.8,0",""
"","html-keyboard-response","346","204716","0.0-346.0","3IAEQB9FMF6YL1JQ3YLYBUIYU86WDZ","A3AJR1PM02424Y","3FW4EL5A3LANKRP91N782LFHPY722Q","","null","<img src=""img/animal6.png"" style=""width:200px; border:14px solid green;"">","null","","","","","",""
"","image-keyboard-response","347","205183","0.0-347.0","3IAEQB9FMF6YL1JQ3YLYBUIYU86WDZ","A3AJR1PM02424Y","3FW4EL5A3LANKRP91N782LFHPY722Q","","465.5","img/animal3.png","75","466.60000002384186","2","1","3","0.7,0,0.8,0.7,0.8,0,0.7,0.8,0",""
"","html-keyboard-response","348","205496","0.0-348.0","3IAEQB9FMF6YL1JQ3YLYBUIYU86WDZ","A3AJR1PM02424Y","3FW4EL5A3LANKRP91N782LFHPY722Q","","null","<img src=""img/animal3.png"" style=""width:200px; border:14px solid green;"">","null","","","","","",""
"","image-keyboard-response","349","205939","0.0-349.0","3IAEQB9FMF6YL1JQ3YLYBUIYU86WDZ","A3AJR1PM02424Y","3FW4EL5A3LANKRP91N782LFHPY722Q","","441.5","img/animal1.png","74","443","1","1","1","0.7,0,0.8,0.7,0.8,0,0.7,0.8,0",""
"","html-keyboard-response","350","206244","0.0-350.0","3IAEQB9FMF6YL1JQ3YLYBUIYU86WDZ","A3AJR1PM02424Y","3FW4EL5A3LANKRP91N782LFHPY722Q","","null","<img src=""img/animal1.png"" style=""width:200px; border:14px solid green;"">","null","","","","","",""
"","image-keyboard-response","351","207508","0.0-351.0","3IAEQB9FMF6YL1JQ3YLYBUIYU86WDZ","A3AJR1PM02424Y","3FW4EL5A3LANKRP91N782LFHPY722Q","","1261.2999999523163","img/animal3.png","75","1262.9000000953674","2","1","3","0.7,0,0.8,0.7,0.8,0,0.7,0.8,0",""
"","html-keyboard-response","352","207816","0.0-352.0","3IAEQB9FMF6YL1JQ3YLYBUIYU86WDZ","A3AJR1PM02424Y","3FW4EL5A3LANKRP91N782LFHPY722Q","","null","<img src=""img/animal3.png"" style=""width:200px; border:14px solid green;"">","null","","","","","",""
"","image-keyboard-response","353","208304","0.0-353.0","3IAEQB9FMF6YL1JQ3YLYBUIYU86WDZ","A3AJR1PM02424Y","3FW4EL5A3LANKRP91N782LFHPY722Q","","486.60000002384186","img/animal3.png","75","487.7000000476837","2","1","3","0.7,0,0.8,0.7,0.8,0,0.7,0.8,0",""
"","html-keyboard-response","354","208614","0.0-354.0","3IAEQB9FMF6YL1JQ3YLYBUIYU86WDZ","A3AJR1PM02424Y","3FW4EL5A3LANKRP91N782LFHPY722Q","","null","<img src=""img/animal3.png"" style=""width:200px; border:14px solid green;"">","null","","","","","",""
"","image-keyboard-response","355","209263","0.0-355.0","3IAEQB9FMF6YL1JQ3YLYBUIYU86WDZ","A3AJR1PM02424Y","3FW4EL5A3LANKRP91N782LFHPY722Q","","646.8999999761581","img/animal3.png","75","648.5","2","1","3","0.7,0,0.8,0.7,0.8,0,0.7,0.8,0",""
"","html-keyboard-response","356","209575","0.0-356.0","3IAEQB9FMF6YL1JQ3YLYBUIYU86WDZ","A3AJR1PM02424Y","3FW4EL5A3LANKRP91N782LFHPY722Q","","null","<img src=""img/animal3.png"" style=""width:200px; border:14px solid green;"">","null","","","","","",""
"","image-keyboard-response","357","209928","0.0-357.0","3IAEQB9FMF6YL1JQ3YLYBUIYU86WDZ","A3AJR1PM02424Y","3FW4EL5A3LANKRP91N782LFHPY722Q","","350.7000000476837","img/animal3.png","75","352.5","2","1","3","0.7,0,0.8,0.7,0.8,0,0.7,0.8,0",""
"","html-keyboard-response","358","210233","0.0-358.0","3IAEQB9FMF6YL1JQ3YLYBUIYU86WDZ","A3AJR1PM02424Y","3FW4EL5A3LANKRP91N782LFHPY722Q","","null","<img src=""img/animal3.png"" style=""width:200px; border:14px solid green;"">","null","","","","","",""
"","image-keyboard-response","359","210914","0.0-359.0","3IAEQB9FMF6YL1JQ3YLYBUIYU86WDZ","A3AJR1PM02424Y","3FW4EL5A3LANKRP91N782LFHPY722Q","","679.1000000238419","img/animal3.png","75","681","2","0","3","0.7,0,0.8,0.7,0.8,0,0.7,0.8,0",""
"","html-keyboard-response","360","211218","0.0-360.0","3IAEQB9FMF6YL1JQ3YLYBUIYU86WDZ","A3AJR1PM02424Y","3FW4EL5A3LANKRP91N782LFHPY722Q","","null","<img src=""img/animal3.png"" style=""width:200px;border:14px solid red;"">","null","","","","","",""
"","image-keyboard-response","361","211963","0.0-361.0","3IAEQB9FMF6YL1JQ3YLYBUIYU86WDZ","A3AJR1PM02424Y","3FW4EL5A3LANKRP91N782LFHPY722Q","","744.1999999284744","img/animal1.png","76","745.6999999284744","3","1","1","0.7,0,0.8,0.7,0.8,0,0.7,0.8,0",""
"","html-keyboard-response","362","212273","0.0-362.0","3IAEQB9FMF6YL1JQ3YLYBUIYU86WDZ","A3AJR1PM02424Y","3FW4EL5A3LANKRP91N782LFHPY722Q","","null","<img src=""img/animal1.png"" style=""width:200px; border:14px solid green;"">","null","","","","","",""
"","instructions","363","214027","0.0-363.0","3IAEQB9FMF6YL1JQ3YLYBUIYU86WDZ","A3AJR1PM02424Y","3FW4EL5A3LANKRP91N782LFHPY722Q","[{""page_index"":0,""viewing_time"":1753.1000000238419}]","1753.5","","","","","","","",""
"","survey-text","364","218071","0.0-364.0","3IAEQB9FMF6YL1JQ3YLYBUIYU86WDZ","A3AJR1PM02424Y","3FW4EL5A3LANKRP91N782LFHPY722Q","","4040.8000000715256","","","","","","","","{""Q0"":""A3AJR1PM02424Y""}"
