"success","trial_type","trial_index","time_elapsed","internal_node_id","assignmentID","mturkID","hitID","view_history","rt","stimulus","key_press","reactionTime","a","r","s","reward_cond","responses"
"true","fullscreen","0","2386","0.0-0.0","37WLF8U1WQC85SAU4XUHHDEBRVH6KP","A3AY0315YWWNXY","3A3KKYU7P33Z3BR9PPFZ5194ZCQMWU","","","","","","","","","",""
"","instructions","1","21168","0.0-1.0","37WLF8U1WQC85SAU4XUHHDEBRVH6KP","A3AY0315YWWNXY","3A3KKYU7P33Z3BR9PPFZ5194ZCQMWU","[{""page_index"":0,""viewing_time"":8487.300000011921},{""page_index"":1,""viewing_time"":1194.199999988079},{""page_index"":2,""viewing_time"":580},{""page_index"":3,""viewing_time"":1988.4000000357628},{""page_index"":4,""viewing_time"":1210.0999999642372},{""page_index"":5,""viewing_time"":1670.2000000476837},{""page_index"":6,""viewing_time"":1268.199999988079},{""page_index"":7,""viewing_time"":2382.399999976158}]","18781.400000035763","","","","","","","",""
"","image-keyboard-response","2","26238","0.0-2.0","37WLF8U1WQC85SAU4XUHHDEBRVH6KP","A3AY0315YWWNXY","3A3KKYU7P33Z3BR9PPFZ5194ZCQMWU","","5068.400000035763","img/animal6.png","76","5069.600000023842","3","1","3","1,0.5,0,1,0,0.5,0.5,0,1",""
"","html-keyboard-response","3","26540","0.0-3.0","37WLF8U1WQC85SAU4XUHHDEBRVH6KP","A3AY0315YWWNXY","3A3KKYU7P33Z3BR9PPFZ5194ZCQMWU","","null","<img src=""img/animal6.png"" style=""width:200px; border:14px solid green;"">","null","","","","","",""
"","image-keyboard-response","4","27692","0.0-4.0","37WLF8U1WQC85SAU4XUHHDEBRVH6KP","A3AY0315YWWNXY","3A3KKYU7P33Z3BR9PPFZ5194ZCQMWU","","1151.2000000476837","img/animal2.png","74","1151.9000000357628","1","1","1","1,0.5,0,1,0,0.5,0.5,0,1",""
"","html-keyboard-response","5","27998","0.0-5.0","37WLF8U1WQC85SAU4XUHHDEBRVH6KP","A3AY0315YWWNXY","3A3KKYU7P33Z3BR9PPFZ5194ZCQMWU","","null","<img src=""img/animal2.png"" style=""width:200px; border:14px solid green;"">","null","","","","","",""
"","image-keyboard-response","6","28819","0.0-6.0","37WLF8U1WQC85SAU4XUHHDEBRVH6KP","A3AY0315YWWNXY","3A3KKYU7P33Z3BR9PPFZ5194ZCQMWU","","821.0999999642372","img/animal6.png","76","821.7000000476837","3","1","3","1,0.5,0,1,0,0.5,0.5,0,1",""
"","html-keyboard-response","7","29130","0.0-7.0","37WLF8U1WQC85SAU4XUHHDEBRVH6KP","A3AY0315YWWNXY","3A3KKYU7P33Z3BR9PPFZ5194ZCQMWU","","null","<img src=""img/animal6.png"" style=""width:200px; border:14px solid green;"">","null","","","","","",""
"","image-keyboard-response","8","29807","0.0-8.0","37WLF8U1WQC85SAU4XUHHDEBRVH6KP","A3AY0315YWWNXY","3A3KKYU7P33Z3BR9PPFZ5194ZCQMWU","","676.5","img/animal4.png","75","677.1000000238419","2","0","2","1,0.5,0,1,0,0.5,0.5,0,1",""
"","html-keyboard-response","9","30109","0.0-9.0","37WLF8U1WQC85SAU4XUHHDEBRVH6KP","A3AY0315YWWNXY","3A3KKYU7P33Z3BR9PPFZ5194ZCQMWU","","null","<img src=""img/animal4.png"" style=""width:200px;border:14px solid red;"">","null","","","","","",""
"","image-keyboard-response","10","30833","0.0-10.0","37WLF8U1WQC85SAU4XUHHDEBRVH6KP","A3AY0315YWWNXY","3A3KKYU7P33Z3BR9PPFZ5194ZCQMWU","","724","img/animal4.png","76","724.5","3","0","2","1,0.5,0,1,0,0.5,0.5,0,1",""
"","html-keyboard-response","11","31135","0.0-11.0","37WLF8U1WQC85SAU4XUHHDEBRVH6KP","A3AY0315YWWNXY","3A3KKYU7P33Z3BR9PPFZ5194ZCQMWU","","null","<img src=""img/animal4.png"" style=""width:200px;border:14px solid red;"">","null","","","","","",""
"","image-keyboard-response","12","31432","0.0-12.0","37WLF8U1WQC85SAU4XUHHDEBRVH6KP","A3AY0315YWWNXY","3A3KKYU7P33Z3BR9PPFZ5194ZCQMWU","","295.30000001192093","img/animal4.png","74","296.10000002384186","1","1","2","1,0.5,0,1,0,0.5,0.5,0,1",""
"","html-keyboard-response","13","31733","0.0-13.0","37WLF8U1WQC85SAU4XUHHDEBRVH6KP","A3AY0315YWWNXY","3A3KKYU7P33Z3BR9PPFZ5194ZCQMWU","","null","<img src=""img/animal4.png"" style=""width:200px; border:14px solid green;"">","null","","","","","",""
"","image-keyboard-response","14","32381","0.0-14.0","37WLF8U1WQC85SAU4XUHHDEBRVH6KP","A3AY0315YWWNXY","3A3KKYU7P33Z3BR9PPFZ5194ZCQMWU","","648","img/animal4.png","74","648.5","1","1","2","1,0.5,0,1,0,0.5,0.5,0,1",""
"","html-keyboard-response","15","32683","0.0-15.0","37WLF8U1WQC85SAU4XUHHDEBRVH6KP","A3AY0315YWWNXY","3A3KKYU7P33Z3BR9PPFZ5194ZCQMWU","","null","<img src=""img/animal4.png"" style=""width:200px; border:14px solid green;"">","null","","","","","",""
"","image-keyboard-response","16","33021","0.0-16.0","37WLF8U1WQC85SAU4XUHHDEBRVH6KP","A3AY0315YWWNXY","3A3KKYU7P33Z3BR9PPFZ5194ZCQMWU","","338.0999999642372","img/animal4.png","74","338.80000001192093","1","1","2","1,0.5,0,1,0,0.5,0.5,0,1",""
"","html-keyboard-response","17","33323","0.0-17.0","37WLF8U1WQC85SAU4XUHHDEBRVH6KP","A3AY0315YWWNXY","3A3KKYU7P33Z3BR9PPFZ5194ZCQMWU","","null","<img src=""img/animal4.png"" style=""width:200px; border:14px solid green;"">","null","","","","","",""
"","image-keyboard-response","18","33845","0.0-18.0","37WLF8U1WQC85SAU4XUHHDEBRVH6KP","A3AY0315YWWNXY","3A3KKYU7P33Z3BR9PPFZ5194ZCQMWU","","522.0999999642372","img/animal2.png","74","522.7000000476837","1","1","1","1,0.5,0,1,0,0.5,0.5,0,1",""
"","html-keyboard-response","19","34147","0.0-19.0","37WLF8U1WQC85SAU4XUHHDEBRVH6KP","A3AY0315YWWNXY","3A3KKYU7P33Z3BR9PPFZ5194ZCQMWU","","null","<img src=""img/animal2.png"" style=""width:200px; border:14px solid green;"">","null","","","","","",""
"","image-keyboard-response","20","34512","0.0-20.0","37WLF8U1WQC85SAU4XUHHDEBRVH6KP","A3AY0315YWWNXY","3A3KKYU7P33Z3BR9PPFZ5194ZCQMWU","","364","img/animal2.png","74","364.69999998807907","1","1","1","1,0.5,0,1,0,0.5,0.5,0,1",""
"","html-keyboard-response","21","34812","0.0-21.0","37WLF8U1WQC85SAU4XUHHDEBRVH6KP","A3AY0315YWWNXY","3A3KKYU7P33Z3BR9PPFZ5194ZCQMWU","","null","<img src=""img/animal2.png"" style=""width:200px; border:14px solid green;"">","null","","","","","",""
"","image-keyboard-response","22","36863","0.0-22.0","37WLF8U1WQC85SAU4XUHHDEBRVH6KP","A3AY0315YWWNXY","3A3KKYU7P33Z3BR9PPFZ5194ZCQMWU","","2050.399999976158","img/animal4.png","76","2050.800000011921","3","0","2","1,0.5,0,1,0,0.5,0.5,0,1",""
"","html-keyboard-response","23","37165","0.0-23.0","37WLF8U1WQC85SAU4XUHHDEBRVH6KP","A3AY0315YWWNXY","3A3KKYU7P33Z3BR9PPFZ5194ZCQMWU","","null","<img src=""img/animal4.png"" style=""width:200px;border:14px solid red;"">","null","","","","","",""
"","image-keyboard-response","24","37732","0.0-24.0","37WLF8U1WQC85SAU4XUHHDEBRVH6KP","A3AY0315YWWNXY","3A3KKYU7P33Z3BR9PPFZ5194ZCQMWU","","565.8999999761581","img/animal4.png","74","566.6000000238419","1","1","2","1,0.5,0,1,0,0.5,0.5,0,1",""
"","html-keyboard-response","25","38033","0.0-25.0","37WLF8U1WQC85SAU4XUHHDEBRVH6KP","A3AY0315YWWNXY","3A3KKYU7P33Z3BR9PPFZ5194ZCQMWU","","null","<img src=""img/animal4.png"" style=""width:200px; border:14px solid green;"">","null","","","","","",""
"","image-keyboard-response","26","38533","0.0-26.0","37WLF8U1WQC85SAU4XUHHDEBRVH6KP","A3AY0315YWWNXY","3A3KKYU7P33Z3BR9PPFZ5194ZCQMWU","","500","img/animal6.png","76","500.60000002384186","3","1","3","1,0.5,0,1,0,0.5,0.5,0,1",""
"","html-keyboard-response","27","38834","0.0-27.0","37WLF8U1WQC85SAU4XUHHDEBRVH6KP","A3AY0315YWWNXY","3A3KKYU7P33Z3BR9PPFZ5194ZCQMWU","","null","<img src=""img/animal6.png"" style=""width:200px; border:14px solid green;"">","null","","","","","",""
"","image-keyboard-response","28","39161","0.0-28.0","37WLF8U1WQC85SAU4XUHHDEBRVH6KP","A3AY0315YWWNXY","3A3KKYU7P33Z3BR9PPFZ5194ZCQMWU","","326.2999999523163","img/animal6.png","76","326.89999997615814","3","1","3","1,0.5,0,1,0,0.5,0.5,0,1",""
"","html-keyboard-response","29","39462","0.0-29.0","37WLF8U1WQC85SAU4XUHHDEBRVH6KP","A3AY0315YWWNXY","3A3KKYU7P33Z3BR9PPFZ5194ZCQMWU","","null","<img src=""img/animal6.png"" style=""width:200px; border:14px solid green;"">","null","","","","","",""
"","image-keyboard-response","30","39751","0.0-30.0","37WLF8U1WQC85SAU4XUHHDEBRVH6KP","A3AY0315YWWNXY","3A3KKYU7P33Z3BR9PPFZ5194ZCQMWU","","288.2999999523163","img/animal6.png","76","288.9000000357628","3","1","3","1,0.5,0,1,0,0.5,0.5,0,1",""
"","html-keyboard-response","31","40053","0.0-31.0","37WLF8U1WQC85SAU4XUHHDEBRVH6KP","A3AY0315YWWNXY","3A3KKYU7P33Z3BR9PPFZ5194ZCQMWU","","null","<img src=""img/animal6.png"" style=""width:200px; border:14px solid green;"">","null","","","","","",""
"","image-keyboard-response","32","40613","0.0-32.0","37WLF8U1WQC85SAU4XUHHDEBRVH6KP","A3AY0315YWWNXY","3A3KKYU7P33Z3BR9PPFZ5194ZCQMWU","","559.7999999523163","img/animal4.png","74","560.4000000357628","1","1","2","1,0.5,0,1,0,0.5,0.5,0,1",""
"","html-keyboard-response","33","40915","0.0-33.0","37WLF8U1WQC85SAU4XUHHDEBRVH6KP","A3AY0315YWWNXY","3A3KKYU7P33Z3BR9PPFZ5194ZCQMWU","","null","<img src=""img/animal4.png"" style=""width:200px; border:14px solid green;"">","null","","","","","",""
"","image-keyboard-response","34","41379","0.0-34.0","37WLF8U1WQC85SAU4XUHHDEBRVH6KP","A3AY0315YWWNXY","3A3KKYU7P33Z3BR9PPFZ5194ZCQMWU","","463.69999998807907","img/animal2.png","74","464.2000000476837","1","1","1","1,0.5,0,1,0,0.5,0.5,0,1",""
"","html-keyboard-response","35","41680","0.0-35.0","37WLF8U1WQC85SAU4XUHHDEBRVH6KP","A3AY0315YWWNXY","3A3KKYU7P33Z3BR9PPFZ5194ZCQMWU","","null","<img src=""img/animal2.png"" style=""width:200px; border:14px solid green;"">","null","","","","","",""
"","image-keyboard-response","36","41968","0.0-36.0","37WLF8U1WQC85SAU4XUHHDEBRVH6KP","A3AY0315YWWNXY","3A3KKYU7P33Z3BR9PPFZ5194ZCQMWU","","286.60000002384186","img/animal2.png","74","287.19999998807907","1","1","1","1,0.5,0,1,0,0.5,0.5,0,1",""
"","html-keyboard-response","37","42268","0.0-37.0","37WLF8U1WQC85SAU4XUHHDEBRVH6KP","A3AY0315YWWNXY","3A3KKYU7P33Z3BR9PPFZ5194ZCQMWU","","null","<img src=""img/animal2.png"" style=""width:200px; border:14px solid green;"">","null","","","","","",""
"","image-keyboard-response","38","42510","0.0-38.0","37WLF8U1WQC85SAU4XUHHDEBRVH6KP","A3AY0315YWWNXY","3A3KKYU7P33Z3BR9PPFZ5194ZCQMWU","","240.60000002384186","img/animal2.png","74","241.19999998807907","1","1","1","1,0.5,0,1,0,0.5,0.5,0,1",""
"","html-keyboard-response","39","42811","0.0-39.0","37WLF8U1WQC85SAU4XUHHDEBRVH6KP","A3AY0315YWWNXY","3A3KKYU7P33Z3BR9PPFZ5194ZCQMWU","","null","<img src=""img/animal2.png"" style=""width:200px; border:14px solid green;"">","null","","","","","",""
"","image-keyboard-response","40","43433","0.0-40.0","37WLF8U1WQC85SAU4XUHHDEBRVH6KP","A3AY0315YWWNXY","3A3KKYU7P33Z3BR9PPFZ5194ZCQMWU","","621.5","img/animal2.png","74","622","1","1","1","1,0.5,0,1,0,0.5,0.5,0,1",""
"","html-keyboard-response","41","43735","0.0-41.0","37WLF8U1WQC85SAU4XUHHDEBRVH6KP","A3AY0315YWWNXY","3A3KKYU7P33Z3BR9PPFZ5194ZCQMWU","","null","<img src=""img/animal2.png"" style=""width:200px; border:14px solid green;"">","null","","","","","",""
"","image-keyboard-response","42","43873","0.0-42.0","37WLF8U1WQC85SAU4XUHHDEBRVH6KP","A3AY0315YWWNXY","3A3KKYU7P33Z3BR9PPFZ5194ZCQMWU","","137.80000001192093","img/animal6.png","74","138.39999997615814","1","0","3","1,0.5,0,1,0,0.5,0.5,0,1",""
"","html-keyboard-response","43","44175","0.0-43.0","37WLF8U1WQC85SAU4XUHHDEBRVH6KP","A3AY0315YWWNXY","3A3KKYU7P33Z3BR9PPFZ5194ZCQMWU","","null","<img src=""img/animal6.png"" style=""width:200px;border:14px solid red;"">","null","","","","","",""
"","image-keyboard-response","44","44309","0.0-44.0","37WLF8U1WQC85SAU4XUHHDEBRVH6KP","A3AY0315YWWNXY","3A3KKYU7P33Z3BR9PPFZ5194ZCQMWU","","133.80000001192093","img/animal4.png","76","134.30000001192093","3","0","2","1,0.5,0,1,0,0.5,0.5,0,1",""
"","html-keyboard-response","45","44610","0.0-45.0","37WLF8U1WQC85SAU4XUHHDEBRVH6KP","A3AY0315YWWNXY","3A3KKYU7P33Z3BR9PPFZ5194ZCQMWU","","null","<img src=""img/animal4.png"" style=""width:200px;border:14px solid red;"">","null","","","","","",""
"","image-keyboard-response","46","45319","0.0-46.0","37WLF8U1WQC85SAU4XUHHDEBRVH6KP","A3AY0315YWWNXY","3A3KKYU7P33Z3BR9PPFZ5194ZCQMWU","","708.3999999761581","img/animal2.png","74","709","1","1","1","1,0.5,0,1,0,0.5,0.5,0,1",""
"","html-keyboard-response","47","45621","0.0-47.0","37WLF8U1WQC85SAU4XUHHDEBRVH6KP","A3AY0315YWWNXY","3A3KKYU7P33Z3BR9PPFZ5194ZCQMWU","","null","<img src=""img/animal2.png"" style=""width:200px; border:14px solid green;"">","null","","","","","",""
"","image-keyboard-response","48","46179","0.0-48.0","37WLF8U1WQC85SAU4XUHHDEBRVH6KP","A3AY0315YWWNXY","3A3KKYU7P33Z3BR9PPFZ5194ZCQMWU","","557.6000000238419","img/animal6.png","76","558.1999999880791","3","1","3","1,0.5,0,1,0,0.5,0.5,0,1",""
"","html-keyboard-response","49","46480","0.0-49.0","37WLF8U1WQC85SAU4XUHHDEBRVH6KP","A3AY0315YWWNXY","3A3KKYU7P33Z3BR9PPFZ5194ZCQMWU","","null","<img src=""img/animal6.png"" style=""width:200px; border:14px solid green;"">","null","","","","","",""
"","image-keyboard-response","50","47050","0.0-50.0","37WLF8U1WQC85SAU4XUHHDEBRVH6KP","A3AY0315YWWNXY","3A3KKYU7P33Z3BR9PPFZ5194ZCQMWU","","569","img/animal2.png","74","569.6000000238419","1","1","1","1,0.5,0,1,0,0.5,0.5,0,1",""
"","html-keyboard-response","51","47351","0.0-51.0","37WLF8U1WQC85SAU4XUHHDEBRVH6KP","A3AY0315YWWNXY","3A3KKYU7P33Z3BR9PPFZ5194ZCQMWU","","null","<img src=""img/animal2.png"" style=""width:200px; border:14px solid green;"">","null","","","","","",""
"","image-keyboard-response","52","48059","0.0-52.0","37WLF8U1WQC85SAU4XUHHDEBRVH6KP","A3AY0315YWWNXY","3A3KKYU7P33Z3BR9PPFZ5194ZCQMWU","","707.5","img/animal4.png","76","708.3000000119209","3","0","2","1,0.5,0,1,0,0.5,0.5,0,1",""
"","html-keyboard-response","53","48361","0.0-53.0","37WLF8U1WQC85SAU4XUHHDEBRVH6KP","A3AY0315YWWNXY","3A3KKYU7P33Z3BR9PPFZ5194ZCQMWU","","null","<img src=""img/animal4.png"" style=""width:200px;border:14px solid red;"">","null","","","","","",""
"","image-keyboard-response","54","49079","0.0-54.0","37WLF8U1WQC85SAU4XUHHDEBRVH6KP","A3AY0315YWWNXY","3A3KKYU7P33Z3BR9PPFZ5194ZCQMWU","","717.5999999642372","img/animal2.png","74","718.2000000476837","1","1","1","1,0.5,0,1,0,0.5,0.5,0,1",""
"","html-keyboard-response","55","49380","0.0-55.0","37WLF8U1WQC85SAU4XUHHDEBRVH6KP","A3AY0315YWWNXY","3A3KKYU7P33Z3BR9PPFZ5194ZCQMWU","","null","<img src=""img/animal2.png"" style=""width:200px; border:14px solid green;"">","null","","","","","",""
"","image-keyboard-response","56","49994","0.0-56.0","37WLF8U1WQC85SAU4XUHHDEBRVH6KP","A3AY0315YWWNXY","3A3KKYU7P33Z3BR9PPFZ5194ZCQMWU","","612.5","img/animal6.png","76","613.1999999880791","3","1","3","1,0.5,0,1,0,0.5,0.5,0,1",""
"","html-keyboard-response","57","50295","0.0-57.0","37WLF8U1WQC85SAU4XUHHDEBRVH6KP","A3AY0315YWWNXY","3A3KKYU7P33Z3BR9PPFZ5194ZCQMWU","","null","<img src=""img/animal6.png"" style=""width:200px; border:14px solid green;"">","null","","","","","",""
"","image-keyboard-response","58","50783","0.0-58.0","37WLF8U1WQC85SAU4XUHHDEBRVH6KP","A3AY0315YWWNXY","3A3KKYU7P33Z3BR9PPFZ5194ZCQMWU","","487.60000002384186","img/animal2.png","74","488.2000000476837","1","1","1","1,0.5,0,1,0,0.5,0.5,0,1",""
"","html-keyboard-response","59","51085","0.0-59.0","37WLF8U1WQC85SAU4XUHHDEBRVH6KP","A3AY0315YWWNXY","3A3KKYU7P33Z3BR9PPFZ5194ZCQMWU","","null","<img src=""img/animal2.png"" style=""width:200px; border:14px solid green;"">","null","","","","","",""
"","image-keyboard-response","60","51481","0.0-60.0","37WLF8U1WQC85SAU4XUHHDEBRVH6KP","A3AY0315YWWNXY","3A3KKYU7P33Z3BR9PPFZ5194ZCQMWU","","395.7999999523163","img/animal4.png","74","396.5","1","1","2","1,0.5,0,1,0,0.5,0.5,0,1",""
"","html-keyboard-response","61","51783","0.0-61.0","37WLF8U1WQC85SAU4XUHHDEBRVH6KP","A3AY0315YWWNXY","3A3KKYU7P33Z3BR9PPFZ5194ZCQMWU","","null","<img src=""img/animal4.png"" style=""width:200px; border:14px solid green;"">","null","","","","","",""
"","image-keyboard-response","62","52110","0.0-62.0","37WLF8U1WQC85SAU4XUHHDEBRVH6KP","A3AY0315YWWNXY","3A3KKYU7P33Z3BR9PPFZ5194ZCQMWU","","326","img/animal2.png","74","326.69999998807907","1","1","1","1,0.5,0,1,0,0.5,0.5,0,1",""
"","html-keyboard-response","63","52411","0.0-63.0","37WLF8U1WQC85SAU4XUHHDEBRVH6KP","A3AY0315YWWNXY","3A3KKYU7P33Z3BR9PPFZ5194ZCQMWU","","null","<img src=""img/animal2.png"" style=""width:200px; border:14px solid green;"">","null","","","","","",""
"","image-keyboard-response","64","53301","0.0-64.0","37WLF8U1WQC85SAU4XUHHDEBRVH6KP","A3AY0315YWWNXY","3A3KKYU7P33Z3BR9PPFZ5194ZCQMWU","","890.0999999642372","img/animal6.png","76","890.8000000119209","3","1","3","1,0.5,0,1,0,0.5,0.5,0,1",""
"","html-keyboard-response","65","53603","0.0-65.0","37WLF8U1WQC85SAU4XUHHDEBRVH6KP","A3AY0315YWWNXY","3A3KKYU7P33Z3BR9PPFZ5194ZCQMWU","","null","<img src=""img/animal6.png"" style=""width:200px; border:14px solid green;"">","null","","","","","",""
"","image-keyboard-response","66","53946","0.0-66.0","37WLF8U1WQC85SAU4XUHHDEBRVH6KP","A3AY0315YWWNXY","3A3KKYU7P33Z3BR9PPFZ5194ZCQMWU","","342.19999998807907","img/animal2.png","74","342.80000001192093","1","1","1","1,0.5,0,1,0,0.5,0.5,0,1",""
"","html-keyboard-response","67","54247","0.0-67.0","37WLF8U1WQC85SAU4XUHHDEBRVH6KP","A3AY0315YWWNXY","3A3KKYU7P33Z3BR9PPFZ5194ZCQMWU","","null","<img src=""img/animal2.png"" style=""width:200px; border:14px solid green;"">","null","","","","","",""
"","image-keyboard-response","68","54683","0.0-68.0","37WLF8U1WQC85SAU4XUHHDEBRVH6KP","A3AY0315YWWNXY","3A3KKYU7P33Z3BR9PPFZ5194ZCQMWU","","436.19999998807907","img/animal6.png","76","436.80000001192093","3","1","3","1,0.5,0,1,0,0.5,0.5,0,1",""
"","html-keyboard-response","69","54985","0.0-69.0","37WLF8U1WQC85SAU4XUHHDEBRVH6KP","A3AY0315YWWNXY","3A3KKYU7P33Z3BR9PPFZ5194ZCQMWU","","null","<img src=""img/animal6.png"" style=""width:200px; border:14px solid green;"">","null","","","","","",""
"","image-keyboard-response","70","55365","0.0-70.0","37WLF8U1WQC85SAU4XUHHDEBRVH6KP","A3AY0315YWWNXY","3A3KKYU7P33Z3BR9PPFZ5194ZCQMWU","","380","img/animal6.png","76","380.69999998807907","3","1","3","1,0.5,0,1,0,0.5,0.5,0,1",""
"","html-keyboard-response","71","55666","0.0-71.0","37WLF8U1WQC85SAU4XUHHDEBRVH6KP","A3AY0315YWWNXY","3A3KKYU7P33Z3BR9PPFZ5194ZCQMWU","","null","<img src=""img/animal6.png"" style=""width:200px; border:14px solid green;"">","null","","","","","",""
"","image-keyboard-response","72","56163","0.0-72.0","37WLF8U1WQC85SAU4XUHHDEBRVH6KP","A3AY0315YWWNXY","3A3KKYU7P33Z3BR9PPFZ5194ZCQMWU","","496.5","img/animal2.png","74","497.0999999642372","1","1","1","1,0.5,0,1,0,0.5,0.5,0,1",""
"","html-keyboard-response","73","56464","0.0-73.0","37WLF8U1WQC85SAU4XUHHDEBRVH6KP","A3AY0315YWWNXY","3A3KKYU7P33Z3BR9PPFZ5194ZCQMWU","","null","<img src=""img/animal2.png"" style=""width:200px; border:14px solid green;"">","null","","","","","",""
"","image-keyboard-response","74","56861","0.0-74.0","37WLF8U1WQC85SAU4XUHHDEBRVH6KP","A3AY0315YWWNXY","3A3KKYU7P33Z3BR9PPFZ5194ZCQMWU","","396.19999998807907","img/animal2.png","74","396.69999998807907","1","1","1","1,0.5,0,1,0,0.5,0.5,0,1",""
"","html-keyboard-response","75","57162","0.0-75.0","37WLF8U1WQC85SAU4XUHHDEBRVH6KP","A3AY0315YWWNXY","3A3KKYU7P33Z3BR9PPFZ5194ZCQMWU","","null","<img src=""img/animal2.png"" style=""width:200px; border:14px solid green;"">","null","","","","","",""
"","image-keyboard-response","76","57649","0.0-76.0","37WLF8U1WQC85SAU4XUHHDEBRVH6KP","A3AY0315YWWNXY","3A3KKYU7P33Z3BR9PPFZ5194ZCQMWU","","486.80000001192093","img/animal6.png","76","487.39999997615814","3","1","3","1,0.5,0,1,0,0.5,0.5,0,1",""
"","html-keyboard-response","77","57950","0.0-77.0","37WLF8U1WQC85SAU4XUHHDEBRVH6KP","A3AY0315YWWNXY","3A3KKYU7P33Z3BR9PPFZ5194ZCQMWU","","null","<img src=""img/animal6.png"" style=""width:200px; border:14px solid green;"">","null","","","","","",""
"","image-keyboard-response","78","58381","0.0-78.0","37WLF8U1WQC85SAU4XUHHDEBRVH6KP","A3AY0315YWWNXY","3A3KKYU7P33Z3BR9PPFZ5194ZCQMWU","","430.5","img/animal4.png","74","431.19999998807907","1","1","2","1,0.5,0,1,0,0.5,0.5,0,1",""
"","html-keyboard-response","79","58682","0.0-79.0","37WLF8U1WQC85SAU4XUHHDEBRVH6KP","A3AY0315YWWNXY","3A3KKYU7P33Z3BR9PPFZ5194ZCQMWU","","null","<img src=""img/animal4.png"" style=""width:200px; border:14px solid green;"">","null","","","","","",""
"","image-keyboard-response","80","59459","0.0-80.0","37WLF8U1WQC85SAU4XUHHDEBRVH6KP","A3AY0315YWWNXY","3A3KKYU7P33Z3BR9PPFZ5194ZCQMWU","","776.3999999761581","img/animal6.png","76","776.9000000357628","3","1","3","1,0.5,0,1,0,0.5,0.5,0,1",""
"","html-keyboard-response","81","59760","0.0-81.0","37WLF8U1WQC85SAU4XUHHDEBRVH6KP","A3AY0315YWWNXY","3A3KKYU7P33Z3BR9PPFZ5194ZCQMWU","","null","<img src=""img/animal6.png"" style=""width:200px; border:14px solid green;"">","null","","","","","",""
"","image-keyboard-response","82","60247","0.0-82.0","37WLF8U1WQC85SAU4XUHHDEBRVH6KP","A3AY0315YWWNXY","3A3KKYU7P33Z3BR9PPFZ5194ZCQMWU","","486.39999997615814","img/animal4.png","76","487","3","1","2","1,0.5,0,1,0,0.5,0.5,0,1",""
"","html-keyboard-response","83","60548","0.0-83.0","37WLF8U1WQC85SAU4XUHHDEBRVH6KP","A3AY0315YWWNXY","3A3KKYU7P33Z3BR9PPFZ5194ZCQMWU","","null","<img src=""img/animal4.png"" style=""width:200px; border:14px solid green;"">","null","","","","","",""
"","image-keyboard-response","84","63308","0.0-84.0","37WLF8U1WQC85SAU4XUHHDEBRVH6KP","A3AY0315YWWNXY","3A3KKYU7P33Z3BR9PPFZ5194ZCQMWU","","2758.600000023842","img/animal6.png","76","2759.199999988079","3","1","3","1,0.5,0,1,0,0.5,0.5,0,1",""
"","html-keyboard-response","85","63610","0.0-85.0","37WLF8U1WQC85SAU4XUHHDEBRVH6KP","A3AY0315YWWNXY","3A3KKYU7P33Z3BR9PPFZ5194ZCQMWU","","null","<img src=""img/animal6.png"" style=""width:200px; border:14px solid green;"">","null","","","","","",""
"","image-keyboard-response","86","64621","0.0-86.0","37WLF8U1WQC85SAU4XUHHDEBRVH6KP","A3AY0315YWWNXY","3A3KKYU7P33Z3BR9PPFZ5194ZCQMWU","","1011","img/animal2.png","74","1011.8000000119209","1","1","1","1,0.5,0,1,0,0.5,0.5,0,1",""
"","html-keyboard-response","87","64922","0.0-87.0","37WLF8U1WQC85SAU4XUHHDEBRVH6KP","A3AY0315YWWNXY","3A3KKYU7P33Z3BR9PPFZ5194ZCQMWU","","null","<img src=""img/animal2.png"" style=""width:200px; border:14px solid green;"">","null","","","","","",""
"","image-keyboard-response","88","65515","0.0-88.0","37WLF8U1WQC85SAU4XUHHDEBRVH6KP","A3AY0315YWWNXY","3A3KKYU7P33Z3BR9PPFZ5194ZCQMWU","","592.5","img/animal6.png","76","593","3","1","3","1,0.5,0,1,0,0.5,0.5,0,1",""
"","html-keyboard-response","89","65816","0.0-89.0","37WLF8U1WQC85SAU4XUHHDEBRVH6KP","A3AY0315YWWNXY","3A3KKYU7P33Z3BR9PPFZ5194ZCQMWU","","null","<img src=""img/animal6.png"" style=""width:200px; border:14px solid green;"">","null","","","","","",""
"","image-keyboard-response","90","66403","0.0-90.0","37WLF8U1WQC85SAU4XUHHDEBRVH6KP","A3AY0315YWWNXY","3A3KKYU7P33Z3BR9PPFZ5194ZCQMWU","","586.3000000119209","img/animal4.png","76","586.8000000119209","3","0","2","1,0.5,0,1,0,0.5,0.5,0,1",""
"","html-keyboard-response","91","66704","0.0-91.0","37WLF8U1WQC85SAU4XUHHDEBRVH6KP","A3AY0315YWWNXY","3A3KKYU7P33Z3BR9PPFZ5194ZCQMWU","","null","<img src=""img/animal4.png"" style=""width:200px;border:14px solid red;"">","null","","","","","",""
"","image-keyboard-response","92","67201","0.0-92.0","37WLF8U1WQC85SAU4XUHHDEBRVH6KP","A3AY0315YWWNXY","3A3KKYU7P33Z3BR9PPFZ5194ZCQMWU","","496.39999997615814","img/animal4.png","74","496.9000000357628","1","1","2","1,0.5,0,1,0,0.5,0.5,0,1",""
"","html-keyboard-response","93","67503","0.0-93.0","37WLF8U1WQC85SAU4XUHHDEBRVH6KP","A3AY0315YWWNXY","3A3KKYU7P33Z3BR9PPFZ5194ZCQMWU","","null","<img src=""img/animal4.png"" style=""width:200px; border:14px solid green;"">","null","","","","","",""
"","image-keyboard-response","94","68981","0.0-94.0","37WLF8U1WQC85SAU4XUHHDEBRVH6KP","A3AY0315YWWNXY","3A3KKYU7P33Z3BR9PPFZ5194ZCQMWU","","1477.8999999761581","img/animal6.png","76","1478.4000000357628","3","1","3","1,0.5,0,1,0,0.5,0.5,0,1",""
"","html-keyboard-response","95","69282","0.0-95.0","37WLF8U1WQC85SAU4XUHHDEBRVH6KP","A3AY0315YWWNXY","3A3KKYU7P33Z3BR9PPFZ5194ZCQMWU","","null","<img src=""img/animal6.png"" style=""width:200px; border:14px solid green;"">","null","","","","","",""
"","image-keyboard-response","96","69747","0.0-96.0","37WLF8U1WQC85SAU4XUHHDEBRVH6KP","A3AY0315YWWNXY","3A3KKYU7P33Z3BR9PPFZ5194ZCQMWU","","464.30000001192093","img/animal6.png","76","464.80000001192093","3","1","3","1,0.5,0,1,0,0.5,0.5,0,1",""
"","html-keyboard-response","97","70054","0.0-97.0","37WLF8U1WQC85SAU4XUHHDEBRVH6KP","A3AY0315YWWNXY","3A3KKYU7P33Z3BR9PPFZ5194ZCQMWU","","null","<img src=""img/animal6.png"" style=""width:200px; border:14px solid green;"">","null","","","","","",""
"","image-keyboard-response","98","70516","0.0-98.0","37WLF8U1WQC85SAU4XUHHDEBRVH6KP","A3AY0315YWWNXY","3A3KKYU7P33Z3BR9PPFZ5194ZCQMWU","","460.60000002384186","img/animal2.png","74","461.30000001192093","1","1","1","1,0.5,0,1,0,0.5,0.5,0,1",""
"","html-keyboard-response","99","70817","0.0-99.0","37WLF8U1WQC85SAU4XUHHDEBRVH6KP","A3AY0315YWWNXY","3A3KKYU7P33Z3BR9PPFZ5194ZCQMWU","","null","<img src=""img/animal2.png"" style=""width:200px; border:14px solid green;"">","null","","","","","",""
"","image-keyboard-response","100","71225","0.0-100.0","37WLF8U1WQC85SAU4XUHHDEBRVH6KP","A3AY0315YWWNXY","3A3KKYU7P33Z3BR9PPFZ5194ZCQMWU","","407.89999997615814","img/animal4.png","74","408.39999997615814","1","1","2","1,0.5,0,1,0,0.5,0.5,0,1",""
"","html-keyboard-response","101","71526","0.0-101.0","37WLF8U1WQC85SAU4XUHHDEBRVH6KP","A3AY0315YWWNXY","3A3KKYU7P33Z3BR9PPFZ5194ZCQMWU","","null","<img src=""img/animal4.png"" style=""width:200px; border:14px solid green;"">","null","","","","","",""
"","image-keyboard-response","102","72123","0.0-102.0","37WLF8U1WQC85SAU4XUHHDEBRVH6KP","A3AY0315YWWNXY","3A3KKYU7P33Z3BR9PPFZ5194ZCQMWU","","596.3999999761581","img/animal6.png","76","596.8000000119209","3","1","3","1,0.5,0,1,0,0.5,0.5,0,1",""
"","html-keyboard-response","103","72424","0.0-103.0","37WLF8U1WQC85SAU4XUHHDEBRVH6KP","A3AY0315YWWNXY","3A3KKYU7P33Z3BR9PPFZ5194ZCQMWU","","null","<img src=""img/animal6.png"" style=""width:200px; border:14px solid green;"">","null","","","","","",""
"","image-keyboard-response","104","72833","0.0-104.0","37WLF8U1WQC85SAU4XUHHDEBRVH6KP","A3AY0315YWWNXY","3A3KKYU7P33Z3BR9PPFZ5194ZCQMWU","","408.60000002384186","img/animal6.png","76","409.10000002384186","3","1","3","1,0.5,0,1,0,0.5,0.5,0,1",""
"","html-keyboard-response","105","73134","0.0-105.0","37WLF8U1WQC85SAU4XUHHDEBRVH6KP","A3AY0315YWWNXY","3A3KKYU7P33Z3BR9PPFZ5194ZCQMWU","","null","<img src=""img/animal6.png"" style=""width:200px; border:14px solid green;"">","null","","","","","",""
"","image-keyboard-response","106","73504","0.0-106.0","37WLF8U1WQC85SAU4XUHHDEBRVH6KP","A3AY0315YWWNXY","3A3KKYU7P33Z3BR9PPFZ5194ZCQMWU","","368.60000002384186","img/animal6.png","76","369.19999998807907","3","1","3","1,0.5,0,1,0,0.5,0.5,0,1",""
"","html-keyboard-response","107","73805","0.0-107.0","37WLF8U1WQC85SAU4XUHHDEBRVH6KP","A3AY0315YWWNXY","3A3KKYU7P33Z3BR9PPFZ5194ZCQMWU","","null","<img src=""img/animal6.png"" style=""width:200px; border:14px solid green;"">","null","","","","","",""
"","image-keyboard-response","108","74141","0.0-108.0","37WLF8U1WQC85SAU4XUHHDEBRVH6KP","A3AY0315YWWNXY","3A3KKYU7P33Z3BR9PPFZ5194ZCQMWU","","335.2999999523163","img/animal6.png","76","335.9000000357628","3","1","3","1,0.5,0,1,0,0.5,0.5,0,1",""
"","html-keyboard-response","109","74443","0.0-109.0","37WLF8U1WQC85SAU4XUHHDEBRVH6KP","A3AY0315YWWNXY","3A3KKYU7P33Z3BR9PPFZ5194ZCQMWU","","null","<img src=""img/animal6.png"" style=""width:200px; border:14px solid green;"">","null","","","","","",""
"","image-keyboard-response","110","75059","0.0-110.0","37WLF8U1WQC85SAU4XUHHDEBRVH6KP","A3AY0315YWWNXY","3A3KKYU7P33Z3BR9PPFZ5194ZCQMWU","","616.1000000238419","img/animal4.png","74","616.7000000476837","1","1","2","1,0.5,0,1,0,0.5,0.5,0,1",""
"","html-keyboard-response","111","75360","0.0-111.0","37WLF8U1WQC85SAU4XUHHDEBRVH6KP","A3AY0315YWWNXY","3A3KKYU7P33Z3BR9PPFZ5194ZCQMWU","","null","<img src=""img/animal4.png"" style=""width:200px; border:14px solid green;"">","null","","","","","",""
"","image-keyboard-response","112","75744","0.0-112.0","37WLF8U1WQC85SAU4XUHHDEBRVH6KP","A3AY0315YWWNXY","3A3KKYU7P33Z3BR9PPFZ5194ZCQMWU","","382.7000000476837","img/animal4.png","74","383.39999997615814","1","1","2","1,0.5,0,1,0,0.5,0.5,0,1",""
"","html-keyboard-response","113","76045","0.0-113.0","37WLF8U1WQC85SAU4XUHHDEBRVH6KP","A3AY0315YWWNXY","3A3KKYU7P33Z3BR9PPFZ5194ZCQMWU","","null","<img src=""img/animal4.png"" style=""width:200px; border:14px solid green;"">","null","","","","","",""
"","image-keyboard-response","114","76775","0.0-114.0","37WLF8U1WQC85SAU4XUHHDEBRVH6KP","A3AY0315YWWNXY","3A3KKYU7P33Z3BR9PPFZ5194ZCQMWU","","729.2999999523163","img/animal2.png","74","729.8999999761581","1","1","1","1,0.5,0,1,0,0.5,0.5,0,1",""
"","html-keyboard-response","115","77077","0.0-115.0","37WLF8U1WQC85SAU4XUHHDEBRVH6KP","A3AY0315YWWNXY","3A3KKYU7P33Z3BR9PPFZ5194ZCQMWU","","null","<img src=""img/animal2.png"" style=""width:200px; border:14px solid green;"">","null","","","","","",""
"","image-keyboard-response","116","77763","0.0-116.0","37WLF8U1WQC85SAU4XUHHDEBRVH6KP","A3AY0315YWWNXY","3A3KKYU7P33Z3BR9PPFZ5194ZCQMWU","","685.8999999761581","img/animal4.png","74","686.5","1","1","2","1,0.5,0,1,0,0.5,0.5,0,1",""
"","html-keyboard-response","117","78065","0.0-117.0","37WLF8U1WQC85SAU4XUHHDEBRVH6KP","A3AY0315YWWNXY","3A3KKYU7P33Z3BR9PPFZ5194ZCQMWU","","null","<img src=""img/animal4.png"" style=""width:200px; border:14px solid green;"">","null","","","","","",""
"","image-keyboard-response","118","78501","0.0-118.0","37WLF8U1WQC85SAU4XUHHDEBRVH6KP","A3AY0315YWWNXY","3A3KKYU7P33Z3BR9PPFZ5194ZCQMWU","","435.69999998807907","img/animal2.png","74","436.30000001192093","1","1","1","1,0.5,0,1,0,0.5,0.5,0,1",""
"","html-keyboard-response","119","78804","0.0-119.0","37WLF8U1WQC85SAU4XUHHDEBRVH6KP","A3AY0315YWWNXY","3A3KKYU7P33Z3BR9PPFZ5194ZCQMWU","","null","<img src=""img/animal2.png"" style=""width:200px; border:14px solid green;"">","null","","","","","",""
"","image-keyboard-response","120","79223","0.0-120.0","37WLF8U1WQC85SAU4XUHHDEBRVH6KP","A3AY0315YWWNXY","3A3KKYU7P33Z3BR9PPFZ5194ZCQMWU","","419","img/animal4.png","74","419.60000002384186","1","1","2","1,0.5,0,1,0,0.5,0.5,0,1",""
"","html-keyboard-response","121","79524","0.0-121.0","37WLF8U1WQC85SAU4XUHHDEBRVH6KP","A3AY0315YWWNXY","3A3KKYU7P33Z3BR9PPFZ5194ZCQMWU","","null","<img src=""img/animal4.png"" style=""width:200px; border:14px solid green;"">","null","","","","","",""
"","image-keyboard-response","122","79971","0.0-122.0","37WLF8U1WQC85SAU4XUHHDEBRVH6KP","A3AY0315YWWNXY","3A3KKYU7P33Z3BR9PPFZ5194ZCQMWU","","446.39999997615814","img/animal2.png","74","447.0999999642372","1","1","1","1,0.5,0,1,0,0.5,0.5,0,1",""
"","html-keyboard-response","123","80273","0.0-123.0","37WLF8U1WQC85SAU4XUHHDEBRVH6KP","A3AY0315YWWNXY","3A3KKYU7P33Z3BR9PPFZ5194ZCQMWU","","null","<img src=""img/animal2.png"" style=""width:200px; border:14px solid green;"">","null","","","","","",""
"","image-keyboard-response","124","80605","0.0-124.0","37WLF8U1WQC85SAU4XUHHDEBRVH6KP","A3AY0315YWWNXY","3A3KKYU7P33Z3BR9PPFZ5194ZCQMWU","","332","img/animal2.png","74","332.30000001192093","1","1","1","1,0.5,0,1,0,0.5,0.5,0,1",""
"","html-keyboard-response","125","80907","0.0-125.0","37WLF8U1WQC85SAU4XUHHDEBRVH6KP","A3AY0315YWWNXY","3A3KKYU7P33Z3BR9PPFZ5194ZCQMWU","","null","<img src=""img/animal2.png"" style=""width:200px; border:14px solid green;"">","null","","","","","",""
"","image-keyboard-response","126","81199","0.0-126.0","37WLF8U1WQC85SAU4XUHHDEBRVH6KP","A3AY0315YWWNXY","3A3KKYU7P33Z3BR9PPFZ5194ZCQMWU","","291.69999998807907","img/animal2.png","74","292.30000001192093","1","1","1","1,0.5,0,1,0,0.5,0.5,0,1",""
"","html-keyboard-response","127","81501","0.0-127.0","37WLF8U1WQC85SAU4XUHHDEBRVH6KP","A3AY0315YWWNXY","3A3KKYU7P33Z3BR9PPFZ5194ZCQMWU","","null","<img src=""img/animal2.png"" style=""width:200px; border:14px solid green;"">","null","","","","","",""
"","image-keyboard-response","128","82117","0.0-128.0","37WLF8U1WQC85SAU4XUHHDEBRVH6KP","A3AY0315YWWNXY","3A3KKYU7P33Z3BR9PPFZ5194ZCQMWU","","615.6999999880791","img/animal6.png","76","616.5","3","1","3","1,0.5,0,1,0,0.5,0.5,0,1",""
"","html-keyboard-response","129","82418","0.0-129.0","37WLF8U1WQC85SAU4XUHHDEBRVH6KP","A3AY0315YWWNXY","3A3KKYU7P33Z3BR9PPFZ5194ZCQMWU","","null","<img src=""img/animal6.png"" style=""width:200px; border:14px solid green;"">","null","","","","","",""
"","image-keyboard-response","130","82779","0.0-130.0","37WLF8U1WQC85SAU4XUHHDEBRVH6KP","A3AY0315YWWNXY","3A3KKYU7P33Z3BR9PPFZ5194ZCQMWU","","360.60000002384186","img/animal6.png","76","361.0999999642372","3","1","3","1,0.5,0,1,0,0.5,0.5,0,1",""
"","html-keyboard-response","131","83080","0.0-131.0","37WLF8U1WQC85SAU4XUHHDEBRVH6KP","A3AY0315YWWNXY","3A3KKYU7P33Z3BR9PPFZ5194ZCQMWU","","null","<img src=""img/animal6.png"" style=""width:200px; border:14px solid green;"">","null","","","","","",""
"","image-keyboard-response","132","83640","0.0-132.0","37WLF8U1WQC85SAU4XUHHDEBRVH6KP","A3AY0315YWWNXY","3A3KKYU7P33Z3BR9PPFZ5194ZCQMWU","","558.3000000119209","img/animal4.png","74","559","1","1","2","1,0.5,0,1,0,0.5,0.5,0,1",""
"","html-keyboard-response","133","83941","0.0-133.0","37WLF8U1WQC85SAU4XUHHDEBRVH6KP","A3AY0315YWWNXY","3A3KKYU7P33Z3BR9PPFZ5194ZCQMWU","","null","<img src=""img/animal4.png"" style=""width:200px; border:14px solid green;"">","null","","","","","",""
"","image-keyboard-response","134","84601","0.0-134.0","37WLF8U1WQC85SAU4XUHHDEBRVH6KP","A3AY0315YWWNXY","3A3KKYU7P33Z3BR9PPFZ5194ZCQMWU","","659.6999999880791","img/animal6.png","74","660.2000000476837","1","1","3","1,0.5,0,1,0,0.5,0.5,0,1",""
"","html-keyboard-response","135","84903","0.0-135.0","37WLF8U1WQC85SAU4XUHHDEBRVH6KP","A3AY0315YWWNXY","3A3KKYU7P33Z3BR9PPFZ5194ZCQMWU","","null","<img src=""img/animal6.png"" style=""width:200px; border:14px solid green;"">","null","","","","","",""
"","image-keyboard-response","136","85337","0.0-136.0","37WLF8U1WQC85SAU4XUHHDEBRVH6KP","A3AY0315YWWNXY","3A3KKYU7P33Z3BR9PPFZ5194ZCQMWU","","433.39999997615814","img/animal6.png","74","433.69999998807907","1","1","3","1,0.5,0,1,0,0.5,0.5,0,1",""
"","html-keyboard-response","137","85639","0.0-137.0","37WLF8U1WQC85SAU4XUHHDEBRVH6KP","A3AY0315YWWNXY","3A3KKYU7P33Z3BR9PPFZ5194ZCQMWU","","null","<img src=""img/animal6.png"" style=""width:200px; border:14px solid green;"">","null","","","","","",""
"","image-keyboard-response","138","86123","0.0-138.0","37WLF8U1WQC85SAU4XUHHDEBRVH6KP","A3AY0315YWWNXY","3A3KKYU7P33Z3BR9PPFZ5194ZCQMWU","","483.69999998807907","img/animal2.png","74","484.30000001192093","1","1","1","1,0.5,0,1,0,0.5,0.5,0,1",""
"","html-keyboard-response","139","86424","0.0-139.0","37WLF8U1WQC85SAU4XUHHDEBRVH6KP","A3AY0315YWWNXY","3A3KKYU7P33Z3BR9PPFZ5194ZCQMWU","","null","<img src=""img/animal2.png"" style=""width:200px; border:14px solid green;"">","null","","","","","",""
"","image-keyboard-response","140","86737","0.0-140.0","37WLF8U1WQC85SAU4XUHHDEBRVH6KP","A3AY0315YWWNXY","3A3KKYU7P33Z3BR9PPFZ5194ZCQMWU","","312.39999997615814","img/animal4.png","74","313","1","1","2","1,0.5,0,1,0,0.5,0.5,0,1",""
"","html-keyboard-response","141","87038","0.0-141.0","37WLF8U1WQC85SAU4XUHHDEBRVH6KP","A3AY0315YWWNXY","3A3KKYU7P33Z3BR9PPFZ5194ZCQMWU","","null","<img src=""img/animal4.png"" style=""width:200px; border:14px solid green;"">","null","","","","","",""
"","image-keyboard-response","142","87497","0.0-142.0","37WLF8U1WQC85SAU4XUHHDEBRVH6KP","A3AY0315YWWNXY","3A3KKYU7P33Z3BR9PPFZ5194ZCQMWU","","458.60000002384186","img/animal4.png","74","459.10000002384186","1","1","2","1,0.5,0,1,0,0.5,0.5,0,1",""
"","html-keyboard-response","143","87799","0.0-143.0","37WLF8U1WQC85SAU4XUHHDEBRVH6KP","A3AY0315YWWNXY","3A3KKYU7P33Z3BR9PPFZ5194ZCQMWU","","null","<img src=""img/animal4.png"" style=""width:200px; border:14px solid green;"">","null","","","","","",""
"","image-keyboard-response","144","88127","0.0-144.0","37WLF8U1WQC85SAU4XUHHDEBRVH6KP","A3AY0315YWWNXY","3A3KKYU7P33Z3BR9PPFZ5194ZCQMWU","","327.89999997615814","img/animal4.png","74","328.5","1","1","2","1,0.5,0,1,0,0.5,0.5,0,1",""
"","html-keyboard-response","145","88429","0.0-145.0","37WLF8U1WQC85SAU4XUHHDEBRVH6KP","A3AY0315YWWNXY","3A3KKYU7P33Z3BR9PPFZ5194ZCQMWU","","null","<img src=""img/animal4.png"" style=""width:200px; border:14px solid green;"">","null","","","","","",""
"","image-keyboard-response","146","88821","0.0-146.0","37WLF8U1WQC85SAU4XUHHDEBRVH6KP","A3AY0315YWWNXY","3A3KKYU7P33Z3BR9PPFZ5194ZCQMWU","","391.9000000357628","img/animal2.png","76","392.5","3","0","1","1,0.5,0,1,0,0.5,0.5,0,1",""
"","html-keyboard-response","147","89123","0.0-147.0","37WLF8U1WQC85SAU4XUHHDEBRVH6KP","A3AY0315YWWNXY","3A3KKYU7P33Z3BR9PPFZ5194ZCQMWU","","null","<img src=""img/animal2.png"" style=""width:200px;border:14px solid red;"">","null","","","","","",""
"","image-keyboard-response","148","89585","0.0-148.0","37WLF8U1WQC85SAU4XUHHDEBRVH6KP","A3AY0315YWWNXY","3A3KKYU7P33Z3BR9PPFZ5194ZCQMWU","","461.5999999642372","img/animal2.png","74","462.30000001192093","1","1","1","1,0.5,0,1,0,0.5,0.5,0,1",""
"","html-keyboard-response","149","89887","0.0-149.0","37WLF8U1WQC85SAU4XUHHDEBRVH6KP","A3AY0315YWWNXY","3A3KKYU7P33Z3BR9PPFZ5194ZCQMWU","","null","<img src=""img/animal2.png"" style=""width:200px; border:14px solid green;"">","null","","","","","",""
"","image-keyboard-response","150","90959","0.0-150.0","37WLF8U1WQC85SAU4XUHHDEBRVH6KP","A3AY0315YWWNXY","3A3KKYU7P33Z3BR9PPFZ5194ZCQMWU","","1071.6000000238419","img/animal4.png","74","1072.199999988079","1","1","2","1,0.5,0,1,0,0.5,0.5,0,1",""
"","html-keyboard-response","151","91260","0.0-151.0","37WLF8U1WQC85SAU4XUHHDEBRVH6KP","A3AY0315YWWNXY","3A3KKYU7P33Z3BR9PPFZ5194ZCQMWU","","null","<img src=""img/animal4.png"" style=""width:200px; border:14px solid green;"">","null","","","","","",""
"","image-keyboard-response","152","91601","0.0-152.0","37WLF8U1WQC85SAU4XUHHDEBRVH6KP","A3AY0315YWWNXY","3A3KKYU7P33Z3BR9PPFZ5194ZCQMWU","","340.39999997615814","img/animal4.png","74","340.9000000357628","1","1","2","1,0.5,0,1,0,0.5,0.5,0,1",""
"","html-keyboard-response","153","91902","0.0-153.0","37WLF8U1WQC85SAU4XUHHDEBRVH6KP","A3AY0315YWWNXY","3A3KKYU7P33Z3BR9PPFZ5194ZCQMWU","","null","<img src=""img/animal4.png"" style=""width:200px; border:14px solid green;"">","null","","","","","",""
"","image-keyboard-response","154","92195","0.0-154.0","37WLF8U1WQC85SAU4XUHHDEBRVH6KP","A3AY0315YWWNXY","3A3KKYU7P33Z3BR9PPFZ5194ZCQMWU","","292.30000001192093","img/animal4.png","74","293.10000002384186","1","1","2","1,0.5,0,1,0,0.5,0.5,0,1",""
"","html-keyboard-response","155","92496","0.0-155.0","37WLF8U1WQC85SAU4XUHHDEBRVH6KP","A3AY0315YWWNXY","3A3KKYU7P33Z3BR9PPFZ5194ZCQMWU","","null","<img src=""img/animal4.png"" style=""width:200px; border:14px solid green;"">","null","","","","","",""
"","image-keyboard-response","156","92789","0.0-156.0","37WLF8U1WQC85SAU4XUHHDEBRVH6KP","A3AY0315YWWNXY","3A3KKYU7P33Z3BR9PPFZ5194ZCQMWU","","292.19999998807907","img/animal4.png","74","292.80000001192093","1","1","2","1,0.5,0,1,0,0.5,0.5,0,1",""
"","html-keyboard-response","157","93090","0.0-157.0","37WLF8U1WQC85SAU4XUHHDEBRVH6KP","A3AY0315YWWNXY","3A3KKYU7P33Z3BR9PPFZ5194ZCQMWU","","null","<img src=""img/animal4.png"" style=""width:200px; border:14px solid green;"">","null","","","","","",""
"","image-keyboard-response","158","93627","0.0-158.0","37WLF8U1WQC85SAU4XUHHDEBRVH6KP","A3AY0315YWWNXY","3A3KKYU7P33Z3BR9PPFZ5194ZCQMWU","","536.0999999642372","img/animal2.png","74","536.8999999761581","1","1","1","1,0.5,0,1,0,0.5,0.5,0,1",""
"","html-keyboard-response","159","93928","0.0-159.0","37WLF8U1WQC85SAU4XUHHDEBRVH6KP","A3AY0315YWWNXY","3A3KKYU7P33Z3BR9PPFZ5194ZCQMWU","","null","<img src=""img/animal2.png"" style=""width:200px; border:14px solid green;"">","null","","","","","",""
"","image-keyboard-response","160","94250","0.0-160.0","37WLF8U1WQC85SAU4XUHHDEBRVH6KP","A3AY0315YWWNXY","3A3KKYU7P33Z3BR9PPFZ5194ZCQMWU","","320.80000001192093","img/animal2.png","74","321.39999997615814","1","1","1","1,0.5,0,1,0,0.5,0.5,0,1",""
"","html-keyboard-response","161","94551","0.0-161.0","37WLF8U1WQC85SAU4XUHHDEBRVH6KP","A3AY0315YWWNXY","3A3KKYU7P33Z3BR9PPFZ5194ZCQMWU","","null","<img src=""img/animal2.png"" style=""width:200px; border:14px solid green;"">","null","","","","","",""
"","image-keyboard-response","162","94851","0.0-162.0","37WLF8U1WQC85SAU4XUHHDEBRVH6KP","A3AY0315YWWNXY","3A3KKYU7P33Z3BR9PPFZ5194ZCQMWU","","299.7000000476837","img/animal2.png","74","300.19999998807907","1","1","1","1,0.5,0,1,0,0.5,0.5,0,1",""
"","html-keyboard-response","163","95153","0.0-163.0","37WLF8U1WQC85SAU4XUHHDEBRVH6KP","A3AY0315YWWNXY","3A3KKYU7P33Z3BR9PPFZ5194ZCQMWU","","null","<img src=""img/animal2.png"" style=""width:200px; border:14px solid green;"">","null","","","","","",""
"","image-keyboard-response","164","95719","0.0-164.0","37WLF8U1WQC85SAU4XUHHDEBRVH6KP","A3AY0315YWWNXY","3A3KKYU7P33Z3BR9PPFZ5194ZCQMWU","","565.6000000238419","img/animal6.png","76","566.0999999642372","3","1","3","1,0.5,0,1,0,0.5,0.5,0,1",""
"","html-keyboard-response","165","96020","0.0-165.0","37WLF8U1WQC85SAU4XUHHDEBRVH6KP","A3AY0315YWWNXY","3A3KKYU7P33Z3BR9PPFZ5194ZCQMWU","","null","<img src=""img/animal6.png"" style=""width:200px; border:14px solid green;"">","null","","","","","",""
"","image-keyboard-response","166","96353","0.0-166.0","37WLF8U1WQC85SAU4XUHHDEBRVH6KP","A3AY0315YWWNXY","3A3KKYU7P33Z3BR9PPFZ5194ZCQMWU","","332.19999998807907","img/animal6.png","76","332.89999997615814","3","1","3","1,0.5,0,1,0,0.5,0.5,0,1",""
"","html-keyboard-response","167","96655","0.0-167.0","37WLF8U1WQC85SAU4XUHHDEBRVH6KP","A3AY0315YWWNXY","3A3KKYU7P33Z3BR9PPFZ5194ZCQMWU","","null","<img src=""img/animal6.png"" style=""width:200px; border:14px solid green;"">","null","","","","","",""
"","image-keyboard-response","168","98125","0.0-168.0","37WLF8U1WQC85SAU4XUHHDEBRVH6KP","A3AY0315YWWNXY","3A3KKYU7P33Z3BR9PPFZ5194ZCQMWU","","1470.199999988079","img/animal2.png","74","1470.7000000476837","1","1","1","1,0.5,0,1,0,0.5,0.5,0,1",""
"","html-keyboard-response","169","98427","0.0-169.0","37WLF8U1WQC85SAU4XUHHDEBRVH6KP","A3AY0315YWWNXY","3A3KKYU7P33Z3BR9PPFZ5194ZCQMWU","","null","<img src=""img/animal2.png"" style=""width:200px; border:14px solid green;"">","null","","","","","",""
"","image-keyboard-response","170","98950","0.0-170.0","37WLF8U1WQC85SAU4XUHHDEBRVH6KP","A3AY0315YWWNXY","3A3KKYU7P33Z3BR9PPFZ5194ZCQMWU","","522.4000000357628","img/animal6.png","76","523","3","1","3","1,0.5,0,1,0,0.5,0.5,0,1",""
"","html-keyboard-response","171","99251","0.0-171.0","37WLF8U1WQC85SAU4XUHHDEBRVH6KP","A3AY0315YWWNXY","3A3KKYU7P33Z3BR9PPFZ5194ZCQMWU","","null","<img src=""img/animal6.png"" style=""width:200px; border:14px solid green;"">","null","","","","","",""
"","image-keyboard-response","172","99816","0.0-172.0","37WLF8U1WQC85SAU4XUHHDEBRVH6KP","A3AY0315YWWNXY","3A3KKYU7P33Z3BR9PPFZ5194ZCQMWU","","563.4000000357628","img/animal4.png","74","564.1999999880791","1","1","2","1,0.5,0,1,0,0.5,0.5,0,1",""
"","html-keyboard-response","173","100117","0.0-173.0","37WLF8U1WQC85SAU4XUHHDEBRVH6KP","A3AY0315YWWNXY","3A3KKYU7P33Z3BR9PPFZ5194ZCQMWU","","null","<img src=""img/animal4.png"" style=""width:200px; border:14px solid green;"">","null","","","","","",""
"","image-keyboard-response","174","100659","0.0-174.0","37WLF8U1WQC85SAU4XUHHDEBRVH6KP","A3AY0315YWWNXY","3A3KKYU7P33Z3BR9PPFZ5194ZCQMWU","","541.6999999880791","img/animal6.png","76","542.3000000119209","3","1","3","1,0.5,0,1,0,0.5,0.5,0,1",""
"","html-keyboard-response","175","100960","0.0-175.0","37WLF8U1WQC85SAU4XUHHDEBRVH6KP","A3AY0315YWWNXY","3A3KKYU7P33Z3BR9PPFZ5194ZCQMWU","","null","<img src=""img/animal6.png"" style=""width:200px; border:14px solid green;"">","null","","","","","",""
"","image-keyboard-response","176","101369","0.0-176.0","37WLF8U1WQC85SAU4XUHHDEBRVH6KP","A3AY0315YWWNXY","3A3KKYU7P33Z3BR9PPFZ5194ZCQMWU","","408.39999997615814","img/animal2.png","74","409","1","1","1","1,0.5,0,1,0,0.5,0.5,0,1",""
"","html-keyboard-response","177","101670","0.0-177.0","37WLF8U1WQC85SAU4XUHHDEBRVH6KP","A3AY0315YWWNXY","3A3KKYU7P33Z3BR9PPFZ5194ZCQMWU","","null","<img src=""img/animal2.png"" style=""width:200px; border:14px solid green;"">","null","","","","","",""
"","image-keyboard-response","178","102175","0.0-178.0","37WLF8U1WQC85SAU4XUHHDEBRVH6KP","A3AY0315YWWNXY","3A3KKYU7P33Z3BR9PPFZ5194ZCQMWU","","504.5","img/animal4.png","74","505","1","1","2","1,0.5,0,1,0,0.5,0.5,0,1",""
"","html-keyboard-response","179","102477","0.0-179.0","37WLF8U1WQC85SAU4XUHHDEBRVH6KP","A3AY0315YWWNXY","3A3KKYU7P33Z3BR9PPFZ5194ZCQMWU","","null","<img src=""img/animal4.png"" style=""width:200px; border:14px solid green;"">","null","","","","","",""
"","image-keyboard-response","180","102931","0.0-180.0","37WLF8U1WQC85SAU4XUHHDEBRVH6KP","A3AY0315YWWNXY","3A3KKYU7P33Z3BR9PPFZ5194ZCQMWU","","453.69999998807907","img/animal6.png","76","454.30000001192093","3","1","3","1,0.5,0,1,0,0.5,0.5,0,1",""
"","html-keyboard-response","181","103232","0.0-181.0","37WLF8U1WQC85SAU4XUHHDEBRVH6KP","A3AY0315YWWNXY","3A3KKYU7P33Z3BR9PPFZ5194ZCQMWU","","null","<img src=""img/animal6.png"" style=""width:200px; border:14px solid green;"">","null","","","","","",""
"","html-keyboard-response","182","105127","0.0-182.0","37WLF8U1WQC85SAU4XUHHDEBRVH6KP","A3AY0315YWWNXY","3A3KKYU7P33Z3BR9PPFZ5194ZCQMWU","","","","","","","","","",""
"","image-keyboard-response","183","106979","0.0-183.0","37WLF8U1WQC85SAU4XUHHDEBRVH6KP","A3AY0315YWWNXY","3A3KKYU7P33Z3BR9PPFZ5194ZCQMWU","","1851.300000011921","img/animal3.png","74","1852","1","1","3","1,0.5,0,0,1,0.5,0.5,0,1",""
"","html-keyboard-response","184","107280","0.0-184.0","37WLF8U1WQC85SAU4XUHHDEBRVH6KP","A3AY0315YWWNXY","3A3KKYU7P33Z3BR9PPFZ5194ZCQMWU","","null","<img src=""img/animal3.png"" style=""width:200px; border:14px solid green;"">","null","","","","","",""
"","image-keyboard-response","185","107675","0.0-185.0","37WLF8U1WQC85SAU4XUHHDEBRVH6KP","A3AY0315YWWNXY","3A3KKYU7P33Z3BR9PPFZ5194ZCQMWU","","394.30000001192093","img/animal3.png","74","395.0999999642372","1","0","3","1,0.5,0,0,1,0.5,0.5,0,1",""
"","html-keyboard-response","186","107977","0.0-186.0","37WLF8U1WQC85SAU4XUHHDEBRVH6KP","A3AY0315YWWNXY","3A3KKYU7P33Z3BR9PPFZ5194ZCQMWU","","null","<img src=""img/animal3.png"" style=""width:200px;border:14px solid red;"">","null","","","","","",""
"","image-keyboard-response","187","109247","0.0-187.0","37WLF8U1WQC85SAU4XUHHDEBRVH6KP","A3AY0315YWWNXY","3A3KKYU7P33Z3BR9PPFZ5194ZCQMWU","","1269.3999999761581","img/animal1.png","75","1270.0999999642372","2","1","2","1,0.5,0,0,1,0.5,0.5,0,1",""
"","html-keyboard-response","188","109550","0.0-188.0","37WLF8U1WQC85SAU4XUHHDEBRVH6KP","A3AY0315YWWNXY","3A3KKYU7P33Z3BR9PPFZ5194ZCQMWU","","null","<img src=""img/animal1.png"" style=""width:200px; border:14px solid green;"">","null","","","","","",""
"","image-keyboard-response","189","110125","0.0-189.0","37WLF8U1WQC85SAU4XUHHDEBRVH6KP","A3AY0315YWWNXY","3A3KKYU7P33Z3BR9PPFZ5194ZCQMWU","","575.1000000238419","img/animal5.png","76","575.6000000238419","3","0","1","1,0.5,0,0,1,0.5,0.5,0,1",""
"","html-keyboard-response","190","110426","0.0-190.0","37WLF8U1WQC85SAU4XUHHDEBRVH6KP","A3AY0315YWWNXY","3A3KKYU7P33Z3BR9PPFZ5194ZCQMWU","","null","<img src=""img/animal5.png"" style=""width:200px;border:14px solid red;"">","null","","","","","",""
"","image-keyboard-response","191","111893","0.0-191.0","37WLF8U1WQC85SAU4XUHHDEBRVH6KP","A3AY0315YWWNXY","3A3KKYU7P33Z3BR9PPFZ5194ZCQMWU","","1466.2999999523163","img/animal3.png","74","1467","1","0","3","1,0.5,0,0,1,0.5,0.5,0,1",""
"","html-keyboard-response","192","112194","0.0-192.0","37WLF8U1WQC85SAU4XUHHDEBRVH6KP","A3AY0315YWWNXY","3A3KKYU7P33Z3BR9PPFZ5194ZCQMWU","","null","<img src=""img/animal3.png"" style=""width:200px;border:14px solid red;"">","null","","","","","",""
"","image-keyboard-response","193","112801","0.0-193.0","37WLF8U1WQC85SAU4XUHHDEBRVH6KP","A3AY0315YWWNXY","3A3KKYU7P33Z3BR9PPFZ5194ZCQMWU","","606.4000000357628","img/animal1.png","75","607","2","1","2","1,0.5,0,0,1,0.5,0.5,0,1",""
"","html-keyboard-response","194","113103","0.0-194.0","37WLF8U1WQC85SAU4XUHHDEBRVH6KP","A3AY0315YWWNXY","3A3KKYU7P33Z3BR9PPFZ5194ZCQMWU","","null","<img src=""img/animal1.png"" style=""width:200px; border:14px solid green;"">","null","","","","","",""
"","image-keyboard-response","195","113669","0.0-195.0","37WLF8U1WQC85SAU4XUHHDEBRVH6KP","A3AY0315YWWNXY","3A3KKYU7P33Z3BR9PPFZ5194ZCQMWU","","565.8999999761581","img/animal3.png","75","566.6000000238419","2","0","3","1,0.5,0,0,1,0.5,0.5,0,1",""
"","html-keyboard-response","196","113970","0.0-196.0","37WLF8U1WQC85SAU4XUHHDEBRVH6KP","A3AY0315YWWNXY","3A3KKYU7P33Z3BR9PPFZ5194ZCQMWU","","null","<img src=""img/animal3.png"" style=""width:200px;border:14px solid red;"">","null","","","","","",""
"","image-keyboard-response","197","115068","0.0-197.0","37WLF8U1WQC85SAU4XUHHDEBRVH6KP","A3AY0315YWWNXY","3A3KKYU7P33Z3BR9PPFZ5194ZCQMWU","","1096.5","img/animal5.png","74","1097.1000000238419","1","1","1","1,0.5,0,0,1,0.5,0.5,0,1",""
"","html-keyboard-response","198","115369","0.0-198.0","37WLF8U1WQC85SAU4XUHHDEBRVH6KP","A3AY0315YWWNXY","3A3KKYU7P33Z3BR9PPFZ5194ZCQMWU","","null","<img src=""img/animal5.png"" style=""width:200px; border:14px solid green;"">","null","","","","","",""
"","image-keyboard-response","199","116311","0.0-199.0","37WLF8U1WQC85SAU4XUHHDEBRVH6KP","A3AY0315YWWNXY","3A3KKYU7P33Z3BR9PPFZ5194ZCQMWU","","941.6999999880791","img/animal1.png","75","942.2000000476837","2","1","2","1,0.5,0,0,1,0.5,0.5,0,1",""
"","html-keyboard-response","200","116612","0.0-200.0","37WLF8U1WQC85SAU4XUHHDEBRVH6KP","A3AY0315YWWNXY","3A3KKYU7P33Z3BR9PPFZ5194ZCQMWU","","null","<img src=""img/animal1.png"" style=""width:200px; border:14px solid green;"">","null","","","","","",""
"","image-keyboard-response","201","117585","0.0-201.0","37WLF8U1WQC85SAU4XUHHDEBRVH6KP","A3AY0315YWWNXY","3A3KKYU7P33Z3BR9PPFZ5194ZCQMWU","","972.7000000476837","img/animal5.png","74","973.3000000119209","1","1","1","1,0.5,0,0,1,0.5,0.5,0,1",""
"","html-keyboard-response","202","117887","0.0-202.0","37WLF8U1WQC85SAU4XUHHDEBRVH6KP","A3AY0315YWWNXY","3A3KKYU7P33Z3BR9PPFZ5194ZCQMWU","","null","<img src=""img/animal5.png"" style=""width:200px; border:14px solid green;"">","null","","","","","",""
"","image-keyboard-response","203","119441","0.0-203.0","37WLF8U1WQC85SAU4XUHHDEBRVH6KP","A3AY0315YWWNXY","3A3KKYU7P33Z3BR9PPFZ5194ZCQMWU","","1553.5","img/animal3.png","76","1554","3","1","3","1,0.5,0,0,1,0.5,0.5,0,1",""
"","html-keyboard-response","204","119742","0.0-204.0","37WLF8U1WQC85SAU4XUHHDEBRVH6KP","A3AY0315YWWNXY","3A3KKYU7P33Z3BR9PPFZ5194ZCQMWU","","null","<img src=""img/animal3.png"" style=""width:200px; border:14px solid green;"">","null","","","","","",""
"","image-keyboard-response","205","120731","0.0-205.0","37WLF8U1WQC85SAU4XUHHDEBRVH6KP","A3AY0315YWWNXY","3A3KKYU7P33Z3BR9PPFZ5194ZCQMWU","","988.2999999523163","img/animal5.png","74","989","1","1","1","1,0.5,0,0,1,0.5,0.5,0,1",""
"","html-keyboard-response","206","121032","0.0-206.0","37WLF8U1WQC85SAU4XUHHDEBRVH6KP","A3AY0315YWWNXY","3A3KKYU7P33Z3BR9PPFZ5194ZCQMWU","","null","<img src=""img/animal5.png"" style=""width:200px; border:14px solid green;"">","null","","","","","",""
"","image-keyboard-response","207","122263","0.0-207.0","37WLF8U1WQC85SAU4XUHHDEBRVH6KP","A3AY0315YWWNXY","3A3KKYU7P33Z3BR9PPFZ5194ZCQMWU","","1230.300000011921","img/animal3.png","76","1230.8999999761581","3","1","3","1,0.5,0,0,1,0.5,0.5,0,1",""
"","html-keyboard-response","208","122564","0.0-208.0","37WLF8U1WQC85SAU4XUHHDEBRVH6KP","A3AY0315YWWNXY","3A3KKYU7P33Z3BR9PPFZ5194ZCQMWU","","null","<img src=""img/animal3.png"" style=""width:200px; border:14px solid green;"">","null","","","","","",""
"","image-keyboard-response","209","123052","0.0-209.0","37WLF8U1WQC85SAU4XUHHDEBRVH6KP","A3AY0315YWWNXY","3A3KKYU7P33Z3BR9PPFZ5194ZCQMWU","","486.60000002384186","img/animal3.png","76","487.19999998807907","3","1","3","1,0.5,0,0,1,0.5,0.5,0,1",""
"","html-keyboard-response","210","123353","0.0-210.0","37WLF8U1WQC85SAU4XUHHDEBRVH6KP","A3AY0315YWWNXY","3A3KKYU7P33Z3BR9PPFZ5194ZCQMWU","","null","<img src=""img/animal3.png"" style=""width:200px; border:14px solid green;"">","null","","","","","",""
"","image-keyboard-response","211","123523","0.0-211.0","37WLF8U1WQC85SAU4XUHHDEBRVH6KP","A3AY0315YWWNXY","3A3KKYU7P33Z3BR9PPFZ5194ZCQMWU","","170.19999998807907","img/animal5.png","76","170.80000001192093","3","0","1","1,0.5,0,0,1,0.5,0.5,0,1",""
"","html-keyboard-response","212","123824","0.0-212.0","37WLF8U1WQC85SAU4XUHHDEBRVH6KP","A3AY0315YWWNXY","3A3KKYU7P33Z3BR9PPFZ5194ZCQMWU","","null","<img src=""img/animal5.png"" style=""width:200px;border:14px solid red;"">","null","","","","","",""
"","image-keyboard-response","213","124173","0.0-213.0","37WLF8U1WQC85SAU4XUHHDEBRVH6KP","A3AY0315YWWNXY","3A3KKYU7P33Z3BR9PPFZ5194ZCQMWU","","348.39999997615814","img/animal5.png","74","348.9000000357628","1","1","1","1,0.5,0,0,1,0.5,0.5,0,1",""
"","html-keyboard-response","214","124474","0.0-214.0","37WLF8U1WQC85SAU4XUHHDEBRVH6KP","A3AY0315YWWNXY","3A3KKYU7P33Z3BR9PPFZ5194ZCQMWU","","null","<img src=""img/animal5.png"" style=""width:200px; border:14px solid green;"">","null","","","","","",""
"","image-keyboard-response","215","124779","0.0-215.0","37WLF8U1WQC85SAU4XUHHDEBRVH6KP","A3AY0315YWWNXY","3A3KKYU7P33Z3BR9PPFZ5194ZCQMWU","","304.30000001192093","img/animal5.png","74","304.89999997615814","1","1","1","1,0.5,0,0,1,0.5,0.5,0,1",""
"","html-keyboard-response","216","125080","0.0-216.0","37WLF8U1WQC85SAU4XUHHDEBRVH6KP","A3AY0315YWWNXY","3A3KKYU7P33Z3BR9PPFZ5194ZCQMWU","","null","<img src=""img/animal5.png"" style=""width:200px; border:14px solid green;"">","null","","","","","",""
"","image-keyboard-response","217","125738","0.0-217.0","37WLF8U1WQC85SAU4XUHHDEBRVH6KP","A3AY0315YWWNXY","3A3KKYU7P33Z3BR9PPFZ5194ZCQMWU","","656.5","img/animal1.png","75","657","2","1","2","1,0.5,0,0,1,0.5,0.5,0,1",""
"","html-keyboard-response","218","126039","0.0-218.0","37WLF8U1WQC85SAU4XUHHDEBRVH6KP","A3AY0315YWWNXY","3A3KKYU7P33Z3BR9PPFZ5194ZCQMWU","","null","<img src=""img/animal1.png"" style=""width:200px; border:14px solid green;"">","null","","","","","",""
"","image-keyboard-response","219","126445","0.0-219.0","37WLF8U1WQC85SAU4XUHHDEBRVH6KP","A3AY0315YWWNXY","3A3KKYU7P33Z3BR9PPFZ5194ZCQMWU","","406","img/animal1.png","75","406.5999999642372","2","1","2","1,0.5,0,0,1,0.5,0.5,0,1",""
"","html-keyboard-response","220","126746","0.0-220.0","37WLF8U1WQC85SAU4XUHHDEBRVH6KP","A3AY0315YWWNXY","3A3KKYU7P33Z3BR9PPFZ5194ZCQMWU","","null","<img src=""img/animal1.png"" style=""width:200px; border:14px solid green;"">","null","","","","","",""
"","image-keyboard-response","221","127037","0.0-221.0","37WLF8U1WQC85SAU4XUHHDEBRVH6KP","A3AY0315YWWNXY","3A3KKYU7P33Z3BR9PPFZ5194ZCQMWU","","290.19999998807907","img/animal1.png","75","290.80000001192093","2","1","2","1,0.5,0,0,1,0.5,0.5,0,1",""
"","html-keyboard-response","222","127338","0.0-222.0","37WLF8U1WQC85SAU4XUHHDEBRVH6KP","A3AY0315YWWNXY","3A3KKYU7P33Z3BR9PPFZ5194ZCQMWU","","null","<img src=""img/animal1.png"" style=""width:200px; border:14px solid green;"">","null","","","","","",""
"","image-keyboard-response","223","127869","0.0-223.0","37WLF8U1WQC85SAU4XUHHDEBRVH6KP","A3AY0315YWWNXY","3A3KKYU7P33Z3BR9PPFZ5194ZCQMWU","","530.2999999523163","img/animal5.png","74","530.9000000357628","1","1","1","1,0.5,0,0,1,0.5,0.5,0,1",""
"","html-keyboard-response","224","128170","0.0-224.0","37WLF8U1WQC85SAU4XUHHDEBRVH6KP","A3AY0315YWWNXY","3A3KKYU7P33Z3BR9PPFZ5194ZCQMWU","","null","<img src=""img/animal5.png"" style=""width:200px; border:14px solid green;"">","null","","","","","",""
"","image-keyboard-response","225","128815","0.0-225.0","37WLF8U1WQC85SAU4XUHHDEBRVH6KP","A3AY0315YWWNXY","3A3KKYU7P33Z3BR9PPFZ5194ZCQMWU","","644.6000000238419","img/animal1.png","75","645.3000000119209","2","1","2","1,0.5,0,0,1,0.5,0.5,0,1",""
"","html-keyboard-response","226","129116","0.0-226.0","37WLF8U1WQC85SAU4XUHHDEBRVH6KP","A3AY0315YWWNXY","3A3KKYU7P33Z3BR9PPFZ5194ZCQMWU","","null","<img src=""img/animal1.png"" style=""width:200px; border:14px solid green;"">","null","","","","","",""
"","image-keyboard-response","227","129549","0.0-227.0","37WLF8U1WQC85SAU4XUHHDEBRVH6KP","A3AY0315YWWNXY","3A3KKYU7P33Z3BR9PPFZ5194ZCQMWU","","432.39999997615814","img/animal3.png","76","432.9000000357628","3","1","3","1,0.5,0,0,1,0.5,0.5,0,1",""
"","html-keyboard-response","228","129851","0.0-228.0","37WLF8U1WQC85SAU4XUHHDEBRVH6KP","A3AY0315YWWNXY","3A3KKYU7P33Z3BR9PPFZ5194ZCQMWU","","null","<img src=""img/animal3.png"" style=""width:200px; border:14px solid green;"">","null","","","","","",""
"","image-keyboard-response","229","130661","0.0-229.0","37WLF8U1WQC85SAU4XUHHDEBRVH6KP","A3AY0315YWWNXY","3A3KKYU7P33Z3BR9PPFZ5194ZCQMWU","","810.1000000238419","img/animal5.png","74","810.8000000119209","1","1","1","1,0.5,0,0,1,0.5,0.5,0,1",""
"","html-keyboard-response","230","130963","0.0-230.0","37WLF8U1WQC85SAU4XUHHDEBRVH6KP","A3AY0315YWWNXY","3A3KKYU7P33Z3BR9PPFZ5194ZCQMWU","","null","<img src=""img/animal5.png"" style=""width:200px; border:14px solid green;"">","null","","","","","",""
"","image-keyboard-response","231","131735","0.0-231.0","37WLF8U1WQC85SAU4XUHHDEBRVH6KP","A3AY0315YWWNXY","3A3KKYU7P33Z3BR9PPFZ5194ZCQMWU","","771.6999999880791","img/animal1.png","75","772.3000000119209","2","1","2","1,0.5,0,0,1,0.5,0.5,0,1",""
"","html-keyboard-response","232","132036","0.0-232.0","37WLF8U1WQC85SAU4XUHHDEBRVH6KP","A3AY0315YWWNXY","3A3KKYU7P33Z3BR9PPFZ5194ZCQMWU","","null","<img src=""img/animal1.png"" style=""width:200px; border:14px solid green;"">","null","","","","","",""
"","image-keyboard-response","233","133286","0.0-233.0","37WLF8U1WQC85SAU4XUHHDEBRVH6KP","A3AY0315YWWNXY","3A3KKYU7P33Z3BR9PPFZ5194ZCQMWU","","1248.5","img/animal5.png","74","1249.0999999642372","1","1","1","1,0.5,0,0,1,0.5,0.5,0,1",""
"","html-keyboard-response","234","133596","0.0-234.0","37WLF8U1WQC85SAU4XUHHDEBRVH6KP","A3AY0315YWWNXY","3A3KKYU7P33Z3BR9PPFZ5194ZCQMWU","","null","<img src=""img/animal5.png"" style=""width:200px; border:14px solid green;"">","null","","","","","",""
"","image-keyboard-response","235","135527","0.0-235.0","37WLF8U1WQC85SAU4XUHHDEBRVH6KP","A3AY0315YWWNXY","3A3KKYU7P33Z3BR9PPFZ5194ZCQMWU","","1930.5","img/animal1.png","75","1931.0999999642372","2","1","2","1,0.5,0,0,1,0.5,0.5,0,1",""
"","html-keyboard-response","236","135828","0.0-236.0","37WLF8U1WQC85SAU4XUHHDEBRVH6KP","A3AY0315YWWNXY","3A3KKYU7P33Z3BR9PPFZ5194ZCQMWU","","null","<img src=""img/animal1.png"" style=""width:200px; border:14px solid green;"">","null","","","","","",""
"","image-keyboard-response","237","136506","0.0-237.0","37WLF8U1WQC85SAU4XUHHDEBRVH6KP","A3AY0315YWWNXY","3A3KKYU7P33Z3BR9PPFZ5194ZCQMWU","","676.8000000119209","img/animal3.png","76","677.3000000119209","3","1","3","1,0.5,0,0,1,0.5,0.5,0,1",""
"","html-keyboard-response","238","136807","0.0-238.0","37WLF8U1WQC85SAU4XUHHDEBRVH6KP","A3AY0315YWWNXY","3A3KKYU7P33Z3BR9PPFZ5194ZCQMWU","","null","<img src=""img/animal3.png"" style=""width:200px; border:14px solid green;"">","null","","","","","",""
"","image-keyboard-response","239","138267","0.0-239.0","37WLF8U1WQC85SAU4XUHHDEBRVH6KP","A3AY0315YWWNXY","3A3KKYU7P33Z3BR9PPFZ5194ZCQMWU","","1460.0999999642372","img/animal1.png","75","1460.800000011921","2","1","2","1,0.5,0,0,1,0.5,0.5,0,1",""
"","html-keyboard-response","240","138569","0.0-240.0","37WLF8U1WQC85SAU4XUHHDEBRVH6KP","A3AY0315YWWNXY","3A3KKYU7P33Z3BR9PPFZ5194ZCQMWU","","null","<img src=""img/animal1.png"" style=""width:200px; border:14px solid green;"">","null","","","","","",""
"","image-keyboard-response","241","139437","0.0-241.0","37WLF8U1WQC85SAU4XUHHDEBRVH6KP","A3AY0315YWWNXY","3A3KKYU7P33Z3BR9PPFZ5194ZCQMWU","","867.6999999880791","img/animal3.png","76","868.2000000476837","3","1","3","1,0.5,0,0,1,0.5,0.5,0,1",""
"","html-keyboard-response","242","139739","0.0-242.0","37WLF8U1WQC85SAU4XUHHDEBRVH6KP","A3AY0315YWWNXY","3A3KKYU7P33Z3BR9PPFZ5194ZCQMWU","","null","<img src=""img/animal3.png"" style=""width:200px; border:14px solid green;"">","null","","","","","",""
"","image-keyboard-response","243","140179","0.0-243.0","37WLF8U1WQC85SAU4XUHHDEBRVH6KP","A3AY0315YWWNXY","3A3KKYU7P33Z3BR9PPFZ5194ZCQMWU","","438.89999997615814","img/animal3.png","76","439.69999998807907","3","1","3","1,0.5,0,0,1,0.5,0.5,0,1",""
"","html-keyboard-response","244","140481","0.0-244.0","37WLF8U1WQC85SAU4XUHHDEBRVH6KP","A3AY0315YWWNXY","3A3KKYU7P33Z3BR9PPFZ5194ZCQMWU","","null","<img src=""img/animal3.png"" style=""width:200px; border:14px solid green;"">","null","","","","","",""
"","image-keyboard-response","245","140995","0.0-245.0","37WLF8U1WQC85SAU4XUHHDEBRVH6KP","A3AY0315YWWNXY","3A3KKYU7P33Z3BR9PPFZ5194ZCQMWU","","513.5","img/animal3.png","76","514","3","1","3","1,0.5,0,0,1,0.5,0.5,0,1",""
"","html-keyboard-response","246","141296","0.0-246.0","37WLF8U1WQC85SAU4XUHHDEBRVH6KP","A3AY0315YWWNXY","3A3KKYU7P33Z3BR9PPFZ5194ZCQMWU","","null","<img src=""img/animal3.png"" style=""width:200px; border:14px solid green;"">","null","","","","","",""
"","image-keyboard-response","247","142065","0.0-247.0","37WLF8U1WQC85SAU4XUHHDEBRVH6KP","A3AY0315YWWNXY","3A3KKYU7P33Z3BR9PPFZ5194ZCQMWU","","768.3999999761581","img/animal5.png","74","769","1","1","1","1,0.5,0,0,1,0.5,0.5,0,1",""
"","html-keyboard-response","248","142376","0.0-248.0","37WLF8U1WQC85SAU4XUHHDEBRVH6KP","A3AY0315YWWNXY","3A3KKYU7P33Z3BR9PPFZ5194ZCQMWU","","null","<img src=""img/animal5.png"" style=""width:200px; border:14px solid green;"">","null","","","","","",""
"","image-keyboard-response","249","142717","0.0-249.0","37WLF8U1WQC85SAU4XUHHDEBRVH6KP","A3AY0315YWWNXY","3A3KKYU7P33Z3BR9PPFZ5194ZCQMWU","","340.2999999523163","img/animal5.png","74","341","1","1","1","1,0.5,0,0,1,0.5,0.5,0,1",""
"","html-keyboard-response","250","143019","0.0-250.0","37WLF8U1WQC85SAU4XUHHDEBRVH6KP","A3AY0315YWWNXY","3A3KKYU7P33Z3BR9PPFZ5194ZCQMWU","","null","<img src=""img/animal5.png"" style=""width:200px; border:14px solid green;"">","null","","","","","",""
"","image-keyboard-response","251","143373","0.0-251.0","37WLF8U1WQC85SAU4XUHHDEBRVH6KP","A3AY0315YWWNXY","3A3KKYU7P33Z3BR9PPFZ5194ZCQMWU","","354","img/animal5.png","74","354.5","1","1","1","1,0.5,0,0,1,0.5,0.5,0,1",""
"","html-keyboard-response","252","143674","0.0-252.0","37WLF8U1WQC85SAU4XUHHDEBRVH6KP","A3AY0315YWWNXY","3A3KKYU7P33Z3BR9PPFZ5194ZCQMWU","","null","<img src=""img/animal5.png"" style=""width:200px; border:14px solid green;"">","null","","","","","",""
"","image-keyboard-response","253","144019","0.0-253.0","37WLF8U1WQC85SAU4XUHHDEBRVH6KP","A3AY0315YWWNXY","3A3KKYU7P33Z3BR9PPFZ5194ZCQMWU","","344.39999997615814","img/animal5.png","74","345","1","1","1","1,0.5,0,0,1,0.5,0.5,0,1",""
"","html-keyboard-response","254","144321","0.0-254.0","37WLF8U1WQC85SAU4XUHHDEBRVH6KP","A3AY0315YWWNXY","3A3KKYU7P33Z3BR9PPFZ5194ZCQMWU","","null","<img src=""img/animal5.png"" style=""width:200px; border:14px solid green;"">","null","","","","","",""
"","image-keyboard-response","255","144667","0.0-255.0","37WLF8U1WQC85SAU4XUHHDEBRVH6KP","A3AY0315YWWNXY","3A3KKYU7P33Z3BR9PPFZ5194ZCQMWU","","345.89999997615814","img/animal5.png","74","346.69999998807907","1","1","1","1,0.5,0,0,1,0.5,0.5,0,1",""
"","html-keyboard-response","256","144969","0.0-256.0","37WLF8U1WQC85SAU4XUHHDEBRVH6KP","A3AY0315YWWNXY","3A3KKYU7P33Z3BR9PPFZ5194ZCQMWU","","null","<img src=""img/animal5.png"" style=""width:200px; border:14px solid green;"">","null","","","","","",""
"","image-keyboard-response","257","145941","0.0-257.0","37WLF8U1WQC85SAU4XUHHDEBRVH6KP","A3AY0315YWWNXY","3A3KKYU7P33Z3BR9PPFZ5194ZCQMWU","","971.6999999880791","img/animal3.png","76","972.3000000119209","3","1","3","1,0.5,0,0,1,0.5,0.5,0,1",""
"","html-keyboard-response","258","146243","0.0-258.0","37WLF8U1WQC85SAU4XUHHDEBRVH6KP","A3AY0315YWWNXY","3A3KKYU7P33Z3BR9PPFZ5194ZCQMWU","","null","<img src=""img/animal3.png"" style=""width:200px; border:14px solid green;"">","null","","","","","",""
"","image-keyboard-response","259","146560","0.0-259.0","37WLF8U1WQC85SAU4XUHHDEBRVH6KP","A3AY0315YWWNXY","3A3KKYU7P33Z3BR9PPFZ5194ZCQMWU","","315.89999997615814","img/animal3.png","76","316.39999997615814","3","1","3","1,0.5,0,0,1,0.5,0.5,0,1",""
"","html-keyboard-response","260","146861","0.0-260.0","37WLF8U1WQC85SAU4XUHHDEBRVH6KP","A3AY0315YWWNXY","3A3KKYU7P33Z3BR9PPFZ5194ZCQMWU","","null","<img src=""img/animal3.png"" style=""width:200px; border:14px solid green;"">","null","","","","","",""
"","image-keyboard-response","261","147389","0.0-261.0","37WLF8U1WQC85SAU4XUHHDEBRVH6KP","A3AY0315YWWNXY","3A3KKYU7P33Z3BR9PPFZ5194ZCQMWU","","527.8000000119209","img/animal5.png","74","528.3000000119209","1","1","1","1,0.5,0,0,1,0.5,0.5,0,1",""
"","html-keyboard-response","262","147692","0.0-262.0","37WLF8U1WQC85SAU4XUHHDEBRVH6KP","A3AY0315YWWNXY","3A3KKYU7P33Z3BR9PPFZ5194ZCQMWU","","null","<img src=""img/animal5.png"" style=""width:200px; border:14px solid green;"">","null","","","","","",""
"","image-keyboard-response","263","148081","0.0-263.0","37WLF8U1WQC85SAU4XUHHDEBRVH6KP","A3AY0315YWWNXY","3A3KKYU7P33Z3BR9PPFZ5194ZCQMWU","","389.19999998807907","img/animal1.png","75","389.80000001192093","2","1","2","1,0.5,0,0,1,0.5,0.5,0,1",""
"","html-keyboard-response","264","148383","0.0-264.0","37WLF8U1WQC85SAU4XUHHDEBRVH6KP","A3AY0315YWWNXY","3A3KKYU7P33Z3BR9PPFZ5194ZCQMWU","","null","<img src=""img/animal1.png"" style=""width:200px; border:14px solid green;"">","null","","","","","",""
"","image-keyboard-response","265","148990","0.0-265.0","37WLF8U1WQC85SAU4XUHHDEBRVH6KP","A3AY0315YWWNXY","3A3KKYU7P33Z3BR9PPFZ5194ZCQMWU","","605.9000000357628","img/animal3.png","76","606.5","3","1","3","1,0.5,0,0,1,0.5,0.5,0,1",""
"","html-keyboard-response","266","149291","0.0-266.0","37WLF8U1WQC85SAU4XUHHDEBRVH6KP","A3AY0315YWWNXY","3A3KKYU7P33Z3BR9PPFZ5194ZCQMWU","","null","<img src=""img/animal3.png"" style=""width:200px; border:14px solid green;"">","null","","","","","",""
"","image-keyboard-response","267","149603","0.0-267.0","37WLF8U1WQC85SAU4XUHHDEBRVH6KP","A3AY0315YWWNXY","3A3KKYU7P33Z3BR9PPFZ5194ZCQMWU","","311.30000001192093","img/animal3.png","76","312","3","1","3","1,0.5,0,0,1,0.5,0.5,0,1",""
"","html-keyboard-response","268","149904","0.0-268.0","37WLF8U1WQC85SAU4XUHHDEBRVH6KP","A3AY0315YWWNXY","3A3KKYU7P33Z3BR9PPFZ5194ZCQMWU","","null","<img src=""img/animal3.png"" style=""width:200px; border:14px solid green;"">","null","","","","","",""
"","image-keyboard-response","269","150581","0.0-269.0","37WLF8U1WQC85SAU4XUHHDEBRVH6KP","A3AY0315YWWNXY","3A3KKYU7P33Z3BR9PPFZ5194ZCQMWU","","676.5","img/animal5.png","74","677.0999999642372","1","1","1","1,0.5,0,0,1,0.5,0.5,0,1",""
"","html-keyboard-response","270","150883","0.0-270.0","37WLF8U1WQC85SAU4XUHHDEBRVH6KP","A3AY0315YWWNXY","3A3KKYU7P33Z3BR9PPFZ5194ZCQMWU","","null","<img src=""img/animal5.png"" style=""width:200px; border:14px solid green;"">","null","","","","","",""
"","image-keyboard-response","271","151439","0.0-271.0","37WLF8U1WQC85SAU4XUHHDEBRVH6KP","A3AY0315YWWNXY","3A3KKYU7P33Z3BR9PPFZ5194ZCQMWU","","556.1000000238419","img/animal1.png","75","556.6000000238419","2","1","2","1,0.5,0,0,1,0.5,0.5,0,1",""
"","html-keyboard-response","272","151740","0.0-272.0","37WLF8U1WQC85SAU4XUHHDEBRVH6KP","A3AY0315YWWNXY","3A3KKYU7P33Z3BR9PPFZ5194ZCQMWU","","null","<img src=""img/animal1.png"" style=""width:200px; border:14px solid green;"">","null","","","","","",""
"","image-keyboard-response","273","152199","0.0-273.0","37WLF8U1WQC85SAU4XUHHDEBRVH6KP","A3AY0315YWWNXY","3A3KKYU7P33Z3BR9PPFZ5194ZCQMWU","","458.5","img/animal1.png","75","459","2","1","2","1,0.5,0,0,1,0.5,0.5,0,1",""
"","html-keyboard-response","274","152501","0.0-274.0","37WLF8U1WQC85SAU4XUHHDEBRVH6KP","A3AY0315YWWNXY","3A3KKYU7P33Z3BR9PPFZ5194ZCQMWU","","null","<img src=""img/animal1.png"" style=""width:200px; border:14px solid green;"">","null","","","","","",""
"","image-keyboard-response","275","152856","0.0-275.0","37WLF8U1WQC85SAU4XUHHDEBRVH6KP","A3AY0315YWWNXY","3A3KKYU7P33Z3BR9PPFZ5194ZCQMWU","","353.19999998807907","img/animal1.png","75","353.69999998807907","2","1","2","1,0.5,0,0,1,0.5,0.5,0,1",""
"","html-keyboard-response","276","153157","0.0-276.0","37WLF8U1WQC85SAU4XUHHDEBRVH6KP","A3AY0315YWWNXY","3A3KKYU7P33Z3BR9PPFZ5194ZCQMWU","","null","<img src=""img/animal1.png"" style=""width:200px; border:14px solid green;"">","null","","","","","",""
"","image-keyboard-response","277","153447","0.0-277.0","37WLF8U1WQC85SAU4XUHHDEBRVH6KP","A3AY0315YWWNXY","3A3KKYU7P33Z3BR9PPFZ5194ZCQMWU","","289.60000002384186","img/animal1.png","75","290.19999998807907","2","1","2","1,0.5,0,0,1,0.5,0.5,0,1",""
"","html-keyboard-response","278","153749","0.0-278.0","37WLF8U1WQC85SAU4XUHHDEBRVH6KP","A3AY0315YWWNXY","3A3KKYU7P33Z3BR9PPFZ5194ZCQMWU","","null","<img src=""img/animal1.png"" style=""width:200px; border:14px solid green;"">","null","","","","","",""
"","image-keyboard-response","279","154549","0.0-279.0","37WLF8U1WQC85SAU4XUHHDEBRVH6KP","A3AY0315YWWNXY","3A3KKYU7P33Z3BR9PPFZ5194ZCQMWU","","799.6999999880791","img/animal3.png","76","800.3000000119209","3","1","3","1,0.5,0,0,1,0.5,0.5,0,1",""
"","html-keyboard-response","280","154851","0.0-280.0","37WLF8U1WQC85SAU4XUHHDEBRVH6KP","A3AY0315YWWNXY","3A3KKYU7P33Z3BR9PPFZ5194ZCQMWU","","null","<img src=""img/animal3.png"" style=""width:200px; border:14px solid green;"">","null","","","","","",""
"","image-keyboard-response","281","155490","0.0-281.0","37WLF8U1WQC85SAU4XUHHDEBRVH6KP","A3AY0315YWWNXY","3A3KKYU7P33Z3BR9PPFZ5194ZCQMWU","","637.8999999761581","img/animal1.png","75","638.5999999642372","2","1","2","1,0.5,0,0,1,0.5,0.5,0,1",""
"","html-keyboard-response","282","155791","0.0-282.0","37WLF8U1WQC85SAU4XUHHDEBRVH6KP","A3AY0315YWWNXY","3A3KKYU7P33Z3BR9PPFZ5194ZCQMWU","","null","<img src=""img/animal1.png"" style=""width:200px; border:14px solid green;"">","null","","","","","",""
"","image-keyboard-response","283","156758","0.0-283.0","37WLF8U1WQC85SAU4XUHHDEBRVH6KP","A3AY0315YWWNXY","3A3KKYU7P33Z3BR9PPFZ5194ZCQMWU","","965.7999999523163","img/animal3.png","76","966.4000000357628","3","1","3","1,0.5,0,0,1,0.5,0.5,0,1",""
"","html-keyboard-response","284","157060","0.0-284.0","37WLF8U1WQC85SAU4XUHHDEBRVH6KP","A3AY0315YWWNXY","3A3KKYU7P33Z3BR9PPFZ5194ZCQMWU","","null","<img src=""img/animal3.png"" style=""width:200px; border:14px solid green;"">","null","","","","","",""
"","image-keyboard-response","285","157437","0.0-285.0","37WLF8U1WQC85SAU4XUHHDEBRVH6KP","A3AY0315YWWNXY","3A3KKYU7P33Z3BR9PPFZ5194ZCQMWU","","377","img/animal1.png","74","377.80000001192093","1","0","2","1,0.5,0,0,1,0.5,0.5,0,1",""
"","html-keyboard-response","286","157739","0.0-286.0","37WLF8U1WQC85SAU4XUHHDEBRVH6KP","A3AY0315YWWNXY","3A3KKYU7P33Z3BR9PPFZ5194ZCQMWU","","null","<img src=""img/animal1.png"" style=""width:200px;border:14px solid red;"">","null","","","","","",""
"","image-keyboard-response","287","158258","0.0-287.0","37WLF8U1WQC85SAU4XUHHDEBRVH6KP","A3AY0315YWWNXY","3A3KKYU7P33Z3BR9PPFZ5194ZCQMWU","","517.9000000357628","img/animal1.png","75","518.5","2","1","2","1,0.5,0,0,1,0.5,0.5,0,1",""
"","html-keyboard-response","288","158559","0.0-288.0","37WLF8U1WQC85SAU4XUHHDEBRVH6KP","A3AY0315YWWNXY","3A3KKYU7P33Z3BR9PPFZ5194ZCQMWU","","null","<img src=""img/animal1.png"" style=""width:200px; border:14px solid green;"">","null","","","","","",""
"","image-keyboard-response","289","159061","0.0-289.0","37WLF8U1WQC85SAU4XUHHDEBRVH6KP","A3AY0315YWWNXY","3A3KKYU7P33Z3BR9PPFZ5194ZCQMWU","","501.5","img/animal5.png","74","502.0999999642372","1","1","1","1,0.5,0,0,1,0.5,0.5,0,1",""
"","html-keyboard-response","290","159362","0.0-290.0","37WLF8U1WQC85SAU4XUHHDEBRVH6KP","A3AY0315YWWNXY","3A3KKYU7P33Z3BR9PPFZ5194ZCQMWU","","null","<img src=""img/animal5.png"" style=""width:200px; border:14px solid green;"">","null","","","","","",""
"","image-keyboard-response","291","160009","0.0-291.0","37WLF8U1WQC85SAU4XUHHDEBRVH6KP","A3AY0315YWWNXY","3A3KKYU7P33Z3BR9PPFZ5194ZCQMWU","","646.3999999761581","img/animal1.png","75","646.9000000357628","2","1","2","1,0.5,0,0,1,0.5,0.5,0,1",""
"","html-keyboard-response","292","160310","0.0-292.0","37WLF8U1WQC85SAU4XUHHDEBRVH6KP","A3AY0315YWWNXY","3A3KKYU7P33Z3BR9PPFZ5194ZCQMWU","","null","<img src=""img/animal1.png"" style=""width:200px; border:14px solid green;"">","null","","","","","",""
"","image-keyboard-response","293","160979","0.0-293.0","37WLF8U1WQC85SAU4XUHHDEBRVH6KP","A3AY0315YWWNXY","3A3KKYU7P33Z3BR9PPFZ5194ZCQMWU","","668.3999999761581","img/animal3.png","76","669.1000000238419","3","1","3","1,0.5,0,0,1,0.5,0.5,0,1",""
"","html-keyboard-response","294","161281","0.0-294.0","37WLF8U1WQC85SAU4XUHHDEBRVH6KP","A3AY0315YWWNXY","3A3KKYU7P33Z3BR9PPFZ5194ZCQMWU","","null","<img src=""img/animal3.png"" style=""width:200px; border:14px solid green;"">","null","","","","","",""
"","image-keyboard-response","295","162405","0.0-295.0","37WLF8U1WQC85SAU4XUHHDEBRVH6KP","A3AY0315YWWNXY","3A3KKYU7P33Z3BR9PPFZ5194ZCQMWU","","1123.699999988079","img/animal3.png","76","1124.5","3","1","3","1,0.5,0,0,1,0.5,0.5,0,1",""
"","html-keyboard-response","296","162707","0.0-296.0","37WLF8U1WQC85SAU4XUHHDEBRVH6KP","A3AY0315YWWNXY","3A3KKYU7P33Z3BR9PPFZ5194ZCQMWU","","null","<img src=""img/animal3.png"" style=""width:200px; border:14px solid green;"">","null","","","","","",""
"","image-keyboard-response","297","163021","0.0-297.0","37WLF8U1WQC85SAU4XUHHDEBRVH6KP","A3AY0315YWWNXY","3A3KKYU7P33Z3BR9PPFZ5194ZCQMWU","","313.89999997615814","img/animal3.png","76","314.5","3","1","3","1,0.5,0,0,1,0.5,0.5,0,1",""
"","html-keyboard-response","298","163322","0.0-298.0","37WLF8U1WQC85SAU4XUHHDEBRVH6KP","A3AY0315YWWNXY","3A3KKYU7P33Z3BR9PPFZ5194ZCQMWU","","null","<img src=""img/animal3.png"" style=""width:200px; border:14px solid green;"">","null","","","","","",""
"","image-keyboard-response","299","163907","0.0-299.0","37WLF8U1WQC85SAU4XUHHDEBRVH6KP","A3AY0315YWWNXY","3A3KKYU7P33Z3BR9PPFZ5194ZCQMWU","","584.5","img/animal5.png","74","585","1","1","1","1,0.5,0,0,1,0.5,0.5,0,1",""
"","html-keyboard-response","300","164208","0.0-300.0","37WLF8U1WQC85SAU4XUHHDEBRVH6KP","A3AY0315YWWNXY","3A3KKYU7P33Z3BR9PPFZ5194ZCQMWU","","null","<img src=""img/animal5.png"" style=""width:200px; border:14px solid green;"">","null","","","","","",""
"","image-keyboard-response","301","164799","0.0-301.0","37WLF8U1WQC85SAU4XUHHDEBRVH6KP","A3AY0315YWWNXY","3A3KKYU7P33Z3BR9PPFZ5194ZCQMWU","","590.6000000238419","img/animal1.png","75","591.3000000119209","2","1","2","1,0.5,0,0,1,0.5,0.5,0,1",""
"","html-keyboard-response","302","165100","0.0-302.0","37WLF8U1WQC85SAU4XUHHDEBRVH6KP","A3AY0315YWWNXY","3A3KKYU7P33Z3BR9PPFZ5194ZCQMWU","","null","<img src=""img/animal1.png"" style=""width:200px; border:14px solid green;"">","null","","","","","",""
"","image-keyboard-response","303","165755","0.0-303.0","37WLF8U1WQC85SAU4XUHHDEBRVH6KP","A3AY0315YWWNXY","3A3KKYU7P33Z3BR9PPFZ5194ZCQMWU","","654.5","img/animal5.png","74","655.0999999642372","1","1","1","1,0.5,0,0,1,0.5,0.5,0,1",""
"","html-keyboard-response","304","166056","0.0-304.0","37WLF8U1WQC85SAU4XUHHDEBRVH6KP","A3AY0315YWWNXY","3A3KKYU7P33Z3BR9PPFZ5194ZCQMWU","","null","<img src=""img/animal5.png"" style=""width:200px; border:14px solid green;"">","null","","","","","",""
"","image-keyboard-response","305","166564","0.0-305.0","37WLF8U1WQC85SAU4XUHHDEBRVH6KP","A3AY0315YWWNXY","3A3KKYU7P33Z3BR9PPFZ5194ZCQMWU","","506.60000002384186","img/animal1.png","75","507.30000001192093","2","1","2","1,0.5,0,0,1,0.5,0.5,0,1",""
"","html-keyboard-response","306","166864","0.0-306.0","37WLF8U1WQC85SAU4XUHHDEBRVH6KP","A3AY0315YWWNXY","3A3KKYU7P33Z3BR9PPFZ5194ZCQMWU","","null","<img src=""img/animal1.png"" style=""width:200px; border:14px solid green;"">","null","","","","","",""
"","image-keyboard-response","307","167496","0.0-307.0","37WLF8U1WQC85SAU4XUHHDEBRVH6KP","A3AY0315YWWNXY","3A3KKYU7P33Z3BR9PPFZ5194ZCQMWU","","630.5999999642372","img/animal5.png","74","631.1999999880791","1","1","1","1,0.5,0,0,1,0.5,0.5,0,1",""
"","html-keyboard-response","308","167797","0.0-308.0","37WLF8U1WQC85SAU4XUHHDEBRVH6KP","A3AY0315YWWNXY","3A3KKYU7P33Z3BR9PPFZ5194ZCQMWU","","null","<img src=""img/animal5.png"" style=""width:200px; border:14px solid green;"">","null","","","","","",""
"","image-keyboard-response","309","168155","0.0-309.0","37WLF8U1WQC85SAU4XUHHDEBRVH6KP","A3AY0315YWWNXY","3A3KKYU7P33Z3BR9PPFZ5194ZCQMWU","","357.2999999523163","img/animal1.png","75","358","2","1","2","1,0.5,0,0,1,0.5,0.5,0,1",""
"","html-keyboard-response","310","168456","0.0-310.0","37WLF8U1WQC85SAU4XUHHDEBRVH6KP","A3AY0315YWWNXY","3A3KKYU7P33Z3BR9PPFZ5194ZCQMWU","","null","<img src=""img/animal1.png"" style=""width:200px; border:14px solid green;"">","null","","","","","",""
"","image-keyboard-response","311","168887","0.0-311.0","37WLF8U1WQC85SAU4XUHHDEBRVH6KP","A3AY0315YWWNXY","3A3KKYU7P33Z3BR9PPFZ5194ZCQMWU","","430.5","img/animal5.png","74","431","1","1","1","1,0.5,0,0,1,0.5,0.5,0,1",""
"","html-keyboard-response","312","169188","0.0-312.0","37WLF8U1WQC85SAU4XUHHDEBRVH6KP","A3AY0315YWWNXY","3A3KKYU7P33Z3BR9PPFZ5194ZCQMWU","","null","<img src=""img/animal5.png"" style=""width:200px; border:14px solid green;"">","null","","","","","",""
"","image-keyboard-response","313","169562","0.0-313.0","37WLF8U1WQC85SAU4XUHHDEBRVH6KP","A3AY0315YWWNXY","3A3KKYU7P33Z3BR9PPFZ5194ZCQMWU","","372.5","img/animal1.png","75","373.10000002384186","2","1","2","1,0.5,0,0,1,0.5,0.5,0,1",""
"","html-keyboard-response","314","169862","0.0-314.0","37WLF8U1WQC85SAU4XUHHDEBRVH6KP","A3AY0315YWWNXY","3A3KKYU7P33Z3BR9PPFZ5194ZCQMWU","","null","<img src=""img/animal1.png"" style=""width:200px; border:14px solid green;"">","null","","","","","",""
"","image-keyboard-response","315","170421","0.0-315.0","37WLF8U1WQC85SAU4XUHHDEBRVH6KP","A3AY0315YWWNXY","3A3KKYU7P33Z3BR9PPFZ5194ZCQMWU","","558.3999999761581","img/animal1.png","75","558.8000000119209","2","1","2","1,0.5,0,0,1,0.5,0.5,0,1",""
"","html-keyboard-response","316","170722","0.0-316.0","37WLF8U1WQC85SAU4XUHHDEBRVH6KP","A3AY0315YWWNXY","3A3KKYU7P33Z3BR9PPFZ5194ZCQMWU","","null","<img src=""img/animal1.png"" style=""width:200px; border:14px solid green;"">","null","","","","","",""
"","image-keyboard-response","317","171241","0.0-317.0","37WLF8U1WQC85SAU4XUHHDEBRVH6KP","A3AY0315YWWNXY","3A3KKYU7P33Z3BR9PPFZ5194ZCQMWU","","518.5","img/animal5.png","74","519.0999999642372","1","1","1","1,0.5,0,0,1,0.5,0.5,0,1",""
"","html-keyboard-response","318","171542","0.0-318.0","37WLF8U1WQC85SAU4XUHHDEBRVH6KP","A3AY0315YWWNXY","3A3KKYU7P33Z3BR9PPFZ5194ZCQMWU","","null","<img src=""img/animal5.png"" style=""width:200px; border:14px solid green;"">","null","","","","","",""
"","image-keyboard-response","319","171921","0.0-319.0","37WLF8U1WQC85SAU4XUHHDEBRVH6KP","A3AY0315YWWNXY","3A3KKYU7P33Z3BR9PPFZ5194ZCQMWU","","378.19999998807907","img/animal5.png","74","378.9000000357628","1","1","1","1,0.5,0,0,1,0.5,0.5,0,1",""
"","html-keyboard-response","320","172222","0.0-320.0","37WLF8U1WQC85SAU4XUHHDEBRVH6KP","A3AY0315YWWNXY","3A3KKYU7P33Z3BR9PPFZ5194ZCQMWU","","null","<img src=""img/animal5.png"" style=""width:200px; border:14px solid green;"">","null","","","","","",""
"","image-keyboard-response","321","172989","0.0-321.0","37WLF8U1WQC85SAU4XUHHDEBRVH6KP","A3AY0315YWWNXY","3A3KKYU7P33Z3BR9PPFZ5194ZCQMWU","","766.3000000119209","img/animal1.png","75","766.8000000119209","2","1","2","1,0.5,0,0,1,0.5,0.5,0,1",""
"","html-keyboard-response","322","173290","0.0-322.0","37WLF8U1WQC85SAU4XUHHDEBRVH6KP","A3AY0315YWWNXY","3A3KKYU7P33Z3BR9PPFZ5194ZCQMWU","","null","<img src=""img/animal1.png"" style=""width:200px; border:14px solid green;"">","null","","","","","",""
"","image-keyboard-response","323","173819","0.0-323.0","37WLF8U1WQC85SAU4XUHHDEBRVH6KP","A3AY0315YWWNXY","3A3KKYU7P33Z3BR9PPFZ5194ZCQMWU","","528.2999999523163","img/animal3.png","76","528.9000000357628","3","1","3","1,0.5,0,0,1,0.5,0.5,0,1",""
"","html-keyboard-response","324","174121","0.0-324.0","37WLF8U1WQC85SAU4XUHHDEBRVH6KP","A3AY0315YWWNXY","3A3KKYU7P33Z3BR9PPFZ5194ZCQMWU","","null","<img src=""img/animal3.png"" style=""width:200px; border:14px solid green;"">","null","","","","","",""
"","image-keyboard-response","325","174433","0.0-325.0","37WLF8U1WQC85SAU4XUHHDEBRVH6KP","A3AY0315YWWNXY","3A3KKYU7P33Z3BR9PPFZ5194ZCQMWU","","312.19999998807907","img/animal3.png","76","312.80000001192093","3","1","3","1,0.5,0,0,1,0.5,0.5,0,1",""
"","html-keyboard-response","326","174735","0.0-326.0","37WLF8U1WQC85SAU4XUHHDEBRVH6KP","A3AY0315YWWNXY","3A3KKYU7P33Z3BR9PPFZ5194ZCQMWU","","null","<img src=""img/animal3.png"" style=""width:200px; border:14px solid green;"">","null","","","","","",""
"","image-keyboard-response","327","175075","0.0-327.0","37WLF8U1WQC85SAU4XUHHDEBRVH6KP","A3AY0315YWWNXY","3A3KKYU7P33Z3BR9PPFZ5194ZCQMWU","","339.69999998807907","img/animal3.png","76","340.2000000476837","3","1","3","1,0.5,0,0,1,0.5,0.5,0,1",""
"","html-keyboard-response","328","175377","0.0-328.0","37WLF8U1WQC85SAU4XUHHDEBRVH6KP","A3AY0315YWWNXY","3A3KKYU7P33Z3BR9PPFZ5194ZCQMWU","","null","<img src=""img/animal3.png"" style=""width:200px; border:14px solid green;"">","null","","","","","",""
"","image-keyboard-response","329","175939","0.0-329.0","37WLF8U1WQC85SAU4XUHHDEBRVH6KP","A3AY0315YWWNXY","3A3KKYU7P33Z3BR9PPFZ5194ZCQMWU","","561.6000000238419","img/animal1.png","75","562.1999999880791","2","1","2","1,0.5,0,0,1,0.5,0.5,0,1",""
"","html-keyboard-response","330","176240","0.0-330.0","37WLF8U1WQC85SAU4XUHHDEBRVH6KP","A3AY0315YWWNXY","3A3KKYU7P33Z3BR9PPFZ5194ZCQMWU","","null","<img src=""img/animal1.png"" style=""width:200px; border:14px solid green;"">","null","","","","","",""
"","image-keyboard-response","331","176743","0.0-331.0","37WLF8U1WQC85SAU4XUHHDEBRVH6KP","A3AY0315YWWNXY","3A3KKYU7P33Z3BR9PPFZ5194ZCQMWU","","502.39999997615814","img/animal3.png","76","503","3","1","3","1,0.5,0,0,1,0.5,0.5,0,1",""
"","html-keyboard-response","332","177045","0.0-332.0","37WLF8U1WQC85SAU4XUHHDEBRVH6KP","A3AY0315YWWNXY","3A3KKYU7P33Z3BR9PPFZ5194ZCQMWU","","null","<img src=""img/animal3.png"" style=""width:200px; border:14px solid green;"">","null","","","","","",""
"","image-keyboard-response","333","177894","0.0-333.0","37WLF8U1WQC85SAU4XUHHDEBRVH6KP","A3AY0315YWWNXY","3A3KKYU7P33Z3BR9PPFZ5194ZCQMWU","","848.3999999761581","img/animal5.png","74","849.1000000238419","1","1","1","1,0.5,0,0,1,0.5,0.5,0,1",""
"","html-keyboard-response","334","178195","0.0-334.0","37WLF8U1WQC85SAU4XUHHDEBRVH6KP","A3AY0315YWWNXY","3A3KKYU7P33Z3BR9PPFZ5194ZCQMWU","","null","<img src=""img/animal5.png"" style=""width:200px; border:14px solid green;"">","null","","","","","",""
"","image-keyboard-response","335","178743","0.0-335.0","37WLF8U1WQC85SAU4XUHHDEBRVH6KP","A3AY0315YWWNXY","3A3KKYU7P33Z3BR9PPFZ5194ZCQMWU","","547.8999999761581","img/animal3.png","75","548.6999999880791","2","0","3","1,0.5,0,0,1,0.5,0.5,0,1",""
"","html-keyboard-response","336","179044","0.0-336.0","37WLF8U1WQC85SAU4XUHHDEBRVH6KP","A3AY0315YWWNXY","3A3KKYU7P33Z3BR9PPFZ5194ZCQMWU","","null","<img src=""img/animal3.png"" style=""width:200px;border:14px solid red;"">","null","","","","","",""
"","image-keyboard-response","337","179705","0.0-337.0","37WLF8U1WQC85SAU4XUHHDEBRVH6KP","A3AY0315YWWNXY","3A3KKYU7P33Z3BR9PPFZ5194ZCQMWU","","660.3999999761581","img/animal5.png","74","661","1","1","1","1,0.5,0,0,1,0.5,0.5,0,1",""
"","html-keyboard-response","338","180007","0.0-338.0","37WLF8U1WQC85SAU4XUHHDEBRVH6KP","A3AY0315YWWNXY","3A3KKYU7P33Z3BR9PPFZ5194ZCQMWU","","null","<img src=""img/animal5.png"" style=""width:200px; border:14px solid green;"">","null","","","","","",""
"","image-keyboard-response","339","180767","0.0-339.0","37WLF8U1WQC85SAU4XUHHDEBRVH6KP","A3AY0315YWWNXY","3A3KKYU7P33Z3BR9PPFZ5194ZCQMWU","","760.3999999761581","img/animal1.png","75","760.9000000357628","2","1","2","1,0.5,0,0,1,0.5,0.5,0,1",""
"","html-keyboard-response","340","181069","0.0-340.0","37WLF8U1WQC85SAU4XUHHDEBRVH6KP","A3AY0315YWWNXY","3A3KKYU7P33Z3BR9PPFZ5194ZCQMWU","","null","<img src=""img/animal1.png"" style=""width:200px; border:14px solid green;"">","null","","","","","",""
"","image-keyboard-response","341","181679","0.0-341.0","37WLF8U1WQC85SAU4XUHHDEBRVH6KP","A3AY0315YWWNXY","3A3KKYU7P33Z3BR9PPFZ5194ZCQMWU","","609.8000000119209","img/animal3.png","76","610.3000000119209","3","1","3","1,0.5,0,0,1,0.5,0.5,0,1",""
"","html-keyboard-response","342","181980","0.0-342.0","37WLF8U1WQC85SAU4XUHHDEBRVH6KP","A3AY0315YWWNXY","3A3KKYU7P33Z3BR9PPFZ5194ZCQMWU","","null","<img src=""img/animal3.png"" style=""width:200px; border:14px solid green;"">","null","","","","","",""
"","image-keyboard-response","343","182923","0.0-343.0","37WLF8U1WQC85SAU4XUHHDEBRVH6KP","A3AY0315YWWNXY","3A3KKYU7P33Z3BR9PPFZ5194ZCQMWU","","942.2999999523163","img/animal1.png","75","942.9000000357628","2","1","2","1,0.5,0,0,1,0.5,0.5,0,1",""
"","html-keyboard-response","344","183224","0.0-344.0","37WLF8U1WQC85SAU4XUHHDEBRVH6KP","A3AY0315YWWNXY","3A3KKYU7P33Z3BR9PPFZ5194ZCQMWU","","null","<img src=""img/animal1.png"" style=""width:200px; border:14px solid green;"">","null","","","","","",""
"","image-keyboard-response","345","183921","0.0-345.0","37WLF8U1WQC85SAU4XUHHDEBRVH6KP","A3AY0315YWWNXY","3A3KKYU7P33Z3BR9PPFZ5194ZCQMWU","","696.3000000119209","img/animal5.png","74","696.8999999761581","1","1","1","1,0.5,0,0,1,0.5,0.5,0,1",""
"","html-keyboard-response","346","184223","0.0-346.0","37WLF8U1WQC85SAU4XUHHDEBRVH6KP","A3AY0315YWWNXY","3A3KKYU7P33Z3BR9PPFZ5194ZCQMWU","","null","<img src=""img/animal5.png"" style=""width:200px; border:14px solid green;"">","null","","","","","",""
"","image-keyboard-response","347","184675","0.0-347.0","37WLF8U1WQC85SAU4XUHHDEBRVH6KP","A3AY0315YWWNXY","3A3KKYU7P33Z3BR9PPFZ5194ZCQMWU","","451.89999997615814","img/animal5.png","74","452.5","1","1","1","1,0.5,0,0,1,0.5,0.5,0,1",""
"","html-keyboard-response","348","184976","0.0-348.0","37WLF8U1WQC85SAU4XUHHDEBRVH6KP","A3AY0315YWWNXY","3A3KKYU7P33Z3BR9PPFZ5194ZCQMWU","","null","<img src=""img/animal5.png"" style=""width:200px; border:14px solid green;"">","null","","","","","",""
"","image-keyboard-response","349","185805","0.0-349.0","37WLF8U1WQC85SAU4XUHHDEBRVH6KP","A3AY0315YWWNXY","3A3KKYU7P33Z3BR9PPFZ5194ZCQMWU","","828.3000000119209","img/animal1.png","75","829","2","1","2","1,0.5,0,0,1,0.5,0.5,0,1",""
"","html-keyboard-response","350","186107","0.0-350.0","37WLF8U1WQC85SAU4XUHHDEBRVH6KP","A3AY0315YWWNXY","3A3KKYU7P33Z3BR9PPFZ5194ZCQMWU","","null","<img src=""img/animal1.png"" style=""width:200px; border:14px solid green;"">","null","","","","","",""
"","image-keyboard-response","351","187331","0.0-351.0","37WLF8U1WQC85SAU4XUHHDEBRVH6KP","A3AY0315YWWNXY","3A3KKYU7P33Z3BR9PPFZ5194ZCQMWU","","1224","img/animal5.png","74","1224.6000000238419","1","1","1","1,0.5,0,0,1,0.5,0.5,0,1",""
"","html-keyboard-response","352","187633","0.0-352.0","37WLF8U1WQC85SAU4XUHHDEBRVH6KP","A3AY0315YWWNXY","3A3KKYU7P33Z3BR9PPFZ5194ZCQMWU","","null","<img src=""img/animal5.png"" style=""width:200px; border:14px solid green;"">","null","","","","","",""
"","image-keyboard-response","353","188285","0.0-353.0","37WLF8U1WQC85SAU4XUHHDEBRVH6KP","A3AY0315YWWNXY","3A3KKYU7P33Z3BR9PPFZ5194ZCQMWU","","652.1000000238419","img/animal3.png","76","652.5999999642372","3","1","3","1,0.5,0,0,1,0.5,0.5,0,1",""
"","html-keyboard-response","354","188586","0.0-354.0","37WLF8U1WQC85SAU4XUHHDEBRVH6KP","A3AY0315YWWNXY","3A3KKYU7P33Z3BR9PPFZ5194ZCQMWU","","null","<img src=""img/animal3.png"" style=""width:200px; border:14px solid green;"">","null","","","","","",""
"","image-keyboard-response","355","188928","0.0-355.0","37WLF8U1WQC85SAU4XUHHDEBRVH6KP","A3AY0315YWWNXY","3A3KKYU7P33Z3BR9PPFZ5194ZCQMWU","","340.4000000357628","img/animal3.png","76","341","3","1","3","1,0.5,0,0,1,0.5,0.5,0,1",""
"","html-keyboard-response","356","189229","0.0-356.0","37WLF8U1WQC85SAU4XUHHDEBRVH6KP","A3AY0315YWWNXY","3A3KKYU7P33Z3BR9PPFZ5194ZCQMWU","","null","<img src=""img/animal3.png"" style=""width:200px; border:14px solid green;"">","null","","","","","",""
"","image-keyboard-response","357","189811","0.0-357.0","37WLF8U1WQC85SAU4XUHHDEBRVH6KP","A3AY0315YWWNXY","3A3KKYU7P33Z3BR9PPFZ5194ZCQMWU","","581.6000000238419","img/animal1.png","75","582.1999999880791","2","1","2","1,0.5,0,0,1,0.5,0.5,0,1",""
"","html-keyboard-response","358","190112","0.0-358.0","37WLF8U1WQC85SAU4XUHHDEBRVH6KP","A3AY0315YWWNXY","3A3KKYU7P33Z3BR9PPFZ5194ZCQMWU","","null","<img src=""img/animal1.png"" style=""width:200px; border:14px solid green;"">","null","","","","","",""
"","image-keyboard-response","359","190659","0.0-359.0","37WLF8U1WQC85SAU4XUHHDEBRVH6KP","A3AY0315YWWNXY","3A3KKYU7P33Z3BR9PPFZ5194ZCQMWU","","546.2999999523163","img/animal5.png","74","546.9000000357628","1","1","1","1,0.5,0,0,1,0.5,0.5,0,1",""
"","html-keyboard-response","360","190961","0.0-360.0","37WLF8U1WQC85SAU4XUHHDEBRVH6KP","A3AY0315YWWNXY","3A3KKYU7P33Z3BR9PPFZ5194ZCQMWU","","null","<img src=""img/animal5.png"" style=""width:200px; border:14px solid green;"">","null","","","","","",""
"","image-keyboard-response","361","191403","0.0-361.0","37WLF8U1WQC85SAU4XUHHDEBRVH6KP","A3AY0315YWWNXY","3A3KKYU7P33Z3BR9PPFZ5194ZCQMWU","","441.5","img/animal3.png","76","442.19999998807907","3","1","3","1,0.5,0,0,1,0.5,0.5,0,1",""
"","html-keyboard-response","362","191704","0.0-362.0","37WLF8U1WQC85SAU4XUHHDEBRVH6KP","A3AY0315YWWNXY","3A3KKYU7P33Z3BR9PPFZ5194ZCQMWU","","null","<img src=""img/animal3.png"" style=""width:200px; border:14px solid green;"">","null","","","","","",""
"","instructions","363","193619","0.0-363.0","37WLF8U1WQC85SAU4XUHHDEBRVH6KP","A3AY0315YWWNXY","3A3KKYU7P33Z3BR9PPFZ5194ZCQMWU","[{""page_index"":0,""viewing_time"":1914.1000000238419}]","1914.2000000476837","","","","","","","",""
"","survey-text","364","198529","0.0-364.0","37WLF8U1WQC85SAU4XUHHDEBRVH6KP","A3AY0315YWWNXY","3A3KKYU7P33Z3BR9PPFZ5194ZCQMWU","","4908.699999988079","","","","","","","","{""Q0"":""A3AY0315YWWNXY""}"
