"success","trial_type","trial_index","time_elapsed","internal_node_id","assignmentID","mturkID","hitID","view_history","rt","stimulus","key_press","reactionTime","a","r","s","reward_cond","responses"
"true","fullscreen","0","5653","0.0-0.0","31HQ4X3T3TWOCWQ9WA9LXINIYKILSS","A3CCFD0700KTPV","3A3KKYU7P33Z3BR9PPFZ5194ZCQMWU","","","","","","","","","",""
"","instructions","1","52166","0.0-1.0","31HQ4X3T3TWOCWQ9WA9LXINIYKILSS","A3CCFD0700KTPV","3A3KKYU7P33Z3BR9PPFZ5194ZCQMWU","[{""page_index"":0,""viewing_time"":7358.600000000093},{""page_index"":1,""viewing_time"":5146.199999999953},{""page_index"":2,""viewing_time"":3771.5999999998603},{""page_index"":3,""viewing_time"":12962.90000000014},{""page_index"":4,""viewing_time"":6984.399999999907},{""page_index"":5,""viewing_time"":5435.800000000047},{""page_index"":6,""viewing_time"":2666.600000000093},{""page_index"":7,""viewing_time"":2183}]","46510.10000000009","","","","","","","",""
"","image-keyboard-response","2","53751","0.0-2.0","31HQ4X3T3TWOCWQ9WA9LXINIYKILSS","A3CCFD0700KTPV","3A3KKYU7P33Z3BR9PPFZ5194ZCQMWU","","1583.3999999999069","img/animal5.png","74","1585.0999999998603","1","1","1","1,0.5,0,0,1,0.5,0.5,0,1",""
"","html-keyboard-response","3","54054","0.0-3.0","31HQ4X3T3TWOCWQ9WA9LXINIYKILSS","A3CCFD0700KTPV","3A3KKYU7P33Z3BR9PPFZ5194ZCQMWU","","null","<img src=""img/animal5.png"" style=""width:200px; border:14px solid green;"">","null","","","","","",""
"","image-keyboard-response","4","55510","0.0-4.0","31HQ4X3T3TWOCWQ9WA9LXINIYKILSS","A3CCFD0700KTPV","3A3KKYU7P33Z3BR9PPFZ5194ZCQMWU","","1454.1000000000931","img/animal4.png","74","1455.3000000000466","1","1","3","1,0.5,0,0,1,0.5,0.5,0,1",""
"","html-keyboard-response","5","55812","0.0-5.0","31HQ4X3T3TWOCWQ9WA9LXINIYKILSS","A3CCFD0700KTPV","3A3KKYU7P33Z3BR9PPFZ5194ZCQMWU","","null","<img src=""img/animal4.png"" style=""width:200px; border:14px solid green;"">","null","","","","","",""
"","image-keyboard-response","6","56742","0.0-6.0","31HQ4X3T3TWOCWQ9WA9LXINIYKILSS","A3CCFD0700KTPV","3A3KKYU7P33Z3BR9PPFZ5194ZCQMWU","","928.1999999999534","img/animal5.png","74","929.5","1","1","1","1,0.5,0,0,1,0.5,0.5,0,1",""
"","html-keyboard-response","7","57044","0.0-7.0","31HQ4X3T3TWOCWQ9WA9LXINIYKILSS","A3CCFD0700KTPV","3A3KKYU7P33Z3BR9PPFZ5194ZCQMWU","","null","<img src=""img/animal5.png"" style=""width:200px; border:14px solid green;"">","null","","","","","",""
"","image-keyboard-response","8","57926","0.0-8.0","31HQ4X3T3TWOCWQ9WA9LXINIYKILSS","A3CCFD0700KTPV","3A3KKYU7P33Z3BR9PPFZ5194ZCQMWU","","880.6999999999534","img/animal2.png","75","882","2","1","2","1,0.5,0,0,1,0.5,0.5,0,1",""
"","html-keyboard-response","9","58229","0.0-9.0","31HQ4X3T3TWOCWQ9WA9LXINIYKILSS","A3CCFD0700KTPV","3A3KKYU7P33Z3BR9PPFZ5194ZCQMWU","","null","<img src=""img/animal2.png"" style=""width:200px; border:14px solid green;"">","null","","","","","",""
"","image-keyboard-response","10","59006","0.0-10.0","31HQ4X3T3TWOCWQ9WA9LXINIYKILSS","A3CCFD0700KTPV","3A3KKYU7P33Z3BR9PPFZ5194ZCQMWU","","775.1000000000931","img/animal2.png","75","776.4000000001397","2","1","2","1,0.5,0,0,1,0.5,0.5,0,1",""
"","html-keyboard-response","11","59309","0.0-11.0","31HQ4X3T3TWOCWQ9WA9LXINIYKILSS","A3CCFD0700KTPV","3A3KKYU7P33Z3BR9PPFZ5194ZCQMWU","","null","<img src=""img/animal2.png"" style=""width:200px; border:14px solid green;"">","null","","","","","",""
"","image-keyboard-response","12","59902","0.0-12.0","31HQ4X3T3TWOCWQ9WA9LXINIYKILSS","A3CCFD0700KTPV","3A3KKYU7P33Z3BR9PPFZ5194ZCQMWU","","592","img/animal2.png","75","593.3000000000466","2","1","2","1,0.5,0,0,1,0.5,0.5,0,1",""
"","html-keyboard-response","13","60204","0.0-13.0","31HQ4X3T3TWOCWQ9WA9LXINIYKILSS","A3CCFD0700KTPV","3A3KKYU7P33Z3BR9PPFZ5194ZCQMWU","","null","<img src=""img/animal2.png"" style=""width:200px; border:14px solid green;"">","null","","","","","",""
"","image-keyboard-response","14","60693","0.0-14.0","31HQ4X3T3TWOCWQ9WA9LXINIYKILSS","A3CCFD0700KTPV","3A3KKYU7P33Z3BR9PPFZ5194ZCQMWU","","487.9000000001397","img/animal2.png","75","489.30000000004657","2","1","2","1,0.5,0,0,1,0.5,0.5,0,1",""
"","html-keyboard-response","15","60996","0.0-15.0","31HQ4X3T3TWOCWQ9WA9LXINIYKILSS","A3CCFD0700KTPV","3A3KKYU7P33Z3BR9PPFZ5194ZCQMWU","","null","<img src=""img/animal2.png"" style=""width:200px; border:14px solid green;"">","null","","","","","",""
"","image-keyboard-response","16","62166","0.0-16.0","31HQ4X3T3TWOCWQ9WA9LXINIYKILSS","A3CCFD0700KTPV","3A3KKYU7P33Z3BR9PPFZ5194ZCQMWU","","1167.5","img/animal5.png","75","1169.0999999998603","2","0","1","1,0.5,0,0,1,0.5,0.5,0,1",""
"","html-keyboard-response","17","62468","0.0-17.0","31HQ4X3T3TWOCWQ9WA9LXINIYKILSS","A3CCFD0700KTPV","3A3KKYU7P33Z3BR9PPFZ5194ZCQMWU","","null","<img src=""img/animal5.png"" style=""width:200px;border:14px solid red;"">","null","","","","","",""
"","image-keyboard-response","18","64237","0.0-18.0","31HQ4X3T3TWOCWQ9WA9LXINIYKILSS","A3CCFD0700KTPV","3A3KKYU7P33Z3BR9PPFZ5194ZCQMWU","","1767.8000000000466","img/animal4.png","74","1769.1999999999534","1","1","3","1,0.5,0,0,1,0.5,0.5,0,1",""
"","html-keyboard-response","19","64540","0.0-19.0","31HQ4X3T3TWOCWQ9WA9LXINIYKILSS","A3CCFD0700KTPV","3A3KKYU7P33Z3BR9PPFZ5194ZCQMWU","","null","<img src=""img/animal4.png"" style=""width:200px; border:14px solid green;"">","null","","","","","",""
"","image-keyboard-response","20","66006","0.0-20.0","31HQ4X3T3TWOCWQ9WA9LXINIYKILSS","A3CCFD0700KTPV","3A3KKYU7P33Z3BR9PPFZ5194ZCQMWU","","1464.3000000000466","img/animal2.png","76","1465.3999999999069","3","1","2","1,0.5,0,0,1,0.5,0.5,0,1",""
"","html-keyboard-response","21","66308","0.0-21.0","31HQ4X3T3TWOCWQ9WA9LXINIYKILSS","A3CCFD0700KTPV","3A3KKYU7P33Z3BR9PPFZ5194ZCQMWU","","null","<img src=""img/animal2.png"" style=""width:200px; border:14px solid green;"">","null","","","","","",""
"","image-keyboard-response","22","67429","0.0-22.0","31HQ4X3T3TWOCWQ9WA9LXINIYKILSS","A3CCFD0700KTPV","3A3KKYU7P33Z3BR9PPFZ5194ZCQMWU","","1119.3999999999069","img/animal5.png","75","1120.6999999999534","2","0","1","1,0.5,0,0,1,0.5,0.5,0,1",""
"","html-keyboard-response","23","67731","0.0-23.0","31HQ4X3T3TWOCWQ9WA9LXINIYKILSS","A3CCFD0700KTPV","3A3KKYU7P33Z3BR9PPFZ5194ZCQMWU","","null","<img src=""img/animal5.png"" style=""width:200px;border:14px solid red;"">","null","","","","","",""
"","image-keyboard-response","24","68653","0.0-24.0","31HQ4X3T3TWOCWQ9WA9LXINIYKILSS","A3CCFD0700KTPV","3A3KKYU7P33Z3BR9PPFZ5194ZCQMWU","","920.5","img/animal2.png","76","921.8999999999069","3","1","2","1,0.5,0,0,1,0.5,0.5,0,1",""
"","html-keyboard-response","25","68956","0.0-25.0","31HQ4X3T3TWOCWQ9WA9LXINIYKILSS","A3CCFD0700KTPV","3A3KKYU7P33Z3BR9PPFZ5194ZCQMWU","","null","<img src=""img/animal2.png"" style=""width:200px; border:14px solid green;"">","null","","","","","",""
"","image-keyboard-response","26","70174","0.0-26.0","31HQ4X3T3TWOCWQ9WA9LXINIYKILSS","A3CCFD0700KTPV","3A3KKYU7P33Z3BR9PPFZ5194ZCQMWU","","1216.8000000000466","img/animal5.png","75","1217.8999999999069","2","1","1","1,0.5,0,0,1,0.5,0.5,0,1",""
"","html-keyboard-response","27","70476","0.0-27.0","31HQ4X3T3TWOCWQ9WA9LXINIYKILSS","A3CCFD0700KTPV","3A3KKYU7P33Z3BR9PPFZ5194ZCQMWU","","null","<img src=""img/animal5.png"" style=""width:200px; border:14px solid green;"">","null","","","","","",""
"","image-keyboard-response","28","71782","0.0-28.0","31HQ4X3T3TWOCWQ9WA9LXINIYKILSS","A3CCFD0700KTPV","3A3KKYU7P33Z3BR9PPFZ5194ZCQMWU","","1303.8000000000466","img/animal4.png","74","1305.2000000001863","1","0","3","1,0.5,0,0,1,0.5,0.5,0,1",""
"","html-keyboard-response","29","72084","0.0-29.0","31HQ4X3T3TWOCWQ9WA9LXINIYKILSS","A3CCFD0700KTPV","3A3KKYU7P33Z3BR9PPFZ5194ZCQMWU","","null","<img src=""img/animal4.png"" style=""width:200px;border:14px solid red;"">","null","","","","","",""
"","image-keyboard-response","30","72973","0.0-30.0","31HQ4X3T3TWOCWQ9WA9LXINIYKILSS","A3CCFD0700KTPV","3A3KKYU7P33Z3BR9PPFZ5194ZCQMWU","","887.7999999998137","img/animal2.png","75","888.8000000000466","2","1","2","1,0.5,0,0,1,0.5,0.5,0,1",""
"","html-keyboard-response","31","73275","0.0-31.0","31HQ4X3T3TWOCWQ9WA9LXINIYKILSS","A3CCFD0700KTPV","3A3KKYU7P33Z3BR9PPFZ5194ZCQMWU","","null","<img src=""img/animal2.png"" style=""width:200px; border:14px solid green;"">","null","","","","","",""
"","image-keyboard-response","32","74670","0.0-32.0","31HQ4X3T3TWOCWQ9WA9LXINIYKILSS","A3CCFD0700KTPV","3A3KKYU7P33Z3BR9PPFZ5194ZCQMWU","","1393.4000000001397","img/animal5.png","75","1394.6000000000931","2","1","1","1,0.5,0,0,1,0.5,0.5,0,1",""
"","html-keyboard-response","33","74973","0.0-33.0","31HQ4X3T3TWOCWQ9WA9LXINIYKILSS","A3CCFD0700KTPV","3A3KKYU7P33Z3BR9PPFZ5194ZCQMWU","","null","<img src=""img/animal5.png"" style=""width:200px; border:14px solid green;"">","null","","","","","",""
"","image-keyboard-response","34","75854","0.0-34.0","31HQ4X3T3TWOCWQ9WA9LXINIYKILSS","A3CCFD0700KTPV","3A3KKYU7P33Z3BR9PPFZ5194ZCQMWU","","879.3999999999069","img/animal2.png","75","881.1000000000931","2","1","2","1,0.5,0,0,1,0.5,0.5,0,1",""
"","html-keyboard-response","35","76156","0.0-35.0","31HQ4X3T3TWOCWQ9WA9LXINIYKILSS","A3CCFD0700KTPV","3A3KKYU7P33Z3BR9PPFZ5194ZCQMWU","","null","<img src=""img/animal2.png"" style=""width:200px; border:14px solid green;"">","null","","","","","",""
"","image-keyboard-response","36","77286","0.0-36.0","31HQ4X3T3TWOCWQ9WA9LXINIYKILSS","A3CCFD0700KTPV","3A3KKYU7P33Z3BR9PPFZ5194ZCQMWU","","1128.1000000000931","img/animal4.png","75","1129.6999999999534","2","0","3","1,0.5,0,0,1,0.5,0.5,0,1",""
"","html-keyboard-response","37","77589","0.0-37.0","31HQ4X3T3TWOCWQ9WA9LXINIYKILSS","A3CCFD0700KTPV","3A3KKYU7P33Z3BR9PPFZ5194ZCQMWU","","null","<img src=""img/animal4.png"" style=""width:200px;border:14px solid red;"">","null","","","","","",""
"","image-keyboard-response","38","78471","0.0-38.0","31HQ4X3T3TWOCWQ9WA9LXINIYKILSS","A3CCFD0700KTPV","3A3KKYU7P33Z3BR9PPFZ5194ZCQMWU","","880.5999999998603","img/animal5.png","75","882","2","1","1","1,0.5,0,0,1,0.5,0.5,0,1",""
"","html-keyboard-response","39","78773","0.0-39.0","31HQ4X3T3TWOCWQ9WA9LXINIYKILSS","A3CCFD0700KTPV","3A3KKYU7P33Z3BR9PPFZ5194ZCQMWU","","null","<img src=""img/animal5.png"" style=""width:200px; border:14px solid green;"">","null","","","","","",""
"","image-keyboard-response","40","79422","0.0-40.0","31HQ4X3T3TWOCWQ9WA9LXINIYKILSS","A3CCFD0700KTPV","3A3KKYU7P33Z3BR9PPFZ5194ZCQMWU","","646.8999999999069","img/animal2.png","75","648.2000000001863","2","1","2","1,0.5,0,0,1,0.5,0.5,0,1",""
"","html-keyboard-response","41","79724","0.0-41.0","31HQ4X3T3TWOCWQ9WA9LXINIYKILSS","A3CCFD0700KTPV","3A3KKYU7P33Z3BR9PPFZ5194ZCQMWU","","null","<img src=""img/animal2.png"" style=""width:200px; border:14px solid green;"">","null","","","","","",""
"","image-keyboard-response","42","80597","0.0-42.0","31HQ4X3T3TWOCWQ9WA9LXINIYKILSS","A3CCFD0700KTPV","3A3KKYU7P33Z3BR9PPFZ5194ZCQMWU","","872.3000000000466","img/animal5.png","75","873.5","2","0","1","1,0.5,0,0,1,0.5,0.5,0,1",""
"","html-keyboard-response","43","80900","0.0-43.0","31HQ4X3T3TWOCWQ9WA9LXINIYKILSS","A3CCFD0700KTPV","3A3KKYU7P33Z3BR9PPFZ5194ZCQMWU","","null","<img src=""img/animal5.png"" style=""width:200px;border:14px solid red;"">","null","","","","","",""
"","image-keyboard-response","44","82222","0.0-44.0","31HQ4X3T3TWOCWQ9WA9LXINIYKILSS","A3CCFD0700KTPV","3A3KKYU7P33Z3BR9PPFZ5194ZCQMWU","","1320.6000000000931","img/animal4.png","74","1321.8999999999069","1","0","3","1,0.5,0,0,1,0.5,0.5,0,1",""
"","html-keyboard-response","45","82524","0.0-45.0","31HQ4X3T3TWOCWQ9WA9LXINIYKILSS","A3CCFD0700KTPV","3A3KKYU7P33Z3BR9PPFZ5194ZCQMWU","","null","<img src=""img/animal4.png"" style=""width:200px;border:14px solid red;"">","null","","","","","",""
"","image-keyboard-response","46","83287","0.0-46.0","31HQ4X3T3TWOCWQ9WA9LXINIYKILSS","A3CCFD0700KTPV","3A3KKYU7P33Z3BR9PPFZ5194ZCQMWU","","761.0999999998603","img/animal5.png","75","762.6999999999534","2","0","1","1,0.5,0,0,1,0.5,0.5,0,1",""
"","html-keyboard-response","47","83589","0.0-47.0","31HQ4X3T3TWOCWQ9WA9LXINIYKILSS","A3CCFD0700KTPV","3A3KKYU7P33Z3BR9PPFZ5194ZCQMWU","","null","<img src=""img/animal5.png"" style=""width:200px;border:14px solid red;"">","null","","","","","",""
"","image-keyboard-response","48","85573","0.0-48.0","31HQ4X3T3TWOCWQ9WA9LXINIYKILSS","A3CCFD0700KTPV","3A3KKYU7P33Z3BR9PPFZ5194ZCQMWU","","1983","img/animal4.png","74","1984.0999999998603","1","0","3","1,0.5,0,0,1,0.5,0.5,0,1",""
"","html-keyboard-response","49","85875","0.0-49.0","31HQ4X3T3TWOCWQ9WA9LXINIYKILSS","A3CCFD0700KTPV","3A3KKYU7P33Z3BR9PPFZ5194ZCQMWU","","null","<img src=""img/animal4.png"" style=""width:200px;border:14px solid red;"">","null","","","","","",""
"","image-keyboard-response","50","86622","0.0-50.0","31HQ4X3T3TWOCWQ9WA9LXINIYKILSS","A3CCFD0700KTPV","3A3KKYU7P33Z3BR9PPFZ5194ZCQMWU","","745.6999999999534","img/animal4.png","76","746.8999999999069","3","1","3","1,0.5,0,0,1,0.5,0.5,0,1",""
"","html-keyboard-response","51","86923","0.0-51.0","31HQ4X3T3TWOCWQ9WA9LXINIYKILSS","A3CCFD0700KTPV","3A3KKYU7P33Z3BR9PPFZ5194ZCQMWU","","null","<img src=""img/animal4.png"" style=""width:200px; border:14px solid green;"">","null","","","","","",""
"","image-keyboard-response","52","87887","0.0-52.0","31HQ4X3T3TWOCWQ9WA9LXINIYKILSS","A3CCFD0700KTPV","3A3KKYU7P33Z3BR9PPFZ5194ZCQMWU","","961.8000000000466","img/animal2.png","75","963.1999999999534","2","1","2","1,0.5,0,0,1,0.5,0.5,0,1",""
"","html-keyboard-response","53","88190","0.0-53.0","31HQ4X3T3TWOCWQ9WA9LXINIYKILSS","A3CCFD0700KTPV","3A3KKYU7P33Z3BR9PPFZ5194ZCQMWU","","null","<img src=""img/animal2.png"" style=""width:200px; border:14px solid green;"">","null","","","","","",""
"","image-keyboard-response","54","89591","0.0-54.0","31HQ4X3T3TWOCWQ9WA9LXINIYKILSS","A3CCFD0700KTPV","3A3KKYU7P33Z3BR9PPFZ5194ZCQMWU","","1399","img/animal5.png","75","1400.5","2","0","1","1,0.5,0,0,1,0.5,0.5,0,1",""
"","html-keyboard-response","55","89893","0.0-55.0","31HQ4X3T3TWOCWQ9WA9LXINIYKILSS","A3CCFD0700KTPV","3A3KKYU7P33Z3BR9PPFZ5194ZCQMWU","","null","<img src=""img/animal5.png"" style=""width:200px;border:14px solid red;"">","null","","","","","",""
"","image-keyboard-response","56","91007","0.0-56.0","31HQ4X3T3TWOCWQ9WA9LXINIYKILSS","A3CCFD0700KTPV","3A3KKYU7P33Z3BR9PPFZ5194ZCQMWU","","1111.6000000000931","img/animal4.png","76","1113.0999999998603","3","1","3","1,0.5,0,0,1,0.5,0.5,0,1",""
"","html-keyboard-response","57","91309","0.0-57.0","31HQ4X3T3TWOCWQ9WA9LXINIYKILSS","A3CCFD0700KTPV","3A3KKYU7P33Z3BR9PPFZ5194ZCQMWU","","null","<img src=""img/animal4.png"" style=""width:200px; border:14px solid green;"">","null","","","","","",""
"","image-keyboard-response","58","92967","0.0-58.0","31HQ4X3T3TWOCWQ9WA9LXINIYKILSS","A3CCFD0700KTPV","3A3KKYU7P33Z3BR9PPFZ5194ZCQMWU","","1656.5999999998603","img/animal2.png","75","1658.1000000000931","2","1","2","1,0.5,0,0,1,0.5,0.5,0,1",""
"","html-keyboard-response","59","93270","0.0-59.0","31HQ4X3T3TWOCWQ9WA9LXINIYKILSS","A3CCFD0700KTPV","3A3KKYU7P33Z3BR9PPFZ5194ZCQMWU","","null","<img src=""img/animal2.png"" style=""width:200px; border:14px solid green;"">","null","","","","","",""
"","image-keyboard-response","60","94263","0.0-60.0","31HQ4X3T3TWOCWQ9WA9LXINIYKILSS","A3CCFD0700KTPV","3A3KKYU7P33Z3BR9PPFZ5194ZCQMWU","","991.1000000000931","img/animal5.png","75","992.5","2","0","1","1,0.5,0,0,1,0.5,0.5,0,1",""
"","html-keyboard-response","61","94566","0.0-61.0","31HQ4X3T3TWOCWQ9WA9LXINIYKILSS","A3CCFD0700KTPV","3A3KKYU7P33Z3BR9PPFZ5194ZCQMWU","","null","<img src=""img/animal5.png"" style=""width:200px;border:14px solid red;"">","null","","","","","",""
"","image-keyboard-response","62","95223","0.0-62.0","31HQ4X3T3TWOCWQ9WA9LXINIYKILSS","A3CCFD0700KTPV","3A3KKYU7P33Z3BR9PPFZ5194ZCQMWU","","655.3000000000466","img/animal2.png","75","656.3000000000466","2","1","2","1,0.5,0,0,1,0.5,0.5,0,1",""
"","html-keyboard-response","63","95526","0.0-63.0","31HQ4X3T3TWOCWQ9WA9LXINIYKILSS","A3CCFD0700KTPV","3A3KKYU7P33Z3BR9PPFZ5194ZCQMWU","","null","<img src=""img/animal2.png"" style=""width:200px; border:14px solid green;"">","null","","","","","",""
"","image-keyboard-response","64","96654","0.0-64.0","31HQ4X3T3TWOCWQ9WA9LXINIYKILSS","A3CCFD0700KTPV","3A3KKYU7P33Z3BR9PPFZ5194ZCQMWU","","1127","img/animal2.png","75","1128.6999999999534","2","1","2","1,0.5,0,0,1,0.5,0.5,0,1",""
"","html-keyboard-response","65","96958","0.0-65.0","31HQ4X3T3TWOCWQ9WA9LXINIYKILSS","A3CCFD0700KTPV","3A3KKYU7P33Z3BR9PPFZ5194ZCQMWU","","null","<img src=""img/animal2.png"" style=""width:200px; border:14px solid green;"">","null","","","","","",""
"","image-keyboard-response","66","98558","0.0-66.0","31HQ4X3T3TWOCWQ9WA9LXINIYKILSS","A3CCFD0700KTPV","3A3KKYU7P33Z3BR9PPFZ5194ZCQMWU","","1598.8999999999069","img/animal4.png","76","1600.1999999999534","3","1","3","1,0.5,0,0,1,0.5,0.5,0,1",""
"","html-keyboard-response","67","98860","0.0-67.0","31HQ4X3T3TWOCWQ9WA9LXINIYKILSS","A3CCFD0700KTPV","3A3KKYU7P33Z3BR9PPFZ5194ZCQMWU","","null","<img src=""img/animal4.png"" style=""width:200px; border:14px solid green;"">","null","","","","","",""
"","image-keyboard-response","68","99863","0.0-68.0","31HQ4X3T3TWOCWQ9WA9LXINIYKILSS","A3CCFD0700KTPV","3A3KKYU7P33Z3BR9PPFZ5194ZCQMWU","","1001.6999999999534","img/animal2.png","75","1002.8000000000466","2","1","2","1,0.5,0,0,1,0.5,0.5,0,1",""
"","html-keyboard-response","69","100165","0.0-69.0","31HQ4X3T3TWOCWQ9WA9LXINIYKILSS","A3CCFD0700KTPV","3A3KKYU7P33Z3BR9PPFZ5194ZCQMWU","","null","<img src=""img/animal2.png"" style=""width:200px; border:14px solid green;"">","null","","","","","",""
"","image-keyboard-response","70","100958","0.0-70.0","31HQ4X3T3TWOCWQ9WA9LXINIYKILSS","A3CCFD0700KTPV","3A3KKYU7P33Z3BR9PPFZ5194ZCQMWU","","790.8000000000466","img/animal4.png","76","792","3","1","3","1,0.5,0,0,1,0.5,0.5,0,1",""
"","html-keyboard-response","71","101260","0.0-71.0","31HQ4X3T3TWOCWQ9WA9LXINIYKILSS","A3CCFD0700KTPV","3A3KKYU7P33Z3BR9PPFZ5194ZCQMWU","","null","<img src=""img/animal4.png"" style=""width:200px; border:14px solid green;"">","null","","","","","",""
"","image-keyboard-response","72","102254","0.0-72.0","31HQ4X3T3TWOCWQ9WA9LXINIYKILSS","A3CCFD0700KTPV","3A3KKYU7P33Z3BR9PPFZ5194ZCQMWU","","992.2000000001863","img/animal5.png","75","993.3999999999069","2","1","1","1,0.5,0,0,1,0.5,0.5,0,1",""
"","html-keyboard-response","73","102558","0.0-73.0","31HQ4X3T3TWOCWQ9WA9LXINIYKILSS","A3CCFD0700KTPV","3A3KKYU7P33Z3BR9PPFZ5194ZCQMWU","","null","<img src=""img/animal5.png"" style=""width:200px; border:14px solid green;"">","null","","","","","",""
"","image-keyboard-response","74","103798","0.0-74.0","31HQ4X3T3TWOCWQ9WA9LXINIYKILSS","A3CCFD0700KTPV","3A3KKYU7P33Z3BR9PPFZ5194ZCQMWU","","1237.5","img/animal2.png","75","1240.0999999998603","2","1","2","1,0.5,0,0,1,0.5,0.5,0,1",""
"","html-keyboard-response","75","104100","0.0-75.0","31HQ4X3T3TWOCWQ9WA9LXINIYKILSS","A3CCFD0700KTPV","3A3KKYU7P33Z3BR9PPFZ5194ZCQMWU","","null","<img src=""img/animal2.png"" style=""width:200px; border:14px solid green;"">","null","","","","","",""
"","image-keyboard-response","76","104775","0.0-76.0","31HQ4X3T3TWOCWQ9WA9LXINIYKILSS","A3CCFD0700KTPV","3A3KKYU7P33Z3BR9PPFZ5194ZCQMWU","","673.4000000001397","img/animal4.png","76","674.4000000001397","3","1","3","1,0.5,0,0,1,0.5,0.5,0,1",""
"","html-keyboard-response","77","105077","0.0-77.0","31HQ4X3T3TWOCWQ9WA9LXINIYKILSS","A3CCFD0700KTPV","3A3KKYU7P33Z3BR9PPFZ5194ZCQMWU","","null","<img src=""img/animal4.png"" style=""width:200px; border:14px solid green;"">","null","","","","","",""
"","image-keyboard-response","78","105711","0.0-78.0","31HQ4X3T3TWOCWQ9WA9LXINIYKILSS","A3CCFD0700KTPV","3A3KKYU7P33Z3BR9PPFZ5194ZCQMWU","","632.3000000000466","img/animal5.png","75","633.7999999998137","2","0","1","1,0.5,0,0,1,0.5,0.5,0,1",""
"","html-keyboard-response","79","106014","0.0-79.0","31HQ4X3T3TWOCWQ9WA9LXINIYKILSS","A3CCFD0700KTPV","3A3KKYU7P33Z3BR9PPFZ5194ZCQMWU","","null","<img src=""img/animal5.png"" style=""width:200px;border:14px solid red;"">","null","","","","","",""
"","image-keyboard-response","80","107207","0.0-80.0","31HQ4X3T3TWOCWQ9WA9LXINIYKILSS","A3CCFD0700KTPV","3A3KKYU7P33Z3BR9PPFZ5194ZCQMWU","","1191.5","img/animal2.png","75","1193.1000000000931","2","1","2","1,0.5,0,0,1,0.5,0.5,0,1",""
"","html-keyboard-response","81","107510","0.0-81.0","31HQ4X3T3TWOCWQ9WA9LXINIYKILSS","A3CCFD0700KTPV","3A3KKYU7P33Z3BR9PPFZ5194ZCQMWU","","null","<img src=""img/animal2.png"" style=""width:200px; border:14px solid green;"">","null","","","","","",""
"","image-keyboard-response","82","108247","0.0-82.0","31HQ4X3T3TWOCWQ9WA9LXINIYKILSS","A3CCFD0700KTPV","3A3KKYU7P33Z3BR9PPFZ5194ZCQMWU","","735.5","img/animal4.png","76","736.8999999999069","3","1","3","1,0.5,0,0,1,0.5,0.5,0,1",""
"","html-keyboard-response","83","108550","0.0-83.0","31HQ4X3T3TWOCWQ9WA9LXINIYKILSS","A3CCFD0700KTPV","3A3KKYU7P33Z3BR9PPFZ5194ZCQMWU","","null","<img src=""img/animal4.png"" style=""width:200px; border:14px solid green;"">","null","","","","","",""
"","image-keyboard-response","84","109062","0.0-84.0","31HQ4X3T3TWOCWQ9WA9LXINIYKILSS","A3CCFD0700KTPV","3A3KKYU7P33Z3BR9PPFZ5194ZCQMWU","","510.5","img/animal4.png","76","511.5999999998603","3","1","3","1,0.5,0,0,1,0.5,0.5,0,1",""
"","html-keyboard-response","85","109364","0.0-85.0","31HQ4X3T3TWOCWQ9WA9LXINIYKILSS","A3CCFD0700KTPV","3A3KKYU7P33Z3BR9PPFZ5194ZCQMWU","","null","<img src=""img/animal4.png"" style=""width:200px; border:14px solid green;"">","null","","","","","",""
"","image-keyboard-response","86","110206","0.0-86.0","31HQ4X3T3TWOCWQ9WA9LXINIYKILSS","A3CCFD0700KTPV","3A3KKYU7P33Z3BR9PPFZ5194ZCQMWU","","841.1999999999534","img/animal5.png","75","842.1000000000931","2","1","1","1,0.5,0,0,1,0.5,0.5,0,1",""
"","html-keyboard-response","87","110508","0.0-87.0","31HQ4X3T3TWOCWQ9WA9LXINIYKILSS","A3CCFD0700KTPV","3A3KKYU7P33Z3BR9PPFZ5194ZCQMWU","","null","<img src=""img/animal5.png"" style=""width:200px; border:14px solid green;"">","null","","","","","",""
"","image-keyboard-response","88","111274","0.0-88.0","31HQ4X3T3TWOCWQ9WA9LXINIYKILSS","A3CCFD0700KTPV","3A3KKYU7P33Z3BR9PPFZ5194ZCQMWU","","764.5","img/animal5.png","75","765.2999999998137","2","1","1","1,0.5,0,0,1,0.5,0.5,0,1",""
"","html-keyboard-response","89","111577","0.0-89.0","31HQ4X3T3TWOCWQ9WA9LXINIYKILSS","A3CCFD0700KTPV","3A3KKYU7P33Z3BR9PPFZ5194ZCQMWU","","null","<img src=""img/animal5.png"" style=""width:200px; border:14px solid green;"">","null","","","","","",""
"","image-keyboard-response","90","112374","0.0-90.0","31HQ4X3T3TWOCWQ9WA9LXINIYKILSS","A3CCFD0700KTPV","3A3KKYU7P33Z3BR9PPFZ5194ZCQMWU","","794.9000000001397","img/animal4.png","76","797.1000000000931","3","1","3","1,0.5,0,0,1,0.5,0.5,0,1",""
"","html-keyboard-response","91","112676","0.0-91.0","31HQ4X3T3TWOCWQ9WA9LXINIYKILSS","A3CCFD0700KTPV","3A3KKYU7P33Z3BR9PPFZ5194ZCQMWU","","null","<img src=""img/animal4.png"" style=""width:200px; border:14px solid green;"">","null","","","","","",""
"","image-keyboard-response","92","113390","0.0-92.0","31HQ4X3T3TWOCWQ9WA9LXINIYKILSS","A3CCFD0700KTPV","3A3KKYU7P33Z3BR9PPFZ5194ZCQMWU","","712.5","img/animal5.png","75","713.3000000000466","2","1","1","1,0.5,0,0,1,0.5,0.5,0,1",""
"","html-keyboard-response","93","113692","0.0-93.0","31HQ4X3T3TWOCWQ9WA9LXINIYKILSS","A3CCFD0700KTPV","3A3KKYU7P33Z3BR9PPFZ5194ZCQMWU","","null","<img src=""img/animal5.png"" style=""width:200px; border:14px solid green;"">","null","","","","","",""
"","image-keyboard-response","94","114111","0.0-94.0","31HQ4X3T3TWOCWQ9WA9LXINIYKILSS","A3CCFD0700KTPV","3A3KKYU7P33Z3BR9PPFZ5194ZCQMWU","","417.5","img/animal5.png","75","418.69999999995343","2","1","1","1,0.5,0,0,1,0.5,0.5,0,1",""
"","html-keyboard-response","95","114413","0.0-95.0","31HQ4X3T3TWOCWQ9WA9LXINIYKILSS","A3CCFD0700KTPV","3A3KKYU7P33Z3BR9PPFZ5194ZCQMWU","","null","<img src=""img/animal5.png"" style=""width:200px; border:14px solid green;"">","null","","","","","",""
"","image-keyboard-response","96","115071","0.0-96.0","31HQ4X3T3TWOCWQ9WA9LXINIYKILSS","A3CCFD0700KTPV","3A3KKYU7P33Z3BR9PPFZ5194ZCQMWU","","656","img/animal2.png","76","657.4000000001397","3","1","2","1,0.5,0,0,1,0.5,0.5,0,1",""
"","html-keyboard-response","97","115373","0.0-97.0","31HQ4X3T3TWOCWQ9WA9LXINIYKILSS","A3CCFD0700KTPV","3A3KKYU7P33Z3BR9PPFZ5194ZCQMWU","","null","<img src=""img/animal2.png"" style=""width:200px; border:14px solid green;"">","null","","","","","",""
"","image-keyboard-response","98","116103","0.0-98.0","31HQ4X3T3TWOCWQ9WA9LXINIYKILSS","A3CCFD0700KTPV","3A3KKYU7P33Z3BR9PPFZ5194ZCQMWU","","726.9000000001397","img/animal2.png","76","727.8999999999069","3","0","2","1,0.5,0,0,1,0.5,0.5,0,1",""
"","html-keyboard-response","99","116405","0.0-99.0","31HQ4X3T3TWOCWQ9WA9LXINIYKILSS","A3CCFD0700KTPV","3A3KKYU7P33Z3BR9PPFZ5194ZCQMWU","","null","<img src=""img/animal2.png"" style=""width:200px;border:14px solid red;"">","null","","","","","",""
"","image-keyboard-response","100","117231","0.0-100.0","31HQ4X3T3TWOCWQ9WA9LXINIYKILSS","A3CCFD0700KTPV","3A3KKYU7P33Z3BR9PPFZ5194ZCQMWU","","825.1999999999534","img/animal5.png","75","826.1000000000931","2","1","1","1,0.5,0,0,1,0.5,0.5,0,1",""
"","html-keyboard-response","101","117534","0.0-101.0","31HQ4X3T3TWOCWQ9WA9LXINIYKILSS","A3CCFD0700KTPV","3A3KKYU7P33Z3BR9PPFZ5194ZCQMWU","","null","<img src=""img/animal5.png"" style=""width:200px; border:14px solid green;"">","null","","","","","",""
"","image-keyboard-response","102","118159","0.0-102.0","31HQ4X3T3TWOCWQ9WA9LXINIYKILSS","A3CCFD0700KTPV","3A3KKYU7P33Z3BR9PPFZ5194ZCQMWU","","623.9000000001397","img/animal2.png","75","625","2","1","2","1,0.5,0,0,1,0.5,0.5,0,1",""
"","html-keyboard-response","103","118460","0.0-103.0","31HQ4X3T3TWOCWQ9WA9LXINIYKILSS","A3CCFD0700KTPV","3A3KKYU7P33Z3BR9PPFZ5194ZCQMWU","","null","<img src=""img/animal2.png"" style=""width:200px; border:14px solid green;"">","null","","","","","",""
"","image-keyboard-response","104","120015","0.0-104.0","31HQ4X3T3TWOCWQ9WA9LXINIYKILSS","A3CCFD0700KTPV","3A3KKYU7P33Z3BR9PPFZ5194ZCQMWU","","1552.8000000000466","img/animal4.png","76","1554.1000000000931","3","1","3","1,0.5,0,0,1,0.5,0.5,0,1",""
"","html-keyboard-response","105","120329","0.0-105.0","31HQ4X3T3TWOCWQ9WA9LXINIYKILSS","A3CCFD0700KTPV","3A3KKYU7P33Z3BR9PPFZ5194ZCQMWU","","null","<img src=""img/animal4.png"" style=""width:200px; border:14px solid green;"">","null","","","","","",""
"","image-keyboard-response","106","121174","0.0-106.0","31HQ4X3T3TWOCWQ9WA9LXINIYKILSS","A3CCFD0700KTPV","3A3KKYU7P33Z3BR9PPFZ5194ZCQMWU","","843.6999999999534","img/animal2.png","75","845.1999999999534","2","1","2","1,0.5,0,0,1,0.5,0.5,0,1",""
"","html-keyboard-response","107","121476","0.0-107.0","31HQ4X3T3TWOCWQ9WA9LXINIYKILSS","A3CCFD0700KTPV","3A3KKYU7P33Z3BR9PPFZ5194ZCQMWU","","null","<img src=""img/animal2.png"" style=""width:200px; border:14px solid green;"">","null","","","","","",""
"","image-keyboard-response","108","122112","0.0-108.0","31HQ4X3T3TWOCWQ9WA9LXINIYKILSS","A3CCFD0700KTPV","3A3KKYU7P33Z3BR9PPFZ5194ZCQMWU","","634","img/animal4.png","76","635.3999999999069","3","1","3","1,0.5,0,0,1,0.5,0.5,0,1",""
"","html-keyboard-response","109","122415","0.0-109.0","31HQ4X3T3TWOCWQ9WA9LXINIYKILSS","A3CCFD0700KTPV","3A3KKYU7P33Z3BR9PPFZ5194ZCQMWU","","null","<img src=""img/animal4.png"" style=""width:200px; border:14px solid green;"">","null","","","","","",""
"","image-keyboard-response","110","123039","0.0-110.0","31HQ4X3T3TWOCWQ9WA9LXINIYKILSS","A3CCFD0700KTPV","3A3KKYU7P33Z3BR9PPFZ5194ZCQMWU","","622.7999999998137","img/animal4.png","76","623.8000000000466","3","1","3","1,0.5,0,0,1,0.5,0.5,0,1",""
"","html-keyboard-response","111","123341","0.0-111.0","31HQ4X3T3TWOCWQ9WA9LXINIYKILSS","A3CCFD0700KTPV","3A3KKYU7P33Z3BR9PPFZ5194ZCQMWU","","null","<img src=""img/animal4.png"" style=""width:200px; border:14px solid green;"">","null","","","","","",""
"","image-keyboard-response","112","123879","0.0-112.0","31HQ4X3T3TWOCWQ9WA9LXINIYKILSS","A3CCFD0700KTPV","3A3KKYU7P33Z3BR9PPFZ5194ZCQMWU","","536.3999999999069","img/animal4.png","76","537.6000000000931","3","1","3","1,0.5,0,0,1,0.5,0.5,0,1",""
"","html-keyboard-response","113","124181","0.0-113.0","31HQ4X3T3TWOCWQ9WA9LXINIYKILSS","A3CCFD0700KTPV","3A3KKYU7P33Z3BR9PPFZ5194ZCQMWU","","null","<img src=""img/animal4.png"" style=""width:200px; border:14px solid green;"">","null","","","","","",""
"","image-keyboard-response","114","124719","0.0-114.0","31HQ4X3T3TWOCWQ9WA9LXINIYKILSS","A3CCFD0700KTPV","3A3KKYU7P33Z3BR9PPFZ5194ZCQMWU","","536.3000000000466","img/animal4.png","76","537.6000000000931","3","1","3","1,0.5,0,0,1,0.5,0.5,0,1",""
"","html-keyboard-response","115","125020","0.0-115.0","31HQ4X3T3TWOCWQ9WA9LXINIYKILSS","A3CCFD0700KTPV","3A3KKYU7P33Z3BR9PPFZ5194ZCQMWU","","null","<img src=""img/animal4.png"" style=""width:200px; border:14px solid green;"">","null","","","","","",""
"","image-keyboard-response","116","125703","0.0-116.0","31HQ4X3T3TWOCWQ9WA9LXINIYKILSS","A3CCFD0700KTPV","3A3KKYU7P33Z3BR9PPFZ5194ZCQMWU","","680.8000000000466","img/animal5.png","75","682.0999999998603","2","0","1","1,0.5,0,0,1,0.5,0.5,0,1",""
"","html-keyboard-response","117","126005","0.0-117.0","31HQ4X3T3TWOCWQ9WA9LXINIYKILSS","A3CCFD0700KTPV","3A3KKYU7P33Z3BR9PPFZ5194ZCQMWU","","null","<img src=""img/animal5.png"" style=""width:200px;border:14px solid red;"">","null","","","","","",""
"","image-keyboard-response","118","126839","0.0-118.0","31HQ4X3T3TWOCWQ9WA9LXINIYKILSS","A3CCFD0700KTPV","3A3KKYU7P33Z3BR9PPFZ5194ZCQMWU","","832.3000000000466","img/animal4.png","76","834","3","1","3","1,0.5,0,0,1,0.5,0.5,0,1",""
"","html-keyboard-response","119","127142","0.0-119.0","31HQ4X3T3TWOCWQ9WA9LXINIYKILSS","A3CCFD0700KTPV","3A3KKYU7P33Z3BR9PPFZ5194ZCQMWU","","null","<img src=""img/animal4.png"" style=""width:200px; border:14px solid green;"">","null","","","","","",""
"","image-keyboard-response","120","127648","0.0-120.0","31HQ4X3T3TWOCWQ9WA9LXINIYKILSS","A3CCFD0700KTPV","3A3KKYU7P33Z3BR9PPFZ5194ZCQMWU","","504","img/animal4.png","76","505.10000000009313","3","1","3","1,0.5,0,0,1,0.5,0.5,0,1",""
"","html-keyboard-response","121","127949","0.0-121.0","31HQ4X3T3TWOCWQ9WA9LXINIYKILSS","A3CCFD0700KTPV","3A3KKYU7P33Z3BR9PPFZ5194ZCQMWU","","null","<img src=""img/animal4.png"" style=""width:200px; border:14px solid green;"">","null","","","","","",""
"","image-keyboard-response","122","128991","0.0-122.0","31HQ4X3T3TWOCWQ9WA9LXINIYKILSS","A3CCFD0700KTPV","3A3KKYU7P33Z3BR9PPFZ5194ZCQMWU","","1039.8999999999069","img/animal2.png","75","1040.8000000000466","2","1","2","1,0.5,0,0,1,0.5,0.5,0,1",""
"","html-keyboard-response","123","129293","0.0-123.0","31HQ4X3T3TWOCWQ9WA9LXINIYKILSS","A3CCFD0700KTPV","3A3KKYU7P33Z3BR9PPFZ5194ZCQMWU","","null","<img src=""img/animal2.png"" style=""width:200px; border:14px solid green;"">","null","","","","","",""
"","image-keyboard-response","124","130135","0.0-124.0","31HQ4X3T3TWOCWQ9WA9LXINIYKILSS","A3CCFD0700KTPV","3A3KKYU7P33Z3BR9PPFZ5194ZCQMWU","","840.8000000000466","img/animal4.png","76","841.6999999999534","3","1","3","1,0.5,0,0,1,0.5,0.5,0,1",""
"","html-keyboard-response","125","130437","0.0-125.0","31HQ4X3T3TWOCWQ9WA9LXINIYKILSS","A3CCFD0700KTPV","3A3KKYU7P33Z3BR9PPFZ5194ZCQMWU","","null","<img src=""img/animal4.png"" style=""width:200px; border:14px solid green;"">","null","","","","","",""
"","image-keyboard-response","126","131127","0.0-126.0","31HQ4X3T3TWOCWQ9WA9LXINIYKILSS","A3CCFD0700KTPV","3A3KKYU7P33Z3BR9PPFZ5194ZCQMWU","","688.6999999999534","img/animal2.png","75","690","2","1","2","1,0.5,0,0,1,0.5,0.5,0,1",""
"","html-keyboard-response","127","131430","0.0-127.0","31HQ4X3T3TWOCWQ9WA9LXINIYKILSS","A3CCFD0700KTPV","3A3KKYU7P33Z3BR9PPFZ5194ZCQMWU","","null","<img src=""img/animal2.png"" style=""width:200px; border:14px solid green;"">","null","","","","","",""
"","image-keyboard-response","128","132784","0.0-128.0","31HQ4X3T3TWOCWQ9WA9LXINIYKILSS","A3CCFD0700KTPV","3A3KKYU7P33Z3BR9PPFZ5194ZCQMWU","","1351.5999999998603","img/animal4.png","76","1352.8000000000466","3","1","3","1,0.5,0,0,1,0.5,0.5,0,1",""
"","html-keyboard-response","129","133086","0.0-129.0","31HQ4X3T3TWOCWQ9WA9LXINIYKILSS","A3CCFD0700KTPV","3A3KKYU7P33Z3BR9PPFZ5194ZCQMWU","","null","<img src=""img/animal4.png"" style=""width:200px; border:14px solid green;"">","null","","","","","",""
"","image-keyboard-response","130","133679","0.0-130.0","31HQ4X3T3TWOCWQ9WA9LXINIYKILSS","A3CCFD0700KTPV","3A3KKYU7P33Z3BR9PPFZ5194ZCQMWU","","591.2999999998137","img/animal2.png","75","592.3999999999069","2","1","2","1,0.5,0,0,1,0.5,0.5,0,1",""
"","html-keyboard-response","131","133982","0.0-131.0","31HQ4X3T3TWOCWQ9WA9LXINIYKILSS","A3CCFD0700KTPV","3A3KKYU7P33Z3BR9PPFZ5194ZCQMWU","","null","<img src=""img/animal2.png"" style=""width:200px; border:14px solid green;"">","null","","","","","",""
"","image-keyboard-response","132","134646","0.0-132.0","31HQ4X3T3TWOCWQ9WA9LXINIYKILSS","A3CCFD0700KTPV","3A3KKYU7P33Z3BR9PPFZ5194ZCQMWU","","663.5","img/animal2.png","75","664.6000000000931","2","1","2","1,0.5,0,0,1,0.5,0.5,0,1",""
"","html-keyboard-response","133","134950","0.0-133.0","31HQ4X3T3TWOCWQ9WA9LXINIYKILSS","A3CCFD0700KTPV","3A3KKYU7P33Z3BR9PPFZ5194ZCQMWU","","null","<img src=""img/animal2.png"" style=""width:200px; border:14px solid green;"">","null","","","","","",""
"","image-keyboard-response","134","135590","0.0-134.0","31HQ4X3T3TWOCWQ9WA9LXINIYKILSS","A3CCFD0700KTPV","3A3KKYU7P33Z3BR9PPFZ5194ZCQMWU","","639","img/animal5.png","76","640.1999999999534","3","0","1","1,0.5,0,0,1,0.5,0.5,0,1",""
"","html-keyboard-response","135","135892","0.0-135.0","31HQ4X3T3TWOCWQ9WA9LXINIYKILSS","A3CCFD0700KTPV","3A3KKYU7P33Z3BR9PPFZ5194ZCQMWU","","null","<img src=""img/animal5.png"" style=""width:200px;border:14px solid red;"">","null","","","","","",""
"","image-keyboard-response","136","136758","0.0-136.0","31HQ4X3T3TWOCWQ9WA9LXINIYKILSS","A3CCFD0700KTPV","3A3KKYU7P33Z3BR9PPFZ5194ZCQMWU","","864.8999999999069","img/animal5.png","74","866","1","1","1","1,0.5,0,0,1,0.5,0.5,0,1",""
"","html-keyboard-response","137","137060","0.0-137.0","31HQ4X3T3TWOCWQ9WA9LXINIYKILSS","A3CCFD0700KTPV","3A3KKYU7P33Z3BR9PPFZ5194ZCQMWU","","null","<img src=""img/animal5.png"" style=""width:200px; border:14px solid green;"">","null","","","","","",""
"","image-keyboard-response","138","138079","0.0-138.0","31HQ4X3T3TWOCWQ9WA9LXINIYKILSS","A3CCFD0700KTPV","3A3KKYU7P33Z3BR9PPFZ5194ZCQMWU","","1017","img/animal2.png","75","1018.1000000000931","2","1","2","1,0.5,0,0,1,0.5,0.5,0,1",""
"","html-keyboard-response","139","138381","0.0-139.0","31HQ4X3T3TWOCWQ9WA9LXINIYKILSS","A3CCFD0700KTPV","3A3KKYU7P33Z3BR9PPFZ5194ZCQMWU","","null","<img src=""img/animal2.png"" style=""width:200px; border:14px solid green;"">","null","","","","","",""
"","image-keyboard-response","140","138952","0.0-140.0","31HQ4X3T3TWOCWQ9WA9LXINIYKILSS","A3CCFD0700KTPV","3A3KKYU7P33Z3BR9PPFZ5194ZCQMWU","","569.6999999999534","img/animal2.png","75","570.7000000001863","2","1","2","1,0.5,0,0,1,0.5,0.5,0,1",""
"","html-keyboard-response","141","139259","0.0-141.0","31HQ4X3T3TWOCWQ9WA9LXINIYKILSS","A3CCFD0700KTPV","3A3KKYU7P33Z3BR9PPFZ5194ZCQMWU","","null","<img src=""img/animal2.png"" style=""width:200px; border:14px solid green;"">","null","","","","","",""
"","image-keyboard-response","142","139771","0.0-142.0","31HQ4X3T3TWOCWQ9WA9LXINIYKILSS","A3CCFD0700KTPV","3A3KKYU7P33Z3BR9PPFZ5194ZCQMWU","","511.20000000018626","img/animal2.png","75","512.3999999999069","2","1","2","1,0.5,0,0,1,0.5,0.5,0,1",""
"","html-keyboard-response","143","140074","0.0-143.0","31HQ4X3T3TWOCWQ9WA9LXINIYKILSS","A3CCFD0700KTPV","3A3KKYU7P33Z3BR9PPFZ5194ZCQMWU","","null","<img src=""img/animal2.png"" style=""width:200px; border:14px solid green;"">","null","","","","","",""
"","image-keyboard-response","144","140823","0.0-144.0","31HQ4X3T3TWOCWQ9WA9LXINIYKILSS","A3CCFD0700KTPV","3A3KKYU7P33Z3BR9PPFZ5194ZCQMWU","","747.4000000001397","img/animal5.png","74","748.6000000000931","1","1","1","1,0.5,0,0,1,0.5,0.5,0,1",""
"","html-keyboard-response","145","141125","0.0-145.0","31HQ4X3T3TWOCWQ9WA9LXINIYKILSS","A3CCFD0700KTPV","3A3KKYU7P33Z3BR9PPFZ5194ZCQMWU","","null","<img src=""img/animal5.png"" style=""width:200px; border:14px solid green;"">","null","","","","","",""
"","image-keyboard-response","146","141720","0.0-146.0","31HQ4X3T3TWOCWQ9WA9LXINIYKILSS","A3CCFD0700KTPV","3A3KKYU7P33Z3BR9PPFZ5194ZCQMWU","","592.8999999999069","img/animal5.png","74","594.6999999999534","1","1","1","1,0.5,0,0,1,0.5,0.5,0,1",""
"","html-keyboard-response","147","142023","0.0-147.0","31HQ4X3T3TWOCWQ9WA9LXINIYKILSS","A3CCFD0700KTPV","3A3KKYU7P33Z3BR9PPFZ5194ZCQMWU","","null","<img src=""img/animal5.png"" style=""width:200px; border:14px solid green;"">","null","","","","","",""
"","image-keyboard-response","148","142583","0.0-148.0","31HQ4X3T3TWOCWQ9WA9LXINIYKILSS","A3CCFD0700KTPV","3A3KKYU7P33Z3BR9PPFZ5194ZCQMWU","","558","img/animal5.png","74","559.1999999999534","1","1","1","1,0.5,0,0,1,0.5,0.5,0,1",""
"","html-keyboard-response","149","142884","0.0-149.0","31HQ4X3T3TWOCWQ9WA9LXINIYKILSS","A3CCFD0700KTPV","3A3KKYU7P33Z3BR9PPFZ5194ZCQMWU","","null","<img src=""img/animal5.png"" style=""width:200px; border:14px solid green;"">","null","","","","","",""
"","image-keyboard-response","150","143583","0.0-150.0","31HQ4X3T3TWOCWQ9WA9LXINIYKILSS","A3CCFD0700KTPV","3A3KKYU7P33Z3BR9PPFZ5194ZCQMWU","","696.9000000001397","img/animal2.png","75","698.1999999999534","2","1","2","1,0.5,0,0,1,0.5,0.5,0,1",""
"","html-keyboard-response","151","143884","0.0-151.0","31HQ4X3T3TWOCWQ9WA9LXINIYKILSS","A3CCFD0700KTPV","3A3KKYU7P33Z3BR9PPFZ5194ZCQMWU","","null","<img src=""img/animal2.png"" style=""width:200px; border:14px solid green;"">","null","","","","","",""
"","image-keyboard-response","152","144559","0.0-152.0","31HQ4X3T3TWOCWQ9WA9LXINIYKILSS","A3CCFD0700KTPV","3A3KKYU7P33Z3BR9PPFZ5194ZCQMWU","","673.3000000000466","img/animal5.png","74","674.5999999998603","1","1","1","1,0.5,0,0,1,0.5,0.5,0,1",""
"","html-keyboard-response","153","144862","0.0-153.0","31HQ4X3T3TWOCWQ9WA9LXINIYKILSS","A3CCFD0700KTPV","3A3KKYU7P33Z3BR9PPFZ5194ZCQMWU","","null","<img src=""img/animal5.png"" style=""width:200px; border:14px solid green;"">","null","","","","","",""
"","image-keyboard-response","154","145712","0.0-154.0","31HQ4X3T3TWOCWQ9WA9LXINIYKILSS","A3CCFD0700KTPV","3A3KKYU7P33Z3BR9PPFZ5194ZCQMWU","","848.1999999999534","img/animal4.png","76","849.3999999999069","3","1","3","1,0.5,0,0,1,0.5,0.5,0,1",""
"","html-keyboard-response","155","146014","0.0-155.0","31HQ4X3T3TWOCWQ9WA9LXINIYKILSS","A3CCFD0700KTPV","3A3KKYU7P33Z3BR9PPFZ5194ZCQMWU","","null","<img src=""img/animal4.png"" style=""width:200px; border:14px solid green;"">","null","","","","","",""
"","image-keyboard-response","156","146704","0.0-156.0","31HQ4X3T3TWOCWQ9WA9LXINIYKILSS","A3CCFD0700KTPV","3A3KKYU7P33Z3BR9PPFZ5194ZCQMWU","","688.3000000000466","img/animal4.png","76","689.8999999999069","3","1","3","1,0.5,0,0,1,0.5,0.5,0,1",""
"","html-keyboard-response","157","147006","0.0-157.0","31HQ4X3T3TWOCWQ9WA9LXINIYKILSS","A3CCFD0700KTPV","3A3KKYU7P33Z3BR9PPFZ5194ZCQMWU","","null","<img src=""img/animal4.png"" style=""width:200px; border:14px solid green;"">","null","","","","","",""
"","image-keyboard-response","158","147863","0.0-158.0","31HQ4X3T3TWOCWQ9WA9LXINIYKILSS","A3CCFD0700KTPV","3A3KKYU7P33Z3BR9PPFZ5194ZCQMWU","","855.6999999999534","img/animal5.png","75","857.1000000000931","2","1","1","1,0.5,0,0,1,0.5,0.5,0,1",""
"","html-keyboard-response","159","148165","0.0-159.0","31HQ4X3T3TWOCWQ9WA9LXINIYKILSS","A3CCFD0700KTPV","3A3KKYU7P33Z3BR9PPFZ5194ZCQMWU","","null","<img src=""img/animal5.png"" style=""width:200px; border:14px solid green;"">","null","","","","","",""
"","image-keyboard-response","160","148816","0.0-160.0","31HQ4X3T3TWOCWQ9WA9LXINIYKILSS","A3CCFD0700KTPV","3A3KKYU7P33Z3BR9PPFZ5194ZCQMWU","","648.5","img/animal4.png","76","650.0999999998603","3","1","3","1,0.5,0,0,1,0.5,0.5,0,1",""
"","html-keyboard-response","161","149118","0.0-161.0","31HQ4X3T3TWOCWQ9WA9LXINIYKILSS","A3CCFD0700KTPV","3A3KKYU7P33Z3BR9PPFZ5194ZCQMWU","","null","<img src=""img/animal4.png"" style=""width:200px; border:14px solid green;"">","null","","","","","",""
"","image-keyboard-response","162","149680","0.0-162.0","31HQ4X3T3TWOCWQ9WA9LXINIYKILSS","A3CCFD0700KTPV","3A3KKYU7P33Z3BR9PPFZ5194ZCQMWU","","560","img/animal4.png","76","561.6000000000931","3","1","3","1,0.5,0,0,1,0.5,0.5,0,1",""
"","html-keyboard-response","163","149983","0.0-163.0","31HQ4X3T3TWOCWQ9WA9LXINIYKILSS","A3CCFD0700KTPV","3A3KKYU7P33Z3BR9PPFZ5194ZCQMWU","","null","<img src=""img/animal4.png"" style=""width:200px; border:14px solid green;"">","null","","","","","",""
"","image-keyboard-response","164","150504","0.0-164.0","31HQ4X3T3TWOCWQ9WA9LXINIYKILSS","A3CCFD0700KTPV","3A3KKYU7P33Z3BR9PPFZ5194ZCQMWU","","519.6000000000931","img/animal4.png","76","521.1000000000931","3","1","3","1,0.5,0,0,1,0.5,0.5,0,1",""
"","html-keyboard-response","165","150807","0.0-165.0","31HQ4X3T3TWOCWQ9WA9LXINIYKILSS","A3CCFD0700KTPV","3A3KKYU7P33Z3BR9PPFZ5194ZCQMWU","","null","<img src=""img/animal4.png"" style=""width:200px; border:14px solid green;"">","null","","","","","",""
"","image-keyboard-response","166","151344","0.0-166.0","31HQ4X3T3TWOCWQ9WA9LXINIYKILSS","A3CCFD0700KTPV","3A3KKYU7P33Z3BR9PPFZ5194ZCQMWU","","535.3999999999069","img/animal5.png","75","536.7000000001863","2","1","1","1,0.5,0,0,1,0.5,0.5,0,1",""
"","html-keyboard-response","167","151646","0.0-167.0","31HQ4X3T3TWOCWQ9WA9LXINIYKILSS","A3CCFD0700KTPV","3A3KKYU7P33Z3BR9PPFZ5194ZCQMWU","","null","<img src=""img/animal5.png"" style=""width:200px; border:14px solid green;"">","null","","","","","",""
"","image-keyboard-response","168","152080","0.0-168.0","31HQ4X3T3TWOCWQ9WA9LXINIYKILSS","A3CCFD0700KTPV","3A3KKYU7P33Z3BR9PPFZ5194ZCQMWU","","432.4000000001397","img/animal5.png","75","433.20000000018626","2","0","1","1,0.5,0,0,1,0.5,0.5,0,1",""
"","html-keyboard-response","169","152381","0.0-169.0","31HQ4X3T3TWOCWQ9WA9LXINIYKILSS","A3CCFD0700KTPV","3A3KKYU7P33Z3BR9PPFZ5194ZCQMWU","","null","<img src=""img/animal5.png"" style=""width:200px;border:14px solid red;"">","null","","","","","",""
"","image-keyboard-response","170","153023","0.0-170.0","31HQ4X3T3TWOCWQ9WA9LXINIYKILSS","A3CCFD0700KTPV","3A3KKYU7P33Z3BR9PPFZ5194ZCQMWU","","640.1000000000931","img/animal4.png","76","641.1999999999534","3","1","3","1,0.5,0,0,1,0.5,0.5,0,1",""
"","html-keyboard-response","171","153325","0.0-171.0","31HQ4X3T3TWOCWQ9WA9LXINIYKILSS","A3CCFD0700KTPV","3A3KKYU7P33Z3BR9PPFZ5194ZCQMWU","","null","<img src=""img/animal4.png"" style=""width:200px; border:14px solid green;"">","null","","","","","",""
"","image-keyboard-response","172","153815","0.0-172.0","31HQ4X3T3TWOCWQ9WA9LXINIYKILSS","A3CCFD0700KTPV","3A3KKYU7P33Z3BR9PPFZ5194ZCQMWU","","489.10000000009313","img/animal5.png","76","490","3","0","1","1,0.5,0,0,1,0.5,0.5,0,1",""
"","html-keyboard-response","173","154117","0.0-173.0","31HQ4X3T3TWOCWQ9WA9LXINIYKILSS","A3CCFD0700KTPV","3A3KKYU7P33Z3BR9PPFZ5194ZCQMWU","","null","<img src=""img/animal5.png"" style=""width:200px;border:14px solid red;"">","null","","","","","",""
"","image-keyboard-response","174","155248","0.0-174.0","31HQ4X3T3TWOCWQ9WA9LXINIYKILSS","A3CCFD0700KTPV","3A3KKYU7P33Z3BR9PPFZ5194ZCQMWU","","1129.2000000001863","img/animal2.png","74","1130.8999999999069","1","0","2","1,0.5,0,0,1,0.5,0.5,0,1",""
"","html-keyboard-response","175","155550","0.0-175.0","31HQ4X3T3TWOCWQ9WA9LXINIYKILSS","A3CCFD0700KTPV","3A3KKYU7P33Z3BR9PPFZ5194ZCQMWU","","null","<img src=""img/animal2.png"" style=""width:200px;border:14px solid red;"">","null","","","","","",""
"","image-keyboard-response","176","156472","0.0-176.0","31HQ4X3T3TWOCWQ9WA9LXINIYKILSS","A3CCFD0700KTPV","3A3KKYU7P33Z3BR9PPFZ5194ZCQMWU","","920.3000000000466","img/animal5.png","75","921.8000000000466","2","1","1","1,0.5,0,0,1,0.5,0.5,0,1",""
"","html-keyboard-response","177","156775","0.0-177.0","31HQ4X3T3TWOCWQ9WA9LXINIYKILSS","A3CCFD0700KTPV","3A3KKYU7P33Z3BR9PPFZ5194ZCQMWU","","null","<img src=""img/animal5.png"" style=""width:200px; border:14px solid green;"">","null","","","","","",""
"","image-keyboard-response","178","157424","0.0-178.0","31HQ4X3T3TWOCWQ9WA9LXINIYKILSS","A3CCFD0700KTPV","3A3KKYU7P33Z3BR9PPFZ5194ZCQMWU","","647.3000000000466","img/animal2.png","76","648.6999999999534","3","1","2","1,0.5,0,0,1,0.5,0.5,0,1",""
"","html-keyboard-response","179","157727","0.0-179.0","31HQ4X3T3TWOCWQ9WA9LXINIYKILSS","A3CCFD0700KTPV","3A3KKYU7P33Z3BR9PPFZ5194ZCQMWU","","null","<img src=""img/animal2.png"" style=""width:200px; border:14px solid green;"">","null","","","","","",""
"","image-keyboard-response","180","158704","0.0-180.0","31HQ4X3T3TWOCWQ9WA9LXINIYKILSS","A3CCFD0700KTPV","3A3KKYU7P33Z3BR9PPFZ5194ZCQMWU","","975.3999999999069","img/animal4.png","76","976.5","3","1","3","1,0.5,0,0,1,0.5,0.5,0,1",""
"","html-keyboard-response","181","159006","0.0-181.0","31HQ4X3T3TWOCWQ9WA9LXINIYKILSS","A3CCFD0700KTPV","3A3KKYU7P33Z3BR9PPFZ5194ZCQMWU","","null","<img src=""img/animal4.png"" style=""width:200px; border:14px solid green;"">","null","","","","","",""
"","html-keyboard-response","182","164148","0.0-182.0","31HQ4X3T3TWOCWQ9WA9LXINIYKILSS","A3CCFD0700KTPV","3A3KKYU7P33Z3BR9PPFZ5194ZCQMWU","","","","","","","","","",""
"","image-keyboard-response","183","166568","0.0-183.0","31HQ4X3T3TWOCWQ9WA9LXINIYKILSS","A3CCFD0700KTPV","3A3KKYU7P33Z3BR9PPFZ5194ZCQMWU","","2418.8000000000466","img/animal3.png","74","2420.0999999998603","1","1","1","1,0.5,0,1,0,0.5,0.5,0,1",""
"","html-keyboard-response","184","166870","0.0-184.0","31HQ4X3T3TWOCWQ9WA9LXINIYKILSS","A3CCFD0700KTPV","3A3KKYU7P33Z3BR9PPFZ5194ZCQMWU","","null","<img src=""img/animal3.png"" style=""width:200px; border:14px solid green;"">","null","","","","","",""
"","image-keyboard-response","185","167760","0.0-185.0","31HQ4X3T3TWOCWQ9WA9LXINIYKILSS","A3CCFD0700KTPV","3A3KKYU7P33Z3BR9PPFZ5194ZCQMWU","","888.5","img/animal3.png","74","889.9000000001397","1","1","1","1,0.5,0,1,0,0.5,0.5,0,1",""
"","html-keyboard-response","186","168062","0.0-186.0","31HQ4X3T3TWOCWQ9WA9LXINIYKILSS","A3CCFD0700KTPV","3A3KKYU7P33Z3BR9PPFZ5194ZCQMWU","","null","<img src=""img/animal3.png"" style=""width:200px; border:14px solid green;"">","null","","","","","",""
"","image-keyboard-response","187","168816","0.0-187.0","31HQ4X3T3TWOCWQ9WA9LXINIYKILSS","A3CCFD0700KTPV","3A3KKYU7P33Z3BR9PPFZ5194ZCQMWU","","752.3000000000466","img/animal6.png","75","753.5999999998603","2","0","3","1,0.5,0,1,0,0.5,0.5,0,1",""
"","html-keyboard-response","188","169119","0.0-188.0","31HQ4X3T3TWOCWQ9WA9LXINIYKILSS","A3CCFD0700KTPV","3A3KKYU7P33Z3BR9PPFZ5194ZCQMWU","","null","<img src=""img/animal6.png"" style=""width:200px;border:14px solid red;"">","null","","","","","",""
"","image-keyboard-response","189","170208","0.0-189.0","31HQ4X3T3TWOCWQ9WA9LXINIYKILSS","A3CCFD0700KTPV","3A3KKYU7P33Z3BR9PPFZ5194ZCQMWU","","1087.7999999998137","img/animal6.png","74","1089.5","1","0","3","1,0.5,0,1,0,0.5,0.5,0,1",""
"","html-keyboard-response","190","170511","0.0-190.0","31HQ4X3T3TWOCWQ9WA9LXINIYKILSS","A3CCFD0700KTPV","3A3KKYU7P33Z3BR9PPFZ5194ZCQMWU","","null","<img src=""img/animal6.png"" style=""width:200px;border:14px solid red;"">","null","","","","","",""
"","image-keyboard-response","191","171385","0.0-191.0","31HQ4X3T3TWOCWQ9WA9LXINIYKILSS","A3CCFD0700KTPV","3A3KKYU7P33Z3BR9PPFZ5194ZCQMWU","","871.1999999999534","img/animal3.png","74","872.8000000000466","1","1","1","1,0.5,0,1,0,0.5,0.5,0,1",""
"","html-keyboard-response","192","171686","0.0-192.0","31HQ4X3T3TWOCWQ9WA9LXINIYKILSS","A3CCFD0700KTPV","3A3KKYU7P33Z3BR9PPFZ5194ZCQMWU","","null","<img src=""img/animal3.png"" style=""width:200px; border:14px solid green;"">","null","","","","","",""
"","image-keyboard-response","193","172168","0.0-193.0","31HQ4X3T3TWOCWQ9WA9LXINIYKILSS","A3CCFD0700KTPV","3A3KKYU7P33Z3BR9PPFZ5194ZCQMWU","","480","img/animal3.png","74","481.30000000004657","1","1","1","1,0.5,0,1,0,0.5,0.5,0,1",""
"","html-keyboard-response","194","172470","0.0-194.0","31HQ4X3T3TWOCWQ9WA9LXINIYKILSS","A3CCFD0700KTPV","3A3KKYU7P33Z3BR9PPFZ5194ZCQMWU","","null","<img src=""img/animal3.png"" style=""width:200px; border:14px solid green;"">","null","","","","","",""
"","image-keyboard-response","195","173632","0.0-195.0","31HQ4X3T3TWOCWQ9WA9LXINIYKILSS","A3CCFD0700KTPV","3A3KKYU7P33Z3BR9PPFZ5194ZCQMWU","","1160.1999999999534","img/animal1.png","76","1161.3999999999069","3","1","2","1,0.5,0,1,0,0.5,0.5,0,1",""
"","html-keyboard-response","196","173933","0.0-196.0","31HQ4X3T3TWOCWQ9WA9LXINIYKILSS","A3CCFD0700KTPV","3A3KKYU7P33Z3BR9PPFZ5194ZCQMWU","","null","<img src=""img/animal1.png"" style=""width:200px; border:14px solid green;"">","null","","","","","",""
"","image-keyboard-response","197","174408","0.0-197.0","31HQ4X3T3TWOCWQ9WA9LXINIYKILSS","A3CCFD0700KTPV","3A3KKYU7P33Z3BR9PPFZ5194ZCQMWU","","473.10000000009313","img/animal1.png","76","474.0999999998603","3","1","2","1,0.5,0,1,0,0.5,0.5,0,1",""
"","html-keyboard-response","198","174709","0.0-198.0","31HQ4X3T3TWOCWQ9WA9LXINIYKILSS","A3CCFD0700KTPV","3A3KKYU7P33Z3BR9PPFZ5194ZCQMWU","","null","<img src=""img/animal1.png"" style=""width:200px; border:14px solid green;"">","null","","","","","",""
"","image-keyboard-response","199","175664","0.0-199.0","31HQ4X3T3TWOCWQ9WA9LXINIYKILSS","A3CCFD0700KTPV","3A3KKYU7P33Z3BR9PPFZ5194ZCQMWU","","953.4000000001397","img/animal3.png","74","954.3999999999069","1","1","1","1,0.5,0,1,0,0.5,0.5,0,1",""
"","html-keyboard-response","200","175968","0.0-200.0","31HQ4X3T3TWOCWQ9WA9LXINIYKILSS","A3CCFD0700KTPV","3A3KKYU7P33Z3BR9PPFZ5194ZCQMWU","","null","<img src=""img/animal3.png"" style=""width:200px; border:14px solid green;"">","null","","","","","",""
"","image-keyboard-response","201","176544","0.0-201.0","31HQ4X3T3TWOCWQ9WA9LXINIYKILSS","A3CCFD0700KTPV","3A3KKYU7P33Z3BR9PPFZ5194ZCQMWU","","574.6999999999534","img/animal1.png","76","576.1999999999534","3","1","2","1,0.5,0,1,0,0.5,0.5,0,1",""
"","html-keyboard-response","202","176848","0.0-202.0","31HQ4X3T3TWOCWQ9WA9LXINIYKILSS","A3CCFD0700KTPV","3A3KKYU7P33Z3BR9PPFZ5194ZCQMWU","","null","<img src=""img/animal1.png"" style=""width:200px; border:14px solid green;"">","null","","","","","",""
"","image-keyboard-response","203","177361","0.0-203.0","31HQ4X3T3TWOCWQ9WA9LXINIYKILSS","A3CCFD0700KTPV","3A3KKYU7P33Z3BR9PPFZ5194ZCQMWU","","510.9000000001397","img/animal1.png","76","512.3999999999069","3","1","2","1,0.5,0,1,0,0.5,0.5,0,1",""
"","html-keyboard-response","204","177664","0.0-204.0","31HQ4X3T3TWOCWQ9WA9LXINIYKILSS","A3CCFD0700KTPV","3A3KKYU7P33Z3BR9PPFZ5194ZCQMWU","","null","<img src=""img/animal1.png"" style=""width:200px; border:14px solid green;"">","null","","","","","",""
"","image-keyboard-response","205","178433","0.0-205.0","31HQ4X3T3TWOCWQ9WA9LXINIYKILSS","A3CCFD0700KTPV","3A3KKYU7P33Z3BR9PPFZ5194ZCQMWU","","766.3000000000466","img/animal6.png","75","767.8000000000466","2","0","3","1,0.5,0,1,0,0.5,0.5,0,1",""
"","html-keyboard-response","206","178735","0.0-206.0","31HQ4X3T3TWOCWQ9WA9LXINIYKILSS","A3CCFD0700KTPV","3A3KKYU7P33Z3BR9PPFZ5194ZCQMWU","","null","<img src=""img/animal6.png"" style=""width:200px;border:14px solid red;"">","null","","","","","",""
"","image-keyboard-response","207","179368","0.0-207.0","31HQ4X3T3TWOCWQ9WA9LXINIYKILSS","A3CCFD0700KTPV","3A3KKYU7P33Z3BR9PPFZ5194ZCQMWU","","631.5999999998603","img/animal6.png","76","632.7000000001863","3","1","3","1,0.5,0,1,0,0.5,0.5,0,1",""
"","html-keyboard-response","208","179670","0.0-208.0","31HQ4X3T3TWOCWQ9WA9LXINIYKILSS","A3CCFD0700KTPV","3A3KKYU7P33Z3BR9PPFZ5194ZCQMWU","","null","<img src=""img/animal6.png"" style=""width:200px; border:14px solid green;"">","null","","","","","",""
"","image-keyboard-response","209","180297","0.0-209.0","31HQ4X3T3TWOCWQ9WA9LXINIYKILSS","A3CCFD0700KTPV","3A3KKYU7P33Z3BR9PPFZ5194ZCQMWU","","625.4000000001397","img/animal6.png","76","626.6999999999534","3","1","3","1,0.5,0,1,0,0.5,0.5,0,1",""
"","html-keyboard-response","210","180600","0.0-210.0","31HQ4X3T3TWOCWQ9WA9LXINIYKILSS","A3CCFD0700KTPV","3A3KKYU7P33Z3BR9PPFZ5194ZCQMWU","","null","<img src=""img/animal6.png"" style=""width:200px; border:14px solid green;"">","null","","","","","",""
"","image-keyboard-response","211","181121","0.0-211.0","31HQ4X3T3TWOCWQ9WA9LXINIYKILSS","A3CCFD0700KTPV","3A3KKYU7P33Z3BR9PPFZ5194ZCQMWU","","520.1000000000931","img/animal6.png","76","521.3000000000466","3","1","3","1,0.5,0,1,0,0.5,0.5,0,1",""
"","html-keyboard-response","212","181423","0.0-212.0","31HQ4X3T3TWOCWQ9WA9LXINIYKILSS","A3CCFD0700KTPV","3A3KKYU7P33Z3BR9PPFZ5194ZCQMWU","","null","<img src=""img/animal6.png"" style=""width:200px; border:14px solid green;"">","null","","","","","",""
"","image-keyboard-response","213","182378","0.0-213.0","31HQ4X3T3TWOCWQ9WA9LXINIYKILSS","A3CCFD0700KTPV","3A3KKYU7P33Z3BR9PPFZ5194ZCQMWU","","953.3999999999069","img/animal1.png","74","954.6999999999534","1","1","2","1,0.5,0,1,0,0.5,0.5,0,1",""
"","html-keyboard-response","214","182687","0.0-214.0","31HQ4X3T3TWOCWQ9WA9LXINIYKILSS","A3CCFD0700KTPV","3A3KKYU7P33Z3BR9PPFZ5194ZCQMWU","","null","<img src=""img/animal1.png"" style=""width:200px; border:14px solid green;"">","null","","","","","",""
"","image-keyboard-response","215","183466","0.0-215.0","31HQ4X3T3TWOCWQ9WA9LXINIYKILSS","A3CCFD0700KTPV","3A3KKYU7P33Z3BR9PPFZ5194ZCQMWU","","776.7000000001863","img/animal6.png","76","778.5999999998603","3","1","3","1,0.5,0,1,0,0.5,0.5,0,1",""
"","html-keyboard-response","216","183769","0.0-216.0","31HQ4X3T3TWOCWQ9WA9LXINIYKILSS","A3CCFD0700KTPV","3A3KKYU7P33Z3BR9PPFZ5194ZCQMWU","","null","<img src=""img/animal6.png"" style=""width:200px; border:14px solid green;"">","null","","","","","",""
"","image-keyboard-response","217","184305","0.0-217.0","31HQ4X3T3TWOCWQ9WA9LXINIYKILSS","A3CCFD0700KTPV","3A3KKYU7P33Z3BR9PPFZ5194ZCQMWU","","534.1999999999534","img/animal6.png","76","535.6000000000931","3","1","3","1,0.5,0,1,0,0.5,0.5,0,1",""
"","html-keyboard-response","218","184607","0.0-218.0","31HQ4X3T3TWOCWQ9WA9LXINIYKILSS","A3CCFD0700KTPV","3A3KKYU7P33Z3BR9PPFZ5194ZCQMWU","","null","<img src=""img/animal6.png"" style=""width:200px; border:14px solid green;"">","null","","","","","",""
"","image-keyboard-response","219","185177","0.0-219.0","31HQ4X3T3TWOCWQ9WA9LXINIYKILSS","A3CCFD0700KTPV","3A3KKYU7P33Z3BR9PPFZ5194ZCQMWU","","568.8000000000466","img/animal1.png","74","570.1999999999534","1","1","2","1,0.5,0,1,0,0.5,0.5,0,1",""
"","html-keyboard-response","220","185481","0.0-220.0","31HQ4X3T3TWOCWQ9WA9LXINIYKILSS","A3CCFD0700KTPV","3A3KKYU7P33Z3BR9PPFZ5194ZCQMWU","","null","<img src=""img/animal1.png"" style=""width:200px; border:14px solid green;"">","null","","","","","",""
"","image-keyboard-response","221","186681","0.0-221.0","31HQ4X3T3TWOCWQ9WA9LXINIYKILSS","A3CCFD0700KTPV","3A3KKYU7P33Z3BR9PPFZ5194ZCQMWU","","1198.9000000001397","img/animal3.png","74","1200.3000000000466","1","1","1","1,0.5,0,1,0,0.5,0.5,0,1",""
"","html-keyboard-response","222","186984","0.0-222.0","31HQ4X3T3TWOCWQ9WA9LXINIYKILSS","A3CCFD0700KTPV","3A3KKYU7P33Z3BR9PPFZ5194ZCQMWU","","null","<img src=""img/animal3.png"" style=""width:200px; border:14px solid green;"">","null","","","","","",""
"","image-keyboard-response","223","187473","0.0-223.0","31HQ4X3T3TWOCWQ9WA9LXINIYKILSS","A3CCFD0700KTPV","3A3KKYU7P33Z3BR9PPFZ5194ZCQMWU","","487.19999999995343","img/animal3.png","74","488.5","1","1","1","1,0.5,0,1,0,0.5,0.5,0,1",""
"","html-keyboard-response","224","187775","0.0-224.0","31HQ4X3T3TWOCWQ9WA9LXINIYKILSS","A3CCFD0700KTPV","3A3KKYU7P33Z3BR9PPFZ5194ZCQMWU","","null","<img src=""img/animal3.png"" style=""width:200px; border:14px solid green;"">","null","","","","","",""
"","image-keyboard-response","225","188849","0.0-225.0","31HQ4X3T3TWOCWQ9WA9LXINIYKILSS","A3CCFD0700KTPV","3A3KKYU7P33Z3BR9PPFZ5194ZCQMWU","","1072.5","img/animal1.png","74","1073.8000000000466","1","1","2","1,0.5,0,1,0,0.5,0.5,0,1",""
"","html-keyboard-response","226","189152","0.0-226.0","31HQ4X3T3TWOCWQ9WA9LXINIYKILSS","A3CCFD0700KTPV","3A3KKYU7P33Z3BR9PPFZ5194ZCQMWU","","null","<img src=""img/animal1.png"" style=""width:200px; border:14px solid green;"">","null","","","","","",""
"","image-keyboard-response","227","189761","0.0-227.0","31HQ4X3T3TWOCWQ9WA9LXINIYKILSS","A3CCFD0700KTPV","3A3KKYU7P33Z3BR9PPFZ5194ZCQMWU","","608.6999999999534","img/animal3.png","74","609.7000000001863","1","1","1","1,0.5,0,1,0,0.5,0.5,0,1",""
"","html-keyboard-response","228","190063","0.0-228.0","31HQ4X3T3TWOCWQ9WA9LXINIYKILSS","A3CCFD0700KTPV","3A3KKYU7P33Z3BR9PPFZ5194ZCQMWU","","null","<img src=""img/animal3.png"" style=""width:200px; border:14px solid green;"">","null","","","","","",""
"","image-keyboard-response","229","190534","0.0-229.0","31HQ4X3T3TWOCWQ9WA9LXINIYKILSS","A3CCFD0700KTPV","3A3KKYU7P33Z3BR9PPFZ5194ZCQMWU","","469.5999999998603","img/animal1.png","74","470.89999999990687","1","1","2","1,0.5,0,1,0,0.5,0.5,0,1",""
"","html-keyboard-response","230","190837","0.0-230.0","31HQ4X3T3TWOCWQ9WA9LXINIYKILSS","A3CCFD0700KTPV","3A3KKYU7P33Z3BR9PPFZ5194ZCQMWU","","null","<img src=""img/animal1.png"" style=""width:200px; border:14px solid green;"">","null","","","","","",""
"","image-keyboard-response","231","191369","0.0-231.0","31HQ4X3T3TWOCWQ9WA9LXINIYKILSS","A3CCFD0700KTPV","3A3KKYU7P33Z3BR9PPFZ5194ZCQMWU","","530.5","img/animal3.png","74","532","1","1","1","1,0.5,0,1,0,0.5,0.5,0,1",""
"","html-keyboard-response","232","191671","0.0-232.0","31HQ4X3T3TWOCWQ9WA9LXINIYKILSS","A3CCFD0700KTPV","3A3KKYU7P33Z3BR9PPFZ5194ZCQMWU","","null","<img src=""img/animal3.png"" style=""width:200px; border:14px solid green;"">","null","","","","","",""
"","image-keyboard-response","233","192129","0.0-233.0","31HQ4X3T3TWOCWQ9WA9LXINIYKILSS","A3CCFD0700KTPV","3A3KKYU7P33Z3BR9PPFZ5194ZCQMWU","","456","img/animal1.png","74","457.30000000004657","1","1","2","1,0.5,0,1,0,0.5,0.5,0,1",""
"","html-keyboard-response","234","192431","0.0-234.0","31HQ4X3T3TWOCWQ9WA9LXINIYKILSS","A3CCFD0700KTPV","3A3KKYU7P33Z3BR9PPFZ5194ZCQMWU","","null","<img src=""img/animal1.png"" style=""width:200px; border:14px solid green;"">","null","","","","","",""
"","image-keyboard-response","235","192872","0.0-235.0","31HQ4X3T3TWOCWQ9WA9LXINIYKILSS","A3CCFD0700KTPV","3A3KKYU7P33Z3BR9PPFZ5194ZCQMWU","","439.5","img/animal1.png","74","440.80000000004657","1","1","2","1,0.5,0,1,0,0.5,0.5,0,1",""
"","html-keyboard-response","236","193174","0.0-236.0","31HQ4X3T3TWOCWQ9WA9LXINIYKILSS","A3CCFD0700KTPV","3A3KKYU7P33Z3BR9PPFZ5194ZCQMWU","","null","<img src=""img/animal1.png"" style=""width:200px; border:14px solid green;"">","null","","","","","",""
"","image-keyboard-response","237","193697","0.0-237.0","31HQ4X3T3TWOCWQ9WA9LXINIYKILSS","A3CCFD0700KTPV","3A3KKYU7P33Z3BR9PPFZ5194ZCQMWU","","520.7999999998137","img/animal1.png","74","522.1000000000931","1","1","2","1,0.5,0,1,0,0.5,0.5,0,1",""
"","html-keyboard-response","238","194000","0.0-238.0","31HQ4X3T3TWOCWQ9WA9LXINIYKILSS","A3CCFD0700KTPV","3A3KKYU7P33Z3BR9PPFZ5194ZCQMWU","","null","<img src=""img/animal1.png"" style=""width:200px; border:14px solid green;"">","null","","","","","",""
"","image-keyboard-response","239","195490","0.0-239.0","31HQ4X3T3TWOCWQ9WA9LXINIYKILSS","A3CCFD0700KTPV","3A3KKYU7P33Z3BR9PPFZ5194ZCQMWU","","1488.1999999999534","img/animal3.png","74","1489.5","1","1","1","1,0.5,0,1,0,0.5,0.5,0,1",""
"","html-keyboard-response","240","195806","0.0-240.0","31HQ4X3T3TWOCWQ9WA9LXINIYKILSS","A3CCFD0700KTPV","3A3KKYU7P33Z3BR9PPFZ5194ZCQMWU","","null","<img src=""img/animal3.png"" style=""width:200px; border:14px solid green;"">","null","","","","","",""
"","image-keyboard-response","241","196265","0.0-241.0","31HQ4X3T3TWOCWQ9WA9LXINIYKILSS","A3CCFD0700KTPV","3A3KKYU7P33Z3BR9PPFZ5194ZCQMWU","","457.5","img/animal3.png","74","458.89999999990687","1","1","1","1,0.5,0,1,0,0.5,0.5,0,1",""
"","html-keyboard-response","242","196568","0.0-242.0","31HQ4X3T3TWOCWQ9WA9LXINIYKILSS","A3CCFD0700KTPV","3A3KKYU7P33Z3BR9PPFZ5194ZCQMWU","","null","<img src=""img/animal3.png"" style=""width:200px; border:14px solid green;"">","null","","","","","",""
"","image-keyboard-response","243","197786","0.0-243.0","31HQ4X3T3TWOCWQ9WA9LXINIYKILSS","A3CCFD0700KTPV","3A3KKYU7P33Z3BR9PPFZ5194ZCQMWU","","1216","img/animal1.png","74","1217.2000000001863","1","1","2","1,0.5,0,1,0,0.5,0.5,0,1",""
"","html-keyboard-response","244","198089","0.0-244.0","31HQ4X3T3TWOCWQ9WA9LXINIYKILSS","A3CCFD0700KTPV","3A3KKYU7P33Z3BR9PPFZ5194ZCQMWU","","null","<img src=""img/animal1.png"" style=""width:200px; border:14px solid green;"">","null","","","","","",""
"","image-keyboard-response","245","198689","0.0-245.0","31HQ4X3T3TWOCWQ9WA9LXINIYKILSS","A3CCFD0700KTPV","3A3KKYU7P33Z3BR9PPFZ5194ZCQMWU","","598.8000000000466","img/animal3.png","74","600.1999999999534","1","1","1","1,0.5,0,1,0,0.5,0.5,0,1",""
"","html-keyboard-response","246","198993","0.0-246.0","31HQ4X3T3TWOCWQ9WA9LXINIYKILSS","A3CCFD0700KTPV","3A3KKYU7P33Z3BR9PPFZ5194ZCQMWU","","null","<img src=""img/animal3.png"" style=""width:200px; border:14px solid green;"">","null","","","","","",""
"","image-keyboard-response","247","200009","0.0-247.0","31HQ4X3T3TWOCWQ9WA9LXINIYKILSS","A3CCFD0700KTPV","3A3KKYU7P33Z3BR9PPFZ5194ZCQMWU","","1014.8000000000466","img/animal6.png","75","1015.6999999999534","2","0","3","1,0.5,0,1,0,0.5,0.5,0,1",""
"","html-keyboard-response","248","200311","0.0-248.0","31HQ4X3T3TWOCWQ9WA9LXINIYKILSS","A3CCFD0700KTPV","3A3KKYU7P33Z3BR9PPFZ5194ZCQMWU","","null","<img src=""img/animal6.png"" style=""width:200px;border:14px solid red;"">","null","","","","","",""
"","image-keyboard-response","249","201153","0.0-249.0","31HQ4X3T3TWOCWQ9WA9LXINIYKILSS","A3CCFD0700KTPV","3A3KKYU7P33Z3BR9PPFZ5194ZCQMWU","","840.1000000000931","img/animal3.png","74","841.5","1","1","1","1,0.5,0,1,0,0.5,0.5,0,1",""
"","html-keyboard-response","250","201455","0.0-250.0","31HQ4X3T3TWOCWQ9WA9LXINIYKILSS","A3CCFD0700KTPV","3A3KKYU7P33Z3BR9PPFZ5194ZCQMWU","","null","<img src=""img/animal3.png"" style=""width:200px; border:14px solid green;"">","null","","","","","",""
"","image-keyboard-response","251","203489","0.0-251.0","31HQ4X3T3TWOCWQ9WA9LXINIYKILSS","A3CCFD0700KTPV","3A3KKYU7P33Z3BR9PPFZ5194ZCQMWU","","2033.1000000000931","img/animal1.png","75","2034.0999999998603","2","0","2","1,0.5,0,1,0,0.5,0.5,0,1",""
"","html-keyboard-response","252","203791","0.0-252.0","31HQ4X3T3TWOCWQ9WA9LXINIYKILSS","A3CCFD0700KTPV","3A3KKYU7P33Z3BR9PPFZ5194ZCQMWU","","null","<img src=""img/animal1.png"" style=""width:200px;border:14px solid red;"">","null","","","","","",""
"","image-keyboard-response","253","204914","0.0-253.0","31HQ4X3T3TWOCWQ9WA9LXINIYKILSS","A3CCFD0700KTPV","3A3KKYU7P33Z3BR9PPFZ5194ZCQMWU","","1121.8999999999069","img/animal6.png","75","1123","2","0","3","1,0.5,0,1,0,0.5,0.5,0,1",""
"","html-keyboard-response","254","205216","0.0-254.0","31HQ4X3T3TWOCWQ9WA9LXINIYKILSS","A3CCFD0700KTPV","3A3KKYU7P33Z3BR9PPFZ5194ZCQMWU","","null","<img src=""img/animal6.png"" style=""width:200px;border:14px solid red;"">","null","","","","","",""
"","image-keyboard-response","255","205898","0.0-255.0","31HQ4X3T3TWOCWQ9WA9LXINIYKILSS","A3CCFD0700KTPV","3A3KKYU7P33Z3BR9PPFZ5194ZCQMWU","","680.4000000001397","img/animal3.png","74","681.8999999999069","1","1","1","1,0.5,0,1,0,0.5,0.5,0,1",""
"","html-keyboard-response","256","206200","0.0-256.0","31HQ4X3T3TWOCWQ9WA9LXINIYKILSS","A3CCFD0700KTPV","3A3KKYU7P33Z3BR9PPFZ5194ZCQMWU","","null","<img src=""img/animal3.png"" style=""width:200px; border:14px solid green;"">","null","","","","","",""
"","image-keyboard-response","257","206818","0.0-257.0","31HQ4X3T3TWOCWQ9WA9LXINIYKILSS","A3CCFD0700KTPV","3A3KKYU7P33Z3BR9PPFZ5194ZCQMWU","","616.2999999998137","img/animal6.png","74","617.5999999998603","1","0","3","1,0.5,0,1,0,0.5,0.5,0,1",""
"","html-keyboard-response","258","207120","0.0-258.0","31HQ4X3T3TWOCWQ9WA9LXINIYKILSS","A3CCFD0700KTPV","3A3KKYU7P33Z3BR9PPFZ5194ZCQMWU","","null","<img src=""img/animal6.png"" style=""width:200px;border:14px solid red;"">","null","","","","","",""
"","image-keyboard-response","259","207746","0.0-259.0","31HQ4X3T3TWOCWQ9WA9LXINIYKILSS","A3CCFD0700KTPV","3A3KKYU7P33Z3BR9PPFZ5194ZCQMWU","","623.8000000000466","img/animal3.png","74","625.1999999999534","1","1","1","1,0.5,0,1,0,0.5,0.5,0,1",""
"","html-keyboard-response","260","208049","0.0-260.0","31HQ4X3T3TWOCWQ9WA9LXINIYKILSS","A3CCFD0700KTPV","3A3KKYU7P33Z3BR9PPFZ5194ZCQMWU","","null","<img src=""img/animal3.png"" style=""width:200px; border:14px solid green;"">","null","","","","","",""
"","image-keyboard-response","261","209313","0.0-261.0","31HQ4X3T3TWOCWQ9WA9LXINIYKILSS","A3CCFD0700KTPV","3A3KKYU7P33Z3BR9PPFZ5194ZCQMWU","","1262.3999999999069","img/animal6.png","76","1263.5","3","1","3","1,0.5,0,1,0,0.5,0.5,0,1",""
"","html-keyboard-response","262","209615","0.0-262.0","31HQ4X3T3TWOCWQ9WA9LXINIYKILSS","A3CCFD0700KTPV","3A3KKYU7P33Z3BR9PPFZ5194ZCQMWU","","null","<img src=""img/animal6.png"" style=""width:200px; border:14px solid green;"">","null","","","","","",""
"","image-keyboard-response","263","210530","0.0-263.0","31HQ4X3T3TWOCWQ9WA9LXINIYKILSS","A3CCFD0700KTPV","3A3KKYU7P33Z3BR9PPFZ5194ZCQMWU","","913.1999999999534","img/animal1.png","75","914.6000000000931","2","0","2","1,0.5,0,1,0,0.5,0.5,0,1",""
"","html-keyboard-response","264","210833","0.0-264.0","31HQ4X3T3TWOCWQ9WA9LXINIYKILSS","A3CCFD0700KTPV","3A3KKYU7P33Z3BR9PPFZ5194ZCQMWU","","null","<img src=""img/animal1.png"" style=""width:200px;border:14px solid red;"">","null","","","","","",""
"","image-keyboard-response","265","212114","0.0-265.0","31HQ4X3T3TWOCWQ9WA9LXINIYKILSS","A3CCFD0700KTPV","3A3KKYU7P33Z3BR9PPFZ5194ZCQMWU","","1279.9000000001397","img/animal1.png","74","1281.3999999999069","1","1","2","1,0.5,0,1,0,0.5,0.5,0,1",""
"","html-keyboard-response","266","212417","0.0-266.0","31HQ4X3T3TWOCWQ9WA9LXINIYKILSS","A3CCFD0700KTPV","3A3KKYU7P33Z3BR9PPFZ5194ZCQMWU","","null","<img src=""img/animal1.png"" style=""width:200px; border:14px solid green;"">","null","","","","","",""
"","image-keyboard-response","267","213266","0.0-267.0","31HQ4X3T3TWOCWQ9WA9LXINIYKILSS","A3CCFD0700KTPV","3A3KKYU7P33Z3BR9PPFZ5194ZCQMWU","","847.6000000000931","img/animal6.png","76","849","3","1","3","1,0.5,0,1,0,0.5,0.5,0,1",""
"","html-keyboard-response","268","213568","0.0-268.0","31HQ4X3T3TWOCWQ9WA9LXINIYKILSS","A3CCFD0700KTPV","3A3KKYU7P33Z3BR9PPFZ5194ZCQMWU","","null","<img src=""img/animal6.png"" style=""width:200px; border:14px solid green;"">","null","","","","","",""
"","image-keyboard-response","269","214146","0.0-269.0","31HQ4X3T3TWOCWQ9WA9LXINIYKILSS","A3CCFD0700KTPV","3A3KKYU7P33Z3BR9PPFZ5194ZCQMWU","","576.8000000000466","img/animal6.png","76","578.0999999998603","3","1","3","1,0.5,0,1,0,0.5,0.5,0,1",""
"","html-keyboard-response","270","214448","0.0-270.0","31HQ4X3T3TWOCWQ9WA9LXINIYKILSS","A3CCFD0700KTPV","3A3KKYU7P33Z3BR9PPFZ5194ZCQMWU","","null","<img src=""img/animal6.png"" style=""width:200px; border:14px solid green;"">","null","","","","","",""
"","image-keyboard-response","271","214994","0.0-271.0","31HQ4X3T3TWOCWQ9WA9LXINIYKILSS","A3CCFD0700KTPV","3A3KKYU7P33Z3BR9PPFZ5194ZCQMWU","","544.4000000001397","img/animal3.png","74","545.6999999999534","1","1","1","1,0.5,0,1,0,0.5,0.5,0,1",""
"","html-keyboard-response","272","215297","0.0-272.0","31HQ4X3T3TWOCWQ9WA9LXINIYKILSS","A3CCFD0700KTPV","3A3KKYU7P33Z3BR9PPFZ5194ZCQMWU","","null","<img src=""img/animal3.png"" style=""width:200px; border:14px solid green;"">","null","","","","","",""
"","image-keyboard-response","273","215770","0.0-273.0","31HQ4X3T3TWOCWQ9WA9LXINIYKILSS","A3CCFD0700KTPV","3A3KKYU7P33Z3BR9PPFZ5194ZCQMWU","","471.60000000009313","img/animal3.png","74","472.80000000004657","1","1","1","1,0.5,0,1,0,0.5,0.5,0,1",""
"","html-keyboard-response","274","216072","0.0-274.0","31HQ4X3T3TWOCWQ9WA9LXINIYKILSS","A3CCFD0700KTPV","3A3KKYU7P33Z3BR9PPFZ5194ZCQMWU","","null","<img src=""img/animal3.png"" style=""width:200px; border:14px solid green;"">","null","","","","","",""
"","image-keyboard-response","275","216938","0.0-275.0","31HQ4X3T3TWOCWQ9WA9LXINIYKILSS","A3CCFD0700KTPV","3A3KKYU7P33Z3BR9PPFZ5194ZCQMWU","","864.1000000000931","img/animal6.png","76","865.8000000000466","3","1","3","1,0.5,0,1,0,0.5,0.5,0,1",""
"","html-keyboard-response","276","217241","0.0-276.0","31HQ4X3T3TWOCWQ9WA9LXINIYKILSS","A3CCFD0700KTPV","3A3KKYU7P33Z3BR9PPFZ5194ZCQMWU","","null","<img src=""img/animal6.png"" style=""width:200px; border:14px solid green;"">","null","","","","","",""
"","image-keyboard-response","277","218682","0.0-277.0","31HQ4X3T3TWOCWQ9WA9LXINIYKILSS","A3CCFD0700KTPV","3A3KKYU7P33Z3BR9PPFZ5194ZCQMWU","","1439.8999999999069","img/animal1.png","74","1441.0999999998603","1","1","2","1,0.5,0,1,0,0.5,0.5,0,1",""
"","html-keyboard-response","278","218985","0.0-278.0","31HQ4X3T3TWOCWQ9WA9LXINIYKILSS","A3CCFD0700KTPV","3A3KKYU7P33Z3BR9PPFZ5194ZCQMWU","","null","<img src=""img/animal1.png"" style=""width:200px; border:14px solid green;"">","null","","","","","",""
"","image-keyboard-response","279","219794","0.0-279.0","31HQ4X3T3TWOCWQ9WA9LXINIYKILSS","A3CCFD0700KTPV","3A3KKYU7P33Z3BR9PPFZ5194ZCQMWU","","807.3000000000466","img/animal3.png","74","808.6000000000931","1","1","1","1,0.5,0,1,0,0.5,0.5,0,1",""
"","html-keyboard-response","280","220096","0.0-280.0","31HQ4X3T3TWOCWQ9WA9LXINIYKILSS","A3CCFD0700KTPV","3A3KKYU7P33Z3BR9PPFZ5194ZCQMWU","","null","<img src=""img/animal3.png"" style=""width:200px; border:14px solid green;"">","null","","","","","",""
"","image-keyboard-response","281","220857","0.0-281.0","31HQ4X3T3TWOCWQ9WA9LXINIYKILSS","A3CCFD0700KTPV","3A3KKYU7P33Z3BR9PPFZ5194ZCQMWU","","759.3000000000466","img/animal6.png","76","760.5999999998603","3","1","3","1,0.5,0,1,0,0.5,0.5,0,1",""
"","html-keyboard-response","282","221160","0.0-282.0","31HQ4X3T3TWOCWQ9WA9LXINIYKILSS","A3CCFD0700KTPV","3A3KKYU7P33Z3BR9PPFZ5194ZCQMWU","","null","<img src=""img/animal6.png"" style=""width:200px; border:14px solid green;"">","null","","","","","",""
"","image-keyboard-response","283","221770","0.0-283.0","31HQ4X3T3TWOCWQ9WA9LXINIYKILSS","A3CCFD0700KTPV","3A3KKYU7P33Z3BR9PPFZ5194ZCQMWU","","608.7000000001863","img/animal6.png","76","610.1999999999534","3","1","3","1,0.5,0,1,0,0.5,0.5,0,1",""
"","html-keyboard-response","284","222073","0.0-284.0","31HQ4X3T3TWOCWQ9WA9LXINIYKILSS","A3CCFD0700KTPV","3A3KKYU7P33Z3BR9PPFZ5194ZCQMWU","","null","<img src=""img/animal6.png"" style=""width:200px; border:14px solid green;"">","null","","","","","",""
"","image-keyboard-response","285","222610","0.0-285.0","31HQ4X3T3TWOCWQ9WA9LXINIYKILSS","A3CCFD0700KTPV","3A3KKYU7P33Z3BR9PPFZ5194ZCQMWU","","535.3000000000466","img/animal1.png","74","536.6000000000931","1","1","2","1,0.5,0,1,0,0.5,0.5,0,1",""
"","html-keyboard-response","286","222912","0.0-286.0","31HQ4X3T3TWOCWQ9WA9LXINIYKILSS","A3CCFD0700KTPV","3A3KKYU7P33Z3BR9PPFZ5194ZCQMWU","","null","<img src=""img/animal1.png"" style=""width:200px; border:14px solid green;"">","null","","","","","",""
"","image-keyboard-response","287","223802","0.0-287.0","31HQ4X3T3TWOCWQ9WA9LXINIYKILSS","A3CCFD0700KTPV","3A3KKYU7P33Z3BR9PPFZ5194ZCQMWU","","888.5","img/animal3.png","74","889.6999999999534","1","1","1","1,0.5,0,1,0,0.5,0.5,0,1",""
"","html-keyboard-response","288","224104","0.0-288.0","31HQ4X3T3TWOCWQ9WA9LXINIYKILSS","A3CCFD0700KTPV","3A3KKYU7P33Z3BR9PPFZ5194ZCQMWU","","null","<img src=""img/animal3.png"" style=""width:200px; border:14px solid green;"">","null","","","","","",""
"","image-keyboard-response","289","224697","0.0-289.0","31HQ4X3T3TWOCWQ9WA9LXINIYKILSS","A3CCFD0700KTPV","3A3KKYU7P33Z3BR9PPFZ5194ZCQMWU","","591.3999999999069","img/animal6.png","74","592.6999999999534","1","1","3","1,0.5,0,1,0,0.5,0.5,0,1",""
"","html-keyboard-response","290","224999","0.0-290.0","31HQ4X3T3TWOCWQ9WA9LXINIYKILSS","A3CCFD0700KTPV","3A3KKYU7P33Z3BR9PPFZ5194ZCQMWU","","null","<img src=""img/animal6.png"" style=""width:200px; border:14px solid green;"">","null","","","","","",""
"","image-keyboard-response","291","226705","0.0-291.0","31HQ4X3T3TWOCWQ9WA9LXINIYKILSS","A3CCFD0700KTPV","3A3KKYU7P33Z3BR9PPFZ5194ZCQMWU","","1705.1000000000931","img/animal1.png","74","1706.3000000000466","1","1","2","1,0.5,0,1,0,0.5,0.5,0,1",""
"","html-keyboard-response","292","227008","0.0-292.0","31HQ4X3T3TWOCWQ9WA9LXINIYKILSS","A3CCFD0700KTPV","3A3KKYU7P33Z3BR9PPFZ5194ZCQMWU","","null","<img src=""img/animal1.png"" style=""width:200px; border:14px solid green;"">","null","","","","","",""
"","image-keyboard-response","293","229154","0.0-293.0","31HQ4X3T3TWOCWQ9WA9LXINIYKILSS","A3CCFD0700KTPV","3A3KKYU7P33Z3BR9PPFZ5194ZCQMWU","","2144.399999999907","img/animal6.png","74","2145.600000000093","1","0","3","1,0.5,0,1,0,0.5,0.5,0,1",""
"","html-keyboard-response","294","229458","0.0-294.0","31HQ4X3T3TWOCWQ9WA9LXINIYKILSS","A3CCFD0700KTPV","3A3KKYU7P33Z3BR9PPFZ5194ZCQMWU","","null","<img src=""img/animal6.png"" style=""width:200px;border:14px solid red;"">","null","","","","","",""
"","image-keyboard-response","295","230146","0.0-295.0","31HQ4X3T3TWOCWQ9WA9LXINIYKILSS","A3CCFD0700KTPV","3A3KKYU7P33Z3BR9PPFZ5194ZCQMWU","","687.1999999999534","img/animal1.png","74","688.3000000000466","1","1","2","1,0.5,0,1,0,0.5,0.5,0,1",""
"","html-keyboard-response","296","230448","0.0-296.0","31HQ4X3T3TWOCWQ9WA9LXINIYKILSS","A3CCFD0700KTPV","3A3KKYU7P33Z3BR9PPFZ5194ZCQMWU","","null","<img src=""img/animal1.png"" style=""width:200px; border:14px solid green;"">","null","","","","","",""
"","image-keyboard-response","297","231051","0.0-297.0","31HQ4X3T3TWOCWQ9WA9LXINIYKILSS","A3CCFD0700KTPV","3A3KKYU7P33Z3BR9PPFZ5194ZCQMWU","","601.5","img/animal3.png","74","602.6999999999534","1","1","1","1,0.5,0,1,0,0.5,0.5,0,1",""
"","html-keyboard-response","298","231353","0.0-298.0","31HQ4X3T3TWOCWQ9WA9LXINIYKILSS","A3CCFD0700KTPV","3A3KKYU7P33Z3BR9PPFZ5194ZCQMWU","","null","<img src=""img/animal3.png"" style=""width:200px; border:14px solid green;"">","null","","","","","",""
"","image-keyboard-response","299","232066","0.0-299.0","31HQ4X3T3TWOCWQ9WA9LXINIYKILSS","A3CCFD0700KTPV","3A3KKYU7P33Z3BR9PPFZ5194ZCQMWU","","711.1999999999534","img/animal6.png","76","712.7000000001863","3","1","3","1,0.5,0,1,0,0.5,0.5,0,1",""
"","html-keyboard-response","300","232369","0.0-300.0","31HQ4X3T3TWOCWQ9WA9LXINIYKILSS","A3CCFD0700KTPV","3A3KKYU7P33Z3BR9PPFZ5194ZCQMWU","","null","<img src=""img/animal6.png"" style=""width:200px; border:14px solid green;"">","null","","","","","",""
"","image-keyboard-response","301","232961","0.0-301.0","31HQ4X3T3TWOCWQ9WA9LXINIYKILSS","A3CCFD0700KTPV","3A3KKYU7P33Z3BR9PPFZ5194ZCQMWU","","590.9000000001397","img/animal1.png","74","592","1","1","2","1,0.5,0,1,0,0.5,0.5,0,1",""
"","html-keyboard-response","302","233264","0.0-302.0","31HQ4X3T3TWOCWQ9WA9LXINIYKILSS","A3CCFD0700KTPV","3A3KKYU7P33Z3BR9PPFZ5194ZCQMWU","","null","<img src=""img/animal1.png"" style=""width:200px; border:14px solid green;"">","null","","","","","",""
"","image-keyboard-response","303","233818","0.0-303.0","31HQ4X3T3TWOCWQ9WA9LXINIYKILSS","A3CCFD0700KTPV","3A3KKYU7P33Z3BR9PPFZ5194ZCQMWU","","553","img/animal1.png","74","554.1999999999534","1","1","2","1,0.5,0,1,0,0.5,0.5,0,1",""
"","html-keyboard-response","304","234122","0.0-304.0","31HQ4X3T3TWOCWQ9WA9LXINIYKILSS","A3CCFD0700KTPV","3A3KKYU7P33Z3BR9PPFZ5194ZCQMWU","","null","<img src=""img/animal1.png"" style=""width:200px; border:14px solid green;"">","null","","","","","",""
"","image-keyboard-response","305","234698","0.0-305.0","31HQ4X3T3TWOCWQ9WA9LXINIYKILSS","A3CCFD0700KTPV","3A3KKYU7P33Z3BR9PPFZ5194ZCQMWU","","573.5","img/animal1.png","74","574.9000000001397","1","1","2","1,0.5,0,1,0,0.5,0.5,0,1",""
"","html-keyboard-response","306","234999","0.0-306.0","31HQ4X3T3TWOCWQ9WA9LXINIYKILSS","A3CCFD0700KTPV","3A3KKYU7P33Z3BR9PPFZ5194ZCQMWU","","null","<img src=""img/animal1.png"" style=""width:200px; border:14px solid green;"">","null","","","","","",""
"","image-keyboard-response","307","235722","0.0-307.0","31HQ4X3T3TWOCWQ9WA9LXINIYKILSS","A3CCFD0700KTPV","3A3KKYU7P33Z3BR9PPFZ5194ZCQMWU","","722.5","img/animal6.png","76","723.8000000000466","3","1","3","1,0.5,0,1,0,0.5,0.5,0,1",""
"","html-keyboard-response","308","236025","0.0-308.0","31HQ4X3T3TWOCWQ9WA9LXINIYKILSS","A3CCFD0700KTPV","3A3KKYU7P33Z3BR9PPFZ5194ZCQMWU","","null","<img src=""img/animal6.png"" style=""width:200px; border:14px solid green;"">","null","","","","","",""
"","image-keyboard-response","309","236914","0.0-309.0","31HQ4X3T3TWOCWQ9WA9LXINIYKILSS","A3CCFD0700KTPV","3A3KKYU7P33Z3BR9PPFZ5194ZCQMWU","","887.3000000000466","img/animal3.png","74","888.4000000001397","1","1","1","1,0.5,0,1,0,0.5,0.5,0,1",""
"","html-keyboard-response","310","237215","0.0-310.0","31HQ4X3T3TWOCWQ9WA9LXINIYKILSS","A3CCFD0700KTPV","3A3KKYU7P33Z3BR9PPFZ5194ZCQMWU","","null","<img src=""img/animal3.png"" style=""width:200px; border:14px solid green;"">","null","","","","","",""
"","image-keyboard-response","311","237673","0.0-311.0","31HQ4X3T3TWOCWQ9WA9LXINIYKILSS","A3CCFD0700KTPV","3A3KKYU7P33Z3BR9PPFZ5194ZCQMWU","","456.5","img/animal3.png","74","457.69999999995343","1","1","1","1,0.5,0,1,0,0.5,0.5,0,1",""
"","html-keyboard-response","312","237975","0.0-312.0","31HQ4X3T3TWOCWQ9WA9LXINIYKILSS","A3CCFD0700KTPV","3A3KKYU7P33Z3BR9PPFZ5194ZCQMWU","","null","<img src=""img/animal3.png"" style=""width:200px; border:14px solid green;"">","null","","","","","",""
"","image-keyboard-response","313","238858","0.0-313.0","31HQ4X3T3TWOCWQ9WA9LXINIYKILSS","A3CCFD0700KTPV","3A3KKYU7P33Z3BR9PPFZ5194ZCQMWU","","882","img/animal1.png","74","883.1999999999534","1","1","2","1,0.5,0,1,0,0.5,0.5,0,1",""
"","html-keyboard-response","314","239161","0.0-314.0","31HQ4X3T3TWOCWQ9WA9LXINIYKILSS","A3CCFD0700KTPV","3A3KKYU7P33Z3BR9PPFZ5194ZCQMWU","","null","<img src=""img/animal1.png"" style=""width:200px; border:14px solid green;"">","null","","","","","",""
"","image-keyboard-response","315","239715","0.0-315.0","31HQ4X3T3TWOCWQ9WA9LXINIYKILSS","A3CCFD0700KTPV","3A3KKYU7P33Z3BR9PPFZ5194ZCQMWU","","552.5","img/animal3.png","74","553.7000000001863","1","1","1","1,0.5,0,1,0,0.5,0.5,0,1",""
"","html-keyboard-response","316","240017","0.0-316.0","31HQ4X3T3TWOCWQ9WA9LXINIYKILSS","A3CCFD0700KTPV","3A3KKYU7P33Z3BR9PPFZ5194ZCQMWU","","null","<img src=""img/animal3.png"" style=""width:200px; border:14px solid green;"">","null","","","","","",""
"","image-keyboard-response","317","240777","0.0-317.0","31HQ4X3T3TWOCWQ9WA9LXINIYKILSS","A3CCFD0700KTPV","3A3KKYU7P33Z3BR9PPFZ5194ZCQMWU","","759","img/animal6.png","76","760","3","1","3","1,0.5,0,1,0,0.5,0.5,0,1",""
"","html-keyboard-response","318","241080","0.0-318.0","31HQ4X3T3TWOCWQ9WA9LXINIYKILSS","A3CCFD0700KTPV","3A3KKYU7P33Z3BR9PPFZ5194ZCQMWU","","null","<img src=""img/animal6.png"" style=""width:200px; border:14px solid green;"">","null","","","","","",""
"","image-keyboard-response","319","241650","0.0-319.0","31HQ4X3T3TWOCWQ9WA9LXINIYKILSS","A3CCFD0700KTPV","3A3KKYU7P33Z3BR9PPFZ5194ZCQMWU","","568.0999999998603","img/animal3.png","74","569.3000000000466","1","1","1","1,0.5,0,1,0,0.5,0.5,0,1",""
"","html-keyboard-response","320","241952","0.0-320.0","31HQ4X3T3TWOCWQ9WA9LXINIYKILSS","A3CCFD0700KTPV","3A3KKYU7P33Z3BR9PPFZ5194ZCQMWU","","null","<img src=""img/animal3.png"" style=""width:200px; border:14px solid green;"">","null","","","","","",""
"","image-keyboard-response","321","242426","0.0-321.0","31HQ4X3T3TWOCWQ9WA9LXINIYKILSS","A3CCFD0700KTPV","3A3KKYU7P33Z3BR9PPFZ5194ZCQMWU","","473.10000000009313","img/animal3.png","74","474.10000000009313","1","1","1","1,0.5,0,1,0,0.5,0.5,0,1",""
"","html-keyboard-response","322","242729","0.0-322.0","31HQ4X3T3TWOCWQ9WA9LXINIYKILSS","A3CCFD0700KTPV","3A3KKYU7P33Z3BR9PPFZ5194ZCQMWU","","null","<img src=""img/animal3.png"" style=""width:200px; border:14px solid green;"">","null","","","","","",""
"","image-keyboard-response","323","243210","0.0-323.0","31HQ4X3T3TWOCWQ9WA9LXINIYKILSS","A3CCFD0700KTPV","3A3KKYU7P33Z3BR9PPFZ5194ZCQMWU","","480.10000000009313","img/animal3.png","74","481.39999999990687","1","1","1","1,0.5,0,1,0,0.5,0.5,0,1",""
"","html-keyboard-response","324","243512","0.0-324.0","31HQ4X3T3TWOCWQ9WA9LXINIYKILSS","A3CCFD0700KTPV","3A3KKYU7P33Z3BR9PPFZ5194ZCQMWU","","null","<img src=""img/animal3.png"" style=""width:200px; border:14px solid green;"">","null","","","","","",""
"","image-keyboard-response","325","244033","0.0-325.0","31HQ4X3T3TWOCWQ9WA9LXINIYKILSS","A3CCFD0700KTPV","3A3KKYU7P33Z3BR9PPFZ5194ZCQMWU","","519.6999999999534","img/animal3.png","74","520.8999999999069","1","1","1","1,0.5,0,1,0,0.5,0.5,0,1",""
"","html-keyboard-response","326","244347","0.0-326.0","31HQ4X3T3TWOCWQ9WA9LXINIYKILSS","A3CCFD0700KTPV","3A3KKYU7P33Z3BR9PPFZ5194ZCQMWU","","null","<img src=""img/animal3.png"" style=""width:200px; border:14px solid green;"">","null","","","","","",""
"","image-keyboard-response","327","244922","0.0-327.0","31HQ4X3T3TWOCWQ9WA9LXINIYKILSS","A3CCFD0700KTPV","3A3KKYU7P33Z3BR9PPFZ5194ZCQMWU","","573.3000000000466","img/animal6.png","76","574.3999999999069","3","1","3","1,0.5,0,1,0,0.5,0.5,0,1",""
"","html-keyboard-response","328","245223","0.0-328.0","31HQ4X3T3TWOCWQ9WA9LXINIYKILSS","A3CCFD0700KTPV","3A3KKYU7P33Z3BR9PPFZ5194ZCQMWU","","null","<img src=""img/animal6.png"" style=""width:200px; border:14px solid green;"">","null","","","","","",""
"","image-keyboard-response","329","245619","0.0-329.0","31HQ4X3T3TWOCWQ9WA9LXINIYKILSS","A3CCFD0700KTPV","3A3KKYU7P33Z3BR9PPFZ5194ZCQMWU","","393.29999999981374","img/animal6.png","74","394.9000000001397","1","0","3","1,0.5,0,1,0,0.5,0.5,0,1",""
"","html-keyboard-response","330","245921","0.0-330.0","31HQ4X3T3TWOCWQ9WA9LXINIYKILSS","A3CCFD0700KTPV","3A3KKYU7P33Z3BR9PPFZ5194ZCQMWU","","null","<img src=""img/animal6.png"" style=""width:200px;border:14px solid red;"">","null","","","","","",""
"","image-keyboard-response","331","246737","0.0-331.0","31HQ4X3T3TWOCWQ9WA9LXINIYKILSS","A3CCFD0700KTPV","3A3KKYU7P33Z3BR9PPFZ5194ZCQMWU","","814.6000000000931","img/animal3.png","74","815.5999999998603","1","1","1","1,0.5,0,1,0,0.5,0.5,0,1",""
"","html-keyboard-response","332","247039","0.0-332.0","31HQ4X3T3TWOCWQ9WA9LXINIYKILSS","A3CCFD0700KTPV","3A3KKYU7P33Z3BR9PPFZ5194ZCQMWU","","null","<img src=""img/animal3.png"" style=""width:200px; border:14px solid green;"">","null","","","","","",""
"","image-keyboard-response","333","247739","0.0-333.0","31HQ4X3T3TWOCWQ9WA9LXINIYKILSS","A3CCFD0700KTPV","3A3KKYU7P33Z3BR9PPFZ5194ZCQMWU","","697.8000000000466","img/animal1.png","76","699.0999999998603","3","0","2","1,0.5,0,1,0,0.5,0.5,0,1",""
"","html-keyboard-response","334","248042","0.0-334.0","31HQ4X3T3TWOCWQ9WA9LXINIYKILSS","A3CCFD0700KTPV","3A3KKYU7P33Z3BR9PPFZ5194ZCQMWU","","null","<img src=""img/animal1.png"" style=""width:200px;border:14px solid red;"">","null","","","","","",""
"","image-keyboard-response","335","248515","0.0-335.0","31HQ4X3T3TWOCWQ9WA9LXINIYKILSS","A3CCFD0700KTPV","3A3KKYU7P33Z3BR9PPFZ5194ZCQMWU","","471.39999999990687","img/animal6.png","74","472.69999999995343","1","0","3","1,0.5,0,1,0,0.5,0.5,0,1",""
"","html-keyboard-response","336","248817","0.0-336.0","31HQ4X3T3TWOCWQ9WA9LXINIYKILSS","A3CCFD0700KTPV","3A3KKYU7P33Z3BR9PPFZ5194ZCQMWU","","null","<img src=""img/animal6.png"" style=""width:200px;border:14px solid red;"">","null","","","","","",""
"","image-keyboard-response","337","249771","0.0-337.0","31HQ4X3T3TWOCWQ9WA9LXINIYKILSS","A3CCFD0700KTPV","3A3KKYU7P33Z3BR9PPFZ5194ZCQMWU","","952.3999999999069","img/animal6.png","74","953.8999999999069","1","1","3","1,0.5,0,1,0,0.5,0.5,0,1",""
"","html-keyboard-response","338","250074","0.0-338.0","31HQ4X3T3TWOCWQ9WA9LXINIYKILSS","A3CCFD0700KTPV","3A3KKYU7P33Z3BR9PPFZ5194ZCQMWU","","null","<img src=""img/animal6.png"" style=""width:200px; border:14px solid green;"">","null","","","","","",""
"","image-keyboard-response","339","251843","0.0-339.0","31HQ4X3T3TWOCWQ9WA9LXINIYKILSS","A3CCFD0700KTPV","3A3KKYU7P33Z3BR9PPFZ5194ZCQMWU","","1767.5999999998603","img/animal1.png","74","1768.8000000000466","1","1","2","1,0.5,0,1,0,0.5,0.5,0,1",""
"","html-keyboard-response","340","252145","0.0-340.0","31HQ4X3T3TWOCWQ9WA9LXINIYKILSS","A3CCFD0700KTPV","3A3KKYU7P33Z3BR9PPFZ5194ZCQMWU","","null","<img src=""img/animal1.png"" style=""width:200px; border:14px solid green;"">","null","","","","","",""
"","image-keyboard-response","341","252730","0.0-341.0","31HQ4X3T3TWOCWQ9WA9LXINIYKILSS","A3CCFD0700KTPV","3A3KKYU7P33Z3BR9PPFZ5194ZCQMWU","","583.8999999999069","img/animal1.png","74","585.3000000000466","1","1","2","1,0.5,0,1,0,0.5,0.5,0,1",""
"","html-keyboard-response","342","253033","0.0-342.0","31HQ4X3T3TWOCWQ9WA9LXINIYKILSS","A3CCFD0700KTPV","3A3KKYU7P33Z3BR9PPFZ5194ZCQMWU","","null","<img src=""img/animal1.png"" style=""width:200px; border:14px solid green;"">","null","","","","","",""
"","image-keyboard-response","343","253786","0.0-343.0","31HQ4X3T3TWOCWQ9WA9LXINIYKILSS","A3CCFD0700KTPV","3A3KKYU7P33Z3BR9PPFZ5194ZCQMWU","","751.6999999999534","img/animal6.png","76","753.1000000000931","3","1","3","1,0.5,0,1,0,0.5,0.5,0,1",""
"","html-keyboard-response","344","254089","0.0-344.0","31HQ4X3T3TWOCWQ9WA9LXINIYKILSS","A3CCFD0700KTPV","3A3KKYU7P33Z3BR9PPFZ5194ZCQMWU","","null","<img src=""img/animal6.png"" style=""width:200px; border:14px solid green;"">","null","","","","","",""
"","image-keyboard-response","345","254635","0.0-345.0","31HQ4X3T3TWOCWQ9WA9LXINIYKILSS","A3CCFD0700KTPV","3A3KKYU7P33Z3BR9PPFZ5194ZCQMWU","","544.0999999998603","img/animal1.png","74","545.5","1","1","2","1,0.5,0,1,0,0.5,0.5,0,1",""
"","html-keyboard-response","346","254937","0.0-346.0","31HQ4X3T3TWOCWQ9WA9LXINIYKILSS","A3CCFD0700KTPV","3A3KKYU7P33Z3BR9PPFZ5194ZCQMWU","","null","<img src=""img/animal1.png"" style=""width:200px; border:14px solid green;"">","null","","","","","",""
"","image-keyboard-response","347","255699","0.0-347.0","31HQ4X3T3TWOCWQ9WA9LXINIYKILSS","A3CCFD0700KTPV","3A3KKYU7P33Z3BR9PPFZ5194ZCQMWU","","759.2000000001863","img/animal3.png","74","761.0999999998603","1","1","1","1,0.5,0,1,0,0.5,0.5,0,1",""
"","html-keyboard-response","348","256001","0.0-348.0","31HQ4X3T3TWOCWQ9WA9LXINIYKILSS","A3CCFD0700KTPV","3A3KKYU7P33Z3BR9PPFZ5194ZCQMWU","","null","<img src=""img/animal3.png"" style=""width:200px; border:14px solid green;"">","null","","","","","",""
"","image-keyboard-response","349","256443","0.0-349.0","31HQ4X3T3TWOCWQ9WA9LXINIYKILSS","A3CCFD0700KTPV","3A3KKYU7P33Z3BR9PPFZ5194ZCQMWU","","440.4000000001397","img/animal1.png","74","441.9000000001397","1","1","2","1,0.5,0,1,0,0.5,0.5,0,1",""
"","html-keyboard-response","350","256745","0.0-350.0","31HQ4X3T3TWOCWQ9WA9LXINIYKILSS","A3CCFD0700KTPV","3A3KKYU7P33Z3BR9PPFZ5194ZCQMWU","","null","<img src=""img/animal1.png"" style=""width:200px; border:14px solid green;"">","null","","","","","",""
"","image-keyboard-response","351","257203","0.0-351.0","31HQ4X3T3TWOCWQ9WA9LXINIYKILSS","A3CCFD0700KTPV","3A3KKYU7P33Z3BR9PPFZ5194ZCQMWU","","456.30000000004657","img/animal6.png","74","457.79999999981374","1","0","3","1,0.5,0,1,0,0.5,0.5,0,1",""
"","html-keyboard-response","352","257505","0.0-352.0","31HQ4X3T3TWOCWQ9WA9LXINIYKILSS","A3CCFD0700KTPV","3A3KKYU7P33Z3BR9PPFZ5194ZCQMWU","","null","<img src=""img/animal6.png"" style=""width:200px;border:14px solid red;"">","null","","","","","",""
"","image-keyboard-response","353","258363","0.0-353.0","31HQ4X3T3TWOCWQ9WA9LXINIYKILSS","A3CCFD0700KTPV","3A3KKYU7P33Z3BR9PPFZ5194ZCQMWU","","856.5","img/animal6.png","76","857.9000000001397","3","1","3","1,0.5,0,1,0,0.5,0.5,0,1",""
"","html-keyboard-response","354","258666","0.0-354.0","31HQ4X3T3TWOCWQ9WA9LXINIYKILSS","A3CCFD0700KTPV","3A3KKYU7P33Z3BR9PPFZ5194ZCQMWU","","null","<img src=""img/animal6.png"" style=""width:200px; border:14px solid green;"">","null","","","","","",""
"","image-keyboard-response","355","259283","0.0-355.0","31HQ4X3T3TWOCWQ9WA9LXINIYKILSS","A3CCFD0700KTPV","3A3KKYU7P33Z3BR9PPFZ5194ZCQMWU","","615","img/animal1.png","74","616.5","1","1","2","1,0.5,0,1,0,0.5,0.5,0,1",""
"","html-keyboard-response","356","259586","0.0-356.0","31HQ4X3T3TWOCWQ9WA9LXINIYKILSS","A3CCFD0700KTPV","3A3KKYU7P33Z3BR9PPFZ5194ZCQMWU","","null","<img src=""img/animal1.png"" style=""width:200px; border:14px solid green;"">","null","","","","","",""
"","image-keyboard-response","357","260011","0.0-357.0","31HQ4X3T3TWOCWQ9WA9LXINIYKILSS","A3CCFD0700KTPV","3A3KKYU7P33Z3BR9PPFZ5194ZCQMWU","","423.9000000001397","img/animal3.png","74","424.9000000001397","1","1","1","1,0.5,0,1,0,0.5,0.5,0,1",""
"","html-keyboard-response","358","260312","0.0-358.0","31HQ4X3T3TWOCWQ9WA9LXINIYKILSS","A3CCFD0700KTPV","3A3KKYU7P33Z3BR9PPFZ5194ZCQMWU","","null","<img src=""img/animal3.png"" style=""width:200px; border:14px solid green;"">","null","","","","","",""
"","image-keyboard-response","359","261051","0.0-359.0","31HQ4X3T3TWOCWQ9WA9LXINIYKILSS","A3CCFD0700KTPV","3A3KKYU7P33Z3BR9PPFZ5194ZCQMWU","","736.5","img/animal6.png","76","738.1000000000931","3","1","3","1,0.5,0,1,0,0.5,0.5,0,1",""
"","html-keyboard-response","360","261352","0.0-360.0","31HQ4X3T3TWOCWQ9WA9LXINIYKILSS","A3CCFD0700KTPV","3A3KKYU7P33Z3BR9PPFZ5194ZCQMWU","","null","<img src=""img/animal6.png"" style=""width:200px; border:14px solid green;"">","null","","","","","",""
"","image-keyboard-response","361","262131","0.0-361.0","31HQ4X3T3TWOCWQ9WA9LXINIYKILSS","A3CCFD0700KTPV","3A3KKYU7P33Z3BR9PPFZ5194ZCQMWU","","777","img/animal1.png","74","778","1","1","2","1,0.5,0,1,0,0.5,0.5,0,1",""
"","html-keyboard-response","362","262433","0.0-362.0","31HQ4X3T3TWOCWQ9WA9LXINIYKILSS","A3CCFD0700KTPV","3A3KKYU7P33Z3BR9PPFZ5194ZCQMWU","","null","<img src=""img/animal1.png"" style=""width:200px; border:14px solid green;"">","null","","","","","",""
"","instructions","363","268197","0.0-363.0","31HQ4X3T3TWOCWQ9WA9LXINIYKILSS","A3CCFD0700KTPV","3A3KKYU7P33Z3BR9PPFZ5194ZCQMWU","[{""page_index"":0,""viewing_time"":5762.40000000014}]","5762.699999999953","","","","","","","",""
"","survey-text","364","275520","0.0-364.0","31HQ4X3T3TWOCWQ9WA9LXINIYKILSS","A3CCFD0700KTPV","3A3KKYU7P33Z3BR9PPFZ5194ZCQMWU","","7319.40000000014","","","","","","","","{""Q0"":""A3CCFD0700KTPV""}"
