"success","trial_type","trial_index","time_elapsed","internal_node_id","assignmentID","mturkID","hitID","view_history","rt","stimulus","key_press","reactionTime","a","r","s","reward_cond","responses"
"true","fullscreen","0","4445","0.0-0.0","3JRJSWSMQI76M9V2P9LGCFPMWRY3EE","A3DW6KSQPG6GVQ","3TZDZ3Y0JSSRVQSC3SM97PDQ3Z7196","","","","","","","","","",""
"","instructions","1","74203","0.0-1.0","3JRJSWSMQI76M9V2P9LGCFPMWRY3EE","A3DW6KSQPG6GVQ","3TZDZ3Y0JSSRVQSC3SM97PDQ3Z7196","[{""page_index"":0,""viewing_time"":11746.399999999441},{""page_index"":1,""viewing_time"":7801.200000000186},{""page_index"":2,""viewing_time"":4387.799999999814},{""page_index"":3,""viewing_time"":2347.2999999998137},{""page_index"":4,""viewing_time"":3081.600000000559},{""page_index"":5,""viewing_time"":19388.39999999944},{""page_index"":6,""viewing_time"":16912},{""page_index"":7,""viewing_time"":4084.100000000559}]","69749.69999999925","","","","","","","",""
"","image-keyboard-response","2","77147","0.0-2.0","3JRJSWSMQI76M9V2P9LGCFPMWRY3EE","A3DW6KSQPG6GVQ","3TZDZ3Y0JSSRVQSC3SM97PDQ3Z7196","","2942","img/animal1.png","74","2943.2000000001863","1","1","1","0.7,0,0.8,0.7,0.8,0,0.7,0.8,0",""
"","html-keyboard-response","3","77449","0.0-3.0","3JRJSWSMQI76M9V2P9LGCFPMWRY3EE","A3DW6KSQPG6GVQ","3TZDZ3Y0JSSRVQSC3SM97PDQ3Z7196","","null","<img src=""img/animal1.png"" style=""width:200px; border:14px solid green;"">","null","","","","","",""
"","image-keyboard-response","4","77918","0.0-4.0","3JRJSWSMQI76M9V2P9LGCFPMWRY3EE","A3DW6KSQPG6GVQ","3TZDZ3Y0JSSRVQSC3SM97PDQ3Z7196","","467.40000000037253","img/animal1.png","75","468.20000000018626","2","0","1","0.7,0,0.8,0.7,0.8,0,0.7,0.8,0",""
"","html-keyboard-response","5","78220","0.0-5.0","3JRJSWSMQI76M9V2P9LGCFPMWRY3EE","A3DW6KSQPG6GVQ","3TZDZ3Y0JSSRVQSC3SM97PDQ3Z7196","","null","<img src=""img/animal1.png"" style=""width:200px;border:14px solid red;"">","null","","","","","",""
"","image-keyboard-response","6","80091","0.0-6.0","3JRJSWSMQI76M9V2P9LGCFPMWRY3EE","A3DW6KSQPG6GVQ","3TZDZ3Y0JSSRVQSC3SM97PDQ3Z7196","","1870","img/animal2.png","75","1870.7999999998137","2","1","3","0.7,0,0.8,0.7,0.8,0,0.7,0.8,0",""
"","html-keyboard-response","7","80392","0.0-7.0","3JRJSWSMQI76M9V2P9LGCFPMWRY3EE","A3DW6KSQPG6GVQ","3TZDZ3Y0JSSRVQSC3SM97PDQ3Z7196","","null","<img src=""img/animal2.png"" style=""width:200px; border:14px solid green;"">","null","","","","","",""
"","image-keyboard-response","8","81192","0.0-8.0","3JRJSWSMQI76M9V2P9LGCFPMWRY3EE","A3DW6KSQPG6GVQ","3TZDZ3Y0JSSRVQSC3SM97PDQ3Z7196","","799.1000000005588","img/animal1.png","74","799.8999999994412","1","0","1","0.7,0,0.8,0.7,0.8,0,0.7,0.8,0",""
"","html-keyboard-response","9","81494","0.0-9.0","3JRJSWSMQI76M9V2P9LGCFPMWRY3EE","A3DW6KSQPG6GVQ","3TZDZ3Y0JSSRVQSC3SM97PDQ3Z7196","","null","<img src=""img/animal1.png"" style=""width:200px;border:14px solid red;"">","null","","","","","",""
"","image-keyboard-response","10","81934","0.0-10.0","3JRJSWSMQI76M9V2P9LGCFPMWRY3EE","A3DW6KSQPG6GVQ","3TZDZ3Y0JSSRVQSC3SM97PDQ3Z7196","","438.90000000037253","img/animal1.png","74","439.70000000018626","1","0","1","0.7,0,0.8,0.7,0.8,0,0.7,0.8,0",""
"","html-keyboard-response","11","82235","0.0-11.0","3JRJSWSMQI76M9V2P9LGCFPMWRY3EE","A3DW6KSQPG6GVQ","3TZDZ3Y0JSSRVQSC3SM97PDQ3Z7196","","null","<img src=""img/animal1.png"" style=""width:200px;border:14px solid red;"">","null","","","","","",""
"","image-keyboard-response","12","83002","0.0-12.0","3JRJSWSMQI76M9V2P9LGCFPMWRY3EE","A3DW6KSQPG6GVQ","3TZDZ3Y0JSSRVQSC3SM97PDQ3Z7196","","765.3000000007451","img/animal1.png","76","766","3","1","1","0.7,0,0.8,0.7,0.8,0,0.7,0.8,0",""
"","html-keyboard-response","13","83305","0.0-13.0","3JRJSWSMQI76M9V2P9LGCFPMWRY3EE","A3DW6KSQPG6GVQ","3TZDZ3Y0JSSRVQSC3SM97PDQ3Z7196","","null","<img src=""img/animal1.png"" style=""width:200px; border:14px solid green;"">","null","","","","","",""
"","image-keyboard-response","14","83931","0.0-14.0","3JRJSWSMQI76M9V2P9LGCFPMWRY3EE","A3DW6KSQPG6GVQ","3TZDZ3Y0JSSRVQSC3SM97PDQ3Z7196","","625.5","img/animal1.png","76","626.3000000007451","3","1","1","0.7,0,0.8,0.7,0.8,0,0.7,0.8,0",""
"","html-keyboard-response","15","84233","0.0-15.0","3JRJSWSMQI76M9V2P9LGCFPMWRY3EE","A3DW6KSQPG6GVQ","3TZDZ3Y0JSSRVQSC3SM97PDQ3Z7196","","null","<img src=""img/animal1.png"" style=""width:200px; border:14px solid green;"">","null","","","","","",""
"","image-keyboard-response","16","85032","0.0-16.0","3JRJSWSMQI76M9V2P9LGCFPMWRY3EE","A3DW6KSQPG6GVQ","3TZDZ3Y0JSSRVQSC3SM97PDQ3Z7196","","797.2000000001863","img/animal1.png","76","797.8999999994412","3","1","1","0.7,0,0.8,0.7,0.8,0,0.7,0.8,0",""
"","html-keyboard-response","17","85333","0.0-17.0","3JRJSWSMQI76M9V2P9LGCFPMWRY3EE","A3DW6KSQPG6GVQ","3TZDZ3Y0JSSRVQSC3SM97PDQ3Z7196","","null","<img src=""img/animal1.png"" style=""width:200px; border:14px solid green;"">","null","","","","","",""
"","image-keyboard-response","18","85702","0.0-18.0","3JRJSWSMQI76M9V2P9LGCFPMWRY3EE","A3DW6KSQPG6GVQ","3TZDZ3Y0JSSRVQSC3SM97PDQ3Z7196","","367.29999999981374","img/animal1.png","76","368.09999999962747","3","1","1","0.7,0,0.8,0.7,0.8,0,0.7,0.8,0",""
"","html-keyboard-response","19","86003","0.0-19.0","3JRJSWSMQI76M9V2P9LGCFPMWRY3EE","A3DW6KSQPG6GVQ","3TZDZ3Y0JSSRVQSC3SM97PDQ3Z7196","","null","<img src=""img/animal1.png"" style=""width:200px; border:14px solid green;"">","null","","","","","",""
"","image-keyboard-response","20","86090","0.0-20.0","3JRJSWSMQI76M9V2P9LGCFPMWRY3EE","A3DW6KSQPG6GVQ","3TZDZ3Y0JSSRVQSC3SM97PDQ3Z7196","","85.19999999925494","img/animal1.png","76","85.90000000037253","3","1","1","0.7,0,0.8,0.7,0.8,0,0.7,0.8,0",""
"","html-keyboard-response","21","86391","0.0-21.0","3JRJSWSMQI76M9V2P9LGCFPMWRY3EE","A3DW6KSQPG6GVQ","3TZDZ3Y0JSSRVQSC3SM97PDQ3Z7196","","null","<img src=""img/animal1.png"" style=""width:200px; border:14px solid green;"">","null","","","","","",""
"","image-keyboard-response","22","87335","0.0-22.0","3JRJSWSMQI76M9V2P9LGCFPMWRY3EE","A3DW6KSQPG6GVQ","3TZDZ3Y0JSSRVQSC3SM97PDQ3Z7196","","943.3999999994412","img/animal5.png","75","944.1000000005588","2","1","2","0.7,0,0.8,0.7,0.8,0,0.7,0.8,0",""
"","html-keyboard-response","23","87637","0.0-23.0","3JRJSWSMQI76M9V2P9LGCFPMWRY3EE","A3DW6KSQPG6GVQ","3TZDZ3Y0JSSRVQSC3SM97PDQ3Z7196","","null","<img src=""img/animal5.png"" style=""width:200px; border:14px solid green;"">","null","","","","","",""
"","image-keyboard-response","24","87761","0.0-24.0","3JRJSWSMQI76M9V2P9LGCFPMWRY3EE","A3DW6KSQPG6GVQ","3TZDZ3Y0JSSRVQSC3SM97PDQ3Z7196","","123.5","img/animal5.png","75","124.19999999925494","2","0","2","0.7,0,0.8,0.7,0.8,0,0.7,0.8,0",""
"","html-keyboard-response","25","88062","0.0-25.0","3JRJSWSMQI76M9V2P9LGCFPMWRY3EE","A3DW6KSQPG6GVQ","3TZDZ3Y0JSSRVQSC3SM97PDQ3Z7196","","null","<img src=""img/animal5.png"" style=""width:200px;border:14px solid red;"">","null","","","","","",""
"","image-keyboard-response","26","89090","0.0-26.0","3JRJSWSMQI76M9V2P9LGCFPMWRY3EE","A3DW6KSQPG6GVQ","3TZDZ3Y0JSSRVQSC3SM97PDQ3Z7196","","1026.4000000003725","img/animal2.png","74","1027.1000000005588","1","0","3","0.7,0,0.8,0.7,0.8,0,0.7,0.8,0",""
"","html-keyboard-response","27","89391","0.0-27.0","3JRJSWSMQI76M9V2P9LGCFPMWRY3EE","A3DW6KSQPG6GVQ","3TZDZ3Y0JSSRVQSC3SM97PDQ3Z7196","","null","<img src=""img/animal2.png"" style=""width:200px;border:14px solid red;"">","null","","","","","",""
"","image-keyboard-response","28","89680","0.0-28.0","3JRJSWSMQI76M9V2P9LGCFPMWRY3EE","A3DW6KSQPG6GVQ","3TZDZ3Y0JSSRVQSC3SM97PDQ3Z7196","","287.5","img/animal2.png","75","288.40000000037253","2","1","3","0.7,0,0.8,0.7,0.8,0,0.7,0.8,0",""
"","html-keyboard-response","29","89981","0.0-29.0","3JRJSWSMQI76M9V2P9LGCFPMWRY3EE","A3DW6KSQPG6GVQ","3TZDZ3Y0JSSRVQSC3SM97PDQ3Z7196","","null","<img src=""img/animal2.png"" style=""width:200px; border:14px solid green;"">","null","","","","","",""
"","image-keyboard-response","30","90176","0.0-30.0","3JRJSWSMQI76M9V2P9LGCFPMWRY3EE","A3DW6KSQPG6GVQ","3TZDZ3Y0JSSRVQSC3SM97PDQ3Z7196","","193.29999999981374","img/animal5.png","75","194.20000000018626","2","1","2","0.7,0,0.8,0.7,0.8,0,0.7,0.8,0",""
"","html-keyboard-response","31","90478","0.0-31.0","3JRJSWSMQI76M9V2P9LGCFPMWRY3EE","A3DW6KSQPG6GVQ","3TZDZ3Y0JSSRVQSC3SM97PDQ3Z7196","","null","<img src=""img/animal5.png"" style=""width:200px; border:14px solid green;"">","null","","","","","",""
"","image-keyboard-response","32","90812","0.0-32.0","3JRJSWSMQI76M9V2P9LGCFPMWRY3EE","A3DW6KSQPG6GVQ","3TZDZ3Y0JSSRVQSC3SM97PDQ3Z7196","","332.8999999994412","img/animal5.png","75","333.69999999925494","2","1","2","0.7,0,0.8,0.7,0.8,0,0.7,0.8,0",""
"","html-keyboard-response","33","91115","0.0-33.0","3JRJSWSMQI76M9V2P9LGCFPMWRY3EE","A3DW6KSQPG6GVQ","3TZDZ3Y0JSSRVQSC3SM97PDQ3Z7196","","null","<img src=""img/animal5.png"" style=""width:200px; border:14px solid green;"">","null","","","","","",""
"","image-keyboard-response","34","92288","0.0-34.0","3JRJSWSMQI76M9V2P9LGCFPMWRY3EE","A3DW6KSQPG6GVQ","3TZDZ3Y0JSSRVQSC3SM97PDQ3Z7196","","1171.0999999996275","img/animal2.png","75","1171.8999999994412","2","0","3","0.7,0,0.8,0.7,0.8,0,0.7,0.8,0",""
"","html-keyboard-response","35","92589","0.0-35.0","3JRJSWSMQI76M9V2P9LGCFPMWRY3EE","A3DW6KSQPG6GVQ","3TZDZ3Y0JSSRVQSC3SM97PDQ3Z7196","","null","<img src=""img/animal2.png"" style=""width:200px;border:14px solid red;"">","null","","","","","",""
"","image-keyboard-response","36","92960","0.0-36.0","3JRJSWSMQI76M9V2P9LGCFPMWRY3EE","A3DW6KSQPG6GVQ","3TZDZ3Y0JSSRVQSC3SM97PDQ3Z7196","","369.09999999962747","img/animal2.png","74","369.80000000074506","1","1","3","0.7,0,0.8,0.7,0.8,0,0.7,0.8,0",""
"","html-keyboard-response","37","93261","0.0-37.0","3JRJSWSMQI76M9V2P9LGCFPMWRY3EE","A3DW6KSQPG6GVQ","3TZDZ3Y0JSSRVQSC3SM97PDQ3Z7196","","null","<img src=""img/animal2.png"" style=""width:200px; border:14px solid green;"">","null","","","","","",""
"","image-keyboard-response","38","94256","0.0-38.0","3JRJSWSMQI76M9V2P9LGCFPMWRY3EE","A3DW6KSQPG6GVQ","3TZDZ3Y0JSSRVQSC3SM97PDQ3Z7196","","994.2999999998137","img/animal1.png","74","995","1","1","1","0.7,0,0.8,0.7,0.8,0,0.7,0.8,0",""
"","html-keyboard-response","39","94557","0.0-39.0","3JRJSWSMQI76M9V2P9LGCFPMWRY3EE","A3DW6KSQPG6GVQ","3TZDZ3Y0JSSRVQSC3SM97PDQ3Z7196","","null","<img src=""img/animal1.png"" style=""width:200px; border:14px solid green;"">","null","","","","","",""
"","image-keyboard-response","40","94622","0.0-40.0","3JRJSWSMQI76M9V2P9LGCFPMWRY3EE","A3DW6KSQPG6GVQ","3TZDZ3Y0JSSRVQSC3SM97PDQ3Z7196","","63.90000000037253","img/animal2.png","74","64.70000000018626","1","0","3","0.7,0,0.8,0.7,0.8,0,0.7,0.8,0",""
"","html-keyboard-response","41","94925","0.0-41.0","3JRJSWSMQI76M9V2P9LGCFPMWRY3EE","A3DW6KSQPG6GVQ","3TZDZ3Y0JSSRVQSC3SM97PDQ3Z7196","","null","<img src=""img/animal2.png"" style=""width:200px;border:14px solid red;"">","null","","","","","",""
"","image-keyboard-response","42","95115","0.0-42.0","3JRJSWSMQI76M9V2P9LGCFPMWRY3EE","A3DW6KSQPG6GVQ","3TZDZ3Y0JSSRVQSC3SM97PDQ3Z7196","","188.79999999981374","img/animal2.png","75","189.70000000018626","2","0","3","0.7,0,0.8,0.7,0.8,0,0.7,0.8,0",""
"","html-keyboard-response","43","95416","0.0-43.0","3JRJSWSMQI76M9V2P9LGCFPMWRY3EE","A3DW6KSQPG6GVQ","3TZDZ3Y0JSSRVQSC3SM97PDQ3Z7196","","null","<img src=""img/animal2.png"" style=""width:200px;border:14px solid red;"">","null","","","","","",""
"","image-keyboard-response","44","96595","0.0-44.0","3JRJSWSMQI76M9V2P9LGCFPMWRY3EE","A3DW6KSQPG6GVQ","3TZDZ3Y0JSSRVQSC3SM97PDQ3Z7196","","1177.9000000003725","img/animal5.png","75","1178.7000000001863","2","0","2","0.7,0,0.8,0.7,0.8,0,0.7,0.8,0",""
"","html-keyboard-response","45","96897","0.0-45.0","3JRJSWSMQI76M9V2P9LGCFPMWRY3EE","A3DW6KSQPG6GVQ","3TZDZ3Y0JSSRVQSC3SM97PDQ3Z7196","","null","<img src=""img/animal5.png"" style=""width:200px;border:14px solid red;"">","null","","","","","",""
"","image-keyboard-response","46","97019","0.0-46.0","3JRJSWSMQI76M9V2P9LGCFPMWRY3EE","A3DW6KSQPG6GVQ","3TZDZ3Y0JSSRVQSC3SM97PDQ3Z7196","","120.29999999981374","img/animal5.png","76","121.20000000018626","3","0","2","0.7,0,0.8,0.7,0.8,0,0.7,0.8,0",""
"","html-keyboard-response","47","97320","0.0-47.0","3JRJSWSMQI76M9V2P9LGCFPMWRY3EE","A3DW6KSQPG6GVQ","3TZDZ3Y0JSSRVQSC3SM97PDQ3Z7196","","null","<img src=""img/animal5.png"" style=""width:200px;border:14px solid red;"">","null","","","","","",""
"","image-keyboard-response","48","97718","0.0-48.0","3JRJSWSMQI76M9V2P9LGCFPMWRY3EE","A3DW6KSQPG6GVQ","3TZDZ3Y0JSSRVQSC3SM97PDQ3Z7196","","397.3999999994412","img/animal5.png","74","398.20000000018626","1","1","2","0.7,0,0.8,0.7,0.8,0,0.7,0.8,0",""
"","html-keyboard-response","49","98020","0.0-49.0","3JRJSWSMQI76M9V2P9LGCFPMWRY3EE","A3DW6KSQPG6GVQ","3TZDZ3Y0JSSRVQSC3SM97PDQ3Z7196","","null","<img src=""img/animal5.png"" style=""width:200px; border:14px solid green;"">","null","","","","","",""
"","image-keyboard-response","50","98768","0.0-50.0","3JRJSWSMQI76M9V2P9LGCFPMWRY3EE","A3DW6KSQPG6GVQ","3TZDZ3Y0JSSRVQSC3SM97PDQ3Z7196","","747","img/animal1.png","74","747.7000000001863","1","0","1","0.7,0,0.8,0.7,0.8,0,0.7,0.8,0",""
"","html-keyboard-response","51","99070","0.0-51.0","3JRJSWSMQI76M9V2P9LGCFPMWRY3EE","A3DW6KSQPG6GVQ","3TZDZ3Y0JSSRVQSC3SM97PDQ3Z7196","","null","<img src=""img/animal1.png"" style=""width:200px;border:14px solid red;"">","null","","","","","",""
"","image-keyboard-response","52","100197","0.0-52.0","3JRJSWSMQI76M9V2P9LGCFPMWRY3EE","A3DW6KSQPG6GVQ","3TZDZ3Y0JSSRVQSC3SM97PDQ3Z7196","","1126.7999999998137","img/animal5.png","75","1127.6000000005588","2","1","2","0.7,0,0.8,0.7,0.8,0,0.7,0.8,0",""
"","html-keyboard-response","53","100500","0.0-53.0","3JRJSWSMQI76M9V2P9LGCFPMWRY3EE","A3DW6KSQPG6GVQ","3TZDZ3Y0JSSRVQSC3SM97PDQ3Z7196","","null","<img src=""img/animal5.png"" style=""width:200px; border:14px solid green;"">","null","","","","","",""
"","image-keyboard-response","54","101124","0.0-54.0","3JRJSWSMQI76M9V2P9LGCFPMWRY3EE","A3DW6KSQPG6GVQ","3TZDZ3Y0JSSRVQSC3SM97PDQ3Z7196","","623","img/animal1.png","74","623.7000000001863","1","1","1","0.7,0,0.8,0.7,0.8,0,0.7,0.8,0",""
"","html-keyboard-response","55","101425","0.0-55.0","3JRJSWSMQI76M9V2P9LGCFPMWRY3EE","A3DW6KSQPG6GVQ","3TZDZ3Y0JSSRVQSC3SM97PDQ3Z7196","","null","<img src=""img/animal1.png"" style=""width:200px; border:14px solid green;"">","null","","","","","",""
"","image-keyboard-response","56","102191","0.0-56.0","3JRJSWSMQI76M9V2P9LGCFPMWRY3EE","A3DW6KSQPG6GVQ","3TZDZ3Y0JSSRVQSC3SM97PDQ3Z7196","","764.5","img/animal2.png","75","765.2000000001863","2","1","3","0.7,0,0.8,0.7,0.8,0,0.7,0.8,0",""
"","html-keyboard-response","57","102492","0.0-57.0","3JRJSWSMQI76M9V2P9LGCFPMWRY3EE","A3DW6KSQPG6GVQ","3TZDZ3Y0JSSRVQSC3SM97PDQ3Z7196","","null","<img src=""img/animal2.png"" style=""width:200px; border:14px solid green;"">","null","","","","","",""
"","image-keyboard-response","58","103210","0.0-58.0","3JRJSWSMQI76M9V2P9LGCFPMWRY3EE","A3DW6KSQPG6GVQ","3TZDZ3Y0JSSRVQSC3SM97PDQ3Z7196","","717.2999999998137","img/animal5.png","74","718.1000000005588","1","1","2","0.7,0,0.8,0.7,0.8,0,0.7,0.8,0",""
"","html-keyboard-response","59","103512","0.0-59.0","3JRJSWSMQI76M9V2P9LGCFPMWRY3EE","A3DW6KSQPG6GVQ","3TZDZ3Y0JSSRVQSC3SM97PDQ3Z7196","","null","<img src=""img/animal5.png"" style=""width:200px; border:14px solid green;"">","null","","","","","",""
"","image-keyboard-response","60","104185","0.0-60.0","3JRJSWSMQI76M9V2P9LGCFPMWRY3EE","A3DW6KSQPG6GVQ","3TZDZ3Y0JSSRVQSC3SM97PDQ3Z7196","","671.7000000001863","img/animal5.png","74","672.5","1","1","2","0.7,0,0.8,0.7,0.8,0,0.7,0.8,0",""
"","html-keyboard-response","61","104486","0.0-61.0","3JRJSWSMQI76M9V2P9LGCFPMWRY3EE","A3DW6KSQPG6GVQ","3TZDZ3Y0JSSRVQSC3SM97PDQ3Z7196","","null","<img src=""img/animal5.png"" style=""width:200px; border:14px solid green;"">","null","","","","","",""
"","image-keyboard-response","62","105051","0.0-62.0","3JRJSWSMQI76M9V2P9LGCFPMWRY3EE","A3DW6KSQPG6GVQ","3TZDZ3Y0JSSRVQSC3SM97PDQ3Z7196","","563.7000000001863","img/animal5.png","74","564.5","1","0","2","0.7,0,0.8,0.7,0.8,0,0.7,0.8,0",""
"","html-keyboard-response","63","105353","0.0-63.0","3JRJSWSMQI76M9V2P9LGCFPMWRY3EE","A3DW6KSQPG6GVQ","3TZDZ3Y0JSSRVQSC3SM97PDQ3Z7196","","null","<img src=""img/animal5.png"" style=""width:200px;border:14px solid red;"">","null","","","","","",""
"","image-keyboard-response","64","106581","0.0-64.0","3JRJSWSMQI76M9V2P9LGCFPMWRY3EE","A3DW6KSQPG6GVQ","3TZDZ3Y0JSSRVQSC3SM97PDQ3Z7196","","1226.5999999996275","img/animal5.png","76","1227.5999999996275","3","0","2","0.7,0,0.8,0.7,0.8,0,0.7,0.8,0",""
"","html-keyboard-response","65","106883","0.0-65.0","3JRJSWSMQI76M9V2P9LGCFPMWRY3EE","A3DW6KSQPG6GVQ","3TZDZ3Y0JSSRVQSC3SM97PDQ3Z7196","","null","<img src=""img/animal5.png"" style=""width:200px;border:14px solid red;"">","null","","","","","",""
"","image-keyboard-response","66","106979","0.0-66.0","3JRJSWSMQI76M9V2P9LGCFPMWRY3EE","A3DW6KSQPG6GVQ","3TZDZ3Y0JSSRVQSC3SM97PDQ3Z7196","","94.59999999962747","img/animal5.png","75","95.40000000037253","2","0","2","0.7,0,0.8,0.7,0.8,0,0.7,0.8,0",""
"","html-keyboard-response","67","107281","0.0-67.0","3JRJSWSMQI76M9V2P9LGCFPMWRY3EE","A3DW6KSQPG6GVQ","3TZDZ3Y0JSSRVQSC3SM97PDQ3Z7196","","null","<img src=""img/animal5.png"" style=""width:200px;border:14px solid red;"">","null","","","","","",""
"","image-keyboard-response","68","108013","0.0-68.0","3JRJSWSMQI76M9V2P9LGCFPMWRY3EE","A3DW6KSQPG6GVQ","3TZDZ3Y0JSSRVQSC3SM97PDQ3Z7196","","731.2000000001863","img/animal1.png","74","732","1","1","1","0.7,0,0.8,0.7,0.8,0,0.7,0.8,0",""
"","html-keyboard-response","69","108315","0.0-69.0","3JRJSWSMQI76M9V2P9LGCFPMWRY3EE","A3DW6KSQPG6GVQ","3TZDZ3Y0JSSRVQSC3SM97PDQ3Z7196","","null","<img src=""img/animal1.png"" style=""width:200px; border:14px solid green;"">","null","","","","","",""
"","image-keyboard-response","70","109091","0.0-70.0","3JRJSWSMQI76M9V2P9LGCFPMWRY3EE","A3DW6KSQPG6GVQ","3TZDZ3Y0JSSRVQSC3SM97PDQ3Z7196","","775.0999999996275","img/animal2.png","75","775.6999999992549","2","1","3","0.7,0,0.8,0.7,0.8,0,0.7,0.8,0",""
"","html-keyboard-response","71","109393","0.0-71.0","3JRJSWSMQI76M9V2P9LGCFPMWRY3EE","A3DW6KSQPG6GVQ","3TZDZ3Y0JSSRVQSC3SM97PDQ3Z7196","","null","<img src=""img/animal2.png"" style=""width:200px; border:14px solid green;"">","null","","","","","",""
"","image-keyboard-response","72","109976","0.0-72.0","3JRJSWSMQI76M9V2P9LGCFPMWRY3EE","A3DW6KSQPG6GVQ","3TZDZ3Y0JSSRVQSC3SM97PDQ3Z7196","","582","img/animal1.png","74","582.7000000001863","1","1","1","0.7,0,0.8,0.7,0.8,0,0.7,0.8,0",""
"","html-keyboard-response","73","110278","0.0-73.0","3JRJSWSMQI76M9V2P9LGCFPMWRY3EE","A3DW6KSQPG6GVQ","3TZDZ3Y0JSSRVQSC3SM97PDQ3Z7196","","null","<img src=""img/animal1.png"" style=""width:200px; border:14px solid green;"">","null","","","","","",""
"","image-keyboard-response","74","110687","0.0-74.0","3JRJSWSMQI76M9V2P9LGCFPMWRY3EE","A3DW6KSQPG6GVQ","3TZDZ3Y0JSSRVQSC3SM97PDQ3Z7196","","407.90000000037253","img/animal1.png","74","408.59999999962747","1","0","1","0.7,0,0.8,0.7,0.8,0,0.7,0.8,0",""
"","html-keyboard-response","75","110989","0.0-75.0","3JRJSWSMQI76M9V2P9LGCFPMWRY3EE","A3DW6KSQPG6GVQ","3TZDZ3Y0JSSRVQSC3SM97PDQ3Z7196","","null","<img src=""img/animal1.png"" style=""width:200px;border:14px solid red;"">","null","","","","","",""
"","image-keyboard-response","76","112092","0.0-76.0","3JRJSWSMQI76M9V2P9LGCFPMWRY3EE","A3DW6KSQPG6GVQ","3TZDZ3Y0JSSRVQSC3SM97PDQ3Z7196","","1102.6000000005588","img/animal5.png","75","1103.2000000001863","2","1","2","0.7,0,0.8,0.7,0.8,0,0.7,0.8,0",""
"","html-keyboard-response","77","112394","0.0-77.0","3JRJSWSMQI76M9V2P9LGCFPMWRY3EE","A3DW6KSQPG6GVQ","3TZDZ3Y0JSSRVQSC3SM97PDQ3Z7196","","null","<img src=""img/animal5.png"" style=""width:200px; border:14px solid green;"">","null","","","","","",""
"","image-keyboard-response","78","113605","0.0-78.0","3JRJSWSMQI76M9V2P9LGCFPMWRY3EE","A3DW6KSQPG6GVQ","3TZDZ3Y0JSSRVQSC3SM97PDQ3Z7196","","1210.7000000001863","img/animal2.png","75","1211.5","2","1","3","0.7,0,0.8,0.7,0.8,0,0.7,0.8,0",""
"","html-keyboard-response","79","113907","0.0-79.0","3JRJSWSMQI76M9V2P9LGCFPMWRY3EE","A3DW6KSQPG6GVQ","3TZDZ3Y0JSSRVQSC3SM97PDQ3Z7196","","null","<img src=""img/animal2.png"" style=""width:200px; border:14px solid green;"">","null","","","","","",""
"","image-keyboard-response","80","114751","0.0-80.0","3JRJSWSMQI76M9V2P9LGCFPMWRY3EE","A3DW6KSQPG6GVQ","3TZDZ3Y0JSSRVQSC3SM97PDQ3Z7196","","842.6000000005588","img/animal5.png","74","843.2999999998137","1","1","2","0.7,0,0.8,0.7,0.8,0,0.7,0.8,0",""
"","html-keyboard-response","81","115053","0.0-81.0","3JRJSWSMQI76M9V2P9LGCFPMWRY3EE","A3DW6KSQPG6GVQ","3TZDZ3Y0JSSRVQSC3SM97PDQ3Z7196","","null","<img src=""img/animal5.png"" style=""width:200px; border:14px solid green;"">","null","","","","","",""
"","image-keyboard-response","82","115431","0.0-82.0","3JRJSWSMQI76M9V2P9LGCFPMWRY3EE","A3DW6KSQPG6GVQ","3TZDZ3Y0JSSRVQSC3SM97PDQ3Z7196","","376.8999999994412","img/animal5.png","74","377.79999999981374","1","1","2","0.7,0,0.8,0.7,0.8,0,0.7,0.8,0",""
"","html-keyboard-response","83","115732","0.0-83.0","3JRJSWSMQI76M9V2P9LGCFPMWRY3EE","A3DW6KSQPG6GVQ","3TZDZ3Y0JSSRVQSC3SM97PDQ3Z7196","","null","<img src=""img/animal5.png"" style=""width:200px; border:14px solid green;"">","null","","","","","",""
"","image-keyboard-response","84","116297","0.0-84.0","3JRJSWSMQI76M9V2P9LGCFPMWRY3EE","A3DW6KSQPG6GVQ","3TZDZ3Y0JSSRVQSC3SM97PDQ3Z7196","","563.7999999998137","img/animal1.png","74","564.5999999996275","1","0","1","0.7,0,0.8,0.7,0.8,0,0.7,0.8,0",""
"","html-keyboard-response","85","116599","0.0-85.0","3JRJSWSMQI76M9V2P9LGCFPMWRY3EE","A3DW6KSQPG6GVQ","3TZDZ3Y0JSSRVQSC3SM97PDQ3Z7196","","null","<img src=""img/animal1.png"" style=""width:200px;border:14px solid red;"">","null","","","","","",""
"","image-keyboard-response","86","117245","0.0-86.0","3JRJSWSMQI76M9V2P9LGCFPMWRY3EE","A3DW6KSQPG6GVQ","3TZDZ3Y0JSSRVQSC3SM97PDQ3Z7196","","644.1999999992549","img/animal1.png","75","645.4000000003725","2","0","1","0.7,0,0.8,0.7,0.8,0,0.7,0.8,0",""
"","html-keyboard-response","87","117547","0.0-87.0","3JRJSWSMQI76M9V2P9LGCFPMWRY3EE","A3DW6KSQPG6GVQ","3TZDZ3Y0JSSRVQSC3SM97PDQ3Z7196","","null","<img src=""img/animal1.png"" style=""width:200px;border:14px solid red;"">","null","","","","","",""
"","image-keyboard-response","88","118419","0.0-88.0","3JRJSWSMQI76M9V2P9LGCFPMWRY3EE","A3DW6KSQPG6GVQ","3TZDZ3Y0JSSRVQSC3SM97PDQ3Z7196","","871","img/animal5.png","74","871.7000000001863","1","1","2","0.7,0,0.8,0.7,0.8,0,0.7,0.8,0",""
"","html-keyboard-response","89","118720","0.0-89.0","3JRJSWSMQI76M9V2P9LGCFPMWRY3EE","A3DW6KSQPG6GVQ","3TZDZ3Y0JSSRVQSC3SM97PDQ3Z7196","","null","<img src=""img/animal5.png"" style=""width:200px; border:14px solid green;"">","null","","","","","",""
"","image-keyboard-response","90","119808","0.0-90.0","3JRJSWSMQI76M9V2P9LGCFPMWRY3EE","A3DW6KSQPG6GVQ","3TZDZ3Y0JSSRVQSC3SM97PDQ3Z7196","","1086.4000000003725","img/animal2.png","75","1087.1000000005588","2","1","3","0.7,0,0.8,0.7,0.8,0,0.7,0.8,0",""
"","html-keyboard-response","91","120109","0.0-91.0","3JRJSWSMQI76M9V2P9LGCFPMWRY3EE","A3DW6KSQPG6GVQ","3TZDZ3Y0JSSRVQSC3SM97PDQ3Z7196","","null","<img src=""img/animal2.png"" style=""width:200px; border:14px solid green;"">","null","","","","","",""
"","image-keyboard-response","92","120849","0.0-92.0","3JRJSWSMQI76M9V2P9LGCFPMWRY3EE","A3DW6KSQPG6GVQ","3TZDZ3Y0JSSRVQSC3SM97PDQ3Z7196","","738.7999999998137","img/animal5.png","74","739.5","1","1","2","0.7,0,0.8,0.7,0.8,0,0.7,0.8,0",""
"","html-keyboard-response","93","121151","0.0-93.0","3JRJSWSMQI76M9V2P9LGCFPMWRY3EE","A3DW6KSQPG6GVQ","3TZDZ3Y0JSSRVQSC3SM97PDQ3Z7196","","null","<img src=""img/animal5.png"" style=""width:200px; border:14px solid green;"">","null","","","","","",""
"","image-keyboard-response","94","121832","0.0-94.0","3JRJSWSMQI76M9V2P9LGCFPMWRY3EE","A3DW6KSQPG6GVQ","3TZDZ3Y0JSSRVQSC3SM97PDQ3Z7196","","680.5999999996275","img/animal2.png","75","681.2999999998137","2","1","3","0.7,0,0.8,0.7,0.8,0,0.7,0.8,0",""
"","html-keyboard-response","95","122134","0.0-95.0","3JRJSWSMQI76M9V2P9LGCFPMWRY3EE","A3DW6KSQPG6GVQ","3TZDZ3Y0JSSRVQSC3SM97PDQ3Z7196","","null","<img src=""img/animal2.png"" style=""width:200px; border:14px solid green;"">","null","","","","","",""
"","image-keyboard-response","96","122497","0.0-96.0","3JRJSWSMQI76M9V2P9LGCFPMWRY3EE","A3DW6KSQPG6GVQ","3TZDZ3Y0JSSRVQSC3SM97PDQ3Z7196","","362.5","img/animal2.png","75","363.29999999981374","2","1","3","0.7,0,0.8,0.7,0.8,0,0.7,0.8,0",""
"","html-keyboard-response","97","122799","0.0-97.0","3JRJSWSMQI76M9V2P9LGCFPMWRY3EE","A3DW6KSQPG6GVQ","3TZDZ3Y0JSSRVQSC3SM97PDQ3Z7196","","null","<img src=""img/animal2.png"" style=""width:200px; border:14px solid green;"">","null","","","","","",""
"","image-keyboard-response","98","124032","0.0-98.0","3JRJSWSMQI76M9V2P9LGCFPMWRY3EE","A3DW6KSQPG6GVQ","3TZDZ3Y0JSSRVQSC3SM97PDQ3Z7196","","1231.1000000005588","img/animal5.png","74","1231.7999999998137","1","1","2","0.7,0,0.8,0.7,0.8,0,0.7,0.8,0",""
"","html-keyboard-response","99","124333","0.0-99.0","3JRJSWSMQI76M9V2P9LGCFPMWRY3EE","A3DW6KSQPG6GVQ","3TZDZ3Y0JSSRVQSC3SM97PDQ3Z7196","","null","<img src=""img/animal5.png"" style=""width:200px; border:14px solid green;"">","null","","","","","",""
"","image-keyboard-response","100","126592","0.0-100.0","3JRJSWSMQI76M9V2P9LGCFPMWRY3EE","A3DW6KSQPG6GVQ","3TZDZ3Y0JSSRVQSC3SM97PDQ3Z7196","","2257.199999999255","img/animal5.png","74","2257.9000000003725","1","1","2","0.7,0,0.8,0.7,0.8,0,0.7,0.8,0",""
"","html-keyboard-response","101","126900","0.0-101.0","3JRJSWSMQI76M9V2P9LGCFPMWRY3EE","A3DW6KSQPG6GVQ","3TZDZ3Y0JSSRVQSC3SM97PDQ3Z7196","","null","<img src=""img/animal5.png"" style=""width:200px; border:14px solid green;"">","null","","","","","",""
"","image-keyboard-response","102","127611","0.0-102.0","3JRJSWSMQI76M9V2P9LGCFPMWRY3EE","A3DW6KSQPG6GVQ","3TZDZ3Y0JSSRVQSC3SM97PDQ3Z7196","","709.5","img/animal2.png","75","710.3000000007451","2","1","3","0.7,0,0.8,0.7,0.8,0,0.7,0.8,0",""
"","html-keyboard-response","103","127913","0.0-103.0","3JRJSWSMQI76M9V2P9LGCFPMWRY3EE","A3DW6KSQPG6GVQ","3TZDZ3Y0JSSRVQSC3SM97PDQ3Z7196","","null","<img src=""img/animal2.png"" style=""width:200px; border:14px solid green;"">","null","","","","","",""
"","image-keyboard-response","104","128652","0.0-104.0","3JRJSWSMQI76M9V2P9LGCFPMWRY3EE","A3DW6KSQPG6GVQ","3TZDZ3Y0JSSRVQSC3SM97PDQ3Z7196","","738","img/animal1.png","74","738.6000000005588","1","1","1","0.7,0,0.8,0.7,0.8,0,0.7,0.8,0",""
"","html-keyboard-response","105","128954","0.0-105.0","3JRJSWSMQI76M9V2P9LGCFPMWRY3EE","A3DW6KSQPG6GVQ","3TZDZ3Y0JSSRVQSC3SM97PDQ3Z7196","","null","<img src=""img/animal1.png"" style=""width:200px; border:14px solid green;"">","null","","","","","",""
"","image-keyboard-response","106","129833","0.0-106.0","3JRJSWSMQI76M9V2P9LGCFPMWRY3EE","A3DW6KSQPG6GVQ","3TZDZ3Y0JSSRVQSC3SM97PDQ3Z7196","","877.7999999998137","img/animal1.png","74","878.6000000005588","1","1","1","0.7,0,0.8,0.7,0.8,0,0.7,0.8,0",""
"","html-keyboard-response","107","130135","0.0-107.0","3JRJSWSMQI76M9V2P9LGCFPMWRY3EE","A3DW6KSQPG6GVQ","3TZDZ3Y0JSSRVQSC3SM97PDQ3Z7196","","null","<img src=""img/animal1.png"" style=""width:200px; border:14px solid green;"">","null","","","","","",""
"","image-keyboard-response","108","130511","0.0-108.0","3JRJSWSMQI76M9V2P9LGCFPMWRY3EE","A3DW6KSQPG6GVQ","3TZDZ3Y0JSSRVQSC3SM97PDQ3Z7196","","374.5","img/animal1.png","74","375.40000000037253","1","0","1","0.7,0,0.8,0.7,0.8,0,0.7,0.8,0",""
"","html-keyboard-response","109","130814","0.0-109.0","3JRJSWSMQI76M9V2P9LGCFPMWRY3EE","A3DW6KSQPG6GVQ","3TZDZ3Y0JSSRVQSC3SM97PDQ3Z7196","","null","<img src=""img/animal1.png"" style=""width:200px;border:14px solid red;"">","null","","","","","",""
"","image-keyboard-response","110","131210","0.0-110.0","3JRJSWSMQI76M9V2P9LGCFPMWRY3EE","A3DW6KSQPG6GVQ","3TZDZ3Y0JSSRVQSC3SM97PDQ3Z7196","","394.70000000018626","img/animal1.png","74","395.59999999962747","1","0","1","0.7,0,0.8,0.7,0.8,0,0.7,0.8,0",""
"","html-keyboard-response","111","131511","0.0-111.0","3JRJSWSMQI76M9V2P9LGCFPMWRY3EE","A3DW6KSQPG6GVQ","3TZDZ3Y0JSSRVQSC3SM97PDQ3Z7196","","null","<img src=""img/animal1.png"" style=""width:200px;border:14px solid red;"">","null","","","","","",""
"","image-keyboard-response","112","132144","0.0-112.0","3JRJSWSMQI76M9V2P9LGCFPMWRY3EE","A3DW6KSQPG6GVQ","3TZDZ3Y0JSSRVQSC3SM97PDQ3Z7196","","631.6999999992549","img/animal2.png","75","632.3000000007451","2","0","3","0.7,0,0.8,0.7,0.8,0,0.7,0.8,0",""
"","html-keyboard-response","113","132446","0.0-113.0","3JRJSWSMQI76M9V2P9LGCFPMWRY3EE","A3DW6KSQPG6GVQ","3TZDZ3Y0JSSRVQSC3SM97PDQ3Z7196","","null","<img src=""img/animal2.png"" style=""width:200px;border:14px solid red;"">","null","","","","","",""
"","image-keyboard-response","114","133213","0.0-114.0","3JRJSWSMQI76M9V2P9LGCFPMWRY3EE","A3DW6KSQPG6GVQ","3TZDZ3Y0JSSRVQSC3SM97PDQ3Z7196","","766.3000000007451","img/animal2.png","74","767","1","1","3","0.7,0,0.8,0.7,0.8,0,0.7,0.8,0",""
"","html-keyboard-response","115","133516","0.0-115.0","3JRJSWSMQI76M9V2P9LGCFPMWRY3EE","A3DW6KSQPG6GVQ","3TZDZ3Y0JSSRVQSC3SM97PDQ3Z7196","","null","<img src=""img/animal2.png"" style=""width:200px; border:14px solid green;"">","null","","","","","",""
"","image-keyboard-response","116","134957","0.0-116.0","3JRJSWSMQI76M9V2P9LGCFPMWRY3EE","A3DW6KSQPG6GVQ","3TZDZ3Y0JSSRVQSC3SM97PDQ3Z7196","","1439.5999999996275","img/animal1.png","74","1440.2999999998137","1","1","1","0.7,0,0.8,0.7,0.8,0,0.7,0.8,0",""
"","html-keyboard-response","117","135259","0.0-117.0","3JRJSWSMQI76M9V2P9LGCFPMWRY3EE","A3DW6KSQPG6GVQ","3TZDZ3Y0JSSRVQSC3SM97PDQ3Z7196","","null","<img src=""img/animal1.png"" style=""width:200px; border:14px solid green;"">","null","","","","","",""
"","image-keyboard-response","118","136129","0.0-118.0","3JRJSWSMQI76M9V2P9LGCFPMWRY3EE","A3DW6KSQPG6GVQ","3TZDZ3Y0JSSRVQSC3SM97PDQ3Z7196","","869.2000000001863","img/animal5.png","74","870","1","0","2","0.7,0,0.8,0.7,0.8,0,0.7,0.8,0",""
"","html-keyboard-response","119","136431","0.0-119.0","3JRJSWSMQI76M9V2P9LGCFPMWRY3EE","A3DW6KSQPG6GVQ","3TZDZ3Y0JSSRVQSC3SM97PDQ3Z7196","","null","<img src=""img/animal5.png"" style=""width:200px;border:14px solid red;"">","null","","","","","",""
"","image-keyboard-response","120","136744","0.0-120.0","3JRJSWSMQI76M9V2P9LGCFPMWRY3EE","A3DW6KSQPG6GVQ","3TZDZ3Y0JSSRVQSC3SM97PDQ3Z7196","","312.40000000037253","img/animal2.png","75","313.09999999962747","2","0","3","0.7,0,0.8,0.7,0.8,0,0.7,0.8,0",""
"","html-keyboard-response","121","137047","0.0-121.0","3JRJSWSMQI76M9V2P9LGCFPMWRY3EE","A3DW6KSQPG6GVQ","3TZDZ3Y0JSSRVQSC3SM97PDQ3Z7196","","null","<img src=""img/animal2.png"" style=""width:200px;border:14px solid red;"">","null","","","","","",""
"","image-keyboard-response","122","137491","0.0-122.0","3JRJSWSMQI76M9V2P9LGCFPMWRY3EE","A3DW6KSQPG6GVQ","3TZDZ3Y0JSSRVQSC3SM97PDQ3Z7196","","443.19999999925494","img/animal2.png","74","443.90000000037253","1","1","3","0.7,0,0.8,0.7,0.8,0,0.7,0.8,0",""
"","html-keyboard-response","123","137793","0.0-123.0","3JRJSWSMQI76M9V2P9LGCFPMWRY3EE","A3DW6KSQPG6GVQ","3TZDZ3Y0JSSRVQSC3SM97PDQ3Z7196","","null","<img src=""img/animal2.png"" style=""width:200px; border:14px solid green;"">","null","","","","","",""
"","image-keyboard-response","124","138642","0.0-124.0","3JRJSWSMQI76M9V2P9LGCFPMWRY3EE","A3DW6KSQPG6GVQ","3TZDZ3Y0JSSRVQSC3SM97PDQ3Z7196","","848.1000000005588","img/animal2.png","74","848.8999999994412","1","1","3","0.7,0,0.8,0.7,0.8,0,0.7,0.8,0",""
"","html-keyboard-response","125","138944","0.0-125.0","3JRJSWSMQI76M9V2P9LGCFPMWRY3EE","A3DW6KSQPG6GVQ","3TZDZ3Y0JSSRVQSC3SM97PDQ3Z7196","","null","<img src=""img/animal2.png"" style=""width:200px; border:14px solid green;"">","null","","","","","",""
"","image-keyboard-response","126","139267","0.0-126.0","3JRJSWSMQI76M9V2P9LGCFPMWRY3EE","A3DW6KSQPG6GVQ","3TZDZ3Y0JSSRVQSC3SM97PDQ3Z7196","","321.59999999962747","img/animal2.png","74","322.29999999981374","1","1","3","0.7,0,0.8,0.7,0.8,0,0.7,0.8,0",""
"","html-keyboard-response","127","139568","0.0-127.0","3JRJSWSMQI76M9V2P9LGCFPMWRY3EE","A3DW6KSQPG6GVQ","3TZDZ3Y0JSSRVQSC3SM97PDQ3Z7196","","null","<img src=""img/animal2.png"" style=""width:200px; border:14px solid green;"">","null","","","","","",""
"","image-keyboard-response","128","144069","0.0-128.0","3JRJSWSMQI76M9V2P9LGCFPMWRY3EE","A3DW6KSQPG6GVQ","3TZDZ3Y0JSSRVQSC3SM97PDQ3Z7196","","4499.199999999255","img/animal1.png","74","4499.9000000003725","1","1","1","0.7,0,0.8,0.7,0.8,0,0.7,0.8,0",""
"","html-keyboard-response","129","144371","0.0-129.0","3JRJSWSMQI76M9V2P9LGCFPMWRY3EE","A3DW6KSQPG6GVQ","3TZDZ3Y0JSSRVQSC3SM97PDQ3Z7196","","null","<img src=""img/animal1.png"" style=""width:200px; border:14px solid green;"">","null","","","","","",""
"","image-keyboard-response","130","145178","0.0-130.0","3JRJSWSMQI76M9V2P9LGCFPMWRY3EE","A3DW6KSQPG6GVQ","3TZDZ3Y0JSSRVQSC3SM97PDQ3Z7196","","806.1999999992549","img/animal5.png","74","807","1","1","2","0.7,0,0.8,0.7,0.8,0,0.7,0.8,0",""
"","html-keyboard-response","131","145480","0.0-131.0","3JRJSWSMQI76M9V2P9LGCFPMWRY3EE","A3DW6KSQPG6GVQ","3TZDZ3Y0JSSRVQSC3SM97PDQ3Z7196","","null","<img src=""img/animal5.png"" style=""width:200px; border:14px solid green;"">","null","","","","","",""
"","image-keyboard-response","132","146098","0.0-132.0","3JRJSWSMQI76M9V2P9LGCFPMWRY3EE","A3DW6KSQPG6GVQ","3TZDZ3Y0JSSRVQSC3SM97PDQ3Z7196","","617.0999999996275","img/animal2.png","75","617.7999999998137","2","1","3","0.7,0,0.8,0.7,0.8,0,0.7,0.8,0",""
"","html-keyboard-response","133","146400","0.0-133.0","3JRJSWSMQI76M9V2P9LGCFPMWRY3EE","A3DW6KSQPG6GVQ","3TZDZ3Y0JSSRVQSC3SM97PDQ3Z7196","","null","<img src=""img/animal2.png"" style=""width:200px; border:14px solid green;"">","null","","","","","",""
"","image-keyboard-response","134","146921","0.0-134.0","3JRJSWSMQI76M9V2P9LGCFPMWRY3EE","A3DW6KSQPG6GVQ","3TZDZ3Y0JSSRVQSC3SM97PDQ3Z7196","","519.8999999994412","img/animal5.png","74","520.5999999996275","1","1","2","0.7,0,0.8,0.7,0.8,0,0.7,0.8,0",""
"","html-keyboard-response","135","147222","0.0-135.0","3JRJSWSMQI76M9V2P9LGCFPMWRY3EE","A3DW6KSQPG6GVQ","3TZDZ3Y0JSSRVQSC3SM97PDQ3Z7196","","null","<img src=""img/animal5.png"" style=""width:200px; border:14px solid green;"">","null","","","","","",""
"","image-keyboard-response","136","147798","0.0-136.0","3JRJSWSMQI76M9V2P9LGCFPMWRY3EE","A3DW6KSQPG6GVQ","3TZDZ3Y0JSSRVQSC3SM97PDQ3Z7196","","574.4000000003725","img/animal2.png","75","575.2000000001863","2","1","3","0.7,0,0.8,0.7,0.8,0,0.7,0.8,0",""
"","html-keyboard-response","137","148099","0.0-137.0","3JRJSWSMQI76M9V2P9LGCFPMWRY3EE","A3DW6KSQPG6GVQ","3TZDZ3Y0JSSRVQSC3SM97PDQ3Z7196","","null","<img src=""img/animal2.png"" style=""width:200px; border:14px solid green;"">","null","","","","","",""
"","image-keyboard-response","138","148639","0.0-138.0","3JRJSWSMQI76M9V2P9LGCFPMWRY3EE","A3DW6KSQPG6GVQ","3TZDZ3Y0JSSRVQSC3SM97PDQ3Z7196","","539.0999999996275","img/animal1.png","74","539.9000000003725","1","1","1","0.7,0,0.8,0.7,0.8,0,0.7,0.8,0",""
"","html-keyboard-response","139","148942","0.0-139.0","3JRJSWSMQI76M9V2P9LGCFPMWRY3EE","A3DW6KSQPG6GVQ","3TZDZ3Y0JSSRVQSC3SM97PDQ3Z7196","","null","<img src=""img/animal1.png"" style=""width:200px; border:14px solid green;"">","null","","","","","",""
"","image-keyboard-response","140","149554","0.0-140.0","3JRJSWSMQI76M9V2P9LGCFPMWRY3EE","A3DW6KSQPG6GVQ","3TZDZ3Y0JSSRVQSC3SM97PDQ3Z7196","","611","img/animal5.png","75","611.7999999998137","2","0","2","0.7,0,0.8,0.7,0.8,0,0.7,0.8,0",""
"","html-keyboard-response","141","149855","0.0-141.0","3JRJSWSMQI76M9V2P9LGCFPMWRY3EE","A3DW6KSQPG6GVQ","3TZDZ3Y0JSSRVQSC3SM97PDQ3Z7196","","null","<img src=""img/animal5.png"" style=""width:200px;border:14px solid red;"">","null","","","","","",""
"","image-keyboard-response","142","150756","0.0-142.0","3JRJSWSMQI76M9V2P9LGCFPMWRY3EE","A3DW6KSQPG6GVQ","3TZDZ3Y0JSSRVQSC3SM97PDQ3Z7196","","899.7999999998137","img/animal2.png","75","900.6000000005588","2","1","3","0.7,0,0.8,0.7,0.8,0,0.7,0.8,0",""
"","html-keyboard-response","143","151057","0.0-143.0","3JRJSWSMQI76M9V2P9LGCFPMWRY3EE","A3DW6KSQPG6GVQ","3TZDZ3Y0JSSRVQSC3SM97PDQ3Z7196","","null","<img src=""img/animal2.png"" style=""width:200px; border:14px solid green;"">","null","","","","","",""
"","image-keyboard-response","144","151586","0.0-144.0","3JRJSWSMQI76M9V2P9LGCFPMWRY3EE","A3DW6KSQPG6GVQ","3TZDZ3Y0JSSRVQSC3SM97PDQ3Z7196","","528.0999999996275","img/animal2.png","75","528.9000000003725","2","1","3","0.7,0,0.8,0.7,0.8,0,0.7,0.8,0",""
"","html-keyboard-response","145","151889","0.0-145.0","3JRJSWSMQI76M9V2P9LGCFPMWRY3EE","A3DW6KSQPG6GVQ","3TZDZ3Y0JSSRVQSC3SM97PDQ3Z7196","","null","<img src=""img/animal2.png"" style=""width:200px; border:14px solid green;"">","null","","","","","",""
"","image-keyboard-response","146","152400","0.0-146.0","3JRJSWSMQI76M9V2P9LGCFPMWRY3EE","A3DW6KSQPG6GVQ","3TZDZ3Y0JSSRVQSC3SM97PDQ3Z7196","","510.1000000005588","img/animal1.png","74","510.79999999981374","1","0","1","0.7,0,0.8,0.7,0.8,0,0.7,0.8,0",""
"","html-keyboard-response","147","152701","0.0-147.0","3JRJSWSMQI76M9V2P9LGCFPMWRY3EE","A3DW6KSQPG6GVQ","3TZDZ3Y0JSSRVQSC3SM97PDQ3Z7196","","null","<img src=""img/animal1.png"" style=""width:200px;border:14px solid red;"">","null","","","","","",""
"","image-keyboard-response","148","153481","0.0-148.0","3JRJSWSMQI76M9V2P9LGCFPMWRY3EE","A3DW6KSQPG6GVQ","3TZDZ3Y0JSSRVQSC3SM97PDQ3Z7196","","778.6000000005588","img/animal2.png","75","779.5","2","1","3","0.7,0,0.8,0.7,0.8,0,0.7,0.8,0",""
"","html-keyboard-response","149","153794","0.0-149.0","3JRJSWSMQI76M9V2P9LGCFPMWRY3EE","A3DW6KSQPG6GVQ","3TZDZ3Y0JSSRVQSC3SM97PDQ3Z7196","","null","<img src=""img/animal2.png"" style=""width:200px; border:14px solid green;"">","null","","","","","",""
"","image-keyboard-response","150","154353","0.0-150.0","3JRJSWSMQI76M9V2P9LGCFPMWRY3EE","A3DW6KSQPG6GVQ","3TZDZ3Y0JSSRVQSC3SM97PDQ3Z7196","","558","img/animal5.png","74","559","1","0","2","0.7,0,0.8,0.7,0.8,0,0.7,0.8,0",""
"","html-keyboard-response","151","154655","0.0-151.0","3JRJSWSMQI76M9V2P9LGCFPMWRY3EE","A3DW6KSQPG6GVQ","3TZDZ3Y0JSSRVQSC3SM97PDQ3Z7196","","null","<img src=""img/animal5.png"" style=""width:200px;border:14px solid red;"">","null","","","","","",""
"","image-keyboard-response","152","155283","0.0-152.0","3JRJSWSMQI76M9V2P9LGCFPMWRY3EE","A3DW6KSQPG6GVQ","3TZDZ3Y0JSSRVQSC3SM97PDQ3Z7196","","626.2999999998137","img/animal5.png","76","626.9000000003725","3","0","2","0.7,0,0.8,0.7,0.8,0,0.7,0.8,0",""
"","html-keyboard-response","153","155585","0.0-153.0","3JRJSWSMQI76M9V2P9LGCFPMWRY3EE","A3DW6KSQPG6GVQ","3TZDZ3Y0JSSRVQSC3SM97PDQ3Z7196","","null","<img src=""img/animal5.png"" style=""width:200px;border:14px solid red;"">","null","","","","","",""
"","image-keyboard-response","154","156197","0.0-154.0","3JRJSWSMQI76M9V2P9LGCFPMWRY3EE","A3DW6KSQPG6GVQ","3TZDZ3Y0JSSRVQSC3SM97PDQ3Z7196","","611","img/animal2.png","75","611.7999999998137","2","1","3","0.7,0,0.8,0.7,0.8,0,0.7,0.8,0",""
"","html-keyboard-response","155","156498","0.0-155.0","3JRJSWSMQI76M9V2P9LGCFPMWRY3EE","A3DW6KSQPG6GVQ","3TZDZ3Y0JSSRVQSC3SM97PDQ3Z7196","","null","<img src=""img/animal2.png"" style=""width:200px; border:14px solid green;"">","null","","","","","",""
"","image-keyboard-response","156","157006","0.0-156.0","3JRJSWSMQI76M9V2P9LGCFPMWRY3EE","A3DW6KSQPG6GVQ","3TZDZ3Y0JSSRVQSC3SM97PDQ3Z7196","","506.5","img/animal5.png","74","507.20000000018626","1","0","2","0.7,0,0.8,0.7,0.8,0,0.7,0.8,0",""
"","html-keyboard-response","157","157307","0.0-157.0","3JRJSWSMQI76M9V2P9LGCFPMWRY3EE","A3DW6KSQPG6GVQ","3TZDZ3Y0JSSRVQSC3SM97PDQ3Z7196","","null","<img src=""img/animal5.png"" style=""width:200px;border:14px solid red;"">","null","","","","","",""
"","image-keyboard-response","158","157980","0.0-158.0","3JRJSWSMQI76M9V2P9LGCFPMWRY3EE","A3DW6KSQPG6GVQ","3TZDZ3Y0JSSRVQSC3SM97PDQ3Z7196","","671.5","img/animal1.png","74","672.3000000007451","1","1","1","0.7,0,0.8,0.7,0.8,0,0.7,0.8,0",""
"","html-keyboard-response","159","158293","0.0-159.0","3JRJSWSMQI76M9V2P9LGCFPMWRY3EE","A3DW6KSQPG6GVQ","3TZDZ3Y0JSSRVQSC3SM97PDQ3Z7196","","null","<img src=""img/animal1.png"" style=""width:200px; border:14px solid green;"">","null","","","","","",""
"","image-keyboard-response","160","158919","0.0-160.0","3JRJSWSMQI76M9V2P9LGCFPMWRY3EE","A3DW6KSQPG6GVQ","3TZDZ3Y0JSSRVQSC3SM97PDQ3Z7196","","624.9000000003725","img/animal2.png","75","625.7000000001863","2","1","3","0.7,0,0.8,0.7,0.8,0,0.7,0.8,0",""
"","html-keyboard-response","161","159220","0.0-161.0","3JRJSWSMQI76M9V2P9LGCFPMWRY3EE","A3DW6KSQPG6GVQ","3TZDZ3Y0JSSRVQSC3SM97PDQ3Z7196","","null","<img src=""img/animal2.png"" style=""width:200px; border:14px solid green;"">","null","","","","","",""
"","image-keyboard-response","162","160000","0.0-162.0","3JRJSWSMQI76M9V2P9LGCFPMWRY3EE","A3DW6KSQPG6GVQ","3TZDZ3Y0JSSRVQSC3SM97PDQ3Z7196","","779.4000000003725","img/animal1.png","74","780","1","0","1","0.7,0,0.8,0.7,0.8,0,0.7,0.8,0",""
"","html-keyboard-response","163","160303","0.0-163.0","3JRJSWSMQI76M9V2P9LGCFPMWRY3EE","A3DW6KSQPG6GVQ","3TZDZ3Y0JSSRVQSC3SM97PDQ3Z7196","","null","<img src=""img/animal1.png"" style=""width:200px;border:14px solid red;"">","null","","","","","",""
"","image-keyboard-response","164","161072","0.0-164.0","3JRJSWSMQI76M9V2P9LGCFPMWRY3EE","A3DW6KSQPG6GVQ","3TZDZ3Y0JSSRVQSC3SM97PDQ3Z7196","","767.5","img/animal1.png","76","768.2000000001863","3","1","1","0.7,0,0.8,0.7,0.8,0,0.7,0.8,0",""
"","html-keyboard-response","165","161375","0.0-165.0","3JRJSWSMQI76M9V2P9LGCFPMWRY3EE","A3DW6KSQPG6GVQ","3TZDZ3Y0JSSRVQSC3SM97PDQ3Z7196","","null","<img src=""img/animal1.png"" style=""width:200px; border:14px solid green;"">","null","","","","","",""
"","image-keyboard-response","166","162566","0.0-166.0","3JRJSWSMQI76M9V2P9LGCFPMWRY3EE","A3DW6KSQPG6GVQ","3TZDZ3Y0JSSRVQSC3SM97PDQ3Z7196","","1190.0999999996275","img/animal5.png","74","1190.800000000745","1","1","2","0.7,0,0.8,0.7,0.8,0,0.7,0.8,0",""
"","html-keyboard-response","167","162867","0.0-167.0","3JRJSWSMQI76M9V2P9LGCFPMWRY3EE","A3DW6KSQPG6GVQ","3TZDZ3Y0JSSRVQSC3SM97PDQ3Z7196","","null","<img src=""img/animal5.png"" style=""width:200px; border:14px solid green;"">","null","","","","","",""
"","image-keyboard-response","168","164527","0.0-168.0","3JRJSWSMQI76M9V2P9LGCFPMWRY3EE","A3DW6KSQPG6GVQ","3TZDZ3Y0JSSRVQSC3SM97PDQ3Z7196","","1658.7999999998137","img/animal2.png","75","1659.5","2","1","3","0.7,0,0.8,0.7,0.8,0,0.7,0.8,0",""
"","html-keyboard-response","169","164829","0.0-169.0","3JRJSWSMQI76M9V2P9LGCFPMWRY3EE","A3DW6KSQPG6GVQ","3TZDZ3Y0JSSRVQSC3SM97PDQ3Z7196","","null","<img src=""img/animal2.png"" style=""width:200px; border:14px solid green;"">","null","","","","","",""
"","image-keyboard-response","170","165346","0.0-170.0","3JRJSWSMQI76M9V2P9LGCFPMWRY3EE","A3DW6KSQPG6GVQ","3TZDZ3Y0JSSRVQSC3SM97PDQ3Z7196","","516","img/animal1.png","74","516.7999999998137","1","0","1","0.7,0,0.8,0.7,0.8,0,0.7,0.8,0",""
"","html-keyboard-response","171","165648","0.0-171.0","3JRJSWSMQI76M9V2P9LGCFPMWRY3EE","A3DW6KSQPG6GVQ","3TZDZ3Y0JSSRVQSC3SM97PDQ3Z7196","","null","<img src=""img/animal1.png"" style=""width:200px;border:14px solid red;"">","null","","","","","",""
"","image-keyboard-response","172","166009","0.0-172.0","3JRJSWSMQI76M9V2P9LGCFPMWRY3EE","A3DW6KSQPG6GVQ","3TZDZ3Y0JSSRVQSC3SM97PDQ3Z7196","","359.79999999981374","img/animal1.png","76","360.59999999962747","3","1","1","0.7,0,0.8,0.7,0.8,0,0.7,0.8,0",""
"","html-keyboard-response","173","166310","0.0-173.0","3JRJSWSMQI76M9V2P9LGCFPMWRY3EE","A3DW6KSQPG6GVQ","3TZDZ3Y0JSSRVQSC3SM97PDQ3Z7196","","null","<img src=""img/animal1.png"" style=""width:200px; border:14px solid green;"">","null","","","","","",""
"","image-keyboard-response","174","166974","0.0-174.0","3JRJSWSMQI76M9V2P9LGCFPMWRY3EE","A3DW6KSQPG6GVQ","3TZDZ3Y0JSSRVQSC3SM97PDQ3Z7196","","662.7999999998137","img/animal5.png","74","663.6000000005588","1","0","2","0.7,0,0.8,0.7,0.8,0,0.7,0.8,0",""
"","html-keyboard-response","175","167276","0.0-175.0","3JRJSWSMQI76M9V2P9LGCFPMWRY3EE","A3DW6KSQPG6GVQ","3TZDZ3Y0JSSRVQSC3SM97PDQ3Z7196","","null","<img src=""img/animal5.png"" style=""width:200px;border:14px solid red;"">","null","","","","","",""
"","image-keyboard-response","176","167811","0.0-176.0","3JRJSWSMQI76M9V2P9LGCFPMWRY3EE","A3DW6KSQPG6GVQ","3TZDZ3Y0JSSRVQSC3SM97PDQ3Z7196","","534","img/animal5.png","75","534.9000000003725","2","1","2","0.7,0,0.8,0.7,0.8,0,0.7,0.8,0",""
"","html-keyboard-response","177","168113","0.0-177.0","3JRJSWSMQI76M9V2P9LGCFPMWRY3EE","A3DW6KSQPG6GVQ","3TZDZ3Y0JSSRVQSC3SM97PDQ3Z7196","","null","<img src=""img/animal5.png"" style=""width:200px; border:14px solid green;"">","null","","","","","",""
"","image-keyboard-response","178","169305","0.0-178.0","3JRJSWSMQI76M9V2P9LGCFPMWRY3EE","A3DW6KSQPG6GVQ","3TZDZ3Y0JSSRVQSC3SM97PDQ3Z7196","","1190.5","img/animal2.png","75","1191.4000000003725","2","1","3","0.7,0,0.8,0.7,0.8,0,0.7,0.8,0",""
"","html-keyboard-response","179","169606","0.0-179.0","3JRJSWSMQI76M9V2P9LGCFPMWRY3EE","A3DW6KSQPG6GVQ","3TZDZ3Y0JSSRVQSC3SM97PDQ3Z7196","","null","<img src=""img/animal2.png"" style=""width:200px; border:14px solid green;"">","null","","","","","",""
"","image-keyboard-response","180","169923","0.0-180.0","3JRJSWSMQI76M9V2P9LGCFPMWRY3EE","A3DW6KSQPG6GVQ","3TZDZ3Y0JSSRVQSC3SM97PDQ3Z7196","","316","img/animal2.png","75","316.79999999981374","2","1","3","0.7,0,0.8,0.7,0.8,0,0.7,0.8,0",""
"","html-keyboard-response","181","170225","0.0-181.0","3JRJSWSMQI76M9V2P9LGCFPMWRY3EE","A3DW6KSQPG6GVQ","3TZDZ3Y0JSSRVQSC3SM97PDQ3Z7196","","null","<img src=""img/animal2.png"" style=""width:200px; border:14px solid green;"">","null","","","","","",""
"","html-keyboard-response","182","172627","0.0-182.0","3JRJSWSMQI76M9V2P9LGCFPMWRY3EE","A3DW6KSQPG6GVQ","3TZDZ3Y0JSSRVQSC3SM97PDQ3Z7196","","","","","","","","","",""
"","image-keyboard-response","183","175198","0.0-183.0","3JRJSWSMQI76M9V2P9LGCFPMWRY3EE","A3DW6KSQPG6GVQ","3TZDZ3Y0JSSRVQSC3SM97PDQ3Z7196","","2569.9000000003725","img/animal3.png","74","2571.100000000559","1","0","3","0.5,0,1,1,0.5,0,0,1,0.5",""
"","html-keyboard-response","184","175500","0.0-184.0","3JRJSWSMQI76M9V2P9LGCFPMWRY3EE","A3DW6KSQPG6GVQ","3TZDZ3Y0JSSRVQSC3SM97PDQ3Z7196","","null","<img src=""img/animal3.png"" style=""width:200px;border:14px solid red;"">","null","","","","","",""
"","image-keyboard-response","185","176735","0.0-185.0","3JRJSWSMQI76M9V2P9LGCFPMWRY3EE","A3DW6KSQPG6GVQ","3TZDZ3Y0JSSRVQSC3SM97PDQ3Z7196","","1233.9000000003725","img/animal6.png","74","1234.7000000001863","1","1","1","0.5,0,1,1,0.5,0,0,1,0.5",""
"","html-keyboard-response","186","177037","0.0-186.0","3JRJSWSMQI76M9V2P9LGCFPMWRY3EE","A3DW6KSQPG6GVQ","3TZDZ3Y0JSSRVQSC3SM97PDQ3Z7196","","null","<img src=""img/animal6.png"" style=""width:200px; border:14px solid green;"">","null","","","","","",""
"","image-keyboard-response","187","179524","0.0-187.0","3JRJSWSMQI76M9V2P9LGCFPMWRY3EE","A3DW6KSQPG6GVQ","3TZDZ3Y0JSSRVQSC3SM97PDQ3Z7196","","2486","img/animal3.png","75","2486.7999999998137","2","1","3","0.5,0,1,1,0.5,0,0,1,0.5",""
"","html-keyboard-response","188","179826","0.0-188.0","3JRJSWSMQI76M9V2P9LGCFPMWRY3EE","A3DW6KSQPG6GVQ","3TZDZ3Y0JSSRVQSC3SM97PDQ3Z7196","","null","<img src=""img/animal3.png"" style=""width:200px; border:14px solid green;"">","null","","","","","",""
"","image-keyboard-response","189","181278","0.0-189.0","3JRJSWSMQI76M9V2P9LGCFPMWRY3EE","A3DW6KSQPG6GVQ","3TZDZ3Y0JSSRVQSC3SM97PDQ3Z7196","","1450.5999999996275","img/animal6.png","74","1451.7000000001863","1","0","1","0.5,0,1,1,0.5,0,0,1,0.5",""
"","html-keyboard-response","190","181580","0.0-190.0","3JRJSWSMQI76M9V2P9LGCFPMWRY3EE","A3DW6KSQPG6GVQ","3TZDZ3Y0JSSRVQSC3SM97PDQ3Z7196","","null","<img src=""img/animal6.png"" style=""width:200px;border:14px solid red;"">","null","","","","","",""
"","image-keyboard-response","191","182011","0.0-191.0","3JRJSWSMQI76M9V2P9LGCFPMWRY3EE","A3DW6KSQPG6GVQ","3TZDZ3Y0JSSRVQSC3SM97PDQ3Z7196","","429.70000000018626","img/animal6.png","76","430.80000000074506","3","1","1","0.5,0,1,1,0.5,0,0,1,0.5",""
"","html-keyboard-response","192","182313","0.0-192.0","3JRJSWSMQI76M9V2P9LGCFPMWRY3EE","A3DW6KSQPG6GVQ","3TZDZ3Y0JSSRVQSC3SM97PDQ3Z7196","","null","<img src=""img/animal6.png"" style=""width:200px; border:14px solid green;"">","null","","","","","",""
"","image-keyboard-response","193","183148","0.0-193.0","3JRJSWSMQI76M9V2P9LGCFPMWRY3EE","A3DW6KSQPG6GVQ","3TZDZ3Y0JSSRVQSC3SM97PDQ3Z7196","","833.7999999998137","img/animal6.png","76","834.5999999996275","3","1","1","0.5,0,1,1,0.5,0,0,1,0.5",""
"","html-keyboard-response","194","183456","0.0-194.0","3JRJSWSMQI76M9V2P9LGCFPMWRY3EE","A3DW6KSQPG6GVQ","3TZDZ3Y0JSSRVQSC3SM97PDQ3Z7196","","null","<img src=""img/animal6.png"" style=""width:200px; border:14px solid green;"">","null","","","","","",""
"","image-keyboard-response","195","184847","0.0-195.0","3JRJSWSMQI76M9V2P9LGCFPMWRY3EE","A3DW6KSQPG6GVQ","3TZDZ3Y0JSSRVQSC3SM97PDQ3Z7196","","1389.5999999996275","img/animal4.png","75","1390.5999999996275","2","0","2","0.5,0,1,1,0.5,0,0,1,0.5",""
"","html-keyboard-response","196","185148","0.0-196.0","3JRJSWSMQI76M9V2P9LGCFPMWRY3EE","A3DW6KSQPG6GVQ","3TZDZ3Y0JSSRVQSC3SM97PDQ3Z7196","","null","<img src=""img/animal4.png"" style=""width:200px;border:14px solid red;"">","null","","","","","",""
"","image-keyboard-response","197","185516","0.0-197.0","3JRJSWSMQI76M9V2P9LGCFPMWRY3EE","A3DW6KSQPG6GVQ","3TZDZ3Y0JSSRVQSC3SM97PDQ3Z7196","","366.8999999994412","img/animal4.png","74","368.59999999962747","1","1","2","0.5,0,1,1,0.5,0,0,1,0.5",""
"","html-keyboard-response","198","185819","0.0-198.0","3JRJSWSMQI76M9V2P9LGCFPMWRY3EE","A3DW6KSQPG6GVQ","3TZDZ3Y0JSSRVQSC3SM97PDQ3Z7196","","null","<img src=""img/animal4.png"" style=""width:200px; border:14px solid green;"">","null","","","","","",""
"","image-keyboard-response","199","188485","0.0-199.0","3JRJSWSMQI76M9V2P9LGCFPMWRY3EE","A3DW6KSQPG6GVQ","3TZDZ3Y0JSSRVQSC3SM97PDQ3Z7196","","2665.0999999996275","img/animal6.png","74","2665.7000000001863","1","1","1","0.5,0,1,1,0.5,0,0,1,0.5",""
"","html-keyboard-response","200","188798","0.0-200.0","3JRJSWSMQI76M9V2P9LGCFPMWRY3EE","A3DW6KSQPG6GVQ","3TZDZ3Y0JSSRVQSC3SM97PDQ3Z7196","","null","<img src=""img/animal6.png"" style=""width:200px; border:14px solid green;"">","null","","","","","",""
"","image-keyboard-response","201","189865","0.0-201.0","3JRJSWSMQI76M9V2P9LGCFPMWRY3EE","A3DW6KSQPG6GVQ","3TZDZ3Y0JSSRVQSC3SM97PDQ3Z7196","","1065.9000000003725","img/animal4.png","74","1066.699999999255","1","1","2","0.5,0,1,1,0.5,0,0,1,0.5",""
"","html-keyboard-response","202","190166","0.0-202.0","3JRJSWSMQI76M9V2P9LGCFPMWRY3EE","A3DW6KSQPG6GVQ","3TZDZ3Y0JSSRVQSC3SM97PDQ3Z7196","","null","<img src=""img/animal4.png"" style=""width:200px; border:14px solid green;"">","null","","","","","",""
"","image-keyboard-response","203","190987","0.0-203.0","3JRJSWSMQI76M9V2P9LGCFPMWRY3EE","A3DW6KSQPG6GVQ","3TZDZ3Y0JSSRVQSC3SM97PDQ3Z7196","","820.2999999998137","img/animal3.png","75","821.0999999996275","2","1","3","0.5,0,1,1,0.5,0,0,1,0.5",""
"","html-keyboard-response","204","191290","0.0-204.0","3JRJSWSMQI76M9V2P9LGCFPMWRY3EE","A3DW6KSQPG6GVQ","3TZDZ3Y0JSSRVQSC3SM97PDQ3Z7196","","null","<img src=""img/animal3.png"" style=""width:200px; border:14px solid green;"">","null","","","","","",""
"","image-keyboard-response","205","191936","0.0-205.0","3JRJSWSMQI76M9V2P9LGCFPMWRY3EE","A3DW6KSQPG6GVQ","3TZDZ3Y0JSSRVQSC3SM97PDQ3Z7196","","645.1999999992549","img/animal6.png","74","646.0999999996275","1","0","1","0.5,0,1,1,0.5,0,0,1,0.5",""
"","html-keyboard-response","206","192237","0.0-206.0","3JRJSWSMQI76M9V2P9LGCFPMWRY3EE","A3DW6KSQPG6GVQ","3TZDZ3Y0JSSRVQSC3SM97PDQ3Z7196","","null","<img src=""img/animal6.png"" style=""width:200px;border:14px solid red;"">","null","","","","","",""
"","image-keyboard-response","207","192752","0.0-207.0","3JRJSWSMQI76M9V2P9LGCFPMWRY3EE","A3DW6KSQPG6GVQ","3TZDZ3Y0JSSRVQSC3SM97PDQ3Z7196","","512.7999999998137","img/animal6.png","76","513.8000000007451","3","1","1","0.5,0,1,1,0.5,0,0,1,0.5",""
"","html-keyboard-response","208","193055","0.0-208.0","3JRJSWSMQI76M9V2P9LGCFPMWRY3EE","A3DW6KSQPG6GVQ","3TZDZ3Y0JSSRVQSC3SM97PDQ3Z7196","","null","<img src=""img/animal6.png"" style=""width:200px; border:14px solid green;"">","null","","","","","",""
"","image-keyboard-response","209","193825","0.0-209.0","3JRJSWSMQI76M9V2P9LGCFPMWRY3EE","A3DW6KSQPG6GVQ","3TZDZ3Y0JSSRVQSC3SM97PDQ3Z7196","","768.1999999992549","img/animal6.png","76","768.9000000003725","3","1","1","0.5,0,1,1,0.5,0,0,1,0.5",""
"","html-keyboard-response","210","194127","0.0-210.0","3JRJSWSMQI76M9V2P9LGCFPMWRY3EE","A3DW6KSQPG6GVQ","3TZDZ3Y0JSSRVQSC3SM97PDQ3Z7196","","null","<img src=""img/animal6.png"" style=""width:200px; border:14px solid green;"">","null","","","","","",""
"","image-keyboard-response","211","194874","0.0-211.0","3JRJSWSMQI76M9V2P9LGCFPMWRY3EE","A3DW6KSQPG6GVQ","3TZDZ3Y0JSSRVQSC3SM97PDQ3Z7196","","746.2999999998137","img/animal3.png","75","747","2","1","3","0.5,0,1,1,0.5,0,0,1,0.5",""
"","html-keyboard-response","212","195175","0.0-212.0","3JRJSWSMQI76M9V2P9LGCFPMWRY3EE","A3DW6KSQPG6GVQ","3TZDZ3Y0JSSRVQSC3SM97PDQ3Z7196","","null","<img src=""img/animal3.png"" style=""width:200px; border:14px solid green;"">","null","","","","","",""
"","image-keyboard-response","213","196782","0.0-213.0","3JRJSWSMQI76M9V2P9LGCFPMWRY3EE","A3DW6KSQPG6GVQ","3TZDZ3Y0JSSRVQSC3SM97PDQ3Z7196","","1605.5","img/animal3.png","75","1606.2000000001863","2","1","3","0.5,0,1,1,0.5,0,0,1,0.5",""
"","html-keyboard-response","214","197084","0.0-214.0","3JRJSWSMQI76M9V2P9LGCFPMWRY3EE","A3DW6KSQPG6GVQ","3TZDZ3Y0JSSRVQSC3SM97PDQ3Z7196","","null","<img src=""img/animal3.png"" style=""width:200px; border:14px solid green;"">","null","","","","","",""
"","image-keyboard-response","215","197483","0.0-215.0","3JRJSWSMQI76M9V2P9LGCFPMWRY3EE","A3DW6KSQPG6GVQ","3TZDZ3Y0JSSRVQSC3SM97PDQ3Z7196","","398.1000000005588","img/animal3.png","75","399","2","1","3","0.5,0,1,1,0.5,0,0,1,0.5",""
"","html-keyboard-response","216","197785","0.0-216.0","3JRJSWSMQI76M9V2P9LGCFPMWRY3EE","A3DW6KSQPG6GVQ","3TZDZ3Y0JSSRVQSC3SM97PDQ3Z7196","","null","<img src=""img/animal3.png"" style=""width:200px; border:14px solid green;"">","null","","","","","",""
"","image-keyboard-response","217","198677","0.0-217.0","3JRJSWSMQI76M9V2P9LGCFPMWRY3EE","A3DW6KSQPG6GVQ","3TZDZ3Y0JSSRVQSC3SM97PDQ3Z7196","","891.1000000005588","img/animal4.png","74","891.8999999994412","1","1","2","0.5,0,1,1,0.5,0,0,1,0.5",""
"","html-keyboard-response","218","198979","0.0-218.0","3JRJSWSMQI76M9V2P9LGCFPMWRY3EE","A3DW6KSQPG6GVQ","3TZDZ3Y0JSSRVQSC3SM97PDQ3Z7196","","null","<img src=""img/animal4.png"" style=""width:200px; border:14px solid green;"">","null","","","","","",""
"","image-keyboard-response","219","199376","0.0-219.0","3JRJSWSMQI76M9V2P9LGCFPMWRY3EE","A3DW6KSQPG6GVQ","3TZDZ3Y0JSSRVQSC3SM97PDQ3Z7196","","395.5","img/animal4.png","74","396.40000000037253","1","1","2","0.5,0,1,1,0.5,0,0,1,0.5",""
"","html-keyboard-response","220","199677","0.0-220.0","3JRJSWSMQI76M9V2P9LGCFPMWRY3EE","A3DW6KSQPG6GVQ","3TZDZ3Y0JSSRVQSC3SM97PDQ3Z7196","","null","<img src=""img/animal4.png"" style=""width:200px; border:14px solid green;"">","null","","","","","",""
"","image-keyboard-response","221","200365","0.0-221.0","3JRJSWSMQI76M9V2P9LGCFPMWRY3EE","A3DW6KSQPG6GVQ","3TZDZ3Y0JSSRVQSC3SM97PDQ3Z7196","","686.7999999998137","img/animal6.png","74","687.5","1","1","1","0.5,0,1,1,0.5,0,0,1,0.5",""
"","html-keyboard-response","222","200666","0.0-222.0","3JRJSWSMQI76M9V2P9LGCFPMWRY3EE","A3DW6KSQPG6GVQ","3TZDZ3Y0JSSRVQSC3SM97PDQ3Z7196","","null","<img src=""img/animal6.png"" style=""width:200px; border:14px solid green;"">","null","","","","","",""
"","image-keyboard-response","223","201402","0.0-223.0","3JRJSWSMQI76M9V2P9LGCFPMWRY3EE","A3DW6KSQPG6GVQ","3TZDZ3Y0JSSRVQSC3SM97PDQ3Z7196","","735.0999999996275","img/animal3.png","75","735.7000000001863","2","1","3","0.5,0,1,1,0.5,0,0,1,0.5",""
"","html-keyboard-response","224","201704","0.0-224.0","3JRJSWSMQI76M9V2P9LGCFPMWRY3EE","A3DW6KSQPG6GVQ","3TZDZ3Y0JSSRVQSC3SM97PDQ3Z7196","","null","<img src=""img/animal3.png"" style=""width:200px; border:14px solid green;"">","null","","","","","",""
"","image-keyboard-response","225","202134","0.0-225.0","3JRJSWSMQI76M9V2P9LGCFPMWRY3EE","A3DW6KSQPG6GVQ","3TZDZ3Y0JSSRVQSC3SM97PDQ3Z7196","","428.70000000018626","img/animal3.png","75","429.5","2","1","3","0.5,0,1,1,0.5,0,0,1,0.5",""
"","html-keyboard-response","226","202440","0.0-226.0","3JRJSWSMQI76M9V2P9LGCFPMWRY3EE","A3DW6KSQPG6GVQ","3TZDZ3Y0JSSRVQSC3SM97PDQ3Z7196","","null","<img src=""img/animal3.png"" style=""width:200px; border:14px solid green;"">","null","","","","","",""
"","image-keyboard-response","227","203063","0.0-227.0","3JRJSWSMQI76M9V2P9LGCFPMWRY3EE","A3DW6KSQPG6GVQ","3TZDZ3Y0JSSRVQSC3SM97PDQ3Z7196","","622.6000000005588","img/animal6.png","74","623.5","1","0","1","0.5,0,1,1,0.5,0,0,1,0.5",""
"","html-keyboard-response","228","203365","0.0-228.0","3JRJSWSMQI76M9V2P9LGCFPMWRY3EE","A3DW6KSQPG6GVQ","3TZDZ3Y0JSSRVQSC3SM97PDQ3Z7196","","null","<img src=""img/animal6.png"" style=""width:200px;border:14px solid red;"">","null","","","","","",""
"","image-keyboard-response","229","204578","0.0-229.0","3JRJSWSMQI76M9V2P9LGCFPMWRY3EE","A3DW6KSQPG6GVQ","3TZDZ3Y0JSSRVQSC3SM97PDQ3Z7196","","1212","img/animal4.png","74","1212.7999999998137","1","1","2","0.5,0,1,1,0.5,0,0,1,0.5",""
"","html-keyboard-response","230","204880","0.0-230.0","3JRJSWSMQI76M9V2P9LGCFPMWRY3EE","A3DW6KSQPG6GVQ","3TZDZ3Y0JSSRVQSC3SM97PDQ3Z7196","","null","<img src=""img/animal4.png"" style=""width:200px; border:14px solid green;"">","null","","","","","",""
"","image-keyboard-response","231","205558","0.0-231.0","3JRJSWSMQI76M9V2P9LGCFPMWRY3EE","A3DW6KSQPG6GVQ","3TZDZ3Y0JSSRVQSC3SM97PDQ3Z7196","","676.5999999996275","img/animal3.png","75","677.5","2","1","3","0.5,0,1,1,0.5,0,0,1,0.5",""
"","html-keyboard-response","232","205859","0.0-232.0","3JRJSWSMQI76M9V2P9LGCFPMWRY3EE","A3DW6KSQPG6GVQ","3TZDZ3Y0JSSRVQSC3SM97PDQ3Z7196","","null","<img src=""img/animal3.png"" style=""width:200px; border:14px solid green;"">","null","","","","","",""
"","image-keyboard-response","233","206288","0.0-233.0","3JRJSWSMQI76M9V2P9LGCFPMWRY3EE","A3DW6KSQPG6GVQ","3TZDZ3Y0JSSRVQSC3SM97PDQ3Z7196","","427.3999999994412","img/animal3.png","75","428.5","2","1","3","0.5,0,1,1,0.5,0,0,1,0.5",""
"","html-keyboard-response","234","206590","0.0-234.0","3JRJSWSMQI76M9V2P9LGCFPMWRY3EE","A3DW6KSQPG6GVQ","3TZDZ3Y0JSSRVQSC3SM97PDQ3Z7196","","null","<img src=""img/animal3.png"" style=""width:200px; border:14px solid green;"">","null","","","","","",""
"","image-keyboard-response","235","207270","0.0-235.0","3JRJSWSMQI76M9V2P9LGCFPMWRY3EE","A3DW6KSQPG6GVQ","3TZDZ3Y0JSSRVQSC3SM97PDQ3Z7196","","679.1000000005588","img/animal6.png","74","679.7999999998137","1","0","1","0.5,0,1,1,0.5,0,0,1,0.5",""
"","html-keyboard-response","236","207572","0.0-236.0","3JRJSWSMQI76M9V2P9LGCFPMWRY3EE","A3DW6KSQPG6GVQ","3TZDZ3Y0JSSRVQSC3SM97PDQ3Z7196","","null","<img src=""img/animal6.png"" style=""width:200px;border:14px solid red;"">","null","","","","","",""
"","image-keyboard-response","237","208615","0.0-237.0","3JRJSWSMQI76M9V2P9LGCFPMWRY3EE","A3DW6KSQPG6GVQ","3TZDZ3Y0JSSRVQSC3SM97PDQ3Z7196","","1042.5999999996275","img/animal4.png","74","1043.2999999998137","1","1","2","0.5,0,1,1,0.5,0,0,1,0.5",""
"","html-keyboard-response","238","208918","0.0-238.0","3JRJSWSMQI76M9V2P9LGCFPMWRY3EE","A3DW6KSQPG6GVQ","3TZDZ3Y0JSSRVQSC3SM97PDQ3Z7196","","null","<img src=""img/animal4.png"" style=""width:200px; border:14px solid green;"">","null","","","","","",""
"","image-keyboard-response","239","209862","0.0-239.0","3JRJSWSMQI76M9V2P9LGCFPMWRY3EE","A3DW6KSQPG6GVQ","3TZDZ3Y0JSSRVQSC3SM97PDQ3Z7196","","943.2999999998137","img/animal6.png","76","944.2999999998137","3","1","1","0.5,0,1,1,0.5,0,0,1,0.5",""
"","html-keyboard-response","240","210164","0.0-240.0","3JRJSWSMQI76M9V2P9LGCFPMWRY3EE","A3DW6KSQPG6GVQ","3TZDZ3Y0JSSRVQSC3SM97PDQ3Z7196","","null","<img src=""img/animal6.png"" style=""width:200px; border:14px solid green;"">","null","","","","","",""
"","image-keyboard-response","241","210622","0.0-241.0","3JRJSWSMQI76M9V2P9LGCFPMWRY3EE","A3DW6KSQPG6GVQ","3TZDZ3Y0JSSRVQSC3SM97PDQ3Z7196","","457.1000000005588","img/animal6.png","76","458.1000000005588","3","1","1","0.5,0,1,1,0.5,0,0,1,0.5",""
"","html-keyboard-response","242","210924","0.0-242.0","3JRJSWSMQI76M9V2P9LGCFPMWRY3EE","A3DW6KSQPG6GVQ","3TZDZ3Y0JSSRVQSC3SM97PDQ3Z7196","","null","<img src=""img/animal6.png"" style=""width:200px; border:14px solid green;"">","null","","","","","",""
"","image-keyboard-response","243","211737","0.0-243.0","3JRJSWSMQI76M9V2P9LGCFPMWRY3EE","A3DW6KSQPG6GVQ","3TZDZ3Y0JSSRVQSC3SM97PDQ3Z7196","","812","img/animal4.png","74","812.8999999994412","1","1","2","0.5,0,1,1,0.5,0,0,1,0.5",""
"","html-keyboard-response","244","212039","0.0-244.0","3JRJSWSMQI76M9V2P9LGCFPMWRY3EE","A3DW6KSQPG6GVQ","3TZDZ3Y0JSSRVQSC3SM97PDQ3Z7196","","null","<img src=""img/animal4.png"" style=""width:200px; border:14px solid green;"">","null","","","","","",""
"","image-keyboard-response","245","212776","0.0-245.0","3JRJSWSMQI76M9V2P9LGCFPMWRY3EE","A3DW6KSQPG6GVQ","3TZDZ3Y0JSSRVQSC3SM97PDQ3Z7196","","736","img/animal3.png","75","736.7999999998137","2","1","3","0.5,0,1,1,0.5,0,0,1,0.5",""
"","html-keyboard-response","246","213077","0.0-246.0","3JRJSWSMQI76M9V2P9LGCFPMWRY3EE","A3DW6KSQPG6GVQ","3TZDZ3Y0JSSRVQSC3SM97PDQ3Z7196","","null","<img src=""img/animal3.png"" style=""width:200px; border:14px solid green;"">","null","","","","","",""
"","image-keyboard-response","247","213471","0.0-247.0","3JRJSWSMQI76M9V2P9LGCFPMWRY3EE","A3DW6KSQPG6GVQ","3TZDZ3Y0JSSRVQSC3SM97PDQ3Z7196","","392.20000000018626","img/animal3.png","75","393","2","1","3","0.5,0,1,1,0.5,0,0,1,0.5",""
"","html-keyboard-response","248","213772","0.0-248.0","3JRJSWSMQI76M9V2P9LGCFPMWRY3EE","A3DW6KSQPG6GVQ","3TZDZ3Y0JSSRVQSC3SM97PDQ3Z7196","","null","<img src=""img/animal3.png"" style=""width:200px; border:14px solid green;"">","null","","","","","",""
"","image-keyboard-response","249","214548","0.0-249.0","3JRJSWSMQI76M9V2P9LGCFPMWRY3EE","A3DW6KSQPG6GVQ","3TZDZ3Y0JSSRVQSC3SM97PDQ3Z7196","","774.4000000003725","img/animal3.png","75","775.1999999992549","2","1","3","0.5,0,1,1,0.5,0,0,1,0.5",""
"","html-keyboard-response","250","214849","0.0-250.0","3JRJSWSMQI76M9V2P9LGCFPMWRY3EE","A3DW6KSQPG6GVQ","3TZDZ3Y0JSSRVQSC3SM97PDQ3Z7196","","null","<img src=""img/animal3.png"" style=""width:200px; border:14px solid green;"">","null","","","","","",""
"","image-keyboard-response","251","216782","0.0-251.0","3JRJSWSMQI76M9V2P9LGCFPMWRY3EE","A3DW6KSQPG6GVQ","3TZDZ3Y0JSSRVQSC3SM97PDQ3Z7196","","1931.2000000001863","img/animal4.png","74","1932.2000000001863","1","1","2","0.5,0,1,1,0.5,0,0,1,0.5",""
"","html-keyboard-response","252","217083","0.0-252.0","3JRJSWSMQI76M9V2P9LGCFPMWRY3EE","A3DW6KSQPG6GVQ","3TZDZ3Y0JSSRVQSC3SM97PDQ3Z7196","","null","<img src=""img/animal4.png"" style=""width:200px; border:14px solid green;"">","null","","","","","",""
"","image-keyboard-response","253","217425","0.0-253.0","3JRJSWSMQI76M9V2P9LGCFPMWRY3EE","A3DW6KSQPG6GVQ","3TZDZ3Y0JSSRVQSC3SM97PDQ3Z7196","","340.69999999925494","img/animal4.png","74","341.59999999962747","1","1","2","0.5,0,1,1,0.5,0,0,1,0.5",""
"","html-keyboard-response","254","217733","0.0-254.0","3JRJSWSMQI76M9V2P9LGCFPMWRY3EE","A3DW6KSQPG6GVQ","3TZDZ3Y0JSSRVQSC3SM97PDQ3Z7196","","null","<img src=""img/animal4.png"" style=""width:200px; border:14px solid green;"">","null","","","","","",""
"","image-keyboard-response","255","218565","0.0-255.0","3JRJSWSMQI76M9V2P9LGCFPMWRY3EE","A3DW6KSQPG6GVQ","3TZDZ3Y0JSSRVQSC3SM97PDQ3Z7196","","830.5","img/animal6.png","74","831.2000000001863","1","0","1","0.5,0,1,1,0.5,0,0,1,0.5",""
"","html-keyboard-response","256","218866","0.0-256.0","3JRJSWSMQI76M9V2P9LGCFPMWRY3EE","A3DW6KSQPG6GVQ","3TZDZ3Y0JSSRVQSC3SM97PDQ3Z7196","","null","<img src=""img/animal6.png"" style=""width:200px;border:14px solid red;"">","null","","","","","",""
"","image-keyboard-response","257","218986","0.0-257.0","3JRJSWSMQI76M9V2P9LGCFPMWRY3EE","A3DW6KSQPG6GVQ","3TZDZ3Y0JSSRVQSC3SM97PDQ3Z7196","","118.29999999981374","img/animal6.png","76","119.20000000018626","3","1","1","0.5,0,1,1,0.5,0,0,1,0.5",""
"","html-keyboard-response","258","219287","0.0-258.0","3JRJSWSMQI76M9V2P9LGCFPMWRY3EE","A3DW6KSQPG6GVQ","3TZDZ3Y0JSSRVQSC3SM97PDQ3Z7196","","null","<img src=""img/animal6.png"" style=""width:200px; border:14px solid green;"">","null","","","","","",""
"","image-keyboard-response","259","219885","0.0-259.0","3JRJSWSMQI76M9V2P9LGCFPMWRY3EE","A3DW6KSQPG6GVQ","3TZDZ3Y0JSSRVQSC3SM97PDQ3Z7196","","597.5","img/animal3.png","75","598.2999999998137","2","1","3","0.5,0,1,1,0.5,0,0,1,0.5",""
"","html-keyboard-response","260","220187","0.0-260.0","3JRJSWSMQI76M9V2P9LGCFPMWRY3EE","A3DW6KSQPG6GVQ","3TZDZ3Y0JSSRVQSC3SM97PDQ3Z7196","","null","<img src=""img/animal3.png"" style=""width:200px; border:14px solid green;"">","null","","","","","",""
"","image-keyboard-response","261","221142","0.0-261.0","3JRJSWSMQI76M9V2P9LGCFPMWRY3EE","A3DW6KSQPG6GVQ","3TZDZ3Y0JSSRVQSC3SM97PDQ3Z7196","","954.2000000001863","img/animal6.png","74","955","1","1","1","0.5,0,1,1,0.5,0,0,1,0.5",""
"","html-keyboard-response","262","221445","0.0-262.0","3JRJSWSMQI76M9V2P9LGCFPMWRY3EE","A3DW6KSQPG6GVQ","3TZDZ3Y0JSSRVQSC3SM97PDQ3Z7196","","null","<img src=""img/animal6.png"" style=""width:200px; border:14px solid green;"">","null","","","","","",""
"","image-keyboard-response","263","223736","0.0-263.0","3JRJSWSMQI76M9V2P9LGCFPMWRY3EE","A3DW6KSQPG6GVQ","3TZDZ3Y0JSSRVQSC3SM97PDQ3Z7196","","2290.399999999441","img/animal4.png","74","2291.199999999255","1","1","2","0.5,0,1,1,0.5,0,0,1,0.5",""
"","html-keyboard-response","264","224038","0.0-264.0","3JRJSWSMQI76M9V2P9LGCFPMWRY3EE","A3DW6KSQPG6GVQ","3TZDZ3Y0JSSRVQSC3SM97PDQ3Z7196","","null","<img src=""img/animal4.png"" style=""width:200px; border:14px solid green;"">","null","","","","","",""
"","image-keyboard-response","265","224485","0.0-265.0","3JRJSWSMQI76M9V2P9LGCFPMWRY3EE","A3DW6KSQPG6GVQ","3TZDZ3Y0JSSRVQSC3SM97PDQ3Z7196","","445.80000000074506","img/animal4.png","74","446.59999999962747","1","1","2","0.5,0,1,1,0.5,0,0,1,0.5",""
"","html-keyboard-response","266","224787","0.0-266.0","3JRJSWSMQI76M9V2P9LGCFPMWRY3EE","A3DW6KSQPG6GVQ","3TZDZ3Y0JSSRVQSC3SM97PDQ3Z7196","","null","<img src=""img/animal4.png"" style=""width:200px; border:14px solid green;"">","null","","","","","",""
"","image-keyboard-response","267","225082","0.0-267.0","3JRJSWSMQI76M9V2P9LGCFPMWRY3EE","A3DW6KSQPG6GVQ","3TZDZ3Y0JSSRVQSC3SM97PDQ3Z7196","","294.5","img/animal4.png","74","295.29999999981374","1","1","2","0.5,0,1,1,0.5,0,0,1,0.5",""
"","html-keyboard-response","268","225384","0.0-268.0","3JRJSWSMQI76M9V2P9LGCFPMWRY3EE","A3DW6KSQPG6GVQ","3TZDZ3Y0JSSRVQSC3SM97PDQ3Z7196","","null","<img src=""img/animal4.png"" style=""width:200px; border:14px solid green;"">","null","","","","","",""
"","image-keyboard-response","269","226448","0.0-269.0","3JRJSWSMQI76M9V2P9LGCFPMWRY3EE","A3DW6KSQPG6GVQ","3TZDZ3Y0JSSRVQSC3SM97PDQ3Z7196","","1063.300000000745","img/animal6.png","76","1064.0999999996275","3","1","1","0.5,0,1,1,0.5,0,0,1,0.5",""
"","html-keyboard-response","270","226750","0.0-270.0","3JRJSWSMQI76M9V2P9LGCFPMWRY3EE","A3DW6KSQPG6GVQ","3TZDZ3Y0JSSRVQSC3SM97PDQ3Z7196","","null","<img src=""img/animal6.png"" style=""width:200px; border:14px solid green;"">","null","","","","","",""
"","image-keyboard-response","271","226851","0.0-271.0","3JRJSWSMQI76M9V2P9LGCFPMWRY3EE","A3DW6KSQPG6GVQ","3TZDZ3Y0JSSRVQSC3SM97PDQ3Z7196","","100.29999999981374","img/animal3.png","76","101.20000000018626","3","1","3","0.5,0,1,1,0.5,0,0,1,0.5",""
"","html-keyboard-response","272","227153","0.0-272.0","3JRJSWSMQI76M9V2P9LGCFPMWRY3EE","A3DW6KSQPG6GVQ","3TZDZ3Y0JSSRVQSC3SM97PDQ3Z7196","","null","<img src=""img/animal3.png"" style=""width:200px; border:14px solid green;"">","null","","","","","",""
"","image-keyboard-response","273","227524","0.0-273.0","3JRJSWSMQI76M9V2P9LGCFPMWRY3EE","A3DW6KSQPG6GVQ","3TZDZ3Y0JSSRVQSC3SM97PDQ3Z7196","","370.29999999981374","img/animal3.png","75","371.09999999962747","2","1","3","0.5,0,1,1,0.5,0,0,1,0.5",""
"","html-keyboard-response","274","227826","0.0-274.0","3JRJSWSMQI76M9V2P9LGCFPMWRY3EE","A3DW6KSQPG6GVQ","3TZDZ3Y0JSSRVQSC3SM97PDQ3Z7196","","null","<img src=""img/animal3.png"" style=""width:200px; border:14px solid green;"">","null","","","","","",""
"","image-keyboard-response","275","228798","0.0-275.0","3JRJSWSMQI76M9V2P9LGCFPMWRY3EE","A3DW6KSQPG6GVQ","3TZDZ3Y0JSSRVQSC3SM97PDQ3Z7196","","969.7000000001863","img/animal3.png","75","970.6999999992549","2","1","3","0.5,0,1,1,0.5,0,0,1,0.5",""
"","html-keyboard-response","276","229100","0.0-276.0","3JRJSWSMQI76M9V2P9LGCFPMWRY3EE","A3DW6KSQPG6GVQ","3TZDZ3Y0JSSRVQSC3SM97PDQ3Z7196","","null","<img src=""img/animal3.png"" style=""width:200px; border:14px solid green;"">","null","","","","","",""
"","image-keyboard-response","277","229777","0.0-277.0","3JRJSWSMQI76M9V2P9LGCFPMWRY3EE","A3DW6KSQPG6GVQ","3TZDZ3Y0JSSRVQSC3SM97PDQ3Z7196","","675.8999999994412","img/animal3.png","75","676.7000000001863","2","1","3","0.5,0,1,1,0.5,0,0,1,0.5",""
"","html-keyboard-response","278","230079","0.0-278.0","3JRJSWSMQI76M9V2P9LGCFPMWRY3EE","A3DW6KSQPG6GVQ","3TZDZ3Y0JSSRVQSC3SM97PDQ3Z7196","","null","<img src=""img/animal3.png"" style=""width:200px; border:14px solid green;"">","null","","","","","",""
"","image-keyboard-response","279","231609","0.0-279.0","3JRJSWSMQI76M9V2P9LGCFPMWRY3EE","A3DW6KSQPG6GVQ","3TZDZ3Y0JSSRVQSC3SM97PDQ3Z7196","","1529.300000000745","img/animal6.png","74","1530.2999999998137","1","0","1","0.5,0,1,1,0.5,0,0,1,0.5",""
"","html-keyboard-response","280","231911","0.0-280.0","3JRJSWSMQI76M9V2P9LGCFPMWRY3EE","A3DW6KSQPG6GVQ","3TZDZ3Y0JSSRVQSC3SM97PDQ3Z7196","","null","<img src=""img/animal6.png"" style=""width:200px;border:14px solid red;"">","null","","","","","",""
"","image-keyboard-response","281","232820","0.0-281.0","3JRJSWSMQI76M9V2P9LGCFPMWRY3EE","A3DW6KSQPG6GVQ","3TZDZ3Y0JSSRVQSC3SM97PDQ3Z7196","","908.1000000005588","img/animal4.png","74","908.7999999998137","1","1","2","0.5,0,1,1,0.5,0,0,1,0.5",""
"","html-keyboard-response","282","233122","0.0-282.0","3JRJSWSMQI76M9V2P9LGCFPMWRY3EE","A3DW6KSQPG6GVQ","3TZDZ3Y0JSSRVQSC3SM97PDQ3Z7196","","null","<img src=""img/animal4.png"" style=""width:200px; border:14px solid green;"">","null","","","","","",""
"","image-keyboard-response","283","233804","0.0-283.0","3JRJSWSMQI76M9V2P9LGCFPMWRY3EE","A3DW6KSQPG6GVQ","3TZDZ3Y0JSSRVQSC3SM97PDQ3Z7196","","681","img/animal3.png","75","681.7999999998137","2","1","3","0.5,0,1,1,0.5,0,0,1,0.5",""
"","html-keyboard-response","284","234105","0.0-284.0","3JRJSWSMQI76M9V2P9LGCFPMWRY3EE","A3DW6KSQPG6GVQ","3TZDZ3Y0JSSRVQSC3SM97PDQ3Z7196","","null","<img src=""img/animal3.png"" style=""width:200px; border:14px solid green;"">","null","","","","","",""
"","image-keyboard-response","285","235006","0.0-285.0","3JRJSWSMQI76M9V2P9LGCFPMWRY3EE","A3DW6KSQPG6GVQ","3TZDZ3Y0JSSRVQSC3SM97PDQ3Z7196","","899.6000000005588","img/animal4.png","76","900.3999999994412","3","0","2","0.5,0,1,1,0.5,0,0,1,0.5",""
"","html-keyboard-response","286","235308","0.0-286.0","3JRJSWSMQI76M9V2P9LGCFPMWRY3EE","A3DW6KSQPG6GVQ","3TZDZ3Y0JSSRVQSC3SM97PDQ3Z7196","","null","<img src=""img/animal4.png"" style=""width:200px;border:14px solid red;"">","null","","","","","",""
"","image-keyboard-response","287","235696","0.0-287.0","3JRJSWSMQI76M9V2P9LGCFPMWRY3EE","A3DW6KSQPG6GVQ","3TZDZ3Y0JSSRVQSC3SM97PDQ3Z7196","","386.70000000018626","img/animal4.png","74","387.5","1","1","2","0.5,0,1,1,0.5,0,0,1,0.5",""
"","html-keyboard-response","288","235998","0.0-288.0","3JRJSWSMQI76M9V2P9LGCFPMWRY3EE","A3DW6KSQPG6GVQ","3TZDZ3Y0JSSRVQSC3SM97PDQ3Z7196","","null","<img src=""img/animal4.png"" style=""width:200px; border:14px solid green;"">","null","","","","","",""
"","image-keyboard-response","289","236602","0.0-289.0","3JRJSWSMQI76M9V2P9LGCFPMWRY3EE","A3DW6KSQPG6GVQ","3TZDZ3Y0JSSRVQSC3SM97PDQ3Z7196","","602.9000000003725","img/animal3.png","75","603.5","2","1","3","0.5,0,1,1,0.5,0,0,1,0.5",""
"","html-keyboard-response","290","236903","0.0-290.0","3JRJSWSMQI76M9V2P9LGCFPMWRY3EE","A3DW6KSQPG6GVQ","3TZDZ3Y0JSSRVQSC3SM97PDQ3Z7196","","null","<img src=""img/animal3.png"" style=""width:200px; border:14px solid green;"">","null","","","","","",""
"","image-keyboard-response","291","238204","0.0-291.0","3JRJSWSMQI76M9V2P9LGCFPMWRY3EE","A3DW6KSQPG6GVQ","3TZDZ3Y0JSSRVQSC3SM97PDQ3Z7196","","1298.7999999998137","img/animal6.png","74","1300.1000000005588","1","0","1","0.5,0,1,1,0.5,0,0,1,0.5",""
"","html-keyboard-response","292","238506","0.0-292.0","3JRJSWSMQI76M9V2P9LGCFPMWRY3EE","A3DW6KSQPG6GVQ","3TZDZ3Y0JSSRVQSC3SM97PDQ3Z7196","","null","<img src=""img/animal6.png"" style=""width:200px;border:14px solid red;"">","null","","","","","",""
"","image-keyboard-response","293","238797","0.0-293.0","3JRJSWSMQI76M9V2P9LGCFPMWRY3EE","A3DW6KSQPG6GVQ","3TZDZ3Y0JSSRVQSC3SM97PDQ3Z7196","","289.90000000037253","img/animal3.png","76","290.70000000018626","3","0","3","0.5,0,1,1,0.5,0,0,1,0.5",""
"","html-keyboard-response","294","239099","0.0-294.0","3JRJSWSMQI76M9V2P9LGCFPMWRY3EE","A3DW6KSQPG6GVQ","3TZDZ3Y0JSSRVQSC3SM97PDQ3Z7196","","null","<img src=""img/animal3.png"" style=""width:200px;border:14px solid red;"">","null","","","","","",""
"","image-keyboard-response","295","239514","0.0-295.0","3JRJSWSMQI76M9V2P9LGCFPMWRY3EE","A3DW6KSQPG6GVQ","3TZDZ3Y0JSSRVQSC3SM97PDQ3Z7196","","413.6000000005588","img/animal3.png","75","414.5","2","1","3","0.5,0,1,1,0.5,0,0,1,0.5",""
"","html-keyboard-response","296","239816","0.0-296.0","3JRJSWSMQI76M9V2P9LGCFPMWRY3EE","A3DW6KSQPG6GVQ","3TZDZ3Y0JSSRVQSC3SM97PDQ3Z7196","","null","<img src=""img/animal3.png"" style=""width:200px; border:14px solid green;"">","null","","","","","",""
"","image-keyboard-response","297","240686","0.0-297.0","3JRJSWSMQI76M9V2P9LGCFPMWRY3EE","A3DW6KSQPG6GVQ","3TZDZ3Y0JSSRVQSC3SM97PDQ3Z7196","","869.5","img/animal4.png","74","870.3000000007451","1","1","2","0.5,0,1,1,0.5,0,0,1,0.5",""
"","html-keyboard-response","298","240988","0.0-298.0","3JRJSWSMQI76M9V2P9LGCFPMWRY3EE","A3DW6KSQPG6GVQ","3TZDZ3Y0JSSRVQSC3SM97PDQ3Z7196","","null","<img src=""img/animal4.png"" style=""width:200px; border:14px solid green;"">","null","","","","","",""
"","image-keyboard-response","299","242740","0.0-299.0","3JRJSWSMQI76M9V2P9LGCFPMWRY3EE","A3DW6KSQPG6GVQ","3TZDZ3Y0JSSRVQSC3SM97PDQ3Z7196","","1750.2000000001863","img/animal6.png","76","1751","3","1","1","0.5,0,1,1,0.5,0,0,1,0.5",""
"","html-keyboard-response","300","243041","0.0-300.0","3JRJSWSMQI76M9V2P9LGCFPMWRY3EE","A3DW6KSQPG6GVQ","3TZDZ3Y0JSSRVQSC3SM97PDQ3Z7196","","null","<img src=""img/animal6.png"" style=""width:200px; border:14px solid green;"">","null","","","","","",""
"","image-keyboard-response","301","243394","0.0-301.0","3JRJSWSMQI76M9V2P9LGCFPMWRY3EE","A3DW6KSQPG6GVQ","3TZDZ3Y0JSSRVQSC3SM97PDQ3Z7196","","351.80000000074506","img/animal6.png","76","352.70000000018626","3","1","1","0.5,0,1,1,0.5,0,0,1,0.5",""
"","html-keyboard-response","302","243697","0.0-302.0","3JRJSWSMQI76M9V2P9LGCFPMWRY3EE","A3DW6KSQPG6GVQ","3TZDZ3Y0JSSRVQSC3SM97PDQ3Z7196","","null","<img src=""img/animal6.png"" style=""width:200px; border:14px solid green;"">","null","","","","","",""
"","image-keyboard-response","303","244316","0.0-303.0","3JRJSWSMQI76M9V2P9LGCFPMWRY3EE","A3DW6KSQPG6GVQ","3TZDZ3Y0JSSRVQSC3SM97PDQ3Z7196","","618.1000000005588","img/animal3.png","75","618.9000000003725","2","1","3","0.5,0,1,1,0.5,0,0,1,0.5",""
"","html-keyboard-response","304","244618","0.0-304.0","3JRJSWSMQI76M9V2P9LGCFPMWRY3EE","A3DW6KSQPG6GVQ","3TZDZ3Y0JSSRVQSC3SM97PDQ3Z7196","","null","<img src=""img/animal3.png"" style=""width:200px; border:14px solid green;"">","null","","","","","",""
"","image-keyboard-response","305","246119","0.0-305.0","3JRJSWSMQI76M9V2P9LGCFPMWRY3EE","A3DW6KSQPG6GVQ","3TZDZ3Y0JSSRVQSC3SM97PDQ3Z7196","","1499.5","img/animal4.png","74","1500.3999999994412","1","1","2","0.5,0,1,1,0.5,0,0,1,0.5",""
"","html-keyboard-response","306","246421","0.0-306.0","3JRJSWSMQI76M9V2P9LGCFPMWRY3EE","A3DW6KSQPG6GVQ","3TZDZ3Y0JSSRVQSC3SM97PDQ3Z7196","","null","<img src=""img/animal4.png"" style=""width:200px; border:14px solid green;"">","null","","","","","",""
"","image-keyboard-response","307","246856","0.0-307.0","3JRJSWSMQI76M9V2P9LGCFPMWRY3EE","A3DW6KSQPG6GVQ","3TZDZ3Y0JSSRVQSC3SM97PDQ3Z7196","","434.20000000018626","img/animal4.png","74","435","1","1","2","0.5,0,1,1,0.5,0,0,1,0.5",""
"","html-keyboard-response","308","247158","0.0-308.0","3JRJSWSMQI76M9V2P9LGCFPMWRY3EE","A3DW6KSQPG6GVQ","3TZDZ3Y0JSSRVQSC3SM97PDQ3Z7196","","null","<img src=""img/animal4.png"" style=""width:200px; border:14px solid green;"">","null","","","","","",""
"","image-keyboard-response","309","248192","0.0-309.0","3JRJSWSMQI76M9V2P9LGCFPMWRY3EE","A3DW6KSQPG6GVQ","3TZDZ3Y0JSSRVQSC3SM97PDQ3Z7196","","1033.4000000003725","img/animal6.png","76","1034.300000000745","3","1","1","0.5,0,1,1,0.5,0,0,1,0.5",""
"","html-keyboard-response","310","248494","0.0-310.0","3JRJSWSMQI76M9V2P9LGCFPMWRY3EE","A3DW6KSQPG6GVQ","3TZDZ3Y0JSSRVQSC3SM97PDQ3Z7196","","null","<img src=""img/animal6.png"" style=""width:200px; border:14px solid green;"">","null","","","","","",""
"","image-keyboard-response","311","249127","0.0-311.0","3JRJSWSMQI76M9V2P9LGCFPMWRY3EE","A3DW6KSQPG6GVQ","3TZDZ3Y0JSSRVQSC3SM97PDQ3Z7196","","631.9000000003725","img/animal3.png","75","632.8000000007451","2","1","3","0.5,0,1,1,0.5,0,0,1,0.5",""
"","html-keyboard-response","312","249429","0.0-312.0","3JRJSWSMQI76M9V2P9LGCFPMWRY3EE","A3DW6KSQPG6GVQ","3TZDZ3Y0JSSRVQSC3SM97PDQ3Z7196","","null","<img src=""img/animal3.png"" style=""width:200px; border:14px solid green;"">","null","","","","","",""
"","image-keyboard-response","313","250350","0.0-313.0","3JRJSWSMQI76M9V2P9LGCFPMWRY3EE","A3DW6KSQPG6GVQ","3TZDZ3Y0JSSRVQSC3SM97PDQ3Z7196","","920.2000000001863","img/animal4.png","74","920.9000000003725","1","1","2","0.5,0,1,1,0.5,0,0,1,0.5",""
"","html-keyboard-response","314","250652","0.0-314.0","3JRJSWSMQI76M9V2P9LGCFPMWRY3EE","A3DW6KSQPG6GVQ","3TZDZ3Y0JSSRVQSC3SM97PDQ3Z7196","","null","<img src=""img/animal4.png"" style=""width:200px; border:14px solid green;"">","null","","","","","",""
"","image-keyboard-response","315","251188","0.0-315.0","3JRJSWSMQI76M9V2P9LGCFPMWRY3EE","A3DW6KSQPG6GVQ","3TZDZ3Y0JSSRVQSC3SM97PDQ3Z7196","","534.8999999994412","img/animal3.png","75","535.7999999998137","2","1","3","0.5,0,1,1,0.5,0,0,1,0.5",""
"","html-keyboard-response","316","251490","0.0-316.0","3JRJSWSMQI76M9V2P9LGCFPMWRY3EE","A3DW6KSQPG6GVQ","3TZDZ3Y0JSSRVQSC3SM97PDQ3Z7196","","null","<img src=""img/animal3.png"" style=""width:200px; border:14px solid green;"">","null","","","","","",""
"","image-keyboard-response","317","251981","0.0-317.0","3JRJSWSMQI76M9V2P9LGCFPMWRY3EE","A3DW6KSQPG6GVQ","3TZDZ3Y0JSSRVQSC3SM97PDQ3Z7196","","489.5","img/animal3.png","75","490.29999999981374","2","1","3","0.5,0,1,1,0.5,0,0,1,0.5",""
"","html-keyboard-response","318","252283","0.0-318.0","3JRJSWSMQI76M9V2P9LGCFPMWRY3EE","A3DW6KSQPG6GVQ","3TZDZ3Y0JSSRVQSC3SM97PDQ3Z7196","","null","<img src=""img/animal3.png"" style=""width:200px; border:14px solid green;"">","null","","","","","",""
"","image-keyboard-response","319","252802","0.0-319.0","3JRJSWSMQI76M9V2P9LGCFPMWRY3EE","A3DW6KSQPG6GVQ","3TZDZ3Y0JSSRVQSC3SM97PDQ3Z7196","","518","img/animal4.png","74","518.9000000003725","1","1","2","0.5,0,1,1,0.5,0,0,1,0.5",""
"","html-keyboard-response","320","253103","0.0-320.0","3JRJSWSMQI76M9V2P9LGCFPMWRY3EE","A3DW6KSQPG6GVQ","3TZDZ3Y0JSSRVQSC3SM97PDQ3Z7196","","null","<img src=""img/animal4.png"" style=""width:200px; border:14px solid green;"">","null","","","","","",""
"","image-keyboard-response","321","253898","0.0-321.0","3JRJSWSMQI76M9V2P9LGCFPMWRY3EE","A3DW6KSQPG6GVQ","3TZDZ3Y0JSSRVQSC3SM97PDQ3Z7196","","793.5999999996275","img/animal6.png","76","794.3000000007451","3","1","1","0.5,0,1,1,0.5,0,0,1,0.5",""
"","html-keyboard-response","322","254200","0.0-322.0","3JRJSWSMQI76M9V2P9LGCFPMWRY3EE","A3DW6KSQPG6GVQ","3TZDZ3Y0JSSRVQSC3SM97PDQ3Z7196","","null","<img src=""img/animal6.png"" style=""width:200px; border:14px solid green;"">","null","","","","","",""
"","image-keyboard-response","323","254554","0.0-323.0","3JRJSWSMQI76M9V2P9LGCFPMWRY3EE","A3DW6KSQPG6GVQ","3TZDZ3Y0JSSRVQSC3SM97PDQ3Z7196","","353.29999999981374","img/animal6.png","76","354.20000000018626","3","1","1","0.5,0,1,1,0.5,0,0,1,0.5",""
"","html-keyboard-response","324","254860","0.0-324.0","3JRJSWSMQI76M9V2P9LGCFPMWRY3EE","A3DW6KSQPG6GVQ","3TZDZ3Y0JSSRVQSC3SM97PDQ3Z7196","","null","<img src=""img/animal6.png"" style=""width:200px; border:14px solid green;"">","null","","","","","",""
"","image-keyboard-response","325","255506","0.0-325.0","3JRJSWSMQI76M9V2P9LGCFPMWRY3EE","A3DW6KSQPG6GVQ","3TZDZ3Y0JSSRVQSC3SM97PDQ3Z7196","","645.2000000001863","img/animal3.png","75","646.2999999998137","2","1","3","0.5,0,1,1,0.5,0,0,1,0.5",""
"","html-keyboard-response","326","255809","0.0-326.0","3JRJSWSMQI76M9V2P9LGCFPMWRY3EE","A3DW6KSQPG6GVQ","3TZDZ3Y0JSSRVQSC3SM97PDQ3Z7196","","null","<img src=""img/animal3.png"" style=""width:200px; border:14px solid green;"">","null","","","","","",""
"","image-keyboard-response","327","256465","0.0-327.0","3JRJSWSMQI76M9V2P9LGCFPMWRY3EE","A3DW6KSQPG6GVQ","3TZDZ3Y0JSSRVQSC3SM97PDQ3Z7196","","654.7000000001863","img/animal6.png","74","655.7000000001863","1","1","1","0.5,0,1,1,0.5,0,0,1,0.5",""
"","html-keyboard-response","328","256767","0.0-328.0","3JRJSWSMQI76M9V2P9LGCFPMWRY3EE","A3DW6KSQPG6GVQ","3TZDZ3Y0JSSRVQSC3SM97PDQ3Z7196","","null","<img src=""img/animal6.png"" style=""width:200px; border:14px solid green;"">","null","","","","","",""
"","image-keyboard-response","329","256824","0.0-329.0","3JRJSWSMQI76M9V2P9LGCFPMWRY3EE","A3DW6KSQPG6GVQ","3TZDZ3Y0JSSRVQSC3SM97PDQ3Z7196","","56","img/animal6.png","76","56.799999999813735","3","1","1","0.5,0,1,1,0.5,0,0,1,0.5",""
"","html-keyboard-response","330","257125","0.0-330.0","3JRJSWSMQI76M9V2P9LGCFPMWRY3EE","A3DW6KSQPG6GVQ","3TZDZ3Y0JSSRVQSC3SM97PDQ3Z7196","","null","<img src=""img/animal6.png"" style=""width:200px; border:14px solid green;"">","null","","","","","",""
"","image-keyboard-response","331","258309","0.0-331.0","3JRJSWSMQI76M9V2P9LGCFPMWRY3EE","A3DW6KSQPG6GVQ","3TZDZ3Y0JSSRVQSC3SM97PDQ3Z7196","","1182.1000000005588","img/animal4.png","74","1182.7999999998137","1","1","2","0.5,0,1,1,0.5,0,0,1,0.5",""
"","html-keyboard-response","332","258611","0.0-332.0","3JRJSWSMQI76M9V2P9LGCFPMWRY3EE","A3DW6KSQPG6GVQ","3TZDZ3Y0JSSRVQSC3SM97PDQ3Z7196","","null","<img src=""img/animal4.png"" style=""width:200px; border:14px solid green;"">","null","","","","","",""
"","image-keyboard-response","333","259701","0.0-333.0","3JRJSWSMQI76M9V2P9LGCFPMWRY3EE","A3DW6KSQPG6GVQ","3TZDZ3Y0JSSRVQSC3SM97PDQ3Z7196","","1089.2000000001863","img/animal6.png","76","1090.1000000005588","3","1","1","0.5,0,1,1,0.5,0,0,1,0.5",""
"","html-keyboard-response","334","260003","0.0-334.0","3JRJSWSMQI76M9V2P9LGCFPMWRY3EE","A3DW6KSQPG6GVQ","3TZDZ3Y0JSSRVQSC3SM97PDQ3Z7196","","null","<img src=""img/animal6.png"" style=""width:200px; border:14px solid green;"">","null","","","","","",""
"","image-keyboard-response","335","260307","0.0-335.0","3JRJSWSMQI76M9V2P9LGCFPMWRY3EE","A3DW6KSQPG6GVQ","3TZDZ3Y0JSSRVQSC3SM97PDQ3Z7196","","302.70000000018626","img/animal6.png","76","303.79999999981374","3","1","1","0.5,0,1,1,0.5,0,0,1,0.5",""
"","html-keyboard-response","336","260622","0.0-336.0","3JRJSWSMQI76M9V2P9LGCFPMWRY3EE","A3DW6KSQPG6GVQ","3TZDZ3Y0JSSRVQSC3SM97PDQ3Z7196","","null","<img src=""img/animal6.png"" style=""width:200px; border:14px solid green;"">","null","","","","","",""
"","image-keyboard-response","337","260979","0.0-337.0","3JRJSWSMQI76M9V2P9LGCFPMWRY3EE","A3DW6KSQPG6GVQ","3TZDZ3Y0JSSRVQSC3SM97PDQ3Z7196","","355.59999999962747","img/animal6.png","76","356.5","3","1","1","0.5,0,1,1,0.5,0,0,1,0.5",""
"","html-keyboard-response","338","261280","0.0-338.0","3JRJSWSMQI76M9V2P9LGCFPMWRY3EE","A3DW6KSQPG6GVQ","3TZDZ3Y0JSSRVQSC3SM97PDQ3Z7196","","null","<img src=""img/animal6.png"" style=""width:200px; border:14px solid green;"">","null","","","","","",""
"","image-keyboard-response","339","262105","0.0-339.0","3JRJSWSMQI76M9V2P9LGCFPMWRY3EE","A3DW6KSQPG6GVQ","3TZDZ3Y0JSSRVQSC3SM97PDQ3Z7196","","824","img/animal4.png","74","824.7999999998137","1","1","2","0.5,0,1,1,0.5,0,0,1,0.5",""
"","html-keyboard-response","340","262407","0.0-340.0","3JRJSWSMQI76M9V2P9LGCFPMWRY3EE","A3DW6KSQPG6GVQ","3TZDZ3Y0JSSRVQSC3SM97PDQ3Z7196","","null","<img src=""img/animal4.png"" style=""width:200px; border:14px solid green;"">","null","","","","","",""
"","image-keyboard-response","341","262949","0.0-341.0","3JRJSWSMQI76M9V2P9LGCFPMWRY3EE","A3DW6KSQPG6GVQ","3TZDZ3Y0JSSRVQSC3SM97PDQ3Z7196","","541","img/animal3.png","75","541.7999999998137","2","1","3","0.5,0,1,1,0.5,0,0,1,0.5",""
"","html-keyboard-response","342","263251","0.0-342.0","3JRJSWSMQI76M9V2P9LGCFPMWRY3EE","A3DW6KSQPG6GVQ","3TZDZ3Y0JSSRVQSC3SM97PDQ3Z7196","","null","<img src=""img/animal3.png"" style=""width:200px; border:14px solid green;"">","null","","","","","",""
"","image-keyboard-response","343","269333","0.0-343.0","3JRJSWSMQI76M9V2P9LGCFPMWRY3EE","A3DW6KSQPG6GVQ","3TZDZ3Y0JSSRVQSC3SM97PDQ3Z7196","","6081.100000000559","img/animal4.png","74","6082","1","1","2","0.5,0,1,1,0.5,0,0,1,0.5",""
"","html-keyboard-response","344","269635","0.0-344.0","3JRJSWSMQI76M9V2P9LGCFPMWRY3EE","A3DW6KSQPG6GVQ","3TZDZ3Y0JSSRVQSC3SM97PDQ3Z7196","","null","<img src=""img/animal4.png"" style=""width:200px; border:14px solid green;"">","null","","","","","",""
"","image-keyboard-response","345","270180","0.0-345.0","3JRJSWSMQI76M9V2P9LGCFPMWRY3EE","A3DW6KSQPG6GVQ","3TZDZ3Y0JSSRVQSC3SM97PDQ3Z7196","","543.7000000001863","img/animal3.png","75","544.5999999996275","2","1","3","0.5,0,1,1,0.5,0,0,1,0.5",""
"","html-keyboard-response","346","270481","0.0-346.0","3JRJSWSMQI76M9V2P9LGCFPMWRY3EE","A3DW6KSQPG6GVQ","3TZDZ3Y0JSSRVQSC3SM97PDQ3Z7196","","null","<img src=""img/animal3.png"" style=""width:200px; border:14px solid green;"">","null","","","","","",""
"","image-keyboard-response","347","271120","0.0-347.0","3JRJSWSMQI76M9V2P9LGCFPMWRY3EE","A3DW6KSQPG6GVQ","3TZDZ3Y0JSSRVQSC3SM97PDQ3Z7196","","638.2999999998137","img/animal3.png","75","639.2999999998137","2","1","3","0.5,0,1,1,0.5,0,0,1,0.5",""
"","html-keyboard-response","348","271422","0.0-348.0","3JRJSWSMQI76M9V2P9LGCFPMWRY3EE","A3DW6KSQPG6GVQ","3TZDZ3Y0JSSRVQSC3SM97PDQ3Z7196","","null","<img src=""img/animal3.png"" style=""width:200px; border:14px solid green;"">","null","","","","","",""
"","image-keyboard-response","349","272231","0.0-349.0","3JRJSWSMQI76M9V2P9LGCFPMWRY3EE","A3DW6KSQPG6GVQ","3TZDZ3Y0JSSRVQSC3SM97PDQ3Z7196","","807.1000000005588","img/animal4.png","74","808","1","1","2","0.5,0,1,1,0.5,0,0,1,0.5",""
"","html-keyboard-response","350","272532","0.0-350.0","3JRJSWSMQI76M9V2P9LGCFPMWRY3EE","A3DW6KSQPG6GVQ","3TZDZ3Y0JSSRVQSC3SM97PDQ3Z7196","","null","<img src=""img/animal4.png"" style=""width:200px; border:14px solid green;"">","null","","","","","",""
"","image-keyboard-response","351","273288","0.0-351.0","3JRJSWSMQI76M9V2P9LGCFPMWRY3EE","A3DW6KSQPG6GVQ","3TZDZ3Y0JSSRVQSC3SM97PDQ3Z7196","","752.9000000003725","img/animal6.png","76","753.8000000007451","3","1","1","0.5,0,1,1,0.5,0,0,1,0.5",""
"","html-keyboard-response","352","273590","0.0-352.0","3JRJSWSMQI76M9V2P9LGCFPMWRY3EE","A3DW6KSQPG6GVQ","3TZDZ3Y0JSSRVQSC3SM97PDQ3Z7196","","null","<img src=""img/animal6.png"" style=""width:200px; border:14px solid green;"">","null","","","","","",""
"","image-keyboard-response","353","274256","0.0-353.0","3JRJSWSMQI76M9V2P9LGCFPMWRY3EE","A3DW6KSQPG6GVQ","3TZDZ3Y0JSSRVQSC3SM97PDQ3Z7196","","665","img/animal4.png","74","665.8999999994412","1","1","2","0.5,0,1,1,0.5,0,0,1,0.5",""
"","html-keyboard-response","354","274558","0.0-354.0","3JRJSWSMQI76M9V2P9LGCFPMWRY3EE","A3DW6KSQPG6GVQ","3TZDZ3Y0JSSRVQSC3SM97PDQ3Z7196","","null","<img src=""img/animal4.png"" style=""width:200px; border:14px solid green;"">","null","","","","","",""
"","image-keyboard-response","355","275335","0.0-355.0","3JRJSWSMQI76M9V2P9LGCFPMWRY3EE","A3DW6KSQPG6GVQ","3TZDZ3Y0JSSRVQSC3SM97PDQ3Z7196","","775.1999999992549","img/animal4.png","74","775.9000000003725","1","1","2","0.5,0,1,1,0.5,0,0,1,0.5",""
"","html-keyboard-response","356","275636","0.0-356.0","3JRJSWSMQI76M9V2P9LGCFPMWRY3EE","A3DW6KSQPG6GVQ","3TZDZ3Y0JSSRVQSC3SM97PDQ3Z7196","","null","<img src=""img/animal4.png"" style=""width:200px; border:14px solid green;"">","null","","","","","",""
"","image-keyboard-response","357","276344","0.0-357.0","3JRJSWSMQI76M9V2P9LGCFPMWRY3EE","A3DW6KSQPG6GVQ","3TZDZ3Y0JSSRVQSC3SM97PDQ3Z7196","","707.2000000001863","img/animal4.png","74","708.2000000001863","1","1","2","0.5,0,1,1,0.5,0,0,1,0.5",""
"","html-keyboard-response","358","276647","0.0-358.0","3JRJSWSMQI76M9V2P9LGCFPMWRY3EE","A3DW6KSQPG6GVQ","3TZDZ3Y0JSSRVQSC3SM97PDQ3Z7196","","null","<img src=""img/animal4.png"" style=""width:200px; border:14px solid green;"">","null","","","","","",""
"","image-keyboard-response","359","277126","0.0-359.0","3JRJSWSMQI76M9V2P9LGCFPMWRY3EE","A3DW6KSQPG6GVQ","3TZDZ3Y0JSSRVQSC3SM97PDQ3Z7196","","478.20000000018626","img/animal4.png","74","479.1000000005588","1","1","2","0.5,0,1,1,0.5,0,0,1,0.5",""
"","html-keyboard-response","360","277427","0.0-360.0","3JRJSWSMQI76M9V2P9LGCFPMWRY3EE","A3DW6KSQPG6GVQ","3TZDZ3Y0JSSRVQSC3SM97PDQ3Z7196","","null","<img src=""img/animal4.png"" style=""width:200px; border:14px solid green;"">","null","","","","","",""
"","image-keyboard-response","361","277857","0.0-361.0","3JRJSWSMQI76M9V2P9LGCFPMWRY3EE","A3DW6KSQPG6GVQ","3TZDZ3Y0JSSRVQSC3SM97PDQ3Z7196","","428.30000000074506","img/animal4.png","74","429.20000000018626","1","1","2","0.5,0,1,1,0.5,0,0,1,0.5",""
"","html-keyboard-response","362","278159","0.0-362.0","3JRJSWSMQI76M9V2P9LGCFPMWRY3EE","A3DW6KSQPG6GVQ","3TZDZ3Y0JSSRVQSC3SM97PDQ3Z7196","","null","<img src=""img/animal4.png"" style=""width:200px; border:14px solid green;"">","null","","","","","",""
"","instructions","363","291182","0.0-363.0","3JRJSWSMQI76M9V2P9LGCFPMWRY3EE","A3DW6KSQPG6GVQ","3TZDZ3Y0JSSRVQSC3SM97PDQ3Z7196","[{""page_index"":0,""viewing_time"":13022.300000000745}]","13022.600000000559","","","","","","","",""
"","survey-text","364","313091","0.0-364.0","3JRJSWSMQI76M9V2P9LGCFPMWRY3EE","A3DW6KSQPG6GVQ","3TZDZ3Y0JSSRVQSC3SM97PDQ3Z7196","","21905.89999999944","","","","","","","","{""Q0"":""A3DW6KSQPG6GVQ""}"
