"success","trial_type","trial_index","time_elapsed","internal_node_id","assignmentID","mturkID","hitID","view_history","rt","stimulus","key_press","reactionTime","a","r","s","reward_cond","responses"
"true","fullscreen","0","2699","0.0-0.0","3RXCAC0YISBQ7KXZ7L603ZI9S4V8G7","A3EA4SHCLJ1UZQ","3VJ4PFXFJ3TL96TFXMATEMT7KJHUAI","","","","","","","","","",""
"","instructions","1","25335","0.0-1.0","3RXCAC0YISBQ7KXZ7L603ZI9S4V8G7","A3EA4SHCLJ1UZQ","3VJ4PFXFJ3TL96TFXMATEMT7KJHUAI","[{""page_index"":0,""viewing_time"":4776.5},{""page_index"":1,""viewing_time"":5161.899999976158},{""page_index"":2,""viewing_time"":2694.600000023842},{""page_index"":3,""viewing_time"":2043.5},{""page_index"":4,""viewing_time"":1359.7999999523163},{""page_index"":5,""viewing_time"":2059.7000000476837},{""page_index"":6,""viewing_time"":2526.1999999284744},{""page_index"":7,""viewing_time"":2012.7000000476837}]","22635.699999928474","","","","","","","",""
"","image-keyboard-response","2","26493","0.0-2.0","3RXCAC0YISBQ7KXZ7L603ZI9S4V8G7","A3EA4SHCLJ1UZQ","3VJ4PFXFJ3TL96TFXMATEMT7KJHUAI","","1156.3000000715256","img/animal4.png","74","1157.8999999761581","1","1","2","1,0.7,0,1,0.7,0,0.7,0,1",""
"","html-keyboard-response","3","26799","0.0-3.0","3RXCAC0YISBQ7KXZ7L603ZI9S4V8G7","A3EA4SHCLJ1UZQ","3VJ4PFXFJ3TL96TFXMATEMT7KJHUAI","","null","<img src=""img/animal4.png"" style=""width:200px; border:14px solid green;"">","null","","","","","",""
"","image-keyboard-response","4","27781","0.0-4.0","3RXCAC0YISBQ7KXZ7L603ZI9S4V8G7","A3EA4SHCLJ1UZQ","3VJ4PFXFJ3TL96TFXMATEMT7KJHUAI","","980.7999999523163","img/animal3.png","75","981.7999999523163","2","1","1","1,0.7,0,1,0.7,0,0.7,0,1",""
"","html-keyboard-response","5","28082","0.0-5.0","3RXCAC0YISBQ7KXZ7L603ZI9S4V8G7","A3EA4SHCLJ1UZQ","3VJ4PFXFJ3TL96TFXMATEMT7KJHUAI","","null","<img src=""img/animal3.png"" style=""width:200px; border:14px solid green;"">","null","","","","","",""
"","image-keyboard-response","6","28756","0.0-6.0","3RXCAC0YISBQ7KXZ7L603ZI9S4V8G7","A3EA4SHCLJ1UZQ","3VJ4PFXFJ3TL96TFXMATEMT7KJHUAI","","672.5","img/animal4.png","74","673.6000000238419","1","1","2","1,0.7,0,1,0.7,0,0.7,0,1",""
"","html-keyboard-response","7","29058","0.0-7.0","3RXCAC0YISBQ7KXZ7L603ZI9S4V8G7","A3EA4SHCLJ1UZQ","3VJ4PFXFJ3TL96TFXMATEMT7KJHUAI","","null","<img src=""img/animal4.png"" style=""width:200px; border:14px solid green;"">","null","","","","","",""
"","image-keyboard-response","8","29748","0.0-8.0","3RXCAC0YISBQ7KXZ7L603ZI9S4V8G7","A3EA4SHCLJ1UZQ","3VJ4PFXFJ3TL96TFXMATEMT7KJHUAI","","689.6000000238419","img/animal6.png","76","690.3999999761581","3","1","3","1,0.7,0,1,0.7,0,0.7,0,1",""
"","html-keyboard-response","9","30050","0.0-9.0","3RXCAC0YISBQ7KXZ7L603ZI9S4V8G7","A3EA4SHCLJ1UZQ","3VJ4PFXFJ3TL96TFXMATEMT7KJHUAI","","null","<img src=""img/animal6.png"" style=""width:200px; border:14px solid green;"">","null","","","","","",""
"","image-keyboard-response","10","30532","0.0-10.0","3RXCAC0YISBQ7KXZ7L603ZI9S4V8G7","A3EA4SHCLJ1UZQ","3VJ4PFXFJ3TL96TFXMATEMT7KJHUAI","","480.7000000476837","img/animal6.png","76","481.39999997615814","3","1","3","1,0.7,0,1,0.7,0,0.7,0,1",""
"","html-keyboard-response","11","30835","0.0-11.0","3RXCAC0YISBQ7KXZ7L603ZI9S4V8G7","A3EA4SHCLJ1UZQ","3VJ4PFXFJ3TL96TFXMATEMT7KJHUAI","","null","<img src=""img/animal6.png"" style=""width:200px; border:14px solid green;"">","null","","","","","",""
"","image-keyboard-response","12","31500","0.0-12.0","3RXCAC0YISBQ7KXZ7L603ZI9S4V8G7","A3EA4SHCLJ1UZQ","3VJ4PFXFJ3TL96TFXMATEMT7KJHUAI","","664.5","img/animal3.png","75","665.1999999284744","2","1","1","1,0.7,0,1,0.7,0,0.7,0,1",""
"","html-keyboard-response","13","31803","0.0-13.0","3RXCAC0YISBQ7KXZ7L603ZI9S4V8G7","A3EA4SHCLJ1UZQ","3VJ4PFXFJ3TL96TFXMATEMT7KJHUAI","","null","<img src=""img/animal3.png"" style=""width:200px; border:14px solid green;"">","null","","","","","",""
"","image-keyboard-response","14","32508","0.0-14.0","3RXCAC0YISBQ7KXZ7L603ZI9S4V8G7","A3EA4SHCLJ1UZQ","3VJ4PFXFJ3TL96TFXMATEMT7KJHUAI","","704.5","img/animal6.png","76","705.2000000476837","3","1","3","1,0.7,0,1,0.7,0,0.7,0,1",""
"","html-keyboard-response","15","32810","0.0-15.0","3RXCAC0YISBQ7KXZ7L603ZI9S4V8G7","A3EA4SHCLJ1UZQ","3VJ4PFXFJ3TL96TFXMATEMT7KJHUAI","","null","<img src=""img/animal6.png"" style=""width:200px; border:14px solid green;"">","null","","","","","",""
"","image-keyboard-response","16","33430","0.0-16.0","3RXCAC0YISBQ7KXZ7L603ZI9S4V8G7","A3EA4SHCLJ1UZQ","3VJ4PFXFJ3TL96TFXMATEMT7KJHUAI","","618.7999999523163","img/animal4.png","74","619.5","1","1","2","1,0.7,0,1,0.7,0,0.7,0,1",""
"","html-keyboard-response","17","33734","0.0-17.0","3RXCAC0YISBQ7KXZ7L603ZI9S4V8G7","A3EA4SHCLJ1UZQ","3VJ4PFXFJ3TL96TFXMATEMT7KJHUAI","","null","<img src=""img/animal4.png"" style=""width:200px; border:14px solid green;"">","null","","","","","",""
"","image-keyboard-response","18","34124","0.0-18.0","3RXCAC0YISBQ7KXZ7L603ZI9S4V8G7","A3EA4SHCLJ1UZQ","3VJ4PFXFJ3TL96TFXMATEMT7KJHUAI","","388.89999997615814","img/animal4.png","74","389.6999999284744","1","1","2","1,0.7,0,1,0.7,0,0.7,0,1",""
"","html-keyboard-response","19","34426","0.0-19.0","3RXCAC0YISBQ7KXZ7L603ZI9S4V8G7","A3EA4SHCLJ1UZQ","3VJ4PFXFJ3TL96TFXMATEMT7KJHUAI","","null","<img src=""img/animal4.png"" style=""width:200px; border:14px solid green;"">","null","","","","","",""
"","image-keyboard-response","20","34796","0.0-20.0","3RXCAC0YISBQ7KXZ7L603ZI9S4V8G7","A3EA4SHCLJ1UZQ","3VJ4PFXFJ3TL96TFXMATEMT7KJHUAI","","368.7999999523163","img/animal4.png","74","369.60000002384186","1","1","2","1,0.7,0,1,0.7,0,0.7,0,1",""
"","html-keyboard-response","21","35098","0.0-21.0","3RXCAC0YISBQ7KXZ7L603ZI9S4V8G7","A3EA4SHCLJ1UZQ","3VJ4PFXFJ3TL96TFXMATEMT7KJHUAI","","null","<img src=""img/animal4.png"" style=""width:200px; border:14px solid green;"">","null","","","","","",""
"","image-keyboard-response","22","35868","0.0-22.0","3RXCAC0YISBQ7KXZ7L603ZI9S4V8G7","A3EA4SHCLJ1UZQ","3VJ4PFXFJ3TL96TFXMATEMT7KJHUAI","","769.3000000715256","img/animal6.png","76","770","3","1","3","1,0.7,0,1,0.7,0,0.7,0,1",""
"","html-keyboard-response","23","36170","0.0-23.0","3RXCAC0YISBQ7KXZ7L603ZI9S4V8G7","A3EA4SHCLJ1UZQ","3VJ4PFXFJ3TL96TFXMATEMT7KJHUAI","","null","<img src=""img/animal6.png"" style=""width:200px; border:14px solid green;"">","null","","","","","",""
"","image-keyboard-response","24","36740","0.0-24.0","3RXCAC0YISBQ7KXZ7L603ZI9S4V8G7","A3EA4SHCLJ1UZQ","3VJ4PFXFJ3TL96TFXMATEMT7KJHUAI","","569.6000000238419","img/animal3.png","75","570.5","2","1","1","1,0.7,0,1,0.7,0,0.7,0,1",""
"","html-keyboard-response","25","37043","0.0-25.0","3RXCAC0YISBQ7KXZ7L603ZI9S4V8G7","A3EA4SHCLJ1UZQ","3VJ4PFXFJ3TL96TFXMATEMT7KJHUAI","","null","<img src=""img/animal3.png"" style=""width:200px; border:14px solid green;"">","null","","","","","",""
"","image-keyboard-response","26","37580","0.0-26.0","3RXCAC0YISBQ7KXZ7L603ZI9S4V8G7","A3EA4SHCLJ1UZQ","3VJ4PFXFJ3TL96TFXMATEMT7KJHUAI","","536.5","img/animal4.png","74","537.2000000476837","1","1","2","1,0.7,0,1,0.7,0,0.7,0,1",""
"","html-keyboard-response","27","37882","0.0-27.0","3RXCAC0YISBQ7KXZ7L603ZI9S4V8G7","A3EA4SHCLJ1UZQ","3VJ4PFXFJ3TL96TFXMATEMT7KJHUAI","","null","<img src=""img/animal4.png"" style=""width:200px; border:14px solid green;"">","null","","","","","",""
"","image-keyboard-response","28","38588","0.0-28.0","3RXCAC0YISBQ7KXZ7L603ZI9S4V8G7","A3EA4SHCLJ1UZQ","3VJ4PFXFJ3TL96TFXMATEMT7KJHUAI","","704.6000000238419","img/animal6.png","76","705.5","3","1","3","1,0.7,0,1,0.7,0,0.7,0,1",""
"","html-keyboard-response","29","38890","0.0-29.0","3RXCAC0YISBQ7KXZ7L603ZI9S4V8G7","A3EA4SHCLJ1UZQ","3VJ4PFXFJ3TL96TFXMATEMT7KJHUAI","","null","<img src=""img/animal6.png"" style=""width:200px; border:14px solid green;"">","null","","","","","",""
"","image-keyboard-response","30","39628","0.0-30.0","3RXCAC0YISBQ7KXZ7L603ZI9S4V8G7","A3EA4SHCLJ1UZQ","3VJ4PFXFJ3TL96TFXMATEMT7KJHUAI","","737","img/animal3.png","75","737.8999999761581","2","0","1","1,0.7,0,1,0.7,0,0.7,0,1",""
"","html-keyboard-response","31","39930","0.0-31.0","3RXCAC0YISBQ7KXZ7L603ZI9S4V8G7","A3EA4SHCLJ1UZQ","3VJ4PFXFJ3TL96TFXMATEMT7KJHUAI","","null","<img src=""img/animal3.png"" style=""width:200px;border:14px solid red;"">","null","","","","","",""
"","image-keyboard-response","32","40779","0.0-32.0","3RXCAC0YISBQ7KXZ7L603ZI9S4V8G7","A3EA4SHCLJ1UZQ","3VJ4PFXFJ3TL96TFXMATEMT7KJHUAI","","848.1000000238419","img/animal6.png","76","848.8000000715256","3","1","3","1,0.7,0,1,0.7,0,0.7,0,1",""
"","html-keyboard-response","33","41081","0.0-33.0","3RXCAC0YISBQ7KXZ7L603ZI9S4V8G7","A3EA4SHCLJ1UZQ","3VJ4PFXFJ3TL96TFXMATEMT7KJHUAI","","null","<img src=""img/animal6.png"" style=""width:200px; border:14px solid green;"">","null","","","","","",""
"","image-keyboard-response","34","41427","0.0-34.0","3RXCAC0YISBQ7KXZ7L603ZI9S4V8G7","A3EA4SHCLJ1UZQ","3VJ4PFXFJ3TL96TFXMATEMT7KJHUAI","","345.2000000476837","img/animal6.png","76","346.09999990463257","3","1","3","1,0.7,0,1,0.7,0,0.7,0,1",""
"","html-keyboard-response","35","41729","0.0-35.0","3RXCAC0YISBQ7KXZ7L603ZI9S4V8G7","A3EA4SHCLJ1UZQ","3VJ4PFXFJ3TL96TFXMATEMT7KJHUAI","","null","<img src=""img/animal6.png"" style=""width:200px; border:14px solid green;"">","null","","","","","",""
"","image-keyboard-response","36","42068","0.0-36.0","3RXCAC0YISBQ7KXZ7L603ZI9S4V8G7","A3EA4SHCLJ1UZQ","3VJ4PFXFJ3TL96TFXMATEMT7KJHUAI","","338.39999997615814","img/animal6.png","76","339.2000000476837","3","1","3","1,0.7,0,1,0.7,0,0.7,0,1",""
"","html-keyboard-response","37","42369","0.0-37.0","3RXCAC0YISBQ7KXZ7L603ZI9S4V8G7","A3EA4SHCLJ1UZQ","3VJ4PFXFJ3TL96TFXMATEMT7KJHUAI","","null","<img src=""img/animal6.png"" style=""width:200px; border:14px solid green;"">","null","","","","","",""
"","image-keyboard-response","38","42707","0.0-38.0","3RXCAC0YISBQ7KXZ7L603ZI9S4V8G7","A3EA4SHCLJ1UZQ","3VJ4PFXFJ3TL96TFXMATEMT7KJHUAI","","337.5","img/animal6.png","76","338.2999999523163","3","1","3","1,0.7,0,1,0.7,0,0.7,0,1",""
"","html-keyboard-response","39","43009","0.0-39.0","3RXCAC0YISBQ7KXZ7L603ZI9S4V8G7","A3EA4SHCLJ1UZQ","3VJ4PFXFJ3TL96TFXMATEMT7KJHUAI","","null","<img src=""img/animal6.png"" style=""width:200px; border:14px solid green;"">","null","","","","","",""
"","image-keyboard-response","40","43550","0.0-40.0","3RXCAC0YISBQ7KXZ7L603ZI9S4V8G7","A3EA4SHCLJ1UZQ","3VJ4PFXFJ3TL96TFXMATEMT7KJHUAI","","539.8000000715256","img/animal3.png","75","540.5","2","0","1","1,0.7,0,1,0.7,0,0.7,0,1",""
"","html-keyboard-response","41","43854","0.0-41.0","3RXCAC0YISBQ7KXZ7L603ZI9S4V8G7","A3EA4SHCLJ1UZQ","3VJ4PFXFJ3TL96TFXMATEMT7KJHUAI","","null","<img src=""img/animal3.png"" style=""width:200px;border:14px solid red;"">","null","","","","","",""
"","image-keyboard-response","42","44515","0.0-42.0","3RXCAC0YISBQ7KXZ7L603ZI9S4V8G7","A3EA4SHCLJ1UZQ","3VJ4PFXFJ3TL96TFXMATEMT7KJHUAI","","660.1000000238419","img/animal6.png","76","660.9000000953674","3","1","3","1,0.7,0,1,0.7,0,0.7,0,1",""
"","html-keyboard-response","43","44817","0.0-43.0","3RXCAC0YISBQ7KXZ7L603ZI9S4V8G7","A3EA4SHCLJ1UZQ","3VJ4PFXFJ3TL96TFXMATEMT7KJHUAI","","null","<img src=""img/animal6.png"" style=""width:200px; border:14px solid green;"">","null","","","","","",""
"","image-keyboard-response","44","45347","0.0-44.0","3RXCAC0YISBQ7KXZ7L603ZI9S4V8G7","A3EA4SHCLJ1UZQ","3VJ4PFXFJ3TL96TFXMATEMT7KJHUAI","","529.3000000715256","img/animal3.png","75","529.8999999761581","2","0","1","1,0.7,0,1,0.7,0,0.7,0,1",""
"","html-keyboard-response","45","45649","0.0-45.0","3RXCAC0YISBQ7KXZ7L603ZI9S4V8G7","A3EA4SHCLJ1UZQ","3VJ4PFXFJ3TL96TFXMATEMT7KJHUAI","","null","<img src=""img/animal3.png"" style=""width:200px;border:14px solid red;"">","null","","","","","",""
"","image-keyboard-response","46","46556","0.0-46.0","3RXCAC0YISBQ7KXZ7L603ZI9S4V8G7","A3EA4SHCLJ1UZQ","3VJ4PFXFJ3TL96TFXMATEMT7KJHUAI","","905.8999999761581","img/animal4.png","75","906.6000000238419","2","1","2","1,0.7,0,1,0.7,0,0.7,0,1",""
"","html-keyboard-response","47","46857","0.0-47.0","3RXCAC0YISBQ7KXZ7L603ZI9S4V8G7","A3EA4SHCLJ1UZQ","3VJ4PFXFJ3TL96TFXMATEMT7KJHUAI","","null","<img src=""img/animal4.png"" style=""width:200px; border:14px solid green;"">","null","","","","","",""
"","image-keyboard-response","48","47236","0.0-48.0","3RXCAC0YISBQ7KXZ7L603ZI9S4V8G7","A3EA4SHCLJ1UZQ","3VJ4PFXFJ3TL96TFXMATEMT7KJHUAI","","377.7000000476837","img/animal4.png","75","378.59999990463257","2","1","2","1,0.7,0,1,0.7,0,0.7,0,1",""
"","html-keyboard-response","49","47542","0.0-49.0","3RXCAC0YISBQ7KXZ7L603ZI9S4V8G7","A3EA4SHCLJ1UZQ","3VJ4PFXFJ3TL96TFXMATEMT7KJHUAI","","null","<img src=""img/animal4.png"" style=""width:200px; border:14px solid green;"">","null","","","","","",""
"","image-keyboard-response","50","48212","0.0-50.0","3RXCAC0YISBQ7KXZ7L603ZI9S4V8G7","A3EA4SHCLJ1UZQ","3VJ4PFXFJ3TL96TFXMATEMT7KJHUAI","","668.6999999284744","img/animal6.png","76","669.6000000238419","3","1","3","1,0.7,0,1,0.7,0,0.7,0,1",""
"","html-keyboard-response","51","48514","0.0-51.0","3RXCAC0YISBQ7KXZ7L603ZI9S4V8G7","A3EA4SHCLJ1UZQ","3VJ4PFXFJ3TL96TFXMATEMT7KJHUAI","","null","<img src=""img/animal6.png"" style=""width:200px; border:14px solid green;"">","null","","","","","",""
"","image-keyboard-response","52","49211","0.0-52.0","3RXCAC0YISBQ7KXZ7L603ZI9S4V8G7","A3EA4SHCLJ1UZQ","3VJ4PFXFJ3TL96TFXMATEMT7KJHUAI","","695.8999999761581","img/animal4.png","75","696.9000000953674","2","1","2","1,0.7,0,1,0.7,0,0.7,0,1",""
"","html-keyboard-response","53","49513","0.0-53.0","3RXCAC0YISBQ7KXZ7L603ZI9S4V8G7","A3EA4SHCLJ1UZQ","3VJ4PFXFJ3TL96TFXMATEMT7KJHUAI","","null","<img src=""img/animal4.png"" style=""width:200px; border:14px solid green;"">","null","","","","","",""
"","image-keyboard-response","54","49948","0.0-54.0","3RXCAC0YISBQ7KXZ7L603ZI9S4V8G7","A3EA4SHCLJ1UZQ","3VJ4PFXFJ3TL96TFXMATEMT7KJHUAI","","433.60000002384186","img/animal6.png","75","434.39999997615814","2","0","3","1,0.7,0,1,0.7,0,0.7,0,1",""
"","html-keyboard-response","55","50249","0.0-55.0","3RXCAC0YISBQ7KXZ7L603ZI9S4V8G7","A3EA4SHCLJ1UZQ","3VJ4PFXFJ3TL96TFXMATEMT7KJHUAI","","null","<img src=""img/animal6.png"" style=""width:200px;border:14px solid red;"">","null","","","","","",""
"","image-keyboard-response","56","50851","0.0-56.0","3RXCAC0YISBQ7KXZ7L603ZI9S4V8G7","A3EA4SHCLJ1UZQ","3VJ4PFXFJ3TL96TFXMATEMT7KJHUAI","","600.8000000715256","img/animal4.png","75","601.6000000238419","2","1","2","1,0.7,0,1,0.7,0,0.7,0,1",""
"","html-keyboard-response","57","51153","0.0-57.0","3RXCAC0YISBQ7KXZ7L603ZI9S4V8G7","A3EA4SHCLJ1UZQ","3VJ4PFXFJ3TL96TFXMATEMT7KJHUAI","","null","<img src=""img/animal4.png"" style=""width:200px; border:14px solid green;"">","null","","","","","",""
"","image-keyboard-response","58","51763","0.0-58.0","3RXCAC0YISBQ7KXZ7L603ZI9S4V8G7","A3EA4SHCLJ1UZQ","3VJ4PFXFJ3TL96TFXMATEMT7KJHUAI","","608.8999999761581","img/animal6.png","76","609.5999999046326","3","1","3","1,0.7,0,1,0.7,0,0.7,0,1",""
"","html-keyboard-response","59","52065","0.0-59.0","3RXCAC0YISBQ7KXZ7L603ZI9S4V8G7","A3EA4SHCLJ1UZQ","3VJ4PFXFJ3TL96TFXMATEMT7KJHUAI","","null","<img src=""img/animal6.png"" style=""width:200px; border:14px solid green;"">","null","","","","","",""
"","image-keyboard-response","60","52587","0.0-60.0","3RXCAC0YISBQ7KXZ7L603ZI9S4V8G7","A3EA4SHCLJ1UZQ","3VJ4PFXFJ3TL96TFXMATEMT7KJHUAI","","521.2999999523163","img/animal4.png","76","522","3","0","2","1,0.7,0,1,0.7,0,0.7,0,1",""
"","html-keyboard-response","61","52889","0.0-61.0","3RXCAC0YISBQ7KXZ7L603ZI9S4V8G7","A3EA4SHCLJ1UZQ","3VJ4PFXFJ3TL96TFXMATEMT7KJHUAI","","null","<img src=""img/animal4.png"" style=""width:200px;border:14px solid red;"">","null","","","","","",""
"","image-keyboard-response","62","53475","0.0-62.0","3RXCAC0YISBQ7KXZ7L603ZI9S4V8G7","A3EA4SHCLJ1UZQ","3VJ4PFXFJ3TL96TFXMATEMT7KJHUAI","","585.7000000476837","img/animal3.png","74","586.3000000715256","1","1","1","1,0.7,0,1,0.7,0,0.7,0,1",""
"","html-keyboard-response","63","53778","0.0-63.0","3RXCAC0YISBQ7KXZ7L603ZI9S4V8G7","A3EA4SHCLJ1UZQ","3VJ4PFXFJ3TL96TFXMATEMT7KJHUAI","","null","<img src=""img/animal3.png"" style=""width:200px; border:14px solid green;"">","null","","","","","",""
"","image-keyboard-response","64","54397","0.0-64.0","3RXCAC0YISBQ7KXZ7L603ZI9S4V8G7","A3EA4SHCLJ1UZQ","3VJ4PFXFJ3TL96TFXMATEMT7KJHUAI","","618.7999999523163","img/animal4.png","75","619.5","2","0","2","1,0.7,0,1,0.7,0,0.7,0,1",""
"","html-keyboard-response","65","54702","0.0-65.0","3RXCAC0YISBQ7KXZ7L603ZI9S4V8G7","A3EA4SHCLJ1UZQ","3VJ4PFXFJ3TL96TFXMATEMT7KJHUAI","","null","<img src=""img/animal4.png"" style=""width:200px;border:14px solid red;"">","null","","","","","",""
"","image-keyboard-response","66","55243","0.0-66.0","3RXCAC0YISBQ7KXZ7L603ZI9S4V8G7","A3EA4SHCLJ1UZQ","3VJ4PFXFJ3TL96TFXMATEMT7KJHUAI","","540.4000000953674","img/animal4.png","75","541.1000000238419","2","1","2","1,0.7,0,1,0.7,0,0.7,0,1",""
"","html-keyboard-response","67","55546","0.0-67.0","3RXCAC0YISBQ7KXZ7L603ZI9S4V8G7","A3EA4SHCLJ1UZQ","3VJ4PFXFJ3TL96TFXMATEMT7KJHUAI","","null","<img src=""img/animal4.png"" style=""width:200px; border:14px solid green;"">","null","","","","","",""
"","image-keyboard-response","68","56147","0.0-68.0","3RXCAC0YISBQ7KXZ7L603ZI9S4V8G7","A3EA4SHCLJ1UZQ","3VJ4PFXFJ3TL96TFXMATEMT7KJHUAI","","600.1000000238419","img/animal3.png","74","600.8000000715256","1","1","1","1,0.7,0,1,0.7,0,0.7,0,1",""
"","html-keyboard-response","69","56450","0.0-69.0","3RXCAC0YISBQ7KXZ7L603ZI9S4V8G7","A3EA4SHCLJ1UZQ","3VJ4PFXFJ3TL96TFXMATEMT7KJHUAI","","null","<img src=""img/animal3.png"" style=""width:200px; border:14px solid green;"">","null","","","","","",""
"","image-keyboard-response","70","57004","0.0-70.0","3RXCAC0YISBQ7KXZ7L603ZI9S4V8G7","A3EA4SHCLJ1UZQ","3VJ4PFXFJ3TL96TFXMATEMT7KJHUAI","","553","img/animal6.png","76","553.6000000238419","3","1","3","1,0.7,0,1,0.7,0,0.7,0,1",""
"","html-keyboard-response","71","57305","0.0-71.0","3RXCAC0YISBQ7KXZ7L603ZI9S4V8G7","A3EA4SHCLJ1UZQ","3VJ4PFXFJ3TL96TFXMATEMT7KJHUAI","","null","<img src=""img/animal6.png"" style=""width:200px; border:14px solid green;"">","null","","","","","",""
"","image-keyboard-response","72","58003","0.0-72.0","3RXCAC0YISBQ7KXZ7L603ZI9S4V8G7","A3EA4SHCLJ1UZQ","3VJ4PFXFJ3TL96TFXMATEMT7KJHUAI","","697.5","img/animal4.png","75","698.3999999761581","2","1","2","1,0.7,0,1,0.7,0,0.7,0,1",""
"","html-keyboard-response","73","58305","0.0-73.0","3RXCAC0YISBQ7KXZ7L603ZI9S4V8G7","A3EA4SHCLJ1UZQ","3VJ4PFXFJ3TL96TFXMATEMT7KJHUAI","","null","<img src=""img/animal4.png"" style=""width:200px; border:14px solid green;"">","null","","","","","",""
"","image-keyboard-response","74","58724","0.0-74.0","3RXCAC0YISBQ7KXZ7L603ZI9S4V8G7","A3EA4SHCLJ1UZQ","3VJ4PFXFJ3TL96TFXMATEMT7KJHUAI","","417.7999999523163","img/animal4.png","75","418.7000000476837","2","0","2","1,0.7,0,1,0.7,0,0.7,0,1",""
"","html-keyboard-response","75","59030","0.0-75.0","3RXCAC0YISBQ7KXZ7L603ZI9S4V8G7","A3EA4SHCLJ1UZQ","3VJ4PFXFJ3TL96TFXMATEMT7KJHUAI","","null","<img src=""img/animal4.png"" style=""width:200px;border:14px solid red;"">","null","","","","","",""
"","image-keyboard-response","76","59588","0.0-76.0","3RXCAC0YISBQ7KXZ7L603ZI9S4V8G7","A3EA4SHCLJ1UZQ","3VJ4PFXFJ3TL96TFXMATEMT7KJHUAI","","556.7000000476837","img/animal3.png","74","557.5","1","1","1","1,0.7,0,1,0.7,0,0.7,0,1",""
"","html-keyboard-response","77","59890","0.0-77.0","3RXCAC0YISBQ7KXZ7L603ZI9S4V8G7","A3EA4SHCLJ1UZQ","3VJ4PFXFJ3TL96TFXMATEMT7KJHUAI","","null","<img src=""img/animal3.png"" style=""width:200px; border:14px solid green;"">","null","","","","","",""
"","image-keyboard-response","78","60243","0.0-78.0","3RXCAC0YISBQ7KXZ7L603ZI9S4V8G7","A3EA4SHCLJ1UZQ","3VJ4PFXFJ3TL96TFXMATEMT7KJHUAI","","352.39999997615814","img/animal3.png","74","353.2000000476837","1","1","1","1,0.7,0,1,0.7,0,0.7,0,1",""
"","html-keyboard-response","79","60544","0.0-79.0","3RXCAC0YISBQ7KXZ7L603ZI9S4V8G7","A3EA4SHCLJ1UZQ","3VJ4PFXFJ3TL96TFXMATEMT7KJHUAI","","null","<img src=""img/animal3.png"" style=""width:200px; border:14px solid green;"">","null","","","","","",""
"","image-keyboard-response","80","61267","0.0-80.0","3RXCAC0YISBQ7KXZ7L603ZI9S4V8G7","A3EA4SHCLJ1UZQ","3VJ4PFXFJ3TL96TFXMATEMT7KJHUAI","","721.6000000238419","img/animal6.png","76","722.2999999523163","3","1","3","1,0.7,0,1,0.7,0,0.7,0,1",""
"","html-keyboard-response","81","61569","0.0-81.0","3RXCAC0YISBQ7KXZ7L603ZI9S4V8G7","A3EA4SHCLJ1UZQ","3VJ4PFXFJ3TL96TFXMATEMT7KJHUAI","","null","<img src=""img/animal6.png"" style=""width:200px; border:14px solid green;"">","null","","","","","",""
"","image-keyboard-response","82","62307","0.0-82.0","3RXCAC0YISBQ7KXZ7L603ZI9S4V8G7","A3EA4SHCLJ1UZQ","3VJ4PFXFJ3TL96TFXMATEMT7KJHUAI","","737.2000000476837","img/animal4.png","75","737.7999999523163","2","1","2","1,0.7,0,1,0.7,0,0.7,0,1",""
"","html-keyboard-response","83","62609","0.0-83.0","3RXCAC0YISBQ7KXZ7L603ZI9S4V8G7","A3EA4SHCLJ1UZQ","3VJ4PFXFJ3TL96TFXMATEMT7KJHUAI","","null","<img src=""img/animal4.png"" style=""width:200px; border:14px solid green;"">","null","","","","","",""
"","image-keyboard-response","84","63027","0.0-84.0","3RXCAC0YISBQ7KXZ7L603ZI9S4V8G7","A3EA4SHCLJ1UZQ","3VJ4PFXFJ3TL96TFXMATEMT7KJHUAI","","417.2000000476837","img/animal4.png","75","418","2","1","2","1,0.7,0,1,0.7,0,0.7,0,1",""
"","html-keyboard-response","85","63329","0.0-85.0","3RXCAC0YISBQ7KXZ7L603ZI9S4V8G7","A3EA4SHCLJ1UZQ","3VJ4PFXFJ3TL96TFXMATEMT7KJHUAI","","null","<img src=""img/animal4.png"" style=""width:200px; border:14px solid green;"">","null","","","","","",""
"","image-keyboard-response","86","63883","0.0-86.0","3RXCAC0YISBQ7KXZ7L603ZI9S4V8G7","A3EA4SHCLJ1UZQ","3VJ4PFXFJ3TL96TFXMATEMT7KJHUAI","","553","img/animal3.png","74","553.6000000238419","1","1","1","1,0.7,0,1,0.7,0,0.7,0,1",""
"","html-keyboard-response","87","64184","0.0-87.0","3RXCAC0YISBQ7KXZ7L603ZI9S4V8G7","A3EA4SHCLJ1UZQ","3VJ4PFXFJ3TL96TFXMATEMT7KJHUAI","","null","<img src=""img/animal3.png"" style=""width:200px; border:14px solid green;"">","null","","","","","",""
"","image-keyboard-response","88","64532","0.0-88.0","3RXCAC0YISBQ7KXZ7L603ZI9S4V8G7","A3EA4SHCLJ1UZQ","3VJ4PFXFJ3TL96TFXMATEMT7KJHUAI","","347.2000000476837","img/animal3.png","74","347.89999997615814","1","1","1","1,0.7,0,1,0.7,0,0.7,0,1",""
"","html-keyboard-response","89","64837","0.0-89.0","3RXCAC0YISBQ7KXZ7L603ZI9S4V8G7","A3EA4SHCLJ1UZQ","3VJ4PFXFJ3TL96TFXMATEMT7KJHUAI","","null","<img src=""img/animal3.png"" style=""width:200px; border:14px solid green;"">","null","","","","","",""
"","image-keyboard-response","90","65443","0.0-90.0","3RXCAC0YISBQ7KXZ7L603ZI9S4V8G7","A3EA4SHCLJ1UZQ","3VJ4PFXFJ3TL96TFXMATEMT7KJHUAI","","604.9000000953674","img/animal6.png","76","605.5","3","1","3","1,0.7,0,1,0.7,0,0.7,0,1",""
"","html-keyboard-response","91","65744","0.0-91.0","3RXCAC0YISBQ7KXZ7L603ZI9S4V8G7","A3EA4SHCLJ1UZQ","3VJ4PFXFJ3TL96TFXMATEMT7KJHUAI","","null","<img src=""img/animal6.png"" style=""width:200px; border:14px solid green;"">","null","","","","","",""
"","image-keyboard-response","92","66138","0.0-92.0","3RXCAC0YISBQ7KXZ7L603ZI9S4V8G7","A3EA4SHCLJ1UZQ","3VJ4PFXFJ3TL96TFXMATEMT7KJHUAI","","393.7000000476837","img/animal6.png","76","394.5","3","1","3","1,0.7,0,1,0.7,0,0.7,0,1",""
"","html-keyboard-response","93","66440","0.0-93.0","3RXCAC0YISBQ7KXZ7L603ZI9S4V8G7","A3EA4SHCLJ1UZQ","3VJ4PFXFJ3TL96TFXMATEMT7KJHUAI","","null","<img src=""img/animal6.png"" style=""width:200px; border:14px solid green;"">","null","","","","","",""
"","image-keyboard-response","94","67075","0.0-94.0","3RXCAC0YISBQ7KXZ7L603ZI9S4V8G7","A3EA4SHCLJ1UZQ","3VJ4PFXFJ3TL96TFXMATEMT7KJHUAI","","633.7000000476837","img/animal4.png","75","634.5","2","1","2","1,0.7,0,1,0.7,0,0.7,0,1",""
"","html-keyboard-response","95","67376","0.0-95.0","3RXCAC0YISBQ7KXZ7L603ZI9S4V8G7","A3EA4SHCLJ1UZQ","3VJ4PFXFJ3TL96TFXMATEMT7KJHUAI","","null","<img src=""img/animal4.png"" style=""width:200px; border:14px solid green;"">","null","","","","","",""
"","image-keyboard-response","96","68211","0.0-96.0","3RXCAC0YISBQ7KXZ7L603ZI9S4V8G7","A3EA4SHCLJ1UZQ","3VJ4PFXFJ3TL96TFXMATEMT7KJHUAI","","833.7999999523163","img/animal6.png","76","834.6000000238419","3","1","3","1,0.7,0,1,0.7,0,0.7,0,1",""
"","html-keyboard-response","97","68513","0.0-97.0","3RXCAC0YISBQ7KXZ7L603ZI9S4V8G7","A3EA4SHCLJ1UZQ","3VJ4PFXFJ3TL96TFXMATEMT7KJHUAI","","null","<img src=""img/animal6.png"" style=""width:200px; border:14px solid green;"">","null","","","","","",""
"","image-keyboard-response","98","68875","0.0-98.0","3RXCAC0YISBQ7KXZ7L603ZI9S4V8G7","A3EA4SHCLJ1UZQ","3VJ4PFXFJ3TL96TFXMATEMT7KJHUAI","","361.60000002384186","img/animal6.png","76","362.39999997615814","3","1","3","1,0.7,0,1,0.7,0,0.7,0,1",""
"","html-keyboard-response","99","69182","0.0-99.0","3RXCAC0YISBQ7KXZ7L603ZI9S4V8G7","A3EA4SHCLJ1UZQ","3VJ4PFXFJ3TL96TFXMATEMT7KJHUAI","","null","<img src=""img/animal6.png"" style=""width:200px; border:14px solid green;"">","null","","","","","",""
"","image-keyboard-response","100","69823","0.0-100.0","3RXCAC0YISBQ7KXZ7L603ZI9S4V8G7","A3EA4SHCLJ1UZQ","3VJ4PFXFJ3TL96TFXMATEMT7KJHUAI","","640.9000000953674","img/animal3.png","74","641.6000000238419","1","1","1","1,0.7,0,1,0.7,0,0.7,0,1",""
"","html-keyboard-response","101","70126","0.0-101.0","3RXCAC0YISBQ7KXZ7L603ZI9S4V8G7","A3EA4SHCLJ1UZQ","3VJ4PFXFJ3TL96TFXMATEMT7KJHUAI","","null","<img src=""img/animal3.png"" style=""width:200px; border:14px solid green;"">","null","","","","","",""
"","image-keyboard-response","102","70699","0.0-102.0","3RXCAC0YISBQ7KXZ7L603ZI9S4V8G7","A3EA4SHCLJ1UZQ","3VJ4PFXFJ3TL96TFXMATEMT7KJHUAI","","572","img/animal6.png","75","573","2","0","3","1,0.7,0,1,0.7,0,0.7,0,1",""
"","html-keyboard-response","103","71001","0.0-103.0","3RXCAC0YISBQ7KXZ7L603ZI9S4V8G7","A3EA4SHCLJ1UZQ","3VJ4PFXFJ3TL96TFXMATEMT7KJHUAI","","null","<img src=""img/animal6.png"" style=""width:200px;border:14px solid red;"">","null","","","","","",""
"","image-keyboard-response","104","71603","0.0-104.0","3RXCAC0YISBQ7KXZ7L603ZI9S4V8G7","A3EA4SHCLJ1UZQ","3VJ4PFXFJ3TL96TFXMATEMT7KJHUAI","","600.7999999523163","img/animal3.png","74","601.7999999523163","1","1","1","1,0.7,0,1,0.7,0,0.7,0,1",""
"","html-keyboard-response","105","71905","0.0-105.0","3RXCAC0YISBQ7KXZ7L603ZI9S4V8G7","A3EA4SHCLJ1UZQ","3VJ4PFXFJ3TL96TFXMATEMT7KJHUAI","","null","<img src=""img/animal3.png"" style=""width:200px; border:14px solid green;"">","null","","","","","",""
"","image-keyboard-response","106","72339","0.0-106.0","3RXCAC0YISBQ7KXZ7L603ZI9S4V8G7","A3EA4SHCLJ1UZQ","3VJ4PFXFJ3TL96TFXMATEMT7KJHUAI","","433.2000000476837","img/animal3.png","74","434","1","1","1","1,0.7,0,1,0.7,0,0.7,0,1",""
"","html-keyboard-response","107","72641","0.0-107.0","3RXCAC0YISBQ7KXZ7L603ZI9S4V8G7","A3EA4SHCLJ1UZQ","3VJ4PFXFJ3TL96TFXMATEMT7KJHUAI","","null","<img src=""img/animal3.png"" style=""width:200px; border:14px solid green;"">","null","","","","","",""
"","image-keyboard-response","108","73010","0.0-108.0","3RXCAC0YISBQ7KXZ7L603ZI9S4V8G7","A3EA4SHCLJ1UZQ","3VJ4PFXFJ3TL96TFXMATEMT7KJHUAI","","368.2000000476837","img/animal3.png","74","368.89999997615814","1","1","1","1,0.7,0,1,0.7,0,0.7,0,1",""
"","html-keyboard-response","109","73312","0.0-109.0","3RXCAC0YISBQ7KXZ7L603ZI9S4V8G7","A3EA4SHCLJ1UZQ","3VJ4PFXFJ3TL96TFXMATEMT7KJHUAI","","null","<img src=""img/animal3.png"" style=""width:200px; border:14px solid green;"">","null","","","","","",""
"","image-keyboard-response","110","73658","0.0-110.0","3RXCAC0YISBQ7KXZ7L603ZI9S4V8G7","A3EA4SHCLJ1UZQ","3VJ4PFXFJ3TL96TFXMATEMT7KJHUAI","","345.39999997615814","img/animal3.png","74","346","1","1","1","1,0.7,0,1,0.7,0,0.7,0,1",""
"","html-keyboard-response","111","73960","0.0-111.0","3RXCAC0YISBQ7KXZ7L603ZI9S4V8G7","A3EA4SHCLJ1UZQ","3VJ4PFXFJ3TL96TFXMATEMT7KJHUAI","","null","<img src=""img/animal3.png"" style=""width:200px; border:14px solid green;"">","null","","","","","",""
"","image-keyboard-response","112","74356","0.0-112.0","3RXCAC0YISBQ7KXZ7L603ZI9S4V8G7","A3EA4SHCLJ1UZQ","3VJ4PFXFJ3TL96TFXMATEMT7KJHUAI","","395","img/animal3.png","74","395.6999999284744","1","1","1","1,0.7,0,1,0.7,0,0.7,0,1",""
"","html-keyboard-response","113","74657","0.0-113.0","3RXCAC0YISBQ7KXZ7L603ZI9S4V8G7","A3EA4SHCLJ1UZQ","3VJ4PFXFJ3TL96TFXMATEMT7KJHUAI","","null","<img src=""img/animal3.png"" style=""width:200px; border:14px solid green;"">","null","","","","","",""
"","image-keyboard-response","114","75396","0.0-114.0","3RXCAC0YISBQ7KXZ7L603ZI9S4V8G7","A3EA4SHCLJ1UZQ","3VJ4PFXFJ3TL96TFXMATEMT7KJHUAI","","738.3999999761581","img/animal4.png","75","739.1000000238419","2","1","2","1,0.7,0,1,0.7,0,0.7,0,1",""
"","html-keyboard-response","115","75700","0.0-115.0","3RXCAC0YISBQ7KXZ7L603ZI9S4V8G7","A3EA4SHCLJ1UZQ","3VJ4PFXFJ3TL96TFXMATEMT7KJHUAI","","null","<img src=""img/animal4.png"" style=""width:200px; border:14px solid green;"">","null","","","","","",""
"","image-keyboard-response","116","76058","0.0-116.0","3RXCAC0YISBQ7KXZ7L603ZI9S4V8G7","A3EA4SHCLJ1UZQ","3VJ4PFXFJ3TL96TFXMATEMT7KJHUAI","","357","img/animal4.png","75","357.7999999523163","2","1","2","1,0.7,0,1,0.7,0,0.7,0,1",""
"","html-keyboard-response","117","76360","0.0-117.0","3RXCAC0YISBQ7KXZ7L603ZI9S4V8G7","A3EA4SHCLJ1UZQ","3VJ4PFXFJ3TL96TFXMATEMT7KJHUAI","","null","<img src=""img/animal4.png"" style=""width:200px; border:14px solid green;"">","null","","","","","",""
"","image-keyboard-response","118","77002","0.0-118.0","3RXCAC0YISBQ7KXZ7L603ZI9S4V8G7","A3EA4SHCLJ1UZQ","3VJ4PFXFJ3TL96TFXMATEMT7KJHUAI","","641.3000000715256","img/animal3.png","76","642","3","0","1","1,0.7,0,1,0.7,0,0.7,0,1",""
"","html-keyboard-response","119","77304","0.0-119.0","3RXCAC0YISBQ7KXZ7L603ZI9S4V8G7","A3EA4SHCLJ1UZQ","3VJ4PFXFJ3TL96TFXMATEMT7KJHUAI","","null","<img src=""img/animal3.png"" style=""width:200px;border:14px solid red;"">","null","","","","","",""
"","image-keyboard-response","120","77867","0.0-120.0","3RXCAC0YISBQ7KXZ7L603ZI9S4V8G7","A3EA4SHCLJ1UZQ","3VJ4PFXFJ3TL96TFXMATEMT7KJHUAI","","561.8999999761581","img/animal6.png","76","562.4000000953674","3","1","3","1,0.7,0,1,0.7,0,0.7,0,1",""
"","html-keyboard-response","121","78168","0.0-121.0","3RXCAC0YISBQ7KXZ7L603ZI9S4V8G7","A3EA4SHCLJ1UZQ","3VJ4PFXFJ3TL96TFXMATEMT7KJHUAI","","null","<img src=""img/animal6.png"" style=""width:200px; border:14px solid green;"">","null","","","","","",""
"","image-keyboard-response","122","78747","0.0-122.0","3RXCAC0YISBQ7KXZ7L603ZI9S4V8G7","A3EA4SHCLJ1UZQ","3VJ4PFXFJ3TL96TFXMATEMT7KJHUAI","","577.6000000238419","img/animal4.png","75","578.4000000953674","2","1","2","1,0.7,0,1,0.7,0,0.7,0,1",""
"","html-keyboard-response","123","79048","0.0-123.0","3RXCAC0YISBQ7KXZ7L603ZI9S4V8G7","A3EA4SHCLJ1UZQ","3VJ4PFXFJ3TL96TFXMATEMT7KJHUAI","","null","<img src=""img/animal4.png"" style=""width:200px; border:14px solid green;"">","null","","","","","",""
"","image-keyboard-response","124","79627","0.0-124.0","3RXCAC0YISBQ7KXZ7L603ZI9S4V8G7","A3EA4SHCLJ1UZQ","3VJ4PFXFJ3TL96TFXMATEMT7KJHUAI","","577.3999999761581","img/animal3.png","74","578.2000000476837","1","1","1","1,0.7,0,1,0.7,0,0.7,0,1",""
"","html-keyboard-response","125","79932","0.0-125.0","3RXCAC0YISBQ7KXZ7L603ZI9S4V8G7","A3EA4SHCLJ1UZQ","3VJ4PFXFJ3TL96TFXMATEMT7KJHUAI","","null","<img src=""img/animal3.png"" style=""width:200px; border:14px solid green;"">","null","","","","","",""
"","image-keyboard-response","126","80698","0.0-126.0","3RXCAC0YISBQ7KXZ7L603ZI9S4V8G7","A3EA4SHCLJ1UZQ","3VJ4PFXFJ3TL96TFXMATEMT7KJHUAI","","765.1999999284744","img/animal6.png","75","766","2","0","3","1,0.7,0,1,0.7,0,0.7,0,1",""
"","html-keyboard-response","127","80999","0.0-127.0","3RXCAC0YISBQ7KXZ7L603ZI9S4V8G7","A3EA4SHCLJ1UZQ","3VJ4PFXFJ3TL96TFXMATEMT7KJHUAI","","null","<img src=""img/animal6.png"" style=""width:200px;border:14px solid red;"">","null","","","","","",""
"","image-keyboard-response","128","81482","0.0-128.0","3RXCAC0YISBQ7KXZ7L603ZI9S4V8G7","A3EA4SHCLJ1UZQ","3VJ4PFXFJ3TL96TFXMATEMT7KJHUAI","","481.5","img/animal3.png","74","482.5","1","1","1","1,0.7,0,1,0.7,0,0.7,0,1",""
"","html-keyboard-response","129","81784","0.0-129.0","3RXCAC0YISBQ7KXZ7L603ZI9S4V8G7","A3EA4SHCLJ1UZQ","3VJ4PFXFJ3TL96TFXMATEMT7KJHUAI","","null","<img src=""img/animal3.png"" style=""width:200px; border:14px solid green;"">","null","","","","","",""
"","image-keyboard-response","130","82586","0.0-130.0","3RXCAC0YISBQ7KXZ7L603ZI9S4V8G7","A3EA4SHCLJ1UZQ","3VJ4PFXFJ3TL96TFXMATEMT7KJHUAI","","800.7000000476837","img/animal4.png","75","801.5999999046326","2","0","2","1,0.7,0,1,0.7,0,0.7,0,1",""
"","html-keyboard-response","131","82888","0.0-131.0","3RXCAC0YISBQ7KXZ7L603ZI9S4V8G7","A3EA4SHCLJ1UZQ","3VJ4PFXFJ3TL96TFXMATEMT7KJHUAI","","null","<img src=""img/animal4.png"" style=""width:200px;border:14px solid red;"">","null","","","","","",""
"","image-keyboard-response","132","83322","0.0-132.0","3RXCAC0YISBQ7KXZ7L603ZI9S4V8G7","A3EA4SHCLJ1UZQ","3VJ4PFXFJ3TL96TFXMATEMT7KJHUAI","","432.7000000476837","img/animal4.png","75","433.39999997615814","2","1","2","1,0.7,0,1,0.7,0,0.7,0,1",""
"","html-keyboard-response","133","83624","0.0-133.0","3RXCAC0YISBQ7KXZ7L603ZI9S4V8G7","A3EA4SHCLJ1UZQ","3VJ4PFXFJ3TL96TFXMATEMT7KJHUAI","","null","<img src=""img/animal4.png"" style=""width:200px; border:14px solid green;"">","null","","","","","",""
"","image-keyboard-response","134","84266","0.0-134.0","3RXCAC0YISBQ7KXZ7L603ZI9S4V8G7","A3EA4SHCLJ1UZQ","3VJ4PFXFJ3TL96TFXMATEMT7KJHUAI","","641.4000000953674","img/animal3.png","74","642.1000000238419","1","1","1","1,0.7,0,1,0.7,0,0.7,0,1",""
"","html-keyboard-response","135","84568","0.0-135.0","3RXCAC0YISBQ7KXZ7L603ZI9S4V8G7","A3EA4SHCLJ1UZQ","3VJ4PFXFJ3TL96TFXMATEMT7KJHUAI","","null","<img src=""img/animal3.png"" style=""width:200px; border:14px solid green;"">","null","","","","","",""
"","image-keyboard-response","136","85250","0.0-136.0","3RXCAC0YISBQ7KXZ7L603ZI9S4V8G7","A3EA4SHCLJ1UZQ","3VJ4PFXFJ3TL96TFXMATEMT7KJHUAI","","680.7999999523163","img/animal6.png","76","681.6000000238419","3","1","3","1,0.7,0,1,0.7,0,0.7,0,1",""
"","html-keyboard-response","137","85552","0.0-137.0","3RXCAC0YISBQ7KXZ7L603ZI9S4V8G7","A3EA4SHCLJ1UZQ","3VJ4PFXFJ3TL96TFXMATEMT7KJHUAI","","null","<img src=""img/animal6.png"" style=""width:200px; border:14px solid green;"">","null","","","","","",""
"","image-keyboard-response","138","86212","0.0-138.0","3RXCAC0YISBQ7KXZ7L603ZI9S4V8G7","A3EA4SHCLJ1UZQ","3VJ4PFXFJ3TL96TFXMATEMT7KJHUAI","","659.3999999761581","img/animal3.png","74","660.3999999761581","1","1","1","1,0.7,0,1,0.7,0,0.7,0,1",""
"","html-keyboard-response","139","86516","0.0-139.0","3RXCAC0YISBQ7KXZ7L603ZI9S4V8G7","A3EA4SHCLJ1UZQ","3VJ4PFXFJ3TL96TFXMATEMT7KJHUAI","","null","<img src=""img/animal3.png"" style=""width:200px; border:14px solid green;"">","null","","","","","",""
"","image-keyboard-response","140","87218","0.0-140.0","3RXCAC0YISBQ7KXZ7L603ZI9S4V8G7","A3EA4SHCLJ1UZQ","3VJ4PFXFJ3TL96TFXMATEMT7KJHUAI","","700.6000000238419","img/animal6.png","75","701.1999999284744","2","0","3","1,0.7,0,1,0.7,0,0.7,0,1",""
"","html-keyboard-response","141","87519","0.0-141.0","3RXCAC0YISBQ7KXZ7L603ZI9S4V8G7","A3EA4SHCLJ1UZQ","3VJ4PFXFJ3TL96TFXMATEMT7KJHUAI","","null","<img src=""img/animal6.png"" style=""width:200px;border:14px solid red;"">","null","","","","","",""
"","image-keyboard-response","142","87922","0.0-142.0","3RXCAC0YISBQ7KXZ7L603ZI9S4V8G7","A3EA4SHCLJ1UZQ","3VJ4PFXFJ3TL96TFXMATEMT7KJHUAI","","402","img/animal6.png","74","402.8000000715256","1","1","3","1,0.7,0,1,0.7,0,0.7,0,1",""
"","html-keyboard-response","143","88224","0.0-143.0","3RXCAC0YISBQ7KXZ7L603ZI9S4V8G7","A3EA4SHCLJ1UZQ","3VJ4PFXFJ3TL96TFXMATEMT7KJHUAI","","null","<img src=""img/animal6.png"" style=""width:200px; border:14px solid green;"">","null","","","","","",""
"","image-keyboard-response","144","88866","0.0-144.0","3RXCAC0YISBQ7KXZ7L603ZI9S4V8G7","A3EA4SHCLJ1UZQ","3VJ4PFXFJ3TL96TFXMATEMT7KJHUAI","","641.2999999523163","img/animal4.png","75","642.1000000238419","2","1","2","1,0.7,0,1,0.7,0,0.7,0,1",""
"","html-keyboard-response","145","89172","0.0-145.0","3RXCAC0YISBQ7KXZ7L603ZI9S4V8G7","A3EA4SHCLJ1UZQ","3VJ4PFXFJ3TL96TFXMATEMT7KJHUAI","","null","<img src=""img/animal4.png"" style=""width:200px; border:14px solid green;"">","null","","","","","",""
"","image-keyboard-response","146","89858","0.0-146.0","3RXCAC0YISBQ7KXZ7L603ZI9S4V8G7","A3EA4SHCLJ1UZQ","3VJ4PFXFJ3TL96TFXMATEMT7KJHUAI","","685.8999999761581","img/animal3.png","74","686.6999999284744","1","1","1","1,0.7,0,1,0.7,0,0.7,0,1",""
"","html-keyboard-response","147","90165","0.0-147.0","3RXCAC0YISBQ7KXZ7L603ZI9S4V8G7","A3EA4SHCLJ1UZQ","3VJ4PFXFJ3TL96TFXMATEMT7KJHUAI","","null","<img src=""img/animal3.png"" style=""width:200px; border:14px solid green;"">","null","","","","","",""
"","image-keyboard-response","148","90786","0.0-148.0","3RXCAC0YISBQ7KXZ7L603ZI9S4V8G7","A3EA4SHCLJ1UZQ","3VJ4PFXFJ3TL96TFXMATEMT7KJHUAI","","620","img/animal6.png","74","622.6000000238419","1","1","3","1,0.7,0,1,0.7,0,0.7,0,1",""
"","html-keyboard-response","149","91092","0.0-149.0","3RXCAC0YISBQ7KXZ7L603ZI9S4V8G7","A3EA4SHCLJ1UZQ","3VJ4PFXFJ3TL96TFXMATEMT7KJHUAI","","null","<img src=""img/animal6.png"" style=""width:200px; border:14px solid green;"">","null","","","","","",""
"","image-keyboard-response","150","91498","0.0-150.0","3RXCAC0YISBQ7KXZ7L603ZI9S4V8G7","A3EA4SHCLJ1UZQ","3VJ4PFXFJ3TL96TFXMATEMT7KJHUAI","","405","img/animal6.png","74","405.6999999284744","1","1","3","1,0.7,0,1,0.7,0,0.7,0,1",""
"","html-keyboard-response","151","91799","0.0-151.0","3RXCAC0YISBQ7KXZ7L603ZI9S4V8G7","A3EA4SHCLJ1UZQ","3VJ4PFXFJ3TL96TFXMATEMT7KJHUAI","","null","<img src=""img/animal6.png"" style=""width:200px; border:14px solid green;"">","null","","","","","",""
"","image-keyboard-response","152","92369","0.0-152.0","3RXCAC0YISBQ7KXZ7L603ZI9S4V8G7","A3EA4SHCLJ1UZQ","3VJ4PFXFJ3TL96TFXMATEMT7KJHUAI","","569.1000000238419","img/animal4.png","76","569.8000000715256","3","0","2","1,0.7,0,1,0.7,0,0.7,0,1",""
"","html-keyboard-response","153","92672","0.0-153.0","3RXCAC0YISBQ7KXZ7L603ZI9S4V8G7","A3EA4SHCLJ1UZQ","3VJ4PFXFJ3TL96TFXMATEMT7KJHUAI","","null","<img src=""img/animal4.png"" style=""width:200px;border:14px solid red;"">","null","","","","","",""
"","image-keyboard-response","154","93505","0.0-154.0","3RXCAC0YISBQ7KXZ7L603ZI9S4V8G7","A3EA4SHCLJ1UZQ","3VJ4PFXFJ3TL96TFXMATEMT7KJHUAI","","832.2000000476837","img/animal3.png","75","833","2","1","1","1,0.7,0,1,0.7,0,0.7,0,1",""
"","html-keyboard-response","155","93808","0.0-155.0","3RXCAC0YISBQ7KXZ7L603ZI9S4V8G7","A3EA4SHCLJ1UZQ","3VJ4PFXFJ3TL96TFXMATEMT7KJHUAI","","null","<img src=""img/animal3.png"" style=""width:200px; border:14px solid green;"">","null","","","","","",""
"","image-keyboard-response","156","94522","0.0-156.0","3RXCAC0YISBQ7KXZ7L603ZI9S4V8G7","A3EA4SHCLJ1UZQ","3VJ4PFXFJ3TL96TFXMATEMT7KJHUAI","","713.1000000238419","img/animal4.png","75","713.8000000715256","2","1","2","1,0.7,0,1,0.7,0,0.7,0,1",""
"","html-keyboard-response","157","94823","0.0-157.0","3RXCAC0YISBQ7KXZ7L603ZI9S4V8G7","A3EA4SHCLJ1UZQ","3VJ4PFXFJ3TL96TFXMATEMT7KJHUAI","","null","<img src=""img/animal4.png"" style=""width:200px; border:14px solid green;"">","null","","","","","",""
"","image-keyboard-response","158","95370","0.0-158.0","3RXCAC0YISBQ7KXZ7L603ZI9S4V8G7","A3EA4SHCLJ1UZQ","3VJ4PFXFJ3TL96TFXMATEMT7KJHUAI","","546","img/animal3.png","74","546.6999999284744","1","1","1","1,0.7,0,1,0.7,0,0.7,0,1",""
"","html-keyboard-response","159","95672","0.0-159.0","3RXCAC0YISBQ7KXZ7L603ZI9S4V8G7","A3EA4SHCLJ1UZQ","3VJ4PFXFJ3TL96TFXMATEMT7KJHUAI","","null","<img src=""img/animal3.png"" style=""width:200px; border:14px solid green;"">","null","","","","","",""
"","image-keyboard-response","160","96033","0.0-160.0","3RXCAC0YISBQ7KXZ7L603ZI9S4V8G7","A3EA4SHCLJ1UZQ","3VJ4PFXFJ3TL96TFXMATEMT7KJHUAI","","361.10000002384186","img/animal3.png","74","361.6999999284744","1","1","1","1,0.7,0,1,0.7,0,0.7,0,1",""
"","html-keyboard-response","161","96336","0.0-161.0","3RXCAC0YISBQ7KXZ7L603ZI9S4V8G7","A3EA4SHCLJ1UZQ","3VJ4PFXFJ3TL96TFXMATEMT7KJHUAI","","null","<img src=""img/animal3.png"" style=""width:200px; border:14px solid green;"">","null","","","","","",""
"","image-keyboard-response","162","96875","0.0-162.0","3RXCAC0YISBQ7KXZ7L603ZI9S4V8G7","A3EA4SHCLJ1UZQ","3VJ4PFXFJ3TL96TFXMATEMT7KJHUAI","","538.1000000238419","img/animal4.png","75","538.9000000953674","2","0","2","1,0.7,0,1,0.7,0,0.7,0,1",""
"","html-keyboard-response","163","97179","0.0-163.0","3RXCAC0YISBQ7KXZ7L603ZI9S4V8G7","A3EA4SHCLJ1UZQ","3VJ4PFXFJ3TL96TFXMATEMT7KJHUAI","","null","<img src=""img/animal4.png"" style=""width:200px;border:14px solid red;"">","null","","","","","",""
"","image-keyboard-response","164","97882","0.0-164.0","3RXCAC0YISBQ7KXZ7L603ZI9S4V8G7","A3EA4SHCLJ1UZQ","3VJ4PFXFJ3TL96TFXMATEMT7KJHUAI","","701.7999999523163","img/animal4.png","76","702.5","3","0","2","1,0.7,0,1,0.7,0,0.7,0,1",""
"","html-keyboard-response","165","98183","0.0-165.0","3RXCAC0YISBQ7KXZ7L603ZI9S4V8G7","A3EA4SHCLJ1UZQ","3VJ4PFXFJ3TL96TFXMATEMT7KJHUAI","","null","<img src=""img/animal4.png"" style=""width:200px;border:14px solid red;"">","null","","","","","",""
"","image-keyboard-response","166","98466","0.0-166.0","3RXCAC0YISBQ7KXZ7L603ZI9S4V8G7","A3EA4SHCLJ1UZQ","3VJ4PFXFJ3TL96TFXMATEMT7KJHUAI","","282.09999990463257","img/animal4.png","75","283","2","0","2","1,0.7,0,1,0.7,0,0.7,0,1",""
"","html-keyboard-response","167","98767","0.0-167.0","3RXCAC0YISBQ7KXZ7L603ZI9S4V8G7","A3EA4SHCLJ1UZQ","3VJ4PFXFJ3TL96TFXMATEMT7KJHUAI","","null","<img src=""img/animal4.png"" style=""width:200px;border:14px solid red;"">","null","","","","","",""
"","image-keyboard-response","168","99418","0.0-168.0","3RXCAC0YISBQ7KXZ7L603ZI9S4V8G7","A3EA4SHCLJ1UZQ","3VJ4PFXFJ3TL96TFXMATEMT7KJHUAI","","649.7999999523163","img/animal6.png","76","650.7000000476837","3","1","3","1,0.7,0,1,0.7,0,0.7,0,1",""
"","html-keyboard-response","169","99723","0.0-169.0","3RXCAC0YISBQ7KXZ7L603ZI9S4V8G7","A3EA4SHCLJ1UZQ","3VJ4PFXFJ3TL96TFXMATEMT7KJHUAI","","null","<img src=""img/animal6.png"" style=""width:200px; border:14px solid green;"">","null","","","","","",""
"","image-keyboard-response","170","100314","0.0-170.0","3RXCAC0YISBQ7KXZ7L603ZI9S4V8G7","A3EA4SHCLJ1UZQ","3VJ4PFXFJ3TL96TFXMATEMT7KJHUAI","","589.6000000238419","img/animal3.png","74","590.5","1","1","1","1,0.7,0,1,0.7,0,0.7,0,1",""
"","html-keyboard-response","171","100615","0.0-171.0","3RXCAC0YISBQ7KXZ7L603ZI9S4V8G7","A3EA4SHCLJ1UZQ","3VJ4PFXFJ3TL96TFXMATEMT7KJHUAI","","null","<img src=""img/animal3.png"" style=""width:200px; border:14px solid green;"">","null","","","","","",""
"","image-keyboard-response","172","102073","0.0-172.0","3RXCAC0YISBQ7KXZ7L603ZI9S4V8G7","A3EA4SHCLJ1UZQ","3VJ4PFXFJ3TL96TFXMATEMT7KJHUAI","","1457.1999999284744","img/animal6.png","76","1458.1000000238419","3","1","3","1,0.7,0,1,0.7,0,0.7,0,1",""
"","html-keyboard-response","173","102375","0.0-173.0","3RXCAC0YISBQ7KXZ7L603ZI9S4V8G7","A3EA4SHCLJ1UZQ","3VJ4PFXFJ3TL96TFXMATEMT7KJHUAI","","null","<img src=""img/animal6.png"" style=""width:200px; border:14px solid green;"">","null","","","","","",""
"","image-keyboard-response","174","103105","0.0-174.0","3RXCAC0YISBQ7KXZ7L603ZI9S4V8G7","A3EA4SHCLJ1UZQ","3VJ4PFXFJ3TL96TFXMATEMT7KJHUAI","","729.2000000476837","img/animal4.png","75","730","2","1","2","1,0.7,0,1,0.7,0,0.7,0,1",""
"","html-keyboard-response","175","103408","0.0-175.0","3RXCAC0YISBQ7KXZ7L603ZI9S4V8G7","A3EA4SHCLJ1UZQ","3VJ4PFXFJ3TL96TFXMATEMT7KJHUAI","","null","<img src=""img/animal4.png"" style=""width:200px; border:14px solid green;"">","null","","","","","",""
"","image-keyboard-response","176","104041","0.0-176.0","3RXCAC0YISBQ7KXZ7L603ZI9S4V8G7","A3EA4SHCLJ1UZQ","3VJ4PFXFJ3TL96TFXMATEMT7KJHUAI","","632.6000000238419","img/animal6.png","74","633.5","1","1","3","1,0.7,0,1,0.7,0,0.7,0,1",""
"","html-keyboard-response","177","104343","0.0-177.0","3RXCAC0YISBQ7KXZ7L603ZI9S4V8G7","A3EA4SHCLJ1UZQ","3VJ4PFXFJ3TL96TFXMATEMT7KJHUAI","","null","<img src=""img/animal6.png"" style=""width:200px; border:14px solid green;"">","null","","","","","",""
"","image-keyboard-response","178","104881","0.0-178.0","3RXCAC0YISBQ7KXZ7L603ZI9S4V8G7","A3EA4SHCLJ1UZQ","3VJ4PFXFJ3TL96TFXMATEMT7KJHUAI","","537.1000000238419","img/animal3.png","74","537.8000000715256","1","1","1","1,0.7,0,1,0.7,0,0.7,0,1",""
"","html-keyboard-response","179","105184","0.0-179.0","3RXCAC0YISBQ7KXZ7L603ZI9S4V8G7","A3EA4SHCLJ1UZQ","3VJ4PFXFJ3TL96TFXMATEMT7KJHUAI","","null","<img src=""img/animal3.png"" style=""width:200px; border:14px solid green;"">","null","","","","","",""
"","image-keyboard-response","180","105617","0.0-180.0","3RXCAC0YISBQ7KXZ7L603ZI9S4V8G7","A3EA4SHCLJ1UZQ","3VJ4PFXFJ3TL96TFXMATEMT7KJHUAI","","432.2000000476837","img/animal3.png","74","432.89999997615814","1","1","1","1,0.7,0,1,0.7,0,0.7,0,1",""
"","html-keyboard-response","181","105920","0.0-181.0","3RXCAC0YISBQ7KXZ7L603ZI9S4V8G7","A3EA4SHCLJ1UZQ","3VJ4PFXFJ3TL96TFXMATEMT7KJHUAI","","null","<img src=""img/animal3.png"" style=""width:200px; border:14px solid green;"">","null","","","","","",""
"","html-keyboard-response","182","108422","0.0-182.0","3RXCAC0YISBQ7KXZ7L603ZI9S4V8G7","A3EA4SHCLJ1UZQ","3VJ4PFXFJ3TL96TFXMATEMT7KJHUAI","","","","","","","","","",""
"","image-keyboard-response","183","109522","0.0-183.0","3RXCAC0YISBQ7KXZ7L603ZI9S4V8G7","A3EA4SHCLJ1UZQ","3VJ4PFXFJ3TL96TFXMATEMT7KJHUAI","","1097.8000000715256","img/animal5.png","74","1099.1999999284744","1","1","1","1,0.7,0,0,1,0.7,0.7,0,1",""
"","html-keyboard-response","184","109824","0.0-184.0","3RXCAC0YISBQ7KXZ7L603ZI9S4V8G7","A3EA4SHCLJ1UZQ","3VJ4PFXFJ3TL96TFXMATEMT7KJHUAI","","null","<img src=""img/animal5.png"" style=""width:200px; border:14px solid green;"">","null","","","","","",""
"","image-keyboard-response","185","110865","0.0-185.0","3RXCAC0YISBQ7KXZ7L603ZI9S4V8G7","A3EA4SHCLJ1UZQ","3VJ4PFXFJ3TL96TFXMATEMT7KJHUAI","","1040.8999999761581","img/animal1.png","76","1041.8000000715256","3","1","3","1,0.7,0,0,1,0.7,0.7,0,1",""
"","html-keyboard-response","186","111171","0.0-186.0","3RXCAC0YISBQ7KXZ7L603ZI9S4V8G7","A3EA4SHCLJ1UZQ","3VJ4PFXFJ3TL96TFXMATEMT7KJHUAI","","null","<img src=""img/animal1.png"" style=""width:200px; border:14px solid green;"">","null","","","","","",""
"","image-keyboard-response","187","111993","0.0-187.0","3RXCAC0YISBQ7KXZ7L603ZI9S4V8G7","A3EA4SHCLJ1UZQ","3VJ4PFXFJ3TL96TFXMATEMT7KJHUAI","","820.8999999761581","img/animal5.png","74","821.7999999523163","1","1","1","1,0.7,0,0,1,0.7,0.7,0,1",""
"","html-keyboard-response","188","112294","0.0-188.0","3RXCAC0YISBQ7KXZ7L603ZI9S4V8G7","A3EA4SHCLJ1UZQ","3VJ4PFXFJ3TL96TFXMATEMT7KJHUAI","","null","<img src=""img/animal5.png"" style=""width:200px; border:14px solid green;"">","null","","","","","",""
"","image-keyboard-response","189","112961","0.0-189.0","3RXCAC0YISBQ7KXZ7L603ZI9S4V8G7","A3EA4SHCLJ1UZQ","3VJ4PFXFJ3TL96TFXMATEMT7KJHUAI","","665.7000000476837","img/animal1.png","76","666.5","3","1","3","1,0.7,0,0,1,0.7,0.7,0,1",""
"","html-keyboard-response","190","113264","0.0-190.0","3RXCAC0YISBQ7KXZ7L603ZI9S4V8G7","A3EA4SHCLJ1UZQ","3VJ4PFXFJ3TL96TFXMATEMT7KJHUAI","","null","<img src=""img/animal1.png"" style=""width:200px; border:14px solid green;"">","null","","","","","",""
"","image-keyboard-response","191","114025","0.0-191.0","3RXCAC0YISBQ7KXZ7L603ZI9S4V8G7","A3EA4SHCLJ1UZQ","3VJ4PFXFJ3TL96TFXMATEMT7KJHUAI","","760","img/animal2.png","75","760.8999999761581","2","1","2","1,0.7,0,0,1,0.7,0.7,0,1",""
"","html-keyboard-response","192","114327","0.0-192.0","3RXCAC0YISBQ7KXZ7L603ZI9S4V8G7","A3EA4SHCLJ1UZQ","3VJ4PFXFJ3TL96TFXMATEMT7KJHUAI","","null","<img src=""img/animal2.png"" style=""width:200px; border:14px solid green;"">","null","","","","","",""
"","image-keyboard-response","193","114968","0.0-193.0","3RXCAC0YISBQ7KXZ7L603ZI9S4V8G7","A3EA4SHCLJ1UZQ","3VJ4PFXFJ3TL96TFXMATEMT7KJHUAI","","640.6000000238419","img/animal2.png","75","641.5","2","1","2","1,0.7,0,0,1,0.7,0.7,0,1",""
"","html-keyboard-response","194","115270","0.0-194.0","3RXCAC0YISBQ7KXZ7L603ZI9S4V8G7","A3EA4SHCLJ1UZQ","3VJ4PFXFJ3TL96TFXMATEMT7KJHUAI","","null","<img src=""img/animal2.png"" style=""width:200px; border:14px solid green;"">","null","","","","","",""
"","image-keyboard-response","195","116545","0.0-195.0","3RXCAC0YISBQ7KXZ7L603ZI9S4V8G7","A3EA4SHCLJ1UZQ","3VJ4PFXFJ3TL96TFXMATEMT7KJHUAI","","1274.1000000238419","img/animal5.png","74","1274.7000000476837","1","1","1","1,0.7,0,0,1,0.7,0.7,0,1",""
"","html-keyboard-response","196","116847","0.0-196.0","3RXCAC0YISBQ7KXZ7L603ZI9S4V8G7","A3EA4SHCLJ1UZQ","3VJ4PFXFJ3TL96TFXMATEMT7KJHUAI","","null","<img src=""img/animal5.png"" style=""width:200px; border:14px solid green;"">","null","","","","","",""
"","image-keyboard-response","197","117729","0.0-197.0","3RXCAC0YISBQ7KXZ7L603ZI9S4V8G7","A3EA4SHCLJ1UZQ","3VJ4PFXFJ3TL96TFXMATEMT7KJHUAI","","880.9000000953674","img/animal2.png","75","881.3999999761581","2","1","2","1,0.7,0,0,1,0.7,0.7,0,1",""
"","html-keyboard-response","198","118031","0.0-198.0","3RXCAC0YISBQ7KXZ7L603ZI9S4V8G7","A3EA4SHCLJ1UZQ","3VJ4PFXFJ3TL96TFXMATEMT7KJHUAI","","null","<img src=""img/animal2.png"" style=""width:200px; border:14px solid green;"">","null","","","","","",""
"","image-keyboard-response","199","118523","0.0-199.0","3RXCAC0YISBQ7KXZ7L603ZI9S4V8G7","A3EA4SHCLJ1UZQ","3VJ4PFXFJ3TL96TFXMATEMT7KJHUAI","","491.10000002384186","img/animal2.png","75","491.89999997615814","2","1","2","1,0.7,0,0,1,0.7,0.7,0,1",""
"","html-keyboard-response","200","118826","0.0-200.0","3RXCAC0YISBQ7KXZ7L603ZI9S4V8G7","A3EA4SHCLJ1UZQ","3VJ4PFXFJ3TL96TFXMATEMT7KJHUAI","","null","<img src=""img/animal2.png"" style=""width:200px; border:14px solid green;"">","null","","","","","",""
"","image-keyboard-response","201","119416","0.0-201.0","3RXCAC0YISBQ7KXZ7L603ZI9S4V8G7","A3EA4SHCLJ1UZQ","3VJ4PFXFJ3TL96TFXMATEMT7KJHUAI","","589.5","img/animal5.png","74","590.1999999284744","1","1","1","1,0.7,0,0,1,0.7,0.7,0,1",""
"","html-keyboard-response","202","119719","0.0-202.0","3RXCAC0YISBQ7KXZ7L603ZI9S4V8G7","A3EA4SHCLJ1UZQ","3VJ4PFXFJ3TL96TFXMATEMT7KJHUAI","","null","<img src=""img/animal5.png"" style=""width:200px; border:14px solid green;"">","null","","","","","",""
"","image-keyboard-response","203","120233","0.0-203.0","3RXCAC0YISBQ7KXZ7L603ZI9S4V8G7","A3EA4SHCLJ1UZQ","3VJ4PFXFJ3TL96TFXMATEMT7KJHUAI","","513.6000000238419","img/animal2.png","75","514.3000000715256","2","1","2","1,0.7,0,0,1,0.7,0.7,0,1",""
"","html-keyboard-response","204","120539","0.0-204.0","3RXCAC0YISBQ7KXZ7L603ZI9S4V8G7","A3EA4SHCLJ1UZQ","3VJ4PFXFJ3TL96TFXMATEMT7KJHUAI","","null","<img src=""img/animal2.png"" style=""width:200px; border:14px solid green;"">","null","","","","","",""
"","image-keyboard-response","205","121001","0.0-205.0","3RXCAC0YISBQ7KXZ7L603ZI9S4V8G7","A3EA4SHCLJ1UZQ","3VJ4PFXFJ3TL96TFXMATEMT7KJHUAI","","461.60000002384186","img/animal5.png","75","462.5","2","0","1","1,0.7,0,0,1,0.7,0.7,0,1",""
"","html-keyboard-response","206","121306","0.0-206.0","3RXCAC0YISBQ7KXZ7L603ZI9S4V8G7","A3EA4SHCLJ1UZQ","3VJ4PFXFJ3TL96TFXMATEMT7KJHUAI","","null","<img src=""img/animal5.png"" style=""width:200px;border:14px solid red;"">","null","","","","","",""
"","image-keyboard-response","207","121897","0.0-207.0","3RXCAC0YISBQ7KXZ7L603ZI9S4V8G7","A3EA4SHCLJ1UZQ","3VJ4PFXFJ3TL96TFXMATEMT7KJHUAI","","589.7999999523163","img/animal1.png","76","590.6999999284744","3","1","3","1,0.7,0,0,1,0.7,0.7,0,1",""
"","html-keyboard-response","208","122202","0.0-208.0","3RXCAC0YISBQ7KXZ7L603ZI9S4V8G7","A3EA4SHCLJ1UZQ","3VJ4PFXFJ3TL96TFXMATEMT7KJHUAI","","null","<img src=""img/animal1.png"" style=""width:200px; border:14px solid green;"">","null","","","","","",""
"","image-keyboard-response","209","122865","0.0-209.0","3RXCAC0YISBQ7KXZ7L603ZI9S4V8G7","A3EA4SHCLJ1UZQ","3VJ4PFXFJ3TL96TFXMATEMT7KJHUAI","","661.2999999523163","img/animal2.png","75","662.1999999284744","2","1","2","1,0.7,0,0,1,0.7,0.7,0,1",""
"","html-keyboard-response","210","123166","0.0-210.0","3RXCAC0YISBQ7KXZ7L603ZI9S4V8G7","A3EA4SHCLJ1UZQ","3VJ4PFXFJ3TL96TFXMATEMT7KJHUAI","","null","<img src=""img/animal2.png"" style=""width:200px; border:14px solid green;"">","null","","","","","",""
"","image-keyboard-response","211","123689","0.0-211.0","3RXCAC0YISBQ7KXZ7L603ZI9S4V8G7","A3EA4SHCLJ1UZQ","3VJ4PFXFJ3TL96TFXMATEMT7KJHUAI","","521.3999999761581","img/animal1.png","74","522.2999999523163","1","1","3","1,0.7,0,0,1,0.7,0.7,0,1",""
"","html-keyboard-response","212","123990","0.0-212.0","3RXCAC0YISBQ7KXZ7L603ZI9S4V8G7","A3EA4SHCLJ1UZQ","3VJ4PFXFJ3TL96TFXMATEMT7KJHUAI","","null","<img src=""img/animal1.png"" style=""width:200px; border:14px solid green;"">","null","","","","","",""
"","image-keyboard-response","213","124808","0.0-213.0","3RXCAC0YISBQ7KXZ7L603ZI9S4V8G7","A3EA4SHCLJ1UZQ","3VJ4PFXFJ3TL96TFXMATEMT7KJHUAI","","816.8999999761581","img/animal2.png","75","817.6000000238419","2","1","2","1,0.7,0,0,1,0.7,0.7,0,1",""
"","html-keyboard-response","214","125110","0.0-214.0","3RXCAC0YISBQ7KXZ7L603ZI9S4V8G7","A3EA4SHCLJ1UZQ","3VJ4PFXFJ3TL96TFXMATEMT7KJHUAI","","null","<img src=""img/animal2.png"" style=""width:200px; border:14px solid green;"">","null","","","","","",""
"","image-keyboard-response","215","125696","0.0-215.0","3RXCAC0YISBQ7KXZ7L603ZI9S4V8G7","A3EA4SHCLJ1UZQ","3VJ4PFXFJ3TL96TFXMATEMT7KJHUAI","","584.8999999761581","img/animal1.png","76","585.6999999284744","3","1","3","1,0.7,0,0,1,0.7,0.7,0,1",""
"","html-keyboard-response","216","125999","0.0-216.0","3RXCAC0YISBQ7KXZ7L603ZI9S4V8G7","A3EA4SHCLJ1UZQ","3VJ4PFXFJ3TL96TFXMATEMT7KJHUAI","","null","<img src=""img/animal1.png"" style=""width:200px; border:14px solid green;"">","null","","","","","",""
"","image-keyboard-response","217","126688","0.0-217.0","3RXCAC0YISBQ7KXZ7L603ZI9S4V8G7","A3EA4SHCLJ1UZQ","3VJ4PFXFJ3TL96TFXMATEMT7KJHUAI","","689","img/animal2.png","75","689.7000000476837","2","1","2","1,0.7,0,0,1,0.7,0.7,0,1",""
"","html-keyboard-response","218","126991","0.0-218.0","3RXCAC0YISBQ7KXZ7L603ZI9S4V8G7","A3EA4SHCLJ1UZQ","3VJ4PFXFJ3TL96TFXMATEMT7KJHUAI","","null","<img src=""img/animal2.png"" style=""width:200px; border:14px solid green;"">","null","","","","","",""
"","image-keyboard-response","219","127392","0.0-219.0","3RXCAC0YISBQ7KXZ7L603ZI9S4V8G7","A3EA4SHCLJ1UZQ","3VJ4PFXFJ3TL96TFXMATEMT7KJHUAI","","400.2999999523163","img/animal1.png","76","401","3","1","3","1,0.7,0,0,1,0.7,0.7,0,1",""
"","html-keyboard-response","220","127695","0.0-220.0","3RXCAC0YISBQ7KXZ7L603ZI9S4V8G7","A3EA4SHCLJ1UZQ","3VJ4PFXFJ3TL96TFXMATEMT7KJHUAI","","null","<img src=""img/animal1.png"" style=""width:200px; border:14px solid green;"">","null","","","","","",""
"","image-keyboard-response","221","128296","0.0-221.0","3RXCAC0YISBQ7KXZ7L603ZI9S4V8G7","A3EA4SHCLJ1UZQ","3VJ4PFXFJ3TL96TFXMATEMT7KJHUAI","","600.7999999523163","img/animal5.png","74","601.6999999284744","1","1","1","1,0.7,0,0,1,0.7,0.7,0,1",""
"","html-keyboard-response","222","128599","0.0-222.0","3RXCAC0YISBQ7KXZ7L603ZI9S4V8G7","A3EA4SHCLJ1UZQ","3VJ4PFXFJ3TL96TFXMATEMT7KJHUAI","","null","<img src=""img/animal5.png"" style=""width:200px; border:14px solid green;"">","null","","","","","",""
"","image-keyboard-response","223","128994","0.0-223.0","3RXCAC0YISBQ7KXZ7L603ZI9S4V8G7","A3EA4SHCLJ1UZQ","3VJ4PFXFJ3TL96TFXMATEMT7KJHUAI","","394.39999997615814","img/animal5.png","74","395.1999999284744","1","1","1","1,0.7,0,0,1,0.7,0.7,0,1",""
"","html-keyboard-response","224","129299","0.0-224.0","3RXCAC0YISBQ7KXZ7L603ZI9S4V8G7","A3EA4SHCLJ1UZQ","3VJ4PFXFJ3TL96TFXMATEMT7KJHUAI","","null","<img src=""img/animal5.png"" style=""width:200px; border:14px solid green;"">","null","","","","","",""
"","image-keyboard-response","225","129624","0.0-225.0","3RXCAC0YISBQ7KXZ7L603ZI9S4V8G7","A3EA4SHCLJ1UZQ","3VJ4PFXFJ3TL96TFXMATEMT7KJHUAI","","324.39999997615814","img/animal5.png","74","325","1","1","1","1,0.7,0,0,1,0.7,0.7,0,1",""
"","html-keyboard-response","226","129927","0.0-226.0","3RXCAC0YISBQ7KXZ7L603ZI9S4V8G7","A3EA4SHCLJ1UZQ","3VJ4PFXFJ3TL96TFXMATEMT7KJHUAI","","null","<img src=""img/animal5.png"" style=""width:200px; border:14px solid green;"">","null","","","","","",""
"","image-keyboard-response","227","130256","0.0-227.0","3RXCAC0YISBQ7KXZ7L603ZI9S4V8G7","A3EA4SHCLJ1UZQ","3VJ4PFXFJ3TL96TFXMATEMT7KJHUAI","","328.5","img/animal5.png","74","329.09999990463257","1","1","1","1,0.7,0,0,1,0.7,0.7,0,1",""
"","html-keyboard-response","228","130559","0.0-228.0","3RXCAC0YISBQ7KXZ7L603ZI9S4V8G7","A3EA4SHCLJ1UZQ","3VJ4PFXFJ3TL96TFXMATEMT7KJHUAI","","null","<img src=""img/animal5.png"" style=""width:200px; border:14px solid green;"">","null","","","","","",""
"","image-keyboard-response","229","131137","0.0-229.0","3RXCAC0YISBQ7KXZ7L603ZI9S4V8G7","A3EA4SHCLJ1UZQ","3VJ4PFXFJ3TL96TFXMATEMT7KJHUAI","","576.6999999284744","img/animal2.png","75","577.3999999761581","2","1","2","1,0.7,0,0,1,0.7,0.7,0,1",""
"","html-keyboard-response","230","131438","0.0-230.0","3RXCAC0YISBQ7KXZ7L603ZI9S4V8G7","A3EA4SHCLJ1UZQ","3VJ4PFXFJ3TL96TFXMATEMT7KJHUAI","","null","<img src=""img/animal2.png"" style=""width:200px; border:14px solid green;"">","null","","","","","",""
"","image-keyboard-response","231","132056","0.0-231.0","3RXCAC0YISBQ7KXZ7L603ZI9S4V8G7","A3EA4SHCLJ1UZQ","3VJ4PFXFJ3TL96TFXMATEMT7KJHUAI","","617.3999999761581","img/animal1.png","76","618.2000000476837","3","1","3","1,0.7,0,0,1,0.7,0.7,0,1",""
"","html-keyboard-response","232","132358","0.0-232.0","3RXCAC0YISBQ7KXZ7L603ZI9S4V8G7","A3EA4SHCLJ1UZQ","3VJ4PFXFJ3TL96TFXMATEMT7KJHUAI","","null","<img src=""img/animal1.png"" style=""width:200px; border:14px solid green;"">","null","","","","","",""
"","image-keyboard-response","233","132712","0.0-233.0","3RXCAC0YISBQ7KXZ7L603ZI9S4V8G7","A3EA4SHCLJ1UZQ","3VJ4PFXFJ3TL96TFXMATEMT7KJHUAI","","353.3000000715256","img/animal1.png","76","354.1999999284744","3","1","3","1,0.7,0,0,1,0.7,0.7,0,1",""
"","html-keyboard-response","234","133014","0.0-234.0","3RXCAC0YISBQ7KXZ7L603ZI9S4V8G7","A3EA4SHCLJ1UZQ","3VJ4PFXFJ3TL96TFXMATEMT7KJHUAI","","null","<img src=""img/animal1.png"" style=""width:200px; border:14px solid green;"">","null","","","","","",""
"","image-keyboard-response","235","133344","0.0-235.0","3RXCAC0YISBQ7KXZ7L603ZI9S4V8G7","A3EA4SHCLJ1UZQ","3VJ4PFXFJ3TL96TFXMATEMT7KJHUAI","","329.5","img/animal1.png","76","330.39999997615814","3","1","3","1,0.7,0,0,1,0.7,0.7,0,1",""
"","html-keyboard-response","236","133647","0.0-236.0","3RXCAC0YISBQ7KXZ7L603ZI9S4V8G7","A3EA4SHCLJ1UZQ","3VJ4PFXFJ3TL96TFXMATEMT7KJHUAI","","null","<img src=""img/animal1.png"" style=""width:200px; border:14px solid green;"">","null","","","","","",""
"","image-keyboard-response","237","134160","0.0-237.0","3RXCAC0YISBQ7KXZ7L603ZI9S4V8G7","A3EA4SHCLJ1UZQ","3VJ4PFXFJ3TL96TFXMATEMT7KJHUAI","","512.2999999523163","img/animal2.png","75","513.1000000238419","2","1","2","1,0.7,0,0,1,0.7,0.7,0,1",""
"","html-keyboard-response","238","134463","0.0-238.0","3RXCAC0YISBQ7KXZ7L603ZI9S4V8G7","A3EA4SHCLJ1UZQ","3VJ4PFXFJ3TL96TFXMATEMT7KJHUAI","","null","<img src=""img/animal2.png"" style=""width:200px; border:14px solid green;"">","null","","","","","",""
"","image-keyboard-response","239","134800","0.0-239.0","3RXCAC0YISBQ7KXZ7L603ZI9S4V8G7","A3EA4SHCLJ1UZQ","3VJ4PFXFJ3TL96TFXMATEMT7KJHUAI","","336.5","img/animal2.png","75","337.5","2","1","2","1,0.7,0,0,1,0.7,0.7,0,1",""
"","html-keyboard-response","240","135102","0.0-240.0","3RXCAC0YISBQ7KXZ7L603ZI9S4V8G7","A3EA4SHCLJ1UZQ","3VJ4PFXFJ3TL96TFXMATEMT7KJHUAI","","null","<img src=""img/animal2.png"" style=""width:200px; border:14px solid green;"">","null","","","","","",""
"","image-keyboard-response","241","135624","0.0-241.0","3RXCAC0YISBQ7KXZ7L603ZI9S4V8G7","A3EA4SHCLJ1UZQ","3VJ4PFXFJ3TL96TFXMATEMT7KJHUAI","","520.7000000476837","img/animal1.png","74","521.5","1","1","3","1,0.7,0,0,1,0.7,0.7,0,1",""
"","html-keyboard-response","242","135925","0.0-242.0","3RXCAC0YISBQ7KXZ7L603ZI9S4V8G7","A3EA4SHCLJ1UZQ","3VJ4PFXFJ3TL96TFXMATEMT7KJHUAI","","null","<img src=""img/animal1.png"" style=""width:200px; border:14px solid green;"">","null","","","","","",""
"","image-keyboard-response","243","136279","0.0-243.0","3RXCAC0YISBQ7KXZ7L603ZI9S4V8G7","A3EA4SHCLJ1UZQ","3VJ4PFXFJ3TL96TFXMATEMT7KJHUAI","","353.2999999523163","img/animal1.png","74","353.89999997615814","1","1","3","1,0.7,0,0,1,0.7,0.7,0,1",""
"","html-keyboard-response","244","136582","0.0-244.0","3RXCAC0YISBQ7KXZ7L603ZI9S4V8G7","A3EA4SHCLJ1UZQ","3VJ4PFXFJ3TL96TFXMATEMT7KJHUAI","","null","<img src=""img/animal1.png"" style=""width:200px; border:14px solid green;"">","null","","","","","",""
"","image-keyboard-response","245","137216","0.0-245.0","3RXCAC0YISBQ7KXZ7L603ZI9S4V8G7","A3EA4SHCLJ1UZQ","3VJ4PFXFJ3TL96TFXMATEMT7KJHUAI","","632.5","img/animal5.png","74","633.1999999284744","1","1","1","1,0.7,0,0,1,0.7,0.7,0,1",""
"","html-keyboard-response","246","137517","0.0-246.0","3RXCAC0YISBQ7KXZ7L603ZI9S4V8G7","A3EA4SHCLJ1UZQ","3VJ4PFXFJ3TL96TFXMATEMT7KJHUAI","","null","<img src=""img/animal5.png"" style=""width:200px; border:14px solid green;"">","null","","","","","",""
"","image-keyboard-response","247","138088","0.0-247.0","3RXCAC0YISBQ7KXZ7L603ZI9S4V8G7","A3EA4SHCLJ1UZQ","3VJ4PFXFJ3TL96TFXMATEMT7KJHUAI","","567.2999999523163","img/animal2.png","75","568.1999999284744","2","1","2","1,0.7,0,0,1,0.7,0.7,0,1",""
"","html-keyboard-response","248","138390","0.0-248.0","3RXCAC0YISBQ7KXZ7L603ZI9S4V8G7","A3EA4SHCLJ1UZQ","3VJ4PFXFJ3TL96TFXMATEMT7KJHUAI","","null","<img src=""img/animal2.png"" style=""width:200px; border:14px solid green;"">","null","","","","","",""
"","image-keyboard-response","249","139000","0.0-249.0","3RXCAC0YISBQ7KXZ7L603ZI9S4V8G7","A3EA4SHCLJ1UZQ","3VJ4PFXFJ3TL96TFXMATEMT7KJHUAI","","608.7000000476837","img/animal1.png","76","609.5","3","1","3","1,0.7,0,0,1,0.7,0.7,0,1",""
"","html-keyboard-response","250","139301","0.0-250.0","3RXCAC0YISBQ7KXZ7L603ZI9S4V8G7","A3EA4SHCLJ1UZQ","3VJ4PFXFJ3TL96TFXMATEMT7KJHUAI","","null","<img src=""img/animal1.png"" style=""width:200px; border:14px solid green;"">","null","","","","","",""
"","image-keyboard-response","251","139634","0.0-251.0","3RXCAC0YISBQ7KXZ7L603ZI9S4V8G7","A3EA4SHCLJ1UZQ","3VJ4PFXFJ3TL96TFXMATEMT7KJHUAI","","331.2000000476837","img/animal1.png","76","332","3","1","3","1,0.7,0,0,1,0.7,0.7,0,1",""
"","html-keyboard-response","252","139938","0.0-252.0","3RXCAC0YISBQ7KXZ7L603ZI9S4V8G7","A3EA4SHCLJ1UZQ","3VJ4PFXFJ3TL96TFXMATEMT7KJHUAI","","null","<img src=""img/animal1.png"" style=""width:200px; border:14px solid green;"">","null","","","","","",""
"","image-keyboard-response","253","140272","0.0-253.0","3RXCAC0YISBQ7KXZ7L603ZI9S4V8G7","A3EA4SHCLJ1UZQ","3VJ4PFXFJ3TL96TFXMATEMT7KJHUAI","","332.89999997615814","img/animal1.png","76","333.59999990463257","3","1","3","1,0.7,0,0,1,0.7,0.7,0,1",""
"","html-keyboard-response","254","140573","0.0-254.0","3RXCAC0YISBQ7KXZ7L603ZI9S4V8G7","A3EA4SHCLJ1UZQ","3VJ4PFXFJ3TL96TFXMATEMT7KJHUAI","","null","<img src=""img/animal1.png"" style=""width:200px; border:14px solid green;"">","null","","","","","",""
"","image-keyboard-response","255","141168","0.0-255.0","3RXCAC0YISBQ7KXZ7L603ZI9S4V8G7","A3EA4SHCLJ1UZQ","3VJ4PFXFJ3TL96TFXMATEMT7KJHUAI","","593.6999999284744","img/animal2.png","75","594.3000000715256","2","1","2","1,0.7,0,0,1,0.7,0.7,0,1",""
"","html-keyboard-response","256","141470","0.0-256.0","3RXCAC0YISBQ7KXZ7L603ZI9S4V8G7","A3EA4SHCLJ1UZQ","3VJ4PFXFJ3TL96TFXMATEMT7KJHUAI","","null","<img src=""img/animal2.png"" style=""width:200px; border:14px solid green;"">","null","","","","","",""
"","image-keyboard-response","257","141816","0.0-257.0","3RXCAC0YISBQ7KXZ7L603ZI9S4V8G7","A3EA4SHCLJ1UZQ","3VJ4PFXFJ3TL96TFXMATEMT7KJHUAI","","345.5","img/animal2.png","75","346.39999997615814","2","1","2","1,0.7,0,0,1,0.7,0.7,0,1",""
"","html-keyboard-response","258","142118","0.0-258.0","3RXCAC0YISBQ7KXZ7L603ZI9S4V8G7","A3EA4SHCLJ1UZQ","3VJ4PFXFJ3TL96TFXMATEMT7KJHUAI","","null","<img src=""img/animal2.png"" style=""width:200px; border:14px solid green;"">","null","","","","","",""
"","image-keyboard-response","259","142704","0.0-259.0","3RXCAC0YISBQ7KXZ7L603ZI9S4V8G7","A3EA4SHCLJ1UZQ","3VJ4PFXFJ3TL96TFXMATEMT7KJHUAI","","585","img/animal1.png","76","585.9000000953674","3","1","3","1,0.7,0,0,1,0.7,0.7,0,1",""
"","html-keyboard-response","260","143006","0.0-260.0","3RXCAC0YISBQ7KXZ7L603ZI9S4V8G7","A3EA4SHCLJ1UZQ","3VJ4PFXFJ3TL96TFXMATEMT7KJHUAI","","null","<img src=""img/animal1.png"" style=""width:200px; border:14px solid green;"">","null","","","","","",""
"","image-keyboard-response","261","143624","0.0-261.0","3RXCAC0YISBQ7KXZ7L603ZI9S4V8G7","A3EA4SHCLJ1UZQ","3VJ4PFXFJ3TL96TFXMATEMT7KJHUAI","","617.3999999761581","img/animal5.png","74","618.2999999523163","1","1","1","1,0.7,0,0,1,0.7,0.7,0,1",""
"","html-keyboard-response","262","143926","0.0-262.0","3RXCAC0YISBQ7KXZ7L603ZI9S4V8G7","A3EA4SHCLJ1UZQ","3VJ4PFXFJ3TL96TFXMATEMT7KJHUAI","","null","<img src=""img/animal5.png"" style=""width:200px; border:14px solid green;"">","null","","","","","",""
"","image-keyboard-response","263","144481","0.0-263.0","3RXCAC0YISBQ7KXZ7L603ZI9S4V8G7","A3EA4SHCLJ1UZQ","3VJ4PFXFJ3TL96TFXMATEMT7KJHUAI","","554.2000000476837","img/animal2.png","75","554.8000000715256","2","1","2","1,0.7,0,0,1,0.7,0.7,0,1",""
"","html-keyboard-response","264","144782","0.0-264.0","3RXCAC0YISBQ7KXZ7L603ZI9S4V8G7","A3EA4SHCLJ1UZQ","3VJ4PFXFJ3TL96TFXMATEMT7KJHUAI","","null","<img src=""img/animal2.png"" style=""width:200px; border:14px solid green;"">","null","","","","","",""
"","image-keyboard-response","265","145360","0.0-265.0","3RXCAC0YISBQ7KXZ7L603ZI9S4V8G7","A3EA4SHCLJ1UZQ","3VJ4PFXFJ3TL96TFXMATEMT7KJHUAI","","576.5","img/animal1.png","76","577.5","3","1","3","1,0.7,0,0,1,0.7,0.7,0,1",""
"","html-keyboard-response","266","145661","0.0-266.0","3RXCAC0YISBQ7KXZ7L603ZI9S4V8G7","A3EA4SHCLJ1UZQ","3VJ4PFXFJ3TL96TFXMATEMT7KJHUAI","","null","<img src=""img/animal1.png"" style=""width:200px; border:14px solid green;"">","null","","","","","",""
"","image-keyboard-response","267","146280","0.0-267.0","3RXCAC0YISBQ7KXZ7L603ZI9S4V8G7","A3EA4SHCLJ1UZQ","3VJ4PFXFJ3TL96TFXMATEMT7KJHUAI","","617","img/animal5.png","74","617.7999999523163","1","1","1","1,0.7,0,0,1,0.7,0.7,0,1",""
"","html-keyboard-response","268","146582","0.0-268.0","3RXCAC0YISBQ7KXZ7L603ZI9S4V8G7","A3EA4SHCLJ1UZQ","3VJ4PFXFJ3TL96TFXMATEMT7KJHUAI","","null","<img src=""img/animal5.png"" style=""width:200px; border:14px solid green;"">","null","","","","","",""
"","image-keyboard-response","269","146935","0.0-269.0","3RXCAC0YISBQ7KXZ7L603ZI9S4V8G7","A3EA4SHCLJ1UZQ","3VJ4PFXFJ3TL96TFXMATEMT7KJHUAI","","352.10000002384186","img/animal5.png","74","352.89999997615814","1","1","1","1,0.7,0,0,1,0.7,0.7,0,1",""
"","html-keyboard-response","270","147237","0.0-270.0","3RXCAC0YISBQ7KXZ7L603ZI9S4V8G7","A3EA4SHCLJ1UZQ","3VJ4PFXFJ3TL96TFXMATEMT7KJHUAI","","null","<img src=""img/animal5.png"" style=""width:200px; border:14px solid green;"">","null","","","","","",""
"","image-keyboard-response","271","147735","0.0-271.0","3RXCAC0YISBQ7KXZ7L603ZI9S4V8G7","A3EA4SHCLJ1UZQ","3VJ4PFXFJ3TL96TFXMATEMT7KJHUAI","","497.2000000476837","img/animal2.png","75","498.10000002384186","2","1","2","1,0.7,0,0,1,0.7,0.7,0,1",""
"","html-keyboard-response","272","148038","0.0-272.0","3RXCAC0YISBQ7KXZ7L603ZI9S4V8G7","A3EA4SHCLJ1UZQ","3VJ4PFXFJ3TL96TFXMATEMT7KJHUAI","","null","<img src=""img/animal2.png"" style=""width:200px; border:14px solid green;"">","null","","","","","",""
"","image-keyboard-response","273","148400","0.0-273.0","3RXCAC0YISBQ7KXZ7L603ZI9S4V8G7","A3EA4SHCLJ1UZQ","3VJ4PFXFJ3TL96TFXMATEMT7KJHUAI","","361.10000002384186","img/animal2.png","75","362","2","1","2","1,0.7,0,0,1,0.7,0.7,0,1",""
"","html-keyboard-response","274","148702","0.0-274.0","3RXCAC0YISBQ7KXZ7L603ZI9S4V8G7","A3EA4SHCLJ1UZQ","3VJ4PFXFJ3TL96TFXMATEMT7KJHUAI","","null","<img src=""img/animal2.png"" style=""width:200px; border:14px solid green;"">","null","","","","","",""
"","image-keyboard-response","275","149248","0.0-275.0","3RXCAC0YISBQ7KXZ7L603ZI9S4V8G7","A3EA4SHCLJ1UZQ","3VJ4PFXFJ3TL96TFXMATEMT7KJHUAI","","544.6000000238419","img/animal1.png","76","545.6000000238419","3","1","3","1,0.7,0,0,1,0.7,0.7,0,1",""
"","html-keyboard-response","276","149550","0.0-276.0","3RXCAC0YISBQ7KXZ7L603ZI9S4V8G7","A3EA4SHCLJ1UZQ","3VJ4PFXFJ3TL96TFXMATEMT7KJHUAI","","null","<img src=""img/animal1.png"" style=""width:200px; border:14px solid green;"">","null","","","","","",""
"","image-keyboard-response","277","150137","0.0-277.0","3RXCAC0YISBQ7KXZ7L603ZI9S4V8G7","A3EA4SHCLJ1UZQ","3VJ4PFXFJ3TL96TFXMATEMT7KJHUAI","","586.7999999523163","img/animal2.png","74","587.6999999284744","1","0","2","1,0.7,0,0,1,0.7,0.7,0,1",""
"","html-keyboard-response","278","150442","0.0-278.0","3RXCAC0YISBQ7KXZ7L603ZI9S4V8G7","A3EA4SHCLJ1UZQ","3VJ4PFXFJ3TL96TFXMATEMT7KJHUAI","","null","<img src=""img/animal2.png"" style=""width:200px;border:14px solid red;"">","null","","","","","",""
"","image-keyboard-response","279","151007","0.0-279.0","3RXCAC0YISBQ7KXZ7L603ZI9S4V8G7","A3EA4SHCLJ1UZQ","3VJ4PFXFJ3TL96TFXMATEMT7KJHUAI","","564","img/animal1.png","76","564.8000000715256","3","1","3","1,0.7,0,0,1,0.7,0.7,0,1",""
"","html-keyboard-response","280","151309","0.0-280.0","3RXCAC0YISBQ7KXZ7L603ZI9S4V8G7","A3EA4SHCLJ1UZQ","3VJ4PFXFJ3TL96TFXMATEMT7KJHUAI","","null","<img src=""img/animal1.png"" style=""width:200px; border:14px solid green;"">","null","","","","","",""
"","image-keyboard-response","281","151631","0.0-281.0","3RXCAC0YISBQ7KXZ7L603ZI9S4V8G7","A3EA4SHCLJ1UZQ","3VJ4PFXFJ3TL96TFXMATEMT7KJHUAI","","321.10000002384186","img/animal1.png","76","322","3","1","3","1,0.7,0,0,1,0.7,0.7,0,1",""
"","html-keyboard-response","282","151934","0.0-282.0","3RXCAC0YISBQ7KXZ7L603ZI9S4V8G7","A3EA4SHCLJ1UZQ","3VJ4PFXFJ3TL96TFXMATEMT7KJHUAI","","null","<img src=""img/animal1.png"" style=""width:200px; border:14px solid green;"">","null","","","","","",""
"","image-keyboard-response","283","152288","0.0-283.0","3RXCAC0YISBQ7KXZ7L603ZI9S4V8G7","A3EA4SHCLJ1UZQ","3VJ4PFXFJ3TL96TFXMATEMT7KJHUAI","","353.2999999523163","img/animal1.png","76","354","3","1","3","1,0.7,0,0,1,0.7,0.7,0,1",""
"","html-keyboard-response","284","152594","0.0-284.0","3RXCAC0YISBQ7KXZ7L603ZI9S4V8G7","A3EA4SHCLJ1UZQ","3VJ4PFXFJ3TL96TFXMATEMT7KJHUAI","","null","<img src=""img/animal1.png"" style=""width:200px; border:14px solid green;"">","null","","","","","",""
"","image-keyboard-response","285","153192","0.0-285.0","3RXCAC0YISBQ7KXZ7L603ZI9S4V8G7","A3EA4SHCLJ1UZQ","3VJ4PFXFJ3TL96TFXMATEMT7KJHUAI","","596.6999999284744","img/animal5.png","74","597.7000000476837","1","1","1","1,0.7,0,0,1,0.7,0.7,0,1",""
"","html-keyboard-response","286","153497","0.0-286.0","3RXCAC0YISBQ7KXZ7L603ZI9S4V8G7","A3EA4SHCLJ1UZQ","3VJ4PFXFJ3TL96TFXMATEMT7KJHUAI","","null","<img src=""img/animal5.png"" style=""width:200px; border:14px solid green;"">","null","","","","","",""
"","image-keyboard-response","287","153832","0.0-287.0","3RXCAC0YISBQ7KXZ7L603ZI9S4V8G7","A3EA4SHCLJ1UZQ","3VJ4PFXFJ3TL96TFXMATEMT7KJHUAI","","333.39999997615814","img/animal5.png","74","334.39999997615814","1","1","1","1,0.7,0,0,1,0.7,0.7,0,1",""
"","html-keyboard-response","288","154133","0.0-288.0","3RXCAC0YISBQ7KXZ7L603ZI9S4V8G7","A3EA4SHCLJ1UZQ","3VJ4PFXFJ3TL96TFXMATEMT7KJHUAI","","null","<img src=""img/animal5.png"" style=""width:200px; border:14px solid green;"">","null","","","","","",""
"","image-keyboard-response","289","154472","0.0-289.0","3RXCAC0YISBQ7KXZ7L603ZI9S4V8G7","A3EA4SHCLJ1UZQ","3VJ4PFXFJ3TL96TFXMATEMT7KJHUAI","","337.5","img/animal5.png","74","338.39999997615814","1","1","1","1,0.7,0,0,1,0.7,0.7,0,1",""
"","html-keyboard-response","290","154777","0.0-290.0","3RXCAC0YISBQ7KXZ7L603ZI9S4V8G7","A3EA4SHCLJ1UZQ","3VJ4PFXFJ3TL96TFXMATEMT7KJHUAI","","null","<img src=""img/animal5.png"" style=""width:200px; border:14px solid green;"">","null","","","","","",""
"","image-keyboard-response","291","155111","0.0-291.0","3RXCAC0YISBQ7KXZ7L603ZI9S4V8G7","A3EA4SHCLJ1UZQ","3VJ4PFXFJ3TL96TFXMATEMT7KJHUAI","","333.39999997615814","img/animal5.png","74","334.1999999284744","1","1","1","1,0.7,0,0,1,0.7,0.7,0,1",""
"","html-keyboard-response","292","155413","0.0-292.0","3RXCAC0YISBQ7KXZ7L603ZI9S4V8G7","A3EA4SHCLJ1UZQ","3VJ4PFXFJ3TL96TFXMATEMT7KJHUAI","","null","<img src=""img/animal5.png"" style=""width:200px; border:14px solid green;"">","null","","","","","",""
"","image-keyboard-response","293","155911","0.0-293.0","3RXCAC0YISBQ7KXZ7L603ZI9S4V8G7","A3EA4SHCLJ1UZQ","3VJ4PFXFJ3TL96TFXMATEMT7KJHUAI","","496.7999999523163","img/animal1.png","75","497.7000000476837","2","0","3","1,0.7,0,0,1,0.7,0.7,0,1",""
"","html-keyboard-response","294","156213","0.0-294.0","3RXCAC0YISBQ7KXZ7L603ZI9S4V8G7","A3EA4SHCLJ1UZQ","3VJ4PFXFJ3TL96TFXMATEMT7KJHUAI","","null","<img src=""img/animal1.png"" style=""width:200px;border:14px solid red;"">","null","","","","","",""
"","image-keyboard-response","295","156767","0.0-295.0","3RXCAC0YISBQ7KXZ7L603ZI9S4V8G7","A3EA4SHCLJ1UZQ","3VJ4PFXFJ3TL96TFXMATEMT7KJHUAI","","552.6000000238419","img/animal5.png","76","553.6000000238419","3","0","1","1,0.7,0,0,1,0.7,0.7,0,1",""
"","html-keyboard-response","296","157070","0.0-296.0","3RXCAC0YISBQ7KXZ7L603ZI9S4V8G7","A3EA4SHCLJ1UZQ","3VJ4PFXFJ3TL96TFXMATEMT7KJHUAI","","null","<img src=""img/animal5.png"" style=""width:200px;border:14px solid red;"">","null","","","","","",""
"","image-keyboard-response","297","157783","0.0-297.0","3RXCAC0YISBQ7KXZ7L603ZI9S4V8G7","A3EA4SHCLJ1UZQ","3VJ4PFXFJ3TL96TFXMATEMT7KJHUAI","","712","img/animal5.png","74","712.8000000715256","1","1","1","1,0.7,0,0,1,0.7,0.7,0,1",""
"","html-keyboard-response","298","158085","0.0-298.0","3RXCAC0YISBQ7KXZ7L603ZI9S4V8G7","A3EA4SHCLJ1UZQ","3VJ4PFXFJ3TL96TFXMATEMT7KJHUAI","","null","<img src=""img/animal5.png"" style=""width:200px; border:14px solid green;"">","null","","","","","",""
"","image-keyboard-response","299","158399","0.0-299.0","3RXCAC0YISBQ7KXZ7L603ZI9S4V8G7","A3EA4SHCLJ1UZQ","3VJ4PFXFJ3TL96TFXMATEMT7KJHUAI","","312.7999999523163","img/animal5.png","74","313.59999990463257","1","1","1","1,0.7,0,0,1,0.7,0.7,0,1",""
"","html-keyboard-response","300","158700","0.0-300.0","3RXCAC0YISBQ7KXZ7L603ZI9S4V8G7","A3EA4SHCLJ1UZQ","3VJ4PFXFJ3TL96TFXMATEMT7KJHUAI","","null","<img src=""img/animal5.png"" style=""width:200px; border:14px solid green;"">","null","","","","","",""
"","image-keyboard-response","301","159159","0.0-301.0","3RXCAC0YISBQ7KXZ7L603ZI9S4V8G7","A3EA4SHCLJ1UZQ","3VJ4PFXFJ3TL96TFXMATEMT7KJHUAI","","457.60000002384186","img/animal2.png","75","458.39999997615814","2","1","2","1,0.7,0,0,1,0.7,0.7,0,1",""
"","html-keyboard-response","302","159461","0.0-302.0","3RXCAC0YISBQ7KXZ7L603ZI9S4V8G7","A3EA4SHCLJ1UZQ","3VJ4PFXFJ3TL96TFXMATEMT7KJHUAI","","null","<img src=""img/animal2.png"" style=""width:200px; border:14px solid green;"">","null","","","","","",""
"","image-keyboard-response","303","160031","0.0-303.0","3RXCAC0YISBQ7KXZ7L603ZI9S4V8G7","A3EA4SHCLJ1UZQ","3VJ4PFXFJ3TL96TFXMATEMT7KJHUAI","","569.7000000476837","img/animal5.png","74","570.5","1","1","1","1,0.7,0,0,1,0.7,0.7,0,1",""
"","html-keyboard-response","304","160334","0.0-304.0","3RXCAC0YISBQ7KXZ7L603ZI9S4V8G7","A3EA4SHCLJ1UZQ","3VJ4PFXFJ3TL96TFXMATEMT7KJHUAI","","null","<img src=""img/animal5.png"" style=""width:200px; border:14px solid green;"">","null","","","","","",""
"","image-keyboard-response","305","160705","0.0-305.0","3RXCAC0YISBQ7KXZ7L603ZI9S4V8G7","A3EA4SHCLJ1UZQ","3VJ4PFXFJ3TL96TFXMATEMT7KJHUAI","","370.5","img/animal5.png","74","371.2999999523163","1","1","1","1,0.7,0,0,1,0.7,0.7,0,1",""
"","html-keyboard-response","306","161009","0.0-306.0","3RXCAC0YISBQ7KXZ7L603ZI9S4V8G7","A3EA4SHCLJ1UZQ","3VJ4PFXFJ3TL96TFXMATEMT7KJHUAI","","null","<img src=""img/animal5.png"" style=""width:200px; border:14px solid green;"">","null","","","","","",""
"","image-keyboard-response","307","161495","0.0-307.0","3RXCAC0YISBQ7KXZ7L603ZI9S4V8G7","A3EA4SHCLJ1UZQ","3VJ4PFXFJ3TL96TFXMATEMT7KJHUAI","","484.7000000476837","img/animal1.png","75","485.39999997615814","2","0","3","1,0.7,0,0,1,0.7,0.7,0,1",""
"","html-keyboard-response","308","161797","0.0-308.0","3RXCAC0YISBQ7KXZ7L603ZI9S4V8G7","A3EA4SHCLJ1UZQ","3VJ4PFXFJ3TL96TFXMATEMT7KJHUAI","","null","<img src=""img/animal1.png"" style=""width:200px;border:14px solid red;"">","null","","","","","",""
"","image-keyboard-response","309","162391","0.0-309.0","3RXCAC0YISBQ7KXZ7L603ZI9S4V8G7","A3EA4SHCLJ1UZQ","3VJ4PFXFJ3TL96TFXMATEMT7KJHUAI","","593.2000000476837","img/animal5.png","74","593.8999999761581","1","1","1","1,0.7,0,0,1,0.7,0.7,0,1",""
"","html-keyboard-response","310","162692","0.0-310.0","3RXCAC0YISBQ7KXZ7L603ZI9S4V8G7","A3EA4SHCLJ1UZQ","3VJ4PFXFJ3TL96TFXMATEMT7KJHUAI","","null","<img src=""img/animal5.png"" style=""width:200px; border:14px solid green;"">","null","","","","","",""
"","image-keyboard-response","311","163296","0.0-311.0","3RXCAC0YISBQ7KXZ7L603ZI9S4V8G7","A3EA4SHCLJ1UZQ","3VJ4PFXFJ3TL96TFXMATEMT7KJHUAI","","602.3000000715256","img/animal2.png","75","603.1000000238419","2","1","2","1,0.7,0,0,1,0.7,0.7,0,1",""
"","html-keyboard-response","312","163601","0.0-312.0","3RXCAC0YISBQ7KXZ7L603ZI9S4V8G7","A3EA4SHCLJ1UZQ","3VJ4PFXFJ3TL96TFXMATEMT7KJHUAI","","null","<img src=""img/animal2.png"" style=""width:200px; border:14px solid green;"">","null","","","","","",""
"","image-keyboard-response","313","164463","0.0-313.0","3RXCAC0YISBQ7KXZ7L603ZI9S4V8G7","A3EA4SHCLJ1UZQ","3VJ4PFXFJ3TL96TFXMATEMT7KJHUAI","","861.4000000953674","img/animal5.png","74","862.2999999523163","1","1","1","1,0.7,0,0,1,0.7,0.7,0,1",""
"","html-keyboard-response","314","164765","0.0-314.0","3RXCAC0YISBQ7KXZ7L603ZI9S4V8G7","A3EA4SHCLJ1UZQ","3VJ4PFXFJ3TL96TFXMATEMT7KJHUAI","","null","<img src=""img/animal5.png"" style=""width:200px; border:14px solid green;"">","null","","","","","",""
"","image-keyboard-response","315","165319","0.0-315.0","3RXCAC0YISBQ7KXZ7L603ZI9S4V8G7","A3EA4SHCLJ1UZQ","3VJ4PFXFJ3TL96TFXMATEMT7KJHUAI","","553.7000000476837","img/animal2.png","75","554.6000000238419","2","1","2","1,0.7,0,0,1,0.7,0.7,0,1",""
"","html-keyboard-response","316","165622","0.0-316.0","3RXCAC0YISBQ7KXZ7L603ZI9S4V8G7","A3EA4SHCLJ1UZQ","3VJ4PFXFJ3TL96TFXMATEMT7KJHUAI","","null","<img src=""img/animal2.png"" style=""width:200px; border:14px solid green;"">","null","","","","","",""
"","image-keyboard-response","317","165991","0.0-317.0","3RXCAC0YISBQ7KXZ7L603ZI9S4V8G7","A3EA4SHCLJ1UZQ","3VJ4PFXFJ3TL96TFXMATEMT7KJHUAI","","368.10000002384186","img/animal2.png","75","369","2","1","2","1,0.7,0,0,1,0.7,0.7,0,1",""
"","html-keyboard-response","318","166292","0.0-318.0","3RXCAC0YISBQ7KXZ7L603ZI9S4V8G7","A3EA4SHCLJ1UZQ","3VJ4PFXFJ3TL96TFXMATEMT7KJHUAI","","null","<img src=""img/animal2.png"" style=""width:200px; border:14px solid green;"">","null","","","","","",""
"","image-keyboard-response","319","166655","0.0-319.0","3RXCAC0YISBQ7KXZ7L603ZI9S4V8G7","A3EA4SHCLJ1UZQ","3VJ4PFXFJ3TL96TFXMATEMT7KJHUAI","","362","img/animal2.png","75","362.7999999523163","2","1","2","1,0.7,0,0,1,0.7,0.7,0,1",""
"","html-keyboard-response","320","166957","0.0-320.0","3RXCAC0YISBQ7KXZ7L603ZI9S4V8G7","A3EA4SHCLJ1UZQ","3VJ4PFXFJ3TL96TFXMATEMT7KJHUAI","","null","<img src=""img/animal2.png"" style=""width:200px; border:14px solid green;"">","null","","","","","",""
"","image-keyboard-response","321","167503","0.0-321.0","3RXCAC0YISBQ7KXZ7L603ZI9S4V8G7","A3EA4SHCLJ1UZQ","3VJ4PFXFJ3TL96TFXMATEMT7KJHUAI","","544.2999999523163","img/animal5.png","74","545.1000000238419","1","1","1","1,0.7,0,0,1,0.7,0.7,0,1",""
"","html-keyboard-response","322","167804","0.0-322.0","3RXCAC0YISBQ7KXZ7L603ZI9S4V8G7","A3EA4SHCLJ1UZQ","3VJ4PFXFJ3TL96TFXMATEMT7KJHUAI","","null","<img src=""img/animal5.png"" style=""width:200px; border:14px solid green;"">","null","","","","","",""
"","image-keyboard-response","323","168374","0.0-323.0","3RXCAC0YISBQ7KXZ7L603ZI9S4V8G7","A3EA4SHCLJ1UZQ","3VJ4PFXFJ3TL96TFXMATEMT7KJHUAI","","569.1000000238419","img/animal2.png","75","569.8999999761581","2","1","2","1,0.7,0,0,1,0.7,0.7,0,1",""
"","html-keyboard-response","324","168676","0.0-324.0","3RXCAC0YISBQ7KXZ7L603ZI9S4V8G7","A3EA4SHCLJ1UZQ","3VJ4PFXFJ3TL96TFXMATEMT7KJHUAI","","null","<img src=""img/animal2.png"" style=""width:200px; border:14px solid green;"">","null","","","","","",""
"","image-keyboard-response","325","169238","0.0-325.0","3RXCAC0YISBQ7KXZ7L603ZI9S4V8G7","A3EA4SHCLJ1UZQ","3VJ4PFXFJ3TL96TFXMATEMT7KJHUAI","","561.2000000476837","img/animal5.png","74","561.8999999761581","1","1","1","1,0.7,0,0,1,0.7,0.7,0,1",""
"","html-keyboard-response","326","169541","0.0-326.0","3RXCAC0YISBQ7KXZ7L603ZI9S4V8G7","A3EA4SHCLJ1UZQ","3VJ4PFXFJ3TL96TFXMATEMT7KJHUAI","","null","<img src=""img/animal5.png"" style=""width:200px; border:14px solid green;"">","null","","","","","",""
"","image-keyboard-response","327","170039","0.0-327.0","3RXCAC0YISBQ7KXZ7L603ZI9S4V8G7","A3EA4SHCLJ1UZQ","3VJ4PFXFJ3TL96TFXMATEMT7KJHUAI","","496.89999997615814","img/animal2.png","74","497.89999997615814","1","0","2","1,0.7,0,0,1,0.7,0.7,0,1",""
"","html-keyboard-response","328","170341","0.0-328.0","3RXCAC0YISBQ7KXZ7L603ZI9S4V8G7","A3EA4SHCLJ1UZQ","3VJ4PFXFJ3TL96TFXMATEMT7KJHUAI","","null","<img src=""img/animal2.png"" style=""width:200px;border:14px solid red;"">","null","","","","","",""
"","image-keyboard-response","329","171008","0.0-329.0","3RXCAC0YISBQ7KXZ7L603ZI9S4V8G7","A3EA4SHCLJ1UZQ","3VJ4PFXFJ3TL96TFXMATEMT7KJHUAI","","666.5","img/animal1.png","76","667.3999999761581","3","1","3","1,0.7,0,0,1,0.7,0.7,0,1",""
"","html-keyboard-response","330","171309","0.0-330.0","3RXCAC0YISBQ7KXZ7L603ZI9S4V8G7","A3EA4SHCLJ1UZQ","3VJ4PFXFJ3TL96TFXMATEMT7KJHUAI","","null","<img src=""img/animal1.png"" style=""width:200px; border:14px solid green;"">","null","","","","","",""
"","image-keyboard-response","331","171870","0.0-331.0","3RXCAC0YISBQ7KXZ7L603ZI9S4V8G7","A3EA4SHCLJ1UZQ","3VJ4PFXFJ3TL96TFXMATEMT7KJHUAI","","560","img/animal5.png","75","560.7999999523163","2","1","1","1,0.7,0,0,1,0.7,0.7,0,1",""
"","html-keyboard-response","332","172172","0.0-332.0","3RXCAC0YISBQ7KXZ7L603ZI9S4V8G7","A3EA4SHCLJ1UZQ","3VJ4PFXFJ3TL96TFXMATEMT7KJHUAI","","null","<img src=""img/animal5.png"" style=""width:200px; border:14px solid green;"">","null","","","","","",""
"","image-keyboard-response","333","172990","0.0-333.0","3RXCAC0YISBQ7KXZ7L603ZI9S4V8G7","A3EA4SHCLJ1UZQ","3VJ4PFXFJ3TL96TFXMATEMT7KJHUAI","","817.2000000476837","img/animal1.png","76","817.8999999761581","3","1","3","1,0.7,0,0,1,0.7,0.7,0,1",""
"","html-keyboard-response","334","173293","0.0-334.0","3RXCAC0YISBQ7KXZ7L603ZI9S4V8G7","A3EA4SHCLJ1UZQ","3VJ4PFXFJ3TL96TFXMATEMT7KJHUAI","","null","<img src=""img/animal1.png"" style=""width:200px; border:14px solid green;"">","null","","","","","",""
"","image-keyboard-response","335","174543","0.0-335.0","3RXCAC0YISBQ7KXZ7L603ZI9S4V8G7","A3EA4SHCLJ1UZQ","3VJ4PFXFJ3TL96TFXMATEMT7KJHUAI","","1249.1000000238419","img/animal5.png","74","1249.8999999761581","1","1","1","1,0.7,0,0,1,0.7,0.7,0,1",""
"","html-keyboard-response","336","174848","0.0-336.0","3RXCAC0YISBQ7KXZ7L603ZI9S4V8G7","A3EA4SHCLJ1UZQ","3VJ4PFXFJ3TL96TFXMATEMT7KJHUAI","","null","<img src=""img/animal5.png"" style=""width:200px; border:14px solid green;"">","null","","","","","",""
"","image-keyboard-response","337","175399","0.0-337.0","3RXCAC0YISBQ7KXZ7L603ZI9S4V8G7","A3EA4SHCLJ1UZQ","3VJ4PFXFJ3TL96TFXMATEMT7KJHUAI","","549.5999999046326","img/animal2.png","75","550.5","2","1","2","1,0.7,0,0,1,0.7,0.7,0,1",""
"","html-keyboard-response","338","175704","0.0-338.0","3RXCAC0YISBQ7KXZ7L603ZI9S4V8G7","A3EA4SHCLJ1UZQ","3VJ4PFXFJ3TL96TFXMATEMT7KJHUAI","","null","<img src=""img/animal2.png"" style=""width:200px; border:14px solid green;"">","null","","","","","",""
"","image-keyboard-response","339","176351","0.0-339.0","3RXCAC0YISBQ7KXZ7L603ZI9S4V8G7","A3EA4SHCLJ1UZQ","3VJ4PFXFJ3TL96TFXMATEMT7KJHUAI","","645.6999999284744","img/animal5.png","74","646.6999999284744","1","1","1","1,0.7,0,0,1,0.7,0.7,0,1",""
"","html-keyboard-response","340","176653","0.0-340.0","3RXCAC0YISBQ7KXZ7L603ZI9S4V8G7","A3EA4SHCLJ1UZQ","3VJ4PFXFJ3TL96TFXMATEMT7KJHUAI","","null","<img src=""img/animal5.png"" style=""width:200px; border:14px solid green;"">","null","","","","","",""
"","image-keyboard-response","341","177447","0.0-341.0","3RXCAC0YISBQ7KXZ7L603ZI9S4V8G7","A3EA4SHCLJ1UZQ","3VJ4PFXFJ3TL96TFXMATEMT7KJHUAI","","792.7999999523163","img/animal1.png","76","793.6999999284744","3","1","3","1,0.7,0,0,1,0.7,0.7,0,1",""
"","html-keyboard-response","342","177749","0.0-342.0","3RXCAC0YISBQ7KXZ7L603ZI9S4V8G7","A3EA4SHCLJ1UZQ","3VJ4PFXFJ3TL96TFXMATEMT7KJHUAI","","null","<img src=""img/animal1.png"" style=""width:200px; border:14px solid green;"">","null","","","","","",""
"","image-keyboard-response","343","178190","0.0-343.0","3RXCAC0YISBQ7KXZ7L603ZI9S4V8G7","A3EA4SHCLJ1UZQ","3VJ4PFXFJ3TL96TFXMATEMT7KJHUAI","","440.5","img/animal1.png","76","441.2999999523163","3","1","3","1,0.7,0,0,1,0.7,0.7,0,1",""
"","html-keyboard-response","344","178493","0.0-344.0","3RXCAC0YISBQ7KXZ7L603ZI9S4V8G7","A3EA4SHCLJ1UZQ","3VJ4PFXFJ3TL96TFXMATEMT7KJHUAI","","null","<img src=""img/animal1.png"" style=""width:200px; border:14px solid green;"">","null","","","","","",""
"","image-keyboard-response","345","178870","0.0-345.0","3RXCAC0YISBQ7KXZ7L603ZI9S4V8G7","A3EA4SHCLJ1UZQ","3VJ4PFXFJ3TL96TFXMATEMT7KJHUAI","","376.40000009536743","img/animal1.png","76","377.40000009536743","3","1","3","1,0.7,0,0,1,0.7,0.7,0,1",""
"","html-keyboard-response","346","179172","0.0-346.0","3RXCAC0YISBQ7KXZ7L603ZI9S4V8G7","A3EA4SHCLJ1UZQ","3VJ4PFXFJ3TL96TFXMATEMT7KJHUAI","","null","<img src=""img/animal1.png"" style=""width:200px; border:14px solid green;"">","null","","","","","",""
"","image-keyboard-response","347","179542","0.0-347.0","3RXCAC0YISBQ7KXZ7L603ZI9S4V8G7","A3EA4SHCLJ1UZQ","3VJ4PFXFJ3TL96TFXMATEMT7KJHUAI","","368.8000000715256","img/animal1.png","76","369.7000000476837","3","1","3","1,0.7,0,0,1,0.7,0.7,0,1",""
"","html-keyboard-response","348","179844","0.0-348.0","3RXCAC0YISBQ7KXZ7L603ZI9S4V8G7","A3EA4SHCLJ1UZQ","3VJ4PFXFJ3TL96TFXMATEMT7KJHUAI","","null","<img src=""img/animal1.png"" style=""width:200px; border:14px solid green;"">","null","","","","","",""
"","image-keyboard-response","349","180838","0.0-349.0","3RXCAC0YISBQ7KXZ7L603ZI9S4V8G7","A3EA4SHCLJ1UZQ","3VJ4PFXFJ3TL96TFXMATEMT7KJHUAI","","993.2000000476837","img/animal2.png","75","993.8999999761581","2","1","2","1,0.7,0,0,1,0.7,0.7,0,1",""
"","html-keyboard-response","350","181139","0.0-350.0","3RXCAC0YISBQ7KXZ7L603ZI9S4V8G7","A3EA4SHCLJ1UZQ","3VJ4PFXFJ3TL96TFXMATEMT7KJHUAI","","null","<img src=""img/animal2.png"" style=""width:200px; border:14px solid green;"">","null","","","","","",""
"","image-keyboard-response","351","181664","0.0-351.0","3RXCAC0YISBQ7KXZ7L603ZI9S4V8G7","A3EA4SHCLJ1UZQ","3VJ4PFXFJ3TL96TFXMATEMT7KJHUAI","","523.2999999523163","img/animal1.png","74","524.2000000476837","1","1","3","1,0.7,0,0,1,0.7,0.7,0,1",""
"","html-keyboard-response","352","181965","0.0-352.0","3RXCAC0YISBQ7KXZ7L603ZI9S4V8G7","A3EA4SHCLJ1UZQ","3VJ4PFXFJ3TL96TFXMATEMT7KJHUAI","","null","<img src=""img/animal1.png"" style=""width:200px; border:14px solid green;"">","null","","","","","",""
"","image-keyboard-response","353","182526","0.0-353.0","3RXCAC0YISBQ7KXZ7L603ZI9S4V8G7","A3EA4SHCLJ1UZQ","3VJ4PFXFJ3TL96TFXMATEMT7KJHUAI","","560.2000000476837","img/animal2.png","75","560.8999999761581","2","1","2","1,0.7,0,0,1,0.7,0.7,0,1",""
"","html-keyboard-response","354","182829","0.0-354.0","3RXCAC0YISBQ7KXZ7L603ZI9S4V8G7","A3EA4SHCLJ1UZQ","3VJ4PFXFJ3TL96TFXMATEMT7KJHUAI","","null","<img src=""img/animal2.png"" style=""width:200px; border:14px solid green;"">","null","","","","","",""
"","image-keyboard-response","355","183238","0.0-355.0","3RXCAC0YISBQ7KXZ7L603ZI9S4V8G7","A3EA4SHCLJ1UZQ","3VJ4PFXFJ3TL96TFXMATEMT7KJHUAI","","408.3000000715256","img/animal2.png","75","409","2","1","2","1,0.7,0,0,1,0.7,0.7,0,1",""
"","html-keyboard-response","356","183540","0.0-356.0","3RXCAC0YISBQ7KXZ7L603ZI9S4V8G7","A3EA4SHCLJ1UZQ","3VJ4PFXFJ3TL96TFXMATEMT7KJHUAI","","null","<img src=""img/animal2.png"" style=""width:200px; border:14px solid green;"">","null","","","","","",""
"","image-keyboard-response","357","183878","0.0-357.0","3RXCAC0YISBQ7KXZ7L603ZI9S4V8G7","A3EA4SHCLJ1UZQ","3VJ4PFXFJ3TL96TFXMATEMT7KJHUAI","","337.5","img/animal2.png","75","338.2000000476837","2","1","2","1,0.7,0,0,1,0.7,0.7,0,1",""
"","html-keyboard-response","358","184179","0.0-358.0","3RXCAC0YISBQ7KXZ7L603ZI9S4V8G7","A3EA4SHCLJ1UZQ","3VJ4PFXFJ3TL96TFXMATEMT7KJHUAI","","null","<img src=""img/animal2.png"" style=""width:200px; border:14px solid green;"">","null","","","","","",""
"","image-keyboard-response","359","184678","0.0-359.0","3RXCAC0YISBQ7KXZ7L603ZI9S4V8G7","A3EA4SHCLJ1UZQ","3VJ4PFXFJ3TL96TFXMATEMT7KJHUAI","","497.7000000476837","img/animal5.png","74","498.60000002384186","1","1","1","1,0.7,0,0,1,0.7,0.7,0,1",""
"","html-keyboard-response","360","184980","0.0-360.0","3RXCAC0YISBQ7KXZ7L603ZI9S4V8G7","A3EA4SHCLJ1UZQ","3VJ4PFXFJ3TL96TFXMATEMT7KJHUAI","","null","<img src=""img/animal5.png"" style=""width:200px; border:14px solid green;"">","null","","","","","",""
"","image-keyboard-response","361","185879","0.0-361.0","3RXCAC0YISBQ7KXZ7L603ZI9S4V8G7","A3EA4SHCLJ1UZQ","3VJ4PFXFJ3TL96TFXMATEMT7KJHUAI","","897.6999999284744","img/animal1.png","76","898.6999999284744","3","1","3","1,0.7,0,0,1,0.7,0.7,0,1",""
"","html-keyboard-response","362","186181","0.0-362.0","3RXCAC0YISBQ7KXZ7L603ZI9S4V8G7","A3EA4SHCLJ1UZQ","3VJ4PFXFJ3TL96TFXMATEMT7KJHUAI","","null","<img src=""img/animal1.png"" style=""width:200px; border:14px solid green;"">","null","","","","","",""
"","instructions","363","188033","0.0-363.0","3RXCAC0YISBQ7KXZ7L603ZI9S4V8G7","A3EA4SHCLJ1UZQ","3VJ4PFXFJ3TL96TFXMATEMT7KJHUAI","[{""page_index"":0,""viewing_time"":1851.5999999046326}]","1851.8999999761581","","","","","","","",""
"","survey-text","364","191526","0.0-364.0","3RXCAC0YISBQ7KXZ7L603ZI9S4V8G7","A3EA4SHCLJ1UZQ","3VJ4PFXFJ3TL96TFXMATEMT7KJHUAI","","3490.5","","","","","","","","{""Q0"":""A3EA4SHCLJ1UZQ""}"
