"success","trial_type","trial_index","time_elapsed","internal_node_id","assignmentID","mturkID","hitID","view_history","rt","stimulus","key_press","reactionTime","a","r","s","reward_cond","responses"
"true","fullscreen","0","7197","0.0-0.0","32Z9ZLUT1M67S8FQY8DELLKAM9COHP","A3HFZPC8QR1Y54","338431Z1FL1IVIVZ3BK6A6QS21HROA","","","","","","","","","",""
"","instructions","1","47893","0.0-1.0","32Z9ZLUT1M67S8FQY8DELLKAM9COHP","A3HFZPC8QR1Y54","338431Z1FL1IVIVZ3BK6A6QS21HROA","[{""page_index"":0,""viewing_time"":14061},{""page_index"":1,""viewing_time"":2399},{""page_index"":2,""viewing_time"":1333},{""page_index"":3,""viewing_time"":4417},{""page_index"":4,""viewing_time"":1733},{""page_index"":5,""viewing_time"":2318},{""page_index"":6,""viewing_time"":4467},{""page_index"":5,""viewing_time"":1016},{""page_index"":4,""viewing_time"":1300.0000000000073},{""page_index"":3,""viewing_time"":4033.9999999999927},{""page_index"":4,""viewing_time"":833},{""page_index"":5,""viewing_time"":1033},{""page_index"":6,""viewing_time"":850.0000000000073},{""page_index"":7,""viewing_time"":899.9999999999927}]","40695","","","","","","","",""
"","image-keyboard-response","2","48868","0.0-2.0","32Z9ZLUT1M67S8FQY8DELLKAM9COHP","A3HFZPC8QR1Y54","338431Z1FL1IVIVZ3BK6A6QS21HROA","","972.0000000000073","img/animal1.png","74","975","1","1","1","1,0.7,0,0,1,0.7,0.7,0,1",""
"","html-keyboard-response","3","49173","0.0-3.0","32Z9ZLUT1M67S8FQY8DELLKAM9COHP","A3HFZPC8QR1Y54","338431Z1FL1IVIVZ3BK6A6QS21HROA","","null","<img src=""img/animal1.png"" style=""width:200px; border:14px solid green;"">","null","","","","","",""
"","image-keyboard-response","4","50612","0.0-4.0","32Z9ZLUT1M67S8FQY8DELLKAM9COHP","A3HFZPC8QR1Y54","338431Z1FL1IVIVZ3BK6A6QS21HROA","","1437","img/animal1.png","74","1439","1","1","1","1,0.7,0,0,1,0.7,0.7,0,1",""
"","html-keyboard-response","5","50915","0.0-5.0","32Z9ZLUT1M67S8FQY8DELLKAM9COHP","A3HFZPC8QR1Y54","338431Z1FL1IVIVZ3BK6A6QS21HROA","","null","<img src=""img/animal1.png"" style=""width:200px; border:14px solid green;"">","null","","","","","",""
"","image-keyboard-response","6","53328","0.0-6.0","32Z9ZLUT1M67S8FQY8DELLKAM9COHP","A3HFZPC8QR1Y54","338431Z1FL1IVIVZ3BK6A6QS21HROA","","2410","img/animal5.png","76","2412","3","1","3","1,0.7,0,0,1,0.7,0.7,0,1",""
"","html-keyboard-response","7","53631","0.0-7.0","32Z9ZLUT1M67S8FQY8DELLKAM9COHP","A3HFZPC8QR1Y54","338431Z1FL1IVIVZ3BK6A6QS21HROA","","null","<img src=""img/animal5.png"" style=""width:200px; border:14px solid green;"">","null","","","","","",""
"","image-keyboard-response","8","54014","0.0-8.0","32Z9ZLUT1M67S8FQY8DELLKAM9COHP","A3HFZPC8QR1Y54","338431Z1FL1IVIVZ3BK6A6QS21HROA","","381","img/animal5.png","76","381.9999999999927","3","1","3","1,0.7,0,0,1,0.7,0.7,0,1",""
"","html-keyboard-response","9","54317","0.0-9.0","32Z9ZLUT1M67S8FQY8DELLKAM9COHP","A3HFZPC8QR1Y54","338431Z1FL1IVIVZ3BK6A6QS21HROA","","null","<img src=""img/animal5.png"" style=""width:200px; border:14px solid green;"">","null","","","","","",""
"","image-keyboard-response","10","55092","0.0-10.0","32Z9ZLUT1M67S8FQY8DELLKAM9COHP","A3HFZPC8QR1Y54","338431Z1FL1IVIVZ3BK6A6QS21HROA","","772.9999999999927","img/animal3.png","75","775","2","1","2","1,0.7,0,0,1,0.7,0.7,0,1",""
"","html-keyboard-response","11","55395","0.0-11.0","32Z9ZLUT1M67S8FQY8DELLKAM9COHP","A3HFZPC8QR1Y54","338431Z1FL1IVIVZ3BK6A6QS21HROA","","null","<img src=""img/animal3.png"" style=""width:200px; border:14px solid green;"">","null","","","","","",""
"","image-keyboard-response","12","56000","0.0-12.0","32Z9ZLUT1M67S8FQY8DELLKAM9COHP","A3HFZPC8QR1Y54","338431Z1FL1IVIVZ3BK6A6QS21HROA","","603","img/animal1.png","74","605","1","1","1","1,0.7,0,0,1,0.7,0.7,0,1",""
"","html-keyboard-response","13","56301","0.0-13.0","32Z9ZLUT1M67S8FQY8DELLKAM9COHP","A3HFZPC8QR1Y54","338431Z1FL1IVIVZ3BK6A6QS21HROA","","null","<img src=""img/animal1.png"" style=""width:200px; border:14px solid green;"">","null","","","","","",""
"","image-keyboard-response","14","57263","0.0-14.0","32Z9ZLUT1M67S8FQY8DELLKAM9COHP","A3HFZPC8QR1Y54","338431Z1FL1IVIVZ3BK6A6QS21HROA","","960","img/animal5.png","76","961.0000000000073","3","1","3","1,0.7,0,0,1,0.7,0.7,0,1",""
"","html-keyboard-response","15","57565","0.0-15.0","32Z9ZLUT1M67S8FQY8DELLKAM9COHP","A3HFZPC8QR1Y54","338431Z1FL1IVIVZ3BK6A6QS21HROA","","null","<img src=""img/animal5.png"" style=""width:200px; border:14px solid green;"">","null","","","","","",""
"","image-keyboard-response","16","58202","0.0-16.0","32Z9ZLUT1M67S8FQY8DELLKAM9COHP","A3HFZPC8QR1Y54","338431Z1FL1IVIVZ3BK6A6QS21HROA","","635.0000000000073","img/animal1.png","74","636.0000000000073","1","1","1","1,0.7,0,0,1,0.7,0.7,0,1",""
"","html-keyboard-response","17","58505","0.0-17.0","32Z9ZLUT1M67S8FQY8DELLKAM9COHP","A3HFZPC8QR1Y54","338431Z1FL1IVIVZ3BK6A6QS21HROA","","null","<img src=""img/animal1.png"" style=""width:200px; border:14px solid green;"">","null","","","","","",""
"","image-keyboard-response","18","59288","0.0-18.0","32Z9ZLUT1M67S8FQY8DELLKAM9COHP","A3HFZPC8QR1Y54","338431Z1FL1IVIVZ3BK6A6QS21HROA","","779.9999999999927","img/animal5.png","76","782","3","1","3","1,0.7,0,0,1,0.7,0.7,0,1",""
"","html-keyboard-response","19","59591","0.0-19.0","32Z9ZLUT1M67S8FQY8DELLKAM9COHP","A3HFZPC8QR1Y54","338431Z1FL1IVIVZ3BK6A6QS21HROA","","null","<img src=""img/animal5.png"" style=""width:200px; border:14px solid green;"">","null","","","","","",""
"","image-keyboard-response","20","60057","0.0-20.0","32Z9ZLUT1M67S8FQY8DELLKAM9COHP","A3HFZPC8QR1Y54","338431Z1FL1IVIVZ3BK6A6QS21HROA","","463.0000000000073","img/animal3.png","75","466","2","1","2","1,0.7,0,0,1,0.7,0.7,0,1",""
"","html-keyboard-response","21","60359","0.0-21.0","32Z9ZLUT1M67S8FQY8DELLKAM9COHP","A3HFZPC8QR1Y54","338431Z1FL1IVIVZ3BK6A6QS21HROA","","null","<img src=""img/animal3.png"" style=""width:200px; border:14px solid green;"">","null","","","","","",""
"","image-keyboard-response","22","61520","0.0-22.0","32Z9ZLUT1M67S8FQY8DELLKAM9COHP","A3HFZPC8QR1Y54","338431Z1FL1IVIVZ3BK6A6QS21HROA","","1159","img/animal3.png","75","1161","2","1","2","1,0.7,0,0,1,0.7,0.7,0,1",""
"","html-keyboard-response","23","61823","0.0-23.0","32Z9ZLUT1M67S8FQY8DELLKAM9COHP","A3HFZPC8QR1Y54","338431Z1FL1IVIVZ3BK6A6QS21HROA","","null","<img src=""img/animal3.png"" style=""width:200px; border:14px solid green;"">","null","","","","","",""
"","image-keyboard-response","24","64242","0.0-24.0","32Z9ZLUT1M67S8FQY8DELLKAM9COHP","A3HFZPC8QR1Y54","338431Z1FL1IVIVZ3BK6A6QS21HROA","","2417","img/animal1.png","74","2418","1","1","1","1,0.7,0,0,1,0.7,0.7,0,1",""
"","html-keyboard-response","25","64544","0.0-25.0","32Z9ZLUT1M67S8FQY8DELLKAM9COHP","A3HFZPC8QR1Y54","338431Z1FL1IVIVZ3BK6A6QS21HROA","","null","<img src=""img/animal1.png"" style=""width:200px; border:14px solid green;"">","null","","","","","",""
"","image-keyboard-response","26","65210","0.0-26.0","32Z9ZLUT1M67S8FQY8DELLKAM9COHP","A3HFZPC8QR1Y54","338431Z1FL1IVIVZ3BK6A6QS21HROA","","664.0000000000146","img/animal3.png","76","666","3","1","2","1,0.7,0,0,1,0.7,0.7,0,1",""
"","html-keyboard-response","27","65513","0.0-27.0","32Z9ZLUT1M67S8FQY8DELLKAM9COHP","A3HFZPC8QR1Y54","338431Z1FL1IVIVZ3BK6A6QS21HROA","","null","<img src=""img/animal3.png"" style=""width:200px; border:14px solid green;"">","null","","","","","",""
"","image-keyboard-response","28","65910","0.0-28.0","32Z9ZLUT1M67S8FQY8DELLKAM9COHP","A3HFZPC8QR1Y54","338431Z1FL1IVIVZ3BK6A6QS21HROA","","394","img/animal3.png","76","396","3","1","2","1,0.7,0,0,1,0.7,0.7,0,1",""
"","html-keyboard-response","29","66212","0.0-29.0","32Z9ZLUT1M67S8FQY8DELLKAM9COHP","A3HFZPC8QR1Y54","338431Z1FL1IVIVZ3BK6A6QS21HROA","","null","<img src=""img/animal3.png"" style=""width:200px; border:14px solid green;"">","null","","","","","",""
"","image-keyboard-response","30","67120","0.0-30.0","32Z9ZLUT1M67S8FQY8DELLKAM9COHP","A3HFZPC8QR1Y54","338431Z1FL1IVIVZ3BK6A6QS21HROA","","906","img/animal1.png","74","906.9999999999854","1","1","1","1,0.7,0,0,1,0.7,0.7,0,1",""
"","html-keyboard-response","31","67423","0.0-31.0","32Z9ZLUT1M67S8FQY8DELLKAM9COHP","A3HFZPC8QR1Y54","338431Z1FL1IVIVZ3BK6A6QS21HROA","","null","<img src=""img/animal1.png"" style=""width:200px; border:14px solid green;"">","null","","","","","",""
"","image-keyboard-response","32","68056","0.0-32.0","32Z9ZLUT1M67S8FQY8DELLKAM9COHP","A3HFZPC8QR1Y54","338431Z1FL1IVIVZ3BK6A6QS21HROA","","632","img/animal3.png","76","633","3","1","2","1,0.7,0,0,1,0.7,0.7,0,1",""
"","html-keyboard-response","33","68359","0.0-33.0","32Z9ZLUT1M67S8FQY8DELLKAM9COHP","A3HFZPC8QR1Y54","338431Z1FL1IVIVZ3BK6A6QS21HROA","","null","<img src=""img/animal3.png"" style=""width:200px; border:14px solid green;"">","null","","","","","",""
"","image-keyboard-response","34","69002","0.0-34.0","32Z9ZLUT1M67S8FQY8DELLKAM9COHP","A3HFZPC8QR1Y54","338431Z1FL1IVIVZ3BK6A6QS21HROA","","641","img/animal1.png","74","643","1","1","1","1,0.7,0,0,1,0.7,0.7,0,1",""
"","html-keyboard-response","35","69305","0.0-35.0","32Z9ZLUT1M67S8FQY8DELLKAM9COHP","A3HFZPC8QR1Y54","338431Z1FL1IVIVZ3BK6A6QS21HROA","","null","<img src=""img/animal1.png"" style=""width:200px; border:14px solid green;"">","null","","","","","",""
"","image-keyboard-response","36","69909","0.0-36.0","32Z9ZLUT1M67S8FQY8DELLKAM9COHP","A3HFZPC8QR1Y54","338431Z1FL1IVIVZ3BK6A6QS21HROA","","602","img/animal3.png","75","604","2","1","2","1,0.7,0,0,1,0.7,0.7,0,1",""
"","html-keyboard-response","37","70212","0.0-37.0","32Z9ZLUT1M67S8FQY8DELLKAM9COHP","A3HFZPC8QR1Y54","338431Z1FL1IVIVZ3BK6A6QS21HROA","","null","<img src=""img/animal3.png"" style=""width:200px; border:14px solid green;"">","null","","","","","",""
"","image-keyboard-response","38","71561","0.0-38.0","32Z9ZLUT1M67S8FQY8DELLKAM9COHP","A3HFZPC8QR1Y54","338431Z1FL1IVIVZ3BK6A6QS21HROA","","1347","img/animal1.png","74","1350","1","1","1","1,0.7,0,0,1,0.7,0.7,0,1",""
"","html-keyboard-response","39","71863","0.0-39.0","32Z9ZLUT1M67S8FQY8DELLKAM9COHP","A3HFZPC8QR1Y54","338431Z1FL1IVIVZ3BK6A6QS21HROA","","null","<img src=""img/animal1.png"" style=""width:200px; border:14px solid green;"">","null","","","","","",""
"","image-keyboard-response","40","75149","0.0-40.0","32Z9ZLUT1M67S8FQY8DELLKAM9COHP","A3HFZPC8QR1Y54","338431Z1FL1IVIVZ3BK6A6QS21HROA","","3283","img/animal3.png","76","3286","3","1","2","1,0.7,0,0,1,0.7,0.7,0,1",""
"","html-keyboard-response","41","75452","0.0-41.0","32Z9ZLUT1M67S8FQY8DELLKAM9COHP","A3HFZPC8QR1Y54","338431Z1FL1IVIVZ3BK6A6QS21HROA","","null","<img src=""img/animal3.png"" style=""width:200px; border:14px solid green;"">","null","","","","","",""
"","image-keyboard-response","42","76373","0.0-42.0","32Z9ZLUT1M67S8FQY8DELLKAM9COHP","A3HFZPC8QR1Y54","338431Z1FL1IVIVZ3BK6A6QS21HROA","","920","img/animal3.png","76","921","3","0","2","1,0.7,0,0,1,0.7,0.7,0,1",""
"","html-keyboard-response","43","76676","0.0-43.0","32Z9ZLUT1M67S8FQY8DELLKAM9COHP","A3HFZPC8QR1Y54","338431Z1FL1IVIVZ3BK6A6QS21HROA","","null","<img src=""img/animal3.png"" style=""width:200px;border:14px solid red;"">","null","","","","","",""
"","image-keyboard-response","44","78368","0.0-44.0","32Z9ZLUT1M67S8FQY8DELLKAM9COHP","A3HFZPC8QR1Y54","338431Z1FL1IVIVZ3BK6A6QS21HROA","","1691","img/animal5.png","74","1692","1","0","3","1,0.7,0,0,1,0.7,0.7,0,1",""
"","html-keyboard-response","45","78671","0.0-45.0","32Z9ZLUT1M67S8FQY8DELLKAM9COHP","A3HFZPC8QR1Y54","338431Z1FL1IVIVZ3BK6A6QS21HROA","","null","<img src=""img/animal5.png"" style=""width:200px;border:14px solid red;"">","null","","","","","",""
"","image-keyboard-response","46","78967","0.0-46.0","32Z9ZLUT1M67S8FQY8DELLKAM9COHP","A3HFZPC8QR1Y54","338431Z1FL1IVIVZ3BK6A6QS21HROA","","293","img/animal5.png","75","294","2","0","3","1,0.7,0,0,1,0.7,0.7,0,1",""
"","html-keyboard-response","47","79269","0.0-47.0","32Z9ZLUT1M67S8FQY8DELLKAM9COHP","A3HFZPC8QR1Y54","338431Z1FL1IVIVZ3BK6A6QS21HROA","","null","<img src=""img/animal5.png"" style=""width:200px;border:14px solid red;"">","null","","","","","",""
"","image-keyboard-response","48","80223","0.0-48.0","32Z9ZLUT1M67S8FQY8DELLKAM9COHP","A3HFZPC8QR1Y54","338431Z1FL1IVIVZ3BK6A6QS21HROA","","952","img/animal3.png","75","954","2","1","2","1,0.7,0,0,1,0.7,0.7,0,1",""
"","html-keyboard-response","49","80526","0.0-49.0","32Z9ZLUT1M67S8FQY8DELLKAM9COHP","A3HFZPC8QR1Y54","338431Z1FL1IVIVZ3BK6A6QS21HROA","","null","<img src=""img/animal3.png"" style=""width:200px; border:14px solid green;"">","null","","","","","",""
"","image-keyboard-response","50","81138","0.0-50.0","32Z9ZLUT1M67S8FQY8DELLKAM9COHP","A3HFZPC8QR1Y54","338431Z1FL1IVIVZ3BK6A6QS21HROA","","610","img/animal1.png","74","612","1","1","1","1,0.7,0,0,1,0.7,0.7,0,1",""
"","html-keyboard-response","51","81440","0.0-51.0","32Z9ZLUT1M67S8FQY8DELLKAM9COHP","A3HFZPC8QR1Y54","338431Z1FL1IVIVZ3BK6A6QS21HROA","","null","<img src=""img/animal1.png"" style=""width:200px; border:14px solid green;"">","null","","","","","",""
"","image-keyboard-response","52","82591","0.0-52.0","32Z9ZLUT1M67S8FQY8DELLKAM9COHP","A3HFZPC8QR1Y54","338431Z1FL1IVIVZ3BK6A6QS21HROA","","1148.0000000000146","img/animal3.png","75","1150","2","1","2","1,0.7,0,0,1,0.7,0.7,0,1",""
"","html-keyboard-response","53","82894","0.0-53.0","32Z9ZLUT1M67S8FQY8DELLKAM9COHP","A3HFZPC8QR1Y54","338431Z1FL1IVIVZ3BK6A6QS21HROA","","null","<img src=""img/animal3.png"" style=""width:200px; border:14px solid green;"">","null","","","","","",""
"","image-keyboard-response","54","83247","0.0-54.0","32Z9ZLUT1M67S8FQY8DELLKAM9COHP","A3HFZPC8QR1Y54","338431Z1FL1IVIVZ3BK6A6QS21HROA","","352","img/animal3.png","75","353","2","1","2","1,0.7,0,0,1,0.7,0.7,0,1",""
"","html-keyboard-response","55","83550","0.0-55.0","32Z9ZLUT1M67S8FQY8DELLKAM9COHP","A3HFZPC8QR1Y54","338431Z1FL1IVIVZ3BK6A6QS21HROA","","null","<img src=""img/animal3.png"" style=""width:200px; border:14px solid green;"">","null","","","","","",""
"","image-keyboard-response","56","84136","0.0-56.0","32Z9ZLUT1M67S8FQY8DELLKAM9COHP","A3HFZPC8QR1Y54","338431Z1FL1IVIVZ3BK6A6QS21HROA","","580","img/animal1.png","74","585","1","1","1","1,0.7,0,0,1,0.7,0.7,0,1",""
"","html-keyboard-response","57","84439","0.0-57.0","32Z9ZLUT1M67S8FQY8DELLKAM9COHP","A3HFZPC8QR1Y54","338431Z1FL1IVIVZ3BK6A6QS21HROA","","null","<img src=""img/animal1.png"" style=""width:200px; border:14px solid green;"">","null","","","","","",""
"","image-keyboard-response","58","85019","0.0-58.0","32Z9ZLUT1M67S8FQY8DELLKAM9COHP","A3HFZPC8QR1Y54","338431Z1FL1IVIVZ3BK6A6QS21HROA","","578","img/animal3.png","75","579","2","1","2","1,0.7,0,0,1,0.7,0.7,0,1",""
"","html-keyboard-response","59","85322","0.0-59.0","32Z9ZLUT1M67S8FQY8DELLKAM9COHP","A3HFZPC8QR1Y54","338431Z1FL1IVIVZ3BK6A6QS21HROA","","null","<img src=""img/animal3.png"" style=""width:200px; border:14px solid green;"">","null","","","","","",""
"","image-keyboard-response","60","85800","0.0-60.0","32Z9ZLUT1M67S8FQY8DELLKAM9COHP","A3HFZPC8QR1Y54","338431Z1FL1IVIVZ3BK6A6QS21HROA","","475","img/animal5.png","76","477","3","1","3","1,0.7,0,0,1,0.7,0.7,0,1",""
"","html-keyboard-response","61","86103","0.0-61.0","32Z9ZLUT1M67S8FQY8DELLKAM9COHP","A3HFZPC8QR1Y54","338431Z1FL1IVIVZ3BK6A6QS21HROA","","null","<img src=""img/animal5.png"" style=""width:200px; border:14px solid green;"">","null","","","","","",""
"","image-keyboard-response","62","86875","0.0-62.0","32Z9ZLUT1M67S8FQY8DELLKAM9COHP","A3HFZPC8QR1Y54","338431Z1FL1IVIVZ3BK6A6QS21HROA","","770","img/animal1.png","74","772","1","1","1","1,0.7,0,0,1,0.7,0.7,0,1",""
"","html-keyboard-response","63","87178","0.0-63.0","32Z9ZLUT1M67S8FQY8DELLKAM9COHP","A3HFZPC8QR1Y54","338431Z1FL1IVIVZ3BK6A6QS21HROA","","null","<img src=""img/animal1.png"" style=""width:200px; border:14px solid green;"">","null","","","","","",""
"","image-keyboard-response","64","88091","0.0-64.0","32Z9ZLUT1M67S8FQY8DELLKAM9COHP","A3HFZPC8QR1Y54","338431Z1FL1IVIVZ3BK6A6QS21HROA","","912","img/animal5.png","76","913","3","1","3","1,0.7,0,0,1,0.7,0.7,0,1",""
"","html-keyboard-response","65","88394","0.0-65.0","32Z9ZLUT1M67S8FQY8DELLKAM9COHP","A3HFZPC8QR1Y54","338431Z1FL1IVIVZ3BK6A6QS21HROA","","null","<img src=""img/animal5.png"" style=""width:200px; border:14px solid green;"">","null","","","","","",""
"","image-keyboard-response","66","88744","0.0-66.0","32Z9ZLUT1M67S8FQY8DELLKAM9COHP","A3HFZPC8QR1Y54","338431Z1FL1IVIVZ3BK6A6QS21HROA","","348","img/animal5.png","76","350","3","1","3","1,0.7,0,0,1,0.7,0.7,0,1",""
"","html-keyboard-response","67","89047","0.0-67.0","32Z9ZLUT1M67S8FQY8DELLKAM9COHP","A3HFZPC8QR1Y54","338431Z1FL1IVIVZ3BK6A6QS21HROA","","null","<img src=""img/animal5.png"" style=""width:200px; border:14px solid green;"">","null","","","","","",""
"","image-keyboard-response","68","89405","0.0-68.0","32Z9ZLUT1M67S8FQY8DELLKAM9COHP","A3HFZPC8QR1Y54","338431Z1FL1IVIVZ3BK6A6QS21HROA","","356","img/animal5.png","76","358","3","1","3","1,0.7,0,0,1,0.7,0.7,0,1",""
"","html-keyboard-response","69","89708","0.0-69.0","32Z9ZLUT1M67S8FQY8DELLKAM9COHP","A3HFZPC8QR1Y54","338431Z1FL1IVIVZ3BK6A6QS21HROA","","null","<img src=""img/animal5.png"" style=""width:200px; border:14px solid green;"">","null","","","","","",""
"","image-keyboard-response","70","90031","0.0-70.0","32Z9ZLUT1M67S8FQY8DELLKAM9COHP","A3HFZPC8QR1Y54","338431Z1FL1IVIVZ3BK6A6QS21HROA","","320","img/animal5.png","76","321.99999999998545","3","1","3","1,0.7,0,0,1,0.7,0.7,0,1",""
"","html-keyboard-response","71","90333","0.0-71.0","32Z9ZLUT1M67S8FQY8DELLKAM9COHP","A3HFZPC8QR1Y54","338431Z1FL1IVIVZ3BK6A6QS21HROA","","null","<img src=""img/animal5.png"" style=""width:200px; border:14px solid green;"">","null","","","","","",""
"","image-keyboard-response","72","90642","0.0-72.0","32Z9ZLUT1M67S8FQY8DELLKAM9COHP","A3HFZPC8QR1Y54","338431Z1FL1IVIVZ3BK6A6QS21HROA","","307","img/animal5.png","76","308.99999999998545","3","1","3","1,0.7,0,0,1,0.7,0.7,0,1",""
"","html-keyboard-response","73","90945","0.0-73.0","32Z9ZLUT1M67S8FQY8DELLKAM9COHP","A3HFZPC8QR1Y54","338431Z1FL1IVIVZ3BK6A6QS21HROA","","null","<img src=""img/animal5.png"" style=""width:200px; border:14px solid green;"">","null","","","","","",""
"","image-keyboard-response","74","91598","0.0-74.0","32Z9ZLUT1M67S8FQY8DELLKAM9COHP","A3HFZPC8QR1Y54","338431Z1FL1IVIVZ3BK6A6QS21HROA","","651","img/animal1.png","74","653.0000000000146","1","1","1","1,0.7,0,0,1,0.7,0.7,0,1",""
"","html-keyboard-response","75","91902","0.0-75.0","32Z9ZLUT1M67S8FQY8DELLKAM9COHP","A3HFZPC8QR1Y54","338431Z1FL1IVIVZ3BK6A6QS21HROA","","null","<img src=""img/animal1.png"" style=""width:200px; border:14px solid green;"">","null","","","","","",""
"","image-keyboard-response","76","93091","0.0-76.0","32Z9ZLUT1M67S8FQY8DELLKAM9COHP","A3HFZPC8QR1Y54","338431Z1FL1IVIVZ3BK6A6QS21HROA","","1187","img/animal5.png","75","1188","2","0","3","1,0.7,0,0,1,0.7,0.7,0,1",""
"","html-keyboard-response","77","93393","0.0-77.0","32Z9ZLUT1M67S8FQY8DELLKAM9COHP","A3HFZPC8QR1Y54","338431Z1FL1IVIVZ3BK6A6QS21HROA","","null","<img src=""img/animal5.png"" style=""width:200px;border:14px solid red;"">","null","","","","","",""
"","image-keyboard-response","78","93794","0.0-78.0","32Z9ZLUT1M67S8FQY8DELLKAM9COHP","A3HFZPC8QR1Y54","338431Z1FL1IVIVZ3BK6A6QS21HROA","","399","img/animal5.png","76","400","3","1","3","1,0.7,0,0,1,0.7,0.7,0,1",""
"","html-keyboard-response","79","94096","0.0-79.0","32Z9ZLUT1M67S8FQY8DELLKAM9COHP","A3HFZPC8QR1Y54","338431Z1FL1IVIVZ3BK6A6QS21HROA","","null","<img src=""img/animal5.png"" style=""width:200px; border:14px solid green;"">","null","","","","","",""
"","image-keyboard-response","80","94433","0.0-80.0","32Z9ZLUT1M67S8FQY8DELLKAM9COHP","A3HFZPC8QR1Y54","338431Z1FL1IVIVZ3BK6A6QS21HROA","","333.99999999998545","img/animal5.png","76","335","3","1","3","1,0.7,0,0,1,0.7,0.7,0,1",""
"","html-keyboard-response","81","94735","0.0-81.0","32Z9ZLUT1M67S8FQY8DELLKAM9COHP","A3HFZPC8QR1Y54","338431Z1FL1IVIVZ3BK6A6QS21HROA","","null","<img src=""img/animal5.png"" style=""width:200px; border:14px solid green;"">","null","","","","","",""
"","image-keyboard-response","82","95467","0.0-82.0","32Z9ZLUT1M67S8FQY8DELLKAM9COHP","A3HFZPC8QR1Y54","338431Z1FL1IVIVZ3BK6A6QS21HROA","","729","img/animal1.png","74","730.9999999999854","1","1","1","1,0.7,0,0,1,0.7,0.7,0,1",""
"","html-keyboard-response","83","95769","0.0-83.0","32Z9ZLUT1M67S8FQY8DELLKAM9COHP","A3HFZPC8QR1Y54","338431Z1FL1IVIVZ3BK6A6QS21HROA","","null","<img src=""img/animal1.png"" style=""width:200px; border:14px solid green;"">","null","","","","","",""
"","image-keyboard-response","84","96213","0.0-84.0","32Z9ZLUT1M67S8FQY8DELLKAM9COHP","A3HFZPC8QR1Y54","338431Z1FL1IVIVZ3BK6A6QS21HROA","","442","img/animal1.png","74","443","1","1","1","1,0.7,0,0,1,0.7,0.7,0,1",""
"","html-keyboard-response","85","96516","0.0-85.0","32Z9ZLUT1M67S8FQY8DELLKAM9COHP","A3HFZPC8QR1Y54","338431Z1FL1IVIVZ3BK6A6QS21HROA","","null","<img src=""img/animal1.png"" style=""width:200px; border:14px solid green;"">","null","","","","","",""
"","image-keyboard-response","86","97024","0.0-86.0","32Z9ZLUT1M67S8FQY8DELLKAM9COHP","A3HFZPC8QR1Y54","338431Z1FL1IVIVZ3BK6A6QS21HROA","","506","img/animal3.png","75","508","2","1","2","1,0.7,0,0,1,0.7,0.7,0,1",""
"","html-keyboard-response","87","97327","0.0-87.0","32Z9ZLUT1M67S8FQY8DELLKAM9COHP","A3HFZPC8QR1Y54","338431Z1FL1IVIVZ3BK6A6QS21HROA","","null","<img src=""img/animal3.png"" style=""width:200px; border:14px solid green;"">","null","","","","","",""
"","image-keyboard-response","88","98080","0.0-88.0","32Z9ZLUT1M67S8FQY8DELLKAM9COHP","A3HFZPC8QR1Y54","338431Z1FL1IVIVZ3BK6A6QS21HROA","","751","img/animal5.png","76","752","3","1","3","1,0.7,0,0,1,0.7,0.7,0,1",""
"","html-keyboard-response","89","98382","0.0-89.0","32Z9ZLUT1M67S8FQY8DELLKAM9COHP","A3HFZPC8QR1Y54","338431Z1FL1IVIVZ3BK6A6QS21HROA","","null","<img src=""img/animal5.png"" style=""width:200px; border:14px solid green;"">","null","","","","","",""
"","image-keyboard-response","90","98895","0.0-90.0","32Z9ZLUT1M67S8FQY8DELLKAM9COHP","A3HFZPC8QR1Y54","338431Z1FL1IVIVZ3BK6A6QS21HROA","","512","img/animal3.png","75","513","2","1","2","1,0.7,0,0,1,0.7,0.7,0,1",""
"","html-keyboard-response","91","99198","0.0-91.0","32Z9ZLUT1M67S8FQY8DELLKAM9COHP","A3HFZPC8QR1Y54","338431Z1FL1IVIVZ3BK6A6QS21HROA","","null","<img src=""img/animal3.png"" style=""width:200px; border:14px solid green;"">","null","","","","","",""
"","image-keyboard-response","92","99579","0.0-92.0","32Z9ZLUT1M67S8FQY8DELLKAM9COHP","A3HFZPC8QR1Y54","338431Z1FL1IVIVZ3BK6A6QS21HROA","","379","img/animal3.png","75","380","2","1","2","1,0.7,0,0,1,0.7,0.7,0,1",""
"","html-keyboard-response","93","99881","0.0-93.0","32Z9ZLUT1M67S8FQY8DELLKAM9COHP","A3HFZPC8QR1Y54","338431Z1FL1IVIVZ3BK6A6QS21HROA","","null","<img src=""img/animal3.png"" style=""width:200px; border:14px solid green;"">","null","","","","","",""
"","image-keyboard-response","94","100484","0.0-94.0","32Z9ZLUT1M67S8FQY8DELLKAM9COHP","A3HFZPC8QR1Y54","338431Z1FL1IVIVZ3BK6A6QS21HROA","","601","img/animal1.png","74","601.9999999999854","1","1","1","1,0.7,0,0,1,0.7,0.7,0,1",""
"","html-keyboard-response","95","100787","0.0-95.0","32Z9ZLUT1M67S8FQY8DELLKAM9COHP","A3HFZPC8QR1Y54","338431Z1FL1IVIVZ3BK6A6QS21HROA","","null","<img src=""img/animal1.png"" style=""width:200px; border:14px solid green;"">","null","","","","","",""
"","image-keyboard-response","96","101156","0.0-96.0","32Z9ZLUT1M67S8FQY8DELLKAM9COHP","A3HFZPC8QR1Y54","338431Z1FL1IVIVZ3BK6A6QS21HROA","","367","img/animal1.png","74","368","1","1","1","1,0.7,0,0,1,0.7,0.7,0,1",""
"","html-keyboard-response","97","101458","0.0-97.0","32Z9ZLUT1M67S8FQY8DELLKAM9COHP","A3HFZPC8QR1Y54","338431Z1FL1IVIVZ3BK6A6QS21HROA","","null","<img src=""img/animal1.png"" style=""width:200px; border:14px solid green;"">","null","","","","","",""
"","image-keyboard-response","98","101764","0.0-98.0","32Z9ZLUT1M67S8FQY8DELLKAM9COHP","A3HFZPC8QR1Y54","338431Z1FL1IVIVZ3BK6A6QS21HROA","","303","img/animal1.png","74","305","1","1","1","1,0.7,0,0,1,0.7,0.7,0,1",""
"","html-keyboard-response","99","102067","0.0-99.0","32Z9ZLUT1M67S8FQY8DELLKAM9COHP","A3HFZPC8QR1Y54","338431Z1FL1IVIVZ3BK6A6QS21HROA","","null","<img src=""img/animal1.png"" style=""width:200px; border:14px solid green;"">","null","","","","","",""
"","image-keyboard-response","100","102361","0.0-100.0","32Z9ZLUT1M67S8FQY8DELLKAM9COHP","A3HFZPC8QR1Y54","338431Z1FL1IVIVZ3BK6A6QS21HROA","","292.00000000001455","img/animal1.png","74","293.00000000001455","1","1","1","1,0.7,0,0,1,0.7,0.7,0,1",""
"","html-keyboard-response","101","102663","0.0-101.0","32Z9ZLUT1M67S8FQY8DELLKAM9COHP","A3HFZPC8QR1Y54","338431Z1FL1IVIVZ3BK6A6QS21HROA","","null","<img src=""img/animal1.png"" style=""width:200px; border:14px solid green;"">","null","","","","","",""
"","image-keyboard-response","102","105059","0.0-102.0","32Z9ZLUT1M67S8FQY8DELLKAM9COHP","A3HFZPC8QR1Y54","338431Z1FL1IVIVZ3BK6A6QS21HROA","","2395","img/animal3.png","75","2396","2","1","2","1,0.7,0,0,1,0.7,0.7,0,1",""
"","html-keyboard-response","103","105363","0.0-103.0","32Z9ZLUT1M67S8FQY8DELLKAM9COHP","A3HFZPC8QR1Y54","338431Z1FL1IVIVZ3BK6A6QS21HROA","","null","<img src=""img/animal3.png"" style=""width:200px; border:14px solid green;"">","null","","","","","",""
"","image-keyboard-response","104","105678","0.0-104.0","32Z9ZLUT1M67S8FQY8DELLKAM9COHP","A3HFZPC8QR1Y54","338431Z1FL1IVIVZ3BK6A6QS21HROA","","314","img/animal3.png","75","314.99999999998545","2","1","2","1,0.7,0,0,1,0.7,0.7,0,1",""
"","html-keyboard-response","105","105980","0.0-105.0","32Z9ZLUT1M67S8FQY8DELLKAM9COHP","A3HFZPC8QR1Y54","338431Z1FL1IVIVZ3BK6A6QS21HROA","","null","<img src=""img/animal3.png"" style=""width:200px; border:14px solid green;"">","null","","","","","",""
"","image-keyboard-response","106","106490","0.0-106.0","32Z9ZLUT1M67S8FQY8DELLKAM9COHP","A3HFZPC8QR1Y54","338431Z1FL1IVIVZ3BK6A6QS21HROA","","508","img/animal5.png","76","508","3","1","3","1,0.7,0,0,1,0.7,0.7,0,1",""
"","html-keyboard-response","107","106792","0.0-107.0","32Z9ZLUT1M67S8FQY8DELLKAM9COHP","A3HFZPC8QR1Y54","338431Z1FL1IVIVZ3BK6A6QS21HROA","","null","<img src=""img/animal5.png"" style=""width:200px; border:14px solid green;"">","null","","","","","",""
"","image-keyboard-response","108","107505","0.0-108.0","32Z9ZLUT1M67S8FQY8DELLKAM9COHP","A3HFZPC8QR1Y54","338431Z1FL1IVIVZ3BK6A6QS21HROA","","711","img/animal3.png","75","713","2","1","2","1,0.7,0,0,1,0.7,0.7,0,1",""
"","html-keyboard-response","109","107808","0.0-109.0","32Z9ZLUT1M67S8FQY8DELLKAM9COHP","A3HFZPC8QR1Y54","338431Z1FL1IVIVZ3BK6A6QS21HROA","","null","<img src=""img/animal3.png"" style=""width:200px; border:14px solid green;"">","null","","","","","",""
"","image-keyboard-response","110","108117","0.0-110.0","32Z9ZLUT1M67S8FQY8DELLKAM9COHP","A3HFZPC8QR1Y54","338431Z1FL1IVIVZ3BK6A6QS21HROA","","308","img/animal3.png","75","309","2","1","2","1,0.7,0,0,1,0.7,0.7,0,1",""
"","html-keyboard-response","111","108420","0.0-111.0","32Z9ZLUT1M67S8FQY8DELLKAM9COHP","A3HFZPC8QR1Y54","338431Z1FL1IVIVZ3BK6A6QS21HROA","","null","<img src=""img/animal3.png"" style=""width:200px; border:14px solid green;"">","null","","","","","",""
"","image-keyboard-response","112","108976","0.0-112.0","32Z9ZLUT1M67S8FQY8DELLKAM9COHP","A3HFZPC8QR1Y54","338431Z1FL1IVIVZ3BK6A6QS21HROA","","555.0000000000146","img/animal1.png","74","556.0000000000146","1","1","1","1,0.7,0,0,1,0.7,0.7,0,1",""
"","html-keyboard-response","113","109279","0.0-113.0","32Z9ZLUT1M67S8FQY8DELLKAM9COHP","A3HFZPC8QR1Y54","338431Z1FL1IVIVZ3BK6A6QS21HROA","","null","<img src=""img/animal1.png"" style=""width:200px; border:14px solid green;"">","null","","","","","",""
"","image-keyboard-response","114","109967","0.0-114.0","32Z9ZLUT1M67S8FQY8DELLKAM9COHP","A3HFZPC8QR1Y54","338431Z1FL1IVIVZ3BK6A6QS21HROA","","686.0000000000146","img/animal5.png","76","687.0000000000146","3","1","3","1,0.7,0,0,1,0.7,0.7,0,1",""
"","html-keyboard-response","115","110270","0.0-115.0","32Z9ZLUT1M67S8FQY8DELLKAM9COHP","A3HFZPC8QR1Y54","338431Z1FL1IVIVZ3BK6A6QS21HROA","","null","<img src=""img/animal5.png"" style=""width:200px; border:14px solid green;"">","null","","","","","",""
"","image-keyboard-response","116","112676","0.0-116.0","32Z9ZLUT1M67S8FQY8DELLKAM9COHP","A3HFZPC8QR1Y54","338431Z1FL1IVIVZ3BK6A6QS21HROA","","2404","img/animal3.png","75","2405","2","1","2","1,0.7,0,0,1,0.7,0.7,0,1",""
"","html-keyboard-response","117","112979","0.0-117.0","32Z9ZLUT1M67S8FQY8DELLKAM9COHP","A3HFZPC8QR1Y54","338431Z1FL1IVIVZ3BK6A6QS21HROA","","null","<img src=""img/animal3.png"" style=""width:200px; border:14px solid green;"">","null","","","","","",""
"","image-keyboard-response","118","113367","0.0-118.0","32Z9ZLUT1M67S8FQY8DELLKAM9COHP","A3HFZPC8QR1Y54","338431Z1FL1IVIVZ3BK6A6QS21HROA","","384.99999999998545","img/animal3.png","75","387","2","1","2","1,0.7,0,0,1,0.7,0.7,0,1",""
"","html-keyboard-response","119","113670","0.0-119.0","32Z9ZLUT1M67S8FQY8DELLKAM9COHP","A3HFZPC8QR1Y54","338431Z1FL1IVIVZ3BK6A6QS21HROA","","null","<img src=""img/animal3.png"" style=""width:200px; border:14px solid green;"">","null","","","","","",""
"","image-keyboard-response","120","113977","0.0-120.0","32Z9ZLUT1M67S8FQY8DELLKAM9COHP","A3HFZPC8QR1Y54","338431Z1FL1IVIVZ3BK6A6QS21HROA","","305.00000000001455","img/animal3.png","75","308","2","1","2","1,0.7,0,0,1,0.7,0.7,0,1",""
"","html-keyboard-response","121","114280","0.0-121.0","32Z9ZLUT1M67S8FQY8DELLKAM9COHP","A3HFZPC8QR1Y54","338431Z1FL1IVIVZ3BK6A6QS21HROA","","null","<img src=""img/animal3.png"" style=""width:200px; border:14px solid green;"">","null","","","","","",""
"","image-keyboard-response","122","114554","0.0-122.0","32Z9ZLUT1M67S8FQY8DELLKAM9COHP","A3HFZPC8QR1Y54","338431Z1FL1IVIVZ3BK6A6QS21HROA","","272","img/animal3.png","75","274","2","1","2","1,0.7,0,0,1,0.7,0.7,0,1",""
"","html-keyboard-response","123","114857","0.0-123.0","32Z9ZLUT1M67S8FQY8DELLKAM9COHP","A3HFZPC8QR1Y54","338431Z1FL1IVIVZ3BK6A6QS21HROA","","null","<img src=""img/animal3.png"" style=""width:200px; border:14px solid green;"">","null","","","","","",""
"","image-keyboard-response","124","115946","0.0-124.0","32Z9ZLUT1M67S8FQY8DELLKAM9COHP","A3HFZPC8QR1Y54","338431Z1FL1IVIVZ3BK6A6QS21HROA","","1087","img/animal1.png","74","1090","1","1","1","1,0.7,0,0,1,0.7,0.7,0,1",""
"","html-keyboard-response","125","116251","0.0-125.0","32Z9ZLUT1M67S8FQY8DELLKAM9COHP","A3HFZPC8QR1Y54","338431Z1FL1IVIVZ3BK6A6QS21HROA","","null","<img src=""img/animal1.png"" style=""width:200px; border:14px solid green;"">","null","","","","","",""
"","image-keyboard-response","126","119761","0.0-126.0","32Z9ZLUT1M67S8FQY8DELLKAM9COHP","A3HFZPC8QR1Y54","338431Z1FL1IVIVZ3BK6A6QS21HROA","","3506.9999999999854","img/animal5.png","76","3509","3","1","3","1,0.7,0,0,1,0.7,0.7,0,1",""
"","html-keyboard-response","127","120064","0.0-127.0","32Z9ZLUT1M67S8FQY8DELLKAM9COHP","A3HFZPC8QR1Y54","338431Z1FL1IVIVZ3BK6A6QS21HROA","","null","<img src=""img/animal5.png"" style=""width:200px; border:14px solid green;"">","null","","","","","",""
"","image-keyboard-response","128","120383","0.0-128.0","32Z9ZLUT1M67S8FQY8DELLKAM9COHP","A3HFZPC8QR1Y54","338431Z1FL1IVIVZ3BK6A6QS21HROA","","316","img/animal5.png","76","318","3","1","3","1,0.7,0,0,1,0.7,0.7,0,1",""
"","html-keyboard-response","129","120686","0.0-129.0","32Z9ZLUT1M67S8FQY8DELLKAM9COHP","A3HFZPC8QR1Y54","338431Z1FL1IVIVZ3BK6A6QS21HROA","","null","<img src=""img/animal5.png"" style=""width:200px; border:14px solid green;"">","null","","","","","",""
"","image-keyboard-response","130","121024","0.0-130.0","32Z9ZLUT1M67S8FQY8DELLKAM9COHP","A3HFZPC8QR1Y54","338431Z1FL1IVIVZ3BK6A6QS21HROA","","336","img/animal5.png","76","338","3","1","3","1,0.7,0,0,1,0.7,0.7,0,1",""
"","html-keyboard-response","131","121327","0.0-131.0","32Z9ZLUT1M67S8FQY8DELLKAM9COHP","A3HFZPC8QR1Y54","338431Z1FL1IVIVZ3BK6A6QS21HROA","","null","<img src=""img/animal5.png"" style=""width:200px; border:14px solid green;"">","null","","","","","",""
"","image-keyboard-response","132","121953","0.0-132.0","32Z9ZLUT1M67S8FQY8DELLKAM9COHP","A3HFZPC8QR1Y54","338431Z1FL1IVIVZ3BK6A6QS21HROA","","623","img/animal1.png","74","625","1","1","1","1,0.7,0,0,1,0.7,0.7,0,1",""
"","html-keyboard-response","133","122255","0.0-133.0","32Z9ZLUT1M67S8FQY8DELLKAM9COHP","A3HFZPC8QR1Y54","338431Z1FL1IVIVZ3BK6A6QS21HROA","","null","<img src=""img/animal1.png"" style=""width:200px; border:14px solid green;"">","null","","","","","",""
"","image-keyboard-response","134","123342","0.0-134.0","32Z9ZLUT1M67S8FQY8DELLKAM9COHP","A3HFZPC8QR1Y54","338431Z1FL1IVIVZ3BK6A6QS21HROA","","1085.0000000000146","img/animal1.png","75","1086","2","1","1","1,0.7,0,0,1,0.7,0.7,0,1",""
"","html-keyboard-response","135","123644","0.0-135.0","32Z9ZLUT1M67S8FQY8DELLKAM9COHP","A3HFZPC8QR1Y54","338431Z1FL1IVIVZ3BK6A6QS21HROA","","null","<img src=""img/animal1.png"" style=""width:200px; border:14px solid green;"">","null","","","","","",""
"","image-keyboard-response","136","125080","0.0-136.0","32Z9ZLUT1M67S8FQY8DELLKAM9COHP","A3HFZPC8QR1Y54","338431Z1FL1IVIVZ3BK6A6QS21HROA","","1434","img/animal3.png","75","1435","2","1","2","1,0.7,0,0,1,0.7,0.7,0,1",""
"","html-keyboard-response","137","125383","0.0-137.0","32Z9ZLUT1M67S8FQY8DELLKAM9COHP","A3HFZPC8QR1Y54","338431Z1FL1IVIVZ3BK6A6QS21HROA","","null","<img src=""img/animal3.png"" style=""width:200px; border:14px solid green;"">","null","","","","","",""
"","image-keyboard-response","138","125865","0.0-138.0","32Z9ZLUT1M67S8FQY8DELLKAM9COHP","A3HFZPC8QR1Y54","338431Z1FL1IVIVZ3BK6A6QS21HROA","","479","img/animal1.png","74","482","1","1","1","1,0.7,0,0,1,0.7,0.7,0,1",""
"","html-keyboard-response","139","126168","0.0-139.0","32Z9ZLUT1M67S8FQY8DELLKAM9COHP","A3HFZPC8QR1Y54","338431Z1FL1IVIVZ3BK6A6QS21HROA","","null","<img src=""img/animal1.png"" style=""width:200px; border:14px solid green;"">","null","","","","","",""
"","image-keyboard-response","140","126837","0.0-140.0","32Z9ZLUT1M67S8FQY8DELLKAM9COHP","A3HFZPC8QR1Y54","338431Z1FL1IVIVZ3BK6A6QS21HROA","","666","img/animal5.png","76","670","3","1","3","1,0.7,0,0,1,0.7,0.7,0,1",""
"","html-keyboard-response","141","127141","0.0-141.0","32Z9ZLUT1M67S8FQY8DELLKAM9COHP","A3HFZPC8QR1Y54","338431Z1FL1IVIVZ3BK6A6QS21HROA","","null","<img src=""img/animal5.png"" style=""width:200px; border:14px solid green;"">","null","","","","","",""
"","image-keyboard-response","142","127607","0.0-142.0","32Z9ZLUT1M67S8FQY8DELLKAM9COHP","A3HFZPC8QR1Y54","338431Z1FL1IVIVZ3BK6A6QS21HROA","","465","img/animal5.png","76","466.00000000001455","3","1","3","1,0.7,0,0,1,0.7,0.7,0,1",""
"","html-keyboard-response","143","127911","0.0-143.0","32Z9ZLUT1M67S8FQY8DELLKAM9COHP","A3HFZPC8QR1Y54","338431Z1FL1IVIVZ3BK6A6QS21HROA","","null","<img src=""img/animal5.png"" style=""width:200px; border:14px solid green;"">","null","","","","","",""
"","image-keyboard-response","144","128745","0.0-144.0","32Z9ZLUT1M67S8FQY8DELLKAM9COHP","A3HFZPC8QR1Y54","338431Z1FL1IVIVZ3BK6A6QS21HROA","","832","img/animal1.png","74","834","1","1","1","1,0.7,0,0,1,0.7,0.7,0,1",""
"","html-keyboard-response","145","129048","0.0-145.0","32Z9ZLUT1M67S8FQY8DELLKAM9COHP","A3HFZPC8QR1Y54","338431Z1FL1IVIVZ3BK6A6QS21HROA","","null","<img src=""img/animal1.png"" style=""width:200px; border:14px solid green;"">","null","","","","","",""
"","image-keyboard-response","146","129675","0.0-146.0","32Z9ZLUT1M67S8FQY8DELLKAM9COHP","A3HFZPC8QR1Y54","338431Z1FL1IVIVZ3BK6A6QS21HROA","","624","img/animal3.png","75","625","2","1","2","1,0.7,0,0,1,0.7,0.7,0,1",""
"","html-keyboard-response","147","129977","0.0-147.0","32Z9ZLUT1M67S8FQY8DELLKAM9COHP","A3HFZPC8QR1Y54","338431Z1FL1IVIVZ3BK6A6QS21HROA","","null","<img src=""img/animal3.png"" style=""width:200px; border:14px solid green;"">","null","","","","","",""
"","image-keyboard-response","148","130619","0.0-148.0","32Z9ZLUT1M67S8FQY8DELLKAM9COHP","A3HFZPC8QR1Y54","338431Z1FL1IVIVZ3BK6A6QS21HROA","","640","img/animal5.png","74","642","1","1","3","1,0.7,0,0,1,0.7,0.7,0,1",""
"","html-keyboard-response","149","130922","0.0-149.0","32Z9ZLUT1M67S8FQY8DELLKAM9COHP","A3HFZPC8QR1Y54","338431Z1FL1IVIVZ3BK6A6QS21HROA","","null","<img src=""img/animal5.png"" style=""width:200px; border:14px solid green;"">","null","","","","","",""
"","image-keyboard-response","150","131669","0.0-150.0","32Z9ZLUT1M67S8FQY8DELLKAM9COHP","A3HFZPC8QR1Y54","338431Z1FL1IVIVZ3BK6A6QS21HROA","","745","img/animal3.png","75","747","2","1","2","1,0.7,0,0,1,0.7,0.7,0,1",""
"","html-keyboard-response","151","131971","0.0-151.0","32Z9ZLUT1M67S8FQY8DELLKAM9COHP","A3HFZPC8QR1Y54","338431Z1FL1IVIVZ3BK6A6QS21HROA","","null","<img src=""img/animal3.png"" style=""width:200px; border:14px solid green;"">","null","","","","","",""
"","image-keyboard-response","152","132668","0.0-152.0","32Z9ZLUT1M67S8FQY8DELLKAM9COHP","A3HFZPC8QR1Y54","338431Z1FL1IVIVZ3BK6A6QS21HROA","","696","img/animal5.png","76","697","3","1","3","1,0.7,0,0,1,0.7,0.7,0,1",""
"","html-keyboard-response","153","132970","0.0-153.0","32Z9ZLUT1M67S8FQY8DELLKAM9COHP","A3HFZPC8QR1Y54","338431Z1FL1IVIVZ3BK6A6QS21HROA","","null","<img src=""img/animal5.png"" style=""width:200px; border:14px solid green;"">","null","","","","","",""
"","image-keyboard-response","154","133974","0.0-154.0","32Z9ZLUT1M67S8FQY8DELLKAM9COHP","A3HFZPC8QR1Y54","338431Z1FL1IVIVZ3BK6A6QS21HROA","","1001","img/animal1.png","74","1003","1","1","1","1,0.7,0,0,1,0.7,0.7,0,1",""
"","html-keyboard-response","155","134277","0.0-155.0","32Z9ZLUT1M67S8FQY8DELLKAM9COHP","A3HFZPC8QR1Y54","338431Z1FL1IVIVZ3BK6A6QS21HROA","","null","<img src=""img/animal1.png"" style=""width:200px; border:14px solid green;"">","null","","","","","",""
"","image-keyboard-response","156","134964","0.0-156.0","32Z9ZLUT1M67S8FQY8DELLKAM9COHP","A3HFZPC8QR1Y54","338431Z1FL1IVIVZ3BK6A6QS21HROA","","686","img/animal5.png","76","686.9999999999709","3","1","3","1,0.7,0,0,1,0.7,0.7,0,1",""
"","html-keyboard-response","157","135268","0.0-157.0","32Z9ZLUT1M67S8FQY8DELLKAM9COHP","A3HFZPC8QR1Y54","338431Z1FL1IVIVZ3BK6A6QS21HROA","","null","<img src=""img/animal5.png"" style=""width:200px; border:14px solid green;"">","null","","","","","",""
"","image-keyboard-response","158","135642","0.0-158.0","32Z9ZLUT1M67S8FQY8DELLKAM9COHP","A3HFZPC8QR1Y54","338431Z1FL1IVIVZ3BK6A6QS21HROA","","373","img/animal5.png","76","374","3","1","3","1,0.7,0,0,1,0.7,0.7,0,1",""
"","html-keyboard-response","159","135945","0.0-159.0","32Z9ZLUT1M67S8FQY8DELLKAM9COHP","A3HFZPC8QR1Y54","338431Z1FL1IVIVZ3BK6A6QS21HROA","","null","<img src=""img/animal5.png"" style=""width:200px; border:14px solid green;"">","null","","","","","",""
"","image-keyboard-response","160","136575","0.0-160.0","32Z9ZLUT1M67S8FQY8DELLKAM9COHP","A3HFZPC8QR1Y54","338431Z1FL1IVIVZ3BK6A6QS21HROA","","629","img/animal3.png","75","630.0000000000291","2","1","2","1,0.7,0,0,1,0.7,0.7,0,1",""
"","html-keyboard-response","161","136877","0.0-161.0","32Z9ZLUT1M67S8FQY8DELLKAM9COHP","A3HFZPC8QR1Y54","338431Z1FL1IVIVZ3BK6A6QS21HROA","","null","<img src=""img/animal3.png"" style=""width:200px; border:14px solid green;"">","null","","","","","",""
"","image-keyboard-response","162","137691","0.0-162.0","32Z9ZLUT1M67S8FQY8DELLKAM9COHP","A3HFZPC8QR1Y54","338431Z1FL1IVIVZ3BK6A6QS21HROA","","813","img/animal5.png","76","813","3","1","3","1,0.7,0,0,1,0.7,0.7,0,1",""
"","html-keyboard-response","163","137994","0.0-163.0","32Z9ZLUT1M67S8FQY8DELLKAM9COHP","A3HFZPC8QR1Y54","338431Z1FL1IVIVZ3BK6A6QS21HROA","","null","<img src=""img/animal5.png"" style=""width:200px; border:14px solid green;"">","null","","","","","",""
"","image-keyboard-response","164","138639","0.0-164.0","32Z9ZLUT1M67S8FQY8DELLKAM9COHP","A3HFZPC8QR1Y54","338431Z1FL1IVIVZ3BK6A6QS21HROA","","644","img/animal1.png","74","645","1","1","1","1,0.7,0,0,1,0.7,0.7,0,1",""
"","html-keyboard-response","165","138943","0.0-165.0","32Z9ZLUT1M67S8FQY8DELLKAM9COHP","A3HFZPC8QR1Y54","338431Z1FL1IVIVZ3BK6A6QS21HROA","","null","<img src=""img/animal1.png"" style=""width:200px; border:14px solid green;"">","null","","","","","",""
"","image-keyboard-response","166","139564","0.0-166.0","32Z9ZLUT1M67S8FQY8DELLKAM9COHP","A3HFZPC8QR1Y54","338431Z1FL1IVIVZ3BK6A6QS21HROA","","618.0000000000291","img/animal5.png","76","619.9999999999709","3","1","3","1,0.7,0,0,1,0.7,0.7,0,1",""
"","html-keyboard-response","167","139866","0.0-167.0","32Z9ZLUT1M67S8FQY8DELLKAM9COHP","A3HFZPC8QR1Y54","338431Z1FL1IVIVZ3BK6A6QS21HROA","","null","<img src=""img/animal5.png"" style=""width:200px; border:14px solid green;"">","null","","","","","",""
"","image-keyboard-response","168","140443","0.0-168.0","32Z9ZLUT1M67S8FQY8DELLKAM9COHP","A3HFZPC8QR1Y54","338431Z1FL1IVIVZ3BK6A6QS21HROA","","574","img/animal1.png","74","576","1","1","1","1,0.7,0,0,1,0.7,0.7,0,1",""
"","html-keyboard-response","169","140746","0.0-169.0","32Z9ZLUT1M67S8FQY8DELLKAM9COHP","A3HFZPC8QR1Y54","338431Z1FL1IVIVZ3BK6A6QS21HROA","","null","<img src=""img/animal1.png"" style=""width:200px; border:14px solid green;"">","null","","","","","",""
"","image-keyboard-response","170","141258","0.0-170.0","32Z9ZLUT1M67S8FQY8DELLKAM9COHP","A3HFZPC8QR1Y54","338431Z1FL1IVIVZ3BK6A6QS21HROA","","508","img/animal3.png","75","511","2","1","2","1,0.7,0,0,1,0.7,0.7,0,1",""
"","html-keyboard-response","171","141562","0.0-171.0","32Z9ZLUT1M67S8FQY8DELLKAM9COHP","A3HFZPC8QR1Y54","338431Z1FL1IVIVZ3BK6A6QS21HROA","","null","<img src=""img/animal3.png"" style=""width:200px; border:14px solid green;"">","null","","","","","",""
"","image-keyboard-response","172","142086","0.0-172.0","32Z9ZLUT1M67S8FQY8DELLKAM9COHP","A3HFZPC8QR1Y54","338431Z1FL1IVIVZ3BK6A6QS21HROA","","522.9999999999709","img/animal1.png","76","522.9999999999709","3","0","1","1,0.7,0,0,1,0.7,0.7,0,1",""
"","html-keyboard-response","173","142388","0.0-173.0","32Z9ZLUT1M67S8FQY8DELLKAM9COHP","A3HFZPC8QR1Y54","338431Z1FL1IVIVZ3BK6A6QS21HROA","","null","<img src=""img/animal1.png"" style=""width:200px;border:14px solid red;"">","null","","","","","",""
"","image-keyboard-response","174","142580","0.0-174.0","32Z9ZLUT1M67S8FQY8DELLKAM9COHP","A3HFZPC8QR1Y54","338431Z1FL1IVIVZ3BK6A6QS21HROA","","191","img/animal1.png","74","191","1","1","1","1,0.7,0,0,1,0.7,0.7,0,1",""
"","html-keyboard-response","175","142883","0.0-175.0","32Z9ZLUT1M67S8FQY8DELLKAM9COHP","A3HFZPC8QR1Y54","338431Z1FL1IVIVZ3BK6A6QS21HROA","","null","<img src=""img/animal1.png"" style=""width:200px; border:14px solid green;"">","null","","","","","",""
"","image-keyboard-response","176","142994","0.0-176.0","32Z9ZLUT1M67S8FQY8DELLKAM9COHP","A3HFZPC8QR1Y54","338431Z1FL1IVIVZ3BK6A6QS21HROA","","108","img/animal5.png","74","111","1","0","3","1,0.7,0,0,1,0.7,0.7,0,1",""
"","html-keyboard-response","177","143296","0.0-177.0","32Z9ZLUT1M67S8FQY8DELLKAM9COHP","A3HFZPC8QR1Y54","338431Z1FL1IVIVZ3BK6A6QS21HROA","","null","<img src=""img/animal5.png"" style=""width:200px;border:14px solid red;"">","null","","","","","",""
"","image-keyboard-response","178","143505","0.0-178.0","32Z9ZLUT1M67S8FQY8DELLKAM9COHP","A3HFZPC8QR1Y54","338431Z1FL1IVIVZ3BK6A6QS21HROA","","206","img/animal3.png","75","208","2","1","2","1,0.7,0,0,1,0.7,0.7,0,1",""
"","html-keyboard-response","179","143807","0.0-179.0","32Z9ZLUT1M67S8FQY8DELLKAM9COHP","A3HFZPC8QR1Y54","338431Z1FL1IVIVZ3BK6A6QS21HROA","","null","<img src=""img/animal3.png"" style=""width:200px; border:14px solid green;"">","null","","","","","",""
"","image-keyboard-response","180","144713","0.0-180.0","32Z9ZLUT1M67S8FQY8DELLKAM9COHP","A3HFZPC8QR1Y54","338431Z1FL1IVIVZ3BK6A6QS21HROA","","904","img/animal1.png","74","906","1","1","1","1,0.7,0,0,1,0.7,0.7,0,1",""
"","html-keyboard-response","181","145015","0.0-181.0","32Z9ZLUT1M67S8FQY8DELLKAM9COHP","A3HFZPC8QR1Y54","338431Z1FL1IVIVZ3BK6A6QS21HROA","","null","<img src=""img/animal1.png"" style=""width:200px; border:14px solid green;"">","null","","","","","",""
"","html-keyboard-response","182","165164","0.0-182.0","32Z9ZLUT1M67S8FQY8DELLKAM9COHP","A3HFZPC8QR1Y54","338431Z1FL1IVIVZ3BK6A6QS21HROA","","","","","","","","","",""
"","image-keyboard-response","183","166257","0.0-183.0","32Z9ZLUT1M67S8FQY8DELLKAM9COHP","A3HFZPC8QR1Y54","338431Z1FL1IVIVZ3BK6A6QS21HROA","","1092","img/animal2.png","75","1093","2","0","1","1,0.7,0,1,0.7,0,0.7,0,1",""
"","html-keyboard-response","184","166561","0.0-184.0","32Z9ZLUT1M67S8FQY8DELLKAM9COHP","A3HFZPC8QR1Y54","338431Z1FL1IVIVZ3BK6A6QS21HROA","","null","<img src=""img/animal2.png"" style=""width:200px;border:14px solid red;"">","null","","","","","",""
"","image-keyboard-response","185","167744","0.0-185.0","32Z9ZLUT1M67S8FQY8DELLKAM9COHP","A3HFZPC8QR1Y54","338431Z1FL1IVIVZ3BK6A6QS21HROA","","1181","img/animal6.png","74","1181.999999999971","1","1","2","1,0.7,0,1,0.7,0,0.7,0,1",""
"","html-keyboard-response","186","168046","0.0-186.0","32Z9ZLUT1M67S8FQY8DELLKAM9COHP","A3HFZPC8QR1Y54","338431Z1FL1IVIVZ3BK6A6QS21HROA","","null","<img src=""img/animal6.png"" style=""width:200px; border:14px solid green;"">","null","","","","","",""
"","image-keyboard-response","187","168831","0.0-187.0","32Z9ZLUT1M67S8FQY8DELLKAM9COHP","A3HFZPC8QR1Y54","338431Z1FL1IVIVZ3BK6A6QS21HROA","","783","img/animal6.png","74","784","1","1","2","1,0.7,0,1,0.7,0,0.7,0,1",""
"","html-keyboard-response","188","169134","0.0-188.0","32Z9ZLUT1M67S8FQY8DELLKAM9COHP","A3HFZPC8QR1Y54","338431Z1FL1IVIVZ3BK6A6QS21HROA","","null","<img src=""img/animal6.png"" style=""width:200px; border:14px solid green;"">","null","","","","","",""
"","image-keyboard-response","189","169621","0.0-189.0","32Z9ZLUT1M67S8FQY8DELLKAM9COHP","A3HFZPC8QR1Y54","338431Z1FL1IVIVZ3BK6A6QS21HROA","","484","img/animal6.png","74","486","1","1","2","1,0.7,0,1,0.7,0,0.7,0,1",""
"","html-keyboard-response","190","169923","0.0-190.0","32Z9ZLUT1M67S8FQY8DELLKAM9COHP","A3HFZPC8QR1Y54","338431Z1FL1IVIVZ3BK6A6QS21HROA","","null","<img src=""img/animal6.png"" style=""width:200px; border:14px solid green;"">","null","","","","","",""
"","image-keyboard-response","191","170493","0.0-191.0","32Z9ZLUT1M67S8FQY8DELLKAM9COHP","A3HFZPC8QR1Y54","338431Z1FL1IVIVZ3BK6A6QS21HROA","","567.9999999999709","img/animal6.png","74","569","1","1","2","1,0.7,0,1,0.7,0,0.7,0,1",""
"","html-keyboard-response","192","170796","0.0-192.0","32Z9ZLUT1M67S8FQY8DELLKAM9COHP","A3HFZPC8QR1Y54","338431Z1FL1IVIVZ3BK6A6QS21HROA","","null","<img src=""img/animal6.png"" style=""width:200px; border:14px solid green;"">","null","","","","","",""
"","image-keyboard-response","193","171398","0.0-193.0","32Z9ZLUT1M67S8FQY8DELLKAM9COHP","A3HFZPC8QR1Y54","338431Z1FL1IVIVZ3BK6A6QS21HROA","","600","img/animal2.png","76","602","3","0","1","1,0.7,0,1,0.7,0,0.7,0,1",""
"","html-keyboard-response","194","171701","0.0-194.0","32Z9ZLUT1M67S8FQY8DELLKAM9COHP","A3HFZPC8QR1Y54","338431Z1FL1IVIVZ3BK6A6QS21HROA","","null","<img src=""img/animal2.png"" style=""width:200px;border:14px solid red;"">","null","","","","","",""
"","image-keyboard-response","195","172894","0.0-195.0","32Z9ZLUT1M67S8FQY8DELLKAM9COHP","A3HFZPC8QR1Y54","338431Z1FL1IVIVZ3BK6A6QS21HROA","","1191","img/animal2.png","74","1193","1","1","1","1,0.7,0,1,0.7,0,0.7,0,1",""
"","html-keyboard-response","196","173197","0.0-196.0","32Z9ZLUT1M67S8FQY8DELLKAM9COHP","A3HFZPC8QR1Y54","338431Z1FL1IVIVZ3BK6A6QS21HROA","","null","<img src=""img/animal2.png"" style=""width:200px; border:14px solid green;"">","null","","","","","",""
"","image-keyboard-response","197","173660","0.0-197.0","32Z9ZLUT1M67S8FQY8DELLKAM9COHP","A3HFZPC8QR1Y54","338431Z1FL1IVIVZ3BK6A6QS21HROA","","460.9999999999709","img/animal2.png","74","463","1","1","1","1,0.7,0,1,0.7,0,0.7,0,1",""
"","html-keyboard-response","198","173963","0.0-198.0","32Z9ZLUT1M67S8FQY8DELLKAM9COHP","A3HFZPC8QR1Y54","338431Z1FL1IVIVZ3BK6A6QS21HROA","","null","<img src=""img/animal2.png"" style=""width:200px; border:14px solid green;"">","null","","","","","",""
"","image-keyboard-response","199","175258","0.0-199.0","32Z9ZLUT1M67S8FQY8DELLKAM9COHP","A3HFZPC8QR1Y54","338431Z1FL1IVIVZ3BK6A6QS21HROA","","1293","img/animal6.png","74","1294","1","1","2","1,0.7,0,1,0.7,0,0.7,0,1",""
"","html-keyboard-response","200","175561","0.0-200.0","32Z9ZLUT1M67S8FQY8DELLKAM9COHP","A3HFZPC8QR1Y54","338431Z1FL1IVIVZ3BK6A6QS21HROA","","null","<img src=""img/animal6.png"" style=""width:200px; border:14px solid green;"">","null","","","","","",""
"","image-keyboard-response","201","176168","0.0-201.0","32Z9ZLUT1M67S8FQY8DELLKAM9COHP","A3HFZPC8QR1Y54","338431Z1FL1IVIVZ3BK6A6QS21HROA","","605","img/animal2.png","75","607","2","1","1","1,0.7,0,1,0.7,0,0.7,0,1",""
"","html-keyboard-response","202","176471","0.0-202.0","32Z9ZLUT1M67S8FQY8DELLKAM9COHP","A3HFZPC8QR1Y54","338431Z1FL1IVIVZ3BK6A6QS21HROA","","null","<img src=""img/animal2.png"" style=""width:200px; border:14px solid green;"">","null","","","","","",""
"","image-keyboard-response","203","177087","0.0-203.0","32Z9ZLUT1M67S8FQY8DELLKAM9COHP","A3HFZPC8QR1Y54","338431Z1FL1IVIVZ3BK6A6QS21HROA","","613.9999999999709","img/animal4.png","76","615","3","1","3","1,0.7,0,1,0.7,0,0.7,0,1",""
"","html-keyboard-response","204","177390","0.0-204.0","32Z9ZLUT1M67S8FQY8DELLKAM9COHP","A3HFZPC8QR1Y54","338431Z1FL1IVIVZ3BK6A6QS21HROA","","null","<img src=""img/animal4.png"" style=""width:200px; border:14px solid green;"">","null","","","","","",""
"","image-keyboard-response","205","178204","0.0-205.0","32Z9ZLUT1M67S8FQY8DELLKAM9COHP","A3HFZPC8QR1Y54","338431Z1FL1IVIVZ3BK6A6QS21HROA","","811","img/animal6.png","74","812","1","1","2","1,0.7,0,1,0.7,0,0.7,0,1",""
"","html-keyboard-response","206","178506","0.0-206.0","32Z9ZLUT1M67S8FQY8DELLKAM9COHP","A3HFZPC8QR1Y54","338431Z1FL1IVIVZ3BK6A6QS21HROA","","null","<img src=""img/animal6.png"" style=""width:200px; border:14px solid green;"">","null","","","","","",""
"","image-keyboard-response","207","179955","0.0-207.0","32Z9ZLUT1M67S8FQY8DELLKAM9COHP","A3HFZPC8QR1Y54","338431Z1FL1IVIVZ3BK6A6QS21HROA","","1446.000000000029","img/animal4.png","74","1448","1","1","3","1,0.7,0,1,0.7,0,0.7,0,1",""
"","html-keyboard-response","208","180257","0.0-208.0","32Z9ZLUT1M67S8FQY8DELLKAM9COHP","A3HFZPC8QR1Y54","338431Z1FL1IVIVZ3BK6A6QS21HROA","","null","<img src=""img/animal4.png"" style=""width:200px; border:14px solid green;"">","null","","","","","",""
"","image-keyboard-response","209","182338","0.0-209.0","32Z9ZLUT1M67S8FQY8DELLKAM9COHP","A3HFZPC8QR1Y54","338431Z1FL1IVIVZ3BK6A6QS21HROA","","2079","img/animal6.png","75","2081","2","0","2","1,0.7,0,1,0.7,0,0.7,0,1",""
"","html-keyboard-response","210","182640","0.0-210.0","32Z9ZLUT1M67S8FQY8DELLKAM9COHP","A3HFZPC8QR1Y54","338431Z1FL1IVIVZ3BK6A6QS21HROA","","null","<img src=""img/animal6.png"" style=""width:200px;border:14px solid red;"">","null","","","","","",""
"","image-keyboard-response","211","184178","0.0-211.0","32Z9ZLUT1M67S8FQY8DELLKAM9COHP","A3HFZPC8QR1Y54","338431Z1FL1IVIVZ3BK6A6QS21HROA","","1534","img/animal2.png","75","1536","2","1","1","1,0.7,0,1,0.7,0,0.7,0,1",""
"","html-keyboard-response","212","184481","0.0-212.0","32Z9ZLUT1M67S8FQY8DELLKAM9COHP","A3HFZPC8QR1Y54","338431Z1FL1IVIVZ3BK6A6QS21HROA","","null","<img src=""img/animal2.png"" style=""width:200px; border:14px solid green;"">","null","","","","","",""
"","image-keyboard-response","213","184825","0.0-213.0","32Z9ZLUT1M67S8FQY8DELLKAM9COHP","A3HFZPC8QR1Y54","338431Z1FL1IVIVZ3BK6A6QS21HROA","","341","img/animal2.png","75","343","2","1","1","1,0.7,0,1,0.7,0,0.7,0,1",""
"","html-keyboard-response","214","185128","0.0-214.0","32Z9ZLUT1M67S8FQY8DELLKAM9COHP","A3HFZPC8QR1Y54","338431Z1FL1IVIVZ3BK6A6QS21HROA","","null","<img src=""img/animal2.png"" style=""width:200px; border:14px solid green;"">","null","","","","","",""
"","image-keyboard-response","215","185455","0.0-215.0","32Z9ZLUT1M67S8FQY8DELLKAM9COHP","A3HFZPC8QR1Y54","338431Z1FL1IVIVZ3BK6A6QS21HROA","","324.0000000000291","img/animal2.png","75","326","2","1","1","1,0.7,0,1,0.7,0,0.7,0,1",""
"","html-keyboard-response","216","185758","0.0-216.0","32Z9ZLUT1M67S8FQY8DELLKAM9COHP","A3HFZPC8QR1Y54","338431Z1FL1IVIVZ3BK6A6QS21HROA","","null","<img src=""img/animal2.png"" style=""width:200px; border:14px solid green;"">","null","","","","","",""
"","image-keyboard-response","217","186072","0.0-217.0","32Z9ZLUT1M67S8FQY8DELLKAM9COHP","A3HFZPC8QR1Y54","338431Z1FL1IVIVZ3BK6A6QS21HROA","","313","img/animal2.png","75","314","2","0","1","1,0.7,0,1,0.7,0,0.7,0,1",""
"","html-keyboard-response","218","186374","0.0-218.0","32Z9ZLUT1M67S8FQY8DELLKAM9COHP","A3HFZPC8QR1Y54","338431Z1FL1IVIVZ3BK6A6QS21HROA","","null","<img src=""img/animal2.png"" style=""width:200px;border:14px solid red;"">","null","","","","","",""
"","image-keyboard-response","219","187245","0.0-219.0","32Z9ZLUT1M67S8FQY8DELLKAM9COHP","A3HFZPC8QR1Y54","338431Z1FL1IVIVZ3BK6A6QS21HROA","","869","img/animal4.png","76","871","3","1","3","1,0.7,0,1,0.7,0,0.7,0,1",""
"","html-keyboard-response","220","187547","0.0-220.0","32Z9ZLUT1M67S8FQY8DELLKAM9COHP","A3HFZPC8QR1Y54","338431Z1FL1IVIVZ3BK6A6QS21HROA","","null","<img src=""img/animal4.png"" style=""width:200px; border:14px solid green;"">","null","","","","","",""
"","image-keyboard-response","221","188252","0.0-221.0","32Z9ZLUT1M67S8FQY8DELLKAM9COHP","A3HFZPC8QR1Y54","338431Z1FL1IVIVZ3BK6A6QS21HROA","","702.9999999999709","img/animal2.png","75","704","2","1","1","1,0.7,0,1,0.7,0,0.7,0,1",""
"","html-keyboard-response","222","188555","0.0-222.0","32Z9ZLUT1M67S8FQY8DELLKAM9COHP","A3HFZPC8QR1Y54","338431Z1FL1IVIVZ3BK6A6QS21HROA","","null","<img src=""img/animal2.png"" style=""width:200px; border:14px solid green;"">","null","","","","","",""
"","image-keyboard-response","223","189252","0.0-223.0","32Z9ZLUT1M67S8FQY8DELLKAM9COHP","A3HFZPC8QR1Y54","338431Z1FL1IVIVZ3BK6A6QS21HROA","","695","img/animal6.png","74","696","1","1","2","1,0.7,0,1,0.7,0,0.7,0,1",""
"","html-keyboard-response","224","189555","0.0-224.0","32Z9ZLUT1M67S8FQY8DELLKAM9COHP","A3HFZPC8QR1Y54","338431Z1FL1IVIVZ3BK6A6QS21HROA","","null","<img src=""img/animal6.png"" style=""width:200px; border:14px solid green;"">","null","","","","","",""
"","image-keyboard-response","225","190304","0.0-225.0","32Z9ZLUT1M67S8FQY8DELLKAM9COHP","A3HFZPC8QR1Y54","338431Z1FL1IVIVZ3BK6A6QS21HROA","","747","img/animal4.png","76","748.9999999999709","3","1","3","1,0.7,0,1,0.7,0,0.7,0,1",""
"","html-keyboard-response","226","190607","0.0-226.0","32Z9ZLUT1M67S8FQY8DELLKAM9COHP","A3HFZPC8QR1Y54","338431Z1FL1IVIVZ3BK6A6QS21HROA","","null","<img src=""img/animal4.png"" style=""width:200px; border:14px solid green;"">","null","","","","","",""
"","image-keyboard-response","227","191638","0.0-227.0","32Z9ZLUT1M67S8FQY8DELLKAM9COHP","A3HFZPC8QR1Y54","338431Z1FL1IVIVZ3BK6A6QS21HROA","","1030","img/animal2.png","75","1031","2","1","1","1,0.7,0,1,0.7,0,0.7,0,1",""
"","html-keyboard-response","228","191940","0.0-228.0","32Z9ZLUT1M67S8FQY8DELLKAM9COHP","A3HFZPC8QR1Y54","338431Z1FL1IVIVZ3BK6A6QS21HROA","","null","<img src=""img/animal2.png"" style=""width:200px; border:14px solid green;"">","null","","","","","",""
"","image-keyboard-response","229","192635","0.0-229.0","32Z9ZLUT1M67S8FQY8DELLKAM9COHP","A3HFZPC8QR1Y54","338431Z1FL1IVIVZ3BK6A6QS21HROA","","693","img/animal6.png","74","694","1","1","2","1,0.7,0,1,0.7,0,0.7,0,1",""
"","html-keyboard-response","230","192938","0.0-230.0","32Z9ZLUT1M67S8FQY8DELLKAM9COHP","A3HFZPC8QR1Y54","338431Z1FL1IVIVZ3BK6A6QS21HROA","","null","<img src=""img/animal6.png"" style=""width:200px; border:14px solid green;"">","null","","","","","",""
"","image-keyboard-response","231","193655","0.0-231.0","32Z9ZLUT1M67S8FQY8DELLKAM9COHP","A3HFZPC8QR1Y54","338431Z1FL1IVIVZ3BK6A6QS21HROA","","715","img/animal4.png","76","716","3","1","3","1,0.7,0,1,0.7,0,0.7,0,1",""
"","html-keyboard-response","232","193958","0.0-232.0","32Z9ZLUT1M67S8FQY8DELLKAM9COHP","A3HFZPC8QR1Y54","338431Z1FL1IVIVZ3BK6A6QS21HROA","","null","<img src=""img/animal4.png"" style=""width:200px; border:14px solid green;"">","null","","","","","",""
"","image-keyboard-response","233","194425","0.0-233.0","32Z9ZLUT1M67S8FQY8DELLKAM9COHP","A3HFZPC8QR1Y54","338431Z1FL1IVIVZ3BK6A6QS21HROA","","466","img/animal4.png","76","467","3","1","3","1,0.7,0,1,0.7,0,0.7,0,1",""
"","html-keyboard-response","234","194728","0.0-234.0","32Z9ZLUT1M67S8FQY8DELLKAM9COHP","A3HFZPC8QR1Y54","338431Z1FL1IVIVZ3BK6A6QS21HROA","","null","<img src=""img/animal4.png"" style=""width:200px; border:14px solid green;"">","null","","","","","",""
"","image-keyboard-response","235","195369","0.0-235.0","32Z9ZLUT1M67S8FQY8DELLKAM9COHP","A3HFZPC8QR1Y54","338431Z1FL1IVIVZ3BK6A6QS21HROA","","638","img/animal2.png","75","640","2","1","1","1,0.7,0,1,0.7,0,0.7,0,1",""
"","html-keyboard-response","236","195671","0.0-236.0","32Z9ZLUT1M67S8FQY8DELLKAM9COHP","A3HFZPC8QR1Y54","338431Z1FL1IVIVZ3BK6A6QS21HROA","","null","<img src=""img/animal2.png"" style=""width:200px; border:14px solid green;"">","null","","","","","",""
"","image-keyboard-response","237","196290","0.0-237.0","32Z9ZLUT1M67S8FQY8DELLKAM9COHP","A3HFZPC8QR1Y54","338431Z1FL1IVIVZ3BK6A6QS21HROA","","617","img/animal4.png","76","618","3","1","3","1,0.7,0,1,0.7,0,0.7,0,1",""
"","html-keyboard-response","238","196592","0.0-238.0","32Z9ZLUT1M67S8FQY8DELLKAM9COHP","A3HFZPC8QR1Y54","338431Z1FL1IVIVZ3BK6A6QS21HROA","","null","<img src=""img/animal4.png"" style=""width:200px; border:14px solid green;"">","null","","","","","",""
"","image-keyboard-response","239","197074","0.0-239.0","32Z9ZLUT1M67S8FQY8DELLKAM9COHP","A3HFZPC8QR1Y54","338431Z1FL1IVIVZ3BK6A6QS21HROA","","480","img/animal2.png","75","482","2","1","1","1,0.7,0,1,0.7,0,0.7,0,1",""
"","html-keyboard-response","240","197377","0.0-240.0","32Z9ZLUT1M67S8FQY8DELLKAM9COHP","A3HFZPC8QR1Y54","338431Z1FL1IVIVZ3BK6A6QS21HROA","","null","<img src=""img/animal2.png"" style=""width:200px; border:14px solid green;"">","null","","","","","",""
"","image-keyboard-response","241","197883","0.0-241.0","32Z9ZLUT1M67S8FQY8DELLKAM9COHP","A3HFZPC8QR1Y54","338431Z1FL1IVIVZ3BK6A6QS21HROA","","503","img/animal4.png","76","505","3","1","3","1,0.7,0,1,0.7,0,0.7,0,1",""
"","html-keyboard-response","242","198186","0.0-242.0","32Z9ZLUT1M67S8FQY8DELLKAM9COHP","A3HFZPC8QR1Y54","338431Z1FL1IVIVZ3BK6A6QS21HROA","","null","<img src=""img/animal4.png"" style=""width:200px; border:14px solid green;"">","null","","","","","",""
"","image-keyboard-response","243","198717","0.0-243.0","32Z9ZLUT1M67S8FQY8DELLKAM9COHP","A3HFZPC8QR1Y54","338431Z1FL1IVIVZ3BK6A6QS21HROA","","529","img/animal4.png","76","531","3","1","3","1,0.7,0,1,0.7,0,0.7,0,1",""
"","html-keyboard-response","244","199020","0.0-244.0","32Z9ZLUT1M67S8FQY8DELLKAM9COHP","A3HFZPC8QR1Y54","338431Z1FL1IVIVZ3BK6A6QS21HROA","","null","<img src=""img/animal4.png"" style=""width:200px; border:14px solid green;"">","null","","","","","",""
"","image-keyboard-response","245","199653","0.0-245.0","32Z9ZLUT1M67S8FQY8DELLKAM9COHP","A3HFZPC8QR1Y54","338431Z1FL1IVIVZ3BK6A6QS21HROA","","631","img/animal6.png","74","632","1","1","2","1,0.7,0,1,0.7,0,0.7,0,1",""
"","html-keyboard-response","246","199955","0.0-246.0","32Z9ZLUT1M67S8FQY8DELLKAM9COHP","A3HFZPC8QR1Y54","338431Z1FL1IVIVZ3BK6A6QS21HROA","","null","<img src=""img/animal6.png"" style=""width:200px; border:14px solid green;"">","null","","","","","",""
"","image-keyboard-response","247","200603","0.0-247.0","32Z9ZLUT1M67S8FQY8DELLKAM9COHP","A3HFZPC8QR1Y54","338431Z1FL1IVIVZ3BK6A6QS21HROA","","646.0000000000291","img/animal4.png","76","648","3","1","3","1,0.7,0,1,0.7,0,0.7,0,1",""
"","html-keyboard-response","248","200906","0.0-248.0","32Z9ZLUT1M67S8FQY8DELLKAM9COHP","A3HFZPC8QR1Y54","338431Z1FL1IVIVZ3BK6A6QS21HROA","","null","<img src=""img/animal4.png"" style=""width:200px; border:14px solid green;"">","null","","","","","",""
"","image-keyboard-response","249","201427","0.0-249.0","32Z9ZLUT1M67S8FQY8DELLKAM9COHP","A3HFZPC8QR1Y54","338431Z1FL1IVIVZ3BK6A6QS21HROA","","519","img/animal4.png","76","520","3","1","3","1,0.7,0,1,0.7,0,0.7,0,1",""
"","html-keyboard-response","250","201730","0.0-250.0","32Z9ZLUT1M67S8FQY8DELLKAM9COHP","A3HFZPC8QR1Y54","338431Z1FL1IVIVZ3BK6A6QS21HROA","","null","<img src=""img/animal4.png"" style=""width:200px; border:14px solid green;"">","null","","","","","",""
"","image-keyboard-response","251","202392","0.0-251.0","32Z9ZLUT1M67S8FQY8DELLKAM9COHP","A3HFZPC8QR1Y54","338431Z1FL1IVIVZ3BK6A6QS21HROA","","660","img/animal6.png","74","662","1","1","2","1,0.7,0,1,0.7,0,0.7,0,1",""
"","html-keyboard-response","252","202696","0.0-252.0","32Z9ZLUT1M67S8FQY8DELLKAM9COHP","A3HFZPC8QR1Y54","338431Z1FL1IVIVZ3BK6A6QS21HROA","","null","<img src=""img/animal6.png"" style=""width:200px; border:14px solid green;"">","null","","","","","",""
"","image-keyboard-response","253","203054","0.0-253.0","32Z9ZLUT1M67S8FQY8DELLKAM9COHP","A3HFZPC8QR1Y54","338431Z1FL1IVIVZ3BK6A6QS21HROA","","357","img/animal6.png","74","358.0000000000291","1","1","2","1,0.7,0,1,0.7,0,0.7,0,1",""
"","html-keyboard-response","254","203357","0.0-254.0","32Z9ZLUT1M67S8FQY8DELLKAM9COHP","A3HFZPC8QR1Y54","338431Z1FL1IVIVZ3BK6A6QS21HROA","","null","<img src=""img/animal6.png"" style=""width:200px; border:14px solid green;"">","null","","","","","",""
"","image-keyboard-response","255","204198","0.0-255.0","32Z9ZLUT1M67S8FQY8DELLKAM9COHP","A3HFZPC8QR1Y54","338431Z1FL1IVIVZ3BK6A6QS21HROA","","838.0000000000291","img/animal4.png","76","839.9999999999709","3","1","3","1,0.7,0,1,0.7,0,0.7,0,1",""
"","html-keyboard-response","256","204501","0.0-256.0","32Z9ZLUT1M67S8FQY8DELLKAM9COHP","A3HFZPC8QR1Y54","338431Z1FL1IVIVZ3BK6A6QS21HROA","","null","<img src=""img/animal4.png"" style=""width:200px; border:14px solid green;"">","null","","","","","",""
"","image-keyboard-response","257","205468","0.0-257.0","32Z9ZLUT1M67S8FQY8DELLKAM9COHP","A3HFZPC8QR1Y54","338431Z1FL1IVIVZ3BK6A6QS21HROA","","965","img/animal4.png","76","967","3","1","3","1,0.7,0,1,0.7,0,0.7,0,1",""
"","html-keyboard-response","258","205771","0.0-258.0","32Z9ZLUT1M67S8FQY8DELLKAM9COHP","A3HFZPC8QR1Y54","338431Z1FL1IVIVZ3BK6A6QS21HROA","","null","<img src=""img/animal4.png"" style=""width:200px; border:14px solid green;"">","null","","","","","",""
"","image-keyboard-response","259","206095","0.0-259.0","32Z9ZLUT1M67S8FQY8DELLKAM9COHP","A3HFZPC8QR1Y54","338431Z1FL1IVIVZ3BK6A6QS21HROA","","322","img/animal4.png","76","324","3","1","3","1,0.7,0,1,0.7,0,0.7,0,1",""
"","html-keyboard-response","260","206398","0.0-260.0","32Z9ZLUT1M67S8FQY8DELLKAM9COHP","A3HFZPC8QR1Y54","338431Z1FL1IVIVZ3BK6A6QS21HROA","","null","<img src=""img/animal4.png"" style=""width:200px; border:14px solid green;"">","null","","","","","",""
"","image-keyboard-response","261","207144","0.0-261.0","32Z9ZLUT1M67S8FQY8DELLKAM9COHP","A3HFZPC8QR1Y54","338431Z1FL1IVIVZ3BK6A6QS21HROA","","743","img/animal2.png","75","746","2","1","1","1,0.7,0,1,0.7,0,0.7,0,1",""
"","html-keyboard-response","262","207448","0.0-262.0","32Z9ZLUT1M67S8FQY8DELLKAM9COHP","A3HFZPC8QR1Y54","338431Z1FL1IVIVZ3BK6A6QS21HROA","","null","<img src=""img/animal2.png"" style=""width:200px; border:14px solid green;"">","null","","","","","",""
"","image-keyboard-response","263","208019","0.0-263.0","32Z9ZLUT1M67S8FQY8DELLKAM9COHP","A3HFZPC8QR1Y54","338431Z1FL1IVIVZ3BK6A6QS21HROA","","569","img/animal6.png","74","571","1","1","2","1,0.7,0,1,0.7,0,0.7,0,1",""
"","html-keyboard-response","264","208322","0.0-264.0","32Z9ZLUT1M67S8FQY8DELLKAM9COHP","A3HFZPC8QR1Y54","338431Z1FL1IVIVZ3BK6A6QS21HROA","","null","<img src=""img/animal6.png"" style=""width:200px; border:14px solid green;"">","null","","","","","",""
"","image-keyboard-response","265","208879","0.0-265.0","32Z9ZLUT1M67S8FQY8DELLKAM9COHP","A3HFZPC8QR1Y54","338431Z1FL1IVIVZ3BK6A6QS21HROA","","555","img/animal4.png","76","555.9999999999709","3","1","3","1,0.7,0,1,0.7,0,0.7,0,1",""
"","html-keyboard-response","266","209182","0.0-266.0","32Z9ZLUT1M67S8FQY8DELLKAM9COHP","A3HFZPC8QR1Y54","338431Z1FL1IVIVZ3BK6A6QS21HROA","","null","<img src=""img/animal4.png"" style=""width:200px; border:14px solid green;"">","null","","","","","",""
"","image-keyboard-response","267","210548","0.0-267.0","32Z9ZLUT1M67S8FQY8DELLKAM9COHP","A3HFZPC8QR1Y54","338431Z1FL1IVIVZ3BK6A6QS21HROA","","1365.000000000029","img/animal2.png","75","1366.000000000029","2","1","1","1,0.7,0,1,0.7,0,0.7,0,1",""
"","html-keyboard-response","268","210851","0.0-268.0","32Z9ZLUT1M67S8FQY8DELLKAM9COHP","A3HFZPC8QR1Y54","338431Z1FL1IVIVZ3BK6A6QS21HROA","","null","<img src=""img/animal2.png"" style=""width:200px; border:14px solid green;"">","null","","","","","",""
"","image-keyboard-response","269","211544","0.0-269.0","32Z9ZLUT1M67S8FQY8DELLKAM9COHP","A3HFZPC8QR1Y54","338431Z1FL1IVIVZ3BK6A6QS21HROA","","690","img/animal6.png","76","691.9999999999709","3","0","2","1,0.7,0,1,0.7,0,0.7,0,1",""
"","html-keyboard-response","270","211847","0.0-270.0","32Z9ZLUT1M67S8FQY8DELLKAM9COHP","A3HFZPC8QR1Y54","338431Z1FL1IVIVZ3BK6A6QS21HROA","","null","<img src=""img/animal6.png"" style=""width:200px;border:14px solid red;"">","null","","","","","",""
"","image-keyboard-response","271","211931","0.0-271.0","32Z9ZLUT1M67S8FQY8DELLKAM9COHP","A3HFZPC8QR1Y54","338431Z1FL1IVIVZ3BK6A6QS21HROA","","80","img/animal6.png","74","82","1","1","2","1,0.7,0,1,0.7,0,0.7,0,1",""
"","html-keyboard-response","272","212235","0.0-272.0","32Z9ZLUT1M67S8FQY8DELLKAM9COHP","A3HFZPC8QR1Y54","338431Z1FL1IVIVZ3BK6A6QS21HROA","","null","<img src=""img/animal6.png"" style=""width:200px; border:14px solid green;"">","null","","","","","",""
"","image-keyboard-response","273","212797","0.0-273.0","32Z9ZLUT1M67S8FQY8DELLKAM9COHP","A3HFZPC8QR1Y54","338431Z1FL1IVIVZ3BK6A6QS21HROA","","560","img/animal2.png","75","562","2","1","1","1,0.7,0,1,0.7,0,0.7,0,1",""
"","html-keyboard-response","274","213098","0.0-274.0","32Z9ZLUT1M67S8FQY8DELLKAM9COHP","A3HFZPC8QR1Y54","338431Z1FL1IVIVZ3BK6A6QS21HROA","","null","<img src=""img/animal2.png"" style=""width:200px; border:14px solid green;"">","null","","","","","",""
"","image-keyboard-response","275","213423","0.0-275.0","32Z9ZLUT1M67S8FQY8DELLKAM9COHP","A3HFZPC8QR1Y54","338431Z1FL1IVIVZ3BK6A6QS21HROA","","323.0000000000291","img/animal2.png","75","324.0000000000291","2","1","1","1,0.7,0,1,0.7,0,0.7,0,1",""
"","html-keyboard-response","276","213726","0.0-276.0","32Z9ZLUT1M67S8FQY8DELLKAM9COHP","A3HFZPC8QR1Y54","338431Z1FL1IVIVZ3BK6A6QS21HROA","","null","<img src=""img/animal2.png"" style=""width:200px; border:14px solid green;"">","null","","","","","",""
"","image-keyboard-response","277","214381","0.0-277.0","32Z9ZLUT1M67S8FQY8DELLKAM9COHP","A3HFZPC8QR1Y54","338431Z1FL1IVIVZ3BK6A6QS21HROA","","652.9999999999709","img/animal4.png","76","655","3","1","3","1,0.7,0,1,0.7,0,0.7,0,1",""
"","html-keyboard-response","278","214684","0.0-278.0","32Z9ZLUT1M67S8FQY8DELLKAM9COHP","A3HFZPC8QR1Y54","338431Z1FL1IVIVZ3BK6A6QS21HROA","","null","<img src=""img/animal4.png"" style=""width:200px; border:14px solid green;"">","null","","","","","",""
"","image-keyboard-response","279","215265","0.0-279.0","32Z9ZLUT1M67S8FQY8DELLKAM9COHP","A3HFZPC8QR1Y54","338431Z1FL1IVIVZ3BK6A6QS21HROA","","578","img/animal2.png","75","579.9999999999709","2","0","1","1,0.7,0,1,0.7,0,0.7,0,1",""
"","html-keyboard-response","280","215568","0.0-280.0","32Z9ZLUT1M67S8FQY8DELLKAM9COHP","A3HFZPC8QR1Y54","338431Z1FL1IVIVZ3BK6A6QS21HROA","","null","<img src=""img/animal2.png"" style=""width:200px;border:14px solid red;"">","null","","","","","",""
"","image-keyboard-response","281","215719","0.0-281.0","32Z9ZLUT1M67S8FQY8DELLKAM9COHP","A3HFZPC8QR1Y54","338431Z1FL1IVIVZ3BK6A6QS21HROA","","149","img/animal4.png","74","151","1","1","3","1,0.7,0,1,0.7,0,0.7,0,1",""
"","html-keyboard-response","282","216021","0.0-282.0","32Z9ZLUT1M67S8FQY8DELLKAM9COHP","A3HFZPC8QR1Y54","338431Z1FL1IVIVZ3BK6A6QS21HROA","","null","<img src=""img/animal4.png"" style=""width:200px; border:14px solid green;"">","null","","","","","",""
"","image-keyboard-response","283","217635","0.0-283.0","32Z9ZLUT1M67S8FQY8DELLKAM9COHP","A3HFZPC8QR1Y54","338431Z1FL1IVIVZ3BK6A6QS21HROA","","1613","img/animal6.png","74","1615","1","1","2","1,0.7,0,1,0.7,0,0.7,0,1",""
"","html-keyboard-response","284","217938","0.0-284.0","32Z9ZLUT1M67S8FQY8DELLKAM9COHP","A3HFZPC8QR1Y54","338431Z1FL1IVIVZ3BK6A6QS21HROA","","null","<img src=""img/animal6.png"" style=""width:200px; border:14px solid green;"">","null","","","","","",""
"","image-keyboard-response","285","218589","0.0-285.0","32Z9ZLUT1M67S8FQY8DELLKAM9COHP","A3HFZPC8QR1Y54","338431Z1FL1IVIVZ3BK6A6QS21HROA","","649","img/animal4.png","76","649","3","1","3","1,0.7,0,1,0.7,0,0.7,0,1",""
"","html-keyboard-response","286","218892","0.0-286.0","32Z9ZLUT1M67S8FQY8DELLKAM9COHP","A3HFZPC8QR1Y54","338431Z1FL1IVIVZ3BK6A6QS21HROA","","null","<img src=""img/animal4.png"" style=""width:200px; border:14px solid green;"">","null","","","","","",""
"","image-keyboard-response","287","219925","0.0-287.0","32Z9ZLUT1M67S8FQY8DELLKAM9COHP","A3HFZPC8QR1Y54","338431Z1FL1IVIVZ3BK6A6QS21HROA","","1030","img/animal6.png","74","1031","1","1","2","1,0.7,0,1,0.7,0,0.7,0,1",""
"","html-keyboard-response","288","220228","0.0-288.0","32Z9ZLUT1M67S8FQY8DELLKAM9COHP","A3HFZPC8QR1Y54","338431Z1FL1IVIVZ3BK6A6QS21HROA","","null","<img src=""img/animal6.png"" style=""width:200px; border:14px solid green;"">","null","","","","","",""
"","image-keyboard-response","289","220872","0.0-289.0","32Z9ZLUT1M67S8FQY8DELLKAM9COHP","A3HFZPC8QR1Y54","338431Z1FL1IVIVZ3BK6A6QS21HROA","","643","img/animal4.png","76","644","3","1","3","1,0.7,0,1,0.7,0,0.7,0,1",""
"","html-keyboard-response","290","221175","0.0-290.0","32Z9ZLUT1M67S8FQY8DELLKAM9COHP","A3HFZPC8QR1Y54","338431Z1FL1IVIVZ3BK6A6QS21HROA","","null","<img src=""img/animal4.png"" style=""width:200px; border:14px solid green;"">","null","","","","","",""
"","image-keyboard-response","291","222182","0.0-291.0","32Z9ZLUT1M67S8FQY8DELLKAM9COHP","A3HFZPC8QR1Y54","338431Z1FL1IVIVZ3BK6A6QS21HROA","","1004","img/animal6.png","74","1006","1","1","2","1,0.7,0,1,0.7,0,0.7,0,1",""
"","html-keyboard-response","292","222485","0.0-292.0","32Z9ZLUT1M67S8FQY8DELLKAM9COHP","A3HFZPC8QR1Y54","338431Z1FL1IVIVZ3BK6A6QS21HROA","","null","<img src=""img/animal6.png"" style=""width:200px; border:14px solid green;"">","null","","","","","",""
"","image-keyboard-response","293","222944","0.0-293.0","32Z9ZLUT1M67S8FQY8DELLKAM9COHP","A3HFZPC8QR1Y54","338431Z1FL1IVIVZ3BK6A6QS21HROA","","457","img/animal2.png","75","460","2","1","1","1,0.7,0,1,0.7,0,0.7,0,1",""
"","html-keyboard-response","294","223247","0.0-294.0","32Z9ZLUT1M67S8FQY8DELLKAM9COHP","A3HFZPC8QR1Y54","338431Z1FL1IVIVZ3BK6A6QS21HROA","","null","<img src=""img/animal2.png"" style=""width:200px; border:14px solid green;"">","null","","","","","",""
"","image-keyboard-response","295","223561","0.0-295.0","32Z9ZLUT1M67S8FQY8DELLKAM9COHP","A3HFZPC8QR1Y54","338431Z1FL1IVIVZ3BK6A6QS21HROA","","312","img/animal2.png","75","314","2","0","1","1,0.7,0,1,0.7,0,0.7,0,1",""
"","html-keyboard-response","296","223864","0.0-296.0","32Z9ZLUT1M67S8FQY8DELLKAM9COHP","A3HFZPC8QR1Y54","338431Z1FL1IVIVZ3BK6A6QS21HROA","","null","<img src=""img/animal2.png"" style=""width:200px;border:14px solid red;"">","null","","","","","",""
"","image-keyboard-response","297","224338","0.0-297.0","32Z9ZLUT1M67S8FQY8DELLKAM9COHP","A3HFZPC8QR1Y54","338431Z1FL1IVIVZ3BK6A6QS21HROA","","472","img/animal2.png","75","473","2","0","1","1,0.7,0,1,0.7,0,0.7,0,1",""
"","html-keyboard-response","298","224641","0.0-298.0","32Z9ZLUT1M67S8FQY8DELLKAM9COHP","A3HFZPC8QR1Y54","338431Z1FL1IVIVZ3BK6A6QS21HROA","","null","<img src=""img/animal2.png"" style=""width:200px;border:14px solid red;"">","null","","","","","",""
"","image-keyboard-response","299","225730","0.0-299.0","32Z9ZLUT1M67S8FQY8DELLKAM9COHP","A3HFZPC8QR1Y54","338431Z1FL1IVIVZ3BK6A6QS21HROA","","1087","img/animal4.png","76","1088","3","1","3","1,0.7,0,1,0.7,0,0.7,0,1",""
"","html-keyboard-response","300","226032","0.0-300.0","32Z9ZLUT1M67S8FQY8DELLKAM9COHP","A3HFZPC8QR1Y54","338431Z1FL1IVIVZ3BK6A6QS21HROA","","null","<img src=""img/animal4.png"" style=""width:200px; border:14px solid green;"">","null","","","","","",""
"","image-keyboard-response","301","226732","0.0-301.0","32Z9ZLUT1M67S8FQY8DELLKAM9COHP","A3HFZPC8QR1Y54","338431Z1FL1IVIVZ3BK6A6QS21HROA","","698","img/animal6.png","74","700.0000000000291","1","1","2","1,0.7,0,1,0.7,0,0.7,0,1",""
"","html-keyboard-response","302","227035","0.0-302.0","32Z9ZLUT1M67S8FQY8DELLKAM9COHP","A3HFZPC8QR1Y54","338431Z1FL1IVIVZ3BK6A6QS21HROA","","null","<img src=""img/animal6.png"" style=""width:200px; border:14px solid green;"">","null","","","","","",""
"","image-keyboard-response","303","227539","0.0-303.0","32Z9ZLUT1M67S8FQY8DELLKAM9COHP","A3HFZPC8QR1Y54","338431Z1FL1IVIVZ3BK6A6QS21HROA","","502","img/animal6.png","74","503.9999999999709","1","1","2","1,0.7,0,1,0.7,0,0.7,0,1",""
"","html-keyboard-response","304","227841","0.0-304.0","32Z9ZLUT1M67S8FQY8DELLKAM9COHP","A3HFZPC8QR1Y54","338431Z1FL1IVIVZ3BK6A6QS21HROA","","null","<img src=""img/animal6.png"" style=""width:200px; border:14px solid green;"">","null","","","","","",""
"","image-keyboard-response","305","228471","0.0-305.0","32Z9ZLUT1M67S8FQY8DELLKAM9COHP","A3HFZPC8QR1Y54","338431Z1FL1IVIVZ3BK6A6QS21HROA","","627.0000000000291","img/animal4.png","76","629","3","1","3","1,0.7,0,1,0.7,0,0.7,0,1",""
"","html-keyboard-response","306","228774","0.0-306.0","32Z9ZLUT1M67S8FQY8DELLKAM9COHP","A3HFZPC8QR1Y54","338431Z1FL1IVIVZ3BK6A6QS21HROA","","null","<img src=""img/animal4.png"" style=""width:200px; border:14px solid green;"">","null","","","","","",""
"","image-keyboard-response","307","230028","0.0-307.0","32Z9ZLUT1M67S8FQY8DELLKAM9COHP","A3HFZPC8QR1Y54","338431Z1FL1IVIVZ3BK6A6QS21HROA","","1252","img/animal6.png","74","1253","1","1","2","1,0.7,0,1,0.7,0,0.7,0,1",""
"","html-keyboard-response","308","230329","0.0-308.0","32Z9ZLUT1M67S8FQY8DELLKAM9COHP","A3HFZPC8QR1Y54","338431Z1FL1IVIVZ3BK6A6QS21HROA","","null","<img src=""img/animal6.png"" style=""width:200px; border:14px solid green;"">","null","","","","","",""
"","image-keyboard-response","309","230715","0.0-309.0","32Z9ZLUT1M67S8FQY8DELLKAM9COHP","A3HFZPC8QR1Y54","338431Z1FL1IVIVZ3BK6A6QS21HROA","","384.0000000000291","img/animal6.png","74","385.0000000000291","1","1","2","1,0.7,0,1,0.7,0,0.7,0,1",""
"","html-keyboard-response","310","231017","0.0-310.0","32Z9ZLUT1M67S8FQY8DELLKAM9COHP","A3HFZPC8QR1Y54","338431Z1FL1IVIVZ3BK6A6QS21HROA","","null","<img src=""img/animal6.png"" style=""width:200px; border:14px solid green;"">","null","","","","","",""
"","image-keyboard-response","311","231735","0.0-311.0","32Z9ZLUT1M67S8FQY8DELLKAM9COHP","A3HFZPC8QR1Y54","338431Z1FL1IVIVZ3BK6A6QS21HROA","","715","img/animal4.png","76","718","3","1","3","1,0.7,0,1,0.7,0,0.7,0,1",""
"","html-keyboard-response","312","232039","0.0-312.0","32Z9ZLUT1M67S8FQY8DELLKAM9COHP","A3HFZPC8QR1Y54","338431Z1FL1IVIVZ3BK6A6QS21HROA","","null","<img src=""img/animal4.png"" style=""width:200px; border:14px solid green;"">","null","","","","","",""
"","image-keyboard-response","313","232352","0.0-313.0","32Z9ZLUT1M67S8FQY8DELLKAM9COHP","A3HFZPC8QR1Y54","338431Z1FL1IVIVZ3BK6A6QS21HROA","","312","img/animal4.png","76","313","3","1","3","1,0.7,0,1,0.7,0,0.7,0,1",""
"","html-keyboard-response","314","232654","0.0-314.0","32Z9ZLUT1M67S8FQY8DELLKAM9COHP","A3HFZPC8QR1Y54","338431Z1FL1IVIVZ3BK6A6QS21HROA","","null","<img src=""img/animal4.png"" style=""width:200px; border:14px solid green;"">","null","","","","","",""
"","image-keyboard-response","315","233312","0.0-315.0","32Z9ZLUT1M67S8FQY8DELLKAM9COHP","A3HFZPC8QR1Y54","338431Z1FL1IVIVZ3BK6A6QS21HROA","","656","img/animal6.png","74","657","1","1","2","1,0.7,0,1,0.7,0,0.7,0,1",""
"","html-keyboard-response","316","233615","0.0-316.0","32Z9ZLUT1M67S8FQY8DELLKAM9COHP","A3HFZPC8QR1Y54","338431Z1FL1IVIVZ3BK6A6QS21HROA","","null","<img src=""img/animal6.png"" style=""width:200px; border:14px solid green;"">","null","","","","","",""
"","image-keyboard-response","317","234371","0.0-317.0","32Z9ZLUT1M67S8FQY8DELLKAM9COHP","A3HFZPC8QR1Y54","338431Z1FL1IVIVZ3BK6A6QS21HROA","","754","img/animal2.png","75","756","2","0","1","1,0.7,0,1,0.7,0,0.7,0,1",""
"","html-keyboard-response","318","234673","0.0-318.0","32Z9ZLUT1M67S8FQY8DELLKAM9COHP","A3HFZPC8QR1Y54","338431Z1FL1IVIVZ3BK6A6QS21HROA","","null","<img src=""img/animal2.png"" style=""width:200px;border:14px solid red;"">","null","","","","","",""
"","image-keyboard-response","319","235157","0.0-319.0","32Z9ZLUT1M67S8FQY8DELLKAM9COHP","A3HFZPC8QR1Y54","338431Z1FL1IVIVZ3BK6A6QS21HROA","","481","img/animal2.png","75","483","2","1","1","1,0.7,0,1,0.7,0,0.7,0,1",""
"","html-keyboard-response","320","235460","0.0-320.0","32Z9ZLUT1M67S8FQY8DELLKAM9COHP","A3HFZPC8QR1Y54","338431Z1FL1IVIVZ3BK6A6QS21HROA","","null","<img src=""img/animal2.png"" style=""width:200px; border:14px solid green;"">","null","","","","","",""
"","image-keyboard-response","321","236365","0.0-321.0","32Z9ZLUT1M67S8FQY8DELLKAM9COHP","A3HFZPC8QR1Y54","338431Z1FL1IVIVZ3BK6A6QS21HROA","","903","img/animal4.png","76","905","3","1","3","1,0.7,0,1,0.7,0,0.7,0,1",""
"","html-keyboard-response","322","236668","0.0-322.0","32Z9ZLUT1M67S8FQY8DELLKAM9COHP","A3HFZPC8QR1Y54","338431Z1FL1IVIVZ3BK6A6QS21HROA","","null","<img src=""img/animal4.png"" style=""width:200px; border:14px solid green;"">","null","","","","","",""
"","image-keyboard-response","323","237342","0.0-323.0","32Z9ZLUT1M67S8FQY8DELLKAM9COHP","A3HFZPC8QR1Y54","338431Z1FL1IVIVZ3BK6A6QS21HROA","","672","img/animal2.png","75","674","2","1","1","1,0.7,0,1,0.7,0,0.7,0,1",""
"","html-keyboard-response","324","237645","0.0-324.0","32Z9ZLUT1M67S8FQY8DELLKAM9COHP","A3HFZPC8QR1Y54","338431Z1FL1IVIVZ3BK6A6QS21HROA","","null","<img src=""img/animal2.png"" style=""width:200px; border:14px solid green;"">","null","","","","","",""
"","image-keyboard-response","325","238381","0.0-325.0","32Z9ZLUT1M67S8FQY8DELLKAM9COHP","A3HFZPC8QR1Y54","338431Z1FL1IVIVZ3BK6A6QS21HROA","","735.0000000000291","img/animal4.png","76","736.0000000000291","3","1","3","1,0.7,0,1,0.7,0,0.7,0,1",""
"","html-keyboard-response","326","238684","0.0-326.0","32Z9ZLUT1M67S8FQY8DELLKAM9COHP","A3HFZPC8QR1Y54","338431Z1FL1IVIVZ3BK6A6QS21HROA","","null","<img src=""img/animal4.png"" style=""width:200px; border:14px solid green;"">","null","","","","","",""
"","image-keyboard-response","327","239092","0.0-327.0","32Z9ZLUT1M67S8FQY8DELLKAM9COHP","A3HFZPC8QR1Y54","338431Z1FL1IVIVZ3BK6A6QS21HROA","","406","img/animal4.png","76","407.9999999999709","3","1","3","1,0.7,0,1,0.7,0,0.7,0,1",""
"","html-keyboard-response","328","239395","0.0-328.0","32Z9ZLUT1M67S8FQY8DELLKAM9COHP","A3HFZPC8QR1Y54","338431Z1FL1IVIVZ3BK6A6QS21HROA","","null","<img src=""img/animal4.png"" style=""width:200px; border:14px solid green;"">","null","","","","","",""
"","image-keyboard-response","329","239842","0.0-329.0","32Z9ZLUT1M67S8FQY8DELLKAM9COHP","A3HFZPC8QR1Y54","338431Z1FL1IVIVZ3BK6A6QS21HROA","","445","img/animal4.png","76","447","3","1","3","1,0.7,0,1,0.7,0,0.7,0,1",""
"","html-keyboard-response","330","240145","0.0-330.0","32Z9ZLUT1M67S8FQY8DELLKAM9COHP","A3HFZPC8QR1Y54","338431Z1FL1IVIVZ3BK6A6QS21HROA","","null","<img src=""img/animal4.png"" style=""width:200px; border:14px solid green;"">","null","","","","","",""
"","image-keyboard-response","331","240774","0.0-331.0","32Z9ZLUT1M67S8FQY8DELLKAM9COHP","A3HFZPC8QR1Y54","338431Z1FL1IVIVZ3BK6A6QS21HROA","","627.0000000000291","img/animal6.png","74","629","1","1","2","1,0.7,0,1,0.7,0,0.7,0,1",""
"","html-keyboard-response","332","241076","0.0-332.0","32Z9ZLUT1M67S8FQY8DELLKAM9COHP","A3HFZPC8QR1Y54","338431Z1FL1IVIVZ3BK6A6QS21HROA","","null","<img src=""img/animal6.png"" style=""width:200px; border:14px solid green;"">","null","","","","","",""
"","image-keyboard-response","333","241643","0.0-333.0","32Z9ZLUT1M67S8FQY8DELLKAM9COHP","A3HFZPC8QR1Y54","338431Z1FL1IVIVZ3BK6A6QS21HROA","","564","img/animal4.png","76","565.9999999999709","3","1","3","1,0.7,0,1,0.7,0,0.7,0,1",""
"","html-keyboard-response","334","241945","0.0-334.0","32Z9ZLUT1M67S8FQY8DELLKAM9COHP","A3HFZPC8QR1Y54","338431Z1FL1IVIVZ3BK6A6QS21HROA","","null","<img src=""img/animal4.png"" style=""width:200px; border:14px solid green;"">","null","","","","","",""
"","image-keyboard-response","335","242739","0.0-335.0","32Z9ZLUT1M67S8FQY8DELLKAM9COHP","A3HFZPC8QR1Y54","338431Z1FL1IVIVZ3BK6A6QS21HROA","","790.0000000000291","img/animal2.png","75","792.9999999999709","2","1","1","1,0.7,0,1,0.7,0,0.7,0,1",""
"","html-keyboard-response","336","243043","0.0-336.0","32Z9ZLUT1M67S8FQY8DELLKAM9COHP","A3HFZPC8QR1Y54","338431Z1FL1IVIVZ3BK6A6QS21HROA","","null","<img src=""img/animal2.png"" style=""width:200px; border:14px solid green;"">","null","","","","","",""
"","image-keyboard-response","337","244152","0.0-337.0","32Z9ZLUT1M67S8FQY8DELLKAM9COHP","A3HFZPC8QR1Y54","338431Z1FL1IVIVZ3BK6A6QS21HROA","","1107","img/animal2.png","75","1110","2","1","1","1,0.7,0,1,0.7,0,0.7,0,1",""
"","html-keyboard-response","338","244456","0.0-338.0","32Z9ZLUT1M67S8FQY8DELLKAM9COHP","A3HFZPC8QR1Y54","338431Z1FL1IVIVZ3BK6A6QS21HROA","","null","<img src=""img/animal2.png"" style=""width:200px; border:14px solid green;"">","null","","","","","",""
"","image-keyboard-response","339","244998","0.0-339.0","32Z9ZLUT1M67S8FQY8DELLKAM9COHP","A3HFZPC8QR1Y54","338431Z1FL1IVIVZ3BK6A6QS21HROA","","538.9999999999709","img/animal4.png","76","542","3","1","3","1,0.7,0,1,0.7,0,0.7,0,1",""
"","html-keyboard-response","340","245301","0.0-340.0","32Z9ZLUT1M67S8FQY8DELLKAM9COHP","A3HFZPC8QR1Y54","338431Z1FL1IVIVZ3BK6A6QS21HROA","","null","<img src=""img/animal4.png"" style=""width:200px; border:14px solid green;"">","null","","","","","",""
"","image-keyboard-response","341","246405","0.0-341.0","32Z9ZLUT1M67S8FQY8DELLKAM9COHP","A3HFZPC8QR1Y54","338431Z1FL1IVIVZ3BK6A6QS21HROA","","1101.999999999971","img/animal6.png","74","1104","1","1","2","1,0.7,0,1,0.7,0,0.7,0,1",""
"","html-keyboard-response","342","246708","0.0-342.0","32Z9ZLUT1M67S8FQY8DELLKAM9COHP","A3HFZPC8QR1Y54","338431Z1FL1IVIVZ3BK6A6QS21HROA","","null","<img src=""img/animal6.png"" style=""width:200px; border:14px solid green;"">","null","","","","","",""
"","image-keyboard-response","343","247408","0.0-343.0","32Z9ZLUT1M67S8FQY8DELLKAM9COHP","A3HFZPC8QR1Y54","338431Z1FL1IVIVZ3BK6A6QS21HROA","","697","img/animal2.png","75","699.9999999999709","2","1","1","1,0.7,0,1,0.7,0,0.7,0,1",""
"","html-keyboard-response","344","247710","0.0-344.0","32Z9ZLUT1M67S8FQY8DELLKAM9COHP","A3HFZPC8QR1Y54","338431Z1FL1IVIVZ3BK6A6QS21HROA","","null","<img src=""img/animal2.png"" style=""width:200px; border:14px solid green;"">","null","","","","","",""
"","image-keyboard-response","345","248252","0.0-345.0","32Z9ZLUT1M67S8FQY8DELLKAM9COHP","A3HFZPC8QR1Y54","338431Z1FL1IVIVZ3BK6A6QS21HROA","","540","img/animal6.png","74","542","1","1","2","1,0.7,0,1,0.7,0,0.7,0,1",""
"","html-keyboard-response","346","248555","0.0-346.0","32Z9ZLUT1M67S8FQY8DELLKAM9COHP","A3HFZPC8QR1Y54","338431Z1FL1IVIVZ3BK6A6QS21HROA","","null","<img src=""img/animal6.png"" style=""width:200px; border:14px solid green;"">","null","","","","","",""
"","image-keyboard-response","347","248949","0.0-347.0","32Z9ZLUT1M67S8FQY8DELLKAM9COHP","A3HFZPC8QR1Y54","338431Z1FL1IVIVZ3BK6A6QS21HROA","","391","img/animal6.png","74","393","1","1","2","1,0.7,0,1,0.7,0,0.7,0,1",""
"","html-keyboard-response","348","249251","0.0-348.0","32Z9ZLUT1M67S8FQY8DELLKAM9COHP","A3HFZPC8QR1Y54","338431Z1FL1IVIVZ3BK6A6QS21HROA","","null","<img src=""img/animal6.png"" style=""width:200px; border:14px solid green;"">","null","","","","","",""
"","image-keyboard-response","349","249571","0.0-349.0","32Z9ZLUT1M67S8FQY8DELLKAM9COHP","A3HFZPC8QR1Y54","338431Z1FL1IVIVZ3BK6A6QS21HROA","","318.0000000000291","img/animal6.png","74","320","1","1","2","1,0.7,0,1,0.7,0,0.7,0,1",""
"","html-keyboard-response","350","249874","0.0-350.0","32Z9ZLUT1M67S8FQY8DELLKAM9COHP","A3HFZPC8QR1Y54","338431Z1FL1IVIVZ3BK6A6QS21HROA","","null","<img src=""img/animal6.png"" style=""width:200px; border:14px solid green;"">","null","","","","","",""
"","image-keyboard-response","351","250384","0.0-351.0","32Z9ZLUT1M67S8FQY8DELLKAM9COHP","A3HFZPC8QR1Y54","338431Z1FL1IVIVZ3BK6A6QS21HROA","","508","img/animal2.png","75","509.9999999999709","2","0","1","1,0.7,0,1,0.7,0,0.7,0,1",""
"","html-keyboard-response","352","250687","0.0-352.0","32Z9ZLUT1M67S8FQY8DELLKAM9COHP","A3HFZPC8QR1Y54","338431Z1FL1IVIVZ3BK6A6QS21HROA","","null","<img src=""img/animal2.png"" style=""width:200px;border:14px solid red;"">","null","","","","","",""
"","image-keyboard-response","353","251271","0.0-353.0","32Z9ZLUT1M67S8FQY8DELLKAM9COHP","A3HFZPC8QR1Y54","338431Z1FL1IVIVZ3BK6A6QS21HROA","","583","img/animal4.png","76","584","3","1","3","1,0.7,0,1,0.7,0,0.7,0,1",""
"","html-keyboard-response","354","251574","0.0-354.0","32Z9ZLUT1M67S8FQY8DELLKAM9COHP","A3HFZPC8QR1Y54","338431Z1FL1IVIVZ3BK6A6QS21HROA","","null","<img src=""img/animal4.png"" style=""width:200px; border:14px solid green;"">","null","","","","","",""
"","image-keyboard-response","355","252428","0.0-355.0","32Z9ZLUT1M67S8FQY8DELLKAM9COHP","A3HFZPC8QR1Y54","338431Z1FL1IVIVZ3BK6A6QS21HROA","","853.0000000000291","img/animal6.png","74","853.0000000000291","1","1","2","1,0.7,0,1,0.7,0,0.7,0,1",""
"","html-keyboard-response","356","252731","0.0-356.0","32Z9ZLUT1M67S8FQY8DELLKAM9COHP","A3HFZPC8QR1Y54","338431Z1FL1IVIVZ3BK6A6QS21HROA","","null","<img src=""img/animal6.png"" style=""width:200px; border:14px solid green;"">","null","","","","","",""
"","image-keyboard-response","357","253150","0.0-357.0","32Z9ZLUT1M67S8FQY8DELLKAM9COHP","A3HFZPC8QR1Y54","338431Z1FL1IVIVZ3BK6A6QS21HROA","","417","img/animal6.png","74","417.9999999999709","1","1","2","1,0.7,0,1,0.7,0,0.7,0,1",""
"","html-keyboard-response","358","253453","0.0-358.0","32Z9ZLUT1M67S8FQY8DELLKAM9COHP","A3HFZPC8QR1Y54","338431Z1FL1IVIVZ3BK6A6QS21HROA","","null","<img src=""img/animal6.png"" style=""width:200px; border:14px solid green;"">","null","","","","","",""
"","image-keyboard-response","359","254055","0.0-359.0","32Z9ZLUT1M67S8FQY8DELLKAM9COHP","A3HFZPC8QR1Y54","338431Z1FL1IVIVZ3BK6A6QS21HROA","","600.0000000000291","img/animal2.png","75","601.0000000000291","2","1","1","1,0.7,0,1,0.7,0,0.7,0,1",""
"","html-keyboard-response","360","254358","0.0-360.0","32Z9ZLUT1M67S8FQY8DELLKAM9COHP","A3HFZPC8QR1Y54","338431Z1FL1IVIVZ3BK6A6QS21HROA","","null","<img src=""img/animal2.png"" style=""width:200px; border:14px solid green;"">","null","","","","","",""
"","image-keyboard-response","361","257792","0.0-361.0","32Z9ZLUT1M67S8FQY8DELLKAM9COHP","A3HFZPC8QR1Y54","338431Z1FL1IVIVZ3BK6A6QS21HROA","","3431.999999999971","img/animal2.png","75","3435","2","1","1","1,0.7,0,1,0.7,0,0.7,0,1",""
"","html-keyboard-response","362","258096","0.0-362.0","32Z9ZLUT1M67S8FQY8DELLKAM9COHP","A3HFZPC8QR1Y54","338431Z1FL1IVIVZ3BK6A6QS21HROA","","null","<img src=""img/animal2.png"" style=""width:200px; border:14px solid green;"">","null","","","","","",""
"","instructions","363","261975","0.0-363.0","32Z9ZLUT1M67S8FQY8DELLKAM9COHP","A3HFZPC8QR1Y54","338431Z1FL1IVIVZ3BK6A6QS21HROA","[{""page_index"":0,""viewing_time"":3877.999999999971}]","3877.999999999971","","","","","","","",""
"","survey-text","364","268127","0.0-364.0","32Z9ZLUT1M67S8FQY8DELLKAM9COHP","A3HFZPC8QR1Y54","338431Z1FL1IVIVZ3BK6A6QS21HROA","","6142","","","","","","","","{""Q0"":""A3HFZPC8QR1Y54""}"
