"success","trial_type","trial_index","time_elapsed","internal_node_id","assignmentID","mturkID","hitID","view_history","rt","stimulus","key_press","reactionTime","a","r","s","reward_cond","responses"
"true","fullscreen","0","3156","0.0-0.0","39KFRKBFIOHTE35F88H27LFD9UEOYO","A3HQXCWOIQKT4F","3S829FDFT2NBOHQMM1CIOU0HZYXDXL","","","","","","","","","",""
"","instructions","1","41803","0.0-1.0","39KFRKBFIOHTE35F88H27LFD9UEOYO","A3HQXCWOIQKT4F","3S829FDFT2NBOHQMM1CIOU0HZYXDXL","[{""page_index"":0,""viewing_time"":11651.5},{""page_index"":1,""viewing_time"":6079.899999976158},{""page_index"":2,""viewing_time"":482.9000000357628},{""page_index"":3,""viewing_time"":7616.599999964237},{""page_index"":4,""viewing_time"":1788.699999988079},{""page_index"":5,""viewing_time"":3444.400000035763},{""page_index"":6,""viewing_time"":2951.099999964237},{""page_index"":7,""viewing_time"":4627.5}]","38644.39999997616","","","","","","","",""
"","image-keyboard-response","2","42455","0.0-2.0","39KFRKBFIOHTE35F88H27LFD9UEOYO","A3HQXCWOIQKT4F","3S829FDFT2NBOHQMM1CIOU0HZYXDXL","","649","img/animal3.png","74","651.0999999642372","1","1","1","0.5,0,1,1,0.5,0,0,1,0.5",""
"","html-keyboard-response","3","42763","0.0-3.0","39KFRKBFIOHTE35F88H27LFD9UEOYO","A3HQXCWOIQKT4F","3S829FDFT2NBOHQMM1CIOU0HZYXDXL","","null","<img src=""img/animal3.png"" style=""width:200px; border:14px solid green;"">","null","","","","","",""
"","image-keyboard-response","4","43757","0.0-4.0","39KFRKBFIOHTE35F88H27LFD9UEOYO","A3HQXCWOIQKT4F","3S829FDFT2NBOHQMM1CIOU0HZYXDXL","","989.8999999761581","img/animal2.png","75","993.3999999761581","2","1","3","0.5,0,1,1,0.5,0,0,1,0.5",""
"","html-keyboard-response","5","44068","0.0-5.0","39KFRKBFIOHTE35F88H27LFD9UEOYO","A3HQXCWOIQKT4F","3S829FDFT2NBOHQMM1CIOU0HZYXDXL","","null","<img src=""img/animal2.png"" style=""width:200px; border:14px solid green;"">","null","","","","","",""
"","image-keyboard-response","6","44640","0.0-6.0","39KFRKBFIOHTE35F88H27LFD9UEOYO","A3HQXCWOIQKT4F","3S829FDFT2NBOHQMM1CIOU0HZYXDXL","","568.1999999880791","img/animal2.png","75","571.2000000476837","2","1","3","0.5,0,1,1,0.5,0,0,1,0.5",""
"","html-keyboard-response","7","44948","0.0-7.0","39KFRKBFIOHTE35F88H27LFD9UEOYO","A3HQXCWOIQKT4F","3S829FDFT2NBOHQMM1CIOU0HZYXDXL","","null","<img src=""img/animal2.png"" style=""width:200px; border:14px solid green;"">","null","","","","","",""
"","image-keyboard-response","8","45424","0.0-8.0","39KFRKBFIOHTE35F88H27LFD9UEOYO","A3HQXCWOIQKT4F","3S829FDFT2NBOHQMM1CIOU0HZYXDXL","","473.10000002384186","img/animal3.png","74","475.80000001192093","1","0","1","0.5,0,1,1,0.5,0,0,1,0.5",""
"","html-keyboard-response","9","45731","0.0-9.0","39KFRKBFIOHTE35F88H27LFD9UEOYO","A3HQXCWOIQKT4F","3S829FDFT2NBOHQMM1CIOU0HZYXDXL","","null","<img src=""img/animal3.png"" style=""width:200px;border:14px solid red;"">","null","","","","","",""
"","image-keyboard-response","10","46249","0.0-10.0","39KFRKBFIOHTE35F88H27LFD9UEOYO","A3HQXCWOIQKT4F","3S829FDFT2NBOHQMM1CIOU0HZYXDXL","","513.8999999761581","img/animal2.png","75","517","2","1","3","0.5,0,1,1,0.5,0,0,1,0.5",""
"","html-keyboard-response","11","46556","0.0-11.0","39KFRKBFIOHTE35F88H27LFD9UEOYO","A3HQXCWOIQKT4F","3S829FDFT2NBOHQMM1CIOU0HZYXDXL","","null","<img src=""img/animal2.png"" style=""width:200px; border:14px solid green;"">","null","","","","","",""
"","image-keyboard-response","12","46937","0.0-12.0","39KFRKBFIOHTE35F88H27LFD9UEOYO","A3HQXCWOIQKT4F","3S829FDFT2NBOHQMM1CIOU0HZYXDXL","","379.19999998807907","img/animal3.png","74","381.30000001192093","1","1","1","0.5,0,1,1,0.5,0,0,1,0.5",""
"","html-keyboard-response","13","47243","0.0-13.0","39KFRKBFIOHTE35F88H27LFD9UEOYO","A3HQXCWOIQKT4F","3S829FDFT2NBOHQMM1CIOU0HZYXDXL","","null","<img src=""img/animal3.png"" style=""width:200px; border:14px solid green;"">","null","","","","","",""
"","image-keyboard-response","14","47567","0.0-14.0","39KFRKBFIOHTE35F88H27LFD9UEOYO","A3HQXCWOIQKT4F","3S829FDFT2NBOHQMM1CIOU0HZYXDXL","","321.5","img/animal3.png","74","323.39999997615814","1","0","1","0.5,0,1,1,0.5,0,0,1,0.5",""
"","html-keyboard-response","15","47875","0.0-15.0","39KFRKBFIOHTE35F88H27LFD9UEOYO","A3HQXCWOIQKT4F","3S829FDFT2NBOHQMM1CIOU0HZYXDXL","","null","<img src=""img/animal3.png"" style=""width:200px;border:14px solid red;"">","null","","","","","",""
"","image-keyboard-response","16","48795","0.0-16.0","39KFRKBFIOHTE35F88H27LFD9UEOYO","A3HQXCWOIQKT4F","3S829FDFT2NBOHQMM1CIOU0HZYXDXL","","916.5","img/animal4.png","76","919","3","0","2","0.5,0,1,1,0.5,0,0,1,0.5",""
"","html-keyboard-response","17","49100","0.0-17.0","39KFRKBFIOHTE35F88H27LFD9UEOYO","A3HQXCWOIQKT4F","3S829FDFT2NBOHQMM1CIOU0HZYXDXL","","null","<img src=""img/animal4.png"" style=""width:200px;border:14px solid red;"">","null","","","","","",""
"","image-keyboard-response","18","50602","0.0-18.0","39KFRKBFIOHTE35F88H27LFD9UEOYO","A3HQXCWOIQKT4F","3S829FDFT2NBOHQMM1CIOU0HZYXDXL","","1498.7999999523163","img/animal2.png","75","1501.800000011921","2","1","3","0.5,0,1,1,0.5,0,0,1,0.5",""
"","html-keyboard-response","19","50908","0.0-19.0","39KFRKBFIOHTE35F88H27LFD9UEOYO","A3HQXCWOIQKT4F","3S829FDFT2NBOHQMM1CIOU0HZYXDXL","","null","<img src=""img/animal2.png"" style=""width:200px; border:14px solid green;"">","null","","","","","",""
"","image-keyboard-response","20","51258","0.0-20.0","39KFRKBFIOHTE35F88H27LFD9UEOYO","A3HQXCWOIQKT4F","3S829FDFT2NBOHQMM1CIOU0HZYXDXL","","347.0999999642372","img/animal2.png","75","349.69999998807907","2","1","3","0.5,0,1,1,0.5,0,0,1,0.5",""
"","html-keyboard-response","21","51563","0.0-21.0","39KFRKBFIOHTE35F88H27LFD9UEOYO","A3HQXCWOIQKT4F","3S829FDFT2NBOHQMM1CIOU0HZYXDXL","","null","<img src=""img/animal2.png"" style=""width:200px; border:14px solid green;"">","null","","","","","",""
"","image-keyboard-response","22","52372","0.0-22.0","39KFRKBFIOHTE35F88H27LFD9UEOYO","A3HQXCWOIQKT4F","3S829FDFT2NBOHQMM1CIOU0HZYXDXL","","806.2999999523163","img/animal4.png","76","809","3","0","2","0.5,0,1,1,0.5,0,0,1,0.5",""
"","html-keyboard-response","23","52683","0.0-23.0","39KFRKBFIOHTE35F88H27LFD9UEOYO","A3HQXCWOIQKT4F","3S829FDFT2NBOHQMM1CIOU0HZYXDXL","","null","<img src=""img/animal4.png"" style=""width:200px;border:14px solid red;"">","null","","","","","",""
"","image-keyboard-response","24","53386","0.0-24.0","39KFRKBFIOHTE35F88H27LFD9UEOYO","A3HQXCWOIQKT4F","3S829FDFT2NBOHQMM1CIOU0HZYXDXL","","700.6999999880791","img/animal2.png","75","703.3000000119209","2","1","3","0.5,0,1,1,0.5,0,0,1,0.5",""
"","html-keyboard-response","25","53692","0.0-25.0","39KFRKBFIOHTE35F88H27LFD9UEOYO","A3HQXCWOIQKT4F","3S829FDFT2NBOHQMM1CIOU0HZYXDXL","","null","<img src=""img/animal2.png"" style=""width:200px; border:14px solid green;"">","null","","","","","",""
"","image-keyboard-response","26","54250","0.0-26.0","39KFRKBFIOHTE35F88H27LFD9UEOYO","A3HQXCWOIQKT4F","3S829FDFT2NBOHQMM1CIOU0HZYXDXL","","555.5999999642372","img/animal3.png","74","558.3000000119209","1","1","1","0.5,0,1,1,0.5,0,0,1,0.5",""
"","html-keyboard-response","27","54555","0.0-27.0","39KFRKBFIOHTE35F88H27LFD9UEOYO","A3HQXCWOIQKT4F","3S829FDFT2NBOHQMM1CIOU0HZYXDXL","","null","<img src=""img/animal3.png"" style=""width:200px; border:14px solid green;"">","null","","","","","",""
"","image-keyboard-response","28","55062","0.0-28.0","39KFRKBFIOHTE35F88H27LFD9UEOYO","A3HQXCWOIQKT4F","3S829FDFT2NBOHQMM1CIOU0HZYXDXL","","504.7999999523163","img/animal4.png","76","506.9000000357628","3","0","2","0.5,0,1,1,0.5,0,0,1,0.5",""
"","html-keyboard-response","29","55372","0.0-29.0","39KFRKBFIOHTE35F88H27LFD9UEOYO","A3HQXCWOIQKT4F","3S829FDFT2NBOHQMM1CIOU0HZYXDXL","","null","<img src=""img/animal4.png"" style=""width:200px;border:14px solid red;"">","null","","","","","",""
"","image-keyboard-response","30","56345","0.0-30.0","39KFRKBFIOHTE35F88H27LFD9UEOYO","A3HQXCWOIQKT4F","3S829FDFT2NBOHQMM1CIOU0HZYXDXL","","970.8999999761581","img/animal3.png","74","973","1","1","1","0.5,0,1,1,0.5,0,0,1,0.5",""
"","html-keyboard-response","31","56651","0.0-31.0","39KFRKBFIOHTE35F88H27LFD9UEOYO","A3HQXCWOIQKT4F","3S829FDFT2NBOHQMM1CIOU0HZYXDXL","","null","<img src=""img/animal3.png"" style=""width:200px; border:14px solid green;"">","null","","","","","",""
"","image-keyboard-response","32","57008","0.0-32.0","39KFRKBFIOHTE35F88H27LFD9UEOYO","A3HQXCWOIQKT4F","3S829FDFT2NBOHQMM1CIOU0HZYXDXL","","354.39999997615814","img/animal3.png","74","356.89999997615814","1","0","1","0.5,0,1,1,0.5,0,0,1,0.5",""
"","html-keyboard-response","33","57316","0.0-33.0","39KFRKBFIOHTE35F88H27LFD9UEOYO","A3HQXCWOIQKT4F","3S829FDFT2NBOHQMM1CIOU0HZYXDXL","","null","<img src=""img/animal3.png"" style=""width:200px;border:14px solid red;"">","null","","","","","",""
"","image-keyboard-response","34","58078","0.0-34.0","39KFRKBFIOHTE35F88H27LFD9UEOYO","A3HQXCWOIQKT4F","3S829FDFT2NBOHQMM1CIOU0HZYXDXL","","758.6999999880791","img/animal2.png","75","761.3000000119209","2","1","3","0.5,0,1,1,0.5,0,0,1,0.5",""
"","html-keyboard-response","35","58387","0.0-35.0","39KFRKBFIOHTE35F88H27LFD9UEOYO","A3HQXCWOIQKT4F","3S829FDFT2NBOHQMM1CIOU0HZYXDXL","","null","<img src=""img/animal2.png"" style=""width:200px; border:14px solid green;"">","null","","","","","",""
"","image-keyboard-response","36","58682","0.0-36.0","39KFRKBFIOHTE35F88H27LFD9UEOYO","A3HQXCWOIQKT4F","3S829FDFT2NBOHQMM1CIOU0HZYXDXL","","292.30000001192093","img/animal2.png","75","294.5","2","1","3","0.5,0,1,1,0.5,0,0,1,0.5",""
"","html-keyboard-response","37","58988","0.0-37.0","39KFRKBFIOHTE35F88H27LFD9UEOYO","A3HQXCWOIQKT4F","3S829FDFT2NBOHQMM1CIOU0HZYXDXL","","null","<img src=""img/animal2.png"" style=""width:200px; border:14px solid green;"">","null","","","","","",""
"","image-keyboard-response","38","59644","0.0-38.0","39KFRKBFIOHTE35F88H27LFD9UEOYO","A3HQXCWOIQKT4F","3S829FDFT2NBOHQMM1CIOU0HZYXDXL","","653.7000000476837","img/animal3.png","74","655.6999999880791","1","1","1","0.5,0,1,1,0.5,0,0,1,0.5",""
"","html-keyboard-response","39","59955","0.0-39.0","39KFRKBFIOHTE35F88H27LFD9UEOYO","A3HQXCWOIQKT4F","3S829FDFT2NBOHQMM1CIOU0HZYXDXL","","null","<img src=""img/animal3.png"" style=""width:200px; border:14px solid green;"">","null","","","","","",""
"","image-keyboard-response","40","60261","0.0-40.0","39KFRKBFIOHTE35F88H27LFD9UEOYO","A3HQXCWOIQKT4F","3S829FDFT2NBOHQMM1CIOU0HZYXDXL","","302.60000002384186","img/animal3.png","74","305.0999999642372","1","0","1","0.5,0,1,1,0.5,0,0,1,0.5",""
"","html-keyboard-response","41","60571","0.0-41.0","39KFRKBFIOHTE35F88H27LFD9UEOYO","A3HQXCWOIQKT4F","3S829FDFT2NBOHQMM1CIOU0HZYXDXL","","null","<img src=""img/animal3.png"" style=""width:200px;border:14px solid red;"">","null","","","","","",""
"","image-keyboard-response","42","61317","0.0-42.0","39KFRKBFIOHTE35F88H27LFD9UEOYO","A3HQXCWOIQKT4F","3S829FDFT2NBOHQMM1CIOU0HZYXDXL","","742.7999999523163","img/animal2.png","75","745.3999999761581","2","1","3","0.5,0,1,1,0.5,0,0,1,0.5",""
"","html-keyboard-response","43","61627","0.0-43.0","39KFRKBFIOHTE35F88H27LFD9UEOYO","A3HQXCWOIQKT4F","3S829FDFT2NBOHQMM1CIOU0HZYXDXL","","null","<img src=""img/animal2.png"" style=""width:200px; border:14px solid green;"">","null","","","","","",""
"","image-keyboard-response","44","62095","0.0-44.0","39KFRKBFIOHTE35F88H27LFD9UEOYO","A3HQXCWOIQKT4F","3S829FDFT2NBOHQMM1CIOU0HZYXDXL","","465.60000002384186","img/animal3.png","75","467.9000000357628","2","0","1","0.5,0,1,1,0.5,0,0,1,0.5",""
"","html-keyboard-response","45","62404","0.0-45.0","39KFRKBFIOHTE35F88H27LFD9UEOYO","A3HQXCWOIQKT4F","3S829FDFT2NBOHQMM1CIOU0HZYXDXL","","null","<img src=""img/animal3.png"" style=""width:200px;border:14px solid red;"">","null","","","","","",""
"","image-keyboard-response","46","63085","0.0-46.0","39KFRKBFIOHTE35F88H27LFD9UEOYO","A3HQXCWOIQKT4F","3S829FDFT2NBOHQMM1CIOU0HZYXDXL","","678.1999999880791","img/animal4.png","76","680.7999999523163","3","0","2","0.5,0,1,1,0.5,0,0,1,0.5",""
"","html-keyboard-response","47","63396","0.0-47.0","39KFRKBFIOHTE35F88H27LFD9UEOYO","A3HQXCWOIQKT4F","3S829FDFT2NBOHQMM1CIOU0HZYXDXL","","null","<img src=""img/animal4.png"" style=""width:200px;border:14px solid red;"">","null","","","","","",""
"","image-keyboard-response","48","63956","0.0-48.0","39KFRKBFIOHTE35F88H27LFD9UEOYO","A3HQXCWOIQKT4F","3S829FDFT2NBOHQMM1CIOU0HZYXDXL","","556.9000000357628","img/animal3.png","74","559.5","1","1","1","0.5,0,1,1,0.5,0,0,1,0.5",""
"","html-keyboard-response","49","64268","0.0-49.0","39KFRKBFIOHTE35F88H27LFD9UEOYO","A3HQXCWOIQKT4F","3S829FDFT2NBOHQMM1CIOU0HZYXDXL","","null","<img src=""img/animal3.png"" style=""width:200px; border:14px solid green;"">","null","","","","","",""
"","image-keyboard-response","50","65582","0.0-50.0","39KFRKBFIOHTE35F88H27LFD9UEOYO","A3HQXCWOIQKT4F","3S829FDFT2NBOHQMM1CIOU0HZYXDXL","","1312.1000000238419","img/animal2.png","74","1314","1","0","3","0.5,0,1,1,0.5,0,0,1,0.5",""
"","html-keyboard-response","51","65892","0.0-51.0","39KFRKBFIOHTE35F88H27LFD9UEOYO","A3HQXCWOIQKT4F","3S829FDFT2NBOHQMM1CIOU0HZYXDXL","","null","<img src=""img/animal2.png"" style=""width:200px;border:14px solid red;"">","null","","","","","",""
"","image-keyboard-response","52","67434","0.0-52.0","39KFRKBFIOHTE35F88H27LFD9UEOYO","A3HQXCWOIQKT4F","3S829FDFT2NBOHQMM1CIOU0HZYXDXL","","1539.699999988079","img/animal3.png","75","1542.1000000238419","2","0","1","0.5,0,1,1,0.5,0,0,1,0.5",""
"","html-keyboard-response","53","67739","0.0-53.0","39KFRKBFIOHTE35F88H27LFD9UEOYO","A3HQXCWOIQKT4F","3S829FDFT2NBOHQMM1CIOU0HZYXDXL","","null","<img src=""img/animal3.png"" style=""width:200px;border:14px solid red;"">","null","","","","","",""
"","image-keyboard-response","54","68790","0.0-54.0","39KFRKBFIOHTE35F88H27LFD9UEOYO","A3HQXCWOIQKT4F","3S829FDFT2NBOHQMM1CIOU0HZYXDXL","","1047.5","img/animal3.png","74","1050.0999999642372","1","1","1","0.5,0,1,1,0.5,0,0,1,0.5",""
"","html-keyboard-response","55","69099","0.0-55.0","39KFRKBFIOHTE35F88H27LFD9UEOYO","A3HQXCWOIQKT4F","3S829FDFT2NBOHQMM1CIOU0HZYXDXL","","null","<img src=""img/animal3.png"" style=""width:200px; border:14px solid green;"">","null","","","","","",""
"","image-keyboard-response","56","69530","0.0-56.0","39KFRKBFIOHTE35F88H27LFD9UEOYO","A3HQXCWOIQKT4F","3S829FDFT2NBOHQMM1CIOU0HZYXDXL","","428.4000000357628","img/animal3.png","74","431","1","1","1","0.5,0,1,1,0.5,0,0,1,0.5",""
"","html-keyboard-response","57","69835","0.0-57.0","39KFRKBFIOHTE35F88H27LFD9UEOYO","A3HQXCWOIQKT4F","3S829FDFT2NBOHQMM1CIOU0HZYXDXL","","null","<img src=""img/animal3.png"" style=""width:200px; border:14px solid green;"">","null","","","","","",""
"","image-keyboard-response","58","70204","0.0-58.0","39KFRKBFIOHTE35F88H27LFD9UEOYO","A3HQXCWOIQKT4F","3S829FDFT2NBOHQMM1CIOU0HZYXDXL","","365.80000001192093","img/animal3.png","74","368.2000000476837","1","0","1","0.5,0,1,1,0.5,0,0,1,0.5",""
"","html-keyboard-response","59","70508","0.0-59.0","39KFRKBFIOHTE35F88H27LFD9UEOYO","A3HQXCWOIQKT4F","3S829FDFT2NBOHQMM1CIOU0HZYXDXL","","null","<img src=""img/animal3.png"" style=""width:200px;border:14px solid red;"">","null","","","","","",""
"","image-keyboard-response","60","71065","0.0-60.0","39KFRKBFIOHTE35F88H27LFD9UEOYO","A3HQXCWOIQKT4F","3S829FDFT2NBOHQMM1CIOU0HZYXDXL","","555","img/animal3.png","74","557.2999999523163","1","0","1","0.5,0,1,1,0.5,0,0,1,0.5",""
"","html-keyboard-response","61","71372","0.0-61.0","39KFRKBFIOHTE35F88H27LFD9UEOYO","A3HQXCWOIQKT4F","3S829FDFT2NBOHQMM1CIOU0HZYXDXL","","null","<img src=""img/animal3.png"" style=""width:200px;border:14px solid red;"">","null","","","","","",""
"","image-keyboard-response","62","72062","0.0-62.0","39KFRKBFIOHTE35F88H27LFD9UEOYO","A3HQXCWOIQKT4F","3S829FDFT2NBOHQMM1CIOU0HZYXDXL","","687.3000000119209","img/animal2.png","75","689.6999999880791","2","1","3","0.5,0,1,1,0.5,0,0,1,0.5",""
"","html-keyboard-response","63","72372","0.0-63.0","39KFRKBFIOHTE35F88H27LFD9UEOYO","A3HQXCWOIQKT4F","3S829FDFT2NBOHQMM1CIOU0HZYXDXL","","null","<img src=""img/animal2.png"" style=""width:200px; border:14px solid green;"">","null","","","","","",""
"","image-keyboard-response","64","73186","0.0-64.0","39KFRKBFIOHTE35F88H27LFD9UEOYO","A3HQXCWOIQKT4F","3S829FDFT2NBOHQMM1CIOU0HZYXDXL","","810.6000000238419","img/animal3.png","74","813.1000000238419","1","1","1","0.5,0,1,1,0.5,0,0,1,0.5",""
"","html-keyboard-response","65","73492","0.0-65.0","39KFRKBFIOHTE35F88H27LFD9UEOYO","A3HQXCWOIQKT4F","3S829FDFT2NBOHQMM1CIOU0HZYXDXL","","null","<img src=""img/animal3.png"" style=""width:200px; border:14px solid green;"">","null","","","","","",""
"","image-keyboard-response","66","74641","0.0-66.0","39KFRKBFIOHTE35F88H27LFD9UEOYO","A3HQXCWOIQKT4F","3S829FDFT2NBOHQMM1CIOU0HZYXDXL","","1146.199999988079","img/animal4.png","75","1148.5999999642372","2","0","2","0.5,0,1,1,0.5,0,0,1,0.5",""
"","html-keyboard-response","67","74948","0.0-67.0","39KFRKBFIOHTE35F88H27LFD9UEOYO","A3HQXCWOIQKT4F","3S829FDFT2NBOHQMM1CIOU0HZYXDXL","","null","<img src=""img/animal4.png"" style=""width:200px;border:14px solid red;"">","null","","","","","",""
"","image-keyboard-response","68","75862","0.0-68.0","39KFRKBFIOHTE35F88H27LFD9UEOYO","A3HQXCWOIQKT4F","3S829FDFT2NBOHQMM1CIOU0HZYXDXL","","911.3000000119209","img/animal2.png","75","913.9000000357628","2","1","3","0.5,0,1,1,0.5,0,0,1,0.5",""
"","html-keyboard-response","69","76172","0.0-69.0","39KFRKBFIOHTE35F88H27LFD9UEOYO","A3HQXCWOIQKT4F","3S829FDFT2NBOHQMM1CIOU0HZYXDXL","","null","<img src=""img/animal2.png"" style=""width:200px; border:14px solid green;"">","null","","","","","",""
"","image-keyboard-response","70","76951","0.0-70.0","39KFRKBFIOHTE35F88H27LFD9UEOYO","A3HQXCWOIQKT4F","3S829FDFT2NBOHQMM1CIOU0HZYXDXL","","776.4000000357628","img/animal4.png","74","779","1","1","2","0.5,0,1,1,0.5,0,0,1,0.5",""
"","html-keyboard-response","71","77260","0.0-71.0","39KFRKBFIOHTE35F88H27LFD9UEOYO","A3HQXCWOIQKT4F","3S829FDFT2NBOHQMM1CIOU0HZYXDXL","","null","<img src=""img/animal4.png"" style=""width:200px; border:14px solid green;"">","null","","","","","",""
"","image-keyboard-response","72","77683","0.0-72.0","39KFRKBFIOHTE35F88H27LFD9UEOYO","A3HQXCWOIQKT4F","3S829FDFT2NBOHQMM1CIOU0HZYXDXL","","420.2000000476837","img/animal4.png","74","422.60000002384186","1","1","2","0.5,0,1,1,0.5,0,0,1,0.5",""
"","html-keyboard-response","73","77987","0.0-73.0","39KFRKBFIOHTE35F88H27LFD9UEOYO","A3HQXCWOIQKT4F","3S829FDFT2NBOHQMM1CIOU0HZYXDXL","","null","<img src=""img/animal4.png"" style=""width:200px; border:14px solid green;"">","null","","","","","",""
"","image-keyboard-response","74","78543","0.0-74.0","39KFRKBFIOHTE35F88H27LFD9UEOYO","A3HQXCWOIQKT4F","3S829FDFT2NBOHQMM1CIOU0HZYXDXL","","552.9000000357628","img/animal3.png","74","555.5","1","1","1","0.5,0,1,1,0.5,0,0,1,0.5",""
"","html-keyboard-response","75","78852","0.0-75.0","39KFRKBFIOHTE35F88H27LFD9UEOYO","A3HQXCWOIQKT4F","3S829FDFT2NBOHQMM1CIOU0HZYXDXL","","null","<img src=""img/animal3.png"" style=""width:200px; border:14px solid green;"">","null","","","","","",""
"","image-keyboard-response","76","79188","0.0-76.0","39KFRKBFIOHTE35F88H27LFD9UEOYO","A3HQXCWOIQKT4F","3S829FDFT2NBOHQMM1CIOU0HZYXDXL","","332.39999997615814","img/animal3.png","74","335.0999999642372","1","1","1","0.5,0,1,1,0.5,0,0,1,0.5",""
"","html-keyboard-response","77","79500","0.0-77.0","39KFRKBFIOHTE35F88H27LFD9UEOYO","A3HQXCWOIQKT4F","3S829FDFT2NBOHQMM1CIOU0HZYXDXL","","null","<img src=""img/animal3.png"" style=""width:200px; border:14px solid green;"">","null","","","","","",""
"","image-keyboard-response","78","79992","0.0-78.0","39KFRKBFIOHTE35F88H27LFD9UEOYO","A3HQXCWOIQKT4F","3S829FDFT2NBOHQMM1CIOU0HZYXDXL","","488.89999997615814","img/animal4.png","74","491.5999999642372","1","1","2","0.5,0,1,1,0.5,0,0,1,0.5",""
"","html-keyboard-response","79","80299","0.0-79.0","39KFRKBFIOHTE35F88H27LFD9UEOYO","A3HQXCWOIQKT4F","3S829FDFT2NBOHQMM1CIOU0HZYXDXL","","null","<img src=""img/animal4.png"" style=""width:200px; border:14px solid green;"">","null","","","","","",""
"","image-keyboard-response","80","80549","0.0-80.0","39KFRKBFIOHTE35F88H27LFD9UEOYO","A3HQXCWOIQKT4F","3S829FDFT2NBOHQMM1CIOU0HZYXDXL","","247.19999998807907","img/animal3.png","74","249.5","1","0","1","0.5,0,1,1,0.5,0,0,1,0.5",""
"","html-keyboard-response","81","80860","0.0-81.0","39KFRKBFIOHTE35F88H27LFD9UEOYO","A3HQXCWOIQKT4F","3S829FDFT2NBOHQMM1CIOU0HZYXDXL","","null","<img src=""img/animal3.png"" style=""width:200px;border:14px solid red;"">","null","","","","","",""
"","image-keyboard-response","82","82046","0.0-82.0","39KFRKBFIOHTE35F88H27LFD9UEOYO","A3HQXCWOIQKT4F","3S829FDFT2NBOHQMM1CIOU0HZYXDXL","","1183","img/animal4.png","74","1185.5999999642372","1","1","2","0.5,0,1,1,0.5,0,0,1,0.5",""
"","html-keyboard-response","83","82356","0.0-83.0","39KFRKBFIOHTE35F88H27LFD9UEOYO","A3HQXCWOIQKT4F","3S829FDFT2NBOHQMM1CIOU0HZYXDXL","","null","<img src=""img/animal4.png"" style=""width:200px; border:14px solid green;"">","null","","","","","",""
"","image-keyboard-response","84","82789","0.0-84.0","39KFRKBFIOHTE35F88H27LFD9UEOYO","A3HQXCWOIQKT4F","3S829FDFT2NBOHQMM1CIOU0HZYXDXL","","430.19999998807907","img/animal3.png","74","432.80000001192093","1","1","1","0.5,0,1,1,0.5,0,0,1,0.5",""
"","html-keyboard-response","85","83099","0.0-85.0","39KFRKBFIOHTE35F88H27LFD9UEOYO","A3HQXCWOIQKT4F","3S829FDFT2NBOHQMM1CIOU0HZYXDXL","","null","<img src=""img/animal3.png"" style=""width:200px; border:14px solid green;"">","null","","","","","",""
"","image-keyboard-response","86","83934","0.0-86.0","39KFRKBFIOHTE35F88H27LFD9UEOYO","A3HQXCWOIQKT4F","3S829FDFT2NBOHQMM1CIOU0HZYXDXL","","832.1999999880791","img/animal4.png","74","834.8000000119209","1","1","2","0.5,0,1,1,0.5,0,0,1,0.5",""
"","html-keyboard-response","87","84244","0.0-87.0","39KFRKBFIOHTE35F88H27LFD9UEOYO","A3HQXCWOIQKT4F","3S829FDFT2NBOHQMM1CIOU0HZYXDXL","","null","<img src=""img/animal4.png"" style=""width:200px; border:14px solid green;"">","null","","","","","",""
"","image-keyboard-response","88","84569","0.0-88.0","39KFRKBFIOHTE35F88H27LFD9UEOYO","A3HQXCWOIQKT4F","3S829FDFT2NBOHQMM1CIOU0HZYXDXL","","323.19999998807907","img/animal4.png","74","325","1","1","2","0.5,0,1,1,0.5,0,0,1,0.5",""
"","html-keyboard-response","89","84876","0.0-89.0","39KFRKBFIOHTE35F88H27LFD9UEOYO","A3HQXCWOIQKT4F","3S829FDFT2NBOHQMM1CIOU0HZYXDXL","","null","<img src=""img/animal4.png"" style=""width:200px; border:14px solid green;"">","null","","","","","",""
"","image-keyboard-response","90","85191","0.0-90.0","39KFRKBFIOHTE35F88H27LFD9UEOYO","A3HQXCWOIQKT4F","3S829FDFT2NBOHQMM1CIOU0HZYXDXL","","312.0999999642372","img/animal4.png","74","314.5","1","1","2","0.5,0,1,1,0.5,0,0,1,0.5",""
"","html-keyboard-response","91","85500","0.0-91.0","39KFRKBFIOHTE35F88H27LFD9UEOYO","A3HQXCWOIQKT4F","3S829FDFT2NBOHQMM1CIOU0HZYXDXL","","null","<img src=""img/animal4.png"" style=""width:200px; border:14px solid green;"">","null","","","","","",""
"","image-keyboard-response","92","86083","0.0-92.0","39KFRKBFIOHTE35F88H27LFD9UEOYO","A3HQXCWOIQKT4F","3S829FDFT2NBOHQMM1CIOU0HZYXDXL","","579.5","img/animal2.png","75","582.0999999642372","2","1","3","0.5,0,1,1,0.5,0,0,1,0.5",""
"","html-keyboard-response","93","86388","0.0-93.0","39KFRKBFIOHTE35F88H27LFD9UEOYO","A3HQXCWOIQKT4F","3S829FDFT2NBOHQMM1CIOU0HZYXDXL","","null","<img src=""img/animal2.png"" style=""width:200px; border:14px solid green;"">","null","","","","","",""
"","image-keyboard-response","94","86851","0.0-94.0","39KFRKBFIOHTE35F88H27LFD9UEOYO","A3HQXCWOIQKT4F","3S829FDFT2NBOHQMM1CIOU0HZYXDXL","","460.39999997615814","img/animal3.png","74","462.9000000357628","1","0","1","0.5,0,1,1,0.5,0,0,1,0.5",""
"","html-keyboard-response","95","87156","0.0-95.0","39KFRKBFIOHTE35F88H27LFD9UEOYO","A3HQXCWOIQKT4F","3S829FDFT2NBOHQMM1CIOU0HZYXDXL","","null","<img src=""img/animal3.png"" style=""width:200px;border:14px solid red;"">","null","","","","","",""
"","image-keyboard-response","96","87773","0.0-96.0","39KFRKBFIOHTE35F88H27LFD9UEOYO","A3HQXCWOIQKT4F","3S829FDFT2NBOHQMM1CIOU0HZYXDXL","","614","img/animal4.png","74","616.3999999761581","1","1","2","0.5,0,1,1,0.5,0,0,1,0.5",""
"","html-keyboard-response","97","88084","0.0-97.0","39KFRKBFIOHTE35F88H27LFD9UEOYO","A3HQXCWOIQKT4F","3S829FDFT2NBOHQMM1CIOU0HZYXDXL","","null","<img src=""img/animal4.png"" style=""width:200px; border:14px solid green;"">","null","","","","","",""
"","image-keyboard-response","98","88677","0.0-98.0","39KFRKBFIOHTE35F88H27LFD9UEOYO","A3HQXCWOIQKT4F","3S829FDFT2NBOHQMM1CIOU0HZYXDXL","","590.1999999880791","img/animal2.png","75","592.8999999761581","2","1","3","0.5,0,1,1,0.5,0,0,1,0.5",""
"","html-keyboard-response","99","88987","0.0-99.0","39KFRKBFIOHTE35F88H27LFD9UEOYO","A3HQXCWOIQKT4F","3S829FDFT2NBOHQMM1CIOU0HZYXDXL","","null","<img src=""img/animal2.png"" style=""width:200px; border:14px solid green;"">","null","","","","","",""
"","image-keyboard-response","100","89394","0.0-100.0","39KFRKBFIOHTE35F88H27LFD9UEOYO","A3HQXCWOIQKT4F","3S829FDFT2NBOHQMM1CIOU0HZYXDXL","","403.80000001192093","img/animal4.png","74","406.30000001192093","1","1","2","0.5,0,1,1,0.5,0,0,1,0.5",""
"","html-keyboard-response","101","89700","0.0-101.0","39KFRKBFIOHTE35F88H27LFD9UEOYO","A3HQXCWOIQKT4F","3S829FDFT2NBOHQMM1CIOU0HZYXDXL","","null","<img src=""img/animal4.png"" style=""width:200px; border:14px solid green;"">","null","","","","","",""
"","image-keyboard-response","102","89991","0.0-102.0","39KFRKBFIOHTE35F88H27LFD9UEOYO","A3HQXCWOIQKT4F","3S829FDFT2NBOHQMM1CIOU0HZYXDXL","","288.60000002384186","img/animal4.png","74","291","1","1","2","0.5,0,1,1,0.5,0,0,1,0.5",""
"","html-keyboard-response","103","90300","0.0-103.0","39KFRKBFIOHTE35F88H27LFD9UEOYO","A3HQXCWOIQKT4F","3S829FDFT2NBOHQMM1CIOU0HZYXDXL","","null","<img src=""img/animal4.png"" style=""width:200px; border:14px solid green;"">","null","","","","","",""
"","image-keyboard-response","104","90772","0.0-104.0","39KFRKBFIOHTE35F88H27LFD9UEOYO","A3HQXCWOIQKT4F","3S829FDFT2NBOHQMM1CIOU0HZYXDXL","","469","img/animal3.png","74","471.5","1","1","1","0.5,0,1,1,0.5,0,0,1,0.5",""
"","html-keyboard-response","105","91084","0.0-105.0","39KFRKBFIOHTE35F88H27LFD9UEOYO","A3HQXCWOIQKT4F","3S829FDFT2NBOHQMM1CIOU0HZYXDXL","","null","<img src=""img/animal3.png"" style=""width:200px; border:14px solid green;"">","null","","","","","",""
"","image-keyboard-response","106","91727","0.0-106.0","39KFRKBFIOHTE35F88H27LFD9UEOYO","A3HQXCWOIQKT4F","3S829FDFT2NBOHQMM1CIOU0HZYXDXL","","640.3999999761581","img/animal4.png","74","642.3000000119209","1","1","2","0.5,0,1,1,0.5,0,0,1,0.5",""
"","html-keyboard-response","107","92035","0.0-107.0","39KFRKBFIOHTE35F88H27LFD9UEOYO","A3HQXCWOIQKT4F","3S829FDFT2NBOHQMM1CIOU0HZYXDXL","","null","<img src=""img/animal4.png"" style=""width:200px; border:14px solid green;"">","null","","","","","",""
"","image-keyboard-response","108","92312","0.0-108.0","39KFRKBFIOHTE35F88H27LFD9UEOYO","A3HQXCWOIQKT4F","3S829FDFT2NBOHQMM1CIOU0HZYXDXL","","275.30000001192093","img/animal4.png","74","277.30000001192093","1","1","2","0.5,0,1,1,0.5,0,0,1,0.5",""
"","html-keyboard-response","109","92620","0.0-109.0","39KFRKBFIOHTE35F88H27LFD9UEOYO","A3HQXCWOIQKT4F","3S829FDFT2NBOHQMM1CIOU0HZYXDXL","","null","<img src=""img/animal4.png"" style=""width:200px; border:14px solid green;"">","null","","","","","",""
"","image-keyboard-response","110","93099","0.0-110.0","39KFRKBFIOHTE35F88H27LFD9UEOYO","A3HQXCWOIQKT4F","3S829FDFT2NBOHQMM1CIOU0HZYXDXL","","476.60000002384186","img/animal2.png","75","479.10000002384186","2","1","3","0.5,0,1,1,0.5,0,0,1,0.5",""
"","html-keyboard-response","111","93404","0.0-111.0","39KFRKBFIOHTE35F88H27LFD9UEOYO","A3HQXCWOIQKT4F","3S829FDFT2NBOHQMM1CIOU0HZYXDXL","","null","<img src=""img/animal2.png"" style=""width:200px; border:14px solid green;"">","null","","","","","",""
"","image-keyboard-response","112","93775","0.0-112.0","39KFRKBFIOHTE35F88H27LFD9UEOYO","A3HQXCWOIQKT4F","3S829FDFT2NBOHQMM1CIOU0HZYXDXL","","368.5","img/animal4.png","74","370.4000000357628","1","1","2","0.5,0,1,1,0.5,0,0,1,0.5",""
"","html-keyboard-response","113","94083","0.0-113.0","39KFRKBFIOHTE35F88H27LFD9UEOYO","A3HQXCWOIQKT4F","3S829FDFT2NBOHQMM1CIOU0HZYXDXL","","null","<img src=""img/animal4.png"" style=""width:200px; border:14px solid green;"">","null","","","","","",""
"","image-keyboard-response","114","94388","0.0-114.0","39KFRKBFIOHTE35F88H27LFD9UEOYO","A3HQXCWOIQKT4F","3S829FDFT2NBOHQMM1CIOU0HZYXDXL","","302","img/animal4.png","74","304.7000000476837","1","1","2","0.5,0,1,1,0.5,0,0,1,0.5",""
"","html-keyboard-response","115","94692","0.0-115.0","39KFRKBFIOHTE35F88H27LFD9UEOYO","A3HQXCWOIQKT4F","3S829FDFT2NBOHQMM1CIOU0HZYXDXL","","null","<img src=""img/animal4.png"" style=""width:200px; border:14px solid green;"">","null","","","","","",""
"","image-keyboard-response","116","95145","0.0-116.0","39KFRKBFIOHTE35F88H27LFD9UEOYO","A3HQXCWOIQKT4F","3S829FDFT2NBOHQMM1CIOU0HZYXDXL","","450.5","img/animal2.png","75","453.19999998807907","2","1","3","0.5,0,1,1,0.5,0,0,1,0.5",""
"","html-keyboard-response","117","95452","0.0-117.0","39KFRKBFIOHTE35F88H27LFD9UEOYO","A3HQXCWOIQKT4F","3S829FDFT2NBOHQMM1CIOU0HZYXDXL","","null","<img src=""img/animal2.png"" style=""width:200px; border:14px solid green;"">","null","","","","","",""
"","image-keyboard-response","118","95837","0.0-118.0","39KFRKBFIOHTE35F88H27LFD9UEOYO","A3HQXCWOIQKT4F","3S829FDFT2NBOHQMM1CIOU0HZYXDXL","","381.69999998807907","img/animal3.png","74","383.89999997615814","1","0","1","0.5,0,1,1,0.5,0,0,1,0.5",""
"","html-keyboard-response","119","96148","0.0-119.0","39KFRKBFIOHTE35F88H27LFD9UEOYO","A3HQXCWOIQKT4F","3S829FDFT2NBOHQMM1CIOU0HZYXDXL","","null","<img src=""img/animal3.png"" style=""width:200px;border:14px solid red;"">","null","","","","","",""
"","image-keyboard-response","120","96407","0.0-120.0","39KFRKBFIOHTE35F88H27LFD9UEOYO","A3HQXCWOIQKT4F","3S829FDFT2NBOHQMM1CIOU0HZYXDXL","","255.80000001192093","img/animal4.png","74","258.30000001192093","1","1","2","0.5,0,1,1,0.5,0,0,1,0.5",""
"","html-keyboard-response","121","96716","0.0-121.0","39KFRKBFIOHTE35F88H27LFD9UEOYO","A3HQXCWOIQKT4F","3S829FDFT2NBOHQMM1CIOU0HZYXDXL","","null","<img src=""img/animal4.png"" style=""width:200px; border:14px solid green;"">","null","","","","","",""
"","image-keyboard-response","122","97284","0.0-122.0","39KFRKBFIOHTE35F88H27LFD9UEOYO","A3HQXCWOIQKT4F","3S829FDFT2NBOHQMM1CIOU0HZYXDXL","","565.9000000357628","img/animal3.png","74","568","1","1","1","0.5,0,1,1,0.5,0,0,1,0.5",""
"","html-keyboard-response","123","97588","0.0-123.0","39KFRKBFIOHTE35F88H27LFD9UEOYO","A3HQXCWOIQKT4F","3S829FDFT2NBOHQMM1CIOU0HZYXDXL","","null","<img src=""img/animal3.png"" style=""width:200px; border:14px solid green;"">","null","","","","","",""
"","image-keyboard-response","124","98299","0.0-124.0","39KFRKBFIOHTE35F88H27LFD9UEOYO","A3HQXCWOIQKT4F","3S829FDFT2NBOHQMM1CIOU0HZYXDXL","","708.6999999880791","img/animal2.png","75","711.1000000238419","2","1","3","0.5,0,1,1,0.5,0,0,1,0.5",""
"","html-keyboard-response","125","98604","0.0-125.0","39KFRKBFIOHTE35F88H27LFD9UEOYO","A3HQXCWOIQKT4F","3S829FDFT2NBOHQMM1CIOU0HZYXDXL","","null","<img src=""img/animal2.png"" style=""width:200px; border:14px solid green;"">","null","","","","","",""
"","image-keyboard-response","126","99036","0.0-126.0","39KFRKBFIOHTE35F88H27LFD9UEOYO","A3HQXCWOIQKT4F","3S829FDFT2NBOHQMM1CIOU0HZYXDXL","","429.30000001192093","img/animal4.png","74","432.19999998807907","1","1","2","0.5,0,1,1,0.5,0,0,1,0.5",""
"","html-keyboard-response","127","99348","0.0-127.0","39KFRKBFIOHTE35F88H27LFD9UEOYO","A3HQXCWOIQKT4F","3S829FDFT2NBOHQMM1CIOU0HZYXDXL","","null","<img src=""img/animal4.png"" style=""width:200px; border:14px solid green;"">","null","","","","","",""
"","image-keyboard-response","128","99607","0.0-128.0","39KFRKBFIOHTE35F88H27LFD9UEOYO","A3HQXCWOIQKT4F","3S829FDFT2NBOHQMM1CIOU0HZYXDXL","","256.69999998807907","img/animal2.png","74","259","1","0","3","0.5,0,1,1,0.5,0,0,1,0.5",""
"","html-keyboard-response","129","99916","0.0-129.0","39KFRKBFIOHTE35F88H27LFD9UEOYO","A3HQXCWOIQKT4F","3S829FDFT2NBOHQMM1CIOU0HZYXDXL","","null","<img src=""img/animal2.png"" style=""width:200px;border:14px solid red;"">","null","","","","","",""
"","image-keyboard-response","130","100161","0.0-130.0","39KFRKBFIOHTE35F88H27LFD9UEOYO","A3HQXCWOIQKT4F","3S829FDFT2NBOHQMM1CIOU0HZYXDXL","","242.19999998807907","img/animal2.png","75","244.60000002384186","2","1","3","0.5,0,1,1,0.5,0,0,1,0.5",""
"","html-keyboard-response","131","100468","0.0-131.0","39KFRKBFIOHTE35F88H27LFD9UEOYO","A3HQXCWOIQKT4F","3S829FDFT2NBOHQMM1CIOU0HZYXDXL","","null","<img src=""img/animal2.png"" style=""width:200px; border:14px solid green;"">","null","","","","","",""
"","image-keyboard-response","132","100946","0.0-132.0","39KFRKBFIOHTE35F88H27LFD9UEOYO","A3HQXCWOIQKT4F","3S829FDFT2NBOHQMM1CIOU0HZYXDXL","","475","img/animal4.png","74","477.2999999523163","1","1","2","0.5,0,1,1,0.5,0,0,1,0.5",""
"","html-keyboard-response","133","101251","0.0-133.0","39KFRKBFIOHTE35F88H27LFD9UEOYO","A3HQXCWOIQKT4F","3S829FDFT2NBOHQMM1CIOU0HZYXDXL","","null","<img src=""img/animal4.png"" style=""width:200px; border:14px solid green;"">","null","","","","","",""
"","image-keyboard-response","134","101769","0.0-134.0","39KFRKBFIOHTE35F88H27LFD9UEOYO","A3HQXCWOIQKT4F","3S829FDFT2NBOHQMM1CIOU0HZYXDXL","","515.8000000119209","img/animal3.png","74","518.3000000119209","1","0","1","0.5,0,1,1,0.5,0,0,1,0.5",""
"","html-keyboard-response","135","102075","0.0-135.0","39KFRKBFIOHTE35F88H27LFD9UEOYO","A3HQXCWOIQKT4F","3S829FDFT2NBOHQMM1CIOU0HZYXDXL","","null","<img src=""img/animal3.png"" style=""width:200px;border:14px solid red;"">","null","","","","","",""
"","image-keyboard-response","136","102578","0.0-136.0","39KFRKBFIOHTE35F88H27LFD9UEOYO","A3HQXCWOIQKT4F","3S829FDFT2NBOHQMM1CIOU0HZYXDXL","","499.30000001192093","img/animal2.png","74","501.7999999523163","1","0","3","0.5,0,1,1,0.5,0,0,1,0.5",""
"","html-keyboard-response","137","102884","0.0-137.0","39KFRKBFIOHTE35F88H27LFD9UEOYO","A3HQXCWOIQKT4F","3S829FDFT2NBOHQMM1CIOU0HZYXDXL","","null","<img src=""img/animal2.png"" style=""width:200px;border:14px solid red;"">","null","","","","","",""
"","image-keyboard-response","138","103124","0.0-138.0","39KFRKBFIOHTE35F88H27LFD9UEOYO","A3HQXCWOIQKT4F","3S829FDFT2NBOHQMM1CIOU0HZYXDXL","","236.30000001192093","img/animal4.png","75","239.10000002384186","2","0","2","0.5,0,1,1,0.5,0,0,1,0.5",""
"","html-keyboard-response","139","103435","0.0-139.0","39KFRKBFIOHTE35F88H27LFD9UEOYO","A3HQXCWOIQKT4F","3S829FDFT2NBOHQMM1CIOU0HZYXDXL","","null","<img src=""img/animal4.png"" style=""width:200px;border:14px solid red;"">","null","","","","","",""
"","image-keyboard-response","140","104223","0.0-140.0","39KFRKBFIOHTE35F88H27LFD9UEOYO","A3HQXCWOIQKT4F","3S829FDFT2NBOHQMM1CIOU0HZYXDXL","","784.8999999761581","img/animal2.png","74","787.1999999880791","1","0","3","0.5,0,1,1,0.5,0,0,1,0.5",""
"","html-keyboard-response","141","104532","0.0-141.0","39KFRKBFIOHTE35F88H27LFD9UEOYO","A3HQXCWOIQKT4F","3S829FDFT2NBOHQMM1CIOU0HZYXDXL","","null","<img src=""img/animal2.png"" style=""width:200px;border:14px solid red;"">","null","","","","","",""
"","image-keyboard-response","142","105705","0.0-142.0","39KFRKBFIOHTE35F88H27LFD9UEOYO","A3HQXCWOIQKT4F","3S829FDFT2NBOHQMM1CIOU0HZYXDXL","","1170.4000000357628","img/animal3.png","74","1172.3999999761581","1","1","1","0.5,0,1,1,0.5,0,0,1,0.5",""
"","html-keyboard-response","143","106011","0.0-143.0","39KFRKBFIOHTE35F88H27LFD9UEOYO","A3HQXCWOIQKT4F","3S829FDFT2NBOHQMM1CIOU0HZYXDXL","","null","<img src=""img/animal3.png"" style=""width:200px; border:14px solid green;"">","null","","","","","",""
"","image-keyboard-response","144","107896","0.0-144.0","39KFRKBFIOHTE35F88H27LFD9UEOYO","A3HQXCWOIQKT4F","3S829FDFT2NBOHQMM1CIOU0HZYXDXL","","1882.2000000476837","img/animal4.png","74","1884.4000000357628","1","1","2","0.5,0,1,1,0.5,0,0,1,0.5",""
"","html-keyboard-response","145","108203","0.0-145.0","39KFRKBFIOHTE35F88H27LFD9UEOYO","A3HQXCWOIQKT4F","3S829FDFT2NBOHQMM1CIOU0HZYXDXL","","null","<img src=""img/animal4.png"" style=""width:200px; border:14px solid green;"">","null","","","","","",""
"","image-keyboard-response","146","108617","0.0-146.0","39KFRKBFIOHTE35F88H27LFD9UEOYO","A3HQXCWOIQKT4F","3S829FDFT2NBOHQMM1CIOU0HZYXDXL","","410.30000001192093","img/animal2.png","75","413","2","1","3","0.5,0,1,1,0.5,0,0,1,0.5",""
"","html-keyboard-response","147","108924","0.0-147.0","39KFRKBFIOHTE35F88H27LFD9UEOYO","A3HQXCWOIQKT4F","3S829FDFT2NBOHQMM1CIOU0HZYXDXL","","null","<img src=""img/animal2.png"" style=""width:200px; border:14px solid green;"">","null","","","","","",""
"","image-keyboard-response","148","109316","0.0-148.0","39KFRKBFIOHTE35F88H27LFD9UEOYO","A3HQXCWOIQKT4F","3S829FDFT2NBOHQMM1CIOU0HZYXDXL","","389.69999998807907","img/animal2.png","75","391.5","2","1","3","0.5,0,1,1,0.5,0,0,1,0.5",""
"","html-keyboard-response","149","109621","0.0-149.0","39KFRKBFIOHTE35F88H27LFD9UEOYO","A3HQXCWOIQKT4F","3S829FDFT2NBOHQMM1CIOU0HZYXDXL","","null","<img src=""img/animal2.png"" style=""width:200px; border:14px solid green;"">","null","","","","","",""
"","image-keyboard-response","150","109967","0.0-150.0","39KFRKBFIOHTE35F88H27LFD9UEOYO","A3HQXCWOIQKT4F","3S829FDFT2NBOHQMM1CIOU0HZYXDXL","","343.89999997615814","img/animal2.png","75","346","2","1","3","0.5,0,1,1,0.5,0,0,1,0.5",""
"","html-keyboard-response","151","110276","0.0-151.0","39KFRKBFIOHTE35F88H27LFD9UEOYO","A3HQXCWOIQKT4F","3S829FDFT2NBOHQMM1CIOU0HZYXDXL","","null","<img src=""img/animal2.png"" style=""width:200px; border:14px solid green;"">","null","","","","","",""
"","image-keyboard-response","152","110711","0.0-152.0","39KFRKBFIOHTE35F88H27LFD9UEOYO","A3HQXCWOIQKT4F","3S829FDFT2NBOHQMM1CIOU0HZYXDXL","","431.9000000357628","img/animal4.png","74","434.5999999642372","1","1","2","0.5,0,1,1,0.5,0,0,1,0.5",""
"","html-keyboard-response","153","111019","0.0-153.0","39KFRKBFIOHTE35F88H27LFD9UEOYO","A3HQXCWOIQKT4F","3S829FDFT2NBOHQMM1CIOU0HZYXDXL","","null","<img src=""img/animal4.png"" style=""width:200px; border:14px solid green;"">","null","","","","","",""
"","image-keyboard-response","154","112025","0.0-154.0","39KFRKBFIOHTE35F88H27LFD9UEOYO","A3HQXCWOIQKT4F","3S829FDFT2NBOHQMM1CIOU0HZYXDXL","","1003.8000000119209","img/animal2.png","75","1005.7000000476837","2","1","3","0.5,0,1,1,0.5,0,0,1,0.5",""
"","html-keyboard-response","155","112332","0.0-155.0","39KFRKBFIOHTE35F88H27LFD9UEOYO","A3HQXCWOIQKT4F","3S829FDFT2NBOHQMM1CIOU0HZYXDXL","","null","<img src=""img/animal2.png"" style=""width:200px; border:14px solid green;"">","null","","","","","",""
"","image-keyboard-response","156","112775","0.0-156.0","39KFRKBFIOHTE35F88H27LFD9UEOYO","A3HQXCWOIQKT4F","3S829FDFT2NBOHQMM1CIOU0HZYXDXL","","440.2000000476837","img/animal4.png","74","443.19999998807907","1","1","2","0.5,0,1,1,0.5,0,0,1,0.5",""
"","html-keyboard-response","157","113085","0.0-157.0","39KFRKBFIOHTE35F88H27LFD9UEOYO","A3HQXCWOIQKT4F","3S829FDFT2NBOHQMM1CIOU0HZYXDXL","","null","<img src=""img/animal4.png"" style=""width:200px; border:14px solid green;"">","null","","","","","",""
"","image-keyboard-response","158","113426","0.0-158.0","39KFRKBFIOHTE35F88H27LFD9UEOYO","A3HQXCWOIQKT4F","3S829FDFT2NBOHQMM1CIOU0HZYXDXL","","338","img/animal4.png","74","340.7999999523163","1","1","2","0.5,0,1,1,0.5,0,0,1,0.5",""
"","html-keyboard-response","159","113732","0.0-159.0","39KFRKBFIOHTE35F88H27LFD9UEOYO","A3HQXCWOIQKT4F","3S829FDFT2NBOHQMM1CIOU0HZYXDXL","","null","<img src=""img/animal4.png"" style=""width:200px; border:14px solid green;"">","null","","","","","",""
"","image-keyboard-response","160","114034","0.0-160.0","39KFRKBFIOHTE35F88H27LFD9UEOYO","A3HQXCWOIQKT4F","3S829FDFT2NBOHQMM1CIOU0HZYXDXL","","299.5","img/animal4.png","74","302.19999998807907","1","1","2","0.5,0,1,1,0.5,0,0,1,0.5",""
"","html-keyboard-response","161","114340","0.0-161.0","39KFRKBFIOHTE35F88H27LFD9UEOYO","A3HQXCWOIQKT4F","3S829FDFT2NBOHQMM1CIOU0HZYXDXL","","null","<img src=""img/animal4.png"" style=""width:200px; border:14px solid green;"">","null","","","","","",""
"","image-keyboard-response","162","114771","0.0-162.0","39KFRKBFIOHTE35F88H27LFD9UEOYO","A3HQXCWOIQKT4F","3S829FDFT2NBOHQMM1CIOU0HZYXDXL","","428.60000002384186","img/animal2.png","75","431.30000001192093","2","1","3","0.5,0,1,1,0.5,0,0,1,0.5",""
"","html-keyboard-response","163","115076","0.0-163.0","39KFRKBFIOHTE35F88H27LFD9UEOYO","A3HQXCWOIQKT4F","3S829FDFT2NBOHQMM1CIOU0HZYXDXL","","null","<img src=""img/animal2.png"" style=""width:200px; border:14px solid green;"">","null","","","","","",""
"","image-keyboard-response","164","115441","0.0-164.0","39KFRKBFIOHTE35F88H27LFD9UEOYO","A3HQXCWOIQKT4F","3S829FDFT2NBOHQMM1CIOU0HZYXDXL","","361.89999997615814","img/animal4.png","74","364.39999997615814","1","1","2","0.5,0,1,1,0.5,0,0,1,0.5",""
"","html-keyboard-response","165","115748","0.0-165.0","39KFRKBFIOHTE35F88H27LFD9UEOYO","A3HQXCWOIQKT4F","3S829FDFT2NBOHQMM1CIOU0HZYXDXL","","null","<img src=""img/animal4.png"" style=""width:200px; border:14px solid green;"">","null","","","","","",""
"","image-keyboard-response","166","116322","0.0-166.0","39KFRKBFIOHTE35F88H27LFD9UEOYO","A3HQXCWOIQKT4F","3S829FDFT2NBOHQMM1CIOU0HZYXDXL","","571.3999999761581","img/animal3.png","74","573.8999999761581","1","1","1","0.5,0,1,1,0.5,0,0,1,0.5",""
"","html-keyboard-response","167","116628","0.0-167.0","39KFRKBFIOHTE35F88H27LFD9UEOYO","A3HQXCWOIQKT4F","3S829FDFT2NBOHQMM1CIOU0HZYXDXL","","null","<img src=""img/animal3.png"" style=""width:200px; border:14px solid green;"">","null","","","","","",""
"","image-keyboard-response","168","117277","0.0-168.0","39KFRKBFIOHTE35F88H27LFD9UEOYO","A3HQXCWOIQKT4F","3S829FDFT2NBOHQMM1CIOU0HZYXDXL","","645.6999999880791","img/animal2.png","75","648.3000000119209","2","1","3","0.5,0,1,1,0.5,0,0,1,0.5",""
"","html-keyboard-response","169","117588","0.0-169.0","39KFRKBFIOHTE35F88H27LFD9UEOYO","A3HQXCWOIQKT4F","3S829FDFT2NBOHQMM1CIOU0HZYXDXL","","null","<img src=""img/animal2.png"" style=""width:200px; border:14px solid green;"">","null","","","","","",""
"","image-keyboard-response","170","117917","0.0-170.0","39KFRKBFIOHTE35F88H27LFD9UEOYO","A3HQXCWOIQKT4F","3S829FDFT2NBOHQMM1CIOU0HZYXDXL","","325.30000001192093","img/animal2.png","75","327.89999997615814","2","1","3","0.5,0,1,1,0.5,0,0,1,0.5",""
"","html-keyboard-response","171","118228","0.0-171.0","39KFRKBFIOHTE35F88H27LFD9UEOYO","A3HQXCWOIQKT4F","3S829FDFT2NBOHQMM1CIOU0HZYXDXL","","null","<img src=""img/animal2.png"" style=""width:200px; border:14px solid green;"">","null","","","","","",""
"","image-keyboard-response","172","118521","0.0-172.0","39KFRKBFIOHTE35F88H27LFD9UEOYO","A3HQXCWOIQKT4F","3S829FDFT2NBOHQMM1CIOU0HZYXDXL","","289.0999999642372","img/animal2.png","75","291.69999998807907","2","1","3","0.5,0,1,1,0.5,0,0,1,0.5",""
"","html-keyboard-response","173","118828","0.0-173.0","39KFRKBFIOHTE35F88H27LFD9UEOYO","A3HQXCWOIQKT4F","3S829FDFT2NBOHQMM1CIOU0HZYXDXL","","null","<img src=""img/animal2.png"" style=""width:200px; border:14px solid green;"">","null","","","","","",""
"","image-keyboard-response","174","119282","0.0-174.0","39KFRKBFIOHTE35F88H27LFD9UEOYO","A3HQXCWOIQKT4F","3S829FDFT2NBOHQMM1CIOU0HZYXDXL","","451.19999998807907","img/animal4.png","74","453.69999998807907","1","1","2","0.5,0,1,1,0.5,0,0,1,0.5",""
"","html-keyboard-response","175","119588","0.0-175.0","39KFRKBFIOHTE35F88H27LFD9UEOYO","A3HQXCWOIQKT4F","3S829FDFT2NBOHQMM1CIOU0HZYXDXL","","null","<img src=""img/animal4.png"" style=""width:200px; border:14px solid green;"">","null","","","","","",""
"","image-keyboard-response","176","120136","0.0-176.0","39KFRKBFIOHTE35F88H27LFD9UEOYO","A3HQXCWOIQKT4F","3S829FDFT2NBOHQMM1CIOU0HZYXDXL","","545.1999999880791","img/animal3.png","74","547.6000000238419","1","0","1","0.5,0,1,1,0.5,0,0,1,0.5",""
"","html-keyboard-response","177","120445","0.0-177.0","39KFRKBFIOHTE35F88H27LFD9UEOYO","A3HQXCWOIQKT4F","3S829FDFT2NBOHQMM1CIOU0HZYXDXL","","null","<img src=""img/animal3.png"" style=""width:200px;border:14px solid red;"">","null","","","","","",""
"","image-keyboard-response","178","120987","0.0-178.0","39KFRKBFIOHTE35F88H27LFD9UEOYO","A3HQXCWOIQKT4F","3S829FDFT2NBOHQMM1CIOU0HZYXDXL","","540.5","img/animal3.png","74","542.3999999761581","1","0","1","0.5,0,1,1,0.5,0,0,1,0.5",""
"","html-keyboard-response","179","121293","0.0-179.0","39KFRKBFIOHTE35F88H27LFD9UEOYO","A3HQXCWOIQKT4F","3S829FDFT2NBOHQMM1CIOU0HZYXDXL","","null","<img src=""img/animal3.png"" style=""width:200px;border:14px solid red;"">","null","","","","","",""
"","image-keyboard-response","180","122363","0.0-180.0","39KFRKBFIOHTE35F88H27LFD9UEOYO","A3HQXCWOIQKT4F","3S829FDFT2NBOHQMM1CIOU0HZYXDXL","","1067.699999988079","img/animal2.png","75","1070.199999988079","2","1","3","0.5,0,1,1,0.5,0,0,1,0.5",""
"","html-keyboard-response","181","122668","0.0-181.0","39KFRKBFIOHTE35F88H27LFD9UEOYO","A3HQXCWOIQKT4F","3S829FDFT2NBOHQMM1CIOU0HZYXDXL","","null","<img src=""img/animal2.png"" style=""width:200px; border:14px solid green;"">","null","","","","","",""
"","html-keyboard-response","182","124423","0.0-182.0","39KFRKBFIOHTE35F88H27LFD9UEOYO","A3HQXCWOIQKT4F","3S829FDFT2NBOHQMM1CIOU0HZYXDXL","","","","","","","","","",""
"","image-keyboard-response","183","125450","0.0-183.0","39KFRKBFIOHTE35F88H27LFD9UEOYO","A3HQXCWOIQKT4F","3S829FDFT2NBOHQMM1CIOU0HZYXDXL","","1024.0999999642372","img/animal5.png","74","1026.2000000476837","1","1","2","0.7,0,0.8,0.7,0.8,0,0.7,0.8,0",""
"","html-keyboard-response","184","125757","0.0-184.0","39KFRKBFIOHTE35F88H27LFD9UEOYO","A3HQXCWOIQKT4F","3S829FDFT2NBOHQMM1CIOU0HZYXDXL","","null","<img src=""img/animal5.png"" style=""width:200px; border:14px solid green;"">","null","","","","","",""
"","image-keyboard-response","185","126455","0.0-185.0","39KFRKBFIOHTE35F88H27LFD9UEOYO","A3HQXCWOIQKT4F","3S829FDFT2NBOHQMM1CIOU0HZYXDXL","","696","img/animal5.png","74","698","1","0","2","0.7,0,0.8,0.7,0.8,0,0.7,0.8,0",""
"","html-keyboard-response","186","126764","0.0-186.0","39KFRKBFIOHTE35F88H27LFD9UEOYO","A3HQXCWOIQKT4F","3S829FDFT2NBOHQMM1CIOU0HZYXDXL","","null","<img src=""img/animal5.png"" style=""width:200px;border:14px solid red;"">","null","","","","","",""
"","image-keyboard-response","187","127587","0.0-187.0","39KFRKBFIOHTE35F88H27LFD9UEOYO","A3HQXCWOIQKT4F","3S829FDFT2NBOHQMM1CIOU0HZYXDXL","","820","img/animal6.png","75","822.6999999880791","2","0","1","0.7,0,0.8,0.7,0.8,0,0.7,0.8,0",""
"","html-keyboard-response","188","127892","0.0-188.0","39KFRKBFIOHTE35F88H27LFD9UEOYO","A3HQXCWOIQKT4F","3S829FDFT2NBOHQMM1CIOU0HZYXDXL","","null","<img src=""img/animal6.png"" style=""width:200px;border:14px solid red;"">","null","","","","","",""
"","image-keyboard-response","189","128672","0.0-189.0","39KFRKBFIOHTE35F88H27LFD9UEOYO","A3HQXCWOIQKT4F","3S829FDFT2NBOHQMM1CIOU0HZYXDXL","","778","img/animal5.png","74","780.3000000119209","1","0","2","0.7,0,0.8,0.7,0.8,0,0.7,0.8,0",""
"","html-keyboard-response","190","128980","0.0-190.0","39KFRKBFIOHTE35F88H27LFD9UEOYO","A3HQXCWOIQKT4F","3S829FDFT2NBOHQMM1CIOU0HZYXDXL","","null","<img src=""img/animal5.png"" style=""width:200px;border:14px solid red;"">","null","","","","","",""
"","image-keyboard-response","191","130474","0.0-191.0","39KFRKBFIOHTE35F88H27LFD9UEOYO","A3HQXCWOIQKT4F","3S829FDFT2NBOHQMM1CIOU0HZYXDXL","","1490.9000000357628","img/animal1.png","75","1493.3999999761581","2","1","3","0.7,0,0.8,0.7,0.8,0,0.7,0.8,0",""
"","html-keyboard-response","192","130780","0.0-192.0","39KFRKBFIOHTE35F88H27LFD9UEOYO","A3HQXCWOIQKT4F","3S829FDFT2NBOHQMM1CIOU0HZYXDXL","","null","<img src=""img/animal1.png"" style=""width:200px; border:14px solid green;"">","null","","","","","",""
"","image-keyboard-response","193","131191","0.0-193.0","39KFRKBFIOHTE35F88H27LFD9UEOYO","A3HQXCWOIQKT4F","3S829FDFT2NBOHQMM1CIOU0HZYXDXL","","408.60000002384186","img/animal1.png","75","411.2999999523163","2","1","3","0.7,0,0.8,0.7,0.8,0,0.7,0.8,0",""
"","html-keyboard-response","194","131501","0.0-194.0","39KFRKBFIOHTE35F88H27LFD9UEOYO","A3HQXCWOIQKT4F","3S829FDFT2NBOHQMM1CIOU0HZYXDXL","","null","<img src=""img/animal1.png"" style=""width:200px; border:14px solid green;"">","null","","","","","",""
"","image-keyboard-response","195","132583","0.0-195.0","39KFRKBFIOHTE35F88H27LFD9UEOYO","A3HQXCWOIQKT4F","3S829FDFT2NBOHQMM1CIOU0HZYXDXL","","1079.699999988079","img/animal5.png","74","1082.199999988079","1","1","2","0.7,0,0.8,0.7,0.8,0,0.7,0.8,0",""
"","html-keyboard-response","196","132893","0.0-196.0","39KFRKBFIOHTE35F88H27LFD9UEOYO","A3HQXCWOIQKT4F","3S829FDFT2NBOHQMM1CIOU0HZYXDXL","","null","<img src=""img/animal5.png"" style=""width:200px; border:14px solid green;"">","null","","","","","",""
"","image-keyboard-response","197","133635","0.0-197.0","39KFRKBFIOHTE35F88H27LFD9UEOYO","A3HQXCWOIQKT4F","3S829FDFT2NBOHQMM1CIOU0HZYXDXL","","739.8999999761581","img/animal1.png","75","742.1999999880791","2","1","3","0.7,0,0.8,0.7,0.8,0,0.7,0.8,0",""
"","html-keyboard-response","198","133941","0.0-198.0","39KFRKBFIOHTE35F88H27LFD9UEOYO","A3HQXCWOIQKT4F","3S829FDFT2NBOHQMM1CIOU0HZYXDXL","","null","<img src=""img/animal1.png"" style=""width:200px; border:14px solid green;"">","null","","","","","",""
"","image-keyboard-response","199","134380","0.0-199.0","39KFRKBFIOHTE35F88H27LFD9UEOYO","A3HQXCWOIQKT4F","3S829FDFT2NBOHQMM1CIOU0HZYXDXL","","436","img/animal5.png","74","438.69999998807907","1","0","2","0.7,0,0.8,0.7,0.8,0,0.7,0.8,0",""
"","html-keyboard-response","200","134684","0.0-200.0","39KFRKBFIOHTE35F88H27LFD9UEOYO","A3HQXCWOIQKT4F","3S829FDFT2NBOHQMM1CIOU0HZYXDXL","","null","<img src=""img/animal5.png"" style=""width:200px;border:14px solid red;"">","null","","","","","",""
"","image-keyboard-response","201","135423","0.0-201.0","39KFRKBFIOHTE35F88H27LFD9UEOYO","A3HQXCWOIQKT4F","3S829FDFT2NBOHQMM1CIOU0HZYXDXL","","736.5","img/animal1.png","75","738.8000000119209","2","1","3","0.7,0,0.8,0.7,0.8,0,0.7,0.8,0",""
"","html-keyboard-response","202","135732","0.0-202.0","39KFRKBFIOHTE35F88H27LFD9UEOYO","A3HQXCWOIQKT4F","3S829FDFT2NBOHQMM1CIOU0HZYXDXL","","null","<img src=""img/animal1.png"" style=""width:200px; border:14px solid green;"">","null","","","","","",""
"","image-keyboard-response","203","136216","0.0-203.0","39KFRKBFIOHTE35F88H27LFD9UEOYO","A3HQXCWOIQKT4F","3S829FDFT2NBOHQMM1CIOU0HZYXDXL","","480.5","img/animal5.png","74","483.10000002384186","1","1","2","0.7,0,0.8,0.7,0.8,0,0.7,0.8,0",""
"","html-keyboard-response","204","136524","0.0-204.0","39KFRKBFIOHTE35F88H27LFD9UEOYO","A3HQXCWOIQKT4F","3S829FDFT2NBOHQMM1CIOU0HZYXDXL","","null","<img src=""img/animal5.png"" style=""width:200px; border:14px solid green;"">","null","","","","","",""
"","image-keyboard-response","205","137384","0.0-205.0","39KFRKBFIOHTE35F88H27LFD9UEOYO","A3HQXCWOIQKT4F","3S829FDFT2NBOHQMM1CIOU0HZYXDXL","","856.8999999761581","img/animal6.png","76","859.5","3","1","1","0.7,0,0.8,0.7,0.8,0,0.7,0.8,0",""
"","html-keyboard-response","206","137692","0.0-206.0","39KFRKBFIOHTE35F88H27LFD9UEOYO","A3HQXCWOIQKT4F","3S829FDFT2NBOHQMM1CIOU0HZYXDXL","","null","<img src=""img/animal6.png"" style=""width:200px; border:14px solid green;"">","null","","","","","",""
"","image-keyboard-response","207","138078","0.0-207.0","39KFRKBFIOHTE35F88H27LFD9UEOYO","A3HQXCWOIQKT4F","3S829FDFT2NBOHQMM1CIOU0HZYXDXL","","382.0999999642372","img/animal6.png","76","385.39999997615814","3","0","1","0.7,0,0.8,0.7,0.8,0,0.7,0.8,0",""
"","html-keyboard-response","208","138389","0.0-208.0","39KFRKBFIOHTE35F88H27LFD9UEOYO","A3HQXCWOIQKT4F","3S829FDFT2NBOHQMM1CIOU0HZYXDXL","","null","<img src=""img/animal6.png"" style=""width:200px;border:14px solid red;"">","null","","","","","",""
"","image-keyboard-response","209","139101","0.0-209.0","39KFRKBFIOHTE35F88H27LFD9UEOYO","A3HQXCWOIQKT4F","3S829FDFT2NBOHQMM1CIOU0HZYXDXL","","709.6999999880791","img/animal5.png","74","712.1999999880791","1","1","2","0.7,0,0.8,0.7,0.8,0,0.7,0.8,0",""
"","html-keyboard-response","210","139412","0.0-210.0","39KFRKBFIOHTE35F88H27LFD9UEOYO","A3HQXCWOIQKT4F","3S829FDFT2NBOHQMM1CIOU0HZYXDXL","","null","<img src=""img/animal5.png"" style=""width:200px; border:14px solid green;"">","null","","","","","",""
"","image-keyboard-response","211","139764","0.0-211.0","39KFRKBFIOHTE35F88H27LFD9UEOYO","A3HQXCWOIQKT4F","3S829FDFT2NBOHQMM1CIOU0HZYXDXL","","348.5","img/animal5.png","74","351.19999998807907","1","1","2","0.7,0,0.8,0.7,0.8,0,0.7,0.8,0",""
"","html-keyboard-response","212","140068","0.0-212.0","39KFRKBFIOHTE35F88H27LFD9UEOYO","A3HQXCWOIQKT4F","3S829FDFT2NBOHQMM1CIOU0HZYXDXL","","null","<img src=""img/animal5.png"" style=""width:200px; border:14px solid green;"">","null","","","","","",""
"","image-keyboard-response","213","140735","0.0-213.0","39KFRKBFIOHTE35F88H27LFD9UEOYO","A3HQXCWOIQKT4F","3S829FDFT2NBOHQMM1CIOU0HZYXDXL","","662.8999999761581","img/animal6.png","76","666","3","1","1","0.7,0,0.8,0.7,0.8,0,0.7,0.8,0",""
"","html-keyboard-response","214","141045","0.0-214.0","39KFRKBFIOHTE35F88H27LFD9UEOYO","A3HQXCWOIQKT4F","3S829FDFT2NBOHQMM1CIOU0HZYXDXL","","null","<img src=""img/animal6.png"" style=""width:200px; border:14px solid green;"">","null","","","","","",""
"","image-keyboard-response","215","141894","0.0-215.0","39KFRKBFIOHTE35F88H27LFD9UEOYO","A3HQXCWOIQKT4F","3S829FDFT2NBOHQMM1CIOU0HZYXDXL","","846.8999999761581","img/animal1.png","75","849.4000000357628","2","1","3","0.7,0,0.8,0.7,0.8,0,0.7,0.8,0",""
"","html-keyboard-response","216","142205","0.0-216.0","39KFRKBFIOHTE35F88H27LFD9UEOYO","A3HQXCWOIQKT4F","3S829FDFT2NBOHQMM1CIOU0HZYXDXL","","null","<img src=""img/animal1.png"" style=""width:200px; border:14px solid green;"">","null","","","","","",""
"","image-keyboard-response","217","142652","0.0-217.0","39KFRKBFIOHTE35F88H27LFD9UEOYO","A3HQXCWOIQKT4F","3S829FDFT2NBOHQMM1CIOU0HZYXDXL","","444.30000001192093","img/animal5.png","74","446.5","1","1","2","0.7,0,0.8,0.7,0.8,0,0.7,0.8,0",""
"","html-keyboard-response","218","142956","0.0-218.0","39KFRKBFIOHTE35F88H27LFD9UEOYO","A3HQXCWOIQKT4F","3S829FDFT2NBOHQMM1CIOU0HZYXDXL","","null","<img src=""img/animal5.png"" style=""width:200px; border:14px solid green;"">","null","","","","","",""
"","image-keyboard-response","219","144749","0.0-219.0","39KFRKBFIOHTE35F88H27LFD9UEOYO","A3HQXCWOIQKT4F","3S829FDFT2NBOHQMM1CIOU0HZYXDXL","","1789.5","img/animal1.png","75","1792.300000011921","2","1","3","0.7,0,0.8,0.7,0.8,0,0.7,0.8,0",""
"","html-keyboard-response","220","145060","0.0-220.0","39KFRKBFIOHTE35F88H27LFD9UEOYO","A3HQXCWOIQKT4F","3S829FDFT2NBOHQMM1CIOU0HZYXDXL","","null","<img src=""img/animal1.png"" style=""width:200px; border:14px solid green;"">","null","","","","","",""
"","image-keyboard-response","221","145373","0.0-221.0","39KFRKBFIOHTE35F88H27LFD9UEOYO","A3HQXCWOIQKT4F","3S829FDFT2NBOHQMM1CIOU0HZYXDXL","","309.60000002384186","img/animal1.png","75","312","2","0","3","0.7,0,0.8,0.7,0.8,0,0.7,0.8,0",""
"","html-keyboard-response","222","145685","0.0-222.0","39KFRKBFIOHTE35F88H27LFD9UEOYO","A3HQXCWOIQKT4F","3S829FDFT2NBOHQMM1CIOU0HZYXDXL","","null","<img src=""img/animal1.png"" style=""width:200px;border:14px solid red;"">","null","","","","","",""
"","image-keyboard-response","223","146013","0.0-223.0","39KFRKBFIOHTE35F88H27LFD9UEOYO","A3HQXCWOIQKT4F","3S829FDFT2NBOHQMM1CIOU0HZYXDXL","","325.9000000357628","img/animal1.png","75","328.39999997615814","2","1","3","0.7,0,0.8,0.7,0.8,0,0.7,0.8,0",""
"","html-keyboard-response","224","146324","0.0-224.0","39KFRKBFIOHTE35F88H27LFD9UEOYO","A3HQXCWOIQKT4F","3S829FDFT2NBOHQMM1CIOU0HZYXDXL","","null","<img src=""img/animal1.png"" style=""width:200px; border:14px solid green;"">","null","","","","","",""
"","image-keyboard-response","225","147245","0.0-225.0","39KFRKBFIOHTE35F88H27LFD9UEOYO","A3HQXCWOIQKT4F","3S829FDFT2NBOHQMM1CIOU0HZYXDXL","","917.6000000238419","img/animal6.png","76","920.1000000238419","3","1","1","0.7,0,0.8,0.7,0.8,0,0.7,0.8,0",""
"","html-keyboard-response","226","147556","0.0-226.0","39KFRKBFIOHTE35F88H27LFD9UEOYO","A3HQXCWOIQKT4F","3S829FDFT2NBOHQMM1CIOU0HZYXDXL","","null","<img src=""img/animal6.png"" style=""width:200px; border:14px solid green;"">","null","","","","","",""
"","image-keyboard-response","227","147829","0.0-227.0","39KFRKBFIOHTE35F88H27LFD9UEOYO","A3HQXCWOIQKT4F","3S829FDFT2NBOHQMM1CIOU0HZYXDXL","","270.2000000476837","img/animal6.png","76","272.5","3","1","1","0.7,0,0.8,0.7,0.8,0,0.7,0.8,0",""
"","html-keyboard-response","228","148141","0.0-228.0","39KFRKBFIOHTE35F88H27LFD9UEOYO","A3HQXCWOIQKT4F","3S829FDFT2NBOHQMM1CIOU0HZYXDXL","","null","<img src=""img/animal6.png"" style=""width:200px; border:14px solid green;"">","null","","","","","",""
"","image-keyboard-response","229","148702","0.0-229.0","39KFRKBFIOHTE35F88H27LFD9UEOYO","A3HQXCWOIQKT4F","3S829FDFT2NBOHQMM1CIOU0HZYXDXL","","558.7999999523163","img/animal5.png","74","561.3999999761581","1","0","2","0.7,0,0.8,0.7,0.8,0,0.7,0.8,0",""
"","html-keyboard-response","230","149013","0.0-230.0","39KFRKBFIOHTE35F88H27LFD9UEOYO","A3HQXCWOIQKT4F","3S829FDFT2NBOHQMM1CIOU0HZYXDXL","","null","<img src=""img/animal5.png"" style=""width:200px;border:14px solid red;"">","null","","","","","",""
"","image-keyboard-response","231","149810","0.0-231.0","39KFRKBFIOHTE35F88H27LFD9UEOYO","A3HQXCWOIQKT4F","3S829FDFT2NBOHQMM1CIOU0HZYXDXL","","794.3000000119209","img/animal6.png","76","796.6999999880791","3","1","1","0.7,0,0.8,0.7,0.8,0,0.7,0.8,0",""
"","html-keyboard-response","232","150117","0.0-232.0","39KFRKBFIOHTE35F88H27LFD9UEOYO","A3HQXCWOIQKT4F","3S829FDFT2NBOHQMM1CIOU0HZYXDXL","","null","<img src=""img/animal6.png"" style=""width:200px; border:14px solid green;"">","null","","","","","",""
"","image-keyboard-response","233","150398","0.0-233.0","39KFRKBFIOHTE35F88H27LFD9UEOYO","A3HQXCWOIQKT4F","3S829FDFT2NBOHQMM1CIOU0HZYXDXL","","278","img/animal6.png","76","280.80000001192093","3","1","1","0.7,0,0.8,0.7,0.8,0,0.7,0.8,0",""
"","html-keyboard-response","234","150709","0.0-234.0","39KFRKBFIOHTE35F88H27LFD9UEOYO","A3HQXCWOIQKT4F","3S829FDFT2NBOHQMM1CIOU0HZYXDXL","","null","<img src=""img/animal6.png"" style=""width:200px; border:14px solid green;"">","null","","","","","",""
"","image-keyboard-response","235","151181","0.0-235.0","39KFRKBFIOHTE35F88H27LFD9UEOYO","A3HQXCWOIQKT4F","3S829FDFT2NBOHQMM1CIOU0HZYXDXL","","469.30000001192093","img/animal1.png","74","471.69999998807907","1","1","3","0.7,0,0.8,0.7,0.8,0,0.7,0.8,0",""
"","html-keyboard-response","236","151484","0.0-236.0","39KFRKBFIOHTE35F88H27LFD9UEOYO","A3HQXCWOIQKT4F","3S829FDFT2NBOHQMM1CIOU0HZYXDXL","","null","<img src=""img/animal1.png"" style=""width:200px; border:14px solid green;"">","null","","","","","",""
"","image-keyboard-response","237","152613","0.0-237.0","39KFRKBFIOHTE35F88H27LFD9UEOYO","A3HQXCWOIQKT4F","3S829FDFT2NBOHQMM1CIOU0HZYXDXL","","1126.0999999642372","img/animal1.png","74","1128","1","0","3","0.7,0,0.8,0.7,0.8,0,0.7,0.8,0",""
"","html-keyboard-response","238","152916","0.0-238.0","39KFRKBFIOHTE35F88H27LFD9UEOYO","A3HQXCWOIQKT4F","3S829FDFT2NBOHQMM1CIOU0HZYXDXL","","null","<img src=""img/animal1.png"" style=""width:200px;border:14px solid red;"">","null","","","","","",""
"","image-keyboard-response","239","153822","0.0-239.0","39KFRKBFIOHTE35F88H27LFD9UEOYO","A3HQXCWOIQKT4F","3S829FDFT2NBOHQMM1CIOU0HZYXDXL","","902.9000000357628","img/animal5.png","74","905.3000000119209","1","0","2","0.7,0,0.8,0.7,0.8,0,0.7,0.8,0",""
"","html-keyboard-response","240","154133","0.0-240.0","39KFRKBFIOHTE35F88H27LFD9UEOYO","A3HQXCWOIQKT4F","3S829FDFT2NBOHQMM1CIOU0HZYXDXL","","null","<img src=""img/animal5.png"" style=""width:200px;border:14px solid red;"">","null","","","","","",""
"","image-keyboard-response","241","154413","0.0-241.0","39KFRKBFIOHTE35F88H27LFD9UEOYO","A3HQXCWOIQKT4F","3S829FDFT2NBOHQMM1CIOU0HZYXDXL","","277","img/animal5.png","74","279.69999998807907","1","1","2","0.7,0,0.8,0.7,0.8,0,0.7,0.8,0",""
"","html-keyboard-response","242","154724","0.0-242.0","39KFRKBFIOHTE35F88H27LFD9UEOYO","A3HQXCWOIQKT4F","3S829FDFT2NBOHQMM1CIOU0HZYXDXL","","null","<img src=""img/animal5.png"" style=""width:200px; border:14px solid green;"">","null","","","","","",""
"","image-keyboard-response","243","155052","0.0-243.0","39KFRKBFIOHTE35F88H27LFD9UEOYO","A3HQXCWOIQKT4F","3S829FDFT2NBOHQMM1CIOU0HZYXDXL","","324.60000002384186","img/animal5.png","74","327.2999999523163","1","1","2","0.7,0,0.8,0.7,0.8,0,0.7,0.8,0",""
"","html-keyboard-response","244","155357","0.0-244.0","39KFRKBFIOHTE35F88H27LFD9UEOYO","A3HQXCWOIQKT4F","3S829FDFT2NBOHQMM1CIOU0HZYXDXL","","null","<img src=""img/animal5.png"" style=""width:200px; border:14px solid green;"">","null","","","","","",""
"","image-keyboard-response","245","155750","0.0-245.0","39KFRKBFIOHTE35F88H27LFD9UEOYO","A3HQXCWOIQKT4F","3S829FDFT2NBOHQMM1CIOU0HZYXDXL","","389.80000001192093","img/animal6.png","74","392.39999997615814","1","1","1","0.7,0,0.8,0.7,0.8,0,0.7,0.8,0",""
"","html-keyboard-response","246","156061","0.0-246.0","39KFRKBFIOHTE35F88H27LFD9UEOYO","A3HQXCWOIQKT4F","3S829FDFT2NBOHQMM1CIOU0HZYXDXL","","null","<img src=""img/animal6.png"" style=""width:200px; border:14px solid green;"">","null","","","","","",""
"","image-keyboard-response","247","156755","0.0-247.0","39KFRKBFIOHTE35F88H27LFD9UEOYO","A3HQXCWOIQKT4F","3S829FDFT2NBOHQMM1CIOU0HZYXDXL","","691.5","img/animal1.png","74","694","1","1","3","0.7,0,0.8,0.7,0.8,0,0.7,0.8,0",""
"","html-keyboard-response","248","157060","0.0-248.0","39KFRKBFIOHTE35F88H27LFD9UEOYO","A3HQXCWOIQKT4F","3S829FDFT2NBOHQMM1CIOU0HZYXDXL","","null","<img src=""img/animal1.png"" style=""width:200px; border:14px solid green;"">","null","","","","","",""
"","image-keyboard-response","249","157426","0.0-249.0","39KFRKBFIOHTE35F88H27LFD9UEOYO","A3HQXCWOIQKT4F","3S829FDFT2NBOHQMM1CIOU0HZYXDXL","","362.5","img/animal5.png","74","365","1","1","2","0.7,0,0.8,0.7,0.8,0,0.7,0.8,0",""
"","html-keyboard-response","250","157731","0.0-250.0","39KFRKBFIOHTE35F88H27LFD9UEOYO","A3HQXCWOIQKT4F","3S829FDFT2NBOHQMM1CIOU0HZYXDXL","","null","<img src=""img/animal5.png"" style=""width:200px; border:14px solid green;"">","null","","","","","",""
"","image-keyboard-response","251","157992","0.0-251.0","39KFRKBFIOHTE35F88H27LFD9UEOYO","A3HQXCWOIQKT4F","3S829FDFT2NBOHQMM1CIOU0HZYXDXL","","257.5999999642372","img/animal1.png","74","260.10000002384186","1","1","3","0.7,0,0.8,0.7,0.8,0,0.7,0.8,0",""
"","html-keyboard-response","252","158300","0.0-252.0","39KFRKBFIOHTE35F88H27LFD9UEOYO","A3HQXCWOIQKT4F","3S829FDFT2NBOHQMM1CIOU0HZYXDXL","","null","<img src=""img/animal1.png"" style=""width:200px; border:14px solid green;"">","null","","","","","",""
"","image-keyboard-response","253","158619","0.0-253.0","39KFRKBFIOHTE35F88H27LFD9UEOYO","A3HQXCWOIQKT4F","3S829FDFT2NBOHQMM1CIOU0HZYXDXL","","316.5999999642372","img/animal6.png","74","318.80000001192093","1","0","1","0.7,0,0.8,0.7,0.8,0,0.7,0.8,0",""
"","html-keyboard-response","254","158924","0.0-254.0","39KFRKBFIOHTE35F88H27LFD9UEOYO","A3HQXCWOIQKT4F","3S829FDFT2NBOHQMM1CIOU0HZYXDXL","","null","<img src=""img/animal6.png"" style=""width:200px;border:14px solid red;"">","null","","","","","",""
"","image-keyboard-response","255","159339","0.0-255.0","39KFRKBFIOHTE35F88H27LFD9UEOYO","A3HQXCWOIQKT4F","3S829FDFT2NBOHQMM1CIOU0HZYXDXL","","411.39999997615814","img/animal6.png","74","414","1","1","1","0.7,0,0.8,0.7,0.8,0,0.7,0.8,0",""
"","html-keyboard-response","256","159644","0.0-256.0","39KFRKBFIOHTE35F88H27LFD9UEOYO","A3HQXCWOIQKT4F","3S829FDFT2NBOHQMM1CIOU0HZYXDXL","","null","<img src=""img/animal6.png"" style=""width:200px; border:14px solid green;"">","null","","","","","",""
"","image-keyboard-response","257","159963","0.0-257.0","39KFRKBFIOHTE35F88H27LFD9UEOYO","A3HQXCWOIQKT4F","3S829FDFT2NBOHQMM1CIOU0HZYXDXL","","316.2999999523163","img/animal6.png","74","318.5999999642372","1","0","1","0.7,0,0.8,0.7,0.8,0,0.7,0.8,0",""
"","html-keyboard-response","258","160269","0.0-258.0","39KFRKBFIOHTE35F88H27LFD9UEOYO","A3HQXCWOIQKT4F","3S829FDFT2NBOHQMM1CIOU0HZYXDXL","","null","<img src=""img/animal6.png"" style=""width:200px;border:14px solid red;"">","null","","","","","",""
"","image-keyboard-response","259","163330","0.0-259.0","39KFRKBFIOHTE35F88H27LFD9UEOYO","A3HQXCWOIQKT4F","3S829FDFT2NBOHQMM1CIOU0HZYXDXL","","3058.699999988079","img/animal1.png","74","3061.300000011921","1","1","3","0.7,0,0.8,0.7,0.8,0,0.7,0.8,0",""
"","html-keyboard-response","260","163637","0.0-260.0","39KFRKBFIOHTE35F88H27LFD9UEOYO","A3HQXCWOIQKT4F","3S829FDFT2NBOHQMM1CIOU0HZYXDXL","","null","<img src=""img/animal1.png"" style=""width:200px; border:14px solid green;"">","null","","","","","",""
"","image-keyboard-response","261","163920","0.0-261.0","39KFRKBFIOHTE35F88H27LFD9UEOYO","A3HQXCWOIQKT4F","3S829FDFT2NBOHQMM1CIOU0HZYXDXL","","280.10000002384186","img/animal1.png","74","282.19999998807907","1","1","3","0.7,0,0.8,0.7,0.8,0,0.7,0.8,0",""
"","html-keyboard-response","262","164228","0.0-262.0","39KFRKBFIOHTE35F88H27LFD9UEOYO","A3HQXCWOIQKT4F","3S829FDFT2NBOHQMM1CIOU0HZYXDXL","","null","<img src=""img/animal1.png"" style=""width:200px; border:14px solid green;"">","null","","","","","",""
"","image-keyboard-response","263","164998","0.0-263.0","39KFRKBFIOHTE35F88H27LFD9UEOYO","A3HQXCWOIQKT4F","3S829FDFT2NBOHQMM1CIOU0HZYXDXL","","768.0999999642372","img/animal6.png","75","770.5","2","0","1","0.7,0,0.8,0.7,0.8,0,0.7,0.8,0",""
"","html-keyboard-response","264","165309","0.0-264.0","39KFRKBFIOHTE35F88H27LFD9UEOYO","A3HQXCWOIQKT4F","3S829FDFT2NBOHQMM1CIOU0HZYXDXL","","null","<img src=""img/animal6.png"" style=""width:200px;border:14px solid red;"">","null","","","","","",""
"","image-keyboard-response","265","166919","0.0-265.0","39KFRKBFIOHTE35F88H27LFD9UEOYO","A3HQXCWOIQKT4F","3S829FDFT2NBOHQMM1CIOU0HZYXDXL","","1606.800000011921","img/animal6.png","76","1609.2999999523163","3","0","1","0.7,0,0.8,0.7,0.8,0,0.7,0.8,0",""
"","html-keyboard-response","266","167228","0.0-266.0","39KFRKBFIOHTE35F88H27LFD9UEOYO","A3HQXCWOIQKT4F","3S829FDFT2NBOHQMM1CIOU0HZYXDXL","","null","<img src=""img/animal6.png"" style=""width:200px;border:14px solid red;"">","null","","","","","",""
"","image-keyboard-response","267","167500","0.0-267.0","39KFRKBFIOHTE35F88H27LFD9UEOYO","A3HQXCWOIQKT4F","3S829FDFT2NBOHQMM1CIOU0HZYXDXL","","269.5","img/animal5.png","76","272.0999999642372","3","0","2","0.7,0,0.8,0.7,0.8,0,0.7,0.8,0",""
"","html-keyboard-response","268","167805","0.0-268.0","39KFRKBFIOHTE35F88H27LFD9UEOYO","A3HQXCWOIQKT4F","3S829FDFT2NBOHQMM1CIOU0HZYXDXL","","null","<img src=""img/animal5.png"" style=""width:200px;border:14px solid red;"">","null","","","","","",""
"","image-keyboard-response","269","168440","0.0-269.0","39KFRKBFIOHTE35F88H27LFD9UEOYO","A3HQXCWOIQKT4F","3S829FDFT2NBOHQMM1CIOU0HZYXDXL","","631.8999999761581","img/animal5.png","74","634.4000000357628","1","1","2","0.7,0,0.8,0.7,0.8,0,0.7,0.8,0",""
"","html-keyboard-response","270","168749","0.0-270.0","39KFRKBFIOHTE35F88H27LFD9UEOYO","A3HQXCWOIQKT4F","3S829FDFT2NBOHQMM1CIOU0HZYXDXL","","null","<img src=""img/animal5.png"" style=""width:200px; border:14px solid green;"">","null","","","","","",""
"","image-keyboard-response","271","169827","0.0-271.0","39KFRKBFIOHTE35F88H27LFD9UEOYO","A3HQXCWOIQKT4F","3S829FDFT2NBOHQMM1CIOU0HZYXDXL","","1074.6000000238419","img/animal6.png","76","1077.199999988079","3","1","1","0.7,0,0.8,0.7,0.8,0,0.7,0.8,0",""
"","html-keyboard-response","272","170132","0.0-272.0","39KFRKBFIOHTE35F88H27LFD9UEOYO","A3HQXCWOIQKT4F","3S829FDFT2NBOHQMM1CIOU0HZYXDXL","","null","<img src=""img/animal6.png"" style=""width:200px; border:14px solid green;"">","null","","","","","",""
"","image-keyboard-response","273","170489","0.0-273.0","39KFRKBFIOHTE35F88H27LFD9UEOYO","A3HQXCWOIQKT4F","3S829FDFT2NBOHQMM1CIOU0HZYXDXL","","353.69999998807907","img/animal6.png","76","356.30000001192093","3","0","1","0.7,0,0.8,0.7,0.8,0,0.7,0.8,0",""
"","html-keyboard-response","274","170796","0.0-274.0","39KFRKBFIOHTE35F88H27LFD9UEOYO","A3HQXCWOIQKT4F","3S829FDFT2NBOHQMM1CIOU0HZYXDXL","","null","<img src=""img/animal6.png"" style=""width:200px;border:14px solid red;"">","null","","","","","",""
"","image-keyboard-response","275","171414","0.0-275.0","39KFRKBFIOHTE35F88H27LFD9UEOYO","A3HQXCWOIQKT4F","3S829FDFT2NBOHQMM1CIOU0HZYXDXL","","613.9000000357628","img/animal5.png","74","617.0999999642372","1","1","2","0.7,0,0.8,0.7,0.8,0,0.7,0.8,0",""
"","html-keyboard-response","276","171724","0.0-276.0","39KFRKBFIOHTE35F88H27LFD9UEOYO","A3HQXCWOIQKT4F","3S829FDFT2NBOHQMM1CIOU0HZYXDXL","","null","<img src=""img/animal5.png"" style=""width:200px; border:14px solid green;"">","null","","","","","",""
"","image-keyboard-response","277","172338","0.0-277.0","39KFRKBFIOHTE35F88H27LFD9UEOYO","A3HQXCWOIQKT4F","3S829FDFT2NBOHQMM1CIOU0HZYXDXL","","610.1999999880791","img/animal6.png","76","613.3000000119209","3","0","1","0.7,0,0.8,0.7,0.8,0,0.7,0.8,0",""
"","html-keyboard-response","278","172645","0.0-278.0","39KFRKBFIOHTE35F88H27LFD9UEOYO","A3HQXCWOIQKT4F","3S829FDFT2NBOHQMM1CIOU0HZYXDXL","","null","<img src=""img/animal6.png"" style=""width:200px;border:14px solid red;"">","null","","","","","",""
"","image-keyboard-response","279","174496","0.0-279.0","39KFRKBFIOHTE35F88H27LFD9UEOYO","A3HQXCWOIQKT4F","3S829FDFT2NBOHQMM1CIOU0HZYXDXL","","1848.7000000476837","img/animal1.png","75","1851.199999988079","2","0","3","0.7,0,0.8,0.7,0.8,0,0.7,0.8,0",""
"","html-keyboard-response","280","174805","0.0-280.0","39KFRKBFIOHTE35F88H27LFD9UEOYO","A3HQXCWOIQKT4F","3S829FDFT2NBOHQMM1CIOU0HZYXDXL","","null","<img src=""img/animal1.png"" style=""width:200px;border:14px solid red;"">","null","","","","","",""
"","image-keyboard-response","281","176418","0.0-281.0","39KFRKBFIOHTE35F88H27LFD9UEOYO","A3HQXCWOIQKT4F","3S829FDFT2NBOHQMM1CIOU0HZYXDXL","","1610.3999999761581","img/animal6.png","74","1612.1000000238419","1","1","1","0.7,0,0.8,0.7,0.8,0,0.7,0.8,0",""
"","html-keyboard-response","282","176725","0.0-282.0","39KFRKBFIOHTE35F88H27LFD9UEOYO","A3HQXCWOIQKT4F","3S829FDFT2NBOHQMM1CIOU0HZYXDXL","","null","<img src=""img/animal6.png"" style=""width:200px; border:14px solid green;"">","null","","","","","",""
"","image-keyboard-response","283","177284","0.0-283.0","39KFRKBFIOHTE35F88H27LFD9UEOYO","A3HQXCWOIQKT4F","3S829FDFT2NBOHQMM1CIOU0HZYXDXL","","556.8999999761581","img/animal1.png","74","559","1","1","3","0.7,0,0.8,0.7,0.8,0,0.7,0.8,0",""
"","html-keyboard-response","284","177589","0.0-284.0","39KFRKBFIOHTE35F88H27LFD9UEOYO","A3HQXCWOIQKT4F","3S829FDFT2NBOHQMM1CIOU0HZYXDXL","","null","<img src=""img/animal1.png"" style=""width:200px; border:14px solid green;"">","null","","","","","",""
"","image-keyboard-response","285","177991","0.0-285.0","39KFRKBFIOHTE35F88H27LFD9UEOYO","A3HQXCWOIQKT4F","3S829FDFT2NBOHQMM1CIOU0HZYXDXL","","399.89999997615814","img/animal1.png","74","402","1","1","3","0.7,0,0.8,0.7,0.8,0,0.7,0.8,0",""
"","html-keyboard-response","286","178301","0.0-286.0","39KFRKBFIOHTE35F88H27LFD9UEOYO","A3HQXCWOIQKT4F","3S829FDFT2NBOHQMM1CIOU0HZYXDXL","","null","<img src=""img/animal1.png"" style=""width:200px; border:14px solid green;"">","null","","","","","",""
"","image-keyboard-response","287","178775","0.0-287.0","39KFRKBFIOHTE35F88H27LFD9UEOYO","A3HQXCWOIQKT4F","3S829FDFT2NBOHQMM1CIOU0HZYXDXL","","471.39999997615814","img/animal5.png","74","474","1","1","2","0.7,0,0.8,0.7,0.8,0,0.7,0.8,0",""
"","html-keyboard-response","288","179085","0.0-288.0","39KFRKBFIOHTE35F88H27LFD9UEOYO","A3HQXCWOIQKT4F","3S829FDFT2NBOHQMM1CIOU0HZYXDXL","","null","<img src=""img/animal5.png"" style=""width:200px; border:14px solid green;"">","null","","","","","",""
"","image-keyboard-response","289","179467","0.0-289.0","39KFRKBFIOHTE35F88H27LFD9UEOYO","A3HQXCWOIQKT4F","3S829FDFT2NBOHQMM1CIOU0HZYXDXL","","378.19999998807907","img/animal1.png","74","380.89999997615814","1","1","3","0.7,0,0.8,0.7,0.8,0,0.7,0.8,0",""
"","html-keyboard-response","290","179773","0.0-290.0","39KFRKBFIOHTE35F88H27LFD9UEOYO","A3HQXCWOIQKT4F","3S829FDFT2NBOHQMM1CIOU0HZYXDXL","","null","<img src=""img/animal1.png"" style=""width:200px; border:14px solid green;"">","null","","","","","",""
"","image-keyboard-response","291","180216","0.0-291.0","39KFRKBFIOHTE35F88H27LFD9UEOYO","A3HQXCWOIQKT4F","3S829FDFT2NBOHQMM1CIOU0HZYXDXL","","439.10000002384186","img/animal6.png","74","442","1","1","1","0.7,0,0.8,0.7,0.8,0,0.7,0.8,0",""
"","html-keyboard-response","292","180524","0.0-292.0","39KFRKBFIOHTE35F88H27LFD9UEOYO","A3HQXCWOIQKT4F","3S829FDFT2NBOHQMM1CIOU0HZYXDXL","","null","<img src=""img/animal6.png"" style=""width:200px; border:14px solid green;"">","null","","","","","",""
"","image-keyboard-response","293","180877","0.0-293.0","39KFRKBFIOHTE35F88H27LFD9UEOYO","A3HQXCWOIQKT4F","3S829FDFT2NBOHQMM1CIOU0HZYXDXL","","349.89999997615814","img/animal6.png","74","352.5","1","1","1","0.7,0,0.8,0.7,0.8,0,0.7,0.8,0",""
"","html-keyboard-response","294","181188","0.0-294.0","39KFRKBFIOHTE35F88H27LFD9UEOYO","A3HQXCWOIQKT4F","3S829FDFT2NBOHQMM1CIOU0HZYXDXL","","null","<img src=""img/animal6.png"" style=""width:200px; border:14px solid green;"">","null","","","","","",""
"","image-keyboard-response","295","181477","0.0-295.0","39KFRKBFIOHTE35F88H27LFD9UEOYO","A3HQXCWOIQKT4F","3S829FDFT2NBOHQMM1CIOU0HZYXDXL","","286.10000002384186","img/animal5.png","74","288.10000002384186","1","1","2","0.7,0,0.8,0.7,0.8,0,0.7,0.8,0",""
"","html-keyboard-response","296","181781","0.0-296.0","39KFRKBFIOHTE35F88H27LFD9UEOYO","A3HQXCWOIQKT4F","3S829FDFT2NBOHQMM1CIOU0HZYXDXL","","null","<img src=""img/animal5.png"" style=""width:200px; border:14px solid green;"">","null","","","","","",""
"","image-keyboard-response","297","182086","0.0-297.0","39KFRKBFIOHTE35F88H27LFD9UEOYO","A3HQXCWOIQKT4F","3S829FDFT2NBOHQMM1CIOU0HZYXDXL","","302.5","img/animal5.png","74","305.0999999642372","1","0","2","0.7,0,0.8,0.7,0.8,0,0.7,0.8,0",""
"","html-keyboard-response","298","182397","0.0-298.0","39KFRKBFIOHTE35F88H27LFD9UEOYO","A3HQXCWOIQKT4F","3S829FDFT2NBOHQMM1CIOU0HZYXDXL","","null","<img src=""img/animal5.png"" style=""width:200px;border:14px solid red;"">","null","","","","","",""
"","image-keyboard-response","299","182737","0.0-299.0","39KFRKBFIOHTE35F88H27LFD9UEOYO","A3HQXCWOIQKT4F","3S829FDFT2NBOHQMM1CIOU0HZYXDXL","","336.9000000357628","img/animal6.png","74","339.69999998807907","1","1","1","0.7,0,0.8,0.7,0.8,0,0.7,0.8,0",""
"","html-keyboard-response","300","183044","0.0-300.0","39KFRKBFIOHTE35F88H27LFD9UEOYO","A3HQXCWOIQKT4F","3S829FDFT2NBOHQMM1CIOU0HZYXDXL","","null","<img src=""img/animal6.png"" style=""width:200px; border:14px solid green;"">","null","","","","","",""
"","image-keyboard-response","301","183368","0.0-301.0","39KFRKBFIOHTE35F88H27LFD9UEOYO","A3HQXCWOIQKT4F","3S829FDFT2NBOHQMM1CIOU0HZYXDXL","","320.9000000357628","img/animal5.png","74","323.5","1","1","2","0.7,0,0.8,0.7,0.8,0,0.7,0.8,0",""
"","html-keyboard-response","302","183677","0.0-302.0","39KFRKBFIOHTE35F88H27LFD9UEOYO","A3HQXCWOIQKT4F","3S829FDFT2NBOHQMM1CIOU0HZYXDXL","","null","<img src=""img/animal5.png"" style=""width:200px; border:14px solid green;"">","null","","","","","",""
"","image-keyboard-response","303","183990","0.0-303.0","39KFRKBFIOHTE35F88H27LFD9UEOYO","A3HQXCWOIQKT4F","3S829FDFT2NBOHQMM1CIOU0HZYXDXL","","310.2000000476837","img/animal6.png","74","312.5","1","1","1","0.7,0,0.8,0.7,0.8,0,0.7,0.8,0",""
"","html-keyboard-response","304","184301","0.0-304.0","39KFRKBFIOHTE35F88H27LFD9UEOYO","A3HQXCWOIQKT4F","3S829FDFT2NBOHQMM1CIOU0HZYXDXL","","null","<img src=""img/animal6.png"" style=""width:200px; border:14px solid green;"">","null","","","","","",""
"","image-keyboard-response","305","184608","0.0-305.0","39KFRKBFIOHTE35F88H27LFD9UEOYO","A3HQXCWOIQKT4F","3S829FDFT2NBOHQMM1CIOU0HZYXDXL","","304.10000002384186","img/animal6.png","74","306.60000002384186","1","1","1","0.7,0,0.8,0.7,0.8,0,0.7,0.8,0",""
"","html-keyboard-response","306","184917","0.0-306.0","39KFRKBFIOHTE35F88H27LFD9UEOYO","A3HQXCWOIQKT4F","3S829FDFT2NBOHQMM1CIOU0HZYXDXL","","null","<img src=""img/animal6.png"" style=""width:200px; border:14px solid green;"">","null","","","","","",""
"","image-keyboard-response","307","185227","0.0-307.0","39KFRKBFIOHTE35F88H27LFD9UEOYO","A3HQXCWOIQKT4F","3S829FDFT2NBOHQMM1CIOU0HZYXDXL","","307.5","img/animal5.png","74","310","1","1","2","0.7,0,0.8,0.7,0.8,0,0.7,0.8,0",""
"","html-keyboard-response","308","185532","0.0-308.0","39KFRKBFIOHTE35F88H27LFD9UEOYO","A3HQXCWOIQKT4F","3S829FDFT2NBOHQMM1CIOU0HZYXDXL","","null","<img src=""img/animal5.png"" style=""width:200px; border:14px solid green;"">","null","","","","","",""
"","image-keyboard-response","309","185884","0.0-309.0","39KFRKBFIOHTE35F88H27LFD9UEOYO","A3HQXCWOIQKT4F","3S829FDFT2NBOHQMM1CIOU0HZYXDXL","","348.89999997615814","img/animal5.png","74","351.30000001192093","1","1","2","0.7,0,0.8,0.7,0.8,0,0.7,0.8,0",""
"","html-keyboard-response","310","186188","0.0-310.0","39KFRKBFIOHTE35F88H27LFD9UEOYO","A3HQXCWOIQKT4F","3S829FDFT2NBOHQMM1CIOU0HZYXDXL","","null","<img src=""img/animal5.png"" style=""width:200px; border:14px solid green;"">","null","","","","","",""
"","image-keyboard-response","311","186524","0.0-311.0","39KFRKBFIOHTE35F88H27LFD9UEOYO","A3HQXCWOIQKT4F","3S829FDFT2NBOHQMM1CIOU0HZYXDXL","","332.7000000476837","img/animal6.png","74","335.2000000476837","1","1","1","0.7,0,0.8,0.7,0.8,0,0.7,0.8,0",""
"","html-keyboard-response","312","186829","0.0-312.0","39KFRKBFIOHTE35F88H27LFD9UEOYO","A3HQXCWOIQKT4F","3S829FDFT2NBOHQMM1CIOU0HZYXDXL","","null","<img src=""img/animal6.png"" style=""width:200px; border:14px solid green;"">","null","","","","","",""
"","image-keyboard-response","313","187125","0.0-313.0","39KFRKBFIOHTE35F88H27LFD9UEOYO","A3HQXCWOIQKT4F","3S829FDFT2NBOHQMM1CIOU0HZYXDXL","","292.69999998807907","img/animal6.png","74","295.30000001192093","1","1","1","0.7,0,0.8,0.7,0.8,0,0.7,0.8,0",""
"","html-keyboard-response","314","187437","0.0-314.0","39KFRKBFIOHTE35F88H27LFD9UEOYO","A3HQXCWOIQKT4F","3S829FDFT2NBOHQMM1CIOU0HZYXDXL","","null","<img src=""img/animal6.png"" style=""width:200px; border:14px solid green;"">","null","","","","","",""
"","image-keyboard-response","315","187726","0.0-315.0","39KFRKBFIOHTE35F88H27LFD9UEOYO","A3HQXCWOIQKT4F","3S829FDFT2NBOHQMM1CIOU0HZYXDXL","","285.39999997615814","img/animal6.png","74","287.9000000357628","1","1","1","0.7,0,0.8,0.7,0.8,0,0.7,0.8,0",""
"","html-keyboard-response","316","188037","0.0-316.0","39KFRKBFIOHTE35F88H27LFD9UEOYO","A3HQXCWOIQKT4F","3S829FDFT2NBOHQMM1CIOU0HZYXDXL","","null","<img src=""img/animal6.png"" style=""width:200px; border:14px solid green;"">","null","","","","","",""
"","image-keyboard-response","317","188360","0.0-317.0","39KFRKBFIOHTE35F88H27LFD9UEOYO","A3HQXCWOIQKT4F","3S829FDFT2NBOHQMM1CIOU0HZYXDXL","","320.19999998807907","img/animal5.png","74","322.69999998807907","1","0","2","0.7,0,0.8,0.7,0.8,0,0.7,0.8,0",""
"","html-keyboard-response","318","188669","0.0-318.0","39KFRKBFIOHTE35F88H27LFD9UEOYO","A3HQXCWOIQKT4F","3S829FDFT2NBOHQMM1CIOU0HZYXDXL","","null","<img src=""img/animal5.png"" style=""width:200px;border:14px solid red;"">","null","","","","","",""
"","image-keyboard-response","319","188952","0.0-319.0","39KFRKBFIOHTE35F88H27LFD9UEOYO","A3HQXCWOIQKT4F","3S829FDFT2NBOHQMM1CIOU0HZYXDXL","","279.80000001192093","img/animal6.png","74","282.4000000357628","1","1","1","0.7,0,0.8,0.7,0.8,0,0.7,0.8,0",""
"","html-keyboard-response","320","189261","0.0-320.0","39KFRKBFIOHTE35F88H27LFD9UEOYO","A3HQXCWOIQKT4F","3S829FDFT2NBOHQMM1CIOU0HZYXDXL","","null","<img src=""img/animal6.png"" style=""width:200px; border:14px solid green;"">","null","","","","","",""
"","image-keyboard-response","321","189553","0.0-321.0","39KFRKBFIOHTE35F88H27LFD9UEOYO","A3HQXCWOIQKT4F","3S829FDFT2NBOHQMM1CIOU0HZYXDXL","","288.69999998807907","img/animal6.png","74","291.30000001192093","1","1","1","0.7,0,0.8,0.7,0.8,0,0.7,0.8,0",""
"","html-keyboard-response","322","189861","0.0-322.0","39KFRKBFIOHTE35F88H27LFD9UEOYO","A3HQXCWOIQKT4F","3S829FDFT2NBOHQMM1CIOU0HZYXDXL","","null","<img src=""img/animal6.png"" style=""width:200px; border:14px solid green;"">","null","","","","","",""
"","image-keyboard-response","323","190135","0.0-323.0","39KFRKBFIOHTE35F88H27LFD9UEOYO","A3HQXCWOIQKT4F","3S829FDFT2NBOHQMM1CIOU0HZYXDXL","","271.39999997615814","img/animal1.png","74","273.5999999642372","1","1","3","0.7,0,0.8,0.7,0.8,0,0.7,0.8,0",""
"","html-keyboard-response","324","190445","0.0-324.0","39KFRKBFIOHTE35F88H27LFD9UEOYO","A3HQXCWOIQKT4F","3S829FDFT2NBOHQMM1CIOU0HZYXDXL","","null","<img src=""img/animal1.png"" style=""width:200px; border:14px solid green;"">","null","","","","","",""
"","image-keyboard-response","325","190696","0.0-325.0","39KFRKBFIOHTE35F88H27LFD9UEOYO","A3HQXCWOIQKT4F","3S829FDFT2NBOHQMM1CIOU0HZYXDXL","","247.9000000357628","img/animal1.png","74","250.5","1","0","3","0.7,0,0.8,0.7,0.8,0,0.7,0.8,0",""
"","html-keyboard-response","326","191005","0.0-326.0","39KFRKBFIOHTE35F88H27LFD9UEOYO","A3HQXCWOIQKT4F","3S829FDFT2NBOHQMM1CIOU0HZYXDXL","","null","<img src=""img/animal1.png"" style=""width:200px;border:14px solid red;"">","null","","","","","",""
"","image-keyboard-response","327","191287","0.0-327.0","39KFRKBFIOHTE35F88H27LFD9UEOYO","A3HQXCWOIQKT4F","3S829FDFT2NBOHQMM1CIOU0HZYXDXL","","279.0999999642372","img/animal5.png","74","282.19999998807907","1","1","2","0.7,0,0.8,0.7,0.8,0,0.7,0.8,0",""
"","html-keyboard-response","328","191597","0.0-328.0","39KFRKBFIOHTE35F88H27LFD9UEOYO","A3HQXCWOIQKT4F","3S829FDFT2NBOHQMM1CIOU0HZYXDXL","","null","<img src=""img/animal5.png"" style=""width:200px; border:14px solid green;"">","null","","","","","",""
"","image-keyboard-response","329","191871","0.0-329.0","39KFRKBFIOHTE35F88H27LFD9UEOYO","A3HQXCWOIQKT4F","3S829FDFT2NBOHQMM1CIOU0HZYXDXL","","270.60000002384186","img/animal1.png","74","273.5999999642372","1","1","3","0.7,0,0.8,0.7,0.8,0,0.7,0.8,0",""
"","html-keyboard-response","330","192181","0.0-330.0","39KFRKBFIOHTE35F88H27LFD9UEOYO","A3HQXCWOIQKT4F","3S829FDFT2NBOHQMM1CIOU0HZYXDXL","","null","<img src=""img/animal1.png"" style=""width:200px; border:14px solid green;"">","null","","","","","",""
"","image-keyboard-response","331","192449","0.0-331.0","39KFRKBFIOHTE35F88H27LFD9UEOYO","A3HQXCWOIQKT4F","3S829FDFT2NBOHQMM1CIOU0HZYXDXL","","264.80000001192093","img/animal1.png","74","267.60000002384186","1","0","3","0.7,0,0.8,0.7,0.8,0,0.7,0.8,0",""
"","html-keyboard-response","332","192757","0.0-332.0","39KFRKBFIOHTE35F88H27LFD9UEOYO","A3HQXCWOIQKT4F","3S829FDFT2NBOHQMM1CIOU0HZYXDXL","","null","<img src=""img/animal1.png"" style=""width:200px;border:14px solid red;"">","null","","","","","",""
"","image-keyboard-response","333","193054","0.0-333.0","39KFRKBFIOHTE35F88H27LFD9UEOYO","A3HQXCWOIQKT4F","3S829FDFT2NBOHQMM1CIOU0HZYXDXL","","293.80000001192093","img/animal5.png","74","296.39999997615814","1","1","2","0.7,0,0.8,0.7,0.8,0,0.7,0.8,0",""
"","html-keyboard-response","334","193364","0.0-334.0","39KFRKBFIOHTE35F88H27LFD9UEOYO","A3HQXCWOIQKT4F","3S829FDFT2NBOHQMM1CIOU0HZYXDXL","","null","<img src=""img/animal5.png"" style=""width:200px; border:14px solid green;"">","null","","","","","",""
"","image-keyboard-response","335","193648","0.0-335.0","39KFRKBFIOHTE35F88H27LFD9UEOYO","A3HQXCWOIQKT4F","3S829FDFT2NBOHQMM1CIOU0HZYXDXL","","280.89999997615814","img/animal1.png","74","282.69999998807907","1","1","3","0.7,0,0.8,0.7,0.8,0,0.7,0.8,0",""
"","html-keyboard-response","336","193957","0.0-336.0","39KFRKBFIOHTE35F88H27LFD9UEOYO","A3HQXCWOIQKT4F","3S829FDFT2NBOHQMM1CIOU0HZYXDXL","","null","<img src=""img/animal1.png"" style=""width:200px; border:14px solid green;"">","null","","","","","",""
"","image-keyboard-response","337","194232","0.0-337.0","39KFRKBFIOHTE35F88H27LFD9UEOYO","A3HQXCWOIQKT4F","3S829FDFT2NBOHQMM1CIOU0HZYXDXL","","271.9000000357628","img/animal5.png","74","274.19999998807907","1","1","2","0.7,0,0.8,0.7,0.8,0,0.7,0.8,0",""
"","html-keyboard-response","338","194541","0.0-338.0","39KFRKBFIOHTE35F88H27LFD9UEOYO","A3HQXCWOIQKT4F","3S829FDFT2NBOHQMM1CIOU0HZYXDXL","","null","<img src=""img/animal5.png"" style=""width:200px; border:14px solid green;"">","null","","","","","",""
"","image-keyboard-response","339","194821","0.0-339.0","39KFRKBFIOHTE35F88H27LFD9UEOYO","A3HQXCWOIQKT4F","3S829FDFT2NBOHQMM1CIOU0HZYXDXL","","277.80000001192093","img/animal1.png","74","279.7999999523163","1","0","3","0.7,0,0.8,0.7,0.8,0,0.7,0.8,0",""
"","html-keyboard-response","340","195133","0.0-340.0","39KFRKBFIOHTE35F88H27LFD9UEOYO","A3HQXCWOIQKT4F","3S829FDFT2NBOHQMM1CIOU0HZYXDXL","","null","<img src=""img/animal1.png"" style=""width:200px;border:14px solid red;"">","null","","","","","",""
"","image-keyboard-response","341","195424","0.0-341.0","39KFRKBFIOHTE35F88H27LFD9UEOYO","A3HQXCWOIQKT4F","3S829FDFT2NBOHQMM1CIOU0HZYXDXL","","287.80000001192093","img/animal5.png","74","290.5","1","0","2","0.7,0,0.8,0.7,0.8,0,0.7,0.8,0",""
"","html-keyboard-response","342","195732","0.0-342.0","39KFRKBFIOHTE35F88H27LFD9UEOYO","A3HQXCWOIQKT4F","3S829FDFT2NBOHQMM1CIOU0HZYXDXL","","null","<img src=""img/animal5.png"" style=""width:200px;border:14px solid red;"">","null","","","","","",""
"","image-keyboard-response","343","196019","0.0-343.0","39KFRKBFIOHTE35F88H27LFD9UEOYO","A3HQXCWOIQKT4F","3S829FDFT2NBOHQMM1CIOU0HZYXDXL","","282.89999997615814","img/animal1.png","74","285.9000000357628","1","1","3","0.7,0,0.8,0.7,0.8,0,0.7,0.8,0",""
"","html-keyboard-response","344","196324","0.0-344.0","39KFRKBFIOHTE35F88H27LFD9UEOYO","A3HQXCWOIQKT4F","3S829FDFT2NBOHQMM1CIOU0HZYXDXL","","null","<img src=""img/animal1.png"" style=""width:200px; border:14px solid green;"">","null","","","","","",""
"","image-keyboard-response","345","196614","0.0-345.0","39KFRKBFIOHTE35F88H27LFD9UEOYO","A3HQXCWOIQKT4F","3S829FDFT2NBOHQMM1CIOU0HZYXDXL","","286.5999999642372","img/animal1.png","74","289.2000000476837","1","1","3","0.7,0,0.8,0.7,0.8,0,0.7,0.8,0",""
"","html-keyboard-response","346","196924","0.0-346.0","39KFRKBFIOHTE35F88H27LFD9UEOYO","A3HQXCWOIQKT4F","3S829FDFT2NBOHQMM1CIOU0HZYXDXL","","null","<img src=""img/animal1.png"" style=""width:200px; border:14px solid green;"">","null","","","","","",""
"","image-keyboard-response","347","197171","0.0-347.0","39KFRKBFIOHTE35F88H27LFD9UEOYO","A3HQXCWOIQKT4F","3S829FDFT2NBOHQMM1CIOU0HZYXDXL","","243.79999995231628","img/animal1.png","74","246.39999997615814","1","1","3","0.7,0,0.8,0.7,0.8,0,0.7,0.8,0",""
"","html-keyboard-response","348","197476","0.0-348.0","39KFRKBFIOHTE35F88H27LFD9UEOYO","A3HQXCWOIQKT4F","3S829FDFT2NBOHQMM1CIOU0HZYXDXL","","null","<img src=""img/animal1.png"" style=""width:200px; border:14px solid green;"">","null","","","","","",""
"","image-keyboard-response","349","197755","0.0-349.0","39KFRKBFIOHTE35F88H27LFD9UEOYO","A3HQXCWOIQKT4F","3S829FDFT2NBOHQMM1CIOU0HZYXDXL","","276.5999999642372","img/animal1.png","74","278.39999997615814","1","0","3","0.7,0,0.8,0.7,0.8,0,0.7,0.8,0",""
"","html-keyboard-response","350","198060","0.0-350.0","39KFRKBFIOHTE35F88H27LFD9UEOYO","A3HQXCWOIQKT4F","3S829FDFT2NBOHQMM1CIOU0HZYXDXL","","null","<img src=""img/animal1.png"" style=""width:200px;border:14px solid red;"">","null","","","","","",""
"","image-keyboard-response","351","198361","0.0-351.0","39KFRKBFIOHTE35F88H27LFD9UEOYO","A3HQXCWOIQKT4F","3S829FDFT2NBOHQMM1CIOU0HZYXDXL","","297.69999998807907","img/animal6.png","74","300.10000002384186","1","1","1","0.7,0,0.8,0.7,0.8,0,0.7,0.8,0",""
"","html-keyboard-response","352","198669","0.0-352.0","39KFRKBFIOHTE35F88H27LFD9UEOYO","A3HQXCWOIQKT4F","3S829FDFT2NBOHQMM1CIOU0HZYXDXL","","null","<img src=""img/animal6.png"" style=""width:200px; border:14px solid green;"">","null","","","","","",""
"","image-keyboard-response","353","198963","0.0-353.0","39KFRKBFIOHTE35F88H27LFD9UEOYO","A3HQXCWOIQKT4F","3S829FDFT2NBOHQMM1CIOU0HZYXDXL","","291.2000000476837","img/animal5.png","74","293.30000001192093","1","0","2","0.7,0,0.8,0.7,0.8,0,0.7,0.8,0",""
"","html-keyboard-response","354","199269","0.0-354.0","39KFRKBFIOHTE35F88H27LFD9UEOYO","A3HQXCWOIQKT4F","3S829FDFT2NBOHQMM1CIOU0HZYXDXL","","null","<img src=""img/animal5.png"" style=""width:200px;border:14px solid red;"">","null","","","","","",""
"","image-keyboard-response","355","199521","0.0-355.0","39KFRKBFIOHTE35F88H27LFD9UEOYO","A3HQXCWOIQKT4F","3S829FDFT2NBOHQMM1CIOU0HZYXDXL","","248.4000000357628","img/animal1.png","74","250.89999997615814","1","0","3","0.7,0,0.8,0.7,0.8,0,0.7,0.8,0",""
"","html-keyboard-response","356","199829","0.0-356.0","39KFRKBFIOHTE35F88H27LFD9UEOYO","A3HQXCWOIQKT4F","3S829FDFT2NBOHQMM1CIOU0HZYXDXL","","null","<img src=""img/animal1.png"" style=""width:200px;border:14px solid red;"">","null","","","","","",""
"","image-keyboard-response","357","200091","0.0-357.0","39KFRKBFIOHTE35F88H27LFD9UEOYO","A3HQXCWOIQKT4F","3S829FDFT2NBOHQMM1CIOU0HZYXDXL","","259.69999998807907","img/animal1.png","74","261.69999998807907","1","1","3","0.7,0,0.8,0.7,0.8,0,0.7,0.8,0",""
"","html-keyboard-response","358","200397","0.0-358.0","39KFRKBFIOHTE35F88H27LFD9UEOYO","A3HQXCWOIQKT4F","3S829FDFT2NBOHQMM1CIOU0HZYXDXL","","null","<img src=""img/animal1.png"" style=""width:200px; border:14px solid green;"">","null","","","","","",""
"","image-keyboard-response","359","200670","0.0-359.0","39KFRKBFIOHTE35F88H27LFD9UEOYO","A3HQXCWOIQKT4F","3S829FDFT2NBOHQMM1CIOU0HZYXDXL","","269.5","img/animal6.png","74","272","1","0","1","0.7,0,0.8,0.7,0.8,0,0.7,0.8,0",""
"","html-keyboard-response","360","200981","0.0-360.0","39KFRKBFIOHTE35F88H27LFD9UEOYO","A3HQXCWOIQKT4F","3S829FDFT2NBOHQMM1CIOU0HZYXDXL","","null","<img src=""img/animal6.png"" style=""width:200px;border:14px solid red;"">","null","","","","","",""
"","image-keyboard-response","361","201250","0.0-361.0","39KFRKBFIOHTE35F88H27LFD9UEOYO","A3HQXCWOIQKT4F","3S829FDFT2NBOHQMM1CIOU0HZYXDXL","","266.5","img/animal5.png","74","269.2000000476837","1","1","2","0.7,0,0.8,0.7,0.8,0,0.7,0.8,0",""
"","html-keyboard-response","362","201557","0.0-362.0","39KFRKBFIOHTE35F88H27LFD9UEOYO","A3HQXCWOIQKT4F","3S829FDFT2NBOHQMM1CIOU0HZYXDXL","","null","<img src=""img/animal5.png"" style=""width:200px; border:14px solid green;"">","null","","","","","",""
"","instructions","363","205224","0.0-363.0","39KFRKBFIOHTE35F88H27LFD9UEOYO","A3HQXCWOIQKT4F","3S829FDFT2NBOHQMM1CIOU0HZYXDXL","[{""page_index"":0,""viewing_time"":3665.099999964237}]","3665.599999964237","","","","","","","",""
"","survey-text","364","210204","0.0-364.0","39KFRKBFIOHTE35F88H27LFD9UEOYO","A3HQXCWOIQKT4F","3S829FDFT2NBOHQMM1CIOU0HZYXDXL","","4976.699999988079","","","","","","","","{""Q0"":""A3HQXCWOIQKT4F""}"
