"success","trial_type","trial_index","time_elapsed","internal_node_id","assignmentID","mturkID","hitID","view_history","rt","stimulus","key_press","reactionTime","a","r","s","reward_cond","responses"
"true","fullscreen","0","3158","0.0-0.0","3KXIR214I52Z9P2QW3VYKJ83GZU42D","A3I40B0FATY8VH","3KVQ0UJWPX71V463XQYDOZYIDLRW5D","","","","","","","","","",""
"","instructions","1","27799","0.0-1.0","3KXIR214I52Z9P2QW3VYKJ83GZU42D","A3I40B0FATY8VH","3KVQ0UJWPX71V463XQYDOZYIDLRW5D","[{""page_index"":0,""viewing_time"":4347.5},{""page_index"":1,""viewing_time"":4917.599999964237},{""page_index"":2,""viewing_time"":1546.7000000476837},{""page_index"":3,""viewing_time"":6116.5},{""page_index"":4,""viewing_time"":2639.399999976158},{""page_index"":5,""viewing_time"":2560},{""page_index"":6,""viewing_time"":1462.800000011921},{""page_index"":7,""viewing_time"":1049.199999988079}]","24640.099999964237","","","","","","","",""
"","image-keyboard-response","2","28619","0.0-2.0","3KXIR214I52Z9P2QW3VYKJ83GZU42D","A3I40B0FATY8VH","3KVQ0UJWPX71V463XQYDOZYIDLRW5D","","819.5","img/animal4.png","76","820.6999999880791","3","0","1","1,0.7,0,0,1,0.7,0.7,0,1",""
"","html-keyboard-response","3","28925","0.0-3.0","3KXIR214I52Z9P2QW3VYKJ83GZU42D","A3I40B0FATY8VH","3KVQ0UJWPX71V463XQYDOZYIDLRW5D","","null","<img src=""img/animal4.png"" style=""width:200px;border:14px solid red;"">","null","","","","","",""
"","image-keyboard-response","4","29471","0.0-4.0","3KXIR214I52Z9P2QW3VYKJ83GZU42D","A3I40B0FATY8VH","3KVQ0UJWPX71V463XQYDOZYIDLRW5D","","545.1000000238419","img/animal4.png","75","545.9000000357628","2","0","1","1,0.7,0,0,1,0.7,0.7,0,1",""
"","html-keyboard-response","5","29774","0.0-5.0","3KXIR214I52Z9P2QW3VYKJ83GZU42D","A3I40B0FATY8VH","3KVQ0UJWPX71V463XQYDOZYIDLRW5D","","null","<img src=""img/animal4.png"" style=""width:200px;border:14px solid red;"">","null","","","","","",""
"","image-keyboard-response","6","30118","0.0-6.0","3KXIR214I52Z9P2QW3VYKJ83GZU42D","A3I40B0FATY8VH","3KVQ0UJWPX71V463XQYDOZYIDLRW5D","","340.80000001192093","img/animal4.png","74","342.80000001192093","1","1","1","1,0.7,0,0,1,0.7,0.7,0,1",""
"","html-keyboard-response","7","30420","0.0-7.0","3KXIR214I52Z9P2QW3VYKJ83GZU42D","A3I40B0FATY8VH","3KVQ0UJWPX71V463XQYDOZYIDLRW5D","","null","<img src=""img/animal4.png"" style=""width:200px; border:14px solid green;"">","null","","","","","",""
"","image-keyboard-response","8","31458","0.0-8.0","3KXIR214I52Z9P2QW3VYKJ83GZU42D","A3I40B0FATY8VH","3KVQ0UJWPX71V463XQYDOZYIDLRW5D","","1036.1000000238419","img/animal3.png","75","1037.300000011921","2","0","3","1,0.7,0,0,1,0.7,0.7,0,1",""
"","html-keyboard-response","9","31761","0.0-9.0","3KXIR214I52Z9P2QW3VYKJ83GZU42D","A3I40B0FATY8VH","3KVQ0UJWPX71V463XQYDOZYIDLRW5D","","null","<img src=""img/animal3.png"" style=""width:200px;border:14px solid red;"">","null","","","","","",""
"","image-keyboard-response","10","32532","0.0-10.0","3KXIR214I52Z9P2QW3VYKJ83GZU42D","A3I40B0FATY8VH","3KVQ0UJWPX71V463XQYDOZYIDLRW5D","","770.0999999642372","img/animal6.png","76","771.0999999642372","3","1","2","1,0.7,0,0,1,0.7,0.7,0,1",""
"","html-keyboard-response","11","32835","0.0-11.0","3KXIR214I52Z9P2QW3VYKJ83GZU42D","A3I40B0FATY8VH","3KVQ0UJWPX71V463XQYDOZYIDLRW5D","","null","<img src=""img/animal6.png"" style=""width:200px; border:14px solid green;"">","null","","","","","",""
"","image-keyboard-response","12","33113","0.0-12.0","3KXIR214I52Z9P2QW3VYKJ83GZU42D","A3I40B0FATY8VH","3KVQ0UJWPX71V463XQYDOZYIDLRW5D","","278.39999997615814","img/animal6.png","76","278.80000001192093","3","0","2","1,0.7,0,0,1,0.7,0.7,0,1",""
"","html-keyboard-response","13","33415","0.0-13.0","3KXIR214I52Z9P2QW3VYKJ83GZU42D","A3I40B0FATY8VH","3KVQ0UJWPX71V463XQYDOZYIDLRW5D","","null","<img src=""img/animal6.png"" style=""width:200px;border:14px solid red;"">","null","","","","","",""
"","image-keyboard-response","14","34063","0.0-14.0","3KXIR214I52Z9P2QW3VYKJ83GZU42D","A3I40B0FATY8VH","3KVQ0UJWPX71V463XQYDOZYIDLRW5D","","646.4000000357628","img/animal3.png","75","647.2999999523163","2","0","3","1,0.7,0,0,1,0.7,0.7,0,1",""
"","html-keyboard-response","15","34366","0.0-15.0","3KXIR214I52Z9P2QW3VYKJ83GZU42D","A3I40B0FATY8VH","3KVQ0UJWPX71V463XQYDOZYIDLRW5D","","null","<img src=""img/animal3.png"" style=""width:200px;border:14px solid red;"">","null","","","","","",""
"","image-keyboard-response","16","35184","0.0-16.0","3KXIR214I52Z9P2QW3VYKJ83GZU42D","A3I40B0FATY8VH","3KVQ0UJWPX71V463XQYDOZYIDLRW5D","","816.6999999880791","img/animal4.png","74","817.8000000119209","1","1","1","1,0.7,0,0,1,0.7,0.7,0,1",""
"","html-keyboard-response","17","35485","0.0-17.0","3KXIR214I52Z9P2QW3VYKJ83GZU42D","A3I40B0FATY8VH","3KVQ0UJWPX71V463XQYDOZYIDLRW5D","","null","<img src=""img/animal4.png"" style=""width:200px; border:14px solid green;"">","null","","","","","",""
"","image-keyboard-response","18","35766","0.0-18.0","3KXIR214I52Z9P2QW3VYKJ83GZU42D","A3I40B0FATY8VH","3KVQ0UJWPX71V463XQYDOZYIDLRW5D","","279.5","img/animal4.png","74","280.39999997615814","1","1","1","1,0.7,0,0,1,0.7,0.7,0,1",""
"","html-keyboard-response","19","36069","0.0-19.0","3KXIR214I52Z9P2QW3VYKJ83GZU42D","A3I40B0FATY8VH","3KVQ0UJWPX71V463XQYDOZYIDLRW5D","","null","<img src=""img/animal4.png"" style=""width:200px; border:14px solid green;"">","null","","","","","",""
"","image-keyboard-response","20","36848","0.0-20.0","3KXIR214I52Z9P2QW3VYKJ83GZU42D","A3I40B0FATY8VH","3KVQ0UJWPX71V463XQYDOZYIDLRW5D","","777.2999999523163","img/animal3.png","76","778.5","3","1","3","1,0.7,0,0,1,0.7,0.7,0,1",""
"","html-keyboard-response","21","37149","0.0-21.0","3KXIR214I52Z9P2QW3VYKJ83GZU42D","A3I40B0FATY8VH","3KVQ0UJWPX71V463XQYDOZYIDLRW5D","","null","<img src=""img/animal3.png"" style=""width:200px; border:14px solid green;"">","null","","","","","",""
"","image-keyboard-response","22","38001","0.0-22.0","3KXIR214I52Z9P2QW3VYKJ83GZU42D","A3I40B0FATY8VH","3KVQ0UJWPX71V463XQYDOZYIDLRW5D","","851.4000000357628","img/animal6.png","75","851.7999999523163","2","1","2","1,0.7,0,0,1,0.7,0.7,0,1",""
"","html-keyboard-response","23","38302","0.0-23.0","3KXIR214I52Z9P2QW3VYKJ83GZU42D","A3I40B0FATY8VH","3KVQ0UJWPX71V463XQYDOZYIDLRW5D","","null","<img src=""img/animal6.png"" style=""width:200px; border:14px solid green;"">","null","","","","","",""
"","image-keyboard-response","24","38909","0.0-24.0","3KXIR214I52Z9P2QW3VYKJ83GZU42D","A3I40B0FATY8VH","3KVQ0UJWPX71V463XQYDOZYIDLRW5D","","605.8000000119209","img/animal3.png","76","606.7999999523163","3","1","3","1,0.7,0,0,1,0.7,0.7,0,1",""
"","html-keyboard-response","25","39211","0.0-25.0","3KXIR214I52Z9P2QW3VYKJ83GZU42D","A3I40B0FATY8VH","3KVQ0UJWPX71V463XQYDOZYIDLRW5D","","null","<img src=""img/animal3.png"" style=""width:200px; border:14px solid green;"">","null","","","","","",""
"","image-keyboard-response","26","39772","0.0-26.0","3KXIR214I52Z9P2QW3VYKJ83GZU42D","A3I40B0FATY8VH","3KVQ0UJWPX71V463XQYDOZYIDLRW5D","","559.8999999761581","img/animal6.png","75","561.1000000238419","2","1","2","1,0.7,0,0,1,0.7,0.7,0,1",""
"","html-keyboard-response","27","40074","0.0-27.0","3KXIR214I52Z9P2QW3VYKJ83GZU42D","A3I40B0FATY8VH","3KVQ0UJWPX71V463XQYDOZYIDLRW5D","","null","<img src=""img/animal6.png"" style=""width:200px; border:14px solid green;"">","null","","","","","",""
"","image-keyboard-response","28","40529","0.0-28.0","3KXIR214I52Z9P2QW3VYKJ83GZU42D","A3I40B0FATY8VH","3KVQ0UJWPX71V463XQYDOZYIDLRW5D","","455","img/animal3.png","76","455.39999997615814","3","1","3","1,0.7,0,0,1,0.7,0.7,0,1",""
"","html-keyboard-response","29","40830","0.0-29.0","3KXIR214I52Z9P2QW3VYKJ83GZU42D","A3I40B0FATY8VH","3KVQ0UJWPX71V463XQYDOZYIDLRW5D","","null","<img src=""img/animal3.png"" style=""width:200px; border:14px solid green;"">","null","","","","","",""
"","image-keyboard-response","30","41326","0.0-30.0","3KXIR214I52Z9P2QW3VYKJ83GZU42D","A3I40B0FATY8VH","3KVQ0UJWPX71V463XQYDOZYIDLRW5D","","495.69999998807907","img/animal4.png","74","496.2000000476837","1","1","1","1,0.7,0,0,1,0.7,0.7,0,1",""
"","html-keyboard-response","31","41627","0.0-31.0","3KXIR214I52Z9P2QW3VYKJ83GZU42D","A3I40B0FATY8VH","3KVQ0UJWPX71V463XQYDOZYIDLRW5D","","null","<img src=""img/animal4.png"" style=""width:200px; border:14px solid green;"">","null","","","","","",""
"","image-keyboard-response","32","42192","0.0-32.0","3KXIR214I52Z9P2QW3VYKJ83GZU42D","A3I40B0FATY8VH","3KVQ0UJWPX71V463XQYDOZYIDLRW5D","","563.8999999761581","img/animal6.png","75","564.5","2","1","2","1,0.7,0,0,1,0.7,0.7,0,1",""
"","html-keyboard-response","33","42493","0.0-33.0","3KXIR214I52Z9P2QW3VYKJ83GZU42D","A3I40B0FATY8VH","3KVQ0UJWPX71V463XQYDOZYIDLRW5D","","null","<img src=""img/animal6.png"" style=""width:200px; border:14px solid green;"">","null","","","","","",""
"","image-keyboard-response","34","42928","0.0-34.0","3KXIR214I52Z9P2QW3VYKJ83GZU42D","A3I40B0FATY8VH","3KVQ0UJWPX71V463XQYDOZYIDLRW5D","","433.5999999642372","img/animal3.png","76","434.30000001192093","3","1","3","1,0.7,0,0,1,0.7,0.7,0,1",""
"","html-keyboard-response","35","43230","0.0-35.0","3KXIR214I52Z9P2QW3VYKJ83GZU42D","A3I40B0FATY8VH","3KVQ0UJWPX71V463XQYDOZYIDLRW5D","","null","<img src=""img/animal3.png"" style=""width:200px; border:14px solid green;"">","null","","","","","",""
"","image-keyboard-response","36","43574","0.0-36.0","3KXIR214I52Z9P2QW3VYKJ83GZU42D","A3I40B0FATY8VH","3KVQ0UJWPX71V463XQYDOZYIDLRW5D","","342.60000002384186","img/animal3.png","76","343.10000002384186","3","1","3","1,0.7,0,0,1,0.7,0.7,0,1",""
"","html-keyboard-response","37","43875","0.0-37.0","3KXIR214I52Z9P2QW3VYKJ83GZU42D","A3I40B0FATY8VH","3KVQ0UJWPX71V463XQYDOZYIDLRW5D","","null","<img src=""img/animal3.png"" style=""width:200px; border:14px solid green;"">","null","","","","","",""
"","image-keyboard-response","38","44249","0.0-38.0","3KXIR214I52Z9P2QW3VYKJ83GZU42D","A3I40B0FATY8VH","3KVQ0UJWPX71V463XQYDOZYIDLRW5D","","373.69999998807907","img/animal6.png","75","374.2999999523163","2","1","2","1,0.7,0,0,1,0.7,0.7,0,1",""
"","html-keyboard-response","39","44550","0.0-39.0","3KXIR214I52Z9P2QW3VYKJ83GZU42D","A3I40B0FATY8VH","3KVQ0UJWPX71V463XQYDOZYIDLRW5D","","null","<img src=""img/animal6.png"" style=""width:200px; border:14px solid green;"">","null","","","","","",""
"","image-keyboard-response","40","44835","0.0-40.0","3KXIR214I52Z9P2QW3VYKJ83GZU42D","A3I40B0FATY8VH","3KVQ0UJWPX71V463XQYDOZYIDLRW5D","","284.5","img/animal6.png","75","284.89999997615814","2","1","2","1,0.7,0,0,1,0.7,0.7,0,1",""
"","html-keyboard-response","41","45137","0.0-41.0","3KXIR214I52Z9P2QW3VYKJ83GZU42D","A3I40B0FATY8VH","3KVQ0UJWPX71V463XQYDOZYIDLRW5D","","null","<img src=""img/animal6.png"" style=""width:200px; border:14px solid green;"">","null","","","","","",""
"","image-keyboard-response","42","45645","0.0-42.0","3KXIR214I52Z9P2QW3VYKJ83GZU42D","A3I40B0FATY8VH","3KVQ0UJWPX71V463XQYDOZYIDLRW5D","","506.80000001192093","img/animal3.png","76","508.10000002384186","3","1","3","1,0.7,0,0,1,0.7,0.7,0,1",""
"","html-keyboard-response","43","45948","0.0-43.0","3KXIR214I52Z9P2QW3VYKJ83GZU42D","A3I40B0FATY8VH","3KVQ0UJWPX71V463XQYDOZYIDLRW5D","","null","<img src=""img/animal3.png"" style=""width:200px; border:14px solid green;"">","null","","","","","",""
"","image-keyboard-response","44","46380","0.0-44.0","3KXIR214I52Z9P2QW3VYKJ83GZU42D","A3I40B0FATY8VH","3KVQ0UJWPX71V463XQYDOZYIDLRW5D","","432","img/animal6.png","75","432.89999997615814","2","1","2","1,0.7,0,0,1,0.7,0.7,0,1",""
"","html-keyboard-response","45","46683","0.0-45.0","3KXIR214I52Z9P2QW3VYKJ83GZU42D","A3I40B0FATY8VH","3KVQ0UJWPX71V463XQYDOZYIDLRW5D","","null","<img src=""img/animal6.png"" style=""width:200px; border:14px solid green;"">","null","","","","","",""
"","image-keyboard-response","46","47060","0.0-46.0","3KXIR214I52Z9P2QW3VYKJ83GZU42D","A3I40B0FATY8VH","3KVQ0UJWPX71V463XQYDOZYIDLRW5D","","376.10000002384186","img/animal3.png","76","377.5","3","1","3","1,0.7,0,0,1,0.7,0.7,0,1",""
"","html-keyboard-response","47","47363","0.0-47.0","3KXIR214I52Z9P2QW3VYKJ83GZU42D","A3I40B0FATY8VH","3KVQ0UJWPX71V463XQYDOZYIDLRW5D","","null","<img src=""img/animal3.png"" style=""width:200px; border:14px solid green;"">","null","","","","","",""
"","image-keyboard-response","48","47730","0.0-48.0","3KXIR214I52Z9P2QW3VYKJ83GZU42D","A3I40B0FATY8VH","3KVQ0UJWPX71V463XQYDOZYIDLRW5D","","365.69999998807907","img/animal3.png","76","366.69999998807907","3","1","3","1,0.7,0,0,1,0.7,0.7,0,1",""
"","html-keyboard-response","49","48032","0.0-49.0","3KXIR214I52Z9P2QW3VYKJ83GZU42D","A3I40B0FATY8VH","3KVQ0UJWPX71V463XQYDOZYIDLRW5D","","null","<img src=""img/animal3.png"" style=""width:200px; border:14px solid green;"">","null","","","","","",""
"","image-keyboard-response","50","48692","0.0-50.0","3KXIR214I52Z9P2QW3VYKJ83GZU42D","A3I40B0FATY8VH","3KVQ0UJWPX71V463XQYDOZYIDLRW5D","","660","img/animal6.png","75","660.3999999761581","2","1","2","1,0.7,0,0,1,0.7,0.7,0,1",""
"","html-keyboard-response","51","48993","0.0-51.0","3KXIR214I52Z9P2QW3VYKJ83GZU42D","A3I40B0FATY8VH","3KVQ0UJWPX71V463XQYDOZYIDLRW5D","","null","<img src=""img/animal6.png"" style=""width:200px; border:14px solid green;"">","null","","","","","",""
"","image-keyboard-response","52","49520","0.0-52.0","3KXIR214I52Z9P2QW3VYKJ83GZU42D","A3I40B0FATY8VH","3KVQ0UJWPX71V463XQYDOZYIDLRW5D","","526.1999999880791","img/animal4.png","74","526.6999999880791","1","1","1","1,0.7,0,0,1,0.7,0.7,0,1",""
"","html-keyboard-response","53","49839","0.0-53.0","3KXIR214I52Z9P2QW3VYKJ83GZU42D","A3I40B0FATY8VH","3KVQ0UJWPX71V463XQYDOZYIDLRW5D","","null","<img src=""img/animal4.png"" style=""width:200px; border:14px solid green;"">","null","","","","","",""
"","image-keyboard-response","54","50119","0.0-54.0","3KXIR214I52Z9P2QW3VYKJ83GZU42D","A3I40B0FATY8VH","3KVQ0UJWPX71V463XQYDOZYIDLRW5D","","279","img/animal4.png","74","280","1","1","1","1,0.7,0,0,1,0.7,0.7,0,1",""
"","html-keyboard-response","55","50422","0.0-55.0","3KXIR214I52Z9P2QW3VYKJ83GZU42D","A3I40B0FATY8VH","3KVQ0UJWPX71V463XQYDOZYIDLRW5D","","null","<img src=""img/animal4.png"" style=""width:200px; border:14px solid green;"">","null","","","","","",""
"","image-keyboard-response","56","50683","0.0-56.0","3KXIR214I52Z9P2QW3VYKJ83GZU42D","A3I40B0FATY8VH","3KVQ0UJWPX71V463XQYDOZYIDLRW5D","","260","img/animal4.png","74","260.80000001192093","1","1","1","1,0.7,0,0,1,0.7,0.7,0,1",""
"","html-keyboard-response","57","50986","0.0-57.0","3KXIR214I52Z9P2QW3VYKJ83GZU42D","A3I40B0FATY8VH","3KVQ0UJWPX71V463XQYDOZYIDLRW5D","","null","<img src=""img/animal4.png"" style=""width:200px; border:14px solid green;"">","null","","","","","",""
"","image-keyboard-response","58","51246","0.0-58.0","3KXIR214I52Z9P2QW3VYKJ83GZU42D","A3I40B0FATY8VH","3KVQ0UJWPX71V463XQYDOZYIDLRW5D","","258.5999999642372","img/animal4.png","74","259.69999998807907","1","1","1","1,0.7,0,0,1,0.7,0.7,0,1",""
"","html-keyboard-response","59","51548","0.0-59.0","3KXIR214I52Z9P2QW3VYKJ83GZU42D","A3I40B0FATY8VH","3KVQ0UJWPX71V463XQYDOZYIDLRW5D","","null","<img src=""img/animal4.png"" style=""width:200px; border:14px solid green;"">","null","","","","","",""
"","image-keyboard-response","60","52026","0.0-60.0","3KXIR214I52Z9P2QW3VYKJ83GZU42D","A3I40B0FATY8VH","3KVQ0UJWPX71V463XQYDOZYIDLRW5D","","477.5","img/animal6.png","75","478.19999998807907","2","1","2","1,0.7,0,0,1,0.7,0.7,0,1",""
"","html-keyboard-response","61","52327","0.0-61.0","3KXIR214I52Z9P2QW3VYKJ83GZU42D","A3I40B0FATY8VH","3KVQ0UJWPX71V463XQYDOZYIDLRW5D","","null","<img src=""img/animal6.png"" style=""width:200px; border:14px solid green;"">","null","","","","","",""
"","image-keyboard-response","62","52705","0.0-62.0","3KXIR214I52Z9P2QW3VYKJ83GZU42D","A3I40B0FATY8VH","3KVQ0UJWPX71V463XQYDOZYIDLRW5D","","376.4000000357628","img/animal3.png","76","377.5","3","1","3","1,0.7,0,0,1,0.7,0.7,0,1",""
"","html-keyboard-response","63","53006","0.0-63.0","3KXIR214I52Z9P2QW3VYKJ83GZU42D","A3I40B0FATY8VH","3KVQ0UJWPX71V463XQYDOZYIDLRW5D","","null","<img src=""img/animal3.png"" style=""width:200px; border:14px solid green;"">","null","","","","","",""
"","image-keyboard-response","64","53445","0.0-64.0","3KXIR214I52Z9P2QW3VYKJ83GZU42D","A3I40B0FATY8VH","3KVQ0UJWPX71V463XQYDOZYIDLRW5D","","436.9000000357628","img/animal6.png","75","438.19999998807907","2","1","2","1,0.7,0,0,1,0.7,0.7,0,1",""
"","html-keyboard-response","65","53746","0.0-65.0","3KXIR214I52Z9P2QW3VYKJ83GZU42D","A3I40B0FATY8VH","3KVQ0UJWPX71V463XQYDOZYIDLRW5D","","null","<img src=""img/animal6.png"" style=""width:200px; border:14px solid green;"">","null","","","","","",""
"","image-keyboard-response","66","54155","0.0-66.0","3KXIR214I52Z9P2QW3VYKJ83GZU42D","A3I40B0FATY8VH","3KVQ0UJWPX71V463XQYDOZYIDLRW5D","","408.30000001192093","img/animal4.png","76","408.80000001192093","3","0","1","1,0.7,0,0,1,0.7,0.7,0,1",""
"","html-keyboard-response","67","54460","0.0-67.0","3KXIR214I52Z9P2QW3VYKJ83GZU42D","A3I40B0FATY8VH","3KVQ0UJWPX71V463XQYDOZYIDLRW5D","","null","<img src=""img/animal4.png"" style=""width:200px;border:14px solid red;"">","null","","","","","",""
"","image-keyboard-response","68","55030","0.0-68.0","3KXIR214I52Z9P2QW3VYKJ83GZU42D","A3I40B0FATY8VH","3KVQ0UJWPX71V463XQYDOZYIDLRW5D","","569.2999999523163","img/animal6.png","75","570.1000000238419","2","1","2","1,0.7,0,0,1,0.7,0.7,0,1",""
"","html-keyboard-response","69","55331","0.0-69.0","3KXIR214I52Z9P2QW3VYKJ83GZU42D","A3I40B0FATY8VH","3KVQ0UJWPX71V463XQYDOZYIDLRW5D","","null","<img src=""img/animal6.png"" style=""width:200px; border:14px solid green;"">","null","","","","","",""
"","image-keyboard-response","70","55735","0.0-70.0","3KXIR214I52Z9P2QW3VYKJ83GZU42D","A3I40B0FATY8VH","3KVQ0UJWPX71V463XQYDOZYIDLRW5D","","404","img/animal6.png","75","404.5999999642372","2","1","2","1,0.7,0,0,1,0.7,0.7,0,1",""
"","html-keyboard-response","71","56037","0.0-71.0","3KXIR214I52Z9P2QW3VYKJ83GZU42D","A3I40B0FATY8VH","3KVQ0UJWPX71V463XQYDOZYIDLRW5D","","null","<img src=""img/animal6.png"" style=""width:200px; border:14px solid green;"">","null","","","","","",""
"","image-keyboard-response","72","56503","0.0-72.0","3KXIR214I52Z9P2QW3VYKJ83GZU42D","A3I40B0FATY8VH","3KVQ0UJWPX71V463XQYDOZYIDLRW5D","","465.60000002384186","img/animal4.png","74","466","1","1","1","1,0.7,0,0,1,0.7,0.7,0,1",""
"","html-keyboard-response","73","56805","0.0-73.0","3KXIR214I52Z9P2QW3VYKJ83GZU42D","A3I40B0FATY8VH","3KVQ0UJWPX71V463XQYDOZYIDLRW5D","","null","<img src=""img/animal4.png"" style=""width:200px; border:14px solid green;"">","null","","","","","",""
"","image-keyboard-response","74","57256","0.0-74.0","3KXIR214I52Z9P2QW3VYKJ83GZU42D","A3I40B0FATY8VH","3KVQ0UJWPX71V463XQYDOZYIDLRW5D","","450.80000001192093","img/animal3.png","76","451.10000002384186","3","1","3","1,0.7,0,0,1,0.7,0.7,0,1",""
"","html-keyboard-response","75","57558","0.0-75.0","3KXIR214I52Z9P2QW3VYKJ83GZU42D","A3I40B0FATY8VH","3KVQ0UJWPX71V463XQYDOZYIDLRW5D","","null","<img src=""img/animal3.png"" style=""width:200px; border:14px solid green;"">","null","","","","","",""
"","image-keyboard-response","76","57834","0.0-76.0","3KXIR214I52Z9P2QW3VYKJ83GZU42D","A3I40B0FATY8VH","3KVQ0UJWPX71V463XQYDOZYIDLRW5D","","274.80000001192093","img/animal3.png","76","275.39999997615814","3","1","3","1,0.7,0,0,1,0.7,0.7,0,1",""
"","html-keyboard-response","77","58136","0.0-77.0","3KXIR214I52Z9P2QW3VYKJ83GZU42D","A3I40B0FATY8VH","3KVQ0UJWPX71V463XQYDOZYIDLRW5D","","null","<img src=""img/animal3.png"" style=""width:200px; border:14px solid green;"">","null","","","","","",""
"","image-keyboard-response","78","58700","0.0-78.0","3KXIR214I52Z9P2QW3VYKJ83GZU42D","A3I40B0FATY8VH","3KVQ0UJWPX71V463XQYDOZYIDLRW5D","","562.8000000119209","img/animal6.png","75","563.5999999642372","2","1","2","1,0.7,0,0,1,0.7,0.7,0,1",""
"","html-keyboard-response","79","59003","0.0-79.0","3KXIR214I52Z9P2QW3VYKJ83GZU42D","A3I40B0FATY8VH","3KVQ0UJWPX71V463XQYDOZYIDLRW5D","","null","<img src=""img/animal6.png"" style=""width:200px; border:14px solid green;"">","null","","","","","",""
"","image-keyboard-response","80","59430","0.0-80.0","3KXIR214I52Z9P2QW3VYKJ83GZU42D","A3I40B0FATY8VH","3KVQ0UJWPX71V463XQYDOZYIDLRW5D","","426.69999998807907","img/animal3.png","76","427.2999999523163","3","1","3","1,0.7,0,0,1,0.7,0.7,0,1",""
"","html-keyboard-response","81","59732","0.0-81.0","3KXIR214I52Z9P2QW3VYKJ83GZU42D","A3I40B0FATY8VH","3KVQ0UJWPX71V463XQYDOZYIDLRW5D","","null","<img src=""img/animal3.png"" style=""width:200px; border:14px solid green;"">","null","","","","","",""
"","image-keyboard-response","82","60214","0.0-82.0","3KXIR214I52Z9P2QW3VYKJ83GZU42D","A3I40B0FATY8VH","3KVQ0UJWPX71V463XQYDOZYIDLRW5D","","482","img/animal6.png","75","482.39999997615814","2","1","2","1,0.7,0,0,1,0.7,0.7,0,1",""
"","html-keyboard-response","83","60515","0.0-83.0","3KXIR214I52Z9P2QW3VYKJ83GZU42D","A3I40B0FATY8VH","3KVQ0UJWPX71V463XQYDOZYIDLRW5D","","null","<img src=""img/animal6.png"" style=""width:200px; border:14px solid green;"">","null","","","","","",""
"","image-keyboard-response","84","60766","0.0-84.0","3KXIR214I52Z9P2QW3VYKJ83GZU42D","A3I40B0FATY8VH","3KVQ0UJWPX71V463XQYDOZYIDLRW5D","","250.39999997615814","img/animal6.png","75","251","2","1","2","1,0.7,0,0,1,0.7,0.7,0,1",""
"","html-keyboard-response","85","61067","0.0-85.0","3KXIR214I52Z9P2QW3VYKJ83GZU42D","A3I40B0FATY8VH","3KVQ0UJWPX71V463XQYDOZYIDLRW5D","","null","<img src=""img/animal6.png"" style=""width:200px; border:14px solid green;"">","null","","","","","",""
"","image-keyboard-response","86","61783","0.0-86.0","3KXIR214I52Z9P2QW3VYKJ83GZU42D","A3I40B0FATY8VH","3KVQ0UJWPX71V463XQYDOZYIDLRW5D","","714.5","img/animal4.png","74","715.5","1","1","1","1,0.7,0,0,1,0.7,0.7,0,1",""
"","html-keyboard-response","87","62086","0.0-87.0","3KXIR214I52Z9P2QW3VYKJ83GZU42D","A3I40B0FATY8VH","3KVQ0UJWPX71V463XQYDOZYIDLRW5D","","null","<img src=""img/animal4.png"" style=""width:200px; border:14px solid green;"">","null","","","","","",""
"","image-keyboard-response","88","62607","0.0-88.0","3KXIR214I52Z9P2QW3VYKJ83GZU42D","A3I40B0FATY8VH","3KVQ0UJWPX71V463XQYDOZYIDLRW5D","","519.3999999761581","img/animal3.png","76","520.8000000119209","3","1","3","1,0.7,0,0,1,0.7,0.7,0,1",""
"","html-keyboard-response","89","62909","0.0-89.0","3KXIR214I52Z9P2QW3VYKJ83GZU42D","A3I40B0FATY8VH","3KVQ0UJWPX71V463XQYDOZYIDLRW5D","","null","<img src=""img/animal3.png"" style=""width:200px; border:14px solid green;"">","null","","","","","",""
"","image-keyboard-response","90","63205","0.0-90.0","3KXIR214I52Z9P2QW3VYKJ83GZU42D","A3I40B0FATY8VH","3KVQ0UJWPX71V463XQYDOZYIDLRW5D","","294.69999998807907","img/animal3.png","76","296","3","1","3","1,0.7,0,0,1,0.7,0.7,0,1",""
"","html-keyboard-response","91","63506","0.0-91.0","3KXIR214I52Z9P2QW3VYKJ83GZU42D","A3I40B0FATY8VH","3KVQ0UJWPX71V463XQYDOZYIDLRW5D","","null","<img src=""img/animal3.png"" style=""width:200px; border:14px solid green;"">","null","","","","","",""
"","image-keyboard-response","92","63781","0.0-92.0","3KXIR214I52Z9P2QW3VYKJ83GZU42D","A3I40B0FATY8VH","3KVQ0UJWPX71V463XQYDOZYIDLRW5D","","273.39999997615814","img/animal3.png","76","274.10000002384186","3","1","3","1,0.7,0,0,1,0.7,0.7,0,1",""
"","html-keyboard-response","93","64085","0.0-93.0","3KXIR214I52Z9P2QW3VYKJ83GZU42D","A3I40B0FATY8VH","3KVQ0UJWPX71V463XQYDOZYIDLRW5D","","null","<img src=""img/animal3.png"" style=""width:200px; border:14px solid green;"">","null","","","","","",""
"","image-keyboard-response","94","64592","0.0-94.0","3KXIR214I52Z9P2QW3VYKJ83GZU42D","A3I40B0FATY8VH","3KVQ0UJWPX71V463XQYDOZYIDLRW5D","","507.30000001192093","img/animal6.png","75","507.80000001192093","2","1","2","1,0.7,0,0,1,0.7,0.7,0,1",""
"","html-keyboard-response","95","64894","0.0-95.0","3KXIR214I52Z9P2QW3VYKJ83GZU42D","A3I40B0FATY8VH","3KVQ0UJWPX71V463XQYDOZYIDLRW5D","","null","<img src=""img/animal6.png"" style=""width:200px; border:14px solid green;"">","null","","","","","",""
"","image-keyboard-response","96","65427","0.0-96.0","3KXIR214I52Z9P2QW3VYKJ83GZU42D","A3I40B0FATY8VH","3KVQ0UJWPX71V463XQYDOZYIDLRW5D","","532","img/animal4.png","74","532.6999999880791","1","1","1","1,0.7,0,0,1,0.7,0.7,0,1",""
"","html-keyboard-response","97","65728","0.0-97.0","3KXIR214I52Z9P2QW3VYKJ83GZU42D","A3I40B0FATY8VH","3KVQ0UJWPX71V463XQYDOZYIDLRW5D","","null","<img src=""img/animal4.png"" style=""width:200px; border:14px solid green;"">","null","","","","","",""
"","image-keyboard-response","98","66239","0.0-98.0","3KXIR214I52Z9P2QW3VYKJ83GZU42D","A3I40B0FATY8VH","3KVQ0UJWPX71V463XQYDOZYIDLRW5D","","509.80000001192093","img/animal3.png","76","510.5","3","1","3","1,0.7,0,0,1,0.7,0.7,0,1",""
"","html-keyboard-response","99","66542","0.0-99.0","3KXIR214I52Z9P2QW3VYKJ83GZU42D","A3I40B0FATY8VH","3KVQ0UJWPX71V463XQYDOZYIDLRW5D","","null","<img src=""img/animal3.png"" style=""width:200px; border:14px solid green;"">","null","","","","","",""
"","image-keyboard-response","100","66993","0.0-100.0","3KXIR214I52Z9P2QW3VYKJ83GZU42D","A3I40B0FATY8VH","3KVQ0UJWPX71V463XQYDOZYIDLRW5D","","449.89999997615814","img/animal6.png","75","451.10000002384186","2","1","2","1,0.7,0,0,1,0.7,0.7,0,1",""
"","html-keyboard-response","101","67295","0.0-101.0","3KXIR214I52Z9P2QW3VYKJ83GZU42D","A3I40B0FATY8VH","3KVQ0UJWPX71V463XQYDOZYIDLRW5D","","null","<img src=""img/animal6.png"" style=""width:200px; border:14px solid green;"">","null","","","","","",""
"","image-keyboard-response","102","67758","0.0-102.0","3KXIR214I52Z9P2QW3VYKJ83GZU42D","A3I40B0FATY8VH","3KVQ0UJWPX71V463XQYDOZYIDLRW5D","","462.10000002384186","img/animal3.png","76","462.69999998807907","3","1","3","1,0.7,0,0,1,0.7,0.7,0,1",""
"","html-keyboard-response","103","68059","0.0-103.0","3KXIR214I52Z9P2QW3VYKJ83GZU42D","A3I40B0FATY8VH","3KVQ0UJWPX71V463XQYDOZYIDLRW5D","","null","<img src=""img/animal3.png"" style=""width:200px; border:14px solid green;"">","null","","","","","",""
"","image-keyboard-response","104","68698","0.0-104.0","3KXIR214I52Z9P2QW3VYKJ83GZU42D","A3I40B0FATY8VH","3KVQ0UJWPX71V463XQYDOZYIDLRW5D","","638.0999999642372","img/animal4.png","74","638.6000000238419","1","1","1","1,0.7,0,0,1,0.7,0.7,0,1",""
"","html-keyboard-response","105","69000","0.0-105.0","3KXIR214I52Z9P2QW3VYKJ83GZU42D","A3I40B0FATY8VH","3KVQ0UJWPX71V463XQYDOZYIDLRW5D","","null","<img src=""img/animal4.png"" style=""width:200px; border:14px solid green;"">","null","","","","","",""
"","image-keyboard-response","106","69660","0.0-106.0","3KXIR214I52Z9P2QW3VYKJ83GZU42D","A3I40B0FATY8VH","3KVQ0UJWPX71V463XQYDOZYIDLRW5D","","659.5","img/animal6.png","75","660.3000000119209","2","1","2","1,0.7,0,0,1,0.7,0.7,0,1",""
"","html-keyboard-response","107","69961","0.0-107.0","3KXIR214I52Z9P2QW3VYKJ83GZU42D","A3I40B0FATY8VH","3KVQ0UJWPX71V463XQYDOZYIDLRW5D","","null","<img src=""img/animal6.png"" style=""width:200px; border:14px solid green;"">","null","","","","","",""
"","image-keyboard-response","108","70458","0.0-108.0","3KXIR214I52Z9P2QW3VYKJ83GZU42D","A3I40B0FATY8VH","3KVQ0UJWPX71V463XQYDOZYIDLRW5D","","496.2999999523163","img/animal4.png","74","496.5","1","1","1","1,0.7,0,0,1,0.7,0.7,0,1",""
"","html-keyboard-response","109","70759","0.0-109.0","3KXIR214I52Z9P2QW3VYKJ83GZU42D","A3I40B0FATY8VH","3KVQ0UJWPX71V463XQYDOZYIDLRW5D","","null","<img src=""img/animal4.png"" style=""width:200px; border:14px solid green;"">","null","","","","","",""
"","image-keyboard-response","110","71025","0.0-110.0","3KXIR214I52Z9P2QW3VYKJ83GZU42D","A3I40B0FATY8VH","3KVQ0UJWPX71V463XQYDOZYIDLRW5D","","264.9000000357628","img/animal4.png","74","265.5","1","1","1","1,0.7,0,0,1,0.7,0.7,0,1",""
"","html-keyboard-response","111","71327","0.0-111.0","3KXIR214I52Z9P2QW3VYKJ83GZU42D","A3I40B0FATY8VH","3KVQ0UJWPX71V463XQYDOZYIDLRW5D","","null","<img src=""img/animal4.png"" style=""width:200px; border:14px solid green;"">","null","","","","","",""
"","image-keyboard-response","112","71767","0.0-112.0","3KXIR214I52Z9P2QW3VYKJ83GZU42D","A3I40B0FATY8VH","3KVQ0UJWPX71V463XQYDOZYIDLRW5D","","439","img/animal6.png","76","440.19999998807907","3","1","2","1,0.7,0,0,1,0.7,0.7,0,1",""
"","html-keyboard-response","113","72068","0.0-113.0","3KXIR214I52Z9P2QW3VYKJ83GZU42D","A3I40B0FATY8VH","3KVQ0UJWPX71V463XQYDOZYIDLRW5D","","null","<img src=""img/animal6.png"" style=""width:200px; border:14px solid green;"">","null","","","","","",""
"","image-keyboard-response","114","72790","0.0-114.0","3KXIR214I52Z9P2QW3VYKJ83GZU42D","A3I40B0FATY8VH","3KVQ0UJWPX71V463XQYDOZYIDLRW5D","","721.1999999880791","img/animal4.png","74","721.6000000238419","1","1","1","1,0.7,0,0,1,0.7,0.7,0,1",""
"","html-keyboard-response","115","73105","0.0-115.0","3KXIR214I52Z9P2QW3VYKJ83GZU42D","A3I40B0FATY8VH","3KVQ0UJWPX71V463XQYDOZYIDLRW5D","","null","<img src=""img/animal4.png"" style=""width:200px; border:14px solid green;"">","null","","","","","",""
"","image-keyboard-response","116","73706","0.0-116.0","3KXIR214I52Z9P2QW3VYKJ83GZU42D","A3I40B0FATY8VH","3KVQ0UJWPX71V463XQYDOZYIDLRW5D","","600.5999999642372","img/animal3.png","76","601.1999999880791","3","1","3","1,0.7,0,0,1,0.7,0.7,0,1",""
"","html-keyboard-response","117","74008","0.0-117.0","3KXIR214I52Z9P2QW3VYKJ83GZU42D","A3I40B0FATY8VH","3KVQ0UJWPX71V463XQYDOZYIDLRW5D","","null","<img src=""img/animal3.png"" style=""width:200px; border:14px solid green;"">","null","","","","","",""
"","image-keyboard-response","118","74428","0.0-118.0","3KXIR214I52Z9P2QW3VYKJ83GZU42D","A3I40B0FATY8VH","3KVQ0UJWPX71V463XQYDOZYIDLRW5D","","418.5","img/animal6.png","75","419.4000000357628","2","1","2","1,0.7,0,0,1,0.7,0.7,0,1",""
"","html-keyboard-response","119","74730","0.0-119.0","3KXIR214I52Z9P2QW3VYKJ83GZU42D","A3I40B0FATY8VH","3KVQ0UJWPX71V463XQYDOZYIDLRW5D","","null","<img src=""img/animal6.png"" style=""width:200px; border:14px solid green;"">","null","","","","","",""
"","image-keyboard-response","120","75031","0.0-120.0","3KXIR214I52Z9P2QW3VYKJ83GZU42D","A3I40B0FATY8VH","3KVQ0UJWPX71V463XQYDOZYIDLRW5D","","300.4000000357628","img/animal6.png","75","300.89999997615814","2","1","2","1,0.7,0,0,1,0.7,0.7,0,1",""
"","html-keyboard-response","121","75333","0.0-121.0","3KXIR214I52Z9P2QW3VYKJ83GZU42D","A3I40B0FATY8VH","3KVQ0UJWPX71V463XQYDOZYIDLRW5D","","null","<img src=""img/animal6.png"" style=""width:200px; border:14px solid green;"">","null","","","","","",""
"","image-keyboard-response","122","75920","0.0-122.0","3KXIR214I52Z9P2QW3VYKJ83GZU42D","A3I40B0FATY8VH","3KVQ0UJWPX71V463XQYDOZYIDLRW5D","","586.0999999642372","img/animal4.png","74","587.0999999642372","1","1","1","1,0.7,0,0,1,0.7,0.7,0,1",""
"","html-keyboard-response","123","76222","0.0-123.0","3KXIR214I52Z9P2QW3VYKJ83GZU42D","A3I40B0FATY8VH","3KVQ0UJWPX71V463XQYDOZYIDLRW5D","","null","<img src=""img/animal4.png"" style=""width:200px; border:14px solid green;"">","null","","","","","",""
"","image-keyboard-response","124","76700","0.0-124.0","3KXIR214I52Z9P2QW3VYKJ83GZU42D","A3I40B0FATY8VH","3KVQ0UJWPX71V463XQYDOZYIDLRW5D","","477.89999997615814","img/animal6.png","75","478.19999998807907","2","1","2","1,0.7,0,0,1,0.7,0.7,0,1",""
"","html-keyboard-response","125","77001","0.0-125.0","3KXIR214I52Z9P2QW3VYKJ83GZU42D","A3I40B0FATY8VH","3KVQ0UJWPX71V463XQYDOZYIDLRW5D","","null","<img src=""img/animal6.png"" style=""width:200px; border:14px solid green;"">","null","","","","","",""
"","image-keyboard-response","126","77267","0.0-126.0","3KXIR214I52Z9P2QW3VYKJ83GZU42D","A3I40B0FATY8VH","3KVQ0UJWPX71V463XQYDOZYIDLRW5D","","264.5","img/animal6.png","75","265.60000002384186","2","1","2","1,0.7,0,0,1,0.7,0.7,0,1",""
"","html-keyboard-response","127","77568","0.0-127.0","3KXIR214I52Z9P2QW3VYKJ83GZU42D","A3I40B0FATY8VH","3KVQ0UJWPX71V463XQYDOZYIDLRW5D","","null","<img src=""img/animal6.png"" style=""width:200px; border:14px solid green;"">","null","","","","","",""
"","image-keyboard-response","128","78062","0.0-128.0","3KXIR214I52Z9P2QW3VYKJ83GZU42D","A3I40B0FATY8VH","3KVQ0UJWPX71V463XQYDOZYIDLRW5D","","493.10000002384186","img/animal4.png","74","493.5999999642372","1","1","1","1,0.7,0,0,1,0.7,0.7,0,1",""
"","html-keyboard-response","129","78364","0.0-129.0","3KXIR214I52Z9P2QW3VYKJ83GZU42D","A3I40B0FATY8VH","3KVQ0UJWPX71V463XQYDOZYIDLRW5D","","null","<img src=""img/animal4.png"" style=""width:200px; border:14px solid green;"">","null","","","","","",""
"","image-keyboard-response","130","78817","0.0-130.0","3KXIR214I52Z9P2QW3VYKJ83GZU42D","A3I40B0FATY8VH","3KVQ0UJWPX71V463XQYDOZYIDLRW5D","","451.80000001192093","img/animal3.png","76","452.80000001192093","3","1","3","1,0.7,0,0,1,0.7,0.7,0,1",""
"","html-keyboard-response","131","79118","0.0-131.0","3KXIR214I52Z9P2QW3VYKJ83GZU42D","A3I40B0FATY8VH","3KVQ0UJWPX71V463XQYDOZYIDLRW5D","","null","<img src=""img/animal3.png"" style=""width:200px; border:14px solid green;"">","null","","","","","",""
"","image-keyboard-response","132","79637","0.0-132.0","3KXIR214I52Z9P2QW3VYKJ83GZU42D","A3I40B0FATY8VH","3KVQ0UJWPX71V463XQYDOZYIDLRW5D","","518.3999999761581","img/animal6.png","75","518.6999999880791","2","1","2","1,0.7,0,0,1,0.7,0.7,0,1",""
"","html-keyboard-response","133","79938","0.0-133.0","3KXIR214I52Z9P2QW3VYKJ83GZU42D","A3I40B0FATY8VH","3KVQ0UJWPX71V463XQYDOZYIDLRW5D","","null","<img src=""img/animal6.png"" style=""width:200px; border:14px solid green;"">","null","","","","","",""
"","image-keyboard-response","134","80429","0.0-134.0","3KXIR214I52Z9P2QW3VYKJ83GZU42D","A3I40B0FATY8VH","3KVQ0UJWPX71V463XQYDOZYIDLRW5D","","489.60000002384186","img/animal4.png","74","490.19999998807907","1","1","1","1,0.7,0,0,1,0.7,0.7,0,1",""
"","html-keyboard-response","135","80731","0.0-135.0","3KXIR214I52Z9P2QW3VYKJ83GZU42D","A3I40B0FATY8VH","3KVQ0UJWPX71V463XQYDOZYIDLRW5D","","null","<img src=""img/animal4.png"" style=""width:200px; border:14px solid green;"">","null","","","","","",""
"","image-keyboard-response","136","81246","0.0-136.0","3KXIR214I52Z9P2QW3VYKJ83GZU42D","A3I40B0FATY8VH","3KVQ0UJWPX71V463XQYDOZYIDLRW5D","","513.8999999761581","img/animal3.png","76","514.5","3","1","3","1,0.7,0,0,1,0.7,0.7,0,1",""
"","html-keyboard-response","137","81547","0.0-137.0","3KXIR214I52Z9P2QW3VYKJ83GZU42D","A3I40B0FATY8VH","3KVQ0UJWPX71V463XQYDOZYIDLRW5D","","null","<img src=""img/animal3.png"" style=""width:200px; border:14px solid green;"">","null","","","","","",""
"","image-keyboard-response","138","82022","0.0-138.0","3KXIR214I52Z9P2QW3VYKJ83GZU42D","A3I40B0FATY8VH","3KVQ0UJWPX71V463XQYDOZYIDLRW5D","","474.30000001192093","img/animal6.png","75","474.69999998807907","2","1","2","1,0.7,0,0,1,0.7,0.7,0,1",""
"","html-keyboard-response","139","82342","0.0-139.0","3KXIR214I52Z9P2QW3VYKJ83GZU42D","A3I40B0FATY8VH","3KVQ0UJWPX71V463XQYDOZYIDLRW5D","","null","<img src=""img/animal6.png"" style=""width:200px; border:14px solid green;"">","null","","","","","",""
"","image-keyboard-response","140","82666","0.0-140.0","3KXIR214I52Z9P2QW3VYKJ83GZU42D","A3I40B0FATY8VH","3KVQ0UJWPX71V463XQYDOZYIDLRW5D","","323.19999998807907","img/animal6.png","75","324.10000002384186","2","1","2","1,0.7,0,0,1,0.7,0.7,0,1",""
"","html-keyboard-response","141","82968","0.0-141.0","3KXIR214I52Z9P2QW3VYKJ83GZU42D","A3I40B0FATY8VH","3KVQ0UJWPX71V463XQYDOZYIDLRW5D","","null","<img src=""img/animal6.png"" style=""width:200px; border:14px solid green;"">","null","","","","","",""
"","image-keyboard-response","142","83421","0.0-142.0","3KXIR214I52Z9P2QW3VYKJ83GZU42D","A3I40B0FATY8VH","3KVQ0UJWPX71V463XQYDOZYIDLRW5D","","451.5","img/animal3.png","76","452.30000001192093","3","1","3","1,0.7,0,0,1,0.7,0.7,0,1",""
"","html-keyboard-response","143","83722","0.0-143.0","3KXIR214I52Z9P2QW3VYKJ83GZU42D","A3I40B0FATY8VH","3KVQ0UJWPX71V463XQYDOZYIDLRW5D","","null","<img src=""img/animal3.png"" style=""width:200px; border:14px solid green;"">","null","","","","","",""
"","image-keyboard-response","144","83981","0.0-144.0","3KXIR214I52Z9P2QW3VYKJ83GZU42D","A3I40B0FATY8VH","3KVQ0UJWPX71V463XQYDOZYIDLRW5D","","258.30000001192093","img/animal3.png","76","258.89999997615814","3","1","3","1,0.7,0,0,1,0.7,0.7,0,1",""
"","html-keyboard-response","145","84283","0.0-145.0","3KXIR214I52Z9P2QW3VYKJ83GZU42D","A3I40B0FATY8VH","3KVQ0UJWPX71V463XQYDOZYIDLRW5D","","null","<img src=""img/animal3.png"" style=""width:200px; border:14px solid green;"">","null","","","","","",""
"","image-keyboard-response","146","84780","0.0-146.0","3KXIR214I52Z9P2QW3VYKJ83GZU42D","A3I40B0FATY8VH","3KVQ0UJWPX71V463XQYDOZYIDLRW5D","","495.80000001192093","img/animal6.png","75","497","2","1","2","1,0.7,0,0,1,0.7,0.7,0,1",""
"","html-keyboard-response","147","85081","0.0-147.0","3KXIR214I52Z9P2QW3VYKJ83GZU42D","A3I40B0FATY8VH","3KVQ0UJWPX71V463XQYDOZYIDLRW5D","","null","<img src=""img/animal6.png"" style=""width:200px; border:14px solid green;"">","null","","","","","",""
"","image-keyboard-response","148","85339","0.0-148.0","3KXIR214I52Z9P2QW3VYKJ83GZU42D","A3I40B0FATY8VH","3KVQ0UJWPX71V463XQYDOZYIDLRW5D","","256.60000002384186","img/animal6.png","75","257.4000000357628","2","1","2","1,0.7,0,0,1,0.7,0.7,0,1",""
"","html-keyboard-response","149","85640","0.0-149.0","3KXIR214I52Z9P2QW3VYKJ83GZU42D","A3I40B0FATY8VH","3KVQ0UJWPX71V463XQYDOZYIDLRW5D","","null","<img src=""img/animal6.png"" style=""width:200px; border:14px solid green;"">","null","","","","","",""
"","image-keyboard-response","150","86202","0.0-150.0","3KXIR214I52Z9P2QW3VYKJ83GZU42D","A3I40B0FATY8VH","3KVQ0UJWPX71V463XQYDOZYIDLRW5D","","561.3000000119209","img/animal4.png","74","562.0999999642372","1","1","1","1,0.7,0,0,1,0.7,0.7,0,1",""
"","html-keyboard-response","151","86505","0.0-151.0","3KXIR214I52Z9P2QW3VYKJ83GZU42D","A3I40B0FATY8VH","3KVQ0UJWPX71V463XQYDOZYIDLRW5D","","null","<img src=""img/animal4.png"" style=""width:200px; border:14px solid green;"">","null","","","","","",""
"","image-keyboard-response","152","87147","0.0-152.0","3KXIR214I52Z9P2QW3VYKJ83GZU42D","A3I40B0FATY8VH","3KVQ0UJWPX71V463XQYDOZYIDLRW5D","","642.1999999880791","img/animal4.png","74","642.6999999880791","1","1","1","1,0.7,0,0,1,0.7,0.7,0,1",""
"","html-keyboard-response","153","87450","0.0-153.0","3KXIR214I52Z9P2QW3VYKJ83GZU42D","A3I40B0FATY8VH","3KVQ0UJWPX71V463XQYDOZYIDLRW5D","","null","<img src=""img/animal4.png"" style=""width:200px; border:14px solid green;"">","null","","","","","",""
"","image-keyboard-response","154","87830","0.0-154.0","3KXIR214I52Z9P2QW3VYKJ83GZU42D","A3I40B0FATY8VH","3KVQ0UJWPX71V463XQYDOZYIDLRW5D","","378.80000001192093","img/animal4.png","74","379.89999997615814","1","1","1","1,0.7,0,0,1,0.7,0.7,0,1",""
"","html-keyboard-response","155","88132","0.0-155.0","3KXIR214I52Z9P2QW3VYKJ83GZU42D","A3I40B0FATY8VH","3KVQ0UJWPX71V463XQYDOZYIDLRW5D","","null","<img src=""img/animal4.png"" style=""width:200px; border:14px solid green;"">","null","","","","","",""
"","image-keyboard-response","156","88630","0.0-156.0","3KXIR214I52Z9P2QW3VYKJ83GZU42D","A3I40B0FATY8VH","3KVQ0UJWPX71V463XQYDOZYIDLRW5D","","496.30000001192093","img/animal3.png","76","497.5999999642372","3","1","3","1,0.7,0,0,1,0.7,0.7,0,1",""
"","html-keyboard-response","157","88933","0.0-157.0","3KXIR214I52Z9P2QW3VYKJ83GZU42D","A3I40B0FATY8VH","3KVQ0UJWPX71V463XQYDOZYIDLRW5D","","null","<img src=""img/animal3.png"" style=""width:200px; border:14px solid green;"">","null","","","","","",""
"","image-keyboard-response","158","89533","0.0-158.0","3KXIR214I52Z9P2QW3VYKJ83GZU42D","A3I40B0FATY8VH","3KVQ0UJWPX71V463XQYDOZYIDLRW5D","","598.6999999880791","img/animal4.png","74","599.8000000119209","1","1","1","1,0.7,0,0,1,0.7,0.7,0,1",""
"","html-keyboard-response","159","89834","0.0-159.0","3KXIR214I52Z9P2QW3VYKJ83GZU42D","A3I40B0FATY8VH","3KVQ0UJWPX71V463XQYDOZYIDLRW5D","","null","<img src=""img/animal4.png"" style=""width:200px; border:14px solid green;"">","null","","","","","",""
"","image-keyboard-response","160","90212","0.0-160.0","3KXIR214I52Z9P2QW3VYKJ83GZU42D","A3I40B0FATY8VH","3KVQ0UJWPX71V463XQYDOZYIDLRW5D","","376.5","img/animal4.png","74","377","1","1","1","1,0.7,0,0,1,0.7,0.7,0,1",""
"","html-keyboard-response","161","90513","0.0-161.0","3KXIR214I52Z9P2QW3VYKJ83GZU42D","A3I40B0FATY8VH","3KVQ0UJWPX71V463XQYDOZYIDLRW5D","","null","<img src=""img/animal4.png"" style=""width:200px; border:14px solid green;"">","null","","","","","",""
"","image-keyboard-response","162","91057","0.0-162.0","3KXIR214I52Z9P2QW3VYKJ83GZU42D","A3I40B0FATY8VH","3KVQ0UJWPX71V463XQYDOZYIDLRW5D","","543.3000000119209","img/animal3.png","76","543.9000000357628","3","1","3","1,0.7,0,0,1,0.7,0.7,0,1",""
"","html-keyboard-response","163","91358","0.0-163.0","3KXIR214I52Z9P2QW3VYKJ83GZU42D","A3I40B0FATY8VH","3KVQ0UJWPX71V463XQYDOZYIDLRW5D","","null","<img src=""img/animal3.png"" style=""width:200px; border:14px solid green;"">","null","","","","","",""
"","image-keyboard-response","164","91716","0.0-164.0","3KXIR214I52Z9P2QW3VYKJ83GZU42D","A3I40B0FATY8VH","3KVQ0UJWPX71V463XQYDOZYIDLRW5D","","355.7000000476837","img/animal3.png","76","357.10000002384186","3","1","3","1,0.7,0,0,1,0.7,0.7,0,1",""
"","html-keyboard-response","165","92017","0.0-165.0","3KXIR214I52Z9P2QW3VYKJ83GZU42D","A3I40B0FATY8VH","3KVQ0UJWPX71V463XQYDOZYIDLRW5D","","null","<img src=""img/animal3.png"" style=""width:200px; border:14px solid green;"">","null","","","","","",""
"","image-keyboard-response","166","92643","0.0-166.0","3KXIR214I52Z9P2QW3VYKJ83GZU42D","A3I40B0FATY8VH","3KVQ0UJWPX71V463XQYDOZYIDLRW5D","","625.5999999642372","img/animal4.png","74","626.5","1","1","1","1,0.7,0,0,1,0.7,0.7,0,1",""
"","html-keyboard-response","167","92945","0.0-167.0","3KXIR214I52Z9P2QW3VYKJ83GZU42D","A3I40B0FATY8VH","3KVQ0UJWPX71V463XQYDOZYIDLRW5D","","null","<img src=""img/animal4.png"" style=""width:200px; border:14px solid green;"">","null","","","","","",""
"","image-keyboard-response","168","93627","0.0-168.0","3KXIR214I52Z9P2QW3VYKJ83GZU42D","A3I40B0FATY8VH","3KVQ0UJWPX71V463XQYDOZYIDLRW5D","","680.5999999642372","img/animal3.png","76","681.9000000357628","3","1","3","1,0.7,0,0,1,0.7,0.7,0,1",""
"","html-keyboard-response","169","93929","0.0-169.0","3KXIR214I52Z9P2QW3VYKJ83GZU42D","A3I40B0FATY8VH","3KVQ0UJWPX71V463XQYDOZYIDLRW5D","","null","<img src=""img/animal3.png"" style=""width:200px; border:14px solid green;"">","null","","","","","",""
"","image-keyboard-response","170","95090","0.0-170.0","3KXIR214I52Z9P2QW3VYKJ83GZU42D","A3I40B0FATY8VH","3KVQ0UJWPX71V463XQYDOZYIDLRW5D","","1159.8999999761581","img/animal4.png","74","1161.300000011921","1","1","1","1,0.7,0,0,1,0.7,0.7,0,1",""
"","html-keyboard-response","171","95392","0.0-171.0","3KXIR214I52Z9P2QW3VYKJ83GZU42D","A3I40B0FATY8VH","3KVQ0UJWPX71V463XQYDOZYIDLRW5D","","null","<img src=""img/animal4.png"" style=""width:200px; border:14px solid green;"">","null","","","","","",""
"","image-keyboard-response","172","95703","0.0-172.0","3KXIR214I52Z9P2QW3VYKJ83GZU42D","A3I40B0FATY8VH","3KVQ0UJWPX71V463XQYDOZYIDLRW5D","","310","img/animal4.png","74","310.5","1","1","1","1,0.7,0,0,1,0.7,0.7,0,1",""
"","html-keyboard-response","173","96004","0.0-173.0","3KXIR214I52Z9P2QW3VYKJ83GZU42D","A3I40B0FATY8VH","3KVQ0UJWPX71V463XQYDOZYIDLRW5D","","null","<img src=""img/animal4.png"" style=""width:200px; border:14px solid green;"">","null","","","","","",""
"","image-keyboard-response","174","96485","0.0-174.0","3KXIR214I52Z9P2QW3VYKJ83GZU42D","A3I40B0FATY8VH","3KVQ0UJWPX71V463XQYDOZYIDLRW5D","","479","img/animal3.png","76","480.0999999642372","3","1","3","1,0.7,0,0,1,0.7,0.7,0,1",""
"","html-keyboard-response","175","96787","0.0-175.0","3KXIR214I52Z9P2QW3VYKJ83GZU42D","A3I40B0FATY8VH","3KVQ0UJWPX71V463XQYDOZYIDLRW5D","","null","<img src=""img/animal3.png"" style=""width:200px; border:14px solid green;"">","null","","","","","",""
"","image-keyboard-response","176","97126","0.0-176.0","3KXIR214I52Z9P2QW3VYKJ83GZU42D","A3I40B0FATY8VH","3KVQ0UJWPX71V463XQYDOZYIDLRW5D","","337.9000000357628","img/animal3.png","76","339.2000000476837","3","1","3","1,0.7,0,0,1,0.7,0.7,0,1",""
"","html-keyboard-response","177","97428","0.0-177.0","3KXIR214I52Z9P2QW3VYKJ83GZU42D","A3I40B0FATY8VH","3KVQ0UJWPX71V463XQYDOZYIDLRW5D","","null","<img src=""img/animal3.png"" style=""width:200px; border:14px solid green;"">","null","","","","","",""
"","image-keyboard-response","178","97863","0.0-178.0","3KXIR214I52Z9P2QW3VYKJ83GZU42D","A3I40B0FATY8VH","3KVQ0UJWPX71V463XQYDOZYIDLRW5D","","434","img/animal6.png","74","434.5","1","0","2","1,0.7,0,0,1,0.7,0.7,0,1",""
"","html-keyboard-response","179","98164","0.0-179.0","3KXIR214I52Z9P2QW3VYKJ83GZU42D","A3I40B0FATY8VH","3KVQ0UJWPX71V463XQYDOZYIDLRW5D","","null","<img src=""img/animal6.png"" style=""width:200px;border:14px solid red;"">","null","","","","","",""
"","image-keyboard-response","180","98722","0.0-180.0","3KXIR214I52Z9P2QW3VYKJ83GZU42D","A3I40B0FATY8VH","3KVQ0UJWPX71V463XQYDOZYIDLRW5D","","555.9000000357628","img/animal4.png","74","556.8999999761581","1","1","1","1,0.7,0,0,1,0.7,0.7,0,1",""
"","html-keyboard-response","181","99024","0.0-181.0","3KXIR214I52Z9P2QW3VYKJ83GZU42D","A3I40B0FATY8VH","3KVQ0UJWPX71V463XQYDOZYIDLRW5D","","null","<img src=""img/animal4.png"" style=""width:200px; border:14px solid green;"">","null","","","","","",""
"","html-keyboard-response","182","101433","0.0-182.0","3KXIR214I52Z9P2QW3VYKJ83GZU42D","A3I40B0FATY8VH","3KVQ0UJWPX71V463XQYDOZYIDLRW5D","","","","","","","","","",""
"","image-keyboard-response","183","102331","0.0-183.0","3KXIR214I52Z9P2QW3VYKJ83GZU42D","A3I40B0FATY8VH","3KVQ0UJWPX71V463XQYDOZYIDLRW5D","","897.6000000238419","img/animal5.png","74","898.1999999880791","1","1","2","1,0.7,0,1,0.7,0,0.7,0,1",""
"","html-keyboard-response","184","102633","0.0-184.0","3KXIR214I52Z9P2QW3VYKJ83GZU42D","A3I40B0FATY8VH","3KVQ0UJWPX71V463XQYDOZYIDLRW5D","","null","<img src=""img/animal5.png"" style=""width:200px; border:14px solid green;"">","null","","","","","",""
"","image-keyboard-response","185","102894","0.0-185.0","3KXIR214I52Z9P2QW3VYKJ83GZU42D","A3I40B0FATY8VH","3KVQ0UJWPX71V463XQYDOZYIDLRW5D","","259.9000000357628","img/animal5.png","74","261.39999997615814","1","1","2","1,0.7,0,1,0.7,0,0.7,0,1",""
"","html-keyboard-response","186","103196","0.0-186.0","3KXIR214I52Z9P2QW3VYKJ83GZU42D","A3I40B0FATY8VH","3KVQ0UJWPX71V463XQYDOZYIDLRW5D","","null","<img src=""img/animal5.png"" style=""width:200px; border:14px solid green;"">","null","","","","","",""
"","image-keyboard-response","187","103443","0.0-187.0","3KXIR214I52Z9P2QW3VYKJ83GZU42D","A3I40B0FATY8VH","3KVQ0UJWPX71V463XQYDOZYIDLRW5D","","245","img/animal5.png","74","246.19999998807907","1","1","2","1,0.7,0,1,0.7,0,0.7,0,1",""
"","html-keyboard-response","188","103744","0.0-188.0","3KXIR214I52Z9P2QW3VYKJ83GZU42D","A3I40B0FATY8VH","3KVQ0UJWPX71V463XQYDOZYIDLRW5D","","null","<img src=""img/animal5.png"" style=""width:200px; border:14px solid green;"">","null","","","","","",""
"","image-keyboard-response","189","104520","0.0-189.0","3KXIR214I52Z9P2QW3VYKJ83GZU42D","A3I40B0FATY8VH","3KVQ0UJWPX71V463XQYDOZYIDLRW5D","","775","img/animal2.png","76","775.6000000238419","3","0","1","1,0.7,0,1,0.7,0,0.7,0,1",""
"","html-keyboard-response","190","104822","0.0-190.0","3KXIR214I52Z9P2QW3VYKJ83GZU42D","A3I40B0FATY8VH","3KVQ0UJWPX71V463XQYDOZYIDLRW5D","","null","<img src=""img/animal2.png"" style=""width:200px;border:14px solid red;"">","null","","","","","",""
"","image-keyboard-response","191","105814","0.0-191.0","3KXIR214I52Z9P2QW3VYKJ83GZU42D","A3I40B0FATY8VH","3KVQ0UJWPX71V463XQYDOZYIDLRW5D","","991.8999999761581","img/animal1.png","75","992.5","2","0","3","1,0.7,0,1,0.7,0,0.7,0,1",""
"","html-keyboard-response","192","106123","0.0-192.0","3KXIR214I52Z9P2QW3VYKJ83GZU42D","A3I40B0FATY8VH","3KVQ0UJWPX71V463XQYDOZYIDLRW5D","","null","<img src=""img/animal1.png"" style=""width:200px;border:14px solid red;"">","null","","","","","",""
"","image-keyboard-response","193","106694","0.0-193.0","3KXIR214I52Z9P2QW3VYKJ83GZU42D","A3I40B0FATY8VH","3KVQ0UJWPX71V463XQYDOZYIDLRW5D","","569.6000000238419","img/animal1.png","76","570.6000000238419","3","1","3","1,0.7,0,1,0.7,0,0.7,0,1",""
"","html-keyboard-response","194","106995","0.0-194.0","3KXIR214I52Z9P2QW3VYKJ83GZU42D","A3I40B0FATY8VH","3KVQ0UJWPX71V463XQYDOZYIDLRW5D","","null","<img src=""img/animal1.png"" style=""width:200px; border:14px solid green;"">","null","","","","","",""
"","image-keyboard-response","195","107875","0.0-195.0","3KXIR214I52Z9P2QW3VYKJ83GZU42D","A3I40B0FATY8VH","3KVQ0UJWPX71V463XQYDOZYIDLRW5D","","879.5","img/animal5.png","74","880","1","1","2","1,0.7,0,1,0.7,0,0.7,0,1",""
"","html-keyboard-response","196","108177","0.0-196.0","3KXIR214I52Z9P2QW3VYKJ83GZU42D","A3I40B0FATY8VH","3KVQ0UJWPX71V463XQYDOZYIDLRW5D","","null","<img src=""img/animal5.png"" style=""width:200px; border:14px solid green;"">","null","","","","","",""
"","image-keyboard-response","197","108830","0.0-197.0","3KXIR214I52Z9P2QW3VYKJ83GZU42D","A3I40B0FATY8VH","3KVQ0UJWPX71V463XQYDOZYIDLRW5D","","652.1999999880791","img/animal1.png","76","653.3000000119209","3","1","3","1,0.7,0,1,0.7,0,0.7,0,1",""
"","html-keyboard-response","198","109133","0.0-198.0","3KXIR214I52Z9P2QW3VYKJ83GZU42D","A3I40B0FATY8VH","3KVQ0UJWPX71V463XQYDOZYIDLRW5D","","null","<img src=""img/animal1.png"" style=""width:200px; border:14px solid green;"">","null","","","","","",""
"","image-keyboard-response","199","109615","0.0-199.0","3KXIR214I52Z9P2QW3VYKJ83GZU42D","A3I40B0FATY8VH","3KVQ0UJWPX71V463XQYDOZYIDLRW5D","","480.39999997615814","img/animal2.png","75","481.80000001192093","2","1","1","1,0.7,0,1,0.7,0,0.7,0,1",""
"","html-keyboard-response","200","109917","0.0-200.0","3KXIR214I52Z9P2QW3VYKJ83GZU42D","A3I40B0FATY8VH","3KVQ0UJWPX71V463XQYDOZYIDLRW5D","","null","<img src=""img/animal2.png"" style=""width:200px; border:14px solid green;"">","null","","","","","",""
"","image-keyboard-response","201","110417","0.0-201.0","3KXIR214I52Z9P2QW3VYKJ83GZU42D","A3I40B0FATY8VH","3KVQ0UJWPX71V463XQYDOZYIDLRW5D","","499.30000001192093","img/animal5.png","74","499.69999998807907","1","1","2","1,0.7,0,1,0.7,0,0.7,0,1",""
"","html-keyboard-response","202","110718","0.0-202.0","3KXIR214I52Z9P2QW3VYKJ83GZU42D","A3I40B0FATY8VH","3KVQ0UJWPX71V463XQYDOZYIDLRW5D","","null","<img src=""img/animal5.png"" style=""width:200px; border:14px solid green;"">","null","","","","","",""
"","image-keyboard-response","203","111220","0.0-203.0","3KXIR214I52Z9P2QW3VYKJ83GZU42D","A3I40B0FATY8VH","3KVQ0UJWPX71V463XQYDOZYIDLRW5D","","500.5","img/animal2.png","76","501.2000000476837","3","0","1","1,0.7,0,1,0.7,0,0.7,0,1",""
"","html-keyboard-response","204","111522","0.0-204.0","3KXIR214I52Z9P2QW3VYKJ83GZU42D","A3I40B0FATY8VH","3KVQ0UJWPX71V463XQYDOZYIDLRW5D","","null","<img src=""img/animal2.png"" style=""width:200px;border:14px solid red;"">","null","","","","","",""
"","image-keyboard-response","205","111857","0.0-205.0","3KXIR214I52Z9P2QW3VYKJ83GZU42D","A3I40B0FATY8VH","3KVQ0UJWPX71V463XQYDOZYIDLRW5D","","333.60000002384186","img/animal2.png","75","334.69999998807907","2","1","1","1,0.7,0,1,0.7,0,0.7,0,1",""
"","html-keyboard-response","206","112159","0.0-206.0","3KXIR214I52Z9P2QW3VYKJ83GZU42D","A3I40B0FATY8VH","3KVQ0UJWPX71V463XQYDOZYIDLRW5D","","null","<img src=""img/animal2.png"" style=""width:200px; border:14px solid green;"">","null","","","","","",""
"","image-keyboard-response","207","112400","0.0-207.0","3KXIR214I52Z9P2QW3VYKJ83GZU42D","A3I40B0FATY8VH","3KVQ0UJWPX71V463XQYDOZYIDLRW5D","","240.30000001192093","img/animal2.png","75","241.10000002384186","2","0","1","1,0.7,0,1,0.7,0,0.7,0,1",""
"","html-keyboard-response","208","112703","0.0-208.0","3KXIR214I52Z9P2QW3VYKJ83GZU42D","A3I40B0FATY8VH","3KVQ0UJWPX71V463XQYDOZYIDLRW5D","","null","<img src=""img/animal2.png"" style=""width:200px;border:14px solid red;"">","null","","","","","",""
"","image-keyboard-response","209","112915","0.0-209.0","3KXIR214I52Z9P2QW3VYKJ83GZU42D","A3I40B0FATY8VH","3KVQ0UJWPX71V463XQYDOZYIDLRW5D","","211.5","img/animal1.png","75","211.9000000357628","2","0","3","1,0.7,0,1,0.7,0,0.7,0,1",""
"","html-keyboard-response","210","113216","0.0-210.0","3KXIR214I52Z9P2QW3VYKJ83GZU42D","A3I40B0FATY8VH","3KVQ0UJWPX71V463XQYDOZYIDLRW5D","","null","<img src=""img/animal1.png"" style=""width:200px;border:14px solid red;"">","null","","","","","",""
"","image-keyboard-response","211","113831","0.0-211.0","3KXIR214I52Z9P2QW3VYKJ83GZU42D","A3I40B0FATY8VH","3KVQ0UJWPX71V463XQYDOZYIDLRW5D","","613.0999999642372","img/animal2.png","75","614.3000000119209","2","1","1","1,0.7,0,1,0.7,0,0.7,0,1",""
"","html-keyboard-response","212","114133","0.0-212.0","3KXIR214I52Z9P2QW3VYKJ83GZU42D","A3I40B0FATY8VH","3KVQ0UJWPX71V463XQYDOZYIDLRW5D","","null","<img src=""img/animal2.png"" style=""width:200px; border:14px solid green;"">","null","","","","","",""
"","image-keyboard-response","213","114708","0.0-213.0","3KXIR214I52Z9P2QW3VYKJ83GZU42D","A3I40B0FATY8VH","3KVQ0UJWPX71V463XQYDOZYIDLRW5D","","574.8000000119209","img/animal5.png","74","575.1999999880791","1","1","2","1,0.7,0,1,0.7,0,0.7,0,1",""
"","html-keyboard-response","214","115009","0.0-214.0","3KXIR214I52Z9P2QW3VYKJ83GZU42D","A3I40B0FATY8VH","3KVQ0UJWPX71V463XQYDOZYIDLRW5D","","null","<img src=""img/animal5.png"" style=""width:200px; border:14px solid green;"">","null","","","","","",""
"","image-keyboard-response","215","115586","0.0-215.0","3KXIR214I52Z9P2QW3VYKJ83GZU42D","A3I40B0FATY8VH","3KVQ0UJWPX71V463XQYDOZYIDLRW5D","","575.6000000238419","img/animal2.png","75","576.6999999880791","2","1","1","1,0.7,0,1,0.7,0,0.7,0,1",""
"","html-keyboard-response","216","115888","0.0-216.0","3KXIR214I52Z9P2QW3VYKJ83GZU42D","A3I40B0FATY8VH","3KVQ0UJWPX71V463XQYDOZYIDLRW5D","","null","<img src=""img/animal2.png"" style=""width:200px; border:14px solid green;"">","null","","","","","",""
"","image-keyboard-response","217","116395","0.0-217.0","3KXIR214I52Z9P2QW3VYKJ83GZU42D","A3I40B0FATY8VH","3KVQ0UJWPX71V463XQYDOZYIDLRW5D","","505.5999999642372","img/animal1.png","76","506.30000001192093","3","1","3","1,0.7,0,1,0.7,0,0.7,0,1",""
"","html-keyboard-response","218","116697","0.0-218.0","3KXIR214I52Z9P2QW3VYKJ83GZU42D","A3I40B0FATY8VH","3KVQ0UJWPX71V463XQYDOZYIDLRW5D","","null","<img src=""img/animal1.png"" style=""width:200px; border:14px solid green;"">","null","","","","","",""
"","image-keyboard-response","219","117636","0.0-219.0","3KXIR214I52Z9P2QW3VYKJ83GZU42D","A3I40B0FATY8VH","3KVQ0UJWPX71V463XQYDOZYIDLRW5D","","938.3000000119209","img/animal5.png","74","939.3000000119209","1","1","2","1,0.7,0,1,0.7,0,0.7,0,1",""
"","html-keyboard-response","220","117938","0.0-220.0","3KXIR214I52Z9P2QW3VYKJ83GZU42D","A3I40B0FATY8VH","3KVQ0UJWPX71V463XQYDOZYIDLRW5D","","null","<img src=""img/animal5.png"" style=""width:200px; border:14px solid green;"">","null","","","","","",""
"","image-keyboard-response","221","118416","0.0-221.0","3KXIR214I52Z9P2QW3VYKJ83GZU42D","A3I40B0FATY8VH","3KVQ0UJWPX71V463XQYDOZYIDLRW5D","","477.10000002384186","img/animal2.png","76","477.4000000357628","3","0","1","1,0.7,0,1,0.7,0,0.7,0,1",""
"","html-keyboard-response","222","118717","0.0-222.0","3KXIR214I52Z9P2QW3VYKJ83GZU42D","A3I40B0FATY8VH","3KVQ0UJWPX71V463XQYDOZYIDLRW5D","","null","<img src=""img/animal2.png"" style=""width:200px;border:14px solid red;"">","null","","","","","",""
"","image-keyboard-response","223","119438","0.0-223.0","3KXIR214I52Z9P2QW3VYKJ83GZU42D","A3I40B0FATY8VH","3KVQ0UJWPX71V463XQYDOZYIDLRW5D","","720.5","img/animal5.png","75","721.1000000238419","2","0","2","1,0.7,0,1,0.7,0,0.7,0,1",""
"","html-keyboard-response","224","119740","0.0-224.0","3KXIR214I52Z9P2QW3VYKJ83GZU42D","A3I40B0FATY8VH","3KVQ0UJWPX71V463XQYDOZYIDLRW5D","","null","<img src=""img/animal5.png"" style=""width:200px;border:14px solid red;"">","null","","","","","",""
"","image-keyboard-response","225","120206","0.0-225.0","3KXIR214I52Z9P2QW3VYKJ83GZU42D","A3I40B0FATY8VH","3KVQ0UJWPX71V463XQYDOZYIDLRW5D","","464.5","img/animal5.png","74","465.7000000476837","1","1","2","1,0.7,0,1,0.7,0,0.7,0,1",""
"","html-keyboard-response","226","120508","0.0-226.0","3KXIR214I52Z9P2QW3VYKJ83GZU42D","A3I40B0FATY8VH","3KVQ0UJWPX71V463XQYDOZYIDLRW5D","","null","<img src=""img/animal5.png"" style=""width:200px; border:14px solid green;"">","null","","","","","",""
"","image-keyboard-response","227","121061","0.0-227.0","3KXIR214I52Z9P2QW3VYKJ83GZU42D","A3I40B0FATY8VH","3KVQ0UJWPX71V463XQYDOZYIDLRW5D","","552.6000000238419","img/animal1.png","75","553.1000000238419","2","0","3","1,0.7,0,1,0.7,0,0.7,0,1",""
"","html-keyboard-response","228","121363","0.0-228.0","3KXIR214I52Z9P2QW3VYKJ83GZU42D","A3I40B0FATY8VH","3KVQ0UJWPX71V463XQYDOZYIDLRW5D","","null","<img src=""img/animal1.png"" style=""width:200px;border:14px solid red;"">","null","","","","","",""
"","image-keyboard-response","229","122063","0.0-229.0","3KXIR214I52Z9P2QW3VYKJ83GZU42D","A3I40B0FATY8VH","3KVQ0UJWPX71V463XQYDOZYIDLRW5D","","699.3000000119209","img/animal5.png","74","699.6000000238419","1","1","2","1,0.7,0,1,0.7,0,0.7,0,1",""
"","html-keyboard-response","230","122364","0.0-230.0","3KXIR214I52Z9P2QW3VYKJ83GZU42D","A3I40B0FATY8VH","3KVQ0UJWPX71V463XQYDOZYIDLRW5D","","null","<img src=""img/animal5.png"" style=""width:200px; border:14px solid green;"">","null","","","","","",""
"","image-keyboard-response","231","122760","0.0-231.0","3KXIR214I52Z9P2QW3VYKJ83GZU42D","A3I40B0FATY8VH","3KVQ0UJWPX71V463XQYDOZYIDLRW5D","","394","img/animal1.png","75","395.2999999523163","2","0","3","1,0.7,0,1,0.7,0,0.7,0,1",""
"","html-keyboard-response","232","123061","0.0-232.0","3KXIR214I52Z9P2QW3VYKJ83GZU42D","A3I40B0FATY8VH","3KVQ0UJWPX71V463XQYDOZYIDLRW5D","","null","<img src=""img/animal1.png"" style=""width:200px;border:14px solid red;"">","null","","","","","",""
"","image-keyboard-response","233","123750","0.0-233.0","3KXIR214I52Z9P2QW3VYKJ83GZU42D","A3I40B0FATY8VH","3KVQ0UJWPX71V463XQYDOZYIDLRW5D","","688.8999999761581","img/animal1.png","76","689.3999999761581","3","1","3","1,0.7,0,1,0.7,0,0.7,0,1",""
"","html-keyboard-response","234","124052","0.0-234.0","3KXIR214I52Z9P2QW3VYKJ83GZU42D","A3I40B0FATY8VH","3KVQ0UJWPX71V463XQYDOZYIDLRW5D","","null","<img src=""img/animal1.png"" style=""width:200px; border:14px solid green;"">","null","","","","","",""
"","image-keyboard-response","235","124782","0.0-235.0","3KXIR214I52Z9P2QW3VYKJ83GZU42D","A3I40B0FATY8VH","3KVQ0UJWPX71V463XQYDOZYIDLRW5D","","729.5","img/animal5.png","74","729.8000000119209","1","1","2","1,0.7,0,1,0.7,0,0.7,0,1",""
"","html-keyboard-response","236","125084","0.0-236.0","3KXIR214I52Z9P2QW3VYKJ83GZU42D","A3I40B0FATY8VH","3KVQ0UJWPX71V463XQYDOZYIDLRW5D","","null","<img src=""img/animal5.png"" style=""width:200px; border:14px solid green;"">","null","","","","","",""
"","image-keyboard-response","237","125612","0.0-237.0","3KXIR214I52Z9P2QW3VYKJ83GZU42D","A3I40B0FATY8VH","3KVQ0UJWPX71V463XQYDOZYIDLRW5D","","526.5999999642372","img/animal2.png","75","527.8000000119209","2","0","1","1,0.7,0,1,0.7,0,0.7,0,1",""
"","html-keyboard-response","238","125913","0.0-238.0","3KXIR214I52Z9P2QW3VYKJ83GZU42D","A3I40B0FATY8VH","3KVQ0UJWPX71V463XQYDOZYIDLRW5D","","null","<img src=""img/animal2.png"" style=""width:200px;border:14px solid red;"">","null","","","","","",""
"","image-keyboard-response","239","126469","0.0-239.0","3KXIR214I52Z9P2QW3VYKJ83GZU42D","A3I40B0FATY8VH","3KVQ0UJWPX71V463XQYDOZYIDLRW5D","","555.4000000357628","img/animal2.png","75","555.6999999880791","2","1","1","1,0.7,0,1,0.7,0,0.7,0,1",""
"","html-keyboard-response","240","126770","0.0-240.0","3KXIR214I52Z9P2QW3VYKJ83GZU42D","A3I40B0FATY8VH","3KVQ0UJWPX71V463XQYDOZYIDLRW5D","","null","<img src=""img/animal2.png"" style=""width:200px; border:14px solid green;"">","null","","","","","",""
"","image-keyboard-response","241","127235","0.0-241.0","3KXIR214I52Z9P2QW3VYKJ83GZU42D","A3I40B0FATY8VH","3KVQ0UJWPX71V463XQYDOZYIDLRW5D","","463.19999998807907","img/animal2.png","75","464.30000001192093","2","1","1","1,0.7,0,1,0.7,0,0.7,0,1",""
"","html-keyboard-response","242","127537","0.0-242.0","3KXIR214I52Z9P2QW3VYKJ83GZU42D","A3I40B0FATY8VH","3KVQ0UJWPX71V463XQYDOZYIDLRW5D","","null","<img src=""img/animal2.png"" style=""width:200px; border:14px solid green;"">","null","","","","","",""
"","image-keyboard-response","243","127747","0.0-243.0","3KXIR214I52Z9P2QW3VYKJ83GZU42D","A3I40B0FATY8VH","3KVQ0UJWPX71V463XQYDOZYIDLRW5D","","209.5","img/animal2.png","75","209.80000001192093","2","0","1","1,0.7,0,1,0.7,0,0.7,0,1",""
"","html-keyboard-response","244","128048","0.0-244.0","3KXIR214I52Z9P2QW3VYKJ83GZU42D","A3I40B0FATY8VH","3KVQ0UJWPX71V463XQYDOZYIDLRW5D","","null","<img src=""img/animal2.png"" style=""width:200px;border:14px solid red;"">","null","","","","","",""
"","image-keyboard-response","245","128728","0.0-245.0","3KXIR214I52Z9P2QW3VYKJ83GZU42D","A3I40B0FATY8VH","3KVQ0UJWPX71V463XQYDOZYIDLRW5D","","679.1000000238419","img/animal1.png","76","679.5","3","1","3","1,0.7,0,1,0.7,0,0.7,0,1",""
"","html-keyboard-response","246","129047","0.0-246.0","3KXIR214I52Z9P2QW3VYKJ83GZU42D","A3I40B0FATY8VH","3KVQ0UJWPX71V463XQYDOZYIDLRW5D","","null","<img src=""img/animal1.png"" style=""width:200px; border:14px solid green;"">","null","","","","","",""
"","image-keyboard-response","247","129586","0.0-247.0","3KXIR214I52Z9P2QW3VYKJ83GZU42D","A3I40B0FATY8VH","3KVQ0UJWPX71V463XQYDOZYIDLRW5D","","537.8000000119209","img/animal2.png","75","538.5999999642372","2","1","1","1,0.7,0,1,0.7,0,0.7,0,1",""
"","html-keyboard-response","248","129887","0.0-248.0","3KXIR214I52Z9P2QW3VYKJ83GZU42D","A3I40B0FATY8VH","3KVQ0UJWPX71V463XQYDOZYIDLRW5D","","null","<img src=""img/animal2.png"" style=""width:200px; border:14px solid green;"">","null","","","","","",""
"","image-keyboard-response","249","130388","0.0-249.0","3KXIR214I52Z9P2QW3VYKJ83GZU42D","A3I40B0FATY8VH","3KVQ0UJWPX71V463XQYDOZYIDLRW5D","","500.80000001192093","img/animal5.png","74","501.19999998807907","1","1","2","1,0.7,0,1,0.7,0,0.7,0,1",""
"","html-keyboard-response","250","130689","0.0-250.0","3KXIR214I52Z9P2QW3VYKJ83GZU42D","A3I40B0FATY8VH","3KVQ0UJWPX71V463XQYDOZYIDLRW5D","","null","<img src=""img/animal5.png"" style=""width:200px; border:14px solid green;"">","null","","","","","",""
"","image-keyboard-response","251","131251","0.0-251.0","3KXIR214I52Z9P2QW3VYKJ83GZU42D","A3I40B0FATY8VH","3KVQ0UJWPX71V463XQYDOZYIDLRW5D","","561.3000000119209","img/animal1.png","76","561.6999999880791","3","1","3","1,0.7,0,1,0.7,0,0.7,0,1",""
"","html-keyboard-response","252","131553","0.0-252.0","3KXIR214I52Z9P2QW3VYKJ83GZU42D","A3I40B0FATY8VH","3KVQ0UJWPX71V463XQYDOZYIDLRW5D","","null","<img src=""img/animal1.png"" style=""width:200px; border:14px solid green;"">","null","","","","","",""
"","image-keyboard-response","253","131909","0.0-253.0","3KXIR214I52Z9P2QW3VYKJ83GZU42D","A3I40B0FATY8VH","3KVQ0UJWPX71V463XQYDOZYIDLRW5D","","354.7999999523163","img/animal1.png","76","356.19999998807907","3","1","3","1,0.7,0,1,0.7,0,0.7,0,1",""
"","html-keyboard-response","254","132212","0.0-254.0","3KXIR214I52Z9P2QW3VYKJ83GZU42D","A3I40B0FATY8VH","3KVQ0UJWPX71V463XQYDOZYIDLRW5D","","null","<img src=""img/animal1.png"" style=""width:200px; border:14px solid green;"">","null","","","","","",""
"","image-keyboard-response","255","132423","0.0-255.0","3KXIR214I52Z9P2QW3VYKJ83GZU42D","A3I40B0FATY8VH","3KVQ0UJWPX71V463XQYDOZYIDLRW5D","","209.30000001192093","img/animal1.png","76","210.30000001192093","3","1","3","1,0.7,0,1,0.7,0,0.7,0,1",""
"","html-keyboard-response","256","132725","0.0-256.0","3KXIR214I52Z9P2QW3VYKJ83GZU42D","A3I40B0FATY8VH","3KVQ0UJWPX71V463XQYDOZYIDLRW5D","","null","<img src=""img/animal1.png"" style=""width:200px; border:14px solid green;"">","null","","","","","",""
"","image-keyboard-response","257","132935","0.0-257.0","3KXIR214I52Z9P2QW3VYKJ83GZU42D","A3I40B0FATY8VH","3KVQ0UJWPX71V463XQYDOZYIDLRW5D","","207.69999998807907","img/animal2.png","76","208.5","3","0","1","1,0.7,0,1,0.7,0,0.7,0,1",""
"","html-keyboard-response","258","133237","0.0-258.0","3KXIR214I52Z9P2QW3VYKJ83GZU42D","A3I40B0FATY8VH","3KVQ0UJWPX71V463XQYDOZYIDLRW5D","","null","<img src=""img/animal2.png"" style=""width:200px;border:14px solid red;"">","null","","","","","",""
"","image-keyboard-response","259","133900","0.0-259.0","3KXIR214I52Z9P2QW3VYKJ83GZU42D","A3I40B0FATY8VH","3KVQ0UJWPX71V463XQYDOZYIDLRW5D","","662.3999999761581","img/animal1.png","76","662.8999999761581","3","1","3","1,0.7,0,1,0.7,0,0.7,0,1",""
"","html-keyboard-response","260","134201","0.0-260.0","3KXIR214I52Z9P2QW3VYKJ83GZU42D","A3I40B0FATY8VH","3KVQ0UJWPX71V463XQYDOZYIDLRW5D","","null","<img src=""img/animal1.png"" style=""width:200px; border:14px solid green;"">","null","","","","","",""
"","image-keyboard-response","261","134493","0.0-261.0","3KXIR214I52Z9P2QW3VYKJ83GZU42D","A3I40B0FATY8VH","3KVQ0UJWPX71V463XQYDOZYIDLRW5D","","291.4000000357628","img/animal1.png","76","291.69999998807907","3","1","3","1,0.7,0,1,0.7,0,0.7,0,1",""
"","html-keyboard-response","262","134794","0.0-262.0","3KXIR214I52Z9P2QW3VYKJ83GZU42D","A3I40B0FATY8VH","3KVQ0UJWPX71V463XQYDOZYIDLRW5D","","null","<img src=""img/animal1.png"" style=""width:200px; border:14px solid green;"">","null","","","","","",""
"","image-keyboard-response","263","135104","0.0-263.0","3KXIR214I52Z9P2QW3VYKJ83GZU42D","A3I40B0FATY8VH","3KVQ0UJWPX71V463XQYDOZYIDLRW5D","","308.10000002384186","img/animal1.png","76","309.39999997615814","3","1","3","1,0.7,0,1,0.7,0,0.7,0,1",""
"","html-keyboard-response","264","135406","0.0-264.0","3KXIR214I52Z9P2QW3VYKJ83GZU42D","A3I40B0FATY8VH","3KVQ0UJWPX71V463XQYDOZYIDLRW5D","","null","<img src=""img/animal1.png"" style=""width:200px; border:14px solid green;"">","null","","","","","",""
"","image-keyboard-response","265","135796","0.0-265.0","3KXIR214I52Z9P2QW3VYKJ83GZU42D","A3I40B0FATY8VH","3KVQ0UJWPX71V463XQYDOZYIDLRW5D","","389.19999998807907","img/animal2.png","75","390.19999998807907","2","1","1","1,0.7,0,1,0.7,0,0.7,0,1",""
"","html-keyboard-response","266","136099","0.0-266.0","3KXIR214I52Z9P2QW3VYKJ83GZU42D","A3I40B0FATY8VH","3KVQ0UJWPX71V463XQYDOZYIDLRW5D","","null","<img src=""img/animal2.png"" style=""width:200px; border:14px solid green;"">","null","","","","","",""
"","image-keyboard-response","267","136484","0.0-267.0","3KXIR214I52Z9P2QW3VYKJ83GZU42D","A3I40B0FATY8VH","3KVQ0UJWPX71V463XQYDOZYIDLRW5D","","384.80000001192093","img/animal2.png","75","385.10000002384186","2","1","1","1,0.7,0,1,0.7,0,0.7,0,1",""
"","html-keyboard-response","268","136786","0.0-268.0","3KXIR214I52Z9P2QW3VYKJ83GZU42D","A3I40B0FATY8VH","3KVQ0UJWPX71V463XQYDOZYIDLRW5D","","null","<img src=""img/animal2.png"" style=""width:200px; border:14px solid green;"">","null","","","","","",""
"","image-keyboard-response","269","137237","0.0-269.0","3KXIR214I52Z9P2QW3VYKJ83GZU42D","A3I40B0FATY8VH","3KVQ0UJWPX71V463XQYDOZYIDLRW5D","","450.80000001192093","img/animal5.png","74","451.5","1","1","2","1,0.7,0,1,0.7,0,0.7,0,1",""
"","html-keyboard-response","270","137540","0.0-270.0","3KXIR214I52Z9P2QW3VYKJ83GZU42D","A3I40B0FATY8VH","3KVQ0UJWPX71V463XQYDOZYIDLRW5D","","null","<img src=""img/animal5.png"" style=""width:200px; border:14px solid green;"">","null","","","","","",""
"","image-keyboard-response","271","137967","0.0-271.0","3KXIR214I52Z9P2QW3VYKJ83GZU42D","A3I40B0FATY8VH","3KVQ0UJWPX71V463XQYDOZYIDLRW5D","","426.5999999642372","img/animal2.png","76","427.10000002384186","3","0","1","1,0.7,0,1,0.7,0,0.7,0,1",""
"","html-keyboard-response","272","138268","0.0-272.0","3KXIR214I52Z9P2QW3VYKJ83GZU42D","A3I40B0FATY8VH","3KVQ0UJWPX71V463XQYDOZYIDLRW5D","","null","<img src=""img/animal2.png"" style=""width:200px;border:14px solid red;"">","null","","","","","",""
"","image-keyboard-response","273","138764","0.0-273.0","3KXIR214I52Z9P2QW3VYKJ83GZU42D","A3I40B0FATY8VH","3KVQ0UJWPX71V463XQYDOZYIDLRW5D","","494.10000002384186","img/animal1.png","74","495.4000000357628","1","0","3","1,0.7,0,1,0.7,0,0.7,0,1",""
"","html-keyboard-response","274","139066","0.0-274.0","3KXIR214I52Z9P2QW3VYKJ83GZU42D","A3I40B0FATY8VH","3KVQ0UJWPX71V463XQYDOZYIDLRW5D","","null","<img src=""img/animal1.png"" style=""width:200px;border:14px solid red;"">","null","","","","","",""
"","image-keyboard-response","275","139774","0.0-275.0","3KXIR214I52Z9P2QW3VYKJ83GZU42D","A3I40B0FATY8VH","3KVQ0UJWPX71V463XQYDOZYIDLRW5D","","706.6999999880791","img/animal5.png","74","707.5999999642372","1","1","2","1,0.7,0,1,0.7,0,0.7,0,1",""
"","html-keyboard-response","276","140076","0.0-276.0","3KXIR214I52Z9P2QW3VYKJ83GZU42D","A3I40B0FATY8VH","3KVQ0UJWPX71V463XQYDOZYIDLRW5D","","null","<img src=""img/animal5.png"" style=""width:200px; border:14px solid green;"">","null","","","","","",""
"","image-keyboard-response","277","140474","0.0-277.0","3KXIR214I52Z9P2QW3VYKJ83GZU42D","A3I40B0FATY8VH","3KVQ0UJWPX71V463XQYDOZYIDLRW5D","","397.69999998807907","img/animal1.png","75","398.30000001192093","2","0","3","1,0.7,0,1,0.7,0,0.7,0,1",""
"","html-keyboard-response","278","140776","0.0-278.0","3KXIR214I52Z9P2QW3VYKJ83GZU42D","A3I40B0FATY8VH","3KVQ0UJWPX71V463XQYDOZYIDLRW5D","","null","<img src=""img/animal1.png"" style=""width:200px;border:14px solid red;"">","null","","","","","",""
"","image-keyboard-response","279","141308","0.0-279.0","3KXIR214I52Z9P2QW3VYKJ83GZU42D","A3I40B0FATY8VH","3KVQ0UJWPX71V463XQYDOZYIDLRW5D","","531","img/animal5.png","74","531.8000000119209","1","1","2","1,0.7,0,1,0.7,0,0.7,0,1",""
"","html-keyboard-response","280","141610","0.0-280.0","3KXIR214I52Z9P2QW3VYKJ83GZU42D","A3I40B0FATY8VH","3KVQ0UJWPX71V463XQYDOZYIDLRW5D","","null","<img src=""img/animal5.png"" style=""width:200px; border:14px solid green;"">","null","","","","","",""
"","image-keyboard-response","281","141939","0.0-281.0","3KXIR214I52Z9P2QW3VYKJ83GZU42D","A3I40B0FATY8VH","3KVQ0UJWPX71V463XQYDOZYIDLRW5D","","327.19999998807907","img/animal5.png","74","328.5","1","1","2","1,0.7,0,1,0.7,0,0.7,0,1",""
"","html-keyboard-response","282","142240","0.0-282.0","3KXIR214I52Z9P2QW3VYKJ83GZU42D","A3I40B0FATY8VH","3KVQ0UJWPX71V463XQYDOZYIDLRW5D","","null","<img src=""img/animal5.png"" style=""width:200px; border:14px solid green;"">","null","","","","","",""
"","image-keyboard-response","283","143075","0.0-283.0","3KXIR214I52Z9P2QW3VYKJ83GZU42D","A3I40B0FATY8VH","3KVQ0UJWPX71V463XQYDOZYIDLRW5D","","834","img/animal2.png","75","834.8000000119209","2","0","1","1,0.7,0,1,0.7,0,0.7,0,1",""
"","html-keyboard-response","284","143377","0.0-284.0","3KXIR214I52Z9P2QW3VYKJ83GZU42D","A3I40B0FATY8VH","3KVQ0UJWPX71V463XQYDOZYIDLRW5D","","null","<img src=""img/animal2.png"" style=""width:200px;border:14px solid red;"">","null","","","","","",""
"","image-keyboard-response","285","143985","0.0-285.0","3KXIR214I52Z9P2QW3VYKJ83GZU42D","A3I40B0FATY8VH","3KVQ0UJWPX71V463XQYDOZYIDLRW5D","","607.6999999880791","img/animal5.png","74","608.1999999880791","1","1","2","1,0.7,0,1,0.7,0,0.7,0,1",""
"","html-keyboard-response","286","144287","0.0-286.0","3KXIR214I52Z9P2QW3VYKJ83GZU42D","A3I40B0FATY8VH","3KVQ0UJWPX71V463XQYDOZYIDLRW5D","","null","<img src=""img/animal5.png"" style=""width:200px; border:14px solid green;"">","null","","","","","",""
"","image-keyboard-response","287","144589","0.0-287.0","3KXIR214I52Z9P2QW3VYKJ83GZU42D","A3I40B0FATY8VH","3KVQ0UJWPX71V463XQYDOZYIDLRW5D","","301.60000002384186","img/animal5.png","74","302.19999998807907","1","1","2","1,0.7,0,1,0.7,0,0.7,0,1",""
"","html-keyboard-response","288","144893","0.0-288.0","3KXIR214I52Z9P2QW3VYKJ83GZU42D","A3I40B0FATY8VH","3KVQ0UJWPX71V463XQYDOZYIDLRW5D","","null","<img src=""img/animal5.png"" style=""width:200px; border:14px solid green;"">","null","","","","","",""
"","image-keyboard-response","289","145458","0.0-289.0","3KXIR214I52Z9P2QW3VYKJ83GZU42D","A3I40B0FATY8VH","3KVQ0UJWPX71V463XQYDOZYIDLRW5D","","563.7000000476837","img/animal1.png","76","565.2000000476837","3","1","3","1,0.7,0,1,0.7,0,0.7,0,1",""
"","html-keyboard-response","290","145759","0.0-290.0","3KXIR214I52Z9P2QW3VYKJ83GZU42D","A3I40B0FATY8VH","3KVQ0UJWPX71V463XQYDOZYIDLRW5D","","null","<img src=""img/animal1.png"" style=""width:200px; border:14px solid green;"">","null","","","","","",""
"","image-keyboard-response","291","146499","0.0-291.0","3KXIR214I52Z9P2QW3VYKJ83GZU42D","A3I40B0FATY8VH","3KVQ0UJWPX71V463XQYDOZYIDLRW5D","","739","img/animal5.png","74","739.8000000119209","1","1","2","1,0.7,0,1,0.7,0,0.7,0,1",""
"","html-keyboard-response","292","146800","0.0-292.0","3KXIR214I52Z9P2QW3VYKJ83GZU42D","A3I40B0FATY8VH","3KVQ0UJWPX71V463XQYDOZYIDLRW5D","","null","<img src=""img/animal5.png"" style=""width:200px; border:14px solid green;"">","null","","","","","",""
"","image-keyboard-response","293","147414","0.0-293.0","3KXIR214I52Z9P2QW3VYKJ83GZU42D","A3I40B0FATY8VH","3KVQ0UJWPX71V463XQYDOZYIDLRW5D","","611.8999999761581","img/animal2.png","75","612.9000000357628","2","0","1","1,0.7,0,1,0.7,0,0.7,0,1",""
"","html-keyboard-response","294","147716","0.0-294.0","3KXIR214I52Z9P2QW3VYKJ83GZU42D","A3I40B0FATY8VH","3KVQ0UJWPX71V463XQYDOZYIDLRW5D","","null","<img src=""img/animal2.png"" style=""width:200px;border:14px solid red;"">","null","","","","","",""
"","image-keyboard-response","295","148227","0.0-295.0","3KXIR214I52Z9P2QW3VYKJ83GZU42D","A3I40B0FATY8VH","3KVQ0UJWPX71V463XQYDOZYIDLRW5D","","510.5999999642372","img/animal5.png","74","511.10000002384186","1","1","2","1,0.7,0,1,0.7,0,0.7,0,1",""
"","html-keyboard-response","296","148528","0.0-296.0","3KXIR214I52Z9P2QW3VYKJ83GZU42D","A3I40B0FATY8VH","3KVQ0UJWPX71V463XQYDOZYIDLRW5D","","null","<img src=""img/animal5.png"" style=""width:200px; border:14px solid green;"">","null","","","","","",""
"","image-keyboard-response","297","148943","0.0-297.0","3KXIR214I52Z9P2QW3VYKJ83GZU42D","A3I40B0FATY8VH","3KVQ0UJWPX71V463XQYDOZYIDLRW5D","","414","img/animal5.png","74","414.2999999523163","1","1","2","1,0.7,0,1,0.7,0,0.7,0,1",""
"","html-keyboard-response","298","149244","0.0-298.0","3KXIR214I52Z9P2QW3VYKJ83GZU42D","A3I40B0FATY8VH","3KVQ0UJWPX71V463XQYDOZYIDLRW5D","","null","<img src=""img/animal5.png"" style=""width:200px; border:14px solid green;"">","null","","","","","",""
"","image-keyboard-response","299","149477","0.0-299.0","3KXIR214I52Z9P2QW3VYKJ83GZU42D","A3I40B0FATY8VH","3KVQ0UJWPX71V463XQYDOZYIDLRW5D","","232.39999997615814","img/animal5.png","74","232.9000000357628","1","1","2","1,0.7,0,1,0.7,0,0.7,0,1",""
"","html-keyboard-response","300","149778","0.0-300.0","3KXIR214I52Z9P2QW3VYKJ83GZU42D","A3I40B0FATY8VH","3KVQ0UJWPX71V463XQYDOZYIDLRW5D","","null","<img src=""img/animal5.png"" style=""width:200px; border:14px solid green;"">","null","","","","","",""
"","image-keyboard-response","301","150607","0.0-301.0","3KXIR214I52Z9P2QW3VYKJ83GZU42D","A3I40B0FATY8VH","3KVQ0UJWPX71V463XQYDOZYIDLRW5D","","828.7000000476837","img/animal2.png","75","829.3000000119209","2","0","1","1,0.7,0,1,0.7,0,0.7,0,1",""
"","html-keyboard-response","302","150909","0.0-302.0","3KXIR214I52Z9P2QW3VYKJ83GZU42D","A3I40B0FATY8VH","3KVQ0UJWPX71V463XQYDOZYIDLRW5D","","null","<img src=""img/animal2.png"" style=""width:200px;border:14px solid red;"">","null","","","","","",""
"","image-keyboard-response","303","151370","0.0-303.0","3KXIR214I52Z9P2QW3VYKJ83GZU42D","A3I40B0FATY8VH","3KVQ0UJWPX71V463XQYDOZYIDLRW5D","","459.2999999523163","img/animal1.png","74","460.5999999642372","1","1","3","1,0.7,0,1,0.7,0,0.7,0,1",""
"","html-keyboard-response","304","151671","0.0-304.0","3KXIR214I52Z9P2QW3VYKJ83GZU42D","A3I40B0FATY8VH","3KVQ0UJWPX71V463XQYDOZYIDLRW5D","","null","<img src=""img/animal1.png"" style=""width:200px; border:14px solid green;"">","null","","","","","",""
"","image-keyboard-response","305","152014","0.0-305.0","3KXIR214I52Z9P2QW3VYKJ83GZU42D","A3I40B0FATY8VH","3KVQ0UJWPX71V463XQYDOZYIDLRW5D","","342","img/animal1.png","74","342.5999999642372","1","1","3","1,0.7,0,1,0.7,0,0.7,0,1",""
"","html-keyboard-response","306","152316","0.0-306.0","3KXIR214I52Z9P2QW3VYKJ83GZU42D","A3I40B0FATY8VH","3KVQ0UJWPX71V463XQYDOZYIDLRW5D","","null","<img src=""img/animal1.png"" style=""width:200px; border:14px solid green;"">","null","","","","","",""
"","image-keyboard-response","307","152911","0.0-307.0","3KXIR214I52Z9P2QW3VYKJ83GZU42D","A3I40B0FATY8VH","3KVQ0UJWPX71V463XQYDOZYIDLRW5D","","594.8999999761581","img/animal5.png","75","595.6000000238419","2","0","2","1,0.7,0,1,0.7,0,0.7,0,1",""
"","html-keyboard-response","308","153213","0.0-308.0","3KXIR214I52Z9P2QW3VYKJ83GZU42D","A3I40B0FATY8VH","3KVQ0UJWPX71V463XQYDOZYIDLRW5D","","null","<img src=""img/animal5.png"" style=""width:200px;border:14px solid red;"">","null","","","","","",""
"","image-keyboard-response","309","153476","0.0-309.0","3KXIR214I52Z9P2QW3VYKJ83GZU42D","A3I40B0FATY8VH","3KVQ0UJWPX71V463XQYDOZYIDLRW5D","","262.19999998807907","img/animal5.png","74","262.89999997615814","1","1","2","1,0.7,0,1,0.7,0,0.7,0,1",""
"","html-keyboard-response","310","153777","0.0-310.0","3KXIR214I52Z9P2QW3VYKJ83GZU42D","A3I40B0FATY8VH","3KVQ0UJWPX71V463XQYDOZYIDLRW5D","","null","<img src=""img/animal5.png"" style=""width:200px; border:14px solid green;"">","null","","","","","",""
"","image-keyboard-response","311","154297","0.0-311.0","3KXIR214I52Z9P2QW3VYKJ83GZU42D","A3I40B0FATY8VH","3KVQ0UJWPX71V463XQYDOZYIDLRW5D","","518.7999999523163","img/animal2.png","76","520","3","0","1","1,0.7,0,1,0.7,0,0.7,0,1",""
"","html-keyboard-response","312","154600","0.0-312.0","3KXIR214I52Z9P2QW3VYKJ83GZU42D","A3I40B0FATY8VH","3KVQ0UJWPX71V463XQYDOZYIDLRW5D","","null","<img src=""img/animal2.png"" style=""width:200px;border:14px solid red;"">","null","","","","","",""
"","image-keyboard-response","313","155311","0.0-313.0","3KXIR214I52Z9P2QW3VYKJ83GZU42D","A3I40B0FATY8VH","3KVQ0UJWPX71V463XQYDOZYIDLRW5D","","710.6999999880791","img/animal5.png","75","711.3999999761581","2","1","2","1,0.7,0,1,0.7,0,0.7,0,1",""
"","html-keyboard-response","314","155613","0.0-314.0","3KXIR214I52Z9P2QW3VYKJ83GZU42D","A3I40B0FATY8VH","3KVQ0UJWPX71V463XQYDOZYIDLRW5D","","null","<img src=""img/animal5.png"" style=""width:200px; border:14px solid green;"">","null","","","","","",""
"","image-keyboard-response","315","156188","0.0-315.0","3KXIR214I52Z9P2QW3VYKJ83GZU42D","A3I40B0FATY8VH","3KVQ0UJWPX71V463XQYDOZYIDLRW5D","","574.0999999642372","img/animal2.png","76","574.6999999880791","3","0","1","1,0.7,0,1,0.7,0,0.7,0,1",""
"","html-keyboard-response","316","156489","0.0-316.0","3KXIR214I52Z9P2QW3VYKJ83GZU42D","A3I40B0FATY8VH","3KVQ0UJWPX71V463XQYDOZYIDLRW5D","","null","<img src=""img/animal2.png"" style=""width:200px;border:14px solid red;"">","null","","","","","",""
"","image-keyboard-response","317","156712","0.0-317.0","3KXIR214I52Z9P2QW3VYKJ83GZU42D","A3I40B0FATY8VH","3KVQ0UJWPX71V463XQYDOZYIDLRW5D","","223","img/animal2.png","76","223.69999998807907","3","0","1","1,0.7,0,1,0.7,0,0.7,0,1",""
"","html-keyboard-response","318","157015","0.0-318.0","3KXIR214I52Z9P2QW3VYKJ83GZU42D","A3I40B0FATY8VH","3KVQ0UJWPX71V463XQYDOZYIDLRW5D","","null","<img src=""img/animal2.png"" style=""width:200px;border:14px solid red;"">","null","","","","","",""
"","image-keyboard-response","319","157241","0.0-319.0","3KXIR214I52Z9P2QW3VYKJ83GZU42D","A3I40B0FATY8VH","3KVQ0UJWPX71V463XQYDOZYIDLRW5D","","223.80000001192093","img/animal5.png","75","225.0999999642372","2","1","2","1,0.7,0,1,0.7,0,0.7,0,1",""
"","html-keyboard-response","320","157543","0.0-320.0","3KXIR214I52Z9P2QW3VYKJ83GZU42D","A3I40B0FATY8VH","3KVQ0UJWPX71V463XQYDOZYIDLRW5D","","null","<img src=""img/animal5.png"" style=""width:200px; border:14px solid green;"">","null","","","","","",""
"","image-keyboard-response","321","158123","0.0-321.0","3KXIR214I52Z9P2QW3VYKJ83GZU42D","A3I40B0FATY8VH","3KVQ0UJWPX71V463XQYDOZYIDLRW5D","","578.1999999880791","img/animal5.png","74","579.3000000119209","1","1","2","1,0.7,0,1,0.7,0,0.7,0,1",""
"","html-keyboard-response","322","158425","0.0-322.0","3KXIR214I52Z9P2QW3VYKJ83GZU42D","A3I40B0FATY8VH","3KVQ0UJWPX71V463XQYDOZYIDLRW5D","","null","<img src=""img/animal5.png"" style=""width:200px; border:14px solid green;"">","null","","","","","",""
"","image-keyboard-response","323","159159","0.0-323.0","3KXIR214I52Z9P2QW3VYKJ83GZU42D","A3I40B0FATY8VH","3KVQ0UJWPX71V463XQYDOZYIDLRW5D","","733.1999999880791","img/animal1.png","75","734.4000000357628","2","0","3","1,0.7,0,1,0.7,0,0.7,0,1",""
"","html-keyboard-response","324","159461","0.0-324.0","3KXIR214I52Z9P2QW3VYKJ83GZU42D","A3I40B0FATY8VH","3KVQ0UJWPX71V463XQYDOZYIDLRW5D","","null","<img src=""img/animal1.png"" style=""width:200px;border:14px solid red;"">","null","","","","","",""
"","image-keyboard-response","325","160282","0.0-325.0","3KXIR214I52Z9P2QW3VYKJ83GZU42D","A3I40B0FATY8VH","3KVQ0UJWPX71V463XQYDOZYIDLRW5D","","819.5999999642372","img/animal2.png","75","820.6000000238419","2","0","1","1,0.7,0,1,0.7,0,0.7,0,1",""
"","html-keyboard-response","326","160584","0.0-326.0","3KXIR214I52Z9P2QW3VYKJ83GZU42D","A3I40B0FATY8VH","3KVQ0UJWPX71V463XQYDOZYIDLRW5D","","null","<img src=""img/animal2.png"" style=""width:200px;border:14px solid red;"">","null","","","","","",""
"","image-keyboard-response","327","161104","0.0-327.0","3KXIR214I52Z9P2QW3VYKJ83GZU42D","A3I40B0FATY8VH","3KVQ0UJWPX71V463XQYDOZYIDLRW5D","","519.3000000119209","img/animal5.png","74","520.1999999880791","1","1","2","1,0.7,0,1,0.7,0,0.7,0,1",""
"","html-keyboard-response","328","161406","0.0-328.0","3KXIR214I52Z9P2QW3VYKJ83GZU42D","A3I40B0FATY8VH","3KVQ0UJWPX71V463XQYDOZYIDLRW5D","","null","<img src=""img/animal5.png"" style=""width:200px; border:14px solid green;"">","null","","","","","",""
"","image-keyboard-response","329","161761","0.0-329.0","3KXIR214I52Z9P2QW3VYKJ83GZU42D","A3I40B0FATY8VH","3KVQ0UJWPX71V463XQYDOZYIDLRW5D","","355","img/animal1.png","74","355.5","1","0","3","1,0.7,0,1,0.7,0,0.7,0,1",""
"","html-keyboard-response","330","162067","0.0-330.0","3KXIR214I52Z9P2QW3VYKJ83GZU42D","A3I40B0FATY8VH","3KVQ0UJWPX71V463XQYDOZYIDLRW5D","","null","<img src=""img/animal1.png"" style=""width:200px;border:14px solid red;"">","null","","","","","",""
"","image-keyboard-response","331","162541","0.0-331.0","3KXIR214I52Z9P2QW3VYKJ83GZU42D","A3I40B0FATY8VH","3KVQ0UJWPX71V463XQYDOZYIDLRW5D","","472.89999997615814","img/animal1.png","75","473.69999998807907","2","0","3","1,0.7,0,1,0.7,0,0.7,0,1",""
"","html-keyboard-response","332","162843","0.0-332.0","3KXIR214I52Z9P2QW3VYKJ83GZU42D","A3I40B0FATY8VH","3KVQ0UJWPX71V463XQYDOZYIDLRW5D","","null","<img src=""img/animal1.png"" style=""width:200px;border:14px solid red;"">","null","","","","","",""
"","image-keyboard-response","333","163549","0.0-333.0","3KXIR214I52Z9P2QW3VYKJ83GZU42D","A3I40B0FATY8VH","3KVQ0UJWPX71V463XQYDOZYIDLRW5D","","705.4000000357628","img/animal5.png","74","706.5","1","1","2","1,0.7,0,1,0.7,0,0.7,0,1",""
"","html-keyboard-response","334","163852","0.0-334.0","3KXIR214I52Z9P2QW3VYKJ83GZU42D","A3I40B0FATY8VH","3KVQ0UJWPX71V463XQYDOZYIDLRW5D","","null","<img src=""img/animal5.png"" style=""width:200px; border:14px solid green;"">","null","","","","","",""
"","image-keyboard-response","335","164173","0.0-335.0","3KXIR214I52Z9P2QW3VYKJ83GZU42D","A3I40B0FATY8VH","3KVQ0UJWPX71V463XQYDOZYIDLRW5D","","321.10000002384186","img/animal2.png","74","321.80000001192093","1","1","1","1,0.7,0,1,0.7,0,0.7,0,1",""
"","html-keyboard-response","336","164475","0.0-336.0","3KXIR214I52Z9P2QW3VYKJ83GZU42D","A3I40B0FATY8VH","3KVQ0UJWPX71V463XQYDOZYIDLRW5D","","null","<img src=""img/animal2.png"" style=""width:200px; border:14px solid green;"">","null","","","","","",""
"","image-keyboard-response","337","164951","0.0-337.0","3KXIR214I52Z9P2QW3VYKJ83GZU42D","A3I40B0FATY8VH","3KVQ0UJWPX71V463XQYDOZYIDLRW5D","","475.30000001192093","img/animal1.png","74","476.10000002384186","1","1","3","1,0.7,0,1,0.7,0,0.7,0,1",""
"","html-keyboard-response","338","165254","0.0-338.0","3KXIR214I52Z9P2QW3VYKJ83GZU42D","A3I40B0FATY8VH","3KVQ0UJWPX71V463XQYDOZYIDLRW5D","","null","<img src=""img/animal1.png"" style=""width:200px; border:14px solid green;"">","null","","","","","",""
"","image-keyboard-response","339","165639","0.0-339.0","3KXIR214I52Z9P2QW3VYKJ83GZU42D","A3I40B0FATY8VH","3KVQ0UJWPX71V463XQYDOZYIDLRW5D","","383.69999998807907","img/animal1.png","74","385.2000000476837","1","0","3","1,0.7,0,1,0.7,0,0.7,0,1",""
"","html-keyboard-response","340","165942","0.0-340.0","3KXIR214I52Z9P2QW3VYKJ83GZU42D","A3I40B0FATY8VH","3KVQ0UJWPX71V463XQYDOZYIDLRW5D","","null","<img src=""img/animal1.png"" style=""width:200px;border:14px solid red;"">","null","","","","","",""
"","image-keyboard-response","341","166245","0.0-341.0","3KXIR214I52Z9P2QW3VYKJ83GZU42D","A3I40B0FATY8VH","3KVQ0UJWPX71V463XQYDOZYIDLRW5D","","301.60000002384186","img/animal1.png","74","303","1","1","3","1,0.7,0,1,0.7,0,0.7,0,1",""
"","html-keyboard-response","342","166547","0.0-342.0","3KXIR214I52Z9P2QW3VYKJ83GZU42D","A3I40B0FATY8VH","3KVQ0UJWPX71V463XQYDOZYIDLRW5D","","null","<img src=""img/animal1.png"" style=""width:200px; border:14px solid green;"">","null","","","","","",""
"","image-keyboard-response","343","166955","0.0-343.0","3KXIR214I52Z9P2QW3VYKJ83GZU42D","A3I40B0FATY8VH","3KVQ0UJWPX71V463XQYDOZYIDLRW5D","","407.5999999642372","img/animal2.png","74","408.39999997615814","1","1","1","1,0.7,0,1,0.7,0,0.7,0,1",""
"","html-keyboard-response","344","167258","0.0-344.0","3KXIR214I52Z9P2QW3VYKJ83GZU42D","A3I40B0FATY8VH","3KVQ0UJWPX71V463XQYDOZYIDLRW5D","","null","<img src=""img/animal2.png"" style=""width:200px; border:14px solid green;"">","null","","","","","",""
"","image-keyboard-response","345","167578","0.0-345.0","3KXIR214I52Z9P2QW3VYKJ83GZU42D","A3I40B0FATY8VH","3KVQ0UJWPX71V463XQYDOZYIDLRW5D","","320.19999998807907","img/animal2.png","74","320.80000001192093","1","1","1","1,0.7,0,1,0.7,0,0.7,0,1",""
"","html-keyboard-response","346","167879","0.0-346.0","3KXIR214I52Z9P2QW3VYKJ83GZU42D","A3I40B0FATY8VH","3KVQ0UJWPX71V463XQYDOZYIDLRW5D","","null","<img src=""img/animal2.png"" style=""width:200px; border:14px solid green;"">","null","","","","","",""
"","image-keyboard-response","347","168617","0.0-347.0","3KXIR214I52Z9P2QW3VYKJ83GZU42D","A3I40B0FATY8VH","3KVQ0UJWPX71V463XQYDOZYIDLRW5D","","736.1999999880791","img/animal1.png","76","736.8999999761581","3","1","3","1,0.7,0,1,0.7,0,0.7,0,1",""
"","html-keyboard-response","348","168918","0.0-348.0","3KXIR214I52Z9P2QW3VYKJ83GZU42D","A3I40B0FATY8VH","3KVQ0UJWPX71V463XQYDOZYIDLRW5D","","null","<img src=""img/animal1.png"" style=""width:200px; border:14px solid green;"">","null","","","","","",""
"","image-keyboard-response","349","169473","0.0-349.0","3KXIR214I52Z9P2QW3VYKJ83GZU42D","A3I40B0FATY8VH","3KVQ0UJWPX71V463XQYDOZYIDLRW5D","","554.0999999642372","img/animal5.png","74","554.8000000119209","1","1","2","1,0.7,0,1,0.7,0,0.7,0,1",""
"","html-keyboard-response","350","169774","0.0-350.0","3KXIR214I52Z9P2QW3VYKJ83GZU42D","A3I40B0FATY8VH","3KVQ0UJWPX71V463XQYDOZYIDLRW5D","","null","<img src=""img/animal5.png"" style=""width:200px; border:14px solid green;"">","null","","","","","",""
"","image-keyboard-response","351","169941","0.0-351.0","3KXIR214I52Z9P2QW3VYKJ83GZU42D","A3I40B0FATY8VH","3KVQ0UJWPX71V463XQYDOZYIDLRW5D","","167.29999995231628","img/animal1.png","74","167.69999998807907","1","1","3","1,0.7,0,1,0.7,0,0.7,0,1",""
"","html-keyboard-response","352","170243","0.0-352.0","3KXIR214I52Z9P2QW3VYKJ83GZU42D","A3I40B0FATY8VH","3KVQ0UJWPX71V463XQYDOZYIDLRW5D","","null","<img src=""img/animal1.png"" style=""width:200px; border:14px solid green;"">","null","","","","","",""
"","image-keyboard-response","353","171240","0.0-353.0","3KXIR214I52Z9P2QW3VYKJ83GZU42D","A3I40B0FATY8VH","3KVQ0UJWPX71V463XQYDOZYIDLRW5D","","995.1000000238419","img/animal2.png","74","996.6000000238419","1","1","1","1,0.7,0,1,0.7,0,0.7,0,1",""
"","html-keyboard-response","354","171543","0.0-354.0","3KXIR214I52Z9P2QW3VYKJ83GZU42D","A3I40B0FATY8VH","3KVQ0UJWPX71V463XQYDOZYIDLRW5D","","null","<img src=""img/animal2.png"" style=""width:200px; border:14px solid green;"">","null","","","","","",""
"","image-keyboard-response","355","172347","0.0-355.0","3KXIR214I52Z9P2QW3VYKJ83GZU42D","A3I40B0FATY8VH","3KVQ0UJWPX71V463XQYDOZYIDLRW5D","","804.4000000357628","img/animal1.png","76","804.8000000119209","3","1","3","1,0.7,0,1,0.7,0,0.7,0,1",""
"","html-keyboard-response","356","172649","0.0-356.0","3KXIR214I52Z9P2QW3VYKJ83GZU42D","A3I40B0FATY8VH","3KVQ0UJWPX71V463XQYDOZYIDLRW5D","","null","<img src=""img/animal1.png"" style=""width:200px; border:14px solid green;"">","null","","","","","",""
"","image-keyboard-response","357","173123","0.0-357.0","3KXIR214I52Z9P2QW3VYKJ83GZU42D","A3I40B0FATY8VH","3KVQ0UJWPX71V463XQYDOZYIDLRW5D","","473.4000000357628","img/animal2.png","74","474.19999998807907","1","1","1","1,0.7,0,1,0.7,0,0.7,0,1",""
"","html-keyboard-response","358","173426","0.0-358.0","3KXIR214I52Z9P2QW3VYKJ83GZU42D","A3I40B0FATY8VH","3KVQ0UJWPX71V463XQYDOZYIDLRW5D","","null","<img src=""img/animal2.png"" style=""width:200px; border:14px solid green;"">","null","","","","","",""
"","image-keyboard-response","359","173799","0.0-359.0","3KXIR214I52Z9P2QW3VYKJ83GZU42D","A3I40B0FATY8VH","3KVQ0UJWPX71V463XQYDOZYIDLRW5D","","372.4000000357628","img/animal1.png","74","373.2999999523163","1","1","3","1,0.7,0,1,0.7,0,0.7,0,1",""
"","html-keyboard-response","360","174101","0.0-360.0","3KXIR214I52Z9P2QW3VYKJ83GZU42D","A3I40B0FATY8VH","3KVQ0UJWPX71V463XQYDOZYIDLRW5D","","null","<img src=""img/animal1.png"" style=""width:200px; border:14px solid green;"">","null","","","","","",""
"","image-keyboard-response","361","174672","0.0-361.0","3KXIR214I52Z9P2QW3VYKJ83GZU42D","A3I40B0FATY8VH","3KVQ0UJWPX71V463XQYDOZYIDLRW5D","","570.3000000119209","img/animal2.png","74","571.1000000238419","1","1","1","1,0.7,0,1,0.7,0,0.7,0,1",""
"","html-keyboard-response","362","174975","0.0-362.0","3KXIR214I52Z9P2QW3VYKJ83GZU42D","A3I40B0FATY8VH","3KVQ0UJWPX71V463XQYDOZYIDLRW5D","","null","<img src=""img/animal2.png"" style=""width:200px; border:14px solid green;"">","null","","","","","",""
"","instructions","363","178261","0.0-363.0","3KXIR214I52Z9P2QW3VYKJ83GZU42D","A3I40B0FATY8VH","3KVQ0UJWPX71V463XQYDOZYIDLRW5D","[{""page_index"":0,""viewing_time"":3284.699999988079}]","3284.899999976158","","","","","","","",""
"","survey-text","364","180962","0.0-364.0","3KXIR214I52Z9P2QW3VYKJ83GZU42D","A3I40B0FATY8VH","3KVQ0UJWPX71V463XQYDOZYIDLRW5D","","2699.399999976158","","","","","","","","{""Q0"":""A3I40B0FATY8VH""}"
