"success","trial_type","trial_index","time_elapsed","internal_node_id","assignmentID","mturkID","hitID","view_history","rt","stimulus","key_press","reactionTime","a","r","s","reward_cond","responses"
"true","fullscreen","0","4368","0.0-0.0","3ZSY5X72NYXKH2TTUDP8ZPMG7N4ROR","A3L0DCUXI7X3A9","3H6W48L9F4B5OEOMH57RM53Z4H1WP0","","","","","","","","","",""
"","instructions","1","30971","0.0-1.0","3ZSY5X72NYXKH2TTUDP8ZPMG7N4ROR","A3L0DCUXI7X3A9","3H6W48L9F4B5OEOMH57RM53Z4H1WP0","[{""page_index"":0,""viewing_time"":6018.5},{""page_index"":1,""viewing_time"":1141.2000000476837},{""page_index"":2,""viewing_time"":1300.7999999523163},{""page_index"":3,""viewing_time"":4226.100000023842},{""page_index"":4,""viewing_time"":2008},{""page_index"":5,""viewing_time"":2063.899999976158},{""page_index"":6,""viewing_time"":3173.2999999523163},{""page_index"":7,""viewing_time"":6667.700000047684}]","26600.100000023842","","","","","","","",""
"","image-keyboard-response","2","32094","0.0-2.0","3ZSY5X72NYXKH2TTUDP8ZPMG7N4ROR","A3L0DCUXI7X3A9","3H6W48L9F4B5OEOMH57RM53Z4H1WP0","","1122.4000000953674","img/animal3.png","74","1123.8000000715256","1","0","3","1,0.5,0,0,1,0.5,0.5,0,1",""
"","html-keyboard-response","3","32399","0.0-3.0","3ZSY5X72NYXKH2TTUDP8ZPMG7N4ROR","A3L0DCUXI7X3A9","3H6W48L9F4B5OEOMH57RM53Z4H1WP0","","null","<img src=""img/animal3.png"" style=""width:200px;border:14px solid red;"">","null","","","","","",""
"","image-keyboard-response","4","33405","0.0-4.0","3ZSY5X72NYXKH2TTUDP8ZPMG7N4ROR","A3L0DCUXI7X3A9","3H6W48L9F4B5OEOMH57RM53Z4H1WP0","","1003.7999999523163","img/animal3.png","75","1005.2000000476837","2","0","3","1,0.5,0,0,1,0.5,0.5,0,1",""
"","html-keyboard-response","5","33708","0.0-5.0","3ZSY5X72NYXKH2TTUDP8ZPMG7N4ROR","A3L0DCUXI7X3A9","3H6W48L9F4B5OEOMH57RM53Z4H1WP0","","null","<img src=""img/animal3.png"" style=""width:200px;border:14px solid red;"">","null","","","","","",""
"","image-keyboard-response","6","34893","0.0-6.0","3ZSY5X72NYXKH2TTUDP8ZPMG7N4ROR","A3L0DCUXI7X3A9","3H6W48L9F4B5OEOMH57RM53Z4H1WP0","","1183.7000000476837","img/animal1.png","74","1184.8999999761581","1","1","1","1,0.5,0,0,1,0.5,0.5,0,1",""
"","html-keyboard-response","7","35196","0.0-7.0","3ZSY5X72NYXKH2TTUDP8ZPMG7N4ROR","A3L0DCUXI7X3A9","3H6W48L9F4B5OEOMH57RM53Z4H1WP0","","null","<img src=""img/animal1.png"" style=""width:200px; border:14px solid green;"">","null","","","","","",""
"","image-keyboard-response","8","35853","0.0-8.0","3ZSY5X72NYXKH2TTUDP8ZPMG7N4ROR","A3L0DCUXI7X3A9","3H6W48L9F4B5OEOMH57RM53Z4H1WP0","","655.9000000953674","img/animal1.png","74","657.2000000476837","1","1","1","1,0.5,0,0,1,0.5,0.5,0,1",""
"","html-keyboard-response","9","36156","0.0-9.0","3ZSY5X72NYXKH2TTUDP8ZPMG7N4ROR","A3L0DCUXI7X3A9","3H6W48L9F4B5OEOMH57RM53Z4H1WP0","","null","<img src=""img/animal1.png"" style=""width:200px; border:14px solid green;"">","null","","","","","",""
"","image-keyboard-response","10","37502","0.0-10.0","3ZSY5X72NYXKH2TTUDP8ZPMG7N4ROR","A3L0DCUXI7X3A9","3H6W48L9F4B5OEOMH57RM53Z4H1WP0","","1345.1000000238419","img/animal6.png","75","1346.1000000238419","2","1","2","1,0.5,0,0,1,0.5,0.5,0,1",""
"","html-keyboard-response","11","37805","0.0-11.0","3ZSY5X72NYXKH2TTUDP8ZPMG7N4ROR","A3L0DCUXI7X3A9","3H6W48L9F4B5OEOMH57RM53Z4H1WP0","","null","<img src=""img/animal6.png"" style=""width:200px; border:14px solid green;"">","null","","","","","",""
"","image-keyboard-response","12","38268","0.0-12.0","3ZSY5X72NYXKH2TTUDP8ZPMG7N4ROR","A3L0DCUXI7X3A9","3H6W48L9F4B5OEOMH57RM53Z4H1WP0","","462.3000000715256","img/animal6.png","75","462.7000000476837","2","1","2","1,0.5,0,0,1,0.5,0.5,0,1",""
"","html-keyboard-response","13","38569","0.0-13.0","3ZSY5X72NYXKH2TTUDP8ZPMG7N4ROR","A3L0DCUXI7X3A9","3H6W48L9F4B5OEOMH57RM53Z4H1WP0","","null","<img src=""img/animal6.png"" style=""width:200px; border:14px solid green;"">","null","","","","","",""
"","image-keyboard-response","14","39100","0.0-14.0","3ZSY5X72NYXKH2TTUDP8ZPMG7N4ROR","A3L0DCUXI7X3A9","3H6W48L9F4B5OEOMH57RM53Z4H1WP0","","529.8999999761581","img/animal6.png","75","530.6000000238419","2","1","2","1,0.5,0,0,1,0.5,0.5,0,1",""
"","html-keyboard-response","15","39403","0.0-15.0","3ZSY5X72NYXKH2TTUDP8ZPMG7N4ROR","A3L0DCUXI7X3A9","3H6W48L9F4B5OEOMH57RM53Z4H1WP0","","null","<img src=""img/animal6.png"" style=""width:200px; border:14px solid green;"">","null","","","","","",""
"","image-keyboard-response","16","40284","0.0-16.0","3ZSY5X72NYXKH2TTUDP8ZPMG7N4ROR","A3L0DCUXI7X3A9","3H6W48L9F4B5OEOMH57RM53Z4H1WP0","","879.7999999523163","img/animal3.png","76","880.7999999523163","3","1","3","1,0.5,0,0,1,0.5,0.5,0,1",""
"","html-keyboard-response","17","40586","0.0-17.0","3ZSY5X72NYXKH2TTUDP8ZPMG7N4ROR","A3L0DCUXI7X3A9","3H6W48L9F4B5OEOMH57RM53Z4H1WP0","","null","<img src=""img/animal3.png"" style=""width:200px; border:14px solid green;"">","null","","","","","",""
"","image-keyboard-response","18","41660","0.0-18.0","3ZSY5X72NYXKH2TTUDP8ZPMG7N4ROR","A3L0DCUXI7X3A9","3H6W48L9F4B5OEOMH57RM53Z4H1WP0","","1073.1000000238419","img/animal6.png","75","1074.3000000715256","2","1","2","1,0.5,0,0,1,0.5,0.5,0,1",""
"","html-keyboard-response","19","41974","0.0-19.0","3ZSY5X72NYXKH2TTUDP8ZPMG7N4ROR","A3L0DCUXI7X3A9","3H6W48L9F4B5OEOMH57RM53Z4H1WP0","","null","<img src=""img/animal6.png"" style=""width:200px; border:14px solid green;"">","null","","","","","",""
"","image-keyboard-response","20","42750","0.0-20.0","3ZSY5X72NYXKH2TTUDP8ZPMG7N4ROR","A3L0DCUXI7X3A9","3H6W48L9F4B5OEOMH57RM53Z4H1WP0","","773.6000000238419","img/animal3.png","76","775.1000000238419","3","1","3","1,0.5,0,0,1,0.5,0.5,0,1",""
"","html-keyboard-response","21","43053","0.0-21.0","3ZSY5X72NYXKH2TTUDP8ZPMG7N4ROR","A3L0DCUXI7X3A9","3H6W48L9F4B5OEOMH57RM53Z4H1WP0","","null","<img src=""img/animal3.png"" style=""width:200px; border:14px solid green;"">","null","","","","","",""
"","image-keyboard-response","22","43437","0.0-22.0","3ZSY5X72NYXKH2TTUDP8ZPMG7N4ROR","A3L0DCUXI7X3A9","3H6W48L9F4B5OEOMH57RM53Z4H1WP0","","382.7000000476837","img/animal3.png","76","383.7999999523163","3","1","3","1,0.5,0,0,1,0.5,0.5,0,1",""
"","html-keyboard-response","23","43739","0.0-23.0","3ZSY5X72NYXKH2TTUDP8ZPMG7N4ROR","A3L0DCUXI7X3A9","3H6W48L9F4B5OEOMH57RM53Z4H1WP0","","null","<img src=""img/animal3.png"" style=""width:200px; border:14px solid green;"">","null","","","","","",""
"","image-keyboard-response","24","44140","0.0-24.0","3ZSY5X72NYXKH2TTUDP8ZPMG7N4ROR","A3L0DCUXI7X3A9","3H6W48L9F4B5OEOMH57RM53Z4H1WP0","","399.90000009536743","img/animal3.png","76","400.6999999284744","3","1","3","1,0.5,0,0,1,0.5,0.5,0,1",""
"","html-keyboard-response","25","44443","0.0-25.0","3ZSY5X72NYXKH2TTUDP8ZPMG7N4ROR","A3L0DCUXI7X3A9","3H6W48L9F4B5OEOMH57RM53Z4H1WP0","","null","<img src=""img/animal3.png"" style=""width:200px; border:14px solid green;"">","null","","","","","",""
"","image-keyboard-response","26","45227","0.0-26.0","3ZSY5X72NYXKH2TTUDP8ZPMG7N4ROR","A3L0DCUXI7X3A9","3H6W48L9F4B5OEOMH57RM53Z4H1WP0","","783.0999999046326","img/animal1.png","74","784.1000000238419","1","1","1","1,0.5,0,0,1,0.5,0.5,0,1",""
"","html-keyboard-response","27","45529","0.0-27.0","3ZSY5X72NYXKH2TTUDP8ZPMG7N4ROR","A3L0DCUXI7X3A9","3H6W48L9F4B5OEOMH57RM53Z4H1WP0","","null","<img src=""img/animal1.png"" style=""width:200px; border:14px solid green;"">","null","","","","","",""
"","image-keyboard-response","28","46173","0.0-28.0","3ZSY5X72NYXKH2TTUDP8ZPMG7N4ROR","A3L0DCUXI7X3A9","3H6W48L9F4B5OEOMH57RM53Z4H1WP0","","642.5","img/animal6.png","75","643.3999999761581","2","1","2","1,0.5,0,0,1,0.5,0.5,0,1",""
"","html-keyboard-response","29","46475","0.0-29.0","3ZSY5X72NYXKH2TTUDP8ZPMG7N4ROR","A3L0DCUXI7X3A9","3H6W48L9F4B5OEOMH57RM53Z4H1WP0","","null","<img src=""img/animal6.png"" style=""width:200px; border:14px solid green;"">","null","","","","","",""
"","image-keyboard-response","30","47277","0.0-30.0","3ZSY5X72NYXKH2TTUDP8ZPMG7N4ROR","A3L0DCUXI7X3A9","3H6W48L9F4B5OEOMH57RM53Z4H1WP0","","801.1000000238419","img/animal1.png","74","801.6000000238419","1","1","1","1,0.5,0,0,1,0.5,0.5,0,1",""
"","html-keyboard-response","31","47580","0.0-31.0","3ZSY5X72NYXKH2TTUDP8ZPMG7N4ROR","A3L0DCUXI7X3A9","3H6W48L9F4B5OEOMH57RM53Z4H1WP0","","null","<img src=""img/animal1.png"" style=""width:200px; border:14px solid green;"">","null","","","","","",""
"","image-keyboard-response","32","48476","0.0-32.0","3ZSY5X72NYXKH2TTUDP8ZPMG7N4ROR","A3L0DCUXI7X3A9","3H6W48L9F4B5OEOMH57RM53Z4H1WP0","","893.8999999761581","img/animal3.png","76","894.8000000715256","3","1","3","1,0.5,0,0,1,0.5,0.5,0,1",""
"","html-keyboard-response","33","48777","0.0-33.0","3ZSY5X72NYXKH2TTUDP8ZPMG7N4ROR","A3L0DCUXI7X3A9","3H6W48L9F4B5OEOMH57RM53Z4H1WP0","","null","<img src=""img/animal3.png"" style=""width:200px; border:14px solid green;"">","null","","","","","",""
"","image-keyboard-response","34","49694","0.0-34.0","3ZSY5X72NYXKH2TTUDP8ZPMG7N4ROR","A3L0DCUXI7X3A9","3H6W48L9F4B5OEOMH57RM53Z4H1WP0","","915.2999999523163","img/animal6.png","75","916.5","2","1","2","1,0.5,0,0,1,0.5,0.5,0,1",""
"","html-keyboard-response","35","49996","0.0-35.0","3ZSY5X72NYXKH2TTUDP8ZPMG7N4ROR","A3L0DCUXI7X3A9","3H6W48L9F4B5OEOMH57RM53Z4H1WP0","","null","<img src=""img/animal6.png"" style=""width:200px; border:14px solid green;"">","null","","","","","",""
"","image-keyboard-response","36","50717","0.0-36.0","3ZSY5X72NYXKH2TTUDP8ZPMG7N4ROR","A3L0DCUXI7X3A9","3H6W48L9F4B5OEOMH57RM53Z4H1WP0","","719.1999999284744","img/animal1.png","74","720.3000000715256","1","1","1","1,0.5,0,0,1,0.5,0.5,0,1",""
"","html-keyboard-response","37","51019","0.0-37.0","3ZSY5X72NYXKH2TTUDP8ZPMG7N4ROR","A3L0DCUXI7X3A9","3H6W48L9F4B5OEOMH57RM53Z4H1WP0","","null","<img src=""img/animal1.png"" style=""width:200px; border:14px solid green;"">","null","","","","","",""
"","image-keyboard-response","38","51420","0.0-38.0","3ZSY5X72NYXKH2TTUDP8ZPMG7N4ROR","A3L0DCUXI7X3A9","3H6W48L9F4B5OEOMH57RM53Z4H1WP0","","399.39999997615814","img/animal1.png","74","400.5","1","1","1","1,0.5,0,0,1,0.5,0.5,0,1",""
"","html-keyboard-response","39","51723","0.0-39.0","3ZSY5X72NYXKH2TTUDP8ZPMG7N4ROR","A3L0DCUXI7X3A9","3H6W48L9F4B5OEOMH57RM53Z4H1WP0","","null","<img src=""img/animal1.png"" style=""width:200px; border:14px solid green;"">","null","","","","","",""
"","image-keyboard-response","40","52637","0.0-40.0","3ZSY5X72NYXKH2TTUDP8ZPMG7N4ROR","A3L0DCUXI7X3A9","3H6W48L9F4B5OEOMH57RM53Z4H1WP0","","913","img/animal6.png","75","914","2","1","2","1,0.5,0,0,1,0.5,0.5,0,1",""
"","html-keyboard-response","41","52939","0.0-41.0","3ZSY5X72NYXKH2TTUDP8ZPMG7N4ROR","A3L0DCUXI7X3A9","3H6W48L9F4B5OEOMH57RM53Z4H1WP0","","null","<img src=""img/animal6.png"" style=""width:200px; border:14px solid green;"">","null","","","","","",""
"","image-keyboard-response","42","53821","0.0-42.0","3ZSY5X72NYXKH2TTUDP8ZPMG7N4ROR","A3L0DCUXI7X3A9","3H6W48L9F4B5OEOMH57RM53Z4H1WP0","","880.8999999761581","img/animal3.png","76","882","3","1","3","1,0.5,0,0,1,0.5,0.5,0,1",""
"","html-keyboard-response","43","54123","0.0-43.0","3ZSY5X72NYXKH2TTUDP8ZPMG7N4ROR","A3L0DCUXI7X3A9","3H6W48L9F4B5OEOMH57RM53Z4H1WP0","","null","<img src=""img/animal3.png"" style=""width:200px; border:14px solid green;"">","null","","","","","",""
"","image-keyboard-response","44","54445","0.0-44.0","3ZSY5X72NYXKH2TTUDP8ZPMG7N4ROR","A3L0DCUXI7X3A9","3H6W48L9F4B5OEOMH57RM53Z4H1WP0","","319.7999999523163","img/animal3.png","76","321","3","1","3","1,0.5,0,0,1,0.5,0.5,0,1",""
"","html-keyboard-response","45","54746","0.0-45.0","3ZSY5X72NYXKH2TTUDP8ZPMG7N4ROR","A3L0DCUXI7X3A9","3H6W48L9F4B5OEOMH57RM53Z4H1WP0","","null","<img src=""img/animal3.png"" style=""width:200px; border:14px solid green;"">","null","","","","","",""
"","image-keyboard-response","46","55436","0.0-46.0","3ZSY5X72NYXKH2TTUDP8ZPMG7N4ROR","A3L0DCUXI7X3A9","3H6W48L9F4B5OEOMH57RM53Z4H1WP0","","688.3999999761581","img/animal1.png","74","689.5","1","1","1","1,0.5,0,0,1,0.5,0.5,0,1",""
"","html-keyboard-response","47","55738","0.0-47.0","3ZSY5X72NYXKH2TTUDP8ZPMG7N4ROR","A3L0DCUXI7X3A9","3H6W48L9F4B5OEOMH57RM53Z4H1WP0","","null","<img src=""img/animal1.png"" style=""width:200px; border:14px solid green;"">","null","","","","","",""
"","image-keyboard-response","48","56124","0.0-48.0","3ZSY5X72NYXKH2TTUDP8ZPMG7N4ROR","A3L0DCUXI7X3A9","3H6W48L9F4B5OEOMH57RM53Z4H1WP0","","385","img/animal1.png","74","386","1","1","1","1,0.5,0,0,1,0.5,0.5,0,1",""
"","html-keyboard-response","49","56427","0.0-49.0","3ZSY5X72NYXKH2TTUDP8ZPMG7N4ROR","A3L0DCUXI7X3A9","3H6W48L9F4B5OEOMH57RM53Z4H1WP0","","null","<img src=""img/animal1.png"" style=""width:200px; border:14px solid green;"">","null","","","","","",""
"","image-keyboard-response","50","56829","0.0-50.0","3ZSY5X72NYXKH2TTUDP8ZPMG7N4ROR","A3L0DCUXI7X3A9","3H6W48L9F4B5OEOMH57RM53Z4H1WP0","","400.6999999284744","img/animal1.png","74","401.7999999523163","1","1","1","1,0.5,0,0,1,0.5,0.5,0,1",""
"","html-keyboard-response","51","57132","0.0-51.0","3ZSY5X72NYXKH2TTUDP8ZPMG7N4ROR","A3L0DCUXI7X3A9","3H6W48L9F4B5OEOMH57RM53Z4H1WP0","","null","<img src=""img/animal1.png"" style=""width:200px; border:14px solid green;"">","null","","","","","",""
"","image-keyboard-response","52","57836","0.0-52.0","3ZSY5X72NYXKH2TTUDP8ZPMG7N4ROR","A3L0DCUXI7X3A9","3H6W48L9F4B5OEOMH57RM53Z4H1WP0","","703","img/animal6.png","75","703.8999999761581","2","1","2","1,0.5,0,0,1,0.5,0.5,0,1",""
"","html-keyboard-response","53","58139","0.0-53.0","3ZSY5X72NYXKH2TTUDP8ZPMG7N4ROR","A3L0DCUXI7X3A9","3H6W48L9F4B5OEOMH57RM53Z4H1WP0","","null","<img src=""img/animal6.png"" style=""width:200px; border:14px solid green;"">","null","","","","","",""
"","image-keyboard-response","54","58508","0.0-54.0","3ZSY5X72NYXKH2TTUDP8ZPMG7N4ROR","A3L0DCUXI7X3A9","3H6W48L9F4B5OEOMH57RM53Z4H1WP0","","367.10000002384186","img/animal6.png","75","368.09999990463257","2","1","2","1,0.5,0,0,1,0.5,0.5,0,1",""
"","html-keyboard-response","55","58810","0.0-55.0","3ZSY5X72NYXKH2TTUDP8ZPMG7N4ROR","A3L0DCUXI7X3A9","3H6W48L9F4B5OEOMH57RM53Z4H1WP0","","null","<img src=""img/animal6.png"" style=""width:200px; border:14px solid green;"">","null","","","","","",""
"","image-keyboard-response","56","59166","0.0-56.0","3ZSY5X72NYXKH2TTUDP8ZPMG7N4ROR","A3L0DCUXI7X3A9","3H6W48L9F4B5OEOMH57RM53Z4H1WP0","","354.5","img/animal6.png","75","355.59999990463257","2","1","2","1,0.5,0,0,1,0.5,0.5,0,1",""
"","html-keyboard-response","57","59468","0.0-57.0","3ZSY5X72NYXKH2TTUDP8ZPMG7N4ROR","A3L0DCUXI7X3A9","3H6W48L9F4B5OEOMH57RM53Z4H1WP0","","null","<img src=""img/animal6.png"" style=""width:200px; border:14px solid green;"">","null","","","","","",""
"","image-keyboard-response","58","60205","0.0-58.0","3ZSY5X72NYXKH2TTUDP8ZPMG7N4ROR","A3L0DCUXI7X3A9","3H6W48L9F4B5OEOMH57RM53Z4H1WP0","","735.8000000715256","img/animal3.png","76","736.7999999523163","3","1","3","1,0.5,0,0,1,0.5,0.5,0,1",""
"","html-keyboard-response","59","60507","0.0-59.0","3ZSY5X72NYXKH2TTUDP8ZPMG7N4ROR","A3L0DCUXI7X3A9","3H6W48L9F4B5OEOMH57RM53Z4H1WP0","","null","<img src=""img/animal3.png"" style=""width:200px; border:14px solid green;"">","null","","","","","",""
"","image-keyboard-response","60","61293","0.0-60.0","3ZSY5X72NYXKH2TTUDP8ZPMG7N4ROR","A3L0DCUXI7X3A9","3H6W48L9F4B5OEOMH57RM53Z4H1WP0","","783.6999999284744","img/animal1.png","74","784.9000000953674","1","1","1","1,0.5,0,0,1,0.5,0.5,0,1",""
"","html-keyboard-response","61","61595","0.0-61.0","3ZSY5X72NYXKH2TTUDP8ZPMG7N4ROR","A3L0DCUXI7X3A9","3H6W48L9F4B5OEOMH57RM53Z4H1WP0","","null","<img src=""img/animal1.png"" style=""width:200px; border:14px solid green;"">","null","","","","","",""
"","image-keyboard-response","62","62509","0.0-62.0","3ZSY5X72NYXKH2TTUDP8ZPMG7N4ROR","A3L0DCUXI7X3A9","3H6W48L9F4B5OEOMH57RM53Z4H1WP0","","912.3000000715256","img/animal3.png","76","913.7000000476837","3","1","3","1,0.5,0,0,1,0.5,0.5,0,1",""
"","html-keyboard-response","63","62811","0.0-63.0","3ZSY5X72NYXKH2TTUDP8ZPMG7N4ROR","A3L0DCUXI7X3A9","3H6W48L9F4B5OEOMH57RM53Z4H1WP0","","null","<img src=""img/animal3.png"" style=""width:200px; border:14px solid green;"">","null","","","","","",""
"","image-keyboard-response","64","63166","0.0-64.0","3ZSY5X72NYXKH2TTUDP8ZPMG7N4ROR","A3L0DCUXI7X3A9","3H6W48L9F4B5OEOMH57RM53Z4H1WP0","","354.2999999523163","img/animal3.png","76","355.39999997615814","3","1","3","1,0.5,0,0,1,0.5,0.5,0,1",""
"","html-keyboard-response","65","63469","0.0-65.0","3ZSY5X72NYXKH2TTUDP8ZPMG7N4ROR","A3L0DCUXI7X3A9","3H6W48L9F4B5OEOMH57RM53Z4H1WP0","","null","<img src=""img/animal3.png"" style=""width:200px; border:14px solid green;"">","null","","","","","",""
"","image-keyboard-response","66","64253","0.0-66.0","3ZSY5X72NYXKH2TTUDP8ZPMG7N4ROR","A3L0DCUXI7X3A9","3H6W48L9F4B5OEOMH57RM53Z4H1WP0","","783.6000000238419","img/animal6.png","75","784.6000000238419","2","1","2","1,0.5,0,0,1,0.5,0.5,0,1",""
"","html-keyboard-response","67","64557","0.0-67.0","3ZSY5X72NYXKH2TTUDP8ZPMG7N4ROR","A3L0DCUXI7X3A9","3H6W48L9F4B5OEOMH57RM53Z4H1WP0","","null","<img src=""img/animal6.png"" style=""width:200px; border:14px solid green;"">","null","","","","","",""
"","image-keyboard-response","68","65613","0.0-68.0","3ZSY5X72NYXKH2TTUDP8ZPMG7N4ROR","A3L0DCUXI7X3A9","3H6W48L9F4B5OEOMH57RM53Z4H1WP0","","1054.3000000715256","img/animal3.png","76","1055.8000000715256","3","1","3","1,0.5,0,0,1,0.5,0.5,0,1",""
"","html-keyboard-response","69","65915","0.0-69.0","3ZSY5X72NYXKH2TTUDP8ZPMG7N4ROR","A3L0DCUXI7X3A9","3H6W48L9F4B5OEOMH57RM53Z4H1WP0","","null","<img src=""img/animal3.png"" style=""width:200px; border:14px solid green;"">","null","","","","","",""
"","image-keyboard-response","70","66253","0.0-70.0","3ZSY5X72NYXKH2TTUDP8ZPMG7N4ROR","A3L0DCUXI7X3A9","3H6W48L9F4B5OEOMH57RM53Z4H1WP0","","336.6999999284744","img/animal3.png","76","337.8000000715256","3","1","3","1,0.5,0,0,1,0.5,0.5,0,1",""
"","html-keyboard-response","71","66555","0.0-71.0","3ZSY5X72NYXKH2TTUDP8ZPMG7N4ROR","A3L0DCUXI7X3A9","3H6W48L9F4B5OEOMH57RM53Z4H1WP0","","null","<img src=""img/animal3.png"" style=""width:200px; border:14px solid green;"">","null","","","","","",""
"","image-keyboard-response","72","66909","0.0-72.0","3ZSY5X72NYXKH2TTUDP8ZPMG7N4ROR","A3L0DCUXI7X3A9","3H6W48L9F4B5OEOMH57RM53Z4H1WP0","","352.2000000476837","img/animal3.png","76","353.5","3","1","3","1,0.5,0,0,1,0.5,0.5,0,1",""
"","html-keyboard-response","73","67212","0.0-73.0","3ZSY5X72NYXKH2TTUDP8ZPMG7N4ROR","A3L0DCUXI7X3A9","3H6W48L9F4B5OEOMH57RM53Z4H1WP0","","null","<img src=""img/animal3.png"" style=""width:200px; border:14px solid green;"">","null","","","","","",""
"","image-keyboard-response","74","67980","0.0-74.0","3ZSY5X72NYXKH2TTUDP8ZPMG7N4ROR","A3L0DCUXI7X3A9","3H6W48L9F4B5OEOMH57RM53Z4H1WP0","","767.3000000715256","img/animal6.png","75","768.3999999761581","2","1","2","1,0.5,0,0,1,0.5,0.5,0,1",""
"","html-keyboard-response","75","68283","0.0-75.0","3ZSY5X72NYXKH2TTUDP8ZPMG7N4ROR","A3L0DCUXI7X3A9","3H6W48L9F4B5OEOMH57RM53Z4H1WP0","","null","<img src=""img/animal6.png"" style=""width:200px; border:14px solid green;"">","null","","","","","",""
"","image-keyboard-response","76","69085","0.0-76.0","3ZSY5X72NYXKH2TTUDP8ZPMG7N4ROR","A3L0DCUXI7X3A9","3H6W48L9F4B5OEOMH57RM53Z4H1WP0","","801","img/animal3.png","76","802.1000000238419","3","1","3","1,0.5,0,0,1,0.5,0.5,0,1",""
"","html-keyboard-response","77","69388","0.0-77.0","3ZSY5X72NYXKH2TTUDP8ZPMG7N4ROR","A3L0DCUXI7X3A9","3H6W48L9F4B5OEOMH57RM53Z4H1WP0","","null","<img src=""img/animal3.png"" style=""width:200px; border:14px solid green;"">","null","","","","","",""
"","image-keyboard-response","78","70124","0.0-78.0","3ZSY5X72NYXKH2TTUDP8ZPMG7N4ROR","A3L0DCUXI7X3A9","3H6W48L9F4B5OEOMH57RM53Z4H1WP0","","734.7999999523163","img/animal1.png","74","735.7000000476837","1","1","1","1,0.5,0,0,1,0.5,0.5,0,1",""
"","html-keyboard-response","79","70425","0.0-79.0","3ZSY5X72NYXKH2TTUDP8ZPMG7N4ROR","A3L0DCUXI7X3A9","3H6W48L9F4B5OEOMH57RM53Z4H1WP0","","null","<img src=""img/animal1.png"" style=""width:200px; border:14px solid green;"">","null","","","","","",""
"","image-keyboard-response","80","71213","0.0-80.0","3ZSY5X72NYXKH2TTUDP8ZPMG7N4ROR","A3L0DCUXI7X3A9","3H6W48L9F4B5OEOMH57RM53Z4H1WP0","","787.1000000238419","img/animal3.png","76","787.5999999046326","3","1","3","1,0.5,0,0,1,0.5,0.5,0,1",""
"","html-keyboard-response","81","71515","0.0-81.0","3ZSY5X72NYXKH2TTUDP8ZPMG7N4ROR","A3L0DCUXI7X3A9","3H6W48L9F4B5OEOMH57RM53Z4H1WP0","","null","<img src=""img/animal3.png"" style=""width:200px; border:14px solid green;"">","null","","","","","",""
"","image-keyboard-response","82","72237","0.0-82.0","3ZSY5X72NYXKH2TTUDP8ZPMG7N4ROR","A3L0DCUXI7X3A9","3H6W48L9F4B5OEOMH57RM53Z4H1WP0","","720","img/animal6.png","75","721.1999999284744","2","1","2","1,0.5,0,0,1,0.5,0.5,0,1",""
"","html-keyboard-response","83","72540","0.0-83.0","3ZSY5X72NYXKH2TTUDP8ZPMG7N4ROR","A3L0DCUXI7X3A9","3H6W48L9F4B5OEOMH57RM53Z4H1WP0","","null","<img src=""img/animal6.png"" style=""width:200px; border:14px solid green;"">","null","","","","","",""
"","image-keyboard-response","84","73821","0.0-84.0","3ZSY5X72NYXKH2TTUDP8ZPMG7N4ROR","A3L0DCUXI7X3A9","3H6W48L9F4B5OEOMH57RM53Z4H1WP0","","1279.6999999284744","img/animal1.png","74","1280.5","1","1","1","1,0.5,0,0,1,0.5,0.5,0,1",""
"","html-keyboard-response","85","74122","0.0-85.0","3ZSY5X72NYXKH2TTUDP8ZPMG7N4ROR","A3L0DCUXI7X3A9","3H6W48L9F4B5OEOMH57RM53Z4H1WP0","","null","<img src=""img/animal1.png"" style=""width:200px; border:14px solid green;"">","null","","","","","",""
"","image-keyboard-response","86","74476","0.0-86.0","3ZSY5X72NYXKH2TTUDP8ZPMG7N4ROR","A3L0DCUXI7X3A9","3H6W48L9F4B5OEOMH57RM53Z4H1WP0","","352.2999999523163","img/animal1.png","74","353.40000009536743","1","1","1","1,0.5,0,0,1,0.5,0.5,0,1",""
"","html-keyboard-response","87","74778","0.0-87.0","3ZSY5X72NYXKH2TTUDP8ZPMG7N4ROR","A3L0DCUXI7X3A9","3H6W48L9F4B5OEOMH57RM53Z4H1WP0","","null","<img src=""img/animal1.png"" style=""width:200px; border:14px solid green;"">","null","","","","","",""
"","image-keyboard-response","88","75661","0.0-88.0","3ZSY5X72NYXKH2TTUDP8ZPMG7N4ROR","A3L0DCUXI7X3A9","3H6W48L9F4B5OEOMH57RM53Z4H1WP0","","882.3000000715256","img/animal6.png","75","883.1999999284744","2","1","2","1,0.5,0,0,1,0.5,0.5,0,1",""
"","html-keyboard-response","89","75963","0.0-89.0","3ZSY5X72NYXKH2TTUDP8ZPMG7N4ROR","A3L0DCUXI7X3A9","3H6W48L9F4B5OEOMH57RM53Z4H1WP0","","null","<img src=""img/animal6.png"" style=""width:200px; border:14px solid green;"">","null","","","","","",""
"","image-keyboard-response","90","76813","0.0-90.0","3ZSY5X72NYXKH2TTUDP8ZPMG7N4ROR","A3L0DCUXI7X3A9","3H6W48L9F4B5OEOMH57RM53Z4H1WP0","","849.2000000476837","img/animal1.png","74","849.8999999761581","1","1","1","1,0.5,0,0,1,0.5,0.5,0,1",""
"","html-keyboard-response","91","77116","0.0-91.0","3ZSY5X72NYXKH2TTUDP8ZPMG7N4ROR","A3L0DCUXI7X3A9","3H6W48L9F4B5OEOMH57RM53Z4H1WP0","","null","<img src=""img/animal1.png"" style=""width:200px; border:14px solid green;"">","null","","","","","",""
"","image-keyboard-response","92","77789","0.0-92.0","3ZSY5X72NYXKH2TTUDP8ZPMG7N4ROR","A3L0DCUXI7X3A9","3H6W48L9F4B5OEOMH57RM53Z4H1WP0","","672.2999999523163","img/animal6.png","75","672.9000000953674","2","1","2","1,0.5,0,0,1,0.5,0.5,0,1",""
"","html-keyboard-response","93","78091","0.0-93.0","3ZSY5X72NYXKH2TTUDP8ZPMG7N4ROR","A3L0DCUXI7X3A9","3H6W48L9F4B5OEOMH57RM53Z4H1WP0","","null","<img src=""img/animal6.png"" style=""width:200px; border:14px solid green;"">","null","","","","","",""
"","image-keyboard-response","94","78413","0.0-94.0","3ZSY5X72NYXKH2TTUDP8ZPMG7N4ROR","A3L0DCUXI7X3A9","3H6W48L9F4B5OEOMH57RM53Z4H1WP0","","321","img/animal6.png","75","322","2","1","2","1,0.5,0,0,1,0.5,0.5,0,1",""
"","html-keyboard-response","95","78724","0.0-95.0","3ZSY5X72NYXKH2TTUDP8ZPMG7N4ROR","A3L0DCUXI7X3A9","3H6W48L9F4B5OEOMH57RM53Z4H1WP0","","null","<img src=""img/animal6.png"" style=""width:200px; border:14px solid green;"">","null","","","","","",""
"","image-keyboard-response","96","79133","0.0-96.0","3ZSY5X72NYXKH2TTUDP8ZPMG7N4ROR","A3L0DCUXI7X3A9","3H6W48L9F4B5OEOMH57RM53Z4H1WP0","","408.09999990463257","img/animal6.png","75","409.10000002384186","2","1","2","1,0.5,0,0,1,0.5,0.5,0,1",""
"","html-keyboard-response","97","79435","0.0-97.0","3ZSY5X72NYXKH2TTUDP8ZPMG7N4ROR","A3L0DCUXI7X3A9","3H6W48L9F4B5OEOMH57RM53Z4H1WP0","","null","<img src=""img/animal6.png"" style=""width:200px; border:14px solid green;"">","null","","","","","",""
"","image-keyboard-response","98","79853","0.0-98.0","3ZSY5X72NYXKH2TTUDP8ZPMG7N4ROR","A3L0DCUXI7X3A9","3H6W48L9F4B5OEOMH57RM53Z4H1WP0","","416.39999997615814","img/animal6.png","75","417.39999997615814","2","1","2","1,0.5,0,0,1,0.5,0.5,0,1",""
"","html-keyboard-response","99","80154","0.0-99.0","3ZSY5X72NYXKH2TTUDP8ZPMG7N4ROR","A3L0DCUXI7X3A9","3H6W48L9F4B5OEOMH57RM53Z4H1WP0","","null","<img src=""img/animal6.png"" style=""width:200px; border:14px solid green;"">","null","","","","","",""
"","image-keyboard-response","100","80891","0.0-100.0","3ZSY5X72NYXKH2TTUDP8ZPMG7N4ROR","A3L0DCUXI7X3A9","3H6W48L9F4B5OEOMH57RM53Z4H1WP0","","736.6000000238419","img/animal1.png","74","737.2000000476837","1","1","1","1,0.5,0,0,1,0.5,0.5,0,1",""
"","html-keyboard-response","101","81196","0.0-101.0","3ZSY5X72NYXKH2TTUDP8ZPMG7N4ROR","A3L0DCUXI7X3A9","3H6W48L9F4B5OEOMH57RM53Z4H1WP0","","null","<img src=""img/animal1.png"" style=""width:200px; border:14px solid green;"">","null","","","","","",""
"","image-keyboard-response","102","81901","0.0-102.0","3ZSY5X72NYXKH2TTUDP8ZPMG7N4ROR","A3L0DCUXI7X3A9","3H6W48L9F4B5OEOMH57RM53Z4H1WP0","","703.3999999761581","img/animal3.png","76","704.6999999284744","3","1","3","1,0.5,0,0,1,0.5,0.5,0,1",""
"","html-keyboard-response","103","82203","0.0-103.0","3ZSY5X72NYXKH2TTUDP8ZPMG7N4ROR","A3L0DCUXI7X3A9","3H6W48L9F4B5OEOMH57RM53Z4H1WP0","","null","<img src=""img/animal3.png"" style=""width:200px; border:14px solid green;"">","null","","","","","",""
"","image-keyboard-response","104","82988","0.0-104.0","3ZSY5X72NYXKH2TTUDP8ZPMG7N4ROR","A3L0DCUXI7X3A9","3H6W48L9F4B5OEOMH57RM53Z4H1WP0","","783.6000000238419","img/animal6.png","75","784.6999999284744","2","1","2","1,0.5,0,0,1,0.5,0.5,0,1",""
"","html-keyboard-response","105","83290","0.0-105.0","3ZSY5X72NYXKH2TTUDP8ZPMG7N4ROR","A3L0DCUXI7X3A9","3H6W48L9F4B5OEOMH57RM53Z4H1WP0","","null","<img src=""img/animal6.png"" style=""width:200px; border:14px solid green;"">","null","","","","","",""
"","image-keyboard-response","106","84141","0.0-106.0","3ZSY5X72NYXKH2TTUDP8ZPMG7N4ROR","A3L0DCUXI7X3A9","3H6W48L9F4B5OEOMH57RM53Z4H1WP0","","849.6000000238419","img/animal3.png","76","850.7000000476837","3","1","3","1,0.5,0,0,1,0.5,0.5,0,1",""
"","html-keyboard-response","107","84443","0.0-107.0","3ZSY5X72NYXKH2TTUDP8ZPMG7N4ROR","A3L0DCUXI7X3A9","3H6W48L9F4B5OEOMH57RM53Z4H1WP0","","null","<img src=""img/animal3.png"" style=""width:200px; border:14px solid green;"">","null","","","","","",""
"","image-keyboard-response","108","84781","0.0-108.0","3ZSY5X72NYXKH2TTUDP8ZPMG7N4ROR","A3L0DCUXI7X3A9","3H6W48L9F4B5OEOMH57RM53Z4H1WP0","","336.7000000476837","img/animal3.png","76","337.7999999523163","3","1","3","1,0.5,0,0,1,0.5,0.5,0,1",""
"","html-keyboard-response","109","85084","0.0-109.0","3ZSY5X72NYXKH2TTUDP8ZPMG7N4ROR","A3L0DCUXI7X3A9","3H6W48L9F4B5OEOMH57RM53Z4H1WP0","","null","<img src=""img/animal3.png"" style=""width:200px; border:14px solid green;"">","null","","","","","",""
"","image-keyboard-response","110","85837","0.0-110.0","3ZSY5X72NYXKH2TTUDP8ZPMG7N4ROR","A3L0DCUXI7X3A9","3H6W48L9F4B5OEOMH57RM53Z4H1WP0","","751.2999999523163","img/animal1.png","74","752.4000000953674","1","1","1","1,0.5,0,0,1,0.5,0.5,0,1",""
"","html-keyboard-response","111","86140","0.0-111.0","3ZSY5X72NYXKH2TTUDP8ZPMG7N4ROR","A3L0DCUXI7X3A9","3H6W48L9F4B5OEOMH57RM53Z4H1WP0","","null","<img src=""img/animal1.png"" style=""width:200px; border:14px solid green;"">","null","","","","","",""
"","image-keyboard-response","112","86492","0.0-112.0","3ZSY5X72NYXKH2TTUDP8ZPMG7N4ROR","A3L0DCUXI7X3A9","3H6W48L9F4B5OEOMH57RM53Z4H1WP0","","350.59999990463257","img/animal1.png","74","351.60000002384186","1","1","1","1,0.5,0,0,1,0.5,0.5,0,1",""
"","html-keyboard-response","113","86799","0.0-113.0","3ZSY5X72NYXKH2TTUDP8ZPMG7N4ROR","A3L0DCUXI7X3A9","3H6W48L9F4B5OEOMH57RM53Z4H1WP0","","null","<img src=""img/animal1.png"" style=""width:200px; border:14px solid green;"">","null","","","","","",""
"","image-keyboard-response","114","87564","0.0-114.0","3ZSY5X72NYXKH2TTUDP8ZPMG7N4ROR","A3L0DCUXI7X3A9","3H6W48L9F4B5OEOMH57RM53Z4H1WP0","","764.1000000238419","img/animal3.png","76","764.6999999284744","3","1","3","1,0.5,0,0,1,0.5,0.5,0,1",""
"","html-keyboard-response","115","87865","0.0-115.0","3ZSY5X72NYXKH2TTUDP8ZPMG7N4ROR","A3L0DCUXI7X3A9","3H6W48L9F4B5OEOMH57RM53Z4H1WP0","","null","<img src=""img/animal3.png"" style=""width:200px; border:14px solid green;"">","null","","","","","",""
"","image-keyboard-response","116","88701","0.0-116.0","3ZSY5X72NYXKH2TTUDP8ZPMG7N4ROR","A3L0DCUXI7X3A9","3H6W48L9F4B5OEOMH57RM53Z4H1WP0","","833.8999999761581","img/animal1.png","74","835.2000000476837","1","1","1","1,0.5,0,0,1,0.5,0.5,0,1",""
"","html-keyboard-response","117","89002","0.0-117.0","3ZSY5X72NYXKH2TTUDP8ZPMG7N4ROR","A3L0DCUXI7X3A9","3H6W48L9F4B5OEOMH57RM53Z4H1WP0","","null","<img src=""img/animal1.png"" style=""width:200px; border:14px solid green;"">","null","","","","","",""
"","image-keyboard-response","118","89804","0.0-118.0","3ZSY5X72NYXKH2TTUDP8ZPMG7N4ROR","A3L0DCUXI7X3A9","3H6W48L9F4B5OEOMH57RM53Z4H1WP0","","800.7999999523163","img/animal6.png","75","801.3000000715256","2","1","2","1,0.5,0,0,1,0.5,0.5,0,1",""
"","html-keyboard-response","119","90105","0.0-119.0","3ZSY5X72NYXKH2TTUDP8ZPMG7N4ROR","A3L0DCUXI7X3A9","3H6W48L9F4B5OEOMH57RM53Z4H1WP0","","null","<img src=""img/animal6.png"" style=""width:200px; border:14px solid green;"">","null","","","","","",""
"","image-keyboard-response","120","90477","0.0-120.0","3ZSY5X72NYXKH2TTUDP8ZPMG7N4ROR","A3L0DCUXI7X3A9","3H6W48L9F4B5OEOMH57RM53Z4H1WP0","","371.10000002384186","img/animal6.png","75","372.2999999523163","2","1","2","1,0.5,0,0,1,0.5,0.5,0,1",""
"","html-keyboard-response","121","90779","0.0-121.0","3ZSY5X72NYXKH2TTUDP8ZPMG7N4ROR","A3L0DCUXI7X3A9","3H6W48L9F4B5OEOMH57RM53Z4H1WP0","","null","<img src=""img/animal6.png"" style=""width:200px; border:14px solid green;"">","null","","","","","",""
"","image-keyboard-response","122","91677","0.0-122.0","3ZSY5X72NYXKH2TTUDP8ZPMG7N4ROR","A3L0DCUXI7X3A9","3H6W48L9F4B5OEOMH57RM53Z4H1WP0","","896.2999999523163","img/animal1.png","74","897.4000000953674","1","1","1","1,0.5,0,0,1,0.5,0.5,0,1",""
"","html-keyboard-response","123","91979","0.0-123.0","3ZSY5X72NYXKH2TTUDP8ZPMG7N4ROR","A3L0DCUXI7X3A9","3H6W48L9F4B5OEOMH57RM53Z4H1WP0","","null","<img src=""img/animal1.png"" style=""width:200px; border:14px solid green;"">","null","","","","","",""
"","image-keyboard-response","124","92397","0.0-124.0","3ZSY5X72NYXKH2TTUDP8ZPMG7N4ROR","A3L0DCUXI7X3A9","3H6W48L9F4B5OEOMH57RM53Z4H1WP0","","417.2000000476837","img/animal1.png","74","418.2000000476837","1","1","1","1,0.5,0,0,1,0.5,0.5,0,1",""
"","html-keyboard-response","125","92700","0.0-125.0","3ZSY5X72NYXKH2TTUDP8ZPMG7N4ROR","A3L0DCUXI7X3A9","3H6W48L9F4B5OEOMH57RM53Z4H1WP0","","null","<img src=""img/animal1.png"" style=""width:200px; border:14px solid green;"">","null","","","","","",""
"","image-keyboard-response","126","93421","0.0-126.0","3ZSY5X72NYXKH2TTUDP8ZPMG7N4ROR","A3L0DCUXI7X3A9","3H6W48L9F4B5OEOMH57RM53Z4H1WP0","","720","img/animal6.png","75","721.1000000238419","2","1","2","1,0.5,0,0,1,0.5,0.5,0,1",""
"","html-keyboard-response","127","93723","0.0-127.0","3ZSY5X72NYXKH2TTUDP8ZPMG7N4ROR","A3L0DCUXI7X3A9","3H6W48L9F4B5OEOMH57RM53Z4H1WP0","","null","<img src=""img/animal6.png"" style=""width:200px; border:14px solid green;"">","null","","","","","",""
"","image-keyboard-response","128","94556","0.0-128.0","3ZSY5X72NYXKH2TTUDP8ZPMG7N4ROR","A3L0DCUXI7X3A9","3H6W48L9F4B5OEOMH57RM53Z4H1WP0","","831.6000000238419","img/animal1.png","74","832.6000000238419","1","1","1","1,0.5,0,0,1,0.5,0.5,0,1",""
"","html-keyboard-response","129","94857","0.0-129.0","3ZSY5X72NYXKH2TTUDP8ZPMG7N4ROR","A3L0DCUXI7X3A9","3H6W48L9F4B5OEOMH57RM53Z4H1WP0","","null","<img src=""img/animal1.png"" style=""width:200px; border:14px solid green;"">","null","","","","","",""
"","image-keyboard-response","130","95612","0.0-130.0","3ZSY5X72NYXKH2TTUDP8ZPMG7N4ROR","A3L0DCUXI7X3A9","3H6W48L9F4B5OEOMH57RM53Z4H1WP0","","753.8999999761581","img/animal6.png","75","755","2","1","2","1,0.5,0,0,1,0.5,0.5,0,1",""
"","html-keyboard-response","131","95915","0.0-131.0","3ZSY5X72NYXKH2TTUDP8ZPMG7N4ROR","A3L0DCUXI7X3A9","3H6W48L9F4B5OEOMH57RM53Z4H1WP0","","null","<img src=""img/animal6.png"" style=""width:200px; border:14px solid green;"">","null","","","","","",""
"","image-keyboard-response","132","96637","0.0-132.0","3ZSY5X72NYXKH2TTUDP8ZPMG7N4ROR","A3L0DCUXI7X3A9","3H6W48L9F4B5OEOMH57RM53Z4H1WP0","","721","img/animal3.png","76","722.1000000238419","3","1","3","1,0.5,0,0,1,0.5,0.5,0,1",""
"","html-keyboard-response","133","96939","0.0-133.0","3ZSY5X72NYXKH2TTUDP8ZPMG7N4ROR","A3L0DCUXI7X3A9","3H6W48L9F4B5OEOMH57RM53Z4H1WP0","","null","<img src=""img/animal3.png"" style=""width:200px; border:14px solid green;"">","null","","","","","",""
"","image-keyboard-response","134","97773","0.0-134.0","3ZSY5X72NYXKH2TTUDP8ZPMG7N4ROR","A3L0DCUXI7X3A9","3H6W48L9F4B5OEOMH57RM53Z4H1WP0","","832.2999999523163","img/animal1.png","74","833.7000000476837","1","1","1","1,0.5,0,0,1,0.5,0.5,0,1",""
"","html-keyboard-response","135","98075","0.0-135.0","3ZSY5X72NYXKH2TTUDP8ZPMG7N4ROR","A3L0DCUXI7X3A9","3H6W48L9F4B5OEOMH57RM53Z4H1WP0","","null","<img src=""img/animal1.png"" style=""width:200px; border:14px solid green;"">","null","","","","","",""
"","image-keyboard-response","136","99037","0.0-136.0","3ZSY5X72NYXKH2TTUDP8ZPMG7N4ROR","A3L0DCUXI7X3A9","3H6W48L9F4B5OEOMH57RM53Z4H1WP0","","960.1000000238419","img/animal3.png","76","961.2999999523163","3","1","3","1,0.5,0,0,1,0.5,0.5,0,1",""
"","html-keyboard-response","137","99341","0.0-137.0","3ZSY5X72NYXKH2TTUDP8ZPMG7N4ROR","A3L0DCUXI7X3A9","3H6W48L9F4B5OEOMH57RM53Z4H1WP0","","null","<img src=""img/animal3.png"" style=""width:200px; border:14px solid green;"">","null","","","","","",""
"","image-keyboard-response","138","99950","0.0-138.0","3ZSY5X72NYXKH2TTUDP8ZPMG7N4ROR","A3L0DCUXI7X3A9","3H6W48L9F4B5OEOMH57RM53Z4H1WP0","","607.1999999284744","img/animal1.png","74","608.4000000953674","1","1","1","1,0.5,0,0,1,0.5,0.5,0,1",""
"","html-keyboard-response","139","100252","0.0-139.0","3ZSY5X72NYXKH2TTUDP8ZPMG7N4ROR","A3L0DCUXI7X3A9","3H6W48L9F4B5OEOMH57RM53Z4H1WP0","","null","<img src=""img/animal1.png"" style=""width:200px; border:14px solid green;"">","null","","","","","",""
"","image-keyboard-response","140","100941","0.0-140.0","3ZSY5X72NYXKH2TTUDP8ZPMG7N4ROR","A3L0DCUXI7X3A9","3H6W48L9F4B5OEOMH57RM53Z4H1WP0","","687.1000000238419","img/animal6.png","75","688.2999999523163","2","1","2","1,0.5,0,0,1,0.5,0.5,0,1",""
"","html-keyboard-response","141","101244","0.0-141.0","3ZSY5X72NYXKH2TTUDP8ZPMG7N4ROR","A3L0DCUXI7X3A9","3H6W48L9F4B5OEOMH57RM53Z4H1WP0","","null","<img src=""img/animal6.png"" style=""width:200px; border:14px solid green;"">","null","","","","","",""
"","image-keyboard-response","142","101900","0.0-142.0","3ZSY5X72NYXKH2TTUDP8ZPMG7N4ROR","A3L0DCUXI7X3A9","3H6W48L9F4B5OEOMH57RM53Z4H1WP0","","655.3999999761581","img/animal1.png","74","656.5","1","1","1","1,0.5,0,0,1,0.5,0.5,0,1",""
"","html-keyboard-response","143","102202","0.0-143.0","3ZSY5X72NYXKH2TTUDP8ZPMG7N4ROR","A3L0DCUXI7X3A9","3H6W48L9F4B5OEOMH57RM53Z4H1WP0","","null","<img src=""img/animal1.png"" style=""width:200px; border:14px solid green;"">","null","","","","","",""
"","image-keyboard-response","144","102845","0.0-144.0","3ZSY5X72NYXKH2TTUDP8ZPMG7N4ROR","A3L0DCUXI7X3A9","3H6W48L9F4B5OEOMH57RM53Z4H1WP0","","641.8999999761581","img/animal6.png","75","642.8999999761581","2","1","2","1,0.5,0,0,1,0.5,0.5,0,1",""
"","html-keyboard-response","145","103150","0.0-145.0","3ZSY5X72NYXKH2TTUDP8ZPMG7N4ROR","A3L0DCUXI7X3A9","3H6W48L9F4B5OEOMH57RM53Z4H1WP0","","null","<img src=""img/animal6.png"" style=""width:200px; border:14px solid green;"">","null","","","","","",""
"","image-keyboard-response","146","103757","0.0-146.0","3ZSY5X72NYXKH2TTUDP8ZPMG7N4ROR","A3L0DCUXI7X3A9","3H6W48L9F4B5OEOMH57RM53Z4H1WP0","","605.5","img/animal3.png","76","606.6999999284744","3","1","3","1,0.5,0,0,1,0.5,0.5,0,1",""
"","html-keyboard-response","147","104060","0.0-147.0","3ZSY5X72NYXKH2TTUDP8ZPMG7N4ROR","A3L0DCUXI7X3A9","3H6W48L9F4B5OEOMH57RM53Z4H1WP0","","null","<img src=""img/animal3.png"" style=""width:200px; border:14px solid green;"">","null","","","","","",""
"","image-keyboard-response","148","104429","0.0-148.0","3ZSY5X72NYXKH2TTUDP8ZPMG7N4ROR","A3L0DCUXI7X3A9","3H6W48L9F4B5OEOMH57RM53Z4H1WP0","","368","img/animal3.png","76","369.2000000476837","3","1","3","1,0.5,0,0,1,0.5,0.5,0,1",""
"","html-keyboard-response","149","104732","0.0-149.0","3ZSY5X72NYXKH2TTUDP8ZPMG7N4ROR","A3L0DCUXI7X3A9","3H6W48L9F4B5OEOMH57RM53Z4H1WP0","","null","<img src=""img/animal3.png"" style=""width:200px; border:14px solid green;"">","null","","","","","",""
"","image-keyboard-response","150","105421","0.0-150.0","3ZSY5X72NYXKH2TTUDP8ZPMG7N4ROR","A3L0DCUXI7X3A9","3H6W48L9F4B5OEOMH57RM53Z4H1WP0","","688.2000000476837","img/animal1.png","74","689.1999999284744","1","1","1","1,0.5,0,0,1,0.5,0.5,0,1",""
"","html-keyboard-response","151","105724","0.0-151.0","3ZSY5X72NYXKH2TTUDP8ZPMG7N4ROR","A3L0DCUXI7X3A9","3H6W48L9F4B5OEOMH57RM53Z4H1WP0","","null","<img src=""img/animal1.png"" style=""width:200px; border:14px solid green;"">","null","","","","","",""
"","image-keyboard-response","152","106349","0.0-152.0","3ZSY5X72NYXKH2TTUDP8ZPMG7N4ROR","A3L0DCUXI7X3A9","3H6W48L9F4B5OEOMH57RM53Z4H1WP0","","623.6999999284744","img/animal3.png","76","624.7000000476837","3","1","3","1,0.5,0,0,1,0.5,0.5,0,1",""
"","html-keyboard-response","153","106652","0.0-153.0","3ZSY5X72NYXKH2TTUDP8ZPMG7N4ROR","A3L0DCUXI7X3A9","3H6W48L9F4B5OEOMH57RM53Z4H1WP0","","null","<img src=""img/animal3.png"" style=""width:200px; border:14px solid green;"">","null","","","","","",""
"","image-keyboard-response","154","107293","0.0-154.0","3ZSY5X72NYXKH2TTUDP8ZPMG7N4ROR","A3L0DCUXI7X3A9","3H6W48L9F4B5OEOMH57RM53Z4H1WP0","","640.6000000238419","img/animal1.png","74","641.0999999046326","1","1","1","1,0.5,0,0,1,0.5,0.5,0,1",""
"","html-keyboard-response","155","107595","0.0-155.0","3ZSY5X72NYXKH2TTUDP8ZPMG7N4ROR","A3L0DCUXI7X3A9","3H6W48L9F4B5OEOMH57RM53Z4H1WP0","","null","<img src=""img/animal1.png"" style=""width:200px; border:14px solid green;"">","null","","","","","",""
"","image-keyboard-response","156","107950","0.0-156.0","3ZSY5X72NYXKH2TTUDP8ZPMG7N4ROR","A3L0DCUXI7X3A9","3H6W48L9F4B5OEOMH57RM53Z4H1WP0","","353.60000002384186","img/animal1.png","74","354.89999997615814","1","1","1","1,0.5,0,0,1,0.5,0.5,0,1",""
"","html-keyboard-response","157","108252","0.0-157.0","3ZSY5X72NYXKH2TTUDP8ZPMG7N4ROR","A3L0DCUXI7X3A9","3H6W48L9F4B5OEOMH57RM53Z4H1WP0","","null","<img src=""img/animal1.png"" style=""width:200px; border:14px solid green;"">","null","","","","","",""
"","image-keyboard-response","158","109102","0.0-158.0","3ZSY5X72NYXKH2TTUDP8ZPMG7N4ROR","A3L0DCUXI7X3A9","3H6W48L9F4B5OEOMH57RM53Z4H1WP0","","848.7999999523163","img/animal3.png","76","849.5","3","1","3","1,0.5,0,0,1,0.5,0.5,0,1",""
"","html-keyboard-response","159","109404","0.0-159.0","3ZSY5X72NYXKH2TTUDP8ZPMG7N4ROR","A3L0DCUXI7X3A9","3H6W48L9F4B5OEOMH57RM53Z4H1WP0","","null","<img src=""img/animal3.png"" style=""width:200px; border:14px solid green;"">","null","","","","","",""
"","image-keyboard-response","160","109756","0.0-160.0","3ZSY5X72NYXKH2TTUDP8ZPMG7N4ROR","A3L0DCUXI7X3A9","3H6W48L9F4B5OEOMH57RM53Z4H1WP0","","351.89999997615814","img/animal3.png","76","352.3000000715256","3","1","3","1,0.5,0,0,1,0.5,0.5,0,1",""
"","html-keyboard-response","161","110058","0.0-161.0","3ZSY5X72NYXKH2TTUDP8ZPMG7N4ROR","A3L0DCUXI7X3A9","3H6W48L9F4B5OEOMH57RM53Z4H1WP0","","null","<img src=""img/animal3.png"" style=""width:200px; border:14px solid green;"">","null","","","","","",""
"","image-keyboard-response","162","110509","0.0-162.0","3ZSY5X72NYXKH2TTUDP8ZPMG7N4ROR","A3L0DCUXI7X3A9","3H6W48L9F4B5OEOMH57RM53Z4H1WP0","","449.2999999523163","img/animal3.png","76","450.2999999523163","3","1","3","1,0.5,0,0,1,0.5,0.5,0,1",""
"","html-keyboard-response","163","110811","0.0-163.0","3ZSY5X72NYXKH2TTUDP8ZPMG7N4ROR","A3L0DCUXI7X3A9","3H6W48L9F4B5OEOMH57RM53Z4H1WP0","","null","<img src=""img/animal3.png"" style=""width:200px; border:14px solid green;"">","null","","","","","",""
"","image-keyboard-response","164","111437","0.0-164.0","3ZSY5X72NYXKH2TTUDP8ZPMG7N4ROR","A3L0DCUXI7X3A9","3H6W48L9F4B5OEOMH57RM53Z4H1WP0","","625.1000000238419","img/animal6.png","75","625.8999999761581","2","1","2","1,0.5,0,0,1,0.5,0.5,0,1",""
"","html-keyboard-response","165","111739","0.0-165.0","3ZSY5X72NYXKH2TTUDP8ZPMG7N4ROR","A3L0DCUXI7X3A9","3H6W48L9F4B5OEOMH57RM53Z4H1WP0","","null","<img src=""img/animal6.png"" style=""width:200px; border:14px solid green;"">","null","","","","","",""
"","image-keyboard-response","166","112109","0.0-166.0","3ZSY5X72NYXKH2TTUDP8ZPMG7N4ROR","A3L0DCUXI7X3A9","3H6W48L9F4B5OEOMH57RM53Z4H1WP0","","368.6999999284744","img/animal6.png","75","369.90000009536743","2","1","2","1,0.5,0,0,1,0.5,0.5,0,1",""
"","html-keyboard-response","167","112412","0.0-167.0","3ZSY5X72NYXKH2TTUDP8ZPMG7N4ROR","A3L0DCUXI7X3A9","3H6W48L9F4B5OEOMH57RM53Z4H1WP0","","null","<img src=""img/animal6.png"" style=""width:200px; border:14px solid green;"">","null","","","","","",""
"","image-keyboard-response","168","113085","0.0-168.0","3ZSY5X72NYXKH2TTUDP8ZPMG7N4ROR","A3L0DCUXI7X3A9","3H6W48L9F4B5OEOMH57RM53Z4H1WP0","","672.1000000238419","img/animal3.png","76","673.1999999284744","3","1","3","1,0.5,0,0,1,0.5,0.5,0,1",""
"","html-keyboard-response","169","113388","0.0-169.0","3ZSY5X72NYXKH2TTUDP8ZPMG7N4ROR","A3L0DCUXI7X3A9","3H6W48L9F4B5OEOMH57RM53Z4H1WP0","","null","<img src=""img/animal3.png"" style=""width:200px; border:14px solid green;"">","null","","","","","",""
"","image-keyboard-response","170","114061","0.0-170.0","3ZSY5X72NYXKH2TTUDP8ZPMG7N4ROR","A3L0DCUXI7X3A9","3H6W48L9F4B5OEOMH57RM53Z4H1WP0","","671.9000000953674","img/animal6.png","75","673.1000000238419","2","1","2","1,0.5,0,0,1,0.5,0.5,0,1",""
"","html-keyboard-response","171","114364","0.0-171.0","3ZSY5X72NYXKH2TTUDP8ZPMG7N4ROR","A3L0DCUXI7X3A9","3H6W48L9F4B5OEOMH57RM53Z4H1WP0","","null","<img src=""img/animal6.png"" style=""width:200px; border:14px solid green;"">","null","","","","","",""
"","image-keyboard-response","172","115037","0.0-172.0","3ZSY5X72NYXKH2TTUDP8ZPMG7N4ROR","A3L0DCUXI7X3A9","3H6W48L9F4B5OEOMH57RM53Z4H1WP0","","671.9000000953674","img/animal1.png","74","673.1000000238419","1","1","1","1,0.5,0,0,1,0.5,0.5,0,1",""
"","html-keyboard-response","173","115339","0.0-173.0","3ZSY5X72NYXKH2TTUDP8ZPMG7N4ROR","A3L0DCUXI7X3A9","3H6W48L9F4B5OEOMH57RM53Z4H1WP0","","null","<img src=""img/animal1.png"" style=""width:200px; border:14px solid green;"">","null","","","","","",""
"","image-keyboard-response","174","116205","0.0-174.0","3ZSY5X72NYXKH2TTUDP8ZPMG7N4ROR","A3L0DCUXI7X3A9","3H6W48L9F4B5OEOMH57RM53Z4H1WP0","","864.5","img/animal6.png","75","865.2999999523163","2","1","2","1,0.5,0,0,1,0.5,0.5,0,1",""
"","html-keyboard-response","175","116507","0.0-175.0","3ZSY5X72NYXKH2TTUDP8ZPMG7N4ROR","A3L0DCUXI7X3A9","3H6W48L9F4B5OEOMH57RM53Z4H1WP0","","null","<img src=""img/animal6.png"" style=""width:200px; border:14px solid green;"">","null","","","","","",""
"","image-keyboard-response","176","117181","0.0-176.0","3ZSY5X72NYXKH2TTUDP8ZPMG7N4ROR","A3L0DCUXI7X3A9","3H6W48L9F4B5OEOMH57RM53Z4H1WP0","","673.9000000953674","img/animal1.png","74","674.3999999761581","1","1","1","1,0.5,0,0,1,0.5,0.5,0,1",""
"","html-keyboard-response","177","117483","0.0-177.0","3ZSY5X72NYXKH2TTUDP8ZPMG7N4ROR","A3L0DCUXI7X3A9","3H6W48L9F4B5OEOMH57RM53Z4H1WP0","","null","<img src=""img/animal1.png"" style=""width:200px; border:14px solid green;"">","null","","","","","",""
"","image-keyboard-response","178","118573","0.0-178.0","3ZSY5X72NYXKH2TTUDP8ZPMG7N4ROR","A3L0DCUXI7X3A9","3H6W48L9F4B5OEOMH57RM53Z4H1WP0","","1089.8999999761581","img/animal6.png","75","1090.3999999761581","2","1","2","1,0.5,0,0,1,0.5,0.5,0,1",""
"","html-keyboard-response","179","118875","0.0-179.0","3ZSY5X72NYXKH2TTUDP8ZPMG7N4ROR","A3L0DCUXI7X3A9","3H6W48L9F4B5OEOMH57RM53Z4H1WP0","","null","<img src=""img/animal6.png"" style=""width:200px; border:14px solid green;"">","null","","","","","",""
"","image-keyboard-response","180","119693","0.0-180.0","3ZSY5X72NYXKH2TTUDP8ZPMG7N4ROR","A3L0DCUXI7X3A9","3H6W48L9F4B5OEOMH57RM53Z4H1WP0","","817.3000000715256","img/animal1.png","74","818","1","1","1","1,0.5,0,0,1,0.5,0.5,0,1",""
"","html-keyboard-response","181","119995","0.0-181.0","3ZSY5X72NYXKH2TTUDP8ZPMG7N4ROR","A3L0DCUXI7X3A9","3H6W48L9F4B5OEOMH57RM53Z4H1WP0","","null","<img src=""img/animal1.png"" style=""width:200px; border:14px solid green;"">","null","","","","","",""
"","html-keyboard-response","182","127272","0.0-182.0","3ZSY5X72NYXKH2TTUDP8ZPMG7N4ROR","A3L0DCUXI7X3A9","3H6W48L9F4B5OEOMH57RM53Z4H1WP0","","","","","","","","","",""
"","image-keyboard-response","183","128556","0.0-183.0","3ZSY5X72NYXKH2TTUDP8ZPMG7N4ROR","A3L0DCUXI7X3A9","3H6W48L9F4B5OEOMH57RM53Z4H1WP0","","1283","img/animal5.png","74","1283.6000000238419","1","0","3","1,0.5,0,1,0,0.5,0.5,0,1",""
"","html-keyboard-response","184","128859","0.0-184.0","3ZSY5X72NYXKH2TTUDP8ZPMG7N4ROR","A3L0DCUXI7X3A9","3H6W48L9F4B5OEOMH57RM53Z4H1WP0","","null","<img src=""img/animal5.png"" style=""width:200px;border:14px solid red;"">","null","","","","","",""
"","image-keyboard-response","185","129661","0.0-185.0","3ZSY5X72NYXKH2TTUDP8ZPMG7N4ROR","A3L0DCUXI7X3A9","3H6W48L9F4B5OEOMH57RM53Z4H1WP0","","800.8999999761581","img/animal5.png","75","802","2","0","3","1,0.5,0,1,0,0.5,0.5,0,1",""
"","html-keyboard-response","186","129964","0.0-186.0","3ZSY5X72NYXKH2TTUDP8ZPMG7N4ROR","A3L0DCUXI7X3A9","3H6W48L9F4B5OEOMH57RM53Z4H1WP0","","null","<img src=""img/animal5.png"" style=""width:200px;border:14px solid red;"">","null","","","","","",""
"","image-keyboard-response","187","131437","0.0-187.0","3ZSY5X72NYXKH2TTUDP8ZPMG7N4ROR","A3L0DCUXI7X3A9","3H6W48L9F4B5OEOMH57RM53Z4H1WP0","","1471.6000000238419","img/animal4.png","74","1472.9000000953674","1","1","2","1,0.5,0,1,0,0.5,0.5,0,1",""
"","html-keyboard-response","188","131745","0.0-188.0","3ZSY5X72NYXKH2TTUDP8ZPMG7N4ROR","A3L0DCUXI7X3A9","3H6W48L9F4B5OEOMH57RM53Z4H1WP0","","null","<img src=""img/animal4.png"" style=""width:200px; border:14px solid green;"">","null","","","","","",""
"","image-keyboard-response","189","132685","0.0-189.0","3ZSY5X72NYXKH2TTUDP8ZPMG7N4ROR","A3L0DCUXI7X3A9","3H6W48L9F4B5OEOMH57RM53Z4H1WP0","","937.7999999523163","img/animal5.png","76","939.1000000238419","3","1","3","1,0.5,0,1,0,0.5,0.5,0,1",""
"","html-keyboard-response","190","132987","0.0-190.0","3ZSY5X72NYXKH2TTUDP8ZPMG7N4ROR","A3L0DCUXI7X3A9","3H6W48L9F4B5OEOMH57RM53Z4H1WP0","","null","<img src=""img/animal5.png"" style=""width:200px; border:14px solid green;"">","null","","","","","",""
"","image-keyboard-response","191","133757","0.0-191.0","3ZSY5X72NYXKH2TTUDP8ZPMG7N4ROR","A3L0DCUXI7X3A9","3H6W48L9F4B5OEOMH57RM53Z4H1WP0","","768.1000000238419","img/animal4.png","74","769.2999999523163","1","1","2","1,0.5,0,1,0,0.5,0.5,0,1",""
"","html-keyboard-response","192","134060","0.0-192.0","3ZSY5X72NYXKH2TTUDP8ZPMG7N4ROR","A3L0DCUXI7X3A9","3H6W48L9F4B5OEOMH57RM53Z4H1WP0","","null","<img src=""img/animal4.png"" style=""width:200px; border:14px solid green;"">","null","","","","","",""
"","image-keyboard-response","193","134716","0.0-193.0","3ZSY5X72NYXKH2TTUDP8ZPMG7N4ROR","A3L0DCUXI7X3A9","3H6W48L9F4B5OEOMH57RM53Z4H1WP0","","655.7999999523163","img/animal4.png","74","656.5","1","1","2","1,0.5,0,1,0,0.5,0.5,0,1",""
"","html-keyboard-response","194","135025","0.0-194.0","3ZSY5X72NYXKH2TTUDP8ZPMG7N4ROR","A3L0DCUXI7X3A9","3H6W48L9F4B5OEOMH57RM53Z4H1WP0","","null","<img src=""img/animal4.png"" style=""width:200px; border:14px solid green;"">","null","","","","","",""
"","image-keyboard-response","195","135613","0.0-195.0","3ZSY5X72NYXKH2TTUDP8ZPMG7N4ROR","A3L0DCUXI7X3A9","3H6W48L9F4B5OEOMH57RM53Z4H1WP0","","586.3000000715256","img/animal5.png","76","587.2999999523163","3","1","3","1,0.5,0,1,0,0.5,0.5,0,1",""
"","html-keyboard-response","196","135915","0.0-196.0","3ZSY5X72NYXKH2TTUDP8ZPMG7N4ROR","A3L0DCUXI7X3A9","3H6W48L9F4B5OEOMH57RM53Z4H1WP0","","null","<img src=""img/animal5.png"" style=""width:200px; border:14px solid green;"">","null","","","","","",""
"","image-keyboard-response","197","136364","0.0-197.0","3ZSY5X72NYXKH2TTUDP8ZPMG7N4ROR","A3L0DCUXI7X3A9","3H6W48L9F4B5OEOMH57RM53Z4H1WP0","","448","img/animal5.png","76","448.6999999284744","3","1","3","1,0.5,0,1,0,0.5,0.5,0,1",""
"","html-keyboard-response","198","136665","0.0-198.0","3ZSY5X72NYXKH2TTUDP8ZPMG7N4ROR","A3L0DCUXI7X3A9","3H6W48L9F4B5OEOMH57RM53Z4H1WP0","","null","<img src=""img/animal5.png"" style=""width:200px; border:14px solid green;"">","null","","","","","",""
"","image-keyboard-response","199","137340","0.0-199.0","3ZSY5X72NYXKH2TTUDP8ZPMG7N4ROR","A3L0DCUXI7X3A9","3H6W48L9F4B5OEOMH57RM53Z4H1WP0","","673.5","img/animal2.png","75","674.5","2","0","1","1,0.5,0,1,0,0.5,0.5,0,1",""
"","html-keyboard-response","200","137642","0.0-200.0","3ZSY5X72NYXKH2TTUDP8ZPMG7N4ROR","A3L0DCUXI7X3A9","3H6W48L9F4B5OEOMH57RM53Z4H1WP0","","null","<img src=""img/animal2.png"" style=""width:200px;border:14px solid red;"">","null","","","","","",""
"","image-keyboard-response","201","138524","0.0-201.0","3ZSY5X72NYXKH2TTUDP8ZPMG7N4ROR","A3L0DCUXI7X3A9","3H6W48L9F4B5OEOMH57RM53Z4H1WP0","","881.2999999523163","img/animal4.png","74","882.2000000476837","1","1","2","1,0.5,0,1,0,0.5,0.5,0,1",""
"","html-keyboard-response","202","138826","0.0-202.0","3ZSY5X72NYXKH2TTUDP8ZPMG7N4ROR","A3L0DCUXI7X3A9","3H6W48L9F4B5OEOMH57RM53Z4H1WP0","","null","<img src=""img/animal4.png"" style=""width:200px; border:14px solid green;"">","null","","","","","",""
"","image-keyboard-response","203","140605","0.0-203.0","3ZSY5X72NYXKH2TTUDP8ZPMG7N4ROR","A3L0DCUXI7X3A9","3H6W48L9F4B5OEOMH57RM53Z4H1WP0","","1777.6000000238419","img/animal5.png","76","1778.7000000476837","3","1","3","1,0.5,0,1,0,0.5,0.5,0,1",""
"","html-keyboard-response","204","140907","0.0-204.0","3ZSY5X72NYXKH2TTUDP8ZPMG7N4ROR","A3L0DCUXI7X3A9","3H6W48L9F4B5OEOMH57RM53Z4H1WP0","","null","<img src=""img/animal5.png"" style=""width:200px; border:14px solid green;"">","null","","","","","",""
"","image-keyboard-response","205","141725","0.0-205.0","3ZSY5X72NYXKH2TTUDP8ZPMG7N4ROR","A3L0DCUXI7X3A9","3H6W48L9F4B5OEOMH57RM53Z4H1WP0","","817.3999999761581","img/animal2.png","75","818.2000000476837","2","1","1","1,0.5,0,1,0,0.5,0.5,0,1",""
"","html-keyboard-response","206","142028","0.0-206.0","3ZSY5X72NYXKH2TTUDP8ZPMG7N4ROR","A3L0DCUXI7X3A9","3H6W48L9F4B5OEOMH57RM53Z4H1WP0","","null","<img src=""img/animal2.png"" style=""width:200px; border:14px solid green;"">","null","","","","","",""
"","image-keyboard-response","207","144349","0.0-207.0","3ZSY5X72NYXKH2TTUDP8ZPMG7N4ROR","A3L0DCUXI7X3A9","3H6W48L9F4B5OEOMH57RM53Z4H1WP0","","2319.7000000476837","img/animal4.png","74","2320.7999999523163","1","1","2","1,0.5,0,1,0,0.5,0.5,0,1",""
"","html-keyboard-response","208","144651","0.0-208.0","3ZSY5X72NYXKH2TTUDP8ZPMG7N4ROR","A3L0DCUXI7X3A9","3H6W48L9F4B5OEOMH57RM53Z4H1WP0","","null","<img src=""img/animal4.png"" style=""width:200px; border:14px solid green;"">","null","","","","","",""
"","image-keyboard-response","209","145069","0.0-209.0","3ZSY5X72NYXKH2TTUDP8ZPMG7N4ROR","A3L0DCUXI7X3A9","3H6W48L9F4B5OEOMH57RM53Z4H1WP0","","416.10000002384186","img/animal4.png","74","417.39999997615814","1","1","2","1,0.5,0,1,0,0.5,0.5,0,1",""
"","html-keyboard-response","210","145372","0.0-210.0","3ZSY5X72NYXKH2TTUDP8ZPMG7N4ROR","A3L0DCUXI7X3A9","3H6W48L9F4B5OEOMH57RM53Z4H1WP0","","null","<img src=""img/animal4.png"" style=""width:200px; border:14px solid green;"">","null","","","","","",""
"","image-keyboard-response","211","145916","0.0-211.0","3ZSY5X72NYXKH2TTUDP8ZPMG7N4ROR","A3L0DCUXI7X3A9","3H6W48L9F4B5OEOMH57RM53Z4H1WP0","","542.6000000238419","img/animal2.png","75","543.5999999046326","2","0","1","1,0.5,0,1,0,0.5,0.5,0,1",""
"","html-keyboard-response","212","146218","0.0-212.0","3ZSY5X72NYXKH2TTUDP8ZPMG7N4ROR","A3L0DCUXI7X3A9","3H6W48L9F4B5OEOMH57RM53Z4H1WP0","","null","<img src=""img/animal2.png"" style=""width:200px;border:14px solid red;"">","null","","","","","",""
"","image-keyboard-response","213","147020","0.0-213.0","3ZSY5X72NYXKH2TTUDP8ZPMG7N4ROR","A3L0DCUXI7X3A9","3H6W48L9F4B5OEOMH57RM53Z4H1WP0","","800.1000000238419","img/animal5.png","76","801.1000000238419","3","1","3","1,0.5,0,1,0,0.5,0.5,0,1",""
"","html-keyboard-response","214","147322","0.0-214.0","3ZSY5X72NYXKH2TTUDP8ZPMG7N4ROR","A3L0DCUXI7X3A9","3H6W48L9F4B5OEOMH57RM53Z4H1WP0","","null","<img src=""img/animal5.png"" style=""width:200px; border:14px solid green;"">","null","","","","","",""
"","image-keyboard-response","215","148924","0.0-215.0","3ZSY5X72NYXKH2TTUDP8ZPMG7N4ROR","A3L0DCUXI7X3A9","3H6W48L9F4B5OEOMH57RM53Z4H1WP0","","1600.2000000476837","img/animal2.png","75","1601.1999999284744","2","1","1","1,0.5,0,1,0,0.5,0.5,0,1",""
"","html-keyboard-response","216","149227","0.0-216.0","3ZSY5X72NYXKH2TTUDP8ZPMG7N4ROR","A3L0DCUXI7X3A9","3H6W48L9F4B5OEOMH57RM53Z4H1WP0","","null","<img src=""img/animal2.png"" style=""width:200px; border:14px solid green;"">","null","","","","","",""
"","image-keyboard-response","217","150861","0.0-217.0","3ZSY5X72NYXKH2TTUDP8ZPMG7N4ROR","A3L0DCUXI7X3A9","3H6W48L9F4B5OEOMH57RM53Z4H1WP0","","1634.1000000238419","img/animal5.png","76","1634.6999999284744","3","1","3","1,0.5,0,1,0,0.5,0.5,0,1",""
"","html-keyboard-response","218","151164","0.0-218.0","3ZSY5X72NYXKH2TTUDP8ZPMG7N4ROR","A3L0DCUXI7X3A9","3H6W48L9F4B5OEOMH57RM53Z4H1WP0","","null","<img src=""img/animal5.png"" style=""width:200px; border:14px solid green;"">","null","","","","","",""
"","image-keyboard-response","219","151996","0.0-219.0","3ZSY5X72NYXKH2TTUDP8ZPMG7N4ROR","A3L0DCUXI7X3A9","3H6W48L9F4B5OEOMH57RM53Z4H1WP0","","829.2999999523163","img/animal2.png","75","831.8999999761581","2","0","1","1,0.5,0,1,0,0.5,0.5,0,1",""
"","html-keyboard-response","220","152298","0.0-220.0","3ZSY5X72NYXKH2TTUDP8ZPMG7N4ROR","A3L0DCUXI7X3A9","3H6W48L9F4B5OEOMH57RM53Z4H1WP0","","null","<img src=""img/animal2.png"" style=""width:200px;border:14px solid red;"">","null","","","","","",""
"","image-keyboard-response","221","153596","0.0-221.0","3ZSY5X72NYXKH2TTUDP8ZPMG7N4ROR","A3L0DCUXI7X3A9","3H6W48L9F4B5OEOMH57RM53Z4H1WP0","","1296.6999999284744","img/animal5.png","76","1297.7000000476837","3","1","3","1,0.5,0,1,0,0.5,0.5,0,1",""
"","html-keyboard-response","222","153898","0.0-222.0","3ZSY5X72NYXKH2TTUDP8ZPMG7N4ROR","A3L0DCUXI7X3A9","3H6W48L9F4B5OEOMH57RM53Z4H1WP0","","null","<img src=""img/animal5.png"" style=""width:200px; border:14px solid green;"">","null","","","","","",""
"","image-keyboard-response","223","154669","0.0-223.0","3ZSY5X72NYXKH2TTUDP8ZPMG7N4ROR","A3L0DCUXI7X3A9","3H6W48L9F4B5OEOMH57RM53Z4H1WP0","","769.5","img/animal2.png","75","770.7999999523163","2","0","1","1,0.5,0,1,0,0.5,0.5,0,1",""
"","html-keyboard-response","224","154970","0.0-224.0","3ZSY5X72NYXKH2TTUDP8ZPMG7N4ROR","A3L0DCUXI7X3A9","3H6W48L9F4B5OEOMH57RM53Z4H1WP0","","null","<img src=""img/animal2.png"" style=""width:200px;border:14px solid red;"">","null","","","","","",""
"","image-keyboard-response","225","155469","0.0-225.0","3ZSY5X72NYXKH2TTUDP8ZPMG7N4ROR","A3L0DCUXI7X3A9","3H6W48L9F4B5OEOMH57RM53Z4H1WP0","","498.39999997615814","img/animal2.png","75","499","2","1","1","1,0.5,0,1,0,0.5,0.5,0,1",""
"","html-keyboard-response","226","155771","0.0-226.0","3ZSY5X72NYXKH2TTUDP8ZPMG7N4ROR","A3L0DCUXI7X3A9","3H6W48L9F4B5OEOMH57RM53Z4H1WP0","","null","<img src=""img/animal2.png"" style=""width:200px; border:14px solid green;"">","null","","","","","",""
"","image-keyboard-response","227","156253","0.0-227.0","3ZSY5X72NYXKH2TTUDP8ZPMG7N4ROR","A3L0DCUXI7X3A9","3H6W48L9F4B5OEOMH57RM53Z4H1WP0","","480","img/animal2.png","75","481.1999999284744","2","0","1","1,0.5,0,1,0,0.5,0.5,0,1",""
"","html-keyboard-response","228","156555","0.0-228.0","3ZSY5X72NYXKH2TTUDP8ZPMG7N4ROR","A3L0DCUXI7X3A9","3H6W48L9F4B5OEOMH57RM53Z4H1WP0","","null","<img src=""img/animal2.png"" style=""width:200px;border:14px solid red;"">","null","","","","","",""
"","image-keyboard-response","229","157292","0.0-229.0","3ZSY5X72NYXKH2TTUDP8ZPMG7N4ROR","A3L0DCUXI7X3A9","3H6W48L9F4B5OEOMH57RM53Z4H1WP0","","735.6000000238419","img/animal4.png","74","736.6000000238419","1","1","2","1,0.5,0,1,0,0.5,0.5,0,1",""
"","html-keyboard-response","230","157595","0.0-230.0","3ZSY5X72NYXKH2TTUDP8ZPMG7N4ROR","A3L0DCUXI7X3A9","3H6W48L9F4B5OEOMH57RM53Z4H1WP0","","null","<img src=""img/animal4.png"" style=""width:200px; border:14px solid green;"">","null","","","","","",""
"","image-keyboard-response","231","159437","0.0-231.0","3ZSY5X72NYXKH2TTUDP8ZPMG7N4ROR","A3L0DCUXI7X3A9","3H6W48L9F4B5OEOMH57RM53Z4H1WP0","","1841.2000000476837","img/animal2.png","75","1842.5","2","0","1","1,0.5,0,1,0,0.5,0.5,0,1",""
"","html-keyboard-response","232","159740","0.0-232.0","3ZSY5X72NYXKH2TTUDP8ZPMG7N4ROR","A3L0DCUXI7X3A9","3H6W48L9F4B5OEOMH57RM53Z4H1WP0","","null","<img src=""img/animal2.png"" style=""width:200px;border:14px solid red;"">","null","","","","","",""
"","image-keyboard-response","233","160524","0.0-233.0","3ZSY5X72NYXKH2TTUDP8ZPMG7N4ROR","A3L0DCUXI7X3A9","3H6W48L9F4B5OEOMH57RM53Z4H1WP0","","782.2999999523163","img/animal4.png","74","783.3999999761581","1","1","2","1,0.5,0,1,0,0.5,0.5,0,1",""
"","html-keyboard-response","234","160825","0.0-234.0","3ZSY5X72NYXKH2TTUDP8ZPMG7N4ROR","A3L0DCUXI7X3A9","3H6W48L9F4B5OEOMH57RM53Z4H1WP0","","null","<img src=""img/animal4.png"" style=""width:200px; border:14px solid green;"">","null","","","","","",""
"","image-keyboard-response","235","161948","0.0-235.0","3ZSY5X72NYXKH2TTUDP8ZPMG7N4ROR","A3L0DCUXI7X3A9","3H6W48L9F4B5OEOMH57RM53Z4H1WP0","","1121.6000000238419","img/animal5.png","76","1122.6999999284744","3","1","3","1,0.5,0,1,0,0.5,0.5,0,1",""
"","html-keyboard-response","236","162250","0.0-236.0","3ZSY5X72NYXKH2TTUDP8ZPMG7N4ROR","A3L0DCUXI7X3A9","3H6W48L9F4B5OEOMH57RM53Z4H1WP0","","null","<img src=""img/animal5.png"" style=""width:200px; border:14px solid green;"">","null","","","","","",""
"","image-keyboard-response","237","163484","0.0-237.0","3ZSY5X72NYXKH2TTUDP8ZPMG7N4ROR","A3L0DCUXI7X3A9","3H6W48L9F4B5OEOMH57RM53Z4H1WP0","","1232.1999999284744","img/animal4.png","74","1233.2000000476837","1","1","2","1,0.5,0,1,0,0.5,0.5,0,1",""
"","html-keyboard-response","238","163785","0.0-238.0","3ZSY5X72NYXKH2TTUDP8ZPMG7N4ROR","A3L0DCUXI7X3A9","3H6W48L9F4B5OEOMH57RM53Z4H1WP0","","null","<img src=""img/animal4.png"" style=""width:200px; border:14px solid green;"">","null","","","","","",""
"","image-keyboard-response","239","165581","0.0-239.0","3ZSY5X72NYXKH2TTUDP8ZPMG7N4ROR","A3L0DCUXI7X3A9","3H6W48L9F4B5OEOMH57RM53Z4H1WP0","","1795.5","img/animal5.png","76","1796","3","1","3","1,0.5,0,1,0,0.5,0.5,0,1",""
"","html-keyboard-response","240","165883","0.0-240.0","3ZSY5X72NYXKH2TTUDP8ZPMG7N4ROR","A3L0DCUXI7X3A9","3H6W48L9F4B5OEOMH57RM53Z4H1WP0","","null","<img src=""img/animal5.png"" style=""width:200px; border:14px solid green;"">","null","","","","","",""
"","image-keyboard-response","241","166749","0.0-241.0","3ZSY5X72NYXKH2TTUDP8ZPMG7N4ROR","A3L0DCUXI7X3A9","3H6W48L9F4B5OEOMH57RM53Z4H1WP0","","864.5","img/animal2.png","75","865.6000000238419","2","1","1","1,0.5,0,1,0,0.5,0.5,0,1",""
"","html-keyboard-response","242","167051","0.0-242.0","3ZSY5X72NYXKH2TTUDP8ZPMG7N4ROR","A3L0DCUXI7X3A9","3H6W48L9F4B5OEOMH57RM53Z4H1WP0","","null","<img src=""img/animal2.png"" style=""width:200px; border:14px solid green;"">","null","","","","","",""
"","image-keyboard-response","243","167805","0.0-243.0","3ZSY5X72NYXKH2TTUDP8ZPMG7N4ROR","A3L0DCUXI7X3A9","3H6W48L9F4B5OEOMH57RM53Z4H1WP0","","753.3999999761581","img/animal4.png","74","754.1000000238419","1","1","2","1,0.5,0,1,0,0.5,0.5,0,1",""
"","html-keyboard-response","244","168108","0.0-244.0","3ZSY5X72NYXKH2TTUDP8ZPMG7N4ROR","A3L0DCUXI7X3A9","3H6W48L9F4B5OEOMH57RM53Z4H1WP0","","null","<img src=""img/animal4.png"" style=""width:200px; border:14px solid green;"">","null","","","","","",""
"","image-keyboard-response","245","168508","0.0-245.0","3ZSY5X72NYXKH2TTUDP8ZPMG7N4ROR","A3L0DCUXI7X3A9","3H6W48L9F4B5OEOMH57RM53Z4H1WP0","","398.1999999284744","img/animal4.png","74","398.89999997615814","1","1","2","1,0.5,0,1,0,0.5,0.5,0,1",""
"","html-keyboard-response","246","168809","0.0-246.0","3ZSY5X72NYXKH2TTUDP8ZPMG7N4ROR","A3L0DCUXI7X3A9","3H6W48L9F4B5OEOMH57RM53Z4H1WP0","","null","<img src=""img/animal4.png"" style=""width:200px; border:14px solid green;"">","null","","","","","",""
"","image-keyboard-response","247","169199","0.0-247.0","3ZSY5X72NYXKH2TTUDP8ZPMG7N4ROR","A3L0DCUXI7X3A9","3H6W48L9F4B5OEOMH57RM53Z4H1WP0","","388.3000000715256","img/animal4.png","74","389.7999999523163","1","1","2","1,0.5,0,1,0,0.5,0.5,0,1",""
"","html-keyboard-response","248","169502","0.0-248.0","3ZSY5X72NYXKH2TTUDP8ZPMG7N4ROR","A3L0DCUXI7X3A9","3H6W48L9F4B5OEOMH57RM53Z4H1WP0","","null","<img src=""img/animal4.png"" style=""width:200px; border:14px solid green;"">","null","","","","","",""
"","image-keyboard-response","249","170189","0.0-249.0","3ZSY5X72NYXKH2TTUDP8ZPMG7N4ROR","A3L0DCUXI7X3A9","3H6W48L9F4B5OEOMH57RM53Z4H1WP0","","686.5","img/animal2.png","75","687.1000000238419","2","0","1","1,0.5,0,1,0,0.5,0.5,0,1",""
"","html-keyboard-response","250","170492","0.0-250.0","3ZSY5X72NYXKH2TTUDP8ZPMG7N4ROR","A3L0DCUXI7X3A9","3H6W48L9F4B5OEOMH57RM53Z4H1WP0","","null","<img src=""img/animal2.png"" style=""width:200px;border:14px solid red;"">","null","","","","","",""
"","image-keyboard-response","251","171293","0.0-251.0","3ZSY5X72NYXKH2TTUDP8ZPMG7N4ROR","A3L0DCUXI7X3A9","3H6W48L9F4B5OEOMH57RM53Z4H1WP0","","799.2000000476837","img/animal4.png","74","800.5","1","1","2","1,0.5,0,1,0,0.5,0.5,0,1",""
"","html-keyboard-response","252","171595","0.0-252.0","3ZSY5X72NYXKH2TTUDP8ZPMG7N4ROR","A3L0DCUXI7X3A9","3H6W48L9F4B5OEOMH57RM53Z4H1WP0","","null","<img src=""img/animal4.png"" style=""width:200px; border:14px solid green;"">","null","","","","","",""
"","image-keyboard-response","253","172317","0.0-253.0","3ZSY5X72NYXKH2TTUDP8ZPMG7N4ROR","A3L0DCUXI7X3A9","3H6W48L9F4B5OEOMH57RM53Z4H1WP0","","721.2999999523163","img/animal5.png","76","721.8999999761581","3","1","3","1,0.5,0,1,0,0.5,0.5,0,1",""
"","html-keyboard-response","254","172620","0.0-254.0","3ZSY5X72NYXKH2TTUDP8ZPMG7N4ROR","A3L0DCUXI7X3A9","3H6W48L9F4B5OEOMH57RM53Z4H1WP0","","null","<img src=""img/animal5.png"" style=""width:200px; border:14px solid green;"">","null","","","","","",""
"","image-keyboard-response","255","173229","0.0-255.0","3ZSY5X72NYXKH2TTUDP8ZPMG7N4ROR","A3L0DCUXI7X3A9","3H6W48L9F4B5OEOMH57RM53Z4H1WP0","","608.1000000238419","img/animal4.png","74","608.7999999523163","1","1","2","1,0.5,0,1,0,0.5,0.5,0,1",""
"","html-keyboard-response","256","173532","0.0-256.0","3ZSY5X72NYXKH2TTUDP8ZPMG7N4ROR","A3L0DCUXI7X3A9","3H6W48L9F4B5OEOMH57RM53Z4H1WP0","","null","<img src=""img/animal4.png"" style=""width:200px; border:14px solid green;"">","null","","","","","",""
"","image-keyboard-response","257","174173","0.0-257.0","3ZSY5X72NYXKH2TTUDP8ZPMG7N4ROR","A3L0DCUXI7X3A9","3H6W48L9F4B5OEOMH57RM53Z4H1WP0","","639.5","img/animal5.png","76","640.7000000476837","3","1","3","1,0.5,0,1,0,0.5,0.5,0,1",""
"","html-keyboard-response","258","174476","0.0-258.0","3ZSY5X72NYXKH2TTUDP8ZPMG7N4ROR","A3L0DCUXI7X3A9","3H6W48L9F4B5OEOMH57RM53Z4H1WP0","","null","<img src=""img/animal5.png"" style=""width:200px; border:14px solid green;"">","null","","","","","",""
"","image-keyboard-response","259","175115","0.0-259.0","3ZSY5X72NYXKH2TTUDP8ZPMG7N4ROR","A3L0DCUXI7X3A9","3H6W48L9F4B5OEOMH57RM53Z4H1WP0","","638","img/animal4.png","74","639","1","1","2","1,0.5,0,1,0,0.5,0.5,0,1",""
"","html-keyboard-response","260","175416","0.0-260.0","3ZSY5X72NYXKH2TTUDP8ZPMG7N4ROR","A3L0DCUXI7X3A9","3H6W48L9F4B5OEOMH57RM53Z4H1WP0","","null","<img src=""img/animal4.png"" style=""width:200px; border:14px solid green;"">","null","","","","","",""
"","image-keyboard-response","261","175947","0.0-261.0","3ZSY5X72NYXKH2TTUDP8ZPMG7N4ROR","A3L0DCUXI7X3A9","3H6W48L9F4B5OEOMH57RM53Z4H1WP0","","530.1000000238419","img/animal5.png","76","530.8999999761581","3","1","3","1,0.5,0,1,0,0.5,0.5,0,1",""
"","html-keyboard-response","262","176249","0.0-262.0","3ZSY5X72NYXKH2TTUDP8ZPMG7N4ROR","A3L0DCUXI7X3A9","3H6W48L9F4B5OEOMH57RM53Z4H1WP0","","null","<img src=""img/animal5.png"" style=""width:200px; border:14px solid green;"">","null","","","","","",""
"","image-keyboard-response","263","176684","0.0-263.0","3ZSY5X72NYXKH2TTUDP8ZPMG7N4ROR","A3L0DCUXI7X3A9","3H6W48L9F4B5OEOMH57RM53Z4H1WP0","","433.7000000476837","img/animal5.png","76","434.6999999284744","3","1","3","1,0.5,0,1,0,0.5,0.5,0,1",""
"","html-keyboard-response","264","177000","0.0-264.0","3ZSY5X72NYXKH2TTUDP8ZPMG7N4ROR","A3L0DCUXI7X3A9","3H6W48L9F4B5OEOMH57RM53Z4H1WP0","","null","<img src=""img/animal5.png"" style=""width:200px; border:14px solid green;"">","null","","","","","",""
"","image-keyboard-response","265","177740","0.0-265.0","3ZSY5X72NYXKH2TTUDP8ZPMG7N4ROR","A3L0DCUXI7X3A9","3H6W48L9F4B5OEOMH57RM53Z4H1WP0","","738.5","img/animal2.png","75","739.3999999761581","2","1","1","1,0.5,0,1,0,0.5,0.5,0,1",""
"","html-keyboard-response","266","178041","0.0-266.0","3ZSY5X72NYXKH2TTUDP8ZPMG7N4ROR","A3L0DCUXI7X3A9","3H6W48L9F4B5OEOMH57RM53Z4H1WP0","","null","<img src=""img/animal2.png"" style=""width:200px; border:14px solid green;"">","null","","","","","",""
"","image-keyboard-response","267","178780","0.0-267.0","3ZSY5X72NYXKH2TTUDP8ZPMG7N4ROR","A3L0DCUXI7X3A9","3H6W48L9F4B5OEOMH57RM53Z4H1WP0","","737.1000000238419","img/animal4.png","74","738.2000000476837","1","1","2","1,0.5,0,1,0,0.5,0.5,0,1",""
"","html-keyboard-response","268","179082","0.0-268.0","3ZSY5X72NYXKH2TTUDP8ZPMG7N4ROR","A3L0DCUXI7X3A9","3H6W48L9F4B5OEOMH57RM53Z4H1WP0","","null","<img src=""img/animal4.png"" style=""width:200px; border:14px solid green;"">","null","","","","","",""
"","image-keyboard-response","269","180285","0.0-269.0","3ZSY5X72NYXKH2TTUDP8ZPMG7N4ROR","A3L0DCUXI7X3A9","3H6W48L9F4B5OEOMH57RM53Z4H1WP0","","1202.1000000238419","img/animal5.png","76","1203.2999999523163","3","1","3","1,0.5,0,1,0,0.5,0.5,0,1",""
"","html-keyboard-response","270","180589","0.0-270.0","3ZSY5X72NYXKH2TTUDP8ZPMG7N4ROR","A3L0DCUXI7X3A9","3H6W48L9F4B5OEOMH57RM53Z4H1WP0","","null","<img src=""img/animal5.png"" style=""width:200px; border:14px solid green;"">","null","","","","","",""
"","image-keyboard-response","271","181246","0.0-271.0","3ZSY5X72NYXKH2TTUDP8ZPMG7N4ROR","A3L0DCUXI7X3A9","3H6W48L9F4B5OEOMH57RM53Z4H1WP0","","656.5","img/animal2.png","75","657.4000000953674","2","1","1","1,0.5,0,1,0,0.5,0.5,0,1",""
"","html-keyboard-response","272","181554","0.0-272.0","3ZSY5X72NYXKH2TTUDP8ZPMG7N4ROR","A3L0DCUXI7X3A9","3H6W48L9F4B5OEOMH57RM53Z4H1WP0","","null","<img src=""img/animal2.png"" style=""width:200px; border:14px solid green;"">","null","","","","","",""
"","image-keyboard-response","273","183070","0.0-273.0","3ZSY5X72NYXKH2TTUDP8ZPMG7N4ROR","A3L0DCUXI7X3A9","3H6W48L9F4B5OEOMH57RM53Z4H1WP0","","1513.8999999761581","img/animal5.png","76","1515.2000000476837","3","1","3","1,0.5,0,1,0,0.5,0.5,0,1",""
"","html-keyboard-response","274","183371","0.0-274.0","3ZSY5X72NYXKH2TTUDP8ZPMG7N4ROR","A3L0DCUXI7X3A9","3H6W48L9F4B5OEOMH57RM53Z4H1WP0","","null","<img src=""img/animal5.png"" style=""width:200px; border:14px solid green;"">","null","","","","","",""
"","image-keyboard-response","275","184045","0.0-275.0","3ZSY5X72NYXKH2TTUDP8ZPMG7N4ROR","A3L0DCUXI7X3A9","3H6W48L9F4B5OEOMH57RM53Z4H1WP0","","672","img/animal4.png","74","673.3000000715256","1","1","2","1,0.5,0,1,0,0.5,0.5,0,1",""
"","html-keyboard-response","276","184348","0.0-276.0","3ZSY5X72NYXKH2TTUDP8ZPMG7N4ROR","A3L0DCUXI7X3A9","3H6W48L9F4B5OEOMH57RM53Z4H1WP0","","null","<img src=""img/animal4.png"" style=""width:200px; border:14px solid green;"">","null","","","","","",""
"","image-keyboard-response","277","184765","0.0-277.0","3ZSY5X72NYXKH2TTUDP8ZPMG7N4ROR","A3L0DCUXI7X3A9","3H6W48L9F4B5OEOMH57RM53Z4H1WP0","","415.8000000715256","img/animal4.png","74","417.10000002384186","1","1","2","1,0.5,0,1,0,0.5,0.5,0,1",""
"","html-keyboard-response","278","185067","0.0-278.0","3ZSY5X72NYXKH2TTUDP8ZPMG7N4ROR","A3L0DCUXI7X3A9","3H6W48L9F4B5OEOMH57RM53Z4H1WP0","","null","<img src=""img/animal4.png"" style=""width:200px; border:14px solid green;"">","null","","","","","",""
"","image-keyboard-response","279","185437","0.0-279.0","3ZSY5X72NYXKH2TTUDP8ZPMG7N4ROR","A3L0DCUXI7X3A9","3H6W48L9F4B5OEOMH57RM53Z4H1WP0","","369.2000000476837","img/animal4.png","74","369.89999997615814","1","1","2","1,0.5,0,1,0,0.5,0.5,0,1",""
"","html-keyboard-response","280","185739","0.0-280.0","3ZSY5X72NYXKH2TTUDP8ZPMG7N4ROR","A3L0DCUXI7X3A9","3H6W48L9F4B5OEOMH57RM53Z4H1WP0","","null","<img src=""img/animal4.png"" style=""width:200px; border:14px solid green;"">","null","","","","","",""
"","image-keyboard-response","281","186461","0.0-281.0","3ZSY5X72NYXKH2TTUDP8ZPMG7N4ROR","A3L0DCUXI7X3A9","3H6W48L9F4B5OEOMH57RM53Z4H1WP0","","720","img/animal5.png","76","721.2000000476837","3","1","3","1,0.5,0,1,0,0.5,0.5,0,1",""
"","html-keyboard-response","282","186763","0.0-282.0","3ZSY5X72NYXKH2TTUDP8ZPMG7N4ROR","A3L0DCUXI7X3A9","3H6W48L9F4B5OEOMH57RM53Z4H1WP0","","null","<img src=""img/animal5.png"" style=""width:200px; border:14px solid green;"">","null","","","","","",""
"","image-keyboard-response","283","187116","0.0-283.0","3ZSY5X72NYXKH2TTUDP8ZPMG7N4ROR","A3L0DCUXI7X3A9","3H6W48L9F4B5OEOMH57RM53Z4H1WP0","","351.7999999523163","img/animal5.png","76","352.8000000715256","3","1","3","1,0.5,0,1,0,0.5,0.5,0,1",""
"","html-keyboard-response","284","187417","0.0-284.0","3ZSY5X72NYXKH2TTUDP8ZPMG7N4ROR","A3L0DCUXI7X3A9","3H6W48L9F4B5OEOMH57RM53Z4H1WP0","","null","<img src=""img/animal5.png"" style=""width:200px; border:14px solid green;"">","null","","","","","",""
"","image-keyboard-response","285","187805","0.0-285.0","3ZSY5X72NYXKH2TTUDP8ZPMG7N4ROR","A3L0DCUXI7X3A9","3H6W48L9F4B5OEOMH57RM53Z4H1WP0","","386.2999999523163","img/animal5.png","76","387.59999990463257","3","1","3","1,0.5,0,1,0,0.5,0.5,0,1",""
"","html-keyboard-response","286","188107","0.0-286.0","3ZSY5X72NYXKH2TTUDP8ZPMG7N4ROR","A3L0DCUXI7X3A9","3H6W48L9F4B5OEOMH57RM53Z4H1WP0","","null","<img src=""img/animal5.png"" style=""width:200px; border:14px solid green;"">","null","","","","","",""
"","image-keyboard-response","287","188477","0.0-287.0","3ZSY5X72NYXKH2TTUDP8ZPMG7N4ROR","A3L0DCUXI7X3A9","3H6W48L9F4B5OEOMH57RM53Z4H1WP0","","368","img/animal5.png","76","369.1999999284744","3","1","3","1,0.5,0,1,0,0.5,0.5,0,1",""
"","html-keyboard-response","288","188780","0.0-288.0","3ZSY5X72NYXKH2TTUDP8ZPMG7N4ROR","A3L0DCUXI7X3A9","3H6W48L9F4B5OEOMH57RM53Z4H1WP0","","null","<img src=""img/animal5.png"" style=""width:200px; border:14px solid green;"">","null","","","","","",""
"","image-keyboard-response","289","189469","0.0-289.0","3ZSY5X72NYXKH2TTUDP8ZPMG7N4ROR","A3L0DCUXI7X3A9","3H6W48L9F4B5OEOMH57RM53Z4H1WP0","","688.2999999523163","img/animal2.png","75","689.6000000238419","2","1","1","1,0.5,0,1,0,0.5,0.5,0,1",""
"","html-keyboard-response","290","189771","0.0-290.0","3ZSY5X72NYXKH2TTUDP8ZPMG7N4ROR","A3L0DCUXI7X3A9","3H6W48L9F4B5OEOMH57RM53Z4H1WP0","","null","<img src=""img/animal2.png"" style=""width:200px; border:14px solid green;"">","null","","","","","",""
"","image-keyboard-response","291","190556","0.0-291.0","3ZSY5X72NYXKH2TTUDP8ZPMG7N4ROR","A3L0DCUXI7X3A9","3H6W48L9F4B5OEOMH57RM53Z4H1WP0","","784.1000000238419","img/animal5.png","76","784.7000000476837","3","1","3","1,0.5,0,1,0,0.5,0.5,0,1",""
"","html-keyboard-response","292","190858","0.0-292.0","3ZSY5X72NYXKH2TTUDP8ZPMG7N4ROR","A3L0DCUXI7X3A9","3H6W48L9F4B5OEOMH57RM53Z4H1WP0","","null","<img src=""img/animal5.png"" style=""width:200px; border:14px solid green;"">","null","","","","","",""
"","image-keyboard-response","293","191212","0.0-293.0","3ZSY5X72NYXKH2TTUDP8ZPMG7N4ROR","A3L0DCUXI7X3A9","3H6W48L9F4B5OEOMH57RM53Z4H1WP0","","352.2999999523163","img/animal5.png","76","353.5","3","1","3","1,0.5,0,1,0,0.5,0.5,0,1",""
"","html-keyboard-response","294","191514","0.0-294.0","3ZSY5X72NYXKH2TTUDP8ZPMG7N4ROR","A3L0DCUXI7X3A9","3H6W48L9F4B5OEOMH57RM53Z4H1WP0","","null","<img src=""img/animal5.png"" style=""width:200px; border:14px solid green;"">","null","","","","","",""
"","image-keyboard-response","295","191902","0.0-295.0","3ZSY5X72NYXKH2TTUDP8ZPMG7N4ROR","A3L0DCUXI7X3A9","3H6W48L9F4B5OEOMH57RM53Z4H1WP0","","386.39999997615814","img/animal5.png","76","387.39999997615814","3","1","3","1,0.5,0,1,0,0.5,0.5,0,1",""
"","html-keyboard-response","296","192203","0.0-296.0","3ZSY5X72NYXKH2TTUDP8ZPMG7N4ROR","A3L0DCUXI7X3A9","3H6W48L9F4B5OEOMH57RM53Z4H1WP0","","null","<img src=""img/animal5.png"" style=""width:200px; border:14px solid green;"">","null","","","","","",""
"","image-keyboard-response","297","192604","0.0-297.0","3ZSY5X72NYXKH2TTUDP8ZPMG7N4ROR","A3L0DCUXI7X3A9","3H6W48L9F4B5OEOMH57RM53Z4H1WP0","","400.39999997615814","img/animal5.png","76","400.8000000715256","3","1","3","1,0.5,0,1,0,0.5,0.5,0,1",""
"","html-keyboard-response","298","192906","0.0-298.0","3ZSY5X72NYXKH2TTUDP8ZPMG7N4ROR","A3L0DCUXI7X3A9","3H6W48L9F4B5OEOMH57RM53Z4H1WP0","","null","<img src=""img/animal5.png"" style=""width:200px; border:14px solid green;"">","null","","","","","",""
"","image-keyboard-response","299","193678","0.0-299.0","3ZSY5X72NYXKH2TTUDP8ZPMG7N4ROR","A3L0DCUXI7X3A9","3H6W48L9F4B5OEOMH57RM53Z4H1WP0","","770.1000000238419","img/animal4.png","74","771.3999999761581","1","1","2","1,0.5,0,1,0,0.5,0.5,0,1",""
"","html-keyboard-response","300","193980","0.0-300.0","3ZSY5X72NYXKH2TTUDP8ZPMG7N4ROR","A3L0DCUXI7X3A9","3H6W48L9F4B5OEOMH57RM53Z4H1WP0","","null","<img src=""img/animal4.png"" style=""width:200px; border:14px solid green;"">","null","","","","","",""
"","image-keyboard-response","301","194382","0.0-301.0","3ZSY5X72NYXKH2TTUDP8ZPMG7N4ROR","A3L0DCUXI7X3A9","3H6W48L9F4B5OEOMH57RM53Z4H1WP0","","400.2999999523163","img/animal4.png","74","401.5","1","1","2","1,0.5,0,1,0,0.5,0.5,0,1",""
"","html-keyboard-response","302","194684","0.0-302.0","3ZSY5X72NYXKH2TTUDP8ZPMG7N4ROR","A3L0DCUXI7X3A9","3H6W48L9F4B5OEOMH57RM53Z4H1WP0","","null","<img src=""img/animal4.png"" style=""width:200px; border:14px solid green;"">","null","","","","","",""
"","image-keyboard-response","303","195342","0.0-303.0","3ZSY5X72NYXKH2TTUDP8ZPMG7N4ROR","A3L0DCUXI7X3A9","3H6W48L9F4B5OEOMH57RM53Z4H1WP0","","657.1999999284744","img/animal2.png","75","658.5","2","0","1","1,0.5,0,1,0,0.5,0.5,0,1",""
"","html-keyboard-response","304","195651","0.0-304.0","3ZSY5X72NYXKH2TTUDP8ZPMG7N4ROR","A3L0DCUXI7X3A9","3H6W48L9F4B5OEOMH57RM53Z4H1WP0","","null","<img src=""img/animal2.png"" style=""width:200px;border:14px solid red;"">","null","","","","","",""
"","image-keyboard-response","305","196109","0.0-305.0","3ZSY5X72NYXKH2TTUDP8ZPMG7N4ROR","A3L0DCUXI7X3A9","3H6W48L9F4B5OEOMH57RM53Z4H1WP0","","456.7999999523163","img/animal2.png","75","457.6999999284744","2","0","1","1,0.5,0,1,0,0.5,0.5,0,1",""
"","html-keyboard-response","306","196412","0.0-306.0","3ZSY5X72NYXKH2TTUDP8ZPMG7N4ROR","A3L0DCUXI7X3A9","3H6W48L9F4B5OEOMH57RM53Z4H1WP0","","null","<img src=""img/animal2.png"" style=""width:200px;border:14px solid red;"">","null","","","","","",""
"","image-keyboard-response","307","197262","0.0-307.0","3ZSY5X72NYXKH2TTUDP8ZPMG7N4ROR","A3L0DCUXI7X3A9","3H6W48L9F4B5OEOMH57RM53Z4H1WP0","","848.8999999761581","img/animal5.png","76","849.6999999284744","3","1","3","1,0.5,0,1,0,0.5,0.5,0,1",""
"","html-keyboard-response","308","197565","0.0-308.0","3ZSY5X72NYXKH2TTUDP8ZPMG7N4ROR","A3L0DCUXI7X3A9","3H6W48L9F4B5OEOMH57RM53Z4H1WP0","","null","<img src=""img/animal5.png"" style=""width:200px; border:14px solid green;"">","null","","","","","",""
"","image-keyboard-response","309","197948","0.0-309.0","3ZSY5X72NYXKH2TTUDP8ZPMG7N4ROR","A3L0DCUXI7X3A9","3H6W48L9F4B5OEOMH57RM53Z4H1WP0","","382","img/animal5.png","76","382.5","3","1","3","1,0.5,0,1,0,0.5,0.5,0,1",""
"","html-keyboard-response","310","198249","0.0-310.0","3ZSY5X72NYXKH2TTUDP8ZPMG7N4ROR","A3L0DCUXI7X3A9","3H6W48L9F4B5OEOMH57RM53Z4H1WP0","","null","<img src=""img/animal5.png"" style=""width:200px; border:14px solid green;"">","null","","","","","",""
"","image-keyboard-response","311","198878","0.0-311.0","3ZSY5X72NYXKH2TTUDP8ZPMG7N4ROR","A3L0DCUXI7X3A9","3H6W48L9F4B5OEOMH57RM53Z4H1WP0","","627.7000000476837","img/animal2.png","75","628.6000000238419","2","0","1","1,0.5,0,1,0,0.5,0.5,0,1",""
"","html-keyboard-response","312","199181","0.0-312.0","3ZSY5X72NYXKH2TTUDP8ZPMG7N4ROR","A3L0DCUXI7X3A9","3H6W48L9F4B5OEOMH57RM53Z4H1WP0","","null","<img src=""img/animal2.png"" style=""width:200px;border:14px solid red;"">","null","","","","","",""
"","image-keyboard-response","313","199886","0.0-313.0","3ZSY5X72NYXKH2TTUDP8ZPMG7N4ROR","A3L0DCUXI7X3A9","3H6W48L9F4B5OEOMH57RM53Z4H1WP0","","703.7000000476837","img/animal4.png","74","705","1","1","2","1,0.5,0,1,0,0.5,0.5,0,1",""
"","html-keyboard-response","314","200189","0.0-314.0","3ZSY5X72NYXKH2TTUDP8ZPMG7N4ROR","A3L0DCUXI7X3A9","3H6W48L9F4B5OEOMH57RM53Z4H1WP0","","null","<img src=""img/animal4.png"" style=""width:200px; border:14px solid green;"">","null","","","","","",""
"","image-keyboard-response","315","200573","0.0-315.0","3ZSY5X72NYXKH2TTUDP8ZPMG7N4ROR","A3L0DCUXI7X3A9","3H6W48L9F4B5OEOMH57RM53Z4H1WP0","","383.2000000476837","img/animal4.png","74","384.39999997615814","1","1","2","1,0.5,0,1,0,0.5,0.5,0,1",""
"","html-keyboard-response","316","200876","0.0-316.0","3ZSY5X72NYXKH2TTUDP8ZPMG7N4ROR","A3L0DCUXI7X3A9","3H6W48L9F4B5OEOMH57RM53Z4H1WP0","","null","<img src=""img/animal4.png"" style=""width:200px; border:14px solid green;"">","null","","","","","",""
"","image-keyboard-response","317","201613","0.0-317.0","3ZSY5X72NYXKH2TTUDP8ZPMG7N4ROR","A3L0DCUXI7X3A9","3H6W48L9F4B5OEOMH57RM53Z4H1WP0","","735.7999999523163","img/animal2.png","75","737.2000000476837","2","0","1","1,0.5,0,1,0,0.5,0.5,0,1",""
"","html-keyboard-response","318","201916","0.0-318.0","3ZSY5X72NYXKH2TTUDP8ZPMG7N4ROR","A3L0DCUXI7X3A9","3H6W48L9F4B5OEOMH57RM53Z4H1WP0","","null","<img src=""img/animal2.png"" style=""width:200px;border:14px solid red;"">","null","","","","","",""
"","image-keyboard-response","319","202941","0.0-319.0","3ZSY5X72NYXKH2TTUDP8ZPMG7N4ROR","A3L0DCUXI7X3A9","3H6W48L9F4B5OEOMH57RM53Z4H1WP0","","1024","img/animal4.png","74","1025.3000000715256","1","1","2","1,0.5,0,1,0,0.5,0.5,0,1",""
"","html-keyboard-response","320","203245","0.0-320.0","3ZSY5X72NYXKH2TTUDP8ZPMG7N4ROR","A3L0DCUXI7X3A9","3H6W48L9F4B5OEOMH57RM53Z4H1WP0","","null","<img src=""img/animal4.png"" style=""width:200px; border:14px solid green;"">","null","","","","","",""
"","image-keyboard-response","321","203918","0.0-321.0","3ZSY5X72NYXKH2TTUDP8ZPMG7N4ROR","A3L0DCUXI7X3A9","3H6W48L9F4B5OEOMH57RM53Z4H1WP0","","672.2999999523163","img/animal2.png","75","673.1000000238419","2","0","1","1,0.5,0,1,0,0.5,0.5,0,1",""
"","html-keyboard-response","322","204220","0.0-322.0","3ZSY5X72NYXKH2TTUDP8ZPMG7N4ROR","A3L0DCUXI7X3A9","3H6W48L9F4B5OEOMH57RM53Z4H1WP0","","null","<img src=""img/animal2.png"" style=""width:200px;border:14px solid red;"">","null","","","","","",""
"","image-keyboard-response","323","204590","0.0-323.0","3ZSY5X72NYXKH2TTUDP8ZPMG7N4ROR","A3L0DCUXI7X3A9","3H6W48L9F4B5OEOMH57RM53Z4H1WP0","","369.5","img/animal2.png","75","370","2","0","1","1,0.5,0,1,0,0.5,0.5,0,1",""
"","html-keyboard-response","324","204893","0.0-324.0","3ZSY5X72NYXKH2TTUDP8ZPMG7N4ROR","A3L0DCUXI7X3A9","3H6W48L9F4B5OEOMH57RM53Z4H1WP0","","null","<img src=""img/animal2.png"" style=""width:200px;border:14px solid red;"">","null","","","","","",""
"","image-keyboard-response","325","205500","0.0-325.0","3ZSY5X72NYXKH2TTUDP8ZPMG7N4ROR","A3L0DCUXI7X3A9","3H6W48L9F4B5OEOMH57RM53Z4H1WP0","","606","img/animal2.png","75","607.1000000238419","2","0","1","1,0.5,0,1,0,0.5,0.5,0,1",""
"","html-keyboard-response","326","205802","0.0-326.0","3ZSY5X72NYXKH2TTUDP8ZPMG7N4ROR","A3L0DCUXI7X3A9","3H6W48L9F4B5OEOMH57RM53Z4H1WP0","","null","<img src=""img/animal2.png"" style=""width:200px;border:14px solid red;"">","null","","","","","",""
"","image-keyboard-response","327","207100","0.0-327.0","3ZSY5X72NYXKH2TTUDP8ZPMG7N4ROR","A3L0DCUXI7X3A9","3H6W48L9F4B5OEOMH57RM53Z4H1WP0","","1296.5","img/animal2.png","76","1297.5","3","0","1","1,0.5,0,1,0,0.5,0.5,0,1",""
"","html-keyboard-response","328","207401","0.0-328.0","3ZSY5X72NYXKH2TTUDP8ZPMG7N4ROR","A3L0DCUXI7X3A9","3H6W48L9F4B5OEOMH57RM53Z4H1WP0","","null","<img src=""img/animal2.png"" style=""width:200px;border:14px solid red;"">","null","","","","","",""
"","image-keyboard-response","329","208125","0.0-329.0","3ZSY5X72NYXKH2TTUDP8ZPMG7N4ROR","A3L0DCUXI7X3A9","3H6W48L9F4B5OEOMH57RM53Z4H1WP0","","722.8999999761581","img/animal2.png","74","723.7999999523163","1","1","1","1,0.5,0,1,0,0.5,0.5,0,1",""
"","html-keyboard-response","330","208427","0.0-330.0","3ZSY5X72NYXKH2TTUDP8ZPMG7N4ROR","A3L0DCUXI7X3A9","3H6W48L9F4B5OEOMH57RM53Z4H1WP0","","null","<img src=""img/animal2.png"" style=""width:200px; border:14px solid green;"">","null","","","","","",""
"","image-keyboard-response","331","210157","0.0-331.0","3ZSY5X72NYXKH2TTUDP8ZPMG7N4ROR","A3L0DCUXI7X3A9","3H6W48L9F4B5OEOMH57RM53Z4H1WP0","","1729.9000000953674","img/animal2.png","74","1730.7000000476837","1","1","1","1,0.5,0,1,0,0.5,0.5,0,1",""
"","html-keyboard-response","332","210461","0.0-332.0","3ZSY5X72NYXKH2TTUDP8ZPMG7N4ROR","A3L0DCUXI7X3A9","3H6W48L9F4B5OEOMH57RM53Z4H1WP0","","null","<img src=""img/animal2.png"" style=""width:200px; border:14px solid green;"">","null","","","","","",""
"","image-keyboard-response","333","210797","0.0-333.0","3ZSY5X72NYXKH2TTUDP8ZPMG7N4ROR","A3L0DCUXI7X3A9","3H6W48L9F4B5OEOMH57RM53Z4H1WP0","","335","img/animal2.png","74","335.60000002384186","1","1","1","1,0.5,0,1,0,0.5,0.5,0,1",""
"","html-keyboard-response","334","211098","0.0-334.0","3ZSY5X72NYXKH2TTUDP8ZPMG7N4ROR","A3L0DCUXI7X3A9","3H6W48L9F4B5OEOMH57RM53Z4H1WP0","","null","<img src=""img/animal2.png"" style=""width:200px; border:14px solid green;"">","null","","","","","",""
"","image-keyboard-response","335","211469","0.0-335.0","3ZSY5X72NYXKH2TTUDP8ZPMG7N4ROR","A3L0DCUXI7X3A9","3H6W48L9F4B5OEOMH57RM53Z4H1WP0","","369.7000000476837","img/animal2.png","74","371","1","1","1","1,0.5,0,1,0,0.5,0.5,0,1",""
"","html-keyboard-response","336","211772","0.0-336.0","3ZSY5X72NYXKH2TTUDP8ZPMG7N4ROR","A3L0DCUXI7X3A9","3H6W48L9F4B5OEOMH57RM53Z4H1WP0","","null","<img src=""img/animal2.png"" style=""width:200px; border:14px solid green;"">","null","","","","","",""
"","image-keyboard-response","337","212140","0.0-337.0","3ZSY5X72NYXKH2TTUDP8ZPMG7N4ROR","A3L0DCUXI7X3A9","3H6W48L9F4B5OEOMH57RM53Z4H1WP0","","367.39999997615814","img/animal2.png","74","368.3000000715256","1","1","1","1,0.5,0,1,0,0.5,0.5,0,1",""
"","html-keyboard-response","338","212442","0.0-338.0","3ZSY5X72NYXKH2TTUDP8ZPMG7N4ROR","A3L0DCUXI7X3A9","3H6W48L9F4B5OEOMH57RM53Z4H1WP0","","null","<img src=""img/animal2.png"" style=""width:200px; border:14px solid green;"">","null","","","","","",""
"","image-keyboard-response","339","212796","0.0-339.0","3ZSY5X72NYXKH2TTUDP8ZPMG7N4ROR","A3L0DCUXI7X3A9","3H6W48L9F4B5OEOMH57RM53Z4H1WP0","","352.60000002384186","img/animal2.png","74","353.7000000476837","1","1","1","1,0.5,0,1,0,0.5,0.5,0,1",""
"","html-keyboard-response","340","213097","0.0-340.0","3ZSY5X72NYXKH2TTUDP8ZPMG7N4ROR","A3L0DCUXI7X3A9","3H6W48L9F4B5OEOMH57RM53Z4H1WP0","","null","<img src=""img/animal2.png"" style=""width:200px; border:14px solid green;"">","null","","","","","",""
"","image-keyboard-response","341","213869","0.0-341.0","3ZSY5X72NYXKH2TTUDP8ZPMG7N4ROR","A3L0DCUXI7X3A9","3H6W48L9F4B5OEOMH57RM53Z4H1WP0","","770.5","img/animal4.png","74","772","1","1","2","1,0.5,0,1,0,0.5,0.5,0,1",""
"","html-keyboard-response","342","214172","0.0-342.0","3ZSY5X72NYXKH2TTUDP8ZPMG7N4ROR","A3L0DCUXI7X3A9","3H6W48L9F4B5OEOMH57RM53Z4H1WP0","","null","<img src=""img/animal4.png"" style=""width:200px; border:14px solid green;"">","null","","","","","",""
"","image-keyboard-response","343","214572","0.0-343.0","3ZSY5X72NYXKH2TTUDP8ZPMG7N4ROR","A3L0DCUXI7X3A9","3H6W48L9F4B5OEOMH57RM53Z4H1WP0","","398.7000000476837","img/animal4.png","74","399.6999999284744","1","1","2","1,0.5,0,1,0,0.5,0.5,0,1",""
"","html-keyboard-response","344","214874","0.0-344.0","3ZSY5X72NYXKH2TTUDP8ZPMG7N4ROR","A3L0DCUXI7X3A9","3H6W48L9F4B5OEOMH57RM53Z4H1WP0","","null","<img src=""img/animal4.png"" style=""width:200px; border:14px solid green;"">","null","","","","","",""
"","image-keyboard-response","345","215262","0.0-345.0","3ZSY5X72NYXKH2TTUDP8ZPMG7N4ROR","A3L0DCUXI7X3A9","3H6W48L9F4B5OEOMH57RM53Z4H1WP0","","386.89999997615814","img/animal4.png","74","388.10000002384186","1","1","2","1,0.5,0,1,0,0.5,0.5,0,1",""
"","html-keyboard-response","346","215566","0.0-346.0","3ZSY5X72NYXKH2TTUDP8ZPMG7N4ROR","A3L0DCUXI7X3A9","3H6W48L9F4B5OEOMH57RM53Z4H1WP0","","null","<img src=""img/animal4.png"" style=""width:200px; border:14px solid green;"">","null","","","","","",""
"","image-keyboard-response","347","216332","0.0-347.0","3ZSY5X72NYXKH2TTUDP8ZPMG7N4ROR","A3L0DCUXI7X3A9","3H6W48L9F4B5OEOMH57RM53Z4H1WP0","","766.1000000238419","img/animal5.png","76","766.5","3","1","3","1,0.5,0,1,0,0.5,0.5,0,1",""
"","html-keyboard-response","348","216645","0.0-348.0","3ZSY5X72NYXKH2TTUDP8ZPMG7N4ROR","A3L0DCUXI7X3A9","3H6W48L9F4B5OEOMH57RM53Z4H1WP0","","null","<img src=""img/animal5.png"" style=""width:200px; border:14px solid green;"">","null","","","","","",""
"","image-keyboard-response","349","217470","0.0-349.0","3ZSY5X72NYXKH2TTUDP8ZPMG7N4ROR","A3L0DCUXI7X3A9","3H6W48L9F4B5OEOMH57RM53Z4H1WP0","","824.6000000238419","img/animal2.png","74","825.2000000476837","1","1","1","1,0.5,0,1,0,0.5,0.5,0,1",""
"","html-keyboard-response","350","217773","0.0-350.0","3ZSY5X72NYXKH2TTUDP8ZPMG7N4ROR","A3L0DCUXI7X3A9","3H6W48L9F4B5OEOMH57RM53Z4H1WP0","","null","<img src=""img/animal2.png"" style=""width:200px; border:14px solid green;"">","null","","","","","",""
"","image-keyboard-response","351","218605","0.0-351.0","3ZSY5X72NYXKH2TTUDP8ZPMG7N4ROR","A3L0DCUXI7X3A9","3H6W48L9F4B5OEOMH57RM53Z4H1WP0","","830.8999999761581","img/animal4.png","74","832.2000000476837","1","1","2","1,0.5,0,1,0,0.5,0.5,0,1",""
"","html-keyboard-response","352","218908","0.0-352.0","3ZSY5X72NYXKH2TTUDP8ZPMG7N4ROR","A3L0DCUXI7X3A9","3H6W48L9F4B5OEOMH57RM53Z4H1WP0","","null","<img src=""img/animal4.png"" style=""width:200px; border:14px solid green;"">","null","","","","","",""
"","image-keyboard-response","353","219773","0.0-353.0","3ZSY5X72NYXKH2TTUDP8ZPMG7N4ROR","A3L0DCUXI7X3A9","3H6W48L9F4B5OEOMH57RM53Z4H1WP0","","863.3999999761581","img/animal5.png","76","864.6999999284744","3","1","3","1,0.5,0,1,0,0.5,0.5,0,1",""
"","html-keyboard-response","354","220075","0.0-354.0","3ZSY5X72NYXKH2TTUDP8ZPMG7N4ROR","A3L0DCUXI7X3A9","3H6W48L9F4B5OEOMH57RM53Z4H1WP0","","null","<img src=""img/animal5.png"" style=""width:200px; border:14px solid green;"">","null","","","","","",""
"","image-keyboard-response","355","220765","0.0-355.0","3ZSY5X72NYXKH2TTUDP8ZPMG7N4ROR","A3L0DCUXI7X3A9","3H6W48L9F4B5OEOMH57RM53Z4H1WP0","","688.8999999761581","img/animal4.png","74","690","1","1","2","1,0.5,0,1,0,0.5,0.5,0,1",""
"","html-keyboard-response","356","221068","0.0-356.0","3ZSY5X72NYXKH2TTUDP8ZPMG7N4ROR","A3L0DCUXI7X3A9","3H6W48L9F4B5OEOMH57RM53Z4H1WP0","","null","<img src=""img/animal4.png"" style=""width:200px; border:14px solid green;"">","null","","","","","",""
"","image-keyboard-response","357","222157","0.0-357.0","3ZSY5X72NYXKH2TTUDP8ZPMG7N4ROR","A3L0DCUXI7X3A9","3H6W48L9F4B5OEOMH57RM53Z4H1WP0","","1087.2000000476837","img/animal5.png","76","1088.6000000238419","3","1","3","1,0.5,0,1,0,0.5,0.5,0,1",""
"","html-keyboard-response","358","222460","0.0-358.0","3ZSY5X72NYXKH2TTUDP8ZPMG7N4ROR","A3L0DCUXI7X3A9","3H6W48L9F4B5OEOMH57RM53Z4H1WP0","","null","<img src=""img/animal5.png"" style=""width:200px; border:14px solid green;"">","null","","","","","",""
"","image-keyboard-response","359","223277","0.0-359.0","3ZSY5X72NYXKH2TTUDP8ZPMG7N4ROR","A3L0DCUXI7X3A9","3H6W48L9F4B5OEOMH57RM53Z4H1WP0","","816.0999999046326","img/animal2.png","74","817.5999999046326","1","1","1","1,0.5,0,1,0,0.5,0.5,0,1",""
"","html-keyboard-response","360","223580","0.0-360.0","3ZSY5X72NYXKH2TTUDP8ZPMG7N4ROR","A3L0DCUXI7X3A9","3H6W48L9F4B5OEOMH57RM53Z4H1WP0","","null","<img src=""img/animal2.png"" style=""width:200px; border:14px solid green;"">","null","","","","","",""
"","image-keyboard-response","361","224269","0.0-361.0","3ZSY5X72NYXKH2TTUDP8ZPMG7N4ROR","A3L0DCUXI7X3A9","3H6W48L9F4B5OEOMH57RM53Z4H1WP0","","687.9000000953674","img/animal4.png","74","689.2000000476837","1","1","2","1,0.5,0,1,0,0.5,0.5,0,1",""
"","html-keyboard-response","362","224572","0.0-362.0","3ZSY5X72NYXKH2TTUDP8ZPMG7N4ROR","A3L0DCUXI7X3A9","3H6W48L9F4B5OEOMH57RM53Z4H1WP0","","null","<img src=""img/animal4.png"" style=""width:200px; border:14px solid green;"">","null","","","","","",""
"","instructions","363","228481","0.0-363.0","3ZSY5X72NYXKH2TTUDP8ZPMG7N4ROR","A3L0DCUXI7X3A9","3H6W48L9F4B5OEOMH57RM53Z4H1WP0","[{""page_index"":0,""viewing_time"":3907.8000000715256}]","3908.100000023842","","","","","","","",""
"","survey-text","364","233497","0.0-364.0","3ZSY5X72NYXKH2TTUDP8ZPMG7N4ROR","A3L0DCUXI7X3A9","3H6W48L9F4B5OEOMH57RM53Z4H1WP0","","5014.800000071526","","","","","","","","{""Q0"":""A3L0DCUXI7X3A9""}"
