"success","trial_type","trial_index","time_elapsed","internal_node_id","assignmentID","mturkID","hitID","view_history","rt","stimulus","key_press","reactionTime","a","r","s","reward_cond","responses"
"true","fullscreen","0","2337","0.0-0.0","3Z4AIRP3C7ZJI684XAXPCBVWGDZX1V","A3NXT3OVGL7QNR","30F94FBDNR6BS3JI3VKF41RBJN4TBU","","","","","","","","","",""
"","instructions","1","24864","0.0-1.0","3Z4AIRP3C7ZJI684XAXPCBVWGDZX1V","A3NXT3OVGL7QNR","30F94FBDNR6BS3JI3VKF41RBJN4TBU","[{""page_index"":0,""viewing_time"":7597},{""page_index"":1,""viewing_time"":1447.7999999821186},{""page_index"":0,""viewing_time"":871.7000000178814},{""page_index"":1,""viewing_time"":2232.199999988079},{""page_index"":2,""viewing_time"":3375.800000011921},{""page_index"":3,""viewing_time"":1927.7999999821186},{""page_index"":4,""viewing_time"":1320.2000000178814},{""page_index"":5,""viewing_time"":952},{""page_index"":6,""viewing_time"":624},{""page_index"":7,""viewing_time"":2175.7999999821186}]","22525.19999998808","","","","","","","",""
"","image-keyboard-response","2","26162","0.0-2.0","3Z4AIRP3C7ZJI684XAXPCBVWGDZX1V","A3NXT3OVGL7QNR","30F94FBDNR6BS3JI3VKF41RBJN4TBU","","1296.4000000059605","img/animal1.png","74","1297.699999988079","1","1","2","1,0.5,0,1,0.5,0,0.5,0,1",""
"","html-keyboard-response","3","26477","0.0-3.0","3Z4AIRP3C7ZJI684XAXPCBVWGDZX1V","A3NXT3OVGL7QNR","30F94FBDNR6BS3JI3VKF41RBJN4TBU","","null","<img src=""img/animal1.png"" style=""width:200px; border:14px solid green;"">","null","","","","","",""
"","image-keyboard-response","4","27530","0.0-4.0","3Z4AIRP3C7ZJI684XAXPCBVWGDZX1V","A3NXT3OVGL7QNR","30F94FBDNR6BS3JI3VKF41RBJN4TBU","","1050.5999999940395","img/animal6.png","76","1051.7999999821186","3","0","1","1,0.5,0,1,0.5,0,0.5,0,1",""
"","html-keyboard-response","5","27836","0.0-5.0","3Z4AIRP3C7ZJI684XAXPCBVWGDZX1V","A3NXT3OVGL7QNR","30F94FBDNR6BS3JI3VKF41RBJN4TBU","","null","<img src=""img/animal6.png"" style=""width:200px;border:14px solid red;"">","null","","","","","",""
"","image-keyboard-response","6","28369","0.0-6.0","3Z4AIRP3C7ZJI684XAXPCBVWGDZX1V","A3NXT3OVGL7QNR","30F94FBDNR6BS3JI3VKF41RBJN4TBU","","531.9000000059605","img/animal1.png","74","533.1999999880791","1","1","2","1,0.5,0,1,0.5,0,0.5,0,1",""
"","html-keyboard-response","7","28676","0.0-7.0","3Z4AIRP3C7ZJI684XAXPCBVWGDZX1V","A3NXT3OVGL7QNR","30F94FBDNR6BS3JI3VKF41RBJN4TBU","","null","<img src=""img/animal1.png"" style=""width:200px; border:14px solid green;"">","null","","","","","",""
"","image-keyboard-response","8","29209","0.0-8.0","3Z4AIRP3C7ZJI684XAXPCBVWGDZX1V","A3NXT3OVGL7QNR","30F94FBDNR6BS3JI3VKF41RBJN4TBU","","532","img/animal6.png","75","533.1999999880791","2","0","1","1,0.5,0,1,0.5,0,0.5,0,1",""
"","html-keyboard-response","9","29513","0.0-9.0","3Z4AIRP3C7ZJI684XAXPCBVWGDZX1V","A3NXT3OVGL7QNR","30F94FBDNR6BS3JI3VKF41RBJN4TBU","","null","<img src=""img/animal6.png"" style=""width:200px;border:14px solid red;"">","null","","","","","",""
"","image-keyboard-response","10","30529","0.0-10.0","3Z4AIRP3C7ZJI684XAXPCBVWGDZX1V","A3NXT3OVGL7QNR","30F94FBDNR6BS3JI3VKF41RBJN4TBU","","1015.1999999880791","img/animal2.png","75","1016.3000000119209","2","0","3","1,0.5,0,1,0.5,0,0.5,0,1",""
"","html-keyboard-response","11","30833","0.0-11.0","3Z4AIRP3C7ZJI684XAXPCBVWGDZX1V","A3NXT3OVGL7QNR","30F94FBDNR6BS3JI3VKF41RBJN4TBU","","null","<img src=""img/animal2.png"" style=""width:200px;border:14px solid red;"">","null","","","","","",""
"","image-keyboard-response","12","31306","0.0-12.0","3Z4AIRP3C7ZJI684XAXPCBVWGDZX1V","A3NXT3OVGL7QNR","30F94FBDNR6BS3JI3VKF41RBJN4TBU","","471.80000001192093","img/animal2.png","74","473","1","1","3","1,0.5,0,1,0.5,0,0.5,0,1",""
"","html-keyboard-response","13","31609","0.0-13.0","3Z4AIRP3C7ZJI684XAXPCBVWGDZX1V","A3NXT3OVGL7QNR","30F94FBDNR6BS3JI3VKF41RBJN4TBU","","null","<img src=""img/animal2.png"" style=""width:200px; border:14px solid green;"">","null","","","","","",""
"","image-keyboard-response","14","32169","0.0-14.0","3Z4AIRP3C7ZJI684XAXPCBVWGDZX1V","A3NXT3OVGL7QNR","30F94FBDNR6BS3JI3VKF41RBJN4TBU","","559","img/animal1.png","74","560.3000000119209","1","1","2","1,0.5,0,1,0.5,0,0.5,0,1",""
"","html-keyboard-response","15","32473","0.0-15.0","3Z4AIRP3C7ZJI684XAXPCBVWGDZX1V","A3NXT3OVGL7QNR","30F94FBDNR6BS3JI3VKF41RBJN4TBU","","null","<img src=""img/animal1.png"" style=""width:200px; border:14px solid green;"">","null","","","","","",""
"","image-keyboard-response","16","32881","0.0-16.0","3Z4AIRP3C7ZJI684XAXPCBVWGDZX1V","A3NXT3OVGL7QNR","30F94FBDNR6BS3JI3VKF41RBJN4TBU","","407.59999999403954","img/animal2.png","74","408.2000000178814","1","0","3","1,0.5,0,1,0.5,0,0.5,0,1",""
"","html-keyboard-response","17","33185","0.0-17.0","3Z4AIRP3C7ZJI684XAXPCBVWGDZX1V","A3NXT3OVGL7QNR","30F94FBDNR6BS3JI3VKF41RBJN4TBU","","null","<img src=""img/animal2.png"" style=""width:200px;border:14px solid red;"">","null","","","","","",""
"","image-keyboard-response","18","34393","0.0-18.0","3Z4AIRP3C7ZJI684XAXPCBVWGDZX1V","A3NXT3OVGL7QNR","30F94FBDNR6BS3JI3VKF41RBJN4TBU","","1207.0999999940395","img/animal6.png","74","1208.300000011921","1","1","1","1,0.5,0,1,0.5,0,0.5,0,1",""
"","html-keyboard-response","19","34697","0.0-19.0","3Z4AIRP3C7ZJI684XAXPCBVWGDZX1V","A3NXT3OVGL7QNR","30F94FBDNR6BS3JI3VKF41RBJN4TBU","","null","<img src=""img/animal6.png"" style=""width:200px; border:14px solid green;"">","null","","","","","",""
"","image-keyboard-response","20","35313","0.0-20.0","3Z4AIRP3C7ZJI684XAXPCBVWGDZX1V","A3NXT3OVGL7QNR","30F94FBDNR6BS3JI3VKF41RBJN4TBU","","615","img/animal1.png","74","616.2000000178814","1","1","2","1,0.5,0,1,0.5,0,0.5,0,1",""
"","html-keyboard-response","21","35617","0.0-21.0","3Z4AIRP3C7ZJI684XAXPCBVWGDZX1V","A3NXT3OVGL7QNR","30F94FBDNR6BS3JI3VKF41RBJN4TBU","","null","<img src=""img/animal1.png"" style=""width:200px; border:14px solid green;"">","null","","","","","",""
"","image-keyboard-response","22","35937","0.0-22.0","3Z4AIRP3C7ZJI684XAXPCBVWGDZX1V","A3NXT3OVGL7QNR","30F94FBDNR6BS3JI3VKF41RBJN4TBU","","318.90000000596046","img/animal1.png","74","319.90000000596046","1","1","2","1,0.5,0,1,0.5,0,0.5,0,1",""
"","html-keyboard-response","23","36241","0.0-23.0","3Z4AIRP3C7ZJI684XAXPCBVWGDZX1V","A3NXT3OVGL7QNR","30F94FBDNR6BS3JI3VKF41RBJN4TBU","","null","<img src=""img/animal1.png"" style=""width:200px; border:14px solid green;"">","null","","","","","",""
"","image-keyboard-response","24","36729","0.0-24.0","3Z4AIRP3C7ZJI684XAXPCBVWGDZX1V","A3NXT3OVGL7QNR","30F94FBDNR6BS3JI3VKF41RBJN4TBU","","486.90000000596046","img/animal2.png","74","488","1","0","3","1,0.5,0,1,0.5,0,0.5,0,1",""
"","html-keyboard-response","25","37033","0.0-25.0","3Z4AIRP3C7ZJI684XAXPCBVWGDZX1V","A3NXT3OVGL7QNR","30F94FBDNR6BS3JI3VKF41RBJN4TBU","","null","<img src=""img/animal2.png"" style=""width:200px;border:14px solid red;"">","null","","","","","",""
"","image-keyboard-response","26","37873","0.0-26.0","3Z4AIRP3C7ZJI684XAXPCBVWGDZX1V","A3NXT3OVGL7QNR","30F94FBDNR6BS3JI3VKF41RBJN4TBU","","838.8000000119209","img/animal6.png","74","840","1","1","1","1,0.5,0,1,0.5,0,0.5,0,1",""
"","html-keyboard-response","27","38177","0.0-27.0","3Z4AIRP3C7ZJI684XAXPCBVWGDZX1V","A3NXT3OVGL7QNR","30F94FBDNR6BS3JI3VKF41RBJN4TBU","","null","<img src=""img/animal6.png"" style=""width:200px; border:14px solid green;"">","null","","","","","",""
"","image-keyboard-response","28","38977","0.0-28.0","3Z4AIRP3C7ZJI684XAXPCBVWGDZX1V","A3NXT3OVGL7QNR","30F94FBDNR6BS3JI3VKF41RBJN4TBU","","798.9000000059605","img/animal1.png","74","800","1","1","2","1,0.5,0,1,0.5,0,0.5,0,1",""
"","html-keyboard-response","29","39281","0.0-29.0","3Z4AIRP3C7ZJI684XAXPCBVWGDZX1V","A3NXT3OVGL7QNR","30F94FBDNR6BS3JI3VKF41RBJN4TBU","","null","<img src=""img/animal1.png"" style=""width:200px; border:14px solid green;"">","null","","","","","",""
"","image-keyboard-response","30","39713","0.0-30.0","3Z4AIRP3C7ZJI684XAXPCBVWGDZX1V","A3NXT3OVGL7QNR","30F94FBDNR6BS3JI3VKF41RBJN4TBU","","430.80000001192093","img/animal1.png","74","431.7999999821186","1","1","2","1,0.5,0,1,0.5,0,0.5,0,1",""
"","html-keyboard-response","31","40017","0.0-31.0","3Z4AIRP3C7ZJI684XAXPCBVWGDZX1V","A3NXT3OVGL7QNR","30F94FBDNR6BS3JI3VKF41RBJN4TBU","","null","<img src=""img/animal1.png"" style=""width:200px; border:14px solid green;"">","null","","","","","",""
"","image-keyboard-response","32","40761","0.0-32.0","3Z4AIRP3C7ZJI684XAXPCBVWGDZX1V","A3NXT3OVGL7QNR","30F94FBDNR6BS3JI3VKF41RBJN4TBU","","742.5","img/animal6.png","74","743.5","1","1","1","1,0.5,0,1,0.5,0,0.5,0,1",""
"","html-keyboard-response","33","41065","0.0-33.0","3Z4AIRP3C7ZJI684XAXPCBVWGDZX1V","A3NXT3OVGL7QNR","30F94FBDNR6BS3JI3VKF41RBJN4TBU","","null","<img src=""img/animal6.png"" style=""width:200px; border:14px solid green;"">","null","","","","","",""
"","image-keyboard-response","34","41821","0.0-34.0","3Z4AIRP3C7ZJI684XAXPCBVWGDZX1V","A3NXT3OVGL7QNR","30F94FBDNR6BS3JI3VKF41RBJN4TBU","","751.2999999821186","img/animal1.png","74","752.5","1","1","2","1,0.5,0,1,0.5,0,0.5,0,1",""
"","html-keyboard-response","35","42124","0.0-35.0","3Z4AIRP3C7ZJI684XAXPCBVWGDZX1V","A3NXT3OVGL7QNR","30F94FBDNR6BS3JI3VKF41RBJN4TBU","","null","<img src=""img/animal1.png"" style=""width:200px; border:14px solid green;"">","null","","","","","",""
"","image-keyboard-response","36","42636","0.0-36.0","3Z4AIRP3C7ZJI684XAXPCBVWGDZX1V","A3NXT3OVGL7QNR","30F94FBDNR6BS3JI3VKF41RBJN4TBU","","510.40000000596046","img/animal2.png","76","511.69999998807907","3","1","3","1,0.5,0,1,0.5,0,0.5,0,1",""
"","html-keyboard-response","37","42939","0.0-37.0","3Z4AIRP3C7ZJI684XAXPCBVWGDZX1V","A3NXT3OVGL7QNR","30F94FBDNR6BS3JI3VKF41RBJN4TBU","","null","<img src=""img/animal2.png"" style=""width:200px; border:14px solid green;"">","null","","","","","",""
"","image-keyboard-response","38","43460","0.0-38.0","3Z4AIRP3C7ZJI684XAXPCBVWGDZX1V","A3NXT3OVGL7QNR","30F94FBDNR6BS3JI3VKF41RBJN4TBU","","519.5","img/animal1.png","74","520.5999999940395","1","1","2","1,0.5,0,1,0.5,0,0.5,0,1",""
"","html-keyboard-response","39","43764","0.0-39.0","3Z4AIRP3C7ZJI684XAXPCBVWGDZX1V","A3NXT3OVGL7QNR","30F94FBDNR6BS3JI3VKF41RBJN4TBU","","null","<img src=""img/animal1.png"" style=""width:200px; border:14px solid green;"">","null","","","","","",""
"","image-keyboard-response","40","44300","0.0-40.0","3Z4AIRP3C7ZJI684XAXPCBVWGDZX1V","A3NXT3OVGL7QNR","30F94FBDNR6BS3JI3VKF41RBJN4TBU","","535.2999999821186","img/animal6.png","74","536.5","1","1","1","1,0.5,0,1,0.5,0,0.5,0,1",""
"","html-keyboard-response","41","44604","0.0-41.0","3Z4AIRP3C7ZJI684XAXPCBVWGDZX1V","A3NXT3OVGL7QNR","30F94FBDNR6BS3JI3VKF41RBJN4TBU","","null","<img src=""img/animal6.png"" style=""width:200px; border:14px solid green;"">","null","","","","","",""
"","image-keyboard-response","42","45124","0.0-42.0","3Z4AIRP3C7ZJI684XAXPCBVWGDZX1V","A3NXT3OVGL7QNR","30F94FBDNR6BS3JI3VKF41RBJN4TBU","","519.4000000059605","img/animal2.png","76","520.5","3","1","3","1,0.5,0,1,0.5,0,0.5,0,1",""
"","html-keyboard-response","43","45428","0.0-43.0","3Z4AIRP3C7ZJI684XAXPCBVWGDZX1V","A3NXT3OVGL7QNR","30F94FBDNR6BS3JI3VKF41RBJN4TBU","","null","<img src=""img/animal2.png"" style=""width:200px; border:14px solid green;"">","null","","","","","",""
"","image-keyboard-response","44","45964","0.0-44.0","3Z4AIRP3C7ZJI684XAXPCBVWGDZX1V","A3NXT3OVGL7QNR","30F94FBDNR6BS3JI3VKF41RBJN4TBU","","535.4000000059605","img/animal6.png","74","536.7000000178814","1","1","1","1,0.5,0,1,0.5,0,0.5,0,1",""
"","html-keyboard-response","45","46268","0.0-45.0","3Z4AIRP3C7ZJI684XAXPCBVWGDZX1V","A3NXT3OVGL7QNR","30F94FBDNR6BS3JI3VKF41RBJN4TBU","","null","<img src=""img/animal6.png"" style=""width:200px; border:14px solid green;"">","null","","","","","",""
"","image-keyboard-response","46","46892","0.0-46.0","3Z4AIRP3C7ZJI684XAXPCBVWGDZX1V","A3NXT3OVGL7QNR","30F94FBDNR6BS3JI3VKF41RBJN4TBU","","623.1999999880791","img/animal1.png","74","624.4000000059605","1","1","2","1,0.5,0,1,0.5,0,0.5,0,1",""
"","html-keyboard-response","47","47196","0.0-47.0","3Z4AIRP3C7ZJI684XAXPCBVWGDZX1V","A3NXT3OVGL7QNR","30F94FBDNR6BS3JI3VKF41RBJN4TBU","","null","<img src=""img/animal1.png"" style=""width:200px; border:14px solid green;"">","null","","","","","",""
"","image-keyboard-response","48","47636","0.0-48.0","3Z4AIRP3C7ZJI684XAXPCBVWGDZX1V","A3NXT3OVGL7QNR","30F94FBDNR6BS3JI3VKF41RBJN4TBU","","439","img/animal1.png","74","440.30000001192093","1","1","2","1,0.5,0,1,0.5,0,0.5,0,1",""
"","html-keyboard-response","49","47940","0.0-49.0","3Z4AIRP3C7ZJI684XAXPCBVWGDZX1V","A3NXT3OVGL7QNR","30F94FBDNR6BS3JI3VKF41RBJN4TBU","","null","<img src=""img/animal1.png"" style=""width:200px; border:14px solid green;"">","null","","","","","",""
"","image-keyboard-response","50","48292","0.0-50.0","3Z4AIRP3C7ZJI684XAXPCBVWGDZX1V","A3NXT3OVGL7QNR","30F94FBDNR6BS3JI3VKF41RBJN4TBU","","351.19999998807907","img/animal1.png","74","352.19999998807907","1","1","2","1,0.5,0,1,0.5,0,0.5,0,1",""
"","html-keyboard-response","51","48596","0.0-51.0","3Z4AIRP3C7ZJI684XAXPCBVWGDZX1V","A3NXT3OVGL7QNR","30F94FBDNR6BS3JI3VKF41RBJN4TBU","","null","<img src=""img/animal1.png"" style=""width:200px; border:14px solid green;"">","null","","","","","",""
"","image-keyboard-response","52","48882","0.0-52.0","3Z4AIRP3C7ZJI684XAXPCBVWGDZX1V","A3NXT3OVGL7QNR","30F94FBDNR6BS3JI3VKF41RBJN4TBU","","285","img/animal1.png","74","285.7000000178814","1","1","2","1,0.5,0,1,0.5,0,0.5,0,1",""
"","html-keyboard-response","53","49188","0.0-53.0","3Z4AIRP3C7ZJI684XAXPCBVWGDZX1V","A3NXT3OVGL7QNR","30F94FBDNR6BS3JI3VKF41RBJN4TBU","","null","<img src=""img/animal1.png"" style=""width:200px; border:14px solid green;"">","null","","","","","",""
"","image-keyboard-response","54","49868","0.0-54.0","3Z4AIRP3C7ZJI684XAXPCBVWGDZX1V","A3NXT3OVGL7QNR","30F94FBDNR6BS3JI3VKF41RBJN4TBU","","679","img/animal6.png","76","680.0999999940395","3","0","1","1,0.5,0,1,0.5,0,0.5,0,1",""
"","html-keyboard-response","55","50172","0.0-55.0","3Z4AIRP3C7ZJI684XAXPCBVWGDZX1V","A3NXT3OVGL7QNR","30F94FBDNR6BS3JI3VKF41RBJN4TBU","","null","<img src=""img/animal6.png"" style=""width:200px;border:14px solid red;"">","null","","","","","",""
"","image-keyboard-response","56","51116","0.0-56.0","3Z4AIRP3C7ZJI684XAXPCBVWGDZX1V","A3NXT3OVGL7QNR","30F94FBDNR6BS3JI3VKF41RBJN4TBU","","943.5999999940395","img/animal6.png","74","944.5","1","1","1","1,0.5,0,1,0.5,0,0.5,0,1",""
"","html-keyboard-response","57","51420","0.0-57.0","3Z4AIRP3C7ZJI684XAXPCBVWGDZX1V","A3NXT3OVGL7QNR","30F94FBDNR6BS3JI3VKF41RBJN4TBU","","null","<img src=""img/animal6.png"" style=""width:200px; border:14px solid green;"">","null","","","","","",""
"","image-keyboard-response","58","51788","0.0-58.0","3Z4AIRP3C7ZJI684XAXPCBVWGDZX1V","A3NXT3OVGL7QNR","30F94FBDNR6BS3JI3VKF41RBJN4TBU","","367","img/animal6.png","74","368.19999998807907","1","1","1","1,0.5,0,1,0.5,0,0.5,0,1",""
"","html-keyboard-response","59","52092","0.0-59.0","3Z4AIRP3C7ZJI684XAXPCBVWGDZX1V","A3NXT3OVGL7QNR","30F94FBDNR6BS3JI3VKF41RBJN4TBU","","null","<img src=""img/animal6.png"" style=""width:200px; border:14px solid green;"">","null","","","","","",""
"","image-keyboard-response","60","52693","0.0-60.0","3Z4AIRP3C7ZJI684XAXPCBVWGDZX1V","A3NXT3OVGL7QNR","30F94FBDNR6BS3JI3VKF41RBJN4TBU","","599.4000000059605","img/animal2.png","76","600.5","3","1","3","1,0.5,0,1,0.5,0,0.5,0,1",""
"","html-keyboard-response","61","52996","0.0-61.0","3Z4AIRP3C7ZJI684XAXPCBVWGDZX1V","A3NXT3OVGL7QNR","30F94FBDNR6BS3JI3VKF41RBJN4TBU","","null","<img src=""img/animal2.png"" style=""width:200px; border:14px solid green;"">","null","","","","","",""
"","image-keyboard-response","62","53564","0.0-62.0","3Z4AIRP3C7ZJI684XAXPCBVWGDZX1V","A3NXT3OVGL7QNR","30F94FBDNR6BS3JI3VKF41RBJN4TBU","","566.6999999880791","img/animal1.png","74","568","1","1","2","1,0.5,0,1,0.5,0,0.5,0,1",""
"","html-keyboard-response","63","53868","0.0-63.0","3Z4AIRP3C7ZJI684XAXPCBVWGDZX1V","A3NXT3OVGL7QNR","30F94FBDNR6BS3JI3VKF41RBJN4TBU","","null","<img src=""img/animal1.png"" style=""width:200px; border:14px solid green;"">","null","","","","","",""
"","image-keyboard-response","64","55020","0.0-64.0","3Z4AIRP3C7ZJI684XAXPCBVWGDZX1V","A3NXT3OVGL7QNR","30F94FBDNR6BS3JI3VKF41RBJN4TBU","","1150.5999999940395","img/animal6.png","74","1151.800000011921","1","1","1","1,0.5,0,1,0.5,0,0.5,0,1",""
"","html-keyboard-response","65","55324","0.0-65.0","3Z4AIRP3C7ZJI684XAXPCBVWGDZX1V","A3NXT3OVGL7QNR","30F94FBDNR6BS3JI3VKF41RBJN4TBU","","null","<img src=""img/animal6.png"" style=""width:200px; border:14px solid green;"">","null","","","","","",""
"","image-keyboard-response","66","55852","0.0-66.0","3Z4AIRP3C7ZJI684XAXPCBVWGDZX1V","A3NXT3OVGL7QNR","30F94FBDNR6BS3JI3VKF41RBJN4TBU","","526.6999999880791","img/animal6.png","74","527.8000000119209","1","1","1","1,0.5,0,1,0.5,0,0.5,0,1",""
"","html-keyboard-response","67","56156","0.0-67.0","3Z4AIRP3C7ZJI684XAXPCBVWGDZX1V","A3NXT3OVGL7QNR","30F94FBDNR6BS3JI3VKF41RBJN4TBU","","null","<img src=""img/animal6.png"" style=""width:200px; border:14px solid green;"">","null","","","","","",""
"","image-keyboard-response","68","56852","0.0-68.0","3Z4AIRP3C7ZJI684XAXPCBVWGDZX1V","A3NXT3OVGL7QNR","30F94FBDNR6BS3JI3VKF41RBJN4TBU","","694.6999999880791","img/animal1.png","74","695.8000000119209","1","1","2","1,0.5,0,1,0.5,0,0.5,0,1",""
"","html-keyboard-response","69","57156","0.0-69.0","3Z4AIRP3C7ZJI684XAXPCBVWGDZX1V","A3NXT3OVGL7QNR","30F94FBDNR6BS3JI3VKF41RBJN4TBU","","null","<img src=""img/animal1.png"" style=""width:200px; border:14px solid green;"">","null","","","","","",""
"","image-keyboard-response","70","57588","0.0-70.0","3Z4AIRP3C7ZJI684XAXPCBVWGDZX1V","A3NXT3OVGL7QNR","30F94FBDNR6BS3JI3VKF41RBJN4TBU","","430.59999999403954","img/animal6.png","74","431.7000000178814","1","1","1","1,0.5,0,1,0.5,0,0.5,0,1",""
"","html-keyboard-response","71","57892","0.0-71.0","3Z4AIRP3C7ZJI684XAXPCBVWGDZX1V","A3NXT3OVGL7QNR","30F94FBDNR6BS3JI3VKF41RBJN4TBU","","null","<img src=""img/animal6.png"" style=""width:200px; border:14px solid green;"">","null","","","","","",""
"","image-keyboard-response","72","58412","0.0-72.0","3Z4AIRP3C7ZJI684XAXPCBVWGDZX1V","A3NXT3OVGL7QNR","30F94FBDNR6BS3JI3VKF41RBJN4TBU","","518.5999999940395","img/animal6.png","74","519.6000000238419","1","1","1","1,0.5,0,1,0.5,0,0.5,0,1",""
"","html-keyboard-response","73","58716","0.0-73.0","3Z4AIRP3C7ZJI684XAXPCBVWGDZX1V","A3NXT3OVGL7QNR","30F94FBDNR6BS3JI3VKF41RBJN4TBU","","null","<img src=""img/animal6.png"" style=""width:200px; border:14px solid green;"">","null","","","","","",""
"","image-keyboard-response","74","59108","0.0-74.0","3Z4AIRP3C7ZJI684XAXPCBVWGDZX1V","A3NXT3OVGL7QNR","30F94FBDNR6BS3JI3VKF41RBJN4TBU","","390.5","img/animal6.png","74","391.40000000596046","1","1","1","1,0.5,0,1,0.5,0,0.5,0,1",""
"","html-keyboard-response","75","59412","0.0-75.0","3Z4AIRP3C7ZJI684XAXPCBVWGDZX1V","A3NXT3OVGL7QNR","30F94FBDNR6BS3JI3VKF41RBJN4TBU","","null","<img src=""img/animal6.png"" style=""width:200px; border:14px solid green;"">","null","","","","","",""
"","image-keyboard-response","76","59964","0.0-76.0","3Z4AIRP3C7ZJI684XAXPCBVWGDZX1V","A3NXT3OVGL7QNR","30F94FBDNR6BS3JI3VKF41RBJN4TBU","","550.5999999940395","img/animal2.png","76","551.6000000238419","3","1","3","1,0.5,0,1,0.5,0,0.5,0,1",""
"","html-keyboard-response","77","60268","0.0-77.0","3Z4AIRP3C7ZJI684XAXPCBVWGDZX1V","A3NXT3OVGL7QNR","30F94FBDNR6BS3JI3VKF41RBJN4TBU","","null","<img src=""img/animal2.png"" style=""width:200px; border:14px solid green;"">","null","","","","","",""
"","image-keyboard-response","78","60804","0.0-78.0","3Z4AIRP3C7ZJI684XAXPCBVWGDZX1V","A3NXT3OVGL7QNR","30F94FBDNR6BS3JI3VKF41RBJN4TBU","","534.2000000178814","img/animal1.png","74","535.5","1","1","2","1,0.5,0,1,0.5,0,0.5,0,1",""
"","html-keyboard-response","79","61108","0.0-79.0","3Z4AIRP3C7ZJI684XAXPCBVWGDZX1V","A3NXT3OVGL7QNR","30F94FBDNR6BS3JI3VKF41RBJN4TBU","","null","<img src=""img/animal1.png"" style=""width:200px; border:14px solid green;"">","null","","","","","",""
"","image-keyboard-response","80","61508","0.0-80.0","3Z4AIRP3C7ZJI684XAXPCBVWGDZX1V","A3NXT3OVGL7QNR","30F94FBDNR6BS3JI3VKF41RBJN4TBU","","398.2000000178814","img/animal1.png","74","399.40000000596046","1","1","2","1,0.5,0,1,0.5,0,0.5,0,1",""
"","html-keyboard-response","81","61812","0.0-81.0","3Z4AIRP3C7ZJI684XAXPCBVWGDZX1V","A3NXT3OVGL7QNR","30F94FBDNR6BS3JI3VKF41RBJN4TBU","","null","<img src=""img/animal1.png"" style=""width:200px; border:14px solid green;"">","null","","","","","",""
"","image-keyboard-response","82","62148","0.0-82.0","3Z4AIRP3C7ZJI684XAXPCBVWGDZX1V","A3NXT3OVGL7QNR","30F94FBDNR6BS3JI3VKF41RBJN4TBU","","334","img/animal1.png","74","335.19999998807907","1","1","2","1,0.5,0,1,0.5,0,0.5,0,1",""
"","html-keyboard-response","83","62452","0.0-83.0","3Z4AIRP3C7ZJI684XAXPCBVWGDZX1V","A3NXT3OVGL7QNR","30F94FBDNR6BS3JI3VKF41RBJN4TBU","","null","<img src=""img/animal1.png"" style=""width:200px; border:14px solid green;"">","null","","","","","",""
"","image-keyboard-response","84","62765","0.0-84.0","3Z4AIRP3C7ZJI684XAXPCBVWGDZX1V","A3NXT3OVGL7QNR","30F94FBDNR6BS3JI3VKF41RBJN4TBU","","310.90000000596046","img/animal1.png","74","312","1","1","2","1,0.5,0,1,0.5,0,0.5,0,1",""
"","html-keyboard-response","85","63068","0.0-85.0","3Z4AIRP3C7ZJI684XAXPCBVWGDZX1V","A3NXT3OVGL7QNR","30F94FBDNR6BS3JI3VKF41RBJN4TBU","","null","<img src=""img/animal1.png"" style=""width:200px; border:14px solid green;"">","null","","","","","",""
"","image-keyboard-response","86","63516","0.0-86.0","3Z4AIRP3C7ZJI684XAXPCBVWGDZX1V","A3NXT3OVGL7QNR","30F94FBDNR6BS3JI3VKF41RBJN4TBU","","446.10000002384186","img/animal2.png","76","447.19999998807907","3","1","3","1,0.5,0,1,0.5,0,0.5,0,1",""
"","html-keyboard-response","87","63820","0.0-87.0","3Z4AIRP3C7ZJI684XAXPCBVWGDZX1V","A3NXT3OVGL7QNR","30F94FBDNR6BS3JI3VKF41RBJN4TBU","","null","<img src=""img/animal2.png"" style=""width:200px; border:14px solid green;"">","null","","","","","",""
"","image-keyboard-response","88","64252","0.0-88.0","3Z4AIRP3C7ZJI684XAXPCBVWGDZX1V","A3NXT3OVGL7QNR","30F94FBDNR6BS3JI3VKF41RBJN4TBU","","430.2000000178814","img/animal6.png","74","431.19999998807907","1","1","1","1,0.5,0,1,0.5,0,0.5,0,1",""
"","html-keyboard-response","89","64556","0.0-89.0","3Z4AIRP3C7ZJI684XAXPCBVWGDZX1V","A3NXT3OVGL7QNR","30F94FBDNR6BS3JI3VKF41RBJN4TBU","","null","<img src=""img/animal6.png"" style=""width:200px; border:14px solid green;"">","null","","","","","",""
"","image-keyboard-response","90","65036","0.0-90.0","3Z4AIRP3C7ZJI684XAXPCBVWGDZX1V","A3NXT3OVGL7QNR","30F94FBDNR6BS3JI3VKF41RBJN4TBU","","478","img/animal2.png","74","479.09999999403954","1","0","3","1,0.5,0,1,0.5,0,0.5,0,1",""
"","html-keyboard-response","91","65340","0.0-91.0","3Z4AIRP3C7ZJI684XAXPCBVWGDZX1V","A3NXT3OVGL7QNR","30F94FBDNR6BS3JI3VKF41RBJN4TBU","","null","<img src=""img/animal2.png"" style=""width:200px;border:14px solid red;"">","null","","","","","",""
"","image-keyboard-response","92","65756","0.0-92.0","3Z4AIRP3C7ZJI684XAXPCBVWGDZX1V","A3NXT3OVGL7QNR","30F94FBDNR6BS3JI3VKF41RBJN4TBU","","414.10000002384186","img/animal2.png","76","415.19999998807907","3","1","3","1,0.5,0,1,0.5,0,0.5,0,1",""
"","html-keyboard-response","93","66060","0.0-93.0","3Z4AIRP3C7ZJI684XAXPCBVWGDZX1V","A3NXT3OVGL7QNR","30F94FBDNR6BS3JI3VKF41RBJN4TBU","","null","<img src=""img/animal2.png"" style=""width:200px; border:14px solid green;"">","null","","","","","",""
"","image-keyboard-response","94","66548","0.0-94.0","3Z4AIRP3C7ZJI684XAXPCBVWGDZX1V","A3NXT3OVGL7QNR","30F94FBDNR6BS3JI3VKF41RBJN4TBU","","486.19999998807907","img/animal2.png","76","487.09999999403954","3","1","3","1,0.5,0,1,0.5,0,0.5,0,1",""
"","html-keyboard-response","95","66852","0.0-95.0","3Z4AIRP3C7ZJI684XAXPCBVWGDZX1V","A3NXT3OVGL7QNR","30F94FBDNR6BS3JI3VKF41RBJN4TBU","","null","<img src=""img/animal2.png"" style=""width:200px; border:14px solid green;"">","null","","","","","",""
"","image-keyboard-response","96","67340","0.0-96.0","3Z4AIRP3C7ZJI684XAXPCBVWGDZX1V","A3NXT3OVGL7QNR","30F94FBDNR6BS3JI3VKF41RBJN4TBU","","485.90000000596046","img/animal1.png","74","487","1","1","2","1,0.5,0,1,0.5,0,0.5,0,1",""
"","html-keyboard-response","97","67644","0.0-97.0","3Z4AIRP3C7ZJI684XAXPCBVWGDZX1V","A3NXT3OVGL7QNR","30F94FBDNR6BS3JI3VKF41RBJN4TBU","","null","<img src=""img/animal1.png"" style=""width:200px; border:14px solid green;"">","null","","","","","",""
"","image-keyboard-response","98","67964","0.0-98.0","3Z4AIRP3C7ZJI684XAXPCBVWGDZX1V","A3NXT3OVGL7QNR","30F94FBDNR6BS3JI3VKF41RBJN4TBU","","318.7999999821186","img/animal1.png","74","320","1","1","2","1,0.5,0,1,0.5,0,0.5,0,1",""
"","html-keyboard-response","99","68268","0.0-99.0","3Z4AIRP3C7ZJI684XAXPCBVWGDZX1V","A3NXT3OVGL7QNR","30F94FBDNR6BS3JI3VKF41RBJN4TBU","","null","<img src=""img/animal1.png"" style=""width:200px; border:14px solid green;"">","null","","","","","",""
"","image-keyboard-response","100","68780","0.0-100.0","3Z4AIRP3C7ZJI684XAXPCBVWGDZX1V","A3NXT3OVGL7QNR","30F94FBDNR6BS3JI3VKF41RBJN4TBU","","510.69999998807907","img/animal2.png","76","511.80000001192093","3","1","3","1,0.5,0,1,0.5,0,0.5,0,1",""
"","html-keyboard-response","101","69084","0.0-101.0","3Z4AIRP3C7ZJI684XAXPCBVWGDZX1V","A3NXT3OVGL7QNR","30F94FBDNR6BS3JI3VKF41RBJN4TBU","","null","<img src=""img/animal2.png"" style=""width:200px; border:14px solid green;"">","null","","","","","",""
"","image-keyboard-response","102","69636","0.0-102.0","3Z4AIRP3C7ZJI684XAXPCBVWGDZX1V","A3NXT3OVGL7QNR","30F94FBDNR6BS3JI3VKF41RBJN4TBU","","550.7999999821186","img/animal6.png","74","552","1","1","1","1,0.5,0,1,0.5,0,0.5,0,1",""
"","html-keyboard-response","103","69940","0.0-103.0","3Z4AIRP3C7ZJI684XAXPCBVWGDZX1V","A3NXT3OVGL7QNR","30F94FBDNR6BS3JI3VKF41RBJN4TBU","","null","<img src=""img/animal6.png"" style=""width:200px; border:14px solid green;"">","null","","","","","",""
"","image-keyboard-response","104","70260","0.0-104.0","3Z4AIRP3C7ZJI684XAXPCBVWGDZX1V","A3NXT3OVGL7QNR","30F94FBDNR6BS3JI3VKF41RBJN4TBU","","319.09999999403954","img/animal6.png","74","320","1","1","1","1,0.5,0,1,0.5,0,0.5,0,1",""
"","html-keyboard-response","105","70564","0.0-105.0","3Z4AIRP3C7ZJI684XAXPCBVWGDZX1V","A3NXT3OVGL7QNR","30F94FBDNR6BS3JI3VKF41RBJN4TBU","","null","<img src=""img/animal6.png"" style=""width:200px; border:14px solid green;"">","null","","","","","",""
"","image-keyboard-response","106","70876","0.0-106.0","3Z4AIRP3C7ZJI684XAXPCBVWGDZX1V","A3NXT3OVGL7QNR","30F94FBDNR6BS3JI3VKF41RBJN4TBU","","310.69999998807907","img/animal6.png","74","311.90000000596046","1","1","1","1,0.5,0,1,0.5,0,0.5,0,1",""
"","html-keyboard-response","107","71180","0.0-107.0","3Z4AIRP3C7ZJI684XAXPCBVWGDZX1V","A3NXT3OVGL7QNR","30F94FBDNR6BS3JI3VKF41RBJN4TBU","","null","<img src=""img/animal6.png"" style=""width:200px; border:14px solid green;"">","null","","","","","",""
"","image-keyboard-response","108","72180","0.0-108.0","3Z4AIRP3C7ZJI684XAXPCBVWGDZX1V","A3NXT3OVGL7QNR","30F94FBDNR6BS3JI3VKF41RBJN4TBU","","998.4000000059605","img/animal2.png","76","999.7000000178814","3","1","3","1,0.5,0,1,0.5,0,0.5,0,1",""
"","html-keyboard-response","109","72484","0.0-109.0","3Z4AIRP3C7ZJI684XAXPCBVWGDZX1V","A3NXT3OVGL7QNR","30F94FBDNR6BS3JI3VKF41RBJN4TBU","","null","<img src=""img/animal2.png"" style=""width:200px; border:14px solid green;"">","null","","","","","",""
"","image-keyboard-response","110","72828","0.0-110.0","3Z4AIRP3C7ZJI684XAXPCBVWGDZX1V","A3NXT3OVGL7QNR","30F94FBDNR6BS3JI3VKF41RBJN4TBU","","343.09999999403954","img/animal2.png","76","344.30000001192093","3","1","3","1,0.5,0,1,0.5,0,0.5,0,1",""
"","html-keyboard-response","111","73132","0.0-111.0","3Z4AIRP3C7ZJI684XAXPCBVWGDZX1V","A3NXT3OVGL7QNR","30F94FBDNR6BS3JI3VKF41RBJN4TBU","","null","<img src=""img/animal2.png"" style=""width:200px; border:14px solid green;"">","null","","","","","",""
"","image-keyboard-response","112","73604","0.0-112.0","3Z4AIRP3C7ZJI684XAXPCBVWGDZX1V","A3NXT3OVGL7QNR","30F94FBDNR6BS3JI3VKF41RBJN4TBU","","470.5","img/animal6.png","74","471.59999999403954","1","1","1","1,0.5,0,1,0.5,0,0.5,0,1",""
"","html-keyboard-response","113","73908","0.0-113.0","3Z4AIRP3C7ZJI684XAXPCBVWGDZX1V","A3NXT3OVGL7QNR","30F94FBDNR6BS3JI3VKF41RBJN4TBU","","null","<img src=""img/animal6.png"" style=""width:200px; border:14px solid green;"">","null","","","","","",""
"","image-keyboard-response","114","74267","0.0-114.0","3Z4AIRP3C7ZJI684XAXPCBVWGDZX1V","A3NXT3OVGL7QNR","30F94FBDNR6BS3JI3VKF41RBJN4TBU","","358.30000001192093","img/animal6.png","74","359.39999997615814","1","1","1","1,0.5,0,1,0.5,0,0.5,0,1",""
"","html-keyboard-response","115","74572","0.0-115.0","3Z4AIRP3C7ZJI684XAXPCBVWGDZX1V","A3NXT3OVGL7QNR","30F94FBDNR6BS3JI3VKF41RBJN4TBU","","null","<img src=""img/animal6.png"" style=""width:200px; border:14px solid green;"">","null","","","","","",""
"","image-keyboard-response","116","75124","0.0-116.0","3Z4AIRP3C7ZJI684XAXPCBVWGDZX1V","A3NXT3OVGL7QNR","30F94FBDNR6BS3JI3VKF41RBJN4TBU","","550.3000000119209","img/animal1.png","74","551.5","1","1","2","1,0.5,0,1,0.5,0,0.5,0,1",""
"","html-keyboard-response","117","75428","0.0-117.0","3Z4AIRP3C7ZJI684XAXPCBVWGDZX1V","A3NXT3OVGL7QNR","30F94FBDNR6BS3JI3VKF41RBJN4TBU","","null","<img src=""img/animal1.png"" style=""width:200px; border:14px solid green;"">","null","","","","","",""
"","image-keyboard-response","118","76292","0.0-118.0","3Z4AIRP3C7ZJI684XAXPCBVWGDZX1V","A3NXT3OVGL7QNR","30F94FBDNR6BS3JI3VKF41RBJN4TBU","","862.3000000119209","img/animal2.png","76","863.5","3","1","3","1,0.5,0,1,0.5,0,0.5,0,1",""
"","html-keyboard-response","119","76596","0.0-119.0","3Z4AIRP3C7ZJI684XAXPCBVWGDZX1V","A3NXT3OVGL7QNR","30F94FBDNR6BS3JI3VKF41RBJN4TBU","","null","<img src=""img/animal2.png"" style=""width:200px; border:14px solid green;"">","null","","","","","",""
"","image-keyboard-response","120","77203","0.0-120.0","3Z4AIRP3C7ZJI684XAXPCBVWGDZX1V","A3NXT3OVGL7QNR","30F94FBDNR6BS3JI3VKF41RBJN4TBU","","606.2999999821186","img/animal6.png","74","607.5","1","1","1","1,0.5,0,1,0.5,0,0.5,0,1",""
"","html-keyboard-response","121","77508","0.0-121.0","3Z4AIRP3C7ZJI684XAXPCBVWGDZX1V","A3NXT3OVGL7QNR","30F94FBDNR6BS3JI3VKF41RBJN4TBU","","null","<img src=""img/animal6.png"" style=""width:200px; border:14px solid green;"">","null","","","","","",""
"","image-keyboard-response","122","78179","0.0-122.0","3Z4AIRP3C7ZJI684XAXPCBVWGDZX1V","A3NXT3OVGL7QNR","30F94FBDNR6BS3JI3VKF41RBJN4TBU","","670.1999999880791","img/animal2.png","76","671.3000000119209","3","1","3","1,0.5,0,1,0.5,0,0.5,0,1",""
"","html-keyboard-response","123","78484","0.0-123.0","3Z4AIRP3C7ZJI684XAXPCBVWGDZX1V","A3NXT3OVGL7QNR","30F94FBDNR6BS3JI3VKF41RBJN4TBU","","null","<img src=""img/animal2.png"" style=""width:200px; border:14px solid green;"">","null","","","","","",""
"","image-keyboard-response","124","78955","0.0-124.0","3Z4AIRP3C7ZJI684XAXPCBVWGDZX1V","A3NXT3OVGL7QNR","30F94FBDNR6BS3JI3VKF41RBJN4TBU","","470.19999998807907","img/animal1.png","74","471.30000001192093","1","1","2","1,0.5,0,1,0.5,0,0.5,0,1",""
"","html-keyboard-response","125","79260","0.0-125.0","3Z4AIRP3C7ZJI684XAXPCBVWGDZX1V","A3NXT3OVGL7QNR","30F94FBDNR6BS3JI3VKF41RBJN4TBU","","null","<img src=""img/animal1.png"" style=""width:200px; border:14px solid green;"">","null","","","","","",""
"","image-keyboard-response","126","80059","0.0-126.0","3Z4AIRP3C7ZJI684XAXPCBVWGDZX1V","A3NXT3OVGL7QNR","30F94FBDNR6BS3JI3VKF41RBJN4TBU","","798.1000000238419","img/animal2.png","76","799.1999999880791","3","1","3","1,0.5,0,1,0.5,0,0.5,0,1",""
"","html-keyboard-response","127","80364","0.0-127.0","3Z4AIRP3C7ZJI684XAXPCBVWGDZX1V","A3NXT3OVGL7QNR","30F94FBDNR6BS3JI3VKF41RBJN4TBU","","null","<img src=""img/animal2.png"" style=""width:200px; border:14px solid green;"">","null","","","","","",""
"","image-keyboard-response","128","80899","0.0-128.0","3Z4AIRP3C7ZJI684XAXPCBVWGDZX1V","A3NXT3OVGL7QNR","30F94FBDNR6BS3JI3VKF41RBJN4TBU","","534.0999999940395","img/animal1.png","74","535.2000000178814","1","1","2","1,0.5,0,1,0.5,0,0.5,0,1",""
"","html-keyboard-response","129","81204","0.0-129.0","3Z4AIRP3C7ZJI684XAXPCBVWGDZX1V","A3NXT3OVGL7QNR","30F94FBDNR6BS3JI3VKF41RBJN4TBU","","null","<img src=""img/animal1.png"" style=""width:200px; border:14px solid green;"">","null","","","","","",""
"","image-keyboard-response","130","82171","0.0-130.0","3Z4AIRP3C7ZJI684XAXPCBVWGDZX1V","A3NXT3OVGL7QNR","30F94FBDNR6BS3JI3VKF41RBJN4TBU","","966","img/animal2.png","76","967.0999999940395","3","1","3","1,0.5,0,1,0.5,0,0.5,0,1",""
"","html-keyboard-response","131","82476","0.0-131.0","3Z4AIRP3C7ZJI684XAXPCBVWGDZX1V","A3NXT3OVGL7QNR","30F94FBDNR6BS3JI3VKF41RBJN4TBU","","null","<img src=""img/animal2.png"" style=""width:200px; border:14px solid green;"">","null","","","","","",""
"","image-keyboard-response","132","82948","0.0-132.0","3Z4AIRP3C7ZJI684XAXPCBVWGDZX1V","A3NXT3OVGL7QNR","30F94FBDNR6BS3JI3VKF41RBJN4TBU","","470.90000000596046","img/animal2.png","76","472.09999999403954","3","1","3","1,0.5,0,1,0.5,0,0.5,0,1",""
"","html-keyboard-response","133","83252","0.0-133.0","3Z4AIRP3C7ZJI684XAXPCBVWGDZX1V","A3NXT3OVGL7QNR","30F94FBDNR6BS3JI3VKF41RBJN4TBU","","null","<img src=""img/animal2.png"" style=""width:200px; border:14px solid green;"">","null","","","","","",""
"","image-keyboard-response","134","83667","0.0-134.0","3Z4AIRP3C7ZJI684XAXPCBVWGDZX1V","A3NXT3OVGL7QNR","30F94FBDNR6BS3JI3VKF41RBJN4TBU","","413.7000000178814","img/animal1.png","74","415","1","1","2","1,0.5,0,1,0.5,0,0.5,0,1",""
"","html-keyboard-response","135","83972","0.0-135.0","3Z4AIRP3C7ZJI684XAXPCBVWGDZX1V","A3NXT3OVGL7QNR","30F94FBDNR6BS3JI3VKF41RBJN4TBU","","null","<img src=""img/animal1.png"" style=""width:200px; border:14px solid green;"">","null","","","","","",""
"","image-keyboard-response","136","85091","0.0-136.0","3Z4AIRP3C7ZJI684XAXPCBVWGDZX1V","A3NXT3OVGL7QNR","30F94FBDNR6BS3JI3VKF41RBJN4TBU","","1117.7000000178814","img/animal2.png","76","1118.9000000059605","3","1","3","1,0.5,0,1,0.5,0,0.5,0,1",""
"","html-keyboard-response","137","85396","0.0-137.0","3Z4AIRP3C7ZJI684XAXPCBVWGDZX1V","A3NXT3OVGL7QNR","30F94FBDNR6BS3JI3VKF41RBJN4TBU","","null","<img src=""img/animal2.png"" style=""width:200px; border:14px solid green;"">","null","","","","","",""
"","image-keyboard-response","138","88323","0.0-138.0","3Z4AIRP3C7ZJI684XAXPCBVWGDZX1V","A3NXT3OVGL7QNR","30F94FBDNR6BS3JI3VKF41RBJN4TBU","","2925.600000023842","img/animal1.png","74","2926.7999999821186","1","1","2","1,0.5,0,1,0.5,0,0.5,0,1",""
"","html-keyboard-response","139","88628","0.0-139.0","3Z4AIRP3C7ZJI684XAXPCBVWGDZX1V","A3NXT3OVGL7QNR","30F94FBDNR6BS3JI3VKF41RBJN4TBU","","null","<img src=""img/animal1.png"" style=""width:200px; border:14px solid green;"">","null","","","","","",""
"","image-keyboard-response","140","90379","0.0-140.0","3Z4AIRP3C7ZJI684XAXPCBVWGDZX1V","A3NXT3OVGL7QNR","30F94FBDNR6BS3JI3VKF41RBJN4TBU","","1749.5","img/animal6.png","74","1750.5999999940395","1","1","1","1,0.5,0,1,0.5,0,0.5,0,1",""
"","html-keyboard-response","141","90685","0.0-141.0","3Z4AIRP3C7ZJI684XAXPCBVWGDZX1V","A3NXT3OVGL7QNR","30F94FBDNR6BS3JI3VKF41RBJN4TBU","","null","<img src=""img/animal6.png"" style=""width:200px; border:14px solid green;"">","null","","","","","",""
"","image-keyboard-response","142","91315","0.0-142.0","3Z4AIRP3C7ZJI684XAXPCBVWGDZX1V","A3NXT3OVGL7QNR","30F94FBDNR6BS3JI3VKF41RBJN4TBU","","629.0999999940395","img/animal1.png","74","630.0999999940395","1","1","2","1,0.5,0,1,0.5,0,0.5,0,1",""
"","html-keyboard-response","143","91620","0.0-143.0","3Z4AIRP3C7ZJI684XAXPCBVWGDZX1V","A3NXT3OVGL7QNR","30F94FBDNR6BS3JI3VKF41RBJN4TBU","","null","<img src=""img/animal1.png"" style=""width:200px; border:14px solid green;"">","null","","","","","",""
"","image-keyboard-response","144","92043","0.0-144.0","3Z4AIRP3C7ZJI684XAXPCBVWGDZX1V","A3NXT3OVGL7QNR","30F94FBDNR6BS3JI3VKF41RBJN4TBU","","422.2999999821186","img/animal6.png","74","423.30000001192093","1","1","1","1,0.5,0,1,0.5,0,0.5,0,1",""
"","html-keyboard-response","145","92348","0.0-145.0","3Z4AIRP3C7ZJI684XAXPCBVWGDZX1V","A3NXT3OVGL7QNR","30F94FBDNR6BS3JI3VKF41RBJN4TBU","","null","<img src=""img/animal6.png"" style=""width:200px; border:14px solid green;"">","null","","","","","",""
"","image-keyboard-response","146","92819","0.0-146.0","3Z4AIRP3C7ZJI684XAXPCBVWGDZX1V","A3NXT3OVGL7QNR","30F94FBDNR6BS3JI3VKF41RBJN4TBU","","470.09999999403954","img/animal2.png","76","471.30000001192093","3","1","3","1,0.5,0,1,0.5,0,0.5,0,1",""
"","html-keyboard-response","147","93124","0.0-147.0","3Z4AIRP3C7ZJI684XAXPCBVWGDZX1V","A3NXT3OVGL7QNR","30F94FBDNR6BS3JI3VKF41RBJN4TBU","","null","<img src=""img/animal2.png"" style=""width:200px; border:14px solid green;"">","null","","","","","",""
"","image-keyboard-response","148","93772","0.0-148.0","3Z4AIRP3C7ZJI684XAXPCBVWGDZX1V","A3NXT3OVGL7QNR","30F94FBDNR6BS3JI3VKF41RBJN4TBU","","646.8000000119209","img/animal1.png","74","648","1","1","2","1,0.5,0,1,0.5,0,0.5,0,1",""
"","html-keyboard-response","149","94076","0.0-149.0","3Z4AIRP3C7ZJI684XAXPCBVWGDZX1V","A3NXT3OVGL7QNR","30F94FBDNR6BS3JI3VKF41RBJN4TBU","","null","<img src=""img/animal1.png"" style=""width:200px; border:14px solid green;"">","null","","","","","",""
"","image-keyboard-response","150","94419","0.0-150.0","3Z4AIRP3C7ZJI684XAXPCBVWGDZX1V","A3NXT3OVGL7QNR","30F94FBDNR6BS3JI3VKF41RBJN4TBU","","342.09999999403954","img/animal2.png","74","343.2000000178814","1","0","3","1,0.5,0,1,0.5,0,0.5,0,1",""
"","html-keyboard-response","151","94724","0.0-151.0","3Z4AIRP3C7ZJI684XAXPCBVWGDZX1V","A3NXT3OVGL7QNR","30F94FBDNR6BS3JI3VKF41RBJN4TBU","","null","<img src=""img/animal2.png"" style=""width:200px;border:14px solid red;"">","null","","","","","",""
"","image-keyboard-response","152","95147","0.0-152.0","3Z4AIRP3C7ZJI684XAXPCBVWGDZX1V","A3NXT3OVGL7QNR","30F94FBDNR6BS3JI3VKF41RBJN4TBU","","422.09999999403954","img/animal2.png","76","423.30000001192093","3","1","3","1,0.5,0,1,0.5,0,0.5,0,1",""
"","html-keyboard-response","153","95452","0.0-153.0","3Z4AIRP3C7ZJI684XAXPCBVWGDZX1V","A3NXT3OVGL7QNR","30F94FBDNR6BS3JI3VKF41RBJN4TBU","","null","<img src=""img/animal2.png"" style=""width:200px; border:14px solid green;"">","null","","","","","",""
"","image-keyboard-response","154","96083","0.0-154.0","3Z4AIRP3C7ZJI684XAXPCBVWGDZX1V","A3NXT3OVGL7QNR","30F94FBDNR6BS3JI3VKF41RBJN4TBU","","630.0999999940395","img/animal6.png","74","631.3000000119209","1","1","1","1,0.5,0,1,0.5,0,0.5,0,1",""
"","html-keyboard-response","155","96388","0.0-155.0","3Z4AIRP3C7ZJI684XAXPCBVWGDZX1V","A3NXT3OVGL7QNR","30F94FBDNR6BS3JI3VKF41RBJN4TBU","","null","<img src=""img/animal6.png"" style=""width:200px; border:14px solid green;"">","null","","","","","",""
"","image-keyboard-response","156","96843","0.0-156.0","3Z4AIRP3C7ZJI684XAXPCBVWGDZX1V","A3NXT3OVGL7QNR","30F94FBDNR6BS3JI3VKF41RBJN4TBU","","454.30000001192093","img/animal2.png","76","455.10000002384186","3","1","3","1,0.5,0,1,0.5,0,0.5,0,1",""
"","html-keyboard-response","157","97148","0.0-157.0","3Z4AIRP3C7ZJI684XAXPCBVWGDZX1V","A3NXT3OVGL7QNR","30F94FBDNR6BS3JI3VKF41RBJN4TBU","","null","<img src=""img/animal2.png"" style=""width:200px; border:14px solid green;"">","null","","","","","",""
"","image-keyboard-response","158","97795","0.0-158.0","3Z4AIRP3C7ZJI684XAXPCBVWGDZX1V","A3NXT3OVGL7QNR","30F94FBDNR6BS3JI3VKF41RBJN4TBU","","646","img/animal6.png","74","647","1","1","1","1,0.5,0,1,0.5,0,0.5,0,1",""
"","html-keyboard-response","159","98100","0.0-159.0","3Z4AIRP3C7ZJI684XAXPCBVWGDZX1V","A3NXT3OVGL7QNR","30F94FBDNR6BS3JI3VKF41RBJN4TBU","","null","<img src=""img/animal6.png"" style=""width:200px; border:14px solid green;"">","null","","","","","",""
"","image-keyboard-response","160","98435","0.0-160.0","3Z4AIRP3C7ZJI684XAXPCBVWGDZX1V","A3NXT3OVGL7QNR","30F94FBDNR6BS3JI3VKF41RBJN4TBU","","333.90000000596046","img/animal6.png","74","335","1","1","1","1,0.5,0,1,0.5,0,0.5,0,1",""
"","html-keyboard-response","161","98740","0.0-161.0","3Z4AIRP3C7ZJI684XAXPCBVWGDZX1V","A3NXT3OVGL7QNR","30F94FBDNR6BS3JI3VKF41RBJN4TBU","","null","<img src=""img/animal6.png"" style=""width:200px; border:14px solid green;"">","null","","","","","",""
"","image-keyboard-response","162","99547","0.0-162.0","3Z4AIRP3C7ZJI684XAXPCBVWGDZX1V","A3NXT3OVGL7QNR","30F94FBDNR6BS3JI3VKF41RBJN4TBU","","805.9000000059605","img/animal2.png","76","807.0999999940395","3","1","3","1,0.5,0,1,0.5,0,0.5,0,1",""
"","html-keyboard-response","163","99852","0.0-163.0","3Z4AIRP3C7ZJI684XAXPCBVWGDZX1V","A3NXT3OVGL7QNR","30F94FBDNR6BS3JI3VKF41RBJN4TBU","","null","<img src=""img/animal2.png"" style=""width:200px; border:14px solid green;"">","null","","","","","",""
"","image-keyboard-response","164","100523","0.0-164.0","3Z4AIRP3C7ZJI684XAXPCBVWGDZX1V","A3NXT3OVGL7QNR","30F94FBDNR6BS3JI3VKF41RBJN4TBU","","669.8000000119209","img/animal6.png","74","671","1","1","1","1,0.5,0,1,0.5,0,0.5,0,1",""
"","html-keyboard-response","165","100828","0.0-165.0","3Z4AIRP3C7ZJI684XAXPCBVWGDZX1V","A3NXT3OVGL7QNR","30F94FBDNR6BS3JI3VKF41RBJN4TBU","","null","<img src=""img/animal6.png"" style=""width:200px; border:14px solid green;"">","null","","","","","",""
"","image-keyboard-response","166","101435","0.0-166.0","3Z4AIRP3C7ZJI684XAXPCBVWGDZX1V","A3NXT3OVGL7QNR","30F94FBDNR6BS3JI3VKF41RBJN4TBU","","605.8000000119209","img/animal1.png","74","606.9000000059605","1","1","2","1,0.5,0,1,0.5,0,0.5,0,1",""
"","html-keyboard-response","167","101740","0.0-167.0","3Z4AIRP3C7ZJI684XAXPCBVWGDZX1V","A3NXT3OVGL7QNR","30F94FBDNR6BS3JI3VKF41RBJN4TBU","","null","<img src=""img/animal1.png"" style=""width:200px; border:14px solid green;"">","null","","","","","",""
"","image-keyboard-response","168","102212","0.0-168.0","3Z4AIRP3C7ZJI684XAXPCBVWGDZX1V","A3NXT3OVGL7QNR","30F94FBDNR6BS3JI3VKF41RBJN4TBU","","469.7000000178814","img/animal6.png","74","470.80000001192093","1","1","1","1,0.5,0,1,0.5,0,0.5,0,1",""
"","html-keyboard-response","169","102517","0.0-169.0","3Z4AIRP3C7ZJI684XAXPCBVWGDZX1V","A3NXT3OVGL7QNR","30F94FBDNR6BS3JI3VKF41RBJN4TBU","","null","<img src=""img/animal6.png"" style=""width:200px; border:14px solid green;"">","null","","","","","",""
"","image-keyboard-response","170","102844","0.0-170.0","3Z4AIRP3C7ZJI684XAXPCBVWGDZX1V","A3NXT3OVGL7QNR","30F94FBDNR6BS3JI3VKF41RBJN4TBU","","325.59999999403954","img/animal6.png","74","326.7000000178814","1","1","1","1,0.5,0,1,0.5,0,0.5,0,1",""
"","html-keyboard-response","171","103149","0.0-171.0","3Z4AIRP3C7ZJI684XAXPCBVWGDZX1V","A3NXT3OVGL7QNR","30F94FBDNR6BS3JI3VKF41RBJN4TBU","","null","<img src=""img/animal6.png"" style=""width:200px; border:14px solid green;"">","null","","","","","",""
"","image-keyboard-response","172","103780","0.0-172.0","3Z4AIRP3C7ZJI684XAXPCBVWGDZX1V","A3NXT3OVGL7QNR","30F94FBDNR6BS3JI3VKF41RBJN4TBU","","630.0999999940395","img/animal2.png","76","631.1999999880791","3","1","3","1,0.5,0,1,0.5,0,0.5,0,1",""
"","html-keyboard-response","173","104085","0.0-173.0","3Z4AIRP3C7ZJI684XAXPCBVWGDZX1V","A3NXT3OVGL7QNR","30F94FBDNR6BS3JI3VKF41RBJN4TBU","","null","<img src=""img/animal2.png"" style=""width:200px; border:14px solid green;"">","null","","","","","",""
"","image-keyboard-response","174","104700","0.0-174.0","3Z4AIRP3C7ZJI684XAXPCBVWGDZX1V","A3NXT3OVGL7QNR","30F94FBDNR6BS3JI3VKF41RBJN4TBU","","613.4000000059605","img/animal1.png","74","614.5999999940395","1","1","2","1,0.5,0,1,0.5,0,0.5,0,1",""
"","html-keyboard-response","175","105005","0.0-175.0","3Z4AIRP3C7ZJI684XAXPCBVWGDZX1V","A3NXT3OVGL7QNR","30F94FBDNR6BS3JI3VKF41RBJN4TBU","","null","<img src=""img/animal1.png"" style=""width:200px; border:14px solid green;"">","null","","","","","",""
"","image-keyboard-response","176","105587","0.0-176.0","3Z4AIRP3C7ZJI684XAXPCBVWGDZX1V","A3NXT3OVGL7QNR","30F94FBDNR6BS3JI3VKF41RBJN4TBU","","580.5999999940395","img/animal2.png","76","581.5999999940395","3","1","3","1,0.5,0,1,0.5,0,0.5,0,1",""
"","html-keyboard-response","177","105893","0.0-177.0","3Z4AIRP3C7ZJI684XAXPCBVWGDZX1V","A3NXT3OVGL7QNR","30F94FBDNR6BS3JI3VKF41RBJN4TBU","","null","<img src=""img/animal2.png"" style=""width:200px; border:14px solid green;"">","null","","","","","",""
"","image-keyboard-response","178","106292","0.0-178.0","3Z4AIRP3C7ZJI684XAXPCBVWGDZX1V","A3NXT3OVGL7QNR","30F94FBDNR6BS3JI3VKF41RBJN4TBU","","397.30000001192093","img/animal2.png","76","398.5","3","1","3","1,0.5,0,1,0.5,0,0.5,0,1",""
"","html-keyboard-response","179","106597","0.0-179.0","3Z4AIRP3C7ZJI684XAXPCBVWGDZX1V","A3NXT3OVGL7QNR","30F94FBDNR6BS3JI3VKF41RBJN4TBU","","null","<img src=""img/animal2.png"" style=""width:200px; border:14px solid green;"">","null","","","","","",""
"","image-keyboard-response","180","106892","0.0-180.0","3Z4AIRP3C7ZJI684XAXPCBVWGDZX1V","A3NXT3OVGL7QNR","30F94FBDNR6BS3JI3VKF41RBJN4TBU","","293.09999999403954","img/animal2.png","76","294.39999997615814","3","1","3","1,0.5,0,1,0.5,0,0.5,0,1",""
"","html-keyboard-response","181","107197","0.0-181.0","3Z4AIRP3C7ZJI684XAXPCBVWGDZX1V","A3NXT3OVGL7QNR","30F94FBDNR6BS3JI3VKF41RBJN4TBU","","null","<img src=""img/animal2.png"" style=""width:200px; border:14px solid green;"">","null","","","","","",""
"","html-keyboard-response","182","108850","0.0-182.0","3Z4AIRP3C7ZJI684XAXPCBVWGDZX1V","A3NXT3OVGL7QNR","30F94FBDNR6BS3JI3VKF41RBJN4TBU","","","","","","","","","",""
"","image-keyboard-response","183","110716","0.0-183.0","3Z4AIRP3C7ZJI684XAXPCBVWGDZX1V","A3NXT3OVGL7QNR","30F94FBDNR6BS3JI3VKF41RBJN4TBU","","1864.7999999821186","img/animal4.png","75","1866","2","1","2","1,0.5,0,0,1,0.5,0.5,0,1",""
"","html-keyboard-response","184","111021","0.0-184.0","3Z4AIRP3C7ZJI684XAXPCBVWGDZX1V","A3NXT3OVGL7QNR","30F94FBDNR6BS3JI3VKF41RBJN4TBU","","null","<img src=""img/animal4.png"" style=""width:200px; border:14px solid green;"">","null","","","","","",""
"","image-keyboard-response","185","112132","0.0-185.0","3Z4AIRP3C7ZJI684XAXPCBVWGDZX1V","A3NXT3OVGL7QNR","30F94FBDNR6BS3JI3VKF41RBJN4TBU","","1109.2000000178814","img/animal5.png","76","1110.2999999821186","3","0","1","1,0.5,0,0,1,0.5,0.5,0,1",""
"","html-keyboard-response","186","112437","0.0-186.0","3Z4AIRP3C7ZJI684XAXPCBVWGDZX1V","A3NXT3OVGL7QNR","30F94FBDNR6BS3JI3VKF41RBJN4TBU","","null","<img src=""img/animal5.png"" style=""width:200px;border:14px solid red;"">","null","","","","","",""
"","image-keyboard-response","187","113964","0.0-187.0","3Z4AIRP3C7ZJI684XAXPCBVWGDZX1V","A3NXT3OVGL7QNR","30F94FBDNR6BS3JI3VKF41RBJN4TBU","","1525.2999999821186","img/animal3.png","76","1526.5","3","1","3","1,0.5,0,0,1,0.5,0.5,0,1",""
"","html-keyboard-response","188","114269","0.0-188.0","3Z4AIRP3C7ZJI684XAXPCBVWGDZX1V","A3NXT3OVGL7QNR","30F94FBDNR6BS3JI3VKF41RBJN4TBU","","null","<img src=""img/animal3.png"" style=""width:200px; border:14px solid green;"">","null","","","","","",""
"","image-keyboard-response","189","114812","0.0-189.0","3Z4AIRP3C7ZJI684XAXPCBVWGDZX1V","A3NXT3OVGL7QNR","30F94FBDNR6BS3JI3VKF41RBJN4TBU","","540.6999999880791","img/animal3.png","76","541.9000000059605","3","1","3","1,0.5,0,0,1,0.5,0.5,0,1",""
"","html-keyboard-response","190","115117","0.0-190.0","3Z4AIRP3C7ZJI684XAXPCBVWGDZX1V","A3NXT3OVGL7QNR","30F94FBDNR6BS3JI3VKF41RBJN4TBU","","null","<img src=""img/animal3.png"" style=""width:200px; border:14px solid green;"">","null","","","","","",""
"","image-keyboard-response","191","116156","0.0-191.0","3Z4AIRP3C7ZJI684XAXPCBVWGDZX1V","A3NXT3OVGL7QNR","30F94FBDNR6BS3JI3VKF41RBJN4TBU","","1036.699999988079","img/animal5.png","75","1038","2","0","1","1,0.5,0,0,1,0.5,0.5,0,1",""
"","html-keyboard-response","192","116461","0.0-192.0","3Z4AIRP3C7ZJI684XAXPCBVWGDZX1V","A3NXT3OVGL7QNR","30F94FBDNR6BS3JI3VKF41RBJN4TBU","","null","<img src=""img/animal5.png"" style=""width:200px;border:14px solid red;"">","null","","","","","",""
"","image-keyboard-response","193","117044","0.0-193.0","3Z4AIRP3C7ZJI684XAXPCBVWGDZX1V","A3NXT3OVGL7QNR","30F94FBDNR6BS3JI3VKF41RBJN4TBU","","581.5999999940395","img/animal3.png","76","582.8000000119209","3","1","3","1,0.5,0,0,1,0.5,0.5,0,1",""
"","html-keyboard-response","194","117349","0.0-194.0","3Z4AIRP3C7ZJI684XAXPCBVWGDZX1V","A3NXT3OVGL7QNR","30F94FBDNR6BS3JI3VKF41RBJN4TBU","","null","<img src=""img/animal3.png"" style=""width:200px; border:14px solid green;"">","null","","","","","",""
"","image-keyboard-response","195","117788","0.0-195.0","3Z4AIRP3C7ZJI684XAXPCBVWGDZX1V","A3NXT3OVGL7QNR","30F94FBDNR6BS3JI3VKF41RBJN4TBU","","438.09999999403954","img/animal5.png","74","439","1","1","1","1,0.5,0,0,1,0.5,0.5,0,1",""
"","html-keyboard-response","196","118093","0.0-196.0","3Z4AIRP3C7ZJI684XAXPCBVWGDZX1V","A3NXT3OVGL7QNR","30F94FBDNR6BS3JI3VKF41RBJN4TBU","","null","<img src=""img/animal5.png"" style=""width:200px; border:14px solid green;"">","null","","","","","",""
"","image-keyboard-response","197","118644","0.0-197.0","3Z4AIRP3C7ZJI684XAXPCBVWGDZX1V","A3NXT3OVGL7QNR","30F94FBDNR6BS3JI3VKF41RBJN4TBU","","549.5","img/animal4.png","75","550.7000000178814","2","1","2","1,0.5,0,0,1,0.5,0.5,0,1",""
"","html-keyboard-response","198","118949","0.0-198.0","3Z4AIRP3C7ZJI684XAXPCBVWGDZX1V","A3NXT3OVGL7QNR","30F94FBDNR6BS3JI3VKF41RBJN4TBU","","null","<img src=""img/animal4.png"" style=""width:200px; border:14px solid green;"">","null","","","","","",""
"","image-keyboard-response","199","119819","0.0-199.0","3Z4AIRP3C7ZJI684XAXPCBVWGDZX1V","A3NXT3OVGL7QNR","30F94FBDNR6BS3JI3VKF41RBJN4TBU","","869.4000000059605","img/animal3.png","76","870.6000000238419","3","1","3","1,0.5,0,0,1,0.5,0.5,0,1",""
"","html-keyboard-response","200","120125","0.0-200.0","3Z4AIRP3C7ZJI684XAXPCBVWGDZX1V","A3NXT3OVGL7QNR","30F94FBDNR6BS3JI3VKF41RBJN4TBU","","null","<img src=""img/animal3.png"" style=""width:200px; border:14px solid green;"">","null","","","","","",""
"","image-keyboard-response","201","120836","0.0-201.0","3Z4AIRP3C7ZJI684XAXPCBVWGDZX1V","A3NXT3OVGL7QNR","30F94FBDNR6BS3JI3VKF41RBJN4TBU","","709.5","img/animal5.png","74","710.7000000178814","1","1","1","1,0.5,0,0,1,0.5,0.5,0,1",""
"","html-keyboard-response","202","121141","0.0-202.0","3Z4AIRP3C7ZJI684XAXPCBVWGDZX1V","A3NXT3OVGL7QNR","30F94FBDNR6BS3JI3VKF41RBJN4TBU","","null","<img src=""img/animal5.png"" style=""width:200px; border:14px solid green;"">","null","","","","","",""
"","image-keyboard-response","203","121587","0.0-203.0","3Z4AIRP3C7ZJI684XAXPCBVWGDZX1V","A3NXT3OVGL7QNR","30F94FBDNR6BS3JI3VKF41RBJN4TBU","","445.40000000596046","img/animal4.png","75","446.5","2","1","2","1,0.5,0,0,1,0.5,0.5,0,1",""
"","html-keyboard-response","204","121893","0.0-204.0","3Z4AIRP3C7ZJI684XAXPCBVWGDZX1V","A3NXT3OVGL7QNR","30F94FBDNR6BS3JI3VKF41RBJN4TBU","","null","<img src=""img/animal4.png"" style=""width:200px; border:14px solid green;"">","null","","","","","",""
"","image-keyboard-response","205","122347","0.0-205.0","3Z4AIRP3C7ZJI684XAXPCBVWGDZX1V","A3NXT3OVGL7QNR","30F94FBDNR6BS3JI3VKF41RBJN4TBU","","453.40000000596046","img/animal4.png","75","454.59999999403954","2","1","2","1,0.5,0,0,1,0.5,0.5,0,1",""
"","html-keyboard-response","206","122653","0.0-206.0","3Z4AIRP3C7ZJI684XAXPCBVWGDZX1V","A3NXT3OVGL7QNR","30F94FBDNR6BS3JI3VKF41RBJN4TBU","","null","<img src=""img/animal4.png"" style=""width:200px; border:14px solid green;"">","null","","","","","",""
"","image-keyboard-response","207","123219","0.0-207.0","3Z4AIRP3C7ZJI684XAXPCBVWGDZX1V","A3NXT3OVGL7QNR","30F94FBDNR6BS3JI3VKF41RBJN4TBU","","565.2000000178814","img/animal5.png","74","566.4000000059605","1","1","1","1,0.5,0,0,1,0.5,0.5,0,1",""
"","html-keyboard-response","208","123525","0.0-208.0","3Z4AIRP3C7ZJI684XAXPCBVWGDZX1V","A3NXT3OVGL7QNR","30F94FBDNR6BS3JI3VKF41RBJN4TBU","","null","<img src=""img/animal5.png"" style=""width:200px; border:14px solid green;"">","null","","","","","",""
"","image-keyboard-response","209","124164","0.0-209.0","3Z4AIRP3C7ZJI684XAXPCBVWGDZX1V","A3NXT3OVGL7QNR","30F94FBDNR6BS3JI3VKF41RBJN4TBU","","637.8000000119209","img/animal3.png","76","639","3","1","3","1,0.5,0,0,1,0.5,0.5,0,1",""
"","html-keyboard-response","210","124469","0.0-210.0","3Z4AIRP3C7ZJI684XAXPCBVWGDZX1V","A3NXT3OVGL7QNR","30F94FBDNR6BS3JI3VKF41RBJN4TBU","","null","<img src=""img/animal3.png"" style=""width:200px; border:14px solid green;"">","null","","","","","",""
"","image-keyboard-response","211","125107","0.0-211.0","3Z4AIRP3C7ZJI684XAXPCBVWGDZX1V","A3NXT3OVGL7QNR","30F94FBDNR6BS3JI3VKF41RBJN4TBU","","637","img/animal5.png","74","638.2999999821186","1","1","1","1,0.5,0,0,1,0.5,0.5,0,1",""
"","html-keyboard-response","212","125413","0.0-212.0","3Z4AIRP3C7ZJI684XAXPCBVWGDZX1V","A3NXT3OVGL7QNR","30F94FBDNR6BS3JI3VKF41RBJN4TBU","","null","<img src=""img/animal5.png"" style=""width:200px; border:14px solid green;"">","null","","","","","",""
"","image-keyboard-response","213","125916","0.0-213.0","3Z4AIRP3C7ZJI684XAXPCBVWGDZX1V","A3NXT3OVGL7QNR","30F94FBDNR6BS3JI3VKF41RBJN4TBU","","501.19999998807907","img/animal5.png","74","502.40000000596046","1","1","1","1,0.5,0,0,1,0.5,0.5,0,1",""
"","html-keyboard-response","214","126221","0.0-214.0","3Z4AIRP3C7ZJI684XAXPCBVWGDZX1V","A3NXT3OVGL7QNR","30F94FBDNR6BS3JI3VKF41RBJN4TBU","","null","<img src=""img/animal5.png"" style=""width:200px; border:14px solid green;"">","null","","","","","",""
"","image-keyboard-response","215","126843","0.0-215.0","3Z4AIRP3C7ZJI684XAXPCBVWGDZX1V","A3NXT3OVGL7QNR","30F94FBDNR6BS3JI3VKF41RBJN4TBU","","620.9000000059605","img/animal4.png","75","622.0999999940395","2","1","2","1,0.5,0,0,1,0.5,0.5,0,1",""
"","html-keyboard-response","216","127149","0.0-216.0","3Z4AIRP3C7ZJI684XAXPCBVWGDZX1V","A3NXT3OVGL7QNR","30F94FBDNR6BS3JI3VKF41RBJN4TBU","","null","<img src=""img/animal4.png"" style=""width:200px; border:14px solid green;"">","null","","","","","",""
"","image-keyboard-response","217","127699","0.0-217.0","3Z4AIRP3C7ZJI684XAXPCBVWGDZX1V","A3NXT3OVGL7QNR","30F94FBDNR6BS3JI3VKF41RBJN4TBU","","549.0999999940395","img/animal3.png","75","550.3000000119209","2","0","3","1,0.5,0,0,1,0.5,0.5,0,1",""
"","html-keyboard-response","218","128005","0.0-218.0","3Z4AIRP3C7ZJI684XAXPCBVWGDZX1V","A3NXT3OVGL7QNR","30F94FBDNR6BS3JI3VKF41RBJN4TBU","","null","<img src=""img/animal3.png"" style=""width:200px;border:14px solid red;"">","null","","","","","",""
"","image-keyboard-response","219","128595","0.0-219.0","3Z4AIRP3C7ZJI684XAXPCBVWGDZX1V","A3NXT3OVGL7QNR","30F94FBDNR6BS3JI3VKF41RBJN4TBU","","588.9000000059605","img/animal5.png","74","590","1","1","1","1,0.5,0,0,1,0.5,0.5,0,1",""
"","html-keyboard-response","220","128901","0.0-220.0","3Z4AIRP3C7ZJI684XAXPCBVWGDZX1V","A3NXT3OVGL7QNR","30F94FBDNR6BS3JI3VKF41RBJN4TBU","","null","<img src=""img/animal5.png"" style=""width:200px; border:14px solid green;"">","null","","","","","",""
"","image-keyboard-response","221","129971","0.0-221.0","3Z4AIRP3C7ZJI684XAXPCBVWGDZX1V","A3NXT3OVGL7QNR","30F94FBDNR6BS3JI3VKF41RBJN4TBU","","1069","img/animal4.png","75","1070.1000000238419","2","1","2","1,0.5,0,0,1,0.5,0.5,0,1",""
"","html-keyboard-response","222","130277","0.0-222.0","3Z4AIRP3C7ZJI684XAXPCBVWGDZX1V","A3NXT3OVGL7QNR","30F94FBDNR6BS3JI3VKF41RBJN4TBU","","null","<img src=""img/animal4.png"" style=""width:200px; border:14px solid green;"">","null","","","","","",""
"","image-keyboard-response","223","131051","0.0-223.0","3Z4AIRP3C7ZJI684XAXPCBVWGDZX1V","A3NXT3OVGL7QNR","30F94FBDNR6BS3JI3VKF41RBJN4TBU","","772.4000000059605","img/animal4.png","75","773.5","2","1","2","1,0.5,0,0,1,0.5,0.5,0,1",""
"","html-keyboard-response","224","131357","0.0-224.0","3Z4AIRP3C7ZJI684XAXPCBVWGDZX1V","A3NXT3OVGL7QNR","30F94FBDNR6BS3JI3VKF41RBJN4TBU","","null","<img src=""img/animal4.png"" style=""width:200px; border:14px solid green;"">","null","","","","","",""
"","image-keyboard-response","225","131731","0.0-225.0","3Z4AIRP3C7ZJI684XAXPCBVWGDZX1V","A3NXT3OVGL7QNR","30F94FBDNR6BS3JI3VKF41RBJN4TBU","","372.5","img/animal4.png","75","374","2","1","2","1,0.5,0,0,1,0.5,0.5,0,1",""
"","html-keyboard-response","226","132037","0.0-226.0","3Z4AIRP3C7ZJI684XAXPCBVWGDZX1V","A3NXT3OVGL7QNR","30F94FBDNR6BS3JI3VKF41RBJN4TBU","","null","<img src=""img/animal4.png"" style=""width:200px; border:14px solid green;"">","null","","","","","",""
"","image-keyboard-response","227","132627","0.0-227.0","3Z4AIRP3C7ZJI684XAXPCBVWGDZX1V","A3NXT3OVGL7QNR","30F94FBDNR6BS3JI3VKF41RBJN4TBU","","588.7000000178814","img/animal3.png","76","589.8999999761581","3","1","3","1,0.5,0,0,1,0.5,0.5,0,1",""
"","html-keyboard-response","228","132933","0.0-228.0","3Z4AIRP3C7ZJI684XAXPCBVWGDZX1V","A3NXT3OVGL7QNR","30F94FBDNR6BS3JI3VKF41RBJN4TBU","","null","<img src=""img/animal3.png"" style=""width:200px; border:14px solid green;"">","null","","","","","",""
"","image-keyboard-response","229","133259","0.0-229.0","3Z4AIRP3C7ZJI684XAXPCBVWGDZX1V","A3NXT3OVGL7QNR","30F94FBDNR6BS3JI3VKF41RBJN4TBU","","324.40000000596046","img/animal3.png","76","325.7999999821186","3","1","3","1,0.5,0,0,1,0.5,0.5,0,1",""
"","html-keyboard-response","230","133565","0.0-230.0","3Z4AIRP3C7ZJI684XAXPCBVWGDZX1V","A3NXT3OVGL7QNR","30F94FBDNR6BS3JI3VKF41RBJN4TBU","","null","<img src=""img/animal3.png"" style=""width:200px; border:14px solid green;"">","null","","","","","",""
"","image-keyboard-response","231","134236","0.0-231.0","3Z4AIRP3C7ZJI684XAXPCBVWGDZX1V","A3NXT3OVGL7QNR","30F94FBDNR6BS3JI3VKF41RBJN4TBU","","669.2000000178814","img/animal5.png","74","670.6000000238419","1","1","1","1,0.5,0,0,1,0.5,0.5,0,1",""
"","html-keyboard-response","232","134541","0.0-232.0","3Z4AIRP3C7ZJI684XAXPCBVWGDZX1V","A3NXT3OVGL7QNR","30F94FBDNR6BS3JI3VKF41RBJN4TBU","","null","<img src=""img/animal5.png"" style=""width:200px; border:14px solid green;"">","null","","","","","",""
"","image-keyboard-response","233","134907","0.0-233.0","3Z4AIRP3C7ZJI684XAXPCBVWGDZX1V","A3NXT3OVGL7QNR","30F94FBDNR6BS3JI3VKF41RBJN4TBU","","364.5","img/animal5.png","74","365.7999999821186","1","1","1","1,0.5,0,0,1,0.5,0.5,0,1",""
"","html-keyboard-response","234","135213","0.0-234.0","3Z4AIRP3C7ZJI684XAXPCBVWGDZX1V","A3NXT3OVGL7QNR","30F94FBDNR6BS3JI3VKF41RBJN4TBU","","null","<img src=""img/animal5.png"" style=""width:200px; border:14px solid green;"">","null","","","","","",""
"","image-keyboard-response","235","135531","0.0-235.0","3Z4AIRP3C7ZJI684XAXPCBVWGDZX1V","A3NXT3OVGL7QNR","30F94FBDNR6BS3JI3VKF41RBJN4TBU","","316.5","img/animal5.png","74","317.7999999821186","1","1","1","1,0.5,0,0,1,0.5,0.5,0,1",""
"","html-keyboard-response","236","135837","0.0-236.0","3Z4AIRP3C7ZJI684XAXPCBVWGDZX1V","A3NXT3OVGL7QNR","30F94FBDNR6BS3JI3VKF41RBJN4TBU","","null","<img src=""img/animal5.png"" style=""width:200px; border:14px solid green;"">","null","","","","","",""
"","image-keyboard-response","237","136459","0.0-237.0","3Z4AIRP3C7ZJI684XAXPCBVWGDZX1V","A3NXT3OVGL7QNR","30F94FBDNR6BS3JI3VKF41RBJN4TBU","","620.5","img/animal3.png","76","621.6999999880791","3","1","3","1,0.5,0,0,1,0.5,0.5,0,1",""
"","html-keyboard-response","238","136765","0.0-238.0","3Z4AIRP3C7ZJI684XAXPCBVWGDZX1V","A3NXT3OVGL7QNR","30F94FBDNR6BS3JI3VKF41RBJN4TBU","","null","<img src=""img/animal3.png"" style=""width:200px; border:14px solid green;"">","null","","","","","",""
"","image-keyboard-response","239","137107","0.0-239.0","3Z4AIRP3C7ZJI684XAXPCBVWGDZX1V","A3NXT3OVGL7QNR","30F94FBDNR6BS3JI3VKF41RBJN4TBU","","340.30000001192093","img/animal3.png","76","341.5","3","1","3","1,0.5,0,0,1,0.5,0.5,0,1",""
"","html-keyboard-response","240","137413","0.0-240.0","3Z4AIRP3C7ZJI684XAXPCBVWGDZX1V","A3NXT3OVGL7QNR","30F94FBDNR6BS3JI3VKF41RBJN4TBU","","null","<img src=""img/animal3.png"" style=""width:200px; border:14px solid green;"">","null","","","","","",""
"","image-keyboard-response","241","137947","0.0-241.0","3Z4AIRP3C7ZJI684XAXPCBVWGDZX1V","A3NXT3OVGL7QNR","30F94FBDNR6BS3JI3VKF41RBJN4TBU","","532.5","img/animal5.png","74","533.5","1","1","1","1,0.5,0,0,1,0.5,0.5,0,1",""
"","html-keyboard-response","242","138253","0.0-242.0","3Z4AIRP3C7ZJI684XAXPCBVWGDZX1V","A3NXT3OVGL7QNR","30F94FBDNR6BS3JI3VKF41RBJN4TBU","","null","<img src=""img/animal5.png"" style=""width:200px; border:14px solid green;"">","null","","","","","",""
"","image-keyboard-response","243","138827","0.0-243.0","3Z4AIRP3C7ZJI684XAXPCBVWGDZX1V","A3NXT3OVGL7QNR","30F94FBDNR6BS3JI3VKF41RBJN4TBU","","572.1999999880791","img/animal3.png","76","573.4000000059605","3","1","3","1,0.5,0,0,1,0.5,0.5,0,1",""
"","html-keyboard-response","244","139133","0.0-244.0","3Z4AIRP3C7ZJI684XAXPCBVWGDZX1V","A3NXT3OVGL7QNR","30F94FBDNR6BS3JI3VKF41RBJN4TBU","","null","<img src=""img/animal3.png"" style=""width:200px; border:14px solid green;"">","null","","","","","",""
"","image-keyboard-response","245","139467","0.0-245.0","3Z4AIRP3C7ZJI684XAXPCBVWGDZX1V","A3NXT3OVGL7QNR","30F94FBDNR6BS3JI3VKF41RBJN4TBU","","332.2999999821186","img/animal3.png","76","333.40000000596046","3","1","3","1,0.5,0,0,1,0.5,0.5,0,1",""
"","html-keyboard-response","246","139773","0.0-246.0","3Z4AIRP3C7ZJI684XAXPCBVWGDZX1V","A3NXT3OVGL7QNR","30F94FBDNR6BS3JI3VKF41RBJN4TBU","","null","<img src=""img/animal3.png"" style=""width:200px; border:14px solid green;"">","null","","","","","",""
"","image-keyboard-response","247","140323","0.0-247.0","3Z4AIRP3C7ZJI684XAXPCBVWGDZX1V","A3NXT3OVGL7QNR","30F94FBDNR6BS3JI3VKF41RBJN4TBU","","548.1999999880791","img/animal5.png","74","549.4000000059605","1","1","1","1,0.5,0,0,1,0.5,0.5,0,1",""
"","html-keyboard-response","248","140628","0.0-248.0","3Z4AIRP3C7ZJI684XAXPCBVWGDZX1V","A3NXT3OVGL7QNR","30F94FBDNR6BS3JI3VKF41RBJN4TBU","","null","<img src=""img/animal5.png"" style=""width:200px; border:14px solid green;"">","null","","","","","",""
"","image-keyboard-response","249","141195","0.0-249.0","3Z4AIRP3C7ZJI684XAXPCBVWGDZX1V","A3NXT3OVGL7QNR","30F94FBDNR6BS3JI3VKF41RBJN4TBU","","565.1999999880791","img/animal4.png","75","566.4000000059605","2","1","2","1,0.5,0,0,1,0.5,0.5,0,1",""
"","html-keyboard-response","250","141500","0.0-250.0","3Z4AIRP3C7ZJI684XAXPCBVWGDZX1V","A3NXT3OVGL7QNR","30F94FBDNR6BS3JI3VKF41RBJN4TBU","","null","<img src=""img/animal4.png"" style=""width:200px; border:14px solid green;"">","null","","","","","",""
"","image-keyboard-response","251","142147","0.0-251.0","3Z4AIRP3C7ZJI684XAXPCBVWGDZX1V","A3NXT3OVGL7QNR","30F94FBDNR6BS3JI3VKF41RBJN4TBU","","645.0999999940395","img/animal3.png","76","646.2000000178814","3","1","3","1,0.5,0,0,1,0.5,0.5,0,1",""
"","html-keyboard-response","252","142453","0.0-252.0","3Z4AIRP3C7ZJI684XAXPCBVWGDZX1V","A3NXT3OVGL7QNR","30F94FBDNR6BS3JI3VKF41RBJN4TBU","","null","<img src=""img/animal3.png"" style=""width:200px; border:14px solid green;"">","null","","","","","",""
"","image-keyboard-response","253","143099","0.0-253.0","3Z4AIRP3C7ZJI684XAXPCBVWGDZX1V","A3NXT3OVGL7QNR","30F94FBDNR6BS3JI3VKF41RBJN4TBU","","645.2999999821186","img/animal4.png","75","646.3000000119209","2","1","2","1,0.5,0,0,1,0.5,0.5,0,1",""
"","html-keyboard-response","254","143405","0.0-254.0","3Z4AIRP3C7ZJI684XAXPCBVWGDZX1V","A3NXT3OVGL7QNR","30F94FBDNR6BS3JI3VKF41RBJN4TBU","","null","<img src=""img/animal4.png"" style=""width:200px; border:14px solid green;"">","null","","","","","",""
"","image-keyboard-response","255","143819","0.0-255.0","3Z4AIRP3C7ZJI684XAXPCBVWGDZX1V","A3NXT3OVGL7QNR","30F94FBDNR6BS3JI3VKF41RBJN4TBU","","413","img/animal4.png","75","414.10000002384186","2","1","2","1,0.5,0,0,1,0.5,0.5,0,1",""
"","html-keyboard-response","256","144125","0.0-256.0","3Z4AIRP3C7ZJI684XAXPCBVWGDZX1V","A3NXT3OVGL7QNR","30F94FBDNR6BS3JI3VKF41RBJN4TBU","","null","<img src=""img/animal4.png"" style=""width:200px; border:14px solid green;"">","null","","","","","",""
"","image-keyboard-response","257","144443","0.0-257.0","3Z4AIRP3C7ZJI684XAXPCBVWGDZX1V","A3NXT3OVGL7QNR","30F94FBDNR6BS3JI3VKF41RBJN4TBU","","317.5","img/animal4.png","75","318.60000002384186","2","1","2","1,0.5,0,0,1,0.5,0.5,0,1",""
"","html-keyboard-response","258","144749","0.0-258.0","3Z4AIRP3C7ZJI684XAXPCBVWGDZX1V","A3NXT3OVGL7QNR","30F94FBDNR6BS3JI3VKF41RBJN4TBU","","null","<img src=""img/animal4.png"" style=""width:200px; border:14px solid green;"">","null","","","","","",""
"","image-keyboard-response","259","145315","0.0-259.0","3Z4AIRP3C7ZJI684XAXPCBVWGDZX1V","A3NXT3OVGL7QNR","30F94FBDNR6BS3JI3VKF41RBJN4TBU","","565","img/animal3.png","76","566.2000000178814","3","1","3","1,0.5,0,0,1,0.5,0.5,0,1",""
"","html-keyboard-response","260","145621","0.0-260.0","3Z4AIRP3C7ZJI684XAXPCBVWGDZX1V","A3NXT3OVGL7QNR","30F94FBDNR6BS3JI3VKF41RBJN4TBU","","null","<img src=""img/animal3.png"" style=""width:200px; border:14px solid green;"">","null","","","","","",""
"","image-keyboard-response","261","146131","0.0-261.0","3Z4AIRP3C7ZJI684XAXPCBVWGDZX1V","A3NXT3OVGL7QNR","30F94FBDNR6BS3JI3VKF41RBJN4TBU","","508.90000000596046","img/animal4.png","75","510","2","1","2","1,0.5,0,0,1,0.5,0.5,0,1",""
"","html-keyboard-response","262","146437","0.0-262.0","3Z4AIRP3C7ZJI684XAXPCBVWGDZX1V","A3NXT3OVGL7QNR","30F94FBDNR6BS3JI3VKF41RBJN4TBU","","null","<img src=""img/animal4.png"" style=""width:200px; border:14px solid green;"">","null","","","","","",""
"","image-keyboard-response","263","146795","0.0-263.0","3Z4AIRP3C7ZJI684XAXPCBVWGDZX1V","A3NXT3OVGL7QNR","30F94FBDNR6BS3JI3VKF41RBJN4TBU","","356.7000000178814","img/animal4.png","75","358","2","1","2","1,0.5,0,0,1,0.5,0.5,0,1",""
"","html-keyboard-response","264","147101","0.0-264.0","3Z4AIRP3C7ZJI684XAXPCBVWGDZX1V","A3NXT3OVGL7QNR","30F94FBDNR6BS3JI3VKF41RBJN4TBU","","null","<img src=""img/animal4.png"" style=""width:200px; border:14px solid green;"">","null","","","","","",""
"","image-keyboard-response","265","147699","0.0-265.0","3Z4AIRP3C7ZJI684XAXPCBVWGDZX1V","A3NXT3OVGL7QNR","30F94FBDNR6BS3JI3VKF41RBJN4TBU","","596.9000000059605","img/animal5.png","74","598","1","1","1","1,0.5,0,0,1,0.5,0.5,0,1",""
"","html-keyboard-response","266","148005","0.0-266.0","3Z4AIRP3C7ZJI684XAXPCBVWGDZX1V","A3NXT3OVGL7QNR","30F94FBDNR6BS3JI3VKF41RBJN4TBU","","null","<img src=""img/animal5.png"" style=""width:200px; border:14px solid green;"">","null","","","","","",""
"","image-keyboard-response","267","148627","0.0-267.0","3Z4AIRP3C7ZJI684XAXPCBVWGDZX1V","A3NXT3OVGL7QNR","30F94FBDNR6BS3JI3VKF41RBJN4TBU","","620.7000000178814","img/animal3.png","76","621.7999999821186","3","1","3","1,0.5,0,0,1,0.5,0.5,0,1",""
"","html-keyboard-response","268","148933","0.0-268.0","3Z4AIRP3C7ZJI684XAXPCBVWGDZX1V","A3NXT3OVGL7QNR","30F94FBDNR6BS3JI3VKF41RBJN4TBU","","null","<img src=""img/animal3.png"" style=""width:200px; border:14px solid green;"">","null","","","","","",""
"","image-keyboard-response","269","149491","0.0-269.0","3Z4AIRP3C7ZJI684XAXPCBVWGDZX1V","A3NXT3OVGL7QNR","30F94FBDNR6BS3JI3VKF41RBJN4TBU","","556.6000000238419","img/animal4.png","75","557.7999999821186","2","1","2","1,0.5,0,0,1,0.5,0.5,0,1",""
"","html-keyboard-response","270","149797","0.0-270.0","3Z4AIRP3C7ZJI684XAXPCBVWGDZX1V","A3NXT3OVGL7QNR","30F94FBDNR6BS3JI3VKF41RBJN4TBU","","null","<img src=""img/animal4.png"" style=""width:200px; border:14px solid green;"">","null","","","","","",""
"","image-keyboard-response","271","150155","0.0-271.0","3Z4AIRP3C7ZJI684XAXPCBVWGDZX1V","A3NXT3OVGL7QNR","30F94FBDNR6BS3JI3VKF41RBJN4TBU","","356.5","img/animal4.png","75","357.7999999821186","2","1","2","1,0.5,0,0,1,0.5,0.5,0,1",""
"","html-keyboard-response","272","150461","0.0-272.0","3Z4AIRP3C7ZJI684XAXPCBVWGDZX1V","A3NXT3OVGL7QNR","30F94FBDNR6BS3JI3VKF41RBJN4TBU","","null","<img src=""img/animal4.png"" style=""width:200px; border:14px solid green;"">","null","","","","","",""
"","image-keyboard-response","273","151082","0.0-273.0","3Z4AIRP3C7ZJI684XAXPCBVWGDZX1V","A3NXT3OVGL7QNR","30F94FBDNR6BS3JI3VKF41RBJN4TBU","","620.3000000119209","img/animal3.png","76","621.1999999880791","3","1","3","1,0.5,0,0,1,0.5,0.5,0,1",""
"","html-keyboard-response","274","151389","0.0-274.0","3Z4AIRP3C7ZJI684XAXPCBVWGDZX1V","A3NXT3OVGL7QNR","30F94FBDNR6BS3JI3VKF41RBJN4TBU","","null","<img src=""img/animal3.png"" style=""width:200px; border:14px solid green;"">","null","","","","","",""
"","image-keyboard-response","275","151939","0.0-275.0","3Z4AIRP3C7ZJI684XAXPCBVWGDZX1V","A3NXT3OVGL7QNR","30F94FBDNR6BS3JI3VKF41RBJN4TBU","","548.3999999761581","img/animal5.png","74","549.5","1","1","1","1,0.5,0,0,1,0.5,0.5,0,1",""
"","html-keyboard-response","276","152245","0.0-276.0","3Z4AIRP3C7ZJI684XAXPCBVWGDZX1V","A3NXT3OVGL7QNR","30F94FBDNR6BS3JI3VKF41RBJN4TBU","","null","<img src=""img/animal5.png"" style=""width:200px; border:14px solid green;"">","null","","","","","",""
"","image-keyboard-response","277","152915","0.0-277.0","3Z4AIRP3C7ZJI684XAXPCBVWGDZX1V","A3NXT3OVGL7QNR","30F94FBDNR6BS3JI3VKF41RBJN4TBU","","668.2999999821186","img/animal4.png","75","669.5","2","1","2","1,0.5,0,0,1,0.5,0.5,0,1",""
"","html-keyboard-response","278","153221","0.0-278.0","3Z4AIRP3C7ZJI684XAXPCBVWGDZX1V","A3NXT3OVGL7QNR","30F94FBDNR6BS3JI3VKF41RBJN4TBU","","null","<img src=""img/animal4.png"" style=""width:200px; border:14px solid green;"">","null","","","","","",""
"","image-keyboard-response","279","153811","0.0-279.0","3Z4AIRP3C7ZJI684XAXPCBVWGDZX1V","A3NXT3OVGL7QNR","30F94FBDNR6BS3JI3VKF41RBJN4TBU","","588.4000000059605","img/animal3.png","76","589.5","3","1","3","1,0.5,0,0,1,0.5,0.5,0,1",""
"","html-keyboard-response","280","154117","0.0-280.0","3Z4AIRP3C7ZJI684XAXPCBVWGDZX1V","A3NXT3OVGL7QNR","30F94FBDNR6BS3JI3VKF41RBJN4TBU","","null","<img src=""img/animal3.png"" style=""width:200px; border:14px solid green;"">","null","","","","","",""
"","image-keyboard-response","281","154731","0.0-281.0","3Z4AIRP3C7ZJI684XAXPCBVWGDZX1V","A3NXT3OVGL7QNR","30F94FBDNR6BS3JI3VKF41RBJN4TBU","","613","img/animal4.png","75","614.2000000178814","2","1","2","1,0.5,0,0,1,0.5,0.5,0,1",""
"","html-keyboard-response","282","155037","0.0-282.0","3Z4AIRP3C7ZJI684XAXPCBVWGDZX1V","A3NXT3OVGL7QNR","30F94FBDNR6BS3JI3VKF41RBJN4TBU","","null","<img src=""img/animal4.png"" style=""width:200px; border:14px solid green;"">","null","","","","","",""
"","image-keyboard-response","283","155787","0.0-283.0","3Z4AIRP3C7ZJI684XAXPCBVWGDZX1V","A3NXT3OVGL7QNR","30F94FBDNR6BS3JI3VKF41RBJN4TBU","","748.7999999821186","img/animal3.png","76","749.5","3","1","3","1,0.5,0,0,1,0.5,0.5,0,1",""
"","html-keyboard-response","284","156093","0.0-284.0","3Z4AIRP3C7ZJI684XAXPCBVWGDZX1V","A3NXT3OVGL7QNR","30F94FBDNR6BS3JI3VKF41RBJN4TBU","","null","<img src=""img/animal3.png"" style=""width:200px; border:14px solid green;"">","null","","","","","",""
"","image-keyboard-response","285","156803","0.0-285.0","3Z4AIRP3C7ZJI684XAXPCBVWGDZX1V","A3NXT3OVGL7QNR","30F94FBDNR6BS3JI3VKF41RBJN4TBU","","708.1999999880791","img/animal3.png","76","709.2000000178814","3","1","3","1,0.5,0,0,1,0.5,0.5,0,1",""
"","html-keyboard-response","286","157109","0.0-286.0","3Z4AIRP3C7ZJI684XAXPCBVWGDZX1V","A3NXT3OVGL7QNR","30F94FBDNR6BS3JI3VKF41RBJN4TBU","","null","<img src=""img/animal3.png"" style=""width:200px; border:14px solid green;"">","null","","","","","",""
"","image-keyboard-response","287","158219","0.0-287.0","3Z4AIRP3C7ZJI684XAXPCBVWGDZX1V","A3NXT3OVGL7QNR","30F94FBDNR6BS3JI3VKF41RBJN4TBU","","1108.0999999940395","img/animal4.png","75","1109.4000000059605","2","1","2","1,0.5,0,0,1,0.5,0.5,0,1",""
"","html-keyboard-response","288","158525","0.0-288.0","3Z4AIRP3C7ZJI684XAXPCBVWGDZX1V","A3NXT3OVGL7QNR","30F94FBDNR6BS3JI3VKF41RBJN4TBU","","null","<img src=""img/animal4.png"" style=""width:200px; border:14px solid green;"">","null","","","","","",""
"","image-keyboard-response","289","159123","0.0-289.0","3Z4AIRP3C7ZJI684XAXPCBVWGDZX1V","A3NXT3OVGL7QNR","30F94FBDNR6BS3JI3VKF41RBJN4TBU","","596.0999999940395","img/animal3.png","76","597.1999999880791","3","1","3","1,0.5,0,0,1,0.5,0.5,0,1",""
"","html-keyboard-response","290","159429","0.0-290.0","3Z4AIRP3C7ZJI684XAXPCBVWGDZX1V","A3NXT3OVGL7QNR","30F94FBDNR6BS3JI3VKF41RBJN4TBU","","null","<img src=""img/animal3.png"" style=""width:200px; border:14px solid green;"">","null","","","","","",""
"","image-keyboard-response","291","159867","0.0-291.0","3Z4AIRP3C7ZJI684XAXPCBVWGDZX1V","A3NXT3OVGL7QNR","30F94FBDNR6BS3JI3VKF41RBJN4TBU","","436","img/animal3.png","76","437.09999999403954","3","1","3","1,0.5,0,0,1,0.5,0.5,0,1",""
"","html-keyboard-response","292","160173","0.0-292.0","3Z4AIRP3C7ZJI684XAXPCBVWGDZX1V","A3NXT3OVGL7QNR","30F94FBDNR6BS3JI3VKF41RBJN4TBU","","null","<img src=""img/animal3.png"" style=""width:200px; border:14px solid green;"">","null","","","","","",""
"","image-keyboard-response","293","161891","0.0-293.0","3Z4AIRP3C7ZJI684XAXPCBVWGDZX1V","A3NXT3OVGL7QNR","30F94FBDNR6BS3JI3VKF41RBJN4TBU","","1715.9000000059605","img/animal4.png","75","1717.0999999940395","2","1","2","1,0.5,0,0,1,0.5,0.5,0,1",""
"","html-keyboard-response","294","162198","0.0-294.0","3Z4AIRP3C7ZJI684XAXPCBVWGDZX1V","A3NXT3OVGL7QNR","30F94FBDNR6BS3JI3VKF41RBJN4TBU","","null","<img src=""img/animal4.png"" style=""width:200px; border:14px solid green;"">","null","","","","","",""
"","image-keyboard-response","295","162563","0.0-295.0","3Z4AIRP3C7ZJI684XAXPCBVWGDZX1V","A3NXT3OVGL7QNR","30F94FBDNR6BS3JI3VKF41RBJN4TBU","","363.80000001192093","img/animal4.png","75","365","2","1","2","1,0.5,0,0,1,0.5,0.5,0,1",""
"","html-keyboard-response","296","162870","0.0-296.0","3Z4AIRP3C7ZJI684XAXPCBVWGDZX1V","A3NXT3OVGL7QNR","30F94FBDNR6BS3JI3VKF41RBJN4TBU","","null","<img src=""img/animal4.png"" style=""width:200px; border:14px solid green;"">","null","","","","","",""
"","image-keyboard-response","297","163627","0.0-297.0","3Z4AIRP3C7ZJI684XAXPCBVWGDZX1V","A3NXT3OVGL7QNR","30F94FBDNR6BS3JI3VKF41RBJN4TBU","","755.6999999880791","img/animal5.png","74","756.9000000059605","1","1","1","1,0.5,0,0,1,0.5,0.5,0,1",""
"","html-keyboard-response","298","163934","0.0-298.0","3Z4AIRP3C7ZJI684XAXPCBVWGDZX1V","A3NXT3OVGL7QNR","30F94FBDNR6BS3JI3VKF41RBJN4TBU","","null","<img src=""img/animal5.png"" style=""width:200px; border:14px solid green;"">","null","","","","","",""
"","image-keyboard-response","299","165724","0.0-299.0","3Z4AIRP3C7ZJI684XAXPCBVWGDZX1V","A3NXT3OVGL7QNR","30F94FBDNR6BS3JI3VKF41RBJN4TBU","","1788.5","img/animal3.png","76","1789.5999999940395","3","1","3","1,0.5,0,0,1,0.5,0.5,0,1",""
"","html-keyboard-response","300","166030","0.0-300.0","3Z4AIRP3C7ZJI684XAXPCBVWGDZX1V","A3NXT3OVGL7QNR","30F94FBDNR6BS3JI3VKF41RBJN4TBU","","null","<img src=""img/animal3.png"" style=""width:200px; border:14px solid green;"">","null","","","","","",""
"","image-keyboard-response","301","166555","0.0-301.0","3Z4AIRP3C7ZJI684XAXPCBVWGDZX1V","A3NXT3OVGL7QNR","30F94FBDNR6BS3JI3VKF41RBJN4TBU","","524.4000000059605","img/animal5.png","74","525.5","1","1","1","1,0.5,0,0,1,0.5,0.5,0,1",""
"","html-keyboard-response","302","166862","0.0-302.0","3Z4AIRP3C7ZJI684XAXPCBVWGDZX1V","A3NXT3OVGL7QNR","30F94FBDNR6BS3JI3VKF41RBJN4TBU","","null","<img src=""img/animal5.png"" style=""width:200px; border:14px solid green;"">","null","","","","","",""
"","image-keyboard-response","303","167331","0.0-303.0","3Z4AIRP3C7ZJI684XAXPCBVWGDZX1V","A3NXT3OVGL7QNR","30F94FBDNR6BS3JI3VKF41RBJN4TBU","","468.40000000596046","img/animal5.png","74","469.5","1","1","1","1,0.5,0,0,1,0.5,0.5,0,1",""
"","html-keyboard-response","304","167638","0.0-304.0","3Z4AIRP3C7ZJI684XAXPCBVWGDZX1V","A3NXT3OVGL7QNR","30F94FBDNR6BS3JI3VKF41RBJN4TBU","","null","<img src=""img/animal5.png"" style=""width:200px; border:14px solid green;"">","null","","","","","",""
"","image-keyboard-response","305","168211","0.0-305.0","3Z4AIRP3C7ZJI684XAXPCBVWGDZX1V","A3NXT3OVGL7QNR","30F94FBDNR6BS3JI3VKF41RBJN4TBU","","572.4000000059605","img/animal4.png","75","573.5","2","1","2","1,0.5,0,0,1,0.5,0.5,0,1",""
"","html-keyboard-response","306","168518","0.0-306.0","3Z4AIRP3C7ZJI684XAXPCBVWGDZX1V","A3NXT3OVGL7QNR","30F94FBDNR6BS3JI3VKF41RBJN4TBU","","null","<img src=""img/animal4.png"" style=""width:200px; border:14px solid green;"">","null","","","","","",""
"","image-keyboard-response","307","169115","0.0-307.0","3Z4AIRP3C7ZJI684XAXPCBVWGDZX1V","A3NXT3OVGL7QNR","30F94FBDNR6BS3JI3VKF41RBJN4TBU","","596.4000000059605","img/animal5.png","74","597.5","1","1","1","1,0.5,0,0,1,0.5,0.5,0,1",""
"","html-keyboard-response","308","169422","0.0-308.0","3Z4AIRP3C7ZJI684XAXPCBVWGDZX1V","A3NXT3OVGL7QNR","30F94FBDNR6BS3JI3VKF41RBJN4TBU","","null","<img src=""img/animal5.png"" style=""width:200px; border:14px solid green;"">","null","","","","","",""
"","image-keyboard-response","309","170123","0.0-309.0","3Z4AIRP3C7ZJI684XAXPCBVWGDZX1V","A3NXT3OVGL7QNR","30F94FBDNR6BS3JI3VKF41RBJN4TBU","","700.2000000178814","img/animal3.png","76","701.4000000059605","3","1","3","1,0.5,0,0,1,0.5,0.5,0,1",""
"","html-keyboard-response","310","170430","0.0-310.0","3Z4AIRP3C7ZJI684XAXPCBVWGDZX1V","A3NXT3OVGL7QNR","30F94FBDNR6BS3JI3VKF41RBJN4TBU","","null","<img src=""img/animal3.png"" style=""width:200px; border:14px solid green;"">","null","","","","","",""
"","image-keyboard-response","311","171243","0.0-311.0","3Z4AIRP3C7ZJI684XAXPCBVWGDZX1V","A3NXT3OVGL7QNR","30F94FBDNR6BS3JI3VKF41RBJN4TBU","","812.0999999940395","img/animal5.png","74","813.2999999821186","1","1","1","1,0.5,0,0,1,0.5,0.5,0,1",""
"","html-keyboard-response","312","171550","0.0-312.0","3Z4AIRP3C7ZJI684XAXPCBVWGDZX1V","A3NXT3OVGL7QNR","30F94FBDNR6BS3JI3VKF41RBJN4TBU","","null","<img src=""img/animal5.png"" style=""width:200px; border:14px solid green;"">","null","","","","","",""
"","image-keyboard-response","313","171915","0.0-313.0","3Z4AIRP3C7ZJI684XAXPCBVWGDZX1V","A3NXT3OVGL7QNR","30F94FBDNR6BS3JI3VKF41RBJN4TBU","","364.2000000178814","img/animal5.png","74","365.2999999821186","1","1","1","1,0.5,0,0,1,0.5,0.5,0,1",""
"","html-keyboard-response","314","172222","0.0-314.0","3Z4AIRP3C7ZJI684XAXPCBVWGDZX1V","A3NXT3OVGL7QNR","30F94FBDNR6BS3JI3VKF41RBJN4TBU","","null","<img src=""img/animal5.png"" style=""width:200px; border:14px solid green;"">","null","","","","","",""
"","image-keyboard-response","315","172547","0.0-315.0","3Z4AIRP3C7ZJI684XAXPCBVWGDZX1V","A3NXT3OVGL7QNR","30F94FBDNR6BS3JI3VKF41RBJN4TBU","","324.10000002384186","img/animal5.png","74","325.19999998807907","1","1","1","1,0.5,0,0,1,0.5,0.5,0,1",""
"","html-keyboard-response","316","172854","0.0-316.0","3Z4AIRP3C7ZJI684XAXPCBVWGDZX1V","A3NXT3OVGL7QNR","30F94FBDNR6BS3JI3VKF41RBJN4TBU","","null","<img src=""img/animal5.png"" style=""width:200px; border:14px solid green;"">","null","","","","","",""
"","image-keyboard-response","317","173171","0.0-317.0","3Z4AIRP3C7ZJI684XAXPCBVWGDZX1V","A3NXT3OVGL7QNR","30F94FBDNR6BS3JI3VKF41RBJN4TBU","","316.59999999403954","img/animal5.png","74","317.5","1","1","1","1,0.5,0,0,1,0.5,0.5,0,1",""
"","html-keyboard-response","318","173478","0.0-318.0","3Z4AIRP3C7ZJI684XAXPCBVWGDZX1V","A3NXT3OVGL7QNR","30F94FBDNR6BS3JI3VKF41RBJN4TBU","","null","<img src=""img/animal5.png"" style=""width:200px; border:14px solid green;"">","null","","","","","",""
"","image-keyboard-response","319","173747","0.0-319.0","3Z4AIRP3C7ZJI684XAXPCBVWGDZX1V","A3NXT3OVGL7QNR","30F94FBDNR6BS3JI3VKF41RBJN4TBU","","268","img/animal5.png","74","269.19999998807907","1","1","1","1,0.5,0,0,1,0.5,0.5,0,1",""
"","html-keyboard-response","320","174054","0.0-320.0","3Z4AIRP3C7ZJI684XAXPCBVWGDZX1V","A3NXT3OVGL7QNR","30F94FBDNR6BS3JI3VKF41RBJN4TBU","","null","<img src=""img/animal5.png"" style=""width:200px; border:14px solid green;"">","null","","","","","",""
"","image-keyboard-response","321","174331","0.0-321.0","3Z4AIRP3C7ZJI684XAXPCBVWGDZX1V","A3NXT3OVGL7QNR","30F94FBDNR6BS3JI3VKF41RBJN4TBU","","275.89999997615814","img/animal5.png","74","277.09999999403954","1","1","1","1,0.5,0,0,1,0.5,0.5,0,1",""
"","html-keyboard-response","322","174638","0.0-322.0","3Z4AIRP3C7ZJI684XAXPCBVWGDZX1V","A3NXT3OVGL7QNR","30F94FBDNR6BS3JI3VKF41RBJN4TBU","","null","<img src=""img/animal5.png"" style=""width:200px; border:14px solid green;"">","null","","","","","",""
"","image-keyboard-response","323","175219","0.0-323.0","3Z4AIRP3C7ZJI684XAXPCBVWGDZX1V","A3NXT3OVGL7QNR","30F94FBDNR6BS3JI3VKF41RBJN4TBU","","579.8999999761581","img/animal3.png","76","581.1999999880791","3","1","3","1,0.5,0,0,1,0.5,0.5,0,1",""
"","html-keyboard-response","324","175526","0.0-324.0","3Z4AIRP3C7ZJI684XAXPCBVWGDZX1V","A3NXT3OVGL7QNR","30F94FBDNR6BS3JI3VKF41RBJN4TBU","","null","<img src=""img/animal3.png"" style=""width:200px; border:14px solid green;"">","null","","","","","",""
"","image-keyboard-response","325","176020","0.0-325.0","3Z4AIRP3C7ZJI684XAXPCBVWGDZX1V","A3NXT3OVGL7QNR","30F94FBDNR6BS3JI3VKF41RBJN4TBU","","492.39999997615814","img/animal5.png","76","493.69999998807907","3","0","1","1,0.5,0,0,1,0.5,0.5,0,1",""
"","html-keyboard-response","326","176326","0.0-326.0","3Z4AIRP3C7ZJI684XAXPCBVWGDZX1V","A3NXT3OVGL7QNR","30F94FBDNR6BS3JI3VKF41RBJN4TBU","","null","<img src=""img/animal5.png"" style=""width:200px;border:14px solid red;"">","null","","","","","",""
"","image-keyboard-response","327","176915","0.0-327.0","3Z4AIRP3C7ZJI684XAXPCBVWGDZX1V","A3NXT3OVGL7QNR","30F94FBDNR6BS3JI3VKF41RBJN4TBU","","587.7999999821186","img/animal4.png","75","589.0999999940395","2","1","2","1,0.5,0,0,1,0.5,0.5,0,1",""
"","html-keyboard-response","328","177222","0.0-328.0","3Z4AIRP3C7ZJI684XAXPCBVWGDZX1V","A3NXT3OVGL7QNR","30F94FBDNR6BS3JI3VKF41RBJN4TBU","","null","<img src=""img/animal4.png"" style=""width:200px; border:14px solid green;"">","null","","","","","",""
"","image-keyboard-response","329","177811","0.0-329.0","3Z4AIRP3C7ZJI684XAXPCBVWGDZX1V","A3NXT3OVGL7QNR","30F94FBDNR6BS3JI3VKF41RBJN4TBU","","588.2999999821186","img/animal3.png","76","589.0999999940395","3","1","3","1,0.5,0,0,1,0.5,0.5,0,1",""
"","html-keyboard-response","330","178118","0.0-330.0","3Z4AIRP3C7ZJI684XAXPCBVWGDZX1V","A3NXT3OVGL7QNR","30F94FBDNR6BS3JI3VKF41RBJN4TBU","","null","<img src=""img/animal3.png"" style=""width:200px; border:14px solid green;"">","null","","","","","",""
"","image-keyboard-response","331","178811","0.0-331.0","3Z4AIRP3C7ZJI684XAXPCBVWGDZX1V","A3NXT3OVGL7QNR","30F94FBDNR6BS3JI3VKF41RBJN4TBU","","691.5999999940395","img/animal4.png","75","692.9000000059605","2","1","2","1,0.5,0,0,1,0.5,0.5,0,1",""
"","html-keyboard-response","332","179118","0.0-332.0","3Z4AIRP3C7ZJI684XAXPCBVWGDZX1V","A3NXT3OVGL7QNR","30F94FBDNR6BS3JI3VKF41RBJN4TBU","","null","<img src=""img/animal4.png"" style=""width:200px; border:14px solid green;"">","null","","","","","",""
"","image-keyboard-response","333","179843","0.0-333.0","3Z4AIRP3C7ZJI684XAXPCBVWGDZX1V","A3NXT3OVGL7QNR","30F94FBDNR6BS3JI3VKF41RBJN4TBU","","723.6999999880791","img/animal4.png","75","725","2","1","2","1,0.5,0,0,1,0.5,0.5,0,1",""
"","html-keyboard-response","334","180150","0.0-334.0","3Z4AIRP3C7ZJI684XAXPCBVWGDZX1V","A3NXT3OVGL7QNR","30F94FBDNR6BS3JI3VKF41RBJN4TBU","","null","<img src=""img/animal4.png"" style=""width:200px; border:14px solid green;"">","null","","","","","",""
"","image-keyboard-response","335","180723","0.0-335.0","3Z4AIRP3C7ZJI684XAXPCBVWGDZX1V","A3NXT3OVGL7QNR","30F94FBDNR6BS3JI3VKF41RBJN4TBU","","571.6999999880791","img/animal3.png","76","572.9000000059605","3","1","3","1,0.5,0,0,1,0.5,0.5,0,1",""
"","html-keyboard-response","336","181030","0.0-336.0","3Z4AIRP3C7ZJI684XAXPCBVWGDZX1V","A3NXT3OVGL7QNR","30F94FBDNR6BS3JI3VKF41RBJN4TBU","","null","<img src=""img/animal3.png"" style=""width:200px; border:14px solid green;"">","null","","","","","",""
"","image-keyboard-response","337","181411","0.0-337.0","3Z4AIRP3C7ZJI684XAXPCBVWGDZX1V","A3NXT3OVGL7QNR","30F94FBDNR6BS3JI3VKF41RBJN4TBU","","379.90000000596046","img/animal3.png","76","380.80000001192093","3","1","3","1,0.5,0,0,1,0.5,0.5,0,1",""
"","html-keyboard-response","338","181718","0.0-338.0","3Z4AIRP3C7ZJI684XAXPCBVWGDZX1V","A3NXT3OVGL7QNR","30F94FBDNR6BS3JI3VKF41RBJN4TBU","","null","<img src=""img/animal3.png"" style=""width:200px; border:14px solid green;"">","null","","","","","",""
"","image-keyboard-response","339","182283","0.0-339.0","3Z4AIRP3C7ZJI684XAXPCBVWGDZX1V","A3NXT3OVGL7QNR","30F94FBDNR6BS3JI3VKF41RBJN4TBU","","563.5999999940395","img/animal4.png","75","564.5999999940395","2","1","2","1,0.5,0,0,1,0.5,0.5,0,1",""
"","html-keyboard-response","340","182590","0.0-340.0","3Z4AIRP3C7ZJI684XAXPCBVWGDZX1V","A3NXT3OVGL7QNR","30F94FBDNR6BS3JI3VKF41RBJN4TBU","","null","<img src=""img/animal4.png"" style=""width:200px; border:14px solid green;"">","null","","","","","",""
"","image-keyboard-response","341","183019","0.0-341.0","3Z4AIRP3C7ZJI684XAXPCBVWGDZX1V","A3NXT3OVGL7QNR","30F94FBDNR6BS3JI3VKF41RBJN4TBU","","427.60000002384186","img/animal4.png","75","428.39999997615814","2","1","2","1,0.5,0,0,1,0.5,0.5,0,1",""
"","html-keyboard-response","342","183326","0.0-342.0","3Z4AIRP3C7ZJI684XAXPCBVWGDZX1V","A3NXT3OVGL7QNR","30F94FBDNR6BS3JI3VKF41RBJN4TBU","","null","<img src=""img/animal4.png"" style=""width:200px; border:14px solid green;"">","null","","","","","",""
"","image-keyboard-response","343","183963","0.0-343.0","3Z4AIRP3C7ZJI684XAXPCBVWGDZX1V","A3NXT3OVGL7QNR","30F94FBDNR6BS3JI3VKF41RBJN4TBU","","635.9000000059605","img/animal3.png","76","636.7000000178814","3","1","3","1,0.5,0,0,1,0.5,0.5,0,1",""
"","html-keyboard-response","344","184270","0.0-344.0","3Z4AIRP3C7ZJI684XAXPCBVWGDZX1V","A3NXT3OVGL7QNR","30F94FBDNR6BS3JI3VKF41RBJN4TBU","","null","<img src=""img/animal3.png"" style=""width:200px; border:14px solid green;"">","null","","","","","",""
"","image-keyboard-response","345","184995","0.0-345.0","3Z4AIRP3C7ZJI684XAXPCBVWGDZX1V","A3NXT3OVGL7QNR","30F94FBDNR6BS3JI3VKF41RBJN4TBU","","723.5","img/animal4.png","75","724.6999999880791","2","1","2","1,0.5,0,0,1,0.5,0.5,0,1",""
"","html-keyboard-response","346","185302","0.0-346.0","3Z4AIRP3C7ZJI684XAXPCBVWGDZX1V","A3NXT3OVGL7QNR","30F94FBDNR6BS3JI3VKF41RBJN4TBU","","null","<img src=""img/animal4.png"" style=""width:200px; border:14px solid green;"">","null","","","","","",""
"","image-keyboard-response","347","185947","0.0-347.0","3Z4AIRP3C7ZJI684XAXPCBVWGDZX1V","A3NXT3OVGL7QNR","30F94FBDNR6BS3JI3VKF41RBJN4TBU","","643.3000000119209","img/animal5.png","74","644.5","1","1","1","1,0.5,0,0,1,0.5,0.5,0,1",""
"","html-keyboard-response","348","186254","0.0-348.0","3Z4AIRP3C7ZJI684XAXPCBVWGDZX1V","A3NXT3OVGL7QNR","30F94FBDNR6BS3JI3VKF41RBJN4TBU","","null","<img src=""img/animal5.png"" style=""width:200px; border:14px solid green;"">","null","","","","","",""
"","image-keyboard-response","349","186564","0.0-349.0","3Z4AIRP3C7ZJI684XAXPCBVWGDZX1V","A3NXT3OVGL7QNR","30F94FBDNR6BS3JI3VKF41RBJN4TBU","","307.89999997615814","img/animal5.png","74","309.19999998807907","1","1","1","1,0.5,0,0,1,0.5,0.5,0,1",""
"","html-keyboard-response","350","186870","0.0-350.0","3Z4AIRP3C7ZJI684XAXPCBVWGDZX1V","A3NXT3OVGL7QNR","30F94FBDNR6BS3JI3VKF41RBJN4TBU","","null","<img src=""img/animal5.png"" style=""width:200px; border:14px solid green;"">","null","","","","","",""
"","image-keyboard-response","351","187523","0.0-351.0","3Z4AIRP3C7ZJI684XAXPCBVWGDZX1V","A3NXT3OVGL7QNR","30F94FBDNR6BS3JI3VKF41RBJN4TBU","","651.0999999940395","img/animal4.png","75","652.4000000059605","2","1","2","1,0.5,0,0,1,0.5,0.5,0,1",""
"","html-keyboard-response","352","187830","0.0-352.0","3Z4AIRP3C7ZJI684XAXPCBVWGDZX1V","A3NXT3OVGL7QNR","30F94FBDNR6BS3JI3VKF41RBJN4TBU","","null","<img src=""img/animal4.png"" style=""width:200px; border:14px solid green;"">","null","","","","","",""
"","image-keyboard-response","353","188443","0.0-353.0","3Z4AIRP3C7ZJI684XAXPCBVWGDZX1V","A3NXT3OVGL7QNR","30F94FBDNR6BS3JI3VKF41RBJN4TBU","","611.0999999940395","img/animal3.png","76","612.2000000178814","3","1","3","1,0.5,0,0,1,0.5,0.5,0,1",""
"","html-keyboard-response","354","188750","0.0-354.0","3Z4AIRP3C7ZJI684XAXPCBVWGDZX1V","A3NXT3OVGL7QNR","30F94FBDNR6BS3JI3VKF41RBJN4TBU","","null","<img src=""img/animal3.png"" style=""width:200px; border:14px solid green;"">","null","","","","","",""
"","image-keyboard-response","355","189595","0.0-355.0","3Z4AIRP3C7ZJI684XAXPCBVWGDZX1V","A3NXT3OVGL7QNR","30F94FBDNR6BS3JI3VKF41RBJN4TBU","","843.0999999940395","img/animal4.png","75","844.2000000178814","2","1","2","1,0.5,0,0,1,0.5,0.5,0,1",""
"","html-keyboard-response","356","189902","0.0-356.0","3Z4AIRP3C7ZJI684XAXPCBVWGDZX1V","A3NXT3OVGL7QNR","30F94FBDNR6BS3JI3VKF41RBJN4TBU","","null","<img src=""img/animal4.png"" style=""width:200px; border:14px solid green;"">","null","","","","","",""
"","image-keyboard-response","357","190419","0.0-357.0","3Z4AIRP3C7ZJI684XAXPCBVWGDZX1V","A3NXT3OVGL7QNR","30F94FBDNR6BS3JI3VKF41RBJN4TBU","","515","img/animal5.png","74","516.0999999940395","1","1","1","1,0.5,0,0,1,0.5,0.5,0,1",""
"","html-keyboard-response","358","190725","0.0-358.0","3Z4AIRP3C7ZJI684XAXPCBVWGDZX1V","A3NXT3OVGL7QNR","30F94FBDNR6BS3JI3VKF41RBJN4TBU","","null","<img src=""img/animal5.png"" style=""width:200px; border:14px solid green;"">","null","","","","","",""
"","image-keyboard-response","359","191083","0.0-359.0","3Z4AIRP3C7ZJI684XAXPCBVWGDZX1V","A3NXT3OVGL7QNR","30F94FBDNR6BS3JI3VKF41RBJN4TBU","","355.80000001192093","img/animal5.png","74","357.2000000178814","1","1","1","1,0.5,0,0,1,0.5,0.5,0,1",""
"","html-keyboard-response","360","191390","0.0-360.0","3Z4AIRP3C7ZJI684XAXPCBVWGDZX1V","A3NXT3OVGL7QNR","30F94FBDNR6BS3JI3VKF41RBJN4TBU","","null","<img src=""img/animal5.png"" style=""width:200px; border:14px solid green;"">","null","","","","","",""
"","image-keyboard-response","361","192035","0.0-361.0","3Z4AIRP3C7ZJI684XAXPCBVWGDZX1V","A3NXT3OVGL7QNR","30F94FBDNR6BS3JI3VKF41RBJN4TBU","","643.9000000059605","img/animal3.png","76","645.1000000238419","3","1","3","1,0.5,0,0,1,0.5,0.5,0,1",""
"","html-keyboard-response","362","192342","0.0-362.0","3Z4AIRP3C7ZJI684XAXPCBVWGDZX1V","A3NXT3OVGL7QNR","30F94FBDNR6BS3JI3VKF41RBJN4TBU","","null","<img src=""img/animal3.png"" style=""width:200px; border:14px solid green;"">","null","","","","","",""
"","instructions","363","197977","0.0-363.0","3Z4AIRP3C7ZJI684XAXPCBVWGDZX1V","A3NXT3OVGL7QNR","30F94FBDNR6BS3JI3VKF41RBJN4TBU","[{""page_index"":0,""viewing_time"":5634.100000023842}]","5635","","","","","","","",""
"","survey-text","364","202529","0.0-364.0","3Z4AIRP3C7ZJI684XAXPCBVWGDZX1V","A3NXT3OVGL7QNR","30F94FBDNR6BS3JI3VKF41RBJN4TBU","","4547.899999976158","","","","","","","","{""Q0"":""A3NXT3OVGL7QNR""}"
