"success","trial_type","trial_index","time_elapsed","internal_node_id","assignmentID","mturkID","hitID","view_history","rt","stimulus","key_press","reactionTime","a","r","s","reward_cond","responses"
"true","fullscreen","0","8784","0.0-0.0","3F6HPJW4JEMBIRLA691HFBRUXH2W2B","A3OZ8KF0HWSVWK","368IUKXGA5U7UZ9GQNUNOB4MGE4P6M","","","","","","","","","",""
"","instructions","1","47508","0.0-1.0","3F6HPJW4JEMBIRLA691HFBRUXH2W2B","A3OZ8KF0HWSVWK","368IUKXGA5U7UZ9GQNUNOB4MGE4P6M","[{""page_index"":0,""viewing_time"":11239.5},{""page_index"":1,""viewing_time"":1682.6000000089407},{""page_index"":2,""viewing_time"":587.0999999940395},{""page_index"":3,""viewing_time"":9185.29999999702},{""page_index"":4,""viewing_time"":6247.600000008941},{""page_index"":5,""viewing_time"":4085.5},{""page_index"":6,""viewing_time"":2345.8999999910593},{""page_index"":7,""viewing_time"":3333.5}]","38712.90000000596","","","","","","","",""
"","image-keyboard-response","2","50478","0.0-2.0","3F6HPJW4JEMBIRLA691HFBRUXH2W2B","A3OZ8KF0HWSVWK","368IUKXGA5U7UZ9GQNUNOB4MGE4P6M","","2962.0999999940395","img/animal4.png","74","2968.7999999970198","1","1","2","0.5,0,1,1,0.5,0,0,1,0.5",""
"","html-keyboard-response","3","50788","0.0-3.0","3F6HPJW4JEMBIRLA691HFBRUXH2W2B","A3OZ8KF0HWSVWK","368IUKXGA5U7UZ9GQNUNOB4MGE4P6M","","null","<img src=""img/animal4.png"" style=""width:200px; border:14px solid green;"">","null","","","","","",""
"","image-keyboard-response","4","52017","0.0-4.0","3F6HPJW4JEMBIRLA691HFBRUXH2W2B","A3OZ8KF0HWSVWK","368IUKXGA5U7UZ9GQNUNOB4MGE4P6M","","1220.0999999940395","img/animal5.png","75","1226.2000000029802","2","0","1","0.5,0,1,1,0.5,0,0,1,0.5",""
"","html-keyboard-response","5","52323","0.0-5.0","3F6HPJW4JEMBIRLA691HFBRUXH2W2B","A3OZ8KF0HWSVWK","368IUKXGA5U7UZ9GQNUNOB4MGE4P6M","","null","<img src=""img/animal5.png"" style=""width:200px;border:14px solid red;"">","null","","","","","",""
"","image-keyboard-response","6","53174","0.0-6.0","3F6HPJW4JEMBIRLA691HFBRUXH2W2B","A3OZ8KF0HWSVWK","368IUKXGA5U7UZ9GQNUNOB4MGE4P6M","","844.2000000029802","img/animal4.png","74","849.7000000029802","1","1","2","0.5,0,1,1,0.5,0,0,1,0.5",""
"","html-keyboard-response","7","53480","0.0-7.0","3F6HPJW4JEMBIRLA691HFBRUXH2W2B","A3OZ8KF0HWSVWK","368IUKXGA5U7UZ9GQNUNOB4MGE4P6M","","null","<img src=""img/animal4.png"" style=""width:200px; border:14px solid green;"">","null","","","","","",""
"","image-keyboard-response","8","56522","0.0-8.0","3F6HPJW4JEMBIRLA691HFBRUXH2W2B","A3OZ8KF0HWSVWK","368IUKXGA5U7UZ9GQNUNOB4MGE4P6M","","3038.3999999910593","img/animal6.png","76","3041.4000000059605","3","1","3","0.5,0,1,1,0.5,0,0,1,0.5",""
"","html-keyboard-response","9","56831","0.0-9.0","3F6HPJW4JEMBIRLA691HFBRUXH2W2B","A3OZ8KF0HWSVWK","368IUKXGA5U7UZ9GQNUNOB4MGE4P6M","","null","<img src=""img/animal6.png"" style=""width:200px; border:14px solid green;"">","null","","","","","",""
"","image-keyboard-response","10","58178","0.0-10.0","3F6HPJW4JEMBIRLA691HFBRUXH2W2B","A3OZ8KF0HWSVWK","368IUKXGA5U7UZ9GQNUNOB4MGE4P6M","","1337.4000000059605","img/animal5.png","75","1344.4000000059605","2","0","1","0.5,0,1,1,0.5,0,0,1,0.5",""
"","html-keyboard-response","11","58493","0.0-11.0","3F6HPJW4JEMBIRLA691HFBRUXH2W2B","A3OZ8KF0HWSVWK","368IUKXGA5U7UZ9GQNUNOB4MGE4P6M","","null","<img src=""img/animal5.png"" style=""width:200px;border:14px solid red;"">","null","","","","","",""
"","image-keyboard-response","12","59701","0.0-12.0","3F6HPJW4JEMBIRLA691HFBRUXH2W2B","A3OZ8KF0HWSVWK","368IUKXGA5U7UZ9GQNUNOB4MGE4P6M","","1200.2999999970198","img/animal6.png","76","1206.8999999910593","3","1","3","0.5,0,1,1,0.5,0,0,1,0.5",""
"","html-keyboard-response","13","60009","0.0-13.0","3F6HPJW4JEMBIRLA691HFBRUXH2W2B","A3OZ8KF0HWSVWK","368IUKXGA5U7UZ9GQNUNOB4MGE4P6M","","null","<img src=""img/animal6.png"" style=""width:200px; border:14px solid green;"">","null","","","","","",""
"","image-keyboard-response","14","61169","0.0-14.0","3F6HPJW4JEMBIRLA691HFBRUXH2W2B","A3OZ8KF0HWSVWK","368IUKXGA5U7UZ9GQNUNOB4MGE4P6M","","1151.7999999970198","img/animal4.png","74","1158.8999999910593","1","1","2","0.5,0,1,1,0.5,0,0,1,0.5",""
"","html-keyboard-response","15","61474","0.0-15.0","3F6HPJW4JEMBIRLA691HFBRUXH2W2B","A3OZ8KF0HWSVWK","368IUKXGA5U7UZ9GQNUNOB4MGE4P6M","","null","<img src=""img/animal4.png"" style=""width:200px; border:14px solid green;"">","null","","","","","",""
"","image-keyboard-response","16","62462","0.0-16.0","3F6HPJW4JEMBIRLA691HFBRUXH2W2B","A3OZ8KF0HWSVWK","368IUKXGA5U7UZ9GQNUNOB4MGE4P6M","","980.9000000059605","img/animal4.png","74","985.9000000059605","1","1","2","0.5,0,1,1,0.5,0,0,1,0.5",""
"","html-keyboard-response","17","62768","0.0-17.0","3F6HPJW4JEMBIRLA691HFBRUXH2W2B","A3OZ8KF0HWSVWK","368IUKXGA5U7UZ9GQNUNOB4MGE4P6M","","null","<img src=""img/animal4.png"" style=""width:200px; border:14px solid green;"">","null","","","","","",""
"","image-keyboard-response","18","65036","0.0-18.0","3F6HPJW4JEMBIRLA691HFBRUXH2W2B","A3OZ8KF0HWSVWK","368IUKXGA5U7UZ9GQNUNOB4MGE4P6M","","2261.5","img/animal5.png","76","2266.6000000089407","3","1","1","0.5,0,1,1,0.5,0,0,1,0.5",""
"","html-keyboard-response","19","65346","0.0-19.0","3F6HPJW4JEMBIRLA691HFBRUXH2W2B","A3OZ8KF0HWSVWK","368IUKXGA5U7UZ9GQNUNOB4MGE4P6M","","null","<img src=""img/animal5.png"" style=""width:200px; border:14px solid green;"">","null","","","","","",""
"","image-keyboard-response","20","66248","0.0-20.0","3F6HPJW4JEMBIRLA691HFBRUXH2W2B","A3OZ8KF0HWSVWK","368IUKXGA5U7UZ9GQNUNOB4MGE4P6M","","898.5999999940395","img/animal5.png","76","903","3","1","1","0.5,0,1,1,0.5,0,0,1,0.5",""
"","html-keyboard-response","21","66556","0.0-21.0","3F6HPJW4JEMBIRLA691HFBRUXH2W2B","A3OZ8KF0HWSVWK","368IUKXGA5U7UZ9GQNUNOB4MGE4P6M","","null","<img src=""img/animal5.png"" style=""width:200px; border:14px solid green;"">","null","","","","","",""
"","image-keyboard-response","22","67386","0.0-22.0","3F6HPJW4JEMBIRLA691HFBRUXH2W2B","A3OZ8KF0HWSVWK","368IUKXGA5U7UZ9GQNUNOB4MGE4P6M","","824.9000000059605","img/animal4.png","74","828.6999999880791","1","1","2","0.5,0,1,1,0.5,0,0,1,0.5",""
"","html-keyboard-response","23","67693","0.0-23.0","3F6HPJW4JEMBIRLA691HFBRUXH2W2B","A3OZ8KF0HWSVWK","368IUKXGA5U7UZ9GQNUNOB4MGE4P6M","","null","<img src=""img/animal4.png"" style=""width:200px; border:14px solid green;"">","null","","","","","",""
"","image-keyboard-response","24","69644","0.0-24.0","3F6HPJW4JEMBIRLA691HFBRUXH2W2B","A3OZ8KF0HWSVWK","368IUKXGA5U7UZ9GQNUNOB4MGE4P6M","","1943.6000000089407","img/animal6.png","75","1949.7000000029802","2","1","3","0.5,0,1,1,0.5,0,0,1,0.5",""
"","html-keyboard-response","25","69950","0.0-25.0","3F6HPJW4JEMBIRLA691HFBRUXH2W2B","A3OZ8KF0HWSVWK","368IUKXGA5U7UZ9GQNUNOB4MGE4P6M","","null","<img src=""img/animal6.png"" style=""width:200px; border:14px solid green;"">","null","","","","","",""
"","image-keyboard-response","26","71175","0.0-26.0","3F6HPJW4JEMBIRLA691HFBRUXH2W2B","A3OZ8KF0HWSVWK","368IUKXGA5U7UZ9GQNUNOB4MGE4P6M","","1218.2000000029802","img/animal5.png","76","1223","3","1","1","0.5,0,1,1,0.5,0,0,1,0.5",""
"","html-keyboard-response","27","71480","0.0-27.0","3F6HPJW4JEMBIRLA691HFBRUXH2W2B","A3OZ8KF0HWSVWK","368IUKXGA5U7UZ9GQNUNOB4MGE4P6M","","null","<img src=""img/animal5.png"" style=""width:200px; border:14px solid green;"">","null","","","","","",""
"","image-keyboard-response","28","72210","0.0-28.0","3F6HPJW4JEMBIRLA691HFBRUXH2W2B","A3OZ8KF0HWSVWK","368IUKXGA5U7UZ9GQNUNOB4MGE4P6M","","723.0999999940395","img/animal5.png","76","729.0999999940395","3","1","1","0.5,0,1,1,0.5,0,0,1,0.5",""
"","html-keyboard-response","29","72517","0.0-29.0","3F6HPJW4JEMBIRLA691HFBRUXH2W2B","A3OZ8KF0HWSVWK","368IUKXGA5U7UZ9GQNUNOB4MGE4P6M","","null","<img src=""img/animal5.png"" style=""width:200px; border:14px solid green;"">","null","","","","","",""
"","image-keyboard-response","30","73389","0.0-30.0","3F6HPJW4JEMBIRLA691HFBRUXH2W2B","A3OZ8KF0HWSVWK","368IUKXGA5U7UZ9GQNUNOB4MGE4P6M","","868.5","img/animal4.png","74","871.5","1","1","2","0.5,0,1,1,0.5,0,0,1,0.5",""
"","html-keyboard-response","31","73698","0.0-31.0","3F6HPJW4JEMBIRLA691HFBRUXH2W2B","A3OZ8KF0HWSVWK","368IUKXGA5U7UZ9GQNUNOB4MGE4P6M","","null","<img src=""img/animal4.png"" style=""width:200px; border:14px solid green;"">","null","","","","","",""
"","image-keyboard-response","32","74474","0.0-32.0","3F6HPJW4JEMBIRLA691HFBRUXH2W2B","A3OZ8KF0HWSVWK","368IUKXGA5U7UZ9GQNUNOB4MGE4P6M","","769.2000000029802","img/animal4.png","74","774.5","1","1","2","0.5,0,1,1,0.5,0,0,1,0.5",""
"","html-keyboard-response","33","74781","0.0-33.0","3F6HPJW4JEMBIRLA691HFBRUXH2W2B","A3OZ8KF0HWSVWK","368IUKXGA5U7UZ9GQNUNOB4MGE4P6M","","null","<img src=""img/animal4.png"" style=""width:200px; border:14px solid green;"">","null","","","","","",""
"","image-keyboard-response","34","75573","0.0-34.0","3F6HPJW4JEMBIRLA691HFBRUXH2W2B","A3OZ8KF0HWSVWK","368IUKXGA5U7UZ9GQNUNOB4MGE4P6M","","786.1999999880791","img/animal4.png","74","791.0999999940395","1","1","2","0.5,0,1,1,0.5,0,0,1,0.5",""
"","html-keyboard-response","35","75880","0.0-35.0","3F6HPJW4JEMBIRLA691HFBRUXH2W2B","A3OZ8KF0HWSVWK","368IUKXGA5U7UZ9GQNUNOB4MGE4P6M","","null","<img src=""img/animal4.png"" style=""width:200px; border:14px solid green;"">","null","","","","","",""
"","image-keyboard-response","36","77413","0.0-36.0","3F6HPJW4JEMBIRLA691HFBRUXH2W2B","A3OZ8KF0HWSVWK","368IUKXGA5U7UZ9GQNUNOB4MGE4P6M","","1527.2999999970198","img/animal6.png","76","1530.2000000029802","3","0","3","0.5,0,1,1,0.5,0,0,1,0.5",""
"","html-keyboard-response","37","77719","0.0-37.0","3F6HPJW4JEMBIRLA691HFBRUXH2W2B","A3OZ8KF0HWSVWK","368IUKXGA5U7UZ9GQNUNOB4MGE4P6M","","null","<img src=""img/animal6.png"" style=""width:200px;border:14px solid red;"">","null","","","","","",""
"","image-keyboard-response","38","78482","0.0-38.0","3F6HPJW4JEMBIRLA691HFBRUXH2W2B","A3OZ8KF0HWSVWK","368IUKXGA5U7UZ9GQNUNOB4MGE4P6M","","757.5","img/animal4.png","74","761.7000000029802","1","1","2","0.5,0,1,1,0.5,0,0,1,0.5",""
"","html-keyboard-response","39","78786","0.0-39.0","3F6HPJW4JEMBIRLA691HFBRUXH2W2B","A3OZ8KF0HWSVWK","368IUKXGA5U7UZ9GQNUNOB4MGE4P6M","","null","<img src=""img/animal4.png"" style=""width:200px; border:14px solid green;"">","null","","","","","",""
"","image-keyboard-response","40","79966","0.0-40.0","3F6HPJW4JEMBIRLA691HFBRUXH2W2B","A3OZ8KF0HWSVWK","368IUKXGA5U7UZ9GQNUNOB4MGE4P6M","","1174.5","img/animal6.png","75","1178.7000000029802","2","1","3","0.5,0,1,1,0.5,0,0,1,0.5",""
"","html-keyboard-response","41","80273","0.0-41.0","3F6HPJW4JEMBIRLA691HFBRUXH2W2B","A3OZ8KF0HWSVWK","368IUKXGA5U7UZ9GQNUNOB4MGE4P6M","","null","<img src=""img/animal6.png"" style=""width:200px; border:14px solid green;"">","null","","","","","",""
"","image-keyboard-response","42","81074","0.0-42.0","3F6HPJW4JEMBIRLA691HFBRUXH2W2B","A3OZ8KF0HWSVWK","368IUKXGA5U7UZ9GQNUNOB4MGE4P6M","","795.5999999940395","img/animal4.png","74","799.8000000119209","1","1","2","0.5,0,1,1,0.5,0,0,1,0.5",""
"","html-keyboard-response","43","81381","0.0-43.0","3F6HPJW4JEMBIRLA691HFBRUXH2W2B","A3OZ8KF0HWSVWK","368IUKXGA5U7UZ9GQNUNOB4MGE4P6M","","null","<img src=""img/animal4.png"" style=""width:200px; border:14px solid green;"">","null","","","","","",""
"","image-keyboard-response","44","82989","0.0-44.0","3F6HPJW4JEMBIRLA691HFBRUXH2W2B","A3OZ8KF0HWSVWK","368IUKXGA5U7UZ9GQNUNOB4MGE4P6M","","1602.2999999970198","img/animal5.png","76","1607.2000000029802","3","1","1","0.5,0,1,1,0.5,0,0,1,0.5",""
"","html-keyboard-response","45","83297","0.0-45.0","3F6HPJW4JEMBIRLA691HFBRUXH2W2B","A3OZ8KF0HWSVWK","368IUKXGA5U7UZ9GQNUNOB4MGE4P6M","","null","<img src=""img/animal5.png"" style=""width:200px; border:14px solid green;"">","null","","","","","",""
"","image-keyboard-response","46","84333","0.0-46.0","3F6HPJW4JEMBIRLA691HFBRUXH2W2B","A3OZ8KF0HWSVWK","368IUKXGA5U7UZ9GQNUNOB4MGE4P6M","","1026.699999988079","img/animal6.png","75","1034.4000000059605","2","1","3","0.5,0,1,1,0.5,0,0,1,0.5",""
"","html-keyboard-response","47","84638","0.0-47.0","3F6HPJW4JEMBIRLA691HFBRUXH2W2B","A3OZ8KF0HWSVWK","368IUKXGA5U7UZ9GQNUNOB4MGE4P6M","","null","<img src=""img/animal6.png"" style=""width:200px; border:14px solid green;"">","null","","","","","",""
"","image-keyboard-response","48","85852","0.0-48.0","3F6HPJW4JEMBIRLA691HFBRUXH2W2B","A3OZ8KF0HWSVWK","368IUKXGA5U7UZ9GQNUNOB4MGE4P6M","","1208.3999999910593","img/animal5.png","76","1213","3","1","1","0.5,0,1,1,0.5,0,0,1,0.5",""
"","html-keyboard-response","49","86158","0.0-49.0","3F6HPJW4JEMBIRLA691HFBRUXH2W2B","A3OZ8KF0HWSVWK","368IUKXGA5U7UZ9GQNUNOB4MGE4P6M","","null","<img src=""img/animal5.png"" style=""width:200px; border:14px solid green;"">","null","","","","","",""
"","image-keyboard-response","50","86855","0.0-50.0","3F6HPJW4JEMBIRLA691HFBRUXH2W2B","A3OZ8KF0HWSVWK","368IUKXGA5U7UZ9GQNUNOB4MGE4P6M","","688.7999999970198","img/animal4.png","74","695.0999999940395","1","1","2","0.5,0,1,1,0.5,0,0,1,0.5",""
"","html-keyboard-response","51","87158","0.0-51.0","3F6HPJW4JEMBIRLA691HFBRUXH2W2B","A3OZ8KF0HWSVWK","368IUKXGA5U7UZ9GQNUNOB4MGE4P6M","","null","<img src=""img/animal4.png"" style=""width:200px; border:14px solid green;"">","null","","","","","",""
"","image-keyboard-response","52","88249","0.0-52.0","3F6HPJW4JEMBIRLA691HFBRUXH2W2B","A3OZ8KF0HWSVWK","368IUKXGA5U7UZ9GQNUNOB4MGE4P6M","","1086.2000000029802","img/animal5.png","76","1090.699999988079","3","1","1","0.5,0,1,1,0.5,0,0,1,0.5",""
"","html-keyboard-response","53","88557","0.0-53.0","3F6HPJW4JEMBIRLA691HFBRUXH2W2B","A3OZ8KF0HWSVWK","368IUKXGA5U7UZ9GQNUNOB4MGE4P6M","","null","<img src=""img/animal5.png"" style=""width:200px; border:14px solid green;"">","null","","","","","",""
"","image-keyboard-response","54","89367","0.0-54.0","3F6HPJW4JEMBIRLA691HFBRUXH2W2B","A3OZ8KF0HWSVWK","368IUKXGA5U7UZ9GQNUNOB4MGE4P6M","","804.7999999970198","img/animal6.png","75","808.2000000029802","2","1","3","0.5,0,1,1,0.5,0,0,1,0.5",""
"","html-keyboard-response","55","89671","0.0-55.0","3F6HPJW4JEMBIRLA691HFBRUXH2W2B","A3OZ8KF0HWSVWK","368IUKXGA5U7UZ9GQNUNOB4MGE4P6M","","null","<img src=""img/animal6.png"" style=""width:200px; border:14px solid green;"">","null","","","","","",""
"","image-keyboard-response","56","90411","0.0-56.0","3F6HPJW4JEMBIRLA691HFBRUXH2W2B","A3OZ8KF0HWSVWK","368IUKXGA5U7UZ9GQNUNOB4MGE4P6M","","731.2999999970198","img/animal4.png","74","738.2999999970198","1","1","2","0.5,0,1,1,0.5,0,0,1,0.5",""
"","html-keyboard-response","57","90720","0.0-57.0","3F6HPJW4JEMBIRLA691HFBRUXH2W2B","A3OZ8KF0HWSVWK","368IUKXGA5U7UZ9GQNUNOB4MGE4P6M","","null","<img src=""img/animal4.png"" style=""width:200px; border:14px solid green;"">","null","","","","","",""
"","image-keyboard-response","58","91498","0.0-58.0","3F6HPJW4JEMBIRLA691HFBRUXH2W2B","A3OZ8KF0HWSVWK","368IUKXGA5U7UZ9GQNUNOB4MGE4P6M","","772.2999999970198","img/animal4.png","74","777.4000000059605","1","1","2","0.5,0,1,1,0.5,0,0,1,0.5",""
"","html-keyboard-response","59","91805","0.0-59.0","3F6HPJW4JEMBIRLA691HFBRUXH2W2B","A3OZ8KF0HWSVWK","368IUKXGA5U7UZ9GQNUNOB4MGE4P6M","","null","<img src=""img/animal4.png"" style=""width:200px; border:14px solid green;"">","null","","","","","",""
"","image-keyboard-response","60","94543","0.0-60.0","3F6HPJW4JEMBIRLA691HFBRUXH2W2B","A3OZ8KF0HWSVWK","368IUKXGA5U7UZ9GQNUNOB4MGE4P6M","","2733.9000000059605","img/animal5.png","76","2736.5999999940395","3","1","1","0.5,0,1,1,0.5,0,0,1,0.5",""
"","html-keyboard-response","61","94848","0.0-61.0","3F6HPJW4JEMBIRLA691HFBRUXH2W2B","A3OZ8KF0HWSVWK","368IUKXGA5U7UZ9GQNUNOB4MGE4P6M","","null","<img src=""img/animal5.png"" style=""width:200px; border:14px solid green;"">","null","","","","","",""
"","image-keyboard-response","62","95562","0.0-62.0","3F6HPJW4JEMBIRLA691HFBRUXH2W2B","A3OZ8KF0HWSVWK","368IUKXGA5U7UZ9GQNUNOB4MGE4P6M","","708.5999999940395","img/animal4.png","74","713.7999999970198","1","1","2","0.5,0,1,1,0.5,0,0,1,0.5",""
"","html-keyboard-response","63","95872","0.0-63.0","3F6HPJW4JEMBIRLA691HFBRUXH2W2B","A3OZ8KF0HWSVWK","368IUKXGA5U7UZ9GQNUNOB4MGE4P6M","","null","<img src=""img/animal4.png"" style=""width:200px; border:14px solid green;"">","null","","","","","",""
"","image-keyboard-response","64","96658","0.0-64.0","3F6HPJW4JEMBIRLA691HFBRUXH2W2B","A3OZ8KF0HWSVWK","368IUKXGA5U7UZ9GQNUNOB4MGE4P6M","","778.5999999940395","img/animal4.png","74","784.9000000059605","1","1","2","0.5,0,1,1,0.5,0,0,1,0.5",""
"","html-keyboard-response","65","96963","0.0-65.0","3F6HPJW4JEMBIRLA691HFBRUXH2W2B","A3OZ8KF0HWSVWK","368IUKXGA5U7UZ9GQNUNOB4MGE4P6M","","null","<img src=""img/animal4.png"" style=""width:200px; border:14px solid green;"">","null","","","","","",""
"","image-keyboard-response","66","99889","0.0-66.0","3F6HPJW4JEMBIRLA691HFBRUXH2W2B","A3OZ8KF0HWSVWK","368IUKXGA5U7UZ9GQNUNOB4MGE4P6M","","2921.5999999940395","img/animal5.png","76","2925.2000000029802","3","1","1","0.5,0,1,1,0.5,0,0,1,0.5",""
"","html-keyboard-response","67","100195","0.0-67.0","3F6HPJW4JEMBIRLA691HFBRUXH2W2B","A3OZ8KF0HWSVWK","368IUKXGA5U7UZ9GQNUNOB4MGE4P6M","","null","<img src=""img/animal5.png"" style=""width:200px; border:14px solid green;"">","null","","","","","",""
"","image-keyboard-response","68","101188","0.0-68.0","3F6HPJW4JEMBIRLA691HFBRUXH2W2B","A3OZ8KF0HWSVWK","368IUKXGA5U7UZ9GQNUNOB4MGE4P6M","","987.5","img/animal6.png","75","992.2999999970198","2","1","3","0.5,0,1,1,0.5,0,0,1,0.5",""
"","html-keyboard-response","69","101496","0.0-69.0","3F6HPJW4JEMBIRLA691HFBRUXH2W2B","A3OZ8KF0HWSVWK","368IUKXGA5U7UZ9GQNUNOB4MGE4P6M","","null","<img src=""img/animal6.png"" style=""width:200px; border:14px solid green;"">","null","","","","","",""
"","image-keyboard-response","70","102151","0.0-70.0","3F6HPJW4JEMBIRLA691HFBRUXH2W2B","A3OZ8KF0HWSVWK","368IUKXGA5U7UZ9GQNUNOB4MGE4P6M","","649.3999999910593","img/animal6.png","75","654.2999999970198","2","1","3","0.5,0,1,1,0.5,0,0,1,0.5",""
"","html-keyboard-response","71","102457","0.0-71.0","3F6HPJW4JEMBIRLA691HFBRUXH2W2B","A3OZ8KF0HWSVWK","368IUKXGA5U7UZ9GQNUNOB4MGE4P6M","","null","<img src=""img/animal6.png"" style=""width:200px; border:14px solid green;"">","null","","","","","",""
"","image-keyboard-response","72","103247","0.0-72.0","3F6HPJW4JEMBIRLA691HFBRUXH2W2B","A3OZ8KF0HWSVWK","368IUKXGA5U7UZ9GQNUNOB4MGE4P6M","","786.4000000059605","img/animal6.png","75","790","2","1","3","0.5,0,1,1,0.5,0,0,1,0.5",""
"","html-keyboard-response","73","103553","0.0-73.0","3F6HPJW4JEMBIRLA691HFBRUXH2W2B","A3OZ8KF0HWSVWK","368IUKXGA5U7UZ9GQNUNOB4MGE4P6M","","null","<img src=""img/animal6.png"" style=""width:200px; border:14px solid green;"">","null","","","","","",""
"","image-keyboard-response","74","104560","0.0-74.0","3F6HPJW4JEMBIRLA691HFBRUXH2W2B","A3OZ8KF0HWSVWK","368IUKXGA5U7UZ9GQNUNOB4MGE4P6M","","999.0999999940395","img/animal6.png","75","1006.2999999970198","2","1","3","0.5,0,1,1,0.5,0,0,1,0.5",""
"","html-keyboard-response","75","104865","0.0-75.0","3F6HPJW4JEMBIRLA691HFBRUXH2W2B","A3OZ8KF0HWSVWK","368IUKXGA5U7UZ9GQNUNOB4MGE4P6M","","null","<img src=""img/animal6.png"" style=""width:200px; border:14px solid green;"">","null","","","","","",""
"","image-keyboard-response","76","105654","0.0-76.0","3F6HPJW4JEMBIRLA691HFBRUXH2W2B","A3OZ8KF0HWSVWK","368IUKXGA5U7UZ9GQNUNOB4MGE4P6M","","785.3999999910593","img/animal4.png","74","788.5999999940395","1","1","2","0.5,0,1,1,0.5,0,0,1,0.5",""
"","html-keyboard-response","77","105960","0.0-77.0","3F6HPJW4JEMBIRLA691HFBRUXH2W2B","A3OZ8KF0HWSVWK","368IUKXGA5U7UZ9GQNUNOB4MGE4P6M","","null","<img src=""img/animal4.png"" style=""width:200px; border:14px solid green;"">","null","","","","","",""
"","image-keyboard-response","78","106965","0.0-78.0","3F6HPJW4JEMBIRLA691HFBRUXH2W2B","A3OZ8KF0HWSVWK","368IUKXGA5U7UZ9GQNUNOB4MGE4P6M","","1000.7000000029802","img/animal5.png","76","1004.2000000029802","3","1","1","0.5,0,1,1,0.5,0,0,1,0.5",""
"","html-keyboard-response","79","107274","0.0-79.0","3F6HPJW4JEMBIRLA691HFBRUXH2W2B","A3OZ8KF0HWSVWK","368IUKXGA5U7UZ9GQNUNOB4MGE4P6M","","null","<img src=""img/animal5.png"" style=""width:200px; border:14px solid green;"">","null","","","","","",""
"","image-keyboard-response","80","107945","0.0-80.0","3F6HPJW4JEMBIRLA691HFBRUXH2W2B","A3OZ8KF0HWSVWK","368IUKXGA5U7UZ9GQNUNOB4MGE4P6M","","664.6000000089407","img/animal5.png","76","670.2999999970198","3","1","1","0.5,0,1,1,0.5,0,0,1,0.5",""
"","html-keyboard-response","81","108250","0.0-81.0","3F6HPJW4JEMBIRLA691HFBRUXH2W2B","A3OZ8KF0HWSVWK","368IUKXGA5U7UZ9GQNUNOB4MGE4P6M","","null","<img src=""img/animal5.png"" style=""width:200px; border:14px solid green;"">","null","","","","","",""
"","image-keyboard-response","82","109031","0.0-82.0","3F6HPJW4JEMBIRLA691HFBRUXH2W2B","A3OZ8KF0HWSVWK","368IUKXGA5U7UZ9GQNUNOB4MGE4P6M","","772.8999999910593","img/animal6.png","75","779.9000000059605","2","1","3","0.5,0,1,1,0.5,0,0,1,0.5",""
"","html-keyboard-response","83","109340","0.0-83.0","3F6HPJW4JEMBIRLA691HFBRUXH2W2B","A3OZ8KF0HWSVWK","368IUKXGA5U7UZ9GQNUNOB4MGE4P6M","","null","<img src=""img/animal6.png"" style=""width:200px; border:14px solid green;"">","null","","","","","",""
"","image-keyboard-response","84","110150","0.0-84.0","3F6HPJW4JEMBIRLA691HFBRUXH2W2B","A3OZ8KF0HWSVWK","368IUKXGA5U7UZ9GQNUNOB4MGE4P6M","","806.7999999970198","img/animal6.png","75","810.4000000059605","2","1","3","0.5,0,1,1,0.5,0,0,1,0.5",""
"","html-keyboard-response","85","110457","0.0-85.0","3F6HPJW4JEMBIRLA691HFBRUXH2W2B","A3OZ8KF0HWSVWK","368IUKXGA5U7UZ9GQNUNOB4MGE4P6M","","null","<img src=""img/animal6.png"" style=""width:200px; border:14px solid green;"">","null","","","","","",""
"","image-keyboard-response","86","111169","0.0-86.0","3F6HPJW4JEMBIRLA691HFBRUXH2W2B","A3OZ8KF0HWSVWK","368IUKXGA5U7UZ9GQNUNOB4MGE4P6M","","703.7000000029802","img/animal4.png","74","709.9000000059605","1","1","2","0.5,0,1,1,0.5,0,0,1,0.5",""
"","html-keyboard-response","87","111478","0.0-87.0","3F6HPJW4JEMBIRLA691HFBRUXH2W2B","A3OZ8KF0HWSVWK","368IUKXGA5U7UZ9GQNUNOB4MGE4P6M","","null","<img src=""img/animal4.png"" style=""width:200px; border:14px solid green;"">","null","","","","","",""
"","image-keyboard-response","88","114515","0.0-88.0","3F6HPJW4JEMBIRLA691HFBRUXH2W2B","A3OZ8KF0HWSVWK","368IUKXGA5U7UZ9GQNUNOB4MGE4P6M","","3030.0999999940395","img/animal6.png","76","3035.1000000089407","3","1","3","0.5,0,1,1,0.5,0,0,1,0.5",""
"","html-keyboard-response","89","114818","0.0-89.0","3F6HPJW4JEMBIRLA691HFBRUXH2W2B","A3OZ8KF0HWSVWK","368IUKXGA5U7UZ9GQNUNOB4MGE4P6M","","null","<img src=""img/animal6.png"" style=""width:200px; border:14px solid green;"">","null","","","","","",""
"","image-keyboard-response","90","115929","0.0-90.0","3F6HPJW4JEMBIRLA691HFBRUXH2W2B","A3OZ8KF0HWSVWK","368IUKXGA5U7UZ9GQNUNOB4MGE4P6M","","1107","img/animal5.png","75","1110.5999999940395","2","0","1","0.5,0,1,1,0.5,0,0,1,0.5",""
"","html-keyboard-response","91","116236","0.0-91.0","3F6HPJW4JEMBIRLA691HFBRUXH2W2B","A3OZ8KF0HWSVWK","368IUKXGA5U7UZ9GQNUNOB4MGE4P6M","","null","<img src=""img/animal5.png"" style=""width:200px;border:14px solid red;"">","null","","","","","",""
"","image-keyboard-response","92","117843","0.0-92.0","3F6HPJW4JEMBIRLA691HFBRUXH2W2B","A3OZ8KF0HWSVWK","368IUKXGA5U7UZ9GQNUNOB4MGE4P6M","","1602.9000000059605","img/animal5.png","75","1606.4000000059605","2","0","1","0.5,0,1,1,0.5,0,0,1,0.5",""
"","html-keyboard-response","93","118152","0.0-93.0","3F6HPJW4JEMBIRLA691HFBRUXH2W2B","A3OZ8KF0HWSVWK","368IUKXGA5U7UZ9GQNUNOB4MGE4P6M","","null","<img src=""img/animal5.png"" style=""width:200px;border:14px solid red;"">","null","","","","","",""
"","image-keyboard-response","94","118937","0.0-94.0","3F6HPJW4JEMBIRLA691HFBRUXH2W2B","A3OZ8KF0HWSVWK","368IUKXGA5U7UZ9GQNUNOB4MGE4P6M","","776.5","img/animal4.png","74","783.5999999940395","1","1","2","0.5,0,1,1,0.5,0,0,1,0.5",""
"","html-keyboard-response","95","119243","0.0-95.0","3F6HPJW4JEMBIRLA691HFBRUXH2W2B","A3OZ8KF0HWSVWK","368IUKXGA5U7UZ9GQNUNOB4MGE4P6M","","null","<img src=""img/animal4.png"" style=""width:200px; border:14px solid green;"">","null","","","","","",""
"","image-keyboard-response","96","120292","0.0-96.0","3F6HPJW4JEMBIRLA691HFBRUXH2W2B","A3OZ8KF0HWSVWK","368IUKXGA5U7UZ9GQNUNOB4MGE4P6M","","1041.7999999970198","img/animal4.png","74","1048.4000000059605","1","1","2","0.5,0,1,1,0.5,0,0,1,0.5",""
"","html-keyboard-response","97","120602","0.0-97.0","3F6HPJW4JEMBIRLA691HFBRUXH2W2B","A3OZ8KF0HWSVWK","368IUKXGA5U7UZ9GQNUNOB4MGE4P6M","","null","<img src=""img/animal4.png"" style=""width:200px; border:14px solid green;"">","null","","","","","",""
"","image-keyboard-response","98","121801","0.0-98.0","3F6HPJW4JEMBIRLA691HFBRUXH2W2B","A3OZ8KF0HWSVWK","368IUKXGA5U7UZ9GQNUNOB4MGE4P6M","","1193.7000000029802","img/animal5.png","76","1197.4000000059605","3","1","1","0.5,0,1,1,0.5,0,0,1,0.5",""
"","html-keyboard-response","99","122106","0.0-99.0","3F6HPJW4JEMBIRLA691HFBRUXH2W2B","A3OZ8KF0HWSVWK","368IUKXGA5U7UZ9GQNUNOB4MGE4P6M","","null","<img src=""img/animal5.png"" style=""width:200px; border:14px solid green;"">","null","","","","","",""
"","image-keyboard-response","100","122794","0.0-100.0","3F6HPJW4JEMBIRLA691HFBRUXH2W2B","A3OZ8KF0HWSVWK","368IUKXGA5U7UZ9GQNUNOB4MGE4P6M","","682","img/animal5.png","76","686.3999999910593","3","1","1","0.5,0,1,1,0.5,0,0,1,0.5",""
"","html-keyboard-response","101","123099","0.0-101.0","3F6HPJW4JEMBIRLA691HFBRUXH2W2B","A3OZ8KF0HWSVWK","368IUKXGA5U7UZ9GQNUNOB4MGE4P6M","","null","<img src=""img/animal5.png"" style=""width:200px; border:14px solid green;"">","null","","","","","",""
"","image-keyboard-response","102","123973","0.0-102.0","3F6HPJW4JEMBIRLA691HFBRUXH2W2B","A3OZ8KF0HWSVWK","368IUKXGA5U7UZ9GQNUNOB4MGE4P6M","","868","img/animal6.png","75","872.2999999970198","2","1","3","0.5,0,1,1,0.5,0,0,1,0.5",""
"","html-keyboard-response","103","124279","0.0-103.0","3F6HPJW4JEMBIRLA691HFBRUXH2W2B","A3OZ8KF0HWSVWK","368IUKXGA5U7UZ9GQNUNOB4MGE4P6M","","null","<img src=""img/animal6.png"" style=""width:200px; border:14px solid green;"">","null","","","","","",""
"","image-keyboard-response","104","125191","0.0-104.0","3F6HPJW4JEMBIRLA691HFBRUXH2W2B","A3OZ8KF0HWSVWK","368IUKXGA5U7UZ9GQNUNOB4MGE4P6M","","907.2999999970198","img/animal5.png","76","911.5","3","1","1","0.5,0,1,1,0.5,0,0,1,0.5",""
"","html-keyboard-response","105","125497","0.0-105.0","3F6HPJW4JEMBIRLA691HFBRUXH2W2B","A3OZ8KF0HWSVWK","368IUKXGA5U7UZ9GQNUNOB4MGE4P6M","","null","<img src=""img/animal5.png"" style=""width:200px; border:14px solid green;"">","null","","","","","",""
"","image-keyboard-response","106","126338","0.0-106.0","3F6HPJW4JEMBIRLA691HFBRUXH2W2B","A3OZ8KF0HWSVWK","368IUKXGA5U7UZ9GQNUNOB4MGE4P6M","","836.7000000029802","img/animal5.png","76","840","3","1","1","0.5,0,1,1,0.5,0,0,1,0.5",""
"","html-keyboard-response","107","126647","0.0-107.0","3F6HPJW4JEMBIRLA691HFBRUXH2W2B","A3OZ8KF0HWSVWK","368IUKXGA5U7UZ9GQNUNOB4MGE4P6M","","null","<img src=""img/animal5.png"" style=""width:200px; border:14px solid green;"">","null","","","","","",""
"","image-keyboard-response","108","127672","0.0-108.0","3F6HPJW4JEMBIRLA691HFBRUXH2W2B","A3OZ8KF0HWSVWK","368IUKXGA5U7UZ9GQNUNOB4MGE4P6M","","1019.7000000029802","img/animal6.png","75","1023.8000000119209","2","1","3","0.5,0,1,1,0.5,0,0,1,0.5",""
"","html-keyboard-response","109","127979","0.0-109.0","3F6HPJW4JEMBIRLA691HFBRUXH2W2B","A3OZ8KF0HWSVWK","368IUKXGA5U7UZ9GQNUNOB4MGE4P6M","","null","<img src=""img/animal6.png"" style=""width:200px; border:14px solid green;"">","null","","","","","",""
"","image-keyboard-response","110","128851","0.0-110.0","3F6HPJW4JEMBIRLA691HFBRUXH2W2B","A3OZ8KF0HWSVWK","368IUKXGA5U7UZ9GQNUNOB4MGE4P6M","","864.7999999970198","img/animal5.png","76","869.2999999970198","3","1","1","0.5,0,1,1,0.5,0,0,1,0.5",""
"","html-keyboard-response","111","129157","0.0-111.0","3F6HPJW4JEMBIRLA691HFBRUXH2W2B","A3OZ8KF0HWSVWK","368IUKXGA5U7UZ9GQNUNOB4MGE4P6M","","null","<img src=""img/animal5.png"" style=""width:200px; border:14px solid green;"">","null","","","","","",""
"","image-keyboard-response","112","129976","0.0-112.0","3F6HPJW4JEMBIRLA691HFBRUXH2W2B","A3OZ8KF0HWSVWK","368IUKXGA5U7UZ9GQNUNOB4MGE4P6M","","810","img/animal6.png","75","818.1000000089407","2","1","3","0.5,0,1,1,0.5,0,0,1,0.5",""
"","html-keyboard-response","113","130284","0.0-113.0","3F6HPJW4JEMBIRLA691HFBRUXH2W2B","A3OZ8KF0HWSVWK","368IUKXGA5U7UZ9GQNUNOB4MGE4P6M","","null","<img src=""img/animal6.png"" style=""width:200px; border:14px solid green;"">","null","","","","","",""
"","image-keyboard-response","114","130978","0.0-114.0","3F6HPJW4JEMBIRLA691HFBRUXH2W2B","A3OZ8KF0HWSVWK","368IUKXGA5U7UZ9GQNUNOB4MGE4P6M","","688.7000000029802","img/animal4.png","74","694.3999999910593","1","1","2","0.5,0,1,1,0.5,0,0,1,0.5",""
"","html-keyboard-response","115","131287","0.0-115.0","3F6HPJW4JEMBIRLA691HFBRUXH2W2B","A3OZ8KF0HWSVWK","368IUKXGA5U7UZ9GQNUNOB4MGE4P6M","","null","<img src=""img/animal4.png"" style=""width:200px; border:14px solid green;"">","null","","","","","",""
"","image-keyboard-response","116","132071","0.0-116.0","3F6HPJW4JEMBIRLA691HFBRUXH2W2B","A3OZ8KF0HWSVWK","368IUKXGA5U7UZ9GQNUNOB4MGE4P6M","","774.9000000059605","img/animal4.png","74","781.4000000059605","1","1","2","0.5,0,1,1,0.5,0,0,1,0.5",""
"","html-keyboard-response","117","132376","0.0-117.0","3F6HPJW4JEMBIRLA691HFBRUXH2W2B","A3OZ8KF0HWSVWK","368IUKXGA5U7UZ9GQNUNOB4MGE4P6M","","null","<img src=""img/animal4.png"" style=""width:200px; border:14px solid green;"">","null","","","","","",""
"","image-keyboard-response","118","134017","0.0-118.0","3F6HPJW4JEMBIRLA691HFBRUXH2W2B","A3OZ8KF0HWSVWK","368IUKXGA5U7UZ9GQNUNOB4MGE4P6M","","1637.300000011921","img/animal6.png","76","1640.4000000059605","3","0","3","0.5,0,1,1,0.5,0,0,1,0.5",""
"","html-keyboard-response","119","134325","0.0-119.0","3F6HPJW4JEMBIRLA691HFBRUXH2W2B","A3OZ8KF0HWSVWK","368IUKXGA5U7UZ9GQNUNOB4MGE4P6M","","null","<img src=""img/animal6.png"" style=""width:200px;border:14px solid red;"">","null","","","","","",""
"","image-keyboard-response","120","135530","0.0-120.0","3F6HPJW4JEMBIRLA691HFBRUXH2W2B","A3OZ8KF0HWSVWK","368IUKXGA5U7UZ9GQNUNOB4MGE4P6M","","1197.7999999970198","img/animal5.png","76","1203.4000000059605","3","1","1","0.5,0,1,1,0.5,0,0,1,0.5",""
"","html-keyboard-response","121","135836","0.0-121.0","3F6HPJW4JEMBIRLA691HFBRUXH2W2B","A3OZ8KF0HWSVWK","368IUKXGA5U7UZ9GQNUNOB4MGE4P6M","","null","<img src=""img/animal5.png"" style=""width:200px; border:14px solid green;"">","null","","","","","",""
"","image-keyboard-response","122","136520","0.0-122.0","3F6HPJW4JEMBIRLA691HFBRUXH2W2B","A3OZ8KF0HWSVWK","368IUKXGA5U7UZ9GQNUNOB4MGE4P6M","","676.7000000029802","img/animal5.png","76","682","3","1","1","0.5,0,1,1,0.5,0,0,1,0.5",""
"","html-keyboard-response","123","136826","0.0-123.0","3F6HPJW4JEMBIRLA691HFBRUXH2W2B","A3OZ8KF0HWSVWK","368IUKXGA5U7UZ9GQNUNOB4MGE4P6M","","null","<img src=""img/animal5.png"" style=""width:200px; border:14px solid green;"">","null","","","","","",""
"","image-keyboard-response","124","137508","0.0-124.0","3F6HPJW4JEMBIRLA691HFBRUXH2W2B","A3OZ8KF0HWSVWK","368IUKXGA5U7UZ9GQNUNOB4MGE4P6M","","673.5999999940395","img/animal4.png","74","680.2999999970198","1","1","2","0.5,0,1,1,0.5,0,0,1,0.5",""
"","html-keyboard-response","125","137814","0.0-125.0","3F6HPJW4JEMBIRLA691HFBRUXH2W2B","A3OZ8KF0HWSVWK","368IUKXGA5U7UZ9GQNUNOB4MGE4P6M","","null","<img src=""img/animal4.png"" style=""width:200px; border:14px solid green;"">","null","","","","","",""
"","image-keyboard-response","126","138510","0.0-126.0","3F6HPJW4JEMBIRLA691HFBRUXH2W2B","A3OZ8KF0HWSVWK","368IUKXGA5U7UZ9GQNUNOB4MGE4P6M","","692.2000000029802","img/animal4.png","74","695.6999999880791","1","1","2","0.5,0,1,1,0.5,0,0,1,0.5",""
"","html-keyboard-response","127","138820","0.0-127.0","3F6HPJW4JEMBIRLA691HFBRUXH2W2B","A3OZ8KF0HWSVWK","368IUKXGA5U7UZ9GQNUNOB4MGE4P6M","","null","<img src=""img/animal4.png"" style=""width:200px; border:14px solid green;"">","null","","","","","",""
"","image-keyboard-response","128","139526","0.0-128.0","3F6HPJW4JEMBIRLA691HFBRUXH2W2B","A3OZ8KF0HWSVWK","368IUKXGA5U7UZ9GQNUNOB4MGE4P6M","","701.7000000029802","img/animal6.png","75","705.7000000029802","2","1","3","0.5,0,1,1,0.5,0,0,1,0.5",""
"","html-keyboard-response","129","139830","0.0-129.0","3F6HPJW4JEMBIRLA691HFBRUXH2W2B","A3OZ8KF0HWSVWK","368IUKXGA5U7UZ9GQNUNOB4MGE4P6M","","null","<img src=""img/animal6.png"" style=""width:200px; border:14px solid green;"">","null","","","","","",""
"","image-keyboard-response","130","140975","0.0-130.0","3F6HPJW4JEMBIRLA691HFBRUXH2W2B","A3OZ8KF0HWSVWK","368IUKXGA5U7UZ9GQNUNOB4MGE4P6M","","1140.7000000029802","img/animal5.png","76","1143.7999999970198","3","1","1","0.5,0,1,1,0.5,0,0,1,0.5",""
"","html-keyboard-response","131","141280","0.0-131.0","3F6HPJW4JEMBIRLA691HFBRUXH2W2B","A3OZ8KF0HWSVWK","368IUKXGA5U7UZ9GQNUNOB4MGE4P6M","","null","<img src=""img/animal5.png"" style=""width:200px; border:14px solid green;"">","null","","","","","",""
"","image-keyboard-response","132","142014","0.0-132.0","3F6HPJW4JEMBIRLA691HFBRUXH2W2B","A3OZ8KF0HWSVWK","368IUKXGA5U7UZ9GQNUNOB4MGE4P6M","","726.2999999970198","img/animal4.png","74","732.4000000059605","1","1","2","0.5,0,1,1,0.5,0,0,1,0.5",""
"","html-keyboard-response","133","142323","0.0-133.0","3F6HPJW4JEMBIRLA691HFBRUXH2W2B","A3OZ8KF0HWSVWK","368IUKXGA5U7UZ9GQNUNOB4MGE4P6M","","null","<img src=""img/animal4.png"" style=""width:200px; border:14px solid green;"">","null","","","","","",""
"","image-keyboard-response","134","143547","0.0-134.0","3F6HPJW4JEMBIRLA691HFBRUXH2W2B","A3OZ8KF0HWSVWK","368IUKXGA5U7UZ9GQNUNOB4MGE4P6M","","1216.1000000089407","img/animal6.png","75","1225","2","1","3","0.5,0,1,1,0.5,0,0,1,0.5",""
"","html-keyboard-response","135","143854","0.0-135.0","3F6HPJW4JEMBIRLA691HFBRUXH2W2B","A3OZ8KF0HWSVWK","368IUKXGA5U7UZ9GQNUNOB4MGE4P6M","","null","<img src=""img/animal6.png"" style=""width:200px; border:14px solid green;"">","null","","","","","",""
"","image-keyboard-response","136","144574","0.0-136.0","3F6HPJW4JEMBIRLA691HFBRUXH2W2B","A3OZ8KF0HWSVWK","368IUKXGA5U7UZ9GQNUNOB4MGE4P6M","","717","img/animal6.png","75","719.7999999970198","2","1","3","0.5,0,1,1,0.5,0,0,1,0.5",""
"","html-keyboard-response","137","144880","0.0-137.0","3F6HPJW4JEMBIRLA691HFBRUXH2W2B","A3OZ8KF0HWSVWK","368IUKXGA5U7UZ9GQNUNOB4MGE4P6M","","null","<img src=""img/animal6.png"" style=""width:200px; border:14px solid green;"">","null","","","","","",""
"","image-keyboard-response","138","145702","0.0-138.0","3F6HPJW4JEMBIRLA691HFBRUXH2W2B","A3OZ8KF0HWSVWK","368IUKXGA5U7UZ9GQNUNOB4MGE4P6M","","816.2999999970198","img/animal6.png","75","822.7999999970198","2","1","3","0.5,0,1,1,0.5,0,0,1,0.5",""
"","html-keyboard-response","139","146008","0.0-139.0","3F6HPJW4JEMBIRLA691HFBRUXH2W2B","A3OZ8KF0HWSVWK","368IUKXGA5U7UZ9GQNUNOB4MGE4P6M","","null","<img src=""img/animal6.png"" style=""width:200px; border:14px solid green;"">","null","","","","","",""
"","image-keyboard-response","140","147271","0.0-140.0","3F6HPJW4JEMBIRLA691HFBRUXH2W2B","A3OZ8KF0HWSVWK","368IUKXGA5U7UZ9GQNUNOB4MGE4P6M","","1257.5999999940395","img/animal5.png","76","1261.2000000029802","3","1","1","0.5,0,1,1,0.5,0,0,1,0.5",""
"","html-keyboard-response","141","147575","0.0-141.0","3F6HPJW4JEMBIRLA691HFBRUXH2W2B","A3OZ8KF0HWSVWK","368IUKXGA5U7UZ9GQNUNOB4MGE4P6M","","null","<img src=""img/animal5.png"" style=""width:200px; border:14px solid green;"">","null","","","","","",""
"","image-keyboard-response","142","148163","0.0-142.0","3F6HPJW4JEMBIRLA691HFBRUXH2W2B","A3OZ8KF0HWSVWK","368IUKXGA5U7UZ9GQNUNOB4MGE4P6M","","582.7999999970198","img/animal5.png","76","586.8999999910593","3","1","1","0.5,0,1,1,0.5,0,0,1,0.5",""
"","html-keyboard-response","143","148469","0.0-143.0","3F6HPJW4JEMBIRLA691HFBRUXH2W2B","A3OZ8KF0HWSVWK","368IUKXGA5U7UZ9GQNUNOB4MGE4P6M","","null","<img src=""img/animal5.png"" style=""width:200px; border:14px solid green;"">","null","","","","","",""
"","image-keyboard-response","144","149524","0.0-144.0","3F6HPJW4JEMBIRLA691HFBRUXH2W2B","A3OZ8KF0HWSVWK","368IUKXGA5U7UZ9GQNUNOB4MGE4P6M","","1048.8999999910593","img/animal6.png","75","1053.7000000029802","2","1","3","0.5,0,1,1,0.5,0,0,1,0.5",""
"","html-keyboard-response","145","149833","0.0-145.0","3F6HPJW4JEMBIRLA691HFBRUXH2W2B","A3OZ8KF0HWSVWK","368IUKXGA5U7UZ9GQNUNOB4MGE4P6M","","null","<img src=""img/animal6.png"" style=""width:200px; border:14px solid green;"">","null","","","","","",""
"","image-keyboard-response","146","150607","0.0-146.0","3F6HPJW4JEMBIRLA691HFBRUXH2W2B","A3OZ8KF0HWSVWK","368IUKXGA5U7UZ9GQNUNOB4MGE4P6M","","766.5999999940395","img/animal5.png","76","772","3","1","1","0.5,0,1,1,0.5,0,0,1,0.5",""
"","html-keyboard-response","147","150914","0.0-147.0","3F6HPJW4JEMBIRLA691HFBRUXH2W2B","A3OZ8KF0HWSVWK","368IUKXGA5U7UZ9GQNUNOB4MGE4P6M","","null","<img src=""img/animal5.png"" style=""width:200px; border:14px solid green;"">","null","","","","","",""
"","image-keyboard-response","148","151901","0.0-148.0","3F6HPJW4JEMBIRLA691HFBRUXH2W2B","A3OZ8KF0HWSVWK","368IUKXGA5U7UZ9GQNUNOB4MGE4P6M","","984","img/animal6.png","75","986.6000000089407","2","1","3","0.5,0,1,1,0.5,0,0,1,0.5",""
"","html-keyboard-response","149","152206","0.0-149.0","3F6HPJW4JEMBIRLA691HFBRUXH2W2B","A3OZ8KF0HWSVWK","368IUKXGA5U7UZ9GQNUNOB4MGE4P6M","","null","<img src=""img/animal6.png"" style=""width:200px; border:14px solid green;"">","null","","","","","",""
"","image-keyboard-response","150","152965","0.0-150.0","3F6HPJW4JEMBIRLA691HFBRUXH2W2B","A3OZ8KF0HWSVWK","368IUKXGA5U7UZ9GQNUNOB4MGE4P6M","","755.3999999910593","img/animal4.png","74","758.5","1","1","2","0.5,0,1,1,0.5,0,0,1,0.5",""
"","html-keyboard-response","151","153273","0.0-151.0","3F6HPJW4JEMBIRLA691HFBRUXH2W2B","A3OZ8KF0HWSVWK","368IUKXGA5U7UZ9GQNUNOB4MGE4P6M","","null","<img src=""img/animal4.png"" style=""width:200px; border:14px solid green;"">","null","","","","","",""
"","image-keyboard-response","152","154409","0.0-152.0","3F6HPJW4JEMBIRLA691HFBRUXH2W2B","A3OZ8KF0HWSVWK","368IUKXGA5U7UZ9GQNUNOB4MGE4P6M","","1130.9000000059605","img/animal5.png","76","1135.8999999910593","3","1","1","0.5,0,1,1,0.5,0,0,1,0.5",""
"","html-keyboard-response","153","154714","0.0-153.0","3F6HPJW4JEMBIRLA691HFBRUXH2W2B","A3OZ8KF0HWSVWK","368IUKXGA5U7UZ9GQNUNOB4MGE4P6M","","null","<img src=""img/animal5.png"" style=""width:200px; border:14px solid green;"">","null","","","","","",""
"","image-keyboard-response","154","155457","0.0-154.0","3F6HPJW4JEMBIRLA691HFBRUXH2W2B","A3OZ8KF0HWSVWK","368IUKXGA5U7UZ9GQNUNOB4MGE4P6M","","735.7999999970198","img/animal6.png","75","740.8000000119209","2","1","3","0.5,0,1,1,0.5,0,0,1,0.5",""
"","html-keyboard-response","155","155763","0.0-155.0","3F6HPJW4JEMBIRLA691HFBRUXH2W2B","A3OZ8KF0HWSVWK","368IUKXGA5U7UZ9GQNUNOB4MGE4P6M","","null","<img src=""img/animal6.png"" style=""width:200px; border:14px solid green;"">","null","","","","","",""
"","image-keyboard-response","156","156827","0.0-156.0","3F6HPJW4JEMBIRLA691HFBRUXH2W2B","A3OZ8KF0HWSVWK","368IUKXGA5U7UZ9GQNUNOB4MGE4P6M","","1059.7000000029802","img/animal4.png","74","1063.2999999970198","1","1","2","0.5,0,1,1,0.5,0,0,1,0.5",""
"","html-keyboard-response","157","157131","0.0-157.0","3F6HPJW4JEMBIRLA691HFBRUXH2W2B","A3OZ8KF0HWSVWK","368IUKXGA5U7UZ9GQNUNOB4MGE4P6M","","null","<img src=""img/animal4.png"" style=""width:200px; border:14px solid green;"">","null","","","","","",""
"","image-keyboard-response","158","157832","0.0-158.0","3F6HPJW4JEMBIRLA691HFBRUXH2W2B","A3OZ8KF0HWSVWK","368IUKXGA5U7UZ9GQNUNOB4MGE4P6M","","693.2999999970198","img/animal4.png","74","699.7000000029802","1","1","2","0.5,0,1,1,0.5,0,0,1,0.5",""
"","html-keyboard-response","159","158138","0.0-159.0","3F6HPJW4JEMBIRLA691HFBRUXH2W2B","A3OZ8KF0HWSVWK","368IUKXGA5U7UZ9GQNUNOB4MGE4P6M","","null","<img src=""img/animal4.png"" style=""width:200px; border:14px solid green;"">","null","","","","","",""
"","image-keyboard-response","160","159163","0.0-160.0","3F6HPJW4JEMBIRLA691HFBRUXH2W2B","A3OZ8KF0HWSVWK","368IUKXGA5U7UZ9GQNUNOB4MGE4P6M","","1016.2000000029802","img/animal4.png","74","1023.5999999940395","1","1","2","0.5,0,1,1,0.5,0,0,1,0.5",""
"","html-keyboard-response","161","159469","0.0-161.0","3F6HPJW4JEMBIRLA691HFBRUXH2W2B","A3OZ8KF0HWSVWK","368IUKXGA5U7UZ9GQNUNOB4MGE4P6M","","null","<img src=""img/animal4.png"" style=""width:200px; border:14px solid green;"">","null","","","","","",""
"","image-keyboard-response","162","160411","0.0-162.0","3F6HPJW4JEMBIRLA691HFBRUXH2W2B","A3OZ8KF0HWSVWK","368IUKXGA5U7UZ9GQNUNOB4MGE4P6M","","935.7000000029802","img/animal4.png","74","941.5","1","1","2","0.5,0,1,1,0.5,0,0,1,0.5",""
"","html-keyboard-response","163","160718","0.0-163.0","3F6HPJW4JEMBIRLA691HFBRUXH2W2B","A3OZ8KF0HWSVWK","368IUKXGA5U7UZ9GQNUNOB4MGE4P6M","","null","<img src=""img/animal4.png"" style=""width:200px; border:14px solid green;"">","null","","","","","",""
"","image-keyboard-response","164","161588","0.0-164.0","3F6HPJW4JEMBIRLA691HFBRUXH2W2B","A3OZ8KF0HWSVWK","368IUKXGA5U7UZ9GQNUNOB4MGE4P6M","","863.7999999970198","img/animal4.png","74","868.7999999970198","1","1","2","0.5,0,1,1,0.5,0,0,1,0.5",""
"","html-keyboard-response","165","161894","0.0-165.0","3F6HPJW4JEMBIRLA691HFBRUXH2W2B","A3OZ8KF0HWSVWK","368IUKXGA5U7UZ9GQNUNOB4MGE4P6M","","null","<img src=""img/animal4.png"" style=""width:200px; border:14px solid green;"">","null","","","","","",""
"","image-keyboard-response","166","163771","0.0-166.0","3F6HPJW4JEMBIRLA691HFBRUXH2W2B","A3OZ8KF0HWSVWK","368IUKXGA5U7UZ9GQNUNOB4MGE4P6M","","1872.9000000059605","img/animal6.png","76","1876.2999999970198","3","0","3","0.5,0,1,1,0.5,0,0,1,0.5",""
"","html-keyboard-response","167","164079","0.0-167.0","3F6HPJW4JEMBIRLA691HFBRUXH2W2B","A3OZ8KF0HWSVWK","368IUKXGA5U7UZ9GQNUNOB4MGE4P6M","","null","<img src=""img/animal6.png"" style=""width:200px;border:14px solid red;"">","null","","","","","",""
"","image-keyboard-response","168","164683","0.0-168.0","3F6HPJW4JEMBIRLA691HFBRUXH2W2B","A3OZ8KF0HWSVWK","368IUKXGA5U7UZ9GQNUNOB4MGE4P6M","","599.1000000089407","img/animal6.png","75","602.6000000089407","2","1","3","0.5,0,1,1,0.5,0,0,1,0.5",""
"","html-keyboard-response","169","164988","0.0-169.0","3F6HPJW4JEMBIRLA691HFBRUXH2W2B","A3OZ8KF0HWSVWK","368IUKXGA5U7UZ9GQNUNOB4MGE4P6M","","null","<img src=""img/animal6.png"" style=""width:200px; border:14px solid green;"">","null","","","","","",""
"","image-keyboard-response","170","165665","0.0-170.0","3F6HPJW4JEMBIRLA691HFBRUXH2W2B","A3OZ8KF0HWSVWK","368IUKXGA5U7UZ9GQNUNOB4MGE4P6M","","667.4000000059605","img/animal6.png","75","674.2000000029802","2","1","3","0.5,0,1,1,0.5,0,0,1,0.5",""
"","html-keyboard-response","171","165971","0.0-171.0","3F6HPJW4JEMBIRLA691HFBRUXH2W2B","A3OZ8KF0HWSVWK","368IUKXGA5U7UZ9GQNUNOB4MGE4P6M","","null","<img src=""img/animal6.png"" style=""width:200px; border:14px solid green;"">","null","","","","","",""
"","image-keyboard-response","172","166670","0.0-172.0","3F6HPJW4JEMBIRLA691HFBRUXH2W2B","A3OZ8KF0HWSVWK","368IUKXGA5U7UZ9GQNUNOB4MGE4P6M","","691.3000000119209","img/animal5.png","76","697.2000000029802","3","1","1","0.5,0,1,1,0.5,0,0,1,0.5",""
"","html-keyboard-response","173","166977","0.0-173.0","3F6HPJW4JEMBIRLA691HFBRUXH2W2B","A3OZ8KF0HWSVWK","368IUKXGA5U7UZ9GQNUNOB4MGE4P6M","","null","<img src=""img/animal5.png"" style=""width:200px; border:14px solid green;"">","null","","","","","",""
"","image-keyboard-response","174","167871","0.0-174.0","3F6HPJW4JEMBIRLA691HFBRUXH2W2B","A3OZ8KF0HWSVWK","368IUKXGA5U7UZ9GQNUNOB4MGE4P6M","","887.5","img/animal6.png","75","892.7999999970198","2","1","3","0.5,0,1,1,0.5,0,0,1,0.5",""
"","html-keyboard-response","175","168179","0.0-175.0","3F6HPJW4JEMBIRLA691HFBRUXH2W2B","A3OZ8KF0HWSVWK","368IUKXGA5U7UZ9GQNUNOB4MGE4P6M","","null","<img src=""img/animal6.png"" style=""width:200px; border:14px solid green;"">","null","","","","","",""
"","image-keyboard-response","176","168969","0.0-176.0","3F6HPJW4JEMBIRLA691HFBRUXH2W2B","A3OZ8KF0HWSVWK","368IUKXGA5U7UZ9GQNUNOB4MGE4P6M","","782.3999999910593","img/animal5.png","76","788.0999999940395","3","1","1","0.5,0,1,1,0.5,0,0,1,0.5",""
"","html-keyboard-response","177","169274","0.0-177.0","3F6HPJW4JEMBIRLA691HFBRUXH2W2B","A3OZ8KF0HWSVWK","368IUKXGA5U7UZ9GQNUNOB4MGE4P6M","","null","<img src=""img/animal5.png"" style=""width:200px; border:14px solid green;"">","null","","","","","",""
"","image-keyboard-response","178","169986","0.0-178.0","3F6HPJW4JEMBIRLA691HFBRUXH2W2B","A3OZ8KF0HWSVWK","368IUKXGA5U7UZ9GQNUNOB4MGE4P6M","","707","img/animal5.png","76","709.5","3","1","1","0.5,0,1,1,0.5,0,0,1,0.5",""
"","html-keyboard-response","179","170291","0.0-179.0","3F6HPJW4JEMBIRLA691HFBRUXH2W2B","A3OZ8KF0HWSVWK","368IUKXGA5U7UZ9GQNUNOB4MGE4P6M","","null","<img src=""img/animal5.png"" style=""width:200px; border:14px solid green;"">","null","","","","","",""
"","image-keyboard-response","180","171400","0.0-180.0","3F6HPJW4JEMBIRLA691HFBRUXH2W2B","A3OZ8KF0HWSVWK","368IUKXGA5U7UZ9GQNUNOB4MGE4P6M","","1103.2000000029802","img/animal6.png","75","1108","2","1","3","0.5,0,1,1,0.5,0,0,1,0.5",""
"","html-keyboard-response","181","171706","0.0-181.0","3F6HPJW4JEMBIRLA691HFBRUXH2W2B","A3OZ8KF0HWSVWK","368IUKXGA5U7UZ9GQNUNOB4MGE4P6M","","null","<img src=""img/animal6.png"" style=""width:200px; border:14px solid green;"">","null","","","","","",""
"","html-keyboard-response","182","176590","0.0-182.0","3F6HPJW4JEMBIRLA691HFBRUXH2W2B","A3OZ8KF0HWSVWK","368IUKXGA5U7UZ9GQNUNOB4MGE4P6M","","","","","","","","","",""
"","image-keyboard-response","183","179627","0.0-183.0","3F6HPJW4JEMBIRLA691HFBRUXH2W2B","A3OZ8KF0HWSVWK","368IUKXGA5U7UZ9GQNUNOB4MGE4P6M","","3031.5999999940395","img/animal3.png","74","3037.5","1","1","1","0.7,0,0.8,0.7,0.8,0,0.7,0.8,0",""
"","html-keyboard-response","184","179934","0.0-184.0","3F6HPJW4JEMBIRLA691HFBRUXH2W2B","A3OZ8KF0HWSVWK","368IUKXGA5U7UZ9GQNUNOB4MGE4P6M","","null","<img src=""img/animal3.png"" style=""width:200px; border:14px solid green;"">","null","","","","","",""
"","image-keyboard-response","185","181279","0.0-185.0","3F6HPJW4JEMBIRLA691HFBRUXH2W2B","A3OZ8KF0HWSVWK","368IUKXGA5U7UZ9GQNUNOB4MGE4P6M","","1334.7999999970198","img/animal2.png","75","1341.0999999940395","2","1","2","0.7,0,0.8,0.7,0.8,0,0.7,0.8,0",""
"","html-keyboard-response","186","181587","0.0-186.0","3F6HPJW4JEMBIRLA691HFBRUXH2W2B","A3OZ8KF0HWSVWK","368IUKXGA5U7UZ9GQNUNOB4MGE4P6M","","null","<img src=""img/animal2.png"" style=""width:200px; border:14px solid green;"">","null","","","","","",""
"","image-keyboard-response","187","182609","0.0-187.0","3F6HPJW4JEMBIRLA691HFBRUXH2W2B","A3OZ8KF0HWSVWK","368IUKXGA5U7UZ9GQNUNOB4MGE4P6M","","1012.6000000089407","img/animal1.png","76","1017.5","3","0","3","0.7,0,0.8,0.7,0.8,0,0.7,0.8,0",""
"","html-keyboard-response","188","182918","0.0-188.0","3F6HPJW4JEMBIRLA691HFBRUXH2W2B","A3OZ8KF0HWSVWK","368IUKXGA5U7UZ9GQNUNOB4MGE4P6M","","null","<img src=""img/animal1.png"" style=""width:200px;border:14px solid red;"">","null","","","","","",""
"","image-keyboard-response","189","184008","0.0-189.0","3F6HPJW4JEMBIRLA691HFBRUXH2W2B","A3OZ8KF0HWSVWK","368IUKXGA5U7UZ9GQNUNOB4MGE4P6M","","1084.5999999940395","img/animal3.png","74","1088.9000000059605","1","0","1","0.7,0,0.8,0.7,0.8,0,0.7,0.8,0",""
"","html-keyboard-response","190","184315","0.0-190.0","3F6HPJW4JEMBIRLA691HFBRUXH2W2B","A3OZ8KF0HWSVWK","368IUKXGA5U7UZ9GQNUNOB4MGE4P6M","","null","<img src=""img/animal3.png"" style=""width:200px;border:14px solid red;"">","null","","","","","",""
"","image-keyboard-response","191","185326","0.0-191.0","3F6HPJW4JEMBIRLA691HFBRUXH2W2B","A3OZ8KF0HWSVWK","368IUKXGA5U7UZ9GQNUNOB4MGE4P6M","","1005.9000000059605","img/animal3.png","74","1008.7999999970198","1","1","1","0.7,0,0.8,0.7,0.8,0,0.7,0.8,0",""
"","html-keyboard-response","192","185630","0.0-192.0","3F6HPJW4JEMBIRLA691HFBRUXH2W2B","A3OZ8KF0HWSVWK","368IUKXGA5U7UZ9GQNUNOB4MGE4P6M","","null","<img src=""img/animal3.png"" style=""width:200px; border:14px solid green;"">","null","","","","","",""
"","image-keyboard-response","193","186753","0.0-193.0","3F6HPJW4JEMBIRLA691HFBRUXH2W2B","A3OZ8KF0HWSVWK","368IUKXGA5U7UZ9GQNUNOB4MGE4P6M","","1118.0999999940395","img/animal1.png","75","1121.7999999970198","2","0","3","0.7,0,0.8,0.7,0.8,0,0.7,0.8,0",""
"","html-keyboard-response","194","187059","0.0-194.0","3F6HPJW4JEMBIRLA691HFBRUXH2W2B","A3OZ8KF0HWSVWK","368IUKXGA5U7UZ9GQNUNOB4MGE4P6M","","null","<img src=""img/animal1.png"" style=""width:200px;border:14px solid red;"">","null","","","","","",""
"","image-keyboard-response","195","187987","0.0-195.0","3F6HPJW4JEMBIRLA691HFBRUXH2W2B","A3OZ8KF0HWSVWK","368IUKXGA5U7UZ9GQNUNOB4MGE4P6M","","924","img/animal3.png","74","928.2000000029802","1","0","1","0.7,0,0.8,0.7,0.8,0,0.7,0.8,0",""
"","html-keyboard-response","196","188294","0.0-196.0","3F6HPJW4JEMBIRLA691HFBRUXH2W2B","A3OZ8KF0HWSVWK","368IUKXGA5U7UZ9GQNUNOB4MGE4P6M","","null","<img src=""img/animal3.png"" style=""width:200px;border:14px solid red;"">","null","","","","","",""
"","image-keyboard-response","197","189940","0.0-197.0","3F6HPJW4JEMBIRLA691HFBRUXH2W2B","A3OZ8KF0HWSVWK","368IUKXGA5U7UZ9GQNUNOB4MGE4P6M","","1639.2000000029802","img/animal1.png","76","1643","3","0","3","0.7,0,0.8,0.7,0.8,0,0.7,0.8,0",""
"","html-keyboard-response","198","190246","0.0-198.0","3F6HPJW4JEMBIRLA691HFBRUXH2W2B","A3OZ8KF0HWSVWK","368IUKXGA5U7UZ9GQNUNOB4MGE4P6M","","null","<img src=""img/animal1.png"" style=""width:200px;border:14px solid red;"">","null","","","","","",""
"","image-keyboard-response","199","191410","0.0-199.0","3F6HPJW4JEMBIRLA691HFBRUXH2W2B","A3OZ8KF0HWSVWK","368IUKXGA5U7UZ9GQNUNOB4MGE4P6M","","1160","img/animal2.png","75","1163.9000000059605","2","1","2","0.7,0,0.8,0.7,0.8,0,0.7,0.8,0",""
"","html-keyboard-response","200","191718","0.0-200.0","3F6HPJW4JEMBIRLA691HFBRUXH2W2B","A3OZ8KF0HWSVWK","368IUKXGA5U7UZ9GQNUNOB4MGE4P6M","","null","<img src=""img/animal2.png"" style=""width:200px; border:14px solid green;"">","null","","","","","",""
"","image-keyboard-response","201","193197","0.0-201.0","3F6HPJW4JEMBIRLA691HFBRUXH2W2B","A3OZ8KF0HWSVWK","368IUKXGA5U7UZ9GQNUNOB4MGE4P6M","","1474","img/animal3.png","74","1478","1","1","1","0.7,0,0.8,0.7,0.8,0,0.7,0.8,0",""
"","html-keyboard-response","202","193504","0.0-202.0","3F6HPJW4JEMBIRLA691HFBRUXH2W2B","A3OZ8KF0HWSVWK","368IUKXGA5U7UZ9GQNUNOB4MGE4P6M","","null","<img src=""img/animal3.png"" style=""width:200px; border:14px solid green;"">","null","","","","","",""
"","image-keyboard-response","203","194422","0.0-203.0","3F6HPJW4JEMBIRLA691HFBRUXH2W2B","A3OZ8KF0HWSVWK","368IUKXGA5U7UZ9GQNUNOB4MGE4P6M","","911.2999999970198","img/animal3.png","74","916","1","0","1","0.7,0,0.8,0.7,0.8,0,0.7,0.8,0",""
"","html-keyboard-response","204","194730","0.0-204.0","3F6HPJW4JEMBIRLA691HFBRUXH2W2B","A3OZ8KF0HWSVWK","368IUKXGA5U7UZ9GQNUNOB4MGE4P6M","","null","<img src=""img/animal3.png"" style=""width:200px;border:14px solid red;"">","null","","","","","",""
"","image-keyboard-response","205","195867","0.0-205.0","3F6HPJW4JEMBIRLA691HFBRUXH2W2B","A3OZ8KF0HWSVWK","368IUKXGA5U7UZ9GQNUNOB4MGE4P6M","","1132.0999999940395","img/animal1.png","76","1135.9000000059605","3","0","3","0.7,0,0.8,0.7,0.8,0,0.7,0.8,0",""
"","html-keyboard-response","206","196171","0.0-206.0","3F6HPJW4JEMBIRLA691HFBRUXH2W2B","A3OZ8KF0HWSVWK","368IUKXGA5U7UZ9GQNUNOB4MGE4P6M","","null","<img src=""img/animal1.png"" style=""width:200px;border:14px solid red;"">","null","","","","","",""
"","image-keyboard-response","207","197488","0.0-207.0","3F6HPJW4JEMBIRLA691HFBRUXH2W2B","A3OZ8KF0HWSVWK","368IUKXGA5U7UZ9GQNUNOB4MGE4P6M","","1312.5","img/animal2.png","75","1316.2999999970198","2","1","2","0.7,0,0.8,0.7,0.8,0,0.7,0.8,0",""
"","html-keyboard-response","208","197794","0.0-208.0","3F6HPJW4JEMBIRLA691HFBRUXH2W2B","A3OZ8KF0HWSVWK","368IUKXGA5U7UZ9GQNUNOB4MGE4P6M","","null","<img src=""img/animal2.png"" style=""width:200px; border:14px solid green;"">","null","","","","","",""
"","image-keyboard-response","209","198775","0.0-209.0","3F6HPJW4JEMBIRLA691HFBRUXH2W2B","A3OZ8KF0HWSVWK","368IUKXGA5U7UZ9GQNUNOB4MGE4P6M","","971.3999999910593","img/animal2.png","75","979.7000000029802","2","1","2","0.7,0,0.8,0.7,0.8,0,0.7,0.8,0",""
"","html-keyboard-response","210","199085","0.0-210.0","3F6HPJW4JEMBIRLA691HFBRUXH2W2B","A3OZ8KF0HWSVWK","368IUKXGA5U7UZ9GQNUNOB4MGE4P6M","","null","<img src=""img/animal2.png"" style=""width:200px; border:14px solid green;"">","null","","","","","",""
"","image-keyboard-response","211","200055","0.0-211.0","3F6HPJW4JEMBIRLA691HFBRUXH2W2B","A3OZ8KF0HWSVWK","368IUKXGA5U7UZ9GQNUNOB4MGE4P6M","","961.5","img/animal3.png","74","968.5999999940395","1","1","1","0.7,0,0.8,0.7,0.8,0,0.7,0.8,0",""
"","html-keyboard-response","212","200362","0.0-212.0","3F6HPJW4JEMBIRLA691HFBRUXH2W2B","A3OZ8KF0HWSVWK","368IUKXGA5U7UZ9GQNUNOB4MGE4P6M","","null","<img src=""img/animal3.png"" style=""width:200px; border:14px solid green;"">","null","","","","","",""
"","image-keyboard-response","213","201173","0.0-213.0","3F6HPJW4JEMBIRLA691HFBRUXH2W2B","A3OZ8KF0HWSVWK","368IUKXGA5U7UZ9GQNUNOB4MGE4P6M","","806.5","img/animal3.png","74","811.6999999880791","1","1","1","0.7,0,0.8,0.7,0.8,0,0.7,0.8,0",""
"","html-keyboard-response","214","201483","0.0-214.0","3F6HPJW4JEMBIRLA691HFBRUXH2W2B","A3OZ8KF0HWSVWK","368IUKXGA5U7UZ9GQNUNOB4MGE4P6M","","null","<img src=""img/animal3.png"" style=""width:200px; border:14px solid green;"">","null","","","","","",""
"","image-keyboard-response","215","202737","0.0-215.0","3F6HPJW4JEMBIRLA691HFBRUXH2W2B","A3OZ8KF0HWSVWK","368IUKXGA5U7UZ9GQNUNOB4MGE4P6M","","1246.5","img/animal1.png","76","1252.7999999970198","3","0","3","0.7,0,0.8,0.7,0.8,0,0.7,0.8,0",""
"","html-keyboard-response","216","203043","0.0-216.0","3F6HPJW4JEMBIRLA691HFBRUXH2W2B","A3OZ8KF0HWSVWK","368IUKXGA5U7UZ9GQNUNOB4MGE4P6M","","null","<img src=""img/animal1.png"" style=""width:200px;border:14px solid red;"">","null","","","","","",""
"","image-keyboard-response","217","203965","0.0-217.0","3F6HPJW4JEMBIRLA691HFBRUXH2W2B","A3OZ8KF0HWSVWK","368IUKXGA5U7UZ9GQNUNOB4MGE4P6M","","916.7000000029802","img/animal3.png","74","920.3999999910593","1","0","1","0.7,0,0.8,0.7,0.8,0,0.7,0.8,0",""
"","html-keyboard-response","218","204275","0.0-218.0","3F6HPJW4JEMBIRLA691HFBRUXH2W2B","A3OZ8KF0HWSVWK","368IUKXGA5U7UZ9GQNUNOB4MGE4P6M","","null","<img src=""img/animal3.png"" style=""width:200px;border:14px solid red;"">","null","","","","","",""
"","image-keyboard-response","219","207117","0.0-219.0","3F6HPJW4JEMBIRLA691HFBRUXH2W2B","A3OZ8KF0HWSVWK","368IUKXGA5U7UZ9GQNUNOB4MGE4P6M","","2831.7999999970198","img/animal2.png","74","2839.0999999940395","1","1","2","0.7,0,0.8,0.7,0.8,0,0.7,0.8,0",""
"","html-keyboard-response","220","207425","0.0-220.0","3F6HPJW4JEMBIRLA691HFBRUXH2W2B","A3OZ8KF0HWSVWK","368IUKXGA5U7UZ9GQNUNOB4MGE4P6M","","null","<img src=""img/animal2.png"" style=""width:200px; border:14px solid green;"">","null","","","","","",""
"","image-keyboard-response","221","210965","0.0-221.0","3F6HPJW4JEMBIRLA691HFBRUXH2W2B","A3OZ8KF0HWSVWK","368IUKXGA5U7UZ9GQNUNOB4MGE4P6M","","3534.5","img/animal1.png","75","3538.3999999910593","2","1","3","0.7,0,0.8,0.7,0.8,0,0.7,0.8,0",""
"","html-keyboard-response","222","211271","0.0-222.0","3F6HPJW4JEMBIRLA691HFBRUXH2W2B","A3OZ8KF0HWSVWK","368IUKXGA5U7UZ9GQNUNOB4MGE4P6M","","null","<img src=""img/animal1.png"" style=""width:200px; border:14px solid green;"">","null","","","","","",""
"","image-keyboard-response","223","212133","0.0-223.0","3F6HPJW4JEMBIRLA691HFBRUXH2W2B","A3OZ8KF0HWSVWK","368IUKXGA5U7UZ9GQNUNOB4MGE4P6M","","855.5999999940395","img/animal3.png","74","859.0999999940395","1","1","1","0.7,0,0.8,0.7,0.8,0,0.7,0.8,0",""
"","html-keyboard-response","224","212439","0.0-224.0","3F6HPJW4JEMBIRLA691HFBRUXH2W2B","A3OZ8KF0HWSVWK","368IUKXGA5U7UZ9GQNUNOB4MGE4P6M","","null","<img src=""img/animal3.png"" style=""width:200px; border:14px solid green;"">","null","","","","","",""
"","image-keyboard-response","225","213775","0.0-225.0","3F6HPJW4JEMBIRLA691HFBRUXH2W2B","A3OZ8KF0HWSVWK","368IUKXGA5U7UZ9GQNUNOB4MGE4P6M","","1329.5","img/animal1.png","75","1333.1000000089407","2","0","3","0.7,0,0.8,0.7,0.8,0,0.7,0.8,0",""
"","html-keyboard-response","226","214080","0.0-226.0","3F6HPJW4JEMBIRLA691HFBRUXH2W2B","A3OZ8KF0HWSVWK","368IUKXGA5U7UZ9GQNUNOB4MGE4P6M","","null","<img src=""img/animal1.png"" style=""width:200px;border:14px solid red;"">","null","","","","","",""
"","image-keyboard-response","227","215334","0.0-227.0","3F6HPJW4JEMBIRLA691HFBRUXH2W2B","A3OZ8KF0HWSVWK","368IUKXGA5U7UZ9GQNUNOB4MGE4P6M","","1246","img/animal2.png","76","1252.5","3","0","2","0.7,0,0.8,0.7,0.8,0,0.7,0.8,0",""
"","html-keyboard-response","228","215642","0.0-228.0","3F6HPJW4JEMBIRLA691HFBRUXH2W2B","A3OZ8KF0HWSVWK","368IUKXGA5U7UZ9GQNUNOB4MGE4P6M","","null","<img src=""img/animal2.png"" style=""width:200px;border:14px solid red;"">","null","","","","","",""
"","image-keyboard-response","229","216687","0.0-229.0","3F6HPJW4JEMBIRLA691HFBRUXH2W2B","A3OZ8KF0HWSVWK","368IUKXGA5U7UZ9GQNUNOB4MGE4P6M","","1039.9000000059605","img/animal3.png","74","1044","1","1","1","0.7,0,0.8,0.7,0.8,0,0.7,0.8,0",""
"","html-keyboard-response","230","216995","0.0-230.0","3F6HPJW4JEMBIRLA691HFBRUXH2W2B","A3OZ8KF0HWSVWK","368IUKXGA5U7UZ9GQNUNOB4MGE4P6M","","null","<img src=""img/animal3.png"" style=""width:200px; border:14px solid green;"">","null","","","","","",""
"","image-keyboard-response","231","217658","0.0-231.0","3F6HPJW4JEMBIRLA691HFBRUXH2W2B","A3OZ8KF0HWSVWK","368IUKXGA5U7UZ9GQNUNOB4MGE4P6M","","659.2999999970198","img/animal3.png","74","663.0999999940395","1","1","1","0.7,0,0.8,0.7,0.8,0,0.7,0.8,0",""
"","html-keyboard-response","232","217965","0.0-232.0","3F6HPJW4JEMBIRLA691HFBRUXH2W2B","A3OZ8KF0HWSVWK","368IUKXGA5U7UZ9GQNUNOB4MGE4P6M","","null","<img src=""img/animal3.png"" style=""width:200px; border:14px solid green;"">","null","","","","","",""
"","image-keyboard-response","233","219509","0.0-233.0","3F6HPJW4JEMBIRLA691HFBRUXH2W2B","A3OZ8KF0HWSVWK","368IUKXGA5U7UZ9GQNUNOB4MGE4P6M","","1538.4000000059605","img/animal2.png","75","1541.800000011921","2","1","2","0.7,0,0.8,0.7,0.8,0,0.7,0.8,0",""
"","html-keyboard-response","234","219814","0.0-234.0","3F6HPJW4JEMBIRLA691HFBRUXH2W2B","A3OZ8KF0HWSVWK","368IUKXGA5U7UZ9GQNUNOB4MGE4P6M","","null","<img src=""img/animal2.png"" style=""width:200px; border:14px solid green;"">","null","","","","","",""
"","image-keyboard-response","235","221562","0.0-235.0","3F6HPJW4JEMBIRLA691HFBRUXH2W2B","A3OZ8KF0HWSVWK","368IUKXGA5U7UZ9GQNUNOB4MGE4P6M","","1741.199999988079","img/animal1.png","75","1746.4000000059605","2","1","3","0.7,0,0.8,0.7,0.8,0,0.7,0.8,0",""
"","html-keyboard-response","236","221869","0.0-236.0","3F6HPJW4JEMBIRLA691HFBRUXH2W2B","A3OZ8KF0HWSVWK","368IUKXGA5U7UZ9GQNUNOB4MGE4P6M","","null","<img src=""img/animal1.png"" style=""width:200px; border:14px solid green;"">","null","","","","","",""
"","image-keyboard-response","237","222767","0.0-237.0","3F6HPJW4JEMBIRLA691HFBRUXH2W2B","A3OZ8KF0HWSVWK","368IUKXGA5U7UZ9GQNUNOB4MGE4P6M","","893","img/animal1.png","75","897.9000000059605","2","1","3","0.7,0,0.8,0.7,0.8,0,0.7,0.8,0",""
"","html-keyboard-response","238","223074","0.0-238.0","3F6HPJW4JEMBIRLA691HFBRUXH2W2B","A3OZ8KF0HWSVWK","368IUKXGA5U7UZ9GQNUNOB4MGE4P6M","","null","<img src=""img/animal1.png"" style=""width:200px; border:14px solid green;"">","null","","","","","",""
"","image-keyboard-response","239","223985","0.0-239.0","3F6HPJW4JEMBIRLA691HFBRUXH2W2B","A3OZ8KF0HWSVWK","368IUKXGA5U7UZ9GQNUNOB4MGE4P6M","","906.2999999970198","img/animal3.png","74","909.7999999970198","1","1","1","0.7,0,0.8,0.7,0.8,0,0.7,0.8,0",""
"","html-keyboard-response","240","224291","0.0-240.0","3F6HPJW4JEMBIRLA691HFBRUXH2W2B","A3OZ8KF0HWSVWK","368IUKXGA5U7UZ9GQNUNOB4MGE4P6M","","null","<img src=""img/animal3.png"" style=""width:200px; border:14px solid green;"">","null","","","","","",""
"","image-keyboard-response","241","225314","0.0-241.0","3F6HPJW4JEMBIRLA691HFBRUXH2W2B","A3OZ8KF0HWSVWK","368IUKXGA5U7UZ9GQNUNOB4MGE4P6M","","1020","img/animal1.png","75","1024.5999999940395","2","1","3","0.7,0,0.8,0.7,0.8,0,0.7,0.8,0",""
"","html-keyboard-response","242","225622","0.0-242.0","3F6HPJW4JEMBIRLA691HFBRUXH2W2B","A3OZ8KF0HWSVWK","368IUKXGA5U7UZ9GQNUNOB4MGE4P6M","","null","<img src=""img/animal1.png"" style=""width:200px; border:14px solid green;"">","null","","","","","",""
"","image-keyboard-response","243","226847","0.0-243.0","3F6HPJW4JEMBIRLA691HFBRUXH2W2B","A3OZ8KF0HWSVWK","368IUKXGA5U7UZ9GQNUNOB4MGE4P6M","","1218.5","img/animal2.png","76","1224.4000000059605","3","0","2","0.7,0,0.8,0.7,0.8,0,0.7,0.8,0",""
"","html-keyboard-response","244","227152","0.0-244.0","3F6HPJW4JEMBIRLA691HFBRUXH2W2B","A3OZ8KF0HWSVWK","368IUKXGA5U7UZ9GQNUNOB4MGE4P6M","","null","<img src=""img/animal2.png"" style=""width:200px;border:14px solid red;"">","null","","","","","",""
"","image-keyboard-response","245","228361","0.0-245.0","3F6HPJW4JEMBIRLA691HFBRUXH2W2B","A3OZ8KF0HWSVWK","368IUKXGA5U7UZ9GQNUNOB4MGE4P6M","","1201.2999999970198","img/animal1.png","75","1208.6000000089407","2","0","3","0.7,0,0.8,0.7,0.8,0,0.7,0.8,0",""
"","html-keyboard-response","246","228668","0.0-246.0","3F6HPJW4JEMBIRLA691HFBRUXH2W2B","A3OZ8KF0HWSVWK","368IUKXGA5U7UZ9GQNUNOB4MGE4P6M","","null","<img src=""img/animal1.png"" style=""width:200px;border:14px solid red;"">","null","","","","","",""
"","image-keyboard-response","247","231836","0.0-247.0","3F6HPJW4JEMBIRLA691HFBRUXH2W2B","A3OZ8KF0HWSVWK","368IUKXGA5U7UZ9GQNUNOB4MGE4P6M","","3160.2999999970198","img/animal2.png","74","3166.7000000029802","1","0","2","0.7,0,0.8,0.7,0.8,0,0.7,0.8,0",""
"","html-keyboard-response","248","232141","0.0-248.0","3F6HPJW4JEMBIRLA691HFBRUXH2W2B","A3OZ8KF0HWSVWK","368IUKXGA5U7UZ9GQNUNOB4MGE4P6M","","null","<img src=""img/animal2.png"" style=""width:200px;border:14px solid red;"">","null","","","","","",""
"","image-keyboard-response","249","234016","0.0-249.0","3F6HPJW4JEMBIRLA691HFBRUXH2W2B","A3OZ8KF0HWSVWK","368IUKXGA5U7UZ9GQNUNOB4MGE4P6M","","1868.6000000089407","img/animal2.png","75","1873.5","2","1","2","0.7,0,0.8,0.7,0.8,0,0.7,0.8,0",""
"","html-keyboard-response","250","234326","0.0-250.0","3F6HPJW4JEMBIRLA691HFBRUXH2W2B","A3OZ8KF0HWSVWK","368IUKXGA5U7UZ9GQNUNOB4MGE4P6M","","null","<img src=""img/animal2.png"" style=""width:200px; border:14px solid green;"">","null","","","","","",""
"","image-keyboard-response","251","237866","0.0-251.0","3F6HPJW4JEMBIRLA691HFBRUXH2W2B","A3OZ8KF0HWSVWK","368IUKXGA5U7UZ9GQNUNOB4MGE4P6M","","3532.5","img/animal1.png","76","3537.699999988079","3","0","3","0.7,0,0.8,0.7,0.8,0,0.7,0.8,0",""
"","html-keyboard-response","252","238175","0.0-252.0","3F6HPJW4JEMBIRLA691HFBRUXH2W2B","A3OZ8KF0HWSVWK","368IUKXGA5U7UZ9GQNUNOB4MGE4P6M","","null","<img src=""img/animal1.png"" style=""width:200px;border:14px solid red;"">","null","","","","","",""
"","image-keyboard-response","253","238848","0.0-253.0","3F6HPJW4JEMBIRLA691HFBRUXH2W2B","A3OZ8KF0HWSVWK","368IUKXGA5U7UZ9GQNUNOB4MGE4P6M","","668.2999999970198","img/animal1.png","75","672.5999999940395","2","1","3","0.7,0,0.8,0.7,0.8,0,0.7,0.8,0",""
"","html-keyboard-response","254","239155","0.0-254.0","3F6HPJW4JEMBIRLA691HFBRUXH2W2B","A3OZ8KF0HWSVWK","368IUKXGA5U7UZ9GQNUNOB4MGE4P6M","","null","<img src=""img/animal1.png"" style=""width:200px; border:14px solid green;"">","null","","","","","",""
"","image-keyboard-response","255","240221","0.0-255.0","3F6HPJW4JEMBIRLA691HFBRUXH2W2B","A3OZ8KF0HWSVWK","368IUKXGA5U7UZ9GQNUNOB4MGE4P6M","","1060.7000000029802","img/animal2.png","75","1064","2","0","2","0.7,0,0.8,0.7,0.8,0,0.7,0.8,0",""
"","html-keyboard-response","256","240529","0.0-256.0","3F6HPJW4JEMBIRLA691HFBRUXH2W2B","A3OZ8KF0HWSVWK","368IUKXGA5U7UZ9GQNUNOB4MGE4P6M","","null","<img src=""img/animal2.png"" style=""width:200px;border:14px solid red;"">","null","","","","","",""
"","image-keyboard-response","257","241607","0.0-257.0","3F6HPJW4JEMBIRLA691HFBRUXH2W2B","A3OZ8KF0HWSVWK","368IUKXGA5U7UZ9GQNUNOB4MGE4P6M","","1074.2999999970198","img/animal1.png","75","1077.2999999970198","2","0","3","0.7,0,0.8,0.7,0.8,0,0.7,0.8,0",""
"","html-keyboard-response","258","241913","0.0-258.0","3F6HPJW4JEMBIRLA691HFBRUXH2W2B","A3OZ8KF0HWSVWK","368IUKXGA5U7UZ9GQNUNOB4MGE4P6M","","null","<img src=""img/animal1.png"" style=""width:200px;border:14px solid red;"">","null","","","","","",""
"","image-keyboard-response","259","242922","0.0-259.0","3F6HPJW4JEMBIRLA691HFBRUXH2W2B","A3OZ8KF0HWSVWK","368IUKXGA5U7UZ9GQNUNOB4MGE4P6M","","1002.5","img/animal1.png","75","1008","2","1","3","0.7,0,0.8,0.7,0.8,0,0.7,0.8,0",""
"","html-keyboard-response","260","243229","0.0-260.0","3F6HPJW4JEMBIRLA691HFBRUXH2W2B","A3OZ8KF0HWSVWK","368IUKXGA5U7UZ9GQNUNOB4MGE4P6M","","null","<img src=""img/animal1.png"" style=""width:200px; border:14px solid green;"">","null","","","","","",""
"","image-keyboard-response","261","244220","0.0-261.0","3F6HPJW4JEMBIRLA691HFBRUXH2W2B","A3OZ8KF0HWSVWK","368IUKXGA5U7UZ9GQNUNOB4MGE4P6M","","981.2999999970198","img/animal1.png","75","990","2","1","3","0.7,0,0.8,0.7,0.8,0,0.7,0.8,0",""
"","html-keyboard-response","262","244528","0.0-262.0","3F6HPJW4JEMBIRLA691HFBRUXH2W2B","A3OZ8KF0HWSVWK","368IUKXGA5U7UZ9GQNUNOB4MGE4P6M","","null","<img src=""img/animal1.png"" style=""width:200px; border:14px solid green;"">","null","","","","","",""
"","image-keyboard-response","263","245683","0.0-263.0","3F6HPJW4JEMBIRLA691HFBRUXH2W2B","A3OZ8KF0HWSVWK","368IUKXGA5U7UZ9GQNUNOB4MGE4P6M","","1149.2999999970198","img/animal2.png","75","1153.5","2","1","2","0.7,0,0.8,0.7,0.8,0,0.7,0.8,0",""
"","html-keyboard-response","264","245988","0.0-264.0","3F6HPJW4JEMBIRLA691HFBRUXH2W2B","A3OZ8KF0HWSVWK","368IUKXGA5U7UZ9GQNUNOB4MGE4P6M","","null","<img src=""img/animal2.png"" style=""width:200px; border:14px solid green;"">","null","","","","","",""
"","image-keyboard-response","265","246819","0.0-265.0","3F6HPJW4JEMBIRLA691HFBRUXH2W2B","A3OZ8KF0HWSVWK","368IUKXGA5U7UZ9GQNUNOB4MGE4P6M","","822.1000000089407","img/animal3.png","74","828.7000000029802","1","0","1","0.7,0,0.8,0.7,0.8,0,0.7,0.8,0",""
"","html-keyboard-response","266","247129","0.0-266.0","3F6HPJW4JEMBIRLA691HFBRUXH2W2B","A3OZ8KF0HWSVWK","368IUKXGA5U7UZ9GQNUNOB4MGE4P6M","","null","<img src=""img/animal3.png"" style=""width:200px;border:14px solid red;"">","null","","","","","",""
"","image-keyboard-response","267","248218","0.0-267.0","3F6HPJW4JEMBIRLA691HFBRUXH2W2B","A3OZ8KF0HWSVWK","368IUKXGA5U7UZ9GQNUNOB4MGE4P6M","","1082.3999999910593","img/animal1.png","75","1087.4000000059605","2","1","3","0.7,0,0.8,0.7,0.8,0,0.7,0.8,0",""
"","html-keyboard-response","268","248523","0.0-268.0","3F6HPJW4JEMBIRLA691HFBRUXH2W2B","A3OZ8KF0HWSVWK","368IUKXGA5U7UZ9GQNUNOB4MGE4P6M","","null","<img src=""img/animal1.png"" style=""width:200px; border:14px solid green;"">","null","","","","","",""
"","image-keyboard-response","269","249463","0.0-269.0","3F6HPJW4JEMBIRLA691HFBRUXH2W2B","A3OZ8KF0HWSVWK","368IUKXGA5U7UZ9GQNUNOB4MGE4P6M","","933.1000000089407","img/animal1.png","75","938.1000000089407","2","1","3","0.7,0,0.8,0.7,0.8,0,0.7,0.8,0",""
"","html-keyboard-response","270","249769","0.0-270.0","3F6HPJW4JEMBIRLA691HFBRUXH2W2B","A3OZ8KF0HWSVWK","368IUKXGA5U7UZ9GQNUNOB4MGE4P6M","","null","<img src=""img/animal1.png"" style=""width:200px; border:14px solid green;"">","null","","","","","",""
"","image-keyboard-response","271","250645","0.0-271.0","3F6HPJW4JEMBIRLA691HFBRUXH2W2B","A3OZ8KF0HWSVWK","368IUKXGA5U7UZ9GQNUNOB4MGE4P6M","","869.4000000059605","img/animal2.png","75","874.1000000089407","2","0","2","0.7,0,0.8,0.7,0.8,0,0.7,0.8,0",""
"","html-keyboard-response","272","250951","0.0-272.0","3F6HPJW4JEMBIRLA691HFBRUXH2W2B","A3OZ8KF0HWSVWK","368IUKXGA5U7UZ9GQNUNOB4MGE4P6M","","null","<img src=""img/animal2.png"" style=""width:200px;border:14px solid red;"">","null","","","","","",""
"","image-keyboard-response","273","251779","0.0-273.0","3F6HPJW4JEMBIRLA691HFBRUXH2W2B","A3OZ8KF0HWSVWK","368IUKXGA5U7UZ9GQNUNOB4MGE4P6M","","822.7000000029802","img/animal1.png","74","827.2999999970198","1","1","3","0.7,0,0.8,0.7,0.8,0,0.7,0.8,0",""
"","html-keyboard-response","274","252085","0.0-274.0","3F6HPJW4JEMBIRLA691HFBRUXH2W2B","A3OZ8KF0HWSVWK","368IUKXGA5U7UZ9GQNUNOB4MGE4P6M","","null","<img src=""img/animal1.png"" style=""width:200px; border:14px solid green;"">","null","","","","","",""
"","image-keyboard-response","275","253384","0.0-275.0","3F6HPJW4JEMBIRLA691HFBRUXH2W2B","A3OZ8KF0HWSVWK","368IUKXGA5U7UZ9GQNUNOB4MGE4P6M","","1288.5","img/animal3.png","74","1295.7000000029802","1","1","1","0.7,0,0.8,0.7,0.8,0,0.7,0.8,0",""
"","html-keyboard-response","276","253688","0.0-276.0","3F6HPJW4JEMBIRLA691HFBRUXH2W2B","A3OZ8KF0HWSVWK","368IUKXGA5U7UZ9GQNUNOB4MGE4P6M","","null","<img src=""img/animal3.png"" style=""width:200px; border:14px solid green;"">","null","","","","","",""
"","image-keyboard-response","277","254605","0.0-277.0","3F6HPJW4JEMBIRLA691HFBRUXH2W2B","A3OZ8KF0HWSVWK","368IUKXGA5U7UZ9GQNUNOB4MGE4P6M","","909.7999999970198","img/animal1.png","75","917","2","1","3","0.7,0,0.8,0.7,0.8,0,0.7,0.8,0",""
"","html-keyboard-response","278","254913","0.0-278.0","3F6HPJW4JEMBIRLA691HFBRUXH2W2B","A3OZ8KF0HWSVWK","368IUKXGA5U7UZ9GQNUNOB4MGE4P6M","","null","<img src=""img/animal1.png"" style=""width:200px; border:14px solid green;"">","null","","","","","",""
"","image-keyboard-response","279","255682","0.0-279.0","3F6HPJW4JEMBIRLA691HFBRUXH2W2B","A3OZ8KF0HWSVWK","368IUKXGA5U7UZ9GQNUNOB4MGE4P6M","","763.6999999880791","img/animal3.png","74","769.4000000059605","1","1","1","0.7,0,0.8,0.7,0.8,0,0.7,0.8,0",""
"","html-keyboard-response","280","255991","0.0-280.0","3F6HPJW4JEMBIRLA691HFBRUXH2W2B","A3OZ8KF0HWSVWK","368IUKXGA5U7UZ9GQNUNOB4MGE4P6M","","null","<img src=""img/animal3.png"" style=""width:200px; border:14px solid green;"">","null","","","","","",""
"","image-keyboard-response","281","257011","0.0-281.0","3F6HPJW4JEMBIRLA691HFBRUXH2W2B","A3OZ8KF0HWSVWK","368IUKXGA5U7UZ9GQNUNOB4MGE4P6M","","1013.5","img/animal1.png","75","1019","2","0","3","0.7,0,0.8,0.7,0.8,0,0.7,0.8,0",""
"","html-keyboard-response","282","257317","0.0-282.0","3F6HPJW4JEMBIRLA691HFBRUXH2W2B","A3OZ8KF0HWSVWK","368IUKXGA5U7UZ9GQNUNOB4MGE4P6M","","null","<img src=""img/animal1.png"" style=""width:200px;border:14px solid red;"">","null","","","","","",""
"","image-keyboard-response","283","259001","0.0-283.0","3F6HPJW4JEMBIRLA691HFBRUXH2W2B","A3OZ8KF0HWSVWK","368IUKXGA5U7UZ9GQNUNOB4MGE4P6M","","1679.5999999940395","img/animal2.png","75","1682.6000000089407","2","1","2","0.7,0,0.8,0.7,0.8,0,0.7,0.8,0",""
"","html-keyboard-response","284","259306","0.0-284.0","3F6HPJW4JEMBIRLA691HFBRUXH2W2B","A3OZ8KF0HWSVWK","368IUKXGA5U7UZ9GQNUNOB4MGE4P6M","","null","<img src=""img/animal2.png"" style=""width:200px; border:14px solid green;"">","null","","","","","",""
"","image-keyboard-response","285","260157","0.0-285.0","3F6HPJW4JEMBIRLA691HFBRUXH2W2B","A3OZ8KF0HWSVWK","368IUKXGA5U7UZ9GQNUNOB4MGE4P6M","","841.3999999910593","img/animal2.png","75","849.2000000029802","2","1","2","0.7,0,0.8,0.7,0.8,0,0.7,0.8,0",""
"","html-keyboard-response","286","260463","0.0-286.0","3F6HPJW4JEMBIRLA691HFBRUXH2W2B","A3OZ8KF0HWSVWK","368IUKXGA5U7UZ9GQNUNOB4MGE4P6M","","null","<img src=""img/animal2.png"" style=""width:200px; border:14px solid green;"">","null","","","","","",""
"","image-keyboard-response","287","261224","0.0-287.0","3F6HPJW4JEMBIRLA691HFBRUXH2W2B","A3OZ8KF0HWSVWK","368IUKXGA5U7UZ9GQNUNOB4MGE4P6M","","756","img/animal2.png","75","759.2999999970198","2","1","2","0.7,0,0.8,0.7,0.8,0,0.7,0.8,0",""
"","html-keyboard-response","288","261529","0.0-288.0","3F6HPJW4JEMBIRLA691HFBRUXH2W2B","A3OZ8KF0HWSVWK","368IUKXGA5U7UZ9GQNUNOB4MGE4P6M","","null","<img src=""img/animal2.png"" style=""width:200px; border:14px solid green;"">","null","","","","","",""
"","image-keyboard-response","289","262396","0.0-289.0","3F6HPJW4JEMBIRLA691HFBRUXH2W2B","A3OZ8KF0HWSVWK","368IUKXGA5U7UZ9GQNUNOB4MGE4P6M","","856.1000000089407","img/animal3.png","74","866","1","1","1","0.7,0,0.8,0.7,0.8,0,0.7,0.8,0",""
"","html-keyboard-response","290","262702","0.0-290.0","3F6HPJW4JEMBIRLA691HFBRUXH2W2B","A3OZ8KF0HWSVWK","368IUKXGA5U7UZ9GQNUNOB4MGE4P6M","","null","<img src=""img/animal3.png"" style=""width:200px; border:14px solid green;"">","null","","","","","",""
"","image-keyboard-response","291","263430","0.0-291.0","3F6HPJW4JEMBIRLA691HFBRUXH2W2B","A3OZ8KF0HWSVWK","368IUKXGA5U7UZ9GQNUNOB4MGE4P6M","","719.8999999910593","img/animal3.png","74","726.0999999940395","1","1","1","0.7,0,0.8,0.7,0.8,0,0.7,0.8,0",""
"","html-keyboard-response","292","263734","0.0-292.0","3F6HPJW4JEMBIRLA691HFBRUXH2W2B","A3OZ8KF0HWSVWK","368IUKXGA5U7UZ9GQNUNOB4MGE4P6M","","null","<img src=""img/animal3.png"" style=""width:200px; border:14px solid green;"">","null","","","","","",""
"","image-keyboard-response","293","266092","0.0-293.0","3F6HPJW4JEMBIRLA691HFBRUXH2W2B","A3OZ8KF0HWSVWK","368IUKXGA5U7UZ9GQNUNOB4MGE4P6M","","2351","img/animal2.png","75","2357.7000000029802","2","1","2","0.7,0,0.8,0.7,0.8,0,0.7,0.8,0",""
"","html-keyboard-response","294","266402","0.0-294.0","3F6HPJW4JEMBIRLA691HFBRUXH2W2B","A3OZ8KF0HWSVWK","368IUKXGA5U7UZ9GQNUNOB4MGE4P6M","","null","<img src=""img/animal2.png"" style=""width:200px; border:14px solid green;"">","null","","","","","",""
"","image-keyboard-response","295","267153","0.0-295.0","3F6HPJW4JEMBIRLA691HFBRUXH2W2B","A3OZ8KF0HWSVWK","368IUKXGA5U7UZ9GQNUNOB4MGE4P6M","","746","img/animal2.png","75","750.7999999970198","2","1","2","0.7,0,0.8,0.7,0.8,0,0.7,0.8,0",""
"","html-keyboard-response","296","267459","0.0-296.0","3F6HPJW4JEMBIRLA691HFBRUXH2W2B","A3OZ8KF0HWSVWK","368IUKXGA5U7UZ9GQNUNOB4MGE4P6M","","null","<img src=""img/animal2.png"" style=""width:200px; border:14px solid green;"">","null","","","","","",""
"","image-keyboard-response","297","268191","0.0-297.0","3F6HPJW4JEMBIRLA691HFBRUXH2W2B","A3OZ8KF0HWSVWK","368IUKXGA5U7UZ9GQNUNOB4MGE4P6M","","727.3999999910593","img/animal3.png","74","730.6000000089407","1","0","1","0.7,0,0.8,0.7,0.8,0,0.7,0.8,0",""
"","html-keyboard-response","298","268495","0.0-298.0","3F6HPJW4JEMBIRLA691HFBRUXH2W2B","A3OZ8KF0HWSVWK","368IUKXGA5U7UZ9GQNUNOB4MGE4P6M","","null","<img src=""img/animal3.png"" style=""width:200px;border:14px solid red;"">","null","","","","","",""
"","image-keyboard-response","299","269130","0.0-299.0","3F6HPJW4JEMBIRLA691HFBRUXH2W2B","A3OZ8KF0HWSVWK","368IUKXGA5U7UZ9GQNUNOB4MGE4P6M","","627.8999999910593","img/animal3.png","74","634.2000000029802","1","0","1","0.7,0,0.8,0.7,0.8,0,0.7,0.8,0",""
"","html-keyboard-response","300","269438","0.0-300.0","3F6HPJW4JEMBIRLA691HFBRUXH2W2B","A3OZ8KF0HWSVWK","368IUKXGA5U7UZ9GQNUNOB4MGE4P6M","","null","<img src=""img/animal3.png"" style=""width:200px;border:14px solid red;"">","null","","","","","",""
"","image-keyboard-response","301","270410","0.0-301.0","3F6HPJW4JEMBIRLA691HFBRUXH2W2B","A3OZ8KF0HWSVWK","368IUKXGA5U7UZ9GQNUNOB4MGE4P6M","","964.2000000029802","img/animal3.png","74","970.1000000089407","1","1","1","0.7,0,0.8,0.7,0.8,0,0.7,0.8,0",""
"","html-keyboard-response","302","270717","0.0-302.0","3F6HPJW4JEMBIRLA691HFBRUXH2W2B","A3OZ8KF0HWSVWK","368IUKXGA5U7UZ9GQNUNOB4MGE4P6M","","null","<img src=""img/animal3.png"" style=""width:200px; border:14px solid green;"">","null","","","","","",""
"","image-keyboard-response","303","272178","0.0-303.0","3F6HPJW4JEMBIRLA691HFBRUXH2W2B","A3OZ8KF0HWSVWK","368IUKXGA5U7UZ9GQNUNOB4MGE4P6M","","1456","img/animal1.png","75","1460.7000000029802","2","1","3","0.7,0,0.8,0.7,0.8,0,0.7,0.8,0",""
"","html-keyboard-response","304","272483","0.0-304.0","3F6HPJW4JEMBIRLA691HFBRUXH2W2B","A3OZ8KF0HWSVWK","368IUKXGA5U7UZ9GQNUNOB4MGE4P6M","","null","<img src=""img/animal1.png"" style=""width:200px; border:14px solid green;"">","null","","","","","",""
"","image-keyboard-response","305","273295","0.0-305.0","3F6HPJW4JEMBIRLA691HFBRUXH2W2B","A3OZ8KF0HWSVWK","368IUKXGA5U7UZ9GQNUNOB4MGE4P6M","","804.7999999970198","img/animal3.png","74","810.5","1","1","1","0.7,0,0.8,0.7,0.8,0,0.7,0.8,0",""
"","html-keyboard-response","306","273603","0.0-306.0","3F6HPJW4JEMBIRLA691HFBRUXH2W2B","A3OZ8KF0HWSVWK","368IUKXGA5U7UZ9GQNUNOB4MGE4P6M","","null","<img src=""img/animal3.png"" style=""width:200px; border:14px solid green;"">","null","","","","","",""
"","image-keyboard-response","307","275496","0.0-307.0","3F6HPJW4JEMBIRLA691HFBRUXH2W2B","A3OZ8KF0HWSVWK","368IUKXGA5U7UZ9GQNUNOB4MGE4P6M","","1888.7999999970198","img/animal2.png","75","1891.7000000029802","2","1","2","0.7,0,0.8,0.7,0.8,0,0.7,0.8,0",""
"","html-keyboard-response","308","275800","0.0-308.0","3F6HPJW4JEMBIRLA691HFBRUXH2W2B","A3OZ8KF0HWSVWK","368IUKXGA5U7UZ9GQNUNOB4MGE4P6M","","null","<img src=""img/animal2.png"" style=""width:200px; border:14px solid green;"">","null","","","","","",""
"","image-keyboard-response","309","278322","0.0-309.0","3F6HPJW4JEMBIRLA691HFBRUXH2W2B","A3OZ8KF0HWSVWK","368IUKXGA5U7UZ9GQNUNOB4MGE4P6M","","2514","img/animal1.png","75","2519.4000000059605","2","0","3","0.7,0,0.8,0.7,0.8,0,0.7,0.8,0",""
"","html-keyboard-response","310","278628","0.0-310.0","3F6HPJW4JEMBIRLA691HFBRUXH2W2B","A3OZ8KF0HWSVWK","368IUKXGA5U7UZ9GQNUNOB4MGE4P6M","","null","<img src=""img/animal1.png"" style=""width:200px;border:14px solid red;"">","null","","","","","",""
"","image-keyboard-response","311","279494","0.0-311.0","3F6HPJW4JEMBIRLA691HFBRUXH2W2B","A3OZ8KF0HWSVWK","368IUKXGA5U7UZ9GQNUNOB4MGE4P6M","","858.5","img/animal3.png","74","865.0999999940395","1","0","1","0.7,0,0.8,0.7,0.8,0,0.7,0.8,0",""
"","html-keyboard-response","312","279799","0.0-312.0","3F6HPJW4JEMBIRLA691HFBRUXH2W2B","A3OZ8KF0HWSVWK","368IUKXGA5U7UZ9GQNUNOB4MGE4P6M","","null","<img src=""img/animal3.png"" style=""width:200px;border:14px solid red;"">","null","","","","","",""
"","image-keyboard-response","313","281118","0.0-313.0","3F6HPJW4JEMBIRLA691HFBRUXH2W2B","A3OZ8KF0HWSVWK","368IUKXGA5U7UZ9GQNUNOB4MGE4P6M","","1311.3999999910593","img/animal3.png","74","1314.7000000029802","1","1","1","0.7,0,0.8,0.7,0.8,0,0.7,0.8,0",""
"","html-keyboard-response","314","281424","0.0-314.0","3F6HPJW4JEMBIRLA691HFBRUXH2W2B","A3OZ8KF0HWSVWK","368IUKXGA5U7UZ9GQNUNOB4MGE4P6M","","null","<img src=""img/animal3.png"" style=""width:200px; border:14px solid green;"">","null","","","","","",""
"","image-keyboard-response","315","282357","0.0-315.0","3F6HPJW4JEMBIRLA691HFBRUXH2W2B","A3OZ8KF0HWSVWK","368IUKXGA5U7UZ9GQNUNOB4MGE4P6M","","926","img/animal1.png","76","931.2000000029802","3","0","3","0.7,0,0.8,0.7,0.8,0,0.7,0.8,0",""
"","html-keyboard-response","316","282665","0.0-316.0","3F6HPJW4JEMBIRLA691HFBRUXH2W2B","A3OZ8KF0HWSVWK","368IUKXGA5U7UZ9GQNUNOB4MGE4P6M","","null","<img src=""img/animal1.png"" style=""width:200px;border:14px solid red;"">","null","","","","","",""
"","image-keyboard-response","317","283435","0.0-317.0","3F6HPJW4JEMBIRLA691HFBRUXH2W2B","A3OZ8KF0HWSVWK","368IUKXGA5U7UZ9GQNUNOB4MGE4P6M","","761.7999999970198","img/animal1.png","75","768.7999999970198","2","1","3","0.7,0,0.8,0.7,0.8,0,0.7,0.8,0",""
"","html-keyboard-response","318","283740","0.0-318.0","3F6HPJW4JEMBIRLA691HFBRUXH2W2B","A3OZ8KF0HWSVWK","368IUKXGA5U7UZ9GQNUNOB4MGE4P6M","","null","<img src=""img/animal1.png"" style=""width:200px; border:14px solid green;"">","null","","","","","",""
"","image-keyboard-response","319","284469","0.0-319.0","3F6HPJW4JEMBIRLA691HFBRUXH2W2B","A3OZ8KF0HWSVWK","368IUKXGA5U7UZ9GQNUNOB4MGE4P6M","","725.3999999910593","img/animal3.png","74","728.2000000029802","1","1","1","0.7,0,0.8,0.7,0.8,0,0.7,0.8,0",""
"","html-keyboard-response","320","284775","0.0-320.0","3F6HPJW4JEMBIRLA691HFBRUXH2W2B","A3OZ8KF0HWSVWK","368IUKXGA5U7UZ9GQNUNOB4MGE4P6M","","null","<img src=""img/animal3.png"" style=""width:200px; border:14px solid green;"">","null","","","","","",""
"","image-keyboard-response","321","286365","0.0-321.0","3F6HPJW4JEMBIRLA691HFBRUXH2W2B","A3OZ8KF0HWSVWK","368IUKXGA5U7UZ9GQNUNOB4MGE4P6M","","1581.4000000059605","img/animal2.png","75","1588","2","1","2","0.7,0,0.8,0.7,0.8,0,0.7,0.8,0",""
"","html-keyboard-response","322","286672","0.0-322.0","3F6HPJW4JEMBIRLA691HFBRUXH2W2B","A3OZ8KF0HWSVWK","368IUKXGA5U7UZ9GQNUNOB4MGE4P6M","","null","<img src=""img/animal2.png"" style=""width:200px; border:14px solid green;"">","null","","","","","",""
"","image-keyboard-response","323","287395","0.0-323.0","3F6HPJW4JEMBIRLA691HFBRUXH2W2B","A3OZ8KF0HWSVWK","368IUKXGA5U7UZ9GQNUNOB4MGE4P6M","","712.0999999940395","img/animal3.png","74","719.5999999940395","1","0","1","0.7,0,0.8,0.7,0.8,0,0.7,0.8,0",""
"","html-keyboard-response","324","287700","0.0-324.0","3F6HPJW4JEMBIRLA691HFBRUXH2W2B","A3OZ8KF0HWSVWK","368IUKXGA5U7UZ9GQNUNOB4MGE4P6M","","null","<img src=""img/animal3.png"" style=""width:200px;border:14px solid red;"">","null","","","","","",""
"","image-keyboard-response","325","288690","0.0-325.0","3F6HPJW4JEMBIRLA691HFBRUXH2W2B","A3OZ8KF0HWSVWK","368IUKXGA5U7UZ9GQNUNOB4MGE4P6M","","983.8999999910593","img/animal2.png","75","988.0999999940395","2","1","2","0.7,0,0.8,0.7,0.8,0,0.7,0.8,0",""
"","html-keyboard-response","326","288997","0.0-326.0","3F6HPJW4JEMBIRLA691HFBRUXH2W2B","A3OZ8KF0HWSVWK","368IUKXGA5U7UZ9GQNUNOB4MGE4P6M","","null","<img src=""img/animal2.png"" style=""width:200px; border:14px solid green;"">","null","","","","","",""
"","image-keyboard-response","327","290189","0.0-327.0","3F6HPJW4JEMBIRLA691HFBRUXH2W2B","A3OZ8KF0HWSVWK","368IUKXGA5U7UZ9GQNUNOB4MGE4P6M","","1183.9000000059605","img/animal1.png","75","1189.9000000059605","2","1","3","0.7,0,0.8,0.7,0.8,0,0.7,0.8,0",""
"","html-keyboard-response","328","290493","0.0-328.0","3F6HPJW4JEMBIRLA691HFBRUXH2W2B","A3OZ8KF0HWSVWK","368IUKXGA5U7UZ9GQNUNOB4MGE4P6M","","null","<img src=""img/animal1.png"" style=""width:200px; border:14px solid green;"">","null","","","","","",""
"","image-keyboard-response","329","291466","0.0-329.0","3F6HPJW4JEMBIRLA691HFBRUXH2W2B","A3OZ8KF0HWSVWK","368IUKXGA5U7UZ9GQNUNOB4MGE4P6M","","966.5","img/animal2.png","75","971.9000000059605","2","1","2","0.7,0,0.8,0.7,0.8,0,0.7,0.8,0",""
"","html-keyboard-response","330","291771","0.0-330.0","3F6HPJW4JEMBIRLA691HFBRUXH2W2B","A3OZ8KF0HWSVWK","368IUKXGA5U7UZ9GQNUNOB4MGE4P6M","","null","<img src=""img/animal2.png"" style=""width:200px; border:14px solid green;"">","null","","","","","",""
"","image-keyboard-response","331","292655","0.0-331.0","3F6HPJW4JEMBIRLA691HFBRUXH2W2B","A3OZ8KF0HWSVWK","368IUKXGA5U7UZ9GQNUNOB4MGE4P6M","","875.5999999940395","img/animal2.png","75","882.8999999910593","2","1","2","0.7,0,0.8,0.7,0.8,0,0.7,0.8,0",""
"","html-keyboard-response","332","292964","0.0-332.0","3F6HPJW4JEMBIRLA691HFBRUXH2W2B","A3OZ8KF0HWSVWK","368IUKXGA5U7UZ9GQNUNOB4MGE4P6M","","null","<img src=""img/animal2.png"" style=""width:200px; border:14px solid green;"">","null","","","","","",""
"","image-keyboard-response","333","293759","0.0-333.0","3F6HPJW4JEMBIRLA691HFBRUXH2W2B","A3OZ8KF0HWSVWK","368IUKXGA5U7UZ9GQNUNOB4MGE4P6M","","789.5","img/animal2.png","75","793.7000000029802","2","1","2","0.7,0,0.8,0.7,0.8,0,0.7,0.8,0",""
"","html-keyboard-response","334","294064","0.0-334.0","3F6HPJW4JEMBIRLA691HFBRUXH2W2B","A3OZ8KF0HWSVWK","368IUKXGA5U7UZ9GQNUNOB4MGE4P6M","","null","<img src=""img/animal2.png"" style=""width:200px; border:14px solid green;"">","null","","","","","",""
"","image-keyboard-response","335","294910","0.0-335.0","3F6HPJW4JEMBIRLA691HFBRUXH2W2B","A3OZ8KF0HWSVWK","368IUKXGA5U7UZ9GQNUNOB4MGE4P6M","","838.4000000059605","img/animal2.png","75","844.2000000029802","2","0","2","0.7,0,0.8,0.7,0.8,0,0.7,0.8,0",""
"","html-keyboard-response","336","295217","0.0-336.0","3F6HPJW4JEMBIRLA691HFBRUXH2W2B","A3OZ8KF0HWSVWK","368IUKXGA5U7UZ9GQNUNOB4MGE4P6M","","null","<img src=""img/animal2.png"" style=""width:200px;border:14px solid red;"">","null","","","","","",""
"","image-keyboard-response","337","296507","0.0-337.0","3F6HPJW4JEMBIRLA691HFBRUXH2W2B","A3OZ8KF0HWSVWK","368IUKXGA5U7UZ9GQNUNOB4MGE4P6M","","1280.2000000029802","img/animal1.png","75","1287.2000000029802","2","1","3","0.7,0,0.8,0.7,0.8,0,0.7,0.8,0",""
"","html-keyboard-response","338","296815","0.0-338.0","3F6HPJW4JEMBIRLA691HFBRUXH2W2B","A3OZ8KF0HWSVWK","368IUKXGA5U7UZ9GQNUNOB4MGE4P6M","","null","<img src=""img/animal1.png"" style=""width:200px; border:14px solid green;"">","null","","","","","",""
"","image-keyboard-response","339","297528","0.0-339.0","3F6HPJW4JEMBIRLA691HFBRUXH2W2B","A3OZ8KF0HWSVWK","368IUKXGA5U7UZ9GQNUNOB4MGE4P6M","","708.4000000059605","img/animal3.png","74","712.8999999910593","1","1","1","0.7,0,0.8,0.7,0.8,0,0.7,0.8,0",""
"","html-keyboard-response","340","297836","0.0-340.0","3F6HPJW4JEMBIRLA691HFBRUXH2W2B","A3OZ8KF0HWSVWK","368IUKXGA5U7UZ9GQNUNOB4MGE4P6M","","null","<img src=""img/animal3.png"" style=""width:200px; border:14px solid green;"">","null","","","","","",""
"","image-keyboard-response","341","298797","0.0-341.0","3F6HPJW4JEMBIRLA691HFBRUXH2W2B","A3OZ8KF0HWSVWK","368IUKXGA5U7UZ9GQNUNOB4MGE4P6M","","955.2999999970198","img/animal3.png","74","959.7999999970198","1","1","1","0.7,0,0.8,0.7,0.8,0,0.7,0.8,0",""
"","html-keyboard-response","342","299107","0.0-342.0","3F6HPJW4JEMBIRLA691HFBRUXH2W2B","A3OZ8KF0HWSVWK","368IUKXGA5U7UZ9GQNUNOB4MGE4P6M","","null","<img src=""img/animal3.png"" style=""width:200px; border:14px solid green;"">","null","","","","","",""
"","image-keyboard-response","343","300865","0.0-343.0","3F6HPJW4JEMBIRLA691HFBRUXH2W2B","A3OZ8KF0HWSVWK","368IUKXGA5U7UZ9GQNUNOB4MGE4P6M","","1752.8999999910593","img/animal3.png","74","1758.0999999940395","1","1","1","0.7,0,0.8,0.7,0.8,0,0.7,0.8,0",""
"","html-keyboard-response","344","301173","0.0-344.0","3F6HPJW4JEMBIRLA691HFBRUXH2W2B","A3OZ8KF0HWSVWK","368IUKXGA5U7UZ9GQNUNOB4MGE4P6M","","null","<img src=""img/animal3.png"" style=""width:200px; border:14px solid green;"">","null","","","","","",""
"","image-keyboard-response","345","302238","0.0-345.0","3F6HPJW4JEMBIRLA691HFBRUXH2W2B","A3OZ8KF0HWSVWK","368IUKXGA5U7UZ9GQNUNOB4MGE4P6M","","1059.5999999940395","img/animal2.png","75","1063.7000000029802","2","1","2","0.7,0,0.8,0.7,0.8,0,0.7,0.8,0",""
"","html-keyboard-response","346","302544","0.0-346.0","3F6HPJW4JEMBIRLA691HFBRUXH2W2B","A3OZ8KF0HWSVWK","368IUKXGA5U7UZ9GQNUNOB4MGE4P6M","","null","<img src=""img/animal2.png"" style=""width:200px; border:14px solid green;"">","null","","","","","",""
"","image-keyboard-response","347","303259","0.0-347.0","3F6HPJW4JEMBIRLA691HFBRUXH2W2B","A3OZ8KF0HWSVWK","368IUKXGA5U7UZ9GQNUNOB4MGE4P6M","","705.5999999940395","img/animal2.png","75","713.5","2","1","2","0.7,0,0.8,0.7,0.8,0,0.7,0.8,0",""
"","html-keyboard-response","348","303568","0.0-348.0","3F6HPJW4JEMBIRLA691HFBRUXH2W2B","A3OZ8KF0HWSVWK","368IUKXGA5U7UZ9GQNUNOB4MGE4P6M","","null","<img src=""img/animal2.png"" style=""width:200px; border:14px solid green;"">","null","","","","","",""
"","image-keyboard-response","349","305688","0.0-349.0","3F6HPJW4JEMBIRLA691HFBRUXH2W2B","A3OZ8KF0HWSVWK","368IUKXGA5U7UZ9GQNUNOB4MGE4P6M","","2110.5","img/animal2.png","75","2115.9000000059605","2","1","2","0.7,0,0.8,0.7,0.8,0,0.7,0.8,0",""
"","html-keyboard-response","350","305995","0.0-350.0","3F6HPJW4JEMBIRLA691HFBRUXH2W2B","A3OZ8KF0HWSVWK","368IUKXGA5U7UZ9GQNUNOB4MGE4P6M","","null","<img src=""img/animal2.png"" style=""width:200px; border:14px solid green;"">","null","","","","","",""
"","image-keyboard-response","351","306991","0.0-351.0","3F6HPJW4JEMBIRLA691HFBRUXH2W2B","A3OZ8KF0HWSVWK","368IUKXGA5U7UZ9GQNUNOB4MGE4P6M","","992.0999999940395","img/animal1.png","75","995.5","2","1","3","0.7,0,0.8,0.7,0.8,0,0.7,0.8,0",""
"","html-keyboard-response","352","307296","0.0-352.0","3F6HPJW4JEMBIRLA691HFBRUXH2W2B","A3OZ8KF0HWSVWK","368IUKXGA5U7UZ9GQNUNOB4MGE4P6M","","null","<img src=""img/animal1.png"" style=""width:200px; border:14px solid green;"">","null","","","","","",""
"","image-keyboard-response","353","308045","0.0-353.0","3F6HPJW4JEMBIRLA691HFBRUXH2W2B","A3OZ8KF0HWSVWK","368IUKXGA5U7UZ9GQNUNOB4MGE4P6M","","744.6000000089407","img/animal1.png","75","748.7000000029802","2","1","3","0.7,0,0.8,0.7,0.8,0,0.7,0.8,0",""
"","html-keyboard-response","354","308355","0.0-354.0","3F6HPJW4JEMBIRLA691HFBRUXH2W2B","A3OZ8KF0HWSVWK","368IUKXGA5U7UZ9GQNUNOB4MGE4P6M","","null","<img src=""img/animal1.png"" style=""width:200px; border:14px solid green;"">","null","","","","","",""
"","image-keyboard-response","355","309235","0.0-355.0","3F6HPJW4JEMBIRLA691HFBRUXH2W2B","A3OZ8KF0HWSVWK","368IUKXGA5U7UZ9GQNUNOB4MGE4P6M","","876.6000000089407","img/animal1.png","75","879.7000000029802","2","0","3","0.7,0,0.8,0.7,0.8,0,0.7,0.8,0",""
"","html-keyboard-response","356","309541","0.0-356.0","3F6HPJW4JEMBIRLA691HFBRUXH2W2B","A3OZ8KF0HWSVWK","368IUKXGA5U7UZ9GQNUNOB4MGE4P6M","","null","<img src=""img/animal1.png"" style=""width:200px;border:14px solid red;"">","null","","","","","",""
"","image-keyboard-response","357","310334","0.0-357.0","3F6HPJW4JEMBIRLA691HFBRUXH2W2B","A3OZ8KF0HWSVWK","368IUKXGA5U7UZ9GQNUNOB4MGE4P6M","","788.2000000029802","img/animal3.png","74","791.5","1","1","1","0.7,0,0.8,0.7,0.8,0,0.7,0.8,0",""
"","html-keyboard-response","358","310641","0.0-358.0","3F6HPJW4JEMBIRLA691HFBRUXH2W2B","A3OZ8KF0HWSVWK","368IUKXGA5U7UZ9GQNUNOB4MGE4P6M","","null","<img src=""img/animal3.png"" style=""width:200px; border:14px solid green;"">","null","","","","","",""
"","image-keyboard-response","359","311710","0.0-359.0","3F6HPJW4JEMBIRLA691HFBRUXH2W2B","A3OZ8KF0HWSVWK","368IUKXGA5U7UZ9GQNUNOB4MGE4P6M","","1065.2999999970198","img/animal2.png","75","1068.5","2","1","2","0.7,0,0.8,0.7,0.8,0,0.7,0.8,0",""
"","html-keyboard-response","360","312016","0.0-360.0","3F6HPJW4JEMBIRLA691HFBRUXH2W2B","A3OZ8KF0HWSVWK","368IUKXGA5U7UZ9GQNUNOB4MGE4P6M","","null","<img src=""img/animal2.png"" style=""width:200px; border:14px solid green;"">","null","","","","","",""
"","image-keyboard-response","361","313062","0.0-361.0","3F6HPJW4JEMBIRLA691HFBRUXH2W2B","A3OZ8KF0HWSVWK","368IUKXGA5U7UZ9GQNUNOB4MGE4P6M","","1041.5999999940395","img/animal2.png","75","1044.6000000089407","2","1","2","0.7,0,0.8,0.7,0.8,0,0.7,0.8,0",""
"","html-keyboard-response","362","313369","0.0-362.0","3F6HPJW4JEMBIRLA691HFBRUXH2W2B","A3OZ8KF0HWSVWK","368IUKXGA5U7UZ9GQNUNOB4MGE4P6M","","null","<img src=""img/animal2.png"" style=""width:200px; border:14px solid green;"">","null","","","","","",""
"","instructions","363","318818","0.0-363.0","3F6HPJW4JEMBIRLA691HFBRUXH2W2B","A3OZ8KF0HWSVWK","368IUKXGA5U7UZ9GQNUNOB4MGE4P6M","[{""page_index"":0,""viewing_time"":5442.899999991059}]","5445.399999991059","","","","","","","",""
"","survey-text","364","323107","0.0-364.0","3F6HPJW4JEMBIRLA691HFBRUXH2W2B","A3OZ8KF0HWSVWK","368IUKXGA5U7UZ9GQNUNOB4MGE4P6M","","4276.0999999940395","","","","","","","","{""Q0"":""A3OZ8KF0HWSVWK""}"
