"success","trial_type","trial_index","time_elapsed","internal_node_id","assignmentID","mturkID","hitID","view_history","rt","stimulus","key_press","reactionTime","a","r","s","reward_cond","responses"
"true","fullscreen","0","57551","0.0-0.0","3HRMW88U17C8H5OINKRGNPWO2HLM07","A3PRQ2GSU42718","3SA4EMRVJVOCGON1OYE6FAUV3AFP0G","","","","","","","","","",""
"","instructions","1","135726","0.0-1.0","3HRMW88U17C8H5OINKRGNPWO2HLM07","A3PRQ2GSU42718","3SA4EMRVJVOCGON1OYE6FAUV3AFP0G","[{""page_index"":0,""viewing_time"":8718},{""page_index"":1,""viewing_time"":3410},{""page_index"":2,""viewing_time"":5490},{""page_index"":3,""viewing_time"":17955},{""page_index"":4,""viewing_time"":7032},{""page_index"":5,""viewing_time"":16301},{""page_index"":6,""viewing_time"":17540},{""page_index"":7,""viewing_time"":1726}]","78172","","","","","","","",""
"","image-keyboard-response","2","139046","0.0-2.0","3HRMW88U17C8H5OINKRGNPWO2HLM07","A3PRQ2GSU42718","3SA4EMRVJVOCGON1OYE6FAUV3AFP0G","","3319","img/animal6.png","74","3320","1","0","3","0.5,0,1,1,0.5,0,0,1,0.5",""
"","html-keyboard-response","3","139362","0.0-3.0","3HRMW88U17C8H5OINKRGNPWO2HLM07","A3PRQ2GSU42718","3SA4EMRVJVOCGON1OYE6FAUV3AFP0G","","null","<img src=""img/animal6.png"" style=""width:200px;border:14px solid red;"">","null","","","","","",""
"","image-keyboard-response","4","142149","0.0-4.0","3HRMW88U17C8H5OINKRGNPWO2HLM07","A3PRQ2GSU42718","3SA4EMRVJVOCGON1OYE6FAUV3AFP0G","","2785","img/animal2.png","75","2785","2","0","2","0.5,0,1,1,0.5,0,0,1,0.5",""
"","html-keyboard-response","5","142456","0.0-5.0","3HRMW88U17C8H5OINKRGNPWO2HLM07","A3PRQ2GSU42718","3SA4EMRVJVOCGON1OYE6FAUV3AFP0G","","null","<img src=""img/animal2.png"" style=""width:200px;border:14px solid red;"">","null","","","","","",""
"","image-keyboard-response","6","145337","0.0-6.0","3HRMW88U17C8H5OINKRGNPWO2HLM07","A3PRQ2GSU42718","3SA4EMRVJVOCGON1OYE6FAUV3AFP0G","","2879","img/animal2.png","76","2881","3","0","2","0.5,0,1,1,0.5,0,0,1,0.5",""
"","html-keyboard-response","7","145643","0.0-7.0","3HRMW88U17C8H5OINKRGNPWO2HLM07","A3PRQ2GSU42718","3SA4EMRVJVOCGON1OYE6FAUV3AFP0G","","null","<img src=""img/animal2.png"" style=""width:200px;border:14px solid red;"">","null","","","","","",""
"","image-keyboard-response","8","147647","0.0-8.0","3HRMW88U17C8H5OINKRGNPWO2HLM07","A3PRQ2GSU42718","3SA4EMRVJVOCGON1OYE6FAUV3AFP0G","","2002","img/animal2.png","74","2004","1","1","2","0.5,0,1,1,0.5,0,0,1,0.5",""
"","html-keyboard-response","9","147951","0.0-9.0","3HRMW88U17C8H5OINKRGNPWO2HLM07","A3PRQ2GSU42718","3SA4EMRVJVOCGON1OYE6FAUV3AFP0G","","null","<img src=""img/animal2.png"" style=""width:200px; border:14px solid green;"">","null","","","","","",""
"","image-keyboard-response","10","150739","0.0-10.0","3HRMW88U17C8H5OINKRGNPWO2HLM07","A3PRQ2GSU42718","3SA4EMRVJVOCGON1OYE6FAUV3AFP0G","","2787","img/animal5.png","75","2787","2","0","1","0.5,0,1,1,0.5,0,0,1,0.5",""
"","html-keyboard-response","11","151046","0.0-11.0","3HRMW88U17C8H5OINKRGNPWO2HLM07","A3PRQ2GSU42718","3SA4EMRVJVOCGON1OYE6FAUV3AFP0G","","null","<img src=""img/animal5.png"" style=""width:200px;border:14px solid red;"">","null","","","","","",""
"","image-keyboard-response","12","152112","0.0-12.0","3HRMW88U17C8H5OINKRGNPWO2HLM07","A3PRQ2GSU42718","3SA4EMRVJVOCGON1OYE6FAUV3AFP0G","","1064","img/animal2.png","74","1065","1","1","2","0.5,0,1,1,0.5,0,0,1,0.5",""
"","html-keyboard-response","13","152420","0.0-13.0","3HRMW88U17C8H5OINKRGNPWO2HLM07","A3PRQ2GSU42718","3SA4EMRVJVOCGON1OYE6FAUV3AFP0G","","null","<img src=""img/animal2.png"" style=""width:200px; border:14px solid green;"">","null","","","","","",""
"","image-keyboard-response","14","153069","0.0-14.0","3HRMW88U17C8H5OINKRGNPWO2HLM07","A3PRQ2GSU42718","3SA4EMRVJVOCGON1OYE6FAUV3AFP0G","","648","img/animal2.png","74","649","1","1","2","0.5,0,1,1,0.5,0,0,1,0.5",""
"","html-keyboard-response","15","153370","0.0-15.0","3HRMW88U17C8H5OINKRGNPWO2HLM07","A3PRQ2GSU42718","3SA4EMRVJVOCGON1OYE6FAUV3AFP0G","","null","<img src=""img/animal2.png"" style=""width:200px; border:14px solid green;"">","null","","","","","",""
"","image-keyboard-response","16","155186","0.0-16.0","3HRMW88U17C8H5OINKRGNPWO2HLM07","A3PRQ2GSU42718","3SA4EMRVJVOCGON1OYE6FAUV3AFP0G","","1814","img/animal5.png","76","1815","3","1","1","0.5,0,1,1,0.5,0,0,1,0.5",""
"","html-keyboard-response","17","155500","0.0-17.0","3HRMW88U17C8H5OINKRGNPWO2HLM07","A3PRQ2GSU42718","3SA4EMRVJVOCGON1OYE6FAUV3AFP0G","","null","<img src=""img/animal5.png"" style=""width:200px; border:14px solid green;"">","null","","","","","",""
"","image-keyboard-response","18","157517","0.0-18.0","3HRMW88U17C8H5OINKRGNPWO2HLM07","A3PRQ2GSU42718","3SA4EMRVJVOCGON1OYE6FAUV3AFP0G","","2017","img/animal2.png","74","2019","1","1","2","0.5,0,1,1,0.5,0,0,1,0.5",""
"","html-keyboard-response","19","157822","0.0-19.0","3HRMW88U17C8H5OINKRGNPWO2HLM07","A3PRQ2GSU42718","3SA4EMRVJVOCGON1OYE6FAUV3AFP0G","","null","<img src=""img/animal2.png"" style=""width:200px; border:14px solid green;"">","null","","","","","",""
"","image-keyboard-response","20","158699","0.0-20.0","3HRMW88U17C8H5OINKRGNPWO2HLM07","A3PRQ2GSU42718","3SA4EMRVJVOCGON1OYE6FAUV3AFP0G","","875","img/animal5.png","76","877","3","1","1","0.5,0,1,1,0.5,0,0,1,0.5",""
"","html-keyboard-response","21","159010","0.0-21.0","3HRMW88U17C8H5OINKRGNPWO2HLM07","A3PRQ2GSU42718","3SA4EMRVJVOCGON1OYE6FAUV3AFP0G","","null","<img src=""img/animal5.png"" style=""width:200px; border:14px solid green;"">","null","","","","","",""
"","image-keyboard-response","22","160601","0.0-22.0","3HRMW88U17C8H5OINKRGNPWO2HLM07","A3PRQ2GSU42718","3SA4EMRVJVOCGON1OYE6FAUV3AFP0G","","1589","img/animal6.png","75","1590","2","1","3","0.5,0,1,1,0.5,0,0,1,0.5",""
"","html-keyboard-response","23","160916","0.0-23.0","3HRMW88U17C8H5OINKRGNPWO2HLM07","A3PRQ2GSU42718","3SA4EMRVJVOCGON1OYE6FAUV3AFP0G","","null","<img src=""img/animal6.png"" style=""width:200px; border:14px solid green;"">","null","","","","","",""
"","image-keyboard-response","24","163074","0.0-24.0","3HRMW88U17C8H5OINKRGNPWO2HLM07","A3PRQ2GSU42718","3SA4EMRVJVOCGON1OYE6FAUV3AFP0G","","2158","img/animal5.png","76","2158","3","1","1","0.5,0,1,1,0.5,0,0,1,0.5",""
"","html-keyboard-response","25","163387","0.0-25.0","3HRMW88U17C8H5OINKRGNPWO2HLM07","A3PRQ2GSU42718","3SA4EMRVJVOCGON1OYE6FAUV3AFP0G","","null","<img src=""img/animal5.png"" style=""width:200px; border:14px solid green;"">","null","","","","","",""
"","image-keyboard-response","26","164024","0.0-26.0","3HRMW88U17C8H5OINKRGNPWO2HLM07","A3PRQ2GSU42718","3SA4EMRVJVOCGON1OYE6FAUV3AFP0G","","635","img/animal5.png","76","636","3","1","1","0.5,0,1,1,0.5,0,0,1,0.5",""
"","html-keyboard-response","27","164328","0.0-27.0","3HRMW88U17C8H5OINKRGNPWO2HLM07","A3PRQ2GSU42718","3SA4EMRVJVOCGON1OYE6FAUV3AFP0G","","null","<img src=""img/animal5.png"" style=""width:200px; border:14px solid green;"">","null","","","","","",""
"","image-keyboard-response","28","164956","0.0-28.0","3HRMW88U17C8H5OINKRGNPWO2HLM07","A3PRQ2GSU42718","3SA4EMRVJVOCGON1OYE6FAUV3AFP0G","","626","img/animal5.png","76","628","3","1","1","0.5,0,1,1,0.5,0,0,1,0.5",""
"","html-keyboard-response","29","165262","0.0-29.0","3HRMW88U17C8H5OINKRGNPWO2HLM07","A3PRQ2GSU42718","3SA4EMRVJVOCGON1OYE6FAUV3AFP0G","","null","<img src=""img/animal5.png"" style=""width:200px; border:14px solid green;"">","null","","","","","",""
"","image-keyboard-response","30","165916","0.0-30.0","3HRMW88U17C8H5OINKRGNPWO2HLM07","A3PRQ2GSU42718","3SA4EMRVJVOCGON1OYE6FAUV3AFP0G","","652","img/animal6.png","74","654","1","0","3","0.5,0,1,1,0.5,0,0,1,0.5",""
"","html-keyboard-response","31","166235","0.0-31.0","3HRMW88U17C8H5OINKRGNPWO2HLM07","A3PRQ2GSU42718","3SA4EMRVJVOCGON1OYE6FAUV3AFP0G","","null","<img src=""img/animal6.png"" style=""width:200px;border:14px solid red;"">","null","","","","","",""
"","image-keyboard-response","32","167183","0.0-32.0","3HRMW88U17C8H5OINKRGNPWO2HLM07","A3PRQ2GSU42718","3SA4EMRVJVOCGON1OYE6FAUV3AFP0G","","949","img/animal6.png","74","949","1","0","3","0.5,0,1,1,0.5,0,0,1,0.5",""
"","html-keyboard-response","33","167485","0.0-33.0","3HRMW88U17C8H5OINKRGNPWO2HLM07","A3PRQ2GSU42718","3SA4EMRVJVOCGON1OYE6FAUV3AFP0G","","null","<img src=""img/animal6.png"" style=""width:200px;border:14px solid red;"">","null","","","","","",""
"","image-keyboard-response","34","168778","0.0-34.0","3HRMW88U17C8H5OINKRGNPWO2HLM07","A3PRQ2GSU42718","3SA4EMRVJVOCGON1OYE6FAUV3AFP0G","","1291","img/animal5.png","76","1293","3","1","1","0.5,0,1,1,0.5,0,0,1,0.5",""
"","html-keyboard-response","35","169091","0.0-35.0","3HRMW88U17C8H5OINKRGNPWO2HLM07","A3PRQ2GSU42718","3SA4EMRVJVOCGON1OYE6FAUV3AFP0G","","null","<img src=""img/animal5.png"" style=""width:200px; border:14px solid green;"">","null","","","","","",""
"","image-keyboard-response","36","171410","0.0-36.0","3HRMW88U17C8H5OINKRGNPWO2HLM07","A3PRQ2GSU42718","3SA4EMRVJVOCGON1OYE6FAUV3AFP0G","","2318","img/animal6.png","74","2319","1","0","3","0.5,0,1,1,0.5,0,0,1,0.5",""
"","html-keyboard-response","37","171716","0.0-37.0","3HRMW88U17C8H5OINKRGNPWO2HLM07","A3PRQ2GSU42718","3SA4EMRVJVOCGON1OYE6FAUV3AFP0G","","null","<img src=""img/animal6.png"" style=""width:200px;border:14px solid red;"">","null","","","","","",""
"","image-keyboard-response","38","175883","0.0-38.0","3HRMW88U17C8H5OINKRGNPWO2HLM07","A3PRQ2GSU42718","3SA4EMRVJVOCGON1OYE6FAUV3AFP0G","","4166","img/animal6.png","75","4166","2","1","3","0.5,0,1,1,0.5,0,0,1,0.5",""
"","html-keyboard-response","39","176199","0.0-39.0","3HRMW88U17C8H5OINKRGNPWO2HLM07","A3PRQ2GSU42718","3SA4EMRVJVOCGON1OYE6FAUV3AFP0G","","null","<img src=""img/animal6.png"" style=""width:200px; border:14px solid green;"">","null","","","","","",""
"","image-keyboard-response","40","177072","0.0-40.0","3HRMW88U17C8H5OINKRGNPWO2HLM07","A3PRQ2GSU42718","3SA4EMRVJVOCGON1OYE6FAUV3AFP0G","","873","img/animal6.png","75","874","2","1","3","0.5,0,1,1,0.5,0,0,1,0.5",""
"","html-keyboard-response","41","177387","0.0-41.0","3HRMW88U17C8H5OINKRGNPWO2HLM07","A3PRQ2GSU42718","3SA4EMRVJVOCGON1OYE6FAUV3AFP0G","","null","<img src=""img/animal6.png"" style=""width:200px; border:14px solid green;"">","null","","","","","",""
"","image-keyboard-response","42","178235","0.0-42.0","3HRMW88U17C8H5OINKRGNPWO2HLM07","A3PRQ2GSU42718","3SA4EMRVJVOCGON1OYE6FAUV3AFP0G","","847","img/animal5.png","76","847","3","1","1","0.5,0,1,1,0.5,0,0,1,0.5",""
"","html-keyboard-response","43","178552","0.0-43.0","3HRMW88U17C8H5OINKRGNPWO2HLM07","A3PRQ2GSU42718","3SA4EMRVJVOCGON1OYE6FAUV3AFP0G","","null","<img src=""img/animal5.png"" style=""width:200px; border:14px solid green;"">","null","","","","","",""
"","image-keyboard-response","44","179188","0.0-44.0","3HRMW88U17C8H5OINKRGNPWO2HLM07","A3PRQ2GSU42718","3SA4EMRVJVOCGON1OYE6FAUV3AFP0G","","635","img/animal6.png","75","636","2","1","3","0.5,0,1,1,0.5,0,0,1,0.5",""
"","html-keyboard-response","45","179492","0.0-45.0","3HRMW88U17C8H5OINKRGNPWO2HLM07","A3PRQ2GSU42718","3SA4EMRVJVOCGON1OYE6FAUV3AFP0G","","null","<img src=""img/animal6.png"" style=""width:200px; border:14px solid green;"">","null","","","","","",""
"","image-keyboard-response","46","180066","0.0-46.0","3HRMW88U17C8H5OINKRGNPWO2HLM07","A3PRQ2GSU42718","3SA4EMRVJVOCGON1OYE6FAUV3AFP0G","","571","img/animal5.png","76","572","3","1","1","0.5,0,1,1,0.5,0,0,1,0.5",""
"","html-keyboard-response","47","180380","0.0-47.0","3HRMW88U17C8H5OINKRGNPWO2HLM07","A3PRQ2GSU42718","3SA4EMRVJVOCGON1OYE6FAUV3AFP0G","","null","<img src=""img/animal5.png"" style=""width:200px; border:14px solid green;"">","null","","","","","",""
"","image-keyboard-response","48","181004","0.0-48.0","3HRMW88U17C8H5OINKRGNPWO2HLM07","A3PRQ2GSU42718","3SA4EMRVJVOCGON1OYE6FAUV3AFP0G","","624","img/animal6.png","75","624","2","1","3","0.5,0,1,1,0.5,0,0,1,0.5",""
"","html-keyboard-response","49","181313","0.0-49.0","3HRMW88U17C8H5OINKRGNPWO2HLM07","A3PRQ2GSU42718","3SA4EMRVJVOCGON1OYE6FAUV3AFP0G","","null","<img src=""img/animal6.png"" style=""width:200px; border:14px solid green;"">","null","","","","","",""
"","image-keyboard-response","50","182257","0.0-50.0","3HRMW88U17C8H5OINKRGNPWO2HLM07","A3PRQ2GSU42718","3SA4EMRVJVOCGON1OYE6FAUV3AFP0G","","944","img/animal5.png","76","944","3","1","1","0.5,0,1,1,0.5,0,0,1,0.5",""
"","html-keyboard-response","51","182561","0.0-51.0","3HRMW88U17C8H5OINKRGNPWO2HLM07","A3PRQ2GSU42718","3SA4EMRVJVOCGON1OYE6FAUV3AFP0G","","null","<img src=""img/animal5.png"" style=""width:200px; border:14px solid green;"">","null","","","","","",""
"","image-keyboard-response","52","183068","0.0-52.0","3HRMW88U17C8H5OINKRGNPWO2HLM07","A3PRQ2GSU42718","3SA4EMRVJVOCGON1OYE6FAUV3AFP0G","","506","img/animal5.png","76","507","3","1","1","0.5,0,1,1,0.5,0,0,1,0.5",""
"","html-keyboard-response","53","183386","0.0-53.0","3HRMW88U17C8H5OINKRGNPWO2HLM07","A3PRQ2GSU42718","3SA4EMRVJVOCGON1OYE6FAUV3AFP0G","","null","<img src=""img/animal5.png"" style=""width:200px; border:14px solid green;"">","null","","","","","",""
"","image-keyboard-response","54","185035","0.0-54.0","3HRMW88U17C8H5OINKRGNPWO2HLM07","A3PRQ2GSU42718","3SA4EMRVJVOCGON1OYE6FAUV3AFP0G","","1647","img/animal2.png","74","1649","1","1","2","0.5,0,1,1,0.5,0,0,1,0.5",""
"","html-keyboard-response","55","185340","0.0-55.0","3HRMW88U17C8H5OINKRGNPWO2HLM07","A3PRQ2GSU42718","3SA4EMRVJVOCGON1OYE6FAUV3AFP0G","","null","<img src=""img/animal2.png"" style=""width:200px; border:14px solid green;"">","null","","","","","",""
"","image-keyboard-response","56","186898","0.0-56.0","3HRMW88U17C8H5OINKRGNPWO2HLM07","A3PRQ2GSU42718","3SA4EMRVJVOCGON1OYE6FAUV3AFP0G","","1556","img/animal6.png","75","1558","2","1","3","0.5,0,1,1,0.5,0,0,1,0.5",""
"","html-keyboard-response","57","187215","0.0-57.0","3HRMW88U17C8H5OINKRGNPWO2HLM07","A3PRQ2GSU42718","3SA4EMRVJVOCGON1OYE6FAUV3AFP0G","","null","<img src=""img/animal6.png"" style=""width:200px; border:14px solid green;"">","null","","","","","",""
"","image-keyboard-response","58","188028","0.0-58.0","3HRMW88U17C8H5OINKRGNPWO2HLM07","A3PRQ2GSU42718","3SA4EMRVJVOCGON1OYE6FAUV3AFP0G","","811","img/animal5.png","76","812","3","1","1","0.5,0,1,1,0.5,0,0,1,0.5",""
"","html-keyboard-response","59","188333","0.0-59.0","3HRMW88U17C8H5OINKRGNPWO2HLM07","A3PRQ2GSU42718","3SA4EMRVJVOCGON1OYE6FAUV3AFP0G","","null","<img src=""img/animal5.png"" style=""width:200px; border:14px solid green;"">","null","","","","","",""
"","image-keyboard-response","60","189185","0.0-60.0","3HRMW88U17C8H5OINKRGNPWO2HLM07","A3PRQ2GSU42718","3SA4EMRVJVOCGON1OYE6FAUV3AFP0G","","851","img/animal2.png","74","851","1","1","2","0.5,0,1,1,0.5,0,0,1,0.5",""
"","html-keyboard-response","61","189507","0.0-61.0","3HRMW88U17C8H5OINKRGNPWO2HLM07","A3PRQ2GSU42718","3SA4EMRVJVOCGON1OYE6FAUV3AFP0G","","null","<img src=""img/animal2.png"" style=""width:200px; border:14px solid green;"">","null","","","","","",""
"","image-keyboard-response","62","190597","0.0-62.0","3HRMW88U17C8H5OINKRGNPWO2HLM07","A3PRQ2GSU42718","3SA4EMRVJVOCGON1OYE6FAUV3AFP0G","","1088","img/animal6.png","75","1089","2","1","3","0.5,0,1,1,0.5,0,0,1,0.5",""
"","html-keyboard-response","63","190911","0.0-63.0","3HRMW88U17C8H5OINKRGNPWO2HLM07","A3PRQ2GSU42718","3SA4EMRVJVOCGON1OYE6FAUV3AFP0G","","null","<img src=""img/animal6.png"" style=""width:200px; border:14px solid green;"">","null","","","","","",""
"","image-keyboard-response","64","191640","0.0-64.0","3HRMW88U17C8H5OINKRGNPWO2HLM07","A3PRQ2GSU42718","3SA4EMRVJVOCGON1OYE6FAUV3AFP0G","","728","img/animal6.png","75","729","2","1","3","0.5,0,1,1,0.5,0,0,1,0.5",""
"","html-keyboard-response","65","191947","0.0-65.0","3HRMW88U17C8H5OINKRGNPWO2HLM07","A3PRQ2GSU42718","3SA4EMRVJVOCGON1OYE6FAUV3AFP0G","","null","<img src=""img/animal6.png"" style=""width:200px; border:14px solid green;"">","null","","","","","",""
"","image-keyboard-response","66","192733","0.0-66.0","3HRMW88U17C8H5OINKRGNPWO2HLM07","A3PRQ2GSU42718","3SA4EMRVJVOCGON1OYE6FAUV3AFP0G","","784","img/animal2.png","74","786","1","1","2","0.5,0,1,1,0.5,0,0,1,0.5",""
"","html-keyboard-response","67","193034","0.0-67.0","3HRMW88U17C8H5OINKRGNPWO2HLM07","A3PRQ2GSU42718","3SA4EMRVJVOCGON1OYE6FAUV3AFP0G","","null","<img src=""img/animal2.png"" style=""width:200px; border:14px solid green;"">","null","","","","","",""
"","image-keyboard-response","68","193468","0.0-68.0","3HRMW88U17C8H5OINKRGNPWO2HLM07","A3PRQ2GSU42718","3SA4EMRVJVOCGON1OYE6FAUV3AFP0G","","434","img/animal2.png","74","434","1","1","2","0.5,0,1,1,0.5,0,0,1,0.5",""
"","html-keyboard-response","69","193784","0.0-69.0","3HRMW88U17C8H5OINKRGNPWO2HLM07","A3PRQ2GSU42718","3SA4EMRVJVOCGON1OYE6FAUV3AFP0G","","null","<img src=""img/animal2.png"" style=""width:200px; border:14px solid green;"">","null","","","","","",""
"","image-keyboard-response","70","194632","0.0-70.0","3HRMW88U17C8H5OINKRGNPWO2HLM07","A3PRQ2GSU42718","3SA4EMRVJVOCGON1OYE6FAUV3AFP0G","","847","img/animal5.png","76","847","3","1","1","0.5,0,1,1,0.5,0,0,1,0.5",""
"","html-keyboard-response","71","194940","0.0-71.0","3HRMW88U17C8H5OINKRGNPWO2HLM07","A3PRQ2GSU42718","3SA4EMRVJVOCGON1OYE6FAUV3AFP0G","","null","<img src=""img/animal5.png"" style=""width:200px; border:14px solid green;"">","null","","","","","",""
"","image-keyboard-response","72","195822","0.0-72.0","3HRMW88U17C8H5OINKRGNPWO2HLM07","A3PRQ2GSU42718","3SA4EMRVJVOCGON1OYE6FAUV3AFP0G","","881","img/animal2.png","74","882","1","1","2","0.5,0,1,1,0.5,0,0,1,0.5",""
"","html-keyboard-response","73","196129","0.0-73.0","3HRMW88U17C8H5OINKRGNPWO2HLM07","A3PRQ2GSU42718","3SA4EMRVJVOCGON1OYE6FAUV3AFP0G","","null","<img src=""img/animal2.png"" style=""width:200px; border:14px solid green;"">","null","","","","","",""
"","image-keyboard-response","74","196682","0.0-74.0","3HRMW88U17C8H5OINKRGNPWO2HLM07","A3PRQ2GSU42718","3SA4EMRVJVOCGON1OYE6FAUV3AFP0G","","553","img/animal6.png","75","554","2","1","3","0.5,0,1,1,0.5,0,0,1,0.5",""
"","html-keyboard-response","75","196993","0.0-75.0","3HRMW88U17C8H5OINKRGNPWO2HLM07","A3PRQ2GSU42718","3SA4EMRVJVOCGON1OYE6FAUV3AFP0G","","null","<img src=""img/animal6.png"" style=""width:200px; border:14px solid green;"">","null","","","","","",""
"","image-keyboard-response","76","197795","0.0-76.0","3HRMW88U17C8H5OINKRGNPWO2HLM07","A3PRQ2GSU42718","3SA4EMRVJVOCGON1OYE6FAUV3AFP0G","","800","img/animal6.png","75","802","2","1","3","0.5,0,1,1,0.5,0,0,1,0.5",""
"","html-keyboard-response","77","198113","0.0-77.0","3HRMW88U17C8H5OINKRGNPWO2HLM07","A3PRQ2GSU42718","3SA4EMRVJVOCGON1OYE6FAUV3AFP0G","","null","<img src=""img/animal6.png"" style=""width:200px; border:14px solid green;"">","null","","","","","",""
"","image-keyboard-response","78","198578","0.0-78.0","3HRMW88U17C8H5OINKRGNPWO2HLM07","A3PRQ2GSU42718","3SA4EMRVJVOCGON1OYE6FAUV3AFP0G","","464","img/animal6.png","75","464","2","1","3","0.5,0,1,1,0.5,0,0,1,0.5",""
"","html-keyboard-response","79","198883","0.0-79.0","3HRMW88U17C8H5OINKRGNPWO2HLM07","A3PRQ2GSU42718","3SA4EMRVJVOCGON1OYE6FAUV3AFP0G","","null","<img src=""img/animal6.png"" style=""width:200px; border:14px solid green;"">","null","","","","","",""
"","image-keyboard-response","80","199606","0.0-80.0","3HRMW88U17C8H5OINKRGNPWO2HLM07","A3PRQ2GSU42718","3SA4EMRVJVOCGON1OYE6FAUV3AFP0G","","721","img/animal5.png","76","722","3","1","1","0.5,0,1,1,0.5,0,0,1,0.5",""
"","html-keyboard-response","81","199917","0.0-81.0","3HRMW88U17C8H5OINKRGNPWO2HLM07","A3PRQ2GSU42718","3SA4EMRVJVOCGON1OYE6FAUV3AFP0G","","null","<img src=""img/animal5.png"" style=""width:200px; border:14px solid green;"">","null","","","","","",""
"","image-keyboard-response","82","200351","0.0-82.0","3HRMW88U17C8H5OINKRGNPWO2HLM07","A3PRQ2GSU42718","3SA4EMRVJVOCGON1OYE6FAUV3AFP0G","","433","img/animal5.png","76","433","3","1","1","0.5,0,1,1,0.5,0,0,1,0.5",""
"","html-keyboard-response","83","200657","0.0-83.0","3HRMW88U17C8H5OINKRGNPWO2HLM07","A3PRQ2GSU42718","3SA4EMRVJVOCGON1OYE6FAUV3AFP0G","","null","<img src=""img/animal5.png"" style=""width:200px; border:14px solid green;"">","null","","","","","",""
"","image-keyboard-response","84","201104","0.0-84.0","3HRMW88U17C8H5OINKRGNPWO2HLM07","A3PRQ2GSU42718","3SA4EMRVJVOCGON1OYE6FAUV3AFP0G","","445","img/animal5.png","76","445","3","1","1","0.5,0,1,1,0.5,0,0,1,0.5",""
"","html-keyboard-response","85","201407","0.0-85.0","3HRMW88U17C8H5OINKRGNPWO2HLM07","A3PRQ2GSU42718","3SA4EMRVJVOCGON1OYE6FAUV3AFP0G","","null","<img src=""img/animal5.png"" style=""width:200px; border:14px solid green;"">","null","","","","","",""
"","image-keyboard-response","86","201995","0.0-86.0","3HRMW88U17C8H5OINKRGNPWO2HLM07","A3PRQ2GSU42718","3SA4EMRVJVOCGON1OYE6FAUV3AFP0G","","587","img/animal2.png","74","588","1","1","2","0.5,0,1,1,0.5,0,0,1,0.5",""
"","html-keyboard-response","87","202309","0.0-87.0","3HRMW88U17C8H5OINKRGNPWO2HLM07","A3PRQ2GSU42718","3SA4EMRVJVOCGON1OYE6FAUV3AFP0G","","null","<img src=""img/animal2.png"" style=""width:200px; border:14px solid green;"">","null","","","","","",""
"","image-keyboard-response","88","203460","0.0-88.0","3HRMW88U17C8H5OINKRGNPWO2HLM07","A3PRQ2GSU42718","3SA4EMRVJVOCGON1OYE6FAUV3AFP0G","","1150","img/animal6.png","75","1150","2","1","3","0.5,0,1,1,0.5,0,0,1,0.5",""
"","html-keyboard-response","89","203767","0.0-89.0","3HRMW88U17C8H5OINKRGNPWO2HLM07","A3PRQ2GSU42718","3SA4EMRVJVOCGON1OYE6FAUV3AFP0G","","null","<img src=""img/animal6.png"" style=""width:200px; border:14px solid green;"">","null","","","","","",""
"","image-keyboard-response","90","204212","0.0-90.0","3HRMW88U17C8H5OINKRGNPWO2HLM07","A3PRQ2GSU42718","3SA4EMRVJVOCGON1OYE6FAUV3AFP0G","","445","img/animal6.png","75","445","2","1","3","0.5,0,1,1,0.5,0,0,1,0.5",""
"","html-keyboard-response","91","204514","0.0-91.0","3HRMW88U17C8H5OINKRGNPWO2HLM07","A3PRQ2GSU42718","3SA4EMRVJVOCGON1OYE6FAUV3AFP0G","","null","<img src=""img/animal6.png"" style=""width:200px; border:14px solid green;"">","null","","","","","",""
"","image-keyboard-response","92","205014","0.0-92.0","3HRMW88U17C8H5OINKRGNPWO2HLM07","A3PRQ2GSU42718","3SA4EMRVJVOCGON1OYE6FAUV3AFP0G","","500","img/animal2.png","76","500","3","0","2","0.5,0,1,1,0.5,0,0,1,0.5",""
"","html-keyboard-response","93","205316","0.0-93.0","3HRMW88U17C8H5OINKRGNPWO2HLM07","A3PRQ2GSU42718","3SA4EMRVJVOCGON1OYE6FAUV3AFP0G","","null","<img src=""img/animal2.png"" style=""width:200px;border:14px solid red;"">","null","","","","","",""
"","image-keyboard-response","94","206010","0.0-94.0","3HRMW88U17C8H5OINKRGNPWO2HLM07","A3PRQ2GSU42718","3SA4EMRVJVOCGON1OYE6FAUV3AFP0G","","694","img/animal2.png","74","694","1","1","2","0.5,0,1,1,0.5,0,0,1,0.5",""
"","html-keyboard-response","95","206320","0.0-95.0","3HRMW88U17C8H5OINKRGNPWO2HLM07","A3PRQ2GSU42718","3SA4EMRVJVOCGON1OYE6FAUV3AFP0G","","null","<img src=""img/animal2.png"" style=""width:200px; border:14px solid green;"">","null","","","","","",""
"","image-keyboard-response","96","206776","0.0-96.0","3HRMW88U17C8H5OINKRGNPWO2HLM07","A3PRQ2GSU42718","3SA4EMRVJVOCGON1OYE6FAUV3AFP0G","","455","img/animal2.png","74","455","1","1","2","0.5,0,1,1,0.5,0,0,1,0.5",""
"","html-keyboard-response","97","207091","0.0-97.0","3HRMW88U17C8H5OINKRGNPWO2HLM07","A3PRQ2GSU42718","3SA4EMRVJVOCGON1OYE6FAUV3AFP0G","","null","<img src=""img/animal2.png"" style=""width:200px; border:14px solid green;"">","null","","","","","",""
"","image-keyboard-response","98","207615","0.0-98.0","3HRMW88U17C8H5OINKRGNPWO2HLM07","A3PRQ2GSU42718","3SA4EMRVJVOCGON1OYE6FAUV3AFP0G","","522","img/animal2.png","74","522","1","1","2","0.5,0,1,1,0.5,0,0,1,0.5",""
"","html-keyboard-response","99","207926","0.0-99.0","3HRMW88U17C8H5OINKRGNPWO2HLM07","A3PRQ2GSU42718","3SA4EMRVJVOCGON1OYE6FAUV3AFP0G","","null","<img src=""img/animal2.png"" style=""width:200px; border:14px solid green;"">","null","","","","","",""
"","image-keyboard-response","100","208401","0.0-100.0","3HRMW88U17C8H5OINKRGNPWO2HLM07","A3PRQ2GSU42718","3SA4EMRVJVOCGON1OYE6FAUV3AFP0G","","475","img/animal2.png","74","476","1","1","2","0.5,0,1,1,0.5,0,0,1,0.5",""
"","html-keyboard-response","101","208711","0.0-101.0","3HRMW88U17C8H5OINKRGNPWO2HLM07","A3PRQ2GSU42718","3SA4EMRVJVOCGON1OYE6FAUV3AFP0G","","null","<img src=""img/animal2.png"" style=""width:200px; border:14px solid green;"">","null","","","","","",""
"","image-keyboard-response","102","209442","0.0-102.0","3HRMW88U17C8H5OINKRGNPWO2HLM07","A3PRQ2GSU42718","3SA4EMRVJVOCGON1OYE6FAUV3AFP0G","","729","img/animal6.png","75","730","2","1","3","0.5,0,1,1,0.5,0,0,1,0.5",""
"","html-keyboard-response","103","209769","0.0-103.0","3HRMW88U17C8H5OINKRGNPWO2HLM07","A3PRQ2GSU42718","3SA4EMRVJVOCGON1OYE6FAUV3AFP0G","","null","<img src=""img/animal6.png"" style=""width:200px; border:14px solid green;"">","null","","","","","",""
"","image-keyboard-response","104","210503","0.0-104.0","3HRMW88U17C8H5OINKRGNPWO2HLM07","A3PRQ2GSU42718","3SA4EMRVJVOCGON1OYE6FAUV3AFP0G","","732","img/animal2.png","74","733","1","1","2","0.5,0,1,1,0.5,0,0,1,0.5",""
"","html-keyboard-response","105","210820","0.0-105.0","3HRMW88U17C8H5OINKRGNPWO2HLM07","A3PRQ2GSU42718","3SA4EMRVJVOCGON1OYE6FAUV3AFP0G","","null","<img src=""img/animal2.png"" style=""width:200px; border:14px solid green;"">","null","","","","","",""
"","image-keyboard-response","106","211513","0.0-106.0","3HRMW88U17C8H5OINKRGNPWO2HLM07","A3PRQ2GSU42718","3SA4EMRVJVOCGON1OYE6FAUV3AFP0G","","693","img/animal6.png","75","693","2","1","3","0.5,0,1,1,0.5,0,0,1,0.5",""
"","html-keyboard-response","107","211823","0.0-107.0","3HRMW88U17C8H5OINKRGNPWO2HLM07","A3PRQ2GSU42718","3SA4EMRVJVOCGON1OYE6FAUV3AFP0G","","null","<img src=""img/animal6.png"" style=""width:200px; border:14px solid green;"">","null","","","","","",""
"","image-keyboard-response","108","212792","0.0-108.0","3HRMW88U17C8H5OINKRGNPWO2HLM07","A3PRQ2GSU42718","3SA4EMRVJVOCGON1OYE6FAUV3AFP0G","","968","img/animal5.png","76","970","3","1","1","0.5,0,1,1,0.5,0,0,1,0.5",""
"","html-keyboard-response","109","213096","0.0-109.0","3HRMW88U17C8H5OINKRGNPWO2HLM07","A3PRQ2GSU42718","3SA4EMRVJVOCGON1OYE6FAUV3AFP0G","","null","<img src=""img/animal5.png"" style=""width:200px; border:14px solid green;"">","null","","","","","",""
"","image-keyboard-response","110","213569","0.0-110.0","3HRMW88U17C8H5OINKRGNPWO2HLM07","A3PRQ2GSU42718","3SA4EMRVJVOCGON1OYE6FAUV3AFP0G","","472","img/animal5.png","76","473","3","1","1","0.5,0,1,1,0.5,0,0,1,0.5",""
"","html-keyboard-response","111","213884","0.0-111.0","3HRMW88U17C8H5OINKRGNPWO2HLM07","A3PRQ2GSU42718","3SA4EMRVJVOCGON1OYE6FAUV3AFP0G","","null","<img src=""img/animal5.png"" style=""width:200px; border:14px solid green;"">","null","","","","","",""
"","image-keyboard-response","112","215126","0.0-112.0","3HRMW88U17C8H5OINKRGNPWO2HLM07","A3PRQ2GSU42718","3SA4EMRVJVOCGON1OYE6FAUV3AFP0G","","1242","img/animal6.png","74","1242","1","0","3","0.5,0,1,1,0.5,0,0,1,0.5",""
"","html-keyboard-response","113","215436","0.0-113.0","3HRMW88U17C8H5OINKRGNPWO2HLM07","A3PRQ2GSU42718","3SA4EMRVJVOCGON1OYE6FAUV3AFP0G","","null","<img src=""img/animal6.png"" style=""width:200px;border:14px solid red;"">","null","","","","","",""
"","image-keyboard-response","114","216089","0.0-114.0","3HRMW88U17C8H5OINKRGNPWO2HLM07","A3PRQ2GSU42718","3SA4EMRVJVOCGON1OYE6FAUV3AFP0G","","652","img/animal2.png","74","654","1","1","2","0.5,0,1,1,0.5,0,0,1,0.5",""
"","html-keyboard-response","115","216391","0.0-115.0","3HRMW88U17C8H5OINKRGNPWO2HLM07","A3PRQ2GSU42718","3SA4EMRVJVOCGON1OYE6FAUV3AFP0G","","null","<img src=""img/animal2.png"" style=""width:200px; border:14px solid green;"">","null","","","","","",""
"","image-keyboard-response","116","216969","0.0-116.0","3HRMW88U17C8H5OINKRGNPWO2HLM07","A3PRQ2GSU42718","3SA4EMRVJVOCGON1OYE6FAUV3AFP0G","","578","img/animal2.png","74","578","1","1","2","0.5,0,1,1,0.5,0,0,1,0.5",""
"","html-keyboard-response","117","217272","0.0-117.0","3HRMW88U17C8H5OINKRGNPWO2HLM07","A3PRQ2GSU42718","3SA4EMRVJVOCGON1OYE6FAUV3AFP0G","","null","<img src=""img/animal2.png"" style=""width:200px; border:14px solid green;"">","null","","","","","",""
"","image-keyboard-response","118","218244","0.0-118.0","3HRMW88U17C8H5OINKRGNPWO2HLM07","A3PRQ2GSU42718","3SA4EMRVJVOCGON1OYE6FAUV3AFP0G","","970","img/animal5.png","76","971","3","1","1","0.5,0,1,1,0.5,0,0,1,0.5",""
"","html-keyboard-response","119","218546","0.0-119.0","3HRMW88U17C8H5OINKRGNPWO2HLM07","A3PRQ2GSU42718","3SA4EMRVJVOCGON1OYE6FAUV3AFP0G","","null","<img src=""img/animal5.png"" style=""width:200px; border:14px solid green;"">","null","","","","","",""
"","image-keyboard-response","120","219268","0.0-120.0","3HRMW88U17C8H5OINKRGNPWO2HLM07","A3PRQ2GSU42718","3SA4EMRVJVOCGON1OYE6FAUV3AFP0G","","721","img/animal5.png","76","721","3","1","1","0.5,0,1,1,0.5,0,0,1,0.5",""
"","html-keyboard-response","121","219580","0.0-121.0","3HRMW88U17C8H5OINKRGNPWO2HLM07","A3PRQ2GSU42718","3SA4EMRVJVOCGON1OYE6FAUV3AFP0G","","null","<img src=""img/animal5.png"" style=""width:200px; border:14px solid green;"">","null","","","","","",""
"","image-keyboard-response","122","220367","0.0-122.0","3HRMW88U17C8H5OINKRGNPWO2HLM07","A3PRQ2GSU42718","3SA4EMRVJVOCGON1OYE6FAUV3AFP0G","","786","img/animal2.png","74","786","1","1","2","0.5,0,1,1,0.5,0,0,1,0.5",""
"","html-keyboard-response","123","220684","0.0-123.0","3HRMW88U17C8H5OINKRGNPWO2HLM07","A3PRQ2GSU42718","3SA4EMRVJVOCGON1OYE6FAUV3AFP0G","","null","<img src=""img/animal2.png"" style=""width:200px; border:14px solid green;"">","null","","","","","",""
"","image-keyboard-response","124","221677","0.0-124.0","3HRMW88U17C8H5OINKRGNPWO2HLM07","A3PRQ2GSU42718","3SA4EMRVJVOCGON1OYE6FAUV3AFP0G","","993","img/animal5.png","76","994","3","1","1","0.5,0,1,1,0.5,0,0,1,0.5",""
"","html-keyboard-response","125","221987","0.0-125.0","3HRMW88U17C8H5OINKRGNPWO2HLM07","A3PRQ2GSU42718","3SA4EMRVJVOCGON1OYE6FAUV3AFP0G","","null","<img src=""img/animal5.png"" style=""width:200px; border:14px solid green;"">","null","","","","","",""
"","image-keyboard-response","126","222680","0.0-126.0","3HRMW88U17C8H5OINKRGNPWO2HLM07","A3PRQ2GSU42718","3SA4EMRVJVOCGON1OYE6FAUV3AFP0G","","693","img/animal2.png","74","694","1","1","2","0.5,0,1,1,0.5,0,0,1,0.5",""
"","html-keyboard-response","127","222985","0.0-127.0","3HRMW88U17C8H5OINKRGNPWO2HLM07","A3PRQ2GSU42718","3SA4EMRVJVOCGON1OYE6FAUV3AFP0G","","null","<img src=""img/animal2.png"" style=""width:200px; border:14px solid green;"">","null","","","","","",""
"","image-keyboard-response","128","230024","0.0-128.0","3HRMW88U17C8H5OINKRGNPWO2HLM07","A3PRQ2GSU42718","3SA4EMRVJVOCGON1OYE6FAUV3AFP0G","","7038","img/animal6.png","75","7039","2","1","3","0.5,0,1,1,0.5,0,0,1,0.5",""
"","html-keyboard-response","129","230338","0.0-129.0","3HRMW88U17C8H5OINKRGNPWO2HLM07","A3PRQ2GSU42718","3SA4EMRVJVOCGON1OYE6FAUV3AFP0G","","null","<img src=""img/animal6.png"" style=""width:200px; border:14px solid green;"">","null","","","","","",""
"","image-keyboard-response","130","233476","0.0-130.0","3HRMW88U17C8H5OINKRGNPWO2HLM07","A3PRQ2GSU42718","3SA4EMRVJVOCGON1OYE6FAUV3AFP0G","","3137","img/animal5.png","76","3138","3","1","1","0.5,0,1,1,0.5,0,0,1,0.5",""
"","html-keyboard-response","131","233780","0.0-131.0","3HRMW88U17C8H5OINKRGNPWO2HLM07","A3PRQ2GSU42718","3SA4EMRVJVOCGON1OYE6FAUV3AFP0G","","null","<img src=""img/animal5.png"" style=""width:200px; border:14px solid green;"">","null","","","","","",""
"","image-keyboard-response","132","234461","0.0-132.0","3HRMW88U17C8H5OINKRGNPWO2HLM07","A3PRQ2GSU42718","3SA4EMRVJVOCGON1OYE6FAUV3AFP0G","","680","img/animal2.png","74","680","1","1","2","0.5,0,1,1,0.5,0,0,1,0.5",""
"","html-keyboard-response","133","234768","0.0-133.0","3HRMW88U17C8H5OINKRGNPWO2HLM07","A3PRQ2GSU42718","3SA4EMRVJVOCGON1OYE6FAUV3AFP0G","","null","<img src=""img/animal2.png"" style=""width:200px; border:14px solid green;"">","null","","","","","",""
"","image-keyboard-response","134","235348","0.0-134.0","3HRMW88U17C8H5OINKRGNPWO2HLM07","A3PRQ2GSU42718","3SA4EMRVJVOCGON1OYE6FAUV3AFP0G","","580","img/animal2.png","74","581","1","1","2","0.5,0,1,1,0.5,0,0,1,0.5",""
"","html-keyboard-response","135","235654","0.0-135.0","3HRMW88U17C8H5OINKRGNPWO2HLM07","A3PRQ2GSU42718","3SA4EMRVJVOCGON1OYE6FAUV3AFP0G","","null","<img src=""img/animal2.png"" style=""width:200px; border:14px solid green;"">","null","","","","","",""
"","image-keyboard-response","136","236426","0.0-136.0","3HRMW88U17C8H5OINKRGNPWO2HLM07","A3PRQ2GSU42718","3SA4EMRVJVOCGON1OYE6FAUV3AFP0G","","770","img/animal6.png","75","772","2","1","3","0.5,0,1,1,0.5,0,0,1,0.5",""
"","html-keyboard-response","137","236741","0.0-137.0","3HRMW88U17C8H5OINKRGNPWO2HLM07","A3PRQ2GSU42718","3SA4EMRVJVOCGON1OYE6FAUV3AFP0G","","null","<img src=""img/animal6.png"" style=""width:200px; border:14px solid green;"">","null","","","","","",""
"","image-keyboard-response","138","237468","0.0-138.0","3HRMW88U17C8H5OINKRGNPWO2HLM07","A3PRQ2GSU42718","3SA4EMRVJVOCGON1OYE6FAUV3AFP0G","","725","img/animal2.png","74","726","1","1","2","0.5,0,1,1,0.5,0,0,1,0.5",""
"","html-keyboard-response","139","237776","0.0-139.0","3HRMW88U17C8H5OINKRGNPWO2HLM07","A3PRQ2GSU42718","3SA4EMRVJVOCGON1OYE6FAUV3AFP0G","","null","<img src=""img/animal2.png"" style=""width:200px; border:14px solid green;"">","null","","","","","",""
"","image-keyboard-response","140","238322","0.0-140.0","3HRMW88U17C8H5OINKRGNPWO2HLM07","A3PRQ2GSU42718","3SA4EMRVJVOCGON1OYE6FAUV3AFP0G","","545","img/animal2.png","74","546","1","1","2","0.5,0,1,1,0.5,0,0,1,0.5",""
"","html-keyboard-response","141","238632","0.0-141.0","3HRMW88U17C8H5OINKRGNPWO2HLM07","A3PRQ2GSU42718","3SA4EMRVJVOCGON1OYE6FAUV3AFP0G","","null","<img src=""img/animal2.png"" style=""width:200px; border:14px solid green;"">","null","","","","","",""
"","image-keyboard-response","142","239368","0.0-142.0","3HRMW88U17C8H5OINKRGNPWO2HLM07","A3PRQ2GSU42718","3SA4EMRVJVOCGON1OYE6FAUV3AFP0G","","735","img/animal6.png","75","736","2","1","3","0.5,0,1,1,0.5,0,0,1,0.5",""
"","html-keyboard-response","143","239683","0.0-143.0","3HRMW88U17C8H5OINKRGNPWO2HLM07","A3PRQ2GSU42718","3SA4EMRVJVOCGON1OYE6FAUV3AFP0G","","null","<img src=""img/animal6.png"" style=""width:200px; border:14px solid green;"">","null","","","","","",""
"","image-keyboard-response","144","240385","0.0-144.0","3HRMW88U17C8H5OINKRGNPWO2HLM07","A3PRQ2GSU42718","3SA4EMRVJVOCGON1OYE6FAUV3AFP0G","","700","img/animal2.png","74","701","1","1","2","0.5,0,1,1,0.5,0,0,1,0.5",""
"","html-keyboard-response","145","240686","0.0-145.0","3HRMW88U17C8H5OINKRGNPWO2HLM07","A3PRQ2GSU42718","3SA4EMRVJVOCGON1OYE6FAUV3AFP0G","","null","<img src=""img/animal2.png"" style=""width:200px; border:14px solid green;"">","null","","","","","",""
"","image-keyboard-response","146","241697","0.0-146.0","3HRMW88U17C8H5OINKRGNPWO2HLM07","A3PRQ2GSU42718","3SA4EMRVJVOCGON1OYE6FAUV3AFP0G","","1009","img/animal5.png","76","1011","3","1","1","0.5,0,1,1,0.5,0,0,1,0.5",""
"","html-keyboard-response","147","242006","0.0-147.0","3HRMW88U17C8H5OINKRGNPWO2HLM07","A3PRQ2GSU42718","3SA4EMRVJVOCGON1OYE6FAUV3AFP0G","","null","<img src=""img/animal5.png"" style=""width:200px; border:14px solid green;"">","null","","","","","",""
"","image-keyboard-response","148","242928","0.0-148.0","3HRMW88U17C8H5OINKRGNPWO2HLM07","A3PRQ2GSU42718","3SA4EMRVJVOCGON1OYE6FAUV3AFP0G","","922","img/animal6.png","74","923","1","0","3","0.5,0,1,1,0.5,0,0,1,0.5",""
"","html-keyboard-response","149","243232","0.0-149.0","3HRMW88U17C8H5OINKRGNPWO2HLM07","A3PRQ2GSU42718","3SA4EMRVJVOCGON1OYE6FAUV3AFP0G","","null","<img src=""img/animal6.png"" style=""width:200px;border:14px solid red;"">","null","","","","","",""
"","image-keyboard-response","150","245347","0.0-150.0","3HRMW88U17C8H5OINKRGNPWO2HLM07","A3PRQ2GSU42718","3SA4EMRVJVOCGON1OYE6FAUV3AFP0G","","2113","img/animal5.png","76","2114","3","1","1","0.5,0,1,1,0.5,0,0,1,0.5",""
"","html-keyboard-response","151","245656","0.0-151.0","3HRMW88U17C8H5OINKRGNPWO2HLM07","A3PRQ2GSU42718","3SA4EMRVJVOCGON1OYE6FAUV3AFP0G","","null","<img src=""img/animal5.png"" style=""width:200px; border:14px solid green;"">","null","","","","","",""
"","image-keyboard-response","152","246535","0.0-152.0","3HRMW88U17C8H5OINKRGNPWO2HLM07","A3PRQ2GSU42718","3SA4EMRVJVOCGON1OYE6FAUV3AFP0G","","877","img/animal6.png","75","878","2","1","3","0.5,0,1,1,0.5,0,0,1,0.5",""
"","html-keyboard-response","153","246844","0.0-153.0","3HRMW88U17C8H5OINKRGNPWO2HLM07","A3PRQ2GSU42718","3SA4EMRVJVOCGON1OYE6FAUV3AFP0G","","null","<img src=""img/animal6.png"" style=""width:200px; border:14px solid green;"">","null","","","","","",""
"","image-keyboard-response","154","247494","0.0-154.0","3HRMW88U17C8H5OINKRGNPWO2HLM07","A3PRQ2GSU42718","3SA4EMRVJVOCGON1OYE6FAUV3AFP0G","","648","img/animal2.png","74","650","1","1","2","0.5,0,1,1,0.5,0,0,1,0.5",""
"","html-keyboard-response","155","247809","0.0-155.0","3HRMW88U17C8H5OINKRGNPWO2HLM07","A3PRQ2GSU42718","3SA4EMRVJVOCGON1OYE6FAUV3AFP0G","","null","<img src=""img/animal2.png"" style=""width:200px; border:14px solid green;"">","null","","","","","",""
"","image-keyboard-response","156","248805","0.0-156.0","3HRMW88U17C8H5OINKRGNPWO2HLM07","A3PRQ2GSU42718","3SA4EMRVJVOCGON1OYE6FAUV3AFP0G","","993","img/animal5.png","76","995","3","1","1","0.5,0,1,1,0.5,0,0,1,0.5",""
"","html-keyboard-response","157","249113","0.0-157.0","3HRMW88U17C8H5OINKRGNPWO2HLM07","A3PRQ2GSU42718","3SA4EMRVJVOCGON1OYE6FAUV3AFP0G","","null","<img src=""img/animal5.png"" style=""width:200px; border:14px solid green;"">","null","","","","","",""
"","image-keyboard-response","158","249796","0.0-158.0","3HRMW88U17C8H5OINKRGNPWO2HLM07","A3PRQ2GSU42718","3SA4EMRVJVOCGON1OYE6FAUV3AFP0G","","682","img/animal5.png","76","682","3","1","1","0.5,0,1,1,0.5,0,0,1,0.5",""
"","html-keyboard-response","159","250101","0.0-159.0","3HRMW88U17C8H5OINKRGNPWO2HLM07","A3PRQ2GSU42718","3SA4EMRVJVOCGON1OYE6FAUV3AFP0G","","null","<img src=""img/animal5.png"" style=""width:200px; border:14px solid green;"">","null","","","","","",""
"","image-keyboard-response","160","250720","0.0-160.0","3HRMW88U17C8H5OINKRGNPWO2HLM07","A3PRQ2GSU42718","3SA4EMRVJVOCGON1OYE6FAUV3AFP0G","","618","img/animal2.png","74","618","1","1","2","0.5,0,1,1,0.5,0,0,1,0.5",""
"","html-keyboard-response","161","251036","0.0-161.0","3HRMW88U17C8H5OINKRGNPWO2HLM07","A3PRQ2GSU42718","3SA4EMRVJVOCGON1OYE6FAUV3AFP0G","","null","<img src=""img/animal2.png"" style=""width:200px; border:14px solid green;"">","null","","","","","",""
"","image-keyboard-response","162","251669","0.0-162.0","3HRMW88U17C8H5OINKRGNPWO2HLM07","A3PRQ2GSU42718","3SA4EMRVJVOCGON1OYE6FAUV3AFP0G","","631","img/animal6.png","75","633","2","1","3","0.5,0,1,1,0.5,0,0,1,0.5",""
"","html-keyboard-response","163","251976","0.0-163.0","3HRMW88U17C8H5OINKRGNPWO2HLM07","A3PRQ2GSU42718","3SA4EMRVJVOCGON1OYE6FAUV3AFP0G","","null","<img src=""img/animal6.png"" style=""width:200px; border:14px solid green;"">","null","","","","","",""
"","image-keyboard-response","164","252630","0.0-164.0","3HRMW88U17C8H5OINKRGNPWO2HLM07","A3PRQ2GSU42718","3SA4EMRVJVOCGON1OYE6FAUV3AFP0G","","653","img/animal6.png","75","653","2","1","3","0.5,0,1,1,0.5,0,0,1,0.5",""
"","html-keyboard-response","165","252941","0.0-165.0","3HRMW88U17C8H5OINKRGNPWO2HLM07","A3PRQ2GSU42718","3SA4EMRVJVOCGON1OYE6FAUV3AFP0G","","null","<img src=""img/animal6.png"" style=""width:200px; border:14px solid green;"">","null","","","","","",""
"","image-keyboard-response","166","253714","0.0-166.0","3HRMW88U17C8H5OINKRGNPWO2HLM07","A3PRQ2GSU42718","3SA4EMRVJVOCGON1OYE6FAUV3AFP0G","","770","img/animal2.png","74","772","1","1","2","0.5,0,1,1,0.5,0,0,1,0.5",""
"","html-keyboard-response","167","254029","0.0-167.0","3HRMW88U17C8H5OINKRGNPWO2HLM07","A3PRQ2GSU42718","3SA4EMRVJVOCGON1OYE6FAUV3AFP0G","","null","<img src=""img/animal2.png"" style=""width:200px; border:14px solid green;"">","null","","","","","",""
"","image-keyboard-response","168","254957","0.0-168.0","3HRMW88U17C8H5OINKRGNPWO2HLM07","A3PRQ2GSU42718","3SA4EMRVJVOCGON1OYE6FAUV3AFP0G","","927","img/animal5.png","76","928","3","1","1","0.5,0,1,1,0.5,0,0,1,0.5",""
"","html-keyboard-response","169","255272","0.0-169.0","3HRMW88U17C8H5OINKRGNPWO2HLM07","A3PRQ2GSU42718","3SA4EMRVJVOCGON1OYE6FAUV3AFP0G","","null","<img src=""img/animal5.png"" style=""width:200px; border:14px solid green;"">","null","","","","","",""
"","image-keyboard-response","170","255792","0.0-170.0","3HRMW88U17C8H5OINKRGNPWO2HLM07","A3PRQ2GSU42718","3SA4EMRVJVOCGON1OYE6FAUV3AFP0G","","520","img/animal5.png","76","520","3","1","1","0.5,0,1,1,0.5,0,0,1,0.5",""
"","html-keyboard-response","171","256106","0.0-171.0","3HRMW88U17C8H5OINKRGNPWO2HLM07","A3PRQ2GSU42718","3SA4EMRVJVOCGON1OYE6FAUV3AFP0G","","null","<img src=""img/animal5.png"" style=""width:200px; border:14px solid green;"">","null","","","","","",""
"","image-keyboard-response","172","256707","0.0-172.0","3HRMW88U17C8H5OINKRGNPWO2HLM07","A3PRQ2GSU42718","3SA4EMRVJVOCGON1OYE6FAUV3AFP0G","","600","img/animal5.png","76","600","3","1","1","0.5,0,1,1,0.5,0,0,1,0.5",""
"","html-keyboard-response","173","257008","0.0-173.0","3HRMW88U17C8H5OINKRGNPWO2HLM07","A3PRQ2GSU42718","3SA4EMRVJVOCGON1OYE6FAUV3AFP0G","","null","<img src=""img/animal5.png"" style=""width:200px; border:14px solid green;"">","null","","","","","",""
"","image-keyboard-response","174","257926","0.0-174.0","3HRMW88U17C8H5OINKRGNPWO2HLM07","A3PRQ2GSU42718","3SA4EMRVJVOCGON1OYE6FAUV3AFP0G","","916","img/animal6.png","75","917","2","1","3","0.5,0,1,1,0.5,0,0,1,0.5",""
"","html-keyboard-response","175","258229","0.0-175.0","3HRMW88U17C8H5OINKRGNPWO2HLM07","A3PRQ2GSU42718","3SA4EMRVJVOCGON1OYE6FAUV3AFP0G","","null","<img src=""img/animal6.png"" style=""width:200px; border:14px solid green;"">","null","","","","","",""
"","image-keyboard-response","176","258800","0.0-176.0","3HRMW88U17C8H5OINKRGNPWO2HLM07","A3PRQ2GSU42718","3SA4EMRVJVOCGON1OYE6FAUV3AFP0G","","570","img/animal6.png","75","571","2","1","3","0.5,0,1,1,0.5,0,0,1,0.5",""
"","html-keyboard-response","177","259116","0.0-177.0","3HRMW88U17C8H5OINKRGNPWO2HLM07","A3PRQ2GSU42718","3SA4EMRVJVOCGON1OYE6FAUV3AFP0G","","null","<img src=""img/animal6.png"" style=""width:200px; border:14px solid green;"">","null","","","","","",""
"","image-keyboard-response","178","259774","0.0-178.0","3HRMW88U17C8H5OINKRGNPWO2HLM07","A3PRQ2GSU42718","3SA4EMRVJVOCGON1OYE6FAUV3AFP0G","","657","img/animal6.png","75","657","2","1","3","0.5,0,1,1,0.5,0,0,1,0.5",""
"","html-keyboard-response","179","260088","0.0-179.0","3HRMW88U17C8H5OINKRGNPWO2HLM07","A3PRQ2GSU42718","3SA4EMRVJVOCGON1OYE6FAUV3AFP0G","","null","<img src=""img/animal6.png"" style=""width:200px; border:14px solid green;"">","null","","","","","",""
"","image-keyboard-response","180","260962","0.0-180.0","3HRMW88U17C8H5OINKRGNPWO2HLM07","A3PRQ2GSU42718","3SA4EMRVJVOCGON1OYE6FAUV3AFP0G","","873","img/animal5.png","76","874","3","1","1","0.5,0,1,1,0.5,0,0,1,0.5",""
"","html-keyboard-response","181","261270","0.0-181.0","3HRMW88U17C8H5OINKRGNPWO2HLM07","A3PRQ2GSU42718","3SA4EMRVJVOCGON1OYE6FAUV3AFP0G","","null","<img src=""img/animal5.png"" style=""width:200px; border:14px solid green;"">","null","","","","","",""
"","html-keyboard-response","182","287933","0.0-182.0","3HRMW88U17C8H5OINKRGNPWO2HLM07","A3PRQ2GSU42718","3SA4EMRVJVOCGON1OYE6FAUV3AFP0G","","","","","","","","","",""
"","image-keyboard-response","183","291597","0.0-183.0","3HRMW88U17C8H5OINKRGNPWO2HLM07","A3PRQ2GSU42718","3SA4EMRVJVOCGON1OYE6FAUV3AFP0G","","3663","img/animal3.png","74","3664","1","1","2","0.7,0,0.8,0.7,0.8,0,0.7,0.8,0",""
"","html-keyboard-response","184","291913","0.0-184.0","3HRMW88U17C8H5OINKRGNPWO2HLM07","A3PRQ2GSU42718","3SA4EMRVJVOCGON1OYE6FAUV3AFP0G","","null","<img src=""img/animal3.png"" style=""width:200px; border:14px solid green;"">","null","","","","","",""
"","image-keyboard-response","185","293673","0.0-185.0","3HRMW88U17C8H5OINKRGNPWO2HLM07","A3PRQ2GSU42718","3SA4EMRVJVOCGON1OYE6FAUV3AFP0G","","1759","img/animal4.png","75","1759","2","1","3","0.7,0,0.8,0.7,0.8,0,0.7,0.8,0",""
"","html-keyboard-response","186","293980","0.0-186.0","3HRMW88U17C8H5OINKRGNPWO2HLM07","A3PRQ2GSU42718","3SA4EMRVJVOCGON1OYE6FAUV3AFP0G","","null","<img src=""img/animal4.png"" style=""width:200px; border:14px solid green;"">","null","","","","","",""
"","image-keyboard-response","187","294861","0.0-187.0","3HRMW88U17C8H5OINKRGNPWO2HLM07","A3PRQ2GSU42718","3SA4EMRVJVOCGON1OYE6FAUV3AFP0G","","878","img/animal3.png","74","881","1","1","2","0.7,0,0.8,0.7,0.8,0,0.7,0.8,0",""
"","html-keyboard-response","188","295169","0.0-188.0","3HRMW88U17C8H5OINKRGNPWO2HLM07","A3PRQ2GSU42718","3SA4EMRVJVOCGON1OYE6FAUV3AFP0G","","null","<img src=""img/animal3.png"" style=""width:200px; border:14px solid green;"">","null","","","","","",""
"","image-keyboard-response","189","296068","0.0-189.0","3HRMW88U17C8H5OINKRGNPWO2HLM07","A3PRQ2GSU42718","3SA4EMRVJVOCGON1OYE6FAUV3AFP0G","","898","img/animal3.png","74","898","1","1","2","0.7,0,0.8,0.7,0.8,0,0.7,0.8,0",""
"","html-keyboard-response","190","296372","0.0-190.0","3HRMW88U17C8H5OINKRGNPWO2HLM07","A3PRQ2GSU42718","3SA4EMRVJVOCGON1OYE6FAUV3AFP0G","","null","<img src=""img/animal3.png"" style=""width:200px; border:14px solid green;"">","null","","","","","",""
"","image-keyboard-response","191","297026","0.0-191.0","3HRMW88U17C8H5OINKRGNPWO2HLM07","A3PRQ2GSU42718","3SA4EMRVJVOCGON1OYE6FAUV3AFP0G","","653","img/animal4.png","75","654","2","1","3","0.7,0,0.8,0.7,0.8,0,0.7,0.8,0",""
"","html-keyboard-response","192","297328","0.0-192.0","3HRMW88U17C8H5OINKRGNPWO2HLM07","A3PRQ2GSU42718","3SA4EMRVJVOCGON1OYE6FAUV3AFP0G","","null","<img src=""img/animal4.png"" style=""width:200px; border:14px solid green;"">","null","","","","","",""
"","image-keyboard-response","193","298193","0.0-193.0","3HRMW88U17C8H5OINKRGNPWO2HLM07","A3PRQ2GSU42718","3SA4EMRVJVOCGON1OYE6FAUV3AFP0G","","863","img/animal4.png","75","864","2","1","3","0.7,0,0.8,0.7,0.8,0,0.7,0.8,0",""
"","html-keyboard-response","194","298495","0.0-194.0","3HRMW88U17C8H5OINKRGNPWO2HLM07","A3PRQ2GSU42718","3SA4EMRVJVOCGON1OYE6FAUV3AFP0G","","null","<img src=""img/animal4.png"" style=""width:200px; border:14px solid green;"">","null","","","","","",""
"","image-keyboard-response","195","299399","0.0-195.0","3HRMW88U17C8H5OINKRGNPWO2HLM07","A3PRQ2GSU42718","3SA4EMRVJVOCGON1OYE6FAUV3AFP0G","","903","img/animal1.png","76","905","3","1","1","0.7,0,0.8,0.7,0.8,0,0.7,0.8,0",""
"","html-keyboard-response","196","299704","0.0-196.0","3HRMW88U17C8H5OINKRGNPWO2HLM07","A3PRQ2GSU42718","3SA4EMRVJVOCGON1OYE6FAUV3AFP0G","","null","<img src=""img/animal1.png"" style=""width:200px; border:14px solid green;"">","null","","","","","",""
"","image-keyboard-response","197","301382","0.0-197.0","3HRMW88U17C8H5OINKRGNPWO2HLM07","A3PRQ2GSU42718","3SA4EMRVJVOCGON1OYE6FAUV3AFP0G","","1677","img/animal3.png","74","1678","1","1","2","0.7,0,0.8,0.7,0.8,0,0.7,0.8,0",""
"","html-keyboard-response","198","301696","0.0-198.0","3HRMW88U17C8H5OINKRGNPWO2HLM07","A3PRQ2GSU42718","3SA4EMRVJVOCGON1OYE6FAUV3AFP0G","","null","<img src=""img/animal3.png"" style=""width:200px; border:14px solid green;"">","null","","","","","",""
"","image-keyboard-response","199","306298","0.0-199.0","3HRMW88U17C8H5OINKRGNPWO2HLM07","A3PRQ2GSU42718","3SA4EMRVJVOCGON1OYE6FAUV3AFP0G","","4602","img/animal4.png","75","4604","2","1","3","0.7,0,0.8,0.7,0.8,0,0.7,0.8,0",""
"","html-keyboard-response","200","306615","0.0-200.0","3HRMW88U17C8H5OINKRGNPWO2HLM07","A3PRQ2GSU42718","3SA4EMRVJVOCGON1OYE6FAUV3AFP0G","","null","<img src=""img/animal4.png"" style=""width:200px; border:14px solid green;"">","null","","","","","",""
"","image-keyboard-response","201","307356","0.0-201.0","3HRMW88U17C8H5OINKRGNPWO2HLM07","A3PRQ2GSU42718","3SA4EMRVJVOCGON1OYE6FAUV3AFP0G","","739","img/animal1.png","76","741","3","0","1","0.7,0,0.8,0.7,0.8,0,0.7,0.8,0",""
"","html-keyboard-response","202","307666","0.0-202.0","3HRMW88U17C8H5OINKRGNPWO2HLM07","A3PRQ2GSU42718","3SA4EMRVJVOCGON1OYE6FAUV3AFP0G","","null","<img src=""img/animal1.png"" style=""width:200px;border:14px solid red;"">","null","","","","","",""
"","image-keyboard-response","203","309603","0.0-203.0","3HRMW88U17C8H5OINKRGNPWO2HLM07","A3PRQ2GSU42718","3SA4EMRVJVOCGON1OYE6FAUV3AFP0G","","1938","img/animal4.png","75","1938","2","1","3","0.7,0,0.8,0.7,0.8,0,0.7,0.8,0",""
"","html-keyboard-response","204","309905","0.0-204.0","3HRMW88U17C8H5OINKRGNPWO2HLM07","A3PRQ2GSU42718","3SA4EMRVJVOCGON1OYE6FAUV3AFP0G","","null","<img src=""img/animal4.png"" style=""width:200px; border:14px solid green;"">","null","","","","","",""
"","image-keyboard-response","205","310785","0.0-205.0","3HRMW88U17C8H5OINKRGNPWO2HLM07","A3PRQ2GSU42718","3SA4EMRVJVOCGON1OYE6FAUV3AFP0G","","879","img/animal3.png","74","880","1","0","2","0.7,0,0.8,0.7,0.8,0,0.7,0.8,0",""
"","html-keyboard-response","206","311105","0.0-206.0","3HRMW88U17C8H5OINKRGNPWO2HLM07","A3PRQ2GSU42718","3SA4EMRVJVOCGON1OYE6FAUV3AFP0G","","null","<img src=""img/animal3.png"" style=""width:200px;border:14px solid red;"">","null","","","","","",""
"","image-keyboard-response","207","314067","0.0-207.0","3HRMW88U17C8H5OINKRGNPWO2HLM07","A3PRQ2GSU42718","3SA4EMRVJVOCGON1OYE6FAUV3AFP0G","","2960","img/animal1.png","76","2961","3","0","1","0.7,0,0.8,0.7,0.8,0,0.7,0.8,0",""
"","html-keyboard-response","208","314378","0.0-208.0","3HRMW88U17C8H5OINKRGNPWO2HLM07","A3PRQ2GSU42718","3SA4EMRVJVOCGON1OYE6FAUV3AFP0G","","null","<img src=""img/animal1.png"" style=""width:200px;border:14px solid red;"">","null","","","","","",""
"","image-keyboard-response","209","316927","0.0-209.0","3HRMW88U17C8H5OINKRGNPWO2HLM07","A3PRQ2GSU42718","3SA4EMRVJVOCGON1OYE6FAUV3AFP0G","","2548","img/animal1.png","76","2549","3","1","1","0.7,0,0.8,0.7,0.8,0,0.7,0.8,0",""
"","html-keyboard-response","210","317240","0.0-210.0","3HRMW88U17C8H5OINKRGNPWO2HLM07","A3PRQ2GSU42718","3SA4EMRVJVOCGON1OYE6FAUV3AFP0G","","null","<img src=""img/animal1.png"" style=""width:200px; border:14px solid green;"">","null","","","","","",""
"","image-keyboard-response","211","318443","0.0-211.0","3HRMW88U17C8H5OINKRGNPWO2HLM07","A3PRQ2GSU42718","3SA4EMRVJVOCGON1OYE6FAUV3AFP0G","","1202","img/animal4.png","75","1203","2","1","3","0.7,0,0.8,0.7,0.8,0,0.7,0.8,0",""
"","html-keyboard-response","212","318745","0.0-212.0","3HRMW88U17C8H5OINKRGNPWO2HLM07","A3PRQ2GSU42718","3SA4EMRVJVOCGON1OYE6FAUV3AFP0G","","null","<img src=""img/animal4.png"" style=""width:200px; border:14px solid green;"">","null","","","","","",""
"","image-keyboard-response","213","319659","0.0-213.0","3HRMW88U17C8H5OINKRGNPWO2HLM07","A3PRQ2GSU42718","3SA4EMRVJVOCGON1OYE6FAUV3AFP0G","","912","img/animal1.png","76","914","3","1","1","0.7,0,0.8,0.7,0.8,0,0.7,0.8,0",""
"","html-keyboard-response","214","319963","0.0-214.0","3HRMW88U17C8H5OINKRGNPWO2HLM07","A3PRQ2GSU42718","3SA4EMRVJVOCGON1OYE6FAUV3AFP0G","","null","<img src=""img/animal1.png"" style=""width:200px; border:14px solid green;"">","null","","","","","",""
"","image-keyboard-response","215","320598","0.0-215.0","3HRMW88U17C8H5OINKRGNPWO2HLM07","A3PRQ2GSU42718","3SA4EMRVJVOCGON1OYE6FAUV3AFP0G","","633","img/animal1.png","76","633","3","1","1","0.7,0,0.8,0.7,0.8,0,0.7,0.8,0",""
"","html-keyboard-response","216","320914","0.0-216.0","3HRMW88U17C8H5OINKRGNPWO2HLM07","A3PRQ2GSU42718","3SA4EMRVJVOCGON1OYE6FAUV3AFP0G","","null","<img src=""img/animal1.png"" style=""width:200px; border:14px solid green;"">","null","","","","","",""
"","image-keyboard-response","217","321819","0.0-217.0","3HRMW88U17C8H5OINKRGNPWO2HLM07","A3PRQ2GSU42718","3SA4EMRVJVOCGON1OYE6FAUV3AFP0G","","905","img/animal1.png","76","905","3","1","1","0.7,0,0.8,0.7,0.8,0,0.7,0.8,0",""
"","html-keyboard-response","218","322133","0.0-218.0","3HRMW88U17C8H5OINKRGNPWO2HLM07","A3PRQ2GSU42718","3SA4EMRVJVOCGON1OYE6FAUV3AFP0G","","null","<img src=""img/animal1.png"" style=""width:200px; border:14px solid green;"">","null","","","","","",""
"","image-keyboard-response","219","325725","0.0-219.0","3HRMW88U17C8H5OINKRGNPWO2HLM07","A3PRQ2GSU42718","3SA4EMRVJVOCGON1OYE6FAUV3AFP0G","","3592","img/animal4.png","75","3593","2","0","3","0.7,0,0.8,0.7,0.8,0,0.7,0.8,0",""
"","html-keyboard-response","220","326030","0.0-220.0","3HRMW88U17C8H5OINKRGNPWO2HLM07","A3PRQ2GSU42718","3SA4EMRVJVOCGON1OYE6FAUV3AFP0G","","null","<img src=""img/animal4.png"" style=""width:200px;border:14px solid red;"">","null","","","","","",""
"","image-keyboard-response","221","326776","0.0-221.0","3HRMW88U17C8H5OINKRGNPWO2HLM07","A3PRQ2GSU42718","3SA4EMRVJVOCGON1OYE6FAUV3AFP0G","","745","img/animal3.png","74","746","1","1","2","0.7,0,0.8,0.7,0.8,0,0.7,0.8,0",""
"","html-keyboard-response","222","327086","0.0-222.0","3HRMW88U17C8H5OINKRGNPWO2HLM07","A3PRQ2GSU42718","3SA4EMRVJVOCGON1OYE6FAUV3AFP0G","","null","<img src=""img/animal3.png"" style=""width:200px; border:14px solid green;"">","null","","","","","",""
"","image-keyboard-response","223","328036","0.0-223.0","3HRMW88U17C8H5OINKRGNPWO2HLM07","A3PRQ2GSU42718","3SA4EMRVJVOCGON1OYE6FAUV3AFP0G","","950","img/animal1.png","76","950","3","1","1","0.7,0,0.8,0.7,0.8,0,0.7,0.8,0",""
"","html-keyboard-response","224","328353","0.0-224.0","3HRMW88U17C8H5OINKRGNPWO2HLM07","A3PRQ2GSU42718","3SA4EMRVJVOCGON1OYE6FAUV3AFP0G","","null","<img src=""img/animal1.png"" style=""width:200px; border:14px solid green;"">","null","","","","","",""
"","image-keyboard-response","225","329395","0.0-225.0","3HRMW88U17C8H5OINKRGNPWO2HLM07","A3PRQ2GSU42718","3SA4EMRVJVOCGON1OYE6FAUV3AFP0G","","1042","img/animal4.png","75","1043","2","1","3","0.7,0,0.8,0.7,0.8,0,0.7,0.8,0",""
"","html-keyboard-response","226","329710","0.0-226.0","3HRMW88U17C8H5OINKRGNPWO2HLM07","A3PRQ2GSU42718","3SA4EMRVJVOCGON1OYE6FAUV3AFP0G","","null","<img src=""img/animal4.png"" style=""width:200px; border:14px solid green;"">","null","","","","","",""
"","image-keyboard-response","227","330578","0.0-227.0","3HRMW88U17C8H5OINKRGNPWO2HLM07","A3PRQ2GSU42718","3SA4EMRVJVOCGON1OYE6FAUV3AFP0G","","865","img/animal3.png","74","866","1","1","2","0.7,0,0.8,0.7,0.8,0,0.7,0.8,0",""
"","html-keyboard-response","228","330883","0.0-228.0","3HRMW88U17C8H5OINKRGNPWO2HLM07","A3PRQ2GSU42718","3SA4EMRVJVOCGON1OYE6FAUV3AFP0G","","null","<img src=""img/animal3.png"" style=""width:200px; border:14px solid green;"">","null","","","","","",""
"","image-keyboard-response","229","331421","0.0-229.0","3HRMW88U17C8H5OINKRGNPWO2HLM07","A3PRQ2GSU42718","3SA4EMRVJVOCGON1OYE6FAUV3AFP0G","","537","img/animal3.png","74","537","1","1","2","0.7,0,0.8,0.7,0.8,0,0.7,0.8,0",""
"","html-keyboard-response","230","331734","0.0-230.0","3HRMW88U17C8H5OINKRGNPWO2HLM07","A3PRQ2GSU42718","3SA4EMRVJVOCGON1OYE6FAUV3AFP0G","","null","<img src=""img/animal3.png"" style=""width:200px; border:14px solid green;"">","null","","","","","",""
"","image-keyboard-response","231","332523","0.0-231.0","3HRMW88U17C8H5OINKRGNPWO2HLM07","A3PRQ2GSU42718","3SA4EMRVJVOCGON1OYE6FAUV3AFP0G","","789","img/animal1.png","76","789","3","1","1","0.7,0,0.8,0.7,0.8,0,0.7,0.8,0",""
"","html-keyboard-response","232","332836","0.0-232.0","3HRMW88U17C8H5OINKRGNPWO2HLM07","A3PRQ2GSU42718","3SA4EMRVJVOCGON1OYE6FAUV3AFP0G","","null","<img src=""img/animal1.png"" style=""width:200px; border:14px solid green;"">","null","","","","","",""
"","image-keyboard-response","233","334117","0.0-233.0","3HRMW88U17C8H5OINKRGNPWO2HLM07","A3PRQ2GSU42718","3SA4EMRVJVOCGON1OYE6FAUV3AFP0G","","1280","img/animal4.png","75","1282","2","1","3","0.7,0,0.8,0.7,0.8,0,0.7,0.8,0",""
"","html-keyboard-response","234","334425","0.0-234.0","3HRMW88U17C8H5OINKRGNPWO2HLM07","A3PRQ2GSU42718","3SA4EMRVJVOCGON1OYE6FAUV3AFP0G","","null","<img src=""img/animal4.png"" style=""width:200px; border:14px solid green;"">","null","","","","","",""
"","image-keyboard-response","235","335246","0.0-235.0","3HRMW88U17C8H5OINKRGNPWO2HLM07","A3PRQ2GSU42718","3SA4EMRVJVOCGON1OYE6FAUV3AFP0G","","820","img/animal1.png","76","821","3","1","1","0.7,0,0.8,0.7,0.8,0,0.7,0.8,0",""
"","html-keyboard-response","236","335561","0.0-236.0","3HRMW88U17C8H5OINKRGNPWO2HLM07","A3PRQ2GSU42718","3SA4EMRVJVOCGON1OYE6FAUV3AFP0G","","null","<img src=""img/animal1.png"" style=""width:200px; border:14px solid green;"">","null","","","","","",""
"","image-keyboard-response","237","336304","0.0-237.0","3HRMW88U17C8H5OINKRGNPWO2HLM07","A3PRQ2GSU42718","3SA4EMRVJVOCGON1OYE6FAUV3AFP0G","","742","img/animal3.png","74","742","1","1","2","0.7,0,0.8,0.7,0.8,0,0.7,0.8,0",""
"","html-keyboard-response","238","336618","0.0-238.0","3HRMW88U17C8H5OINKRGNPWO2HLM07","A3PRQ2GSU42718","3SA4EMRVJVOCGON1OYE6FAUV3AFP0G","","null","<img src=""img/animal3.png"" style=""width:200px; border:14px solid green;"">","null","","","","","",""
"","image-keyboard-response","239","338486","0.0-239.0","3HRMW88U17C8H5OINKRGNPWO2HLM07","A3PRQ2GSU42718","3SA4EMRVJVOCGON1OYE6FAUV3AFP0G","","1866","img/animal4.png","75","1868","2","1","3","0.7,0,0.8,0.7,0.8,0,0.7,0.8,0",""
"","html-keyboard-response","240","338787","0.0-240.0","3HRMW88U17C8H5OINKRGNPWO2HLM07","A3PRQ2GSU42718","3SA4EMRVJVOCGON1OYE6FAUV3AFP0G","","null","<img src=""img/animal4.png"" style=""width:200px; border:14px solid green;"">","null","","","","","",""
"","image-keyboard-response","241","339358","0.0-241.0","3HRMW88U17C8H5OINKRGNPWO2HLM07","A3PRQ2GSU42718","3SA4EMRVJVOCGON1OYE6FAUV3AFP0G","","569","img/animal1.png","76","570","3","1","1","0.7,0,0.8,0.7,0.8,0,0.7,0.8,0",""
"","html-keyboard-response","242","339674","0.0-242.0","3HRMW88U17C8H5OINKRGNPWO2HLM07","A3PRQ2GSU42718","3SA4EMRVJVOCGON1OYE6FAUV3AFP0G","","null","<img src=""img/animal1.png"" style=""width:200px; border:14px solid green;"">","null","","","","","",""
"","image-keyboard-response","243","340365","0.0-243.0","3HRMW88U17C8H5OINKRGNPWO2HLM07","A3PRQ2GSU42718","3SA4EMRVJVOCGON1OYE6FAUV3AFP0G","","690","img/animal4.png","75","690","2","1","3","0.7,0,0.8,0.7,0.8,0,0.7,0.8,0",""
"","html-keyboard-response","244","340677","0.0-244.0","3HRMW88U17C8H5OINKRGNPWO2HLM07","A3PRQ2GSU42718","3SA4EMRVJVOCGON1OYE6FAUV3AFP0G","","null","<img src=""img/animal4.png"" style=""width:200px; border:14px solid green;"">","null","","","","","",""
"","image-keyboard-response","245","341234","0.0-245.0","3HRMW88U17C8H5OINKRGNPWO2HLM07","A3PRQ2GSU42718","3SA4EMRVJVOCGON1OYE6FAUV3AFP0G","","556","img/animal1.png","76","557","3","1","1","0.7,0,0.8,0.7,0.8,0,0.7,0.8,0",""
"","html-keyboard-response","246","341549","0.0-246.0","3HRMW88U17C8H5OINKRGNPWO2HLM07","A3PRQ2GSU42718","3SA4EMRVJVOCGON1OYE6FAUV3AFP0G","","null","<img src=""img/animal1.png"" style=""width:200px; border:14px solid green;"">","null","","","","","",""
"","image-keyboard-response","247","342368","0.0-247.0","3HRMW88U17C8H5OINKRGNPWO2HLM07","A3PRQ2GSU42718","3SA4EMRVJVOCGON1OYE6FAUV3AFP0G","","818","img/animal4.png","75","819","2","1","3","0.7,0,0.8,0.7,0.8,0,0.7,0.8,0",""
"","html-keyboard-response","248","342670","0.0-248.0","3HRMW88U17C8H5OINKRGNPWO2HLM07","A3PRQ2GSU42718","3SA4EMRVJVOCGON1OYE6FAUV3AFP0G","","null","<img src=""img/animal4.png"" style=""width:200px; border:14px solid green;"">","null","","","","","",""
"","image-keyboard-response","249","343928","0.0-249.0","3HRMW88U17C8H5OINKRGNPWO2HLM07","A3PRQ2GSU42718","3SA4EMRVJVOCGON1OYE6FAUV3AFP0G","","1257","img/animal1.png","76","1259","3","0","1","0.7,0,0.8,0.7,0.8,0,0.7,0.8,0",""
"","html-keyboard-response","250","344229","0.0-250.0","3HRMW88U17C8H5OINKRGNPWO2HLM07","A3PRQ2GSU42718","3SA4EMRVJVOCGON1OYE6FAUV3AFP0G","","null","<img src=""img/animal1.png"" style=""width:200px;border:14px solid red;"">","null","","","","","",""
"","image-keyboard-response","251","345056","0.0-251.0","3HRMW88U17C8H5OINKRGNPWO2HLM07","A3PRQ2GSU42718","3SA4EMRVJVOCGON1OYE6FAUV3AFP0G","","825","img/animal3.png","74","827","1","1","2","0.7,0,0.8,0.7,0.8,0,0.7,0.8,0",""
"","html-keyboard-response","252","345364","0.0-252.0","3HRMW88U17C8H5OINKRGNPWO2HLM07","A3PRQ2GSU42718","3SA4EMRVJVOCGON1OYE6FAUV3AFP0G","","null","<img src=""img/animal3.png"" style=""width:200px; border:14px solid green;"">","null","","","","","",""
"","image-keyboard-response","253","346411","0.0-253.0","3HRMW88U17C8H5OINKRGNPWO2HLM07","A3PRQ2GSU42718","3SA4EMRVJVOCGON1OYE6FAUV3AFP0G","","1046","img/animal4.png","75","1046","2","1","3","0.7,0,0.8,0.7,0.8,0,0.7,0.8,0",""
"","html-keyboard-response","254","346714","0.0-254.0","3HRMW88U17C8H5OINKRGNPWO2HLM07","A3PRQ2GSU42718","3SA4EMRVJVOCGON1OYE6FAUV3AFP0G","","null","<img src=""img/animal4.png"" style=""width:200px; border:14px solid green;"">","null","","","","","",""
"","image-keyboard-response","255","348150","0.0-255.0","3HRMW88U17C8H5OINKRGNPWO2HLM07","A3PRQ2GSU42718","3SA4EMRVJVOCGON1OYE6FAUV3AFP0G","","1435","img/animal4.png","75","1436","2","1","3","0.7,0,0.8,0.7,0.8,0,0.7,0.8,0",""
"","html-keyboard-response","256","348458","0.0-256.0","3HRMW88U17C8H5OINKRGNPWO2HLM07","A3PRQ2GSU42718","3SA4EMRVJVOCGON1OYE6FAUV3AFP0G","","null","<img src=""img/animal4.png"" style=""width:200px; border:14px solid green;"">","null","","","","","",""
"","image-keyboard-response","257","349250","0.0-257.0","3HRMW88U17C8H5OINKRGNPWO2HLM07","A3PRQ2GSU42718","3SA4EMRVJVOCGON1OYE6FAUV3AFP0G","","791","img/animal3.png","74","792","1","1","2","0.7,0,0.8,0.7,0.8,0,0.7,0.8,0",""
"","html-keyboard-response","258","349561","0.0-258.0","3HRMW88U17C8H5OINKRGNPWO2HLM07","A3PRQ2GSU42718","3SA4EMRVJVOCGON1OYE6FAUV3AFP0G","","null","<img src=""img/animal3.png"" style=""width:200px; border:14px solid green;"">","null","","","","","",""
"","image-keyboard-response","259","350335","0.0-259.0","3HRMW88U17C8H5OINKRGNPWO2HLM07","A3PRQ2GSU42718","3SA4EMRVJVOCGON1OYE6FAUV3AFP0G","","773","img/animal1.png","76","774","3","1","1","0.7,0,0.8,0.7,0.8,0,0.7,0.8,0",""
"","html-keyboard-response","260","350649","0.0-260.0","3HRMW88U17C8H5OINKRGNPWO2HLM07","A3PRQ2GSU42718","3SA4EMRVJVOCGON1OYE6FAUV3AFP0G","","null","<img src=""img/animal1.png"" style=""width:200px; border:14px solid green;"">","null","","","","","",""
"","image-keyboard-response","261","351427","0.0-261.0","3HRMW88U17C8H5OINKRGNPWO2HLM07","A3PRQ2GSU42718","3SA4EMRVJVOCGON1OYE6FAUV3AFP0G","","777","img/animal4.png","75","778","2","1","3","0.7,0,0.8,0.7,0.8,0,0.7,0.8,0",""
"","html-keyboard-response","262","351731","0.0-262.0","3HRMW88U17C8H5OINKRGNPWO2HLM07","A3PRQ2GSU42718","3SA4EMRVJVOCGON1OYE6FAUV3AFP0G","","null","<img src=""img/animal4.png"" style=""width:200px; border:14px solid green;"">","null","","","","","",""
"","image-keyboard-response","263","352613","0.0-263.0","3HRMW88U17C8H5OINKRGNPWO2HLM07","A3PRQ2GSU42718","3SA4EMRVJVOCGON1OYE6FAUV3AFP0G","","881","img/animal1.png","76","881","3","1","1","0.7,0,0.8,0.7,0.8,0,0.7,0.8,0",""
"","html-keyboard-response","264","352920","0.0-264.0","3HRMW88U17C8H5OINKRGNPWO2HLM07","A3PRQ2GSU42718","3SA4EMRVJVOCGON1OYE6FAUV3AFP0G","","null","<img src=""img/animal1.png"" style=""width:200px; border:14px solid green;"">","null","","","","","",""
"","image-keyboard-response","265","353481","0.0-265.0","3HRMW88U17C8H5OINKRGNPWO2HLM07","A3PRQ2GSU42718","3SA4EMRVJVOCGON1OYE6FAUV3AFP0G","","560","img/animal1.png","76","560","3","1","1","0.7,0,0.8,0.7,0.8,0,0.7,0.8,0",""
"","html-keyboard-response","266","353792","0.0-266.0","3HRMW88U17C8H5OINKRGNPWO2HLM07","A3PRQ2GSU42718","3SA4EMRVJVOCGON1OYE6FAUV3AFP0G","","null","<img src=""img/animal1.png"" style=""width:200px; border:14px solid green;"">","null","","","","","",""
"","image-keyboard-response","267","354331","0.0-267.0","3HRMW88U17C8H5OINKRGNPWO2HLM07","A3PRQ2GSU42718","3SA4EMRVJVOCGON1OYE6FAUV3AFP0G","","538","img/animal1.png","76","539","3","1","1","0.7,0,0.8,0.7,0.8,0,0.7,0.8,0",""
"","html-keyboard-response","268","354641","0.0-268.0","3HRMW88U17C8H5OINKRGNPWO2HLM07","A3PRQ2GSU42718","3SA4EMRVJVOCGON1OYE6FAUV3AFP0G","","null","<img src=""img/animal1.png"" style=""width:200px; border:14px solid green;"">","null","","","","","",""
"","image-keyboard-response","269","355329","0.0-269.0","3HRMW88U17C8H5OINKRGNPWO2HLM07","A3PRQ2GSU42718","3SA4EMRVJVOCGON1OYE6FAUV3AFP0G","","685","img/animal3.png","74","687","1","1","2","0.7,0,0.8,0.7,0.8,0,0.7,0.8,0",""
"","html-keyboard-response","270","355644","0.0-270.0","3HRMW88U17C8H5OINKRGNPWO2HLM07","A3PRQ2GSU42718","3SA4EMRVJVOCGON1OYE6FAUV3AFP0G","","null","<img src=""img/animal3.png"" style=""width:200px; border:14px solid green;"">","null","","","","","",""
"","image-keyboard-response","271","356153","0.0-271.0","3HRMW88U17C8H5OINKRGNPWO2HLM07","A3PRQ2GSU42718","3SA4EMRVJVOCGON1OYE6FAUV3AFP0G","","508","img/animal3.png","74","508","1","1","2","0.7,0,0.8,0.7,0.8,0,0.7,0.8,0",""
"","html-keyboard-response","272","356470","0.0-272.0","3HRMW88U17C8H5OINKRGNPWO2HLM07","A3PRQ2GSU42718","3SA4EMRVJVOCGON1OYE6FAUV3AFP0G","","null","<img src=""img/animal3.png"" style=""width:200px; border:14px solid green;"">","null","","","","","",""
"","image-keyboard-response","273","357016","0.0-273.0","3HRMW88U17C8H5OINKRGNPWO2HLM07","A3PRQ2GSU42718","3SA4EMRVJVOCGON1OYE6FAUV3AFP0G","","546","img/animal3.png","74","546","1","1","2","0.7,0,0.8,0.7,0.8,0,0.7,0.8,0",""
"","html-keyboard-response","274","357319","0.0-274.0","3HRMW88U17C8H5OINKRGNPWO2HLM07","A3PRQ2GSU42718","3SA4EMRVJVOCGON1OYE6FAUV3AFP0G","","null","<img src=""img/animal3.png"" style=""width:200px; border:14px solid green;"">","null","","","","","",""
"","image-keyboard-response","275","357916","0.0-275.0","3HRMW88U17C8H5OINKRGNPWO2HLM07","A3PRQ2GSU42718","3SA4EMRVJVOCGON1OYE6FAUV3AFP0G","","596","img/animal3.png","74","597","1","0","2","0.7,0,0.8,0.7,0.8,0,0.7,0.8,0",""
"","html-keyboard-response","276","358222","0.0-276.0","3HRMW88U17C8H5OINKRGNPWO2HLM07","A3PRQ2GSU42718","3SA4EMRVJVOCGON1OYE6FAUV3AFP0G","","null","<img src=""img/animal3.png"" style=""width:200px;border:14px solid red;"">","null","","","","","",""
"","image-keyboard-response","277","359038","0.0-277.0","3HRMW88U17C8H5OINKRGNPWO2HLM07","A3PRQ2GSU42718","3SA4EMRVJVOCGON1OYE6FAUV3AFP0G","","815","img/animal3.png","74","816","1","0","2","0.7,0,0.8,0.7,0.8,0,0.7,0.8,0",""
"","html-keyboard-response","278","359342","0.0-278.0","3HRMW88U17C8H5OINKRGNPWO2HLM07","A3PRQ2GSU42718","3SA4EMRVJVOCGON1OYE6FAUV3AFP0G","","null","<img src=""img/animal3.png"" style=""width:200px;border:14px solid red;"">","null","","","","","",""
"","image-keyboard-response","279","360567","0.0-279.0","3HRMW88U17C8H5OINKRGNPWO2HLM07","A3PRQ2GSU42718","3SA4EMRVJVOCGON1OYE6FAUV3AFP0G","","1226","img/animal4.png","75","1226","2","1","3","0.7,0,0.8,0.7,0.8,0,0.7,0.8,0",""
"","html-keyboard-response","280","360884","0.0-280.0","3HRMW88U17C8H5OINKRGNPWO2HLM07","A3PRQ2GSU42718","3SA4EMRVJVOCGON1OYE6FAUV3AFP0G","","null","<img src=""img/animal4.png"" style=""width:200px; border:14px solid green;"">","null","","","","","",""
"","image-keyboard-response","281","361684","0.0-281.0","3HRMW88U17C8H5OINKRGNPWO2HLM07","A3PRQ2GSU42718","3SA4EMRVJVOCGON1OYE6FAUV3AFP0G","","798","img/animal3.png","74","799","1","0","2","0.7,0,0.8,0.7,0.8,0,0.7,0.8,0",""
"","html-keyboard-response","282","361986","0.0-282.0","3HRMW88U17C8H5OINKRGNPWO2HLM07","A3PRQ2GSU42718","3SA4EMRVJVOCGON1OYE6FAUV3AFP0G","","null","<img src=""img/animal3.png"" style=""width:200px;border:14px solid red;"">","null","","","","","",""
"","image-keyboard-response","283","363727","0.0-283.0","3HRMW88U17C8H5OINKRGNPWO2HLM07","A3PRQ2GSU42718","3SA4EMRVJVOCGON1OYE6FAUV3AFP0G","","1739","img/animal4.png","75","1739","2","1","3","0.7,0,0.8,0.7,0.8,0,0.7,0.8,0",""
"","html-keyboard-response","284","364040","0.0-284.0","3HRMW88U17C8H5OINKRGNPWO2HLM07","A3PRQ2GSU42718","3SA4EMRVJVOCGON1OYE6FAUV3AFP0G","","null","<img src=""img/animal4.png"" style=""width:200px; border:14px solid green;"">","null","","","","","",""
"","image-keyboard-response","285","364819","0.0-285.0","3HRMW88U17C8H5OINKRGNPWO2HLM07","A3PRQ2GSU42718","3SA4EMRVJVOCGON1OYE6FAUV3AFP0G","","779","img/animal4.png","75","780","2","1","3","0.7,0,0.8,0.7,0.8,0,0.7,0.8,0",""
"","html-keyboard-response","286","365128","0.0-286.0","3HRMW88U17C8H5OINKRGNPWO2HLM07","A3PRQ2GSU42718","3SA4EMRVJVOCGON1OYE6FAUV3AFP0G","","null","<img src=""img/animal4.png"" style=""width:200px; border:14px solid green;"">","null","","","","","",""
"","image-keyboard-response","287","365889","0.0-287.0","3HRMW88U17C8H5OINKRGNPWO2HLM07","A3PRQ2GSU42718","3SA4EMRVJVOCGON1OYE6FAUV3AFP0G","","761","img/animal3.png","74","762","1","1","2","0.7,0,0.8,0.7,0.8,0,0.7,0.8,0",""
"","html-keyboard-response","288","366200","0.0-288.0","3HRMW88U17C8H5OINKRGNPWO2HLM07","A3PRQ2GSU42718","3SA4EMRVJVOCGON1OYE6FAUV3AFP0G","","null","<img src=""img/animal3.png"" style=""width:200px; border:14px solid green;"">","null","","","","","",""
"","image-keyboard-response","289","367148","0.0-289.0","3HRMW88U17C8H5OINKRGNPWO2HLM07","A3PRQ2GSU42718","3SA4EMRVJVOCGON1OYE6FAUV3AFP0G","","947","img/animal4.png","75","947","2","1","3","0.7,0,0.8,0.7,0.8,0,0.7,0.8,0",""
"","html-keyboard-response","290","367452","0.0-290.0","3HRMW88U17C8H5OINKRGNPWO2HLM07","A3PRQ2GSU42718","3SA4EMRVJVOCGON1OYE6FAUV3AFP0G","","null","<img src=""img/animal4.png"" style=""width:200px; border:14px solid green;"">","null","","","","","",""
"","image-keyboard-response","291","368038","0.0-291.0","3HRMW88U17C8H5OINKRGNPWO2HLM07","A3PRQ2GSU42718","3SA4EMRVJVOCGON1OYE6FAUV3AFP0G","","585","img/animal4.png","75","587","2","1","3","0.7,0,0.8,0.7,0.8,0,0.7,0.8,0",""
"","html-keyboard-response","292","368354","0.0-292.0","3HRMW88U17C8H5OINKRGNPWO2HLM07","A3PRQ2GSU42718","3SA4EMRVJVOCGON1OYE6FAUV3AFP0G","","null","<img src=""img/animal4.png"" style=""width:200px; border:14px solid green;"">","null","","","","","",""
"","image-keyboard-response","293","368986","0.0-293.0","3HRMW88U17C8H5OINKRGNPWO2HLM07","A3PRQ2GSU42718","3SA4EMRVJVOCGON1OYE6FAUV3AFP0G","","633","img/animal4.png","75","634","2","1","3","0.7,0,0.8,0.7,0.8,0,0.7,0.8,0",""
"","html-keyboard-response","294","369288","0.0-294.0","3HRMW88U17C8H5OINKRGNPWO2HLM07","A3PRQ2GSU42718","3SA4EMRVJVOCGON1OYE6FAUV3AFP0G","","null","<img src=""img/animal4.png"" style=""width:200px; border:14px solid green;"">","null","","","","","",""
"","image-keyboard-response","295","369936","0.0-295.0","3HRMW88U17C8H5OINKRGNPWO2HLM07","A3PRQ2GSU42718","3SA4EMRVJVOCGON1OYE6FAUV3AFP0G","","646","img/animal1.png","76","646","3","1","1","0.7,0,0.8,0.7,0.8,0,0.7,0.8,0",""
"","html-keyboard-response","296","370245","0.0-296.0","3HRMW88U17C8H5OINKRGNPWO2HLM07","A3PRQ2GSU42718","3SA4EMRVJVOCGON1OYE6FAUV3AFP0G","","null","<img src=""img/animal1.png"" style=""width:200px; border:14px solid green;"">","null","","","","","",""
"","image-keyboard-response","297","370715","0.0-297.0","3HRMW88U17C8H5OINKRGNPWO2HLM07","A3PRQ2GSU42718","3SA4EMRVJVOCGON1OYE6FAUV3AFP0G","","468","img/animal1.png","76","469","3","1","1","0.7,0,0.8,0.7,0.8,0,0.7,0.8,0",""
"","html-keyboard-response","298","371016","0.0-298.0","3HRMW88U17C8H5OINKRGNPWO2HLM07","A3PRQ2GSU42718","3SA4EMRVJVOCGON1OYE6FAUV3AFP0G","","null","<img src=""img/animal1.png"" style=""width:200px; border:14px solid green;"">","null","","","","","",""
"","image-keyboard-response","299","371754","0.0-299.0","3HRMW88U17C8H5OINKRGNPWO2HLM07","A3PRQ2GSU42718","3SA4EMRVJVOCGON1OYE6FAUV3AFP0G","","737","img/animal3.png","74","737","1","1","2","0.7,0,0.8,0.7,0.8,0,0.7,0.8,0",""
"","html-keyboard-response","300","372066","0.0-300.0","3HRMW88U17C8H5OINKRGNPWO2HLM07","A3PRQ2GSU42718","3SA4EMRVJVOCGON1OYE6FAUV3AFP0G","","null","<img src=""img/animal3.png"" style=""width:200px; border:14px solid green;"">","null","","","","","",""
"","image-keyboard-response","301","372640","0.0-301.0","3HRMW88U17C8H5OINKRGNPWO2HLM07","A3PRQ2GSU42718","3SA4EMRVJVOCGON1OYE6FAUV3AFP0G","","574","img/animal3.png","74","574","1","1","2","0.7,0,0.8,0.7,0.8,0,0.7,0.8,0",""
"","html-keyboard-response","302","372953","0.0-302.0","3HRMW88U17C8H5OINKRGNPWO2HLM07","A3PRQ2GSU42718","3SA4EMRVJVOCGON1OYE6FAUV3AFP0G","","null","<img src=""img/animal3.png"" style=""width:200px; border:14px solid green;"">","null","","","","","",""
"","image-keyboard-response","303","373763","0.0-303.0","3HRMW88U17C8H5OINKRGNPWO2HLM07","A3PRQ2GSU42718","3SA4EMRVJVOCGON1OYE6FAUV3AFP0G","","810","img/animal3.png","74","810","1","1","2","0.7,0,0.8,0.7,0.8,0,0.7,0.8,0",""
"","html-keyboard-response","304","374072","0.0-304.0","3HRMW88U17C8H5OINKRGNPWO2HLM07","A3PRQ2GSU42718","3SA4EMRVJVOCGON1OYE6FAUV3AFP0G","","null","<img src=""img/animal3.png"" style=""width:200px; border:14px solid green;"">","null","","","","","",""
"","image-keyboard-response","305","374536","0.0-305.0","3HRMW88U17C8H5OINKRGNPWO2HLM07","A3PRQ2GSU42718","3SA4EMRVJVOCGON1OYE6FAUV3AFP0G","","463","img/animal3.png","74","463","1","1","2","0.7,0,0.8,0.7,0.8,0,0.7,0.8,0",""
"","html-keyboard-response","306","374844","0.0-306.0","3HRMW88U17C8H5OINKRGNPWO2HLM07","A3PRQ2GSU42718","3SA4EMRVJVOCGON1OYE6FAUV3AFP0G","","null","<img src=""img/animal3.png"" style=""width:200px; border:14px solid green;"">","null","","","","","",""
"","image-keyboard-response","307","375319","0.0-307.0","3HRMW88U17C8H5OINKRGNPWO2HLM07","A3PRQ2GSU42718","3SA4EMRVJVOCGON1OYE6FAUV3AFP0G","","473","img/animal3.png","74","474","1","1","2","0.7,0,0.8,0.7,0.8,0,0.7,0.8,0",""
"","html-keyboard-response","308","375630","0.0-308.0","3HRMW88U17C8H5OINKRGNPWO2HLM07","A3PRQ2GSU42718","3SA4EMRVJVOCGON1OYE6FAUV3AFP0G","","null","<img src=""img/animal3.png"" style=""width:200px; border:14px solid green;"">","null","","","","","",""
"","image-keyboard-response","309","376143","0.0-309.0","3HRMW88U17C8H5OINKRGNPWO2HLM07","A3PRQ2GSU42718","3SA4EMRVJVOCGON1OYE6FAUV3AFP0G","","514","img/animal3.png","74","514","1","1","2","0.7,0,0.8,0.7,0.8,0,0.7,0.8,0",""
"","html-keyboard-response","310","376447","0.0-310.0","3HRMW88U17C8H5OINKRGNPWO2HLM07","A3PRQ2GSU42718","3SA4EMRVJVOCGON1OYE6FAUV3AFP0G","","null","<img src=""img/animal3.png"" style=""width:200px; border:14px solid green;"">","null","","","","","",""
"","image-keyboard-response","311","378389","0.0-311.0","3HRMW88U17C8H5OINKRGNPWO2HLM07","A3PRQ2GSU42718","3SA4EMRVJVOCGON1OYE6FAUV3AFP0G","","1940","img/animal4.png","75","1941","2","1","3","0.7,0,0.8,0.7,0.8,0,0.7,0.8,0",""
"","html-keyboard-response","312","378700","0.0-312.0","3HRMW88U17C8H5OINKRGNPWO2HLM07","A3PRQ2GSU42718","3SA4EMRVJVOCGON1OYE6FAUV3AFP0G","","null","<img src=""img/animal4.png"" style=""width:200px; border:14px solid green;"">","null","","","","","",""
"","image-keyboard-response","313","379167","0.0-313.0","3HRMW88U17C8H5OINKRGNPWO2HLM07","A3PRQ2GSU42718","3SA4EMRVJVOCGON1OYE6FAUV3AFP0G","","465","img/animal4.png","75","467","2","1","3","0.7,0,0.8,0.7,0.8,0,0.7,0.8,0",""
"","html-keyboard-response","314","379472","0.0-314.0","3HRMW88U17C8H5OINKRGNPWO2HLM07","A3PRQ2GSU42718","3SA4EMRVJVOCGON1OYE6FAUV3AFP0G","","null","<img src=""img/animal4.png"" style=""width:200px; border:14px solid green;"">","null","","","","","",""
"","image-keyboard-response","315","380253","0.0-315.0","3HRMW88U17C8H5OINKRGNPWO2HLM07","A3PRQ2GSU42718","3SA4EMRVJVOCGON1OYE6FAUV3AFP0G","","778","img/animal4.png","75","780","2","0","3","0.7,0,0.8,0.7,0.8,0,0.7,0.8,0",""
"","html-keyboard-response","316","380560","0.0-316.0","3HRMW88U17C8H5OINKRGNPWO2HLM07","A3PRQ2GSU42718","3SA4EMRVJVOCGON1OYE6FAUV3AFP0G","","null","<img src=""img/animal4.png"" style=""width:200px;border:14px solid red;"">","null","","","","","",""
"","image-keyboard-response","317","381222","0.0-317.0","3HRMW88U17C8H5OINKRGNPWO2HLM07","A3PRQ2GSU42718","3SA4EMRVJVOCGON1OYE6FAUV3AFP0G","","660","img/animal4.png","75","662","2","1","3","0.7,0,0.8,0.7,0.8,0,0.7,0.8,0",""
"","html-keyboard-response","318","381526","0.0-318.0","3HRMW88U17C8H5OINKRGNPWO2HLM07","A3PRQ2GSU42718","3SA4EMRVJVOCGON1OYE6FAUV3AFP0G","","null","<img src=""img/animal4.png"" style=""width:200px; border:14px solid green;"">","null","","","","","",""
"","image-keyboard-response","319","382106","0.0-319.0","3HRMW88U17C8H5OINKRGNPWO2HLM07","A3PRQ2GSU42718","3SA4EMRVJVOCGON1OYE6FAUV3AFP0G","","579","img/animal1.png","76","580","3","1","1","0.7,0,0.8,0.7,0.8,0,0.7,0.8,0",""
"","html-keyboard-response","320","382413","0.0-320.0","3HRMW88U17C8H5OINKRGNPWO2HLM07","A3PRQ2GSU42718","3SA4EMRVJVOCGON1OYE6FAUV3AFP0G","","null","<img src=""img/animal1.png"" style=""width:200px; border:14px solid green;"">","null","","","","","",""
"","image-keyboard-response","321","382854","0.0-321.0","3HRMW88U17C8H5OINKRGNPWO2HLM07","A3PRQ2GSU42718","3SA4EMRVJVOCGON1OYE6FAUV3AFP0G","","439","img/animal1.png","76","440","3","0","1","0.7,0,0.8,0.7,0.8,0,0.7,0.8,0",""
"","html-keyboard-response","322","383169","0.0-322.0","3HRMW88U17C8H5OINKRGNPWO2HLM07","A3PRQ2GSU42718","3SA4EMRVJVOCGON1OYE6FAUV3AFP0G","","null","<img src=""img/animal1.png"" style=""width:200px;border:14px solid red;"">","null","","","","","",""
"","image-keyboard-response","323","383914","0.0-323.0","3HRMW88U17C8H5OINKRGNPWO2HLM07","A3PRQ2GSU42718","3SA4EMRVJVOCGON1OYE6FAUV3AFP0G","","744","img/animal3.png","74","744","1","1","2","0.7,0,0.8,0.7,0.8,0,0.7,0.8,0",""
"","html-keyboard-response","324","384219","0.0-324.0","3HRMW88U17C8H5OINKRGNPWO2HLM07","A3PRQ2GSU42718","3SA4EMRVJVOCGON1OYE6FAUV3AFP0G","","null","<img src=""img/animal3.png"" style=""width:200px; border:14px solid green;"">","null","","","","","",""
"","image-keyboard-response","325","385176","0.0-325.0","3HRMW88U17C8H5OINKRGNPWO2HLM07","A3PRQ2GSU42718","3SA4EMRVJVOCGON1OYE6FAUV3AFP0G","","956","img/animal1.png","76","957","3","1","1","0.7,0,0.8,0.7,0.8,0,0.7,0.8,0",""
"","html-keyboard-response","326","385492","0.0-326.0","3HRMW88U17C8H5OINKRGNPWO2HLM07","A3PRQ2GSU42718","3SA4EMRVJVOCGON1OYE6FAUV3AFP0G","","null","<img src=""img/animal1.png"" style=""width:200px; border:14px solid green;"">","null","","","","","",""
"","image-keyboard-response","327","386066","0.0-327.0","3HRMW88U17C8H5OINKRGNPWO2HLM07","A3PRQ2GSU42718","3SA4EMRVJVOCGON1OYE6FAUV3AFP0G","","573","img/animal1.png","76","574","3","1","1","0.7,0,0.8,0.7,0.8,0,0.7,0.8,0",""
"","html-keyboard-response","328","386379","0.0-328.0","3HRMW88U17C8H5OINKRGNPWO2HLM07","A3PRQ2GSU42718","3SA4EMRVJVOCGON1OYE6FAUV3AFP0G","","null","<img src=""img/animal1.png"" style=""width:200px; border:14px solid green;"">","null","","","","","",""
"","image-keyboard-response","329","387955","0.0-329.0","3HRMW88U17C8H5OINKRGNPWO2HLM07","A3PRQ2GSU42718","3SA4EMRVJVOCGON1OYE6FAUV3AFP0G","","1574","img/animal1.png","76","1576","3","0","1","0.7,0,0.8,0.7,0.8,0,0.7,0.8,0",""
"","html-keyboard-response","330","388271","0.0-330.0","3HRMW88U17C8H5OINKRGNPWO2HLM07","A3PRQ2GSU42718","3SA4EMRVJVOCGON1OYE6FAUV3AFP0G","","null","<img src=""img/animal1.png"" style=""width:200px;border:14px solid red;"">","null","","","","","",""
"","image-keyboard-response","331","388947","0.0-331.0","3HRMW88U17C8H5OINKRGNPWO2HLM07","A3PRQ2GSU42718","3SA4EMRVJVOCGON1OYE6FAUV3AFP0G","","675","img/animal3.png","74","675","1","1","2","0.7,0,0.8,0.7,0.8,0,0.7,0.8,0",""
"","html-keyboard-response","332","389252","0.0-332.0","3HRMW88U17C8H5OINKRGNPWO2HLM07","A3PRQ2GSU42718","3SA4EMRVJVOCGON1OYE6FAUV3AFP0G","","null","<img src=""img/animal3.png"" style=""width:200px; border:14px solid green;"">","null","","","","","",""
"","image-keyboard-response","333","389986","0.0-333.0","3HRMW88U17C8H5OINKRGNPWO2HLM07","A3PRQ2GSU42718","3SA4EMRVJVOCGON1OYE6FAUV3AFP0G","","734","img/animal4.png","75","735","2","1","3","0.7,0,0.8,0.7,0.8,0,0.7,0.8,0",""
"","html-keyboard-response","334","390293","0.0-334.0","3HRMW88U17C8H5OINKRGNPWO2HLM07","A3PRQ2GSU42718","3SA4EMRVJVOCGON1OYE6FAUV3AFP0G","","null","<img src=""img/animal4.png"" style=""width:200px; border:14px solid green;"">","null","","","","","",""
"","image-keyboard-response","335","391146","0.0-335.0","3HRMW88U17C8H5OINKRGNPWO2HLM07","A3PRQ2GSU42718","3SA4EMRVJVOCGON1OYE6FAUV3AFP0G","","853","img/animal1.png","76","853","3","1","1","0.7,0,0.8,0.7,0.8,0,0.7,0.8,0",""
"","html-keyboard-response","336","391458","0.0-336.0","3HRMW88U17C8H5OINKRGNPWO2HLM07","A3PRQ2GSU42718","3SA4EMRVJVOCGON1OYE6FAUV3AFP0G","","null","<img src=""img/animal1.png"" style=""width:200px; border:14px solid green;"">","null","","","","","",""
"","image-keyboard-response","337","392065","0.0-337.0","3HRMW88U17C8H5OINKRGNPWO2HLM07","A3PRQ2GSU42718","3SA4EMRVJVOCGON1OYE6FAUV3AFP0G","","605","img/animal1.png","76","607","3","1","1","0.7,0,0.8,0.7,0.8,0,0.7,0.8,0",""
"","html-keyboard-response","338","392384","0.0-338.0","3HRMW88U17C8H5OINKRGNPWO2HLM07","A3PRQ2GSU42718","3SA4EMRVJVOCGON1OYE6FAUV3AFP0G","","null","<img src=""img/animal1.png"" style=""width:200px; border:14px solid green;"">","null","","","","","",""
"","image-keyboard-response","339","393145","0.0-339.0","3HRMW88U17C8H5OINKRGNPWO2HLM07","A3PRQ2GSU42718","3SA4EMRVJVOCGON1OYE6FAUV3AFP0G","","759","img/animal3.png","74","760","1","1","2","0.7,0,0.8,0.7,0.8,0,0.7,0.8,0",""
"","html-keyboard-response","340","393448","0.0-340.0","3HRMW88U17C8H5OINKRGNPWO2HLM07","A3PRQ2GSU42718","3SA4EMRVJVOCGON1OYE6FAUV3AFP0G","","null","<img src=""img/animal3.png"" style=""width:200px; border:14px solid green;"">","null","","","","","",""
"","image-keyboard-response","341","394354","0.0-341.0","3HRMW88U17C8H5OINKRGNPWO2HLM07","A3PRQ2GSU42718","3SA4EMRVJVOCGON1OYE6FAUV3AFP0G","","904","img/animal4.png","75","905","2","1","3","0.7,0,0.8,0.7,0.8,0,0.7,0.8,0",""
"","html-keyboard-response","342","394668","0.0-342.0","3HRMW88U17C8H5OINKRGNPWO2HLM07","A3PRQ2GSU42718","3SA4EMRVJVOCGON1OYE6FAUV3AFP0G","","null","<img src=""img/animal4.png"" style=""width:200px; border:14px solid green;"">","null","","","","","",""
"","image-keyboard-response","343","395180","0.0-343.0","3HRMW88U17C8H5OINKRGNPWO2HLM07","A3PRQ2GSU42718","3SA4EMRVJVOCGON1OYE6FAUV3AFP0G","","510","img/animal4.png","75","511","2","0","3","0.7,0,0.8,0.7,0.8,0,0.7,0.8,0",""
"","html-keyboard-response","344","395494","0.0-344.0","3HRMW88U17C8H5OINKRGNPWO2HLM07","A3PRQ2GSU42718","3SA4EMRVJVOCGON1OYE6FAUV3AFP0G","","null","<img src=""img/animal4.png"" style=""width:200px;border:14px solid red;"">","null","","","","","",""
"","image-keyboard-response","345","396183","0.0-345.0","3HRMW88U17C8H5OINKRGNPWO2HLM07","A3PRQ2GSU42718","3SA4EMRVJVOCGON1OYE6FAUV3AFP0G","","689","img/animal4.png","75","689","2","1","3","0.7,0,0.8,0.7,0.8,0,0.7,0.8,0",""
"","html-keyboard-response","346","396496","0.0-346.0","3HRMW88U17C8H5OINKRGNPWO2HLM07","A3PRQ2GSU42718","3SA4EMRVJVOCGON1OYE6FAUV3AFP0G","","null","<img src=""img/animal4.png"" style=""width:200px; border:14px solid green;"">","null","","","","","",""
"","image-keyboard-response","347","397631","0.0-347.0","3HRMW88U17C8H5OINKRGNPWO2HLM07","A3PRQ2GSU42718","3SA4EMRVJVOCGON1OYE6FAUV3AFP0G","","1134","img/animal3.png","74","1135","1","1","2","0.7,0,0.8,0.7,0.8,0,0.7,0.8,0",""
"","html-keyboard-response","348","397931","0.0-348.0","3HRMW88U17C8H5OINKRGNPWO2HLM07","A3PRQ2GSU42718","3SA4EMRVJVOCGON1OYE6FAUV3AFP0G","","null","<img src=""img/animal3.png"" style=""width:200px; border:14px solid green;"">","null","","","","","",""
"","image-keyboard-response","349","399236","0.0-349.0","3HRMW88U17C8H5OINKRGNPWO2HLM07","A3PRQ2GSU42718","3SA4EMRVJVOCGON1OYE6FAUV3AFP0G","","1304","img/animal4.png","75","1305","2","1","3","0.7,0,0.8,0.7,0.8,0,0.7,0.8,0",""
"","html-keyboard-response","350","399553","0.0-350.0","3HRMW88U17C8H5OINKRGNPWO2HLM07","A3PRQ2GSU42718","3SA4EMRVJVOCGON1OYE6FAUV3AFP0G","","null","<img src=""img/animal4.png"" style=""width:200px; border:14px solid green;"">","null","","","","","",""
"","image-keyboard-response","351","400786","0.0-351.0","3HRMW88U17C8H5OINKRGNPWO2HLM07","A3PRQ2GSU42718","3SA4EMRVJVOCGON1OYE6FAUV3AFP0G","","1232","img/animal3.png","74","1232","1","0","2","0.7,0,0.8,0.7,0.8,0,0.7,0.8,0",""
"","html-keyboard-response","352","401089","0.0-352.0","3HRMW88U17C8H5OINKRGNPWO2HLM07","A3PRQ2GSU42718","3SA4EMRVJVOCGON1OYE6FAUV3AFP0G","","null","<img src=""img/animal3.png"" style=""width:200px;border:14px solid red;"">","null","","","","","",""
"","image-keyboard-response","353","401817","0.0-353.0","3HRMW88U17C8H5OINKRGNPWO2HLM07","A3PRQ2GSU42718","3SA4EMRVJVOCGON1OYE6FAUV3AFP0G","","727","img/animal1.png","76","727","3","0","1","0.7,0,0.8,0.7,0.8,0,0.7,0.8,0",""
"","html-keyboard-response","354","402146","0.0-354.0","3HRMW88U17C8H5OINKRGNPWO2HLM07","A3PRQ2GSU42718","3SA4EMRVJVOCGON1OYE6FAUV3AFP0G","","null","<img src=""img/animal1.png"" style=""width:200px;border:14px solid red;"">","null","","","","","",""
"","image-keyboard-response","355","402758","0.0-355.0","3HRMW88U17C8H5OINKRGNPWO2HLM07","A3PRQ2GSU42718","3SA4EMRVJVOCGON1OYE6FAUV3AFP0G","","611","img/animal1.png","76","612","3","1","1","0.7,0,0.8,0.7,0.8,0,0.7,0.8,0",""
"","html-keyboard-response","356","403065","0.0-356.0","3HRMW88U17C8H5OINKRGNPWO2HLM07","A3PRQ2GSU42718","3SA4EMRVJVOCGON1OYE6FAUV3AFP0G","","null","<img src=""img/animal1.png"" style=""width:200px; border:14px solid green;"">","null","","","","","",""
"","image-keyboard-response","357","403604","0.0-357.0","3HRMW88U17C8H5OINKRGNPWO2HLM07","A3PRQ2GSU42718","3SA4EMRVJVOCGON1OYE6FAUV3AFP0G","","539","img/animal1.png","76","539","3","1","1","0.7,0,0.8,0.7,0.8,0,0.7,0.8,0",""
"","html-keyboard-response","358","403921","0.0-358.0","3HRMW88U17C8H5OINKRGNPWO2HLM07","A3PRQ2GSU42718","3SA4EMRVJVOCGON1OYE6FAUV3AFP0G","","null","<img src=""img/animal1.png"" style=""width:200px; border:14px solid green;"">","null","","","","","",""
"","image-keyboard-response","359","404881","0.0-359.0","3HRMW88U17C8H5OINKRGNPWO2HLM07","A3PRQ2GSU42718","3SA4EMRVJVOCGON1OYE6FAUV3AFP0G","","959","img/animal3.png","74","960","1","1","2","0.7,0,0.8,0.7,0.8,0,0.7,0.8,0",""
"","html-keyboard-response","360","405188","0.0-360.0","3HRMW88U17C8H5OINKRGNPWO2HLM07","A3PRQ2GSU42718","3SA4EMRVJVOCGON1OYE6FAUV3AFP0G","","null","<img src=""img/animal3.png"" style=""width:200px; border:14px solid green;"">","null","","","","","",""
"","image-keyboard-response","361","406958","0.0-361.0","3HRMW88U17C8H5OINKRGNPWO2HLM07","A3PRQ2GSU42718","3SA4EMRVJVOCGON1OYE6FAUV3AFP0G","","1770","img/animal1.png","76","1771","3","1","1","0.7,0,0.8,0.7,0.8,0,0.7,0.8,0",""
"","html-keyboard-response","362","407264","0.0-362.0","3HRMW88U17C8H5OINKRGNPWO2HLM07","A3PRQ2GSU42718","3SA4EMRVJVOCGON1OYE6FAUV3AFP0G","","null","<img src=""img/animal1.png"" style=""width:200px; border:14px solid green;"">","null","","","","","",""
"","instructions","363","437071","0.0-363.0","3HRMW88U17C8H5OINKRGNPWO2HLM07","A3PRQ2GSU42718","3SA4EMRVJVOCGON1OYE6FAUV3AFP0G","[{""page_index"":0,""viewing_time"":29807}]","29807","","","","","","","",""
"","survey-text","364","441584","0.0-364.0","3HRMW88U17C8H5OINKRGNPWO2HLM07","A3PRQ2GSU42718","3SA4EMRVJVOCGON1OYE6FAUV3AFP0G","","4510","","","","","","","","{""Q0"":""A3PRQ2GSU42718""}"
