"success","trial_type","trial_index","time_elapsed","internal_node_id","assignmentID","mturkID","hitID","view_history","rt","stimulus","key_press","reactionTime","a","r","s","reward_cond","responses"
"true","fullscreen","0","2491","0.0-0.0","3NGI5ARFTURE9X6DBJN8IY9TFPFP1B","A3ROADR7T6811","3VJ4PFXFJ3TL96TFXMATEMT7KJHUAI","","","","","","","","","",""
"","instructions","1","21820","0.0-1.0","3NGI5ARFTURE9X6DBJN8IY9TFPFP1B","A3ROADR7T6811","3VJ4PFXFJ3TL96TFXMATEMT7KJHUAI","[{""page_index"":0,""viewing_time"":5634},{""page_index"":1,""viewing_time"":1500},{""page_index"":2,""viewing_time"":1674},{""page_index"":3,""viewing_time"":1816},{""page_index"":4,""viewing_time"":1678},{""page_index"":5,""viewing_time"":2124},{""page_index"":6,""viewing_time"":3923},{""page_index"":7,""viewing_time"":976}]","19325","","","","","","","",""
"","image-keyboard-response","2","23871","0.0-2.0","3NGI5ARFTURE9X6DBJN8IY9TFPFP1B","A3ROADR7T6811","3VJ4PFXFJ3TL96TFXMATEMT7KJHUAI","","2049","img/animal6.png","76","2050","3","1","3","1,0.7,0,0,1,0.7,0.7,0,1",""
"","html-keyboard-response","3","24180","0.0-3.0","3NGI5ARFTURE9X6DBJN8IY9TFPFP1B","A3ROADR7T6811","3VJ4PFXFJ3TL96TFXMATEMT7KJHUAI","","null","<img src=""img/animal6.png"" style=""width:200px; border:14px solid green;"">","null","","","","","",""
"","image-keyboard-response","4","25359","0.0-4.0","3NGI5ARFTURE9X6DBJN8IY9TFPFP1B","A3ROADR7T6811","3VJ4PFXFJ3TL96TFXMATEMT7KJHUAI","","1179","img/animal5.png","75","1180","2","1","2","1,0.7,0,0,1,0.7,0.7,0,1",""
"","html-keyboard-response","5","25663","0.0-5.0","3NGI5ARFTURE9X6DBJN8IY9TFPFP1B","A3ROADR7T6811","3VJ4PFXFJ3TL96TFXMATEMT7KJHUAI","","null","<img src=""img/animal5.png"" style=""width:200px; border:14px solid green;"">","null","","","","","",""
"","image-keyboard-response","6","26372","0.0-6.0","3NGI5ARFTURE9X6DBJN8IY9TFPFP1B","A3ROADR7T6811","3VJ4PFXFJ3TL96TFXMATEMT7KJHUAI","","707","img/animal6.png","76","707","3","1","3","1,0.7,0,0,1,0.7,0.7,0,1",""
"","html-keyboard-response","7","26680","0.0-7.0","3NGI5ARFTURE9X6DBJN8IY9TFPFP1B","A3ROADR7T6811","3VJ4PFXFJ3TL96TFXMATEMT7KJHUAI","","null","<img src=""img/animal6.png"" style=""width:200px; border:14px solid green;"">","null","","","","","",""
"","image-keyboard-response","8","27129","0.0-8.0","3NGI5ARFTURE9X6DBJN8IY9TFPFP1B","A3ROADR7T6811","3VJ4PFXFJ3TL96TFXMATEMT7KJHUAI","","449","img/animal5.png","75","449","2","1","2","1,0.7,0,0,1,0.7,0.7,0,1",""
"","html-keyboard-response","9","27443","0.0-9.0","3NGI5ARFTURE9X6DBJN8IY9TFPFP1B","A3ROADR7T6811","3VJ4PFXFJ3TL96TFXMATEMT7KJHUAI","","null","<img src=""img/animal5.png"" style=""width:200px; border:14px solid green;"">","null","","","","","",""
"","image-keyboard-response","10","28139","0.0-10.0","3NGI5ARFTURE9X6DBJN8IY9TFPFP1B","A3ROADR7T6811","3VJ4PFXFJ3TL96TFXMATEMT7KJHUAI","","695","img/animal5.png","75","695","2","1","2","1,0.7,0,0,1,0.7,0.7,0,1",""
"","html-keyboard-response","11","28444","0.0-11.0","3NGI5ARFTURE9X6DBJN8IY9TFPFP1B","A3ROADR7T6811","3VJ4PFXFJ3TL96TFXMATEMT7KJHUAI","","null","<img src=""img/animal5.png"" style=""width:200px; border:14px solid green;"">","null","","","","","",""
"","image-keyboard-response","12","29251","0.0-12.0","3NGI5ARFTURE9X6DBJN8IY9TFPFP1B","A3ROADR7T6811","3VJ4PFXFJ3TL96TFXMATEMT7KJHUAI","","805","img/animal1.png","74","807","1","1","1","1,0.7,0,0,1,0.7,0.7,0,1",""
"","html-keyboard-response","13","29561","0.0-13.0","3NGI5ARFTURE9X6DBJN8IY9TFPFP1B","A3ROADR7T6811","3VJ4PFXFJ3TL96TFXMATEMT7KJHUAI","","null","<img src=""img/animal1.png"" style=""width:200px; border:14px solid green;"">","null","","","","","",""
"","image-keyboard-response","14","30251","0.0-14.0","3NGI5ARFTURE9X6DBJN8IY9TFPFP1B","A3ROADR7T6811","3VJ4PFXFJ3TL96TFXMATEMT7KJHUAI","","689","img/animal5.png","75","690","2","1","2","1,0.7,0,0,1,0.7,0.7,0,1",""
"","html-keyboard-response","15","30560","0.0-15.0","3NGI5ARFTURE9X6DBJN8IY9TFPFP1B","A3ROADR7T6811","3VJ4PFXFJ3TL96TFXMATEMT7KJHUAI","","null","<img src=""img/animal5.png"" style=""width:200px; border:14px solid green;"">","null","","","","","",""
"","image-keyboard-response","16","31279","0.0-16.0","3NGI5ARFTURE9X6DBJN8IY9TFPFP1B","A3ROADR7T6811","3VJ4PFXFJ3TL96TFXMATEMT7KJHUAI","","719","img/animal5.png","75","719","2","1","2","1,0.7,0,0,1,0.7,0.7,0,1",""
"","html-keyboard-response","17","31593","0.0-17.0","3NGI5ARFTURE9X6DBJN8IY9TFPFP1B","A3ROADR7T6811","3VJ4PFXFJ3TL96TFXMATEMT7KJHUAI","","null","<img src=""img/animal5.png"" style=""width:200px; border:14px solid green;"">","null","","","","","",""
"","image-keyboard-response","18","31990","0.0-18.0","3NGI5ARFTURE9X6DBJN8IY9TFPFP1B","A3ROADR7T6811","3VJ4PFXFJ3TL96TFXMATEMT7KJHUAI","","396","img/animal1.png","74","396","1","1","1","1,0.7,0,0,1,0.7,0.7,0,1",""
"","html-keyboard-response","19","32292","0.0-19.0","3NGI5ARFTURE9X6DBJN8IY9TFPFP1B","A3ROADR7T6811","3VJ4PFXFJ3TL96TFXMATEMT7KJHUAI","","null","<img src=""img/animal1.png"" style=""width:200px; border:14px solid green;"">","null","","","","","",""
"","image-keyboard-response","20","32911","0.0-20.0","3NGI5ARFTURE9X6DBJN8IY9TFPFP1B","A3ROADR7T6811","3VJ4PFXFJ3TL96TFXMATEMT7KJHUAI","","619","img/animal6.png","76","619","3","1","3","1,0.7,0,0,1,0.7,0.7,0,1",""
"","html-keyboard-response","21","33212","0.0-21.0","3NGI5ARFTURE9X6DBJN8IY9TFPFP1B","A3ROADR7T6811","3VJ4PFXFJ3TL96TFXMATEMT7KJHUAI","","null","<img src=""img/animal6.png"" style=""width:200px; border:14px solid green;"">","null","","","","","",""
"","image-keyboard-response","22","33668","0.0-22.0","3NGI5ARFTURE9X6DBJN8IY9TFPFP1B","A3ROADR7T6811","3VJ4PFXFJ3TL96TFXMATEMT7KJHUAI","","454","img/animal6.png","76","454","3","1","3","1,0.7,0,0,1,0.7,0.7,0,1",""
"","html-keyboard-response","23","33982","0.0-23.0","3NGI5ARFTURE9X6DBJN8IY9TFPFP1B","A3ROADR7T6811","3VJ4PFXFJ3TL96TFXMATEMT7KJHUAI","","null","<img src=""img/animal6.png"" style=""width:200px; border:14px solid green;"">","null","","","","","",""
"","image-keyboard-response","24","34348","0.0-24.0","3NGI5ARFTURE9X6DBJN8IY9TFPFP1B","A3ROADR7T6811","3VJ4PFXFJ3TL96TFXMATEMT7KJHUAI","","364","img/animal6.png","76","365","3","1","3","1,0.7,0,0,1,0.7,0.7,0,1",""
"","html-keyboard-response","25","34653","0.0-25.0","3NGI5ARFTURE9X6DBJN8IY9TFPFP1B","A3ROADR7T6811","3VJ4PFXFJ3TL96TFXMATEMT7KJHUAI","","null","<img src=""img/animal6.png"" style=""width:200px; border:14px solid green;"">","null","","","","","",""
"","image-keyboard-response","26","35004","0.0-26.0","3NGI5ARFTURE9X6DBJN8IY9TFPFP1B","A3ROADR7T6811","3VJ4PFXFJ3TL96TFXMATEMT7KJHUAI","","351","img/animal6.png","76","352","3","1","3","1,0.7,0,0,1,0.7,0.7,0,1",""
"","html-keyboard-response","27","35315","0.0-27.0","3NGI5ARFTURE9X6DBJN8IY9TFPFP1B","A3ROADR7T6811","3VJ4PFXFJ3TL96TFXMATEMT7KJHUAI","","null","<img src=""img/animal6.png"" style=""width:200px; border:14px solid green;"">","null","","","","","",""
"","image-keyboard-response","28","35720","0.0-28.0","3NGI5ARFTURE9X6DBJN8IY9TFPFP1B","A3ROADR7T6811","3VJ4PFXFJ3TL96TFXMATEMT7KJHUAI","","404","img/animal6.png","76","404","3","1","3","1,0.7,0,0,1,0.7,0.7,0,1",""
"","html-keyboard-response","29","36039","0.0-29.0","3NGI5ARFTURE9X6DBJN8IY9TFPFP1B","A3ROADR7T6811","3VJ4PFXFJ3TL96TFXMATEMT7KJHUAI","","null","<img src=""img/animal6.png"" style=""width:200px; border:14px solid green;"">","null","","","","","",""
"","image-keyboard-response","30","36612","0.0-30.0","3NGI5ARFTURE9X6DBJN8IY9TFPFP1B","A3ROADR7T6811","3VJ4PFXFJ3TL96TFXMATEMT7KJHUAI","","571","img/animal1.png","74","571","1","1","1","1,0.7,0,0,1,0.7,0.7,0,1",""
"","html-keyboard-response","31","36919","0.0-31.0","3NGI5ARFTURE9X6DBJN8IY9TFPFP1B","A3ROADR7T6811","3VJ4PFXFJ3TL96TFXMATEMT7KJHUAI","","null","<img src=""img/animal1.png"" style=""width:200px; border:14px solid green;"">","null","","","","","",""
"","image-keyboard-response","32","37249","0.0-32.0","3NGI5ARFTURE9X6DBJN8IY9TFPFP1B","A3ROADR7T6811","3VJ4PFXFJ3TL96TFXMATEMT7KJHUAI","","330","img/animal1.png","74","330","1","1","1","1,0.7,0,0,1,0.7,0.7,0,1",""
"","html-keyboard-response","33","37558","0.0-33.0","3NGI5ARFTURE9X6DBJN8IY9TFPFP1B","A3ROADR7T6811","3VJ4PFXFJ3TL96TFXMATEMT7KJHUAI","","null","<img src=""img/animal1.png"" style=""width:200px; border:14px solid green;"">","null","","","","","",""
"","image-keyboard-response","34","37867","0.0-34.0","3NGI5ARFTURE9X6DBJN8IY9TFPFP1B","A3ROADR7T6811","3VJ4PFXFJ3TL96TFXMATEMT7KJHUAI","","309","img/animal1.png","74","310","1","1","1","1,0.7,0,0,1,0.7,0.7,0,1",""
"","html-keyboard-response","35","38174","0.0-35.0","3NGI5ARFTURE9X6DBJN8IY9TFPFP1B","A3ROADR7T6811","3VJ4PFXFJ3TL96TFXMATEMT7KJHUAI","","null","<img src=""img/animal1.png"" style=""width:200px; border:14px solid green;"">","null","","","","","",""
"","image-keyboard-response","36","38614","0.0-36.0","3NGI5ARFTURE9X6DBJN8IY9TFPFP1B","A3ROADR7T6811","3VJ4PFXFJ3TL96TFXMATEMT7KJHUAI","","439","img/animal5.png","75","439","2","1","2","1,0.7,0,0,1,0.7,0.7,0,1",""
"","html-keyboard-response","37","38921","0.0-37.0","3NGI5ARFTURE9X6DBJN8IY9TFPFP1B","A3ROADR7T6811","3VJ4PFXFJ3TL96TFXMATEMT7KJHUAI","","null","<img src=""img/animal5.png"" style=""width:200px; border:14px solid green;"">","null","","","","","",""
"","image-keyboard-response","38","39495","0.0-38.0","3NGI5ARFTURE9X6DBJN8IY9TFPFP1B","A3ROADR7T6811","3VJ4PFXFJ3TL96TFXMATEMT7KJHUAI","","574","img/animal6.png","76","574","3","1","3","1,0.7,0,0,1,0.7,0.7,0,1",""
"","html-keyboard-response","39","39808","0.0-39.0","3NGI5ARFTURE9X6DBJN8IY9TFPFP1B","A3ROADR7T6811","3VJ4PFXFJ3TL96TFXMATEMT7KJHUAI","","null","<img src=""img/animal6.png"" style=""width:200px; border:14px solid green;"">","null","","","","","",""
"","image-keyboard-response","40","40122","0.0-40.0","3NGI5ARFTURE9X6DBJN8IY9TFPFP1B","A3ROADR7T6811","3VJ4PFXFJ3TL96TFXMATEMT7KJHUAI","","313","img/animal5.png","76","314","3","1","2","1,0.7,0,0,1,0.7,0.7,0,1",""
"","html-keyboard-response","41","40424","0.0-41.0","3NGI5ARFTURE9X6DBJN8IY9TFPFP1B","A3ROADR7T6811","3VJ4PFXFJ3TL96TFXMATEMT7KJHUAI","","null","<img src=""img/animal5.png"" style=""width:200px; border:14px solid green;"">","null","","","","","",""
"","image-keyboard-response","42","41290","0.0-42.0","3NGI5ARFTURE9X6DBJN8IY9TFPFP1B","A3ROADR7T6811","3VJ4PFXFJ3TL96TFXMATEMT7KJHUAI","","866","img/animal6.png","75","866","2","0","3","1,0.7,0,0,1,0.7,0.7,0,1",""
"","html-keyboard-response","43","41595","0.0-43.0","3NGI5ARFTURE9X6DBJN8IY9TFPFP1B","A3ROADR7T6811","3VJ4PFXFJ3TL96TFXMATEMT7KJHUAI","","null","<img src=""img/animal6.png"" style=""width:200px;border:14px solid red;"">","null","","","","","",""
"","image-keyboard-response","44","42321","0.0-44.0","3NGI5ARFTURE9X6DBJN8IY9TFPFP1B","A3ROADR7T6811","3VJ4PFXFJ3TL96TFXMATEMT7KJHUAI","","726","img/animal6.png","74","726","1","1","3","1,0.7,0,0,1,0.7,0.7,0,1",""
"","html-keyboard-response","45","42627","0.0-45.0","3NGI5ARFTURE9X6DBJN8IY9TFPFP1B","A3ROADR7T6811","3VJ4PFXFJ3TL96TFXMATEMT7KJHUAI","","null","<img src=""img/animal6.png"" style=""width:200px; border:14px solid green;"">","null","","","","","",""
"","image-keyboard-response","46","43387","0.0-46.0","3NGI5ARFTURE9X6DBJN8IY9TFPFP1B","A3ROADR7T6811","3VJ4PFXFJ3TL96TFXMATEMT7KJHUAI","","760","img/animal5.png","75","761","2","1","2","1,0.7,0,0,1,0.7,0.7,0,1",""
"","html-keyboard-response","47","43697","0.0-47.0","3NGI5ARFTURE9X6DBJN8IY9TFPFP1B","A3ROADR7T6811","3VJ4PFXFJ3TL96TFXMATEMT7KJHUAI","","null","<img src=""img/animal5.png"" style=""width:200px; border:14px solid green;"">","null","","","","","",""
"","image-keyboard-response","48","44284","0.0-48.0","3NGI5ARFTURE9X6DBJN8IY9TFPFP1B","A3ROADR7T6811","3VJ4PFXFJ3TL96TFXMATEMT7KJHUAI","","586","img/animal5.png","75","587","2","1","2","1,0.7,0,0,1,0.7,0.7,0,1",""
"","html-keyboard-response","49","44598","0.0-49.0","3NGI5ARFTURE9X6DBJN8IY9TFPFP1B","A3ROADR7T6811","3VJ4PFXFJ3TL96TFXMATEMT7KJHUAI","","null","<img src=""img/animal5.png"" style=""width:200px; border:14px solid green;"">","null","","","","","",""
"","image-keyboard-response","50","44893","0.0-50.0","3NGI5ARFTURE9X6DBJN8IY9TFPFP1B","A3ROADR7T6811","3VJ4PFXFJ3TL96TFXMATEMT7KJHUAI","","294","img/animal5.png","75","295","2","1","2","1,0.7,0,0,1,0.7,0.7,0,1",""
"","html-keyboard-response","51","45200","0.0-51.0","3NGI5ARFTURE9X6DBJN8IY9TFPFP1B","A3ROADR7T6811","3VJ4PFXFJ3TL96TFXMATEMT7KJHUAI","","null","<img src=""img/animal5.png"" style=""width:200px; border:14px solid green;"">","null","","","","","",""
"","image-keyboard-response","52","46089","0.0-52.0","3NGI5ARFTURE9X6DBJN8IY9TFPFP1B","A3ROADR7T6811","3VJ4PFXFJ3TL96TFXMATEMT7KJHUAI","","888","img/animal1.png","74","889","1","1","1","1,0.7,0,0,1,0.7,0.7,0,1",""
"","html-keyboard-response","53","46403","0.0-53.0","3NGI5ARFTURE9X6DBJN8IY9TFPFP1B","A3ROADR7T6811","3VJ4PFXFJ3TL96TFXMATEMT7KJHUAI","","null","<img src=""img/animal1.png"" style=""width:200px; border:14px solid green;"">","null","","","","","",""
"","image-keyboard-response","54","47192","0.0-54.0","3NGI5ARFTURE9X6DBJN8IY9TFPFP1B","A3ROADR7T6811","3VJ4PFXFJ3TL96TFXMATEMT7KJHUAI","","787","img/animal6.png","76","789","3","1","3","1,0.7,0,0,1,0.7,0.7,0,1",""
"","html-keyboard-response","55","47502","0.0-55.0","3NGI5ARFTURE9X6DBJN8IY9TFPFP1B","A3ROADR7T6811","3VJ4PFXFJ3TL96TFXMATEMT7KJHUAI","","null","<img src=""img/animal6.png"" style=""width:200px; border:14px solid green;"">","null","","","","","",""
"","image-keyboard-response","56","47879","0.0-56.0","3NGI5ARFTURE9X6DBJN8IY9TFPFP1B","A3ROADR7T6811","3VJ4PFXFJ3TL96TFXMATEMT7KJHUAI","","374","img/animal6.png","76","375","3","1","3","1,0.7,0,0,1,0.7,0.7,0,1",""
"","html-keyboard-response","57","48187","0.0-57.0","3NGI5ARFTURE9X6DBJN8IY9TFPFP1B","A3ROADR7T6811","3VJ4PFXFJ3TL96TFXMATEMT7KJHUAI","","null","<img src=""img/animal6.png"" style=""width:200px; border:14px solid green;"">","null","","","","","",""
"","image-keyboard-response","58","48417","0.0-58.0","3NGI5ARFTURE9X6DBJN8IY9TFPFP1B","A3ROADR7T6811","3VJ4PFXFJ3TL96TFXMATEMT7KJHUAI","","229","img/animal5.png","76","230","3","0","2","1,0.7,0,0,1,0.7,0.7,0,1",""
"","html-keyboard-response","59","48720","0.0-59.0","3NGI5ARFTURE9X6DBJN8IY9TFPFP1B","A3ROADR7T6811","3VJ4PFXFJ3TL96TFXMATEMT7KJHUAI","","null","<img src=""img/animal5.png"" style=""width:200px;border:14px solid red;"">","null","","","","","",""
"","image-keyboard-response","60","49918","0.0-60.0","3NGI5ARFTURE9X6DBJN8IY9TFPFP1B","A3ROADR7T6811","3VJ4PFXFJ3TL96TFXMATEMT7KJHUAI","","1198","img/animal1.png","74","1199","1","1","1","1,0.7,0,0,1,0.7,0.7,0,1",""
"","html-keyboard-response","61","50221","0.0-61.0","3NGI5ARFTURE9X6DBJN8IY9TFPFP1B","A3ROADR7T6811","3VJ4PFXFJ3TL96TFXMATEMT7KJHUAI","","null","<img src=""img/animal1.png"" style=""width:200px; border:14px solid green;"">","null","","","","","",""
"","image-keyboard-response","62","50545","0.0-62.0","3NGI5ARFTURE9X6DBJN8IY9TFPFP1B","A3ROADR7T6811","3VJ4PFXFJ3TL96TFXMATEMT7KJHUAI","","323","img/animal1.png","74","323","1","1","1","1,0.7,0,0,1,0.7,0.7,0,1",""
"","html-keyboard-response","63","50860","0.0-63.0","3NGI5ARFTURE9X6DBJN8IY9TFPFP1B","A3ROADR7T6811","3VJ4PFXFJ3TL96TFXMATEMT7KJHUAI","","null","<img src=""img/animal1.png"" style=""width:200px; border:14px solid green;"">","null","","","","","",""
"","image-keyboard-response","64","51097","0.0-64.0","3NGI5ARFTURE9X6DBJN8IY9TFPFP1B","A3ROADR7T6811","3VJ4PFXFJ3TL96TFXMATEMT7KJHUAI","","236","img/animal5.png","74","237","1","0","2","1,0.7,0,0,1,0.7,0.7,0,1",""
"","html-keyboard-response","65","51408","0.0-65.0","3NGI5ARFTURE9X6DBJN8IY9TFPFP1B","A3ROADR7T6811","3VJ4PFXFJ3TL96TFXMATEMT7KJHUAI","","null","<img src=""img/animal5.png"" style=""width:200px;border:14px solid red;"">","null","","","","","",""
"","image-keyboard-response","66","52129","0.0-66.0","3NGI5ARFTURE9X6DBJN8IY9TFPFP1B","A3ROADR7T6811","3VJ4PFXFJ3TL96TFXMATEMT7KJHUAI","","720","img/animal6.png","76","720","3","1","3","1,0.7,0,0,1,0.7,0.7,0,1",""
"","html-keyboard-response","67","52440","0.0-67.0","3NGI5ARFTURE9X6DBJN8IY9TFPFP1B","A3ROADR7T6811","3VJ4PFXFJ3TL96TFXMATEMT7KJHUAI","","null","<img src=""img/animal6.png"" style=""width:200px; border:14px solid green;"">","null","","","","","",""
"","image-keyboard-response","68","53040","0.0-68.0","3NGI5ARFTURE9X6DBJN8IY9TFPFP1B","A3ROADR7T6811","3VJ4PFXFJ3TL96TFXMATEMT7KJHUAI","","599","img/animal1.png","74","599","1","1","1","1,0.7,0,0,1,0.7,0.7,0,1",""
"","html-keyboard-response","69","53342","0.0-69.0","3NGI5ARFTURE9X6DBJN8IY9TFPFP1B","A3ROADR7T6811","3VJ4PFXFJ3TL96TFXMATEMT7KJHUAI","","null","<img src=""img/animal1.png"" style=""width:200px; border:14px solid green;"">","null","","","","","",""
"","image-keyboard-response","70","53806","0.0-70.0","3NGI5ARFTURE9X6DBJN8IY9TFPFP1B","A3ROADR7T6811","3VJ4PFXFJ3TL96TFXMATEMT7KJHUAI","","463","img/animal1.png","74","465","1","1","1","1,0.7,0,0,1,0.7,0.7,0,1",""
"","html-keyboard-response","71","54112","0.0-71.0","3NGI5ARFTURE9X6DBJN8IY9TFPFP1B","A3ROADR7T6811","3VJ4PFXFJ3TL96TFXMATEMT7KJHUAI","","null","<img src=""img/animal1.png"" style=""width:200px; border:14px solid green;"">","null","","","","","",""
"","image-keyboard-response","72","55020","0.0-72.0","3NGI5ARFTURE9X6DBJN8IY9TFPFP1B","A3ROADR7T6811","3VJ4PFXFJ3TL96TFXMATEMT7KJHUAI","","907","img/animal5.png","75","908","2","1","2","1,0.7,0,0,1,0.7,0.7,0,1",""
"","html-keyboard-response","73","55330","0.0-73.0","3NGI5ARFTURE9X6DBJN8IY9TFPFP1B","A3ROADR7T6811","3VJ4PFXFJ3TL96TFXMATEMT7KJHUAI","","null","<img src=""img/animal5.png"" style=""width:200px; border:14px solid green;"">","null","","","","","",""
"","image-keyboard-response","74","55867","0.0-74.0","3NGI5ARFTURE9X6DBJN8IY9TFPFP1B","A3ROADR7T6811","3VJ4PFXFJ3TL96TFXMATEMT7KJHUAI","","538","img/animal1.png","74","538","1","1","1","1,0.7,0,0,1,0.7,0.7,0,1",""
"","html-keyboard-response","75","56168","0.0-75.0","3NGI5ARFTURE9X6DBJN8IY9TFPFP1B","A3ROADR7T6811","3VJ4PFXFJ3TL96TFXMATEMT7KJHUAI","","null","<img src=""img/animal1.png"" style=""width:200px; border:14px solid green;"">","null","","","","","",""
"","image-keyboard-response","76","56657","0.0-76.0","3NGI5ARFTURE9X6DBJN8IY9TFPFP1B","A3ROADR7T6811","3VJ4PFXFJ3TL96TFXMATEMT7KJHUAI","","487","img/animal1.png","74","487","1","1","1","1,0.7,0,0,1,0.7,0.7,0,1",""
"","html-keyboard-response","77","56970","0.0-77.0","3NGI5ARFTURE9X6DBJN8IY9TFPFP1B","A3ROADR7T6811","3VJ4PFXFJ3TL96TFXMATEMT7KJHUAI","","null","<img src=""img/animal1.png"" style=""width:200px; border:14px solid green;"">","null","","","","","",""
"","image-keyboard-response","78","57437","0.0-78.0","3NGI5ARFTURE9X6DBJN8IY9TFPFP1B","A3ROADR7T6811","3VJ4PFXFJ3TL96TFXMATEMT7KJHUAI","","467","img/animal5.png","75","468","2","1","2","1,0.7,0,0,1,0.7,0.7,0,1",""
"","html-keyboard-response","79","57748","0.0-79.0","3NGI5ARFTURE9X6DBJN8IY9TFPFP1B","A3ROADR7T6811","3VJ4PFXFJ3TL96TFXMATEMT7KJHUAI","","null","<img src=""img/animal5.png"" style=""width:200px; border:14px solid green;"">","null","","","","","",""
"","image-keyboard-response","80","58510","0.0-80.0","3NGI5ARFTURE9X6DBJN8IY9TFPFP1B","A3ROADR7T6811","3VJ4PFXFJ3TL96TFXMATEMT7KJHUAI","","761","img/animal6.png","76","762","3","1","3","1,0.7,0,0,1,0.7,0.7,0,1",""
"","html-keyboard-response","81","58818","0.0-81.0","3NGI5ARFTURE9X6DBJN8IY9TFPFP1B","A3ROADR7T6811","3VJ4PFXFJ3TL96TFXMATEMT7KJHUAI","","null","<img src=""img/animal6.png"" style=""width:200px; border:14px solid green;"">","null","","","","","",""
"","image-keyboard-response","82","60210","0.0-82.0","3NGI5ARFTURE9X6DBJN8IY9TFPFP1B","A3ROADR7T6811","3VJ4PFXFJ3TL96TFXMATEMT7KJHUAI","","1391","img/animal5.png","75","1392","2","1","2","1,0.7,0,0,1,0.7,0.7,0,1",""
"","html-keyboard-response","83","60523","0.0-83.0","3NGI5ARFTURE9X6DBJN8IY9TFPFP1B","A3ROADR7T6811","3VJ4PFXFJ3TL96TFXMATEMT7KJHUAI","","null","<img src=""img/animal5.png"" style=""width:200px; border:14px solid green;"">","null","","","","","",""
"","image-keyboard-response","84","61055","0.0-84.0","3NGI5ARFTURE9X6DBJN8IY9TFPFP1B","A3ROADR7T6811","3VJ4PFXFJ3TL96TFXMATEMT7KJHUAI","","530","img/animal5.png","75","530","2","1","2","1,0.7,0,0,1,0.7,0.7,0,1",""
"","html-keyboard-response","85","61373","0.0-85.0","3NGI5ARFTURE9X6DBJN8IY9TFPFP1B","A3ROADR7T6811","3VJ4PFXFJ3TL96TFXMATEMT7KJHUAI","","null","<img src=""img/animal5.png"" style=""width:200px; border:14px solid green;"">","null","","","","","",""
"","image-keyboard-response","86","62035","0.0-86.0","3NGI5ARFTURE9X6DBJN8IY9TFPFP1B","A3ROADR7T6811","3VJ4PFXFJ3TL96TFXMATEMT7KJHUAI","","661","img/animal6.png","76","661","3","1","3","1,0.7,0,0,1,0.7,0.7,0,1",""
"","html-keyboard-response","87","62337","0.0-87.0","3NGI5ARFTURE9X6DBJN8IY9TFPFP1B","A3ROADR7T6811","3VJ4PFXFJ3TL96TFXMATEMT7KJHUAI","","null","<img src=""img/animal6.png"" style=""width:200px; border:14px solid green;"">","null","","","","","",""
"","image-keyboard-response","88","62892","0.0-88.0","3NGI5ARFTURE9X6DBJN8IY9TFPFP1B","A3ROADR7T6811","3VJ4PFXFJ3TL96TFXMATEMT7KJHUAI","","554","img/animal5.png","75","555","2","1","2","1,0.7,0,0,1,0.7,0.7,0,1",""
"","html-keyboard-response","89","63206","0.0-89.0","3NGI5ARFTURE9X6DBJN8IY9TFPFP1B","A3ROADR7T6811","3VJ4PFXFJ3TL96TFXMATEMT7KJHUAI","","null","<img src=""img/animal5.png"" style=""width:200px; border:14px solid green;"">","null","","","","","",""
"","image-keyboard-response","90","63812","0.0-90.0","3NGI5ARFTURE9X6DBJN8IY9TFPFP1B","A3ROADR7T6811","3VJ4PFXFJ3TL96TFXMATEMT7KJHUAI","","605","img/animal6.png","76","606","3","1","3","1,0.7,0,0,1,0.7,0.7,0,1",""
"","html-keyboard-response","91","64123","0.0-91.0","3NGI5ARFTURE9X6DBJN8IY9TFPFP1B","A3ROADR7T6811","3VJ4PFXFJ3TL96TFXMATEMT7KJHUAI","","null","<img src=""img/animal6.png"" style=""width:200px; border:14px solid green;"">","null","","","","","",""
"","image-keyboard-response","92","64554","0.0-92.0","3NGI5ARFTURE9X6DBJN8IY9TFPFP1B","A3ROADR7T6811","3VJ4PFXFJ3TL96TFXMATEMT7KJHUAI","","428","img/animal5.png","75","430","2","1","2","1,0.7,0,0,1,0.7,0.7,0,1",""
"","html-keyboard-response","93","64857","0.0-93.0","3NGI5ARFTURE9X6DBJN8IY9TFPFP1B","A3ROADR7T6811","3VJ4PFXFJ3TL96TFXMATEMT7KJHUAI","","null","<img src=""img/animal5.png"" style=""width:200px; border:14px solid green;"">","null","","","","","",""
"","image-keyboard-response","94","65350","0.0-94.0","3NGI5ARFTURE9X6DBJN8IY9TFPFP1B","A3ROADR7T6811","3VJ4PFXFJ3TL96TFXMATEMT7KJHUAI","","493","img/animal6.png","76","493","3","1","3","1,0.7,0,0,1,0.7,0.7,0,1",""
"","html-keyboard-response","95","65658","0.0-95.0","3NGI5ARFTURE9X6DBJN8IY9TFPFP1B","A3ROADR7T6811","3VJ4PFXFJ3TL96TFXMATEMT7KJHUAI","","null","<img src=""img/animal6.png"" style=""width:200px; border:14px solid green;"">","null","","","","","",""
"","image-keyboard-response","96","66212","0.0-96.0","3NGI5ARFTURE9X6DBJN8IY9TFPFP1B","A3ROADR7T6811","3VJ4PFXFJ3TL96TFXMATEMT7KJHUAI","","554","img/animal1.png","74","555","1","1","1","1,0.7,0,0,1,0.7,0.7,0,1",""
"","html-keyboard-response","97","66526","0.0-97.0","3NGI5ARFTURE9X6DBJN8IY9TFPFP1B","A3ROADR7T6811","3VJ4PFXFJ3TL96TFXMATEMT7KJHUAI","","null","<img src=""img/animal1.png"" style=""width:200px; border:14px solid green;"">","null","","","","","",""
"","image-keyboard-response","98","67285","0.0-98.0","3NGI5ARFTURE9X6DBJN8IY9TFPFP1B","A3ROADR7T6811","3VJ4PFXFJ3TL96TFXMATEMT7KJHUAI","","758","img/animal6.png","76","758","3","1","3","1,0.7,0,0,1,0.7,0.7,0,1",""
"","html-keyboard-response","99","67596","0.0-99.0","3NGI5ARFTURE9X6DBJN8IY9TFPFP1B","A3ROADR7T6811","3VJ4PFXFJ3TL96TFXMATEMT7KJHUAI","","null","<img src=""img/animal6.png"" style=""width:200px; border:14px solid green;"">","null","","","","","",""
"","image-keyboard-response","100","68123","0.0-100.0","3NGI5ARFTURE9X6DBJN8IY9TFPFP1B","A3ROADR7T6811","3VJ4PFXFJ3TL96TFXMATEMT7KJHUAI","","528","img/animal6.png","76","528","3","1","3","1,0.7,0,0,1,0.7,0.7,0,1",""
"","html-keyboard-response","101","68427","0.0-101.0","3NGI5ARFTURE9X6DBJN8IY9TFPFP1B","A3ROADR7T6811","3VJ4PFXFJ3TL96TFXMATEMT7KJHUAI","","null","<img src=""img/animal6.png"" style=""width:200px; border:14px solid green;"">","null","","","","","",""
"","image-keyboard-response","102","68850","0.0-102.0","3NGI5ARFTURE9X6DBJN8IY9TFPFP1B","A3ROADR7T6811","3VJ4PFXFJ3TL96TFXMATEMT7KJHUAI","","422","img/animal1.png","74","423","1","1","1","1,0.7,0,0,1,0.7,0.7,0,1",""
"","html-keyboard-response","103","69160","0.0-103.0","3NGI5ARFTURE9X6DBJN8IY9TFPFP1B","A3ROADR7T6811","3VJ4PFXFJ3TL96TFXMATEMT7KJHUAI","","null","<img src=""img/animal1.png"" style=""width:200px; border:14px solid green;"">","null","","","","","",""
"","image-keyboard-response","104","69932","0.0-104.0","3NGI5ARFTURE9X6DBJN8IY9TFPFP1B","A3ROADR7T6811","3VJ4PFXFJ3TL96TFXMATEMT7KJHUAI","","772","img/animal5.png","75","772","2","1","2","1,0.7,0,0,1,0.7,0.7,0,1",""
"","html-keyboard-response","105","70245","0.0-105.0","3NGI5ARFTURE9X6DBJN8IY9TFPFP1B","A3ROADR7T6811","3VJ4PFXFJ3TL96TFXMATEMT7KJHUAI","","null","<img src=""img/animal5.png"" style=""width:200px; border:14px solid green;"">","null","","","","","",""
"","image-keyboard-response","106","71415","0.0-106.0","3NGI5ARFTURE9X6DBJN8IY9TFPFP1B","A3ROADR7T6811","3VJ4PFXFJ3TL96TFXMATEMT7KJHUAI","","1168","img/animal1.png","74","1169","1","1","1","1,0.7,0,0,1,0.7,0.7,0,1",""
"","html-keyboard-response","107","71717","0.0-107.0","3NGI5ARFTURE9X6DBJN8IY9TFPFP1B","A3ROADR7T6811","3VJ4PFXFJ3TL96TFXMATEMT7KJHUAI","","null","<img src=""img/animal1.png"" style=""width:200px; border:14px solid green;"">","null","","","","","",""
"","image-keyboard-response","108","72566","0.0-108.0","3NGI5ARFTURE9X6DBJN8IY9TFPFP1B","A3ROADR7T6811","3VJ4PFXFJ3TL96TFXMATEMT7KJHUAI","","849","img/animal6.png","76","849","3","1","3","1,0.7,0,0,1,0.7,0.7,0,1",""
"","html-keyboard-response","109","72887","0.0-109.0","3NGI5ARFTURE9X6DBJN8IY9TFPFP1B","A3ROADR7T6811","3VJ4PFXFJ3TL96TFXMATEMT7KJHUAI","","null","<img src=""img/animal6.png"" style=""width:200px; border:14px solid green;"">","null","","","","","",""
"","image-keyboard-response","110","73283","0.0-110.0","3NGI5ARFTURE9X6DBJN8IY9TFPFP1B","A3ROADR7T6811","3VJ4PFXFJ3TL96TFXMATEMT7KJHUAI","","396","img/animal6.png","76","396","3","1","3","1,0.7,0,0,1,0.7,0.7,0,1",""
"","html-keyboard-response","111","73589","0.0-111.0","3NGI5ARFTURE9X6DBJN8IY9TFPFP1B","A3ROADR7T6811","3VJ4PFXFJ3TL96TFXMATEMT7KJHUAI","","null","<img src=""img/animal6.png"" style=""width:200px; border:14px solid green;"">","null","","","","","",""
"","image-keyboard-response","112","74461","0.0-112.0","3NGI5ARFTURE9X6DBJN8IY9TFPFP1B","A3ROADR7T6811","3VJ4PFXFJ3TL96TFXMATEMT7KJHUAI","","872","img/animal5.png","75","873","2","1","2","1,0.7,0,0,1,0.7,0.7,0,1",""
"","html-keyboard-response","113","74768","0.0-113.0","3NGI5ARFTURE9X6DBJN8IY9TFPFP1B","A3ROADR7T6811","3VJ4PFXFJ3TL96TFXMATEMT7KJHUAI","","null","<img src=""img/animal5.png"" style=""width:200px; border:14px solid green;"">","null","","","","","",""
"","image-keyboard-response","114","75402","0.0-114.0","3NGI5ARFTURE9X6DBJN8IY9TFPFP1B","A3ROADR7T6811","3VJ4PFXFJ3TL96TFXMATEMT7KJHUAI","","632","img/animal1.png","74","632","1","1","1","1,0.7,0,0,1,0.7,0.7,0,1",""
"","html-keyboard-response","115","75708","0.0-115.0","3NGI5ARFTURE9X6DBJN8IY9TFPFP1B","A3ROADR7T6811","3VJ4PFXFJ3TL96TFXMATEMT7KJHUAI","","null","<img src=""img/animal1.png"" style=""width:200px; border:14px solid green;"">","null","","","","","",""
"","image-keyboard-response","116","76913","0.0-116.0","3NGI5ARFTURE9X6DBJN8IY9TFPFP1B","A3ROADR7T6811","3VJ4PFXFJ3TL96TFXMATEMT7KJHUAI","","1205","img/animal6.png","76","1205","3","1","3","1,0.7,0,0,1,0.7,0.7,0,1",""
"","html-keyboard-response","117","77225","0.0-117.0","3NGI5ARFTURE9X6DBJN8IY9TFPFP1B","A3ROADR7T6811","3VJ4PFXFJ3TL96TFXMATEMT7KJHUAI","","null","<img src=""img/animal6.png"" style=""width:200px; border:14px solid green;"">","null","","","","","",""
"","image-keyboard-response","118","77593","0.0-118.0","3NGI5ARFTURE9X6DBJN8IY9TFPFP1B","A3ROADR7T6811","3VJ4PFXFJ3TL96TFXMATEMT7KJHUAI","","368","img/animal6.png","76","368","3","1","3","1,0.7,0,0,1,0.7,0.7,0,1",""
"","html-keyboard-response","119","77895","0.0-119.0","3NGI5ARFTURE9X6DBJN8IY9TFPFP1B","A3ROADR7T6811","3VJ4PFXFJ3TL96TFXMATEMT7KJHUAI","","null","<img src=""img/animal6.png"" style=""width:200px; border:14px solid green;"">","null","","","","","",""
"","image-keyboard-response","120","79745","0.0-120.0","3NGI5ARFTURE9X6DBJN8IY9TFPFP1B","A3ROADR7T6811","3VJ4PFXFJ3TL96TFXMATEMT7KJHUAI","","1850","img/animal5.png","75","1851","2","1","2","1,0.7,0,0,1,0.7,0.7,0,1",""
"","html-keyboard-response","121","80061","0.0-121.0","3NGI5ARFTURE9X6DBJN8IY9TFPFP1B","A3ROADR7T6811","3VJ4PFXFJ3TL96TFXMATEMT7KJHUAI","","null","<img src=""img/animal5.png"" style=""width:200px; border:14px solid green;"">","null","","","","","",""
"","image-keyboard-response","122","81438","0.0-122.0","3NGI5ARFTURE9X6DBJN8IY9TFPFP1B","A3ROADR7T6811","3VJ4PFXFJ3TL96TFXMATEMT7KJHUAI","","1376","img/animal6.png","76","1376","3","1","3","1,0.7,0,0,1,0.7,0.7,0,1",""
"","html-keyboard-response","123","81747","0.0-123.0","3NGI5ARFTURE9X6DBJN8IY9TFPFP1B","A3ROADR7T6811","3VJ4PFXFJ3TL96TFXMATEMT7KJHUAI","","null","<img src=""img/animal6.png"" style=""width:200px; border:14px solid green;"">","null","","","","","",""
"","image-keyboard-response","124","82350","0.0-124.0","3NGI5ARFTURE9X6DBJN8IY9TFPFP1B","A3ROADR7T6811","3VJ4PFXFJ3TL96TFXMATEMT7KJHUAI","","601","img/animal1.png","74","603","1","1","1","1,0.7,0,0,1,0.7,0.7,0,1",""
"","html-keyboard-response","125","82664","0.0-125.0","3NGI5ARFTURE9X6DBJN8IY9TFPFP1B","A3ROADR7T6811","3VJ4PFXFJ3TL96TFXMATEMT7KJHUAI","","null","<img src=""img/animal1.png"" style=""width:200px; border:14px solid green;"">","null","","","","","",""
"","image-keyboard-response","126","83099","0.0-126.0","3NGI5ARFTURE9X6DBJN8IY9TFPFP1B","A3ROADR7T6811","3VJ4PFXFJ3TL96TFXMATEMT7KJHUAI","","435","img/animal1.png","74","435","1","1","1","1,0.7,0,0,1,0.7,0.7,0,1",""
"","html-keyboard-response","127","83404","0.0-127.0","3NGI5ARFTURE9X6DBJN8IY9TFPFP1B","A3ROADR7T6811","3VJ4PFXFJ3TL96TFXMATEMT7KJHUAI","","null","<img src=""img/animal1.png"" style=""width:200px; border:14px solid green;"">","null","","","","","",""
"","image-keyboard-response","128","84702","0.0-128.0","3NGI5ARFTURE9X6DBJN8IY9TFPFP1B","A3ROADR7T6811","3VJ4PFXFJ3TL96TFXMATEMT7KJHUAI","","1296","img/animal6.png","76","1297","3","1","3","1,0.7,0,0,1,0.7,0.7,0,1",""
"","html-keyboard-response","129","85004","0.0-129.0","3NGI5ARFTURE9X6DBJN8IY9TFPFP1B","A3ROADR7T6811","3VJ4PFXFJ3TL96TFXMATEMT7KJHUAI","","null","<img src=""img/animal6.png"" style=""width:200px; border:14px solid green;"">","null","","","","","",""
"","image-keyboard-response","130","85653","0.0-130.0","3NGI5ARFTURE9X6DBJN8IY9TFPFP1B","A3ROADR7T6811","3VJ4PFXFJ3TL96TFXMATEMT7KJHUAI","","647","img/animal5.png","75","648","2","1","2","1,0.7,0,0,1,0.7,0.7,0,1",""
"","html-keyboard-response","131","85968","0.0-131.0","3NGI5ARFTURE9X6DBJN8IY9TFPFP1B","A3ROADR7T6811","3VJ4PFXFJ3TL96TFXMATEMT7KJHUAI","","null","<img src=""img/animal5.png"" style=""width:200px; border:14px solid green;"">","null","","","","","",""
"","image-keyboard-response","132","86512","0.0-132.0","3NGI5ARFTURE9X6DBJN8IY9TFPFP1B","A3ROADR7T6811","3VJ4PFXFJ3TL96TFXMATEMT7KJHUAI","","543","img/animal1.png","74","544","1","1","1","1,0.7,0,0,1,0.7,0.7,0,1",""
"","html-keyboard-response","133","86822","0.0-133.0","3NGI5ARFTURE9X6DBJN8IY9TFPFP1B","A3ROADR7T6811","3VJ4PFXFJ3TL96TFXMATEMT7KJHUAI","","null","<img src=""img/animal1.png"" style=""width:200px; border:14px solid green;"">","null","","","","","",""
"","image-keyboard-response","134","87442","0.0-134.0","3NGI5ARFTURE9X6DBJN8IY9TFPFP1B","A3ROADR7T6811","3VJ4PFXFJ3TL96TFXMATEMT7KJHUAI","","620","img/animal1.png","74","620","1","1","1","1,0.7,0,0,1,0.7,0.7,0,1",""
"","html-keyboard-response","135","87755","0.0-135.0","3NGI5ARFTURE9X6DBJN8IY9TFPFP1B","A3ROADR7T6811","3VJ4PFXFJ3TL96TFXMATEMT7KJHUAI","","null","<img src=""img/animal1.png"" style=""width:200px; border:14px solid green;"">","null","","","","","",""
"","image-keyboard-response","136","88060","0.0-136.0","3NGI5ARFTURE9X6DBJN8IY9TFPFP1B","A3ROADR7T6811","3VJ4PFXFJ3TL96TFXMATEMT7KJHUAI","","305","img/animal1.png","74","306","1","1","1","1,0.7,0,0,1,0.7,0.7,0,1",""
"","html-keyboard-response","137","88370","0.0-137.0","3NGI5ARFTURE9X6DBJN8IY9TFPFP1B","A3ROADR7T6811","3VJ4PFXFJ3TL96TFXMATEMT7KJHUAI","","null","<img src=""img/animal1.png"" style=""width:200px; border:14px solid green;"">","null","","","","","",""
"","image-keyboard-response","138","89030","0.0-138.0","3NGI5ARFTURE9X6DBJN8IY9TFPFP1B","A3ROADR7T6811","3VJ4PFXFJ3TL96TFXMATEMT7KJHUAI","","659","img/animal5.png","75","659","2","1","2","1,0.7,0,0,1,0.7,0.7,0,1",""
"","html-keyboard-response","139","89341","0.0-139.0","3NGI5ARFTURE9X6DBJN8IY9TFPFP1B","A3ROADR7T6811","3VJ4PFXFJ3TL96TFXMATEMT7KJHUAI","","null","<img src=""img/animal5.png"" style=""width:200px; border:14px solid green;"">","null","","","","","",""
"","image-keyboard-response","140","89780","0.0-140.0","3NGI5ARFTURE9X6DBJN8IY9TFPFP1B","A3ROADR7T6811","3VJ4PFXFJ3TL96TFXMATEMT7KJHUAI","","437","img/animal1.png","74","438","1","1","1","1,0.7,0,0,1,0.7,0.7,0,1",""
"","html-keyboard-response","141","90090","0.0-141.0","3NGI5ARFTURE9X6DBJN8IY9TFPFP1B","A3ROADR7T6811","3VJ4PFXFJ3TL96TFXMATEMT7KJHUAI","","null","<img src=""img/animal1.png"" style=""width:200px; border:14px solid green;"">","null","","","","","",""
"","image-keyboard-response","142","90436","0.0-142.0","3NGI5ARFTURE9X6DBJN8IY9TFPFP1B","A3ROADR7T6811","3VJ4PFXFJ3TL96TFXMATEMT7KJHUAI","","345","img/animal1.png","74","346","1","1","1","1,0.7,0,0,1,0.7,0.7,0,1",""
"","html-keyboard-response","143","90743","0.0-143.0","3NGI5ARFTURE9X6DBJN8IY9TFPFP1B","A3ROADR7T6811","3VJ4PFXFJ3TL96TFXMATEMT7KJHUAI","","null","<img src=""img/animal1.png"" style=""width:200px; border:14px solid green;"">","null","","","","","",""
"","image-keyboard-response","144","91463","0.0-144.0","3NGI5ARFTURE9X6DBJN8IY9TFPFP1B","A3ROADR7T6811","3VJ4PFXFJ3TL96TFXMATEMT7KJHUAI","","719","img/animal6.png","76","720","3","1","3","1,0.7,0,0,1,0.7,0.7,0,1",""
"","html-keyboard-response","145","91776","0.0-145.0","3NGI5ARFTURE9X6DBJN8IY9TFPFP1B","A3ROADR7T6811","3VJ4PFXFJ3TL96TFXMATEMT7KJHUAI","","null","<img src=""img/animal6.png"" style=""width:200px; border:14px solid green;"">","null","","","","","",""
"","image-keyboard-response","146","92154","0.0-146.0","3NGI5ARFTURE9X6DBJN8IY9TFPFP1B","A3ROADR7T6811","3VJ4PFXFJ3TL96TFXMATEMT7KJHUAI","","376","img/animal6.png","76","377","3","1","3","1,0.7,0,0,1,0.7,0.7,0,1",""
"","html-keyboard-response","147","92461","0.0-147.0","3NGI5ARFTURE9X6DBJN8IY9TFPFP1B","A3ROADR7T6811","3VJ4PFXFJ3TL96TFXMATEMT7KJHUAI","","null","<img src=""img/animal6.png"" style=""width:200px; border:14px solid green;"">","null","","","","","",""
"","image-keyboard-response","148","92932","0.0-148.0","3NGI5ARFTURE9X6DBJN8IY9TFPFP1B","A3ROADR7T6811","3VJ4PFXFJ3TL96TFXMATEMT7KJHUAI","","471","img/animal1.png","74","471","1","1","1","1,0.7,0,0,1,0.7,0.7,0,1",""
"","html-keyboard-response","149","93245","0.0-149.0","3NGI5ARFTURE9X6DBJN8IY9TFPFP1B","A3ROADR7T6811","3VJ4PFXFJ3TL96TFXMATEMT7KJHUAI","","null","<img src=""img/animal1.png"" style=""width:200px; border:14px solid green;"">","null","","","","","",""
"","image-keyboard-response","150","93822","0.0-150.0","3NGI5ARFTURE9X6DBJN8IY9TFPFP1B","A3ROADR7T6811","3VJ4PFXFJ3TL96TFXMATEMT7KJHUAI","","575","img/animal5.png","75","578","2","1","2","1,0.7,0,0,1,0.7,0.7,0,1",""
"","html-keyboard-response","151","94124","0.0-151.0","3NGI5ARFTURE9X6DBJN8IY9TFPFP1B","A3ROADR7T6811","3VJ4PFXFJ3TL96TFXMATEMT7KJHUAI","","null","<img src=""img/animal5.png"" style=""width:200px; border:14px solid green;"">","null","","","","","",""
"","image-keyboard-response","152","94623","0.0-152.0","3NGI5ARFTURE9X6DBJN8IY9TFPFP1B","A3ROADR7T6811","3VJ4PFXFJ3TL96TFXMATEMT7KJHUAI","","497","img/animal5.png","75","499","2","1","2","1,0.7,0,0,1,0.7,0.7,0,1",""
"","html-keyboard-response","153","94932","0.0-153.0","3NGI5ARFTURE9X6DBJN8IY9TFPFP1B","A3ROADR7T6811","3VJ4PFXFJ3TL96TFXMATEMT7KJHUAI","","null","<img src=""img/animal5.png"" style=""width:200px; border:14px solid green;"">","null","","","","","",""
"","image-keyboard-response","154","95480","0.0-154.0","3NGI5ARFTURE9X6DBJN8IY9TFPFP1B","A3ROADR7T6811","3VJ4PFXFJ3TL96TFXMATEMT7KJHUAI","","547","img/animal1.png","74","548","1","1","1","1,0.7,0,0,1,0.7,0.7,0,1",""
"","html-keyboard-response","155","95795","0.0-155.0","3NGI5ARFTURE9X6DBJN8IY9TFPFP1B","A3ROADR7T6811","3VJ4PFXFJ3TL96TFXMATEMT7KJHUAI","","null","<img src=""img/animal1.png"" style=""width:200px; border:14px solid green;"">","null","","","","","",""
"","image-keyboard-response","156","96370","0.0-156.0","3NGI5ARFTURE9X6DBJN8IY9TFPFP1B","A3ROADR7T6811","3VJ4PFXFJ3TL96TFXMATEMT7KJHUAI","","574","img/animal6.png","76","574","3","1","3","1,0.7,0,0,1,0.7,0.7,0,1",""
"","html-keyboard-response","157","96681","0.0-157.0","3NGI5ARFTURE9X6DBJN8IY9TFPFP1B","A3ROADR7T6811","3VJ4PFXFJ3TL96TFXMATEMT7KJHUAI","","null","<img src=""img/animal6.png"" style=""width:200px; border:14px solid green;"">","null","","","","","",""
"","image-keyboard-response","158","97117","0.0-158.0","3NGI5ARFTURE9X6DBJN8IY9TFPFP1B","A3ROADR7T6811","3VJ4PFXFJ3TL96TFXMATEMT7KJHUAI","","435","img/animal1.png","74","436","1","1","1","1,0.7,0,0,1,0.7,0.7,0,1",""
"","html-keyboard-response","159","97436","0.0-159.0","3NGI5ARFTURE9X6DBJN8IY9TFPFP1B","A3ROADR7T6811","3VJ4PFXFJ3TL96TFXMATEMT7KJHUAI","","null","<img src=""img/animal1.png"" style=""width:200px; border:14px solid green;"">","null","","","","","",""
"","image-keyboard-response","160","97968","0.0-160.0","3NGI5ARFTURE9X6DBJN8IY9TFPFP1B","A3ROADR7T6811","3VJ4PFXFJ3TL96TFXMATEMT7KJHUAI","","532","img/animal5.png","75","533","2","1","2","1,0.7,0,0,1,0.7,0.7,0,1",""
"","html-keyboard-response","161","98284","0.0-161.0","3NGI5ARFTURE9X6DBJN8IY9TFPFP1B","A3ROADR7T6811","3VJ4PFXFJ3TL96TFXMATEMT7KJHUAI","","null","<img src=""img/animal5.png"" style=""width:200px; border:14px solid green;"">","null","","","","","",""
"","image-keyboard-response","162","98757","0.0-162.0","3NGI5ARFTURE9X6DBJN8IY9TFPFP1B","A3ROADR7T6811","3VJ4PFXFJ3TL96TFXMATEMT7KJHUAI","","473","img/animal1.png","74","474","1","1","1","1,0.7,0,0,1,0.7,0.7,0,1",""
"","html-keyboard-response","163","99070","0.0-163.0","3NGI5ARFTURE9X6DBJN8IY9TFPFP1B","A3ROADR7T6811","3VJ4PFXFJ3TL96TFXMATEMT7KJHUAI","","null","<img src=""img/animal1.png"" style=""width:200px; border:14px solid green;"">","null","","","","","",""
"","image-keyboard-response","164","99516","0.0-164.0","3NGI5ARFTURE9X6DBJN8IY9TFPFP1B","A3ROADR7T6811","3VJ4PFXFJ3TL96TFXMATEMT7KJHUAI","","444","img/animal1.png","74","446","1","1","1","1,0.7,0,0,1,0.7,0.7,0,1",""
"","html-keyboard-response","165","99818","0.0-165.0","3NGI5ARFTURE9X6DBJN8IY9TFPFP1B","A3ROADR7T6811","3VJ4PFXFJ3TL96TFXMATEMT7KJHUAI","","null","<img src=""img/animal1.png"" style=""width:200px; border:14px solid green;"">","null","","","","","",""
"","image-keyboard-response","166","100347","0.0-166.0","3NGI5ARFTURE9X6DBJN8IY9TFPFP1B","A3ROADR7T6811","3VJ4PFXFJ3TL96TFXMATEMT7KJHUAI","","527","img/animal5.png","75","527","2","1","2","1,0.7,0,0,1,0.7,0.7,0,1",""
"","html-keyboard-response","167","100657","0.0-167.0","3NGI5ARFTURE9X6DBJN8IY9TFPFP1B","A3ROADR7T6811","3VJ4PFXFJ3TL96TFXMATEMT7KJHUAI","","null","<img src=""img/animal5.png"" style=""width:200px; border:14px solid green;"">","null","","","","","",""
"","image-keyboard-response","168","101223","0.0-168.0","3NGI5ARFTURE9X6DBJN8IY9TFPFP1B","A3ROADR7T6811","3VJ4PFXFJ3TL96TFXMATEMT7KJHUAI","","565","img/animal6.png","76","565","3","1","3","1,0.7,0,0,1,0.7,0.7,0,1",""
"","html-keyboard-response","169","101523","0.0-169.0","3NGI5ARFTURE9X6DBJN8IY9TFPFP1B","A3ROADR7T6811","3VJ4PFXFJ3TL96TFXMATEMT7KJHUAI","","null","<img src=""img/animal6.png"" style=""width:200px; border:14px solid green;"">","null","","","","","",""
"","image-keyboard-response","170","102140","0.0-170.0","3NGI5ARFTURE9X6DBJN8IY9TFPFP1B","A3ROADR7T6811","3VJ4PFXFJ3TL96TFXMATEMT7KJHUAI","","616","img/animal5.png","75","616","2","1","2","1,0.7,0,0,1,0.7,0.7,0,1",""
"","html-keyboard-response","171","102446","0.0-171.0","3NGI5ARFTURE9X6DBJN8IY9TFPFP1B","A3ROADR7T6811","3VJ4PFXFJ3TL96TFXMATEMT7KJHUAI","","null","<img src=""img/animal5.png"" style=""width:200px; border:14px solid green;"">","null","","","","","",""
"","image-keyboard-response","172","103984","0.0-172.0","3NGI5ARFTURE9X6DBJN8IY9TFPFP1B","A3ROADR7T6811","3VJ4PFXFJ3TL96TFXMATEMT7KJHUAI","","1538","img/animal1.png","74","1538","1","1","1","1,0.7,0,0,1,0.7,0.7,0,1",""
"","html-keyboard-response","173","104295","0.0-173.0","3NGI5ARFTURE9X6DBJN8IY9TFPFP1B","A3ROADR7T6811","3VJ4PFXFJ3TL96TFXMATEMT7KJHUAI","","null","<img src=""img/animal1.png"" style=""width:200px; border:14px solid green;"">","null","","","","","",""
"","image-keyboard-response","174","104905","0.0-174.0","3NGI5ARFTURE9X6DBJN8IY9TFPFP1B","A3ROADR7T6811","3VJ4PFXFJ3TL96TFXMATEMT7KJHUAI","","608","img/animal6.png","76","608","3","1","3","1,0.7,0,0,1,0.7,0.7,0,1",""
"","html-keyboard-response","175","105212","0.0-175.0","3NGI5ARFTURE9X6DBJN8IY9TFPFP1B","A3ROADR7T6811","3VJ4PFXFJ3TL96TFXMATEMT7KJHUAI","","null","<img src=""img/animal6.png"" style=""width:200px; border:14px solid green;"">","null","","","","","",""
"","image-keyboard-response","176","106142","0.0-176.0","3NGI5ARFTURE9X6DBJN8IY9TFPFP1B","A3ROADR7T6811","3VJ4PFXFJ3TL96TFXMATEMT7KJHUAI","","930","img/animal1.png","74","930","1","1","1","1,0.7,0,0,1,0.7,0.7,0,1",""
"","html-keyboard-response","177","106452","0.0-177.0","3NGI5ARFTURE9X6DBJN8IY9TFPFP1B","A3ROADR7T6811","3VJ4PFXFJ3TL96TFXMATEMT7KJHUAI","","null","<img src=""img/animal1.png"" style=""width:200px; border:14px solid green;"">","null","","","","","",""
"","image-keyboard-response","178","106871","0.0-178.0","3NGI5ARFTURE9X6DBJN8IY9TFPFP1B","A3ROADR7T6811","3VJ4PFXFJ3TL96TFXMATEMT7KJHUAI","","420","img/animal5.png","75","420","2","1","2","1,0.7,0,0,1,0.7,0.7,0,1",""
"","html-keyboard-response","179","107183","0.0-179.0","3NGI5ARFTURE9X6DBJN8IY9TFPFP1B","A3ROADR7T6811","3VJ4PFXFJ3TL96TFXMATEMT7KJHUAI","","null","<img src=""img/animal5.png"" style=""width:200px; border:14px solid green;"">","null","","","","","",""
"","image-keyboard-response","180","107693","0.0-180.0","3NGI5ARFTURE9X6DBJN8IY9TFPFP1B","A3ROADR7T6811","3VJ4PFXFJ3TL96TFXMATEMT7KJHUAI","","508","img/animal5.png","75","508","2","1","2","1,0.7,0,0,1,0.7,0.7,0,1",""
"","html-keyboard-response","181","108000","0.0-181.0","3NGI5ARFTURE9X6DBJN8IY9TFPFP1B","A3ROADR7T6811","3VJ4PFXFJ3TL96TFXMATEMT7KJHUAI","","null","<img src=""img/animal5.png"" style=""width:200px; border:14px solid green;"">","null","","","","","",""
"","html-keyboard-response","182","111856","0.0-182.0","3NGI5ARFTURE9X6DBJN8IY9TFPFP1B","A3ROADR7T6811","3VJ4PFXFJ3TL96TFXMATEMT7KJHUAI","","","","","","","","","",""
"","image-keyboard-response","183","113577","0.0-183.0","3NGI5ARFTURE9X6DBJN8IY9TFPFP1B","A3ROADR7T6811","3VJ4PFXFJ3TL96TFXMATEMT7KJHUAI","","1718","img/animal3.png","76","1720","3","0","2","1,0.7,0,1,0.7,0,0.7,0,1",""
"","html-keyboard-response","184","113892","0.0-184.0","3NGI5ARFTURE9X6DBJN8IY9TFPFP1B","A3ROADR7T6811","3VJ4PFXFJ3TL96TFXMATEMT7KJHUAI","","null","<img src=""img/animal3.png"" style=""width:200px;border:14px solid red;"">","null","","","","","",""
"","image-keyboard-response","185","115169","0.0-185.0","3NGI5ARFTURE9X6DBJN8IY9TFPFP1B","A3ROADR7T6811","3VJ4PFXFJ3TL96TFXMATEMT7KJHUAI","","1277","img/animal2.png","76","1277","3","0","1","1,0.7,0,1,0.7,0,0.7,0,1",""
"","html-keyboard-response","186","115478","0.0-186.0","3NGI5ARFTURE9X6DBJN8IY9TFPFP1B","A3ROADR7T6811","3VJ4PFXFJ3TL96TFXMATEMT7KJHUAI","","null","<img src=""img/animal2.png"" style=""width:200px;border:14px solid red;"">","null","","","","","",""
"","image-keyboard-response","187","116310","0.0-187.0","3NGI5ARFTURE9X6DBJN8IY9TFPFP1B","A3ROADR7T6811","3VJ4PFXFJ3TL96TFXMATEMT7KJHUAI","","831","img/animal2.png","75","831","2","0","1","1,0.7,0,1,0.7,0,0.7,0,1",""
"","html-keyboard-response","188","116627","0.0-188.0","3NGI5ARFTURE9X6DBJN8IY9TFPFP1B","A3ROADR7T6811","3VJ4PFXFJ3TL96TFXMATEMT7KJHUAI","","null","<img src=""img/animal2.png"" style=""width:200px;border:14px solid red;"">","null","","","","","",""
"","image-keyboard-response","189","118698","0.0-189.0","3NGI5ARFTURE9X6DBJN8IY9TFPFP1B","A3ROADR7T6811","3VJ4PFXFJ3TL96TFXMATEMT7KJHUAI","","2071","img/animal3.png","75","2072","2","1","2","1,0.7,0,1,0.7,0,0.7,0,1",""
"","html-keyboard-response","190","119014","0.0-190.0","3NGI5ARFTURE9X6DBJN8IY9TFPFP1B","A3ROADR7T6811","3VJ4PFXFJ3TL96TFXMATEMT7KJHUAI","","null","<img src=""img/animal3.png"" style=""width:200px; border:14px solid green;"">","null","","","","","",""
"","image-keyboard-response","191","120659","0.0-191.0","3NGI5ARFTURE9X6DBJN8IY9TFPFP1B","A3ROADR7T6811","3VJ4PFXFJ3TL96TFXMATEMT7KJHUAI","","1645","img/animal4.png","76","1645","3","1","3","1,0.7,0,1,0.7,0,0.7,0,1",""
"","html-keyboard-response","192","120970","0.0-192.0","3NGI5ARFTURE9X6DBJN8IY9TFPFP1B","A3ROADR7T6811","3VJ4PFXFJ3TL96TFXMATEMT7KJHUAI","","null","<img src=""img/animal4.png"" style=""width:200px; border:14px solid green;"">","null","","","","","",""
"","image-keyboard-response","193","121626","0.0-193.0","3NGI5ARFTURE9X6DBJN8IY9TFPFP1B","A3ROADR7T6811","3VJ4PFXFJ3TL96TFXMATEMT7KJHUAI","","655","img/animal4.png","76","656","3","1","3","1,0.7,0,1,0.7,0,0.7,0,1",""
"","html-keyboard-response","194","121933","0.0-194.0","3NGI5ARFTURE9X6DBJN8IY9TFPFP1B","A3ROADR7T6811","3VJ4PFXFJ3TL96TFXMATEMT7KJHUAI","","null","<img src=""img/animal4.png"" style=""width:200px; border:14px solid green;"">","null","","","","","",""
"","image-keyboard-response","195","122647","0.0-195.0","3NGI5ARFTURE9X6DBJN8IY9TFPFP1B","A3ROADR7T6811","3VJ4PFXFJ3TL96TFXMATEMT7KJHUAI","","712","img/animal3.png","75","713","2","1","2","1,0.7,0,1,0.7,0,0.7,0,1",""
"","html-keyboard-response","196","122951","0.0-196.0","3NGI5ARFTURE9X6DBJN8IY9TFPFP1B","A3ROADR7T6811","3VJ4PFXFJ3TL96TFXMATEMT7KJHUAI","","null","<img src=""img/animal3.png"" style=""width:200px; border:14px solid green;"">","null","","","","","",""
"","image-keyboard-response","197","123549","0.0-197.0","3NGI5ARFTURE9X6DBJN8IY9TFPFP1B","A3ROADR7T6811","3VJ4PFXFJ3TL96TFXMATEMT7KJHUAI","","599","img/animal2.png","74","599","1","1","1","1,0.7,0,1,0.7,0,0.7,0,1",""
"","html-keyboard-response","198","123852","0.0-198.0","3NGI5ARFTURE9X6DBJN8IY9TFPFP1B","A3ROADR7T6811","3VJ4PFXFJ3TL96TFXMATEMT7KJHUAI","","null","<img src=""img/animal2.png"" style=""width:200px; border:14px solid green;"">","null","","","","","",""
"","image-keyboard-response","199","124216","0.0-199.0","3NGI5ARFTURE9X6DBJN8IY9TFPFP1B","A3ROADR7T6811","3VJ4PFXFJ3TL96TFXMATEMT7KJHUAI","","363","img/animal2.png","74","363","1","1","1","1,0.7,0,1,0.7,0,0.7,0,1",""
"","html-keyboard-response","200","124522","0.0-200.0","3NGI5ARFTURE9X6DBJN8IY9TFPFP1B","A3ROADR7T6811","3VJ4PFXFJ3TL96TFXMATEMT7KJHUAI","","null","<img src=""img/animal2.png"" style=""width:200px; border:14px solid green;"">","null","","","","","",""
"","image-keyboard-response","201","125177","0.0-201.0","3NGI5ARFTURE9X6DBJN8IY9TFPFP1B","A3ROADR7T6811","3VJ4PFXFJ3TL96TFXMATEMT7KJHUAI","","654","img/animal4.png","76","655","3","1","3","1,0.7,0,1,0.7,0,0.7,0,1",""
"","html-keyboard-response","202","125493","0.0-202.0","3NGI5ARFTURE9X6DBJN8IY9TFPFP1B","A3ROADR7T6811","3VJ4PFXFJ3TL96TFXMATEMT7KJHUAI","","null","<img src=""img/animal4.png"" style=""width:200px; border:14px solid green;"">","null","","","","","",""
"","image-keyboard-response","203","126179","0.0-203.0","3NGI5ARFTURE9X6DBJN8IY9TFPFP1B","A3ROADR7T6811","3VJ4PFXFJ3TL96TFXMATEMT7KJHUAI","","685","img/animal2.png","74","685","1","1","1","1,0.7,0,1,0.7,0,0.7,0,1",""
"","html-keyboard-response","204","126495","0.0-204.0","3NGI5ARFTURE9X6DBJN8IY9TFPFP1B","A3ROADR7T6811","3VJ4PFXFJ3TL96TFXMATEMT7KJHUAI","","null","<img src=""img/animal2.png"" style=""width:200px; border:14px solid green;"">","null","","","","","",""
"","image-keyboard-response","205","126918","0.0-205.0","3NGI5ARFTURE9X6DBJN8IY9TFPFP1B","A3ROADR7T6811","3VJ4PFXFJ3TL96TFXMATEMT7KJHUAI","","424","img/animal2.png","74","425","1","1","1","1,0.7,0,1,0.7,0,0.7,0,1",""
"","html-keyboard-response","206","127226","0.0-206.0","3NGI5ARFTURE9X6DBJN8IY9TFPFP1B","A3ROADR7T6811","3VJ4PFXFJ3TL96TFXMATEMT7KJHUAI","","null","<img src=""img/animal2.png"" style=""width:200px; border:14px solid green;"">","null","","","","","",""
"","image-keyboard-response","207","127607","0.0-207.0","3NGI5ARFTURE9X6DBJN8IY9TFPFP1B","A3ROADR7T6811","3VJ4PFXFJ3TL96TFXMATEMT7KJHUAI","","379","img/animal2.png","74","379","1","1","1","1,0.7,0,1,0.7,0,0.7,0,1",""
"","html-keyboard-response","208","127911","0.0-208.0","3NGI5ARFTURE9X6DBJN8IY9TFPFP1B","A3ROADR7T6811","3VJ4PFXFJ3TL96TFXMATEMT7KJHUAI","","null","<img src=""img/animal2.png"" style=""width:200px; border:14px solid green;"">","null","","","","","",""
"","image-keyboard-response","209","128365","0.0-209.0","3NGI5ARFTURE9X6DBJN8IY9TFPFP1B","A3ROADR7T6811","3VJ4PFXFJ3TL96TFXMATEMT7KJHUAI","","453","img/animal2.png","74","454","1","1","1","1,0.7,0,1,0.7,0,0.7,0,1",""
"","html-keyboard-response","210","128682","0.0-210.0","3NGI5ARFTURE9X6DBJN8IY9TFPFP1B","A3ROADR7T6811","3VJ4PFXFJ3TL96TFXMATEMT7KJHUAI","","null","<img src=""img/animal2.png"" style=""width:200px; border:14px solid green;"">","null","","","","","",""
"","image-keyboard-response","211","129310","0.0-211.0","3NGI5ARFTURE9X6DBJN8IY9TFPFP1B","A3ROADR7T6811","3VJ4PFXFJ3TL96TFXMATEMT7KJHUAI","","627","img/animal3.png","75","628","2","0","2","1,0.7,0,1,0.7,0,0.7,0,1",""
"","html-keyboard-response","212","129612","0.0-212.0","3NGI5ARFTURE9X6DBJN8IY9TFPFP1B","A3ROADR7T6811","3VJ4PFXFJ3TL96TFXMATEMT7KJHUAI","","null","<img src=""img/animal3.png"" style=""width:200px;border:14px solid red;"">","null","","","","","",""
"","image-keyboard-response","213","130654","0.0-213.0","3NGI5ARFTURE9X6DBJN8IY9TFPFP1B","A3ROADR7T6811","3VJ4PFXFJ3TL96TFXMATEMT7KJHUAI","","1040","img/animal4.png","76","1041","3","1","3","1,0.7,0,1,0.7,0,0.7,0,1",""
"","html-keyboard-response","214","130963","0.0-214.0","3NGI5ARFTURE9X6DBJN8IY9TFPFP1B","A3ROADR7T6811","3VJ4PFXFJ3TL96TFXMATEMT7KJHUAI","","null","<img src=""img/animal4.png"" style=""width:200px; border:14px solid green;"">","null","","","","","",""
"","image-keyboard-response","215","131311","0.0-215.0","3NGI5ARFTURE9X6DBJN8IY9TFPFP1B","A3ROADR7T6811","3VJ4PFXFJ3TL96TFXMATEMT7KJHUAI","","347","img/animal4.png","76","348","3","1","3","1,0.7,0,1,0.7,0,0.7,0,1",""
"","html-keyboard-response","216","131614","0.0-216.0","3NGI5ARFTURE9X6DBJN8IY9TFPFP1B","A3ROADR7T6811","3VJ4PFXFJ3TL96TFXMATEMT7KJHUAI","","null","<img src=""img/animal4.png"" style=""width:200px; border:14px solid green;"">","null","","","","","",""
"","image-keyboard-response","217","132278","0.0-217.0","3NGI5ARFTURE9X6DBJN8IY9TFPFP1B","A3ROADR7T6811","3VJ4PFXFJ3TL96TFXMATEMT7KJHUAI","","663","img/animal2.png","74","663","1","1","1","1,0.7,0,1,0.7,0,0.7,0,1",""
"","html-keyboard-response","218","132588","0.0-218.0","3NGI5ARFTURE9X6DBJN8IY9TFPFP1B","A3ROADR7T6811","3VJ4PFXFJ3TL96TFXMATEMT7KJHUAI","","null","<img src=""img/animal2.png"" style=""width:200px; border:14px solid green;"">","null","","","","","",""
"","image-keyboard-response","219","132969","0.0-219.0","3NGI5ARFTURE9X6DBJN8IY9TFPFP1B","A3ROADR7T6811","3VJ4PFXFJ3TL96TFXMATEMT7KJHUAI","","379","img/animal2.png","74","380","1","1","1","1,0.7,0,1,0.7,0,0.7,0,1",""
"","html-keyboard-response","220","133290","0.0-220.0","3NGI5ARFTURE9X6DBJN8IY9TFPFP1B","A3ROADR7T6811","3VJ4PFXFJ3TL96TFXMATEMT7KJHUAI","","null","<img src=""img/animal2.png"" style=""width:200px; border:14px solid green;"">","null","","","","","",""
"","image-keyboard-response","221","133576","0.0-221.0","3NGI5ARFTURE9X6DBJN8IY9TFPFP1B","A3ROADR7T6811","3VJ4PFXFJ3TL96TFXMATEMT7KJHUAI","","285","img/animal2.png","74","288","1","1","1","1,0.7,0,1,0.7,0,0.7,0,1",""
"","html-keyboard-response","222","133897","0.0-222.0","3NGI5ARFTURE9X6DBJN8IY9TFPFP1B","A3ROADR7T6811","3VJ4PFXFJ3TL96TFXMATEMT7KJHUAI","","null","<img src=""img/animal2.png"" style=""width:200px; border:14px solid green;"">","null","","","","","",""
"","image-keyboard-response","223","134587","0.0-223.0","3NGI5ARFTURE9X6DBJN8IY9TFPFP1B","A3ROADR7T6811","3VJ4PFXFJ3TL96TFXMATEMT7KJHUAI","","688","img/animal4.png","76","689","3","1","3","1,0.7,0,1,0.7,0,0.7,0,1",""
"","html-keyboard-response","224","134890","0.0-224.0","3NGI5ARFTURE9X6DBJN8IY9TFPFP1B","A3ROADR7T6811","3VJ4PFXFJ3TL96TFXMATEMT7KJHUAI","","null","<img src=""img/animal4.png"" style=""width:200px; border:14px solid green;"">","null","","","","","",""
"","image-keyboard-response","225","135607","0.0-225.0","3NGI5ARFTURE9X6DBJN8IY9TFPFP1B","A3ROADR7T6811","3VJ4PFXFJ3TL96TFXMATEMT7KJHUAI","","717","img/animal2.png","74","717","1","1","1","1,0.7,0,1,0.7,0,0.7,0,1",""
"","html-keyboard-response","226","135923","0.0-226.0","3NGI5ARFTURE9X6DBJN8IY9TFPFP1B","A3ROADR7T6811","3VJ4PFXFJ3TL96TFXMATEMT7KJHUAI","","null","<img src=""img/animal2.png"" style=""width:200px; border:14px solid green;"">","null","","","","","",""
"","image-keyboard-response","227","136620","0.0-227.0","3NGI5ARFTURE9X6DBJN8IY9TFPFP1B","A3ROADR7T6811","3VJ4PFXFJ3TL96TFXMATEMT7KJHUAI","","697","img/animal4.png","76","698","3","1","3","1,0.7,0,1,0.7,0,0.7,0,1",""
"","html-keyboard-response","228","136924","0.0-228.0","3NGI5ARFTURE9X6DBJN8IY9TFPFP1B","A3ROADR7T6811","3VJ4PFXFJ3TL96TFXMATEMT7KJHUAI","","null","<img src=""img/animal4.png"" style=""width:200px; border:14px solid green;"">","null","","","","","",""
"","image-keyboard-response","229","137329","0.0-229.0","3NGI5ARFTURE9X6DBJN8IY9TFPFP1B","A3ROADR7T6811","3VJ4PFXFJ3TL96TFXMATEMT7KJHUAI","","406","img/animal2.png","74","407","1","1","1","1,0.7,0,1,0.7,0,0.7,0,1",""
"","html-keyboard-response","230","137669","0.0-230.0","3NGI5ARFTURE9X6DBJN8IY9TFPFP1B","A3ROADR7T6811","3VJ4PFXFJ3TL96TFXMATEMT7KJHUAI","","null","<img src=""img/animal2.png"" style=""width:200px; border:14px solid green;"">","null","","","","","",""
"","image-keyboard-response","231","138045","0.0-231.0","3NGI5ARFTURE9X6DBJN8IY9TFPFP1B","A3ROADR7T6811","3VJ4PFXFJ3TL96TFXMATEMT7KJHUAI","","373","img/animal4.png","76","375","3","1","3","1,0.7,0,1,0.7,0,0.7,0,1",""
"","html-keyboard-response","232","138354","0.0-232.0","3NGI5ARFTURE9X6DBJN8IY9TFPFP1B","A3ROADR7T6811","3VJ4PFXFJ3TL96TFXMATEMT7KJHUAI","","null","<img src=""img/animal4.png"" style=""width:200px; border:14px solid green;"">","null","","","","","",""
"","image-keyboard-response","233","139138","0.0-233.0","3NGI5ARFTURE9X6DBJN8IY9TFPFP1B","A3ROADR7T6811","3VJ4PFXFJ3TL96TFXMATEMT7KJHUAI","","783","img/animal3.png","75","784","2","1","2","1,0.7,0,1,0.7,0,0.7,0,1",""
"","html-keyboard-response","234","139441","0.0-234.0","3NGI5ARFTURE9X6DBJN8IY9TFPFP1B","A3ROADR7T6811","3VJ4PFXFJ3TL96TFXMATEMT7KJHUAI","","null","<img src=""img/animal3.png"" style=""width:200px; border:14px solid green;"">","null","","","","","",""
"","image-keyboard-response","235","139868","0.0-235.0","3NGI5ARFTURE9X6DBJN8IY9TFPFP1B","A3ROADR7T6811","3VJ4PFXFJ3TL96TFXMATEMT7KJHUAI","","426","img/animal3.png","75","426","2","1","2","1,0.7,0,1,0.7,0,0.7,0,1",""
"","html-keyboard-response","236","140173","0.0-236.0","3NGI5ARFTURE9X6DBJN8IY9TFPFP1B","A3ROADR7T6811","3VJ4PFXFJ3TL96TFXMATEMT7KJHUAI","","null","<img src=""img/animal3.png"" style=""width:200px; border:14px solid green;"">","null","","","","","",""
"","image-keyboard-response","237","140534","0.0-237.0","3NGI5ARFTURE9X6DBJN8IY9TFPFP1B","A3ROADR7T6811","3VJ4PFXFJ3TL96TFXMATEMT7KJHUAI","","360","img/animal3.png","75","360","2","0","2","1,0.7,0,1,0.7,0,0.7,0,1",""
"","html-keyboard-response","238","140843","0.0-238.0","3NGI5ARFTURE9X6DBJN8IY9TFPFP1B","A3ROADR7T6811","3VJ4PFXFJ3TL96TFXMATEMT7KJHUAI","","null","<img src=""img/animal3.png"" style=""width:200px;border:14px solid red;"">","null","","","","","",""
"","image-keyboard-response","239","142056","0.0-239.0","3NGI5ARFTURE9X6DBJN8IY9TFPFP1B","A3ROADR7T6811","3VJ4PFXFJ3TL96TFXMATEMT7KJHUAI","","1212","img/animal4.png","76","1213","3","1","3","1,0.7,0,1,0.7,0,0.7,0,1",""
"","html-keyboard-response","240","142362","0.0-240.0","3NGI5ARFTURE9X6DBJN8IY9TFPFP1B","A3ROADR7T6811","3VJ4PFXFJ3TL96TFXMATEMT7KJHUAI","","null","<img src=""img/animal4.png"" style=""width:200px; border:14px solid green;"">","null","","","","","",""
"","image-keyboard-response","241","142958","0.0-241.0","3NGI5ARFTURE9X6DBJN8IY9TFPFP1B","A3ROADR7T6811","3VJ4PFXFJ3TL96TFXMATEMT7KJHUAI","","595","img/animal3.png","75","596","2","0","2","1,0.7,0,1,0.7,0,0.7,0,1",""
"","html-keyboard-response","242","143263","0.0-242.0","3NGI5ARFTURE9X6DBJN8IY9TFPFP1B","A3ROADR7T6811","3VJ4PFXFJ3TL96TFXMATEMT7KJHUAI","","null","<img src=""img/animal3.png"" style=""width:200px;border:14px solid red;"">","null","","","","","",""
"","image-keyboard-response","243","144119","0.0-243.0","3NGI5ARFTURE9X6DBJN8IY9TFPFP1B","A3ROADR7T6811","3VJ4PFXFJ3TL96TFXMATEMT7KJHUAI","","855","img/animal3.png","75","856","2","0","2","1,0.7,0,1,0.7,0,0.7,0,1",""
"","html-keyboard-response","244","144434","0.0-244.0","3NGI5ARFTURE9X6DBJN8IY9TFPFP1B","A3ROADR7T6811","3VJ4PFXFJ3TL96TFXMATEMT7KJHUAI","","null","<img src=""img/animal3.png"" style=""width:200px;border:14px solid red;"">","null","","","","","",""
"","image-keyboard-response","245","145706","0.0-245.0","3NGI5ARFTURE9X6DBJN8IY9TFPFP1B","A3ROADR7T6811","3VJ4PFXFJ3TL96TFXMATEMT7KJHUAI","","1270","img/animal4.png","76","1271","3","1","3","1,0.7,0,1,0.7,0,0.7,0,1",""
"","html-keyboard-response","246","146021","0.0-246.0","3NGI5ARFTURE9X6DBJN8IY9TFPFP1B","A3ROADR7T6811","3VJ4PFXFJ3TL96TFXMATEMT7KJHUAI","","null","<img src=""img/animal4.png"" style=""width:200px; border:14px solid green;"">","null","","","","","",""
"","image-keyboard-response","247","146437","0.0-247.0","3NGI5ARFTURE9X6DBJN8IY9TFPFP1B","A3ROADR7T6811","3VJ4PFXFJ3TL96TFXMATEMT7KJHUAI","","415","img/animal4.png","76","415","3","1","3","1,0.7,0,1,0.7,0,0.7,0,1",""
"","html-keyboard-response","248","146738","0.0-248.0","3NGI5ARFTURE9X6DBJN8IY9TFPFP1B","A3ROADR7T6811","3VJ4PFXFJ3TL96TFXMATEMT7KJHUAI","","null","<img src=""img/animal4.png"" style=""width:200px; border:14px solid green;"">","null","","","","","",""
"","image-keyboard-response","249","147143","0.0-249.0","3NGI5ARFTURE9X6DBJN8IY9TFPFP1B","A3ROADR7T6811","3VJ4PFXFJ3TL96TFXMATEMT7KJHUAI","","404","img/animal4.png","76","406","3","1","3","1,0.7,0,1,0.7,0,0.7,0,1",""
"","html-keyboard-response","250","147455","0.0-250.0","3NGI5ARFTURE9X6DBJN8IY9TFPFP1B","A3ROADR7T6811","3VJ4PFXFJ3TL96TFXMATEMT7KJHUAI","","null","<img src=""img/animal4.png"" style=""width:200px; border:14px solid green;"">","null","","","","","",""
"","image-keyboard-response","251","148360","0.0-251.0","3NGI5ARFTURE9X6DBJN8IY9TFPFP1B","A3ROADR7T6811","3VJ4PFXFJ3TL96TFXMATEMT7KJHUAI","","904","img/animal3.png","75","906","2","0","2","1,0.7,0,1,0.7,0,0.7,0,1",""
"","html-keyboard-response","252","148671","0.0-252.0","3NGI5ARFTURE9X6DBJN8IY9TFPFP1B","A3ROADR7T6811","3VJ4PFXFJ3TL96TFXMATEMT7KJHUAI","","null","<img src=""img/animal3.png"" style=""width:200px;border:14px solid red;"">","null","","","","","",""
"","image-keyboard-response","253","151657","0.0-253.0","3NGI5ARFTURE9X6DBJN8IY9TFPFP1B","A3ROADR7T6811","3VJ4PFXFJ3TL96TFXMATEMT7KJHUAI","","2985","img/animal3.png","74","2985","1","1","2","1,0.7,0,1,0.7,0,0.7,0,1",""
"","html-keyboard-response","254","151969","0.0-254.0","3NGI5ARFTURE9X6DBJN8IY9TFPFP1B","A3ROADR7T6811","3VJ4PFXFJ3TL96TFXMATEMT7KJHUAI","","null","<img src=""img/animal3.png"" style=""width:200px; border:14px solid green;"">","null","","","","","",""
"","image-keyboard-response","255","152770","0.0-255.0","3NGI5ARFTURE9X6DBJN8IY9TFPFP1B","A3ROADR7T6811","3VJ4PFXFJ3TL96TFXMATEMT7KJHUAI","","800","img/animal2.png","74","801","1","1","1","1,0.7,0,1,0.7,0,0.7,0,1",""
"","html-keyboard-response","256","153075","0.0-256.0","3NGI5ARFTURE9X6DBJN8IY9TFPFP1B","A3ROADR7T6811","3VJ4PFXFJ3TL96TFXMATEMT7KJHUAI","","null","<img src=""img/animal2.png"" style=""width:200px; border:14px solid green;"">","null","","","","","",""
"","image-keyboard-response","257","154383","0.0-257.0","3NGI5ARFTURE9X6DBJN8IY9TFPFP1B","A3ROADR7T6811","3VJ4PFXFJ3TL96TFXMATEMT7KJHUAI","","1307","img/animal3.png","74","1308","1","1","2","1,0.7,0,1,0.7,0,0.7,0,1",""
"","html-keyboard-response","258","154693","0.0-258.0","3NGI5ARFTURE9X6DBJN8IY9TFPFP1B","A3ROADR7T6811","3VJ4PFXFJ3TL96TFXMATEMT7KJHUAI","","null","<img src=""img/animal3.png"" style=""width:200px; border:14px solid green;"">","null","","","","","",""
"","image-keyboard-response","259","155233","0.0-259.0","3NGI5ARFTURE9X6DBJN8IY9TFPFP1B","A3ROADR7T6811","3VJ4PFXFJ3TL96TFXMATEMT7KJHUAI","","540","img/animal2.png","74","540","1","1","1","1,0.7,0,1,0.7,0,0.7,0,1",""
"","html-keyboard-response","260","155548","0.0-260.0","3NGI5ARFTURE9X6DBJN8IY9TFPFP1B","A3ROADR7T6811","3VJ4PFXFJ3TL96TFXMATEMT7KJHUAI","","null","<img src=""img/animal2.png"" style=""width:200px; border:14px solid green;"">","null","","","","","",""
"","image-keyboard-response","261","156286","0.0-261.0","3NGI5ARFTURE9X6DBJN8IY9TFPFP1B","A3ROADR7T6811","3VJ4PFXFJ3TL96TFXMATEMT7KJHUAI","","737","img/animal3.png","74","737","1","1","2","1,0.7,0,1,0.7,0,0.7,0,1",""
"","html-keyboard-response","262","156596","0.0-262.0","3NGI5ARFTURE9X6DBJN8IY9TFPFP1B","A3ROADR7T6811","3VJ4PFXFJ3TL96TFXMATEMT7KJHUAI","","null","<img src=""img/animal3.png"" style=""width:200px; border:14px solid green;"">","null","","","","","",""
"","image-keyboard-response","263","157329","0.0-263.0","3NGI5ARFTURE9X6DBJN8IY9TFPFP1B","A3ROADR7T6811","3VJ4PFXFJ3TL96TFXMATEMT7KJHUAI","","732","img/animal4.png","76","733","3","1","3","1,0.7,0,1,0.7,0,0.7,0,1",""
"","html-keyboard-response","264","157637","0.0-264.0","3NGI5ARFTURE9X6DBJN8IY9TFPFP1B","A3ROADR7T6811","3VJ4PFXFJ3TL96TFXMATEMT7KJHUAI","","null","<img src=""img/animal4.png"" style=""width:200px; border:14px solid green;"">","null","","","","","",""
"","image-keyboard-response","265","158280","0.0-265.0","3NGI5ARFTURE9X6DBJN8IY9TFPFP1B","A3ROADR7T6811","3VJ4PFXFJ3TL96TFXMATEMT7KJHUAI","","641","img/animal4.png","76","642","3","1","3","1,0.7,0,1,0.7,0,0.7,0,1",""
"","html-keyboard-response","266","158586","0.0-266.0","3NGI5ARFTURE9X6DBJN8IY9TFPFP1B","A3ROADR7T6811","3VJ4PFXFJ3TL96TFXMATEMT7KJHUAI","","null","<img src=""img/animal4.png"" style=""width:200px; border:14px solid green;"">","null","","","","","",""
"","image-keyboard-response","267","159049","0.0-267.0","3NGI5ARFTURE9X6DBJN8IY9TFPFP1B","A3ROADR7T6811","3VJ4PFXFJ3TL96TFXMATEMT7KJHUAI","","462","img/animal4.png","76","463","3","1","3","1,0.7,0,1,0.7,0,0.7,0,1",""
"","html-keyboard-response","268","159351","0.0-268.0","3NGI5ARFTURE9X6DBJN8IY9TFPFP1B","A3ROADR7T6811","3VJ4PFXFJ3TL96TFXMATEMT7KJHUAI","","null","<img src=""img/animal4.png"" style=""width:200px; border:14px solid green;"">","null","","","","","",""
"","image-keyboard-response","269","159949","0.0-269.0","3NGI5ARFTURE9X6DBJN8IY9TFPFP1B","A3ROADR7T6811","3VJ4PFXFJ3TL96TFXMATEMT7KJHUAI","","597","img/animal2.png","74","599","1","1","1","1,0.7,0,1,0.7,0,0.7,0,1",""
"","html-keyboard-response","270","160252","0.0-270.0","3NGI5ARFTURE9X6DBJN8IY9TFPFP1B","A3ROADR7T6811","3VJ4PFXFJ3TL96TFXMATEMT7KJHUAI","","null","<img src=""img/animal2.png"" style=""width:200px; border:14px solid green;"">","null","","","","","",""
"","image-keyboard-response","271","160932","0.0-271.0","3NGI5ARFTURE9X6DBJN8IY9TFPFP1B","A3ROADR7T6811","3VJ4PFXFJ3TL96TFXMATEMT7KJHUAI","","678","img/animal2.png","74","678","1","1","1","1,0.7,0,1,0.7,0,0.7,0,1",""
"","html-keyboard-response","272","161237","0.0-272.0","3NGI5ARFTURE9X6DBJN8IY9TFPFP1B","A3ROADR7T6811","3VJ4PFXFJ3TL96TFXMATEMT7KJHUAI","","null","<img src=""img/animal2.png"" style=""width:200px; border:14px solid green;"">","null","","","","","",""
"","image-keyboard-response","273","161846","0.0-273.0","3NGI5ARFTURE9X6DBJN8IY9TFPFP1B","A3ROADR7T6811","3VJ4PFXFJ3TL96TFXMATEMT7KJHUAI","","608","img/animal3.png","75","608","2","0","2","1,0.7,0,1,0.7,0,0.7,0,1",""
"","html-keyboard-response","274","162161","0.0-274.0","3NGI5ARFTURE9X6DBJN8IY9TFPFP1B","A3ROADR7T6811","3VJ4PFXFJ3TL96TFXMATEMT7KJHUAI","","null","<img src=""img/animal3.png"" style=""width:200px;border:14px solid red;"">","null","","","","","",""
"","image-keyboard-response","275","162402","0.0-275.0","3NGI5ARFTURE9X6DBJN8IY9TFPFP1B","A3ROADR7T6811","3VJ4PFXFJ3TL96TFXMATEMT7KJHUAI","","240","img/animal2.png","74","241","1","1","1","1,0.7,0,1,0.7,0,0.7,0,1",""
"","html-keyboard-response","276","162731","0.0-276.0","3NGI5ARFTURE9X6DBJN8IY9TFPFP1B","A3ROADR7T6811","3VJ4PFXFJ3TL96TFXMATEMT7KJHUAI","","null","<img src=""img/animal2.png"" style=""width:200px; border:14px solid green;"">","null","","","","","",""
"","image-keyboard-response","277","163242","0.0-277.0","3NGI5ARFTURE9X6DBJN8IY9TFPFP1B","A3ROADR7T6811","3VJ4PFXFJ3TL96TFXMATEMT7KJHUAI","","511","img/animal3.png","74","511","1","1","2","1,0.7,0,1,0.7,0,0.7,0,1",""
"","html-keyboard-response","278","163548","0.0-278.0","3NGI5ARFTURE9X6DBJN8IY9TFPFP1B","A3ROADR7T6811","3VJ4PFXFJ3TL96TFXMATEMT7KJHUAI","","null","<img src=""img/animal3.png"" style=""width:200px; border:14px solid green;"">","null","","","","","",""
"","image-keyboard-response","279","164094","0.0-279.0","3NGI5ARFTURE9X6DBJN8IY9TFPFP1B","A3ROADR7T6811","3VJ4PFXFJ3TL96TFXMATEMT7KJHUAI","","546","img/animal2.png","74","546","1","1","1","1,0.7,0,1,0.7,0,0.7,0,1",""
"","html-keyboard-response","280","164402","0.0-280.0","3NGI5ARFTURE9X6DBJN8IY9TFPFP1B","A3ROADR7T6811","3VJ4PFXFJ3TL96TFXMATEMT7KJHUAI","","null","<img src=""img/animal2.png"" style=""width:200px; border:14px solid green;"">","null","","","","","",""
"","image-keyboard-response","281","165025","0.0-281.0","3NGI5ARFTURE9X6DBJN8IY9TFPFP1B","A3ROADR7T6811","3VJ4PFXFJ3TL96TFXMATEMT7KJHUAI","","621","img/animal3.png","75","622","2","0","2","1,0.7,0,1,0.7,0,0.7,0,1",""
"","html-keyboard-response","282","165335","0.0-282.0","3NGI5ARFTURE9X6DBJN8IY9TFPFP1B","A3ROADR7T6811","3VJ4PFXFJ3TL96TFXMATEMT7KJHUAI","","null","<img src=""img/animal3.png"" style=""width:200px;border:14px solid red;"">","null","","","","","",""
"","image-keyboard-response","283","165811","0.0-283.0","3NGI5ARFTURE9X6DBJN8IY9TFPFP1B","A3ROADR7T6811","3VJ4PFXFJ3TL96TFXMATEMT7KJHUAI","","475","img/animal3.png","74","475","1","1","2","1,0.7,0,1,0.7,0,0.7,0,1",""
"","html-keyboard-response","284","166121","0.0-284.0","3NGI5ARFTURE9X6DBJN8IY9TFPFP1B","A3ROADR7T6811","3VJ4PFXFJ3TL96TFXMATEMT7KJHUAI","","null","<img src=""img/animal3.png"" style=""width:200px; border:14px solid green;"">","null","","","","","",""
"","image-keyboard-response","285","167051","0.0-285.0","3NGI5ARFTURE9X6DBJN8IY9TFPFP1B","A3ROADR7T6811","3VJ4PFXFJ3TL96TFXMATEMT7KJHUAI","","930","img/animal2.png","74","930","1","1","1","1,0.7,0,1,0.7,0,0.7,0,1",""
"","html-keyboard-response","286","167357","0.0-286.0","3NGI5ARFTURE9X6DBJN8IY9TFPFP1B","A3ROADR7T6811","3VJ4PFXFJ3TL96TFXMATEMT7KJHUAI","","null","<img src=""img/animal2.png"" style=""width:200px; border:14px solid green;"">","null","","","","","",""
"","image-keyboard-response","287","168102","0.0-287.0","3NGI5ARFTURE9X6DBJN8IY9TFPFP1B","A3ROADR7T6811","3VJ4PFXFJ3TL96TFXMATEMT7KJHUAI","","745","img/animal4.png","76","746","3","1","3","1,0.7,0,1,0.7,0,0.7,0,1",""
"","html-keyboard-response","288","168413","0.0-288.0","3NGI5ARFTURE9X6DBJN8IY9TFPFP1B","A3ROADR7T6811","3VJ4PFXFJ3TL96TFXMATEMT7KJHUAI","","null","<img src=""img/animal4.png"" style=""width:200px; border:14px solid green;"">","null","","","","","",""
"","image-keyboard-response","289","169153","0.0-289.0","3NGI5ARFTURE9X6DBJN8IY9TFPFP1B","A3ROADR7T6811","3VJ4PFXFJ3TL96TFXMATEMT7KJHUAI","","740","img/animal3.png","75","740","2","0","2","1,0.7,0,1,0.7,0,0.7,0,1",""
"","html-keyboard-response","290","169461","0.0-290.0","3NGI5ARFTURE9X6DBJN8IY9TFPFP1B","A3ROADR7T6811","3VJ4PFXFJ3TL96TFXMATEMT7KJHUAI","","null","<img src=""img/animal3.png"" style=""width:200px;border:14px solid red;"">","null","","","","","",""
"","image-keyboard-response","291","169871","0.0-291.0","3NGI5ARFTURE9X6DBJN8IY9TFPFP1B","A3ROADR7T6811","3VJ4PFXFJ3TL96TFXMATEMT7KJHUAI","","410","img/animal4.png","74","410","1","1","3","1,0.7,0,1,0.7,0,0.7,0,1",""
"","html-keyboard-response","292","170177","0.0-292.0","3NGI5ARFTURE9X6DBJN8IY9TFPFP1B","A3ROADR7T6811","3VJ4PFXFJ3TL96TFXMATEMT7KJHUAI","","null","<img src=""img/animal4.png"" style=""width:200px; border:14px solid green;"">","null","","","","","",""
"","image-keyboard-response","293","170590","0.0-293.0","3NGI5ARFTURE9X6DBJN8IY9TFPFP1B","A3ROADR7T6811","3VJ4PFXFJ3TL96TFXMATEMT7KJHUAI","","412","img/animal4.png","74","412","1","1","3","1,0.7,0,1,0.7,0,0.7,0,1",""
"","html-keyboard-response","294","170894","0.0-294.0","3NGI5ARFTURE9X6DBJN8IY9TFPFP1B","A3ROADR7T6811","3VJ4PFXFJ3TL96TFXMATEMT7KJHUAI","","null","<img src=""img/animal4.png"" style=""width:200px; border:14px solid green;"">","null","","","","","",""
"","image-keyboard-response","295","173213","0.0-295.0","3NGI5ARFTURE9X6DBJN8IY9TFPFP1B","A3ROADR7T6811","3VJ4PFXFJ3TL96TFXMATEMT7KJHUAI","","2318","img/animal3.png","74","2319","1","1","2","1,0.7,0,1,0.7,0,0.7,0,1",""
"","html-keyboard-response","296","173522","0.0-296.0","3NGI5ARFTURE9X6DBJN8IY9TFPFP1B","A3ROADR7T6811","3VJ4PFXFJ3TL96TFXMATEMT7KJHUAI","","null","<img src=""img/animal3.png"" style=""width:200px; border:14px solid green;"">","null","","","","","",""
"","image-keyboard-response","297","174064","0.0-297.0","3NGI5ARFTURE9X6DBJN8IY9TFPFP1B","A3ROADR7T6811","3VJ4PFXFJ3TL96TFXMATEMT7KJHUAI","","541","img/animal4.png","76","542","3","1","3","1,0.7,0,1,0.7,0,0.7,0,1",""
"","html-keyboard-response","298","174368","0.0-298.0","3NGI5ARFTURE9X6DBJN8IY9TFPFP1B","A3ROADR7T6811","3VJ4PFXFJ3TL96TFXMATEMT7KJHUAI","","null","<img src=""img/animal4.png"" style=""width:200px; border:14px solid green;"">","null","","","","","",""
"","image-keyboard-response","299","175846","0.0-299.0","3NGI5ARFTURE9X6DBJN8IY9TFPFP1B","A3ROADR7T6811","3VJ4PFXFJ3TL96TFXMATEMT7KJHUAI","","1477","img/animal3.png","76","1477","3","0","2","1,0.7,0,1,0.7,0,0.7,0,1",""
"","html-keyboard-response","300","176155","0.0-300.0","3NGI5ARFTURE9X6DBJN8IY9TFPFP1B","A3ROADR7T6811","3VJ4PFXFJ3TL96TFXMATEMT7KJHUAI","","null","<img src=""img/animal3.png"" style=""width:200px;border:14px solid red;"">","null","","","","","",""
"","image-keyboard-response","301","176918","0.0-301.0","3NGI5ARFTURE9X6DBJN8IY9TFPFP1B","A3ROADR7T6811","3VJ4PFXFJ3TL96TFXMATEMT7KJHUAI","","764","img/animal2.png","74","764","1","1","1","1,0.7,0,1,0.7,0,0.7,0,1",""
"","html-keyboard-response","302","177225","0.0-302.0","3NGI5ARFTURE9X6DBJN8IY9TFPFP1B","A3ROADR7T6811","3VJ4PFXFJ3TL96TFXMATEMT7KJHUAI","","null","<img src=""img/animal2.png"" style=""width:200px; border:14px solid green;"">","null","","","","","",""
"","image-keyboard-response","303","178832","0.0-303.0","3NGI5ARFTURE9X6DBJN8IY9TFPFP1B","A3ROADR7T6811","3VJ4PFXFJ3TL96TFXMATEMT7KJHUAI","","1606","img/animal4.png","76","1606","3","1","3","1,0.7,0,1,0.7,0,0.7,0,1",""
"","html-keyboard-response","304","179144","0.0-304.0","3NGI5ARFTURE9X6DBJN8IY9TFPFP1B","A3ROADR7T6811","3VJ4PFXFJ3TL96TFXMATEMT7KJHUAI","","null","<img src=""img/animal4.png"" style=""width:200px; border:14px solid green;"">","null","","","","","",""
"","image-keyboard-response","305","179913","0.0-305.0","3NGI5ARFTURE9X6DBJN8IY9TFPFP1B","A3ROADR7T6811","3VJ4PFXFJ3TL96TFXMATEMT7KJHUAI","","769","img/animal2.png","74","769","1","1","1","1,0.7,0,1,0.7,0,0.7,0,1",""
"","html-keyboard-response","306","180222","0.0-306.0","3NGI5ARFTURE9X6DBJN8IY9TFPFP1B","A3ROADR7T6811","3VJ4PFXFJ3TL96TFXMATEMT7KJHUAI","","null","<img src=""img/animal2.png"" style=""width:200px; border:14px solid green;"">","null","","","","","",""
"","image-keyboard-response","307","180662","0.0-307.0","3NGI5ARFTURE9X6DBJN8IY9TFPFP1B","A3ROADR7T6811","3VJ4PFXFJ3TL96TFXMATEMT7KJHUAI","","440","img/animal2.png","74","440","1","1","1","1,0.7,0,1,0.7,0,0.7,0,1",""
"","html-keyboard-response","308","180977","0.0-308.0","3NGI5ARFTURE9X6DBJN8IY9TFPFP1B","A3ROADR7T6811","3VJ4PFXFJ3TL96TFXMATEMT7KJHUAI","","null","<img src=""img/animal2.png"" style=""width:200px; border:14px solid green;"">","null","","","","","",""
"","image-keyboard-response","309","181988","0.0-309.0","3NGI5ARFTURE9X6DBJN8IY9TFPFP1B","A3ROADR7T6811","3VJ4PFXFJ3TL96TFXMATEMT7KJHUAI","","1010","img/animal4.png","76","1011","3","1","3","1,0.7,0,1,0.7,0,0.7,0,1",""
"","html-keyboard-response","310","182293","0.0-310.0","3NGI5ARFTURE9X6DBJN8IY9TFPFP1B","A3ROADR7T6811","3VJ4PFXFJ3TL96TFXMATEMT7KJHUAI","","null","<img src=""img/animal4.png"" style=""width:200px; border:14px solid green;"">","null","","","","","",""
"","image-keyboard-response","311","182727","0.0-311.0","3NGI5ARFTURE9X6DBJN8IY9TFPFP1B","A3ROADR7T6811","3VJ4PFXFJ3TL96TFXMATEMT7KJHUAI","","434","img/animal4.png","76","434","3","1","3","1,0.7,0,1,0.7,0,0.7,0,1",""
"","html-keyboard-response","312","183031","0.0-312.0","3NGI5ARFTURE9X6DBJN8IY9TFPFP1B","A3ROADR7T6811","3VJ4PFXFJ3TL96TFXMATEMT7KJHUAI","","null","<img src=""img/animal4.png"" style=""width:200px; border:14px solid green;"">","null","","","","","",""
"","image-keyboard-response","313","183597","0.0-313.0","3NGI5ARFTURE9X6DBJN8IY9TFPFP1B","A3ROADR7T6811","3VJ4PFXFJ3TL96TFXMATEMT7KJHUAI","","565","img/animal2.png","74","566","1","1","1","1,0.7,0,1,0.7,0,0.7,0,1",""
"","html-keyboard-response","314","183910","0.0-314.0","3NGI5ARFTURE9X6DBJN8IY9TFPFP1B","A3ROADR7T6811","3VJ4PFXFJ3TL96TFXMATEMT7KJHUAI","","null","<img src=""img/animal2.png"" style=""width:200px; border:14px solid green;"">","null","","","","","",""
"","image-keyboard-response","315","184548","0.0-315.0","3NGI5ARFTURE9X6DBJN8IY9TFPFP1B","A3ROADR7T6811","3VJ4PFXFJ3TL96TFXMATEMT7KJHUAI","","638","img/animal3.png","75","639","2","1","2","1,0.7,0,1,0.7,0,0.7,0,1",""
"","html-keyboard-response","316","184864","0.0-316.0","3NGI5ARFTURE9X6DBJN8IY9TFPFP1B","A3ROADR7T6811","3VJ4PFXFJ3TL96TFXMATEMT7KJHUAI","","null","<img src=""img/animal3.png"" style=""width:200px; border:14px solid green;"">","null","","","","","",""
"","image-keyboard-response","317","186098","0.0-317.0","3NGI5ARFTURE9X6DBJN8IY9TFPFP1B","A3ROADR7T6811","3VJ4PFXFJ3TL96TFXMATEMT7KJHUAI","","1234","img/animal4.png","76","1235","3","1","3","1,0.7,0,1,0.7,0,0.7,0,1",""
"","html-keyboard-response","318","186414","0.0-318.0","3NGI5ARFTURE9X6DBJN8IY9TFPFP1B","A3ROADR7T6811","3VJ4PFXFJ3TL96TFXMATEMT7KJHUAI","","null","<img src=""img/animal4.png"" style=""width:200px; border:14px solid green;"">","null","","","","","",""
"","image-keyboard-response","319","187140","0.0-319.0","3NGI5ARFTURE9X6DBJN8IY9TFPFP1B","A3ROADR7T6811","3VJ4PFXFJ3TL96TFXMATEMT7KJHUAI","","726","img/animal3.png","75","727","2","1","2","1,0.7,0,1,0.7,0,0.7,0,1",""
"","html-keyboard-response","320","187453","0.0-320.0","3NGI5ARFTURE9X6DBJN8IY9TFPFP1B","A3ROADR7T6811","3VJ4PFXFJ3TL96TFXMATEMT7KJHUAI","","null","<img src=""img/animal3.png"" style=""width:200px; border:14px solid green;"">","null","","","","","",""
"","image-keyboard-response","321","188944","0.0-321.0","3NGI5ARFTURE9X6DBJN8IY9TFPFP1B","A3ROADR7T6811","3VJ4PFXFJ3TL96TFXMATEMT7KJHUAI","","1490","img/animal2.png","74","1490","1","1","1","1,0.7,0,1,0.7,0,0.7,0,1",""
"","html-keyboard-response","322","189255","0.0-322.0","3NGI5ARFTURE9X6DBJN8IY9TFPFP1B","A3ROADR7T6811","3VJ4PFXFJ3TL96TFXMATEMT7KJHUAI","","null","<img src=""img/animal2.png"" style=""width:200px; border:14px solid green;"">","null","","","","","",""
"","image-keyboard-response","323","189965","0.0-323.0","3NGI5ARFTURE9X6DBJN8IY9TFPFP1B","A3ROADR7T6811","3VJ4PFXFJ3TL96TFXMATEMT7KJHUAI","","709","img/animal4.png","76","710","3","1","3","1,0.7,0,1,0.7,0,0.7,0,1",""
"","html-keyboard-response","324","190271","0.0-324.0","3NGI5ARFTURE9X6DBJN8IY9TFPFP1B","A3ROADR7T6811","3VJ4PFXFJ3TL96TFXMATEMT7KJHUAI","","null","<img src=""img/animal4.png"" style=""width:200px; border:14px solid green;"">","null","","","","","",""
"","image-keyboard-response","325","190645","0.0-325.0","3NGI5ARFTURE9X6DBJN8IY9TFPFP1B","A3ROADR7T6811","3VJ4PFXFJ3TL96TFXMATEMT7KJHUAI","","373","img/animal4.png","76","373","3","1","3","1,0.7,0,1,0.7,0,0.7,0,1",""
"","html-keyboard-response","326","190956","0.0-326.0","3NGI5ARFTURE9X6DBJN8IY9TFPFP1B","A3ROADR7T6811","3VJ4PFXFJ3TL96TFXMATEMT7KJHUAI","","null","<img src=""img/animal4.png"" style=""width:200px; border:14px solid green;"">","null","","","","","",""
"","image-keyboard-response","327","191412","0.0-327.0","3NGI5ARFTURE9X6DBJN8IY9TFPFP1B","A3ROADR7T6811","3VJ4PFXFJ3TL96TFXMATEMT7KJHUAI","","454","img/animal3.png","75","455","2","1","2","1,0.7,0,1,0.7,0,0.7,0,1",""
"","html-keyboard-response","328","191720","0.0-328.0","3NGI5ARFTURE9X6DBJN8IY9TFPFP1B","A3ROADR7T6811","3VJ4PFXFJ3TL96TFXMATEMT7KJHUAI","","null","<img src=""img/animal3.png"" style=""width:200px; border:14px solid green;"">","null","","","","","",""
"","image-keyboard-response","329","192540","0.0-329.0","3NGI5ARFTURE9X6DBJN8IY9TFPFP1B","A3ROADR7T6811","3VJ4PFXFJ3TL96TFXMATEMT7KJHUAI","","819","img/animal2.png","74","820","1","1","1","1,0.7,0,1,0.7,0,0.7,0,1",""
"","html-keyboard-response","330","192849","0.0-330.0","3NGI5ARFTURE9X6DBJN8IY9TFPFP1B","A3ROADR7T6811","3VJ4PFXFJ3TL96TFXMATEMT7KJHUAI","","null","<img src=""img/animal2.png"" style=""width:200px; border:14px solid green;"">","null","","","","","",""
"","image-keyboard-response","331","193481","0.0-331.0","3NGI5ARFTURE9X6DBJN8IY9TFPFP1B","A3ROADR7T6811","3VJ4PFXFJ3TL96TFXMATEMT7KJHUAI","","630","img/animal4.png","75","631","2","0","3","1,0.7,0,1,0.7,0,0.7,0,1",""
"","html-keyboard-response","332","193787","0.0-332.0","3NGI5ARFTURE9X6DBJN8IY9TFPFP1B","A3ROADR7T6811","3VJ4PFXFJ3TL96TFXMATEMT7KJHUAI","","null","<img src=""img/animal4.png"" style=""width:200px;border:14px solid red;"">","null","","","","","",""
"","image-keyboard-response","333","194772","0.0-333.0","3NGI5ARFTURE9X6DBJN8IY9TFPFP1B","A3ROADR7T6811","3VJ4PFXFJ3TL96TFXMATEMT7KJHUAI","","985","img/animal2.png","74","985","1","1","1","1,0.7,0,1,0.7,0,0.7,0,1",""
"","html-keyboard-response","334","195075","0.0-334.0","3NGI5ARFTURE9X6DBJN8IY9TFPFP1B","A3ROADR7T6811","3VJ4PFXFJ3TL96TFXMATEMT7KJHUAI","","null","<img src=""img/animal2.png"" style=""width:200px; border:14px solid green;"">","null","","","","","",""
"","image-keyboard-response","335","195479","0.0-335.0","3NGI5ARFTURE9X6DBJN8IY9TFPFP1B","A3ROADR7T6811","3VJ4PFXFJ3TL96TFXMATEMT7KJHUAI","","403","img/animal4.png","76","403","3","1","3","1,0.7,0,1,0.7,0,0.7,0,1",""
"","html-keyboard-response","336","195793","0.0-336.0","3NGI5ARFTURE9X6DBJN8IY9TFPFP1B","A3ROADR7T6811","3VJ4PFXFJ3TL96TFXMATEMT7KJHUAI","","null","<img src=""img/animal4.png"" style=""width:200px; border:14px solid green;"">","null","","","","","",""
"","image-keyboard-response","337","196501","0.0-337.0","3NGI5ARFTURE9X6DBJN8IY9TFPFP1B","A3ROADR7T6811","3VJ4PFXFJ3TL96TFXMATEMT7KJHUAI","","707","img/animal3.png","75","709","2","1","2","1,0.7,0,1,0.7,0,0.7,0,1",""
"","html-keyboard-response","338","196810","0.0-338.0","3NGI5ARFTURE9X6DBJN8IY9TFPFP1B","A3ROADR7T6811","3VJ4PFXFJ3TL96TFXMATEMT7KJHUAI","","null","<img src=""img/animal3.png"" style=""width:200px; border:14px solid green;"">","null","","","","","",""
"","image-keyboard-response","339","197362","0.0-339.0","3NGI5ARFTURE9X6DBJN8IY9TFPFP1B","A3ROADR7T6811","3VJ4PFXFJ3TL96TFXMATEMT7KJHUAI","","551","img/animal4.png","76","552","3","1","3","1,0.7,0,1,0.7,0,0.7,0,1",""
"","html-keyboard-response","340","197666","0.0-340.0","3NGI5ARFTURE9X6DBJN8IY9TFPFP1B","A3ROADR7T6811","3VJ4PFXFJ3TL96TFXMATEMT7KJHUAI","","null","<img src=""img/animal4.png"" style=""width:200px; border:14px solid green;"">","null","","","","","",""
"","image-keyboard-response","341","198172","0.0-341.0","3NGI5ARFTURE9X6DBJN8IY9TFPFP1B","A3ROADR7T6811","3VJ4PFXFJ3TL96TFXMATEMT7KJHUAI","","505","img/animal4.png","76","505","3","1","3","1,0.7,0,1,0.7,0,0.7,0,1",""
"","html-keyboard-response","342","198485","0.0-342.0","3NGI5ARFTURE9X6DBJN8IY9TFPFP1B","A3ROADR7T6811","3VJ4PFXFJ3TL96TFXMATEMT7KJHUAI","","null","<img src=""img/animal4.png"" style=""width:200px; border:14px solid green;"">","null","","","","","",""
"","image-keyboard-response","343","199204","0.0-343.0","3NGI5ARFTURE9X6DBJN8IY9TFPFP1B","A3ROADR7T6811","3VJ4PFXFJ3TL96TFXMATEMT7KJHUAI","","719","img/animal3.png","75","719","2","1","2","1,0.7,0,1,0.7,0,0.7,0,1",""
"","html-keyboard-response","344","199519","0.0-344.0","3NGI5ARFTURE9X6DBJN8IY9TFPFP1B","A3ROADR7T6811","3VJ4PFXFJ3TL96TFXMATEMT7KJHUAI","","null","<img src=""img/animal3.png"" style=""width:200px; border:14px solid green;"">","null","","","","","",""
"","image-keyboard-response","345","199932","0.0-345.0","3NGI5ARFTURE9X6DBJN8IY9TFPFP1B","A3ROADR7T6811","3VJ4PFXFJ3TL96TFXMATEMT7KJHUAI","","412","img/animal3.png","75","412","2","1","2","1,0.7,0,1,0.7,0,0.7,0,1",""
"","html-keyboard-response","346","200243","0.0-346.0","3NGI5ARFTURE9X6DBJN8IY9TFPFP1B","A3ROADR7T6811","3VJ4PFXFJ3TL96TFXMATEMT7KJHUAI","","null","<img src=""img/animal3.png"" style=""width:200px; border:14px solid green;"">","null","","","","","",""
"","image-keyboard-response","347","200863","0.0-347.0","3NGI5ARFTURE9X6DBJN8IY9TFPFP1B","A3ROADR7T6811","3VJ4PFXFJ3TL96TFXMATEMT7KJHUAI","","619","img/animal2.png","74","620","1","1","1","1,0.7,0,1,0.7,0,0.7,0,1",""
"","html-keyboard-response","348","201177","0.0-348.0","3NGI5ARFTURE9X6DBJN8IY9TFPFP1B","A3ROADR7T6811","3VJ4PFXFJ3TL96TFXMATEMT7KJHUAI","","null","<img src=""img/animal2.png"" style=""width:200px; border:14px solid green;"">","null","","","","","",""
"","image-keyboard-response","349","201831","0.0-349.0","3NGI5ARFTURE9X6DBJN8IY9TFPFP1B","A3ROADR7T6811","3VJ4PFXFJ3TL96TFXMATEMT7KJHUAI","","653","img/animal3.png","75","654","2","1","2","1,0.7,0,1,0.7,0,0.7,0,1",""
"","html-keyboard-response","350","202148","0.0-350.0","3NGI5ARFTURE9X6DBJN8IY9TFPFP1B","A3ROADR7T6811","3VJ4PFXFJ3TL96TFXMATEMT7KJHUAI","","null","<img src=""img/animal3.png"" style=""width:200px; border:14px solid green;"">","null","","","","","",""
"","image-keyboard-response","351","202518","0.0-351.0","3NGI5ARFTURE9X6DBJN8IY9TFPFP1B","A3ROADR7T6811","3VJ4PFXFJ3TL96TFXMATEMT7KJHUAI","","369","img/animal3.png","75","370","2","1","2","1,0.7,0,1,0.7,0,0.7,0,1",""
"","html-keyboard-response","352","202827","0.0-352.0","3NGI5ARFTURE9X6DBJN8IY9TFPFP1B","A3ROADR7T6811","3VJ4PFXFJ3TL96TFXMATEMT7KJHUAI","","null","<img src=""img/animal3.png"" style=""width:200px; border:14px solid green;"">","null","","","","","",""
"","image-keyboard-response","353","203290","0.0-353.0","3NGI5ARFTURE9X6DBJN8IY9TFPFP1B","A3ROADR7T6811","3VJ4PFXFJ3TL96TFXMATEMT7KJHUAI","","462","img/animal3.png","75","462","2","1","2","1,0.7,0,1,0.7,0,0.7,0,1",""
"","html-keyboard-response","354","203598","0.0-354.0","3NGI5ARFTURE9X6DBJN8IY9TFPFP1B","A3ROADR7T6811","3VJ4PFXFJ3TL96TFXMATEMT7KJHUAI","","null","<img src=""img/animal3.png"" style=""width:200px; border:14px solid green;"">","null","","","","","",""
"","image-keyboard-response","355","204442","0.0-355.0","3NGI5ARFTURE9X6DBJN8IY9TFPFP1B","A3ROADR7T6811","3VJ4PFXFJ3TL96TFXMATEMT7KJHUAI","","843","img/animal2.png","74","843","1","1","1","1,0.7,0,1,0.7,0,0.7,0,1",""
"","html-keyboard-response","356","204753","0.0-356.0","3NGI5ARFTURE9X6DBJN8IY9TFPFP1B","A3ROADR7T6811","3VJ4PFXFJ3TL96TFXMATEMT7KJHUAI","","null","<img src=""img/animal2.png"" style=""width:200px; border:14px solid green;"">","null","","","","","",""
"","image-keyboard-response","357","205633","0.0-357.0","3NGI5ARFTURE9X6DBJN8IY9TFPFP1B","A3ROADR7T6811","3VJ4PFXFJ3TL96TFXMATEMT7KJHUAI","","878","img/animal3.png","75","879","2","1","2","1,0.7,0,1,0.7,0,0.7,0,1",""
"","html-keyboard-response","358","205955","0.0-358.0","3NGI5ARFTURE9X6DBJN8IY9TFPFP1B","A3ROADR7T6811","3VJ4PFXFJ3TL96TFXMATEMT7KJHUAI","","null","<img src=""img/animal3.png"" style=""width:200px; border:14px solid green;"">","null","","","","","",""
"","image-keyboard-response","359","206614","0.0-359.0","3NGI5ARFTURE9X6DBJN8IY9TFPFP1B","A3ROADR7T6811","3VJ4PFXFJ3TL96TFXMATEMT7KJHUAI","","657","img/animal4.png","76","659","3","1","3","1,0.7,0,1,0.7,0,0.7,0,1",""
"","html-keyboard-response","360","206918","0.0-360.0","3NGI5ARFTURE9X6DBJN8IY9TFPFP1B","A3ROADR7T6811","3VJ4PFXFJ3TL96TFXMATEMT7KJHUAI","","null","<img src=""img/animal4.png"" style=""width:200px; border:14px solid green;"">","null","","","","","",""
"","image-keyboard-response","361","208648","0.0-361.0","3NGI5ARFTURE9X6DBJN8IY9TFPFP1B","A3ROADR7T6811","3VJ4PFXFJ3TL96TFXMATEMT7KJHUAI","","1729","img/animal2.png","74","1730","1","1","1","1,0.7,0,1,0.7,0,0.7,0,1",""
"","html-keyboard-response","362","208959","0.0-362.0","3NGI5ARFTURE9X6DBJN8IY9TFPFP1B","A3ROADR7T6811","3VJ4PFXFJ3TL96TFXMATEMT7KJHUAI","","null","<img src=""img/animal2.png"" style=""width:200px; border:14px solid green;"">","null","","","","","",""
"","instructions","363","214978","0.0-363.0","3NGI5ARFTURE9X6DBJN8IY9TFPFP1B","A3ROADR7T6811","3VJ4PFXFJ3TL96TFXMATEMT7KJHUAI","[{""page_index"":0,""viewing_time"":6018}]","6018","","","","","","","",""
"","survey-text","364","218097","0.0-364.0","3NGI5ARFTURE9X6DBJN8IY9TFPFP1B","A3ROADR7T6811","3VJ4PFXFJ3TL96TFXMATEMT7KJHUAI","","3114","","","","","","","","{""Q0"":""A3ROADR7T6811""}"
