"success","trial_type","trial_index","time_elapsed","internal_node_id","assignmentID","mturkID","hitID","view_history","rt","stimulus","key_press","reactionTime","a","r","s","reward_cond","responses"
"true","fullscreen","0","9540","0.0-0.0","3PDJHANYK62H329MYCRK4LYJYYSH6E","A3RUL1OC4CAINK","3TZDZ3Y0JSSRVQSC3SM97PDQ3Z7196","","","","","","","","","",""
"","instructions","1","129057","0.0-1.0","3PDJHANYK62H329MYCRK4LYJYYSH6E","A3RUL1OC4CAINK","3TZDZ3Y0JSSRVQSC3SM97PDQ3Z7196","[{""page_index"":0,""viewing_time"":10585},{""page_index"":1,""viewing_time"":7878},{""page_index"":2,""viewing_time"":4308},{""page_index"":3,""viewing_time"":6283.899999976158},{""page_index"":4,""viewing_time"":6122},{""page_index"":5,""viewing_time"":12914.300000011921},{""page_index"":6,""viewing_time"":69655.19999998808},{""page_index"":7,""viewing_time"":1768.3999999761581}]","119515.69999998808","","","","","","","",""
"","image-keyboard-response","2","130797","0.0-2.0","3PDJHANYK62H329MYCRK4LYJYYSH6E","A3RUL1OC4CAINK","3TZDZ3Y0JSSRVQSC3SM97PDQ3Z7196","","1738","img/animal4.png","74","1739.7000000476837","1","1","1","0.5,0,1,1,0.5,0,0,1,0.5",""
"","html-keyboard-response","3","131102","0.0-3.0","3PDJHANYK62H329MYCRK4LYJYYSH6E","A3RUL1OC4CAINK","3TZDZ3Y0JSSRVQSC3SM97PDQ3Z7196","","null","<img src=""img/animal4.png"" style=""width:200px; border:14px solid green;"">","null","","","","","",""
"","image-keyboard-response","4","132629","0.0-4.0","3PDJHANYK62H329MYCRK4LYJYYSH6E","A3RUL1OC4CAINK","3TZDZ3Y0JSSRVQSC3SM97PDQ3Z7196","","1525.5","img/animal3.png","75","1527","2","1","3","0.5,0,1,1,0.5,0,0,1,0.5",""
"","html-keyboard-response","5","132933","0.0-5.0","3PDJHANYK62H329MYCRK4LYJYYSH6E","A3RUL1OC4CAINK","3TZDZ3Y0JSSRVQSC3SM97PDQ3Z7196","","null","<img src=""img/animal3.png"" style=""width:200px; border:14px solid green;"">","null","","","","","",""
"","image-keyboard-response","6","134093","0.0-6.0","3PDJHANYK62H329MYCRK4LYJYYSH6E","A3RUL1OC4CAINK","3TZDZ3Y0JSSRVQSC3SM97PDQ3Z7196","","1158.5","img/animal3.png","75","1159.699999988079","2","1","3","0.5,0,1,1,0.5,0,0,1,0.5",""
"","html-keyboard-response","7","134395","0.0-7.0","3PDJHANYK62H329MYCRK4LYJYYSH6E","A3RUL1OC4CAINK","3TZDZ3Y0JSSRVQSC3SM97PDQ3Z7196","","null","<img src=""img/animal3.png"" style=""width:200px; border:14px solid green;"">","null","","","","","",""
"","image-keyboard-response","8","135326","0.0-8.0","3PDJHANYK62H329MYCRK4LYJYYSH6E","A3RUL1OC4CAINK","3TZDZ3Y0JSSRVQSC3SM97PDQ3Z7196","","929.6000000238419","img/animal4.png","74","930.5999999642372","1","1","1","0.5,0,1,1,0.5,0,0,1,0.5",""
"","html-keyboard-response","9","135629","0.0-9.0","3PDJHANYK62H329MYCRK4LYJYYSH6E","A3RUL1OC4CAINK","3TZDZ3Y0JSSRVQSC3SM97PDQ3Z7196","","null","<img src=""img/animal4.png"" style=""width:200px; border:14px solid green;"">","null","","","","","",""
"","image-keyboard-response","10","136166","0.0-10.0","3PDJHANYK62H329MYCRK4LYJYYSH6E","A3RUL1OC4CAINK","3TZDZ3Y0JSSRVQSC3SM97PDQ3Z7196","","534.5999999642372","img/animal3.png","75","536.4000000357628","2","1","3","0.5,0,1,1,0.5,0,0,1,0.5",""
"","html-keyboard-response","11","136468","0.0-11.0","3PDJHANYK62H329MYCRK4LYJYYSH6E","A3RUL1OC4CAINK","3TZDZ3Y0JSSRVQSC3SM97PDQ3Z7196","","null","<img src=""img/animal3.png"" style=""width:200px; border:14px solid green;"">","null","","","","","",""
"","image-keyboard-response","12","137058","0.0-12.0","3PDJHANYK62H329MYCRK4LYJYYSH6E","A3RUL1OC4CAINK","3TZDZ3Y0JSSRVQSC3SM97PDQ3Z7196","","587.5","img/animal3.png","75","588.8999999761581","2","1","3","0.5,0,1,1,0.5,0,0,1,0.5",""
"","html-keyboard-response","13","137361","0.0-13.0","3PDJHANYK62H329MYCRK4LYJYYSH6E","A3RUL1OC4CAINK","3TZDZ3Y0JSSRVQSC3SM97PDQ3Z7196","","null","<img src=""img/animal3.png"" style=""width:200px; border:14px solid green;"">","null","","","","","",""
"","image-keyboard-response","14","137872","0.0-14.0","3PDJHANYK62H329MYCRK4LYJYYSH6E","A3RUL1OC4CAINK","3TZDZ3Y0JSSRVQSC3SM97PDQ3Z7196","","511","img/animal3.png","75","511.80000001192093","2","1","3","0.5,0,1,1,0.5,0,0,1,0.5",""
"","html-keyboard-response","15","138174","0.0-15.0","3PDJHANYK62H329MYCRK4LYJYYSH6E","A3RUL1OC4CAINK","3TZDZ3Y0JSSRVQSC3SM97PDQ3Z7196","","null","<img src=""img/animal3.png"" style=""width:200px; border:14px solid green;"">","null","","","","","",""
"","image-keyboard-response","16","138779","0.0-16.0","3PDJHANYK62H329MYCRK4LYJYYSH6E","A3RUL1OC4CAINK","3TZDZ3Y0JSSRVQSC3SM97PDQ3Z7196","","604.3999999761581","img/animal1.png","76","604.9000000357628","3","0","2","0.5,0,1,1,0.5,0,0,1,0.5",""
"","html-keyboard-response","17","139081","0.0-17.0","3PDJHANYK62H329MYCRK4LYJYYSH6E","A3RUL1OC4CAINK","3TZDZ3Y0JSSRVQSC3SM97PDQ3Z7196","","null","<img src=""img/animal1.png"" style=""width:200px;border:14px solid red;"">","null","","","","","",""
"","image-keyboard-response","18","140116","0.0-18.0","3PDJHANYK62H329MYCRK4LYJYYSH6E","A3RUL1OC4CAINK","3TZDZ3Y0JSSRVQSC3SM97PDQ3Z7196","","1033.3999999761581","img/animal4.png","74","1034.5","1","0","1","0.5,0,1,1,0.5,0,0,1,0.5",""
"","html-keyboard-response","19","140419","0.0-19.0","3PDJHANYK62H329MYCRK4LYJYYSH6E","A3RUL1OC4CAINK","3TZDZ3Y0JSSRVQSC3SM97PDQ3Z7196","","null","<img src=""img/animal4.png"" style=""width:200px;border:14px solid red;"">","null","","","","","",""
"","image-keyboard-response","20","141253","0.0-20.0","3PDJHANYK62H329MYCRK4LYJYYSH6E","A3RUL1OC4CAINK","3TZDZ3Y0JSSRVQSC3SM97PDQ3Z7196","","833.5","img/animal1.png","76","834.5999999642372","3","0","2","0.5,0,1,1,0.5,0,0,1,0.5",""
"","html-keyboard-response","21","141554","0.0-21.0","3PDJHANYK62H329MYCRK4LYJYYSH6E","A3RUL1OC4CAINK","3TZDZ3Y0JSSRVQSC3SM97PDQ3Z7196","","null","<img src=""img/animal1.png"" style=""width:200px;border:14px solid red;"">","null","","","","","",""
"","image-keyboard-response","22","142111","0.0-22.0","3PDJHANYK62H329MYCRK4LYJYYSH6E","A3RUL1OC4CAINK","3TZDZ3Y0JSSRVQSC3SM97PDQ3Z7196","","555.6000000238419","img/animal1.png","76","556.5999999642372","3","0","2","0.5,0,1,1,0.5,0,0,1,0.5",""
"","html-keyboard-response","23","142414","0.0-23.0","3PDJHANYK62H329MYCRK4LYJYYSH6E","A3RUL1OC4CAINK","3TZDZ3Y0JSSRVQSC3SM97PDQ3Z7196","","null","<img src=""img/animal1.png"" style=""width:200px;border:14px solid red;"">","null","","","","","",""
"","image-keyboard-response","24","142925","0.0-24.0","3PDJHANYK62H329MYCRK4LYJYYSH6E","A3RUL1OC4CAINK","3TZDZ3Y0JSSRVQSC3SM97PDQ3Z7196","","509.80000001192093","img/animal1.png","76","510.89999997615814","3","0","2","0.5,0,1,1,0.5,0,0,1,0.5",""
"","html-keyboard-response","25","143227","0.0-25.0","3PDJHANYK62H329MYCRK4LYJYYSH6E","A3RUL1OC4CAINK","3TZDZ3Y0JSSRVQSC3SM97PDQ3Z7196","","null","<img src=""img/animal1.png"" style=""width:200px;border:14px solid red;"">","null","","","","","",""
"","image-keyboard-response","26","143918","0.0-26.0","3PDJHANYK62H329MYCRK4LYJYYSH6E","A3RUL1OC4CAINK","3TZDZ3Y0JSSRVQSC3SM97PDQ3Z7196","","690.3999999761581","img/animal4.png","74","691.1000000238419","1","0","1","0.5,0,1,1,0.5,0,0,1,0.5",""
"","html-keyboard-response","27","144220","0.0-27.0","3PDJHANYK62H329MYCRK4LYJYYSH6E","A3RUL1OC4CAINK","3TZDZ3Y0JSSRVQSC3SM97PDQ3Z7196","","null","<img src=""img/animal4.png"" style=""width:200px;border:14px solid red;"">","null","","","","","",""
"","image-keyboard-response","28","146052","0.0-28.0","3PDJHANYK62H329MYCRK4LYJYYSH6E","A3RUL1OC4CAINK","3TZDZ3Y0JSSRVQSC3SM97PDQ3Z7196","","1831.5","img/animal1.png","75","1832.1000000238419","2","0","2","0.5,0,1,1,0.5,0,0,1,0.5",""
"","html-keyboard-response","29","146354","0.0-29.0","3PDJHANYK62H329MYCRK4LYJYYSH6E","A3RUL1OC4CAINK","3TZDZ3Y0JSSRVQSC3SM97PDQ3Z7196","","null","<img src=""img/animal1.png"" style=""width:200px;border:14px solid red;"">","null","","","","","",""
"","image-keyboard-response","30","147133","0.0-30.0","3PDJHANYK62H329MYCRK4LYJYYSH6E","A3RUL1OC4CAINK","3TZDZ3Y0JSSRVQSC3SM97PDQ3Z7196","","777.5","img/animal4.png","74","778.5","1","0","1","0.5,0,1,1,0.5,0,0,1,0.5",""
"","html-keyboard-response","31","147435","0.0-31.0","3PDJHANYK62H329MYCRK4LYJYYSH6E","A3RUL1OC4CAINK","3TZDZ3Y0JSSRVQSC3SM97PDQ3Z7196","","null","<img src=""img/animal4.png"" style=""width:200px;border:14px solid red;"">","null","","","","","",""
"","image-keyboard-response","32","148360","0.0-32.0","3PDJHANYK62H329MYCRK4LYJYYSH6E","A3RUL1OC4CAINK","3TZDZ3Y0JSSRVQSC3SM97PDQ3Z7196","","924.6000000238419","img/animal4.png","74","925","1","1","1","0.5,0,1,1,0.5,0,0,1,0.5",""
"","html-keyboard-response","33","148666","0.0-33.0","3PDJHANYK62H329MYCRK4LYJYYSH6E","A3RUL1OC4CAINK","3TZDZ3Y0JSSRVQSC3SM97PDQ3Z7196","","null","<img src=""img/animal4.png"" style=""width:200px; border:14px solid green;"">","null","","","","","",""
"","image-keyboard-response","34","149487","0.0-34.0","3PDJHANYK62H329MYCRK4LYJYYSH6E","A3RUL1OC4CAINK","3TZDZ3Y0JSSRVQSC3SM97PDQ3Z7196","","819.6999999880791","img/animal3.png","75","821.1999999880791","2","1","3","0.5,0,1,1,0.5,0,0,1,0.5",""
"","html-keyboard-response","35","149791","0.0-35.0","3PDJHANYK62H329MYCRK4LYJYYSH6E","A3RUL1OC4CAINK","3TZDZ3Y0JSSRVQSC3SM97PDQ3Z7196","","null","<img src=""img/animal3.png"" style=""width:200px; border:14px solid green;"">","null","","","","","",""
"","image-keyboard-response","36","150235","0.0-36.0","3PDJHANYK62H329MYCRK4LYJYYSH6E","A3RUL1OC4CAINK","3TZDZ3Y0JSSRVQSC3SM97PDQ3Z7196","","443","img/animal3.png","75","444.30000001192093","2","1","3","0.5,0,1,1,0.5,0,0,1,0.5",""
"","html-keyboard-response","37","150538","0.0-37.0","3PDJHANYK62H329MYCRK4LYJYYSH6E","A3RUL1OC4CAINK","3TZDZ3Y0JSSRVQSC3SM97PDQ3Z7196","","null","<img src=""img/animal3.png"" style=""width:200px; border:14px solid green;"">","null","","","","","",""
"","image-keyboard-response","38","151214","0.0-38.0","3PDJHANYK62H329MYCRK4LYJYYSH6E","A3RUL1OC4CAINK","3TZDZ3Y0JSSRVQSC3SM97PDQ3Z7196","","674.4000000357628","img/animal1.png","76","675.5","3","0","2","0.5,0,1,1,0.5,0,0,1,0.5",""
"","html-keyboard-response","39","151516","0.0-39.0","3PDJHANYK62H329MYCRK4LYJYYSH6E","A3RUL1OC4CAINK","3TZDZ3Y0JSSRVQSC3SM97PDQ3Z7196","","null","<img src=""img/animal1.png"" style=""width:200px;border:14px solid red;"">","null","","","","","",""
"","image-keyboard-response","40","152413","0.0-40.0","3PDJHANYK62H329MYCRK4LYJYYSH6E","A3RUL1OC4CAINK","3TZDZ3Y0JSSRVQSC3SM97PDQ3Z7196","","896","img/animal3.png","75","896.6000000238419","2","1","3","0.5,0,1,1,0.5,0,0,1,0.5",""
"","html-keyboard-response","41","152715","0.0-41.0","3PDJHANYK62H329MYCRK4LYJYYSH6E","A3RUL1OC4CAINK","3TZDZ3Y0JSSRVQSC3SM97PDQ3Z7196","","null","<img src=""img/animal3.png"" style=""width:200px; border:14px solid green;"">","null","","","","","",""
"","image-keyboard-response","42","153110","0.0-42.0","3PDJHANYK62H329MYCRK4LYJYYSH6E","A3RUL1OC4CAINK","3TZDZ3Y0JSSRVQSC3SM97PDQ3Z7196","","395","img/animal3.png","75","395.89999997615814","2","1","3","0.5,0,1,1,0.5,0,0,1,0.5",""
"","html-keyboard-response","43","153413","0.0-43.0","3PDJHANYK62H329MYCRK4LYJYYSH6E","A3RUL1OC4CAINK","3TZDZ3Y0JSSRVQSC3SM97PDQ3Z7196","","null","<img src=""img/animal3.png"" style=""width:200px; border:14px solid green;"">","null","","","","","",""
"","image-keyboard-response","44","153768","0.0-44.0","3PDJHANYK62H329MYCRK4LYJYYSH6E","A3RUL1OC4CAINK","3TZDZ3Y0JSSRVQSC3SM97PDQ3Z7196","","353.60000002384186","img/animal3.png","75","354.30000001192093","2","1","3","0.5,0,1,1,0.5,0,0,1,0.5",""
"","html-keyboard-response","45","154070","0.0-45.0","3PDJHANYK62H329MYCRK4LYJYYSH6E","A3RUL1OC4CAINK","3TZDZ3Y0JSSRVQSC3SM97PDQ3Z7196","","null","<img src=""img/animal3.png"" style=""width:200px; border:14px solid green;"">","null","","","","","",""
"","image-keyboard-response","46","154981","0.0-46.0","3PDJHANYK62H329MYCRK4LYJYYSH6E","A3RUL1OC4CAINK","3TZDZ3Y0JSSRVQSC3SM97PDQ3Z7196","","909.8000000119209","img/animal1.png","76","910.8000000119209","3","0","2","0.5,0,1,1,0.5,0,0,1,0.5",""
"","html-keyboard-response","47","155284","0.0-47.0","3PDJHANYK62H329MYCRK4LYJYYSH6E","A3RUL1OC4CAINK","3TZDZ3Y0JSSRVQSC3SM97PDQ3Z7196","","null","<img src=""img/animal1.png"" style=""width:200px;border:14px solid red;"">","null","","","","","",""
"","image-keyboard-response","48","155701","0.0-48.0","3PDJHANYK62H329MYCRK4LYJYYSH6E","A3RUL1OC4CAINK","3TZDZ3Y0JSSRVQSC3SM97PDQ3Z7196","","416.4000000357628","img/animal1.png","76","417.30000001192093","3","0","2","0.5,0,1,1,0.5,0,0,1,0.5",""
"","html-keyboard-response","49","156002","0.0-49.0","3PDJHANYK62H329MYCRK4LYJYYSH6E","A3RUL1OC4CAINK","3TZDZ3Y0JSSRVQSC3SM97PDQ3Z7196","","null","<img src=""img/animal1.png"" style=""width:200px;border:14px solid red;"">","null","","","","","",""
"","image-keyboard-response","50","156973","0.0-50.0","3PDJHANYK62H329MYCRK4LYJYYSH6E","A3RUL1OC4CAINK","3TZDZ3Y0JSSRVQSC3SM97PDQ3Z7196","","970.2000000476837","img/animal3.png","75","970.8999999761581","2","1","3","0.5,0,1,1,0.5,0,0,1,0.5",""
"","html-keyboard-response","51","157275","0.0-51.0","3PDJHANYK62H329MYCRK4LYJYYSH6E","A3RUL1OC4CAINK","3TZDZ3Y0JSSRVQSC3SM97PDQ3Z7196","","null","<img src=""img/animal3.png"" style=""width:200px; border:14px solid green;"">","null","","","","","",""
"","image-keyboard-response","52","158109","0.0-52.0","3PDJHANYK62H329MYCRK4LYJYYSH6E","A3RUL1OC4CAINK","3TZDZ3Y0JSSRVQSC3SM97PDQ3Z7196","","833.5","img/animal4.png","74","834.1999999880791","1","0","1","0.5,0,1,1,0.5,0,0,1,0.5",""
"","html-keyboard-response","53","158412","0.0-53.0","3PDJHANYK62H329MYCRK4LYJYYSH6E","A3RUL1OC4CAINK","3TZDZ3Y0JSSRVQSC3SM97PDQ3Z7196","","null","<img src=""img/animal4.png"" style=""width:200px;border:14px solid red;"">","null","","","","","",""
"","image-keyboard-response","54","159256","0.0-54.0","3PDJHANYK62H329MYCRK4LYJYYSH6E","A3RUL1OC4CAINK","3TZDZ3Y0JSSRVQSC3SM97PDQ3Z7196","","843.3999999761581","img/animal3.png","75","844.1999999880791","2","1","3","0.5,0,1,1,0.5,0,0,1,0.5",""
"","html-keyboard-response","55","159558","0.0-55.0","3PDJHANYK62H329MYCRK4LYJYYSH6E","A3RUL1OC4CAINK","3TZDZ3Y0JSSRVQSC3SM97PDQ3Z7196","","null","<img src=""img/animal3.png"" style=""width:200px; border:14px solid green;"">","null","","","","","",""
"","image-keyboard-response","56","160316","0.0-56.0","3PDJHANYK62H329MYCRK4LYJYYSH6E","A3RUL1OC4CAINK","3TZDZ3Y0JSSRVQSC3SM97PDQ3Z7196","","757.1999999880791","img/animal4.png","74","757.6999999880791","1","1","1","0.5,0,1,1,0.5,0,0,1,0.5",""
"","html-keyboard-response","57","160618","0.0-57.0","3PDJHANYK62H329MYCRK4LYJYYSH6E","A3RUL1OC4CAINK","3TZDZ3Y0JSSRVQSC3SM97PDQ3Z7196","","null","<img src=""img/animal4.png"" style=""width:200px; border:14px solid green;"">","null","","","","","",""
"","image-keyboard-response","58","161094","0.0-58.0","3PDJHANYK62H329MYCRK4LYJYYSH6E","A3RUL1OC4CAINK","3TZDZ3Y0JSSRVQSC3SM97PDQ3Z7196","","474.9000000357628","img/animal4.png","74","476.19999998807907","1","0","1","0.5,0,1,1,0.5,0,0,1,0.5",""
"","html-keyboard-response","59","161396","0.0-59.0","3PDJHANYK62H329MYCRK4LYJYYSH6E","A3RUL1OC4CAINK","3TZDZ3Y0JSSRVQSC3SM97PDQ3Z7196","","null","<img src=""img/animal4.png"" style=""width:200px;border:14px solid red;"">","null","","","","","",""
"","image-keyboard-response","60","162198","0.0-60.0","3PDJHANYK62H329MYCRK4LYJYYSH6E","A3RUL1OC4CAINK","3TZDZ3Y0JSSRVQSC3SM97PDQ3Z7196","","800","img/animal1.png","76","801.0999999642372","3","0","2","0.5,0,1,1,0.5,0,0,1,0.5",""
"","html-keyboard-response","61","162499","0.0-61.0","3PDJHANYK62H329MYCRK4LYJYYSH6E","A3RUL1OC4CAINK","3TZDZ3Y0JSSRVQSC3SM97PDQ3Z7196","","null","<img src=""img/animal1.png"" style=""width:200px;border:14px solid red;"">","null","","","","","",""
"","image-keyboard-response","62","163243","0.0-62.0","3PDJHANYK62H329MYCRK4LYJYYSH6E","A3RUL1OC4CAINK","3TZDZ3Y0JSSRVQSC3SM97PDQ3Z7196","","742.9000000357628","img/animal4.png","74","743.6999999880791","1","0","1","0.5,0,1,1,0.5,0,0,1,0.5",""
"","html-keyboard-response","63","163545","0.0-63.0","3PDJHANYK62H329MYCRK4LYJYYSH6E","A3RUL1OC4CAINK","3TZDZ3Y0JSSRVQSC3SM97PDQ3Z7196","","null","<img src=""img/animal4.png"" style=""width:200px;border:14px solid red;"">","null","","","","","",""
"","image-keyboard-response","64","165605","0.0-64.0","3PDJHANYK62H329MYCRK4LYJYYSH6E","A3RUL1OC4CAINK","3TZDZ3Y0JSSRVQSC3SM97PDQ3Z7196","","2057.199999988079","img/animal1.png","76","2058.899999976158","3","0","2","0.5,0,1,1,0.5,0,0,1,0.5",""
"","html-keyboard-response","65","165907","0.0-65.0","3PDJHANYK62H329MYCRK4LYJYYSH6E","A3RUL1OC4CAINK","3TZDZ3Y0JSSRVQSC3SM97PDQ3Z7196","","null","<img src=""img/animal1.png"" style=""width:200px;border:14px solid red;"">","null","","","","","",""
"","image-keyboard-response","66","166694","0.0-66.0","3PDJHANYK62H329MYCRK4LYJYYSH6E","A3RUL1OC4CAINK","3TZDZ3Y0JSSRVQSC3SM97PDQ3Z7196","","785.5999999642372","img/animal4.png","74","786.6999999880791","1","1","1","0.5,0,1,1,0.5,0,0,1,0.5",""
"","html-keyboard-response","67","166996","0.0-67.0","3PDJHANYK62H329MYCRK4LYJYYSH6E","A3RUL1OC4CAINK","3TZDZ3Y0JSSRVQSC3SM97PDQ3Z7196","","null","<img src=""img/animal4.png"" style=""width:200px; border:14px solid green;"">","null","","","","","",""
"","image-keyboard-response","68","167719","0.0-68.0","3PDJHANYK62H329MYCRK4LYJYYSH6E","A3RUL1OC4CAINK","3TZDZ3Y0JSSRVQSC3SM97PDQ3Z7196","","720.5","img/animal4.png","74","721.7999999523163","1","1","1","0.5,0,1,1,0.5,0,0,1,0.5",""
"","html-keyboard-response","69","168022","0.0-69.0","3PDJHANYK62H329MYCRK4LYJYYSH6E","A3RUL1OC4CAINK","3TZDZ3Y0JSSRVQSC3SM97PDQ3Z7196","","null","<img src=""img/animal4.png"" style=""width:200px; border:14px solid green;"">","null","","","","","",""
"","image-keyboard-response","70","168539","0.0-70.0","3PDJHANYK62H329MYCRK4LYJYYSH6E","A3RUL1OC4CAINK","3TZDZ3Y0JSSRVQSC3SM97PDQ3Z7196","","516.7000000476837","img/animal4.png","74","517.6000000238419","1","1","1","0.5,0,1,1,0.5,0,0,1,0.5",""
"","html-keyboard-response","71","168842","0.0-71.0","3PDJHANYK62H329MYCRK4LYJYYSH6E","A3RUL1OC4CAINK","3TZDZ3Y0JSSRVQSC3SM97PDQ3Z7196","","null","<img src=""img/animal4.png"" style=""width:200px; border:14px solid green;"">","null","","","","","",""
"","image-keyboard-response","72","169719","0.0-72.0","3PDJHANYK62H329MYCRK4LYJYYSH6E","A3RUL1OC4CAINK","3TZDZ3Y0JSSRVQSC3SM97PDQ3Z7196","","876.4000000357628","img/animal1.png","76","877","3","0","2","0.5,0,1,1,0.5,0,0,1,0.5",""
"","html-keyboard-response","73","170031","0.0-73.0","3PDJHANYK62H329MYCRK4LYJYYSH6E","A3RUL1OC4CAINK","3TZDZ3Y0JSSRVQSC3SM97PDQ3Z7196","","null","<img src=""img/animal1.png"" style=""width:200px;border:14px solid red;"">","null","","","","","",""
"","image-keyboard-response","74","170645","0.0-74.0","3PDJHANYK62H329MYCRK4LYJYYSH6E","A3RUL1OC4CAINK","3TZDZ3Y0JSSRVQSC3SM97PDQ3Z7196","","613.8999999761581","img/animal4.png","74","614.3999999761581","1","0","1","0.5,0,1,1,0.5,0,0,1,0.5",""
"","html-keyboard-response","75","170947","0.0-75.0","3PDJHANYK62H329MYCRK4LYJYYSH6E","A3RUL1OC4CAINK","3TZDZ3Y0JSSRVQSC3SM97PDQ3Z7196","","null","<img src=""img/animal4.png"" style=""width:200px;border:14px solid red;"">","null","","","","","",""
"","image-keyboard-response","76","171344","0.0-76.0","3PDJHANYK62H329MYCRK4LYJYYSH6E","A3RUL1OC4CAINK","3TZDZ3Y0JSSRVQSC3SM97PDQ3Z7196","","396.10000002384186","img/animal4.png","74","396.9000000357628","1","0","1","0.5,0,1,1,0.5,0,0,1,0.5",""
"","html-keyboard-response","77","171646","0.0-77.0","3PDJHANYK62H329MYCRK4LYJYYSH6E","A3RUL1OC4CAINK","3TZDZ3Y0JSSRVQSC3SM97PDQ3Z7196","","null","<img src=""img/animal4.png"" style=""width:200px;border:14px solid red;"">","null","","","","","",""
"","image-keyboard-response","78","172420","0.0-78.0","3PDJHANYK62H329MYCRK4LYJYYSH6E","A3RUL1OC4CAINK","3TZDZ3Y0JSSRVQSC3SM97PDQ3Z7196","","773.1000000238419","img/animal3.png","75","774.3999999761581","2","1","3","0.5,0,1,1,0.5,0,0,1,0.5",""
"","html-keyboard-response","79","172724","0.0-79.0","3PDJHANYK62H329MYCRK4LYJYYSH6E","A3RUL1OC4CAINK","3TZDZ3Y0JSSRVQSC3SM97PDQ3Z7196","","null","<img src=""img/animal3.png"" style=""width:200px; border:14px solid green;"">","null","","","","","",""
"","image-keyboard-response","80","174756","0.0-80.0","3PDJHANYK62H329MYCRK4LYJYYSH6E","A3RUL1OC4CAINK","3TZDZ3Y0JSSRVQSC3SM97PDQ3Z7196","","2031.1000000238419","img/animal4.png","76","2031.9000000357628","3","1","1","0.5,0,1,1,0.5,0,0,1,0.5",""
"","html-keyboard-response","81","175058","0.0-81.0","3PDJHANYK62H329MYCRK4LYJYYSH6E","A3RUL1OC4CAINK","3TZDZ3Y0JSSRVQSC3SM97PDQ3Z7196","","null","<img src=""img/animal4.png"" style=""width:200px; border:14px solid green;"">","null","","","","","",""
"","image-keyboard-response","82","175911","0.0-82.0","3PDJHANYK62H329MYCRK4LYJYYSH6E","A3RUL1OC4CAINK","3TZDZ3Y0JSSRVQSC3SM97PDQ3Z7196","","852.1999999880791","img/animal3.png","75","853","2","1","3","0.5,0,1,1,0.5,0,0,1,0.5",""
"","html-keyboard-response","83","176215","0.0-83.0","3PDJHANYK62H329MYCRK4LYJYYSH6E","A3RUL1OC4CAINK","3TZDZ3Y0JSSRVQSC3SM97PDQ3Z7196","","null","<img src=""img/animal3.png"" style=""width:200px; border:14px solid green;"">","null","","","","","",""
"","image-keyboard-response","84","176819","0.0-84.0","3PDJHANYK62H329MYCRK4LYJYYSH6E","A3RUL1OC4CAINK","3TZDZ3Y0JSSRVQSC3SM97PDQ3Z7196","","602.8999999761581","img/animal4.png","76","604","3","1","1","0.5,0,1,1,0.5,0,0,1,0.5",""
"","html-keyboard-response","85","177121","0.0-85.0","3PDJHANYK62H329MYCRK4LYJYYSH6E","A3RUL1OC4CAINK","3TZDZ3Y0JSSRVQSC3SM97PDQ3Z7196","","null","<img src=""img/animal4.png"" style=""width:200px; border:14px solid green;"">","null","","","","","",""
"","image-keyboard-response","86","180550","0.0-86.0","3PDJHANYK62H329MYCRK4LYJYYSH6E","A3RUL1OC4CAINK","3TZDZ3Y0JSSRVQSC3SM97PDQ3Z7196","","3428.399999976158","img/animal1.png","74","3429.099999964237","1","1","2","0.5,0,1,1,0.5,0,0,1,0.5",""
"","html-keyboard-response","87","180853","0.0-87.0","3PDJHANYK62H329MYCRK4LYJYYSH6E","A3RUL1OC4CAINK","3TZDZ3Y0JSSRVQSC3SM97PDQ3Z7196","","null","<img src=""img/animal1.png"" style=""width:200px; border:14px solid green;"">","null","","","","","",""
"","image-keyboard-response","88","181516","0.0-88.0","3PDJHANYK62H329MYCRK4LYJYYSH6E","A3RUL1OC4CAINK","3TZDZ3Y0JSSRVQSC3SM97PDQ3Z7196","","661.1999999880791","img/animal1.png","74","662.5","1","1","2","0.5,0,1,1,0.5,0,0,1,0.5",""
"","html-keyboard-response","89","181818","0.0-89.0","3PDJHANYK62H329MYCRK4LYJYYSH6E","A3RUL1OC4CAINK","3TZDZ3Y0JSSRVQSC3SM97PDQ3Z7196","","null","<img src=""img/animal1.png"" style=""width:200px; border:14px solid green;"">","null","","","","","",""
"","image-keyboard-response","90","182608","0.0-90.0","3PDJHANYK62H329MYCRK4LYJYYSH6E","A3RUL1OC4CAINK","3TZDZ3Y0JSSRVQSC3SM97PDQ3Z7196","","788.8999999761581","img/animal3.png","75","789.6999999880791","2","1","3","0.5,0,1,1,0.5,0,0,1,0.5",""
"","html-keyboard-response","91","182912","0.0-91.0","3PDJHANYK62H329MYCRK4LYJYYSH6E","A3RUL1OC4CAINK","3TZDZ3Y0JSSRVQSC3SM97PDQ3Z7196","","null","<img src=""img/animal3.png"" style=""width:200px; border:14px solid green;"">","null","","","","","",""
"","image-keyboard-response","92","183775","0.0-92.0","3PDJHANYK62H329MYCRK4LYJYYSH6E","A3RUL1OC4CAINK","3TZDZ3Y0JSSRVQSC3SM97PDQ3Z7196","","862","img/animal1.png","75","863.4000000357628","2","1","2","0.5,0,1,1,0.5,0,0,1,0.5",""
"","html-keyboard-response","93","184079","0.0-93.0","3PDJHANYK62H329MYCRK4LYJYYSH6E","A3RUL1OC4CAINK","3TZDZ3Y0JSSRVQSC3SM97PDQ3Z7196","","null","<img src=""img/animal1.png"" style=""width:200px; border:14px solid green;"">","null","","","","","",""
"","image-keyboard-response","94","185079","0.0-94.0","3PDJHANYK62H329MYCRK4LYJYYSH6E","A3RUL1OC4CAINK","3TZDZ3Y0JSSRVQSC3SM97PDQ3Z7196","","998.8000000119209","img/animal4.png","76","999.8999999761581","3","1","1","0.5,0,1,1,0.5,0,0,1,0.5",""
"","html-keyboard-response","95","185380","0.0-95.0","3PDJHANYK62H329MYCRK4LYJYYSH6E","A3RUL1OC4CAINK","3TZDZ3Y0JSSRVQSC3SM97PDQ3Z7196","","null","<img src=""img/animal4.png"" style=""width:200px; border:14px solid green;"">","null","","","","","",""
"","image-keyboard-response","96","186415","0.0-96.0","3PDJHANYK62H329MYCRK4LYJYYSH6E","A3RUL1OC4CAINK","3TZDZ3Y0JSSRVQSC3SM97PDQ3Z7196","","1033.300000011921","img/animal3.png","75","1034.0999999642372","2","1","3","0.5,0,1,1,0.5,0,0,1,0.5",""
"","html-keyboard-response","97","186717","0.0-97.0","3PDJHANYK62H329MYCRK4LYJYYSH6E","A3RUL1OC4CAINK","3TZDZ3Y0JSSRVQSC3SM97PDQ3Z7196","","null","<img src=""img/animal3.png"" style=""width:200px; border:14px solid green;"">","null","","","","","",""
"","image-keyboard-response","98","187239","0.0-98.0","3PDJHANYK62H329MYCRK4LYJYYSH6E","A3RUL1OC4CAINK","3TZDZ3Y0JSSRVQSC3SM97PDQ3Z7196","","520.1000000238419","img/animal3.png","75","521.3999999761581","2","1","3","0.5,0,1,1,0.5,0,0,1,0.5",""
"","html-keyboard-response","99","187542","0.0-99.0","3PDJHANYK62H329MYCRK4LYJYYSH6E","A3RUL1OC4CAINK","3TZDZ3Y0JSSRVQSC3SM97PDQ3Z7196","","null","<img src=""img/animal3.png"" style=""width:200px; border:14px solid green;"">","null","","","","","",""
"","image-keyboard-response","100","188027","0.0-100.0","3PDJHANYK62H329MYCRK4LYJYYSH6E","A3RUL1OC4CAINK","3TZDZ3Y0JSSRVQSC3SM97PDQ3Z7196","","484","img/animal3.png","75","484.9000000357628","2","1","3","0.5,0,1,1,0.5,0,0,1,0.5",""
"","html-keyboard-response","101","188329","0.0-101.0","3PDJHANYK62H329MYCRK4LYJYYSH6E","A3RUL1OC4CAINK","3TZDZ3Y0JSSRVQSC3SM97PDQ3Z7196","","null","<img src=""img/animal3.png"" style=""width:200px; border:14px solid green;"">","null","","","","","",""
"","image-keyboard-response","102","189488","0.0-102.0","3PDJHANYK62H329MYCRK4LYJYYSH6E","A3RUL1OC4CAINK","3TZDZ3Y0JSSRVQSC3SM97PDQ3Z7196","","1158.199999988079","img/animal4.png","76","1159","3","1","1","0.5,0,1,1,0.5,0,0,1,0.5",""
"","html-keyboard-response","103","189790","0.0-103.0","3PDJHANYK62H329MYCRK4LYJYYSH6E","A3RUL1OC4CAINK","3TZDZ3Y0JSSRVQSC3SM97PDQ3Z7196","","null","<img src=""img/animal4.png"" style=""width:200px; border:14px solid green;"">","null","","","","","",""
"","image-keyboard-response","104","190283","0.0-104.0","3PDJHANYK62H329MYCRK4LYJYYSH6E","A3RUL1OC4CAINK","3TZDZ3Y0JSSRVQSC3SM97PDQ3Z7196","","492","img/animal4.png","76","493.19999998807907","3","1","1","0.5,0,1,1,0.5,0,0,1,0.5",""
"","html-keyboard-response","105","190595","0.0-105.0","3PDJHANYK62H329MYCRK4LYJYYSH6E","A3RUL1OC4CAINK","3TZDZ3Y0JSSRVQSC3SM97PDQ3Z7196","","null","<img src=""img/animal4.png"" style=""width:200px; border:14px solid green;"">","null","","","","","",""
"","image-keyboard-response","106","192715","0.0-106.0","3PDJHANYK62H329MYCRK4LYJYYSH6E","A3RUL1OC4CAINK","3TZDZ3Y0JSSRVQSC3SM97PDQ3Z7196","","2118.199999988079","img/animal1.png","75","2119.5","2","1","2","0.5,0,1,1,0.5,0,0,1,0.5",""
"","html-keyboard-response","107","193018","0.0-107.0","3PDJHANYK62H329MYCRK4LYJYYSH6E","A3RUL1OC4CAINK","3TZDZ3Y0JSSRVQSC3SM97PDQ3Z7196","","null","<img src=""img/animal1.png"" style=""width:200px; border:14px solid green;"">","null","","","","","",""
"","image-keyboard-response","108","193447","0.0-108.0","3PDJHANYK62H329MYCRK4LYJYYSH6E","A3RUL1OC4CAINK","3TZDZ3Y0JSSRVQSC3SM97PDQ3Z7196","","427.7000000476837","img/animal1.png","75","429","2","1","2","0.5,0,1,1,0.5,0,0,1,0.5",""
"","html-keyboard-response","109","193750","0.0-109.0","3PDJHANYK62H329MYCRK4LYJYYSH6E","A3RUL1OC4CAINK","3TZDZ3Y0JSSRVQSC3SM97PDQ3Z7196","","null","<img src=""img/animal1.png"" style=""width:200px; border:14px solid green;"">","null","","","","","",""
"","image-keyboard-response","110","194625","0.0-110.0","3PDJHANYK62H329MYCRK4LYJYYSH6E","A3RUL1OC4CAINK","3TZDZ3Y0JSSRVQSC3SM97PDQ3Z7196","","874","img/animal3.png","75","875.1000000238419","2","1","3","0.5,0,1,1,0.5,0,0,1,0.5",""
"","html-keyboard-response","111","194927","0.0-111.0","3PDJHANYK62H329MYCRK4LYJYYSH6E","A3RUL1OC4CAINK","3TZDZ3Y0JSSRVQSC3SM97PDQ3Z7196","","null","<img src=""img/animal3.png"" style=""width:200px; border:14px solid green;"">","null","","","","","",""
"","image-keyboard-response","112","196031","0.0-112.0","3PDJHANYK62H329MYCRK4LYJYYSH6E","A3RUL1OC4CAINK","3TZDZ3Y0JSSRVQSC3SM97PDQ3Z7196","","1102.300000011921","img/animal1.png","74","1103.3999999761581","1","1","2","0.5,0,1,1,0.5,0,0,1,0.5",""
"","html-keyboard-response","113","196333","0.0-113.0","3PDJHANYK62H329MYCRK4LYJYYSH6E","A3RUL1OC4CAINK","3TZDZ3Y0JSSRVQSC3SM97PDQ3Z7196","","null","<img src=""img/animal1.png"" style=""width:200px; border:14px solid green;"">","null","","","","","",""
"","image-keyboard-response","114","197072","0.0-114.0","3PDJHANYK62H329MYCRK4LYJYYSH6E","A3RUL1OC4CAINK","3TZDZ3Y0JSSRVQSC3SM97PDQ3Z7196","","738.4000000357628","img/animal3.png","75","738.9000000357628","2","1","3","0.5,0,1,1,0.5,0,0,1,0.5",""
"","html-keyboard-response","115","197373","0.0-115.0","3PDJHANYK62H329MYCRK4LYJYYSH6E","A3RUL1OC4CAINK","3TZDZ3Y0JSSRVQSC3SM97PDQ3Z7196","","null","<img src=""img/animal3.png"" style=""width:200px; border:14px solid green;"">","null","","","","","",""
"","image-keyboard-response","116","198065","0.0-116.0","3PDJHANYK62H329MYCRK4LYJYYSH6E","A3RUL1OC4CAINK","3TZDZ3Y0JSSRVQSC3SM97PDQ3Z7196","","691.5","img/animal1.png","75","692","2","1","2","0.5,0,1,1,0.5,0,0,1,0.5",""
"","html-keyboard-response","117","198367","0.0-117.0","3PDJHANYK62H329MYCRK4LYJYYSH6E","A3RUL1OC4CAINK","3TZDZ3Y0JSSRVQSC3SM97PDQ3Z7196","","null","<img src=""img/animal1.png"" style=""width:200px; border:14px solid green;"">","null","","","","","",""
"","image-keyboard-response","118","199176","0.0-118.0","3PDJHANYK62H329MYCRK4LYJYYSH6E","A3RUL1OC4CAINK","3TZDZ3Y0JSSRVQSC3SM97PDQ3Z7196","","807.3999999761581","img/animal3.png","75","808.1999999880791","2","1","3","0.5,0,1,1,0.5,0,0,1,0.5",""
"","html-keyboard-response","119","199479","0.0-119.0","3PDJHANYK62H329MYCRK4LYJYYSH6E","A3RUL1OC4CAINK","3TZDZ3Y0JSSRVQSC3SM97PDQ3Z7196","","null","<img src=""img/animal3.png"" style=""width:200px; border:14px solid green;"">","null","","","","","",""
"","image-keyboard-response","120","200045","0.0-120.0","3PDJHANYK62H329MYCRK4LYJYYSH6E","A3RUL1OC4CAINK","3TZDZ3Y0JSSRVQSC3SM97PDQ3Z7196","","564.5","img/animal1.png","75","565.3000000119209","2","1","2","0.5,0,1,1,0.5,0,0,1,0.5",""
"","html-keyboard-response","121","200345","0.0-121.0","3PDJHANYK62H329MYCRK4LYJYYSH6E","A3RUL1OC4CAINK","3TZDZ3Y0JSSRVQSC3SM97PDQ3Z7196","","null","<img src=""img/animal1.png"" style=""width:200px; border:14px solid green;"">","null","","","","","",""
"","image-keyboard-response","122","201151","0.0-122.0","3PDJHANYK62H329MYCRK4LYJYYSH6E","A3RUL1OC4CAINK","3TZDZ3Y0JSSRVQSC3SM97PDQ3Z7196","","804.1999999880791","img/animal1.png","75","805.3000000119209","2","1","2","0.5,0,1,1,0.5,0,0,1,0.5",""
"","html-keyboard-response","123","201453","0.0-123.0","3PDJHANYK62H329MYCRK4LYJYYSH6E","A3RUL1OC4CAINK","3TZDZ3Y0JSSRVQSC3SM97PDQ3Z7196","","null","<img src=""img/animal1.png"" style=""width:200px; border:14px solid green;"">","null","","","","","",""
"","image-keyboard-response","124","202001","0.0-124.0","3PDJHANYK62H329MYCRK4LYJYYSH6E","A3RUL1OC4CAINK","3TZDZ3Y0JSSRVQSC3SM97PDQ3Z7196","","547","img/animal1.png","75","547.6999999880791","2","1","2","0.5,0,1,1,0.5,0,0,1,0.5",""
"","html-keyboard-response","125","202303","0.0-125.0","3PDJHANYK62H329MYCRK4LYJYYSH6E","A3RUL1OC4CAINK","3TZDZ3Y0JSSRVQSC3SM97PDQ3Z7196","","null","<img src=""img/animal1.png"" style=""width:200px; border:14px solid green;"">","null","","","","","",""
"","image-keyboard-response","126","202902","0.0-126.0","3PDJHANYK62H329MYCRK4LYJYYSH6E","A3RUL1OC4CAINK","3TZDZ3Y0JSSRVQSC3SM97PDQ3Z7196","","598.3999999761581","img/animal3.png","75","599.5999999642372","2","1","3","0.5,0,1,1,0.5,0,0,1,0.5",""
"","html-keyboard-response","127","203204","0.0-127.0","3PDJHANYK62H329MYCRK4LYJYYSH6E","A3RUL1OC4CAINK","3TZDZ3Y0JSSRVQSC3SM97PDQ3Z7196","","null","<img src=""img/animal3.png"" style=""width:200px; border:14px solid green;"">","null","","","","","",""
"","image-keyboard-response","128","203896","0.0-128.0","3PDJHANYK62H329MYCRK4LYJYYSH6E","A3RUL1OC4CAINK","3TZDZ3Y0JSSRVQSC3SM97PDQ3Z7196","","690.4000000357628","img/animal1.png","75","691.5","2","1","2","0.5,0,1,1,0.5,0,0,1,0.5",""
"","html-keyboard-response","129","204199","0.0-129.0","3PDJHANYK62H329MYCRK4LYJYYSH6E","A3RUL1OC4CAINK","3TZDZ3Y0JSSRVQSC3SM97PDQ3Z7196","","null","<img src=""img/animal1.png"" style=""width:200px; border:14px solid green;"">","null","","","","","",""
"","image-keyboard-response","130","207848","0.0-130.0","3PDJHANYK62H329MYCRK4LYJYYSH6E","A3RUL1OC4CAINK","3TZDZ3Y0JSSRVQSC3SM97PDQ3Z7196","","3648.600000023842","img/animal3.png","75","3649.2999999523163","2","1","3","0.5,0,1,1,0.5,0,0,1,0.5",""
"","html-keyboard-response","131","208150","0.0-131.0","3PDJHANYK62H329MYCRK4LYJYYSH6E","A3RUL1OC4CAINK","3TZDZ3Y0JSSRVQSC3SM97PDQ3Z7196","","null","<img src=""img/animal3.png"" style=""width:200px; border:14px solid green;"">","null","","","","","",""
"","image-keyboard-response","132","209311","0.0-132.0","3PDJHANYK62H329MYCRK4LYJYYSH6E","A3RUL1OC4CAINK","3TZDZ3Y0JSSRVQSC3SM97PDQ3Z7196","","1159.9000000357628","img/animal4.png","74","1161.1000000238419","1","1","1","0.5,0,1,1,0.5,0,0,1,0.5",""
"","html-keyboard-response","133","209613","0.0-133.0","3PDJHANYK62H329MYCRK4LYJYYSH6E","A3RUL1OC4CAINK","3TZDZ3Y0JSSRVQSC3SM97PDQ3Z7196","","null","<img src=""img/animal4.png"" style=""width:200px; border:14px solid green;"">","null","","","","","",""
"","image-keyboard-response","134","210090","0.0-134.0","3PDJHANYK62H329MYCRK4LYJYYSH6E","A3RUL1OC4CAINK","3TZDZ3Y0JSSRVQSC3SM97PDQ3Z7196","","476","img/animal4.png","74","477.30000001192093","1","0","1","0.5,0,1,1,0.5,0,0,1,0.5",""
"","html-keyboard-response","135","210393","0.0-135.0","3PDJHANYK62H329MYCRK4LYJYYSH6E","A3RUL1OC4CAINK","3TZDZ3Y0JSSRVQSC3SM97PDQ3Z7196","","null","<img src=""img/animal4.png"" style=""width:200px;border:14px solid red;"">","null","","","","","",""
"","image-keyboard-response","136","211274","0.0-136.0","3PDJHANYK62H329MYCRK4LYJYYSH6E","A3RUL1OC4CAINK","3TZDZ3Y0JSSRVQSC3SM97PDQ3Z7196","","879.5999999642372","img/animal3.png","75","880.3000000119209","2","1","3","0.5,0,1,1,0.5,0,0,1,0.5",""
"","html-keyboard-response","137","211576","0.0-137.0","3PDJHANYK62H329MYCRK4LYJYYSH6E","A3RUL1OC4CAINK","3TZDZ3Y0JSSRVQSC3SM97PDQ3Z7196","","null","<img src=""img/animal3.png"" style=""width:200px; border:14px solid green;"">","null","","","","","",""
"","image-keyboard-response","138","212648","0.0-138.0","3PDJHANYK62H329MYCRK4LYJYYSH6E","A3RUL1OC4CAINK","3TZDZ3Y0JSSRVQSC3SM97PDQ3Z7196","","1070.5","img/animal1.png","74","1071.9000000357628","1","1","2","0.5,0,1,1,0.5,0,0,1,0.5",""
"","html-keyboard-response","139","212950","0.0-139.0","3PDJHANYK62H329MYCRK4LYJYYSH6E","A3RUL1OC4CAINK","3TZDZ3Y0JSSRVQSC3SM97PDQ3Z7196","","null","<img src=""img/animal1.png"" style=""width:200px; border:14px solid green;"">","null","","","","","",""
"","image-keyboard-response","140","214037","0.0-140.0","3PDJHANYK62H329MYCRK4LYJYYSH6E","A3RUL1OC4CAINK","3TZDZ3Y0JSSRVQSC3SM97PDQ3Z7196","","1085.5","img/animal4.png","76","1086.6000000238419","3","1","1","0.5,0,1,1,0.5,0,0,1,0.5",""
"","html-keyboard-response","141","214338","0.0-141.0","3PDJHANYK62H329MYCRK4LYJYYSH6E","A3RUL1OC4CAINK","3TZDZ3Y0JSSRVQSC3SM97PDQ3Z7196","","null","<img src=""img/animal4.png"" style=""width:200px; border:14px solid green;"">","null","","","","","",""
"","image-keyboard-response","142","214960","0.0-142.0","3PDJHANYK62H329MYCRK4LYJYYSH6E","A3RUL1OC4CAINK","3TZDZ3Y0JSSRVQSC3SM97PDQ3Z7196","","620.1999999880791","img/animal4.png","74","620.8999999761581","1","1","1","0.5,0,1,1,0.5,0,0,1,0.5",""
"","html-keyboard-response","143","215261","0.0-143.0","3PDJHANYK62H329MYCRK4LYJYYSH6E","A3RUL1OC4CAINK","3TZDZ3Y0JSSRVQSC3SM97PDQ3Z7196","","null","<img src=""img/animal4.png"" style=""width:200px; border:14px solid green;"">","null","","","","","",""
"","image-keyboard-response","144","215983","0.0-144.0","3PDJHANYK62H329MYCRK4LYJYYSH6E","A3RUL1OC4CAINK","3TZDZ3Y0JSSRVQSC3SM97PDQ3Z7196","","720.0999999642372","img/animal1.png","74","721","1","1","2","0.5,0,1,1,0.5,0,0,1,0.5",""
"","html-keyboard-response","145","216284","0.0-145.0","3PDJHANYK62H329MYCRK4LYJYYSH6E","A3RUL1OC4CAINK","3TZDZ3Y0JSSRVQSC3SM97PDQ3Z7196","","null","<img src=""img/animal1.png"" style=""width:200px; border:14px solid green;"">","null","","","","","",""
"","image-keyboard-response","146","216958","0.0-146.0","3PDJHANYK62H329MYCRK4LYJYYSH6E","A3RUL1OC4CAINK","3TZDZ3Y0JSSRVQSC3SM97PDQ3Z7196","","672","img/animal4.png","76","673.3000000119209","3","1","1","0.5,0,1,1,0.5,0,0,1,0.5",""
"","html-keyboard-response","147","217261","0.0-147.0","3PDJHANYK62H329MYCRK4LYJYYSH6E","A3RUL1OC4CAINK","3TZDZ3Y0JSSRVQSC3SM97PDQ3Z7196","","null","<img src=""img/animal4.png"" style=""width:200px; border:14px solid green;"">","null","","","","","",""
"","image-keyboard-response","148","217863","0.0-148.0","3PDJHANYK62H329MYCRK4LYJYYSH6E","A3RUL1OC4CAINK","3TZDZ3Y0JSSRVQSC3SM97PDQ3Z7196","","600.7000000476837","img/animal1.png","74","602","1","1","2","0.5,0,1,1,0.5,0,0,1,0.5",""
"","html-keyboard-response","149","218165","0.0-149.0","3PDJHANYK62H329MYCRK4LYJYYSH6E","A3RUL1OC4CAINK","3TZDZ3Y0JSSRVQSC3SM97PDQ3Z7196","","null","<img src=""img/animal1.png"" style=""width:200px; border:14px solid green;"">","null","","","","","",""
"","image-keyboard-response","150","218893","0.0-150.0","3PDJHANYK62H329MYCRK4LYJYYSH6E","A3RUL1OC4CAINK","3TZDZ3Y0JSSRVQSC3SM97PDQ3Z7196","","726.8000000119209","img/animal3.png","75","727.6999999880791","2","1","3","0.5,0,1,1,0.5,0,0,1,0.5",""
"","html-keyboard-response","151","219195","0.0-151.0","3PDJHANYK62H329MYCRK4LYJYYSH6E","A3RUL1OC4CAINK","3TZDZ3Y0JSSRVQSC3SM97PDQ3Z7196","","null","<img src=""img/animal3.png"" style=""width:200px; border:14px solid green;"">","null","","","","","",""
"","image-keyboard-response","152","219816","0.0-152.0","3PDJHANYK62H329MYCRK4LYJYYSH6E","A3RUL1OC4CAINK","3TZDZ3Y0JSSRVQSC3SM97PDQ3Z7196","","618.5999999642372","img/animal1.png","74","620","1","1","2","0.5,0,1,1,0.5,0,0,1,0.5",""
"","html-keyboard-response","153","220119","0.0-153.0","3PDJHANYK62H329MYCRK4LYJYYSH6E","A3RUL1OC4CAINK","3TZDZ3Y0JSSRVQSC3SM97PDQ3Z7196","","null","<img src=""img/animal1.png"" style=""width:200px; border:14px solid green;"">","null","","","","","",""
"","image-keyboard-response","154","220625","0.0-154.0","3PDJHANYK62H329MYCRK4LYJYYSH6E","A3RUL1OC4CAINK","3TZDZ3Y0JSSRVQSC3SM97PDQ3Z7196","","505.5","img/animal1.png","75","506.5","2","0","2","0.5,0,1,1,0.5,0,0,1,0.5",""
"","html-keyboard-response","155","220928","0.0-155.0","3PDJHANYK62H329MYCRK4LYJYYSH6E","A3RUL1OC4CAINK","3TZDZ3Y0JSSRVQSC3SM97PDQ3Z7196","","null","<img src=""img/animal1.png"" style=""width:200px;border:14px solid red;"">","null","","","","","",""
"","image-keyboard-response","156","222211","0.0-156.0","3PDJHANYK62H329MYCRK4LYJYYSH6E","A3RUL1OC4CAINK","3TZDZ3Y0JSSRVQSC3SM97PDQ3Z7196","","1281.2999999523163","img/animal4.png","76","1282.699999988079","3","1","1","0.5,0,1,1,0.5,0,0,1,0.5",""
"","html-keyboard-response","157","222513","0.0-157.0","3PDJHANYK62H329MYCRK4LYJYYSH6E","A3RUL1OC4CAINK","3TZDZ3Y0JSSRVQSC3SM97PDQ3Z7196","","null","<img src=""img/animal4.png"" style=""width:200px; border:14px solid green;"">","null","","","","","",""
"","image-keyboard-response","158","223240","0.0-158.0","3PDJHANYK62H329MYCRK4LYJYYSH6E","A3RUL1OC4CAINK","3TZDZ3Y0JSSRVQSC3SM97PDQ3Z7196","","726","img/animal1.png","74","726.9000000357628","1","1","2","0.5,0,1,1,0.5,0,0,1,0.5",""
"","html-keyboard-response","159","223542","0.0-159.0","3PDJHANYK62H329MYCRK4LYJYYSH6E","A3RUL1OC4CAINK","3TZDZ3Y0JSSRVQSC3SM97PDQ3Z7196","","null","<img src=""img/animal1.png"" style=""width:200px; border:14px solid green;"">","null","","","","","",""
"","image-keyboard-response","160","224251","0.0-160.0","3PDJHANYK62H329MYCRK4LYJYYSH6E","A3RUL1OC4CAINK","3TZDZ3Y0JSSRVQSC3SM97PDQ3Z7196","","709.1999999880791","img/animal3.png","75","709.7000000476837","2","1","3","0.5,0,1,1,0.5,0,0,1,0.5",""
"","html-keyboard-response","161","224554","0.0-161.0","3PDJHANYK62H329MYCRK4LYJYYSH6E","A3RUL1OC4CAINK","3TZDZ3Y0JSSRVQSC3SM97PDQ3Z7196","","null","<img src=""img/animal3.png"" style=""width:200px; border:14px solid green;"">","null","","","","","",""
"","image-keyboard-response","162","225079","0.0-162.0","3PDJHANYK62H329MYCRK4LYJYYSH6E","A3RUL1OC4CAINK","3TZDZ3Y0JSSRVQSC3SM97PDQ3Z7196","","524.0999999642372","img/animal3.png","75","525.3000000119209","2","1","3","0.5,0,1,1,0.5,0,0,1,0.5",""
"","html-keyboard-response","163","225381","0.0-163.0","3PDJHANYK62H329MYCRK4LYJYYSH6E","A3RUL1OC4CAINK","3TZDZ3Y0JSSRVQSC3SM97PDQ3Z7196","","null","<img src=""img/animal3.png"" style=""width:200px; border:14px solid green;"">","null","","","","","",""
"","image-keyboard-response","164","226119","0.0-164.0","3PDJHANYK62H329MYCRK4LYJYYSH6E","A3RUL1OC4CAINK","3TZDZ3Y0JSSRVQSC3SM97PDQ3Z7196","","737.6000000238419","img/animal4.png","76","738.2000000476837","3","1","1","0.5,0,1,1,0.5,0,0,1,0.5",""
"","html-keyboard-response","165","226421","0.0-165.0","3PDJHANYK62H329MYCRK4LYJYYSH6E","A3RUL1OC4CAINK","3TZDZ3Y0JSSRVQSC3SM97PDQ3Z7196","","null","<img src=""img/animal4.png"" style=""width:200px; border:14px solid green;"">","null","","","","","",""
"","image-keyboard-response","166","228185","0.0-166.0","3PDJHANYK62H329MYCRK4LYJYYSH6E","A3RUL1OC4CAINK","3TZDZ3Y0JSSRVQSC3SM97PDQ3Z7196","","1763.8999999761581","img/animal1.png","74","1764.4000000357628","1","1","2","0.5,0,1,1,0.5,0,0,1,0.5",""
"","html-keyboard-response","167","228487","0.0-167.0","3PDJHANYK62H329MYCRK4LYJYYSH6E","A3RUL1OC4CAINK","3TZDZ3Y0JSSRVQSC3SM97PDQ3Z7196","","null","<img src=""img/animal1.png"" style=""width:200px; border:14px solid green;"">","null","","","","","",""
"","image-keyboard-response","168","229227","0.0-168.0","3PDJHANYK62H329MYCRK4LYJYYSH6E","A3RUL1OC4CAINK","3TZDZ3Y0JSSRVQSC3SM97PDQ3Z7196","","739","img/animal3.png","75","739.8000000119209","2","1","3","0.5,0,1,1,0.5,0,0,1,0.5",""
"","html-keyboard-response","169","229530","0.0-169.0","3PDJHANYK62H329MYCRK4LYJYYSH6E","A3RUL1OC4CAINK","3TZDZ3Y0JSSRVQSC3SM97PDQ3Z7196","","null","<img src=""img/animal3.png"" style=""width:200px; border:14px solid green;"">","null","","","","","",""
"","image-keyboard-response","170","231101","0.0-170.0","3PDJHANYK62H329MYCRK4LYJYYSH6E","A3RUL1OC4CAINK","3TZDZ3Y0JSSRVQSC3SM97PDQ3Z7196","","1569.199999988079","img/animal4.png","74","1570.6000000238419","1","1","1","0.5,0,1,1,0.5,0,0,1,0.5",""
"","html-keyboard-response","171","231403","0.0-171.0","3PDJHANYK62H329MYCRK4LYJYYSH6E","A3RUL1OC4CAINK","3TZDZ3Y0JSSRVQSC3SM97PDQ3Z7196","","null","<img src=""img/animal4.png"" style=""width:200px; border:14px solid green;"">","null","","","","","",""
"","image-keyboard-response","172","232126","0.0-172.0","3PDJHANYK62H329MYCRK4LYJYYSH6E","A3RUL1OC4CAINK","3TZDZ3Y0JSSRVQSC3SM97PDQ3Z7196","","721.3999999761581","img/animal3.png","75","722.5","2","1","3","0.5,0,1,1,0.5,0,0,1,0.5",""
"","html-keyboard-response","173","232428","0.0-173.0","3PDJHANYK62H329MYCRK4LYJYYSH6E","A3RUL1OC4CAINK","3TZDZ3Y0JSSRVQSC3SM97PDQ3Z7196","","null","<img src=""img/animal3.png"" style=""width:200px; border:14px solid green;"">","null","","","","","",""
"","image-keyboard-response","174","232973","0.0-174.0","3PDJHANYK62H329MYCRK4LYJYYSH6E","A3RUL1OC4CAINK","3TZDZ3Y0JSSRVQSC3SM97PDQ3Z7196","","543.8999999761581","img/animal3.png","75","544.8000000119209","2","1","3","0.5,0,1,1,0.5,0,0,1,0.5",""
"","html-keyboard-response","175","233275","0.0-175.0","3PDJHANYK62H329MYCRK4LYJYYSH6E","A3RUL1OC4CAINK","3TZDZ3Y0JSSRVQSC3SM97PDQ3Z7196","","null","<img src=""img/animal3.png"" style=""width:200px; border:14px solid green;"">","null","","","","","",""
"","image-keyboard-response","176","234103","0.0-176.0","3PDJHANYK62H329MYCRK4LYJYYSH6E","A3RUL1OC4CAINK","3TZDZ3Y0JSSRVQSC3SM97PDQ3Z7196","","827.3999999761581","img/animal4.png","76","828","3","1","1","0.5,0,1,1,0.5,0,0,1,0.5",""
"","html-keyboard-response","177","234405","0.0-177.0","3PDJHANYK62H329MYCRK4LYJYYSH6E","A3RUL1OC4CAINK","3TZDZ3Y0JSSRVQSC3SM97PDQ3Z7196","","null","<img src=""img/animal4.png"" style=""width:200px; border:14px solid green;"">","null","","","","","",""
"","image-keyboard-response","178","235327","0.0-178.0","3PDJHANYK62H329MYCRK4LYJYYSH6E","A3RUL1OC4CAINK","3TZDZ3Y0JSSRVQSC3SM97PDQ3Z7196","","920.6999999880791","img/animal1.png","75","921.6999999880791","2","0","2","0.5,0,1,1,0.5,0,0,1,0.5",""
"","html-keyboard-response","179","235629","0.0-179.0","3PDJHANYK62H329MYCRK4LYJYYSH6E","A3RUL1OC4CAINK","3TZDZ3Y0JSSRVQSC3SM97PDQ3Z7196","","null","<img src=""img/animal1.png"" style=""width:200px;border:14px solid red;"">","null","","","","","",""
"","image-keyboard-response","180","236842","0.0-180.0","3PDJHANYK62H329MYCRK4LYJYYSH6E","A3RUL1OC4CAINK","3TZDZ3Y0JSSRVQSC3SM97PDQ3Z7196","","1212.5999999642372","img/animal4.png","76","1213.2000000476837","3","1","1","0.5,0,1,1,0.5,0,0,1,0.5",""
"","html-keyboard-response","181","237145","0.0-181.0","3PDJHANYK62H329MYCRK4LYJYYSH6E","A3RUL1OC4CAINK","3TZDZ3Y0JSSRVQSC3SM97PDQ3Z7196","","null","<img src=""img/animal4.png"" style=""width:200px; border:14px solid green;"">","null","","","","","",""
"","html-keyboard-response","182","246427","0.0-182.0","3PDJHANYK62H329MYCRK4LYJYYSH6E","A3RUL1OC4CAINK","3TZDZ3Y0JSSRVQSC3SM97PDQ3Z7196","","","","","","","","","",""
"","image-keyboard-response","183","250183","0.0-183.0","3PDJHANYK62H329MYCRK4LYJYYSH6E","A3RUL1OC4CAINK","3TZDZ3Y0JSSRVQSC3SM97PDQ3Z7196","","3754.600000023842","img/animal6.png","76","3755.5","3","0","2","0.7,0,0.8,0.7,0.8,0,0.7,0.8,0",""
"","html-keyboard-response","184","250485","0.0-184.0","3PDJHANYK62H329MYCRK4LYJYYSH6E","A3RUL1OC4CAINK","3TZDZ3Y0JSSRVQSC3SM97PDQ3Z7196","","null","<img src=""img/animal6.png"" style=""width:200px;border:14px solid red;"">","null","","","","","",""
"","image-keyboard-response","185","251651","0.0-185.0","3PDJHANYK62H329MYCRK4LYJYYSH6E","A3RUL1OC4CAINK","3TZDZ3Y0JSSRVQSC3SM97PDQ3Z7196","","1164.5","img/animal2.png","76","1165.9000000357628","3","0","3","0.7,0,0.8,0.7,0.8,0,0.7,0.8,0",""
"","html-keyboard-response","186","251954","0.0-186.0","3PDJHANYK62H329MYCRK4LYJYYSH6E","A3RUL1OC4CAINK","3TZDZ3Y0JSSRVQSC3SM97PDQ3Z7196","","null","<img src=""img/animal2.png"" style=""width:200px;border:14px solid red;"">","null","","","","","",""
"","image-keyboard-response","187","252960","0.0-187.0","3PDJHANYK62H329MYCRK4LYJYYSH6E","A3RUL1OC4CAINK","3TZDZ3Y0JSSRVQSC3SM97PDQ3Z7196","","1004.3000000119209","img/animal5.png","76","1005.8000000119209","3","0","1","0.7,0,0.8,0.7,0.8,0,0.7,0.8,0",""
"","html-keyboard-response","188","253273","0.0-188.0","3PDJHANYK62H329MYCRK4LYJYYSH6E","A3RUL1OC4CAINK","3TZDZ3Y0JSSRVQSC3SM97PDQ3Z7196","","null","<img src=""img/animal5.png"" style=""width:200px;border:14px solid red;"">","null","","","","","",""
"","image-keyboard-response","189","254819","0.0-189.0","3PDJHANYK62H329MYCRK4LYJYYSH6E","A3RUL1OC4CAINK","3TZDZ3Y0JSSRVQSC3SM97PDQ3Z7196","","1543.5999999642372","img/animal2.png","75","1545.199999988079","2","1","3","0.7,0,0.8,0.7,0.8,0,0.7,0.8,0",""
"","html-keyboard-response","190","255122","0.0-190.0","3PDJHANYK62H329MYCRK4LYJYYSH6E","A3RUL1OC4CAINK","3TZDZ3Y0JSSRVQSC3SM97PDQ3Z7196","","null","<img src=""img/animal2.png"" style=""width:200px; border:14px solid green;"">","null","","","","","",""
"","image-keyboard-response","191","259145","0.0-191.0","3PDJHANYK62H329MYCRK4LYJYYSH6E","A3RUL1OC4CAINK","3TZDZ3Y0JSSRVQSC3SM97PDQ3Z7196","","4022.5","img/animal5.png","75","4023","2","0","1","0.7,0,0.8,0.7,0.8,0,0.7,0.8,0",""
"","html-keyboard-response","192","259446","0.0-192.0","3PDJHANYK62H329MYCRK4LYJYYSH6E","A3RUL1OC4CAINK","3TZDZ3Y0JSSRVQSC3SM97PDQ3Z7196","","null","<img src=""img/animal5.png"" style=""width:200px;border:14px solid red;"">","null","","","","","",""
"","image-keyboard-response","193","260100","0.0-193.0","3PDJHANYK62H329MYCRK4LYJYYSH6E","A3RUL1OC4CAINK","3TZDZ3Y0JSSRVQSC3SM97PDQ3Z7196","","652","img/animal2.png","75","653.1000000238419","2","1","3","0.7,0,0.8,0.7,0.8,0,0.7,0.8,0",""
"","html-keyboard-response","194","260401","0.0-194.0","3PDJHANYK62H329MYCRK4LYJYYSH6E","A3RUL1OC4CAINK","3TZDZ3Y0JSSRVQSC3SM97PDQ3Z7196","","null","<img src=""img/animal2.png"" style=""width:200px; border:14px solid green;"">","null","","","","","",""
"","image-keyboard-response","195","261779","0.0-195.0","3PDJHANYK62H329MYCRK4LYJYYSH6E","A3RUL1OC4CAINK","3TZDZ3Y0JSSRVQSC3SM97PDQ3Z7196","","1376.8999999761581","img/animal6.png","75","1377.5999999642372","2","0","2","0.7,0,0.8,0.7,0.8,0,0.7,0.8,0",""
"","html-keyboard-response","196","262080","0.0-196.0","3PDJHANYK62H329MYCRK4LYJYYSH6E","A3RUL1OC4CAINK","3TZDZ3Y0JSSRVQSC3SM97PDQ3Z7196","","null","<img src=""img/animal6.png"" style=""width:200px;border:14px solid red;"">","null","","","","","",""
"","image-keyboard-response","197","263550","0.0-197.0","3PDJHANYK62H329MYCRK4LYJYYSH6E","A3RUL1OC4CAINK","3TZDZ3Y0JSSRVQSC3SM97PDQ3Z7196","","1468.199999988079","img/animal5.png","74","1469.300000011921","1","1","1","0.7,0,0.8,0.7,0.8,0,0.7,0.8,0",""
"","html-keyboard-response","198","263852","0.0-198.0","3PDJHANYK62H329MYCRK4LYJYYSH6E","A3RUL1OC4CAINK","3TZDZ3Y0JSSRVQSC3SM97PDQ3Z7196","","null","<img src=""img/animal5.png"" style=""width:200px; border:14px solid green;"">","null","","","","","",""
"","image-keyboard-response","199","266836","0.0-199.0","3PDJHANYK62H329MYCRK4LYJYYSH6E","A3RUL1OC4CAINK","3TZDZ3Y0JSSRVQSC3SM97PDQ3Z7196","","2982.5","img/animal2.png","75","2983.699999988079","2","1","3","0.7,0,0.8,0.7,0.8,0,0.7,0.8,0",""
"","html-keyboard-response","200","267138","0.0-200.0","3PDJHANYK62H329MYCRK4LYJYYSH6E","A3RUL1OC4CAINK","3TZDZ3Y0JSSRVQSC3SM97PDQ3Z7196","","null","<img src=""img/animal2.png"" style=""width:200px; border:14px solid green;"">","null","","","","","",""
"","image-keyboard-response","201","267811","0.0-201.0","3PDJHANYK62H329MYCRK4LYJYYSH6E","A3RUL1OC4CAINK","3TZDZ3Y0JSSRVQSC3SM97PDQ3Z7196","","670.7999999523163","img/animal5.png","74","671.9000000357628","1","0","1","0.7,0,0.8,0.7,0.8,0,0.7,0.8,0",""
"","html-keyboard-response","202","268113","0.0-202.0","3PDJHANYK62H329MYCRK4LYJYYSH6E","A3RUL1OC4CAINK","3TZDZ3Y0JSSRVQSC3SM97PDQ3Z7196","","null","<img src=""img/animal5.png"" style=""width:200px;border:14px solid red;"">","null","","","","","",""
"","image-keyboard-response","203","268803","0.0-203.0","3PDJHANYK62H329MYCRK4LYJYYSH6E","A3RUL1OC4CAINK","3TZDZ3Y0JSSRVQSC3SM97PDQ3Z7196","","688.6000000238419","img/animal5.png","74","690","1","1","1","0.7,0,0.8,0.7,0.8,0,0.7,0.8,0",""
"","html-keyboard-response","204","269106","0.0-204.0","3PDJHANYK62H329MYCRK4LYJYYSH6E","A3RUL1OC4CAINK","3TZDZ3Y0JSSRVQSC3SM97PDQ3Z7196","","null","<img src=""img/animal5.png"" style=""width:200px; border:14px solid green;"">","null","","","","","",""
"","image-keyboard-response","205","270061","0.0-205.0","3PDJHANYK62H329MYCRK4LYJYYSH6E","A3RUL1OC4CAINK","3TZDZ3Y0JSSRVQSC3SM97PDQ3Z7196","","953.6000000238419","img/animal5.png","74","954.6999999880791","1","1","1","0.7,0,0.8,0.7,0.8,0,0.7,0.8,0",""
"","html-keyboard-response","206","270362","0.0-206.0","3PDJHANYK62H329MYCRK4LYJYYSH6E","A3RUL1OC4CAINK","3TZDZ3Y0JSSRVQSC3SM97PDQ3Z7196","","null","<img src=""img/animal5.png"" style=""width:200px; border:14px solid green;"">","null","","","","","",""
"","image-keyboard-response","207","270954","0.0-207.0","3PDJHANYK62H329MYCRK4LYJYYSH6E","A3RUL1OC4CAINK","3TZDZ3Y0JSSRVQSC3SM97PDQ3Z7196","","590.2000000476837","img/animal5.png","74","591.5","1","0","1","0.7,0,0.8,0.7,0.8,0,0.7,0.8,0",""
"","html-keyboard-response","208","271257","0.0-208.0","3PDJHANYK62H329MYCRK4LYJYYSH6E","A3RUL1OC4CAINK","3TZDZ3Y0JSSRVQSC3SM97PDQ3Z7196","","null","<img src=""img/animal5.png"" style=""width:200px;border:14px solid red;"">","null","","","","","",""
"","image-keyboard-response","209","272052","0.0-209.0","3PDJHANYK62H329MYCRK4LYJYYSH6E","A3RUL1OC4CAINK","3TZDZ3Y0JSSRVQSC3SM97PDQ3Z7196","","793.0999999642372","img/animal5.png","74","794.3000000119209","1","1","1","0.7,0,0.8,0.7,0.8,0,0.7,0.8,0",""
"","html-keyboard-response","210","272354","0.0-210.0","3PDJHANYK62H329MYCRK4LYJYYSH6E","A3RUL1OC4CAINK","3TZDZ3Y0JSSRVQSC3SM97PDQ3Z7196","","null","<img src=""img/animal5.png"" style=""width:200px; border:14px solid green;"">","null","","","","","",""
"","image-keyboard-response","211","273170","0.0-211.0","3PDJHANYK62H329MYCRK4LYJYYSH6E","A3RUL1OC4CAINK","3TZDZ3Y0JSSRVQSC3SM97PDQ3Z7196","","813.8000000119209","img/animal6.png","76","815.1000000238419","3","0","2","0.7,0,0.8,0.7,0.8,0,0.7,0.8,0",""
"","html-keyboard-response","212","273472","0.0-212.0","3PDJHANYK62H329MYCRK4LYJYYSH6E","A3RUL1OC4CAINK","3TZDZ3Y0JSSRVQSC3SM97PDQ3Z7196","","null","<img src=""img/animal6.png"" style=""width:200px;border:14px solid red;"">","null","","","","","",""
"","image-keyboard-response","213","274384","0.0-213.0","3PDJHANYK62H329MYCRK4LYJYYSH6E","A3RUL1OC4CAINK","3TZDZ3Y0JSSRVQSC3SM97PDQ3Z7196","","910.8000000119209","img/animal6.png","76","911.6999999880791","3","0","2","0.7,0,0.8,0.7,0.8,0,0.7,0.8,0",""
"","html-keyboard-response","214","274685","0.0-214.0","3PDJHANYK62H329MYCRK4LYJYYSH6E","A3RUL1OC4CAINK","3TZDZ3Y0JSSRVQSC3SM97PDQ3Z7196","","null","<img src=""img/animal6.png"" style=""width:200px;border:14px solid red;"">","null","","","","","",""
"","image-keyboard-response","215","276325","0.0-215.0","3PDJHANYK62H329MYCRK4LYJYYSH6E","A3RUL1OC4CAINK","3TZDZ3Y0JSSRVQSC3SM97PDQ3Z7196","","1639.5","img/animal5.png","74","1640.300000011921","1","1","1","0.7,0,0.8,0.7,0.8,0,0.7,0.8,0",""
"","html-keyboard-response","216","276627","0.0-216.0","3PDJHANYK62H329MYCRK4LYJYYSH6E","A3RUL1OC4CAINK","3TZDZ3Y0JSSRVQSC3SM97PDQ3Z7196","","null","<img src=""img/animal5.png"" style=""width:200px; border:14px solid green;"">","null","","","","","",""
"","image-keyboard-response","217","278816","0.0-217.0","3PDJHANYK62H329MYCRK4LYJYYSH6E","A3RUL1OC4CAINK","3TZDZ3Y0JSSRVQSC3SM97PDQ3Z7196","","2187.800000011921","img/animal6.png","74","2188.2999999523163","1","0","2","0.7,0,0.8,0.7,0.8,0,0.7,0.8,0",""
"","html-keyboard-response","218","279122","0.0-218.0","3PDJHANYK62H329MYCRK4LYJYYSH6E","A3RUL1OC4CAINK","3TZDZ3Y0JSSRVQSC3SM97PDQ3Z7196","","null","<img src=""img/animal6.png"" style=""width:200px;border:14px solid red;"">","null","","","","","",""
"","image-keyboard-response","219","280120","0.0-219.0","3PDJHANYK62H329MYCRK4LYJYYSH6E","A3RUL1OC4CAINK","3TZDZ3Y0JSSRVQSC3SM97PDQ3Z7196","","995.8999999761581","img/animal2.png","75","997.0999999642372","2","1","3","0.7,0,0.8,0.7,0.8,0,0.7,0.8,0",""
"","html-keyboard-response","220","280422","0.0-220.0","3PDJHANYK62H329MYCRK4LYJYYSH6E","A3RUL1OC4CAINK","3TZDZ3Y0JSSRVQSC3SM97PDQ3Z7196","","null","<img src=""img/animal2.png"" style=""width:200px; border:14px solid green;"">","null","","","","","",""
"","image-keyboard-response","221","280916","0.0-221.0","3PDJHANYK62H329MYCRK4LYJYYSH6E","A3RUL1OC4CAINK","3TZDZ3Y0JSSRVQSC3SM97PDQ3Z7196","","493.80000001192093","img/animal2.png","75","494.5","2","1","3","0.7,0,0.8,0.7,0.8,0,0.7,0.8,0",""
"","html-keyboard-response","222","281219","0.0-222.0","3PDJHANYK62H329MYCRK4LYJYYSH6E","A3RUL1OC4CAINK","3TZDZ3Y0JSSRVQSC3SM97PDQ3Z7196","","null","<img src=""img/animal2.png"" style=""width:200px; border:14px solid green;"">","null","","","","","",""
"","image-keyboard-response","223","282520","0.0-223.0","3PDJHANYK62H329MYCRK4LYJYYSH6E","A3RUL1OC4CAINK","3TZDZ3Y0JSSRVQSC3SM97PDQ3Z7196","","1299","img/animal5.png","74","1300.2000000476837","1","0","1","0.7,0,0.8,0.7,0.8,0,0.7,0.8,0",""
"","html-keyboard-response","224","282823","0.0-224.0","3PDJHANYK62H329MYCRK4LYJYYSH6E","A3RUL1OC4CAINK","3TZDZ3Y0JSSRVQSC3SM97PDQ3Z7196","","null","<img src=""img/animal5.png"" style=""width:200px;border:14px solid red;"">","null","","","","","",""
"","image-keyboard-response","225","283649","0.0-225.0","3PDJHANYK62H329MYCRK4LYJYYSH6E","A3RUL1OC4CAINK","3TZDZ3Y0JSSRVQSC3SM97PDQ3Z7196","","824.2000000476837","img/animal5.png","74","825.5","1","1","1","0.7,0,0.8,0.7,0.8,0,0.7,0.8,0",""
"","html-keyboard-response","226","283954","0.0-226.0","3PDJHANYK62H329MYCRK4LYJYYSH6E","A3RUL1OC4CAINK","3TZDZ3Y0JSSRVQSC3SM97PDQ3Z7196","","null","<img src=""img/animal5.png"" style=""width:200px; border:14px solid green;"">","null","","","","","",""
"","image-keyboard-response","227","284677","0.0-227.0","3PDJHANYK62H329MYCRK4LYJYYSH6E","A3RUL1OC4CAINK","3TZDZ3Y0JSSRVQSC3SM97PDQ3Z7196","","721.1999999880791","img/animal5.png","74","722.7000000476837","1","1","1","0.7,0,0.8,0.7,0.8,0,0.7,0.8,0",""
"","html-keyboard-response","228","284980","0.0-228.0","3PDJHANYK62H329MYCRK4LYJYYSH6E","A3RUL1OC4CAINK","3TZDZ3Y0JSSRVQSC3SM97PDQ3Z7196","","null","<img src=""img/animal5.png"" style=""width:200px; border:14px solid green;"">","null","","","","","",""
"","image-keyboard-response","229","286106","0.0-229.0","3PDJHANYK62H329MYCRK4LYJYYSH6E","A3RUL1OC4CAINK","3TZDZ3Y0JSSRVQSC3SM97PDQ3Z7196","","1124.7000000476837","img/animal2.png","75","1125.699999988079","2","0","3","0.7,0,0.8,0.7,0.8,0,0.7,0.8,0",""
"","html-keyboard-response","230","286408","0.0-230.0","3PDJHANYK62H329MYCRK4LYJYYSH6E","A3RUL1OC4CAINK","3TZDZ3Y0JSSRVQSC3SM97PDQ3Z7196","","null","<img src=""img/animal2.png"" style=""width:200px;border:14px solid red;"">","null","","","","","",""
"","image-keyboard-response","231","286761","0.0-231.0","3PDJHANYK62H329MYCRK4LYJYYSH6E","A3RUL1OC4CAINK","3TZDZ3Y0JSSRVQSC3SM97PDQ3Z7196","","352.60000002384186","img/animal2.png","75","353.2999999523163","2","0","3","0.7,0,0.8,0.7,0.8,0,0.7,0.8,0",""
"","html-keyboard-response","232","287064","0.0-232.0","3PDJHANYK62H329MYCRK4LYJYYSH6E","A3RUL1OC4CAINK","3TZDZ3Y0JSSRVQSC3SM97PDQ3Z7196","","null","<img src=""img/animal2.png"" style=""width:200px;border:14px solid red;"">","null","","","","","",""
"","image-keyboard-response","233","287441","0.0-233.0","3PDJHANYK62H329MYCRK4LYJYYSH6E","A3RUL1OC4CAINK","3TZDZ3Y0JSSRVQSC3SM97PDQ3Z7196","","375.4000000357628","img/animal2.png","75","376.5999999642372","2","1","3","0.7,0,0.8,0.7,0.8,0,0.7,0.8,0",""
"","html-keyboard-response","234","287743","0.0-234.0","3PDJHANYK62H329MYCRK4LYJYYSH6E","A3RUL1OC4CAINK","3TZDZ3Y0JSSRVQSC3SM97PDQ3Z7196","","null","<img src=""img/animal2.png"" style=""width:200px; border:14px solid green;"">","null","","","","","",""
"","image-keyboard-response","235","289713","0.0-235.0","3PDJHANYK62H329MYCRK4LYJYYSH6E","A3RUL1OC4CAINK","3TZDZ3Y0JSSRVQSC3SM97PDQ3Z7196","","1968","img/animal6.png","74","1969.300000011921","1","0","2","0.7,0,0.8,0.7,0.8,0,0.7,0.8,0",""
"","html-keyboard-response","236","290015","0.0-236.0","3PDJHANYK62H329MYCRK4LYJYYSH6E","A3RUL1OC4CAINK","3TZDZ3Y0JSSRVQSC3SM97PDQ3Z7196","","null","<img src=""img/animal6.png"" style=""width:200px;border:14px solid red;"">","null","","","","","",""
"","image-keyboard-response","237","291046","0.0-237.0","3PDJHANYK62H329MYCRK4LYJYYSH6E","A3RUL1OC4CAINK","3TZDZ3Y0JSSRVQSC3SM97PDQ3Z7196","","1029.5999999642372","img/animal2.png","75","1030.300000011921","2","1","3","0.7,0,0.8,0.7,0.8,0,0.7,0.8,0",""
"","html-keyboard-response","238","291347","0.0-238.0","3PDJHANYK62H329MYCRK4LYJYYSH6E","A3RUL1OC4CAINK","3TZDZ3Y0JSSRVQSC3SM97PDQ3Z7196","","null","<img src=""img/animal2.png"" style=""width:200px; border:14px solid green;"">","null","","","","","",""
"","image-keyboard-response","239","293005","0.0-239.0","3PDJHANYK62H329MYCRK4LYJYYSH6E","A3RUL1OC4CAINK","3TZDZ3Y0JSSRVQSC3SM97PDQ3Z7196","","1657","img/animal5.png","74","1657.9000000357628","1","1","1","0.7,0,0.8,0.7,0.8,0,0.7,0.8,0",""
"","html-keyboard-response","240","293307","0.0-240.0","3PDJHANYK62H329MYCRK4LYJYYSH6E","A3RUL1OC4CAINK","3TZDZ3Y0JSSRVQSC3SM97PDQ3Z7196","","null","<img src=""img/animal5.png"" style=""width:200px; border:14px solid green;"">","null","","","","","",""
"","image-keyboard-response","241","295884","0.0-241.0","3PDJHANYK62H329MYCRK4LYJYYSH6E","A3RUL1OC4CAINK","3TZDZ3Y0JSSRVQSC3SM97PDQ3Z7196","","2575.7999999523163","img/animal6.png","74","2576.599999964237","1","1","2","0.7,0,0.8,0.7,0.8,0,0.7,0.8,0",""
"","html-keyboard-response","242","296186","0.0-242.0","3PDJHANYK62H329MYCRK4LYJYYSH6E","A3RUL1OC4CAINK","3TZDZ3Y0JSSRVQSC3SM97PDQ3Z7196","","null","<img src=""img/animal6.png"" style=""width:200px; border:14px solid green;"">","null","","","","","",""
"","image-keyboard-response","243","298600","0.0-243.0","3PDJHANYK62H329MYCRK4LYJYYSH6E","A3RUL1OC4CAINK","3TZDZ3Y0JSSRVQSC3SM97PDQ3Z7196","","2412.600000023842","img/animal2.png","75","2413.400000035763","2","1","3","0.7,0,0.8,0.7,0.8,0,0.7,0.8,0",""
"","html-keyboard-response","244","298902","0.0-244.0","3PDJHANYK62H329MYCRK4LYJYYSH6E","A3RUL1OC4CAINK","3TZDZ3Y0JSSRVQSC3SM97PDQ3Z7196","","null","<img src=""img/animal2.png"" style=""width:200px; border:14px solid green;"">","null","","","","","",""
"","image-keyboard-response","245","299371","0.0-245.0","3PDJHANYK62H329MYCRK4LYJYYSH6E","A3RUL1OC4CAINK","3TZDZ3Y0JSSRVQSC3SM97PDQ3Z7196","","467.69999998807907","img/animal5.png","74","468.69999998807907","1","0","1","0.7,0,0.8,0.7,0.8,0,0.7,0.8,0",""
"","html-keyboard-response","246","299672","0.0-246.0","3PDJHANYK62H329MYCRK4LYJYYSH6E","A3RUL1OC4CAINK","3TZDZ3Y0JSSRVQSC3SM97PDQ3Z7196","","null","<img src=""img/animal5.png"" style=""width:200px;border:14px solid red;"">","null","","","","","",""
"","image-keyboard-response","247","300281","0.0-247.0","3PDJHANYK62H329MYCRK4LYJYYSH6E","A3RUL1OC4CAINK","3TZDZ3Y0JSSRVQSC3SM97PDQ3Z7196","","607.8000000119209","img/animal2.png","75","608.6000000238419","2","0","3","0.7,0,0.8,0.7,0.8,0,0.7,0.8,0",""
"","html-keyboard-response","248","300584","0.0-248.0","3PDJHANYK62H329MYCRK4LYJYYSH6E","A3RUL1OC4CAINK","3TZDZ3Y0JSSRVQSC3SM97PDQ3Z7196","","null","<img src=""img/animal2.png"" style=""width:200px;border:14px solid red;"">","null","","","","","",""
"","image-keyboard-response","249","301246","0.0-249.0","3PDJHANYK62H329MYCRK4LYJYYSH6E","A3RUL1OC4CAINK","3TZDZ3Y0JSSRVQSC3SM97PDQ3Z7196","","661.1000000238419","img/animal6.png","74","662.1999999880791","1","0","2","0.7,0,0.8,0.7,0.8,0,0.7,0.8,0",""
"","html-keyboard-response","250","301547","0.0-250.0","3PDJHANYK62H329MYCRK4LYJYYSH6E","A3RUL1OC4CAINK","3TZDZ3Y0JSSRVQSC3SM97PDQ3Z7196","","null","<img src=""img/animal6.png"" style=""width:200px;border:14px solid red;"">","null","","","","","",""
"","image-keyboard-response","251","302039","0.0-251.0","3PDJHANYK62H329MYCRK4LYJYYSH6E","A3RUL1OC4CAINK","3TZDZ3Y0JSSRVQSC3SM97PDQ3Z7196","","491","img/animal6.png","75","491.7000000476837","2","0","2","0.7,0,0.8,0.7,0.8,0,0.7,0.8,0",""
"","html-keyboard-response","252","302340","0.0-252.0","3PDJHANYK62H329MYCRK4LYJYYSH6E","A3RUL1OC4CAINK","3TZDZ3Y0JSSRVQSC3SM97PDQ3Z7196","","null","<img src=""img/animal6.png"" style=""width:200px;border:14px solid red;"">","null","","","","","",""
"","image-keyboard-response","253","303360","0.0-253.0","3PDJHANYK62H329MYCRK4LYJYYSH6E","A3RUL1OC4CAINK","3TZDZ3Y0JSSRVQSC3SM97PDQ3Z7196","","1018.8999999761581","img/animal5.png","74","1019.5","1","1","1","0.7,0,0.8,0.7,0.8,0,0.7,0.8,0",""
"","html-keyboard-response","254","303662","0.0-254.0","3PDJHANYK62H329MYCRK4LYJYYSH6E","A3RUL1OC4CAINK","3TZDZ3Y0JSSRVQSC3SM97PDQ3Z7196","","null","<img src=""img/animal5.png"" style=""width:200px; border:14px solid green;"">","null","","","","","",""
"","image-keyboard-response","255","304206","0.0-255.0","3PDJHANYK62H329MYCRK4LYJYYSH6E","A3RUL1OC4CAINK","3TZDZ3Y0JSSRVQSC3SM97PDQ3Z7196","","542.4000000357628","img/animal5.png","74","543.6000000238419","1","1","1","0.7,0,0.8,0.7,0.8,0,0.7,0.8,0",""
"","html-keyboard-response","256","304508","0.0-256.0","3PDJHANYK62H329MYCRK4LYJYYSH6E","A3RUL1OC4CAINK","3TZDZ3Y0JSSRVQSC3SM97PDQ3Z7196","","null","<img src=""img/animal5.png"" style=""width:200px; border:14px solid green;"">","null","","","","","",""
"","image-keyboard-response","257","305706","0.0-257.0","3PDJHANYK62H329MYCRK4LYJYYSH6E","A3RUL1OC4CAINK","3TZDZ3Y0JSSRVQSC3SM97PDQ3Z7196","","1196","img/animal6.png","74","1197.199999988079","1","1","2","0.7,0,0.8,0.7,0.8,0,0.7,0.8,0",""
"","html-keyboard-response","258","306009","0.0-258.0","3PDJHANYK62H329MYCRK4LYJYYSH6E","A3RUL1OC4CAINK","3TZDZ3Y0JSSRVQSC3SM97PDQ3Z7196","","null","<img src=""img/animal6.png"" style=""width:200px; border:14px solid green;"">","null","","","","","",""
"","image-keyboard-response","259","306506","0.0-259.0","3PDJHANYK62H329MYCRK4LYJYYSH6E","A3RUL1OC4CAINK","3TZDZ3Y0JSSRVQSC3SM97PDQ3Z7196","","497.2999999523163","img/animal6.png","75","498.19999998807907","2","1","2","0.7,0,0.8,0.7,0.8,0,0.7,0.8,0",""
"","html-keyboard-response","260","306808","0.0-260.0","3PDJHANYK62H329MYCRK4LYJYYSH6E","A3RUL1OC4CAINK","3TZDZ3Y0JSSRVQSC3SM97PDQ3Z7196","","null","<img src=""img/animal6.png"" style=""width:200px; border:14px solid green;"">","null","","","","","",""
"","image-keyboard-response","261","307694","0.0-261.0","3PDJHANYK62H329MYCRK4LYJYYSH6E","A3RUL1OC4CAINK","3TZDZ3Y0JSSRVQSC3SM97PDQ3Z7196","","884.1999999880791","img/animal5.png","74","885.6999999880791","1","0","1","0.7,0,0.8,0.7,0.8,0,0.7,0.8,0",""
"","html-keyboard-response","262","307997","0.0-262.0","3PDJHANYK62H329MYCRK4LYJYYSH6E","A3RUL1OC4CAINK","3TZDZ3Y0JSSRVQSC3SM97PDQ3Z7196","","null","<img src=""img/animal5.png"" style=""width:200px;border:14px solid red;"">","null","","","","","",""
"","image-keyboard-response","263","309890","0.0-263.0","3PDJHANYK62H329MYCRK4LYJYYSH6E","A3RUL1OC4CAINK","3TZDZ3Y0JSSRVQSC3SM97PDQ3Z7196","","1891.699999988079","img/animal6.png","74","1892.2000000476837","1","0","2","0.7,0,0.8,0.7,0.8,0,0.7,0.8,0",""
"","html-keyboard-response","264","310192","0.0-264.0","3PDJHANYK62H329MYCRK4LYJYYSH6E","A3RUL1OC4CAINK","3TZDZ3Y0JSSRVQSC3SM97PDQ3Z7196","","null","<img src=""img/animal6.png"" style=""width:200px;border:14px solid red;"">","null","","","","","",""
"","image-keyboard-response","265","310974","0.0-265.0","3PDJHANYK62H329MYCRK4LYJYYSH6E","A3RUL1OC4CAINK","3TZDZ3Y0JSSRVQSC3SM97PDQ3Z7196","","780.5999999642372","img/animal2.png","75","781.8999999761581","2","1","3","0.7,0,0.8,0.7,0.8,0,0.7,0.8,0",""
"","html-keyboard-response","266","311276","0.0-266.0","3PDJHANYK62H329MYCRK4LYJYYSH6E","A3RUL1OC4CAINK","3TZDZ3Y0JSSRVQSC3SM97PDQ3Z7196","","null","<img src=""img/animal2.png"" style=""width:200px; border:14px solid green;"">","null","","","","","",""
"","image-keyboard-response","267","315366","0.0-267.0","3PDJHANYK62H329MYCRK4LYJYYSH6E","A3RUL1OC4CAINK","3TZDZ3Y0JSSRVQSC3SM97PDQ3Z7196","","4089.399999976158","img/animal6.png","75","4090.199999988079","2","1","2","0.7,0,0.8,0.7,0.8,0,0.7,0.8,0",""
"","html-keyboard-response","268","315669","0.0-268.0","3PDJHANYK62H329MYCRK4LYJYYSH6E","A3RUL1OC4CAINK","3TZDZ3Y0JSSRVQSC3SM97PDQ3Z7196","","null","<img src=""img/animal6.png"" style=""width:200px; border:14px solid green;"">","null","","","","","",""
"","image-keyboard-response","269","316966","0.0-269.0","3PDJHANYK62H329MYCRK4LYJYYSH6E","A3RUL1OC4CAINK","3TZDZ3Y0JSSRVQSC3SM97PDQ3Z7196","","1295.3999999761581","img/animal5.png","74","1296.9000000357628","1","1","1","0.7,0,0.8,0.7,0.8,0,0.7,0.8,0",""
"","html-keyboard-response","270","317269","0.0-270.0","3PDJHANYK62H329MYCRK4LYJYYSH6E","A3RUL1OC4CAINK","3TZDZ3Y0JSSRVQSC3SM97PDQ3Z7196","","null","<img src=""img/animal5.png"" style=""width:200px; border:14px solid green;"">","null","","","","","",""
"","image-keyboard-response","271","318003","0.0-271.0","3PDJHANYK62H329MYCRK4LYJYYSH6E","A3RUL1OC4CAINK","3TZDZ3Y0JSSRVQSC3SM97PDQ3Z7196","","732.3999999761581","img/animal2.png","75","733.3000000119209","2","0","3","0.7,0,0.8,0.7,0.8,0,0.7,0.8,0",""
"","html-keyboard-response","272","318305","0.0-272.0","3PDJHANYK62H329MYCRK4LYJYYSH6E","A3RUL1OC4CAINK","3TZDZ3Y0JSSRVQSC3SM97PDQ3Z7196","","null","<img src=""img/animal2.png"" style=""width:200px;border:14px solid red;"">","null","","","","","",""
"","image-keyboard-response","273","319347","0.0-273.0","3PDJHANYK62H329MYCRK4LYJYYSH6E","A3RUL1OC4CAINK","3TZDZ3Y0JSSRVQSC3SM97PDQ3Z7196","","1041.1000000238419","img/animal6.png","74","1042.1000000238419","1","1","2","0.7,0,0.8,0.7,0.8,0,0.7,0.8,0",""
"","html-keyboard-response","274","319648","0.0-274.0","3PDJHANYK62H329MYCRK4LYJYYSH6E","A3RUL1OC4CAINK","3TZDZ3Y0JSSRVQSC3SM97PDQ3Z7196","","null","<img src=""img/animal6.png"" style=""width:200px; border:14px solid green;"">","null","","","","","",""
"","image-keyboard-response","275","320276","0.0-275.0","3PDJHANYK62H329MYCRK4LYJYYSH6E","A3RUL1OC4CAINK","3TZDZ3Y0JSSRVQSC3SM97PDQ3Z7196","","627.2999999523163","img/animal5.png","74","628","1","0","1","0.7,0,0.8,0.7,0.8,0,0.7,0.8,0",""
"","html-keyboard-response","276","320578","0.0-276.0","3PDJHANYK62H329MYCRK4LYJYYSH6E","A3RUL1OC4CAINK","3TZDZ3Y0JSSRVQSC3SM97PDQ3Z7196","","null","<img src=""img/animal5.png"" style=""width:200px;border:14px solid red;"">","null","","","","","",""
"","image-keyboard-response","277","321682","0.0-277.0","3PDJHANYK62H329MYCRK4LYJYYSH6E","A3RUL1OC4CAINK","3TZDZ3Y0JSSRVQSC3SM97PDQ3Z7196","","1102.3999999761581","img/animal2.png","75","1103.9000000357628","2","1","3","0.7,0,0.8,0.7,0.8,0,0.7,0.8,0",""
"","html-keyboard-response","278","321985","0.0-278.0","3PDJHANYK62H329MYCRK4LYJYYSH6E","A3RUL1OC4CAINK","3TZDZ3Y0JSSRVQSC3SM97PDQ3Z7196","","null","<img src=""img/animal2.png"" style=""width:200px; border:14px solid green;"">","null","","","","","",""
"","image-keyboard-response","279","322446","0.0-279.0","3PDJHANYK62H329MYCRK4LYJYYSH6E","A3RUL1OC4CAINK","3TZDZ3Y0JSSRVQSC3SM97PDQ3Z7196","","460.89999997615814","img/animal2.png","75","461.60000002384186","2","1","3","0.7,0,0.8,0.7,0.8,0,0.7,0.8,0",""
"","html-keyboard-response","280","322749","0.0-280.0","3PDJHANYK62H329MYCRK4LYJYYSH6E","A3RUL1OC4CAINK","3TZDZ3Y0JSSRVQSC3SM97PDQ3Z7196","","null","<img src=""img/animal2.png"" style=""width:200px; border:14px solid green;"">","null","","","","","",""
"","image-keyboard-response","281","323657","0.0-281.0","3PDJHANYK62H329MYCRK4LYJYYSH6E","A3RUL1OC4CAINK","3TZDZ3Y0JSSRVQSC3SM97PDQ3Z7196","","907","img/animal6.png","74","908.1000000238419","1","1","2","0.7,0,0.8,0.7,0.8,0,0.7,0.8,0",""
"","html-keyboard-response","282","323958","0.0-282.0","3PDJHANYK62H329MYCRK4LYJYYSH6E","A3RUL1OC4CAINK","3TZDZ3Y0JSSRVQSC3SM97PDQ3Z7196","","null","<img src=""img/animal6.png"" style=""width:200px; border:14px solid green;"">","null","","","","","",""
"","image-keyboard-response","283","324998","0.0-283.0","3PDJHANYK62H329MYCRK4LYJYYSH6E","A3RUL1OC4CAINK","3TZDZ3Y0JSSRVQSC3SM97PDQ3Z7196","","1038","img/animal2.png","75","1039.5","2","0","3","0.7,0,0.8,0.7,0.8,0,0.7,0.8,0",""
"","html-keyboard-response","284","325300","0.0-284.0","3PDJHANYK62H329MYCRK4LYJYYSH6E","A3RUL1OC4CAINK","3TZDZ3Y0JSSRVQSC3SM97PDQ3Z7196","","null","<img src=""img/animal2.png"" style=""width:200px;border:14px solid red;"">","null","","","","","",""
"","image-keyboard-response","285","326307","0.0-285.0","3PDJHANYK62H329MYCRK4LYJYYSH6E","A3RUL1OC4CAINK","3TZDZ3Y0JSSRVQSC3SM97PDQ3Z7196","","1006.9000000357628","img/animal5.png","74","1007.2999999523163","1","0","1","0.7,0,0.8,0.7,0.8,0,0.7,0.8,0",""
"","html-keyboard-response","286","326609","0.0-286.0","3PDJHANYK62H329MYCRK4LYJYYSH6E","A3RUL1OC4CAINK","3TZDZ3Y0JSSRVQSC3SM97PDQ3Z7196","","null","<img src=""img/animal5.png"" style=""width:200px;border:14px solid red;"">","null","","","","","",""
"","image-keyboard-response","287","327864","0.0-287.0","3PDJHANYK62H329MYCRK4LYJYYSH6E","A3RUL1OC4CAINK","3TZDZ3Y0JSSRVQSC3SM97PDQ3Z7196","","1252.800000011921","img/animal2.png","75","1254.0999999642372","2","1","3","0.7,0,0.8,0.7,0.8,0,0.7,0.8,0",""
"","html-keyboard-response","288","328166","0.0-288.0","3PDJHANYK62H329MYCRK4LYJYYSH6E","A3RUL1OC4CAINK","3TZDZ3Y0JSSRVQSC3SM97PDQ3Z7196","","null","<img src=""img/animal2.png"" style=""width:200px; border:14px solid green;"">","null","","","","","",""
"","image-keyboard-response","289","328531","0.0-289.0","3PDJHANYK62H329MYCRK4LYJYYSH6E","A3RUL1OC4CAINK","3TZDZ3Y0JSSRVQSC3SM97PDQ3Z7196","","362.69999998807907","img/animal2.png","75","364.19999998807907","2","1","3","0.7,0,0.8,0.7,0.8,0,0.7,0.8,0",""
"","html-keyboard-response","290","328832","0.0-290.0","3PDJHANYK62H329MYCRK4LYJYYSH6E","A3RUL1OC4CAINK","3TZDZ3Y0JSSRVQSC3SM97PDQ3Z7196","","null","<img src=""img/animal2.png"" style=""width:200px; border:14px solid green;"">","null","","","","","",""
"","image-keyboard-response","291","329728","0.0-291.0","3PDJHANYK62H329MYCRK4LYJYYSH6E","A3RUL1OC4CAINK","3TZDZ3Y0JSSRVQSC3SM97PDQ3Z7196","","894.3999999761581","img/animal5.png","74","895.6999999880791","1","1","1","0.7,0,0.8,0.7,0.8,0,0.7,0.8,0",""
"","html-keyboard-response","292","330031","0.0-292.0","3PDJHANYK62H329MYCRK4LYJYYSH6E","A3RUL1OC4CAINK","3TZDZ3Y0JSSRVQSC3SM97PDQ3Z7196","","null","<img src=""img/animal5.png"" style=""width:200px; border:14px solid green;"">","null","","","","","",""
"","image-keyboard-response","293","330863","0.0-293.0","3PDJHANYK62H329MYCRK4LYJYYSH6E","A3RUL1OC4CAINK","3TZDZ3Y0JSSRVQSC3SM97PDQ3Z7196","","831.6000000238419","img/animal6.png","75","832.1999999880791","2","1","2","0.7,0,0.8,0.7,0.8,0,0.7,0.8,0",""
"","html-keyboard-response","294","331165","0.0-294.0","3PDJHANYK62H329MYCRK4LYJYYSH6E","A3RUL1OC4CAINK","3TZDZ3Y0JSSRVQSC3SM97PDQ3Z7196","","null","<img src=""img/animal6.png"" style=""width:200px; border:14px solid green;"">","null","","","","","",""
"","image-keyboard-response","295","331668","0.0-295.0","3PDJHANYK62H329MYCRK4LYJYYSH6E","A3RUL1OC4CAINK","3TZDZ3Y0JSSRVQSC3SM97PDQ3Z7196","","502.0999999642372","img/animal6.png","75","503","2","0","2","0.7,0,0.8,0.7,0.8,0,0.7,0.8,0",""
"","html-keyboard-response","296","331971","0.0-296.0","3PDJHANYK62H329MYCRK4LYJYYSH6E","A3RUL1OC4CAINK","3TZDZ3Y0JSSRVQSC3SM97PDQ3Z7196","","null","<img src=""img/animal6.png"" style=""width:200px;border:14px solid red;"">","null","","","","","",""
"","image-keyboard-response","297","332619","0.0-297.0","3PDJHANYK62H329MYCRK4LYJYYSH6E","A3RUL1OC4CAINK","3TZDZ3Y0JSSRVQSC3SM97PDQ3Z7196","","647.0999999642372","img/animal6.png","75","648.1999999880791","2","1","2","0.7,0,0.8,0.7,0.8,0,0.7,0.8,0",""
"","html-keyboard-response","298","332920","0.0-298.0","3PDJHANYK62H329MYCRK4LYJYYSH6E","A3RUL1OC4CAINK","3TZDZ3Y0JSSRVQSC3SM97PDQ3Z7196","","null","<img src=""img/animal6.png"" style=""width:200px; border:14px solid green;"">","null","","","","","",""
"","image-keyboard-response","299","333754","0.0-299.0","3PDJHANYK62H329MYCRK4LYJYYSH6E","A3RUL1OC4CAINK","3TZDZ3Y0JSSRVQSC3SM97PDQ3Z7196","","831.5999999642372","img/animal5.png","74","832.8000000119209","1","1","1","0.7,0,0.8,0.7,0.8,0,0.7,0.8,0",""
"","html-keyboard-response","300","334056","0.0-300.0","3PDJHANYK62H329MYCRK4LYJYYSH6E","A3RUL1OC4CAINK","3TZDZ3Y0JSSRVQSC3SM97PDQ3Z7196","","null","<img src=""img/animal5.png"" style=""width:200px; border:14px solid green;"">","null","","","","","",""
"","image-keyboard-response","301","334954","0.0-301.0","3PDJHANYK62H329MYCRK4LYJYYSH6E","A3RUL1OC4CAINK","3TZDZ3Y0JSSRVQSC3SM97PDQ3Z7196","","896.0999999642372","img/animal2.png","75","897.3999999761581","2","1","3","0.7,0,0.8,0.7,0.8,0,0.7,0.8,0",""
"","html-keyboard-response","302","335256","0.0-302.0","3PDJHANYK62H329MYCRK4LYJYYSH6E","A3RUL1OC4CAINK","3TZDZ3Y0JSSRVQSC3SM97PDQ3Z7196","","null","<img src=""img/animal2.png"" style=""width:200px; border:14px solid green;"">","null","","","","","",""
"","image-keyboard-response","303","335660","0.0-303.0","3PDJHANYK62H329MYCRK4LYJYYSH6E","A3RUL1OC4CAINK","3TZDZ3Y0JSSRVQSC3SM97PDQ3Z7196","","403.5","img/animal2.png","75","404.4000000357628","2","1","3","0.7,0,0.8,0.7,0.8,0,0.7,0.8,0",""
"","html-keyboard-response","304","335962","0.0-304.0","3PDJHANYK62H329MYCRK4LYJYYSH6E","A3RUL1OC4CAINK","3TZDZ3Y0JSSRVQSC3SM97PDQ3Z7196","","null","<img src=""img/animal2.png"" style=""width:200px; border:14px solid green;"">","null","","","","","",""
"","image-keyboard-response","305","337574","0.0-305.0","3PDJHANYK62H329MYCRK4LYJYYSH6E","A3RUL1OC4CAINK","3TZDZ3Y0JSSRVQSC3SM97PDQ3Z7196","","1610.5999999642372","img/animal6.png","75","1611.699999988079","2","0","2","0.7,0,0.8,0.7,0.8,0,0.7,0.8,0",""
"","html-keyboard-response","306","337876","0.0-306.0","3PDJHANYK62H329MYCRK4LYJYYSH6E","A3RUL1OC4CAINK","3TZDZ3Y0JSSRVQSC3SM97PDQ3Z7196","","null","<img src=""img/animal6.png"" style=""width:200px;border:14px solid red;"">","null","","","","","",""
"","image-keyboard-response","307","339185","0.0-307.0","3PDJHANYK62H329MYCRK4LYJYYSH6E","A3RUL1OC4CAINK","3TZDZ3Y0JSSRVQSC3SM97PDQ3Z7196","","1307.4000000357628","img/animal2.png","74","1308.300000011921","1","1","3","0.7,0,0.8,0.7,0.8,0,0.7,0.8,0",""
"","html-keyboard-response","308","339487","0.0-308.0","3PDJHANYK62H329MYCRK4LYJYYSH6E","A3RUL1OC4CAINK","3TZDZ3Y0JSSRVQSC3SM97PDQ3Z7196","","null","<img src=""img/animal2.png"" style=""width:200px; border:14px solid green;"">","null","","","","","",""
"","image-keyboard-response","309","339695","0.0-309.0","3PDJHANYK62H329MYCRK4LYJYYSH6E","A3RUL1OC4CAINK","3TZDZ3Y0JSSRVQSC3SM97PDQ3Z7196","","207.5","img/animal2.png","75","208.30000001192093","2","0","3","0.7,0,0.8,0.7,0.8,0,0.7,0.8,0",""
"","html-keyboard-response","310","339998","0.0-310.0","3PDJHANYK62H329MYCRK4LYJYYSH6E","A3RUL1OC4CAINK","3TZDZ3Y0JSSRVQSC3SM97PDQ3Z7196","","null","<img src=""img/animal2.png"" style=""width:200px;border:14px solid red;"">","null","","","","","",""
"","image-keyboard-response","311","341830","0.0-311.0","3PDJHANYK62H329MYCRK4LYJYYSH6E","A3RUL1OC4CAINK","3TZDZ3Y0JSSRVQSC3SM97PDQ3Z7196","","1830.6000000238419","img/animal5.png","74","1831.3999999761581","1","1","1","0.7,0,0.8,0.7,0.8,0,0.7,0.8,0",""
"","html-keyboard-response","312","342132","0.0-312.0","3PDJHANYK62H329MYCRK4LYJYYSH6E","A3RUL1OC4CAINK","3TZDZ3Y0JSSRVQSC3SM97PDQ3Z7196","","null","<img src=""img/animal5.png"" style=""width:200px; border:14px solid green;"">","null","","","","","",""
"","image-keyboard-response","313","342953","0.0-313.0","3PDJHANYK62H329MYCRK4LYJYYSH6E","A3RUL1OC4CAINK","3TZDZ3Y0JSSRVQSC3SM97PDQ3Z7196","","819.9000000357628","img/animal6.png","75","820.6000000238419","2","0","2","0.7,0,0.8,0.7,0.8,0,0.7,0.8,0",""
"","html-keyboard-response","314","343256","0.0-314.0","3PDJHANYK62H329MYCRK4LYJYYSH6E","A3RUL1OC4CAINK","3TZDZ3Y0JSSRVQSC3SM97PDQ3Z7196","","null","<img src=""img/animal6.png"" style=""width:200px;border:14px solid red;"">","null","","","","","",""
"","image-keyboard-response","315","344024","0.0-315.0","3PDJHANYK62H329MYCRK4LYJYYSH6E","A3RUL1OC4CAINK","3TZDZ3Y0JSSRVQSC3SM97PDQ3Z7196","","765.8999999761581","img/animal5.png","74","767.1999999880791","1","0","1","0.7,0,0.8,0.7,0.8,0,0.7,0.8,0",""
"","html-keyboard-response","316","344326","0.0-316.0","3PDJHANYK62H329MYCRK4LYJYYSH6E","A3RUL1OC4CAINK","3TZDZ3Y0JSSRVQSC3SM97PDQ3Z7196","","null","<img src=""img/animal5.png"" style=""width:200px;border:14px solid red;"">","null","","","","","",""
"","image-keyboard-response","317","344846","0.0-317.0","3PDJHANYK62H329MYCRK4LYJYYSH6E","A3RUL1OC4CAINK","3TZDZ3Y0JSSRVQSC3SM97PDQ3Z7196","","519.2999999523163","img/animal5.png","74","520.1000000238419","1","1","1","0.7,0,0.8,0.7,0.8,0,0.7,0.8,0",""
"","html-keyboard-response","318","345149","0.0-318.0","3PDJHANYK62H329MYCRK4LYJYYSH6E","A3RUL1OC4CAINK","3TZDZ3Y0JSSRVQSC3SM97PDQ3Z7196","","null","<img src=""img/animal5.png"" style=""width:200px; border:14px solid green;"">","null","","","","","",""
"","image-keyboard-response","319","345959","0.0-319.0","3PDJHANYK62H329MYCRK4LYJYYSH6E","A3RUL1OC4CAINK","3TZDZ3Y0JSSRVQSC3SM97PDQ3Z7196","","809.3000000119209","img/animal6.png","74","810.3000000119209","1","1","2","0.7,0,0.8,0.7,0.8,0,0.7,0.8,0",""
"","html-keyboard-response","320","346261","0.0-320.0","3PDJHANYK62H329MYCRK4LYJYYSH6E","A3RUL1OC4CAINK","3TZDZ3Y0JSSRVQSC3SM97PDQ3Z7196","","null","<img src=""img/animal6.png"" style=""width:200px; border:14px solid green;"">","null","","","","","",""
"","image-keyboard-response","321","347080","0.0-321.0","3PDJHANYK62H329MYCRK4LYJYYSH6E","A3RUL1OC4CAINK","3TZDZ3Y0JSSRVQSC3SM97PDQ3Z7196","","816.9000000357628","img/animal2.png","75","818.1999999880791","2","1","3","0.7,0,0.8,0.7,0.8,0,0.7,0.8,0",""
"","html-keyboard-response","322","347381","0.0-322.0","3PDJHANYK62H329MYCRK4LYJYYSH6E","A3RUL1OC4CAINK","3TZDZ3Y0JSSRVQSC3SM97PDQ3Z7196","","null","<img src=""img/animal2.png"" style=""width:200px; border:14px solid green;"">","null","","","","","",""
"","image-keyboard-response","323","348693","0.0-323.0","3PDJHANYK62H329MYCRK4LYJYYSH6E","A3RUL1OC4CAINK","3TZDZ3Y0JSSRVQSC3SM97PDQ3Z7196","","1311.5","img/animal6.png","75","1311.8999999761581","2","0","2","0.7,0,0.8,0.7,0.8,0,0.7,0.8,0",""
"","html-keyboard-response","324","349004","0.0-324.0","3PDJHANYK62H329MYCRK4LYJYYSH6E","A3RUL1OC4CAINK","3TZDZ3Y0JSSRVQSC3SM97PDQ3Z7196","","null","<img src=""img/animal6.png"" style=""width:200px;border:14px solid red;"">","null","","","","","",""
"","image-keyboard-response","325","349467","0.0-325.0","3PDJHANYK62H329MYCRK4LYJYYSH6E","A3RUL1OC4CAINK","3TZDZ3Y0JSSRVQSC3SM97PDQ3Z7196","","461.7999999523163","img/animal6.png","75","463.19999998807907","2","1","2","0.7,0,0.8,0.7,0.8,0,0.7,0.8,0",""
"","html-keyboard-response","326","349769","0.0-326.0","3PDJHANYK62H329MYCRK4LYJYYSH6E","A3RUL1OC4CAINK","3TZDZ3Y0JSSRVQSC3SM97PDQ3Z7196","","null","<img src=""img/animal6.png"" style=""width:200px; border:14px solid green;"">","null","","","","","",""
"","image-keyboard-response","327","350380","0.0-327.0","3PDJHANYK62H329MYCRK4LYJYYSH6E","A3RUL1OC4CAINK","3TZDZ3Y0JSSRVQSC3SM97PDQ3Z7196","","609.8000000119209","img/animal6.png","75","610.8999999761581","2","1","2","0.7,0,0.8,0.7,0.8,0,0.7,0.8,0",""
"","html-keyboard-response","328","350682","0.0-328.0","3PDJHANYK62H329MYCRK4LYJYYSH6E","A3RUL1OC4CAINK","3TZDZ3Y0JSSRVQSC3SM97PDQ3Z7196","","null","<img src=""img/animal6.png"" style=""width:200px; border:14px solid green;"">","null","","","","","",""
"","image-keyboard-response","329","351461","0.0-329.0","3PDJHANYK62H329MYCRK4LYJYYSH6E","A3RUL1OC4CAINK","3TZDZ3Y0JSSRVQSC3SM97PDQ3Z7196","","777.6999999880791","img/animal2.png","75","778.5","2","1","3","0.7,0,0.8,0.7,0.8,0,0.7,0.8,0",""
"","html-keyboard-response","330","351763","0.0-330.0","3PDJHANYK62H329MYCRK4LYJYYSH6E","A3RUL1OC4CAINK","3TZDZ3Y0JSSRVQSC3SM97PDQ3Z7196","","null","<img src=""img/animal2.png"" style=""width:200px; border:14px solid green;"">","null","","","","","",""
"","image-keyboard-response","331","352584","0.0-331.0","3PDJHANYK62H329MYCRK4LYJYYSH6E","A3RUL1OC4CAINK","3TZDZ3Y0JSSRVQSC3SM97PDQ3Z7196","","818.8000000119209","img/animal6.png","75","820.3999999761581","2","0","2","0.7,0,0.8,0.7,0.8,0,0.7,0.8,0",""
"","html-keyboard-response","332","352886","0.0-332.0","3PDJHANYK62H329MYCRK4LYJYYSH6E","A3RUL1OC4CAINK","3TZDZ3Y0JSSRVQSC3SM97PDQ3Z7196","","null","<img src=""img/animal6.png"" style=""width:200px;border:14px solid red;"">","null","","","","","",""
"","image-keyboard-response","333","353662","0.0-333.0","3PDJHANYK62H329MYCRK4LYJYYSH6E","A3RUL1OC4CAINK","3TZDZ3Y0JSSRVQSC3SM97PDQ3Z7196","","775.2999999523163","img/animal5.png","74","776.1999999880791","1","1","1","0.7,0,0.8,0.7,0.8,0,0.7,0.8,0",""
"","html-keyboard-response","334","353965","0.0-334.0","3PDJHANYK62H329MYCRK4LYJYYSH6E","A3RUL1OC4CAINK","3TZDZ3Y0JSSRVQSC3SM97PDQ3Z7196","","null","<img src=""img/animal5.png"" style=""width:200px; border:14px solid green;"">","null","","","","","",""
"","image-keyboard-response","335","354770","0.0-335.0","3PDJHANYK62H329MYCRK4LYJYYSH6E","A3RUL1OC4CAINK","3TZDZ3Y0JSSRVQSC3SM97PDQ3Z7196","","803","img/animal2.png","75","804.1999999880791","2","1","3","0.7,0,0.8,0.7,0.8,0,0.7,0.8,0",""
"","html-keyboard-response","336","355071","0.0-336.0","3PDJHANYK62H329MYCRK4LYJYYSH6E","A3RUL1OC4CAINK","3TZDZ3Y0JSSRVQSC3SM97PDQ3Z7196","","null","<img src=""img/animal2.png"" style=""width:200px; border:14px solid green;"">","null","","","","","",""
"","image-keyboard-response","337","355911","0.0-337.0","3PDJHANYK62H329MYCRK4LYJYYSH6E","A3RUL1OC4CAINK","3TZDZ3Y0JSSRVQSC3SM97PDQ3Z7196","","838.1999999880791","img/animal6.png","75","839.5999999642372","2","1","2","0.7,0,0.8,0.7,0.8,0,0.7,0.8,0",""
"","html-keyboard-response","338","356214","0.0-338.0","3PDJHANYK62H329MYCRK4LYJYYSH6E","A3RUL1OC4CAINK","3TZDZ3Y0JSSRVQSC3SM97PDQ3Z7196","","null","<img src=""img/animal6.png"" style=""width:200px; border:14px solid green;"">","null","","","","","",""
"","image-keyboard-response","339","356743","0.0-339.0","3PDJHANYK62H329MYCRK4LYJYYSH6E","A3RUL1OC4CAINK","3TZDZ3Y0JSSRVQSC3SM97PDQ3Z7196","","526.9000000357628","img/animal6.png","75","528.5","2","1","2","0.7,0,0.8,0.7,0.8,0,0.7,0.8,0",""
"","html-keyboard-response","340","357046","0.0-340.0","3PDJHANYK62H329MYCRK4LYJYYSH6E","A3RUL1OC4CAINK","3TZDZ3Y0JSSRVQSC3SM97PDQ3Z7196","","null","<img src=""img/animal6.png"" style=""width:200px; border:14px solid green;"">","null","","","","","",""
"","image-keyboard-response","341","357663","0.0-341.0","3PDJHANYK62H329MYCRK4LYJYYSH6E","A3RUL1OC4CAINK","3TZDZ3Y0JSSRVQSC3SM97PDQ3Z7196","","616.3999999761581","img/animal6.png","75","617.0999999642372","2","1","2","0.7,0,0.8,0.7,0.8,0,0.7,0.8,0",""
"","html-keyboard-response","342","357964","0.0-342.0","3PDJHANYK62H329MYCRK4LYJYYSH6E","A3RUL1OC4CAINK","3TZDZ3Y0JSSRVQSC3SM97PDQ3Z7196","","null","<img src=""img/animal6.png"" style=""width:200px; border:14px solid green;"">","null","","","","","",""
"","image-keyboard-response","343","358622","0.0-343.0","3PDJHANYK62H329MYCRK4LYJYYSH6E","A3RUL1OC4CAINK","3TZDZ3Y0JSSRVQSC3SM97PDQ3Z7196","","656.2999999523163","img/animal2.png","75","657.5","2","1","3","0.7,0,0.8,0.7,0.8,0,0.7,0.8,0",""
"","html-keyboard-response","344","358925","0.0-344.0","3PDJHANYK62H329MYCRK4LYJYYSH6E","A3RUL1OC4CAINK","3TZDZ3Y0JSSRVQSC3SM97PDQ3Z7196","","null","<img src=""img/animal2.png"" style=""width:200px; border:14px solid green;"">","null","","","","","",""
"","image-keyboard-response","345","359937","0.0-345.0","3PDJHANYK62H329MYCRK4LYJYYSH6E","A3RUL1OC4CAINK","3TZDZ3Y0JSSRVQSC3SM97PDQ3Z7196","","1011.5","img/animal5.png","74","1012.3999999761581","1","1","1","0.7,0,0.8,0.7,0.8,0,0.7,0.8,0",""
"","html-keyboard-response","346","360239","0.0-346.0","3PDJHANYK62H329MYCRK4LYJYYSH6E","A3RUL1OC4CAINK","3TZDZ3Y0JSSRVQSC3SM97PDQ3Z7196","","null","<img src=""img/animal5.png"" style=""width:200px; border:14px solid green;"">","null","","","","","",""
"","image-keyboard-response","347","360763","0.0-347.0","3PDJHANYK62H329MYCRK4LYJYYSH6E","A3RUL1OC4CAINK","3TZDZ3Y0JSSRVQSC3SM97PDQ3Z7196","","522.6999999880791","img/animal5.png","74","524.2000000476837","1","1","1","0.7,0,0.8,0.7,0.8,0,0.7,0.8,0",""
"","html-keyboard-response","348","361066","0.0-348.0","3PDJHANYK62H329MYCRK4LYJYYSH6E","A3RUL1OC4CAINK","3TZDZ3Y0JSSRVQSC3SM97PDQ3Z7196","","null","<img src=""img/animal5.png"" style=""width:200px; border:14px solid green;"">","null","","","","","",""
"","image-keyboard-response","349","362076","0.0-349.0","3PDJHANYK62H329MYCRK4LYJYYSH6E","A3RUL1OC4CAINK","3TZDZ3Y0JSSRVQSC3SM97PDQ3Z7196","","1009.5999999642372","img/animal6.png","74","1010.3000000119209","1","1","2","0.7,0,0.8,0.7,0.8,0,0.7,0.8,0",""
"","html-keyboard-response","350","362379","0.0-350.0","3PDJHANYK62H329MYCRK4LYJYYSH6E","A3RUL1OC4CAINK","3TZDZ3Y0JSSRVQSC3SM97PDQ3Z7196","","null","<img src=""img/animal6.png"" style=""width:200px; border:14px solid green;"">","null","","","","","",""
"","image-keyboard-response","351","362956","0.0-351.0","3PDJHANYK62H329MYCRK4LYJYYSH6E","A3RUL1OC4CAINK","3TZDZ3Y0JSSRVQSC3SM97PDQ3Z7196","","575.2000000476837","img/animal2.png","75","576.5","2","1","3","0.7,0,0.8,0.7,0.8,0,0.7,0.8,0",""
"","html-keyboard-response","352","363258","0.0-352.0","3PDJHANYK62H329MYCRK4LYJYYSH6E","A3RUL1OC4CAINK","3TZDZ3Y0JSSRVQSC3SM97PDQ3Z7196","","null","<img src=""img/animal2.png"" style=""width:200px; border:14px solid green;"">","null","","","","","",""
"","image-keyboard-response","353","363738","0.0-353.0","3PDJHANYK62H329MYCRK4LYJYYSH6E","A3RUL1OC4CAINK","3TZDZ3Y0JSSRVQSC3SM97PDQ3Z7196","","478.69999998807907","img/animal2.png","75","479.60000002384186","2","1","3","0.7,0,0.8,0.7,0.8,0,0.7,0.8,0",""
"","html-keyboard-response","354","364041","0.0-354.0","3PDJHANYK62H329MYCRK4LYJYYSH6E","A3RUL1OC4CAINK","3TZDZ3Y0JSSRVQSC3SM97PDQ3Z7196","","null","<img src=""img/animal2.png"" style=""width:200px; border:14px solid green;"">","null","","","","","",""
"","image-keyboard-response","355","365011","0.0-355.0","3PDJHANYK62H329MYCRK4LYJYYSH6E","A3RUL1OC4CAINK","3TZDZ3Y0JSSRVQSC3SM97PDQ3Z7196","","969.5","img/animal5.png","74","970.3000000119209","1","1","1","0.7,0,0.8,0.7,0.8,0,0.7,0.8,0",""
"","html-keyboard-response","356","365314","0.0-356.0","3PDJHANYK62H329MYCRK4LYJYYSH6E","A3RUL1OC4CAINK","3TZDZ3Y0JSSRVQSC3SM97PDQ3Z7196","","null","<img src=""img/animal5.png"" style=""width:200px; border:14px solid green;"">","null","","","","","",""
"","image-keyboard-response","357","366227","0.0-357.0","3PDJHANYK62H329MYCRK4LYJYYSH6E","A3RUL1OC4CAINK","3TZDZ3Y0JSSRVQSC3SM97PDQ3Z7196","","911.6999999880791","img/animal6.png","74","913","1","1","2","0.7,0,0.8,0.7,0.8,0,0.7,0.8,0",""
"","html-keyboard-response","358","366531","0.0-358.0","3PDJHANYK62H329MYCRK4LYJYYSH6E","A3RUL1OC4CAINK","3TZDZ3Y0JSSRVQSC3SM97PDQ3Z7196","","null","<img src=""img/animal6.png"" style=""width:200px; border:14px solid green;"">","null","","","","","",""
"","image-keyboard-response","359","367137","0.0-359.0","3PDJHANYK62H329MYCRK4LYJYYSH6E","A3RUL1OC4CAINK","3TZDZ3Y0JSSRVQSC3SM97PDQ3Z7196","","606","img/animal5.png","75","606.6000000238419","2","0","1","0.7,0,0.8,0.7,0.8,0,0.7,0.8,0",""
"","html-keyboard-response","360","367441","0.0-360.0","3PDJHANYK62H329MYCRK4LYJYYSH6E","A3RUL1OC4CAINK","3TZDZ3Y0JSSRVQSC3SM97PDQ3Z7196","","null","<img src=""img/animal5.png"" style=""width:200px;border:14px solid red;"">","null","","","","","",""
"","image-keyboard-response","361","368127","0.0-361.0","3PDJHANYK62H329MYCRK4LYJYYSH6E","A3RUL1OC4CAINK","3TZDZ3Y0JSSRVQSC3SM97PDQ3Z7196","","685.5","img/animal2.png","75","686.5","2","1","3","0.7,0,0.8,0.7,0.8,0,0.7,0.8,0",""
"","html-keyboard-response","362","368429","0.0-362.0","3PDJHANYK62H329MYCRK4LYJYYSH6E","A3RUL1OC4CAINK","3TZDZ3Y0JSSRVQSC3SM97PDQ3Z7196","","null","<img src=""img/animal2.png"" style=""width:200px; border:14px solid green;"">","null","","","","","",""
"","instructions","363","376364","0.0-363.0","3PDJHANYK62H329MYCRK4LYJYYSH6E","A3RUL1OC4CAINK","3TZDZ3Y0JSSRVQSC3SM97PDQ3Z7196","[{""page_index"":0,""viewing_time"":7934.399999976158}]","7934.699999988079","","","","","","","",""
"","survey-text","364","388576","0.0-364.0","3PDJHANYK62H329MYCRK4LYJYYSH6E","A3RUL1OC4CAINK","3TZDZ3Y0JSSRVQSC3SM97PDQ3Z7196","","12209.199999988079","","","","","","","","{""Q0"":""A3RUL1OC4CAINK""}"
