"success","trial_type","trial_index","time_elapsed","internal_node_id","assignmentID","mturkID","hitID","view_history","rt","stimulus","key_press","reactionTime","a","r","s","reward_cond","responses"
"true","fullscreen","0","4820","0.0-0.0","3JV9LGBJWU0TSCKFE2VW0L895ETOGS","A3TZ6KG6SP9RDT","3UAU495MIIEABANG75FBFHDC9WUUOI","","","","","","","","","",""
"","instructions","1","26115","0.0-1.0","3JV9LGBJWU0TSCKFE2VW0L895ETOGS","A3TZ6KG6SP9RDT","3UAU495MIIEABANG75FBFHDC9WUUOI","[{""page_index"":0,""viewing_time"":9410.199999988079},{""page_index"":1,""viewing_time"":1023.1000000238419},{""page_index"":2,""viewing_time"":456.5999999642372},{""page_index"":3,""viewing_time"":2840},{""page_index"":4,""viewing_time"":4432},{""page_index"":5,""viewing_time"":1295.9000000357628},{""page_index"":6,""viewing_time"":1360.0999999642372},{""page_index"":7,""viewing_time"":471.5}]","21290.19999998808","","","","","","","",""
"","image-keyboard-response","2","27407","0.0-2.0","3JV9LGBJWU0TSCKFE2VW0L895ETOGS","A3TZ6KG6SP9RDT","3UAU495MIIEABANG75FBFHDC9WUUOI","","1290.4000000357628","img/animal5.png","74","1292.5","1","1","3","1,0.5,0,1,0,0.5,0.5,0,1",""
"","html-keyboard-response","3","27712","0.0-3.0","3JV9LGBJWU0TSCKFE2VW0L895ETOGS","A3TZ6KG6SP9RDT","3UAU495MIIEABANG75FBFHDC9WUUOI","","null","<img src=""img/animal5.png"" style=""width:200px; border:14px solid green;"">","null","","","","","",""
"","image-keyboard-response","4","27717","0.0-4.0","3JV9LGBJWU0TSCKFE2VW0L895ETOGS","A3TZ6KG6SP9RDT","3UAU495MIIEABANG75FBFHDC9WUUOI","","0.7999999523162842","img/animal5.png","74","3.100000023841858","1","0","3","1,0.5,0,1,0,0.5,0.5,0,1",""
"","html-keyboard-response","5","28020","0.0-5.0","3JV9LGBJWU0TSCKFE2VW0L895ETOGS","A3TZ6KG6SP9RDT","3UAU495MIIEABANG75FBFHDC9WUUOI","","null","<img src=""img/animal5.png"" style=""width:200px;border:14px solid red;"">","null","","","","","",""
"","image-keyboard-response","6","28415","0.0-6.0","3JV9LGBJWU0TSCKFE2VW0L895ETOGS","A3TZ6KG6SP9RDT","3UAU495MIIEABANG75FBFHDC9WUUOI","","392.5","img/animal3.png","75","394.5","2","0","2","1,0.5,0,1,0,0.5,0.5,0,1",""
"","html-keyboard-response","7","28718","0.0-7.0","3JV9LGBJWU0TSCKFE2VW0L895ETOGS","A3TZ6KG6SP9RDT","3UAU495MIIEABANG75FBFHDC9WUUOI","","null","<img src=""img/animal3.png"" style=""width:200px;border:14px solid red;"">","null","","","","","",""
"","image-keyboard-response","8","28964","0.0-8.0","3JV9LGBJWU0TSCKFE2VW0L895ETOGS","A3TZ6KG6SP9RDT","3UAU495MIIEABANG75FBFHDC9WUUOI","","243.5","img/animal5.png","75","245.30000001192093","2","0","3","1,0.5,0,1,0,0.5,0.5,0,1",""
"","html-keyboard-response","9","29272","0.0-9.0","3JV9LGBJWU0TSCKFE2VW0L895ETOGS","A3TZ6KG6SP9RDT","3UAU495MIIEABANG75FBFHDC9WUUOI","","null","<img src=""img/animal5.png"" style=""width:200px;border:14px solid red;"">","null","","","","","",""
"","image-keyboard-response","10","29337","0.0-10.0","3JV9LGBJWU0TSCKFE2VW0L895ETOGS","A3TZ6KG6SP9RDT","3UAU495MIIEABANG75FBFHDC9WUUOI","","62.30000001192093","img/animal5.png","76","64.30000001192093","3","1","3","1,0.5,0,1,0,0.5,0.5,0,1",""
"","html-keyboard-response","11","29641","0.0-11.0","3JV9LGBJWU0TSCKFE2VW0L895ETOGS","A3TZ6KG6SP9RDT","3UAU495MIIEABANG75FBFHDC9WUUOI","","null","<img src=""img/animal5.png"" style=""width:200px; border:14px solid green;"">","null","","","","","",""
"","image-keyboard-response","12","30115","0.0-12.0","3JV9LGBJWU0TSCKFE2VW0L895ETOGS","A3TZ6KG6SP9RDT","3UAU495MIIEABANG75FBFHDC9WUUOI","","471.60000002384186","img/animal5.png","75","473.19999998807907","2","0","3","1,0.5,0,1,0,0.5,0.5,0,1",""
"","html-keyboard-response","13","30418","0.0-13.0","3JV9LGBJWU0TSCKFE2VW0L895ETOGS","A3TZ6KG6SP9RDT","3UAU495MIIEABANG75FBFHDC9WUUOI","","null","<img src=""img/animal5.png"" style=""width:200px;border:14px solid red;"">","null","","","","","",""
"","image-keyboard-response","14","30614","0.0-14.0","3JV9LGBJWU0TSCKFE2VW0L895ETOGS","A3TZ6KG6SP9RDT","3UAU495MIIEABANG75FBFHDC9WUUOI","","193","img/animal3.png","74","194.80000001192093","1","1","2","1,0.5,0,1,0,0.5,0.5,0,1",""
"","html-keyboard-response","15","30917","0.0-15.0","3JV9LGBJWU0TSCKFE2VW0L895ETOGS","A3TZ6KG6SP9RDT","3UAU495MIIEABANG75FBFHDC9WUUOI","","null","<img src=""img/animal3.png"" style=""width:200px; border:14px solid green;"">","null","","","","","",""
"","image-keyboard-response","16","31105","0.0-16.0","3JV9LGBJWU0TSCKFE2VW0L895ETOGS","A3TZ6KG6SP9RDT","3UAU495MIIEABANG75FBFHDC9WUUOI","","185","img/animal5.png","74","186.80000001192093","1","0","3","1,0.5,0,1,0,0.5,0.5,0,1",""
"","html-keyboard-response","17","31408","0.0-17.0","3JV9LGBJWU0TSCKFE2VW0L895ETOGS","A3TZ6KG6SP9RDT","3UAU495MIIEABANG75FBFHDC9WUUOI","","null","<img src=""img/animal5.png"" style=""width:200px;border:14px solid red;"">","null","","","","","",""
"","image-keyboard-response","18","31422","0.0-18.0","3JV9LGBJWU0TSCKFE2VW0L895ETOGS","A3TZ6KG6SP9RDT","3UAU495MIIEABANG75FBFHDC9WUUOI","","12.100000023841858","img/animal3.png","75","13.800000011920929","2","0","2","1,0.5,0,1,0,0.5,0.5,0,1",""
"","html-keyboard-response","19","31728","0.0-19.0","3JV9LGBJWU0TSCKFE2VW0L895ETOGS","A3TZ6KG6SP9RDT","3UAU495MIIEABANG75FBFHDC9WUUOI","","null","<img src=""img/animal3.png"" style=""width:200px;border:14px solid red;"">","null","","","","","",""
"","image-keyboard-response","20","31954","0.0-20.0","3JV9LGBJWU0TSCKFE2VW0L895ETOGS","A3TZ6KG6SP9RDT","3UAU495MIIEABANG75FBFHDC9WUUOI","","224","img/animal3.png","76","226.10000002384186","3","0","2","1,0.5,0,1,0,0.5,0.5,0,1",""
"","html-keyboard-response","21","32256","0.0-21.0","3JV9LGBJWU0TSCKFE2VW0L895ETOGS","A3TZ6KG6SP9RDT","3UAU495MIIEABANG75FBFHDC9WUUOI","","null","<img src=""img/animal3.png"" style=""width:200px;border:14px solid red;"">","null","","","","","",""
"","image-keyboard-response","22","32377","0.0-22.0","3JV9LGBJWU0TSCKFE2VW0L895ETOGS","A3TZ6KG6SP9RDT","3UAU495MIIEABANG75FBFHDC9WUUOI","","118.59999996423721","img/animal6.png","76","120.20000004768372","3","0","1","1,0.5,0,1,0,0.5,0.5,0,1",""
"","html-keyboard-response","23","32681","0.0-23.0","3JV9LGBJWU0TSCKFE2VW0L895ETOGS","A3TZ6KG6SP9RDT","3UAU495MIIEABANG75FBFHDC9WUUOI","","null","<img src=""img/animal6.png"" style=""width:200px;border:14px solid red;"">","null","","","","","",""
"","image-keyboard-response","24","32825","0.0-24.0","3JV9LGBJWU0TSCKFE2VW0L895ETOGS","A3TZ6KG6SP9RDT","3UAU495MIIEABANG75FBFHDC9WUUOI","","142.69999998807907","img/animal3.png","74","144","1","1","2","1,0.5,0,1,0,0.5,0.5,0,1",""
"","html-keyboard-response","25","33128","0.0-25.0","3JV9LGBJWU0TSCKFE2VW0L895ETOGS","A3TZ6KG6SP9RDT","3UAU495MIIEABANG75FBFHDC9WUUOI","","null","<img src=""img/animal3.png"" style=""width:200px; border:14px solid green;"">","null","","","","","",""
"","image-keyboard-response","26","33441","0.0-26.0","3JV9LGBJWU0TSCKFE2VW0L895ETOGS","A3TZ6KG6SP9RDT","3UAU495MIIEABANG75FBFHDC9WUUOI","","311.10000002384186","img/animal3.png","76","312.69999998807907","3","0","2","1,0.5,0,1,0,0.5,0.5,0,1",""
"","html-keyboard-response","27","33744","0.0-27.0","3JV9LGBJWU0TSCKFE2VW0L895ETOGS","A3TZ6KG6SP9RDT","3UAU495MIIEABANG75FBFHDC9WUUOI","","null","<img src=""img/animal3.png"" style=""width:200px;border:14px solid red;"">","null","","","","","",""
"","image-keyboard-response","28","33806","0.0-28.0","3JV9LGBJWU0TSCKFE2VW0L895ETOGS","A3TZ6KG6SP9RDT","3UAU495MIIEABANG75FBFHDC9WUUOI","","60.10000002384186","img/animal6.png","75","61.80000001192093","2","1","1","1,0.5,0,1,0,0.5,0.5,0,1",""
"","html-keyboard-response","29","34109","0.0-29.0","3JV9LGBJWU0TSCKFE2VW0L895ETOGS","A3TZ6KG6SP9RDT","3UAU495MIIEABANG75FBFHDC9WUUOI","","null","<img src=""img/animal6.png"" style=""width:200px; border:14px solid green;"">","null","","","","","",""
"","image-keyboard-response","30","34375","0.0-30.0","3JV9LGBJWU0TSCKFE2VW0L895ETOGS","A3TZ6KG6SP9RDT","3UAU495MIIEABANG75FBFHDC9WUUOI","","263.89999997615814","img/animal5.png","74","265.30000001192093","1","1","3","1,0.5,0,1,0,0.5,0.5,0,1",""
"","html-keyboard-response","31","34677","0.0-31.0","3JV9LGBJWU0TSCKFE2VW0L895ETOGS","A3TZ6KG6SP9RDT","3UAU495MIIEABANG75FBFHDC9WUUOI","","null","<img src=""img/animal5.png"" style=""width:200px; border:14px solid green;"">","null","","","","","",""
"","image-keyboard-response","32","34945","0.0-32.0","3JV9LGBJWU0TSCKFE2VW0L895ETOGS","A3TZ6KG6SP9RDT","3UAU495MIIEABANG75FBFHDC9WUUOI","","264.9000000357628","img/animal3.png","75","266.89999997615814","2","0","2","1,0.5,0,1,0,0.5,0.5,0,1",""
"","html-keyboard-response","33","35247","0.0-33.0","3JV9LGBJWU0TSCKFE2VW0L895ETOGS","A3TZ6KG6SP9RDT","3UAU495MIIEABANG75FBFHDC9WUUOI","","null","<img src=""img/animal3.png"" style=""width:200px;border:14px solid red;"">","null","","","","","",""
"","image-keyboard-response","34","35501","0.0-34.0","3JV9LGBJWU0TSCKFE2VW0L895ETOGS","A3TZ6KG6SP9RDT","3UAU495MIIEABANG75FBFHDC9WUUOI","","252","img/animal5.png","74","253.19999998807907","1","1","3","1,0.5,0,1,0,0.5,0.5,0,1",""
"","html-keyboard-response","35","35803","0.0-35.0","3JV9LGBJWU0TSCKFE2VW0L895ETOGS","A3TZ6KG6SP9RDT","3UAU495MIIEABANG75FBFHDC9WUUOI","","null","<img src=""img/animal5.png"" style=""width:200px; border:14px solid green;"">","null","","","","","",""
"","image-keyboard-response","36","36014","0.0-36.0","3JV9LGBJWU0TSCKFE2VW0L895ETOGS","A3TZ6KG6SP9RDT","3UAU495MIIEABANG75FBFHDC9WUUOI","","209","img/animal3.png","76","210.60000002384186","3","1","2","1,0.5,0,1,0,0.5,0.5,0,1",""
"","html-keyboard-response","37","36318","0.0-37.0","3JV9LGBJWU0TSCKFE2VW0L895ETOGS","A3TZ6KG6SP9RDT","3UAU495MIIEABANG75FBFHDC9WUUOI","","null","<img src=""img/animal3.png"" style=""width:200px; border:14px solid green;"">","null","","","","","",""
"","image-keyboard-response","38","36437","0.0-38.0","3JV9LGBJWU0TSCKFE2VW0L895ETOGS","A3TZ6KG6SP9RDT","3UAU495MIIEABANG75FBFHDC9WUUOI","","117.39999997615814","img/animal3.png","75","118.59999996423721","2","0","2","1,0.5,0,1,0,0.5,0.5,0,1",""
"","html-keyboard-response","39","36740","0.0-39.0","3JV9LGBJWU0TSCKFE2VW0L895ETOGS","A3TZ6KG6SP9RDT","3UAU495MIIEABANG75FBFHDC9WUUOI","","null","<img src=""img/animal3.png"" style=""width:200px;border:14px solid red;"">","null","","","","","",""
"","image-keyboard-response","40","36876","0.0-40.0","3JV9LGBJWU0TSCKFE2VW0L895ETOGS","A3TZ6KG6SP9RDT","3UAU495MIIEABANG75FBFHDC9WUUOI","","134","img/animal6.png","76","135.60000002384186","3","0","1","1,0.5,0,1,0,0.5,0.5,0,1",""
"","html-keyboard-response","41","37179","0.0-41.0","3JV9LGBJWU0TSCKFE2VW0L895ETOGS","A3TZ6KG6SP9RDT","3UAU495MIIEABANG75FBFHDC9WUUOI","","null","<img src=""img/animal6.png"" style=""width:200px;border:14px solid red;"">","null","","","","","",""
"","image-keyboard-response","42","37195","0.0-42.0","3JV9LGBJWU0TSCKFE2VW0L895ETOGS","A3TZ6KG6SP9RDT","3UAU495MIIEABANG75FBFHDC9WUUOI","","14","img/animal5.png","74","15.399999976158142","1","1","3","1,0.5,0,1,0,0.5,0.5,0,1",""
"","html-keyboard-response","43","37498","0.0-43.0","3JV9LGBJWU0TSCKFE2VW0L895ETOGS","A3TZ6KG6SP9RDT","3UAU495MIIEABANG75FBFHDC9WUUOI","","null","<img src=""img/animal5.png"" style=""width:200px; border:14px solid green;"">","null","","","","","",""
"","image-keyboard-response","44","37525","0.0-44.0","3JV9LGBJWU0TSCKFE2VW0L895ETOGS","A3TZ6KG6SP9RDT","3UAU495MIIEABANG75FBFHDC9WUUOI","","24.69999998807907","img/animal5.png","74","25.80000001192093","1","0","3","1,0.5,0,1,0,0.5,0.5,0,1",""
"","html-keyboard-response","45","37827","0.0-45.0","3JV9LGBJWU0TSCKFE2VW0L895ETOGS","A3TZ6KG6SP9RDT","3UAU495MIIEABANG75FBFHDC9WUUOI","","null","<img src=""img/animal5.png"" style=""width:200px;border:14px solid red;"">","null","","","","","",""
"","image-keyboard-response","46","38259","0.0-46.0","3JV9LGBJWU0TSCKFE2VW0L895ETOGS","A3TZ6KG6SP9RDT","3UAU495MIIEABANG75FBFHDC9WUUOI","","429.69999998807907","img/animal3.png","75","431.39999997615814","2","0","2","1,0.5,0,1,0,0.5,0.5,0,1",""
"","html-keyboard-response","47","38571","0.0-47.0","3JV9LGBJWU0TSCKFE2VW0L895ETOGS","A3TZ6KG6SP9RDT","3UAU495MIIEABANG75FBFHDC9WUUOI","","null","<img src=""img/animal3.png"" style=""width:200px;border:14px solid red;"">","null","","","","","",""
"","image-keyboard-response","48","38702","0.0-48.0","3JV9LGBJWU0TSCKFE2VW0L895ETOGS","A3TZ6KG6SP9RDT","3UAU495MIIEABANG75FBFHDC9WUUOI","","128.30000001192093","img/animal6.png","76","130","3","0","1","1,0.5,0,1,0,0.5,0.5,0,1",""
"","html-keyboard-response","49","39005","0.0-49.0","3JV9LGBJWU0TSCKFE2VW0L895ETOGS","A3TZ6KG6SP9RDT","3UAU495MIIEABANG75FBFHDC9WUUOI","","null","<img src=""img/animal6.png"" style=""width:200px;border:14px solid red;"">","null","","","","","",""
"","image-keyboard-response","50","39164","0.0-50.0","3JV9LGBJWU0TSCKFE2VW0L895ETOGS","A3TZ6KG6SP9RDT","3UAU495MIIEABANG75FBFHDC9WUUOI","","156.89999997615814","img/animal3.png","75","158.9000000357628","2","0","2","1,0.5,0,1,0,0.5,0.5,0,1",""
"","html-keyboard-response","51","39467","0.0-51.0","3JV9LGBJWU0TSCKFE2VW0L895ETOGS","A3TZ6KG6SP9RDT","3UAU495MIIEABANG75FBFHDC9WUUOI","","null","<img src=""img/animal3.png"" style=""width:200px;border:14px solid red;"">","null","","","","","",""
"","image-keyboard-response","52","39703","0.0-52.0","3JV9LGBJWU0TSCKFE2VW0L895ETOGS","A3TZ6KG6SP9RDT","3UAU495MIIEABANG75FBFHDC9WUUOI","","233.60000002384186","img/animal3.png","74","235.69999998807907","1","1","2","1,0.5,0,1,0,0.5,0.5,0,1",""
"","html-keyboard-response","53","40006","0.0-53.0","3JV9LGBJWU0TSCKFE2VW0L895ETOGS","A3TZ6KG6SP9RDT","3UAU495MIIEABANG75FBFHDC9WUUOI","","null","<img src=""img/animal3.png"" style=""width:200px; border:14px solid green;"">","null","","","","","",""
"","image-keyboard-response","54","40204","0.0-54.0","3JV9LGBJWU0TSCKFE2VW0L895ETOGS","A3TZ6KG6SP9RDT","3UAU495MIIEABANG75FBFHDC9WUUOI","","195.19999998807907","img/animal3.png","74","197.10000002384186","1","1","2","1,0.5,0,1,0,0.5,0.5,0,1",""
"","html-keyboard-response","55","40506","0.0-55.0","3JV9LGBJWU0TSCKFE2VW0L895ETOGS","A3TZ6KG6SP9RDT","3UAU495MIIEABANG75FBFHDC9WUUOI","","null","<img src=""img/animal3.png"" style=""width:200px; border:14px solid green;"">","null","","","","","",""
"","image-keyboard-response","56","40718","0.0-56.0","3JV9LGBJWU0TSCKFE2VW0L895ETOGS","A3TZ6KG6SP9RDT","3UAU495MIIEABANG75FBFHDC9WUUOI","","209.60000002384186","img/animal6.png","74","211.0999999642372","1","1","1","1,0.5,0,1,0,0.5,0.5,0,1",""
"","html-keyboard-response","57","41020","0.0-57.0","3JV9LGBJWU0TSCKFE2VW0L895ETOGS","A3TZ6KG6SP9RDT","3UAU495MIIEABANG75FBFHDC9WUUOI","","null","<img src=""img/animal6.png"" style=""width:200px; border:14px solid green;"">","null","","","","","",""
"","image-keyboard-response","58","41262","0.0-58.0","3JV9LGBJWU0TSCKFE2VW0L895ETOGS","A3TZ6KG6SP9RDT","3UAU495MIIEABANG75FBFHDC9WUUOI","","239.60000002384186","img/animal3.png","75","241.5","2","0","2","1,0.5,0,1,0,0.5,0.5,0,1",""
"","html-keyboard-response","59","41566","0.0-59.0","3JV9LGBJWU0TSCKFE2VW0L895ETOGS","A3TZ6KG6SP9RDT","3UAU495MIIEABANG75FBFHDC9WUUOI","","null","<img src=""img/animal3.png"" style=""width:200px;border:14px solid red;"">","null","","","","","",""
"","image-keyboard-response","60","41834","0.0-60.0","3JV9LGBJWU0TSCKFE2VW0L895ETOGS","A3TZ6KG6SP9RDT","3UAU495MIIEABANG75FBFHDC9WUUOI","","265.89999997615814","img/animal5.png","74","267.60000002384186","1","1","3","1,0.5,0,1,0,0.5,0.5,0,1",""
"","html-keyboard-response","61","42136","0.0-61.0","3JV9LGBJWU0TSCKFE2VW0L895ETOGS","A3TZ6KG6SP9RDT","3UAU495MIIEABANG75FBFHDC9WUUOI","","null","<img src=""img/animal5.png"" style=""width:200px; border:14px solid green;"">","null","","","","","",""
"","image-keyboard-response","62","42338","0.0-62.0","3JV9LGBJWU0TSCKFE2VW0L895ETOGS","A3TZ6KG6SP9RDT","3UAU495MIIEABANG75FBFHDC9WUUOI","","200.10000002384186","img/animal6.png","74","201.5","1","1","1","1,0.5,0,1,0,0.5,0.5,0,1",""
"","html-keyboard-response","63","42642","0.0-63.0","3JV9LGBJWU0TSCKFE2VW0L895ETOGS","A3TZ6KG6SP9RDT","3UAU495MIIEABANG75FBFHDC9WUUOI","","null","<img src=""img/animal6.png"" style=""width:200px; border:14px solid green;"">","null","","","","","",""
"","image-keyboard-response","64","43053","0.0-64.0","3JV9LGBJWU0TSCKFE2VW0L895ETOGS","A3TZ6KG6SP9RDT","3UAU495MIIEABANG75FBFHDC9WUUOI","","408.80000001192093","img/animal3.png","74","410.80000001192093","1","1","2","1,0.5,0,1,0,0.5,0.5,0,1",""
"","html-keyboard-response","65","43357","0.0-65.0","3JV9LGBJWU0TSCKFE2VW0L895ETOGS","A3TZ6KG6SP9RDT","3UAU495MIIEABANG75FBFHDC9WUUOI","","null","<img src=""img/animal3.png"" style=""width:200px; border:14px solid green;"">","null","","","","","",""
"","image-keyboard-response","66","44207","0.0-66.0","3JV9LGBJWU0TSCKFE2VW0L895ETOGS","A3TZ6KG6SP9RDT","3UAU495MIIEABANG75FBFHDC9WUUOI","","847.1999999880791","img/animal6.png","75","849.1999999880791","2","0","1","1,0.5,0,1,0,0.5,0.5,0,1",""
"","html-keyboard-response","67","44510","0.0-67.0","3JV9LGBJWU0TSCKFE2VW0L895ETOGS","A3TZ6KG6SP9RDT","3UAU495MIIEABANG75FBFHDC9WUUOI","","null","<img src=""img/animal6.png"" style=""width:200px;border:14px solid red;"">","null","","","","","",""
"","image-keyboard-response","68","44691","0.0-68.0","3JV9LGBJWU0TSCKFE2VW0L895ETOGS","A3TZ6KG6SP9RDT","3UAU495MIIEABANG75FBFHDC9WUUOI","","179.60000002384186","img/animal3.png","76","181.0999999642372","3","1","2","1,0.5,0,1,0,0.5,0.5,0,1",""
"","html-keyboard-response","69","44994","0.0-69.0","3JV9LGBJWU0TSCKFE2VW0L895ETOGS","A3TZ6KG6SP9RDT","3UAU495MIIEABANG75FBFHDC9WUUOI","","null","<img src=""img/animal3.png"" style=""width:200px; border:14px solid green;"">","null","","","","","",""
"","image-keyboard-response","70","45123","0.0-70.0","3JV9LGBJWU0TSCKFE2VW0L895ETOGS","A3TZ6KG6SP9RDT","3UAU495MIIEABANG75FBFHDC9WUUOI","","126.5","img/animal5.png","76","128.20000004768372","3","1","3","1,0.5,0,1,0,0.5,0.5,0,1",""
"","html-keyboard-response","71","45426","0.0-71.0","3JV9LGBJWU0TSCKFE2VW0L895ETOGS","A3TZ6KG6SP9RDT","3UAU495MIIEABANG75FBFHDC9WUUOI","","null","<img src=""img/animal5.png"" style=""width:200px; border:14px solid green;"">","null","","","","","",""
"","image-keyboard-response","72","45552","0.0-72.0","3JV9LGBJWU0TSCKFE2VW0L895ETOGS","A3TZ6KG6SP9RDT","3UAU495MIIEABANG75FBFHDC9WUUOI","","124.59999996423721","img/animal3.png","76","126.10000002384186","3","1","2","1,0.5,0,1,0,0.5,0.5,0,1",""
"","html-keyboard-response","73","45855","0.0-73.0","3JV9LGBJWU0TSCKFE2VW0L895ETOGS","A3TZ6KG6SP9RDT","3UAU495MIIEABANG75FBFHDC9WUUOI","","null","<img src=""img/animal3.png"" style=""width:200px; border:14px solid green;"">","null","","","","","",""
"","image-keyboard-response","74","46221","0.0-74.0","3JV9LGBJWU0TSCKFE2VW0L895ETOGS","A3TZ6KG6SP9RDT","3UAU495MIIEABANG75FBFHDC9WUUOI","","364.4000000357628","img/animal3.png","76","366.10000002384186","3","1","2","1,0.5,0,1,0,0.5,0.5,0,1",""
"","html-keyboard-response","75","46524","0.0-75.0","3JV9LGBJWU0TSCKFE2VW0L895ETOGS","A3TZ6KG6SP9RDT","3UAU495MIIEABANG75FBFHDC9WUUOI","","null","<img src=""img/animal3.png"" style=""width:200px; border:14px solid green;"">","null","","","","","",""
"","image-keyboard-response","76","46794","0.0-76.0","3JV9LGBJWU0TSCKFE2VW0L895ETOGS","A3TZ6KG6SP9RDT","3UAU495MIIEABANG75FBFHDC9WUUOI","","268.10000002384186","img/animal6.png","76","269.69999998807907","3","0","1","1,0.5,0,1,0,0.5,0.5,0,1",""
"","html-keyboard-response","77","47098","0.0-77.0","3JV9LGBJWU0TSCKFE2VW0L895ETOGS","A3TZ6KG6SP9RDT","3UAU495MIIEABANG75FBFHDC9WUUOI","","null","<img src=""img/animal6.png"" style=""width:200px;border:14px solid red;"">","null","","","","","",""
"","image-keyboard-response","78","47193","0.0-78.0","3JV9LGBJWU0TSCKFE2VW0L895ETOGS","A3TZ6KG6SP9RDT","3UAU495MIIEABANG75FBFHDC9WUUOI","","93","img/animal5.png","74","94.60000002384186","1","0","3","1,0.5,0,1,0,0.5,0.5,0,1",""
"","html-keyboard-response","79","47497","0.0-79.0","3JV9LGBJWU0TSCKFE2VW0L895ETOGS","A3TZ6KG6SP9RDT","3UAU495MIIEABANG75FBFHDC9WUUOI","","null","<img src=""img/animal5.png"" style=""width:200px;border:14px solid red;"">","null","","","","","",""
"","image-keyboard-response","80","47766","0.0-80.0","3JV9LGBJWU0TSCKFE2VW0L895ETOGS","A3TZ6KG6SP9RDT","3UAU495MIIEABANG75FBFHDC9WUUOI","","266.5","img/animal6.png","74","268","1","1","1","1,0.5,0,1,0,0.5,0.5,0,1",""
"","html-keyboard-response","81","48069","0.0-81.0","3JV9LGBJWU0TSCKFE2VW0L895ETOGS","A3TZ6KG6SP9RDT","3UAU495MIIEABANG75FBFHDC9WUUOI","","null","<img src=""img/animal6.png"" style=""width:200px; border:14px solid green;"">","null","","","","","",""
"","image-keyboard-response","82","48297","0.0-82.0","3JV9LGBJWU0TSCKFE2VW0L895ETOGS","A3TZ6KG6SP9RDT","3UAU495MIIEABANG75FBFHDC9WUUOI","","225.89999997615814","img/animal6.png","74","227.5","1","1","1","1,0.5,0,1,0,0.5,0.5,0,1",""
"","html-keyboard-response","83","48600","0.0-83.0","3JV9LGBJWU0TSCKFE2VW0L895ETOGS","A3TZ6KG6SP9RDT","3UAU495MIIEABANG75FBFHDC9WUUOI","","null","<img src=""img/animal6.png"" style=""width:200px; border:14px solid green;"">","null","","","","","",""
"","image-keyboard-response","84","48954","0.0-84.0","3JV9LGBJWU0TSCKFE2VW0L895ETOGS","A3TZ6KG6SP9RDT","3UAU495MIIEABANG75FBFHDC9WUUOI","","352","img/animal5.png","74","353.5","1","1","3","1,0.5,0,1,0,0.5,0.5,0,1",""
"","html-keyboard-response","85","49256","0.0-85.0","3JV9LGBJWU0TSCKFE2VW0L895ETOGS","A3TZ6KG6SP9RDT","3UAU495MIIEABANG75FBFHDC9WUUOI","","null","<img src=""img/animal5.png"" style=""width:200px; border:14px solid green;"">","null","","","","","",""
"","image-keyboard-response","86","49353","0.0-86.0","3JV9LGBJWU0TSCKFE2VW0L895ETOGS","A3TZ6KG6SP9RDT","3UAU495MIIEABANG75FBFHDC9WUUOI","","94.39999997615814","img/animal6.png","74","96","1","1","1","1,0.5,0,1,0,0.5,0.5,0,1",""
"","html-keyboard-response","87","49656","0.0-87.0","3JV9LGBJWU0TSCKFE2VW0L895ETOGS","A3TZ6KG6SP9RDT","3UAU495MIIEABANG75FBFHDC9WUUOI","","null","<img src=""img/animal6.png"" style=""width:200px; border:14px solid green;"">","null","","","","","",""
"","image-keyboard-response","88","49757","0.0-88.0","3JV9LGBJWU0TSCKFE2VW0L895ETOGS","A3TZ6KG6SP9RDT","3UAU495MIIEABANG75FBFHDC9WUUOI","","98.5","img/animal6.png","74","100.09999996423721","1","1","1","1,0.5,0,1,0,0.5,0.5,0,1",""
"","html-keyboard-response","89","50061","0.0-89.0","3JV9LGBJWU0TSCKFE2VW0L895ETOGS","A3TZ6KG6SP9RDT","3UAU495MIIEABANG75FBFHDC9WUUOI","","null","<img src=""img/animal6.png"" style=""width:200px; border:14px solid green;"">","null","","","","","",""
"","image-keyboard-response","90","50138","0.0-90.0","3JV9LGBJWU0TSCKFE2VW0L895ETOGS","A3TZ6KG6SP9RDT","3UAU495MIIEABANG75FBFHDC9WUUOI","","75.5","img/animal5.png","74","77.39999997615814","1","1","3","1,0.5,0,1,0,0.5,0.5,0,1",""
"","html-keyboard-response","91","50441","0.0-91.0","3JV9LGBJWU0TSCKFE2VW0L895ETOGS","A3TZ6KG6SP9RDT","3UAU495MIIEABANG75FBFHDC9WUUOI","","null","<img src=""img/animal5.png"" style=""width:200px; border:14px solid green;"">","null","","","","","",""
"","image-keyboard-response","92","50482","0.0-92.0","3JV9LGBJWU0TSCKFE2VW0L895ETOGS","A3TZ6KG6SP9RDT","3UAU495MIIEABANG75FBFHDC9WUUOI","","39.19999998807907","img/animal3.png","74","40.90000003576279","1","1","2","1,0.5,0,1,0,0.5,0.5,0,1",""
"","html-keyboard-response","93","50786","0.0-93.0","3JV9LGBJWU0TSCKFE2VW0L895ETOGS","A3TZ6KG6SP9RDT","3UAU495MIIEABANG75FBFHDC9WUUOI","","null","<img src=""img/animal3.png"" style=""width:200px; border:14px solid green;"">","null","","","","","",""
"","image-keyboard-response","94","50904","0.0-94.0","3JV9LGBJWU0TSCKFE2VW0L895ETOGS","A3TZ6KG6SP9RDT","3UAU495MIIEABANG75FBFHDC9WUUOI","","116.60000002384186","img/animal6.png","74","118.10000002384186","1","1","1","1,0.5,0,1,0,0.5,0.5,0,1",""
"","html-keyboard-response","95","51206","0.0-95.0","3JV9LGBJWU0TSCKFE2VW0L895ETOGS","A3TZ6KG6SP9RDT","3UAU495MIIEABANG75FBFHDC9WUUOI","","null","<img src=""img/animal6.png"" style=""width:200px; border:14px solid green;"">","null","","","","","",""
"","image-keyboard-response","96","51253","0.0-96.0","3JV9LGBJWU0TSCKFE2VW0L895ETOGS","A3TZ6KG6SP9RDT","3UAU495MIIEABANG75FBFHDC9WUUOI","","44.60000002384186","img/animal6.png","74","46.10000002384186","1","1","1","1,0.5,0,1,0,0.5,0.5,0,1",""
"","html-keyboard-response","97","51556","0.0-97.0","3JV9LGBJWU0TSCKFE2VW0L895ETOGS","A3TZ6KG6SP9RDT","3UAU495MIIEABANG75FBFHDC9WUUOI","","null","<img src=""img/animal6.png"" style=""width:200px; border:14px solid green;"">","null","","","","","",""
"","image-keyboard-response","98","51602","0.0-98.0","3JV9LGBJWU0TSCKFE2VW0L895ETOGS","A3TZ6KG6SP9RDT","3UAU495MIIEABANG75FBFHDC9WUUOI","","44.69999998807907","img/animal5.png","74","46.19999998807907","1","1","3","1,0.5,0,1,0,0.5,0.5,0,1",""
"","html-keyboard-response","99","51905","0.0-99.0","3JV9LGBJWU0TSCKFE2VW0L895ETOGS","A3TZ6KG6SP9RDT","3UAU495MIIEABANG75FBFHDC9WUUOI","","null","<img src=""img/animal5.png"" style=""width:200px; border:14px solid green;"">","null","","","","","",""
"","image-keyboard-response","100","51983","0.0-100.0","3JV9LGBJWU0TSCKFE2VW0L895ETOGS","A3TZ6KG6SP9RDT","3UAU495MIIEABANG75FBFHDC9WUUOI","","75.5","img/animal5.png","74","77.19999998807907","1","1","3","1,0.5,0,1,0,0.5,0.5,0,1",""
"","html-keyboard-response","101","52286","0.0-101.0","3JV9LGBJWU0TSCKFE2VW0L895ETOGS","A3TZ6KG6SP9RDT","3UAU495MIIEABANG75FBFHDC9WUUOI","","null","<img src=""img/animal5.png"" style=""width:200px; border:14px solid green;"">","null","","","","","",""
"","image-keyboard-response","102","52300","0.0-102.0","3JV9LGBJWU0TSCKFE2VW0L895ETOGS","A3TZ6KG6SP9RDT","3UAU495MIIEABANG75FBFHDC9WUUOI","","12.300000011920929","img/animal6.png","74","13.599999964237213","1","1","1","1,0.5,0,1,0,0.5,0.5,0,1",""
"","html-keyboard-response","103","52603","0.0-103.0","3JV9LGBJWU0TSCKFE2VW0L895ETOGS","A3TZ6KG6SP9RDT","3UAU495MIIEABANG75FBFHDC9WUUOI","","null","<img src=""img/animal6.png"" style=""width:200px; border:14px solid green;"">","null","","","","","",""
"","image-keyboard-response","104","52743","0.0-104.0","3JV9LGBJWU0TSCKFE2VW0L895ETOGS","A3TZ6KG6SP9RDT","3UAU495MIIEABANG75FBFHDC9WUUOI","","138.39999997615814","img/animal5.png","74","139.39999997615814","1","0","3","1,0.5,0,1,0,0.5,0.5,0,1",""
"","html-keyboard-response","105","53045","0.0-105.0","3JV9LGBJWU0TSCKFE2VW0L895ETOGS","A3TZ6KG6SP9RDT","3UAU495MIIEABANG75FBFHDC9WUUOI","","null","<img src=""img/animal5.png"" style=""width:200px;border:14px solid red;"">","null","","","","","",""
"","image-keyboard-response","106","53373","0.0-106.0","3JV9LGBJWU0TSCKFE2VW0L895ETOGS","A3TZ6KG6SP9RDT","3UAU495MIIEABANG75FBFHDC9WUUOI","","325.69999998807907","img/animal5.png","76","327.19999998807907","3","1","3","1,0.5,0,1,0,0.5,0.5,0,1",""
"","html-keyboard-response","107","53676","0.0-107.0","3JV9LGBJWU0TSCKFE2VW0L895ETOGS","A3TZ6KG6SP9RDT","3UAU495MIIEABANG75FBFHDC9WUUOI","","null","<img src=""img/animal5.png"" style=""width:200px; border:14px solid green;"">","null","","","","","",""
"","image-keyboard-response","108","53726","0.0-108.0","3JV9LGBJWU0TSCKFE2VW0L895ETOGS","A3TZ6KG6SP9RDT","3UAU495MIIEABANG75FBFHDC9WUUOI","","47","img/animal5.png","74","48.60000002384186","1","0","3","1,0.5,0,1,0,0.5,0.5,0,1",""
"","html-keyboard-response","109","54029","0.0-109.0","3JV9LGBJWU0TSCKFE2VW0L895ETOGS","A3TZ6KG6SP9RDT","3UAU495MIIEABANG75FBFHDC9WUUOI","","null","<img src=""img/animal5.png"" style=""width:200px;border:14px solid red;"">","null","","","","","",""
"","image-keyboard-response","110","54088","0.0-110.0","3JV9LGBJWU0TSCKFE2VW0L895ETOGS","A3TZ6KG6SP9RDT","3UAU495MIIEABANG75FBFHDC9WUUOI","","56.69999998807907","img/animal3.png","74","58.30000001192093","1","1","2","1,0.5,0,1,0,0.5,0.5,0,1",""
"","html-keyboard-response","111","54390","0.0-111.0","3JV9LGBJWU0TSCKFE2VW0L895ETOGS","A3TZ6KG6SP9RDT","3UAU495MIIEABANG75FBFHDC9WUUOI","","null","<img src=""img/animal3.png"" style=""width:200px; border:14px solid green;"">","null","","","","","",""
"","image-keyboard-response","112","54599","0.0-112.0","3JV9LGBJWU0TSCKFE2VW0L895ETOGS","A3TZ6KG6SP9RDT","3UAU495MIIEABANG75FBFHDC9WUUOI","","206.20000004768372","img/animal6.png","74","208.0999999642372","1","1","1","1,0.5,0,1,0,0.5,0.5,0,1",""
"","html-keyboard-response","113","54902","0.0-113.0","3JV9LGBJWU0TSCKFE2VW0L895ETOGS","A3TZ6KG6SP9RDT","3UAU495MIIEABANG75FBFHDC9WUUOI","","null","<img src=""img/animal6.png"" style=""width:200px; border:14px solid green;"">","null","","","","","",""
"","image-keyboard-response","114","55014","0.0-114.0","3JV9LGBJWU0TSCKFE2VW0L895ETOGS","A3TZ6KG6SP9RDT","3UAU495MIIEABANG75FBFHDC9WUUOI","","109.5","img/animal5.png","74","111.29999995231628","1","0","3","1,0.5,0,1,0,0.5,0.5,0,1",""
"","html-keyboard-response","115","55317","0.0-115.0","3JV9LGBJWU0TSCKFE2VW0L895ETOGS","A3TZ6KG6SP9RDT","3UAU495MIIEABANG75FBFHDC9WUUOI","","null","<img src=""img/animal5.png"" style=""width:200px;border:14px solid red;"">","null","","","","","",""
"","image-keyboard-response","116","55408","0.0-116.0","3JV9LGBJWU0TSCKFE2VW0L895ETOGS","A3TZ6KG6SP9RDT","3UAU495MIIEABANG75FBFHDC9WUUOI","","88.80000001192093","img/animal6.png","74","90.39999997615814","1","1","1","1,0.5,0,1,0,0.5,0.5,0,1",""
"","html-keyboard-response","117","55712","0.0-117.0","3JV9LGBJWU0TSCKFE2VW0L895ETOGS","A3TZ6KG6SP9RDT","3UAU495MIIEABANG75FBFHDC9WUUOI","","null","<img src=""img/animal6.png"" style=""width:200px; border:14px solid green;"">","null","","","","","",""
"","image-keyboard-response","118","55802","0.0-118.0","3JV9LGBJWU0TSCKFE2VW0L895ETOGS","A3TZ6KG6SP9RDT","3UAU495MIIEABANG75FBFHDC9WUUOI","","87.10000002384186","img/animal3.png","76","88.80000001192093","3","1","2","1,0.5,0,1,0,0.5,0.5,0,1",""
"","html-keyboard-response","119","56105","0.0-119.0","3JV9LGBJWU0TSCKFE2VW0L895ETOGS","A3TZ6KG6SP9RDT","3UAU495MIIEABANG75FBFHDC9WUUOI","","null","<img src=""img/animal3.png"" style=""width:200px; border:14px solid green;"">","null","","","","","",""
"","image-keyboard-response","120","56364","0.0-120.0","3JV9LGBJWU0TSCKFE2VW0L895ETOGS","A3TZ6KG6SP9RDT","3UAU495MIIEABANG75FBFHDC9WUUOI","","257.5","img/animal6.png","75","261.60000002384186","2","1","1","1,0.5,0,1,0,0.5,0.5,0,1",""
"","html-keyboard-response","121","56670","0.0-121.0","3JV9LGBJWU0TSCKFE2VW0L895ETOGS","A3TZ6KG6SP9RDT","3UAU495MIIEABANG75FBFHDC9WUUOI","","null","<img src=""img/animal6.png"" style=""width:200px; border:14px solid green;"">","null","","","","","",""
"","image-keyboard-response","122","56781","0.0-122.0","3JV9LGBJWU0TSCKFE2VW0L895ETOGS","A3TZ6KG6SP9RDT","3UAU495MIIEABANG75FBFHDC9WUUOI","","109.30000001192093","img/animal5.png","75","110.89999997615814","2","0","3","1,0.5,0,1,0,0.5,0.5,0,1",""
"","html-keyboard-response","123","57083","0.0-123.0","3JV9LGBJWU0TSCKFE2VW0L895ETOGS","A3TZ6KG6SP9RDT","3UAU495MIIEABANG75FBFHDC9WUUOI","","null","<img src=""img/animal5.png"" style=""width:200px;border:14px solid red;"">","null","","","","","",""
"","image-keyboard-response","124","57280","0.0-124.0","3JV9LGBJWU0TSCKFE2VW0L895ETOGS","A3TZ6KG6SP9RDT","3UAU495MIIEABANG75FBFHDC9WUUOI","","194","img/animal6.png","74","195.70000004768372","1","1","1","1,0.5,0,1,0,0.5,0.5,0,1",""
"","html-keyboard-response","125","57583","0.0-125.0","3JV9LGBJWU0TSCKFE2VW0L895ETOGS","A3TZ6KG6SP9RDT","3UAU495MIIEABANG75FBFHDC9WUUOI","","null","<img src=""img/animal6.png"" style=""width:200px; border:14px solid green;"">","null","","","","","",""
"","image-keyboard-response","126","57761","0.0-126.0","3JV9LGBJWU0TSCKFE2VW0L895ETOGS","A3TZ6KG6SP9RDT","3UAU495MIIEABANG75FBFHDC9WUUOI","","175.80000001192093","img/animal3.png","74","177.20000004768372","1","1","2","1,0.5,0,1,0,0.5,0.5,0,1",""
"","html-keyboard-response","127","58064","0.0-127.0","3JV9LGBJWU0TSCKFE2VW0L895ETOGS","A3TZ6KG6SP9RDT","3UAU495MIIEABANG75FBFHDC9WUUOI","","null","<img src=""img/animal3.png"" style=""width:200px; border:14px solid green;"">","null","","","","","",""
"","image-keyboard-response","128","58101","0.0-128.0","3JV9LGBJWU0TSCKFE2VW0L895ETOGS","A3TZ6KG6SP9RDT","3UAU495MIIEABANG75FBFHDC9WUUOI","","34.5","img/animal3.png","74","36.10000002384186","1","1","2","1,0.5,0,1,0,0.5,0.5,0,1",""
"","html-keyboard-response","129","58403","0.0-129.0","3JV9LGBJWU0TSCKFE2VW0L895ETOGS","A3TZ6KG6SP9RDT","3UAU495MIIEABANG75FBFHDC9WUUOI","","null","<img src=""img/animal3.png"" style=""width:200px; border:14px solid green;"">","null","","","","","",""
"","image-keyboard-response","130","58615","0.0-130.0","3JV9LGBJWU0TSCKFE2VW0L895ETOGS","A3TZ6KG6SP9RDT","3UAU495MIIEABANG75FBFHDC9WUUOI","","209","img/animal6.png","74","211","1","1","1","1,0.5,0,1,0,0.5,0.5,0,1",""
"","html-keyboard-response","131","58917","0.0-131.0","3JV9LGBJWU0TSCKFE2VW0L895ETOGS","A3TZ6KG6SP9RDT","3UAU495MIIEABANG75FBFHDC9WUUOI","","null","<img src=""img/animal6.png"" style=""width:200px; border:14px solid green;"">","null","","","","","",""
"","image-keyboard-response","132","59149","0.0-132.0","3JV9LGBJWU0TSCKFE2VW0L895ETOGS","A3TZ6KG6SP9RDT","3UAU495MIIEABANG75FBFHDC9WUUOI","","229.39999997615814","img/animal6.png","74","231.39999997615814","1","1","1","1,0.5,0,1,0,0.5,0.5,0,1",""
"","html-keyboard-response","133","59453","0.0-133.0","3JV9LGBJWU0TSCKFE2VW0L895ETOGS","A3TZ6KG6SP9RDT","3UAU495MIIEABANG75FBFHDC9WUUOI","","null","<img src=""img/animal6.png"" style=""width:200px; border:14px solid green;"">","null","","","","","",""
"","image-keyboard-response","134","59651","0.0-134.0","3JV9LGBJWU0TSCKFE2VW0L895ETOGS","A3TZ6KG6SP9RDT","3UAU495MIIEABANG75FBFHDC9WUUOI","","197","img/animal5.png","76","197.89999997615814","3","1","3","1,0.5,0,1,0,0.5,0.5,0,1",""
"","html-keyboard-response","135","59954","0.0-135.0","3JV9LGBJWU0TSCKFE2VW0L895ETOGS","A3TZ6KG6SP9RDT","3UAU495MIIEABANG75FBFHDC9WUUOI","","null","<img src=""img/animal5.png"" style=""width:200px; border:14px solid green;"">","null","","","","","",""
"","image-keyboard-response","136","60155","0.0-136.0","3JV9LGBJWU0TSCKFE2VW0L895ETOGS","A3TZ6KG6SP9RDT","3UAU495MIIEABANG75FBFHDC9WUUOI","","199.19999998807907","img/animal6.png","76","200.9000000357628","3","0","1","1,0.5,0,1,0,0.5,0.5,0,1",""
"","html-keyboard-response","137","60458","0.0-137.0","3JV9LGBJWU0TSCKFE2VW0L895ETOGS","A3TZ6KG6SP9RDT","3UAU495MIIEABANG75FBFHDC9WUUOI","","null","<img src=""img/animal6.png"" style=""width:200px;border:14px solid red;"">","null","","","","","",""
"","image-keyboard-response","138","60671","0.0-138.0","3JV9LGBJWU0TSCKFE2VW0L895ETOGS","A3TZ6KG6SP9RDT","3UAU495MIIEABANG75FBFHDC9WUUOI","","210.19999998807907","img/animal6.png","74","211.80000001192093","1","1","1","1,0.5,0,1,0,0.5,0.5,0,1",""
"","html-keyboard-response","139","60972","0.0-139.0","3JV9LGBJWU0TSCKFE2VW0L895ETOGS","A3TZ6KG6SP9RDT","3UAU495MIIEABANG75FBFHDC9WUUOI","","null","<img src=""img/animal6.png"" style=""width:200px; border:14px solid green;"">","null","","","","","",""
"","image-keyboard-response","140","61210","0.0-140.0","3JV9LGBJWU0TSCKFE2VW0L895ETOGS","A3TZ6KG6SP9RDT","3UAU495MIIEABANG75FBFHDC9WUUOI","","234.89999997615814","img/animal3.png","74","236.80000001192093","1","1","2","1,0.5,0,1,0,0.5,0.5,0,1",""
"","html-keyboard-response","141","61512","0.0-141.0","3JV9LGBJWU0TSCKFE2VW0L895ETOGS","A3TZ6KG6SP9RDT","3UAU495MIIEABANG75FBFHDC9WUUOI","","null","<img src=""img/animal3.png"" style=""width:200px; border:14px solid green;"">","null","","","","","",""
"","image-keyboard-response","142","61667","0.0-142.0","3JV9LGBJWU0TSCKFE2VW0L895ETOGS","A3TZ6KG6SP9RDT","3UAU495MIIEABANG75FBFHDC9WUUOI","","153","img/animal3.png","74","154.5","1","1","2","1,0.5,0,1,0,0.5,0.5,0,1",""
"","html-keyboard-response","143","61970","0.0-143.0","3JV9LGBJWU0TSCKFE2VW0L895ETOGS","A3TZ6KG6SP9RDT","3UAU495MIIEABANG75FBFHDC9WUUOI","","null","<img src=""img/animal3.png"" style=""width:200px; border:14px solid green;"">","null","","","","","",""
"","image-keyboard-response","144","62131","0.0-144.0","3JV9LGBJWU0TSCKFE2VW0L895ETOGS","A3TZ6KG6SP9RDT","3UAU495MIIEABANG75FBFHDC9WUUOI","","158.30000001192093","img/animal5.png","75","159.9000000357628","2","0","3","1,0.5,0,1,0,0.5,0.5,0,1",""
"","html-keyboard-response","145","62434","0.0-145.0","3JV9LGBJWU0TSCKFE2VW0L895ETOGS","A3TZ6KG6SP9RDT","3UAU495MIIEABANG75FBFHDC9WUUOI","","null","<img src=""img/animal5.png"" style=""width:200px;border:14px solid red;"">","null","","","","","",""
"","image-keyboard-response","146","62710","0.0-146.0","3JV9LGBJWU0TSCKFE2VW0L895ETOGS","A3TZ6KG6SP9RDT","3UAU495MIIEABANG75FBFHDC9WUUOI","","274.30000001192093","img/animal6.png","74","275.9000000357628","1","1","1","1,0.5,0,1,0,0.5,0.5,0,1",""
"","html-keyboard-response","147","63012","0.0-147.0","3JV9LGBJWU0TSCKFE2VW0L895ETOGS","A3TZ6KG6SP9RDT","3UAU495MIIEABANG75FBFHDC9WUUOI","","null","<img src=""img/animal6.png"" style=""width:200px; border:14px solid green;"">","null","","","","","",""
"","image-keyboard-response","148","63212","0.0-148.0","3JV9LGBJWU0TSCKFE2VW0L895ETOGS","A3TZ6KG6SP9RDT","3UAU495MIIEABANG75FBFHDC9WUUOI","","197.19999998807907","img/animal5.png","74","198.9000000357628","1","1","3","1,0.5,0,1,0,0.5,0.5,0,1",""
"","html-keyboard-response","149","63514","0.0-149.0","3JV9LGBJWU0TSCKFE2VW0L895ETOGS","A3TZ6KG6SP9RDT","3UAU495MIIEABANG75FBFHDC9WUUOI","","null","<img src=""img/animal5.png"" style=""width:200px; border:14px solid green;"">","null","","","","","",""
"","image-keyboard-response","150","63625","0.0-150.0","3JV9LGBJWU0TSCKFE2VW0L895ETOGS","A3TZ6KG6SP9RDT","3UAU495MIIEABANG75FBFHDC9WUUOI","","109.10000002384186","img/animal6.png","74","110.60000002384186","1","1","1","1,0.5,0,1,0,0.5,0.5,0,1",""
"","html-keyboard-response","151","63928","0.0-151.0","3JV9LGBJWU0TSCKFE2VW0L895ETOGS","A3TZ6KG6SP9RDT","3UAU495MIIEABANG75FBFHDC9WUUOI","","null","<img src=""img/animal6.png"" style=""width:200px; border:14px solid green;"">","null","","","","","",""
"","image-keyboard-response","152","64148","0.0-152.0","3JV9LGBJWU0TSCKFE2VW0L895ETOGS","A3TZ6KG6SP9RDT","3UAU495MIIEABANG75FBFHDC9WUUOI","","217.39999997615814","img/animal3.png","74","219.0999999642372","1","1","2","1,0.5,0,1,0,0.5,0.5,0,1",""
"","html-keyboard-response","153","64456","0.0-153.0","3JV9LGBJWU0TSCKFE2VW0L895ETOGS","A3TZ6KG6SP9RDT","3UAU495MIIEABANG75FBFHDC9WUUOI","","null","<img src=""img/animal3.png"" style=""width:200px; border:14px solid green;"">","null","","","","","",""
"","image-keyboard-response","154","64704","0.0-154.0","3JV9LGBJWU0TSCKFE2VW0L895ETOGS","A3TZ6KG6SP9RDT","3UAU495MIIEABANG75FBFHDC9WUUOI","","244.89999997615814","img/animal6.png","74","246.69999998807907","1","1","1","1,0.5,0,1,0,0.5,0.5,0,1",""
"","html-keyboard-response","155","65006","0.0-155.0","3JV9LGBJWU0TSCKFE2VW0L895ETOGS","A3TZ6KG6SP9RDT","3UAU495MIIEABANG75FBFHDC9WUUOI","","null","<img src=""img/animal6.png"" style=""width:200px; border:14px solid green;"">","null","","","","","",""
"","image-keyboard-response","156","65013","0.0-156.0","3JV9LGBJWU0TSCKFE2VW0L895ETOGS","A3TZ6KG6SP9RDT","3UAU495MIIEABANG75FBFHDC9WUUOI","","4.699999988079071","img/animal3.png","74","6.5","1","1","2","1,0.5,0,1,0,0.5,0.5,0,1",""
"","html-keyboard-response","157","65318","0.0-157.0","3JV9LGBJWU0TSCKFE2VW0L895ETOGS","A3TZ6KG6SP9RDT","3UAU495MIIEABANG75FBFHDC9WUUOI","","null","<img src=""img/animal3.png"" style=""width:200px; border:14px solid green;"">","null","","","","","",""
"","image-keyboard-response","158","65573","0.0-158.0","3JV9LGBJWU0TSCKFE2VW0L895ETOGS","A3TZ6KG6SP9RDT","3UAU495MIIEABANG75FBFHDC9WUUOI","","252.89999997615814","img/animal6.png","74","254.19999998807907","1","1","1","1,0.5,0,1,0,0.5,0.5,0,1",""
"","html-keyboard-response","159","65876","0.0-159.0","3JV9LGBJWU0TSCKFE2VW0L895ETOGS","A3TZ6KG6SP9RDT","3UAU495MIIEABANG75FBFHDC9WUUOI","","null","<img src=""img/animal6.png"" style=""width:200px; border:14px solid green;"">","null","","","","","",""
"","image-keyboard-response","160","65928","0.0-160.0","3JV9LGBJWU0TSCKFE2VW0L895ETOGS","A3TZ6KG6SP9RDT","3UAU495MIIEABANG75FBFHDC9WUUOI","","49.69999998807907","img/animal5.png","74","51.19999998807907","1","0","3","1,0.5,0,1,0,0.5,0.5,0,1",""
"","html-keyboard-response","161","66231","0.0-161.0","3JV9LGBJWU0TSCKFE2VW0L895ETOGS","A3TZ6KG6SP9RDT","3UAU495MIIEABANG75FBFHDC9WUUOI","","null","<img src=""img/animal5.png"" style=""width:200px;border:14px solid red;"">","null","","","","","",""
"","image-keyboard-response","162","66442","0.0-162.0","3JV9LGBJWU0TSCKFE2VW0L895ETOGS","A3TZ6KG6SP9RDT","3UAU495MIIEABANG75FBFHDC9WUUOI","","208.70000004768372","img/animal3.png","76","210.0999999642372","3","1","2","1,0.5,0,1,0,0.5,0.5,0,1",""
"","html-keyboard-response","163","66745","0.0-163.0","3JV9LGBJWU0TSCKFE2VW0L895ETOGS","A3TZ6KG6SP9RDT","3UAU495MIIEABANG75FBFHDC9WUUOI","","null","<img src=""img/animal3.png"" style=""width:200px; border:14px solid green;"">","null","","","","","",""
"","image-keyboard-response","164","66775","0.0-164.0","3JV9LGBJWU0TSCKFE2VW0L895ETOGS","A3TZ6KG6SP9RDT","3UAU495MIIEABANG75FBFHDC9WUUOI","","28.099999964237213","img/animal5.png","76","29.5","3","1","3","1,0.5,0,1,0,0.5,0.5,0,1",""
"","html-keyboard-response","165","67089","0.0-165.0","3JV9LGBJWU0TSCKFE2VW0L895ETOGS","A3TZ6KG6SP9RDT","3UAU495MIIEABANG75FBFHDC9WUUOI","","null","<img src=""img/animal5.png"" style=""width:200px; border:14px solid green;"">","null","","","","","",""
"","image-keyboard-response","166","67267","0.0-166.0","3JV9LGBJWU0TSCKFE2VW0L895ETOGS","A3TZ6KG6SP9RDT","3UAU495MIIEABANG75FBFHDC9WUUOI","","175.19999998807907","img/animal3.png","75","177","2","0","2","1,0.5,0,1,0,0.5,0.5,0,1",""
"","html-keyboard-response","167","67571","0.0-167.0","3JV9LGBJWU0TSCKFE2VW0L895ETOGS","A3TZ6KG6SP9RDT","3UAU495MIIEABANG75FBFHDC9WUUOI","","null","<img src=""img/animal3.png"" style=""width:200px;border:14px solid red;"">","null","","","","","",""
"","image-keyboard-response","168","67839","0.0-168.0","3JV9LGBJWU0TSCKFE2VW0L895ETOGS","A3TZ6KG6SP9RDT","3UAU495MIIEABANG75FBFHDC9WUUOI","","265.39999997615814","img/animal6.png","76","267.19999998807907","3","0","1","1,0.5,0,1,0,0.5,0.5,0,1",""
"","html-keyboard-response","169","68142","0.0-169.0","3JV9LGBJWU0TSCKFE2VW0L895ETOGS","A3TZ6KG6SP9RDT","3UAU495MIIEABANG75FBFHDC9WUUOI","","null","<img src=""img/animal6.png"" style=""width:200px;border:14px solid red;"">","null","","","","","",""
"","image-keyboard-response","170","68150","0.0-170.0","3JV9LGBJWU0TSCKFE2VW0L895ETOGS","A3TZ6KG6SP9RDT","3UAU495MIIEABANG75FBFHDC9WUUOI","","6.100000023841858","img/animal5.png","76","7.400000035762787","3","1","3","1,0.5,0,1,0,0.5,0.5,0,1",""
"","html-keyboard-response","171","68454","0.0-171.0","3JV9LGBJWU0TSCKFE2VW0L895ETOGS","A3TZ6KG6SP9RDT","3UAU495MIIEABANG75FBFHDC9WUUOI","","null","<img src=""img/animal5.png"" style=""width:200px; border:14px solid green;"">","null","","","","","",""
"","image-keyboard-response","172","68584","0.0-172.0","3JV9LGBJWU0TSCKFE2VW0L895ETOGS","A3TZ6KG6SP9RDT","3UAU495MIIEABANG75FBFHDC9WUUOI","","128.30000001192093","img/animal6.png","74","129.5999999642372","1","1","1","1,0.5,0,1,0,0.5,0.5,0,1",""
"","html-keyboard-response","173","68886","0.0-173.0","3JV9LGBJWU0TSCKFE2VW0L895ETOGS","A3TZ6KG6SP9RDT","3UAU495MIIEABANG75FBFHDC9WUUOI","","null","<img src=""img/animal6.png"" style=""width:200px; border:14px solid green;"">","null","","","","","",""
"","image-keyboard-response","174","69076","0.0-174.0","3JV9LGBJWU0TSCKFE2VW0L895ETOGS","A3TZ6KG6SP9RDT","3UAU495MIIEABANG75FBFHDC9WUUOI","","187.79999995231628","img/animal5.png","74","189.5","1","0","3","1,0.5,0,1,0,0.5,0.5,0,1",""
"","html-keyboard-response","175","69379","0.0-175.0","3JV9LGBJWU0TSCKFE2VW0L895ETOGS","A3TZ6KG6SP9RDT","3UAU495MIIEABANG75FBFHDC9WUUOI","","null","<img src=""img/animal5.png"" style=""width:200px;border:14px solid red;"">","null","","","","","",""
"","image-keyboard-response","176","69481","0.0-176.0","3JV9LGBJWU0TSCKFE2VW0L895ETOGS","A3TZ6KG6SP9RDT","3UAU495MIIEABANG75FBFHDC9WUUOI","","100.19999998807907","img/animal6.png","74","102","1","1","1","1,0.5,0,1,0,0.5,0.5,0,1",""
"","html-keyboard-response","177","69784","0.0-177.0","3JV9LGBJWU0TSCKFE2VW0L895ETOGS","A3TZ6KG6SP9RDT","3UAU495MIIEABANG75FBFHDC9WUUOI","","null","<img src=""img/animal6.png"" style=""width:200px; border:14px solid green;"">","null","","","","","",""
"","image-keyboard-response","178","69904","0.0-178.0","3JV9LGBJWU0TSCKFE2VW0L895ETOGS","A3TZ6KG6SP9RDT","3UAU495MIIEABANG75FBFHDC9WUUOI","","117.5","img/animal3.png","75","119.39999997615814","2","0","2","1,0.5,0,1,0,0.5,0.5,0,1",""
"","html-keyboard-response","179","70207","0.0-179.0","3JV9LGBJWU0TSCKFE2VW0L895ETOGS","A3TZ6KG6SP9RDT","3UAU495MIIEABANG75FBFHDC9WUUOI","","null","<img src=""img/animal3.png"" style=""width:200px;border:14px solid red;"">","null","","","","","",""
"","image-keyboard-response","180","70349","0.0-180.0","3JV9LGBJWU0TSCKFE2VW0L895ETOGS","A3TZ6KG6SP9RDT","3UAU495MIIEABANG75FBFHDC9WUUOI","","138.79999995231628","img/animal5.png","75","140.60000002384186","2","0","3","1,0.5,0,1,0,0.5,0.5,0,1",""
"","html-keyboard-response","181","70651","0.0-181.0","3JV9LGBJWU0TSCKFE2VW0L895ETOGS","A3TZ6KG6SP9RDT","3UAU495MIIEABANG75FBFHDC9WUUOI","","null","<img src=""img/animal5.png"" style=""width:200px;border:14px solid red;"">","null","","","","","",""
"","html-keyboard-response","182","73331","0.0-182.0","3JV9LGBJWU0TSCKFE2VW0L895ETOGS","A3TZ6KG6SP9RDT","3UAU495MIIEABANG75FBFHDC9WUUOI","","","","","","","","","",""
"","image-keyboard-response","183","75390","0.0-183.0","3JV9LGBJWU0TSCKFE2VW0L895ETOGS","A3TZ6KG6SP9RDT","3UAU495MIIEABANG75FBFHDC9WUUOI","","2057.399999976158","img/animal4.png","74","2058.899999976158","1","1","3","1,0.5,0,0,1,0.5,0.5,0,1",""
"","html-keyboard-response","184","75694","0.0-184.0","3JV9LGBJWU0TSCKFE2VW0L895ETOGS","A3TZ6KG6SP9RDT","3UAU495MIIEABANG75FBFHDC9WUUOI","","null","<img src=""img/animal4.png"" style=""width:200px; border:14px solid green;"">","null","","","","","",""
"","image-keyboard-response","185","75887","0.0-185.0","3JV9LGBJWU0TSCKFE2VW0L895ETOGS","A3TZ6KG6SP9RDT","3UAU495MIIEABANG75FBFHDC9WUUOI","","191","img/animal2.png","76","192.89999997615814","3","0","2","1,0.5,0,0,1,0.5,0.5,0,1",""
"","html-keyboard-response","186","76190","0.0-186.0","3JV9LGBJWU0TSCKFE2VW0L895ETOGS","A3TZ6KG6SP9RDT","3UAU495MIIEABANG75FBFHDC9WUUOI","","null","<img src=""img/animal2.png"" style=""width:200px;border:14px solid red;"">","null","","","","","",""
"","image-keyboard-response","187","76200","0.0-187.0","3JV9LGBJWU0TSCKFE2VW0L895ETOGS","A3TZ6KG6SP9RDT","3UAU495MIIEABANG75FBFHDC9WUUOI","","7.899999976158142","img/animal2.png","76","10.100000023841858","3","0","2","1,0.5,0,0,1,0.5,0.5,0,1",""
"","html-keyboard-response","188","76506","0.0-188.0","3JV9LGBJWU0TSCKFE2VW0L895ETOGS","A3TZ6KG6SP9RDT","3UAU495MIIEABANG75FBFHDC9WUUOI","","null","<img src=""img/animal2.png"" style=""width:200px;border:14px solid red;"">","null","","","","","",""
"","image-keyboard-response","189","76676","0.0-189.0","3JV9LGBJWU0TSCKFE2VW0L895ETOGS","A3TZ6KG6SP9RDT","3UAU495MIIEABANG75FBFHDC9WUUOI","","168.10000002384186","img/animal2.png","74","170.0999999642372","1","0","2","1,0.5,0,0,1,0.5,0.5,0,1",""
"","html-keyboard-response","190","76979","0.0-190.0","3JV9LGBJWU0TSCKFE2VW0L895ETOGS","A3TZ6KG6SP9RDT","3UAU495MIIEABANG75FBFHDC9WUUOI","","null","<img src=""img/animal2.png"" style=""width:200px;border:14px solid red;"">","null","","","","","",""
"","image-keyboard-response","191","77146","0.0-191.0","3JV9LGBJWU0TSCKFE2VW0L895ETOGS","A3TZ6KG6SP9RDT","3UAU495MIIEABANG75FBFHDC9WUUOI","","164.89999997615814","img/animal2.png","74","166.5","1","0","2","1,0.5,0,0,1,0.5,0.5,0,1",""
"","html-keyboard-response","192","77449","0.0-192.0","3JV9LGBJWU0TSCKFE2VW0L895ETOGS","A3TZ6KG6SP9RDT","3UAU495MIIEABANG75FBFHDC9WUUOI","","null","<img src=""img/animal2.png"" style=""width:200px;border:14px solid red;"">","null","","","","","",""
"","image-keyboard-response","193","77635","0.0-193.0","3JV9LGBJWU0TSCKFE2VW0L895ETOGS","A3TZ6KG6SP9RDT","3UAU495MIIEABANG75FBFHDC9WUUOI","","183.4000000357628","img/animal4.png","74","185.19999998807907","1","0","3","1,0.5,0,0,1,0.5,0.5,0,1",""
"","html-keyboard-response","194","77937","0.0-194.0","3JV9LGBJWU0TSCKFE2VW0L895ETOGS","A3TZ6KG6SP9RDT","3UAU495MIIEABANG75FBFHDC9WUUOI","","null","<img src=""img/animal4.png"" style=""width:200px;border:14px solid red;"">","null","","","","","",""
"","image-keyboard-response","195","78025","0.0-195.0","3JV9LGBJWU0TSCKFE2VW0L895ETOGS","A3TZ6KG6SP9RDT","3UAU495MIIEABANG75FBFHDC9WUUOI","","86","img/animal1.png","74","87.30000001192093","1","1","1","1,0.5,0,0,1,0.5,0.5,0,1",""
"","html-keyboard-response","196","78329","0.0-196.0","3JV9LGBJWU0TSCKFE2VW0L895ETOGS","A3TZ6KG6SP9RDT","3UAU495MIIEABANG75FBFHDC9WUUOI","","null","<img src=""img/animal1.png"" style=""width:200px; border:14px solid green;"">","null","","","","","",""
"","image-keyboard-response","197","79215","0.0-197.0","3JV9LGBJWU0TSCKFE2VW0L895ETOGS","A3TZ6KG6SP9RDT","3UAU495MIIEABANG75FBFHDC9WUUOI","","883.8000000119209","img/animal1.png","74","885.5","1","1","1","1,0.5,0,0,1,0.5,0.5,0,1",""
"","html-keyboard-response","198","79518","0.0-198.0","3JV9LGBJWU0TSCKFE2VW0L895ETOGS","A3TZ6KG6SP9RDT","3UAU495MIIEABANG75FBFHDC9WUUOI","","null","<img src=""img/animal1.png"" style=""width:200px; border:14px solid green;"">","null","","","","","",""
"","image-keyboard-response","199","79664","0.0-199.0","3JV9LGBJWU0TSCKFE2VW0L895ETOGS","A3TZ6KG6SP9RDT","3UAU495MIIEABANG75FBFHDC9WUUOI","","143.30000001192093","img/animal1.png","74","145.10000002384186","1","1","1","1,0.5,0,0,1,0.5,0.5,0,1",""
"","html-keyboard-response","200","79967","0.0-200.0","3JV9LGBJWU0TSCKFE2VW0L895ETOGS","A3TZ6KG6SP9RDT","3UAU495MIIEABANG75FBFHDC9WUUOI","","null","<img src=""img/animal1.png"" style=""width:200px; border:14px solid green;"">","null","","","","","",""
"","image-keyboard-response","201","80104","0.0-201.0","3JV9LGBJWU0TSCKFE2VW0L895ETOGS","A3TZ6KG6SP9RDT","3UAU495MIIEABANG75FBFHDC9WUUOI","","135","img/animal2.png","74","136.5","1","0","2","1,0.5,0,0,1,0.5,0.5,0,1",""
"","html-keyboard-response","202","80407","0.0-202.0","3JV9LGBJWU0TSCKFE2VW0L895ETOGS","A3TZ6KG6SP9RDT","3UAU495MIIEABANG75FBFHDC9WUUOI","","null","<img src=""img/animal2.png"" style=""width:200px;border:14px solid red;"">","null","","","","","",""
"","image-keyboard-response","203","80948","0.0-203.0","3JV9LGBJWU0TSCKFE2VW0L895ETOGS","A3TZ6KG6SP9RDT","3UAU495MIIEABANG75FBFHDC9WUUOI","","538.2999999523163","img/animal4.png","75","540.1999999880791","2","0","3","1,0.5,0,0,1,0.5,0.5,0,1",""
"","html-keyboard-response","204","81251","0.0-204.0","3JV9LGBJWU0TSCKFE2VW0L895ETOGS","A3TZ6KG6SP9RDT","3UAU495MIIEABANG75FBFHDC9WUUOI","","null","<img src=""img/animal4.png"" style=""width:200px;border:14px solid red;"">","null","","","","","",""
"","image-keyboard-response","205","81351","0.0-205.0","3JV9LGBJWU0TSCKFE2VW0L895ETOGS","A3TZ6KG6SP9RDT","3UAU495MIIEABANG75FBFHDC9WUUOI","","97.60000002384186","img/animal2.png","75","99.39999997615814","2","1","2","1,0.5,0,0,1,0.5,0.5,0,1",""
"","html-keyboard-response","206","81656","0.0-206.0","3JV9LGBJWU0TSCKFE2VW0L895ETOGS","A3TZ6KG6SP9RDT","3UAU495MIIEABANG75FBFHDC9WUUOI","","null","<img src=""img/animal2.png"" style=""width:200px; border:14px solid green;"">","null","","","","","",""
"","image-keyboard-response","207","82206","0.0-207.0","3JV9LGBJWU0TSCKFE2VW0L895ETOGS","A3TZ6KG6SP9RDT","3UAU495MIIEABANG75FBFHDC9WUUOI","","548","img/animal1.png","75","549.8999999761581","2","0","1","1,0.5,0,0,1,0.5,0.5,0,1",""
"","html-keyboard-response","208","82510","0.0-208.0","3JV9LGBJWU0TSCKFE2VW0L895ETOGS","A3TZ6KG6SP9RDT","3UAU495MIIEABANG75FBFHDC9WUUOI","","null","<img src=""img/animal1.png"" style=""width:200px;border:14px solid red;"">","null","","","","","",""
"","image-keyboard-response","209","82641","0.0-209.0","3JV9LGBJWU0TSCKFE2VW0L895ETOGS","A3TZ6KG6SP9RDT","3UAU495MIIEABANG75FBFHDC9WUUOI","","129","img/animal2.png","75","130.69999998807907","2","1","2","1,0.5,0,0,1,0.5,0.5,0,1",""
"","html-keyboard-response","210","82944","0.0-210.0","3JV9LGBJWU0TSCKFE2VW0L895ETOGS","A3TZ6KG6SP9RDT","3UAU495MIIEABANG75FBFHDC9WUUOI","","null","<img src=""img/animal2.png"" style=""width:200px; border:14px solid green;"">","null","","","","","",""
"","image-keyboard-response","211","82979","0.0-211.0","3JV9LGBJWU0TSCKFE2VW0L895ETOGS","A3TZ6KG6SP9RDT","3UAU495MIIEABANG75FBFHDC9WUUOI","","33.10000002384186","img/animal4.png","75","34.59999996423721","2","0","3","1,0.5,0,0,1,0.5,0.5,0,1",""
"","html-keyboard-response","212","83283","0.0-212.0","3JV9LGBJWU0TSCKFE2VW0L895ETOGS","A3TZ6KG6SP9RDT","3UAU495MIIEABANG75FBFHDC9WUUOI","","null","<img src=""img/animal4.png"" style=""width:200px;border:14px solid red;"">","null","","","","","",""
"","image-keyboard-response","213","83456","0.0-213.0","3JV9LGBJWU0TSCKFE2VW0L895ETOGS","A3TZ6KG6SP9RDT","3UAU495MIIEABANG75FBFHDC9WUUOI","","170.9000000357628","img/animal1.png","75","172.5999999642372","2","1","1","1,0.5,0,0,1,0.5,0.5,0,1",""
"","html-keyboard-response","214","83759","0.0-214.0","3JV9LGBJWU0TSCKFE2VW0L895ETOGS","A3TZ6KG6SP9RDT","3UAU495MIIEABANG75FBFHDC9WUUOI","","null","<img src=""img/animal1.png"" style=""width:200px; border:14px solid green;"">","null","","","","","",""
"","image-keyboard-response","215","83839","0.0-215.0","3JV9LGBJWU0TSCKFE2VW0L895ETOGS","A3TZ6KG6SP9RDT","3UAU495MIIEABANG75FBFHDC9WUUOI","","78.30000001192093","img/animal2.png","75","79.89999997615814","2","1","2","1,0.5,0,0,1,0.5,0.5,0,1",""
"","html-keyboard-response","216","84142","0.0-216.0","3JV9LGBJWU0TSCKFE2VW0L895ETOGS","A3TZ6KG6SP9RDT","3UAU495MIIEABANG75FBFHDC9WUUOI","","null","<img src=""img/animal2.png"" style=""width:200px; border:14px solid green;"">","null","","","","","",""
"","image-keyboard-response","217","84200","0.0-217.0","3JV9LGBJWU0TSCKFE2VW0L895ETOGS","A3TZ6KG6SP9RDT","3UAU495MIIEABANG75FBFHDC9WUUOI","","56.40000003576279","img/animal4.png","75","58.09999996423721","2","0","3","1,0.5,0,0,1,0.5,0.5,0,1",""
"","html-keyboard-response","218","84503","0.0-218.0","3JV9LGBJWU0TSCKFE2VW0L895ETOGS","A3TZ6KG6SP9RDT","3UAU495MIIEABANG75FBFHDC9WUUOI","","null","<img src=""img/animal4.png"" style=""width:200px;border:14px solid red;"">","null","","","","","",""
"","image-keyboard-response","219","84618","0.0-219.0","3JV9LGBJWU0TSCKFE2VW0L895ETOGS","A3TZ6KG6SP9RDT","3UAU495MIIEABANG75FBFHDC9WUUOI","","113.79999995231628","img/animal4.png","75","115.19999998807907","2","0","3","1,0.5,0,0,1,0.5,0.5,0,1",""
"","html-keyboard-response","220","84922","0.0-220.0","3JV9LGBJWU0TSCKFE2VW0L895ETOGS","A3TZ6KG6SP9RDT","3UAU495MIIEABANG75FBFHDC9WUUOI","","null","<img src=""img/animal4.png"" style=""width:200px;border:14px solid red;"">","null","","","","","",""
"","image-keyboard-response","221","86731","0.0-221.0","3JV9LGBJWU0TSCKFE2VW0L895ETOGS","A3TZ6KG6SP9RDT","3UAU495MIIEABANG75FBFHDC9WUUOI","","1806.6000000238419","img/animal1.png","76","1808.5","3","0","1","1,0.5,0,0,1,0.5,0.5,0,1",""
"","html-keyboard-response","222","87033","0.0-222.0","3JV9LGBJWU0TSCKFE2VW0L895ETOGS","A3TZ6KG6SP9RDT","3UAU495MIIEABANG75FBFHDC9WUUOI","","null","<img src=""img/animal1.png"" style=""width:200px;border:14px solid red;"">","null","","","","","",""
"","image-keyboard-response","223","87124","0.0-223.0","3JV9LGBJWU0TSCKFE2VW0L895ETOGS","A3TZ6KG6SP9RDT","3UAU495MIIEABANG75FBFHDC9WUUOI","","88.5","img/animal1.png","76","90.39999997615814","3","0","1","1,0.5,0,0,1,0.5,0.5,0,1",""
"","html-keyboard-response","224","87428","0.0-224.0","3JV9LGBJWU0TSCKFE2VW0L895ETOGS","A3TZ6KG6SP9RDT","3UAU495MIIEABANG75FBFHDC9WUUOI","","null","<img src=""img/animal1.png"" style=""width:200px;border:14px solid red;"">","null","","","","","",""
"","image-keyboard-response","225","87570","0.0-225.0","3JV9LGBJWU0TSCKFE2VW0L895ETOGS","A3TZ6KG6SP9RDT","3UAU495MIIEABANG75FBFHDC9WUUOI","","141","img/animal2.png","75","142.5","2","1","2","1,0.5,0,0,1,0.5,0.5,0,1",""
"","html-keyboard-response","226","87873","0.0-226.0","3JV9LGBJWU0TSCKFE2VW0L895ETOGS","A3TZ6KG6SP9RDT","3UAU495MIIEABANG75FBFHDC9WUUOI","","null","<img src=""img/animal2.png"" style=""width:200px; border:14px solid green;"">","null","","","","","",""
"","image-keyboard-response","227","87988","0.0-227.0","3JV9LGBJWU0TSCKFE2VW0L895ETOGS","A3TZ6KG6SP9RDT","3UAU495MIIEABANG75FBFHDC9WUUOI","","114","img/animal1.png","75","115","2","0","1","1,0.5,0,0,1,0.5,0.5,0,1",""
"","html-keyboard-response","228","88290","0.0-228.0","3JV9LGBJWU0TSCKFE2VW0L895ETOGS","A3TZ6KG6SP9RDT","3UAU495MIIEABANG75FBFHDC9WUUOI","","null","<img src=""img/animal1.png"" style=""width:200px;border:14px solid red;"">","null","","","","","",""
"","image-keyboard-response","229","88338","0.0-229.0","3JV9LGBJWU0TSCKFE2VW0L895ETOGS","A3TZ6KG6SP9RDT","3UAU495MIIEABANG75FBFHDC9WUUOI","","45.80000001192093","img/animal4.png","75","47.60000002384186","2","0","3","1,0.5,0,0,1,0.5,0.5,0,1",""
"","html-keyboard-response","230","88641","0.0-230.0","3JV9LGBJWU0TSCKFE2VW0L895ETOGS","A3TZ6KG6SP9RDT","3UAU495MIIEABANG75FBFHDC9WUUOI","","null","<img src=""img/animal4.png"" style=""width:200px;border:14px solid red;"">","null","","","","","",""
"","image-keyboard-response","231","88721","0.0-231.0","3JV9LGBJWU0TSCKFE2VW0L895ETOGS","A3TZ6KG6SP9RDT","3UAU495MIIEABANG75FBFHDC9WUUOI","","77","img/animal1.png","74","78.5","1","1","1","1,0.5,0,0,1,0.5,0.5,0,1",""
"","html-keyboard-response","232","89024","0.0-232.0","3JV9LGBJWU0TSCKFE2VW0L895ETOGS","A3TZ6KG6SP9RDT","3UAU495MIIEABANG75FBFHDC9WUUOI","","null","<img src=""img/animal1.png"" style=""width:200px; border:14px solid green;"">","null","","","","","",""
"","image-keyboard-response","233","89162","0.0-233.0","3JV9LGBJWU0TSCKFE2VW0L895ETOGS","A3TZ6KG6SP9RDT","3UAU495MIIEABANG75FBFHDC9WUUOI","","136.19999998807907","img/animal4.png","74","137.89999997615814","1","1","3","1,0.5,0,0,1,0.5,0.5,0,1",""
"","html-keyboard-response","234","89464","0.0-234.0","3JV9LGBJWU0TSCKFE2VW0L895ETOGS","A3TZ6KG6SP9RDT","3UAU495MIIEABANG75FBFHDC9WUUOI","","null","<img src=""img/animal4.png"" style=""width:200px; border:14px solid green;"">","null","","","","","",""
"","image-keyboard-response","235","89525","0.0-235.0","3JV9LGBJWU0TSCKFE2VW0L895ETOGS","A3TZ6KG6SP9RDT","3UAU495MIIEABANG75FBFHDC9WUUOI","","58.5","img/animal1.png","74","60.60000002384186","1","1","1","1,0.5,0,0,1,0.5,0.5,0,1",""
"","html-keyboard-response","236","89829","0.0-236.0","3JV9LGBJWU0TSCKFE2VW0L895ETOGS","A3TZ6KG6SP9RDT","3UAU495MIIEABANG75FBFHDC9WUUOI","","null","<img src=""img/animal1.png"" style=""width:200px; border:14px solid green;"">","null","","","","","",""
"","image-keyboard-response","237","89939","0.0-237.0","3JV9LGBJWU0TSCKFE2VW0L895ETOGS","A3TZ6KG6SP9RDT","3UAU495MIIEABANG75FBFHDC9WUUOI","","108.40000003576279","img/animal4.png","74","109.89999997615814","1","0","3","1,0.5,0,0,1,0.5,0.5,0,1",""
"","html-keyboard-response","238","90243","0.0-238.0","3JV9LGBJWU0TSCKFE2VW0L895ETOGS","A3TZ6KG6SP9RDT","3UAU495MIIEABANG75FBFHDC9WUUOI","","null","<img src=""img/animal4.png"" style=""width:200px;border:14px solid red;"">","null","","","","","",""
"","image-keyboard-response","239","90385","0.0-239.0","3JV9LGBJWU0TSCKFE2VW0L895ETOGS","A3TZ6KG6SP9RDT","3UAU495MIIEABANG75FBFHDC9WUUOI","","140.69999998807907","img/animal4.png","74","142.19999998807907","1","0","3","1,0.5,0,0,1,0.5,0.5,0,1",""
"","html-keyboard-response","240","90689","0.0-240.0","3JV9LGBJWU0TSCKFE2VW0L895ETOGS","A3TZ6KG6SP9RDT","3UAU495MIIEABANG75FBFHDC9WUUOI","","null","<img src=""img/animal4.png"" style=""width:200px;border:14px solid red;"">","null","","","","","",""
"","image-keyboard-response","241","90873","0.0-241.0","3JV9LGBJWU0TSCKFE2VW0L895ETOGS","A3TZ6KG6SP9RDT","3UAU495MIIEABANG75FBFHDC9WUUOI","","182.5999999642372","img/animal1.png","75","184.39999997615814","2","1","1","1,0.5,0,0,1,0.5,0.5,0,1",""
"","html-keyboard-response","242","91177","0.0-242.0","3JV9LGBJWU0TSCKFE2VW0L895ETOGS","A3TZ6KG6SP9RDT","3UAU495MIIEABANG75FBFHDC9WUUOI","","null","<img src=""img/animal1.png"" style=""width:200px; border:14px solid green;"">","null","","","","","",""
"","image-keyboard-response","243","91264","0.0-243.0","3JV9LGBJWU0TSCKFE2VW0L895ETOGS","A3TZ6KG6SP9RDT","3UAU495MIIEABANG75FBFHDC9WUUOI","","85","img/animal4.png","75","86.90000003576279","2","0","3","1,0.5,0,0,1,0.5,0.5,0,1",""
"","html-keyboard-response","244","91567","0.0-244.0","3JV9LGBJWU0TSCKFE2VW0L895ETOGS","A3TZ6KG6SP9RDT","3UAU495MIIEABANG75FBFHDC9WUUOI","","null","<img src=""img/animal4.png"" style=""width:200px;border:14px solid red;"">","null","","","","","",""
"","image-keyboard-response","245","91697","0.0-245.0","3JV9LGBJWU0TSCKFE2VW0L895ETOGS","A3TZ6KG6SP9RDT","3UAU495MIIEABANG75FBFHDC9WUUOI","","128.20000004768372","img/animal2.png","75","129.80000001192093","2","1","2","1,0.5,0,0,1,0.5,0.5,0,1",""
"","html-keyboard-response","246","92000","0.0-246.0","3JV9LGBJWU0TSCKFE2VW0L895ETOGS","A3TZ6KG6SP9RDT","3UAU495MIIEABANG75FBFHDC9WUUOI","","null","<img src=""img/animal2.png"" style=""width:200px; border:14px solid green;"">","null","","","","","",""
"","image-keyboard-response","247","92196","0.0-247.0","3JV9LGBJWU0TSCKFE2VW0L895ETOGS","A3TZ6KG6SP9RDT","3UAU495MIIEABANG75FBFHDC9WUUOI","","193.9000000357628","img/animal4.png","74","195.69999998807907","1","0","3","1,0.5,0,0,1,0.5,0.5,0,1",""
"","html-keyboard-response","248","92500","0.0-248.0","3JV9LGBJWU0TSCKFE2VW0L895ETOGS","A3TZ6KG6SP9RDT","3UAU495MIIEABANG75FBFHDC9WUUOI","","null","<img src=""img/animal4.png"" style=""width:200px;border:14px solid red;"">","null","","","","","",""
"","image-keyboard-response","249","92598","0.0-249.0","3JV9LGBJWU0TSCKFE2VW0L895ETOGS","A3TZ6KG6SP9RDT","3UAU495MIIEABANG75FBFHDC9WUUOI","","95.80000001192093","img/animal4.png","75","97.30000001192093","2","0","3","1,0.5,0,0,1,0.5,0.5,0,1",""
"","html-keyboard-response","250","92902","0.0-250.0","3JV9LGBJWU0TSCKFE2VW0L895ETOGS","A3TZ6KG6SP9RDT","3UAU495MIIEABANG75FBFHDC9WUUOI","","null","<img src=""img/animal4.png"" style=""width:200px;border:14px solid red;"">","null","","","","","",""
"","image-keyboard-response","251","93011","0.0-251.0","3JV9LGBJWU0TSCKFE2VW0L895ETOGS","A3TZ6KG6SP9RDT","3UAU495MIIEABANG75FBFHDC9WUUOI","","106.69999998807907","img/animal2.png","75","108.30000001192093","2","1","2","1,0.5,0,0,1,0.5,0.5,0,1",""
"","html-keyboard-response","252","93317","0.0-252.0","3JV9LGBJWU0TSCKFE2VW0L895ETOGS","A3TZ6KG6SP9RDT","3UAU495MIIEABANG75FBFHDC9WUUOI","","null","<img src=""img/animal2.png"" style=""width:200px; border:14px solid green;"">","null","","","","","",""
"","image-keyboard-response","253","103184","0.0-253.0","3JV9LGBJWU0TSCKFE2VW0L895ETOGS","A3TZ6KG6SP9RDT","3UAU495MIIEABANG75FBFHDC9WUUOI","","9864.800000011921","img/animal4.png","74","9866.699999988079","1","1","3","1,0.5,0,0,1,0.5,0.5,0,1",""
"","html-keyboard-response","254","103487","0.0-254.0","3JV9LGBJWU0TSCKFE2VW0L895ETOGS","A3TZ6KG6SP9RDT","3UAU495MIIEABANG75FBFHDC9WUUOI","","null","<img src=""img/animal4.png"" style=""width:200px; border:14px solid green;"">","null","","","","","",""
"","image-keyboard-response","255","103609","0.0-255.0","3JV9LGBJWU0TSCKFE2VW0L895ETOGS","A3TZ6KG6SP9RDT","3UAU495MIIEABANG75FBFHDC9WUUOI","","120.19999998807907","img/animal1.png","74","121.70000004768372","1","1","1","1,0.5,0,0,1,0.5,0.5,0,1",""
"","html-keyboard-response","256","103919","0.0-256.0","3JV9LGBJWU0TSCKFE2VW0L895ETOGS","A3TZ6KG6SP9RDT","3UAU495MIIEABANG75FBFHDC9WUUOI","","null","<img src=""img/animal1.png"" style=""width:200px; border:14px solid green;"">","null","","","","","",""
"","image-keyboard-response","257","104162","0.0-257.0","3JV9LGBJWU0TSCKFE2VW0L895ETOGS","A3TZ6KG6SP9RDT","3UAU495MIIEABANG75FBFHDC9WUUOI","","240.9000000357628","img/animal2.png","75","242.5","2","1","2","1,0.5,0,0,1,0.5,0.5,0,1",""
"","html-keyboard-response","258","104464","0.0-258.0","3JV9LGBJWU0TSCKFE2VW0L895ETOGS","A3TZ6KG6SP9RDT","3UAU495MIIEABANG75FBFHDC9WUUOI","","null","<img src=""img/animal2.png"" style=""width:200px; border:14px solid green;"">","null","","","","","",""
"","image-keyboard-response","259","104814","0.0-259.0","3JV9LGBJWU0TSCKFE2VW0L895ETOGS","A3TZ6KG6SP9RDT","3UAU495MIIEABANG75FBFHDC9WUUOI","","347.89999997615814","img/animal2.png","75","349.5","2","1","2","1,0.5,0,0,1,0.5,0.5,0,1",""
"","html-keyboard-response","260","105118","0.0-260.0","3JV9LGBJWU0TSCKFE2VW0L895ETOGS","A3TZ6KG6SP9RDT","3UAU495MIIEABANG75FBFHDC9WUUOI","","null","<img src=""img/animal2.png"" style=""width:200px; border:14px solid green;"">","null","","","","","",""
"","image-keyboard-response","261","105214","0.0-261.0","3JV9LGBJWU0TSCKFE2VW0L895ETOGS","A3TZ6KG6SP9RDT","3UAU495MIIEABANG75FBFHDC9WUUOI","","93.80000001192093","img/animal2.png","75","95.5","2","1","2","1,0.5,0,0,1,0.5,0.5,0,1",""
"","html-keyboard-response","262","105516","0.0-262.0","3JV9LGBJWU0TSCKFE2VW0L895ETOGS","A3TZ6KG6SP9RDT","3UAU495MIIEABANG75FBFHDC9WUUOI","","null","<img src=""img/animal2.png"" style=""width:200px; border:14px solid green;"">","null","","","","","",""
"","image-keyboard-response","263","105938","0.0-263.0","3JV9LGBJWU0TSCKFE2VW0L895ETOGS","A3TZ6KG6SP9RDT","3UAU495MIIEABANG75FBFHDC9WUUOI","","420.0999999642372","img/animal2.png","75","421.69999998807907","2","1","2","1,0.5,0,0,1,0.5,0.5,0,1",""
"","html-keyboard-response","264","106242","0.0-264.0","3JV9LGBJWU0TSCKFE2VW0L895ETOGS","A3TZ6KG6SP9RDT","3UAU495MIIEABANG75FBFHDC9WUUOI","","null","<img src=""img/animal2.png"" style=""width:200px; border:14px solid green;"">","null","","","","","",""
"","image-keyboard-response","265","109360","0.0-265.0","3JV9LGBJWU0TSCKFE2VW0L895ETOGS","A3TZ6KG6SP9RDT","3UAU495MIIEABANG75FBFHDC9WUUOI","","3115.800000011921","img/animal1.png","74","3117.600000023842","1","1","1","1,0.5,0,0,1,0.5,0.5,0,1",""
"","html-keyboard-response","266","109664","0.0-266.0","3JV9LGBJWU0TSCKFE2VW0L895ETOGS","A3TZ6KG6SP9RDT","3UAU495MIIEABANG75FBFHDC9WUUOI","","null","<img src=""img/animal1.png"" style=""width:200px; border:14px solid green;"">","null","","","","","",""
"","image-keyboard-response","267","109815","0.0-267.0","3JV9LGBJWU0TSCKFE2VW0L895ETOGS","A3TZ6KG6SP9RDT","3UAU495MIIEABANG75FBFHDC9WUUOI","","148.69999998807907","img/animal1.png","74","150.4000000357628","1","1","1","1,0.5,0,0,1,0.5,0.5,0,1",""
"","html-keyboard-response","268","110120","0.0-268.0","3JV9LGBJWU0TSCKFE2VW0L895ETOGS","A3TZ6KG6SP9RDT","3UAU495MIIEABANG75FBFHDC9WUUOI","","null","<img src=""img/animal1.png"" style=""width:200px; border:14px solid green;"">","null","","","","","",""
"","image-keyboard-response","269","110226","0.0-269.0","3JV9LGBJWU0TSCKFE2VW0L895ETOGS","A3TZ6KG6SP9RDT","3UAU495MIIEABANG75FBFHDC9WUUOI","","103","img/animal2.png","74","105.09999996423721","1","0","2","1,0.5,0,0,1,0.5,0.5,0,1",""
"","html-keyboard-response","270","110528","0.0-270.0","3JV9LGBJWU0TSCKFE2VW0L895ETOGS","A3TZ6KG6SP9RDT","3UAU495MIIEABANG75FBFHDC9WUUOI","","null","<img src=""img/animal2.png"" style=""width:200px;border:14px solid red;"">","null","","","","","",""
"","image-keyboard-response","271","110825","0.0-271.0","3JV9LGBJWU0TSCKFE2VW0L895ETOGS","A3TZ6KG6SP9RDT","3UAU495MIIEABANG75FBFHDC9WUUOI","","293.9000000357628","img/animal2.png","75","295.7000000476837","2","1","2","1,0.5,0,0,1,0.5,0.5,0,1",""
"","html-keyboard-response","272","111127","0.0-272.0","3JV9LGBJWU0TSCKFE2VW0L895ETOGS","A3TZ6KG6SP9RDT","3UAU495MIIEABANG75FBFHDC9WUUOI","","null","<img src=""img/animal2.png"" style=""width:200px; border:14px solid green;"">","null","","","","","",""
"","image-keyboard-response","273","111208","0.0-273.0","3JV9LGBJWU0TSCKFE2VW0L895ETOGS","A3TZ6KG6SP9RDT","3UAU495MIIEABANG75FBFHDC9WUUOI","","78.70000004768372","img/animal1.png","75","80.29999995231628","2","1","1","1,0.5,0,0,1,0.5,0.5,0,1",""
"","html-keyboard-response","274","111512","0.0-274.0","3JV9LGBJWU0TSCKFE2VW0L895ETOGS","A3TZ6KG6SP9RDT","3UAU495MIIEABANG75FBFHDC9WUUOI","","null","<img src=""img/animal1.png"" style=""width:200px; border:14px solid green;"">","null","","","","","",""
"","image-keyboard-response","275","111600","0.0-275.0","3JV9LGBJWU0TSCKFE2VW0L895ETOGS","A3TZ6KG6SP9RDT","3UAU495MIIEABANG75FBFHDC9WUUOI","","87.5","img/animal4.png","75","88.69999998807907","2","0","3","1,0.5,0,0,1,0.5,0.5,0,1",""
"","html-keyboard-response","276","111903","0.0-276.0","3JV9LGBJWU0TSCKFE2VW0L895ETOGS","A3TZ6KG6SP9RDT","3UAU495MIIEABANG75FBFHDC9WUUOI","","null","<img src=""img/animal4.png"" style=""width:200px;border:14px solid red;"">","null","","","","","",""
"","image-keyboard-response","277","112033","0.0-277.0","3JV9LGBJWU0TSCKFE2VW0L895ETOGS","A3TZ6KG6SP9RDT","3UAU495MIIEABANG75FBFHDC9WUUOI","","127.5","img/animal1.png","75","129","2","1","1","1,0.5,0,0,1,0.5,0.5,0,1",""
"","html-keyboard-response","278","112337","0.0-278.0","3JV9LGBJWU0TSCKFE2VW0L895ETOGS","A3TZ6KG6SP9RDT","3UAU495MIIEABANG75FBFHDC9WUUOI","","null","<img src=""img/animal1.png"" style=""width:200px; border:14px solid green;"">","null","","","","","",""
"","image-keyboard-response","279","112351","0.0-279.0","3JV9LGBJWU0TSCKFE2VW0L895ETOGS","A3TZ6KG6SP9RDT","3UAU495MIIEABANG75FBFHDC9WUUOI","","12.600000023841858","img/animal4.png","76","14.5","3","1","3","1,0.5,0,0,1,0.5,0.5,0,1",""
"","html-keyboard-response","280","112655","0.0-280.0","3JV9LGBJWU0TSCKFE2VW0L895ETOGS","A3TZ6KG6SP9RDT","3UAU495MIIEABANG75FBFHDC9WUUOI","","null","<img src=""img/animal4.png"" style=""width:200px; border:14px solid green;"">","null","","","","","",""
"","image-keyboard-response","281","112866","0.0-281.0","3JV9LGBJWU0TSCKFE2VW0L895ETOGS","A3TZ6KG6SP9RDT","3UAU495MIIEABANG75FBFHDC9WUUOI","","208.5","img/animal4.png","76","210.0999999642372","3","1","3","1,0.5,0,0,1,0.5,0.5,0,1",""
"","html-keyboard-response","282","113181","0.0-282.0","3JV9LGBJWU0TSCKFE2VW0L895ETOGS","A3TZ6KG6SP9RDT","3UAU495MIIEABANG75FBFHDC9WUUOI","","null","<img src=""img/animal4.png"" style=""width:200px; border:14px solid green;"">","null","","","","","",""
"","image-keyboard-response","283","113290","0.0-283.0","3JV9LGBJWU0TSCKFE2VW0L895ETOGS","A3TZ6KG6SP9RDT","3UAU495MIIEABANG75FBFHDC9WUUOI","","106.80000001192093","img/animal2.png","76","108.20000004768372","3","0","2","1,0.5,0,0,1,0.5,0.5,0,1",""
"","html-keyboard-response","284","113593","0.0-284.0","3JV9LGBJWU0TSCKFE2VW0L895ETOGS","A3TZ6KG6SP9RDT","3UAU495MIIEABANG75FBFHDC9WUUOI","","null","<img src=""img/animal2.png"" style=""width:200px;border:14px solid red;"">","null","","","","","",""
"","image-keyboard-response","285","113864","0.0-285.0","3JV9LGBJWU0TSCKFE2VW0L895ETOGS","A3TZ6KG6SP9RDT","3UAU495MIIEABANG75FBFHDC9WUUOI","","269.5999999642372","img/animal2.png","75","271.10000002384186","2","1","2","1,0.5,0,0,1,0.5,0.5,0,1",""
"","html-keyboard-response","286","114170","0.0-286.0","3JV9LGBJWU0TSCKFE2VW0L895ETOGS","A3TZ6KG6SP9RDT","3UAU495MIIEABANG75FBFHDC9WUUOI","","null","<img src=""img/animal2.png"" style=""width:200px; border:14px solid green;"">","null","","","","","",""
"","image-keyboard-response","287","114341","0.0-287.0","3JV9LGBJWU0TSCKFE2VW0L895ETOGS","A3TZ6KG6SP9RDT","3UAU495MIIEABANG75FBFHDC9WUUOI","","169.19999998807907","img/animal4.png","75","170.89999997615814","2","0","3","1,0.5,0,0,1,0.5,0.5,0,1",""
"","html-keyboard-response","288","114644","0.0-288.0","3JV9LGBJWU0TSCKFE2VW0L895ETOGS","A3TZ6KG6SP9RDT","3UAU495MIIEABANG75FBFHDC9WUUOI","","null","<img src=""img/animal4.png"" style=""width:200px;border:14px solid red;"">","null","","","","","",""
"","image-keyboard-response","289","114789","0.0-289.0","3JV9LGBJWU0TSCKFE2VW0L895ETOGS","A3TZ6KG6SP9RDT","3UAU495MIIEABANG75FBFHDC9WUUOI","","143.10000002384186","img/animal4.png","75","144.5999999642372","2","0","3","1,0.5,0,0,1,0.5,0.5,0,1",""
"","html-keyboard-response","290","115092","0.0-290.0","3JV9LGBJWU0TSCKFE2VW0L895ETOGS","A3TZ6KG6SP9RDT","3UAU495MIIEABANG75FBFHDC9WUUOI","","null","<img src=""img/animal4.png"" style=""width:200px;border:14px solid red;"">","null","","","","","",""
"","image-keyboard-response","291","115286","0.0-291.0","3JV9LGBJWU0TSCKFE2VW0L895ETOGS","A3TZ6KG6SP9RDT","3UAU495MIIEABANG75FBFHDC9WUUOI","","191.60000002384186","img/animal4.png","74","193.20000004768372","1","0","3","1,0.5,0,0,1,0.5,0.5,0,1",""
"","html-keyboard-response","292","115589","0.0-292.0","3JV9LGBJWU0TSCKFE2VW0L895ETOGS","A3TZ6KG6SP9RDT","3UAU495MIIEABANG75FBFHDC9WUUOI","","null","<img src=""img/animal4.png"" style=""width:200px;border:14px solid red;"">","null","","","","","",""
"","image-keyboard-response","293","115726","0.0-293.0","3JV9LGBJWU0TSCKFE2VW0L895ETOGS","A3TZ6KG6SP9RDT","3UAU495MIIEABANG75FBFHDC9WUUOI","","135.69999998807907","img/animal2.png","74","137.4000000357628","1","0","2","1,0.5,0,0,1,0.5,0.5,0,1",""
"","html-keyboard-response","294","116029","0.0-294.0","3JV9LGBJWU0TSCKFE2VW0L895ETOGS","A3TZ6KG6SP9RDT","3UAU495MIIEABANG75FBFHDC9WUUOI","","null","<img src=""img/animal2.png"" style=""width:200px;border:14px solid red;"">","null","","","","","",""
"","image-keyboard-response","295","116178","0.0-295.0","3JV9LGBJWU0TSCKFE2VW0L895ETOGS","A3TZ6KG6SP9RDT","3UAU495MIIEABANG75FBFHDC9WUUOI","","147.60000002384186","img/animal4.png","74","149","1","1","3","1,0.5,0,0,1,0.5,0.5,0,1",""
"","html-keyboard-response","296","116481","0.0-296.0","3JV9LGBJWU0TSCKFE2VW0L895ETOGS","A3TZ6KG6SP9RDT","3UAU495MIIEABANG75FBFHDC9WUUOI","","null","<img src=""img/animal4.png"" style=""width:200px; border:14px solid green;"">","null","","","","","",""
"","image-keyboard-response","297","116625","0.0-297.0","3JV9LGBJWU0TSCKFE2VW0L895ETOGS","A3TZ6KG6SP9RDT","3UAU495MIIEABANG75FBFHDC9WUUOI","","142.60000002384186","img/animal1.png","74","143.70000004768372","1","1","1","1,0.5,0,0,1,0.5,0.5,0,1",""
"","html-keyboard-response","298","116926","0.0-298.0","3JV9LGBJWU0TSCKFE2VW0L895ETOGS","A3TZ6KG6SP9RDT","3UAU495MIIEABANG75FBFHDC9WUUOI","","null","<img src=""img/animal1.png"" style=""width:200px; border:14px solid green;"">","null","","","","","",""
"","image-keyboard-response","299","117084","0.0-299.0","3JV9LGBJWU0TSCKFE2VW0L895ETOGS","A3TZ6KG6SP9RDT","3UAU495MIIEABANG75FBFHDC9WUUOI","","155.79999995231628","img/animal1.png","74","157.30000001192093","1","1","1","1,0.5,0,0,1,0.5,0.5,0,1",""
"","html-keyboard-response","300","117388","0.0-300.0","3JV9LGBJWU0TSCKFE2VW0L895ETOGS","A3TZ6KG6SP9RDT","3UAU495MIIEABANG75FBFHDC9WUUOI","","null","<img src=""img/animal1.png"" style=""width:200px; border:14px solid green;"">","null","","","","","",""
"","image-keyboard-response","301","117549","0.0-301.0","3JV9LGBJWU0TSCKFE2VW0L895ETOGS","A3TZ6KG6SP9RDT","3UAU495MIIEABANG75FBFHDC9WUUOI","","158.30000001192093","img/animal2.png","74","160.19999998807907","1","0","2","1,0.5,0,0,1,0.5,0.5,0,1",""
"","html-keyboard-response","302","117852","0.0-302.0","3JV9LGBJWU0TSCKFE2VW0L895ETOGS","A3TZ6KG6SP9RDT","3UAU495MIIEABANG75FBFHDC9WUUOI","","null","<img src=""img/animal2.png"" style=""width:200px;border:14px solid red;"">","null","","","","","",""
"","image-keyboard-response","303","118102","0.0-303.0","3JV9LGBJWU0TSCKFE2VW0L895ETOGS","A3TZ6KG6SP9RDT","3UAU495MIIEABANG75FBFHDC9WUUOI","","248.19999998807907","img/animal1.png","74","250.0999999642372","1","1","1","1,0.5,0,0,1,0.5,0.5,0,1",""
"","html-keyboard-response","304","118406","0.0-304.0","3JV9LGBJWU0TSCKFE2VW0L895ETOGS","A3TZ6KG6SP9RDT","3UAU495MIIEABANG75FBFHDC9WUUOI","","null","<img src=""img/animal1.png"" style=""width:200px; border:14px solid green;"">","null","","","","","",""
"","image-keyboard-response","305","118863","0.0-305.0","3JV9LGBJWU0TSCKFE2VW0L895ETOGS","A3TZ6KG6SP9RDT","3UAU495MIIEABANG75FBFHDC9WUUOI","","455.2999999523163","img/animal1.png","75","457.10000002384186","2","1","1","1,0.5,0,0,1,0.5,0.5,0,1",""
"","html-keyboard-response","306","119166","0.0-306.0","3JV9LGBJWU0TSCKFE2VW0L895ETOGS","A3TZ6KG6SP9RDT","3UAU495MIIEABANG75FBFHDC9WUUOI","","null","<img src=""img/animal1.png"" style=""width:200px; border:14px solid green;"">","null","","","","","",""
"","image-keyboard-response","307","119375","0.0-307.0","3JV9LGBJWU0TSCKFE2VW0L895ETOGS","A3TZ6KG6SP9RDT","3UAU495MIIEABANG75FBFHDC9WUUOI","","206.9000000357628","img/animal1.png","75","208.39999997615814","2","1","1","1,0.5,0,0,1,0.5,0.5,0,1",""
"","html-keyboard-response","308","119678","0.0-308.0","3JV9LGBJWU0TSCKFE2VW0L895ETOGS","A3TZ6KG6SP9RDT","3UAU495MIIEABANG75FBFHDC9WUUOI","","null","<img src=""img/animal1.png"" style=""width:200px; border:14px solid green;"">","null","","","","","",""
"","image-keyboard-response","309","119890","0.0-309.0","3JV9LGBJWU0TSCKFE2VW0L895ETOGS","A3TZ6KG6SP9RDT","3UAU495MIIEABANG75FBFHDC9WUUOI","","210.10000002384186","img/animal4.png","75","211.69999998807907","2","0","3","1,0.5,0,0,1,0.5,0.5,0,1",""
"","html-keyboard-response","310","120193","0.0-310.0","3JV9LGBJWU0TSCKFE2VW0L895ETOGS","A3TZ6KG6SP9RDT","3UAU495MIIEABANG75FBFHDC9WUUOI","","null","<img src=""img/animal4.png"" style=""width:200px;border:14px solid red;"">","null","","","","","",""
"","image-keyboard-response","311","120218","0.0-311.0","3JV9LGBJWU0TSCKFE2VW0L895ETOGS","A3TZ6KG6SP9RDT","3UAU495MIIEABANG75FBFHDC9WUUOI","","23.69999998807907","img/animal1.png","74","25.19999998807907","1","1","1","1,0.5,0,0,1,0.5,0.5,0,1",""
"","html-keyboard-response","312","120521","0.0-312.0","3JV9LGBJWU0TSCKFE2VW0L895ETOGS","A3TZ6KG6SP9RDT","3UAU495MIIEABANG75FBFHDC9WUUOI","","null","<img src=""img/animal1.png"" style=""width:200px; border:14px solid green;"">","null","","","","","",""
"","image-keyboard-response","313","120530","0.0-313.0","3JV9LGBJWU0TSCKFE2VW0L895ETOGS","A3TZ6KG6SP9RDT","3UAU495MIIEABANG75FBFHDC9WUUOI","","7.300000011920929","img/animal1.png","74","8","1","1","1","1,0.5,0,0,1,0.5,0.5,0,1",""
"","html-keyboard-response","314","120831","0.0-314.0","3JV9LGBJWU0TSCKFE2VW0L895ETOGS","A3TZ6KG6SP9RDT","3UAU495MIIEABANG75FBFHDC9WUUOI","","null","<img src=""img/animal1.png"" style=""width:200px; border:14px solid green;"">","null","","","","","",""
"","image-keyboard-response","315","121003","0.0-315.0","3JV9LGBJWU0TSCKFE2VW0L895ETOGS","A3TZ6KG6SP9RDT","3UAU495MIIEABANG75FBFHDC9WUUOI","","170","img/animal2.png","74","171.5","1","0","2","1,0.5,0,0,1,0.5,0.5,0,1",""
"","html-keyboard-response","316","121305","0.0-316.0","3JV9LGBJWU0TSCKFE2VW0L895ETOGS","A3TZ6KG6SP9RDT","3UAU495MIIEABANG75FBFHDC9WUUOI","","null","<img src=""img/animal2.png"" style=""width:200px;border:14px solid red;"">","null","","","","","",""
"","image-keyboard-response","317","121869","0.0-317.0","3JV9LGBJWU0TSCKFE2VW0L895ETOGS","A3TZ6KG6SP9RDT","3UAU495MIIEABANG75FBFHDC9WUUOI","","561.6000000238419","img/animal1.png","76","563.3000000119209","3","0","1","1,0.5,0,0,1,0.5,0.5,0,1",""
"","html-keyboard-response","318","122173","0.0-318.0","3JV9LGBJWU0TSCKFE2VW0L895ETOGS","A3TZ6KG6SP9RDT","3UAU495MIIEABANG75FBFHDC9WUUOI","","null","<img src=""img/animal1.png"" style=""width:200px;border:14px solid red;"">","null","","","","","",""
"","image-keyboard-response","319","122297","0.0-319.0","3JV9LGBJWU0TSCKFE2VW0L895ETOGS","A3TZ6KG6SP9RDT","3UAU495MIIEABANG75FBFHDC9WUUOI","","122.5","img/animal4.png","76","124.09999996423721","3","1","3","1,0.5,0,0,1,0.5,0.5,0,1",""
"","html-keyboard-response","320","122601","0.0-320.0","3JV9LGBJWU0TSCKFE2VW0L895ETOGS","A3TZ6KG6SP9RDT","3UAU495MIIEABANG75FBFHDC9WUUOI","","null","<img src=""img/animal4.png"" style=""width:200px; border:14px solid green;"">","null","","","","","",""
"","image-keyboard-response","321","122836","0.0-321.0","3JV9LGBJWU0TSCKFE2VW0L895ETOGS","A3TZ6KG6SP9RDT","3UAU495MIIEABANG75FBFHDC9WUUOI","","233.19999998807907","img/animal4.png","76","234.9000000357628","3","1","3","1,0.5,0,0,1,0.5,0.5,0,1",""
"","html-keyboard-response","322","123141","0.0-322.0","3JV9LGBJWU0TSCKFE2VW0L895ETOGS","A3TZ6KG6SP9RDT","3UAU495MIIEABANG75FBFHDC9WUUOI","","null","<img src=""img/animal4.png"" style=""width:200px; border:14px solid green;"">","null","","","","","",""
"","image-keyboard-response","323","123354","0.0-323.0","3JV9LGBJWU0TSCKFE2VW0L895ETOGS","A3TZ6KG6SP9RDT","3UAU495MIIEABANG75FBFHDC9WUUOI","","211.5","img/animal2.png","76","213.20000004768372","3","1","2","1,0.5,0,0,1,0.5,0.5,0,1",""
"","html-keyboard-response","324","123658","0.0-324.0","3JV9LGBJWU0TSCKFE2VW0L895ETOGS","A3TZ6KG6SP9RDT","3UAU495MIIEABANG75FBFHDC9WUUOI","","null","<img src=""img/animal2.png"" style=""width:200px; border:14px solid green;"">","null","","","","","",""
"","image-keyboard-response","325","123667","0.0-325.0","3JV9LGBJWU0TSCKFE2VW0L895ETOGS","A3TZ6KG6SP9RDT","3UAU495MIIEABANG75FBFHDC9WUUOI","","7.099999964237213","img/animal1.png","75","8.5","2","1","1","1,0.5,0,0,1,0.5,0.5,0,1",""
"","html-keyboard-response","326","123971","0.0-326.0","3JV9LGBJWU0TSCKFE2VW0L895ETOGS","A3TZ6KG6SP9RDT","3UAU495MIIEABANG75FBFHDC9WUUOI","","null","<img src=""img/animal1.png"" style=""width:200px; border:14px solid green;"">","null","","","","","",""
"","image-keyboard-response","327","124016","0.0-327.0","3JV9LGBJWU0TSCKFE2VW0L895ETOGS","A3TZ6KG6SP9RDT","3UAU495MIIEABANG75FBFHDC9WUUOI","","43.40000003576279","img/animal4.png","76","45.10000002384186","3","1","3","1,0.5,0,0,1,0.5,0.5,0,1",""
"","html-keyboard-response","328","124319","0.0-328.0","3JV9LGBJWU0TSCKFE2VW0L895ETOGS","A3TZ6KG6SP9RDT","3UAU495MIIEABANG75FBFHDC9WUUOI","","null","<img src=""img/animal4.png"" style=""width:200px; border:14px solid green;"">","null","","","","","",""
"","image-keyboard-response","329","124685","0.0-329.0","3JV9LGBJWU0TSCKFE2VW0L895ETOGS","A3TZ6KG6SP9RDT","3UAU495MIIEABANG75FBFHDC9WUUOI","","363.39999997615814","img/animal4.png","76","365.5","3","1","3","1,0.5,0,0,1,0.5,0.5,0,1",""
"","html-keyboard-response","330","124988","0.0-330.0","3JV9LGBJWU0TSCKFE2VW0L895ETOGS","A3TZ6KG6SP9RDT","3UAU495MIIEABANG75FBFHDC9WUUOI","","null","<img src=""img/animal4.png"" style=""width:200px; border:14px solid green;"">","null","","","","","",""
"","image-keyboard-response","331","125199","0.0-331.0","3JV9LGBJWU0TSCKFE2VW0L895ETOGS","A3TZ6KG6SP9RDT","3UAU495MIIEABANG75FBFHDC9WUUOI","","208","img/animal4.png","76","209.70000004768372","3","1","3","1,0.5,0,0,1,0.5,0.5,0,1",""
"","html-keyboard-response","332","125502","0.0-332.0","3JV9LGBJWU0TSCKFE2VW0L895ETOGS","A3TZ6KG6SP9RDT","3UAU495MIIEABANG75FBFHDC9WUUOI","","null","<img src=""img/animal4.png"" style=""width:200px; border:14px solid green;"">","null","","","","","",""
"","image-keyboard-response","333","125672","0.0-333.0","3JV9LGBJWU0TSCKFE2VW0L895ETOGS","A3TZ6KG6SP9RDT","3UAU495MIIEABANG75FBFHDC9WUUOI","","167.80000001192093","img/animal1.png","76","169.4000000357628","3","0","1","1,0.5,0,0,1,0.5,0.5,0,1",""
"","html-keyboard-response","334","125976","0.0-334.0","3JV9LGBJWU0TSCKFE2VW0L895ETOGS","A3TZ6KG6SP9RDT","3UAU495MIIEABANG75FBFHDC9WUUOI","","null","<img src=""img/animal1.png"" style=""width:200px;border:14px solid red;"">","null","","","","","",""
"","image-keyboard-response","335","126186","0.0-335.0","3JV9LGBJWU0TSCKFE2VW0L895ETOGS","A3TZ6KG6SP9RDT","3UAU495MIIEABANG75FBFHDC9WUUOI","","207.4000000357628","img/animal4.png","75","209.20000004768372","2","0","3","1,0.5,0,0,1,0.5,0.5,0,1",""
"","html-keyboard-response","336","126489","0.0-336.0","3JV9LGBJWU0TSCKFE2VW0L895ETOGS","A3TZ6KG6SP9RDT","3UAU495MIIEABANG75FBFHDC9WUUOI","","null","<img src=""img/animal4.png"" style=""width:200px;border:14px solid red;"">","null","","","","","",""
"","image-keyboard-response","337","126498","0.0-337.0","3JV9LGBJWU0TSCKFE2VW0L895ETOGS","A3TZ6KG6SP9RDT","3UAU495MIIEABANG75FBFHDC9WUUOI","","6.899999976158142","img/animal4.png","75","8.199999988079071","2","0","3","1,0.5,0,0,1,0.5,0.5,0,1",""
"","html-keyboard-response","338","126802","0.0-338.0","3JV9LGBJWU0TSCKFE2VW0L895ETOGS","A3TZ6KG6SP9RDT","3UAU495MIIEABANG75FBFHDC9WUUOI","","null","<img src=""img/animal4.png"" style=""width:200px;border:14px solid red;"">","null","","","","","",""
"","image-keyboard-response","339","126902","0.0-339.0","3JV9LGBJWU0TSCKFE2VW0L895ETOGS","A3TZ6KG6SP9RDT","3UAU495MIIEABANG75FBFHDC9WUUOI","","97.60000002384186","img/animal1.png","75","99.29999995231628","2","1","1","1,0.5,0,0,1,0.5,0.5,0,1",""
"","html-keyboard-response","340","127204","0.0-340.0","3JV9LGBJWU0TSCKFE2VW0L895ETOGS","A3TZ6KG6SP9RDT","3UAU495MIIEABANG75FBFHDC9WUUOI","","null","<img src=""img/animal1.png"" style=""width:200px; border:14px solid green;"">","null","","","","","",""
"","image-keyboard-response","341","127343","0.0-341.0","3JV9LGBJWU0TSCKFE2VW0L895ETOGS","A3TZ6KG6SP9RDT","3UAU495MIIEABANG75FBFHDC9WUUOI","","136.39999997615814","img/animal1.png","75","138.0999999642372","2","1","1","1,0.5,0,0,1,0.5,0.5,0,1",""
"","html-keyboard-response","342","127647","0.0-342.0","3JV9LGBJWU0TSCKFE2VW0L895ETOGS","A3TZ6KG6SP9RDT","3UAU495MIIEABANG75FBFHDC9WUUOI","","null","<img src=""img/animal1.png"" style=""width:200px; border:14px solid green;"">","null","","","","","",""
"","image-keyboard-response","343","127754","0.0-343.0","3JV9LGBJWU0TSCKFE2VW0L895ETOGS","A3TZ6KG6SP9RDT","3UAU495MIIEABANG75FBFHDC9WUUOI","","105","img/animal2.png","75","106.69999998807907","2","1","2","1,0.5,0,0,1,0.5,0.5,0,1",""
"","html-keyboard-response","344","128056","0.0-344.0","3JV9LGBJWU0TSCKFE2VW0L895ETOGS","A3TZ6KG6SP9RDT","3UAU495MIIEABANG75FBFHDC9WUUOI","","null","<img src=""img/animal2.png"" style=""width:200px; border:14px solid green;"">","null","","","","","",""
"","image-keyboard-response","345","128205","0.0-345.0","3JV9LGBJWU0TSCKFE2VW0L895ETOGS","A3TZ6KG6SP9RDT","3UAU495MIIEABANG75FBFHDC9WUUOI","","146.10000002384186","img/animal2.png","75","147.80000001192093","2","1","2","1,0.5,0,0,1,0.5,0.5,0,1",""
"","html-keyboard-response","346","128508","0.0-346.0","3JV9LGBJWU0TSCKFE2VW0L895ETOGS","A3TZ6KG6SP9RDT","3UAU495MIIEABANG75FBFHDC9WUUOI","","null","<img src=""img/animal2.png"" style=""width:200px; border:14px solid green;"">","null","","","","","",""
"","image-keyboard-response","347","128654","0.0-347.0","3JV9LGBJWU0TSCKFE2VW0L895ETOGS","A3TZ6KG6SP9RDT","3UAU495MIIEABANG75FBFHDC9WUUOI","","142.5999999642372","img/animal1.png","75","145.30000001192093","2","1","1","1,0.5,0,0,1,0.5,0.5,0,1",""
"","html-keyboard-response","348","128957","0.0-348.0","3JV9LGBJWU0TSCKFE2VW0L895ETOGS","A3TZ6KG6SP9RDT","3UAU495MIIEABANG75FBFHDC9WUUOI","","null","<img src=""img/animal1.png"" style=""width:200px; border:14px solid green;"">","null","","","","","",""
"","image-keyboard-response","349","129183","0.0-349.0","3JV9LGBJWU0TSCKFE2VW0L895ETOGS","A3TZ6KG6SP9RDT","3UAU495MIIEABANG75FBFHDC9WUUOI","","223.60000002384186","img/animal1.png","75","225.39999997615814","2","0","1","1,0.5,0,0,1,0.5,0.5,0,1",""
"","html-keyboard-response","350","129487","0.0-350.0","3JV9LGBJWU0TSCKFE2VW0L895ETOGS","A3TZ6KG6SP9RDT","3UAU495MIIEABANG75FBFHDC9WUUOI","","null","<img src=""img/animal1.png"" style=""width:200px;border:14px solid red;"">","null","","","","","",""
"","image-keyboard-response","351","129736","0.0-351.0","3JV9LGBJWU0TSCKFE2VW0L895ETOGS","A3TZ6KG6SP9RDT","3UAU495MIIEABANG75FBFHDC9WUUOI","","247","img/animal2.png","74","248.70000004768372","1","0","2","1,0.5,0,0,1,0.5,0.5,0,1",""
"","html-keyboard-response","352","130039","0.0-352.0","3JV9LGBJWU0TSCKFE2VW0L895ETOGS","A3TZ6KG6SP9RDT","3UAU495MIIEABANG75FBFHDC9WUUOI","","null","<img src=""img/animal2.png"" style=""width:200px;border:14px solid red;"">","null","","","","","",""
"","image-keyboard-response","353","130203","0.0-353.0","3JV9LGBJWU0TSCKFE2VW0L895ETOGS","A3TZ6KG6SP9RDT","3UAU495MIIEABANG75FBFHDC9WUUOI","","161.79999995231628","img/animal4.png","74","163.30000001192093","1","1","3","1,0.5,0,0,1,0.5,0.5,0,1",""
"","html-keyboard-response","354","130506","0.0-354.0","3JV9LGBJWU0TSCKFE2VW0L895ETOGS","A3TZ6KG6SP9RDT","3UAU495MIIEABANG75FBFHDC9WUUOI","","null","<img src=""img/animal4.png"" style=""width:200px; border:14px solid green;"">","null","","","","","",""
"","image-keyboard-response","355","130672","0.0-355.0","3JV9LGBJWU0TSCKFE2VW0L895ETOGS","A3TZ6KG6SP9RDT","3UAU495MIIEABANG75FBFHDC9WUUOI","","163.39999997615814","img/animal2.png","74","165.5","1","0","2","1,0.5,0,0,1,0.5,0.5,0,1",""
"","html-keyboard-response","356","130975","0.0-356.0","3JV9LGBJWU0TSCKFE2VW0L895ETOGS","A3TZ6KG6SP9RDT","3UAU495MIIEABANG75FBFHDC9WUUOI","","null","<img src=""img/animal2.png"" style=""width:200px;border:14px solid red;"">","null","","","","","",""
"","image-keyboard-response","357","131216","0.0-357.0","3JV9LGBJWU0TSCKFE2VW0L895ETOGS","A3TZ6KG6SP9RDT","3UAU495MIIEABANG75FBFHDC9WUUOI","","239","img/animal2.png","74","240.60000002384186","1","0","2","1,0.5,0,0,1,0.5,0.5,0,1",""
"","html-keyboard-response","358","131519","0.0-358.0","3JV9LGBJWU0TSCKFE2VW0L895ETOGS","A3TZ6KG6SP9RDT","3UAU495MIIEABANG75FBFHDC9WUUOI","","null","<img src=""img/animal2.png"" style=""width:200px;border:14px solid red;"">","null","","","","","",""
"","image-keyboard-response","359","131559","0.0-359.0","3JV9LGBJWU0TSCKFE2VW0L895ETOGS","A3TZ6KG6SP9RDT","3UAU495MIIEABANG75FBFHDC9WUUOI","","38.5","img/animal2.png","75","40","2","1","2","1,0.5,0,0,1,0.5,0.5,0,1",""
"","html-keyboard-response","360","131864","0.0-360.0","3JV9LGBJWU0TSCKFE2VW0L895ETOGS","A3TZ6KG6SP9RDT","3UAU495MIIEABANG75FBFHDC9WUUOI","","null","<img src=""img/animal2.png"" style=""width:200px; border:14px solid green;"">","null","","","","","",""
"","image-keyboard-response","361","132076","0.0-361.0","3JV9LGBJWU0TSCKFE2VW0L895ETOGS","A3TZ6KG6SP9RDT","3UAU495MIIEABANG75FBFHDC9WUUOI","","210.89999997615814","img/animal2.png","75","212.4000000357628","2","1","2","1,0.5,0,0,1,0.5,0.5,0,1",""
"","html-keyboard-response","362","132379","0.0-362.0","3JV9LGBJWU0TSCKFE2VW0L895ETOGS","A3TZ6KG6SP9RDT","3UAU495MIIEABANG75FBFHDC9WUUOI","","null","<img src=""img/animal2.png"" style=""width:200px; border:14px solid green;"">","null","","","","","",""
"","instructions","363","135411","0.0-363.0","3JV9LGBJWU0TSCKFE2VW0L895ETOGS","A3TZ6KG6SP9RDT","3UAU495MIIEABANG75FBFHDC9WUUOI","[{""page_index"":0,""viewing_time"":3030.399999976158}]","3030.800000011921","","","","","","","",""
"","survey-text","364","139108","0.0-364.0","3JV9LGBJWU0TSCKFE2VW0L895ETOGS","A3TZ6KG6SP9RDT","3UAU495MIIEABANG75FBFHDC9WUUOI","","3693.300000011921","","","","","","","","{""Q0"":""A3TZ6KG6SP9RDT""}"
