"success","trial_type","trial_index","time_elapsed","internal_node_id","assignmentID","mturkID","hitID","view_history","rt","stimulus","key_press","reactionTime","a","r","s","reward_cond","responses"
"true","fullscreen","0","9724","0.0-0.0","37FMASSAYDDN59110LQDFDLQCC8IBJ","A3VV07FCCSZ7JY","3FW4EL5A3LANKRP91N782LFHPY722Q","","","","","","","","","",""
"","instructions","1","30515","0.0-1.0","37FMASSAYDDN59110LQDFDLQCC8IBJ","A3VV07FCCSZ7JY","3FW4EL5A3LANKRP91N782LFHPY722Q","[{""page_index"":0,""viewing_time"":5332},{""page_index"":1,""viewing_time"":1496},{""page_index"":2,""viewing_time"":1191},{""page_index"":3,""viewing_time"":3811},{""page_index"":4,""viewing_time"":3382},{""page_index"":5,""viewing_time"":2564},{""page_index"":6,""viewing_time"":1452},{""page_index"":7,""viewing_time"":1553}]","20784","","","","","","","",""
"","image-keyboard-response","2","32926","0.0-2.0","37FMASSAYDDN59110LQDFDLQCC8IBJ","A3VV07FCCSZ7JY","3FW4EL5A3LANKRP91N782LFHPY722Q","","2406","img/animal4.png","75","2410","2","0","1","0.5,0,1,1,0.5,0,0,1,0.5",""
"","html-keyboard-response","3","33234","0.0-3.0","37FMASSAYDDN59110LQDFDLQCC8IBJ","A3VV07FCCSZ7JY","3FW4EL5A3LANKRP91N782LFHPY722Q","","null","<img src=""img/animal4.png"" style=""width:200px;border:14px solid red;"">","null","","","","","",""
"","image-keyboard-response","4","34197","0.0-4.0","37FMASSAYDDN59110LQDFDLQCC8IBJ","A3VV07FCCSZ7JY","3FW4EL5A3LANKRP91N782LFHPY722Q","","961","img/animal1.png","74","963","1","0","3","0.5,0,1,1,0.5,0,0,1,0.5",""
"","html-keyboard-response","5","34501","0.0-5.0","37FMASSAYDDN59110LQDFDLQCC8IBJ","A3VV07FCCSZ7JY","3FW4EL5A3LANKRP91N782LFHPY722Q","","null","<img src=""img/animal1.png"" style=""width:200px;border:14px solid red;"">","null","","","","","",""
"","image-keyboard-response","6","35110","0.0-6.0","37FMASSAYDDN59110LQDFDLQCC8IBJ","A3VV07FCCSZ7JY","3FW4EL5A3LANKRP91N782LFHPY722Q","","606","img/animal1.png","76","608","3","0","3","0.5,0,1,1,0.5,0,0,1,0.5",""
"","html-keyboard-response","7","35414","0.0-7.0","37FMASSAYDDN59110LQDFDLQCC8IBJ","A3VV07FCCSZ7JY","3FW4EL5A3LANKRP91N782LFHPY722Q","","null","<img src=""img/animal1.png"" style=""width:200px;border:14px solid red;"">","null","","","","","",""
"","image-keyboard-response","8","36101","0.0-8.0","37FMASSAYDDN59110LQDFDLQCC8IBJ","A3VV07FCCSZ7JY","3FW4EL5A3LANKRP91N782LFHPY722Q","","685","img/animal1.png","76","686","3","0","3","0.5,0,1,1,0.5,0,0,1,0.5",""
"","html-keyboard-response","9","36403","0.0-9.0","37FMASSAYDDN59110LQDFDLQCC8IBJ","A3VV07FCCSZ7JY","3FW4EL5A3LANKRP91N782LFHPY722Q","","null","<img src=""img/animal1.png"" style=""width:200px;border:14px solid red;"">","null","","","","","",""
"","image-keyboard-response","10","36855","0.0-10.0","37FMASSAYDDN59110LQDFDLQCC8IBJ","A3VV07FCCSZ7JY","3FW4EL5A3LANKRP91N782LFHPY722Q","","450","img/animal1.png","75","451","2","1","3","0.5,0,1,1,0.5,0,0,1,0.5",""
"","html-keyboard-response","11","37157","0.0-11.0","37FMASSAYDDN59110LQDFDLQCC8IBJ","A3VV07FCCSZ7JY","3FW4EL5A3LANKRP91N782LFHPY722Q","","null","<img src=""img/animal1.png"" style=""width:200px; border:14px solid green;"">","null","","","","","",""
"","image-keyboard-response","12","38467","0.0-12.0","37FMASSAYDDN59110LQDFDLQCC8IBJ","A3VV07FCCSZ7JY","3FW4EL5A3LANKRP91N782LFHPY722Q","","1307","img/animal1.png","75","1309","2","1","3","0.5,0,1,1,0.5,0,0,1,0.5",""
"","html-keyboard-response","13","38771","0.0-13.0","37FMASSAYDDN59110LQDFDLQCC8IBJ","A3VV07FCCSZ7JY","3FW4EL5A3LANKRP91N782LFHPY722Q","","null","<img src=""img/animal1.png"" style=""width:200px; border:14px solid green;"">","null","","","","","",""
"","image-keyboard-response","14","39655","0.0-14.0","37FMASSAYDDN59110LQDFDLQCC8IBJ","A3VV07FCCSZ7JY","3FW4EL5A3LANKRP91N782LFHPY722Q","","884","img/animal1.png","75","884","2","1","3","0.5,0,1,1,0.5,0,0,1,0.5",""
"","html-keyboard-response","15","39957","0.0-15.0","37FMASSAYDDN59110LQDFDLQCC8IBJ","A3VV07FCCSZ7JY","3FW4EL5A3LANKRP91N782LFHPY722Q","","null","<img src=""img/animal1.png"" style=""width:200px; border:14px solid green;"">","null","","","","","",""
"","image-keyboard-response","16","40825","0.0-16.0","37FMASSAYDDN59110LQDFDLQCC8IBJ","A3VV07FCCSZ7JY","3FW4EL5A3LANKRP91N782LFHPY722Q","","865","img/animal1.png","75","868","2","1","3","0.5,0,1,1,0.5,0,0,1,0.5",""
"","html-keyboard-response","17","41129","0.0-17.0","37FMASSAYDDN59110LQDFDLQCC8IBJ","A3VV07FCCSZ7JY","3FW4EL5A3LANKRP91N782LFHPY722Q","","null","<img src=""img/animal1.png"" style=""width:200px; border:14px solid green;"">","null","","","","","",""
"","image-keyboard-response","18","42652","0.0-18.0","37FMASSAYDDN59110LQDFDLQCC8IBJ","A3VV07FCCSZ7JY","3FW4EL5A3LANKRP91N782LFHPY722Q","","1519","img/animal4.png","74","1521","1","1","1","0.5,0,1,1,0.5,0,0,1,0.5",""
"","html-keyboard-response","19","42956","0.0-19.0","37FMASSAYDDN59110LQDFDLQCC8IBJ","A3VV07FCCSZ7JY","3FW4EL5A3LANKRP91N782LFHPY722Q","","null","<img src=""img/animal4.png"" style=""width:200px; border:14px solid green;"">","null","","","","","",""
"","image-keyboard-response","20","44122","0.0-20.0","37FMASSAYDDN59110LQDFDLQCC8IBJ","A3VV07FCCSZ7JY","3FW4EL5A3LANKRP91N782LFHPY722Q","","1162","img/animal4.png","74","1165","1","1","1","0.5,0,1,1,0.5,0,0,1,0.5",""
"","html-keyboard-response","21","44426","0.0-21.0","37FMASSAYDDN59110LQDFDLQCC8IBJ","A3VV07FCCSZ7JY","3FW4EL5A3LANKRP91N782LFHPY722Q","","null","<img src=""img/animal4.png"" style=""width:200px; border:14px solid green;"">","null","","","","","",""
"","image-keyboard-response","22","45901","0.0-22.0","37FMASSAYDDN59110LQDFDLQCC8IBJ","A3VV07FCCSZ7JY","3FW4EL5A3LANKRP91N782LFHPY722Q","","1474","img/animal1.png","75","1475","2","1","3","0.5,0,1,1,0.5,0,0,1,0.5",""
"","html-keyboard-response","23","46206","0.0-23.0","37FMASSAYDDN59110LQDFDLQCC8IBJ","A3VV07FCCSZ7JY","3FW4EL5A3LANKRP91N782LFHPY722Q","","null","<img src=""img/animal1.png"" style=""width:200px; border:14px solid green;"">","null","","","","","",""
"","image-keyboard-response","24","47590","0.0-24.0","37FMASSAYDDN59110LQDFDLQCC8IBJ","A3VV07FCCSZ7JY","3FW4EL5A3LANKRP91N782LFHPY722Q","","1382","img/animal4.png","74","1383","1","0","1","0.5,0,1,1,0.5,0,0,1,0.5",""
"","html-keyboard-response","25","47892","0.0-25.0","37FMASSAYDDN59110LQDFDLQCC8IBJ","A3VV07FCCSZ7JY","3FW4EL5A3LANKRP91N782LFHPY722Q","","null","<img src=""img/animal4.png"" style=""width:200px;border:14px solid red;"">","null","","","","","",""
"","image-keyboard-response","26","48867","0.0-26.0","37FMASSAYDDN59110LQDFDLQCC8IBJ","A3VV07FCCSZ7JY","3FW4EL5A3LANKRP91N782LFHPY722Q","","973","img/animal4.png","75","975","2","0","1","0.5,0,1,1,0.5,0,0,1,0.5",""
"","html-keyboard-response","27","49176","0.0-27.0","37FMASSAYDDN59110LQDFDLQCC8IBJ","A3VV07FCCSZ7JY","3FW4EL5A3LANKRP91N782LFHPY722Q","","null","<img src=""img/animal4.png"" style=""width:200px;border:14px solid red;"">","null","","","","","",""
"","image-keyboard-response","28","49927","0.0-28.0","37FMASSAYDDN59110LQDFDLQCC8IBJ","A3VV07FCCSZ7JY","3FW4EL5A3LANKRP91N782LFHPY722Q","","749","img/animal1.png","76","751","3","1","3","0.5,0,1,1,0.5,0,0,1,0.5",""
"","html-keyboard-response","29","50228","0.0-29.0","37FMASSAYDDN59110LQDFDLQCC8IBJ","A3VV07FCCSZ7JY","3FW4EL5A3LANKRP91N782LFHPY722Q","","null","<img src=""img/animal1.png"" style=""width:200px; border:14px solid green;"">","null","","","","","",""
"","image-keyboard-response","30","51277","0.0-30.0","37FMASSAYDDN59110LQDFDLQCC8IBJ","A3VV07FCCSZ7JY","3FW4EL5A3LANKRP91N782LFHPY722Q","","1047","img/animal1.png","76","1048","3","1","3","0.5,0,1,1,0.5,0,0,1,0.5",""
"","html-keyboard-response","31","51740","0.0-31.0","37FMASSAYDDN59110LQDFDLQCC8IBJ","A3VV07FCCSZ7JY","3FW4EL5A3LANKRP91N782LFHPY722Q","","null","<img src=""img/animal1.png"" style=""width:200px; border:14px solid green;"">","null","","","","","",""
"","image-keyboard-response","32","52742","0.0-32.0","37FMASSAYDDN59110LQDFDLQCC8IBJ","A3VV07FCCSZ7JY","3FW4EL5A3LANKRP91N782LFHPY722Q","","1001","img/animal5.png","75","1001","2","1","2","0.5,0,1,1,0.5,0,0,1,0.5",""
"","html-keyboard-response","33","53045","0.0-33.0","37FMASSAYDDN59110LQDFDLQCC8IBJ","A3VV07FCCSZ7JY","3FW4EL5A3LANKRP91N782LFHPY722Q","","null","<img src=""img/animal5.png"" style=""width:200px; border:14px solid green;"">","null","","","","","",""
"","image-keyboard-response","34","53997","0.0-34.0","37FMASSAYDDN59110LQDFDLQCC8IBJ","A3VV07FCCSZ7JY","3FW4EL5A3LANKRP91N782LFHPY722Q","","950","img/animal1.png","75","952","2","1","3","0.5,0,1,1,0.5,0,0,1,0.5",""
"","html-keyboard-response","35","54301","0.0-35.0","37FMASSAYDDN59110LQDFDLQCC8IBJ","A3VV07FCCSZ7JY","3FW4EL5A3LANKRP91N782LFHPY722Q","","null","<img src=""img/animal1.png"" style=""width:200px; border:14px solid green;"">","null","","","","","",""
"","image-keyboard-response","36","55149","0.0-36.0","37FMASSAYDDN59110LQDFDLQCC8IBJ","A3VV07FCCSZ7JY","3FW4EL5A3LANKRP91N782LFHPY722Q","","846","img/animal4.png","74","848","1","0","1","0.5,0,1,1,0.5,0,0,1,0.5",""
"","html-keyboard-response","37","55450","0.0-37.0","37FMASSAYDDN59110LQDFDLQCC8IBJ","A3VV07FCCSZ7JY","3FW4EL5A3LANKRP91N782LFHPY722Q","","null","<img src=""img/animal4.png"" style=""width:200px;border:14px solid red;"">","null","","","","","",""
"","image-keyboard-response","38","55874","0.0-38.0","37FMASSAYDDN59110LQDFDLQCC8IBJ","A3VV07FCCSZ7JY","3FW4EL5A3LANKRP91N782LFHPY722Q","","422","img/animal5.png","75","424","2","1","2","0.5,0,1,1,0.5,0,0,1,0.5",""
"","html-keyboard-response","39","56179","0.0-39.0","37FMASSAYDDN59110LQDFDLQCC8IBJ","A3VV07FCCSZ7JY","3FW4EL5A3LANKRP91N782LFHPY722Q","","null","<img src=""img/animal5.png"" style=""width:200px; border:14px solid green;"">","null","","","","","",""
"","image-keyboard-response","40","56892","0.0-40.0","37FMASSAYDDN59110LQDFDLQCC8IBJ","A3VV07FCCSZ7JY","3FW4EL5A3LANKRP91N782LFHPY722Q","","712","img/animal4.png","75","713","2","0","1","0.5,0,1,1,0.5,0,0,1,0.5",""
"","html-keyboard-response","41","57196","0.0-41.0","37FMASSAYDDN59110LQDFDLQCC8IBJ","A3VV07FCCSZ7JY","3FW4EL5A3LANKRP91N782LFHPY722Q","","null","<img src=""img/animal4.png"" style=""width:200px;border:14px solid red;"">","null","","","","","",""
"","image-keyboard-response","42","57815","0.0-42.0","37FMASSAYDDN59110LQDFDLQCC8IBJ","A3VV07FCCSZ7JY","3FW4EL5A3LANKRP91N782LFHPY722Q","","617","img/animal5.png","74","622","1","1","2","0.5,0,1,1,0.5,0,0,1,0.5",""
"","html-keyboard-response","43","58121","0.0-43.0","37FMASSAYDDN59110LQDFDLQCC8IBJ","A3VV07FCCSZ7JY","3FW4EL5A3LANKRP91N782LFHPY722Q","","null","<img src=""img/animal5.png"" style=""width:200px; border:14px solid green;"">","null","","","","","",""
"","image-keyboard-response","44","58825","0.0-44.0","37FMASSAYDDN59110LQDFDLQCC8IBJ","A3VV07FCCSZ7JY","3FW4EL5A3LANKRP91N782LFHPY722Q","","702","img/animal1.png","75","703","2","1","3","0.5,0,1,1,0.5,0,0,1,0.5",""
"","html-keyboard-response","45","59128","0.0-45.0","37FMASSAYDDN59110LQDFDLQCC8IBJ","A3VV07FCCSZ7JY","3FW4EL5A3LANKRP91N782LFHPY722Q","","null","<img src=""img/animal1.png"" style=""width:200px; border:14px solid green;"">","null","","","","","",""
"","image-keyboard-response","46","59614","0.0-46.0","37FMASSAYDDN59110LQDFDLQCC8IBJ","A3VV07FCCSZ7JY","3FW4EL5A3LANKRP91N782LFHPY722Q","","482","img/animal4.png","76","485","3","1","1","0.5,0,1,1,0.5,0,0,1,0.5",""
"","html-keyboard-response","47","59916","0.0-47.0","37FMASSAYDDN59110LQDFDLQCC8IBJ","A3VV07FCCSZ7JY","3FW4EL5A3LANKRP91N782LFHPY722Q","","null","<img src=""img/animal4.png"" style=""width:200px; border:14px solid green;"">","null","","","","","",""
"","image-keyboard-response","48","70972","0.0-48.0","37FMASSAYDDN59110LQDFDLQCC8IBJ","A3VV07FCCSZ7JY","3FW4EL5A3LANKRP91N782LFHPY722Q","","11054","img/animal1.png","75","11055","2","1","3","0.5,0,1,1,0.5,0,0,1,0.5",""
"","html-keyboard-response","49","71277","0.0-49.0","37FMASSAYDDN59110LQDFDLQCC8IBJ","A3VV07FCCSZ7JY","3FW4EL5A3LANKRP91N782LFHPY722Q","","null","<img src=""img/animal1.png"" style=""width:200px; border:14px solid green;"">","null","","","","","",""
"","image-keyboard-response","50","74177","0.0-50.0","37FMASSAYDDN59110LQDFDLQCC8IBJ","A3VV07FCCSZ7JY","3FW4EL5A3LANKRP91N782LFHPY722Q","","2899","img/animal4.png","74","2901","1","1","1","0.5,0,1,1,0.5,0,0,1,0.5",""
"","html-keyboard-response","51","74480","0.0-51.0","37FMASSAYDDN59110LQDFDLQCC8IBJ","A3VV07FCCSZ7JY","3FW4EL5A3LANKRP91N782LFHPY722Q","","null","<img src=""img/animal4.png"" style=""width:200px; border:14px solid green;"">","null","","","","","",""
"","image-keyboard-response","52","79799","0.0-52.0","37FMASSAYDDN59110LQDFDLQCC8IBJ","A3VV07FCCSZ7JY","3FW4EL5A3LANKRP91N782LFHPY722Q","","5317","img/animal4.png","76","5319","3","1","1","0.5,0,1,1,0.5,0,0,1,0.5",""
"","html-keyboard-response","53","80101","0.0-53.0","37FMASSAYDDN59110LQDFDLQCC8IBJ","A3VV07FCCSZ7JY","3FW4EL5A3LANKRP91N782LFHPY722Q","","null","<img src=""img/animal4.png"" style=""width:200px; border:14px solid green;"">","null","","","","","",""
"","image-keyboard-response","54","81117","0.0-54.0","37FMASSAYDDN59110LQDFDLQCC8IBJ","A3VV07FCCSZ7JY","3FW4EL5A3LANKRP91N782LFHPY722Q","","1015","img/animal5.png","75","1016","2","0","2","0.5,0,1,1,0.5,0,0,1,0.5",""
"","html-keyboard-response","55","81500","0.0-55.0","37FMASSAYDDN59110LQDFDLQCC8IBJ","A3VV07FCCSZ7JY","3FW4EL5A3LANKRP91N782LFHPY722Q","","null","<img src=""img/animal5.png"" style=""width:200px;border:14px solid red;"">","null","","","","","",""
"","image-keyboard-response","56","81938","0.0-56.0","37FMASSAYDDN59110LQDFDLQCC8IBJ","A3VV07FCCSZ7JY","3FW4EL5A3LANKRP91N782LFHPY722Q","","436","img/animal4.png","76","438","3","1","1","0.5,0,1,1,0.5,0,0,1,0.5",""
"","html-keyboard-response","57","82241","0.0-57.0","37FMASSAYDDN59110LQDFDLQCC8IBJ","A3VV07FCCSZ7JY","3FW4EL5A3LANKRP91N782LFHPY722Q","","null","<img src=""img/animal4.png"" style=""width:200px; border:14px solid green;"">","null","","","","","",""
"","image-keyboard-response","58","82810","0.0-58.0","37FMASSAYDDN59110LQDFDLQCC8IBJ","A3VV07FCCSZ7JY","3FW4EL5A3LANKRP91N782LFHPY722Q","","568","img/animal4.png","76","570","3","1","1","0.5,0,1,1,0.5,0,0,1,0.5",""
"","html-keyboard-response","59","83115","0.0-59.0","37FMASSAYDDN59110LQDFDLQCC8IBJ","A3VV07FCCSZ7JY","3FW4EL5A3LANKRP91N782LFHPY722Q","","null","<img src=""img/animal4.png"" style=""width:200px; border:14px solid green;"">","null","","","","","",""
"","image-keyboard-response","60","83606","0.0-60.0","37FMASSAYDDN59110LQDFDLQCC8IBJ","A3VV07FCCSZ7JY","3FW4EL5A3LANKRP91N782LFHPY722Q","","489","img/animal1.png","76","490","3","1","3","0.5,0,1,1,0.5,0,0,1,0.5",""
"","html-keyboard-response","61","83909","0.0-61.0","37FMASSAYDDN59110LQDFDLQCC8IBJ","A3VV07FCCSZ7JY","3FW4EL5A3LANKRP91N782LFHPY722Q","","null","<img src=""img/animal1.png"" style=""width:200px; border:14px solid green;"">","null","","","","","",""
"","image-keyboard-response","62","84447","0.0-62.0","37FMASSAYDDN59110LQDFDLQCC8IBJ","A3VV07FCCSZ7JY","3FW4EL5A3LANKRP91N782LFHPY722Q","","535","img/animal5.png","76","537","3","0","2","0.5,0,1,1,0.5,0,0,1,0.5",""
"","html-keyboard-response","63","84750","0.0-63.0","37FMASSAYDDN59110LQDFDLQCC8IBJ","A3VV07FCCSZ7JY","3FW4EL5A3LANKRP91N782LFHPY722Q","","null","<img src=""img/animal5.png"" style=""width:200px;border:14px solid red;"">","null","","","","","",""
"","image-keyboard-response","64","85195","0.0-64.0","37FMASSAYDDN59110LQDFDLQCC8IBJ","A3VV07FCCSZ7JY","3FW4EL5A3LANKRP91N782LFHPY722Q","","442","img/animal5.png","74","444","1","1","2","0.5,0,1,1,0.5,0,0,1,0.5",""
"","html-keyboard-response","65","85532","0.0-65.0","37FMASSAYDDN59110LQDFDLQCC8IBJ","A3VV07FCCSZ7JY","3FW4EL5A3LANKRP91N782LFHPY722Q","","null","<img src=""img/animal5.png"" style=""width:200px; border:14px solid green;"">","null","","","","","",""
"","image-keyboard-response","66","86263","0.0-66.0","37FMASSAYDDN59110LQDFDLQCC8IBJ","A3VV07FCCSZ7JY","3FW4EL5A3LANKRP91N782LFHPY722Q","","729","img/animal4.png","74","731","1","0","1","0.5,0,1,1,0.5,0,0,1,0.5",""
"","html-keyboard-response","67","86566","0.0-67.0","37FMASSAYDDN59110LQDFDLQCC8IBJ","A3VV07FCCSZ7JY","3FW4EL5A3LANKRP91N782LFHPY722Q","","null","<img src=""img/animal4.png"" style=""width:200px;border:14px solid red;"">","null","","","","","",""
"","image-keyboard-response","68","87139","0.0-68.0","37FMASSAYDDN59110LQDFDLQCC8IBJ","A3VV07FCCSZ7JY","3FW4EL5A3LANKRP91N782LFHPY722Q","","571","img/animal5.png","75","573","2","0","2","0.5,0,1,1,0.5,0,0,1,0.5",""
"","html-keyboard-response","69","87443","0.0-69.0","37FMASSAYDDN59110LQDFDLQCC8IBJ","A3VV07FCCSZ7JY","3FW4EL5A3LANKRP91N782LFHPY722Q","","null","<img src=""img/animal5.png"" style=""width:200px;border:14px solid red;"">","null","","","","","",""
"","image-keyboard-response","70","88670","0.0-70.0","37FMASSAYDDN59110LQDFDLQCC8IBJ","A3VV07FCCSZ7JY","3FW4EL5A3LANKRP91N782LFHPY722Q","","1226","img/animal1.png","74","1226","1","0","3","0.5,0,1,1,0.5,0,0,1,0.5",""
"","html-keyboard-response","71","88972","0.0-71.0","37FMASSAYDDN59110LQDFDLQCC8IBJ","A3VV07FCCSZ7JY","3FW4EL5A3LANKRP91N782LFHPY722Q","","null","<img src=""img/animal1.png"" style=""width:200px;border:14px solid red;"">","null","","","","","",""
"","image-keyboard-response","72","89533","0.0-72.0","37FMASSAYDDN59110LQDFDLQCC8IBJ","A3VV07FCCSZ7JY","3FW4EL5A3LANKRP91N782LFHPY722Q","","560","img/animal5.png","76","561","3","0","2","0.5,0,1,1,0.5,0,0,1,0.5",""
"","html-keyboard-response","73","89845","0.0-73.0","37FMASSAYDDN59110LQDFDLQCC8IBJ","A3VV07FCCSZ7JY","3FW4EL5A3LANKRP91N782LFHPY722Q","","null","<img src=""img/animal5.png"" style=""width:200px;border:14px solid red;"">","null","","","","","",""
"","image-keyboard-response","74","90364","0.0-74.0","37FMASSAYDDN59110LQDFDLQCC8IBJ","A3VV07FCCSZ7JY","3FW4EL5A3LANKRP91N782LFHPY722Q","","516","img/animal4.png","75","518","2","0","1","0.5,0,1,1,0.5,0,0,1,0.5",""
"","html-keyboard-response","75","90667","0.0-75.0","37FMASSAYDDN59110LQDFDLQCC8IBJ","A3VV07FCCSZ7JY","3FW4EL5A3LANKRP91N782LFHPY722Q","","null","<img src=""img/animal4.png"" style=""width:200px;border:14px solid red;"">","null","","","","","",""
"","image-keyboard-response","76","91338","0.0-76.0","37FMASSAYDDN59110LQDFDLQCC8IBJ","A3VV07FCCSZ7JY","3FW4EL5A3LANKRP91N782LFHPY722Q","","670","img/animal4.png","75","670","2","0","1","0.5,0,1,1,0.5,0,0,1,0.5",""
"","html-keyboard-response","77","91642","0.0-77.0","37FMASSAYDDN59110LQDFDLQCC8IBJ","A3VV07FCCSZ7JY","3FW4EL5A3LANKRP91N782LFHPY722Q","","null","<img src=""img/animal4.png"" style=""width:200px;border:14px solid red;"">","null","","","","","",""
"","image-keyboard-response","78","92101","0.0-78.0","37FMASSAYDDN59110LQDFDLQCC8IBJ","A3VV07FCCSZ7JY","3FW4EL5A3LANKRP91N782LFHPY722Q","","455","img/animal5.png","74","457","1","1","2","0.5,0,1,1,0.5,0,0,1,0.5",""
"","html-keyboard-response","79","92405","0.0-79.0","37FMASSAYDDN59110LQDFDLQCC8IBJ","A3VV07FCCSZ7JY","3FW4EL5A3LANKRP91N782LFHPY722Q","","null","<img src=""img/animal5.png"" style=""width:200px; border:14px solid green;"">","null","","","","","",""
"","image-keyboard-response","80","93735","0.0-80.0","37FMASSAYDDN59110LQDFDLQCC8IBJ","A3VV07FCCSZ7JY","3FW4EL5A3LANKRP91N782LFHPY722Q","","1328","img/animal4.png","74","1330","1","1","1","0.5,0,1,1,0.5,0,0,1,0.5",""
"","html-keyboard-response","81","94036","0.0-81.0","37FMASSAYDDN59110LQDFDLQCC8IBJ","A3VV07FCCSZ7JY","3FW4EL5A3LANKRP91N782LFHPY722Q","","null","<img src=""img/animal4.png"" style=""width:200px; border:14px solid green;"">","null","","","","","",""
"","image-keyboard-response","82","95172","0.0-82.0","37FMASSAYDDN59110LQDFDLQCC8IBJ","A3VV07FCCSZ7JY","3FW4EL5A3LANKRP91N782LFHPY722Q","","1134","img/animal5.png","75","1136","2","0","2","0.5,0,1,1,0.5,0,0,1,0.5",""
"","html-keyboard-response","83","95481","0.0-83.0","37FMASSAYDDN59110LQDFDLQCC8IBJ","A3VV07FCCSZ7JY","3FW4EL5A3LANKRP91N782LFHPY722Q","","null","<img src=""img/animal5.png"" style=""width:200px;border:14px solid red;"">","null","","","","","",""
"","image-keyboard-response","84","96371","0.0-84.0","37FMASSAYDDN59110LQDFDLQCC8IBJ","A3VV07FCCSZ7JY","3FW4EL5A3LANKRP91N782LFHPY722Q","","879","img/animal5.png","74","890","1","1","2","0.5,0,1,1,0.5,0,0,1,0.5",""
"","html-keyboard-response","85","96673","0.0-85.0","37FMASSAYDDN59110LQDFDLQCC8IBJ","A3VV07FCCSZ7JY","3FW4EL5A3LANKRP91N782LFHPY722Q","","null","<img src=""img/animal5.png"" style=""width:200px; border:14px solid green;"">","null","","","","","",""
"","image-keyboard-response","86","97770","0.0-86.0","37FMASSAYDDN59110LQDFDLQCC8IBJ","A3VV07FCCSZ7JY","3FW4EL5A3LANKRP91N782LFHPY722Q","","1093","img/animal4.png","75","1096","2","0","1","0.5,0,1,1,0.5,0,0,1,0.5",""
"","html-keyboard-response","87","98078","0.0-87.0","37FMASSAYDDN59110LQDFDLQCC8IBJ","A3VV07FCCSZ7JY","3FW4EL5A3LANKRP91N782LFHPY722Q","","null","<img src=""img/animal4.png"" style=""width:200px;border:14px solid red;"">","null","","","","","",""
"","image-keyboard-response","88","98684","0.0-88.0","37FMASSAYDDN59110LQDFDLQCC8IBJ","A3VV07FCCSZ7JY","3FW4EL5A3LANKRP91N782LFHPY722Q","","603","img/animal1.png","74","605","1","0","3","0.5,0,1,1,0.5,0,0,1,0.5",""
"","html-keyboard-response","89","98988","0.0-89.0","37FMASSAYDDN59110LQDFDLQCC8IBJ","A3VV07FCCSZ7JY","3FW4EL5A3LANKRP91N782LFHPY722Q","","null","<img src=""img/animal1.png"" style=""width:200px;border:14px solid red;"">","null","","","","","",""
"","image-keyboard-response","90","99756","0.0-90.0","37FMASSAYDDN59110LQDFDLQCC8IBJ","A3VV07FCCSZ7JY","3FW4EL5A3LANKRP91N782LFHPY722Q","","758","img/animal5.png","76","768","3","0","2","0.5,0,1,1,0.5,0,0,1,0.5",""
"","html-keyboard-response","91","100067","0.0-91.0","37FMASSAYDDN59110LQDFDLQCC8IBJ","A3VV07FCCSZ7JY","3FW4EL5A3LANKRP91N782LFHPY722Q","","null","<img src=""img/animal5.png"" style=""width:200px;border:14px solid red;"">","null","","","","","",""
"","image-keyboard-response","92","100617","0.0-92.0","37FMASSAYDDN59110LQDFDLQCC8IBJ","A3VV07FCCSZ7JY","3FW4EL5A3LANKRP91N782LFHPY722Q","","548","img/animal5.png","75","550","2","0","2","0.5,0,1,1,0.5,0,0,1,0.5",""
"","html-keyboard-response","93","100922","0.0-93.0","37FMASSAYDDN59110LQDFDLQCC8IBJ","A3VV07FCCSZ7JY","3FW4EL5A3LANKRP91N782LFHPY722Q","","null","<img src=""img/animal5.png"" style=""width:200px;border:14px solid red;"">","null","","","","","",""
"","image-keyboard-response","94","101931","0.0-94.0","37FMASSAYDDN59110LQDFDLQCC8IBJ","A3VV07FCCSZ7JY","3FW4EL5A3LANKRP91N782LFHPY722Q","","1007","img/animal4.png","74","1010","1","0","1","0.5,0,1,1,0.5,0,0,1,0.5",""
"","html-keyboard-response","95","102234","0.0-95.0","37FMASSAYDDN59110LQDFDLQCC8IBJ","A3VV07FCCSZ7JY","3FW4EL5A3LANKRP91N782LFHPY722Q","","null","<img src=""img/animal4.png"" style=""width:200px;border:14px solid red;"">","null","","","","","",""
"","image-keyboard-response","96","103217","0.0-96.0","37FMASSAYDDN59110LQDFDLQCC8IBJ","A3VV07FCCSZ7JY","3FW4EL5A3LANKRP91N782LFHPY722Q","","980","img/animal1.png","75","982","2","1","3","0.5,0,1,1,0.5,0,0,1,0.5",""
"","html-keyboard-response","97","103522","0.0-97.0","37FMASSAYDDN59110LQDFDLQCC8IBJ","A3VV07FCCSZ7JY","3FW4EL5A3LANKRP91N782LFHPY722Q","","null","<img src=""img/animal1.png"" style=""width:200px; border:14px solid green;"">","null","","","","","",""
"","image-keyboard-response","98","104353","0.0-98.0","37FMASSAYDDN59110LQDFDLQCC8IBJ","A3VV07FCCSZ7JY","3FW4EL5A3LANKRP91N782LFHPY722Q","","829","img/animal1.png","75","831","2","1","3","0.5,0,1,1,0.5,0,0,1,0.5",""
"","html-keyboard-response","99","104655","0.0-99.0","37FMASSAYDDN59110LQDFDLQCC8IBJ","A3VV07FCCSZ7JY","3FW4EL5A3LANKRP91N782LFHPY722Q","","null","<img src=""img/animal1.png"" style=""width:200px; border:14px solid green;"">","null","","","","","",""
"","image-keyboard-response","100","105392","0.0-100.0","37FMASSAYDDN59110LQDFDLQCC8IBJ","A3VV07FCCSZ7JY","3FW4EL5A3LANKRP91N782LFHPY722Q","","735","img/animal4.png","75","737","2","0","1","0.5,0,1,1,0.5,0,0,1,0.5",""
"","html-keyboard-response","101","105706","0.0-101.0","37FMASSAYDDN59110LQDFDLQCC8IBJ","A3VV07FCCSZ7JY","3FW4EL5A3LANKRP91N782LFHPY722Q","","null","<img src=""img/animal4.png"" style=""width:200px;border:14px solid red;"">","null","","","","","",""
"","image-keyboard-response","102","106412","0.0-102.0","37FMASSAYDDN59110LQDFDLQCC8IBJ","A3VV07FCCSZ7JY","3FW4EL5A3LANKRP91N782LFHPY722Q","","703","img/animal5.png","74","706","1","1","2","0.5,0,1,1,0.5,0,0,1,0.5",""
"","html-keyboard-response","103","106714","0.0-103.0","37FMASSAYDDN59110LQDFDLQCC8IBJ","A3VV07FCCSZ7JY","3FW4EL5A3LANKRP91N782LFHPY722Q","","null","<img src=""img/animal5.png"" style=""width:200px; border:14px solid green;"">","null","","","","","",""
"","image-keyboard-response","104","108183","0.0-104.0","37FMASSAYDDN59110LQDFDLQCC8IBJ","A3VV07FCCSZ7JY","3FW4EL5A3LANKRP91N782LFHPY722Q","","1468","img/animal5.png","74","1469","1","1","2","0.5,0,1,1,0.5,0,0,1,0.5",""
"","html-keyboard-response","105","108487","0.0-105.0","37FMASSAYDDN59110LQDFDLQCC8IBJ","A3VV07FCCSZ7JY","3FW4EL5A3LANKRP91N782LFHPY722Q","","null","<img src=""img/animal5.png"" style=""width:200px; border:14px solid green;"">","null","","","","","",""
"","image-keyboard-response","106","110751","0.0-106.0","37FMASSAYDDN59110LQDFDLQCC8IBJ","A3VV07FCCSZ7JY","3FW4EL5A3LANKRP91N782LFHPY722Q","","2261","img/animal5.png","74","2262","1","1","2","0.5,0,1,1,0.5,0,0,1,0.5",""
"","html-keyboard-response","107","111054","0.0-107.0","37FMASSAYDDN59110LQDFDLQCC8IBJ","A3VV07FCCSZ7JY","3FW4EL5A3LANKRP91N782LFHPY722Q","","null","<img src=""img/animal5.png"" style=""width:200px; border:14px solid green;"">","null","","","","","",""
"","image-keyboard-response","108","112254","0.0-108.0","37FMASSAYDDN59110LQDFDLQCC8IBJ","A3VV07FCCSZ7JY","3FW4EL5A3LANKRP91N782LFHPY722Q","","1199","img/animal1.png","74","1199","1","0","3","0.5,0,1,1,0.5,0,0,1,0.5",""
"","html-keyboard-response","109","112556","0.0-109.0","37FMASSAYDDN59110LQDFDLQCC8IBJ","A3VV07FCCSZ7JY","3FW4EL5A3LANKRP91N782LFHPY722Q","","null","<img src=""img/animal1.png"" style=""width:200px;border:14px solid red;"">","null","","","","","",""
"","image-keyboard-response","110","113045","0.0-110.0","37FMASSAYDDN59110LQDFDLQCC8IBJ","A3VV07FCCSZ7JY","3FW4EL5A3LANKRP91N782LFHPY722Q","","486","img/animal5.png","75","488","2","1","2","0.5,0,1,1,0.5,0,0,1,0.5",""
"","html-keyboard-response","111","113364","0.0-111.0","37FMASSAYDDN59110LQDFDLQCC8IBJ","A3VV07FCCSZ7JY","3FW4EL5A3LANKRP91N782LFHPY722Q","","null","<img src=""img/animal5.png"" style=""width:200px; border:14px solid green;"">","null","","","","","",""
"","image-keyboard-response","112","114422","0.0-112.0","37FMASSAYDDN59110LQDFDLQCC8IBJ","A3VV07FCCSZ7JY","3FW4EL5A3LANKRP91N782LFHPY722Q","","1055","img/animal1.png","75","1059","2","1","3","0.5,0,1,1,0.5,0,0,1,0.5",""
"","html-keyboard-response","113","114727","0.0-113.0","37FMASSAYDDN59110LQDFDLQCC8IBJ","A3VV07FCCSZ7JY","3FW4EL5A3LANKRP91N782LFHPY722Q","","null","<img src=""img/animal1.png"" style=""width:200px; border:14px solid green;"">","null","","","","","",""
"","image-keyboard-response","114","116228","0.0-114.0","37FMASSAYDDN59110LQDFDLQCC8IBJ","A3VV07FCCSZ7JY","3FW4EL5A3LANKRP91N782LFHPY722Q","","1499","img/animal1.png","75","1501","2","1","3","0.5,0,1,1,0.5,0,0,1,0.5",""
"","html-keyboard-response","115","116531","0.0-115.0","37FMASSAYDDN59110LQDFDLQCC8IBJ","A3VV07FCCSZ7JY","3FW4EL5A3LANKRP91N782LFHPY722Q","","null","<img src=""img/animal1.png"" style=""width:200px; border:14px solid green;"">","null","","","","","",""
"","image-keyboard-response","116","117757","0.0-116.0","37FMASSAYDDN59110LQDFDLQCC8IBJ","A3VV07FCCSZ7JY","3FW4EL5A3LANKRP91N782LFHPY722Q","","1225","img/animal1.png","75","1226","2","1","3","0.5,0,1,1,0.5,0,0,1,0.5",""
"","html-keyboard-response","117","118059","0.0-117.0","37FMASSAYDDN59110LQDFDLQCC8IBJ","A3VV07FCCSZ7JY","3FW4EL5A3LANKRP91N782LFHPY722Q","","null","<img src=""img/animal1.png"" style=""width:200px; border:14px solid green;"">","null","","","","","",""
"","image-keyboard-response","118","119691","0.0-118.0","37FMASSAYDDN59110LQDFDLQCC8IBJ","A3VV07FCCSZ7JY","3FW4EL5A3LANKRP91N782LFHPY722Q","","1631","img/animal4.png","75","1631","2","0","1","0.5,0,1,1,0.5,0,0,1,0.5",""
"","html-keyboard-response","119","119992","0.0-119.0","37FMASSAYDDN59110LQDFDLQCC8IBJ","A3VV07FCCSZ7JY","3FW4EL5A3LANKRP91N782LFHPY722Q","","null","<img src=""img/animal4.png"" style=""width:200px;border:14px solid red;"">","null","","","","","",""
"","image-keyboard-response","120","120507","0.0-120.0","37FMASSAYDDN59110LQDFDLQCC8IBJ","A3VV07FCCSZ7JY","3FW4EL5A3LANKRP91N782LFHPY722Q","","514","img/animal5.png","76","514","3","0","2","0.5,0,1,1,0.5,0,0,1,0.5",""
"","html-keyboard-response","121","120809","0.0-121.0","37FMASSAYDDN59110LQDFDLQCC8IBJ","A3VV07FCCSZ7JY","3FW4EL5A3LANKRP91N782LFHPY722Q","","null","<img src=""img/animal5.png"" style=""width:200px;border:14px solid red;"">","null","","","","","",""
"","image-keyboard-response","122","121877","0.0-122.0","37FMASSAYDDN59110LQDFDLQCC8IBJ","A3VV07FCCSZ7JY","3FW4EL5A3LANKRP91N782LFHPY722Q","","1058","img/animal5.png","74","1067","1","1","2","0.5,0,1,1,0.5,0,0,1,0.5",""
"","html-keyboard-response","123","122236","0.0-123.0","37FMASSAYDDN59110LQDFDLQCC8IBJ","A3VV07FCCSZ7JY","3FW4EL5A3LANKRP91N782LFHPY722Q","","null","<img src=""img/animal5.png"" style=""width:200px; border:14px solid green;"">","null","","","","","",""
"","image-keyboard-response","124","125444","0.0-124.0","37FMASSAYDDN59110LQDFDLQCC8IBJ","A3VV07FCCSZ7JY","3FW4EL5A3LANKRP91N782LFHPY722Q","","3206","img/animal5.png","74","3208","1","1","2","0.5,0,1,1,0.5,0,0,1,0.5",""
"","html-keyboard-response","125","125751","0.0-125.0","37FMASSAYDDN59110LQDFDLQCC8IBJ","A3VV07FCCSZ7JY","3FW4EL5A3LANKRP91N782LFHPY722Q","","null","<img src=""img/animal5.png"" style=""width:200px; border:14px solid green;"">","null","","","","","",""
"","image-keyboard-response","126","126978","0.0-126.0","37FMASSAYDDN59110LQDFDLQCC8IBJ","A3VV07FCCSZ7JY","3FW4EL5A3LANKRP91N782LFHPY722Q","","1226","img/animal5.png","75","1227","2","1","2","0.5,0,1,1,0.5,0,0,1,0.5",""
"","html-keyboard-response","127","127282","0.0-127.0","37FMASSAYDDN59110LQDFDLQCC8IBJ","A3VV07FCCSZ7JY","3FW4EL5A3LANKRP91N782LFHPY722Q","","null","<img src=""img/animal5.png"" style=""width:200px; border:14px solid green;"">","null","","","","","",""
"","image-keyboard-response","128","128157","0.0-128.0","37FMASSAYDDN59110LQDFDLQCC8IBJ","A3VV07FCCSZ7JY","3FW4EL5A3LANKRP91N782LFHPY722Q","","874","img/animal1.png","75","875","2","1","3","0.5,0,1,1,0.5,0,0,1,0.5",""
"","html-keyboard-response","129","128460","0.0-129.0","37FMASSAYDDN59110LQDFDLQCC8IBJ","A3VV07FCCSZ7JY","3FW4EL5A3LANKRP91N782LFHPY722Q","","null","<img src=""img/animal1.png"" style=""width:200px; border:14px solid green;"">","null","","","","","",""
"","image-keyboard-response","130","129176","0.0-130.0","37FMASSAYDDN59110LQDFDLQCC8IBJ","A3VV07FCCSZ7JY","3FW4EL5A3LANKRP91N782LFHPY722Q","","715","img/animal5.png","75","717","2","1","2","0.5,0,1,1,0.5,0,0,1,0.5",""
"","html-keyboard-response","131","129483","0.0-131.0","37FMASSAYDDN59110LQDFDLQCC8IBJ","A3VV07FCCSZ7JY","3FW4EL5A3LANKRP91N782LFHPY722Q","","null","<img src=""img/animal5.png"" style=""width:200px; border:14px solid green;"">","null","","","","","",""
"","image-keyboard-response","132","130421","0.0-132.0","37FMASSAYDDN59110LQDFDLQCC8IBJ","A3VV07FCCSZ7JY","3FW4EL5A3LANKRP91N782LFHPY722Q","","932","img/animal4.png","75","937","2","0","1","0.5,0,1,1,0.5,0,0,1,0.5",""
"","html-keyboard-response","133","130726","0.0-133.0","37FMASSAYDDN59110LQDFDLQCC8IBJ","A3VV07FCCSZ7JY","3FW4EL5A3LANKRP91N782LFHPY722Q","","null","<img src=""img/animal4.png"" style=""width:200px;border:14px solid red;"">","null","","","","","",""
"","image-keyboard-response","134","131558","0.0-134.0","37FMASSAYDDN59110LQDFDLQCC8IBJ","A3VV07FCCSZ7JY","3FW4EL5A3LANKRP91N782LFHPY722Q","","823","img/animal1.png","74","825","1","0","3","0.5,0,1,1,0.5,0,0,1,0.5",""
"","html-keyboard-response","135","131861","0.0-135.0","37FMASSAYDDN59110LQDFDLQCC8IBJ","A3VV07FCCSZ7JY","3FW4EL5A3LANKRP91N782LFHPY722Q","","null","<img src=""img/animal1.png"" style=""width:200px;border:14px solid red;"">","null","","","","","",""
"","image-keyboard-response","136","132682","0.0-136.0","37FMASSAYDDN59110LQDFDLQCC8IBJ","A3VV07FCCSZ7JY","3FW4EL5A3LANKRP91N782LFHPY722Q","","817","img/animal4.png","76","821","3","1","1","0.5,0,1,1,0.5,0,0,1,0.5",""
"","html-keyboard-response","137","132984","0.0-137.0","37FMASSAYDDN59110LQDFDLQCC8IBJ","A3VV07FCCSZ7JY","3FW4EL5A3LANKRP91N782LFHPY722Q","","null","<img src=""img/animal4.png"" style=""width:200px; border:14px solid green;"">","null","","","","","",""
"","image-keyboard-response","138","133105","0.0-138.0","37FMASSAYDDN59110LQDFDLQCC8IBJ","A3VV07FCCSZ7JY","3FW4EL5A3LANKRP91N782LFHPY722Q","","119","img/animal4.png","76","121","3","1","1","0.5,0,1,1,0.5,0,0,1,0.5",""
"","html-keyboard-response","139","133407","0.0-139.0","37FMASSAYDDN59110LQDFDLQCC8IBJ","A3VV07FCCSZ7JY","3FW4EL5A3LANKRP91N782LFHPY722Q","","null","<img src=""img/animal4.png"" style=""width:200px; border:14px solid green;"">","null","","","","","",""
"","image-keyboard-response","140","133878","0.0-140.0","37FMASSAYDDN59110LQDFDLQCC8IBJ","A3VV07FCCSZ7JY","3FW4EL5A3LANKRP91N782LFHPY722Q","","456","img/animal5.png","76","470","3","0","2","0.5,0,1,1,0.5,0,0,1,0.5",""
"","html-keyboard-response","141","134183","0.0-141.0","37FMASSAYDDN59110LQDFDLQCC8IBJ","A3VV07FCCSZ7JY","3FW4EL5A3LANKRP91N782LFHPY722Q","","null","<img src=""img/animal5.png"" style=""width:200px;border:14px solid red;"">","null","","","","","",""
"","image-keyboard-response","142","135138","0.0-142.0","37FMASSAYDDN59110LQDFDLQCC8IBJ","A3VV07FCCSZ7JY","3FW4EL5A3LANKRP91N782LFHPY722Q","","954","img/animal4.png","75","955","2","0","1","0.5,0,1,1,0.5,0,0,1,0.5",""
"","html-keyboard-response","143","135471","0.0-143.0","37FMASSAYDDN59110LQDFDLQCC8IBJ","A3VV07FCCSZ7JY","3FW4EL5A3LANKRP91N782LFHPY722Q","","null","<img src=""img/animal4.png"" style=""width:200px;border:14px solid red;"">","null","","","","","",""
"","image-keyboard-response","144","136099","0.0-144.0","37FMASSAYDDN59110LQDFDLQCC8IBJ","A3VV07FCCSZ7JY","3FW4EL5A3LANKRP91N782LFHPY722Q","","626","img/animal1.png","74","628","1","0","3","0.5,0,1,1,0.5,0,0,1,0.5",""
"","html-keyboard-response","145","136401","0.0-145.0","37FMASSAYDDN59110LQDFDLQCC8IBJ","A3VV07FCCSZ7JY","3FW4EL5A3LANKRP91N782LFHPY722Q","","null","<img src=""img/animal1.png"" style=""width:200px;border:14px solid red;"">","null","","","","","",""
"","image-keyboard-response","146","137275","0.0-146.0","37FMASSAYDDN59110LQDFDLQCC8IBJ","A3VV07FCCSZ7JY","3FW4EL5A3LANKRP91N782LFHPY722Q","","872","img/animal4.png","75","874","2","0","1","0.5,0,1,1,0.5,0,0,1,0.5",""
"","html-keyboard-response","147","137578","0.0-147.0","37FMASSAYDDN59110LQDFDLQCC8IBJ","A3VV07FCCSZ7JY","3FW4EL5A3LANKRP91N782LFHPY722Q","","null","<img src=""img/animal4.png"" style=""width:200px;border:14px solid red;"">","null","","","","","",""
"","image-keyboard-response","148","138301","0.0-148.0","37FMASSAYDDN59110LQDFDLQCC8IBJ","A3VV07FCCSZ7JY","3FW4EL5A3LANKRP91N782LFHPY722Q","","720","img/animal4.png","75","723","2","0","1","0.5,0,1,1,0.5,0,0,1,0.5",""
"","html-keyboard-response","149","138603","0.0-149.0","37FMASSAYDDN59110LQDFDLQCC8IBJ","A3VV07FCCSZ7JY","3FW4EL5A3LANKRP91N782LFHPY722Q","","null","<img src=""img/animal4.png"" style=""width:200px;border:14px solid red;"">","null","","","","","",""
"","image-keyboard-response","150","139978","0.0-150.0","37FMASSAYDDN59110LQDFDLQCC8IBJ","A3VV07FCCSZ7JY","3FW4EL5A3LANKRP91N782LFHPY722Q","","1374","img/animal5.png","76","1375","3","0","2","0.5,0,1,1,0.5,0,0,1,0.5",""
"","html-keyboard-response","151","140281","0.0-151.0","37FMASSAYDDN59110LQDFDLQCC8IBJ","A3VV07FCCSZ7JY","3FW4EL5A3LANKRP91N782LFHPY722Q","","null","<img src=""img/animal5.png"" style=""width:200px;border:14px solid red;"">","null","","","","","",""
"","image-keyboard-response","152","140972","0.0-152.0","37FMASSAYDDN59110LQDFDLQCC8IBJ","A3VV07FCCSZ7JY","3FW4EL5A3LANKRP91N782LFHPY722Q","","688","img/animal1.png","75","691","2","1","3","0.5,0,1,1,0.5,0,0,1,0.5",""
"","html-keyboard-response","153","141274","0.0-153.0","37FMASSAYDDN59110LQDFDLQCC8IBJ","A3VV07FCCSZ7JY","3FW4EL5A3LANKRP91N782LFHPY722Q","","null","<img src=""img/animal1.png"" style=""width:200px; border:14px solid green;"">","null","","","","","",""
"","image-keyboard-response","154","143422","0.0-154.0","37FMASSAYDDN59110LQDFDLQCC8IBJ","A3VV07FCCSZ7JY","3FW4EL5A3LANKRP91N782LFHPY722Q","","2145","img/animal4.png","75","2147","2","0","1","0.5,0,1,1,0.5,0,0,1,0.5",""
"","html-keyboard-response","155","143779","0.0-155.0","37FMASSAYDDN59110LQDFDLQCC8IBJ","A3VV07FCCSZ7JY","3FW4EL5A3LANKRP91N782LFHPY722Q","","null","<img src=""img/animal4.png"" style=""width:200px;border:14px solid red;"">","null","","","","","",""
"","image-keyboard-response","156","145078","0.0-156.0","37FMASSAYDDN59110LQDFDLQCC8IBJ","A3VV07FCCSZ7JY","3FW4EL5A3LANKRP91N782LFHPY722Q","","1280","img/animal1.png","74","1299","1","0","3","0.5,0,1,1,0.5,0,0,1,0.5",""
"","html-keyboard-response","157","145382","0.0-157.0","37FMASSAYDDN59110LQDFDLQCC8IBJ","A3VV07FCCSZ7JY","3FW4EL5A3LANKRP91N782LFHPY722Q","","null","<img src=""img/animal1.png"" style=""width:200px;border:14px solid red;"">","null","","","","","",""
"","image-keyboard-response","158","146051","0.0-158.0","37FMASSAYDDN59110LQDFDLQCC8IBJ","A3VV07FCCSZ7JY","3FW4EL5A3LANKRP91N782LFHPY722Q","","667","img/animal5.png","75","669","2","0","2","0.5,0,1,1,0.5,0,0,1,0.5",""
"","html-keyboard-response","159","146356","0.0-159.0","37FMASSAYDDN59110LQDFDLQCC8IBJ","A3VV07FCCSZ7JY","3FW4EL5A3LANKRP91N782LFHPY722Q","","null","<img src=""img/animal5.png"" style=""width:200px;border:14px solid red;"">","null","","","","","",""
"","image-keyboard-response","160","146787","0.0-160.0","37FMASSAYDDN59110LQDFDLQCC8IBJ","A3VV07FCCSZ7JY","3FW4EL5A3LANKRP91N782LFHPY722Q","","430","img/animal5.png","76","431","3","0","2","0.5,0,1,1,0.5,0,0,1,0.5",""
"","html-keyboard-response","161","147113","0.0-161.0","37FMASSAYDDN59110LQDFDLQCC8IBJ","A3VV07FCCSZ7JY","3FW4EL5A3LANKRP91N782LFHPY722Q","","null","<img src=""img/animal5.png"" style=""width:200px;border:14px solid red;"">","null","","","","","",""
"","image-keyboard-response","162","147895","0.0-162.0","37FMASSAYDDN59110LQDFDLQCC8IBJ","A3VV07FCCSZ7JY","3FW4EL5A3LANKRP91N782LFHPY722Q","","781","img/animal1.png","76","783","3","1","3","0.5,0,1,1,0.5,0,0,1,0.5",""
"","html-keyboard-response","163","148198","0.0-163.0","37FMASSAYDDN59110LQDFDLQCC8IBJ","A3VV07FCCSZ7JY","3FW4EL5A3LANKRP91N782LFHPY722Q","","null","<img src=""img/animal1.png"" style=""width:200px; border:14px solid green;"">","null","","","","","",""
"","image-keyboard-response","164","148912","0.0-164.0","37FMASSAYDDN59110LQDFDLQCC8IBJ","A3VV07FCCSZ7JY","3FW4EL5A3LANKRP91N782LFHPY722Q","","712","img/animal5.png","76","714","3","0","2","0.5,0,1,1,0.5,0,0,1,0.5",""
"","html-keyboard-response","165","149216","0.0-165.0","37FMASSAYDDN59110LQDFDLQCC8IBJ","A3VV07FCCSZ7JY","3FW4EL5A3LANKRP91N782LFHPY722Q","","null","<img src=""img/animal5.png"" style=""width:200px;border:14px solid red;"">","null","","","","","",""
"","image-keyboard-response","166","149785","0.0-166.0","37FMASSAYDDN59110LQDFDLQCC8IBJ","A3VV07FCCSZ7JY","3FW4EL5A3LANKRP91N782LFHPY722Q","","566","img/animal5.png","75","568","2","0","2","0.5,0,1,1,0.5,0,0,1,0.5",""
"","html-keyboard-response","167","150091","0.0-167.0","37FMASSAYDDN59110LQDFDLQCC8IBJ","A3VV07FCCSZ7JY","3FW4EL5A3LANKRP91N782LFHPY722Q","","null","<img src=""img/animal5.png"" style=""width:200px;border:14px solid red;"">","null","","","","","",""
"","image-keyboard-response","168","150766","0.0-168.0","37FMASSAYDDN59110LQDFDLQCC8IBJ","A3VV07FCCSZ7JY","3FW4EL5A3LANKRP91N782LFHPY722Q","","674","img/animal5.png","75","676","2","1","2","0.5,0,1,1,0.5,0,0,1,0.5",""
"","html-keyboard-response","169","151071","0.0-169.0","37FMASSAYDDN59110LQDFDLQCC8IBJ","A3VV07FCCSZ7JY","3FW4EL5A3LANKRP91N782LFHPY722Q","","null","<img src=""img/animal5.png"" style=""width:200px; border:14px solid green;"">","null","","","","","",""
"","image-keyboard-response","170","152141","0.0-170.0","37FMASSAYDDN59110LQDFDLQCC8IBJ","A3VV07FCCSZ7JY","3FW4EL5A3LANKRP91N782LFHPY722Q","","1068","img/animal4.png","74","1070","1","0","1","0.5,0,1,1,0.5,0,0,1,0.5",""
"","html-keyboard-response","171","152443","0.0-171.0","37FMASSAYDDN59110LQDFDLQCC8IBJ","A3VV07FCCSZ7JY","3FW4EL5A3LANKRP91N782LFHPY722Q","","null","<img src=""img/animal4.png"" style=""width:200px;border:14px solid red;"">","null","","","","","",""
"","image-keyboard-response","172","152961","0.0-172.0","37FMASSAYDDN59110LQDFDLQCC8IBJ","A3VV07FCCSZ7JY","3FW4EL5A3LANKRP91N782LFHPY722Q","","516","img/animal1.png","75","517","2","1","3","0.5,0,1,1,0.5,0,0,1,0.5",""
"","html-keyboard-response","173","153263","0.0-173.0","37FMASSAYDDN59110LQDFDLQCC8IBJ","A3VV07FCCSZ7JY","3FW4EL5A3LANKRP91N782LFHPY722Q","","null","<img src=""img/animal1.png"" style=""width:200px; border:14px solid green;"">","null","","","","","",""
"","image-keyboard-response","174","154128","0.0-174.0","37FMASSAYDDN59110LQDFDLQCC8IBJ","A3VV07FCCSZ7JY","3FW4EL5A3LANKRP91N782LFHPY722Q","","864","img/animal5.png","75","864","2","1","2","0.5,0,1,1,0.5,0,0,1,0.5",""
"","html-keyboard-response","175","154432","0.0-175.0","37FMASSAYDDN59110LQDFDLQCC8IBJ","A3VV07FCCSZ7JY","3FW4EL5A3LANKRP91N782LFHPY722Q","","null","<img src=""img/animal5.png"" style=""width:200px; border:14px solid green;"">","null","","","","","",""
"","image-keyboard-response","176","155231","0.0-176.0","37FMASSAYDDN59110LQDFDLQCC8IBJ","A3VV07FCCSZ7JY","3FW4EL5A3LANKRP91N782LFHPY722Q","","797","img/animal4.png","75","800","2","0","1","0.5,0,1,1,0.5,0,0,1,0.5",""
"","html-keyboard-response","177","155568","0.0-177.0","37FMASSAYDDN59110LQDFDLQCC8IBJ","A3VV07FCCSZ7JY","3FW4EL5A3LANKRP91N782LFHPY722Q","","null","<img src=""img/animal4.png"" style=""width:200px;border:14px solid red;"">","null","","","","","",""
"","image-keyboard-response","178","156105","0.0-178.0","37FMASSAYDDN59110LQDFDLQCC8IBJ","A3VV07FCCSZ7JY","3FW4EL5A3LANKRP91N782LFHPY722Q","","536","img/animal4.png","74","536","1","0","1","0.5,0,1,1,0.5,0,0,1,0.5",""
"","html-keyboard-response","179","156408","0.0-179.0","37FMASSAYDDN59110LQDFDLQCC8IBJ","A3VV07FCCSZ7JY","3FW4EL5A3LANKRP91N782LFHPY722Q","","null","<img src=""img/animal4.png"" style=""width:200px;border:14px solid red;"">","null","","","","","",""
"","image-keyboard-response","180","157243","0.0-180.0","37FMASSAYDDN59110LQDFDLQCC8IBJ","A3VV07FCCSZ7JY","3FW4EL5A3LANKRP91N782LFHPY722Q","","832","img/animal1.png","76","834","3","0","3","0.5,0,1,1,0.5,0,0,1,0.5",""
"","html-keyboard-response","181","157549","0.0-181.0","37FMASSAYDDN59110LQDFDLQCC8IBJ","A3VV07FCCSZ7JY","3FW4EL5A3LANKRP91N782LFHPY722Q","","null","<img src=""img/animal1.png"" style=""width:200px;border:14px solid red;"">","null","","","","","",""
"","html-keyboard-response","182","160503","0.0-182.0","37FMASSAYDDN59110LQDFDLQCC8IBJ","A3VV07FCCSZ7JY","3FW4EL5A3LANKRP91N782LFHPY722Q","","","","","","","","","",""
"","image-keyboard-response","183","163465","0.0-183.0","37FMASSAYDDN59110LQDFDLQCC8IBJ","A3VV07FCCSZ7JY","3FW4EL5A3LANKRP91N782LFHPY722Q","","2958","img/animal6.png","76","2962","3","0","2","0.7,0,0.8,0.7,0.8,0,0.7,0.8,0",""
"","html-keyboard-response","184","163780","0.0-184.0","37FMASSAYDDN59110LQDFDLQCC8IBJ","A3VV07FCCSZ7JY","3FW4EL5A3LANKRP91N782LFHPY722Q","","null","<img src=""img/animal6.png"" style=""width:200px;border:14px solid red;"">","null","","","","","",""
"","image-keyboard-response","185","164444","0.0-185.0","37FMASSAYDDN59110LQDFDLQCC8IBJ","A3VV07FCCSZ7JY","3FW4EL5A3LANKRP91N782LFHPY722Q","","663","img/animal3.png","74","665","1","1","3","0.7,0,0.8,0.7,0.8,0,0.7,0.8,0",""
"","html-keyboard-response","186","164747","0.0-186.0","37FMASSAYDDN59110LQDFDLQCC8IBJ","A3VV07FCCSZ7JY","3FW4EL5A3LANKRP91N782LFHPY722Q","","null","<img src=""img/animal3.png"" style=""width:200px; border:14px solid green;"">","null","","","","","",""
"","image-keyboard-response","187","165419","0.0-187.0","37FMASSAYDDN59110LQDFDLQCC8IBJ","A3VV07FCCSZ7JY","3FW4EL5A3LANKRP91N782LFHPY722Q","","670","img/animal6.png","74","672","1","1","2","0.7,0,0.8,0.7,0.8,0,0.7,0.8,0",""
"","html-keyboard-response","188","165722","0.0-188.0","37FMASSAYDDN59110LQDFDLQCC8IBJ","A3VV07FCCSZ7JY","3FW4EL5A3LANKRP91N782LFHPY722Q","","null","<img src=""img/animal6.png"" style=""width:200px; border:14px solid green;"">","null","","","","","",""
"","image-keyboard-response","189","166251","0.0-189.0","37FMASSAYDDN59110LQDFDLQCC8IBJ","A3VV07FCCSZ7JY","3FW4EL5A3LANKRP91N782LFHPY722Q","","529","img/animal6.png","74","529","1","1","2","0.7,0,0.8,0.7,0.8,0,0.7,0.8,0",""
"","html-keyboard-response","190","166553","0.0-190.0","37FMASSAYDDN59110LQDFDLQCC8IBJ","A3VV07FCCSZ7JY","3FW4EL5A3LANKRP91N782LFHPY722Q","","null","<img src=""img/animal6.png"" style=""width:200px; border:14px solid green;"">","null","","","","","",""
"","image-keyboard-response","191","167550","0.0-191.0","37FMASSAYDDN59110LQDFDLQCC8IBJ","A3VV07FCCSZ7JY","3FW4EL5A3LANKRP91N782LFHPY722Q","","994","img/animal3.png","74","996","1","0","3","0.7,0,0.8,0.7,0.8,0,0.7,0.8,0",""
"","html-keyboard-response","192","167852","0.0-192.0","37FMASSAYDDN59110LQDFDLQCC8IBJ","A3VV07FCCSZ7JY","3FW4EL5A3LANKRP91N782LFHPY722Q","","null","<img src=""img/animal3.png"" style=""width:200px;border:14px solid red;"">","null","","","","","",""
"","image-keyboard-response","193","168450","0.0-193.0","37FMASSAYDDN59110LQDFDLQCC8IBJ","A3VV07FCCSZ7JY","3FW4EL5A3LANKRP91N782LFHPY722Q","","596","img/animal2.png","75","597","2","0","1","0.7,0,0.8,0.7,0.8,0,0.7,0.8,0",""
"","html-keyboard-response","194","168754","0.0-194.0","37FMASSAYDDN59110LQDFDLQCC8IBJ","A3VV07FCCSZ7JY","3FW4EL5A3LANKRP91N782LFHPY722Q","","null","<img src=""img/animal2.png"" style=""width:200px;border:14px solid red;"">","null","","","","","",""
"","image-keyboard-response","195","169467","0.0-195.0","37FMASSAYDDN59110LQDFDLQCC8IBJ","A3VV07FCCSZ7JY","3FW4EL5A3LANKRP91N782LFHPY722Q","","710","img/animal6.png","75","712","2","1","2","0.7,0,0.8,0.7,0.8,0,0.7,0.8,0",""
"","html-keyboard-response","196","169773","0.0-196.0","37FMASSAYDDN59110LQDFDLQCC8IBJ","A3VV07FCCSZ7JY","3FW4EL5A3LANKRP91N782LFHPY722Q","","null","<img src=""img/animal6.png"" style=""width:200px; border:14px solid green;"">","null","","","","","",""
"","image-keyboard-response","197","170482","0.0-197.0","37FMASSAYDDN59110LQDFDLQCC8IBJ","A3VV07FCCSZ7JY","3FW4EL5A3LANKRP91N782LFHPY722Q","","708","img/animal2.png","75","709","2","0","1","0.7,0,0.8,0.7,0.8,0,0.7,0.8,0",""
"","html-keyboard-response","198","170786","0.0-198.0","37FMASSAYDDN59110LQDFDLQCC8IBJ","A3VV07FCCSZ7JY","3FW4EL5A3LANKRP91N782LFHPY722Q","","null","<img src=""img/animal2.png"" style=""width:200px;border:14px solid red;"">","null","","","","","",""
"","image-keyboard-response","199","171323","0.0-199.0","37FMASSAYDDN59110LQDFDLQCC8IBJ","A3VV07FCCSZ7JY","3FW4EL5A3LANKRP91N782LFHPY722Q","","534","img/animal2.png","74","536","1","1","1","0.7,0,0.8,0.7,0.8,0,0.7,0.8,0",""
"","html-keyboard-response","200","171625","0.0-200.0","37FMASSAYDDN59110LQDFDLQCC8IBJ","A3VV07FCCSZ7JY","3FW4EL5A3LANKRP91N782LFHPY722Q","","null","<img src=""img/animal2.png"" style=""width:200px; border:14px solid green;"">","null","","","","","",""
"","image-keyboard-response","201","172368","0.0-201.0","37FMASSAYDDN59110LQDFDLQCC8IBJ","A3VV07FCCSZ7JY","3FW4EL5A3LANKRP91N782LFHPY722Q","","735","img/animal6.png","74","742","1","1","2","0.7,0,0.8,0.7,0.8,0,0.7,0.8,0",""
"","html-keyboard-response","202","172670","0.0-202.0","37FMASSAYDDN59110LQDFDLQCC8IBJ","A3VV07FCCSZ7JY","3FW4EL5A3LANKRP91N782LFHPY722Q","","null","<img src=""img/animal6.png"" style=""width:200px; border:14px solid green;"">","null","","","","","",""
"","image-keyboard-response","203","173369","0.0-203.0","37FMASSAYDDN59110LQDFDLQCC8IBJ","A3VV07FCCSZ7JY","3FW4EL5A3LANKRP91N782LFHPY722Q","","692","img/animal6.png","74","699","1","1","2","0.7,0,0.8,0.7,0.8,0,0.7,0.8,0",""
"","html-keyboard-response","204","173671","0.0-204.0","37FMASSAYDDN59110LQDFDLQCC8IBJ","A3VV07FCCSZ7JY","3FW4EL5A3LANKRP91N782LFHPY722Q","","null","<img src=""img/animal6.png"" style=""width:200px; border:14px solid green;"">","null","","","","","",""
"","image-keyboard-response","205","174416","0.0-205.0","37FMASSAYDDN59110LQDFDLQCC8IBJ","A3VV07FCCSZ7JY","3FW4EL5A3LANKRP91N782LFHPY722Q","","743","img/animal2.png","74","745","1","1","1","0.7,0,0.8,0.7,0.8,0,0.7,0.8,0",""
"","html-keyboard-response","206","174719","0.0-206.0","37FMASSAYDDN59110LQDFDLQCC8IBJ","A3VV07FCCSZ7JY","3FW4EL5A3LANKRP91N782LFHPY722Q","","null","<img src=""img/animal2.png"" style=""width:200px; border:14px solid green;"">","null","","","","","",""
"","image-keyboard-response","207","175448","0.0-207.0","37FMASSAYDDN59110LQDFDLQCC8IBJ","A3VV07FCCSZ7JY","3FW4EL5A3LANKRP91N782LFHPY722Q","","724","img/animal2.png","74","727","1","1","1","0.7,0,0.8,0.7,0.8,0,0.7,0.8,0",""
"","html-keyboard-response","208","175762","0.0-208.0","37FMASSAYDDN59110LQDFDLQCC8IBJ","A3VV07FCCSZ7JY","3FW4EL5A3LANKRP91N782LFHPY722Q","","null","<img src=""img/animal2.png"" style=""width:200px; border:14px solid green;"">","null","","","","","",""
"","image-keyboard-response","209","176541","0.0-209.0","37FMASSAYDDN59110LQDFDLQCC8IBJ","A3VV07FCCSZ7JY","3FW4EL5A3LANKRP91N782LFHPY722Q","","778","img/animal6.png","74","778","1","1","2","0.7,0,0.8,0.7,0.8,0,0.7,0.8,0",""
"","html-keyboard-response","210","176843","0.0-210.0","37FMASSAYDDN59110LQDFDLQCC8IBJ","A3VV07FCCSZ7JY","3FW4EL5A3LANKRP91N782LFHPY722Q","","null","<img src=""img/animal6.png"" style=""width:200px; border:14px solid green;"">","null","","","","","",""
"","image-keyboard-response","211","177583","0.0-211.0","37FMASSAYDDN59110LQDFDLQCC8IBJ","A3VV07FCCSZ7JY","3FW4EL5A3LANKRP91N782LFHPY722Q","","739","img/animal3.png","74","740","1","1","3","0.7,0,0.8,0.7,0.8,0,0.7,0.8,0",""
"","html-keyboard-response","212","177913","0.0-212.0","37FMASSAYDDN59110LQDFDLQCC8IBJ","A3VV07FCCSZ7JY","3FW4EL5A3LANKRP91N782LFHPY722Q","","null","<img src=""img/animal3.png"" style=""width:200px; border:14px solid green;"">","null","","","","","",""
"","image-keyboard-response","213","178380","0.0-213.0","37FMASSAYDDN59110LQDFDLQCC8IBJ","A3VV07FCCSZ7JY","3FW4EL5A3LANKRP91N782LFHPY722Q","","466","img/animal2.png","74","467","1","0","1","0.7,0,0.8,0.7,0.8,0,0.7,0.8,0",""
"","html-keyboard-response","214","178681","0.0-214.0","37FMASSAYDDN59110LQDFDLQCC8IBJ","A3VV07FCCSZ7JY","3FW4EL5A3LANKRP91N782LFHPY722Q","","null","<img src=""img/animal2.png"" style=""width:200px;border:14px solid red;"">","null","","","","","",""
"","image-keyboard-response","215","179364","0.0-215.0","37FMASSAYDDN59110LQDFDLQCC8IBJ","A3VV07FCCSZ7JY","3FW4EL5A3LANKRP91N782LFHPY722Q","","681","img/animal6.png","75","683","2","1","2","0.7,0,0.8,0.7,0.8,0,0.7,0.8,0",""
"","html-keyboard-response","216","179666","0.0-216.0","37FMASSAYDDN59110LQDFDLQCC8IBJ","A3VV07FCCSZ7JY","3FW4EL5A3LANKRP91N782LFHPY722Q","","null","<img src=""img/animal6.png"" style=""width:200px; border:14px solid green;"">","null","","","","","",""
"","image-keyboard-response","217","180219","0.0-217.0","37FMASSAYDDN59110LQDFDLQCC8IBJ","A3VV07FCCSZ7JY","3FW4EL5A3LANKRP91N782LFHPY722Q","","550","img/animal2.png","75","553","2","0","1","0.7,0,0.8,0.7,0.8,0,0.7,0.8,0",""
"","html-keyboard-response","218","180624","0.0-218.0","37FMASSAYDDN59110LQDFDLQCC8IBJ","A3VV07FCCSZ7JY","3FW4EL5A3LANKRP91N782LFHPY722Q","","null","<img src=""img/animal2.png"" style=""width:200px;border:14px solid red;"">","null","","","","","",""
"","image-keyboard-response","219","180909","0.0-219.0","37FMASSAYDDN59110LQDFDLQCC8IBJ","A3VV07FCCSZ7JY","3FW4EL5A3LANKRP91N782LFHPY722Q","","271","img/animal3.png","74","285","1","1","3","0.7,0,0.8,0.7,0.8,0,0.7,0.8,0",""
"","html-keyboard-response","220","181210","0.0-220.0","37FMASSAYDDN59110LQDFDLQCC8IBJ","A3VV07FCCSZ7JY","3FW4EL5A3LANKRP91N782LFHPY722Q","","null","<img src=""img/animal3.png"" style=""width:200px; border:14px solid green;"">","null","","","","","",""
"","image-keyboard-response","221","181979","0.0-221.0","37FMASSAYDDN59110LQDFDLQCC8IBJ","A3VV07FCCSZ7JY","3FW4EL5A3LANKRP91N782LFHPY722Q","","764","img/animal2.png","74","767","1","0","1","0.7,0,0.8,0.7,0.8,0,0.7,0.8,0",""
"","html-keyboard-response","222","182284","0.0-222.0","37FMASSAYDDN59110LQDFDLQCC8IBJ","A3VV07FCCSZ7JY","3FW4EL5A3LANKRP91N782LFHPY722Q","","null","<img src=""img/animal2.png"" style=""width:200px;border:14px solid red;"">","null","","","","","",""
"","image-keyboard-response","223","182718","0.0-223.0","37FMASSAYDDN59110LQDFDLQCC8IBJ","A3VV07FCCSZ7JY","3FW4EL5A3LANKRP91N782LFHPY722Q","","431","img/animal2.png","74","433","1","1","1","0.7,0,0.8,0.7,0.8,0,0.7,0.8,0",""
"","html-keyboard-response","224","183019","0.0-224.0","37FMASSAYDDN59110LQDFDLQCC8IBJ","A3VV07FCCSZ7JY","3FW4EL5A3LANKRP91N782LFHPY722Q","","null","<img src=""img/animal2.png"" style=""width:200px; border:14px solid green;"">","null","","","","","",""
"","image-keyboard-response","225","183548","0.0-225.0","37FMASSAYDDN59110LQDFDLQCC8IBJ","A3VV07FCCSZ7JY","3FW4EL5A3LANKRP91N782LFHPY722Q","","527","img/animal3.png","74","528","1","1","3","0.7,0,0.8,0.7,0.8,0,0.7,0.8,0",""
"","html-keyboard-response","226","183851","0.0-226.0","37FMASSAYDDN59110LQDFDLQCC8IBJ","A3VV07FCCSZ7JY","3FW4EL5A3LANKRP91N782LFHPY722Q","","null","<img src=""img/animal3.png"" style=""width:200px; border:14px solid green;"">","null","","","","","",""
"","image-keyboard-response","227","184319","0.0-227.0","37FMASSAYDDN59110LQDFDLQCC8IBJ","A3VV07FCCSZ7JY","3FW4EL5A3LANKRP91N782LFHPY722Q","","465","img/animal6.png","74","468","1","0","2","0.7,0,0.8,0.7,0.8,0,0.7,0.8,0",""
"","html-keyboard-response","228","184624","0.0-228.0","37FMASSAYDDN59110LQDFDLQCC8IBJ","A3VV07FCCSZ7JY","3FW4EL5A3LANKRP91N782LFHPY722Q","","null","<img src=""img/animal6.png"" style=""width:200px;border:14px solid red;"">","null","","","","","",""
"","image-keyboard-response","229","184929","0.0-229.0","37FMASSAYDDN59110LQDFDLQCC8IBJ","A3VV07FCCSZ7JY","3FW4EL5A3LANKRP91N782LFHPY722Q","","294","img/animal3.png","74","300","1","1","3","0.7,0,0.8,0.7,0.8,0,0.7,0.8,0",""
"","html-keyboard-response","230","185231","0.0-230.0","37FMASSAYDDN59110LQDFDLQCC8IBJ","A3VV07FCCSZ7JY","3FW4EL5A3LANKRP91N782LFHPY722Q","","null","<img src=""img/animal3.png"" style=""width:200px; border:14px solid green;"">","null","","","","","",""
"","image-keyboard-response","231","185807","0.0-231.0","37FMASSAYDDN59110LQDFDLQCC8IBJ","A3VV07FCCSZ7JY","3FW4EL5A3LANKRP91N782LFHPY722Q","","571","img/animal3.png","74","572","1","1","3","0.7,0,0.8,0.7,0.8,0,0.7,0.8,0",""
"","html-keyboard-response","232","186109","0.0-232.0","37FMASSAYDDN59110LQDFDLQCC8IBJ","A3VV07FCCSZ7JY","3FW4EL5A3LANKRP91N782LFHPY722Q","","null","<img src=""img/animal3.png"" style=""width:200px; border:14px solid green;"">","null","","","","","",""
"","image-keyboard-response","233","186494","0.0-233.0","37FMASSAYDDN59110LQDFDLQCC8IBJ","A3VV07FCCSZ7JY","3FW4EL5A3LANKRP91N782LFHPY722Q","","374","img/animal2.png","75","384","2","0","1","0.7,0,0.8,0.7,0.8,0,0.7,0.8,0",""
"","html-keyboard-response","234","186853","0.0-234.0","37FMASSAYDDN59110LQDFDLQCC8IBJ","A3VV07FCCSZ7JY","3FW4EL5A3LANKRP91N782LFHPY722Q","","null","<img src=""img/animal2.png"" style=""width:200px;border:14px solid red;"">","null","","","","","",""
"","image-keyboard-response","235","188183","0.0-235.0","37FMASSAYDDN59110LQDFDLQCC8IBJ","A3VV07FCCSZ7JY","3FW4EL5A3LANKRP91N782LFHPY722Q","","1328","img/animal6.png","76","1330","3","0","2","0.7,0,0.8,0.7,0.8,0,0.7,0.8,0",""
"","html-keyboard-response","236","188494","0.0-236.0","37FMASSAYDDN59110LQDFDLQCC8IBJ","A3VV07FCCSZ7JY","3FW4EL5A3LANKRP91N782LFHPY722Q","","null","<img src=""img/animal6.png"" style=""width:200px;border:14px solid red;"">","null","","","","","",""
"","image-keyboard-response","237","188852","0.0-237.0","37FMASSAYDDN59110LQDFDLQCC8IBJ","A3VV07FCCSZ7JY","3FW4EL5A3LANKRP91N782LFHPY722Q","","357","img/animal6.png","75","358","2","1","2","0.7,0,0.8,0.7,0.8,0,0.7,0.8,0",""
"","html-keyboard-response","238","189154","0.0-238.0","37FMASSAYDDN59110LQDFDLQCC8IBJ","A3VV07FCCSZ7JY","3FW4EL5A3LANKRP91N782LFHPY722Q","","null","<img src=""img/animal6.png"" style=""width:200px; border:14px solid green;"">","null","","","","","",""
"","image-keyboard-response","239","189924","0.0-239.0","37FMASSAYDDN59110LQDFDLQCC8IBJ","A3VV07FCCSZ7JY","3FW4EL5A3LANKRP91N782LFHPY722Q","","766","img/animal6.png","74","769","1","0","2","0.7,0,0.8,0.7,0.8,0,0.7,0.8,0",""
"","html-keyboard-response","240","190226","0.0-240.0","37FMASSAYDDN59110LQDFDLQCC8IBJ","A3VV07FCCSZ7JY","3FW4EL5A3LANKRP91N782LFHPY722Q","","null","<img src=""img/animal6.png"" style=""width:200px;border:14px solid red;"">","null","","","","","",""
"","image-keyboard-response","241","190542","0.0-241.0","37FMASSAYDDN59110LQDFDLQCC8IBJ","A3VV07FCCSZ7JY","3FW4EL5A3LANKRP91N782LFHPY722Q","","313","img/animal2.png","74","316","1","0","1","0.7,0,0.8,0.7,0.8,0,0.7,0.8,0",""
"","html-keyboard-response","242","190846","0.0-242.0","37FMASSAYDDN59110LQDFDLQCC8IBJ","A3VV07FCCSZ7JY","3FW4EL5A3LANKRP91N782LFHPY722Q","","null","<img src=""img/animal2.png"" style=""width:200px;border:14px solid red;"">","null","","","","","",""
"","image-keyboard-response","243","191582","0.0-243.0","37FMASSAYDDN59110LQDFDLQCC8IBJ","A3VV07FCCSZ7JY","3FW4EL5A3LANKRP91N782LFHPY722Q","","732","img/animal3.png","75","734","2","0","3","0.7,0,0.8,0.7,0.8,0,0.7,0.8,0",""
"","html-keyboard-response","244","191884","0.0-244.0","37FMASSAYDDN59110LQDFDLQCC8IBJ","A3VV07FCCSZ7JY","3FW4EL5A3LANKRP91N782LFHPY722Q","","null","<img src=""img/animal3.png"" style=""width:200px;border:14px solid red;"">","null","","","","","",""
"","image-keyboard-response","245","192822","0.0-245.0","37FMASSAYDDN59110LQDFDLQCC8IBJ","A3VV07FCCSZ7JY","3FW4EL5A3LANKRP91N782LFHPY722Q","","935","img/animal3.png","74","938","1","1","3","0.7,0,0.8,0.7,0.8,0,0.7,0.8,0",""
"","html-keyboard-response","246","193127","0.0-246.0","37FMASSAYDDN59110LQDFDLQCC8IBJ","A3VV07FCCSZ7JY","3FW4EL5A3LANKRP91N782LFHPY722Q","","null","<img src=""img/animal3.png"" style=""width:200px; border:14px solid green;"">","null","","","","","",""
"","image-keyboard-response","247","193912","0.0-247.0","37FMASSAYDDN59110LQDFDLQCC8IBJ","A3VV07FCCSZ7JY","3FW4EL5A3LANKRP91N782LFHPY722Q","","784","img/animal6.png","74","784","1","1","2","0.7,0,0.8,0.7,0.8,0,0.7,0.8,0",""
"","html-keyboard-response","248","194216","0.0-248.0","37FMASSAYDDN59110LQDFDLQCC8IBJ","A3VV07FCCSZ7JY","3FW4EL5A3LANKRP91N782LFHPY722Q","","null","<img src=""img/animal6.png"" style=""width:200px; border:14px solid green;"">","null","","","","","",""
"","image-keyboard-response","249","194775","0.0-249.0","37FMASSAYDDN59110LQDFDLQCC8IBJ","A3VV07FCCSZ7JY","3FW4EL5A3LANKRP91N782LFHPY722Q","","557","img/animal2.png","74","558","1","0","1","0.7,0,0.8,0.7,0.8,0,0.7,0.8,0",""
"","html-keyboard-response","250","195078","0.0-250.0","37FMASSAYDDN59110LQDFDLQCC8IBJ","A3VV07FCCSZ7JY","3FW4EL5A3LANKRP91N782LFHPY722Q","","null","<img src=""img/animal2.png"" style=""width:200px;border:14px solid red;"">","null","","","","","",""
"","image-keyboard-response","251","195622","0.0-251.0","37FMASSAYDDN59110LQDFDLQCC8IBJ","A3VV07FCCSZ7JY","3FW4EL5A3LANKRP91N782LFHPY722Q","","541","img/animal6.png","76","545","3","0","2","0.7,0,0.8,0.7,0.8,0,0.7,0.8,0",""
"","html-keyboard-response","252","195926","0.0-252.0","37FMASSAYDDN59110LQDFDLQCC8IBJ","A3VV07FCCSZ7JY","3FW4EL5A3LANKRP91N782LFHPY722Q","","null","<img src=""img/animal6.png"" style=""width:200px;border:14px solid red;"">","null","","","","","",""
"","image-keyboard-response","253","197011","0.0-253.0","37FMASSAYDDN59110LQDFDLQCC8IBJ","A3VV07FCCSZ7JY","3FW4EL5A3LANKRP91N782LFHPY722Q","","1072","img/animal3.png","76","1085","3","0","3","0.7,0,0.8,0.7,0.8,0,0.7,0.8,0",""
"","html-keyboard-response","254","197312","0.0-254.0","37FMASSAYDDN59110LQDFDLQCC8IBJ","A3VV07FCCSZ7JY","3FW4EL5A3LANKRP91N782LFHPY722Q","","null","<img src=""img/animal3.png"" style=""width:200px;border:14px solid red;"">","null","","","","","",""
"","image-keyboard-response","255","197809","0.0-255.0","37FMASSAYDDN59110LQDFDLQCC8IBJ","A3VV07FCCSZ7JY","3FW4EL5A3LANKRP91N782LFHPY722Q","","494","img/animal3.png","74","496","1","1","3","0.7,0,0.8,0.7,0.8,0,0.7,0.8,0",""
"","html-keyboard-response","256","198112","0.0-256.0","37FMASSAYDDN59110LQDFDLQCC8IBJ","A3VV07FCCSZ7JY","3FW4EL5A3LANKRP91N782LFHPY722Q","","null","<img src=""img/animal3.png"" style=""width:200px; border:14px solid green;"">","null","","","","","",""
"","image-keyboard-response","257","199069","0.0-257.0","37FMASSAYDDN59110LQDFDLQCC8IBJ","A3VV07FCCSZ7JY","3FW4EL5A3LANKRP91N782LFHPY722Q","","954","img/animal2.png","74","956","1","1","1","0.7,0,0.8,0.7,0.8,0,0.7,0.8,0",""
"","html-keyboard-response","258","199372","0.0-258.0","37FMASSAYDDN59110LQDFDLQCC8IBJ","A3VV07FCCSZ7JY","3FW4EL5A3LANKRP91N782LFHPY722Q","","null","<img src=""img/animal2.png"" style=""width:200px; border:14px solid green;"">","null","","","","","",""
"","image-keyboard-response","259","200348","0.0-259.0","37FMASSAYDDN59110LQDFDLQCC8IBJ","A3VV07FCCSZ7JY","3FW4EL5A3LANKRP91N782LFHPY722Q","","974","img/animal6.png","75","976","2","1","2","0.7,0,0.8,0.7,0.8,0,0.7,0.8,0",""
"","html-keyboard-response","260","200800","0.0-260.0","37FMASSAYDDN59110LQDFDLQCC8IBJ","A3VV07FCCSZ7JY","3FW4EL5A3LANKRP91N782LFHPY722Q","","null","<img src=""img/animal6.png"" style=""width:200px; border:14px solid green;"">","null","","","","","",""
"","image-keyboard-response","261","202016","0.0-261.0","37FMASSAYDDN59110LQDFDLQCC8IBJ","A3VV07FCCSZ7JY","3FW4EL5A3LANKRP91N782LFHPY722Q","","1201","img/animal6.png","75","1208","2","0","2","0.7,0,0.8,0.7,0.8,0,0.7,0.8,0",""
"","html-keyboard-response","262","202321","0.0-262.0","37FMASSAYDDN59110LQDFDLQCC8IBJ","A3VV07FCCSZ7JY","3FW4EL5A3LANKRP91N782LFHPY722Q","","null","<img src=""img/animal6.png"" style=""width:200px;border:14px solid red;"">","null","","","","","",""
"","image-keyboard-response","263","202982","0.0-263.0","37FMASSAYDDN59110LQDFDLQCC8IBJ","A3VV07FCCSZ7JY","3FW4EL5A3LANKRP91N782LFHPY722Q","","657","img/animal6.png","74","660","1","1","2","0.7,0,0.8,0.7,0.8,0,0.7,0.8,0",""
"","html-keyboard-response","264","203285","0.0-264.0","37FMASSAYDDN59110LQDFDLQCC8IBJ","A3VV07FCCSZ7JY","3FW4EL5A3LANKRP91N782LFHPY722Q","","null","<img src=""img/animal6.png"" style=""width:200px; border:14px solid green;"">","null","","","","","",""
"","image-keyboard-response","265","204285","0.0-265.0","37FMASSAYDDN59110LQDFDLQCC8IBJ","A3VV07FCCSZ7JY","3FW4EL5A3LANKRP91N782LFHPY722Q","","997","img/animal2.png","76","999","3","1","1","0.7,0,0.8,0.7,0.8,0,0.7,0.8,0",""
"","html-keyboard-response","266","204589","0.0-266.0","37FMASSAYDDN59110LQDFDLQCC8IBJ","A3VV07FCCSZ7JY","3FW4EL5A3LANKRP91N782LFHPY722Q","","null","<img src=""img/animal2.png"" style=""width:200px; border:14px solid green;"">","null","","","","","",""
"","image-keyboard-response","267","205576","0.0-267.0","37FMASSAYDDN59110LQDFDLQCC8IBJ","A3VV07FCCSZ7JY","3FW4EL5A3LANKRP91N782LFHPY722Q","","982","img/animal2.png","76","984","3","1","1","0.7,0,0.8,0.7,0.8,0,0.7,0.8,0",""
"","html-keyboard-response","268","205880","0.0-268.0","37FMASSAYDDN59110LQDFDLQCC8IBJ","A3VV07FCCSZ7JY","3FW4EL5A3LANKRP91N782LFHPY722Q","","null","<img src=""img/animal2.png"" style=""width:200px; border:14px solid green;"">","null","","","","","",""
"","image-keyboard-response","269","207000","0.0-269.0","37FMASSAYDDN59110LQDFDLQCC8IBJ","A3VV07FCCSZ7JY","3FW4EL5A3LANKRP91N782LFHPY722Q","","1117","img/animal2.png","76","1119","3","1","1","0.7,0,0.8,0.7,0.8,0,0.7,0.8,0",""
"","html-keyboard-response","270","207305","0.0-270.0","37FMASSAYDDN59110LQDFDLQCC8IBJ","A3VV07FCCSZ7JY","3FW4EL5A3LANKRP91N782LFHPY722Q","","null","<img src=""img/animal2.png"" style=""width:200px; border:14px solid green;"">","null","","","","","",""
"","image-keyboard-response","271","208361","0.0-271.0","37FMASSAYDDN59110LQDFDLQCC8IBJ","A3VV07FCCSZ7JY","3FW4EL5A3LANKRP91N782LFHPY722Q","","1051","img/animal6.png","76","1055","3","0","2","0.7,0,0.8,0.7,0.8,0,0.7,0.8,0",""
"","html-keyboard-response","272","208663","0.0-272.0","37FMASSAYDDN59110LQDFDLQCC8IBJ","A3VV07FCCSZ7JY","3FW4EL5A3LANKRP91N782LFHPY722Q","","null","<img src=""img/animal6.png"" style=""width:200px;border:14px solid red;"">","null","","","","","",""
"","image-keyboard-response","273","209216","0.0-273.0","37FMASSAYDDN59110LQDFDLQCC8IBJ","A3VV07FCCSZ7JY","3FW4EL5A3LANKRP91N782LFHPY722Q","","547","img/animal3.png","74","554","1","1","3","0.7,0,0.8,0.7,0.8,0,0.7,0.8,0",""
"","html-keyboard-response","274","209519","0.0-274.0","37FMASSAYDDN59110LQDFDLQCC8IBJ","A3VV07FCCSZ7JY","3FW4EL5A3LANKRP91N782LFHPY722Q","","null","<img src=""img/animal3.png"" style=""width:200px; border:14px solid green;"">","null","","","","","",""
"","image-keyboard-response","275","210146","0.0-275.0","37FMASSAYDDN59110LQDFDLQCC8IBJ","A3VV07FCCSZ7JY","3FW4EL5A3LANKRP91N782LFHPY722Q","","625","img/animal2.png","74","627","1","1","1","0.7,0,0.8,0.7,0.8,0,0.7,0.8,0",""
"","html-keyboard-response","276","210451","0.0-276.0","37FMASSAYDDN59110LQDFDLQCC8IBJ","A3VV07FCCSZ7JY","3FW4EL5A3LANKRP91N782LFHPY722Q","","null","<img src=""img/animal2.png"" style=""width:200px; border:14px solid green;"">","null","","","","","",""
"","image-keyboard-response","277","211414","0.0-277.0","37FMASSAYDDN59110LQDFDLQCC8IBJ","A3VV07FCCSZ7JY","3FW4EL5A3LANKRP91N782LFHPY722Q","","959","img/animal6.png","75","962","2","1","2","0.7,0,0.8,0.7,0.8,0,0.7,0.8,0",""
"","html-keyboard-response","278","211717","0.0-278.0","37FMASSAYDDN59110LQDFDLQCC8IBJ","A3VV07FCCSZ7JY","3FW4EL5A3LANKRP91N782LFHPY722Q","","null","<img src=""img/animal6.png"" style=""width:200px; border:14px solid green;"">","null","","","","","",""
"","image-keyboard-response","279","212608","0.0-279.0","37FMASSAYDDN59110LQDFDLQCC8IBJ","A3VV07FCCSZ7JY","3FW4EL5A3LANKRP91N782LFHPY722Q","","889","img/animal3.png","75","891","2","1","3","0.7,0,0.8,0.7,0.8,0,0.7,0.8,0",""
"","html-keyboard-response","280","212913","0.0-280.0","37FMASSAYDDN59110LQDFDLQCC8IBJ","A3VV07FCCSZ7JY","3FW4EL5A3LANKRP91N782LFHPY722Q","","null","<img src=""img/animal3.png"" style=""width:200px; border:14px solid green;"">","null","","","","","",""
"","image-keyboard-response","281","213804","0.0-281.0","37FMASSAYDDN59110LQDFDLQCC8IBJ","A3VV07FCCSZ7JY","3FW4EL5A3LANKRP91N782LFHPY722Q","","888","img/animal6.png","75","890","2","1","2","0.7,0,0.8,0.7,0.8,0,0.7,0.8,0",""
"","html-keyboard-response","282","214107","0.0-282.0","37FMASSAYDDN59110LQDFDLQCC8IBJ","A3VV07FCCSZ7JY","3FW4EL5A3LANKRP91N782LFHPY722Q","","null","<img src=""img/animal6.png"" style=""width:200px; border:14px solid green;"">","null","","","","","",""
"","image-keyboard-response","283","215048","0.0-283.0","37FMASSAYDDN59110LQDFDLQCC8IBJ","A3VV07FCCSZ7JY","3FW4EL5A3LANKRP91N782LFHPY722Q","","941","img/animal3.png","75","941","2","0","3","0.7,0,0.8,0.7,0.8,0,0.7,0.8,0",""
"","html-keyboard-response","284","215352","0.0-284.0","37FMASSAYDDN59110LQDFDLQCC8IBJ","A3VV07FCCSZ7JY","3FW4EL5A3LANKRP91N782LFHPY722Q","","null","<img src=""img/animal3.png"" style=""width:200px;border:14px solid red;"">","null","","","","","",""
"","image-keyboard-response","285","215870","0.0-285.0","37FMASSAYDDN59110LQDFDLQCC8IBJ","A3VV07FCCSZ7JY","3FW4EL5A3LANKRP91N782LFHPY722Q","","512","img/animal3.png","74","517","1","0","3","0.7,0,0.8,0.7,0.8,0,0.7,0.8,0",""
"","html-keyboard-response","286","216174","0.0-286.0","37FMASSAYDDN59110LQDFDLQCC8IBJ","A3VV07FCCSZ7JY","3FW4EL5A3LANKRP91N782LFHPY722Q","","null","<img src=""img/animal3.png"" style=""width:200px;border:14px solid red;"">","null","","","","","",""
"","image-keyboard-response","287","216767","0.0-287.0","37FMASSAYDDN59110LQDFDLQCC8IBJ","A3VV07FCCSZ7JY","3FW4EL5A3LANKRP91N782LFHPY722Q","","588","img/animal2.png","74","593","1","0","1","0.7,0,0.8,0.7,0.8,0,0.7,0.8,0",""
"","html-keyboard-response","288","217071","0.0-288.0","37FMASSAYDDN59110LQDFDLQCC8IBJ","A3VV07FCCSZ7JY","3FW4EL5A3LANKRP91N782LFHPY722Q","","null","<img src=""img/animal2.png"" style=""width:200px;border:14px solid red;"">","null","","","","","",""
"","image-keyboard-response","289","217501","0.0-289.0","37FMASSAYDDN59110LQDFDLQCC8IBJ","A3VV07FCCSZ7JY","3FW4EL5A3LANKRP91N782LFHPY722Q","","429","img/animal6.png","74","431","1","1","2","0.7,0,0.8,0.7,0.8,0,0.7,0.8,0",""
"","html-keyboard-response","290","217804","0.0-290.0","37FMASSAYDDN59110LQDFDLQCC8IBJ","A3VV07FCCSZ7JY","3FW4EL5A3LANKRP91N782LFHPY722Q","","null","<img src=""img/animal6.png"" style=""width:200px; border:14px solid green;"">","null","","","","","",""
"","image-keyboard-response","291","218372","0.0-291.0","37FMASSAYDDN59110LQDFDLQCC8IBJ","A3VV07FCCSZ7JY","3FW4EL5A3LANKRP91N782LFHPY722Q","","566","img/animal3.png","74","568","1","1","3","0.7,0,0.8,0.7,0.8,0,0.7,0.8,0",""
"","html-keyboard-response","292","218673","0.0-292.0","37FMASSAYDDN59110LQDFDLQCC8IBJ","A3VV07FCCSZ7JY","3FW4EL5A3LANKRP91N782LFHPY722Q","","null","<img src=""img/animal3.png"" style=""width:200px; border:14px solid green;"">","null","","","","","",""
"","image-keyboard-response","293","219098","0.0-293.0","37FMASSAYDDN59110LQDFDLQCC8IBJ","A3VV07FCCSZ7JY","3FW4EL5A3LANKRP91N782LFHPY722Q","","423","img/animal3.png","74","424","1","1","3","0.7,0,0.8,0.7,0.8,0,0.7,0.8,0",""
"","html-keyboard-response","294","219403","0.0-294.0","37FMASSAYDDN59110LQDFDLQCC8IBJ","A3VV07FCCSZ7JY","3FW4EL5A3LANKRP91N782LFHPY722Q","","null","<img src=""img/animal3.png"" style=""width:200px; border:14px solid green;"">","null","","","","","",""
"","image-keyboard-response","295","220102","0.0-295.0","37FMASSAYDDN59110LQDFDLQCC8IBJ","A3VV07FCCSZ7JY","3FW4EL5A3LANKRP91N782LFHPY722Q","","695","img/animal3.png","74","697","1","1","3","0.7,0,0.8,0.7,0.8,0,0.7,0.8,0",""
"","html-keyboard-response","296","220405","0.0-296.0","37FMASSAYDDN59110LQDFDLQCC8IBJ","A3VV07FCCSZ7JY","3FW4EL5A3LANKRP91N782LFHPY722Q","","null","<img src=""img/animal3.png"" style=""width:200px; border:14px solid green;"">","null","","","","","",""
"","image-keyboard-response","297","221037","0.0-297.0","37FMASSAYDDN59110LQDFDLQCC8IBJ","A3VV07FCCSZ7JY","3FW4EL5A3LANKRP91N782LFHPY722Q","","630","img/animal3.png","74","631","1","0","3","0.7,0,0.8,0.7,0.8,0,0.7,0.8,0",""
"","html-keyboard-response","298","221341","0.0-298.0","37FMASSAYDDN59110LQDFDLQCC8IBJ","A3VV07FCCSZ7JY","3FW4EL5A3LANKRP91N782LFHPY722Q","","null","<img src=""img/animal3.png"" style=""width:200px;border:14px solid red;"">","null","","","","","",""
"","image-keyboard-response","299","222095","0.0-299.0","37FMASSAYDDN59110LQDFDLQCC8IBJ","A3VV07FCCSZ7JY","3FW4EL5A3LANKRP91N782LFHPY722Q","","751","img/animal3.png","76","753","3","0","3","0.7,0,0.8,0.7,0.8,0,0.7,0.8,0",""
"","html-keyboard-response","300","222399","0.0-300.0","37FMASSAYDDN59110LQDFDLQCC8IBJ","A3VV07FCCSZ7JY","3FW4EL5A3LANKRP91N782LFHPY722Q","","null","<img src=""img/animal3.png"" style=""width:200px;border:14px solid red;"">","null","","","","","",""
"","image-keyboard-response","301","223001","0.0-301.0","37FMASSAYDDN59110LQDFDLQCC8IBJ","A3VV07FCCSZ7JY","3FW4EL5A3LANKRP91N782LFHPY722Q","","601","img/animal2.png","75","601","2","0","1","0.7,0,0.8,0.7,0.8,0,0.7,0.8,0",""
"","html-keyboard-response","302","223302","0.0-302.0","37FMASSAYDDN59110LQDFDLQCC8IBJ","A3VV07FCCSZ7JY","3FW4EL5A3LANKRP91N782LFHPY722Q","","null","<img src=""img/animal2.png"" style=""width:200px;border:14px solid red;"">","null","","","","","",""
"","image-keyboard-response","303","223823","0.0-303.0","37FMASSAYDDN59110LQDFDLQCC8IBJ","A3VV07FCCSZ7JY","3FW4EL5A3LANKRP91N782LFHPY722Q","","518","img/animal3.png","74","520","1","1","3","0.7,0,0.8,0.7,0.8,0,0.7,0.8,0",""
"","html-keyboard-response","304","224125","0.0-304.0","37FMASSAYDDN59110LQDFDLQCC8IBJ","A3VV07FCCSZ7JY","3FW4EL5A3LANKRP91N782LFHPY722Q","","null","<img src=""img/animal3.png"" style=""width:200px; border:14px solid green;"">","null","","","","","",""
"","image-keyboard-response","305","226382","0.0-305.0","37FMASSAYDDN59110LQDFDLQCC8IBJ","A3VV07FCCSZ7JY","3FW4EL5A3LANKRP91N782LFHPY722Q","","2254","img/animal6.png","74","2257","1","1","2","0.7,0,0.8,0.7,0.8,0,0.7,0.8,0",""
"","html-keyboard-response","306","226686","0.0-306.0","37FMASSAYDDN59110LQDFDLQCC8IBJ","A3VV07FCCSZ7JY","3FW4EL5A3LANKRP91N782LFHPY722Q","","null","<img src=""img/animal6.png"" style=""width:200px; border:14px solid green;"">","null","","","","","",""
"","image-keyboard-response","307","227402","0.0-307.0","37FMASSAYDDN59110LQDFDLQCC8IBJ","A3VV07FCCSZ7JY","3FW4EL5A3LANKRP91N782LFHPY722Q","","714","img/animal6.png","74","715","1","1","2","0.7,0,0.8,0.7,0.8,0,0.7,0.8,0",""
"","html-keyboard-response","308","227704","0.0-308.0","37FMASSAYDDN59110LQDFDLQCC8IBJ","A3VV07FCCSZ7JY","3FW4EL5A3LANKRP91N782LFHPY722Q","","null","<img src=""img/animal6.png"" style=""width:200px; border:14px solid green;"">","null","","","","","",""
"","image-keyboard-response","309","228227","0.0-309.0","37FMASSAYDDN59110LQDFDLQCC8IBJ","A3VV07FCCSZ7JY","3FW4EL5A3LANKRP91N782LFHPY722Q","","520","img/animal6.png","75","523","2","0","2","0.7,0,0.8,0.7,0.8,0,0.7,0.8,0",""
"","html-keyboard-response","310","228535","0.0-310.0","37FMASSAYDDN59110LQDFDLQCC8IBJ","A3VV07FCCSZ7JY","3FW4EL5A3LANKRP91N782LFHPY722Q","","null","<img src=""img/animal6.png"" style=""width:200px;border:14px solid red;"">","null","","","","","",""
"","image-keyboard-response","311","229137","0.0-311.0","37FMASSAYDDN59110LQDFDLQCC8IBJ","A3VV07FCCSZ7JY","3FW4EL5A3LANKRP91N782LFHPY722Q","","599","img/animal3.png","74","602","1","1","3","0.7,0,0.8,0.7,0.8,0,0.7,0.8,0",""
"","html-keyboard-response","312","229440","0.0-312.0","37FMASSAYDDN59110LQDFDLQCC8IBJ","A3VV07FCCSZ7JY","3FW4EL5A3LANKRP91N782LFHPY722Q","","null","<img src=""img/animal3.png"" style=""width:200px; border:14px solid green;"">","null","","","","","",""
"","image-keyboard-response","313","230020","0.0-313.0","37FMASSAYDDN59110LQDFDLQCC8IBJ","A3VV07FCCSZ7JY","3FW4EL5A3LANKRP91N782LFHPY722Q","","578","img/animal2.png","74","579","1","1","1","0.7,0,0.8,0.7,0.8,0,0.7,0.8,0",""
"","html-keyboard-response","314","230327","0.0-314.0","37FMASSAYDDN59110LQDFDLQCC8IBJ","A3VV07FCCSZ7JY","3FW4EL5A3LANKRP91N782LFHPY722Q","","null","<img src=""img/animal2.png"" style=""width:200px; border:14px solid green;"">","null","","","","","",""
"","image-keyboard-response","315","231005","0.0-315.0","37FMASSAYDDN59110LQDFDLQCC8IBJ","A3VV07FCCSZ7JY","3FW4EL5A3LANKRP91N782LFHPY722Q","","677","img/animal6.png","74","680","1","0","2","0.7,0,0.8,0.7,0.8,0,0.7,0.8,0",""
"","html-keyboard-response","316","231309","0.0-316.0","37FMASSAYDDN59110LQDFDLQCC8IBJ","A3VV07FCCSZ7JY","3FW4EL5A3LANKRP91N782LFHPY722Q","","null","<img src=""img/animal6.png"" style=""width:200px;border:14px solid red;"">","null","","","","","",""
"","image-keyboard-response","317","232345","0.0-317.0","37FMASSAYDDN59110LQDFDLQCC8IBJ","A3VV07FCCSZ7JY","3FW4EL5A3LANKRP91N782LFHPY722Q","","1033","img/animal6.png","75","1035","2","1","2","0.7,0,0.8,0.7,0.8,0,0.7,0.8,0",""
"","html-keyboard-response","318","232654","0.0-318.0","37FMASSAYDDN59110LQDFDLQCC8IBJ","A3VV07FCCSZ7JY","3FW4EL5A3LANKRP91N782LFHPY722Q","","null","<img src=""img/animal6.png"" style=""width:200px; border:14px solid green;"">","null","","","","","",""
"","image-keyboard-response","319","233370","0.0-319.0","37FMASSAYDDN59110LQDFDLQCC8IBJ","A3VV07FCCSZ7JY","3FW4EL5A3LANKRP91N782LFHPY722Q","","715","img/animal6.png","75","716","2","1","2","0.7,0,0.8,0.7,0.8,0,0.7,0.8,0",""
"","html-keyboard-response","320","233674","0.0-320.0","37FMASSAYDDN59110LQDFDLQCC8IBJ","A3VV07FCCSZ7JY","3FW4EL5A3LANKRP91N782LFHPY722Q","","null","<img src=""img/animal6.png"" style=""width:200px; border:14px solid green;"">","null","","","","","",""
"","image-keyboard-response","321","234403","0.0-321.0","37FMASSAYDDN59110LQDFDLQCC8IBJ","A3VV07FCCSZ7JY","3FW4EL5A3LANKRP91N782LFHPY722Q","","726","img/animal2.png","75","729","2","0","1","0.7,0,0.8,0.7,0.8,0,0.7,0.8,0",""
"","html-keyboard-response","322","234708","0.0-322.0","37FMASSAYDDN59110LQDFDLQCC8IBJ","A3VV07FCCSZ7JY","3FW4EL5A3LANKRP91N782LFHPY722Q","","null","<img src=""img/animal2.png"" style=""width:200px;border:14px solid red;"">","null","","","","","",""
"","image-keyboard-response","323","235475","0.0-323.0","37FMASSAYDDN59110LQDFDLQCC8IBJ","A3VV07FCCSZ7JY","3FW4EL5A3LANKRP91N782LFHPY722Q","","737","img/animal3.png","75","752","2","0","3","0.7,0,0.8,0.7,0.8,0,0.7,0.8,0",""
"","html-keyboard-response","324","235780","0.0-324.0","37FMASSAYDDN59110LQDFDLQCC8IBJ","A3VV07FCCSZ7JY","3FW4EL5A3LANKRP91N782LFHPY722Q","","null","<img src=""img/animal3.png"" style=""width:200px;border:14px solid red;"">","null","","","","","",""
"","image-keyboard-response","325","236135","0.0-325.0","37FMASSAYDDN59110LQDFDLQCC8IBJ","A3VV07FCCSZ7JY","3FW4EL5A3LANKRP91N782LFHPY722Q","","352","img/animal2.png","76","354","3","1","1","0.7,0,0.8,0.7,0.8,0,0.7,0.8,0",""
"","html-keyboard-response","326","236440","0.0-326.0","37FMASSAYDDN59110LQDFDLQCC8IBJ","A3VV07FCCSZ7JY","3FW4EL5A3LANKRP91N782LFHPY722Q","","null","<img src=""img/animal2.png"" style=""width:200px; border:14px solid green;"">","null","","","","","",""
"","image-keyboard-response","327","236979","0.0-327.0","37FMASSAYDDN59110LQDFDLQCC8IBJ","A3VV07FCCSZ7JY","3FW4EL5A3LANKRP91N782LFHPY722Q","","537","img/animal3.png","76","546","3","0","3","0.7,0,0.8,0.7,0.8,0,0.7,0.8,0",""
"","html-keyboard-response","328","237288","0.0-328.0","37FMASSAYDDN59110LQDFDLQCC8IBJ","A3VV07FCCSZ7JY","3FW4EL5A3LANKRP91N782LFHPY722Q","","null","<img src=""img/animal3.png"" style=""width:200px;border:14px solid red;"">","null","","","","","",""
"","image-keyboard-response","329","237765","0.0-329.0","37FMASSAYDDN59110LQDFDLQCC8IBJ","A3VV07FCCSZ7JY","3FW4EL5A3LANKRP91N782LFHPY722Q","","475","img/animal3.png","75","477","2","1","3","0.7,0,0.8,0.7,0.8,0,0.7,0.8,0",""
"","html-keyboard-response","330","238068","0.0-330.0","37FMASSAYDDN59110LQDFDLQCC8IBJ","A3VV07FCCSZ7JY","3FW4EL5A3LANKRP91N782LFHPY722Q","","null","<img src=""img/animal3.png"" style=""width:200px; border:14px solid green;"">","null","","","","","",""
"","image-keyboard-response","331","238658","0.0-331.0","37FMASSAYDDN59110LQDFDLQCC8IBJ","A3VV07FCCSZ7JY","3FW4EL5A3LANKRP91N782LFHPY722Q","","588","img/animal6.png","74","589","1","0","2","0.7,0,0.8,0.7,0.8,0,0.7,0.8,0",""
"","html-keyboard-response","332","238960","0.0-332.0","37FMASSAYDDN59110LQDFDLQCC8IBJ","A3VV07FCCSZ7JY","3FW4EL5A3LANKRP91N782LFHPY722Q","","null","<img src=""img/animal6.png"" style=""width:200px;border:14px solid red;"">","null","","","","","",""
"","image-keyboard-response","333","239211","0.0-333.0","37FMASSAYDDN59110LQDFDLQCC8IBJ","A3VV07FCCSZ7JY","3FW4EL5A3LANKRP91N782LFHPY722Q","","249","img/animal3.png","75","252","2","1","3","0.7,0,0.8,0.7,0.8,0,0.7,0.8,0",""
"","html-keyboard-response","334","239514","0.0-334.0","37FMASSAYDDN59110LQDFDLQCC8IBJ","A3VV07FCCSZ7JY","3FW4EL5A3LANKRP91N782LFHPY722Q","","null","<img src=""img/animal3.png"" style=""width:200px; border:14px solid green;"">","null","","","","","",""
"","image-keyboard-response","335","240183","0.0-335.0","37FMASSAYDDN59110LQDFDLQCC8IBJ","A3VV07FCCSZ7JY","3FW4EL5A3LANKRP91N782LFHPY722Q","","666","img/animal2.png","75","668","2","0","1","0.7,0,0.8,0.7,0.8,0,0.7,0.8,0",""
"","html-keyboard-response","336","240485","0.0-336.0","37FMASSAYDDN59110LQDFDLQCC8IBJ","A3VV07FCCSZ7JY","3FW4EL5A3LANKRP91N782LFHPY722Q","","null","<img src=""img/animal2.png"" style=""width:200px;border:14px solid red;"">","null","","","","","",""
"","image-keyboard-response","337","241827","0.0-337.0","37FMASSAYDDN59110LQDFDLQCC8IBJ","A3VV07FCCSZ7JY","3FW4EL5A3LANKRP91N782LFHPY722Q","","1341","img/animal3.png","75","1342","2","1","3","0.7,0,0.8,0.7,0.8,0,0.7,0.8,0",""
"","html-keyboard-response","338","242130","0.0-338.0","37FMASSAYDDN59110LQDFDLQCC8IBJ","A3VV07FCCSZ7JY","3FW4EL5A3LANKRP91N782LFHPY722Q","","null","<img src=""img/animal3.png"" style=""width:200px; border:14px solid green;"">","null","","","","","",""
"","image-keyboard-response","339","243048","0.0-339.0","37FMASSAYDDN59110LQDFDLQCC8IBJ","A3VV07FCCSZ7JY","3FW4EL5A3LANKRP91N782LFHPY722Q","","916","img/animal2.png","75","918","2","0","1","0.7,0,0.8,0.7,0.8,0,0.7,0.8,0",""
"","html-keyboard-response","340","243351","0.0-340.0","37FMASSAYDDN59110LQDFDLQCC8IBJ","A3VV07FCCSZ7JY","3FW4EL5A3LANKRP91N782LFHPY722Q","","null","<img src=""img/animal2.png"" style=""width:200px;border:14px solid red;"">","null","","","","","",""
"","image-keyboard-response","341","243850","0.0-341.0","37FMASSAYDDN59110LQDFDLQCC8IBJ","A3VV07FCCSZ7JY","3FW4EL5A3LANKRP91N782LFHPY722Q","","497","img/animal2.png","76","498","3","1","1","0.7,0,0.8,0.7,0.8,0,0.7,0.8,0",""
"","html-keyboard-response","342","244158","0.0-342.0","37FMASSAYDDN59110LQDFDLQCC8IBJ","A3VV07FCCSZ7JY","3FW4EL5A3LANKRP91N782LFHPY722Q","","null","<img src=""img/animal2.png"" style=""width:200px; border:14px solid green;"">","null","","","","","",""
"","image-keyboard-response","343","244753","0.0-343.0","37FMASSAYDDN59110LQDFDLQCC8IBJ","A3VV07FCCSZ7JY","3FW4EL5A3LANKRP91N782LFHPY722Q","","591","img/animal6.png","76","593","3","0","2","0.7,0,0.8,0.7,0.8,0,0.7,0.8,0",""
"","html-keyboard-response","344","245057","0.0-344.0","37FMASSAYDDN59110LQDFDLQCC8IBJ","A3VV07FCCSZ7JY","3FW4EL5A3LANKRP91N782LFHPY722Q","","null","<img src=""img/animal6.png"" style=""width:200px;border:14px solid red;"">","null","","","","","",""
"","image-keyboard-response","345","245513","0.0-345.0","37FMASSAYDDN59110LQDFDLQCC8IBJ","A3VV07FCCSZ7JY","3FW4EL5A3LANKRP91N782LFHPY722Q","","455","img/animal2.png","75","457","2","0","1","0.7,0,0.8,0.7,0.8,0,0.7,0.8,0",""
"","html-keyboard-response","346","245820","0.0-346.0","37FMASSAYDDN59110LQDFDLQCC8IBJ","A3VV07FCCSZ7JY","3FW4EL5A3LANKRP91N782LFHPY722Q","","null","<img src=""img/animal2.png"" style=""width:200px;border:14px solid red;"">","null","","","","","",""
"","image-keyboard-response","347","246304","0.0-347.0","37FMASSAYDDN59110LQDFDLQCC8IBJ","A3VV07FCCSZ7JY","3FW4EL5A3LANKRP91N782LFHPY722Q","","478","img/animal2.png","75","484","2","0","1","0.7,0,0.8,0.7,0.8,0,0.7,0.8,0",""
"","html-keyboard-response","348","246607","0.0-348.0","37FMASSAYDDN59110LQDFDLQCC8IBJ","A3VV07FCCSZ7JY","3FW4EL5A3LANKRP91N782LFHPY722Q","","null","<img src=""img/animal2.png"" style=""width:200px;border:14px solid red;"">","null","","","","","",""
"","image-keyboard-response","349","247398","0.0-349.0","37FMASSAYDDN59110LQDFDLQCC8IBJ","A3VV07FCCSZ7JY","3FW4EL5A3LANKRP91N782LFHPY722Q","","788","img/animal6.png","74","790","1","1","2","0.7,0,0.8,0.7,0.8,0,0.7,0.8,0",""
"","html-keyboard-response","350","247700","0.0-350.0","37FMASSAYDDN59110LQDFDLQCC8IBJ","A3VV07FCCSZ7JY","3FW4EL5A3LANKRP91N782LFHPY722Q","","null","<img src=""img/animal6.png"" style=""width:200px; border:14px solid green;"">","null","","","","","",""
"","image-keyboard-response","351","248228","0.0-351.0","37FMASSAYDDN59110LQDFDLQCC8IBJ","A3VV07FCCSZ7JY","3FW4EL5A3LANKRP91N782LFHPY722Q","","526","img/animal3.png","74","528","1","1","3","0.7,0,0.8,0.7,0.8,0,0.7,0.8,0",""
"","html-keyboard-response","352","248598","0.0-352.0","37FMASSAYDDN59110LQDFDLQCC8IBJ","A3VV07FCCSZ7JY","3FW4EL5A3LANKRP91N782LFHPY722Q","","null","<img src=""img/animal3.png"" style=""width:200px; border:14px solid green;"">","null","","","","","",""
"","image-keyboard-response","353","249083","0.0-353.0","37FMASSAYDDN59110LQDFDLQCC8IBJ","A3VV07FCCSZ7JY","3FW4EL5A3LANKRP91N782LFHPY722Q","","484","img/animal3.png","74","485","1","0","3","0.7,0,0.8,0.7,0.8,0,0.7,0.8,0",""
"","html-keyboard-response","354","249389","0.0-354.0","37FMASSAYDDN59110LQDFDLQCC8IBJ","A3VV07FCCSZ7JY","3FW4EL5A3LANKRP91N782LFHPY722Q","","null","<img src=""img/animal3.png"" style=""width:200px;border:14px solid red;"">","null","","","","","",""
"","image-keyboard-response","355","250054","0.0-355.0","37FMASSAYDDN59110LQDFDLQCC8IBJ","A3VV07FCCSZ7JY","3FW4EL5A3LANKRP91N782LFHPY722Q","","665","img/animal2.png","74","666","1","1","1","0.7,0,0.8,0.7,0.8,0,0.7,0.8,0",""
"","html-keyboard-response","356","250357","0.0-356.0","37FMASSAYDDN59110LQDFDLQCC8IBJ","A3VV07FCCSZ7JY","3FW4EL5A3LANKRP91N782LFHPY722Q","","null","<img src=""img/animal2.png"" style=""width:200px; border:14px solid green;"">","null","","","","","",""
"","image-keyboard-response","357","251230","0.0-357.0","37FMASSAYDDN59110LQDFDLQCC8IBJ","A3VV07FCCSZ7JY","3FW4EL5A3LANKRP91N782LFHPY722Q","","871","img/animal2.png","74","873","1","0","1","0.7,0,0.8,0.7,0.8,0,0.7,0.8,0",""
"","html-keyboard-response","358","251533","0.0-358.0","37FMASSAYDDN59110LQDFDLQCC8IBJ","A3VV07FCCSZ7JY","3FW4EL5A3LANKRP91N782LFHPY722Q","","null","<img src=""img/animal2.png"" style=""width:200px;border:14px solid red;"">","null","","","","","",""
"","image-keyboard-response","359","252158","0.0-359.0","37FMASSAYDDN59110LQDFDLQCC8IBJ","A3VV07FCCSZ7JY","3FW4EL5A3LANKRP91N782LFHPY722Q","","623","img/animal2.png","75","626","2","0","1","0.7,0,0.8,0.7,0.8,0,0.7,0.8,0",""
"","html-keyboard-response","360","252505","0.0-360.0","37FMASSAYDDN59110LQDFDLQCC8IBJ","A3VV07FCCSZ7JY","3FW4EL5A3LANKRP91N782LFHPY722Q","","null","<img src=""img/animal2.png"" style=""width:200px;border:14px solid red;"">","null","","","","","",""
"","image-keyboard-response","361","253032","0.0-361.0","37FMASSAYDDN59110LQDFDLQCC8IBJ","A3VV07FCCSZ7JY","3FW4EL5A3LANKRP91N782LFHPY722Q","","524","img/animal3.png","76","526","3","0","3","0.7,0,0.8,0.7,0.8,0,0.7,0.8,0",""
"","html-keyboard-response","362","253334","0.0-362.0","37FMASSAYDDN59110LQDFDLQCC8IBJ","A3VV07FCCSZ7JY","3FW4EL5A3LANKRP91N782LFHPY722Q","","null","<img src=""img/animal3.png"" style=""width:200px;border:14px solid red;"">","null","","","","","",""
"","instructions","363","257341","0.0-363.0","37FMASSAYDDN59110LQDFDLQCC8IBJ","A3VV07FCCSZ7JY","3FW4EL5A3LANKRP91N782LFHPY722Q","[{""page_index"":0,""viewing_time"":4005}]","4006","","","","","","","",""
"","survey-text","364","273517","0.0-364.0","37FMASSAYDDN59110LQDFDLQCC8IBJ","A3VV07FCCSZ7JY","3FW4EL5A3LANKRP91N782LFHPY722Q","","16161","","","","","","","","{""Q0"":""A3VV07FCCSZ7JY""}"
