"success","trial_type","trial_index","time_elapsed","internal_node_id","assignmentID","mturkID","hitID","view_history","rt","stimulus","key_press","reactionTime","a","r","s","reward_cond","responses"
"true","fullscreen","0","2832","0.0-0.0","38SKSKU7R2JZIINDRYF7TGHVO6WILG","A41APS6V2Z1FJ","3WPCIUYH1AU470H2HRBLZRFBM3CTDN","","","","","","","","","",""
"","instructions","1","20941","0.0-1.0","38SKSKU7R2JZIINDRYF7TGHVO6WILG","A41APS6V2Z1FJ","3WPCIUYH1AU470H2HRBLZRFBM3CTDN","[{""page_index"":0,""viewing_time"":3489.399999976158},{""page_index"":1,""viewing_time"":2116.900000035763},{""page_index"":2,""viewing_time"":2624.899999976158},{""page_index"":3,""viewing_time"":2438},{""page_index"":4,""viewing_time"":1601.1000000238419},{""page_index"":5,""viewing_time"":1499.8999999761581},{""page_index"":6,""viewing_time"":1577.199999988079},{""page_index"":7,""viewing_time"":2760}]","18107.899999976158","","","","","","","",""
"","image-keyboard-response","2","23122","0.0-2.0","38SKSKU7R2JZIINDRYF7TGHVO6WILG","A41APS6V2Z1FJ","3WPCIUYH1AU470H2HRBLZRFBM3CTDN","","2178.899999976158","img/animal4.png","75","2180.099999964237","2","0","1","0.7,0,0.8,0.7,0.8,0,0.7,0.8,0",""
"","html-keyboard-response","3","23424","0.0-3.0","38SKSKU7R2JZIINDRYF7TGHVO6WILG","A41APS6V2Z1FJ","3WPCIUYH1AU470H2HRBLZRFBM3CTDN","","null","<img src=""img/animal4.png"" style=""width:200px;border:14px solid red;"">","null","","","","","",""
"","image-keyboard-response","4","24521","0.0-4.0","38SKSKU7R2JZIINDRYF7TGHVO6WILG","A41APS6V2Z1FJ","3WPCIUYH1AU470H2HRBLZRFBM3CTDN","","1095.5","img/animal6.png","74","1096.5","1","0","3","0.7,0,0.8,0.7,0.8,0,0.7,0.8,0",""
"","html-keyboard-response","5","24823","0.0-5.0","38SKSKU7R2JZIINDRYF7TGHVO6WILG","A41APS6V2Z1FJ","3WPCIUYH1AU470H2HRBLZRFBM3CTDN","","null","<img src=""img/animal6.png"" style=""width:200px;border:14px solid red;"">","null","","","","","",""
"","image-keyboard-response","6","25155","0.0-6.0","38SKSKU7R2JZIINDRYF7TGHVO6WILG","A41APS6V2Z1FJ","3WPCIUYH1AU470H2HRBLZRFBM3CTDN","","330.19999998807907","img/animal5.png","74","330.89999997615814","1","0","2","0.7,0,0.8,0.7,0.8,0,0.7,0.8,0",""
"","html-keyboard-response","7","25456","0.0-7.0","38SKSKU7R2JZIINDRYF7TGHVO6WILG","A41APS6V2Z1FJ","3WPCIUYH1AU470H2HRBLZRFBM3CTDN","","null","<img src=""img/animal5.png"" style=""width:200px;border:14px solid red;"">","null","","","","","",""
"","image-keyboard-response","8","25836","0.0-8.0","38SKSKU7R2JZIINDRYF7TGHVO6WILG","A41APS6V2Z1FJ","3WPCIUYH1AU470H2HRBLZRFBM3CTDN","","378.80000001192093","img/animal5.png","76","379.39999997615814","3","0","2","0.7,0,0.8,0.7,0.8,0,0.7,0.8,0",""
"","html-keyboard-response","9","26137","0.0-9.0","38SKSKU7R2JZIINDRYF7TGHVO6WILG","A41APS6V2Z1FJ","3WPCIUYH1AU470H2HRBLZRFBM3CTDN","","null","<img src=""img/animal5.png"" style=""width:200px;border:14px solid red;"">","null","","","","","",""
"","image-keyboard-response","10","26535","0.0-10.0","38SKSKU7R2JZIINDRYF7TGHVO6WILG","A41APS6V2Z1FJ","3WPCIUYH1AU470H2HRBLZRFBM3CTDN","","396.4000000357628","img/animal4.png","76","397.10000002384186","3","1","1","0.7,0,0.8,0.7,0.8,0,0.7,0.8,0",""
"","html-keyboard-response","11","26836","0.0-11.0","38SKSKU7R2JZIINDRYF7TGHVO6WILG","A41APS6V2Z1FJ","3WPCIUYH1AU470H2HRBLZRFBM3CTDN","","null","<img src=""img/animal4.png"" style=""width:200px; border:14px solid green;"">","null","","","","","",""
"","image-keyboard-response","12","27397","0.0-12.0","38SKSKU7R2JZIINDRYF7TGHVO6WILG","A41APS6V2Z1FJ","3WPCIUYH1AU470H2HRBLZRFBM3CTDN","","559.9000000357628","img/animal4.png","76","560.3999999761581","3","0","1","0.7,0,0.8,0.7,0.8,0,0.7,0.8,0",""
"","html-keyboard-response","13","27698","0.0-13.0","38SKSKU7R2JZIINDRYF7TGHVO6WILG","A41APS6V2Z1FJ","3WPCIUYH1AU470H2HRBLZRFBM3CTDN","","null","<img src=""img/animal4.png"" style=""width:200px;border:14px solid red;"">","null","","","","","",""
"","image-keyboard-response","14","28418","0.0-14.0","38SKSKU7R2JZIINDRYF7TGHVO6WILG","A41APS6V2Z1FJ","3WPCIUYH1AU470H2HRBLZRFBM3CTDN","","719.0999999642372","img/animal5.png","75","719.7000000476837","2","1","2","0.7,0,0.8,0.7,0.8,0,0.7,0.8,0",""
"","html-keyboard-response","15","28720","0.0-15.0","38SKSKU7R2JZIINDRYF7TGHVO6WILG","A41APS6V2Z1FJ","3WPCIUYH1AU470H2HRBLZRFBM3CTDN","","null","<img src=""img/animal5.png"" style=""width:200px; border:14px solid green;"">","null","","","","","",""
"","image-keyboard-response","16","29436","0.0-16.0","38SKSKU7R2JZIINDRYF7TGHVO6WILG","A41APS6V2Z1FJ","3WPCIUYH1AU470H2HRBLZRFBM3CTDN","","713.3999999761581","img/animal6.png","75","714.8000000119209","2","0","3","0.7,0,0.8,0.7,0.8,0,0.7,0.8,0",""
"","html-keyboard-response","17","29738","0.0-17.0","38SKSKU7R2JZIINDRYF7TGHVO6WILG","A41APS6V2Z1FJ","3WPCIUYH1AU470H2HRBLZRFBM3CTDN","","null","<img src=""img/animal6.png"" style=""width:200px;border:14px solid red;"">","null","","","","","",""
"","image-keyboard-response","18","30062","0.0-18.0","38SKSKU7R2JZIINDRYF7TGHVO6WILG","A41APS6V2Z1FJ","3WPCIUYH1AU470H2HRBLZRFBM3CTDN","","323.19999998807907","img/animal4.png","74","323.80000001192093","1","0","1","0.7,0,0.8,0.7,0.8,0,0.7,0.8,0",""
"","html-keyboard-response","19","30363","0.0-19.0","38SKSKU7R2JZIINDRYF7TGHVO6WILG","A41APS6V2Z1FJ","3WPCIUYH1AU470H2HRBLZRFBM3CTDN","","null","<img src=""img/animal4.png"" style=""width:200px;border:14px solid red;"">","null","","","","","",""
"","image-keyboard-response","20","30610","0.0-20.0","38SKSKU7R2JZIINDRYF7TGHVO6WILG","A41APS6V2Z1FJ","3WPCIUYH1AU470H2HRBLZRFBM3CTDN","","245.69999998807907","img/animal5.png","74","246.39999997615814","1","0","2","0.7,0,0.8,0.7,0.8,0,0.7,0.8,0",""
"","html-keyboard-response","21","30912","0.0-21.0","38SKSKU7R2JZIINDRYF7TGHVO6WILG","A41APS6V2Z1FJ","3WPCIUYH1AU470H2HRBLZRFBM3CTDN","","null","<img src=""img/animal5.png"" style=""width:200px;border:14px solid red;"">","null","","","","","",""
"","image-keyboard-response","22","31124","0.0-22.0","38SKSKU7R2JZIINDRYF7TGHVO6WILG","A41APS6V2Z1FJ","3WPCIUYH1AU470H2HRBLZRFBM3CTDN","","210.5","img/animal6.png","76","211.60000002384186","3","0","3","0.7,0,0.8,0.7,0.8,0,0.7,0.8,0",""
"","html-keyboard-response","23","31425","0.0-23.0","38SKSKU7R2JZIINDRYF7TGHVO6WILG","A41APS6V2Z1FJ","3WPCIUYH1AU470H2HRBLZRFBM3CTDN","","null","<img src=""img/animal6.png"" style=""width:200px;border:14px solid red;"">","null","","","","","",""
"","image-keyboard-response","24","31635","0.0-24.0","38SKSKU7R2JZIINDRYF7TGHVO6WILG","A41APS6V2Z1FJ","3WPCIUYH1AU470H2HRBLZRFBM3CTDN","","208.0999999642372","img/animal4.png","75","209.0999999642372","2","0","1","0.7,0,0.8,0.7,0.8,0,0.7,0.8,0",""
"","html-keyboard-response","25","31936","0.0-25.0","38SKSKU7R2JZIINDRYF7TGHVO6WILG","A41APS6V2Z1FJ","3WPCIUYH1AU470H2HRBLZRFBM3CTDN","","null","<img src=""img/animal4.png"" style=""width:200px;border:14px solid red;"">","null","","","","","",""
"","image-keyboard-response","26","32321","0.0-26.0","38SKSKU7R2JZIINDRYF7TGHVO6WILG","A41APS6V2Z1FJ","3WPCIUYH1AU470H2HRBLZRFBM3CTDN","","383.39999997615814","img/animal5.png","74","384","1","1","2","0.7,0,0.8,0.7,0.8,0,0.7,0.8,0",""
"","html-keyboard-response","27","32622","0.0-27.0","38SKSKU7R2JZIINDRYF7TGHVO6WILG","A41APS6V2Z1FJ","3WPCIUYH1AU470H2HRBLZRFBM3CTDN","","null","<img src=""img/animal5.png"" style=""width:200px; border:14px solid green;"">","null","","","","","",""
"","image-keyboard-response","28","32931","0.0-28.0","38SKSKU7R2JZIINDRYF7TGHVO6WILG","A41APS6V2Z1FJ","3WPCIUYH1AU470H2HRBLZRFBM3CTDN","","307.9000000357628","img/animal6.png","74","308.60000002384186","1","1","3","0.7,0,0.8,0.7,0.8,0,0.7,0.8,0",""
"","html-keyboard-response","29","33232","0.0-29.0","38SKSKU7R2JZIINDRYF7TGHVO6WILG","A41APS6V2Z1FJ","3WPCIUYH1AU470H2HRBLZRFBM3CTDN","","null","<img src=""img/animal6.png"" style=""width:200px; border:14px solid green;"">","null","","","","","",""
"","image-keyboard-response","30","33520","0.0-30.0","38SKSKU7R2JZIINDRYF7TGHVO6WILG","A41APS6V2Z1FJ","3WPCIUYH1AU470H2HRBLZRFBM3CTDN","","286.5999999642372","img/animal6.png","75","287.10000002384186","2","1","3","0.7,0,0.8,0.7,0.8,0,0.7,0.8,0",""
"","html-keyboard-response","31","33821","0.0-31.0","38SKSKU7R2JZIINDRYF7TGHVO6WILG","A41APS6V2Z1FJ","3WPCIUYH1AU470H2HRBLZRFBM3CTDN","","null","<img src=""img/animal6.png"" style=""width:200px; border:14px solid green;"">","null","","","","","",""
"","image-keyboard-response","32","33985","0.0-32.0","38SKSKU7R2JZIINDRYF7TGHVO6WILG","A41APS6V2Z1FJ","3WPCIUYH1AU470H2HRBLZRFBM3CTDN","","163","img/animal4.png","75","163.5","2","0","1","0.7,0,0.8,0.7,0.8,0,0.7,0.8,0",""
"","html-keyboard-response","33","34286","0.0-33.0","38SKSKU7R2JZIINDRYF7TGHVO6WILG","A41APS6V2Z1FJ","3WPCIUYH1AU470H2HRBLZRFBM3CTDN","","null","<img src=""img/animal4.png"" style=""width:200px;border:14px solid red;"">","null","","","","","",""
"","image-keyboard-response","34","34532","0.0-34.0","38SKSKU7R2JZIINDRYF7TGHVO6WILG","A41APS6V2Z1FJ","3WPCIUYH1AU470H2HRBLZRFBM3CTDN","","244.4000000357628","img/animal5.png","74","245","1","1","2","0.7,0,0.8,0.7,0.8,0,0.7,0.8,0",""
"","html-keyboard-response","35","34833","0.0-35.0","38SKSKU7R2JZIINDRYF7TGHVO6WILG","A41APS6V2Z1FJ","3WPCIUYH1AU470H2HRBLZRFBM3CTDN","","null","<img src=""img/animal5.png"" style=""width:200px; border:14px solid green;"">","null","","","","","",""
"","image-keyboard-response","36","35083","0.0-36.0","38SKSKU7R2JZIINDRYF7TGHVO6WILG","A41APS6V2Z1FJ","3WPCIUYH1AU470H2HRBLZRFBM3CTDN","","248.9000000357628","img/animal4.png","76","249.5","3","0","1","0.7,0,0.8,0.7,0.8,0,0.7,0.8,0",""
"","html-keyboard-response","37","35384","0.0-37.0","38SKSKU7R2JZIINDRYF7TGHVO6WILG","A41APS6V2Z1FJ","3WPCIUYH1AU470H2HRBLZRFBM3CTDN","","null","<img src=""img/animal4.png"" style=""width:200px;border:14px solid red;"">","null","","","","","",""
"","image-keyboard-response","38","35568","0.0-38.0","38SKSKU7R2JZIINDRYF7TGHVO6WILG","A41APS6V2Z1FJ","3WPCIUYH1AU470H2HRBLZRFBM3CTDN","","182.5","img/animal4.png","74","183.10000002384186","1","1","1","0.7,0,0.8,0.7,0.8,0,0.7,0.8,0",""
"","html-keyboard-response","39","35870","0.0-39.0","38SKSKU7R2JZIINDRYF7TGHVO6WILG","A41APS6V2Z1FJ","3WPCIUYH1AU470H2HRBLZRFBM3CTDN","","null","<img src=""img/animal4.png"" style=""width:200px; border:14px solid green;"">","null","","","","","",""
"","image-keyboard-response","40","36212","0.0-40.0","38SKSKU7R2JZIINDRYF7TGHVO6WILG","A41APS6V2Z1FJ","3WPCIUYH1AU470H2HRBLZRFBM3CTDN","","341.0999999642372","img/animal6.png","75","341.60000002384186","2","1","3","0.7,0,0.8,0.7,0.8,0,0.7,0.8,0",""
"","html-keyboard-response","41","36513","0.0-41.0","38SKSKU7R2JZIINDRYF7TGHVO6WILG","A41APS6V2Z1FJ","3WPCIUYH1AU470H2HRBLZRFBM3CTDN","","null","<img src=""img/animal6.png"" style=""width:200px; border:14px solid green;"">","null","","","","","",""
"","image-keyboard-response","42","36743","0.0-42.0","38SKSKU7R2JZIINDRYF7TGHVO6WILG","A41APS6V2Z1FJ","3WPCIUYH1AU470H2HRBLZRFBM3CTDN","","228.30000001192093","img/animal6.png","76","229","3","0","3","0.7,0,0.8,0.7,0.8,0,0.7,0.8,0",""
"","html-keyboard-response","43","37044","0.0-43.0","38SKSKU7R2JZIINDRYF7TGHVO6WILG","A41APS6V2Z1FJ","3WPCIUYH1AU470H2HRBLZRFBM3CTDN","","null","<img src=""img/animal6.png"" style=""width:200px;border:14px solid red;"">","null","","","","","",""
"","image-keyboard-response","44","37221","0.0-44.0","38SKSKU7R2JZIINDRYF7TGHVO6WILG","A41APS6V2Z1FJ","3WPCIUYH1AU470H2HRBLZRFBM3CTDN","","175.89999997615814","img/animal4.png","75","176.5","2","0","1","0.7,0,0.8,0.7,0.8,0,0.7,0.8,0",""
"","html-keyboard-response","45","37522","0.0-45.0","38SKSKU7R2JZIINDRYF7TGHVO6WILG","A41APS6V2Z1FJ","3WPCIUYH1AU470H2HRBLZRFBM3CTDN","","null","<img src=""img/animal4.png"" style=""width:200px;border:14px solid red;"">","null","","","","","",""
"","image-keyboard-response","46","37756","0.0-46.0","38SKSKU7R2JZIINDRYF7TGHVO6WILG","A41APS6V2Z1FJ","3WPCIUYH1AU470H2HRBLZRFBM3CTDN","","232.60000002384186","img/animal5.png","74","233.30000001192093","1","1","2","0.7,0,0.8,0.7,0.8,0,0.7,0.8,0",""
"","html-keyboard-response","47","38057","0.0-47.0","38SKSKU7R2JZIINDRYF7TGHVO6WILG","A41APS6V2Z1FJ","3WPCIUYH1AU470H2HRBLZRFBM3CTDN","","null","<img src=""img/animal5.png"" style=""width:200px; border:14px solid green;"">","null","","","","","",""
"","image-keyboard-response","48","38280","0.0-48.0","38SKSKU7R2JZIINDRYF7TGHVO6WILG","A41APS6V2Z1FJ","3WPCIUYH1AU470H2HRBLZRFBM3CTDN","","222","img/animal5.png","74","222.5999999642372","1","1","2","0.7,0,0.8,0.7,0.8,0,0.7,0.8,0",""
"","html-keyboard-response","49","38581","0.0-49.0","38SKSKU7R2JZIINDRYF7TGHVO6WILG","A41APS6V2Z1FJ","3WPCIUYH1AU470H2HRBLZRFBM3CTDN","","null","<img src=""img/animal5.png"" style=""width:200px; border:14px solid green;"">","null","","","","","",""
"","image-keyboard-response","50","38835","0.0-50.0","38SKSKU7R2JZIINDRYF7TGHVO6WILG","A41APS6V2Z1FJ","3WPCIUYH1AU470H2HRBLZRFBM3CTDN","","252.5999999642372","img/animal4.png","74","253.0999999642372","1","1","1","0.7,0,0.8,0.7,0.8,0,0.7,0.8,0",""
"","html-keyboard-response","51","39136","0.0-51.0","38SKSKU7R2JZIINDRYF7TGHVO6WILG","A41APS6V2Z1FJ","3WPCIUYH1AU470H2HRBLZRFBM3CTDN","","null","<img src=""img/animal4.png"" style=""width:200px; border:14px solid green;"">","null","","","","","",""
"","image-keyboard-response","52","39278","0.0-52.0","38SKSKU7R2JZIINDRYF7TGHVO6WILG","A41APS6V2Z1FJ","3WPCIUYH1AU470H2HRBLZRFBM3CTDN","","141.10000002384186","img/animal6.png","75","141.69999998807907","2","1","3","0.7,0,0.8,0.7,0.8,0,0.7,0.8,0",""
"","html-keyboard-response","53","39580","0.0-53.0","38SKSKU7R2JZIINDRYF7TGHVO6WILG","A41APS6V2Z1FJ","3WPCIUYH1AU470H2HRBLZRFBM3CTDN","","null","<img src=""img/animal6.png"" style=""width:200px; border:14px solid green;"">","null","","","","","",""
"","image-keyboard-response","54","39689","0.0-54.0","38SKSKU7R2JZIINDRYF7TGHVO6WILG","A41APS6V2Z1FJ","3WPCIUYH1AU470H2HRBLZRFBM3CTDN","","107.80000001192093","img/animal5.png","74","108.39999997615814","1","0","2","0.7,0,0.8,0.7,0.8,0,0.7,0.8,0",""
"","html-keyboard-response","55","39990","0.0-55.0","38SKSKU7R2JZIINDRYF7TGHVO6WILG","A41APS6V2Z1FJ","3WPCIUYH1AU470H2HRBLZRFBM3CTDN","","null","<img src=""img/animal5.png"" style=""width:200px;border:14px solid red;"">","null","","","","","",""
"","image-keyboard-response","56","40132","0.0-56.0","38SKSKU7R2JZIINDRYF7TGHVO6WILG","A41APS6V2Z1FJ","3WPCIUYH1AU470H2HRBLZRFBM3CTDN","","140.4000000357628","img/animal5.png","75","140.79999995231628","2","1","2","0.7,0,0.8,0.7,0.8,0,0.7,0.8,0",""
"","html-keyboard-response","57","40433","0.0-57.0","38SKSKU7R2JZIINDRYF7TGHVO6WILG","A41APS6V2Z1FJ","3WPCIUYH1AU470H2HRBLZRFBM3CTDN","","null","<img src=""img/animal5.png"" style=""width:200px; border:14px solid green;"">","null","","","","","",""
"","image-keyboard-response","58","40582","0.0-58.0","38SKSKU7R2JZIINDRYF7TGHVO6WILG","A41APS6V2Z1FJ","3WPCIUYH1AU470H2HRBLZRFBM3CTDN","","147.89999997615814","img/animal5.png","75","148.5","2","1","2","0.7,0,0.8,0.7,0.8,0,0.7,0.8,0",""
"","html-keyboard-response","59","40883","0.0-59.0","38SKSKU7R2JZIINDRYF7TGHVO6WILG","A41APS6V2Z1FJ","3WPCIUYH1AU470H2HRBLZRFBM3CTDN","","null","<img src=""img/animal5.png"" style=""width:200px; border:14px solid green;"">","null","","","","","",""
"","image-keyboard-response","60","41075","0.0-60.0","38SKSKU7R2JZIINDRYF7TGHVO6WILG","A41APS6V2Z1FJ","3WPCIUYH1AU470H2HRBLZRFBM3CTDN","","190.5","img/animal4.png","75","191.19999998807907","2","0","1","0.7,0,0.8,0.7,0.8,0,0.7,0.8,0",""
"","html-keyboard-response","61","41376","0.0-61.0","38SKSKU7R2JZIINDRYF7TGHVO6WILG","A41APS6V2Z1FJ","3WPCIUYH1AU470H2HRBLZRFBM3CTDN","","null","<img src=""img/animal4.png"" style=""width:200px;border:14px solid red;"">","null","","","","","",""
"","image-keyboard-response","62","41763","0.0-62.0","38SKSKU7R2JZIINDRYF7TGHVO6WILG","A41APS6V2Z1FJ","3WPCIUYH1AU470H2HRBLZRFBM3CTDN","","386.2999999523163","img/animal6.png","75","387","2","0","3","0.7,0,0.8,0.7,0.8,0,0.7,0.8,0",""
"","html-keyboard-response","63","42064","0.0-63.0","38SKSKU7R2JZIINDRYF7TGHVO6WILG","A41APS6V2Z1FJ","3WPCIUYH1AU470H2HRBLZRFBM3CTDN","","null","<img src=""img/animal6.png"" style=""width:200px;border:14px solid red;"">","null","","","","","",""
"","image-keyboard-response","64","42244","0.0-64.0","38SKSKU7R2JZIINDRYF7TGHVO6WILG","A41APS6V2Z1FJ","3WPCIUYH1AU470H2HRBLZRFBM3CTDN","","178.4000000357628","img/animal5.png","76","179.20000004768372","3","0","2","0.7,0,0.8,0.7,0.8,0,0.7,0.8,0",""
"","html-keyboard-response","65","42545","0.0-65.0","38SKSKU7R2JZIINDRYF7TGHVO6WILG","A41APS6V2Z1FJ","3WPCIUYH1AU470H2HRBLZRFBM3CTDN","","null","<img src=""img/animal5.png"" style=""width:200px;border:14px solid red;"">","null","","","","","",""
"","image-keyboard-response","66","42994","0.0-66.0","38SKSKU7R2JZIINDRYF7TGHVO6WILG","A41APS6V2Z1FJ","3WPCIUYH1AU470H2HRBLZRFBM3CTDN","","447.9000000357628","img/animal5.png","75","449","2","1","2","0.7,0,0.8,0.7,0.8,0,0.7,0.8,0",""
"","html-keyboard-response","67","43297","0.0-67.0","38SKSKU7R2JZIINDRYF7TGHVO6WILG","A41APS6V2Z1FJ","3WPCIUYH1AU470H2HRBLZRFBM3CTDN","","null","<img src=""img/animal5.png"" style=""width:200px; border:14px solid green;"">","null","","","","","",""
"","image-keyboard-response","68","43496","0.0-68.0","38SKSKU7R2JZIINDRYF7TGHVO6WILG","A41APS6V2Z1FJ","3WPCIUYH1AU470H2HRBLZRFBM3CTDN","","198.5","img/animal5.png","75","199","2","0","2","0.7,0,0.8,0.7,0.8,0,0.7,0.8,0",""
"","html-keyboard-response","69","43798","0.0-69.0","38SKSKU7R2JZIINDRYF7TGHVO6WILG","A41APS6V2Z1FJ","3WPCIUYH1AU470H2HRBLZRFBM3CTDN","","null","<img src=""img/animal5.png"" style=""width:200px;border:14px solid red;"">","null","","","","","",""
"","image-keyboard-response","70","44030","0.0-70.0","38SKSKU7R2JZIINDRYF7TGHVO6WILG","A41APS6V2Z1FJ","3WPCIUYH1AU470H2HRBLZRFBM3CTDN","","231.39999997615814","img/animal6.png","76","231.9000000357628","3","0","3","0.7,0,0.8,0.7,0.8,0,0.7,0.8,0",""
"","html-keyboard-response","71","44331","0.0-71.0","38SKSKU7R2JZIINDRYF7TGHVO6WILG","A41APS6V2Z1FJ","3WPCIUYH1AU470H2HRBLZRFBM3CTDN","","null","<img src=""img/animal6.png"" style=""width:200px;border:14px solid red;"">","null","","","","","",""
"","image-keyboard-response","72","44509","0.0-72.0","38SKSKU7R2JZIINDRYF7TGHVO6WILG","A41APS6V2Z1FJ","3WPCIUYH1AU470H2HRBLZRFBM3CTDN","","176.80000001192093","img/animal6.png","76","177.10000002384186","3","0","3","0.7,0,0.8,0.7,0.8,0,0.7,0.8,0",""
"","html-keyboard-response","73","44810","0.0-73.0","38SKSKU7R2JZIINDRYF7TGHVO6WILG","A41APS6V2Z1FJ","3WPCIUYH1AU470H2HRBLZRFBM3CTDN","","null","<img src=""img/animal6.png"" style=""width:200px;border:14px solid red;"">","null","","","","","",""
"","image-keyboard-response","74","45104","0.0-74.0","38SKSKU7R2JZIINDRYF7TGHVO6WILG","A41APS6V2Z1FJ","3WPCIUYH1AU470H2HRBLZRFBM3CTDN","","293.30000001192093","img/animal4.png","75","293.7999999523163","2","0","1","0.7,0,0.8,0.7,0.8,0,0.7,0.8,0",""
"","html-keyboard-response","75","45405","0.0-75.0","38SKSKU7R2JZIINDRYF7TGHVO6WILG","A41APS6V2Z1FJ","3WPCIUYH1AU470H2HRBLZRFBM3CTDN","","null","<img src=""img/animal4.png"" style=""width:200px;border:14px solid red;"">","null","","","","","",""
"","image-keyboard-response","76","45515","0.0-76.0","38SKSKU7R2JZIINDRYF7TGHVO6WILG","A41APS6V2Z1FJ","3WPCIUYH1AU470H2HRBLZRFBM3CTDN","","108.59999996423721","img/animal6.png","74","109.30000001192093","1","0","3","0.7,0,0.8,0.7,0.8,0,0.7,0.8,0",""
"","html-keyboard-response","77","45817","0.0-77.0","38SKSKU7R2JZIINDRYF7TGHVO6WILG","A41APS6V2Z1FJ","3WPCIUYH1AU470H2HRBLZRFBM3CTDN","","null","<img src=""img/animal6.png"" style=""width:200px;border:14px solid red;"">","null","","","","","",""
"","image-keyboard-response","78","45988","0.0-78.0","38SKSKU7R2JZIINDRYF7TGHVO6WILG","A41APS6V2Z1FJ","3WPCIUYH1AU470H2HRBLZRFBM3CTDN","","170.0999999642372","img/animal6.png","74","170.69999998807907","1","1","3","0.7,0,0.8,0.7,0.8,0,0.7,0.8,0",""
"","html-keyboard-response","79","46290","0.0-79.0","38SKSKU7R2JZIINDRYF7TGHVO6WILG","A41APS6V2Z1FJ","3WPCIUYH1AU470H2HRBLZRFBM3CTDN","","null","<img src=""img/animal6.png"" style=""width:200px; border:14px solid green;"">","null","","","","","",""
"","image-keyboard-response","80","46427","0.0-80.0","38SKSKU7R2JZIINDRYF7TGHVO6WILG","A41APS6V2Z1FJ","3WPCIUYH1AU470H2HRBLZRFBM3CTDN","","135.69999998807907","img/animal4.png","74","136.30000001192093","1","1","1","0.7,0,0.8,0.7,0.8,0,0.7,0.8,0",""
"","html-keyboard-response","81","46728","0.0-81.0","38SKSKU7R2JZIINDRYF7TGHVO6WILG","A41APS6V2Z1FJ","3WPCIUYH1AU470H2HRBLZRFBM3CTDN","","null","<img src=""img/animal4.png"" style=""width:200px; border:14px solid green;"">","null","","","","","",""
"","image-keyboard-response","82","46792","0.0-82.0","38SKSKU7R2JZIINDRYF7TGHVO6WILG","A41APS6V2Z1FJ","3WPCIUYH1AU470H2HRBLZRFBM3CTDN","","62.30000001192093","img/animal5.png","75","62.89999997615814","2","0","2","0.7,0,0.8,0.7,0.8,0,0.7,0.8,0",""
"","html-keyboard-response","83","47093","0.0-83.0","38SKSKU7R2JZIINDRYF7TGHVO6WILG","A41APS6V2Z1FJ","3WPCIUYH1AU470H2HRBLZRFBM3CTDN","","null","<img src=""img/animal5.png"" style=""width:200px;border:14px solid red;"">","null","","","","","",""
"","image-keyboard-response","84","47170","0.0-84.0","38SKSKU7R2JZIINDRYF7TGHVO6WILG","A41APS6V2Z1FJ","3WPCIUYH1AU470H2HRBLZRFBM3CTDN","","75.90000003576279","img/animal6.png","75","76.5","2","0","3","0.7,0,0.8,0.7,0.8,0,0.7,0.8,0",""
"","html-keyboard-response","85","47471","0.0-85.0","38SKSKU7R2JZIINDRYF7TGHVO6WILG","A41APS6V2Z1FJ","3WPCIUYH1AU470H2HRBLZRFBM3CTDN","","null","<img src=""img/animal6.png"" style=""width:200px;border:14px solid red;"">","null","","","","","",""
"","image-keyboard-response","86","47483","0.0-86.0","38SKSKU7R2JZIINDRYF7TGHVO6WILG","A41APS6V2Z1FJ","3WPCIUYH1AU470H2HRBLZRFBM3CTDN","","10.800000011920929","img/animal5.png","76","11.300000011920929","3","0","2","0.7,0,0.8,0.7,0.8,0,0.7,0.8,0",""
"","html-keyboard-response","87","47784","0.0-87.0","38SKSKU7R2JZIINDRYF7TGHVO6WILG","A41APS6V2Z1FJ","3WPCIUYH1AU470H2HRBLZRFBM3CTDN","","null","<img src=""img/animal5.png"" style=""width:200px;border:14px solid red;"">","null","","","","","",""
"","image-keyboard-response","88","47943","0.0-88.0","38SKSKU7R2JZIINDRYF7TGHVO6WILG","A41APS6V2Z1FJ","3WPCIUYH1AU470H2HRBLZRFBM3CTDN","","157.30000001192093","img/animal4.png","75","158","2","0","1","0.7,0,0.8,0.7,0.8,0,0.7,0.8,0",""
"","html-keyboard-response","89","48244","0.0-89.0","38SKSKU7R2JZIINDRYF7TGHVO6WILG","A41APS6V2Z1FJ","3WPCIUYH1AU470H2HRBLZRFBM3CTDN","","null","<img src=""img/animal4.png"" style=""width:200px;border:14px solid red;"">","null","","","","","",""
"","image-keyboard-response","90","48313","0.0-90.0","38SKSKU7R2JZIINDRYF7TGHVO6WILG","A41APS6V2Z1FJ","3WPCIUYH1AU470H2HRBLZRFBM3CTDN","","67.60000002384186","img/animal6.png","75","68.29999995231628","2","1","3","0.7,0,0.8,0.7,0.8,0,0.7,0.8,0",""
"","html-keyboard-response","91","48614","0.0-91.0","38SKSKU7R2JZIINDRYF7TGHVO6WILG","A41APS6V2Z1FJ","3WPCIUYH1AU470H2HRBLZRFBM3CTDN","","null","<img src=""img/animal6.png"" style=""width:200px; border:14px solid green;"">","null","","","","","",""
"","image-keyboard-response","92","48624","0.0-92.0","38SKSKU7R2JZIINDRYF7TGHVO6WILG","A41APS6V2Z1FJ","3WPCIUYH1AU470H2HRBLZRFBM3CTDN","","8.699999988079071","img/animal4.png","74","9.199999988079071","1","1","1","0.7,0,0.8,0.7,0.8,0,0.7,0.8,0",""
"","html-keyboard-response","93","48925","0.0-93.0","38SKSKU7R2JZIINDRYF7TGHVO6WILG","A41APS6V2Z1FJ","3WPCIUYH1AU470H2HRBLZRFBM3CTDN","","null","<img src=""img/animal4.png"" style=""width:200px; border:14px solid green;"">","null","","","","","",""
"","image-keyboard-response","94","48951","0.0-94.0","38SKSKU7R2JZIINDRYF7TGHVO6WILG","A41APS6V2Z1FJ","3WPCIUYH1AU470H2HRBLZRFBM3CTDN","","24.400000035762787","img/animal5.png","74","25","1","1","2","0.7,0,0.8,0.7,0.8,0,0.7,0.8,0",""
"","html-keyboard-response","95","49252","0.0-95.0","38SKSKU7R2JZIINDRYF7TGHVO6WILG","A41APS6V2Z1FJ","3WPCIUYH1AU470H2HRBLZRFBM3CTDN","","null","<img src=""img/animal5.png"" style=""width:200px; border:14px solid green;"">","null","","","","","",""
"","image-keyboard-response","96","49385","0.0-96.0","38SKSKU7R2JZIINDRYF7TGHVO6WILG","A41APS6V2Z1FJ","3WPCIUYH1AU470H2HRBLZRFBM3CTDN","","132.19999998807907","img/animal6.png","74","132.69999998807907","1","1","3","0.7,0,0.8,0.7,0.8,0,0.7,0.8,0",""
"","html-keyboard-response","97","49686","0.0-97.0","38SKSKU7R2JZIINDRYF7TGHVO6WILG","A41APS6V2Z1FJ","3WPCIUYH1AU470H2HRBLZRFBM3CTDN","","null","<img src=""img/animal6.png"" style=""width:200px; border:14px solid green;"">","null","","","","","",""
"","image-keyboard-response","98","49707","0.0-98.0","38SKSKU7R2JZIINDRYF7TGHVO6WILG","A41APS6V2Z1FJ","3WPCIUYH1AU470H2HRBLZRFBM3CTDN","","19.899999976158142","img/animal6.png","75","20.5","2","1","3","0.7,0,0.8,0.7,0.8,0,0.7,0.8,0",""
"","html-keyboard-response","99","50008","0.0-99.0","38SKSKU7R2JZIINDRYF7TGHVO6WILG","A41APS6V2Z1FJ","3WPCIUYH1AU470H2HRBLZRFBM3CTDN","","null","<img src=""img/animal6.png"" style=""width:200px; border:14px solid green;"">","null","","","","","",""
"","image-keyboard-response","100","50096","0.0-100.0","38SKSKU7R2JZIINDRYF7TGHVO6WILG","A41APS6V2Z1FJ","3WPCIUYH1AU470H2HRBLZRFBM3CTDN","","86.5","img/animal4.png","75","87","2","0","1","0.7,0,0.8,0.7,0.8,0,0.7,0.8,0",""
"","html-keyboard-response","101","50397","0.0-101.0","38SKSKU7R2JZIINDRYF7TGHVO6WILG","A41APS6V2Z1FJ","3WPCIUYH1AU470H2HRBLZRFBM3CTDN","","null","<img src=""img/animal4.png"" style=""width:200px;border:14px solid red;"">","null","","","","","",""
"","image-keyboard-response","102","50475","0.0-102.0","38SKSKU7R2JZIINDRYF7TGHVO6WILG","A41APS6V2Z1FJ","3WPCIUYH1AU470H2HRBLZRFBM3CTDN","","77.19999998807907","img/animal5.png","76","77.69999998807907","3","0","2","0.7,0,0.8,0.7,0.8,0,0.7,0.8,0",""
"","html-keyboard-response","103","50776","0.0-103.0","38SKSKU7R2JZIINDRYF7TGHVO6WILG","A41APS6V2Z1FJ","3WPCIUYH1AU470H2HRBLZRFBM3CTDN","","null","<img src=""img/animal5.png"" style=""width:200px;border:14px solid red;"">","null","","","","","",""
"","image-keyboard-response","104","51188","0.0-104.0","38SKSKU7R2JZIINDRYF7TGHVO6WILG","A41APS6V2Z1FJ","3WPCIUYH1AU470H2HRBLZRFBM3CTDN","","410.89999997615814","img/animal6.png","75","411.39999997615814","2","1","3","0.7,0,0.8,0.7,0.8,0,0.7,0.8,0",""
"","html-keyboard-response","105","51489","0.0-105.0","38SKSKU7R2JZIINDRYF7TGHVO6WILG","A41APS6V2Z1FJ","3WPCIUYH1AU470H2HRBLZRFBM3CTDN","","null","<img src=""img/animal6.png"" style=""width:200px; border:14px solid green;"">","null","","","","","",""
"","image-keyboard-response","106","51679","0.0-106.0","38SKSKU7R2JZIINDRYF7TGHVO6WILG","A41APS6V2Z1FJ","3WPCIUYH1AU470H2HRBLZRFBM3CTDN","","189","img/animal4.png","74","189.80000001192093","1","1","1","0.7,0,0.8,0.7,0.8,0,0.7,0.8,0",""
"","html-keyboard-response","107","51980","0.0-107.0","38SKSKU7R2JZIINDRYF7TGHVO6WILG","A41APS6V2Z1FJ","3WPCIUYH1AU470H2HRBLZRFBM3CTDN","","null","<img src=""img/animal4.png"" style=""width:200px; border:14px solid green;"">","null","","","","","",""
"","image-keyboard-response","108","52007","0.0-108.0","38SKSKU7R2JZIINDRYF7TGHVO6WILG","A41APS6V2Z1FJ","3WPCIUYH1AU470H2HRBLZRFBM3CTDN","","25.19999998807907","img/animal5.png","74","26","1","1","2","0.7,0,0.8,0.7,0.8,0,0.7,0.8,0",""
"","html-keyboard-response","109","52308","0.0-109.0","38SKSKU7R2JZIINDRYF7TGHVO6WILG","A41APS6V2Z1FJ","3WPCIUYH1AU470H2HRBLZRFBM3CTDN","","null","<img src=""img/animal5.png"" style=""width:200px; border:14px solid green;"">","null","","","","","",""
"","image-keyboard-response","110","52645","0.0-110.0","38SKSKU7R2JZIINDRYF7TGHVO6WILG","A41APS6V2Z1FJ","3WPCIUYH1AU470H2HRBLZRFBM3CTDN","","335.4000000357628","img/animal6.png","76","336","3","0","3","0.7,0,0.8,0.7,0.8,0,0.7,0.8,0",""
"","html-keyboard-response","111","52946","0.0-111.0","38SKSKU7R2JZIINDRYF7TGHVO6WILG","A41APS6V2Z1FJ","3WPCIUYH1AU470H2HRBLZRFBM3CTDN","","null","<img src=""img/animal6.png"" style=""width:200px;border:14px solid red;"">","null","","","","","",""
"","image-keyboard-response","112","53021","0.0-112.0","38SKSKU7R2JZIINDRYF7TGHVO6WILG","A41APS6V2Z1FJ","3WPCIUYH1AU470H2HRBLZRFBM3CTDN","","73.80000001192093","img/animal4.png","75","74.39999997615814","2","0","1","0.7,0,0.8,0.7,0.8,0,0.7,0.8,0",""
"","html-keyboard-response","113","53322","0.0-113.0","38SKSKU7R2JZIINDRYF7TGHVO6WILG","A41APS6V2Z1FJ","3WPCIUYH1AU470H2HRBLZRFBM3CTDN","","null","<img src=""img/animal4.png"" style=""width:200px;border:14px solid red;"">","null","","","","","",""
"","image-keyboard-response","114","53487","0.0-114.0","38SKSKU7R2JZIINDRYF7TGHVO6WILG","A41APS6V2Z1FJ","3WPCIUYH1AU470H2HRBLZRFBM3CTDN","","163.5999999642372","img/animal6.png","74","164.19999998807907","1","1","3","0.7,0,0.8,0.7,0.8,0,0.7,0.8,0",""
"","html-keyboard-response","115","53788","0.0-115.0","38SKSKU7R2JZIINDRYF7TGHVO6WILG","A41APS6V2Z1FJ","3WPCIUYH1AU470H2HRBLZRFBM3CTDN","","null","<img src=""img/animal6.png"" style=""width:200px; border:14px solid green;"">","null","","","","","",""
"","image-keyboard-response","116","54104","0.0-116.0","38SKSKU7R2JZIINDRYF7TGHVO6WILG","A41APS6V2Z1FJ","3WPCIUYH1AU470H2HRBLZRFBM3CTDN","","315","img/animal4.png","74","315.5999999642372","1","1","1","0.7,0,0.8,0.7,0.8,0,0.7,0.8,0",""
"","html-keyboard-response","117","54405","0.0-117.0","38SKSKU7R2JZIINDRYF7TGHVO6WILG","A41APS6V2Z1FJ","3WPCIUYH1AU470H2HRBLZRFBM3CTDN","","null","<img src=""img/animal4.png"" style=""width:200px; border:14px solid green;"">","null","","","","","",""
"","image-keyboard-response","118","54567","0.0-118.0","38SKSKU7R2JZIINDRYF7TGHVO6WILG","A41APS6V2Z1FJ","3WPCIUYH1AU470H2HRBLZRFBM3CTDN","","161","img/animal6.png","75","161.60000002384186","2","1","3","0.7,0,0.8,0.7,0.8,0,0.7,0.8,0",""
"","html-keyboard-response","119","54868","0.0-119.0","38SKSKU7R2JZIINDRYF7TGHVO6WILG","A41APS6V2Z1FJ","3WPCIUYH1AU470H2HRBLZRFBM3CTDN","","null","<img src=""img/animal6.png"" style=""width:200px; border:14px solid green;"">","null","","","","","",""
"","image-keyboard-response","120","54957","0.0-120.0","38SKSKU7R2JZIINDRYF7TGHVO6WILG","A41APS6V2Z1FJ","3WPCIUYH1AU470H2HRBLZRFBM3CTDN","","87","img/animal4.png","76","88","3","1","1","0.7,0,0.8,0.7,0.8,0,0.7,0.8,0",""
"","html-keyboard-response","121","55259","0.0-121.0","38SKSKU7R2JZIINDRYF7TGHVO6WILG","A41APS6V2Z1FJ","3WPCIUYH1AU470H2HRBLZRFBM3CTDN","","null","<img src=""img/animal4.png"" style=""width:200px; border:14px solid green;"">","null","","","","","",""
"","image-keyboard-response","122","55401","0.0-122.0","38SKSKU7R2JZIINDRYF7TGHVO6WILG","A41APS6V2Z1FJ","3WPCIUYH1AU470H2HRBLZRFBM3CTDN","","141.29999995231628","img/animal5.png","75","142","2","1","2","0.7,0,0.8,0.7,0.8,0,0.7,0.8,0",""
"","html-keyboard-response","123","55704","0.0-123.0","38SKSKU7R2JZIINDRYF7TGHVO6WILG","A41APS6V2Z1FJ","3WPCIUYH1AU470H2HRBLZRFBM3CTDN","","null","<img src=""img/animal5.png"" style=""width:200px; border:14px solid green;"">","null","","","","","",""
"","image-keyboard-response","124","55864","0.0-124.0","38SKSKU7R2JZIINDRYF7TGHVO6WILG","A41APS6V2Z1FJ","3WPCIUYH1AU470H2HRBLZRFBM3CTDN","","159.19999998807907","img/animal6.png","74","159.69999998807907","1","1","3","0.7,0,0.8,0.7,0.8,0,0.7,0.8,0",""
"","html-keyboard-response","125","56166","0.0-125.0","38SKSKU7R2JZIINDRYF7TGHVO6WILG","A41APS6V2Z1FJ","3WPCIUYH1AU470H2HRBLZRFBM3CTDN","","null","<img src=""img/animal6.png"" style=""width:200px; border:14px solid green;"">","null","","","","","",""
"","image-keyboard-response","126","56754","0.0-126.0","38SKSKU7R2JZIINDRYF7TGHVO6WILG","A41APS6V2Z1FJ","3WPCIUYH1AU470H2HRBLZRFBM3CTDN","","587.1000000238419","img/animal5.png","74","587.6999999880791","1","1","2","0.7,0,0.8,0.7,0.8,0,0.7,0.8,0",""
"","html-keyboard-response","127","57056","0.0-127.0","38SKSKU7R2JZIINDRYF7TGHVO6WILG","A41APS6V2Z1FJ","3WPCIUYH1AU470H2HRBLZRFBM3CTDN","","null","<img src=""img/animal5.png"" style=""width:200px; border:14px solid green;"">","null","","","","","",""
"","image-keyboard-response","128","57558","0.0-128.0","38SKSKU7R2JZIINDRYF7TGHVO6WILG","A41APS6V2Z1FJ","3WPCIUYH1AU470H2HRBLZRFBM3CTDN","","500.60000002384186","img/animal6.png","75","501.19999998807907","2","1","3","0.7,0,0.8,0.7,0.8,0,0.7,0.8,0",""
"","html-keyboard-response","129","57859","0.0-129.0","38SKSKU7R2JZIINDRYF7TGHVO6WILG","A41APS6V2Z1FJ","3WPCIUYH1AU470H2HRBLZRFBM3CTDN","","null","<img src=""img/animal6.png"" style=""width:200px; border:14px solid green;"">","null","","","","","",""
"","image-keyboard-response","130","57986","0.0-130.0","38SKSKU7R2JZIINDRYF7TGHVO6WILG","A41APS6V2Z1FJ","3WPCIUYH1AU470H2HRBLZRFBM3CTDN","","125.69999998807907","img/animal6.png","75","126.30000001192093","2","1","3","0.7,0,0.8,0.7,0.8,0,0.7,0.8,0",""
"","html-keyboard-response","131","58287","0.0-131.0","38SKSKU7R2JZIINDRYF7TGHVO6WILG","A41APS6V2Z1FJ","3WPCIUYH1AU470H2HRBLZRFBM3CTDN","","null","<img src=""img/animal6.png"" style=""width:200px; border:14px solid green;"">","null","","","","","",""
"","image-keyboard-response","132","58455","0.0-132.0","38SKSKU7R2JZIINDRYF7TGHVO6WILG","A41APS6V2Z1FJ","3WPCIUYH1AU470H2HRBLZRFBM3CTDN","","167.10000002384186","img/animal6.png","76","167.80000001192093","3","0","3","0.7,0,0.8,0.7,0.8,0,0.7,0.8,0",""
"","html-keyboard-response","133","58756","0.0-133.0","38SKSKU7R2JZIINDRYF7TGHVO6WILG","A41APS6V2Z1FJ","3WPCIUYH1AU470H2HRBLZRFBM3CTDN","","null","<img src=""img/animal6.png"" style=""width:200px;border:14px solid red;"">","null","","","","","",""
"","image-keyboard-response","134","58957","0.0-134.0","38SKSKU7R2JZIINDRYF7TGHVO6WILG","A41APS6V2Z1FJ","3WPCIUYH1AU470H2HRBLZRFBM3CTDN","","200","img/animal4.png","75","200.5","2","0","1","0.7,0,0.8,0.7,0.8,0,0.7,0.8,0",""
"","html-keyboard-response","135","59259","0.0-135.0","38SKSKU7R2JZIINDRYF7TGHVO6WILG","A41APS6V2Z1FJ","3WPCIUYH1AU470H2HRBLZRFBM3CTDN","","null","<img src=""img/animal4.png"" style=""width:200px;border:14px solid red;"">","null","","","","","",""
"","image-keyboard-response","136","59419","0.0-136.0","38SKSKU7R2JZIINDRYF7TGHVO6WILG","A41APS6V2Z1FJ","3WPCIUYH1AU470H2HRBLZRFBM3CTDN","","158.5","img/animal5.png","74","159.19999998807907","1","1","2","0.7,0,0.8,0.7,0.8,0,0.7,0.8,0",""
"","html-keyboard-response","137","59720","0.0-137.0","38SKSKU7R2JZIINDRYF7TGHVO6WILG","A41APS6V2Z1FJ","3WPCIUYH1AU470H2HRBLZRFBM3CTDN","","null","<img src=""img/animal5.png"" style=""width:200px; border:14px solid green;"">","null","","","","","",""
"","image-keyboard-response","138","59948","0.0-138.0","38SKSKU7R2JZIINDRYF7TGHVO6WILG","A41APS6V2Z1FJ","3WPCIUYH1AU470H2HRBLZRFBM3CTDN","","226.80000001192093","img/animal5.png","74","227.5","1","1","2","0.7,0,0.8,0.7,0.8,0,0.7,0.8,0",""
"","html-keyboard-response","139","60249","0.0-139.0","38SKSKU7R2JZIINDRYF7TGHVO6WILG","A41APS6V2Z1FJ","3WPCIUYH1AU470H2HRBLZRFBM3CTDN","","null","<img src=""img/animal5.png"" style=""width:200px; border:14px solid green;"">","null","","","","","",""
"","image-keyboard-response","140","60414","0.0-140.0","38SKSKU7R2JZIINDRYF7TGHVO6WILG","A41APS6V2Z1FJ","3WPCIUYH1AU470H2HRBLZRFBM3CTDN","","164.0999999642372","img/animal4.png","74","164.80000001192093","1","1","1","0.7,0,0.8,0.7,0.8,0,0.7,0.8,0",""
"","html-keyboard-response","141","60715","0.0-141.0","38SKSKU7R2JZIINDRYF7TGHVO6WILG","A41APS6V2Z1FJ","3WPCIUYH1AU470H2HRBLZRFBM3CTDN","","null","<img src=""img/animal4.png"" style=""width:200px; border:14px solid green;"">","null","","","","","",""
"","image-keyboard-response","142","61023","0.0-142.0","38SKSKU7R2JZIINDRYF7TGHVO6WILG","A41APS6V2Z1FJ","3WPCIUYH1AU470H2HRBLZRFBM3CTDN","","306.4000000357628","img/animal4.png","74","307.19999998807907","1","1","1","0.7,0,0.8,0.7,0.8,0,0.7,0.8,0",""
"","html-keyboard-response","143","61324","0.0-143.0","38SKSKU7R2JZIINDRYF7TGHVO6WILG","A41APS6V2Z1FJ","3WPCIUYH1AU470H2HRBLZRFBM3CTDN","","null","<img src=""img/animal4.png"" style=""width:200px; border:14px solid green;"">","null","","","","","",""
"","image-keyboard-response","144","61460","0.0-144.0","38SKSKU7R2JZIINDRYF7TGHVO6WILG","A41APS6V2Z1FJ","3WPCIUYH1AU470H2HRBLZRFBM3CTDN","","134.69999998807907","img/animal5.png","74","135.19999998807907","1","0","2","0.7,0,0.8,0.7,0.8,0,0.7,0.8,0",""
"","html-keyboard-response","145","61761","0.0-145.0","38SKSKU7R2JZIINDRYF7TGHVO6WILG","A41APS6V2Z1FJ","3WPCIUYH1AU470H2HRBLZRFBM3CTDN","","null","<img src=""img/animal5.png"" style=""width:200px;border:14px solid red;"">","null","","","","","",""
"","image-keyboard-response","146","61919","0.0-146.0","38SKSKU7R2JZIINDRYF7TGHVO6WILG","A41APS6V2Z1FJ","3WPCIUYH1AU470H2HRBLZRFBM3CTDN","","157.19999998807907","img/animal6.png","75","157.89999997615814","2","1","3","0.7,0,0.8,0.7,0.8,0,0.7,0.8,0",""
"","html-keyboard-response","147","62220","0.0-147.0","38SKSKU7R2JZIINDRYF7TGHVO6WILG","A41APS6V2Z1FJ","3WPCIUYH1AU470H2HRBLZRFBM3CTDN","","null","<img src=""img/animal6.png"" style=""width:200px; border:14px solid green;"">","null","","","","","",""
"","image-keyboard-response","148","62390","0.0-148.0","38SKSKU7R2JZIINDRYF7TGHVO6WILG","A41APS6V2Z1FJ","3WPCIUYH1AU470H2HRBLZRFBM3CTDN","","168.5","img/animal5.png","75","169.0999999642372","2","1","2","0.7,0,0.8,0.7,0.8,0,0.7,0.8,0",""
"","html-keyboard-response","149","62691","0.0-149.0","38SKSKU7R2JZIINDRYF7TGHVO6WILG","A41APS6V2Z1FJ","3WPCIUYH1AU470H2HRBLZRFBM3CTDN","","null","<img src=""img/animal5.png"" style=""width:200px; border:14px solid green;"">","null","","","","","",""
"","image-keyboard-response","150","62881","0.0-150.0","38SKSKU7R2JZIINDRYF7TGHVO6WILG","A41APS6V2Z1FJ","3WPCIUYH1AU470H2HRBLZRFBM3CTDN","","189.19999998807907","img/animal5.png","75","189.69999998807907","2","1","2","0.7,0,0.8,0.7,0.8,0,0.7,0.8,0",""
"","html-keyboard-response","151","63183","0.0-151.0","38SKSKU7R2JZIINDRYF7TGHVO6WILG","A41APS6V2Z1FJ","3WPCIUYH1AU470H2HRBLZRFBM3CTDN","","null","<img src=""img/animal5.png"" style=""width:200px; border:14px solid green;"">","null","","","","","",""
"","image-keyboard-response","152","63340","0.0-152.0","38SKSKU7R2JZIINDRYF7TGHVO6WILG","A41APS6V2Z1FJ","3WPCIUYH1AU470H2HRBLZRFBM3CTDN","","155.9000000357628","img/animal4.png","75","156.39999997615814","2","0","1","0.7,0,0.8,0.7,0.8,0,0.7,0.8,0",""
"","html-keyboard-response","153","63641","0.0-153.0","38SKSKU7R2JZIINDRYF7TGHVO6WILG","A41APS6V2Z1FJ","3WPCIUYH1AU470H2HRBLZRFBM3CTDN","","null","<img src=""img/animal4.png"" style=""width:200px;border:14px solid red;"">","null","","","","","",""
"","image-keyboard-response","154","63792","0.0-154.0","38SKSKU7R2JZIINDRYF7TGHVO6WILG","A41APS6V2Z1FJ","3WPCIUYH1AU470H2HRBLZRFBM3CTDN","","149.5","img/animal6.png","75","150.30000001192093","2","0","3","0.7,0,0.8,0.7,0.8,0,0.7,0.8,0",""
"","html-keyboard-response","155","64093","0.0-155.0","38SKSKU7R2JZIINDRYF7TGHVO6WILG","A41APS6V2Z1FJ","3WPCIUYH1AU470H2HRBLZRFBM3CTDN","","null","<img src=""img/animal6.png"" style=""width:200px;border:14px solid red;"">","null","","","","","",""
"","image-keyboard-response","156","64164","0.0-156.0","38SKSKU7R2JZIINDRYF7TGHVO6WILG","A41APS6V2Z1FJ","3WPCIUYH1AU470H2HRBLZRFBM3CTDN","","69.89999997615814","img/animal5.png","76","70.5","3","0","2","0.7,0,0.8,0.7,0.8,0,0.7,0.8,0",""
"","html-keyboard-response","157","64465","0.0-157.0","38SKSKU7R2JZIINDRYF7TGHVO6WILG","A41APS6V2Z1FJ","3WPCIUYH1AU470H2HRBLZRFBM3CTDN","","null","<img src=""img/animal5.png"" style=""width:200px;border:14px solid red;"">","null","","","","","",""
"","image-keyboard-response","158","64613","0.0-158.0","38SKSKU7R2JZIINDRYF7TGHVO6WILG","A41APS6V2Z1FJ","3WPCIUYH1AU470H2HRBLZRFBM3CTDN","","146.19999998807907","img/animal6.png","76","146.89999997615814","3","0","3","0.7,0,0.8,0.7,0.8,0,0.7,0.8,0",""
"","html-keyboard-response","159","64914","0.0-159.0","38SKSKU7R2JZIINDRYF7TGHVO6WILG","A41APS6V2Z1FJ","3WPCIUYH1AU470H2HRBLZRFBM3CTDN","","null","<img src=""img/animal6.png"" style=""width:200px;border:14px solid red;"">","null","","","","","",""
"","image-keyboard-response","160","65029","0.0-160.0","38SKSKU7R2JZIINDRYF7TGHVO6WILG","A41APS6V2Z1FJ","3WPCIUYH1AU470H2HRBLZRFBM3CTDN","","114.10000002384186","img/animal4.png","76","114.69999998807907","3","0","1","0.7,0,0.8,0.7,0.8,0,0.7,0.8,0",""
"","html-keyboard-response","161","65330","0.0-161.0","38SKSKU7R2JZIINDRYF7TGHVO6WILG","A41APS6V2Z1FJ","3WPCIUYH1AU470H2HRBLZRFBM3CTDN","","null","<img src=""img/animal4.png"" style=""width:200px;border:14px solid red;"">","null","","","","","",""
"","image-keyboard-response","162","65425","0.0-162.0","38SKSKU7R2JZIINDRYF7TGHVO6WILG","A41APS6V2Z1FJ","3WPCIUYH1AU470H2HRBLZRFBM3CTDN","","93.79999995231628","img/animal4.png","75","94.40000003576279","2","0","1","0.7,0,0.8,0.7,0.8,0,0.7,0.8,0",""
"","html-keyboard-response","163","65726","0.0-163.0","38SKSKU7R2JZIINDRYF7TGHVO6WILG","A41APS6V2Z1FJ","3WPCIUYH1AU470H2HRBLZRFBM3CTDN","","null","<img src=""img/animal4.png"" style=""width:200px;border:14px solid red;"">","null","","","","","",""
"","image-keyboard-response","164","65850","0.0-164.0","38SKSKU7R2JZIINDRYF7TGHVO6WILG","A41APS6V2Z1FJ","3WPCIUYH1AU470H2HRBLZRFBM3CTDN","","122.30000001192093","img/animal5.png","75","123","2","1","2","0.7,0,0.8,0.7,0.8,0,0.7,0.8,0",""
"","html-keyboard-response","165","66151","0.0-165.0","38SKSKU7R2JZIINDRYF7TGHVO6WILG","A41APS6V2Z1FJ","3WPCIUYH1AU470H2HRBLZRFBM3CTDN","","null","<img src=""img/animal5.png"" style=""width:200px; border:14px solid green;"">","null","","","","","",""
"","image-keyboard-response","166","66281","0.0-166.0","38SKSKU7R2JZIINDRYF7TGHVO6WILG","A41APS6V2Z1FJ","3WPCIUYH1AU470H2HRBLZRFBM3CTDN","","129","img/animal4.png","74","129.5999999642372","1","0","1","0.7,0,0.8,0.7,0.8,0,0.7,0.8,0",""
"","html-keyboard-response","167","66582","0.0-167.0","38SKSKU7R2JZIINDRYF7TGHVO6WILG","A41APS6V2Z1FJ","3WPCIUYH1AU470H2HRBLZRFBM3CTDN","","null","<img src=""img/animal4.png"" style=""width:200px;border:14px solid red;"">","null","","","","","",""
"","image-keyboard-response","168","66694","0.0-168.0","38SKSKU7R2JZIINDRYF7TGHVO6WILG","A41APS6V2Z1FJ","3WPCIUYH1AU470H2HRBLZRFBM3CTDN","","110.40000003576279","img/animal5.png","74","111","1","0","2","0.7,0,0.8,0.7,0.8,0,0.7,0.8,0",""
"","html-keyboard-response","169","66995","0.0-169.0","38SKSKU7R2JZIINDRYF7TGHVO6WILG","A41APS6V2Z1FJ","3WPCIUYH1AU470H2HRBLZRFBM3CTDN","","null","<img src=""img/animal5.png"" style=""width:200px;border:14px solid red;"">","null","","","","","",""
"","image-keyboard-response","170","67063","0.0-170.0","38SKSKU7R2JZIINDRYF7TGHVO6WILG","A41APS6V2Z1FJ","3WPCIUYH1AU470H2HRBLZRFBM3CTDN","","67","img/animal4.png","75","67.60000002384186","2","0","1","0.7,0,0.8,0.7,0.8,0,0.7,0.8,0",""
"","html-keyboard-response","171","67364","0.0-171.0","38SKSKU7R2JZIINDRYF7TGHVO6WILG","A41APS6V2Z1FJ","3WPCIUYH1AU470H2HRBLZRFBM3CTDN","","null","<img src=""img/animal4.png"" style=""width:200px;border:14px solid red;"">","null","","","","","",""
"","image-keyboard-response","172","67507","0.0-172.0","38SKSKU7R2JZIINDRYF7TGHVO6WILG","A41APS6V2Z1FJ","3WPCIUYH1AU470H2HRBLZRFBM3CTDN","","141.5","img/animal5.png","75","142.10000002384186","2","1","2","0.7,0,0.8,0.7,0.8,0,0.7,0.8,0",""
"","html-keyboard-response","173","67808","0.0-173.0","38SKSKU7R2JZIINDRYF7TGHVO6WILG","A41APS6V2Z1FJ","3WPCIUYH1AU470H2HRBLZRFBM3CTDN","","null","<img src=""img/animal5.png"" style=""width:200px; border:14px solid green;"">","null","","","","","",""
"","image-keyboard-response","174","67928","0.0-174.0","38SKSKU7R2JZIINDRYF7TGHVO6WILG","A41APS6V2Z1FJ","3WPCIUYH1AU470H2HRBLZRFBM3CTDN","","118.5","img/animal4.png","75","119.10000002384186","2","0","1","0.7,0,0.8,0.7,0.8,0,0.7,0.8,0",""
"","html-keyboard-response","175","68229","0.0-175.0","38SKSKU7R2JZIINDRYF7TGHVO6WILG","A41APS6V2Z1FJ","3WPCIUYH1AU470H2HRBLZRFBM3CTDN","","null","<img src=""img/animal4.png"" style=""width:200px;border:14px solid red;"">","null","","","","","",""
"","image-keyboard-response","176","68299","0.0-176.0","38SKSKU7R2JZIINDRYF7TGHVO6WILG","A41APS6V2Z1FJ","3WPCIUYH1AU470H2HRBLZRFBM3CTDN","","68.80000001192093","img/animal6.png","74","69.30000001192093","1","1","3","0.7,0,0.8,0.7,0.8,0,0.7,0.8,0",""
"","html-keyboard-response","177","68600","0.0-177.0","38SKSKU7R2JZIINDRYF7TGHVO6WILG","A41APS6V2Z1FJ","3WPCIUYH1AU470H2HRBLZRFBM3CTDN","","null","<img src=""img/animal6.png"" style=""width:200px; border:14px solid green;"">","null","","","","","",""
"","image-keyboard-response","178","68650","0.0-178.0","38SKSKU7R2JZIINDRYF7TGHVO6WILG","A41APS6V2Z1FJ","3WPCIUYH1AU470H2HRBLZRFBM3CTDN","","48.40000003576279","img/animal6.png","76","49","3","0","3","0.7,0,0.8,0.7,0.8,0,0.7,0.8,0",""
"","html-keyboard-response","179","68951","0.0-179.0","38SKSKU7R2JZIINDRYF7TGHVO6WILG","A41APS6V2Z1FJ","3WPCIUYH1AU470H2HRBLZRFBM3CTDN","","null","<img src=""img/animal6.png"" style=""width:200px;border:14px solid red;"">","null","","","","","",""
"","image-keyboard-response","180","69050","0.0-180.0","38SKSKU7R2JZIINDRYF7TGHVO6WILG","A41APS6V2Z1FJ","3WPCIUYH1AU470H2HRBLZRFBM3CTDN","","98.10000002384186","img/animal4.png","75","98.69999998807907","2","0","1","0.7,0,0.8,0.7,0.8,0,0.7,0.8,0",""
"","html-keyboard-response","181","69351","0.0-181.0","38SKSKU7R2JZIINDRYF7TGHVO6WILG","A41APS6V2Z1FJ","3WPCIUYH1AU470H2HRBLZRFBM3CTDN","","null","<img src=""img/animal4.png"" style=""width:200px;border:14px solid red;"">","null","","","","","",""
"","html-keyboard-response","182","71480","0.0-182.0","38SKSKU7R2JZIINDRYF7TGHVO6WILG","A41APS6V2Z1FJ","3WPCIUYH1AU470H2HRBLZRFBM3CTDN","","","","","","","","","",""
"","image-keyboard-response","183","73043","0.0-183.0","38SKSKU7R2JZIINDRYF7TGHVO6WILG","A41APS6V2Z1FJ","3WPCIUYH1AU470H2HRBLZRFBM3CTDN","","1561.8999999761581","img/animal3.png","74","1562.5","1","0","3","0.5,0,1,1,0.5,0,0,1,0.5",""
"","html-keyboard-response","184","73345","0.0-184.0","38SKSKU7R2JZIINDRYF7TGHVO6WILG","A41APS6V2Z1FJ","3WPCIUYH1AU470H2HRBLZRFBM3CTDN","","null","<img src=""img/animal3.png"" style=""width:200px;border:14px solid red;"">","null","","","","","",""
"","image-keyboard-response","185","73475","0.0-185.0","38SKSKU7R2JZIINDRYF7TGHVO6WILG","A41APS6V2Z1FJ","3WPCIUYH1AU470H2HRBLZRFBM3CTDN","","128.80000001192093","img/animal1.png","74","129.5","1","1","2","0.5,0,1,1,0.5,0,0,1,0.5",""
"","html-keyboard-response","186","73776","0.0-186.0","38SKSKU7R2JZIINDRYF7TGHVO6WILG","A41APS6V2Z1FJ","3WPCIUYH1AU470H2HRBLZRFBM3CTDN","","null","<img src=""img/animal1.png"" style=""width:200px; border:14px solid green;"">","null","","","","","",""
"","image-keyboard-response","187","73842","0.0-187.0","38SKSKU7R2JZIINDRYF7TGHVO6WILG","A41APS6V2Z1FJ","3WPCIUYH1AU470H2HRBLZRFBM3CTDN","","64.5","img/animal1.png","75","65.09999996423721","2","1","2","0.5,0,1,1,0.5,0,0,1,0.5",""
"","html-keyboard-response","188","74143","0.0-188.0","38SKSKU7R2JZIINDRYF7TGHVO6WILG","A41APS6V2Z1FJ","3WPCIUYH1AU470H2HRBLZRFBM3CTDN","","null","<img src=""img/animal1.png"" style=""width:200px; border:14px solid green;"">","null","","","","","",""
"","image-keyboard-response","189","74283","0.0-189.0","38SKSKU7R2JZIINDRYF7TGHVO6WILG","A41APS6V2Z1FJ","3WPCIUYH1AU470H2HRBLZRFBM3CTDN","","139.5","img/animal1.png","75","140.10000002384186","2","0","2","0.5,0,1,1,0.5,0,0,1,0.5",""
"","html-keyboard-response","190","74584","0.0-190.0","38SKSKU7R2JZIINDRYF7TGHVO6WILG","A41APS6V2Z1FJ","3WPCIUYH1AU470H2HRBLZRFBM3CTDN","","null","<img src=""img/animal1.png"" style=""width:200px;border:14px solid red;"">","null","","","","","",""
"","image-keyboard-response","191","74670","0.0-191.0","38SKSKU7R2JZIINDRYF7TGHVO6WILG","A41APS6V2Z1FJ","3WPCIUYH1AU470H2HRBLZRFBM3CTDN","","84.40000003576279","img/animal2.png","75","85.10000002384186","2","0","1","0.5,0,1,1,0.5,0,0,1,0.5",""
"","html-keyboard-response","192","74971","0.0-192.0","38SKSKU7R2JZIINDRYF7TGHVO6WILG","A41APS6V2Z1FJ","3WPCIUYH1AU470H2HRBLZRFBM3CTDN","","null","<img src=""img/animal2.png"" style=""width:200px;border:14px solid red;"">","null","","","","","",""
"","image-keyboard-response","193","75026","0.0-193.0","38SKSKU7R2JZIINDRYF7TGHVO6WILG","A41APS6V2Z1FJ","3WPCIUYH1AU470H2HRBLZRFBM3CTDN","","53.80000001192093","img/animal3.png","74","54.39999997615814","1","0","3","0.5,0,1,1,0.5,0,0,1,0.5",""
"","html-keyboard-response","194","75327","0.0-194.0","38SKSKU7R2JZIINDRYF7TGHVO6WILG","A41APS6V2Z1FJ","3WPCIUYH1AU470H2HRBLZRFBM3CTDN","","null","<img src=""img/animal3.png"" style=""width:200px;border:14px solid red;"">","null","","","","","",""
"","image-keyboard-response","195","75419","0.0-195.0","38SKSKU7R2JZIINDRYF7TGHVO6WILG","A41APS6V2Z1FJ","3WPCIUYH1AU470H2HRBLZRFBM3CTDN","","90.30000001192093","img/animal2.png","74","90.89999997615814","1","1","1","0.5,0,1,1,0.5,0,0,1,0.5",""
"","html-keyboard-response","196","75720","0.0-196.0","38SKSKU7R2JZIINDRYF7TGHVO6WILG","A41APS6V2Z1FJ","3WPCIUYH1AU470H2HRBLZRFBM3CTDN","","null","<img src=""img/animal2.png"" style=""width:200px; border:14px solid green;"">","null","","","","","",""
"","image-keyboard-response","197","75792","0.0-197.0","38SKSKU7R2JZIINDRYF7TGHVO6WILG","A41APS6V2Z1FJ","3WPCIUYH1AU470H2HRBLZRFBM3CTDN","","71","img/animal1.png","76","71.60000002384186","3","0","2","0.5,0,1,1,0.5,0,0,1,0.5",""
"","html-keyboard-response","198","76093","0.0-198.0","38SKSKU7R2JZIINDRYF7TGHVO6WILG","A41APS6V2Z1FJ","3WPCIUYH1AU470H2HRBLZRFBM3CTDN","","null","<img src=""img/animal1.png"" style=""width:200px;border:14px solid red;"">","null","","","","","",""
"","image-keyboard-response","199","76179","0.0-199.0","38SKSKU7R2JZIINDRYF7TGHVO6WILG","A41APS6V2Z1FJ","3WPCIUYH1AU470H2HRBLZRFBM3CTDN","","84.19999998807907","img/animal1.png","76","85","3","0","2","0.5,0,1,1,0.5,0,0,1,0.5",""
"","html-keyboard-response","200","76480","0.0-200.0","38SKSKU7R2JZIINDRYF7TGHVO6WILG","A41APS6V2Z1FJ","3WPCIUYH1AU470H2HRBLZRFBM3CTDN","","null","<img src=""img/animal1.png"" style=""width:200px;border:14px solid red;"">","null","","","","","",""
"","image-keyboard-response","201","76567","0.0-201.0","38SKSKU7R2JZIINDRYF7TGHVO6WILG","A41APS6V2Z1FJ","3WPCIUYH1AU470H2HRBLZRFBM3CTDN","","86","img/animal3.png","75","86.5","2","1","3","0.5,0,1,1,0.5,0,0,1,0.5",""
"","html-keyboard-response","202","76868","0.0-202.0","38SKSKU7R2JZIINDRYF7TGHVO6WILG","A41APS6V2Z1FJ","3WPCIUYH1AU470H2HRBLZRFBM3CTDN","","null","<img src=""img/animal3.png"" style=""width:200px; border:14px solid green;"">","null","","","","","",""
"","image-keyboard-response","203","77050","0.0-203.0","38SKSKU7R2JZIINDRYF7TGHVO6WILG","A41APS6V2Z1FJ","3WPCIUYH1AU470H2HRBLZRFBM3CTDN","","180.5999999642372","img/animal1.png","75","181.19999998807907","2","1","2","0.5,0,1,1,0.5,0,0,1,0.5",""
"","html-keyboard-response","204","77351","0.0-204.0","38SKSKU7R2JZIINDRYF7TGHVO6WILG","A41APS6V2Z1FJ","3WPCIUYH1AU470H2HRBLZRFBM3CTDN","","null","<img src=""img/animal1.png"" style=""width:200px; border:14px solid green;"">","null","","","","","",""
"","image-keyboard-response","205","77390","0.0-205.0","38SKSKU7R2JZIINDRYF7TGHVO6WILG","A41APS6V2Z1FJ","3WPCIUYH1AU470H2HRBLZRFBM3CTDN","","38.19999998807907","img/animal2.png","74","38.80000001192093","1","0","1","0.5,0,1,1,0.5,0,0,1,0.5",""
"","html-keyboard-response","206","77692","0.0-206.0","38SKSKU7R2JZIINDRYF7TGHVO6WILG","A41APS6V2Z1FJ","3WPCIUYH1AU470H2HRBLZRFBM3CTDN","","null","<img src=""img/animal2.png"" style=""width:200px;border:14px solid red;"">","null","","","","","",""
"","image-keyboard-response","207","77768","0.0-207.0","38SKSKU7R2JZIINDRYF7TGHVO6WILG","A41APS6V2Z1FJ","3WPCIUYH1AU470H2HRBLZRFBM3CTDN","","75.89999997615814","img/animal2.png","74","76.39999997615814","1","1","1","0.5,0,1,1,0.5,0,0,1,0.5",""
"","html-keyboard-response","208","78070","0.0-208.0","38SKSKU7R2JZIINDRYF7TGHVO6WILG","A41APS6V2Z1FJ","3WPCIUYH1AU470H2HRBLZRFBM3CTDN","","null","<img src=""img/animal2.png"" style=""width:200px; border:14px solid green;"">","null","","","","","",""
"","image-keyboard-response","209","78095","0.0-209.0","38SKSKU7R2JZIINDRYF7TGHVO6WILG","A41APS6V2Z1FJ","3WPCIUYH1AU470H2HRBLZRFBM3CTDN","","24.5","img/animal2.png","75","25.200000047683716","2","0","1","0.5,0,1,1,0.5,0,0,1,0.5",""
"","html-keyboard-response","210","78396","0.0-210.0","38SKSKU7R2JZIINDRYF7TGHVO6WILG","A41APS6V2Z1FJ","3WPCIUYH1AU470H2HRBLZRFBM3CTDN","","null","<img src=""img/animal2.png"" style=""width:200px;border:14px solid red;"">","null","","","","","",""
"","image-keyboard-response","211","78500","0.0-211.0","38SKSKU7R2JZIINDRYF7TGHVO6WILG","A41APS6V2Z1FJ","3WPCIUYH1AU470H2HRBLZRFBM3CTDN","","103.19999998807907","img/animal1.png","75","103.90000003576279","2","1","2","0.5,0,1,1,0.5,0,0,1,0.5",""
"","html-keyboard-response","212","78802","0.0-212.0","38SKSKU7R2JZIINDRYF7TGHVO6WILG","A41APS6V2Z1FJ","3WPCIUYH1AU470H2HRBLZRFBM3CTDN","","null","<img src=""img/animal1.png"" style=""width:200px; border:14px solid green;"">","null","","","","","",""
"","image-keyboard-response","213","78827","0.0-213.0","38SKSKU7R2JZIINDRYF7TGHVO6WILG","A41APS6V2Z1FJ","3WPCIUYH1AU470H2HRBLZRFBM3CTDN","","24.80000001192093","img/animal3.png","76","25.399999976158142","3","1","3","0.5,0,1,1,0.5,0,0,1,0.5",""
"","html-keyboard-response","214","79129","0.0-214.0","38SKSKU7R2JZIINDRYF7TGHVO6WILG","A41APS6V2Z1FJ","3WPCIUYH1AU470H2HRBLZRFBM3CTDN","","null","<img src=""img/animal3.png"" style=""width:200px; border:14px solid green;"">","null","","","","","",""
"","image-keyboard-response","215","79187","0.0-215.0","38SKSKU7R2JZIINDRYF7TGHVO6WILG","A41APS6V2Z1FJ","3WPCIUYH1AU470H2HRBLZRFBM3CTDN","","57.5","img/animal1.png","76","58.19999998807907","3","0","2","0.5,0,1,1,0.5,0,0,1,0.5",""
"","html-keyboard-response","216","79489","0.0-216.0","38SKSKU7R2JZIINDRYF7TGHVO6WILG","A41APS6V2Z1FJ","3WPCIUYH1AU470H2HRBLZRFBM3CTDN","","null","<img src=""img/animal1.png"" style=""width:200px;border:14px solid red;"">","null","","","","","",""
"","image-keyboard-response","217","79495","0.0-217.0","38SKSKU7R2JZIINDRYF7TGHVO6WILG","A41APS6V2Z1FJ","3WPCIUYH1AU470H2HRBLZRFBM3CTDN","","5.099999964237213","img/animal2.png","75","5.699999988079071","2","0","1","0.5,0,1,1,0.5,0,0,1,0.5",""
"","html-keyboard-response","218","79797","0.0-218.0","38SKSKU7R2JZIINDRYF7TGHVO6WILG","A41APS6V2Z1FJ","3WPCIUYH1AU470H2HRBLZRFBM3CTDN","","null","<img src=""img/animal2.png"" style=""width:200px;border:14px solid red;"">","null","","","","","",""
"","image-keyboard-response","219","79798","0.0-219.0","38SKSKU7R2JZIINDRYF7TGHVO6WILG","A41APS6V2Z1FJ","3WPCIUYH1AU470H2HRBLZRFBM3CTDN","","0.10000002384185791","img/animal2.png","75","1.199999988079071","2","0","1","0.5,0,1,1,0.5,0,0,1,0.5",""
"","html-keyboard-response","220","80099","0.0-220.0","38SKSKU7R2JZIINDRYF7TGHVO6WILG","A41APS6V2Z1FJ","3WPCIUYH1AU470H2HRBLZRFBM3CTDN","","null","<img src=""img/animal2.png"" style=""width:200px;border:14px solid red;"">","null","","","","","",""
"","image-keyboard-response","221","80400","0.0-221.0","38SKSKU7R2JZIINDRYF7TGHVO6WILG","A41APS6V2Z1FJ","3WPCIUYH1AU470H2HRBLZRFBM3CTDN","","300.2999999523163","img/animal1.png","74","300.80000001192093","1","1","2","0.5,0,1,1,0.5,0,0,1,0.5",""
"","html-keyboard-response","222","80702","0.0-222.0","38SKSKU7R2JZIINDRYF7TGHVO6WILG","A41APS6V2Z1FJ","3WPCIUYH1AU470H2HRBLZRFBM3CTDN","","null","<img src=""img/animal1.png"" style=""width:200px; border:14px solid green;"">","null","","","","","",""
"","image-keyboard-response","223","80722","0.0-223.0","38SKSKU7R2JZIINDRYF7TGHVO6WILG","A41APS6V2Z1FJ","3WPCIUYH1AU470H2HRBLZRFBM3CTDN","","19.900000035762787","img/animal3.png","75","20.399999976158142","2","1","3","0.5,0,1,1,0.5,0,0,1,0.5",""
"","html-keyboard-response","224","81024","0.0-224.0","38SKSKU7R2JZIINDRYF7TGHVO6WILG","A41APS6V2Z1FJ","3WPCIUYH1AU470H2HRBLZRFBM3CTDN","","null","<img src=""img/animal3.png"" style=""width:200px; border:14px solid green;"">","null","","","","","",""
"","image-keyboard-response","225","81031","0.0-225.0","38SKSKU7R2JZIINDRYF7TGHVO6WILG","A41APS6V2Z1FJ","3WPCIUYH1AU470H2HRBLZRFBM3CTDN","","6.600000023841858","img/animal2.png","75","7.300000011920929","2","0","1","0.5,0,1,1,0.5,0,0,1,0.5",""
"","html-keyboard-response","226","81333","0.0-226.0","38SKSKU7R2JZIINDRYF7TGHVO6WILG","A41APS6V2Z1FJ","3WPCIUYH1AU470H2HRBLZRFBM3CTDN","","null","<img src=""img/animal2.png"" style=""width:200px;border:14px solid red;"">","null","","","","","",""
"","image-keyboard-response","227","81573","0.0-227.0","38SKSKU7R2JZIINDRYF7TGHVO6WILG","A41APS6V2Z1FJ","3WPCIUYH1AU470H2HRBLZRFBM3CTDN","","239.30000001192093","img/animal2.png","74","239.89999997615814","1","0","1","0.5,0,1,1,0.5,0,0,1,0.5",""
"","html-keyboard-response","228","81875","0.0-228.0","38SKSKU7R2JZIINDRYF7TGHVO6WILG","A41APS6V2Z1FJ","3WPCIUYH1AU470H2HRBLZRFBM3CTDN","","null","<img src=""img/animal2.png"" style=""width:200px;border:14px solid red;"">","null","","","","","",""
"","image-keyboard-response","229","82125","0.0-229.0","38SKSKU7R2JZIINDRYF7TGHVO6WILG","A41APS6V2Z1FJ","3WPCIUYH1AU470H2HRBLZRFBM3CTDN","","249.89999997615814","img/animal1.png","74","250.5","1","1","2","0.5,0,1,1,0.5,0,0,1,0.5",""
"","html-keyboard-response","230","82427","0.0-230.0","38SKSKU7R2JZIINDRYF7TGHVO6WILG","A41APS6V2Z1FJ","3WPCIUYH1AU470H2HRBLZRFBM3CTDN","","null","<img src=""img/animal1.png"" style=""width:200px; border:14px solid green;"">","null","","","","","",""
"","image-keyboard-response","231","82686","0.0-231.0","38SKSKU7R2JZIINDRYF7TGHVO6WILG","A41APS6V2Z1FJ","3WPCIUYH1AU470H2HRBLZRFBM3CTDN","","258.19999998807907","img/animal1.png","75","258.80000001192093","2","0","2","0.5,0,1,1,0.5,0,0,1,0.5",""
"","html-keyboard-response","232","82988","0.0-232.0","38SKSKU7R2JZIINDRYF7TGHVO6WILG","A41APS6V2Z1FJ","3WPCIUYH1AU470H2HRBLZRFBM3CTDN","","null","<img src=""img/animal1.png"" style=""width:200px;border:14px solid red;"">","null","","","","","",""
"","image-keyboard-response","233","83163","0.0-233.0","38SKSKU7R2JZIINDRYF7TGHVO6WILG","A41APS6V2Z1FJ","3WPCIUYH1AU470H2HRBLZRFBM3CTDN","","174.69999998807907","img/animal1.png","76","175.4000000357628","3","0","2","0.5,0,1,1,0.5,0,0,1,0.5",""
"","html-keyboard-response","234","83465","0.0-234.0","38SKSKU7R2JZIINDRYF7TGHVO6WILG","A41APS6V2Z1FJ","3WPCIUYH1AU470H2HRBLZRFBM3CTDN","","null","<img src=""img/animal1.png"" style=""width:200px;border:14px solid red;"">","null","","","","","",""
"","image-keyboard-response","235","83717","0.0-235.0","38SKSKU7R2JZIINDRYF7TGHVO6WILG","A41APS6V2Z1FJ","3WPCIUYH1AU470H2HRBLZRFBM3CTDN","","250.60000002384186","img/animal2.png","75","251.0999999642372","2","0","1","0.5,0,1,1,0.5,0,0,1,0.5",""
"","html-keyboard-response","236","84018","0.0-236.0","38SKSKU7R2JZIINDRYF7TGHVO6WILG","A41APS6V2Z1FJ","3WPCIUYH1AU470H2HRBLZRFBM3CTDN","","null","<img src=""img/animal2.png"" style=""width:200px;border:14px solid red;"">","null","","","","","",""
"","image-keyboard-response","237","84255","0.0-237.0","38SKSKU7R2JZIINDRYF7TGHVO6WILG","A41APS6V2Z1FJ","3WPCIUYH1AU470H2HRBLZRFBM3CTDN","","236.69999998807907","img/animal3.png","75","237.19999998807907","2","1","3","0.5,0,1,1,0.5,0,0,1,0.5",""
"","html-keyboard-response","238","84556","0.0-238.0","38SKSKU7R2JZIINDRYF7TGHVO6WILG","A41APS6V2Z1FJ","3WPCIUYH1AU470H2HRBLZRFBM3CTDN","","null","<img src=""img/animal3.png"" style=""width:200px; border:14px solid green;"">","null","","","","","",""
"","image-keyboard-response","239","84730","0.0-239.0","38SKSKU7R2JZIINDRYF7TGHVO6WILG","A41APS6V2Z1FJ","3WPCIUYH1AU470H2HRBLZRFBM3CTDN","","173","img/animal1.png","74","173.70000004768372","1","1","2","0.5,0,1,1,0.5,0,0,1,0.5",""
"","html-keyboard-response","240","85032","0.0-240.0","38SKSKU7R2JZIINDRYF7TGHVO6WILG","A41APS6V2Z1FJ","3WPCIUYH1AU470H2HRBLZRFBM3CTDN","","null","<img src=""img/animal1.png"" style=""width:200px; border:14px solid green;"">","null","","","","","",""
"","image-keyboard-response","241","85317","0.0-241.0","38SKSKU7R2JZIINDRYF7TGHVO6WILG","A41APS6V2Z1FJ","3WPCIUYH1AU470H2HRBLZRFBM3CTDN","","284.60000002384186","img/animal3.png","75","285.19999998807907","2","1","3","0.5,0,1,1,0.5,0,0,1,0.5",""
"","html-keyboard-response","242","85618","0.0-242.0","38SKSKU7R2JZIINDRYF7TGHVO6WILG","A41APS6V2Z1FJ","3WPCIUYH1AU470H2HRBLZRFBM3CTDN","","null","<img src=""img/animal3.png"" style=""width:200px; border:14px solid green;"">","null","","","","","",""
"","image-keyboard-response","243","85781","0.0-243.0","38SKSKU7R2JZIINDRYF7TGHVO6WILG","A41APS6V2Z1FJ","3WPCIUYH1AU470H2HRBLZRFBM3CTDN","","161.89999997615814","img/animal2.png","75","162.5","2","0","1","0.5,0,1,1,0.5,0,0,1,0.5",""
"","html-keyboard-response","244","86083","0.0-244.0","38SKSKU7R2JZIINDRYF7TGHVO6WILG","A41APS6V2Z1FJ","3WPCIUYH1AU470H2HRBLZRFBM3CTDN","","null","<img src=""img/animal2.png"" style=""width:200px;border:14px solid red;"">","null","","","","","",""
"","image-keyboard-response","245","86272","0.0-245.0","38SKSKU7R2JZIINDRYF7TGHVO6WILG","A41APS6V2Z1FJ","3WPCIUYH1AU470H2HRBLZRFBM3CTDN","","188.60000002384186","img/animal3.png","75","189.0999999642372","2","1","3","0.5,0,1,1,0.5,0,0,1,0.5",""
"","html-keyboard-response","246","86574","0.0-246.0","38SKSKU7R2JZIINDRYF7TGHVO6WILG","A41APS6V2Z1FJ","3WPCIUYH1AU470H2HRBLZRFBM3CTDN","","null","<img src=""img/animal3.png"" style=""width:200px; border:14px solid green;"">","null","","","","","",""
"","image-keyboard-response","247","86630","0.0-247.0","38SKSKU7R2JZIINDRYF7TGHVO6WILG","A41APS6V2Z1FJ","3WPCIUYH1AU470H2HRBLZRFBM3CTDN","","55.80000001192093","img/animal1.png","76","56.30000001192093","3","0","2","0.5,0,1,1,0.5,0,0,1,0.5",""
"","html-keyboard-response","248","86932","0.0-248.0","38SKSKU7R2JZIINDRYF7TGHVO6WILG","A41APS6V2Z1FJ","3WPCIUYH1AU470H2HRBLZRFBM3CTDN","","null","<img src=""img/animal1.png"" style=""width:200px;border:14px solid red;"">","null","","","","","",""
"","image-keyboard-response","249","87153","0.0-249.0","38SKSKU7R2JZIINDRYF7TGHVO6WILG","A41APS6V2Z1FJ","3WPCIUYH1AU470H2HRBLZRFBM3CTDN","","220.80000001192093","img/animal3.png","75","221.60000002384186","2","1","3","0.5,0,1,1,0.5,0,0,1,0.5",""
"","html-keyboard-response","250","87455","0.0-250.0","38SKSKU7R2JZIINDRYF7TGHVO6WILG","A41APS6V2Z1FJ","3WPCIUYH1AU470H2HRBLZRFBM3CTDN","","null","<img src=""img/animal3.png"" style=""width:200px; border:14px solid green;"">","null","","","","","",""
"","image-keyboard-response","251","87702","0.0-251.0","38SKSKU7R2JZIINDRYF7TGHVO6WILG","A41APS6V2Z1FJ","3WPCIUYH1AU470H2HRBLZRFBM3CTDN","","246.30000001192093","img/animal2.png","75","247","2","0","1","0.5,0,1,1,0.5,0,0,1,0.5",""
"","html-keyboard-response","252","88005","0.0-252.0","38SKSKU7R2JZIINDRYF7TGHVO6WILG","A41APS6V2Z1FJ","3WPCIUYH1AU470H2HRBLZRFBM3CTDN","","null","<img src=""img/animal2.png"" style=""width:200px;border:14px solid red;"">","null","","","","","",""
"","image-keyboard-response","253","88179","0.0-253.0","38SKSKU7R2JZIINDRYF7TGHVO6WILG","A41APS6V2Z1FJ","3WPCIUYH1AU470H2HRBLZRFBM3CTDN","","173.10000002384186","img/animal3.png","74","173.69999998807907","1","0","3","0.5,0,1,1,0.5,0,0,1,0.5",""
"","html-keyboard-response","254","88480","0.0-254.0","38SKSKU7R2JZIINDRYF7TGHVO6WILG","A41APS6V2Z1FJ","3WPCIUYH1AU470H2HRBLZRFBM3CTDN","","null","<img src=""img/animal3.png"" style=""width:200px;border:14px solid red;"">","null","","","","","",""
"","image-keyboard-response","255","88607","0.0-255.0","38SKSKU7R2JZIINDRYF7TGHVO6WILG","A41APS6V2Z1FJ","3WPCIUYH1AU470H2HRBLZRFBM3CTDN","","126.19999998807907","img/animal2.png","74","126.89999997615814","1","0","1","0.5,0,1,1,0.5,0,0,1,0.5",""
"","html-keyboard-response","256","88908","0.0-256.0","38SKSKU7R2JZIINDRYF7TGHVO6WILG","A41APS6V2Z1FJ","3WPCIUYH1AU470H2HRBLZRFBM3CTDN","","null","<img src=""img/animal2.png"" style=""width:200px;border:14px solid red;"">","null","","","","","",""
"","image-keyboard-response","257","89121","0.0-257.0","38SKSKU7R2JZIINDRYF7TGHVO6WILG","A41APS6V2Z1FJ","3WPCIUYH1AU470H2HRBLZRFBM3CTDN","","212.10000002384186","img/animal3.png","75","212.69999998807907","2","1","3","0.5,0,1,1,0.5,0,0,1,0.5",""
"","html-keyboard-response","258","89423","0.0-258.0","38SKSKU7R2JZIINDRYF7TGHVO6WILG","A41APS6V2Z1FJ","3WPCIUYH1AU470H2HRBLZRFBM3CTDN","","null","<img src=""img/animal3.png"" style=""width:200px; border:14px solid green;"">","null","","","","","",""
"","image-keyboard-response","259","89517","0.0-259.0","38SKSKU7R2JZIINDRYF7TGHVO6WILG","A41APS6V2Z1FJ","3WPCIUYH1AU470H2HRBLZRFBM3CTDN","","93.5","img/animal1.png","76","94.09999996423721","3","0","2","0.5,0,1,1,0.5,0,0,1,0.5",""
"","html-keyboard-response","260","89819","0.0-260.0","38SKSKU7R2JZIINDRYF7TGHVO6WILG","A41APS6V2Z1FJ","3WPCIUYH1AU470H2HRBLZRFBM3CTDN","","null","<img src=""img/animal1.png"" style=""width:200px;border:14px solid red;"">","null","","","","","",""
"","image-keyboard-response","261","90003","0.0-261.0","38SKSKU7R2JZIINDRYF7TGHVO6WILG","A41APS6V2Z1FJ","3WPCIUYH1AU470H2HRBLZRFBM3CTDN","","183.69999998807907","img/animal1.png","75","184.39999997615814","2","0","2","0.5,0,1,1,0.5,0,0,1,0.5",""
"","html-keyboard-response","262","90305","0.0-262.0","38SKSKU7R2JZIINDRYF7TGHVO6WILG","A41APS6V2Z1FJ","3WPCIUYH1AU470H2HRBLZRFBM3CTDN","","null","<img src=""img/animal1.png"" style=""width:200px;border:14px solid red;"">","null","","","","","",""
"","image-keyboard-response","263","90400","0.0-263.0","38SKSKU7R2JZIINDRYF7TGHVO6WILG","A41APS6V2Z1FJ","3WPCIUYH1AU470H2HRBLZRFBM3CTDN","","93.60000002384186","img/animal3.png","75","95","2","1","3","0.5,0,1,1,0.5,0,0,1,0.5",""
"","html-keyboard-response","264","90702","0.0-264.0","38SKSKU7R2JZIINDRYF7TGHVO6WILG","A41APS6V2Z1FJ","3WPCIUYH1AU470H2HRBLZRFBM3CTDN","","null","<img src=""img/animal3.png"" style=""width:200px; border:14px solid green;"">","null","","","","","",""
"","image-keyboard-response","265","90720","0.0-265.0","38SKSKU7R2JZIINDRYF7TGHVO6WILG","A41APS6V2Z1FJ","3WPCIUYH1AU470H2HRBLZRFBM3CTDN","","17.19999998807907","img/animal3.png","74","17.899999976158142","1","0","3","0.5,0,1,1,0.5,0,0,1,0.5",""
"","html-keyboard-response","266","91022","0.0-266.0","38SKSKU7R2JZIINDRYF7TGHVO6WILG","A41APS6V2Z1FJ","3WPCIUYH1AU470H2HRBLZRFBM3CTDN","","null","<img src=""img/animal3.png"" style=""width:200px;border:14px solid red;"">","null","","","","","",""
"","image-keyboard-response","267","91161","0.0-267.0","38SKSKU7R2JZIINDRYF7TGHVO6WILG","A41APS6V2Z1FJ","3WPCIUYH1AU470H2HRBLZRFBM3CTDN","","137.30000001192093","img/animal2.png","76","138.70000004768372","3","1","1","0.5,0,1,1,0.5,0,0,1,0.5",""
"","html-keyboard-response","268","91462","0.0-268.0","38SKSKU7R2JZIINDRYF7TGHVO6WILG","A41APS6V2Z1FJ","3WPCIUYH1AU470H2HRBLZRFBM3CTDN","","null","<img src=""img/animal2.png"" style=""width:200px; border:14px solid green;"">","null","","","","","",""
"","image-keyboard-response","269","91620","0.0-269.0","38SKSKU7R2JZIINDRYF7TGHVO6WILG","A41APS6V2Z1FJ","3WPCIUYH1AU470H2HRBLZRFBM3CTDN","","157.69999998807907","img/animal3.png","75","158.30000001192093","2","1","3","0.5,0,1,1,0.5,0,0,1,0.5",""
"","html-keyboard-response","270","91921","0.0-270.0","38SKSKU7R2JZIINDRYF7TGHVO6WILG","A41APS6V2Z1FJ","3WPCIUYH1AU470H2HRBLZRFBM3CTDN","","null","<img src=""img/animal3.png"" style=""width:200px; border:14px solid green;"">","null","","","","","",""
"","image-keyboard-response","271","92035","0.0-271.0","38SKSKU7R2JZIINDRYF7TGHVO6WILG","A41APS6V2Z1FJ","3WPCIUYH1AU470H2HRBLZRFBM3CTDN","","112.30000001192093","img/animal3.png","74","113.69999998807907","1","0","3","0.5,0,1,1,0.5,0,0,1,0.5",""
"","html-keyboard-response","272","92336","0.0-272.0","38SKSKU7R2JZIINDRYF7TGHVO6WILG","A41APS6V2Z1FJ","3WPCIUYH1AU470H2HRBLZRFBM3CTDN","","null","<img src=""img/animal3.png"" style=""width:200px;border:14px solid red;"">","null","","","","","",""
"","image-keyboard-response","273","92453","0.0-273.0","38SKSKU7R2JZIINDRYF7TGHVO6WILG","A41APS6V2Z1FJ","3WPCIUYH1AU470H2HRBLZRFBM3CTDN","","115.80000001192093","img/animal2.png","75","116.5","2","0","1","0.5,0,1,1,0.5,0,0,1,0.5",""
"","html-keyboard-response","274","92755","0.0-274.0","38SKSKU7R2JZIINDRYF7TGHVO6WILG","A41APS6V2Z1FJ","3WPCIUYH1AU470H2HRBLZRFBM3CTDN","","null","<img src=""img/animal2.png"" style=""width:200px;border:14px solid red;"">","null","","","","","",""
"","image-keyboard-response","275","93144","0.0-275.0","38SKSKU7R2JZIINDRYF7TGHVO6WILG","A41APS6V2Z1FJ","3WPCIUYH1AU470H2HRBLZRFBM3CTDN","","388.69999998807907","img/animal3.png","75","389.10000002384186","2","1","3","0.5,0,1,1,0.5,0,0,1,0.5",""
"","html-keyboard-response","276","93445","0.0-276.0","38SKSKU7R2JZIINDRYF7TGHVO6WILG","A41APS6V2Z1FJ","3WPCIUYH1AU470H2HRBLZRFBM3CTDN","","null","<img src=""img/animal3.png"" style=""width:200px; border:14px solid green;"">","null","","","","","",""
"","image-keyboard-response","277","93606","0.0-277.0","38SKSKU7R2JZIINDRYF7TGHVO6WILG","A41APS6V2Z1FJ","3WPCIUYH1AU470H2HRBLZRFBM3CTDN","","160","img/animal2.png","75","160.70000004768372","2","0","1","0.5,0,1,1,0.5,0,0,1,0.5",""
"","html-keyboard-response","278","93908","0.0-278.0","38SKSKU7R2JZIINDRYF7TGHVO6WILG","A41APS6V2Z1FJ","3WPCIUYH1AU470H2HRBLZRFBM3CTDN","","null","<img src=""img/animal2.png"" style=""width:200px;border:14px solid red;"">","null","","","","","",""
"","image-keyboard-response","279","94095","0.0-279.0","38SKSKU7R2JZIINDRYF7TGHVO6WILG","A41APS6V2Z1FJ","3WPCIUYH1AU470H2HRBLZRFBM3CTDN","","186.69999998807907","img/animal2.png","75","187.30000001192093","2","0","1","0.5,0,1,1,0.5,0,0,1,0.5",""
"","html-keyboard-response","280","94396","0.0-280.0","38SKSKU7R2JZIINDRYF7TGHVO6WILG","A41APS6V2Z1FJ","3WPCIUYH1AU470H2HRBLZRFBM3CTDN","","null","<img src=""img/animal2.png"" style=""width:200px;border:14px solid red;"">","null","","","","","",""
"","image-keyboard-response","281","94514","0.0-281.0","38SKSKU7R2JZIINDRYF7TGHVO6WILG","A41APS6V2Z1FJ","3WPCIUYH1AU470H2HRBLZRFBM3CTDN","","116.39999997615814","img/animal1.png","76","117.09999996423721","3","0","2","0.5,0,1,1,0.5,0,0,1,0.5",""
"","html-keyboard-response","282","94815","0.0-282.0","38SKSKU7R2JZIINDRYF7TGHVO6WILG","A41APS6V2Z1FJ","3WPCIUYH1AU470H2HRBLZRFBM3CTDN","","null","<img src=""img/animal1.png"" style=""width:200px;border:14px solid red;"">","null","","","","","",""
"","image-keyboard-response","283","94953","0.0-283.0","38SKSKU7R2JZIINDRYF7TGHVO6WILG","A41APS6V2Z1FJ","3WPCIUYH1AU470H2HRBLZRFBM3CTDN","","137.69999998807907","img/animal1.png","76","138.30000001192093","3","0","2","0.5,0,1,1,0.5,0,0,1,0.5",""
"","html-keyboard-response","284","95255","0.0-284.0","38SKSKU7R2JZIINDRYF7TGHVO6WILG","A41APS6V2Z1FJ","3WPCIUYH1AU470H2HRBLZRFBM3CTDN","","null","<img src=""img/animal1.png"" style=""width:200px;border:14px solid red;"">","null","","","","","",""
"","image-keyboard-response","285","95440","0.0-285.0","38SKSKU7R2JZIINDRYF7TGHVO6WILG","A41APS6V2Z1FJ","3WPCIUYH1AU470H2HRBLZRFBM3CTDN","","184.19999998807907","img/animal1.png","75","184.80000001192093","2","1","2","0.5,0,1,1,0.5,0,0,1,0.5",""
"","html-keyboard-response","286","95742","0.0-286.0","38SKSKU7R2JZIINDRYF7TGHVO6WILG","A41APS6V2Z1FJ","3WPCIUYH1AU470H2HRBLZRFBM3CTDN","","null","<img src=""img/animal1.png"" style=""width:200px; border:14px solid green;"">","null","","","","","",""
"","image-keyboard-response","287","95830","0.0-287.0","38SKSKU7R2JZIINDRYF7TGHVO6WILG","A41APS6V2Z1FJ","3WPCIUYH1AU470H2HRBLZRFBM3CTDN","","87.90000003576279","img/animal1.png","74","88.39999997615814","1","1","2","0.5,0,1,1,0.5,0,0,1,0.5",""
"","html-keyboard-response","288","96132","0.0-288.0","38SKSKU7R2JZIINDRYF7TGHVO6WILG","A41APS6V2Z1FJ","3WPCIUYH1AU470H2HRBLZRFBM3CTDN","","null","<img src=""img/animal1.png"" style=""width:200px; border:14px solid green;"">","null","","","","","",""
"","image-keyboard-response","289","96293","0.0-289.0","38SKSKU7R2JZIINDRYF7TGHVO6WILG","A41APS6V2Z1FJ","3WPCIUYH1AU470H2HRBLZRFBM3CTDN","","160.5999999642372","img/animal1.png","74","161.30000001192093","1","1","2","0.5,0,1,1,0.5,0,0,1,0.5",""
"","html-keyboard-response","290","96594","0.0-290.0","38SKSKU7R2JZIINDRYF7TGHVO6WILG","A41APS6V2Z1FJ","3WPCIUYH1AU470H2HRBLZRFBM3CTDN","","null","<img src=""img/animal1.png"" style=""width:200px; border:14px solid green;"">","null","","","","","",""
"","image-keyboard-response","291","96707","0.0-291.0","38SKSKU7R2JZIINDRYF7TGHVO6WILG","A41APS6V2Z1FJ","3WPCIUYH1AU470H2HRBLZRFBM3CTDN","","112.19999998807907","img/animal3.png","74","112.89999997615814","1","0","3","0.5,0,1,1,0.5,0,0,1,0.5",""
"","html-keyboard-response","292","97009","0.0-292.0","38SKSKU7R2JZIINDRYF7TGHVO6WILG","A41APS6V2Z1FJ","3WPCIUYH1AU470H2HRBLZRFBM3CTDN","","null","<img src=""img/animal3.png"" style=""width:200px;border:14px solid red;"">","null","","","","","",""
"","image-keyboard-response","293","97156","0.0-293.0","38SKSKU7R2JZIINDRYF7TGHVO6WILG","A41APS6V2Z1FJ","3WPCIUYH1AU470H2HRBLZRFBM3CTDN","","146.69999998807907","img/animal2.png","74","147.19999998807907","1","0","1","0.5,0,1,1,0.5,0,0,1,0.5",""
"","html-keyboard-response","294","97458","0.0-294.0","38SKSKU7R2JZIINDRYF7TGHVO6WILG","A41APS6V2Z1FJ","3WPCIUYH1AU470H2HRBLZRFBM3CTDN","","null","<img src=""img/animal2.png"" style=""width:200px;border:14px solid red;"">","null","","","","","",""
"","image-keyboard-response","295","97605","0.0-295.0","38SKSKU7R2JZIINDRYF7TGHVO6WILG","A41APS6V2Z1FJ","3WPCIUYH1AU470H2HRBLZRFBM3CTDN","","146.5999999642372","img/animal1.png","74","147.10000002384186","1","1","2","0.5,0,1,1,0.5,0,0,1,0.5",""
"","html-keyboard-response","296","97907","0.0-296.0","38SKSKU7R2JZIINDRYF7TGHVO6WILG","A41APS6V2Z1FJ","3WPCIUYH1AU470H2HRBLZRFBM3CTDN","","null","<img src=""img/animal1.png"" style=""width:200px; border:14px solid green;"">","null","","","","","",""
"","image-keyboard-response","297","97927","0.0-297.0","38SKSKU7R2JZIINDRYF7TGHVO6WILG","A41APS6V2Z1FJ","3WPCIUYH1AU470H2HRBLZRFBM3CTDN","","20","img/animal2.png","74","20.5","1","0","1","0.5,0,1,1,0.5,0,0,1,0.5",""
"","html-keyboard-response","298","98229","0.0-298.0","38SKSKU7R2JZIINDRYF7TGHVO6WILG","A41APS6V2Z1FJ","3WPCIUYH1AU470H2HRBLZRFBM3CTDN","","null","<img src=""img/animal2.png"" style=""width:200px;border:14px solid red;"">","null","","","","","",""
"","image-keyboard-response","299","98327","0.0-299.0","38SKSKU7R2JZIINDRYF7TGHVO6WILG","A41APS6V2Z1FJ","3WPCIUYH1AU470H2HRBLZRFBM3CTDN","","97.69999998807907","img/animal3.png","74","98.30000001192093","1","0","3","0.5,0,1,1,0.5,0,0,1,0.5",""
"","html-keyboard-response","300","98629","0.0-300.0","38SKSKU7R2JZIINDRYF7TGHVO6WILG","A41APS6V2Z1FJ","3WPCIUYH1AU470H2HRBLZRFBM3CTDN","","null","<img src=""img/animal3.png"" style=""width:200px;border:14px solid red;"">","null","","","","","",""
"","image-keyboard-response","301","98686","0.0-301.0","38SKSKU7R2JZIINDRYF7TGHVO6WILG","A41APS6V2Z1FJ","3WPCIUYH1AU470H2HRBLZRFBM3CTDN","","56.299999952316284","img/animal3.png","74","57","1","0","3","0.5,0,1,1,0.5,0,0,1,0.5",""
"","html-keyboard-response","302","98987","0.0-302.0","38SKSKU7R2JZIINDRYF7TGHVO6WILG","A41APS6V2Z1FJ","3WPCIUYH1AU470H2HRBLZRFBM3CTDN","","null","<img src=""img/animal3.png"" style=""width:200px;border:14px solid red;"">","null","","","","","",""
"","image-keyboard-response","303","99121","0.0-303.0","38SKSKU7R2JZIINDRYF7TGHVO6WILG","A41APS6V2Z1FJ","3WPCIUYH1AU470H2HRBLZRFBM3CTDN","","133.19999998807907","img/animal2.png","74","133.60000002384186","1","1","1","0.5,0,1,1,0.5,0,0,1,0.5",""
"","html-keyboard-response","304","99423","0.0-304.0","38SKSKU7R2JZIINDRYF7TGHVO6WILG","A41APS6V2Z1FJ","3WPCIUYH1AU470H2HRBLZRFBM3CTDN","","null","<img src=""img/animal2.png"" style=""width:200px; border:14px solid green;"">","null","","","","","",""
"","image-keyboard-response","305","99442","0.0-305.0","38SKSKU7R2JZIINDRYF7TGHVO6WILG","A41APS6V2Z1FJ","3WPCIUYH1AU470H2HRBLZRFBM3CTDN","","18.400000035762787","img/animal3.png","75","19.100000023841858","2","1","3","0.5,0,1,1,0.5,0,0,1,0.5",""
"","html-keyboard-response","306","99744","0.0-306.0","38SKSKU7R2JZIINDRYF7TGHVO6WILG","A41APS6V2Z1FJ","3WPCIUYH1AU470H2HRBLZRFBM3CTDN","","null","<img src=""img/animal3.png"" style=""width:200px; border:14px solid green;"">","null","","","","","",""
"","image-keyboard-response","307","99817","0.0-307.0","38SKSKU7R2JZIINDRYF7TGHVO6WILG","A41APS6V2Z1FJ","3WPCIUYH1AU470H2HRBLZRFBM3CTDN","","71.39999997615814","img/animal2.png","75","72.60000002384186","2","0","1","0.5,0,1,1,0.5,0,0,1,0.5",""
"","html-keyboard-response","308","100119","0.0-308.0","38SKSKU7R2JZIINDRYF7TGHVO6WILG","A41APS6V2Z1FJ","3WPCIUYH1AU470H2HRBLZRFBM3CTDN","","null","<img src=""img/animal2.png"" style=""width:200px;border:14px solid red;"">","null","","","","","",""
"","image-keyboard-response","309","100201","0.0-309.0","38SKSKU7R2JZIINDRYF7TGHVO6WILG","A41APS6V2Z1FJ","3WPCIUYH1AU470H2HRBLZRFBM3CTDN","","81.5","img/animal2.png","75","82.20000004768372","2","0","1","0.5,0,1,1,0.5,0,0,1,0.5",""
"","html-keyboard-response","310","100503","0.0-310.0","38SKSKU7R2JZIINDRYF7TGHVO6WILG","A41APS6V2Z1FJ","3WPCIUYH1AU470H2HRBLZRFBM3CTDN","","null","<img src=""img/animal2.png"" style=""width:200px;border:14px solid red;"">","null","","","","","",""
"","image-keyboard-response","311","100544","0.0-311.0","38SKSKU7R2JZIINDRYF7TGHVO6WILG","A41APS6V2Z1FJ","3WPCIUYH1AU470H2HRBLZRFBM3CTDN","","40.60000002384186","img/animal3.png","74","41.10000002384186","1","0","3","0.5,0,1,1,0.5,0,0,1,0.5",""
"","html-keyboard-response","312","100846","0.0-312.0","38SKSKU7R2JZIINDRYF7TGHVO6WILG","A41APS6V2Z1FJ","3WPCIUYH1AU470H2HRBLZRFBM3CTDN","","null","<img src=""img/animal3.png"" style=""width:200px;border:14px solid red;"">","null","","","","","",""
"","image-keyboard-response","313","100884","0.0-313.0","38SKSKU7R2JZIINDRYF7TGHVO6WILG","A41APS6V2Z1FJ","3WPCIUYH1AU470H2HRBLZRFBM3CTDN","","36.39999997615814","img/animal2.png","74","37","1","0","1","0.5,0,1,1,0.5,0,0,1,0.5",""
"","html-keyboard-response","314","101185","0.0-314.0","38SKSKU7R2JZIINDRYF7TGHVO6WILG","A41APS6V2Z1FJ","3WPCIUYH1AU470H2HRBLZRFBM3CTDN","","null","<img src=""img/animal2.png"" style=""width:200px;border:14px solid red;"">","null","","","","","",""
"","image-keyboard-response","315","101221","0.0-315.0","38SKSKU7R2JZIINDRYF7TGHVO6WILG","A41APS6V2Z1FJ","3WPCIUYH1AU470H2HRBLZRFBM3CTDN","","35.19999998807907","img/animal2.png","75","35.90000003576279","2","0","1","0.5,0,1,1,0.5,0,0,1,0.5",""
"","html-keyboard-response","316","101523","0.0-316.0","38SKSKU7R2JZIINDRYF7TGHVO6WILG","A41APS6V2Z1FJ","3WPCIUYH1AU470H2HRBLZRFBM3CTDN","","null","<img src=""img/animal2.png"" style=""width:200px;border:14px solid red;"">","null","","","","","",""
"","image-keyboard-response","317","101621","0.0-317.0","38SKSKU7R2JZIINDRYF7TGHVO6WILG","A41APS6V2Z1FJ","3WPCIUYH1AU470H2HRBLZRFBM3CTDN","","96.59999996423721","img/animal2.png","75","97.69999998807907","2","0","1","0.5,0,1,1,0.5,0,0,1,0.5",""
"","html-keyboard-response","318","101923","0.0-318.0","38SKSKU7R2JZIINDRYF7TGHVO6WILG","A41APS6V2Z1FJ","3WPCIUYH1AU470H2HRBLZRFBM3CTDN","","null","<img src=""img/animal2.png"" style=""width:200px;border:14px solid red;"">","null","","","","","",""
"","image-keyboard-response","319","101945","0.0-319.0","38SKSKU7R2JZIINDRYF7TGHVO6WILG","A41APS6V2Z1FJ","3WPCIUYH1AU470H2HRBLZRFBM3CTDN","","21.30000001192093","img/animal1.png","75","21.799999952316284","2","1","2","0.5,0,1,1,0.5,0,0,1,0.5",""
"","html-keyboard-response","320","102246","0.0-320.0","38SKSKU7R2JZIINDRYF7TGHVO6WILG","A41APS6V2Z1FJ","3WPCIUYH1AU470H2HRBLZRFBM3CTDN","","null","<img src=""img/animal1.png"" style=""width:200px; border:14px solid green;"">","null","","","","","",""
"","image-keyboard-response","321","102317","0.0-321.0","38SKSKU7R2JZIINDRYF7TGHVO6WILG","A41APS6V2Z1FJ","3WPCIUYH1AU470H2HRBLZRFBM3CTDN","","70.29999995231628","img/animal3.png","74","70.89999997615814","1","0","3","0.5,0,1,1,0.5,0,0,1,0.5",""
"","html-keyboard-response","322","102619","0.0-322.0","38SKSKU7R2JZIINDRYF7TGHVO6WILG","A41APS6V2Z1FJ","3WPCIUYH1AU470H2HRBLZRFBM3CTDN","","null","<img src=""img/animal3.png"" style=""width:200px;border:14px solid red;"">","null","","","","","",""
"","image-keyboard-response","323","105072","0.0-323.0","38SKSKU7R2JZIINDRYF7TGHVO6WILG","A41APS6V2Z1FJ","3WPCIUYH1AU470H2HRBLZRFBM3CTDN","","2452.7000000476837","img/animal1.png","74","2453.300000011921","1","1","2","0.5,0,1,1,0.5,0,0,1,0.5",""
"","html-keyboard-response","324","105374","0.0-324.0","38SKSKU7R2JZIINDRYF7TGHVO6WILG","A41APS6V2Z1FJ","3WPCIUYH1AU470H2HRBLZRFBM3CTDN","","null","<img src=""img/animal1.png"" style=""width:200px; border:14px solid green;"">","null","","","","","",""
"","image-keyboard-response","325","105508","0.0-325.0","38SKSKU7R2JZIINDRYF7TGHVO6WILG","A41APS6V2Z1FJ","3WPCIUYH1AU470H2HRBLZRFBM3CTDN","","133.4000000357628","img/animal1.png","74","134","1","1","2","0.5,0,1,1,0.5,0,0,1,0.5",""
"","html-keyboard-response","326","105809","0.0-326.0","38SKSKU7R2JZIINDRYF7TGHVO6WILG","A41APS6V2Z1FJ","3WPCIUYH1AU470H2HRBLZRFBM3CTDN","","null","<img src=""img/animal1.png"" style=""width:200px; border:14px solid green;"">","null","","","","","",""
"","image-keyboard-response","327","105910","0.0-327.0","38SKSKU7R2JZIINDRYF7TGHVO6WILG","A41APS6V2Z1FJ","3WPCIUYH1AU470H2HRBLZRFBM3CTDN","","100","img/animal1.png","74","100.60000002384186","1","1","2","0.5,0,1,1,0.5,0,0,1,0.5",""
"","html-keyboard-response","328","106212","0.0-328.0","38SKSKU7R2JZIINDRYF7TGHVO6WILG","A41APS6V2Z1FJ","3WPCIUYH1AU470H2HRBLZRFBM3CTDN","","null","<img src=""img/animal1.png"" style=""width:200px; border:14px solid green;"">","null","","","","","",""
"","image-keyboard-response","329","106298","0.0-329.0","38SKSKU7R2JZIINDRYF7TGHVO6WILG","A41APS6V2Z1FJ","3WPCIUYH1AU470H2HRBLZRFBM3CTDN","","85.69999998807907","img/animal1.png","74","86.40000003576279","1","1","2","0.5,0,1,1,0.5,0,0,1,0.5",""
"","html-keyboard-response","330","106600","0.0-330.0","38SKSKU7R2JZIINDRYF7TGHVO6WILG","A41APS6V2Z1FJ","3WPCIUYH1AU470H2HRBLZRFBM3CTDN","","null","<img src=""img/animal1.png"" style=""width:200px; border:14px solid green;"">","null","","","","","",""
"","image-keyboard-response","331","107751","0.0-331.0","38SKSKU7R2JZIINDRYF7TGHVO6WILG","A41APS6V2Z1FJ","3WPCIUYH1AU470H2HRBLZRFBM3CTDN","","1150.2999999523163","img/animal1.png","75","1151","2","1","2","0.5,0,1,1,0.5,0,0,1,0.5",""
"","html-keyboard-response","332","108052","0.0-332.0","38SKSKU7R2JZIINDRYF7TGHVO6WILG","A41APS6V2Z1FJ","3WPCIUYH1AU470H2HRBLZRFBM3CTDN","","null","<img src=""img/animal1.png"" style=""width:200px; border:14px solid green;"">","null","","","","","",""
"","image-keyboard-response","333","108156","0.0-333.0","38SKSKU7R2JZIINDRYF7TGHVO6WILG","A41APS6V2Z1FJ","3WPCIUYH1AU470H2HRBLZRFBM3CTDN","","103","img/animal1.png","75","103.59999996423721","2","1","2","0.5,0,1,1,0.5,0,0,1,0.5",""
"","html-keyboard-response","334","108458","0.0-334.0","38SKSKU7R2JZIINDRYF7TGHVO6WILG","A41APS6V2Z1FJ","3WPCIUYH1AU470H2HRBLZRFBM3CTDN","","null","<img src=""img/animal1.png"" style=""width:200px; border:14px solid green;"">","null","","","","","",""
"","image-keyboard-response","335","108478","0.0-335.0","38SKSKU7R2JZIINDRYF7TGHVO6WILG","A41APS6V2Z1FJ","3WPCIUYH1AU470H2HRBLZRFBM3CTDN","","19.69999998807907","img/animal2.png","75","20.30000001192093","2","0","1","0.5,0,1,1,0.5,0,0,1,0.5",""
"","html-keyboard-response","336","108780","0.0-336.0","38SKSKU7R2JZIINDRYF7TGHVO6WILG","A41APS6V2Z1FJ","3WPCIUYH1AU470H2HRBLZRFBM3CTDN","","null","<img src=""img/animal2.png"" style=""width:200px;border:14px solid red;"">","null","","","","","",""
"","image-keyboard-response","337","108821","0.0-337.0","38SKSKU7R2JZIINDRYF7TGHVO6WILG","A41APS6V2Z1FJ","3WPCIUYH1AU470H2HRBLZRFBM3CTDN","","40.39999997615814","img/animal3.png","74","41.10000002384186","1","0","3","0.5,0,1,1,0.5,0,0,1,0.5",""
"","html-keyboard-response","338","109122","0.0-338.0","38SKSKU7R2JZIINDRYF7TGHVO6WILG","A41APS6V2Z1FJ","3WPCIUYH1AU470H2HRBLZRFBM3CTDN","","null","<img src=""img/animal3.png"" style=""width:200px;border:14px solid red;"">","null","","","","","",""
"","image-keyboard-response","339","109254","0.0-339.0","38SKSKU7R2JZIINDRYF7TGHVO6WILG","A41APS6V2Z1FJ","3WPCIUYH1AU470H2HRBLZRFBM3CTDN","","131","img/animal3.png","74","131.60000002384186","1","0","3","0.5,0,1,1,0.5,0,0,1,0.5",""
"","html-keyboard-response","340","109555","0.0-340.0","38SKSKU7R2JZIINDRYF7TGHVO6WILG","A41APS6V2Z1FJ","3WPCIUYH1AU470H2HRBLZRFBM3CTDN","","null","<img src=""img/animal3.png"" style=""width:200px;border:14px solid red;"">","null","","","","","",""
"","image-keyboard-response","341","109730","0.0-341.0","38SKSKU7R2JZIINDRYF7TGHVO6WILG","A41APS6V2Z1FJ","3WPCIUYH1AU470H2HRBLZRFBM3CTDN","","174.19999998807907","img/animal3.png","74","174.9000000357628","1","0","3","0.5,0,1,1,0.5,0,0,1,0.5",""
"","html-keyboard-response","342","110032","0.0-342.0","38SKSKU7R2JZIINDRYF7TGHVO6WILG","A41APS6V2Z1FJ","3WPCIUYH1AU470H2HRBLZRFBM3CTDN","","null","<img src=""img/animal3.png"" style=""width:200px;border:14px solid red;"">","null","","","","","",""
"","image-keyboard-response","343","110719","0.0-343.0","38SKSKU7R2JZIINDRYF7TGHVO6WILG","A41APS6V2Z1FJ","3WPCIUYH1AU470H2HRBLZRFBM3CTDN","","686.7999999523163","img/animal2.png","74","687.5","1","1","1","0.5,0,1,1,0.5,0,0,1,0.5",""
"","html-keyboard-response","344","111021","0.0-344.0","38SKSKU7R2JZIINDRYF7TGHVO6WILG","A41APS6V2Z1FJ","3WPCIUYH1AU470H2HRBLZRFBM3CTDN","","null","<img src=""img/animal2.png"" style=""width:200px; border:14px solid green;"">","null","","","","","",""
"","image-keyboard-response","345","111221","0.0-345.0","38SKSKU7R2JZIINDRYF7TGHVO6WILG","A41APS6V2Z1FJ","3WPCIUYH1AU470H2HRBLZRFBM3CTDN","","199.30000001192093","img/animal3.png","74","199.89999997615814","1","0","3","0.5,0,1,1,0.5,0,0,1,0.5",""
"","html-keyboard-response","346","111523","0.0-346.0","38SKSKU7R2JZIINDRYF7TGHVO6WILG","A41APS6V2Z1FJ","3WPCIUYH1AU470H2HRBLZRFBM3CTDN","","null","<img src=""img/animal3.png"" style=""width:200px;border:14px solid red;"">","null","","","","","",""
"","image-keyboard-response","347","111954","0.0-347.0","38SKSKU7R2JZIINDRYF7TGHVO6WILG","A41APS6V2Z1FJ","3WPCIUYH1AU470H2HRBLZRFBM3CTDN","","430.5","img/animal2.png","74","431.10000002384186","1","1","1","0.5,0,1,1,0.5,0,0,1,0.5",""
"","html-keyboard-response","348","112256","0.0-348.0","38SKSKU7R2JZIINDRYF7TGHVO6WILG","A41APS6V2Z1FJ","3WPCIUYH1AU470H2HRBLZRFBM3CTDN","","null","<img src=""img/animal2.png"" style=""width:200px; border:14px solid green;"">","null","","","","","",""
"","image-keyboard-response","349","112484","0.0-349.0","38SKSKU7R2JZIINDRYF7TGHVO6WILG","A41APS6V2Z1FJ","3WPCIUYH1AU470H2HRBLZRFBM3CTDN","","227.80000001192093","img/animal3.png","74","228.39999997615814","1","0","3","0.5,0,1,1,0.5,0,0,1,0.5",""
"","html-keyboard-response","350","112786","0.0-350.0","38SKSKU7R2JZIINDRYF7TGHVO6WILG","A41APS6V2Z1FJ","3WPCIUYH1AU470H2HRBLZRFBM3CTDN","","null","<img src=""img/animal3.png"" style=""width:200px;border:14px solid red;"">","null","","","","","",""
"","image-keyboard-response","351","113349","0.0-351.0","38SKSKU7R2JZIINDRYF7TGHVO6WILG","A41APS6V2Z1FJ","3WPCIUYH1AU470H2HRBLZRFBM3CTDN","","562.5","img/animal2.png","74","563","1","0","1","0.5,0,1,1,0.5,0,0,1,0.5",""
"","html-keyboard-response","352","113651","0.0-352.0","38SKSKU7R2JZIINDRYF7TGHVO6WILG","A41APS6V2Z1FJ","3WPCIUYH1AU470H2HRBLZRFBM3CTDN","","null","<img src=""img/animal2.png"" style=""width:200px;border:14px solid red;"">","null","","","","","",""
"","image-keyboard-response","353","113724","0.0-353.0","38SKSKU7R2JZIINDRYF7TGHVO6WILG","A41APS6V2Z1FJ","3WPCIUYH1AU470H2HRBLZRFBM3CTDN","","72.19999998807907","img/animal2.png","74","72.80000001192093","1","1","1","0.5,0,1,1,0.5,0,0,1,0.5",""
"","html-keyboard-response","354","114025","0.0-354.0","38SKSKU7R2JZIINDRYF7TGHVO6WILG","A41APS6V2Z1FJ","3WPCIUYH1AU470H2HRBLZRFBM3CTDN","","null","<img src=""img/animal2.png"" style=""width:200px; border:14px solid green;"">","null","","","","","",""
"","image-keyboard-response","355","114037","0.0-355.0","38SKSKU7R2JZIINDRYF7TGHVO6WILG","A41APS6V2Z1FJ","3WPCIUYH1AU470H2HRBLZRFBM3CTDN","","11.699999988079071","img/animal3.png","75","12.400000035762787","2","1","3","0.5,0,1,1,0.5,0,0,1,0.5",""
"","html-keyboard-response","356","114339","0.0-356.0","38SKSKU7R2JZIINDRYF7TGHVO6WILG","A41APS6V2Z1FJ","3WPCIUYH1AU470H2HRBLZRFBM3CTDN","","null","<img src=""img/animal3.png"" style=""width:200px; border:14px solid green;"">","null","","","","","",""
"","image-keyboard-response","357","114436","0.0-357.0","38SKSKU7R2JZIINDRYF7TGHVO6WILG","A41APS6V2Z1FJ","3WPCIUYH1AU470H2HRBLZRFBM3CTDN","","96.30000001192093","img/animal1.png","75","96.89999997615814","2","1","2","0.5,0,1,1,0.5,0,0,1,0.5",""
"","html-keyboard-response","358","114737","0.0-358.0","38SKSKU7R2JZIINDRYF7TGHVO6WILG","A41APS6V2Z1FJ","3WPCIUYH1AU470H2HRBLZRFBM3CTDN","","null","<img src=""img/animal1.png"" style=""width:200px; border:14px solid green;"">","null","","","","","",""
"","image-keyboard-response","359","114866","0.0-359.0","38SKSKU7R2JZIINDRYF7TGHVO6WILG","A41APS6V2Z1FJ","3WPCIUYH1AU470H2HRBLZRFBM3CTDN","","127.90000003576279","img/animal3.png","75","128.60000002384186","2","1","3","0.5,0,1,1,0.5,0,0,1,0.5",""
"","html-keyboard-response","360","115168","0.0-360.0","38SKSKU7R2JZIINDRYF7TGHVO6WILG","A41APS6V2Z1FJ","3WPCIUYH1AU470H2HRBLZRFBM3CTDN","","null","<img src=""img/animal3.png"" style=""width:200px; border:14px solid green;"">","null","","","","","",""
"","image-keyboard-response","361","115171","0.0-361.0","38SKSKU7R2JZIINDRYF7TGHVO6WILG","A41APS6V2Z1FJ","3WPCIUYH1AU470H2HRBLZRFBM3CTDN","","1.800000011920929","img/animal3.png","75","2.600000023841858","2","1","3","0.5,0,1,1,0.5,0,0,1,0.5",""
"","html-keyboard-response","362","115472","0.0-362.0","38SKSKU7R2JZIINDRYF7TGHVO6WILG","A41APS6V2Z1FJ","3WPCIUYH1AU470H2HRBLZRFBM3CTDN","","null","<img src=""img/animal3.png"" style=""width:200px; border:14px solid green;"">","null","","","","","",""
"","instructions","363","121216","0.0-363.0","38SKSKU7R2JZIINDRYF7TGHVO6WILG","A41APS6V2Z1FJ","3WPCIUYH1AU470H2HRBLZRFBM3CTDN","[{""page_index"":0,""viewing_time"":5743.399999976158}]","5743.600000023842","","","","","","","",""
"","survey-text","364","124506","0.0-364.0","38SKSKU7R2JZIINDRYF7TGHVO6WILG","A41APS6V2Z1FJ","3WPCIUYH1AU470H2HRBLZRFBM3CTDN","","3287.5","","","","","","","","{""Q0"":""A41APS6V2Z1FJ""}"
