"success","trial_type","trial_index","time_elapsed","internal_node_id","assignmentID","mturkID","hitID","view_history","rt","stimulus","key_press","reactionTime","a","r","s","reward_cond","responses"
"true","fullscreen","0","6778","0.0-0.0","31T4R4OBOT29QUCBVUIBZ81ZJSXC7E","A5NE8TWS8ZV7B","338431Z1FL1IVIVZ3BK6A6QS21HROA","","","","","","","","","",""
"","instructions","1","32379","0.0-1.0","31T4R4OBOT29QUCBVUIBZ81ZJSXC7E","A5NE8TWS8ZV7B","338431Z1FL1IVIVZ3BK6A6QS21HROA","[{""page_index"":0,""viewing_time"":4046},{""page_index"":1,""viewing_time"":2468},{""page_index"":2,""viewing_time"":566},{""page_index"":3,""viewing_time"":8427},{""page_index"":4,""viewing_time"":3627},{""page_index"":5,""viewing_time"":4067},{""page_index"":6,""viewing_time"":1497},{""page_index"":7,""viewing_time"":902}]","25600","","","","","","","",""
"","image-keyboard-response","2","33548","0.0-2.0","31T4R4OBOT29QUCBVUIBZ81ZJSXC7E","A5NE8TWS8ZV7B","338431Z1FL1IVIVZ3BK6A6QS21HROA","","1166","img/animal1.png","74","1167","1","1","3","1,0.7,0,1,0.7,0,0.7,0,1",""
"","html-keyboard-response","3","33857","0.0-3.0","31T4R4OBOT29QUCBVUIBZ81ZJSXC7E","A5NE8TWS8ZV7B","338431Z1FL1IVIVZ3BK6A6QS21HROA","","null","<img src=""img/animal1.png"" style=""width:200px; border:14px solid green;"">","null","","","","","",""
"","image-keyboard-response","4","34323","0.0-4.0","31T4R4OBOT29QUCBVUIBZ81ZJSXC7E","A5NE8TWS8ZV7B","338431Z1FL1IVIVZ3BK6A6QS21HROA","","464","img/animal1.png","74","466","1","0","3","1,0.7,0,1,0.7,0,0.7,0,1",""
"","html-keyboard-response","5","34633","0.0-5.0","31T4R4OBOT29QUCBVUIBZ81ZJSXC7E","A5NE8TWS8ZV7B","338431Z1FL1IVIVZ3BK6A6QS21HROA","","null","<img src=""img/animal1.png"" style=""width:200px;border:14px solid red;"">","null","","","","","",""
"","image-keyboard-response","6","35923","0.0-6.0","31T4R4OBOT29QUCBVUIBZ81ZJSXC7E","A5NE8TWS8ZV7B","338431Z1FL1IVIVZ3BK6A6QS21HROA","","1289","img/animal6.png","75","1291","2","0","2","1,0.7,0,1,0.7,0,0.7,0,1",""
"","html-keyboard-response","7","36236","0.0-7.0","31T4R4OBOT29QUCBVUIBZ81ZJSXC7E","A5NE8TWS8ZV7B","338431Z1FL1IVIVZ3BK6A6QS21HROA","","null","<img src=""img/animal6.png"" style=""width:200px;border:14px solid red;"">","null","","","","","",""
"","image-keyboard-response","8","37426","0.0-8.0","31T4R4OBOT29QUCBVUIBZ81ZJSXC7E","A5NE8TWS8ZV7B","338431Z1FL1IVIVZ3BK6A6QS21HROA","","1188","img/animal1.png","75","1191","2","0","3","1,0.7,0,1,0.7,0,0.7,0,1",""
"","html-keyboard-response","9","37732","0.0-9.0","31T4R4OBOT29QUCBVUIBZ81ZJSXC7E","A5NE8TWS8ZV7B","338431Z1FL1IVIVZ3BK6A6QS21HROA","","null","<img src=""img/animal1.png"" style=""width:200px;border:14px solid red;"">","null","","","","","",""
"","image-keyboard-response","10","39716","0.0-10.0","31T4R4OBOT29QUCBVUIBZ81ZJSXC7E","A5NE8TWS8ZV7B","338431Z1FL1IVIVZ3BK6A6QS21HROA","","1983","img/animal4.png","74","1984","1","1","1","1,0.7,0,1,0.7,0,0.7,0,1",""
"","html-keyboard-response","11","40022","0.0-11.0","31T4R4OBOT29QUCBVUIBZ81ZJSXC7E","A5NE8TWS8ZV7B","338431Z1FL1IVIVZ3BK6A6QS21HROA","","null","<img src=""img/animal4.png"" style=""width:200px; border:14px solid green;"">","null","","","","","",""
"","image-keyboard-response","12","40524","0.0-12.0","31T4R4OBOT29QUCBVUIBZ81ZJSXC7E","A5NE8TWS8ZV7B","338431Z1FL1IVIVZ3BK6A6QS21HROA","","500","img/animal4.png","74","500","1","1","1","1,0.7,0,1,0.7,0,0.7,0,1",""
"","html-keyboard-response","13","40827","0.0-13.0","31T4R4OBOT29QUCBVUIBZ81ZJSXC7E","A5NE8TWS8ZV7B","338431Z1FL1IVIVZ3BK6A6QS21HROA","","null","<img src=""img/animal4.png"" style=""width:200px; border:14px solid green;"">","null","","","","","",""
"","image-keyboard-response","14","41955","0.0-14.0","31T4R4OBOT29QUCBVUIBZ81ZJSXC7E","A5NE8TWS8ZV7B","338431Z1FL1IVIVZ3BK6A6QS21HROA","","1127","img/animal6.png","76","1127","3","0","2","1,0.7,0,1,0.7,0,0.7,0,1",""
"","html-keyboard-response","15","42267","0.0-15.0","31T4R4OBOT29QUCBVUIBZ81ZJSXC7E","A5NE8TWS8ZV7B","338431Z1FL1IVIVZ3BK6A6QS21HROA","","null","<img src=""img/animal6.png"" style=""width:200px;border:14px solid red;"">","null","","","","","",""
"","image-keyboard-response","16","43258","0.0-16.0","31T4R4OBOT29QUCBVUIBZ81ZJSXC7E","A5NE8TWS8ZV7B","338431Z1FL1IVIVZ3BK6A6QS21HROA","","990","img/animal1.png","75","991","2","0","3","1,0.7,0,1,0.7,0,0.7,0,1",""
"","html-keyboard-response","17","43559","0.0-17.0","31T4R4OBOT29QUCBVUIBZ81ZJSXC7E","A5NE8TWS8ZV7B","338431Z1FL1IVIVZ3BK6A6QS21HROA","","null","<img src=""img/animal1.png"" style=""width:200px;border:14px solid red;"">","null","","","","","",""
"","image-keyboard-response","18","44187","0.0-18.0","31T4R4OBOT29QUCBVUIBZ81ZJSXC7E","A5NE8TWS8ZV7B","338431Z1FL1IVIVZ3BK6A6QS21HROA","","629","img/animal1.png","76","629","3","1","3","1,0.7,0,1,0.7,0,0.7,0,1",""
"","html-keyboard-response","19","44490","0.0-19.0","31T4R4OBOT29QUCBVUIBZ81ZJSXC7E","A5NE8TWS8ZV7B","338431Z1FL1IVIVZ3BK6A6QS21HROA","","null","<img src=""img/animal1.png"" style=""width:200px; border:14px solid green;"">","null","","","","","",""
"","image-keyboard-response","20","45563","0.0-20.0","31T4R4OBOT29QUCBVUIBZ81ZJSXC7E","A5NE8TWS8ZV7B","338431Z1FL1IVIVZ3BK6A6QS21HROA","","1073","img/animal4.png","74","1073","1","1","1","1,0.7,0,1,0.7,0,0.7,0,1",""
"","html-keyboard-response","21","45874","0.0-21.0","31T4R4OBOT29QUCBVUIBZ81ZJSXC7E","A5NE8TWS8ZV7B","338431Z1FL1IVIVZ3BK6A6QS21HROA","","null","<img src=""img/animal4.png"" style=""width:200px; border:14px solid green;"">","null","","","","","",""
"","image-keyboard-response","22","46499","0.0-22.0","31T4R4OBOT29QUCBVUIBZ81ZJSXC7E","A5NE8TWS8ZV7B","338431Z1FL1IVIVZ3BK6A6QS21HROA","","624","img/animal4.png","74","626","1","1","1","1,0.7,0,1,0.7,0,0.7,0,1",""
"","html-keyboard-response","23","46810","0.0-23.0","31T4R4OBOT29QUCBVUIBZ81ZJSXC7E","A5NE8TWS8ZV7B","338431Z1FL1IVIVZ3BK6A6QS21HROA","","null","<img src=""img/animal4.png"" style=""width:200px; border:14px solid green;"">","null","","","","","",""
"","image-keyboard-response","24","47363","0.0-24.0","31T4R4OBOT29QUCBVUIBZ81ZJSXC7E","A5NE8TWS8ZV7B","338431Z1FL1IVIVZ3BK6A6QS21HROA","","551","img/animal1.png","76","553","3","1","3","1,0.7,0,1,0.7,0,0.7,0,1",""
"","html-keyboard-response","25","47666","0.0-25.0","31T4R4OBOT29QUCBVUIBZ81ZJSXC7E","A5NE8TWS8ZV7B","338431Z1FL1IVIVZ3BK6A6QS21HROA","","null","<img src=""img/animal1.png"" style=""width:200px; border:14px solid green;"">","null","","","","","",""
"","image-keyboard-response","26","48299","0.0-26.0","31T4R4OBOT29QUCBVUIBZ81ZJSXC7E","A5NE8TWS8ZV7B","338431Z1FL1IVIVZ3BK6A6QS21HROA","","631","img/animal4.png","74","632","1","1","1","1,0.7,0,1,0.7,0,0.7,0,1",""
"","html-keyboard-response","27","48613","0.0-27.0","31T4R4OBOT29QUCBVUIBZ81ZJSXC7E","A5NE8TWS8ZV7B","338431Z1FL1IVIVZ3BK6A6QS21HROA","","null","<img src=""img/animal4.png"" style=""width:200px; border:14px solid green;"">","null","","","","","",""
"","image-keyboard-response","28","49195","0.0-28.0","31T4R4OBOT29QUCBVUIBZ81ZJSXC7E","A5NE8TWS8ZV7B","338431Z1FL1IVIVZ3BK6A6QS21HROA","","580","img/animal4.png","74","581","1","1","1","1,0.7,0,1,0.7,0,0.7,0,1",""
"","html-keyboard-response","29","49497","0.0-29.0","31T4R4OBOT29QUCBVUIBZ81ZJSXC7E","A5NE8TWS8ZV7B","338431Z1FL1IVIVZ3BK6A6QS21HROA","","null","<img src=""img/animal4.png"" style=""width:200px; border:14px solid green;"">","null","","","","","",""
"","image-keyboard-response","30","50259","0.0-30.0","31T4R4OBOT29QUCBVUIBZ81ZJSXC7E","A5NE8TWS8ZV7B","338431Z1FL1IVIVZ3BK6A6QS21HROA","","762","img/animal6.png","75","762","2","1","2","1,0.7,0,1,0.7,0,0.7,0,1",""
"","html-keyboard-response","31","50568","0.0-31.0","31T4R4OBOT29QUCBVUIBZ81ZJSXC7E","A5NE8TWS8ZV7B","338431Z1FL1IVIVZ3BK6A6QS21HROA","","null","<img src=""img/animal6.png"" style=""width:200px; border:14px solid green;"">","null","","","","","",""
"","image-keyboard-response","32","51171","0.0-32.0","31T4R4OBOT29QUCBVUIBZ81ZJSXC7E","A5NE8TWS8ZV7B","338431Z1FL1IVIVZ3BK6A6QS21HROA","","604","img/animal6.png","75","604","2","1","2","1,0.7,0,1,0.7,0,0.7,0,1",""
"","html-keyboard-response","33","51484","0.0-33.0","31T4R4OBOT29QUCBVUIBZ81ZJSXC7E","A5NE8TWS8ZV7B","338431Z1FL1IVIVZ3BK6A6QS21HROA","","null","<img src=""img/animal6.png"" style=""width:200px; border:14px solid green;"">","null","","","","","",""
"","image-keyboard-response","34","51851","0.0-34.0","31T4R4OBOT29QUCBVUIBZ81ZJSXC7E","A5NE8TWS8ZV7B","338431Z1FL1IVIVZ3BK6A6QS21HROA","","366","img/animal6.png","75","367","2","1","2","1,0.7,0,1,0.7,0,0.7,0,1",""
"","html-keyboard-response","35","52153","0.0-35.0","31T4R4OBOT29QUCBVUIBZ81ZJSXC7E","A5NE8TWS8ZV7B","338431Z1FL1IVIVZ3BK6A6QS21HROA","","null","<img src=""img/animal6.png"" style=""width:200px; border:14px solid green;"">","null","","","","","",""
"","image-keyboard-response","36","52859","0.0-36.0","31T4R4OBOT29QUCBVUIBZ81ZJSXC7E","A5NE8TWS8ZV7B","338431Z1FL1IVIVZ3BK6A6QS21HROA","","706","img/animal1.png","74","706","1","0","3","1,0.7,0,1,0.7,0,0.7,0,1",""
"","html-keyboard-response","37","53161","0.0-37.0","31T4R4OBOT29QUCBVUIBZ81ZJSXC7E","A5NE8TWS8ZV7B","338431Z1FL1IVIVZ3BK6A6QS21HROA","","null","<img src=""img/animal1.png"" style=""width:200px;border:14px solid red;"">","null","","","","","",""
"","image-keyboard-response","38","55091","0.0-38.0","31T4R4OBOT29QUCBVUIBZ81ZJSXC7E","A5NE8TWS8ZV7B","338431Z1FL1IVIVZ3BK6A6QS21HROA","","1928","img/animal1.png","76","1929","3","1","3","1,0.7,0,1,0.7,0,0.7,0,1",""
"","html-keyboard-response","39","55397","0.0-39.0","31T4R4OBOT29QUCBVUIBZ81ZJSXC7E","A5NE8TWS8ZV7B","338431Z1FL1IVIVZ3BK6A6QS21HROA","","null","<img src=""img/animal1.png"" style=""width:200px; border:14px solid green;"">","null","","","","","",""
"","image-keyboard-response","40","56212","0.0-40.0","31T4R4OBOT29QUCBVUIBZ81ZJSXC7E","A5NE8TWS8ZV7B","338431Z1FL1IVIVZ3BK6A6QS21HROA","","814","img/animal6.png","75","815","2","0","2","1,0.7,0,1,0.7,0,0.7,0,1",""
"","html-keyboard-response","41","56518","0.0-41.0","31T4R4OBOT29QUCBVUIBZ81ZJSXC7E","A5NE8TWS8ZV7B","338431Z1FL1IVIVZ3BK6A6QS21HROA","","null","<img src=""img/animal6.png"" style=""width:200px;border:14px solid red;"">","null","","","","","",""
"","image-keyboard-response","42","57666","0.0-42.0","31T4R4OBOT29QUCBVUIBZ81ZJSXC7E","A5NE8TWS8ZV7B","338431Z1FL1IVIVZ3BK6A6QS21HROA","","1146","img/animal4.png","76","1148","3","0","1","1,0.7,0,1,0.7,0,0.7,0,1",""
"","html-keyboard-response","43","57982","0.0-43.0","31T4R4OBOT29QUCBVUIBZ81ZJSXC7E","A5NE8TWS8ZV7B","338431Z1FL1IVIVZ3BK6A6QS21HROA","","null","<img src=""img/animal4.png"" style=""width:200px;border:14px solid red;"">","null","","","","","",""
"","image-keyboard-response","44","59476","0.0-44.0","31T4R4OBOT29QUCBVUIBZ81ZJSXC7E","A5NE8TWS8ZV7B","338431Z1FL1IVIVZ3BK6A6QS21HROA","","1492","img/animal6.png","75","1494","2","1","2","1,0.7,0,1,0.7,0,0.7,0,1",""
"","html-keyboard-response","45","59784","0.0-45.0","31T4R4OBOT29QUCBVUIBZ81ZJSXC7E","A5NE8TWS8ZV7B","338431Z1FL1IVIVZ3BK6A6QS21HROA","","null","<img src=""img/animal6.png"" style=""width:200px; border:14px solid green;"">","null","","","","","",""
"","image-keyboard-response","46","60571","0.0-46.0","31T4R4OBOT29QUCBVUIBZ81ZJSXC7E","A5NE8TWS8ZV7B","338431Z1FL1IVIVZ3BK6A6QS21HROA","","785","img/animal1.png","74","787","1","1","3","1,0.7,0,1,0.7,0,0.7,0,1",""
"","html-keyboard-response","47","60883","0.0-47.0","31T4R4OBOT29QUCBVUIBZ81ZJSXC7E","A5NE8TWS8ZV7B","338431Z1FL1IVIVZ3BK6A6QS21HROA","","null","<img src=""img/animal1.png"" style=""width:200px; border:14px solid green;"">","null","","","","","",""
"","image-keyboard-response","48","61747","0.0-48.0","31T4R4OBOT29QUCBVUIBZ81ZJSXC7E","A5NE8TWS8ZV7B","338431Z1FL1IVIVZ3BK6A6QS21HROA","","862","img/animal6.png","75","864","2","1","2","1,0.7,0,1,0.7,0,0.7,0,1",""
"","html-keyboard-response","49","62049","0.0-49.0","31T4R4OBOT29QUCBVUIBZ81ZJSXC7E","A5NE8TWS8ZV7B","338431Z1FL1IVIVZ3BK6A6QS21HROA","","null","<img src=""img/animal6.png"" style=""width:200px; border:14px solid green;"">","null","","","","","",""
"","image-keyboard-response","50","63033","0.0-50.0","31T4R4OBOT29QUCBVUIBZ81ZJSXC7E","A5NE8TWS8ZV7B","338431Z1FL1IVIVZ3BK6A6QS21HROA","","984","img/animal4.png","76","984","3","0","1","1,0.7,0,1,0.7,0,0.7,0,1",""
"","html-keyboard-response","51","63334","0.0-51.0","31T4R4OBOT29QUCBVUIBZ81ZJSXC7E","A5NE8TWS8ZV7B","338431Z1FL1IVIVZ3BK6A6QS21HROA","","null","<img src=""img/animal4.png"" style=""width:200px;border:14px solid red;"">","null","","","","","",""
"","image-keyboard-response","52","64066","0.0-52.0","31T4R4OBOT29QUCBVUIBZ81ZJSXC7E","A5NE8TWS8ZV7B","338431Z1FL1IVIVZ3BK6A6QS21HROA","","731","img/animal4.png","74","731","1","1","1","1,0.7,0,1,0.7,0,0.7,0,1",""
"","html-keyboard-response","53","64379","0.0-53.0","31T4R4OBOT29QUCBVUIBZ81ZJSXC7E","A5NE8TWS8ZV7B","338431Z1FL1IVIVZ3BK6A6QS21HROA","","null","<img src=""img/animal4.png"" style=""width:200px; border:14px solid green;"">","null","","","","","",""
"","image-keyboard-response","54","65169","0.0-54.0","31T4R4OBOT29QUCBVUIBZ81ZJSXC7E","A5NE8TWS8ZV7B","338431Z1FL1IVIVZ3BK6A6QS21HROA","","789","img/animal1.png","76","790","3","1","3","1,0.7,0,1,0.7,0,0.7,0,1",""
"","html-keyboard-response","55","65480","0.0-55.0","31T4R4OBOT29QUCBVUIBZ81ZJSXC7E","A5NE8TWS8ZV7B","338431Z1FL1IVIVZ3BK6A6QS21HROA","","null","<img src=""img/animal1.png"" style=""width:200px; border:14px solid green;"">","null","","","","","",""
"","image-keyboard-response","56","66900","0.0-56.0","31T4R4OBOT29QUCBVUIBZ81ZJSXC7E","A5NE8TWS8ZV7B","338431Z1FL1IVIVZ3BK6A6QS21HROA","","1419","img/animal4.png","74","1419","1","1","1","1,0.7,0,1,0.7,0,0.7,0,1",""
"","html-keyboard-response","57","67203","0.0-57.0","31T4R4OBOT29QUCBVUIBZ81ZJSXC7E","A5NE8TWS8ZV7B","338431Z1FL1IVIVZ3BK6A6QS21HROA","","null","<img src=""img/animal4.png"" style=""width:200px; border:14px solid green;"">","null","","","","","",""
"","image-keyboard-response","58","67899","0.0-58.0","31T4R4OBOT29QUCBVUIBZ81ZJSXC7E","A5NE8TWS8ZV7B","338431Z1FL1IVIVZ3BK6A6QS21HROA","","694","img/animal1.png","76","696","3","1","3","1,0.7,0,1,0.7,0,0.7,0,1",""
"","html-keyboard-response","59","68200","0.0-59.0","31T4R4OBOT29QUCBVUIBZ81ZJSXC7E","A5NE8TWS8ZV7B","338431Z1FL1IVIVZ3BK6A6QS21HROA","","null","<img src=""img/animal1.png"" style=""width:200px; border:14px solid green;"">","null","","","","","",""
"","image-keyboard-response","60","68965","0.0-60.0","31T4R4OBOT29QUCBVUIBZ81ZJSXC7E","A5NE8TWS8ZV7B","338431Z1FL1IVIVZ3BK6A6QS21HROA","","763","img/animal4.png","76","765","3","0","1","1,0.7,0,1,0.7,0,0.7,0,1",""
"","html-keyboard-response","61","69271","0.0-61.0","31T4R4OBOT29QUCBVUIBZ81ZJSXC7E","A5NE8TWS8ZV7B","338431Z1FL1IVIVZ3BK6A6QS21HROA","","null","<img src=""img/animal4.png"" style=""width:200px;border:14px solid red;"">","null","","","","","",""
"","image-keyboard-response","62","71314","0.0-62.0","31T4R4OBOT29QUCBVUIBZ81ZJSXC7E","A5NE8TWS8ZV7B","338431Z1FL1IVIVZ3BK6A6QS21HROA","","2043","img/animal1.png","76","2043","3","1","3","1,0.7,0,1,0.7,0,0.7,0,1",""
"","html-keyboard-response","63","71620","0.0-63.0","31T4R4OBOT29QUCBVUIBZ81ZJSXC7E","A5NE8TWS8ZV7B","338431Z1FL1IVIVZ3BK6A6QS21HROA","","null","<img src=""img/animal1.png"" style=""width:200px; border:14px solid green;"">","null","","","","","",""
"","image-keyboard-response","64","72507","0.0-64.0","31T4R4OBOT29QUCBVUIBZ81ZJSXC7E","A5NE8TWS8ZV7B","338431Z1FL1IVIVZ3BK6A6QS21HROA","","885","img/animal6.png","75","885","2","1","2","1,0.7,0,1,0.7,0,0.7,0,1",""
"","html-keyboard-response","65","72814","0.0-65.0","31T4R4OBOT29QUCBVUIBZ81ZJSXC7E","A5NE8TWS8ZV7B","338431Z1FL1IVIVZ3BK6A6QS21HROA","","null","<img src=""img/animal6.png"" style=""width:200px; border:14px solid green;"">","null","","","","","",""
"","image-keyboard-response","66","73539","0.0-66.0","31T4R4OBOT29QUCBVUIBZ81ZJSXC7E","A5NE8TWS8ZV7B","338431Z1FL1IVIVZ3BK6A6QS21HROA","","722","img/animal6.png","75","724","2","0","2","1,0.7,0,1,0.7,0,0.7,0,1",""
"","html-keyboard-response","67","73853","0.0-67.0","31T4R4OBOT29QUCBVUIBZ81ZJSXC7E","A5NE8TWS8ZV7B","338431Z1FL1IVIVZ3BK6A6QS21HROA","","null","<img src=""img/animal6.png"" style=""width:200px;border:14px solid red;"">","null","","","","","",""
"","image-keyboard-response","68","74243","0.0-68.0","31T4R4OBOT29QUCBVUIBZ81ZJSXC7E","A5NE8TWS8ZV7B","338431Z1FL1IVIVZ3BK6A6QS21HROA","","388","img/animal6.png","75","390","2","1","2","1,0.7,0,1,0.7,0,0.7,0,1",""
"","html-keyboard-response","69","74553","0.0-69.0","31T4R4OBOT29QUCBVUIBZ81ZJSXC7E","A5NE8TWS8ZV7B","338431Z1FL1IVIVZ3BK6A6QS21HROA","","null","<img src=""img/animal6.png"" style=""width:200px; border:14px solid green;"">","null","","","","","",""
"","image-keyboard-response","70","74995","0.0-70.0","31T4R4OBOT29QUCBVUIBZ81ZJSXC7E","A5NE8TWS8ZV7B","338431Z1FL1IVIVZ3BK6A6QS21HROA","","439","img/animal6.png","75","441","2","0","2","1,0.7,0,1,0.7,0,0.7,0,1",""
"","html-keyboard-response","71","75300","0.0-71.0","31T4R4OBOT29QUCBVUIBZ81ZJSXC7E","A5NE8TWS8ZV7B","338431Z1FL1IVIVZ3BK6A6QS21HROA","","null","<img src=""img/animal6.png"" style=""width:200px;border:14px solid red;"">","null","","","","","",""
"","image-keyboard-response","72","77114","0.0-72.0","31T4R4OBOT29QUCBVUIBZ81ZJSXC7E","A5NE8TWS8ZV7B","338431Z1FL1IVIVZ3BK6A6QS21HROA","","1812","img/animal1.png","76","1814","3","1","3","1,0.7,0,1,0.7,0,0.7,0,1",""
"","html-keyboard-response","73","77417","0.0-73.0","31T4R4OBOT29QUCBVUIBZ81ZJSXC7E","A5NE8TWS8ZV7B","338431Z1FL1IVIVZ3BK6A6QS21HROA","","null","<img src=""img/animal1.png"" style=""width:200px; border:14px solid green;"">","null","","","","","",""
"","image-keyboard-response","74","78610","0.0-74.0","31T4R4OBOT29QUCBVUIBZ81ZJSXC7E","A5NE8TWS8ZV7B","338431Z1FL1IVIVZ3BK6A6QS21HROA","","1191","img/animal6.png","75","1192","2","1","2","1,0.7,0,1,0.7,0,0.7,0,1",""
"","html-keyboard-response","75","78919","0.0-75.0","31T4R4OBOT29QUCBVUIBZ81ZJSXC7E","A5NE8TWS8ZV7B","338431Z1FL1IVIVZ3BK6A6QS21HROA","","null","<img src=""img/animal6.png"" style=""width:200px; border:14px solid green;"">","null","","","","","",""
"","image-keyboard-response","76","79819","0.0-76.0","31T4R4OBOT29QUCBVUIBZ81ZJSXC7E","A5NE8TWS8ZV7B","338431Z1FL1IVIVZ3BK6A6QS21HROA","","898","img/animal4.png","74","898","1","1","1","1,0.7,0,1,0.7,0,0.7,0,1",""
"","html-keyboard-response","77","80121","0.0-77.0","31T4R4OBOT29QUCBVUIBZ81ZJSXC7E","A5NE8TWS8ZV7B","338431Z1FL1IVIVZ3BK6A6QS21HROA","","null","<img src=""img/animal4.png"" style=""width:200px; border:14px solid green;"">","null","","","","","",""
"","image-keyboard-response","78","80922","0.0-78.0","31T4R4OBOT29QUCBVUIBZ81ZJSXC7E","A5NE8TWS8ZV7B","338431Z1FL1IVIVZ3BK6A6QS21HROA","","800","img/animal6.png","75","800","2","1","2","1,0.7,0,1,0.7,0,0.7,0,1",""
"","html-keyboard-response","79","81225","0.0-79.0","31T4R4OBOT29QUCBVUIBZ81ZJSXC7E","A5NE8TWS8ZV7B","338431Z1FL1IVIVZ3BK6A6QS21HROA","","null","<img src=""img/animal6.png"" style=""width:200px; border:14px solid green;"">","null","","","","","",""
"","image-keyboard-response","80","81627","0.0-80.0","31T4R4OBOT29QUCBVUIBZ81ZJSXC7E","A5NE8TWS8ZV7B","338431Z1FL1IVIVZ3BK6A6QS21HROA","","401","img/animal6.png","75","401","2","1","2","1,0.7,0,1,0.7,0,0.7,0,1",""
"","html-keyboard-response","81","81941","0.0-81.0","31T4R4OBOT29QUCBVUIBZ81ZJSXC7E","A5NE8TWS8ZV7B","338431Z1FL1IVIVZ3BK6A6QS21HROA","","null","<img src=""img/animal6.png"" style=""width:200px; border:14px solid green;"">","null","","","","","",""
"","image-keyboard-response","82","82915","0.0-82.0","31T4R4OBOT29QUCBVUIBZ81ZJSXC7E","A5NE8TWS8ZV7B","338431Z1FL1IVIVZ3BK6A6QS21HROA","","972","img/animal4.png","74","974","1","1","1","1,0.7,0,1,0.7,0,0.7,0,1",""
"","html-keyboard-response","83","83226","0.0-83.0","31T4R4OBOT29QUCBVUIBZ81ZJSXC7E","A5NE8TWS8ZV7B","338431Z1FL1IVIVZ3BK6A6QS21HROA","","null","<img src=""img/animal4.png"" style=""width:200px; border:14px solid green;"">","null","","","","","",""
"","image-keyboard-response","84","84041","0.0-84.0","31T4R4OBOT29QUCBVUIBZ81ZJSXC7E","A5NE8TWS8ZV7B","338431Z1FL1IVIVZ3BK6A6QS21HROA","","814","img/animal1.png","76","815","3","1","3","1,0.7,0,1,0.7,0,0.7,0,1",""
"","html-keyboard-response","85","84343","0.0-85.0","31T4R4OBOT29QUCBVUIBZ81ZJSXC7E","A5NE8TWS8ZV7B","338431Z1FL1IVIVZ3BK6A6QS21HROA","","null","<img src=""img/animal1.png"" style=""width:200px; border:14px solid green;"">","null","","","","","",""
"","image-keyboard-response","86","85283","0.0-86.0","31T4R4OBOT29QUCBVUIBZ81ZJSXC7E","A5NE8TWS8ZV7B","338431Z1FL1IVIVZ3BK6A6QS21HROA","","939","img/animal4.png","74","940","1","1","1","1,0.7,0,1,0.7,0,0.7,0,1",""
"","html-keyboard-response","87","85598","0.0-87.0","31T4R4OBOT29QUCBVUIBZ81ZJSXC7E","A5NE8TWS8ZV7B","338431Z1FL1IVIVZ3BK6A6QS21HROA","","null","<img src=""img/animal4.png"" style=""width:200px; border:14px solid green;"">","null","","","","","",""
"","image-keyboard-response","88","86339","0.0-88.0","31T4R4OBOT29QUCBVUIBZ81ZJSXC7E","A5NE8TWS8ZV7B","338431Z1FL1IVIVZ3BK6A6QS21HROA","","738","img/animal4.png","74","740","1","1","1","1,0.7,0,1,0.7,0,0.7,0,1",""
"","html-keyboard-response","89","86656","0.0-89.0","31T4R4OBOT29QUCBVUIBZ81ZJSXC7E","A5NE8TWS8ZV7B","338431Z1FL1IVIVZ3BK6A6QS21HROA","","null","<img src=""img/animal4.png"" style=""width:200px; border:14px solid green;"">","null","","","","","",""
"","image-keyboard-response","90","87372","0.0-90.0","31T4R4OBOT29QUCBVUIBZ81ZJSXC7E","A5NE8TWS8ZV7B","338431Z1FL1IVIVZ3BK6A6QS21HROA","","716","img/animal1.png","76","716","3","1","3","1,0.7,0,1,0.7,0,0.7,0,1",""
"","html-keyboard-response","91","87682","0.0-91.0","31T4R4OBOT29QUCBVUIBZ81ZJSXC7E","A5NE8TWS8ZV7B","338431Z1FL1IVIVZ3BK6A6QS21HROA","","null","<img src=""img/animal1.png"" style=""width:200px; border:14px solid green;"">","null","","","","","",""
"","image-keyboard-response","92","88050","0.0-92.0","31T4R4OBOT29QUCBVUIBZ81ZJSXC7E","A5NE8TWS8ZV7B","338431Z1FL1IVIVZ3BK6A6QS21HROA","","366","img/animal1.png","76","368","3","1","3","1,0.7,0,1,0.7,0,0.7,0,1",""
"","html-keyboard-response","93","88363","0.0-93.0","31T4R4OBOT29QUCBVUIBZ81ZJSXC7E","A5NE8TWS8ZV7B","338431Z1FL1IVIVZ3BK6A6QS21HROA","","null","<img src=""img/animal1.png"" style=""width:200px; border:14px solid green;"">","null","","","","","",""
"","image-keyboard-response","94","88852","0.0-94.0","31T4R4OBOT29QUCBVUIBZ81ZJSXC7E","A5NE8TWS8ZV7B","338431Z1FL1IVIVZ3BK6A6QS21HROA","","487","img/animal6.png","75","488","2","1","2","1,0.7,0,1,0.7,0,0.7,0,1",""
"","html-keyboard-response","95","89154","0.0-95.0","31T4R4OBOT29QUCBVUIBZ81ZJSXC7E","A5NE8TWS8ZV7B","338431Z1FL1IVIVZ3BK6A6QS21HROA","","null","<img src=""img/animal6.png"" style=""width:200px; border:14px solid green;"">","null","","","","","",""
"","image-keyboard-response","96","89531","0.0-96.0","31T4R4OBOT29QUCBVUIBZ81ZJSXC7E","A5NE8TWS8ZV7B","338431Z1FL1IVIVZ3BK6A6QS21HROA","","375","img/animal6.png","75","376","2","0","2","1,0.7,0,1,0.7,0,0.7,0,1",""
"","html-keyboard-response","97","89840","0.0-97.0","31T4R4OBOT29QUCBVUIBZ81ZJSXC7E","A5NE8TWS8ZV7B","338431Z1FL1IVIVZ3BK6A6QS21HROA","","null","<img src=""img/animal6.png"" style=""width:200px;border:14px solid red;"">","null","","","","","",""
"","image-keyboard-response","98","91267","0.0-98.0","31T4R4OBOT29QUCBVUIBZ81ZJSXC7E","A5NE8TWS8ZV7B","338431Z1FL1IVIVZ3BK6A6QS21HROA","","1426","img/animal1.png","76","1427","3","1","3","1,0.7,0,1,0.7,0,0.7,0,1",""
"","html-keyboard-response","99","91580","0.0-99.0","31T4R4OBOT29QUCBVUIBZ81ZJSXC7E","A5NE8TWS8ZV7B","338431Z1FL1IVIVZ3BK6A6QS21HROA","","null","<img src=""img/animal1.png"" style=""width:200px; border:14px solid green;"">","null","","","","","",""
"","image-keyboard-response","100","91939","0.0-100.0","31T4R4OBOT29QUCBVUIBZ81ZJSXC7E","A5NE8TWS8ZV7B","338431Z1FL1IVIVZ3BK6A6QS21HROA","","358","img/animal1.png","76","359","3","1","3","1,0.7,0,1,0.7,0,0.7,0,1",""
"","html-keyboard-response","101","92249","0.0-101.0","31T4R4OBOT29QUCBVUIBZ81ZJSXC7E","A5NE8TWS8ZV7B","338431Z1FL1IVIVZ3BK6A6QS21HROA","","null","<img src=""img/animal1.png"" style=""width:200px; border:14px solid green;"">","null","","","","","",""
"","image-keyboard-response","102","93043","0.0-102.0","31T4R4OBOT29QUCBVUIBZ81ZJSXC7E","A5NE8TWS8ZV7B","338431Z1FL1IVIVZ3BK6A6QS21HROA","","792","img/animal6.png","75","795","2","1","2","1,0.7,0,1,0.7,0,0.7,0,1",""
"","html-keyboard-response","103","93352","0.0-103.0","31T4R4OBOT29QUCBVUIBZ81ZJSXC7E","A5NE8TWS8ZV7B","338431Z1FL1IVIVZ3BK6A6QS21HROA","","null","<img src=""img/animal6.png"" style=""width:200px; border:14px solid green;"">","null","","","","","",""
"","image-keyboard-response","104","94531","0.0-104.0","31T4R4OBOT29QUCBVUIBZ81ZJSXC7E","A5NE8TWS8ZV7B","338431Z1FL1IVIVZ3BK6A6QS21HROA","","1177","img/animal4.png","74","1178","1","1","1","1,0.7,0,1,0.7,0,0.7,0,1",""
"","html-keyboard-response","105","94838","0.0-105.0","31T4R4OBOT29QUCBVUIBZ81ZJSXC7E","A5NE8TWS8ZV7B","338431Z1FL1IVIVZ3BK6A6QS21HROA","","null","<img src=""img/animal4.png"" style=""width:200px; border:14px solid green;"">","null","","","","","",""
"","image-keyboard-response","106","95586","0.0-106.0","31T4R4OBOT29QUCBVUIBZ81ZJSXC7E","A5NE8TWS8ZV7B","338431Z1FL1IVIVZ3BK6A6QS21HROA","","747","img/animal6.png","75","748","2","1","2","1,0.7,0,1,0.7,0,0.7,0,1",""
"","html-keyboard-response","107","95895","0.0-107.0","31T4R4OBOT29QUCBVUIBZ81ZJSXC7E","A5NE8TWS8ZV7B","338431Z1FL1IVIVZ3BK6A6QS21HROA","","null","<img src=""img/animal6.png"" style=""width:200px; border:14px solid green;"">","null","","","","","",""
"","image-keyboard-response","108","96354","0.0-108.0","31T4R4OBOT29QUCBVUIBZ81ZJSXC7E","A5NE8TWS8ZV7B","338431Z1FL1IVIVZ3BK6A6QS21HROA","","458","img/animal6.png","75","459","2","0","2","1,0.7,0,1,0.7,0,0.7,0,1",""
"","html-keyboard-response","109","96670","0.0-109.0","31T4R4OBOT29QUCBVUIBZ81ZJSXC7E","A5NE8TWS8ZV7B","338431Z1FL1IVIVZ3BK6A6QS21HROA","","null","<img src=""img/animal6.png"" style=""width:200px;border:14px solid red;"">","null","","","","","",""
"","image-keyboard-response","110","97043","0.0-110.0","31T4R4OBOT29QUCBVUIBZ81ZJSXC7E","A5NE8TWS8ZV7B","338431Z1FL1IVIVZ3BK6A6QS21HROA","","372","img/animal6.png","75","372","2","1","2","1,0.7,0,1,0.7,0,0.7,0,1",""
"","html-keyboard-response","111","97355","0.0-111.0","31T4R4OBOT29QUCBVUIBZ81ZJSXC7E","A5NE8TWS8ZV7B","338431Z1FL1IVIVZ3BK6A6QS21HROA","","null","<img src=""img/animal6.png"" style=""width:200px; border:14px solid green;"">","null","","","","","",""
"","image-keyboard-response","112","98449","0.0-112.0","31T4R4OBOT29QUCBVUIBZ81ZJSXC7E","A5NE8TWS8ZV7B","338431Z1FL1IVIVZ3BK6A6QS21HROA","","1093","img/animal1.png","76","1093","3","1","3","1,0.7,0,1,0.7,0,0.7,0,1",""
"","html-keyboard-response","113","98753","0.0-113.0","31T4R4OBOT29QUCBVUIBZ81ZJSXC7E","A5NE8TWS8ZV7B","338431Z1FL1IVIVZ3BK6A6QS21HROA","","null","<img src=""img/animal1.png"" style=""width:200px; border:14px solid green;"">","null","","","","","",""
"","image-keyboard-response","114","99137","0.0-114.0","31T4R4OBOT29QUCBVUIBZ81ZJSXC7E","A5NE8TWS8ZV7B","338431Z1FL1IVIVZ3BK6A6QS21HROA","","381","img/animal1.png","76","384","3","1","3","1,0.7,0,1,0.7,0,0.7,0,1",""
"","html-keyboard-response","115","99449","0.0-115.0","31T4R4OBOT29QUCBVUIBZ81ZJSXC7E","A5NE8TWS8ZV7B","338431Z1FL1IVIVZ3BK6A6QS21HROA","","null","<img src=""img/animal1.png"" style=""width:200px; border:14px solid green;"">","null","","","","","",""
"","image-keyboard-response","116","100075","0.0-116.0","31T4R4OBOT29QUCBVUIBZ81ZJSXC7E","A5NE8TWS8ZV7B","338431Z1FL1IVIVZ3BK6A6QS21HROA","","625","img/animal4.png","74","626","1","1","1","1,0.7,0,1,0.7,0,0.7,0,1",""
"","html-keyboard-response","117","100385","0.0-117.0","31T4R4OBOT29QUCBVUIBZ81ZJSXC7E","A5NE8TWS8ZV7B","338431Z1FL1IVIVZ3BK6A6QS21HROA","","null","<img src=""img/animal4.png"" style=""width:200px; border:14px solid green;"">","null","","","","","",""
"","image-keyboard-response","118","100747","0.0-118.0","31T4R4OBOT29QUCBVUIBZ81ZJSXC7E","A5NE8TWS8ZV7B","338431Z1FL1IVIVZ3BK6A6QS21HROA","","362","img/animal4.png","74","362","1","1","1","1,0.7,0,1,0.7,0,0.7,0,1",""
"","html-keyboard-response","119","101051","0.0-119.0","31T4R4OBOT29QUCBVUIBZ81ZJSXC7E","A5NE8TWS8ZV7B","338431Z1FL1IVIVZ3BK6A6QS21HROA","","null","<img src=""img/animal4.png"" style=""width:200px; border:14px solid green;"">","null","","","","","",""
"","image-keyboard-response","120","101412","0.0-120.0","31T4R4OBOT29QUCBVUIBZ81ZJSXC7E","A5NE8TWS8ZV7B","338431Z1FL1IVIVZ3BK6A6QS21HROA","","359","img/animal4.png","74","359","1","1","1","1,0.7,0,1,0.7,0,0.7,0,1",""
"","html-keyboard-response","121","101719","0.0-121.0","31T4R4OBOT29QUCBVUIBZ81ZJSXC7E","A5NE8TWS8ZV7B","338431Z1FL1IVIVZ3BK6A6QS21HROA","","null","<img src=""img/animal4.png"" style=""width:200px; border:14px solid green;"">","null","","","","","",""
"","image-keyboard-response","122","102251","0.0-122.0","31T4R4OBOT29QUCBVUIBZ81ZJSXC7E","A5NE8TWS8ZV7B","338431Z1FL1IVIVZ3BK6A6QS21HROA","","531","img/animal1.png","76","532","3","1","3","1,0.7,0,1,0.7,0,0.7,0,1",""
"","html-keyboard-response","123","102560","0.0-123.0","31T4R4OBOT29QUCBVUIBZ81ZJSXC7E","A5NE8TWS8ZV7B","338431Z1FL1IVIVZ3BK6A6QS21HROA","","null","<img src=""img/animal1.png"" style=""width:200px; border:14px solid green;"">","null","","","","","",""
"","image-keyboard-response","124","103585","0.0-124.0","31T4R4OBOT29QUCBVUIBZ81ZJSXC7E","A5NE8TWS8ZV7B","338431Z1FL1IVIVZ3BK6A6QS21HROA","","1024","img/animal4.png","74","1025","1","1","1","1,0.7,0,1,0.7,0,0.7,0,1",""
"","html-keyboard-response","125","103891","0.0-125.0","31T4R4OBOT29QUCBVUIBZ81ZJSXC7E","A5NE8TWS8ZV7B","338431Z1FL1IVIVZ3BK6A6QS21HROA","","null","<img src=""img/animal4.png"" style=""width:200px; border:14px solid green;"">","null","","","","","",""
"","image-keyboard-response","126","104739","0.0-126.0","31T4R4OBOT29QUCBVUIBZ81ZJSXC7E","A5NE8TWS8ZV7B","338431Z1FL1IVIVZ3BK6A6QS21HROA","","847","img/animal6.png","75","848","2","0","2","1,0.7,0,1,0.7,0,0.7,0,1",""
"","html-keyboard-response","127","105042","0.0-127.0","31T4R4OBOT29QUCBVUIBZ81ZJSXC7E","A5NE8TWS8ZV7B","338431Z1FL1IVIVZ3BK6A6QS21HROA","","null","<img src=""img/animal6.png"" style=""width:200px;border:14px solid red;"">","null","","","","","",""
"","image-keyboard-response","128","105802","0.0-128.0","31T4R4OBOT29QUCBVUIBZ81ZJSXC7E","A5NE8TWS8ZV7B","338431Z1FL1IVIVZ3BK6A6QS21HROA","","759","img/animal4.png","74","760","1","1","1","1,0.7,0,1,0.7,0,0.7,0,1",""
"","html-keyboard-response","129","106117","0.0-129.0","31T4R4OBOT29QUCBVUIBZ81ZJSXC7E","A5NE8TWS8ZV7B","338431Z1FL1IVIVZ3BK6A6QS21HROA","","null","<img src=""img/animal4.png"" style=""width:200px; border:14px solid green;"">","null","","","","","",""
"","image-keyboard-response","130","106514","0.0-130.0","31T4R4OBOT29QUCBVUIBZ81ZJSXC7E","A5NE8TWS8ZV7B","338431Z1FL1IVIVZ3BK6A6QS21HROA","","396","img/animal4.png","74","397","1","1","1","1,0.7,0,1,0.7,0,0.7,0,1",""
"","html-keyboard-response","131","106830","0.0-131.0","31T4R4OBOT29QUCBVUIBZ81ZJSXC7E","A5NE8TWS8ZV7B","338431Z1FL1IVIVZ3BK6A6QS21HROA","","null","<img src=""img/animal4.png"" style=""width:200px; border:14px solid green;"">","null","","","","","",""
"","image-keyboard-response","132","107507","0.0-132.0","31T4R4OBOT29QUCBVUIBZ81ZJSXC7E","A5NE8TWS8ZV7B","338431Z1FL1IVIVZ3BK6A6QS21HROA","","676","img/animal1.png","76","677","3","1","3","1,0.7,0,1,0.7,0,0.7,0,1",""
"","html-keyboard-response","133","107821","0.0-133.0","31T4R4OBOT29QUCBVUIBZ81ZJSXC7E","A5NE8TWS8ZV7B","338431Z1FL1IVIVZ3BK6A6QS21HROA","","null","<img src=""img/animal1.png"" style=""width:200px; border:14px solid green;"">","null","","","","","",""
"","image-keyboard-response","134","108571","0.0-134.0","31T4R4OBOT29QUCBVUIBZ81ZJSXC7E","A5NE8TWS8ZV7B","338431Z1FL1IVIVZ3BK6A6QS21HROA","","749","img/animal6.png","75","751","2","1","2","1,0.7,0,1,0.7,0,0.7,0,1",""
"","html-keyboard-response","135","108873","0.0-135.0","31T4R4OBOT29QUCBVUIBZ81ZJSXC7E","A5NE8TWS8ZV7B","338431Z1FL1IVIVZ3BK6A6QS21HROA","","null","<img src=""img/animal6.png"" style=""width:200px; border:14px solid green;"">","null","","","","","",""
"","image-keyboard-response","136","109667","0.0-136.0","31T4R4OBOT29QUCBVUIBZ81ZJSXC7E","A5NE8TWS8ZV7B","338431Z1FL1IVIVZ3BK6A6QS21HROA","","792","img/animal4.png","74","793","1","1","1","1,0.7,0,1,0.7,0,0.7,0,1",""
"","html-keyboard-response","137","109976","0.0-137.0","31T4R4OBOT29QUCBVUIBZ81ZJSXC7E","A5NE8TWS8ZV7B","338431Z1FL1IVIVZ3BK6A6QS21HROA","","null","<img src=""img/animal4.png"" style=""width:200px; border:14px solid green;"">","null","","","","","",""
"","image-keyboard-response","138","110611","0.0-138.0","31T4R4OBOT29QUCBVUIBZ81ZJSXC7E","A5NE8TWS8ZV7B","338431Z1FL1IVIVZ3BK6A6QS21HROA","","634","img/animal1.png","76","635","3","1","3","1,0.7,0,1,0.7,0,0.7,0,1",""
"","html-keyboard-response","139","110922","0.0-139.0","31T4R4OBOT29QUCBVUIBZ81ZJSXC7E","A5NE8TWS8ZV7B","338431Z1FL1IVIVZ3BK6A6QS21HROA","","null","<img src=""img/animal1.png"" style=""width:200px; border:14px solid green;"">","null","","","","","",""
"","image-keyboard-response","140","111404","0.0-140.0","31T4R4OBOT29QUCBVUIBZ81ZJSXC7E","A5NE8TWS8ZV7B","338431Z1FL1IVIVZ3BK6A6QS21HROA","","481","img/animal1.png","76","482","3","1","3","1,0.7,0,1,0.7,0,0.7,0,1",""
"","html-keyboard-response","141","111716","0.0-141.0","31T4R4OBOT29QUCBVUIBZ81ZJSXC7E","A5NE8TWS8ZV7B","338431Z1FL1IVIVZ3BK6A6QS21HROA","","null","<img src=""img/animal1.png"" style=""width:200px; border:14px solid green;"">","null","","","","","",""
"","image-keyboard-response","142","112139","0.0-142.0","31T4R4OBOT29QUCBVUIBZ81ZJSXC7E","A5NE8TWS8ZV7B","338431Z1FL1IVIVZ3BK6A6QS21HROA","","421","img/animal1.png","76","423","3","1","3","1,0.7,0,1,0.7,0,0.7,0,1",""
"","html-keyboard-response","143","112450","0.0-143.0","31T4R4OBOT29QUCBVUIBZ81ZJSXC7E","A5NE8TWS8ZV7B","338431Z1FL1IVIVZ3BK6A6QS21HROA","","null","<img src=""img/animal1.png"" style=""width:200px; border:14px solid green;"">","null","","","","","",""
"","image-keyboard-response","144","113211","0.0-144.0","31T4R4OBOT29QUCBVUIBZ81ZJSXC7E","A5NE8TWS8ZV7B","338431Z1FL1IVIVZ3BK6A6QS21HROA","","759","img/animal6.png","75","760","2","0","2","1,0.7,0,1,0.7,0,0.7,0,1",""
"","html-keyboard-response","145","113520","0.0-145.0","31T4R4OBOT29QUCBVUIBZ81ZJSXC7E","A5NE8TWS8ZV7B","338431Z1FL1IVIVZ3BK6A6QS21HROA","","null","<img src=""img/animal6.png"" style=""width:200px;border:14px solid red;"">","null","","","","","",""
"","image-keyboard-response","146","114322","0.0-146.0","31T4R4OBOT29QUCBVUIBZ81ZJSXC7E","A5NE8TWS8ZV7B","338431Z1FL1IVIVZ3BK6A6QS21HROA","","801","img/animal4.png","74","802","1","1","1","1,0.7,0,1,0.7,0,0.7,0,1",""
"","html-keyboard-response","147","114625","0.0-147.0","31T4R4OBOT29QUCBVUIBZ81ZJSXC7E","A5NE8TWS8ZV7B","338431Z1FL1IVIVZ3BK6A6QS21HROA","","null","<img src=""img/animal4.png"" style=""width:200px; border:14px solid green;"">","null","","","","","",""
"","image-keyboard-response","148","115083","0.0-148.0","31T4R4OBOT29QUCBVUIBZ81ZJSXC7E","A5NE8TWS8ZV7B","338431Z1FL1IVIVZ3BK6A6QS21HROA","","457","img/animal4.png","74","458","1","1","1","1,0.7,0,1,0.7,0,0.7,0,1",""
"","html-keyboard-response","149","115395","0.0-149.0","31T4R4OBOT29QUCBVUIBZ81ZJSXC7E","A5NE8TWS8ZV7B","338431Z1FL1IVIVZ3BK6A6QS21HROA","","null","<img src=""img/animal4.png"" style=""width:200px; border:14px solid green;"">","null","","","","","",""
"","image-keyboard-response","150","116131","0.0-150.0","31T4R4OBOT29QUCBVUIBZ81ZJSXC7E","A5NE8TWS8ZV7B","338431Z1FL1IVIVZ3BK6A6QS21HROA","","733","img/animal6.png","75","736","2","1","2","1,0.7,0,1,0.7,0,0.7,0,1",""
"","html-keyboard-response","151","116432","0.0-151.0","31T4R4OBOT29QUCBVUIBZ81ZJSXC7E","A5NE8TWS8ZV7B","338431Z1FL1IVIVZ3BK6A6QS21HROA","","null","<img src=""img/animal6.png"" style=""width:200px; border:14px solid green;"">","null","","","","","",""
"","image-keyboard-response","152","116962","0.0-152.0","31T4R4OBOT29QUCBVUIBZ81ZJSXC7E","A5NE8TWS8ZV7B","338431Z1FL1IVIVZ3BK6A6QS21HROA","","529","img/animal6.png","75","530","2","1","2","1,0.7,0,1,0.7,0,0.7,0,1",""
"","html-keyboard-response","153","117270","0.0-153.0","31T4R4OBOT29QUCBVUIBZ81ZJSXC7E","A5NE8TWS8ZV7B","338431Z1FL1IVIVZ3BK6A6QS21HROA","","null","<img src=""img/animal6.png"" style=""width:200px; border:14px solid green;"">","null","","","","","",""
"","image-keyboard-response","154","118219","0.0-154.0","31T4R4OBOT29QUCBVUIBZ81ZJSXC7E","A5NE8TWS8ZV7B","338431Z1FL1IVIVZ3BK6A6QS21HROA","","947","img/animal4.png","74","948","1","1","1","1,0.7,0,1,0.7,0,0.7,0,1",""
"","html-keyboard-response","155","118524","0.0-155.0","31T4R4OBOT29QUCBVUIBZ81ZJSXC7E","A5NE8TWS8ZV7B","338431Z1FL1IVIVZ3BK6A6QS21HROA","","null","<img src=""img/animal4.png"" style=""width:200px; border:14px solid green;"">","null","","","","","",""
"","image-keyboard-response","156","118924","0.0-156.0","31T4R4OBOT29QUCBVUIBZ81ZJSXC7E","A5NE8TWS8ZV7B","338431Z1FL1IVIVZ3BK6A6QS21HROA","","398","img/animal4.png","74","399","1","1","1","1,0.7,0,1,0.7,0,0.7,0,1",""
"","html-keyboard-response","157","119241","0.0-157.0","31T4R4OBOT29QUCBVUIBZ81ZJSXC7E","A5NE8TWS8ZV7B","338431Z1FL1IVIVZ3BK6A6QS21HROA","","null","<img src=""img/animal4.png"" style=""width:200px; border:14px solid green;"">","null","","","","","",""
"","image-keyboard-response","158","120003","0.0-158.0","31T4R4OBOT29QUCBVUIBZ81ZJSXC7E","A5NE8TWS8ZV7B","338431Z1FL1IVIVZ3BK6A6QS21HROA","","761","img/animal6.png","75","762","2","1","2","1,0.7,0,1,0.7,0,0.7,0,1",""
"","html-keyboard-response","159","120312","0.0-159.0","31T4R4OBOT29QUCBVUIBZ81ZJSXC7E","A5NE8TWS8ZV7B","338431Z1FL1IVIVZ3BK6A6QS21HROA","","null","<img src=""img/animal6.png"" style=""width:200px; border:14px solid green;"">","null","","","","","",""
"","image-keyboard-response","160","120779","0.0-160.0","31T4R4OBOT29QUCBVUIBZ81ZJSXC7E","A5NE8TWS8ZV7B","338431Z1FL1IVIVZ3BK6A6QS21HROA","","467","img/animal6.png","75","468","2","0","2","1,0.7,0,1,0.7,0,0.7,0,1",""
"","html-keyboard-response","161","121086","0.0-161.0","31T4R4OBOT29QUCBVUIBZ81ZJSXC7E","A5NE8TWS8ZV7B","338431Z1FL1IVIVZ3BK6A6QS21HROA","","null","<img src=""img/animal6.png"" style=""width:200px;border:14px solid red;"">","null","","","","","",""
"","image-keyboard-response","162","121515","0.0-162.0","31T4R4OBOT29QUCBVUIBZ81ZJSXC7E","A5NE8TWS8ZV7B","338431Z1FL1IVIVZ3BK6A6QS21HROA","","430","img/animal6.png","75","430","2","1","2","1,0.7,0,1,0.7,0,0.7,0,1",""
"","html-keyboard-response","163","121831","0.0-163.0","31T4R4OBOT29QUCBVUIBZ81ZJSXC7E","A5NE8TWS8ZV7B","338431Z1FL1IVIVZ3BK6A6QS21HROA","","null","<img src=""img/animal6.png"" style=""width:200px; border:14px solid green;"">","null","","","","","",""
"","image-keyboard-response","164","122217","0.0-164.0","31T4R4OBOT29QUCBVUIBZ81ZJSXC7E","A5NE8TWS8ZV7B","338431Z1FL1IVIVZ3BK6A6QS21HROA","","386","img/animal6.png","75","387","2","0","2","1,0.7,0,1,0.7,0,0.7,0,1",""
"","html-keyboard-response","165","122527","0.0-165.0","31T4R4OBOT29QUCBVUIBZ81ZJSXC7E","A5NE8TWS8ZV7B","338431Z1FL1IVIVZ3BK6A6QS21HROA","","null","<img src=""img/animal6.png"" style=""width:200px;border:14px solid red;"">","null","","","","","",""
"","image-keyboard-response","166","123979","0.0-166.0","31T4R4OBOT29QUCBVUIBZ81ZJSXC7E","A5NE8TWS8ZV7B","338431Z1FL1IVIVZ3BK6A6QS21HROA","","1450","img/animal1.png","76","1451","3","1","3","1,0.7,0,1,0.7,0,0.7,0,1",""
"","html-keyboard-response","167","124286","0.0-167.0","31T4R4OBOT29QUCBVUIBZ81ZJSXC7E","A5NE8TWS8ZV7B","338431Z1FL1IVIVZ3BK6A6QS21HROA","","null","<img src=""img/animal1.png"" style=""width:200px; border:14px solid green;"">","null","","","","","",""
"","image-keyboard-response","168","125019","0.0-168.0","31T4R4OBOT29QUCBVUIBZ81ZJSXC7E","A5NE8TWS8ZV7B","338431Z1FL1IVIVZ3BK6A6QS21HROA","","731","img/animal4.png","74","731","1","1","1","1,0.7,0,1,0.7,0,0.7,0,1",""
"","html-keyboard-response","169","125326","0.0-169.0","31T4R4OBOT29QUCBVUIBZ81ZJSXC7E","A5NE8TWS8ZV7B","338431Z1FL1IVIVZ3BK6A6QS21HROA","","null","<img src=""img/animal4.png"" style=""width:200px; border:14px solid green;"">","null","","","","","",""
"","image-keyboard-response","170","126105","0.0-170.0","31T4R4OBOT29QUCBVUIBZ81ZJSXC7E","A5NE8TWS8ZV7B","338431Z1FL1IVIVZ3BK6A6QS21HROA","","779","img/animal1.png","76","779","3","1","3","1,0.7,0,1,0.7,0,0.7,0,1",""
"","html-keyboard-response","171","126412","0.0-171.0","31T4R4OBOT29QUCBVUIBZ81ZJSXC7E","A5NE8TWS8ZV7B","338431Z1FL1IVIVZ3BK6A6QS21HROA","","null","<img src=""img/animal1.png"" style=""width:200px; border:14px solid green;"">","null","","","","","",""
"","image-keyboard-response","172","126955","0.0-172.0","31T4R4OBOT29QUCBVUIBZ81ZJSXC7E","A5NE8TWS8ZV7B","338431Z1FL1IVIVZ3BK6A6QS21HROA","","543","img/animal1.png","76","544","3","1","3","1,0.7,0,1,0.7,0,0.7,0,1",""
"","html-keyboard-response","173","127265","0.0-173.0","31T4R4OBOT29QUCBVUIBZ81ZJSXC7E","A5NE8TWS8ZV7B","338431Z1FL1IVIVZ3BK6A6QS21HROA","","null","<img src=""img/animal1.png"" style=""width:200px; border:14px solid green;"">","null","","","","","",""
"","image-keyboard-response","174","127924","0.0-174.0","31T4R4OBOT29QUCBVUIBZ81ZJSXC7E","A5NE8TWS8ZV7B","338431Z1FL1IVIVZ3BK6A6QS21HROA","","657","img/animal4.png","74","658","1","1","1","1,0.7,0,1,0.7,0,0.7,0,1",""
"","html-keyboard-response","175","128228","0.0-175.0","31T4R4OBOT29QUCBVUIBZ81ZJSXC7E","A5NE8TWS8ZV7B","338431Z1FL1IVIVZ3BK6A6QS21HROA","","null","<img src=""img/animal4.png"" style=""width:200px; border:14px solid green;"">","null","","","","","",""
"","image-keyboard-response","176","128963","0.0-176.0","31T4R4OBOT29QUCBVUIBZ81ZJSXC7E","A5NE8TWS8ZV7B","338431Z1FL1IVIVZ3BK6A6QS21HROA","","735","img/animal1.png","76","735","3","1","3","1,0.7,0,1,0.7,0,0.7,0,1",""
"","html-keyboard-response","177","129271","0.0-177.0","31T4R4OBOT29QUCBVUIBZ81ZJSXC7E","A5NE8TWS8ZV7B","338431Z1FL1IVIVZ3BK6A6QS21HROA","","null","<img src=""img/animal1.png"" style=""width:200px; border:14px solid green;"">","null","","","","","",""
"","image-keyboard-response","178","130107","0.0-178.0","31T4R4OBOT29QUCBVUIBZ81ZJSXC7E","A5NE8TWS8ZV7B","338431Z1FL1IVIVZ3BK6A6QS21HROA","","834","img/animal4.png","74","835","1","1","1","1,0.7,0,1,0.7,0,0.7,0,1",""
"","html-keyboard-response","179","130422","0.0-179.0","31T4R4OBOT29QUCBVUIBZ81ZJSXC7E","A5NE8TWS8ZV7B","338431Z1FL1IVIVZ3BK6A6QS21HROA","","null","<img src=""img/animal4.png"" style=""width:200px; border:14px solid green;"">","null","","","","","",""
"","image-keyboard-response","180","131691","0.0-180.0","31T4R4OBOT29QUCBVUIBZ81ZJSXC7E","A5NE8TWS8ZV7B","338431Z1FL1IVIVZ3BK6A6QS21HROA","","1266","img/animal1.png","76","1267","3","1","3","1,0.7,0,1,0.7,0,0.7,0,1",""
"","html-keyboard-response","181","132007","0.0-181.0","31T4R4OBOT29QUCBVUIBZ81ZJSXC7E","A5NE8TWS8ZV7B","338431Z1FL1IVIVZ3BK6A6QS21HROA","","null","<img src=""img/animal1.png"" style=""width:200px; border:14px solid green;"">","null","","","","","",""
"","html-keyboard-response","182","136727","0.0-182.0","31T4R4OBOT29QUCBVUIBZ81ZJSXC7E","A5NE8TWS8ZV7B","338431Z1FL1IVIVZ3BK6A6QS21HROA","","","","","","","","","",""
"","image-keyboard-response","183","139731","0.0-183.0","31T4R4OBOT29QUCBVUIBZ81ZJSXC7E","A5NE8TWS8ZV7B","338431Z1FL1IVIVZ3BK6A6QS21HROA","","3002","img/animal3.png","74","3004","1","0","3","1,0.7,0,0,1,0.7,0.7,0,1",""
"","html-keyboard-response","184","140039","0.0-184.0","31T4R4OBOT29QUCBVUIBZ81ZJSXC7E","A5NE8TWS8ZV7B","338431Z1FL1IVIVZ3BK6A6QS21HROA","","null","<img src=""img/animal3.png"" style=""width:200px;border:14px solid red;"">","null","","","","","",""
"","image-keyboard-response","185","140603","0.0-185.0","31T4R4OBOT29QUCBVUIBZ81ZJSXC7E","A5NE8TWS8ZV7B","338431Z1FL1IVIVZ3BK6A6QS21HROA","","564","img/animal3.png","75","564","2","0","3","1,0.7,0,0,1,0.7,0.7,0,1",""
"","html-keyboard-response","186","140909","0.0-186.0","31T4R4OBOT29QUCBVUIBZ81ZJSXC7E","A5NE8TWS8ZV7B","338431Z1FL1IVIVZ3BK6A6QS21HROA","","null","<img src=""img/animal3.png"" style=""width:200px;border:14px solid red;"">","null","","","","","",""
"","image-keyboard-response","187","142779","0.0-187.0","31T4R4OBOT29QUCBVUIBZ81ZJSXC7E","A5NE8TWS8ZV7B","338431Z1FL1IVIVZ3BK6A6QS21HROA","","1869","img/animal5.png","74","1870","1","1","1","1,0.7,0,0,1,0.7,0.7,0,1",""
"","html-keyboard-response","188","143085","0.0-188.0","31T4R4OBOT29QUCBVUIBZ81ZJSXC7E","A5NE8TWS8ZV7B","338431Z1FL1IVIVZ3BK6A6QS21HROA","","null","<img src=""img/animal5.png"" style=""width:200px; border:14px solid green;"">","null","","","","","",""
"","image-keyboard-response","189","143569","0.0-189.0","31T4R4OBOT29QUCBVUIBZ81ZJSXC7E","A5NE8TWS8ZV7B","338431Z1FL1IVIVZ3BK6A6QS21HROA","","483","img/animal5.png","74","485","1","1","1","1,0.7,0,0,1,0.7,0.7,0,1",""
"","html-keyboard-response","190","143876","0.0-190.0","31T4R4OBOT29QUCBVUIBZ81ZJSXC7E","A5NE8TWS8ZV7B","338431Z1FL1IVIVZ3BK6A6QS21HROA","","null","<img src=""img/animal5.png"" style=""width:200px; border:14px solid green;"">","null","","","","","",""
"","image-keyboard-response","191","144594","0.0-191.0","31T4R4OBOT29QUCBVUIBZ81ZJSXC7E","A5NE8TWS8ZV7B","338431Z1FL1IVIVZ3BK6A6QS21HROA","","717","img/animal3.png","76","719","3","1","3","1,0.7,0,0,1,0.7,0.7,0,1",""
"","html-keyboard-response","192","144898","0.0-192.0","31T4R4OBOT29QUCBVUIBZ81ZJSXC7E","A5NE8TWS8ZV7B","338431Z1FL1IVIVZ3BK6A6QS21HROA","","null","<img src=""img/animal3.png"" style=""width:200px; border:14px solid green;"">","null","","","","","",""
"","image-keyboard-response","193","145530","0.0-193.0","31T4R4OBOT29QUCBVUIBZ81ZJSXC7E","A5NE8TWS8ZV7B","338431Z1FL1IVIVZ3BK6A6QS21HROA","","631","img/animal5.png","74","633","1","1","1","1,0.7,0,0,1,0.7,0.7,0,1",""
"","html-keyboard-response","194","145848","0.0-194.0","31T4R4OBOT29QUCBVUIBZ81ZJSXC7E","A5NE8TWS8ZV7B","338431Z1FL1IVIVZ3BK6A6QS21HROA","","null","<img src=""img/animal5.png"" style=""width:200px; border:14px solid green;"">","null","","","","","",""
"","image-keyboard-response","195","146499","0.0-195.0","31T4R4OBOT29QUCBVUIBZ81ZJSXC7E","A5NE8TWS8ZV7B","338431Z1FL1IVIVZ3BK6A6QS21HROA","","651","img/animal3.png","76","651","3","1","3","1,0.7,0,0,1,0.7,0.7,0,1",""
"","html-keyboard-response","196","146810","0.0-196.0","31T4R4OBOT29QUCBVUIBZ81ZJSXC7E","A5NE8TWS8ZV7B","338431Z1FL1IVIVZ3BK6A6QS21HROA","","null","<img src=""img/animal3.png"" style=""width:200px; border:14px solid green;"">","null","","","","","",""
"","image-keyboard-response","197","147666","0.0-197.0","31T4R4OBOT29QUCBVUIBZ81ZJSXC7E","A5NE8TWS8ZV7B","338431Z1FL1IVIVZ3BK6A6QS21HROA","","855","img/animal5.png","74","855","1","1","1","1,0.7,0,0,1,0.7,0.7,0,1",""
"","html-keyboard-response","198","147976","0.0-198.0","31T4R4OBOT29QUCBVUIBZ81ZJSXC7E","A5NE8TWS8ZV7B","338431Z1FL1IVIVZ3BK6A6QS21HROA","","null","<img src=""img/animal5.png"" style=""width:200px; border:14px solid green;"">","null","","","","","",""
"","image-keyboard-response","199","148419","0.0-199.0","31T4R4OBOT29QUCBVUIBZ81ZJSXC7E","A5NE8TWS8ZV7B","338431Z1FL1IVIVZ3BK6A6QS21HROA","","442","img/animal3.png","76","442","3","1","3","1,0.7,0,0,1,0.7,0.7,0,1",""
"","html-keyboard-response","200","148734","0.0-200.0","31T4R4OBOT29QUCBVUIBZ81ZJSXC7E","A5NE8TWS8ZV7B","338431Z1FL1IVIVZ3BK6A6QS21HROA","","null","<img src=""img/animal3.png"" style=""width:200px; border:14px solid green;"">","null","","","","","",""
"","image-keyboard-response","201","149570","0.0-201.0","31T4R4OBOT29QUCBVUIBZ81ZJSXC7E","A5NE8TWS8ZV7B","338431Z1FL1IVIVZ3BK6A6QS21HROA","","836","img/animal2.png","75","836","2","1","2","1,0.7,0,0,1,0.7,0.7,0,1",""
"","html-keyboard-response","202","149882","0.0-202.0","31T4R4OBOT29QUCBVUIBZ81ZJSXC7E","A5NE8TWS8ZV7B","338431Z1FL1IVIVZ3BK6A6QS21HROA","","null","<img src=""img/animal2.png"" style=""width:200px; border:14px solid green;"">","null","","","","","",""
"","image-keyboard-response","203","150499","0.0-203.0","31T4R4OBOT29QUCBVUIBZ81ZJSXC7E","A5NE8TWS8ZV7B","338431Z1FL1IVIVZ3BK6A6QS21HROA","","615","img/animal3.png","74","617","1","1","3","1,0.7,0,0,1,0.7,0.7,0,1",""
"","html-keyboard-response","204","150812","0.0-204.0","31T4R4OBOT29QUCBVUIBZ81ZJSXC7E","A5NE8TWS8ZV7B","338431Z1FL1IVIVZ3BK6A6QS21HROA","","null","<img src=""img/animal3.png"" style=""width:200px; border:14px solid green;"">","null","","","","","",""
"","image-keyboard-response","205","153131","0.0-205.0","31T4R4OBOT29QUCBVUIBZ81ZJSXC7E","A5NE8TWS8ZV7B","338431Z1FL1IVIVZ3BK6A6QS21HROA","","2318","img/animal2.png","75","2319","2","1","2","1,0.7,0,0,1,0.7,0.7,0,1",""
"","html-keyboard-response","206","153440","0.0-206.0","31T4R4OBOT29QUCBVUIBZ81ZJSXC7E","A5NE8TWS8ZV7B","338431Z1FL1IVIVZ3BK6A6QS21HROA","","null","<img src=""img/animal2.png"" style=""width:200px; border:14px solid green;"">","null","","","","","",""
"","image-keyboard-response","207","154244","0.0-207.0","31T4R4OBOT29QUCBVUIBZ81ZJSXC7E","A5NE8TWS8ZV7B","338431Z1FL1IVIVZ3BK6A6QS21HROA","","804","img/animal2.png","75","804","2","1","2","1,0.7,0,0,1,0.7,0.7,0,1",""
"","html-keyboard-response","208","154559","0.0-208.0","31T4R4OBOT29QUCBVUIBZ81ZJSXC7E","A5NE8TWS8ZV7B","338431Z1FL1IVIVZ3BK6A6QS21HROA","","null","<img src=""img/animal2.png"" style=""width:200px; border:14px solid green;"">","null","","","","","",""
"","image-keyboard-response","209","155003","0.0-209.0","31T4R4OBOT29QUCBVUIBZ81ZJSXC7E","A5NE8TWS8ZV7B","338431Z1FL1IVIVZ3BK6A6QS21HROA","","442","img/animal2.png","75","442","2","1","2","1,0.7,0,0,1,0.7,0.7,0,1",""
"","html-keyboard-response","210","155307","0.0-210.0","31T4R4OBOT29QUCBVUIBZ81ZJSXC7E","A5NE8TWS8ZV7B","338431Z1FL1IVIVZ3BK6A6QS21HROA","","null","<img src=""img/animal2.png"" style=""width:200px; border:14px solid green;"">","null","","","","","",""
"","image-keyboard-response","211","156809","0.0-211.0","31T4R4OBOT29QUCBVUIBZ81ZJSXC7E","A5NE8TWS8ZV7B","338431Z1FL1IVIVZ3BK6A6QS21HROA","","1501","img/animal3.png","76","1502","3","1","3","1,0.7,0,0,1,0.7,0.7,0,1",""
"","html-keyboard-response","212","157110","0.0-212.0","31T4R4OBOT29QUCBVUIBZ81ZJSXC7E","A5NE8TWS8ZV7B","338431Z1FL1IVIVZ3BK6A6QS21HROA","","null","<img src=""img/animal3.png"" style=""width:200px; border:14px solid green;"">","null","","","","","",""
"","image-keyboard-response","213","158908","0.0-213.0","31T4R4OBOT29QUCBVUIBZ81ZJSXC7E","A5NE8TWS8ZV7B","338431Z1FL1IVIVZ3BK6A6QS21HROA","","1796","img/animal2.png","75","1797","2","1","2","1,0.7,0,0,1,0.7,0.7,0,1",""
"","html-keyboard-response","214","159209","0.0-214.0","31T4R4OBOT29QUCBVUIBZ81ZJSXC7E","A5NE8TWS8ZV7B","338431Z1FL1IVIVZ3BK6A6QS21HROA","","null","<img src=""img/animal2.png"" style=""width:200px; border:14px solid green;"">","null","","","","","",""
"","image-keyboard-response","215","159539","0.0-215.0","31T4R4OBOT29QUCBVUIBZ81ZJSXC7E","A5NE8TWS8ZV7B","338431Z1FL1IVIVZ3BK6A6QS21HROA","","328","img/animal2.png","75","329","2","1","2","1,0.7,0,0,1,0.7,0.7,0,1",""
"","html-keyboard-response","216","159844","0.0-216.0","31T4R4OBOT29QUCBVUIBZ81ZJSXC7E","A5NE8TWS8ZV7B","338431Z1FL1IVIVZ3BK6A6QS21HROA","","null","<img src=""img/animal2.png"" style=""width:200px; border:14px solid green;"">","null","","","","","",""
"","image-keyboard-response","217","160607","0.0-217.0","31T4R4OBOT29QUCBVUIBZ81ZJSXC7E","A5NE8TWS8ZV7B","338431Z1FL1IVIVZ3BK6A6QS21HROA","","763","img/animal3.png","76","763","3","1","3","1,0.7,0,0,1,0.7,0.7,0,1",""
"","html-keyboard-response","218","160919","0.0-218.0","31T4R4OBOT29QUCBVUIBZ81ZJSXC7E","A5NE8TWS8ZV7B","338431Z1FL1IVIVZ3BK6A6QS21HROA","","null","<img src=""img/animal3.png"" style=""width:200px; border:14px solid green;"">","null","","","","","",""
"","image-keyboard-response","219","161290","0.0-219.0","31T4R4OBOT29QUCBVUIBZ81ZJSXC7E","A5NE8TWS8ZV7B","338431Z1FL1IVIVZ3BK6A6QS21HROA","","371","img/animal3.png","76","371","3","1","3","1,0.7,0,0,1,0.7,0.7,0,1",""
"","html-keyboard-response","220","161606","0.0-220.0","31T4R4OBOT29QUCBVUIBZ81ZJSXC7E","A5NE8TWS8ZV7B","338431Z1FL1IVIVZ3BK6A6QS21HROA","","null","<img src=""img/animal3.png"" style=""width:200px; border:14px solid green;"">","null","","","","","",""
"","image-keyboard-response","221","162289","0.0-221.0","31T4R4OBOT29QUCBVUIBZ81ZJSXC7E","A5NE8TWS8ZV7B","338431Z1FL1IVIVZ3BK6A6QS21HROA","","682","img/animal5.png","74","683","1","1","1","1,0.7,0,0,1,0.7,0.7,0,1",""
"","html-keyboard-response","222","162601","0.0-222.0","31T4R4OBOT29QUCBVUIBZ81ZJSXC7E","A5NE8TWS8ZV7B","338431Z1FL1IVIVZ3BK6A6QS21HROA","","null","<img src=""img/animal5.png"" style=""width:200px; border:14px solid green;"">","null","","","","","",""
"","image-keyboard-response","223","163011","0.0-223.0","31T4R4OBOT29QUCBVUIBZ81ZJSXC7E","A5NE8TWS8ZV7B","338431Z1FL1IVIVZ3BK6A6QS21HROA","","407","img/animal5.png","74","409","1","1","1","1,0.7,0,0,1,0.7,0.7,0,1",""
"","html-keyboard-response","224","163317","0.0-224.0","31T4R4OBOT29QUCBVUIBZ81ZJSXC7E","A5NE8TWS8ZV7B","338431Z1FL1IVIVZ3BK6A6QS21HROA","","null","<img src=""img/animal5.png"" style=""width:200px; border:14px solid green;"">","null","","","","","",""
"","image-keyboard-response","225","164108","0.0-225.0","31T4R4OBOT29QUCBVUIBZ81ZJSXC7E","A5NE8TWS8ZV7B","338431Z1FL1IVIVZ3BK6A6QS21HROA","","790","img/animal2.png","75","790","2","1","2","1,0.7,0,0,1,0.7,0.7,0,1",""
"","html-keyboard-response","226","164422","0.0-226.0","31T4R4OBOT29QUCBVUIBZ81ZJSXC7E","A5NE8TWS8ZV7B","338431Z1FL1IVIVZ3BK6A6QS21HROA","","null","<img src=""img/animal2.png"" style=""width:200px; border:14px solid green;"">","null","","","","","",""
"","image-keyboard-response","227","165315","0.0-227.0","31T4R4OBOT29QUCBVUIBZ81ZJSXC7E","A5NE8TWS8ZV7B","338431Z1FL1IVIVZ3BK6A6QS21HROA","","892","img/animal5.png","74","893","1","1","1","1,0.7,0,0,1,0.7,0.7,0,1",""
"","html-keyboard-response","228","165616","0.0-228.0","31T4R4OBOT29QUCBVUIBZ81ZJSXC7E","A5NE8TWS8ZV7B","338431Z1FL1IVIVZ3BK6A6QS21HROA","","null","<img src=""img/animal5.png"" style=""width:200px; border:14px solid green;"">","null","","","","","",""
"","image-keyboard-response","229","166763","0.0-229.0","31T4R4OBOT29QUCBVUIBZ81ZJSXC7E","A5NE8TWS8ZV7B","338431Z1FL1IVIVZ3BK6A6QS21HROA","","1145","img/animal3.png","76","1146","3","1","3","1,0.7,0,0,1,0.7,0.7,0,1",""
"","html-keyboard-response","230","167070","0.0-230.0","31T4R4OBOT29QUCBVUIBZ81ZJSXC7E","A5NE8TWS8ZV7B","338431Z1FL1IVIVZ3BK6A6QS21HROA","","null","<img src=""img/animal3.png"" style=""width:200px; border:14px solid green;"">","null","","","","","",""
"","image-keyboard-response","231","167897","0.0-231.0","31T4R4OBOT29QUCBVUIBZ81ZJSXC7E","A5NE8TWS8ZV7B","338431Z1FL1IVIVZ3BK6A6QS21HROA","","825","img/animal5.png","74","828","1","1","1","1,0.7,0,0,1,0.7,0.7,0,1",""
"","html-keyboard-response","232","168201","0.0-232.0","31T4R4OBOT29QUCBVUIBZ81ZJSXC7E","A5NE8TWS8ZV7B","338431Z1FL1IVIVZ3BK6A6QS21HROA","","null","<img src=""img/animal5.png"" style=""width:200px; border:14px solid green;"">","null","","","","","",""
"","image-keyboard-response","233","168844","0.0-233.0","31T4R4OBOT29QUCBVUIBZ81ZJSXC7E","A5NE8TWS8ZV7B","338431Z1FL1IVIVZ3BK6A6QS21HROA","","641","img/animal3.png","76","642","3","1","3","1,0.7,0,0,1,0.7,0.7,0,1",""
"","html-keyboard-response","234","169155","0.0-234.0","31T4R4OBOT29QUCBVUIBZ81ZJSXC7E","A5NE8TWS8ZV7B","338431Z1FL1IVIVZ3BK6A6QS21HROA","","null","<img src=""img/animal3.png"" style=""width:200px; border:14px solid green;"">","null","","","","","",""
"","image-keyboard-response","235","170098","0.0-235.0","31T4R4OBOT29QUCBVUIBZ81ZJSXC7E","A5NE8TWS8ZV7B","338431Z1FL1IVIVZ3BK6A6QS21HROA","","943","img/animal5.png","74","944","1","1","1","1,0.7,0,0,1,0.7,0.7,0,1",""
"","html-keyboard-response","236","170416","0.0-236.0","31T4R4OBOT29QUCBVUIBZ81ZJSXC7E","A5NE8TWS8ZV7B","338431Z1FL1IVIVZ3BK6A6QS21HROA","","null","<img src=""img/animal5.png"" style=""width:200px; border:14px solid green;"">","null","","","","","",""
"","image-keyboard-response","237","171156","0.0-237.0","31T4R4OBOT29QUCBVUIBZ81ZJSXC7E","A5NE8TWS8ZV7B","338431Z1FL1IVIVZ3BK6A6QS21HROA","","738","img/animal2.png","75","739","2","1","2","1,0.7,0,0,1,0.7,0.7,0,1",""
"","html-keyboard-response","238","171470","0.0-238.0","31T4R4OBOT29QUCBVUIBZ81ZJSXC7E","A5NE8TWS8ZV7B","338431Z1FL1IVIVZ3BK6A6QS21HROA","","null","<img src=""img/animal2.png"" style=""width:200px; border:14px solid green;"">","null","","","","","",""
"","image-keyboard-response","239","172114","0.0-239.0","31T4R4OBOT29QUCBVUIBZ81ZJSXC7E","A5NE8TWS8ZV7B","338431Z1FL1IVIVZ3BK6A6QS21HROA","","642","img/animal5.png","74","644","1","1","1","1,0.7,0,0,1,0.7,0.7,0,1",""
"","html-keyboard-response","240","172419","0.0-240.0","31T4R4OBOT29QUCBVUIBZ81ZJSXC7E","A5NE8TWS8ZV7B","338431Z1FL1IVIVZ3BK6A6QS21HROA","","null","<img src=""img/animal5.png"" style=""width:200px; border:14px solid green;"">","null","","","","","",""
"","image-keyboard-response","241","173066","0.0-241.0","31T4R4OBOT29QUCBVUIBZ81ZJSXC7E","A5NE8TWS8ZV7B","338431Z1FL1IVIVZ3BK6A6QS21HROA","","647","img/animal2.png","75","647","2","1","2","1,0.7,0,0,1,0.7,0.7,0,1",""
"","html-keyboard-response","242","173373","0.0-242.0","31T4R4OBOT29QUCBVUIBZ81ZJSXC7E","A5NE8TWS8ZV7B","338431Z1FL1IVIVZ3BK6A6QS21HROA","","null","<img src=""img/animal2.png"" style=""width:200px; border:14px solid green;"">","null","","","","","",""
"","image-keyboard-response","243","173811","0.0-243.0","31T4R4OBOT29QUCBVUIBZ81ZJSXC7E","A5NE8TWS8ZV7B","338431Z1FL1IVIVZ3BK6A6QS21HROA","","436","img/animal2.png","75","438","2","1","2","1,0.7,0,0,1,0.7,0.7,0,1",""
"","html-keyboard-response","244","174120","0.0-244.0","31T4R4OBOT29QUCBVUIBZ81ZJSXC7E","A5NE8TWS8ZV7B","338431Z1FL1IVIVZ3BK6A6QS21HROA","","null","<img src=""img/animal2.png"" style=""width:200px; border:14px solid green;"">","null","","","","","",""
"","image-keyboard-response","245","174571","0.0-245.0","31T4R4OBOT29QUCBVUIBZ81ZJSXC7E","A5NE8TWS8ZV7B","338431Z1FL1IVIVZ3BK6A6QS21HROA","","450","img/animal5.png","74","451","1","1","1","1,0.7,0,0,1,0.7,0.7,0,1",""
"","html-keyboard-response","246","174881","0.0-246.0","31T4R4OBOT29QUCBVUIBZ81ZJSXC7E","A5NE8TWS8ZV7B","338431Z1FL1IVIVZ3BK6A6QS21HROA","","null","<img src=""img/animal5.png"" style=""width:200px; border:14px solid green;"">","null","","","","","",""
"","image-keyboard-response","247","175276","0.0-247.0","31T4R4OBOT29QUCBVUIBZ81ZJSXC7E","A5NE8TWS8ZV7B","338431Z1FL1IVIVZ3BK6A6QS21HROA","","392","img/animal5.png","74","394","1","1","1","1,0.7,0,0,1,0.7,0.7,0,1",""
"","html-keyboard-response","248","175592","0.0-248.0","31T4R4OBOT29QUCBVUIBZ81ZJSXC7E","A5NE8TWS8ZV7B","338431Z1FL1IVIVZ3BK6A6QS21HROA","","null","<img src=""img/animal5.png"" style=""width:200px; border:14px solid green;"">","null","","","","","",""
"","image-keyboard-response","249","176083","0.0-249.0","31T4R4OBOT29QUCBVUIBZ81ZJSXC7E","A5NE8TWS8ZV7B","338431Z1FL1IVIVZ3BK6A6QS21HROA","","490","img/animal3.png","76","490","3","1","3","1,0.7,0,0,1,0.7,0.7,0,1",""
"","html-keyboard-response","250","176385","0.0-250.0","31T4R4OBOT29QUCBVUIBZ81ZJSXC7E","A5NE8TWS8ZV7B","338431Z1FL1IVIVZ3BK6A6QS21HROA","","null","<img src=""img/animal3.png"" style=""width:200px; border:14px solid green;"">","null","","","","","",""
"","image-keyboard-response","251","176827","0.0-251.0","31T4R4OBOT29QUCBVUIBZ81ZJSXC7E","A5NE8TWS8ZV7B","338431Z1FL1IVIVZ3BK6A6QS21HROA","","440","img/animal3.png","76","441","3","1","3","1,0.7,0,0,1,0.7,0.7,0,1",""
"","html-keyboard-response","252","177130","0.0-252.0","31T4R4OBOT29QUCBVUIBZ81ZJSXC7E","A5NE8TWS8ZV7B","338431Z1FL1IVIVZ3BK6A6QS21HROA","","null","<img src=""img/animal3.png"" style=""width:200px; border:14px solid green;"">","null","","","","","",""
"","image-keyboard-response","253","177602","0.0-253.0","31T4R4OBOT29QUCBVUIBZ81ZJSXC7E","A5NE8TWS8ZV7B","338431Z1FL1IVIVZ3BK6A6QS21HROA","","472","img/animal3.png","76","474","3","1","3","1,0.7,0,0,1,0.7,0.7,0,1",""
"","html-keyboard-response","254","177907","0.0-254.0","31T4R4OBOT29QUCBVUIBZ81ZJSXC7E","A5NE8TWS8ZV7B","338431Z1FL1IVIVZ3BK6A6QS21HROA","","null","<img src=""img/animal3.png"" style=""width:200px; border:14px solid green;"">","null","","","","","",""
"","image-keyboard-response","255","178826","0.0-255.0","31T4R4OBOT29QUCBVUIBZ81ZJSXC7E","A5NE8TWS8ZV7B","338431Z1FL1IVIVZ3BK6A6QS21HROA","","918","img/animal2.png","75","919","2","1","2","1,0.7,0,0,1,0.7,0.7,0,1",""
"","html-keyboard-response","256","179130","0.0-256.0","31T4R4OBOT29QUCBVUIBZ81ZJSXC7E","A5NE8TWS8ZV7B","338431Z1FL1IVIVZ3BK6A6QS21HROA","","null","<img src=""img/animal2.png"" style=""width:200px; border:14px solid green;"">","null","","","","","",""
"","image-keyboard-response","257","179755","0.0-257.0","31T4R4OBOT29QUCBVUIBZ81ZJSXC7E","A5NE8TWS8ZV7B","338431Z1FL1IVIVZ3BK6A6QS21HROA","","623","img/animal5.png","74","625","1","1","1","1,0.7,0,0,1,0.7,0.7,0,1",""
"","html-keyboard-response","258","180063","0.0-258.0","31T4R4OBOT29QUCBVUIBZ81ZJSXC7E","A5NE8TWS8ZV7B","338431Z1FL1IVIVZ3BK6A6QS21HROA","","null","<img src=""img/animal5.png"" style=""width:200px; border:14px solid green;"">","null","","","","","",""
"","image-keyboard-response","259","181140","0.0-259.0","31T4R4OBOT29QUCBVUIBZ81ZJSXC7E","A5NE8TWS8ZV7B","338431Z1FL1IVIVZ3BK6A6QS21HROA","","1076","img/animal5.png","74","1077","1","1","1","1,0.7,0,0,1,0.7,0.7,0,1",""
"","html-keyboard-response","260","181447","0.0-260.0","31T4R4OBOT29QUCBVUIBZ81ZJSXC7E","A5NE8TWS8ZV7B","338431Z1FL1IVIVZ3BK6A6QS21HROA","","null","<img src=""img/animal5.png"" style=""width:200px; border:14px solid green;"">","null","","","","","",""
"","image-keyboard-response","261","182361","0.0-261.0","31T4R4OBOT29QUCBVUIBZ81ZJSXC7E","A5NE8TWS8ZV7B","338431Z1FL1IVIVZ3BK6A6QS21HROA","","913","img/animal3.png","76","914","3","1","3","1,0.7,0,0,1,0.7,0.7,0,1",""
"","html-keyboard-response","262","182669","0.0-262.0","31T4R4OBOT29QUCBVUIBZ81ZJSXC7E","A5NE8TWS8ZV7B","338431Z1FL1IVIVZ3BK6A6QS21HROA","","null","<img src=""img/animal3.png"" style=""width:200px; border:14px solid green;"">","null","","","","","",""
"","image-keyboard-response","263","183474","0.0-263.0","31T4R4OBOT29QUCBVUIBZ81ZJSXC7E","A5NE8TWS8ZV7B","338431Z1FL1IVIVZ3BK6A6QS21HROA","","803","img/animal2.png","75","804","2","1","2","1,0.7,0,0,1,0.7,0.7,0,1",""
"","html-keyboard-response","264","183784","0.0-264.0","31T4R4OBOT29QUCBVUIBZ81ZJSXC7E","A5NE8TWS8ZV7B","338431Z1FL1IVIVZ3BK6A6QS21HROA","","null","<img src=""img/animal2.png"" style=""width:200px; border:14px solid green;"">","null","","","","","",""
"","image-keyboard-response","265","184771","0.0-265.0","31T4R4OBOT29QUCBVUIBZ81ZJSXC7E","A5NE8TWS8ZV7B","338431Z1FL1IVIVZ3BK6A6QS21HROA","","987","img/animal3.png","76","988","3","1","3","1,0.7,0,0,1,0.7,0.7,0,1",""
"","html-keyboard-response","266","185076","0.0-266.0","31T4R4OBOT29QUCBVUIBZ81ZJSXC7E","A5NE8TWS8ZV7B","338431Z1FL1IVIVZ3BK6A6QS21HROA","","null","<img src=""img/animal3.png"" style=""width:200px; border:14px solid green;"">","null","","","","","",""
"","image-keyboard-response","267","185762","0.0-267.0","31T4R4OBOT29QUCBVUIBZ81ZJSXC7E","A5NE8TWS8ZV7B","338431Z1FL1IVIVZ3BK6A6QS21HROA","","686","img/animal5.png","74","686","1","1","1","1,0.7,0,0,1,0.7,0.7,0,1",""
"","html-keyboard-response","268","186066","0.0-268.0","31T4R4OBOT29QUCBVUIBZ81ZJSXC7E","A5NE8TWS8ZV7B","338431Z1FL1IVIVZ3BK6A6QS21HROA","","null","<img src=""img/animal5.png"" style=""width:200px; border:14px solid green;"">","null","","","","","",""
"","image-keyboard-response","269","186531","0.0-269.0","31T4R4OBOT29QUCBVUIBZ81ZJSXC7E","A5NE8TWS8ZV7B","338431Z1FL1IVIVZ3BK6A6QS21HROA","","462","img/animal5.png","74","463","1","1","1","1,0.7,0,0,1,0.7,0.7,0,1",""
"","html-keyboard-response","270","186843","0.0-270.0","31T4R4OBOT29QUCBVUIBZ81ZJSXC7E","A5NE8TWS8ZV7B","338431Z1FL1IVIVZ3BK6A6QS21HROA","","null","<img src=""img/animal5.png"" style=""width:200px; border:14px solid green;"">","null","","","","","",""
"","image-keyboard-response","271","187715","0.0-271.0","31T4R4OBOT29QUCBVUIBZ81ZJSXC7E","A5NE8TWS8ZV7B","338431Z1FL1IVIVZ3BK6A6QS21HROA","","870","img/animal3.png","76","872","3","1","3","1,0.7,0,0,1,0.7,0.7,0,1",""
"","html-keyboard-response","272","188020","0.0-272.0","31T4R4OBOT29QUCBVUIBZ81ZJSXC7E","A5NE8TWS8ZV7B","338431Z1FL1IVIVZ3BK6A6QS21HROA","","null","<img src=""img/animal3.png"" style=""width:200px; border:14px solid green;"">","null","","","","","",""
"","image-keyboard-response","273","188842","0.0-273.0","31T4R4OBOT29QUCBVUIBZ81ZJSXC7E","A5NE8TWS8ZV7B","338431Z1FL1IVIVZ3BK6A6QS21HROA","","821","img/animal2.png","75","823","2","1","2","1,0.7,0,0,1,0.7,0.7,0,1",""
"","html-keyboard-response","274","189155","0.0-274.0","31T4R4OBOT29QUCBVUIBZ81ZJSXC7E","A5NE8TWS8ZV7B","338431Z1FL1IVIVZ3BK6A6QS21HROA","","null","<img src=""img/animal2.png"" style=""width:200px; border:14px solid green;"">","null","","","","","",""
"","image-keyboard-response","275","190026","0.0-275.0","31T4R4OBOT29QUCBVUIBZ81ZJSXC7E","A5NE8TWS8ZV7B","338431Z1FL1IVIVZ3BK6A6QS21HROA","","870","img/animal3.png","76","872","3","1","3","1,0.7,0,0,1,0.7,0.7,0,1",""
"","html-keyboard-response","276","190333","0.0-276.0","31T4R4OBOT29QUCBVUIBZ81ZJSXC7E","A5NE8TWS8ZV7B","338431Z1FL1IVIVZ3BK6A6QS21HROA","","null","<img src=""img/animal3.png"" style=""width:200px; border:14px solid green;"">","null","","","","","",""
"","image-keyboard-response","277","190722","0.0-277.0","31T4R4OBOT29QUCBVUIBZ81ZJSXC7E","A5NE8TWS8ZV7B","338431Z1FL1IVIVZ3BK6A6QS21HROA","","388","img/animal3.png","76","389","3","1","3","1,0.7,0,0,1,0.7,0.7,0,1",""
"","html-keyboard-response","278","191034","0.0-278.0","31T4R4OBOT29QUCBVUIBZ81ZJSXC7E","A5NE8TWS8ZV7B","338431Z1FL1IVIVZ3BK6A6QS21HROA","","null","<img src=""img/animal3.png"" style=""width:200px; border:14px solid green;"">","null","","","","","",""
"","image-keyboard-response","279","192035","0.0-279.0","31T4R4OBOT29QUCBVUIBZ81ZJSXC7E","A5NE8TWS8ZV7B","338431Z1FL1IVIVZ3BK6A6QS21HROA","","998","img/animal2.png","75","1001","2","1","2","1,0.7,0,0,1,0.7,0.7,0,1",""
"","html-keyboard-response","280","192337","0.0-280.0","31T4R4OBOT29QUCBVUIBZ81ZJSXC7E","A5NE8TWS8ZV7B","338431Z1FL1IVIVZ3BK6A6QS21HROA","","null","<img src=""img/animal2.png"" style=""width:200px; border:14px solid green;"">","null","","","","","",""
"","image-keyboard-response","281","192778","0.0-281.0","31T4R4OBOT29QUCBVUIBZ81ZJSXC7E","A5NE8TWS8ZV7B","338431Z1FL1IVIVZ3BK6A6QS21HROA","","441","img/animal2.png","75","441","2","1","2","1,0.7,0,0,1,0.7,0.7,0,1",""
"","html-keyboard-response","282","193091","0.0-282.0","31T4R4OBOT29QUCBVUIBZ81ZJSXC7E","A5NE8TWS8ZV7B","338431Z1FL1IVIVZ3BK6A6QS21HROA","","null","<img src=""img/animal2.png"" style=""width:200px; border:14px solid green;"">","null","","","","","",""
"","image-keyboard-response","283","193897","0.0-283.0","31T4R4OBOT29QUCBVUIBZ81ZJSXC7E","A5NE8TWS8ZV7B","338431Z1FL1IVIVZ3BK6A6QS21HROA","","805","img/animal5.png","74","805","1","1","1","1,0.7,0,0,1,0.7,0.7,0,1",""
"","html-keyboard-response","284","194208","0.0-284.0","31T4R4OBOT29QUCBVUIBZ81ZJSXC7E","A5NE8TWS8ZV7B","338431Z1FL1IVIVZ3BK6A6QS21HROA","","null","<img src=""img/animal5.png"" style=""width:200px; border:14px solid green;"">","null","","","","","",""
"","image-keyboard-response","285","195419","0.0-285.0","31T4R4OBOT29QUCBVUIBZ81ZJSXC7E","A5NE8TWS8ZV7B","338431Z1FL1IVIVZ3BK6A6QS21HROA","","1209","img/animal2.png","75","1210","2","1","2","1,0.7,0,0,1,0.7,0.7,0,1",""
"","html-keyboard-response","286","195727","0.0-286.0","31T4R4OBOT29QUCBVUIBZ81ZJSXC7E","A5NE8TWS8ZV7B","338431Z1FL1IVIVZ3BK6A6QS21HROA","","null","<img src=""img/animal2.png"" style=""width:200px; border:14px solid green;"">","null","","","","","",""
"","image-keyboard-response","287","197129","0.0-287.0","31T4R4OBOT29QUCBVUIBZ81ZJSXC7E","A5NE8TWS8ZV7B","338431Z1FL1IVIVZ3BK6A6QS21HROA","","1401","img/animal5.png","74","1401","1","1","1","1,0.7,0,0,1,0.7,0.7,0,1",""
"","html-keyboard-response","288","197438","0.0-288.0","31T4R4OBOT29QUCBVUIBZ81ZJSXC7E","A5NE8TWS8ZV7B","338431Z1FL1IVIVZ3BK6A6QS21HROA","","null","<img src=""img/animal5.png"" style=""width:200px; border:14px solid green;"">","null","","","","","",""
"","image-keyboard-response","289","197811","0.0-289.0","31T4R4OBOT29QUCBVUIBZ81ZJSXC7E","A5NE8TWS8ZV7B","338431Z1FL1IVIVZ3BK6A6QS21HROA","","371","img/animal5.png","74","372","1","1","1","1,0.7,0,0,1,0.7,0.7,0,1",""
"","html-keyboard-response","290","198121","0.0-290.0","31T4R4OBOT29QUCBVUIBZ81ZJSXC7E","A5NE8TWS8ZV7B","338431Z1FL1IVIVZ3BK6A6QS21HROA","","null","<img src=""img/animal5.png"" style=""width:200px; border:14px solid green;"">","null","","","","","",""
"","image-keyboard-response","291","198732","0.0-291.0","31T4R4OBOT29QUCBVUIBZ81ZJSXC7E","A5NE8TWS8ZV7B","338431Z1FL1IVIVZ3BK6A6QS21HROA","","610","img/animal2.png","75","611","2","1","2","1,0.7,0,0,1,0.7,0.7,0,1",""
"","html-keyboard-response","292","199039","0.0-292.0","31T4R4OBOT29QUCBVUIBZ81ZJSXC7E","A5NE8TWS8ZV7B","338431Z1FL1IVIVZ3BK6A6QS21HROA","","null","<img src=""img/animal2.png"" style=""width:200px; border:14px solid green;"">","null","","","","","",""
"","image-keyboard-response","293","199683","0.0-293.0","31T4R4OBOT29QUCBVUIBZ81ZJSXC7E","A5NE8TWS8ZV7B","338431Z1FL1IVIVZ3BK6A6QS21HROA","","642","img/animal5.png","74","643","1","1","1","1,0.7,0,0,1,0.7,0.7,0,1",""
"","html-keyboard-response","294","199999","0.0-294.0","31T4R4OBOT29QUCBVUIBZ81ZJSXC7E","A5NE8TWS8ZV7B","338431Z1FL1IVIVZ3BK6A6QS21HROA","","null","<img src=""img/animal5.png"" style=""width:200px; border:14px solid green;"">","null","","","","","",""
"","image-keyboard-response","295","200595","0.0-295.0","31T4R4OBOT29QUCBVUIBZ81ZJSXC7E","A5NE8TWS8ZV7B","338431Z1FL1IVIVZ3BK6A6QS21HROA","","595","img/animal2.png","75","596","2","1","2","1,0.7,0,0,1,0.7,0.7,0,1",""
"","html-keyboard-response","296","200901","0.0-296.0","31T4R4OBOT29QUCBVUIBZ81ZJSXC7E","A5NE8TWS8ZV7B","338431Z1FL1IVIVZ3BK6A6QS21HROA","","null","<img src=""img/animal2.png"" style=""width:200px; border:14px solid green;"">","null","","","","","",""
"","image-keyboard-response","297","201692","0.0-297.0","31T4R4OBOT29QUCBVUIBZ81ZJSXC7E","A5NE8TWS8ZV7B","338431Z1FL1IVIVZ3BK6A6QS21HROA","","789","img/animal3.png","76","790","3","1","3","1,0.7,0,0,1,0.7,0.7,0,1",""
"","html-keyboard-response","298","202002","0.0-298.0","31T4R4OBOT29QUCBVUIBZ81ZJSXC7E","A5NE8TWS8ZV7B","338431Z1FL1IVIVZ3BK6A6QS21HROA","","null","<img src=""img/animal3.png"" style=""width:200px; border:14px solid green;"">","null","","","","","",""
"","image-keyboard-response","299","202673","0.0-299.0","31T4R4OBOT29QUCBVUIBZ81ZJSXC7E","A5NE8TWS8ZV7B","338431Z1FL1IVIVZ3BK6A6QS21HROA","","670","img/animal5.png","74","672","1","1","1","1,0.7,0,0,1,0.7,0.7,0,1",""
"","html-keyboard-response","300","202975","0.0-300.0","31T4R4OBOT29QUCBVUIBZ81ZJSXC7E","A5NE8TWS8ZV7B","338431Z1FL1IVIVZ3BK6A6QS21HROA","","null","<img src=""img/animal5.png"" style=""width:200px; border:14px solid green;"">","null","","","","","",""
"","image-keyboard-response","301","203779","0.0-301.0","31T4R4OBOT29QUCBVUIBZ81ZJSXC7E","A5NE8TWS8ZV7B","338431Z1FL1IVIVZ3BK6A6QS21HROA","","801","img/animal3.png","76","803","3","1","3","1,0.7,0,0,1,0.7,0.7,0,1",""
"","html-keyboard-response","302","204093","0.0-302.0","31T4R4OBOT29QUCBVUIBZ81ZJSXC7E","A5NE8TWS8ZV7B","338431Z1FL1IVIVZ3BK6A6QS21HROA","","null","<img src=""img/animal3.png"" style=""width:200px; border:14px solid green;"">","null","","","","","",""
"","image-keyboard-response","303","204939","0.0-303.0","31T4R4OBOT29QUCBVUIBZ81ZJSXC7E","A5NE8TWS8ZV7B","338431Z1FL1IVIVZ3BK6A6QS21HROA","","846","img/animal5.png","74","846","1","1","1","1,0.7,0,0,1,0.7,0.7,0,1",""
"","html-keyboard-response","304","205244","0.0-304.0","31T4R4OBOT29QUCBVUIBZ81ZJSXC7E","A5NE8TWS8ZV7B","338431Z1FL1IVIVZ3BK6A6QS21HROA","","null","<img src=""img/animal5.png"" style=""width:200px; border:14px solid green;"">","null","","","","","",""
"","image-keyboard-response","305","205801","0.0-305.0","31T4R4OBOT29QUCBVUIBZ81ZJSXC7E","A5NE8TWS8ZV7B","338431Z1FL1IVIVZ3BK6A6QS21HROA","","556","img/animal2.png","75","558","2","1","2","1,0.7,0,0,1,0.7,0.7,0,1",""
"","html-keyboard-response","306","206115","0.0-306.0","31T4R4OBOT29QUCBVUIBZ81ZJSXC7E","A5NE8TWS8ZV7B","338431Z1FL1IVIVZ3BK6A6QS21HROA","","null","<img src=""img/animal2.png"" style=""width:200px; border:14px solid green;"">","null","","","","","",""
"","image-keyboard-response","307","206987","0.0-307.0","31T4R4OBOT29QUCBVUIBZ81ZJSXC7E","A5NE8TWS8ZV7B","338431Z1FL1IVIVZ3BK6A6QS21HROA","","870","img/animal3.png","76","871","3","1","3","1,0.7,0,0,1,0.7,0.7,0,1",""
"","html-keyboard-response","308","207294","0.0-308.0","31T4R4OBOT29QUCBVUIBZ81ZJSXC7E","A5NE8TWS8ZV7B","338431Z1FL1IVIVZ3BK6A6QS21HROA","","null","<img src=""img/animal3.png"" style=""width:200px; border:14px solid green;"">","null","","","","","",""
"","image-keyboard-response","309","208137","0.0-309.0","31T4R4OBOT29QUCBVUIBZ81ZJSXC7E","A5NE8TWS8ZV7B","338431Z1FL1IVIVZ3BK6A6QS21HROA","","842","img/animal5.png","75","842","2","0","1","1,0.7,0,0,1,0.7,0.7,0,1",""
"","html-keyboard-response","310","208444","0.0-310.0","31T4R4OBOT29QUCBVUIBZ81ZJSXC7E","A5NE8TWS8ZV7B","338431Z1FL1IVIVZ3BK6A6QS21HROA","","null","<img src=""img/animal5.png"" style=""width:200px;border:14px solid red;"">","null","","","","","",""
"","image-keyboard-response","311","209242","0.0-311.0","31T4R4OBOT29QUCBVUIBZ81ZJSXC7E","A5NE8TWS8ZV7B","338431Z1FL1IVIVZ3BK6A6QS21HROA","","797","img/animal5.png","74","798","1","1","1","1,0.7,0,0,1,0.7,0.7,0,1",""
"","html-keyboard-response","312","209557","0.0-312.0","31T4R4OBOT29QUCBVUIBZ81ZJSXC7E","A5NE8TWS8ZV7B","338431Z1FL1IVIVZ3BK6A6QS21HROA","","null","<img src=""img/animal5.png"" style=""width:200px; border:14px solid green;"">","null","","","","","",""
"","image-keyboard-response","313","210276","0.0-313.0","31T4R4OBOT29QUCBVUIBZ81ZJSXC7E","A5NE8TWS8ZV7B","338431Z1FL1IVIVZ3BK6A6QS21HROA","","718","img/animal2.png","75","719","2","1","2","1,0.7,0,0,1,0.7,0.7,0,1",""
"","html-keyboard-response","314","210582","0.0-314.0","31T4R4OBOT29QUCBVUIBZ81ZJSXC7E","A5NE8TWS8ZV7B","338431Z1FL1IVIVZ3BK6A6QS21HROA","","null","<img src=""img/animal2.png"" style=""width:200px; border:14px solid green;"">","null","","","","","",""
"","image-keyboard-response","315","210978","0.0-315.0","31T4R4OBOT29QUCBVUIBZ81ZJSXC7E","A5NE8TWS8ZV7B","338431Z1FL1IVIVZ3BK6A6QS21HROA","","396","img/animal2.png","75","398","2","1","2","1,0.7,0,0,1,0.7,0.7,0,1",""
"","html-keyboard-response","316","211281","0.0-316.0","31T4R4OBOT29QUCBVUIBZ81ZJSXC7E","A5NE8TWS8ZV7B","338431Z1FL1IVIVZ3BK6A6QS21HROA","","null","<img src=""img/animal2.png"" style=""width:200px; border:14px solid green;"">","null","","","","","",""
"","image-keyboard-response","317","212067","0.0-317.0","31T4R4OBOT29QUCBVUIBZ81ZJSXC7E","A5NE8TWS8ZV7B","338431Z1FL1IVIVZ3BK6A6QS21HROA","","785","img/animal3.png","76","786","3","1","3","1,0.7,0,0,1,0.7,0.7,0,1",""
"","html-keyboard-response","318","212381","0.0-318.0","31T4R4OBOT29QUCBVUIBZ81ZJSXC7E","A5NE8TWS8ZV7B","338431Z1FL1IVIVZ3BK6A6QS21HROA","","null","<img src=""img/animal3.png"" style=""width:200px; border:14px solid green;"">","null","","","","","",""
"","image-keyboard-response","319","213074","0.0-319.0","31T4R4OBOT29QUCBVUIBZ81ZJSXC7E","A5NE8TWS8ZV7B","338431Z1FL1IVIVZ3BK6A6QS21HROA","","693","img/animal3.png","76","694","3","1","3","1,0.7,0,0,1,0.7,0.7,0,1",""
"","html-keyboard-response","320","213388","0.0-320.0","31T4R4OBOT29QUCBVUIBZ81ZJSXC7E","A5NE8TWS8ZV7B","338431Z1FL1IVIVZ3BK6A6QS21HROA","","null","<img src=""img/animal3.png"" style=""width:200px; border:14px solid green;"">","null","","","","","",""
"","image-keyboard-response","321","213987","0.0-321.0","31T4R4OBOT29QUCBVUIBZ81ZJSXC7E","A5NE8TWS8ZV7B","338431Z1FL1IVIVZ3BK6A6QS21HROA","","598","img/animal5.png","74","598","1","1","1","1,0.7,0,0,1,0.7,0.7,0,1",""
"","html-keyboard-response","322","214289","0.0-322.0","31T4R4OBOT29QUCBVUIBZ81ZJSXC7E","A5NE8TWS8ZV7B","338431Z1FL1IVIVZ3BK6A6QS21HROA","","null","<img src=""img/animal5.png"" style=""width:200px; border:14px solid green;"">","null","","","","","",""
"","image-keyboard-response","323","215690","0.0-323.0","31T4R4OBOT29QUCBVUIBZ81ZJSXC7E","A5NE8TWS8ZV7B","338431Z1FL1IVIVZ3BK6A6QS21HROA","","1400","img/animal5.png","74","1401","1","1","1","1,0.7,0,0,1,0.7,0.7,0,1",""
"","html-keyboard-response","324","215999","0.0-324.0","31T4R4OBOT29QUCBVUIBZ81ZJSXC7E","A5NE8TWS8ZV7B","338431Z1FL1IVIVZ3BK6A6QS21HROA","","null","<img src=""img/animal5.png"" style=""width:200px; border:14px solid green;"">","null","","","","","",""
"","image-keyboard-response","325","216771","0.0-325.0","31T4R4OBOT29QUCBVUIBZ81ZJSXC7E","A5NE8TWS8ZV7B","338431Z1FL1IVIVZ3BK6A6QS21HROA","","770","img/animal2.png","75","770","2","1","2","1,0.7,0,0,1,0.7,0.7,0,1",""
"","html-keyboard-response","326","217073","0.0-326.0","31T4R4OBOT29QUCBVUIBZ81ZJSXC7E","A5NE8TWS8ZV7B","338431Z1FL1IVIVZ3BK6A6QS21HROA","","null","<img src=""img/animal2.png"" style=""width:200px; border:14px solid green;"">","null","","","","","",""
"","image-keyboard-response","327","217820","0.0-327.0","31T4R4OBOT29QUCBVUIBZ81ZJSXC7E","A5NE8TWS8ZV7B","338431Z1FL1IVIVZ3BK6A6QS21HROA","","745","img/animal5.png","74","747","1","1","1","1,0.7,0,0,1,0.7,0.7,0,1",""
"","html-keyboard-response","328","218130","0.0-328.0","31T4R4OBOT29QUCBVUIBZ81ZJSXC7E","A5NE8TWS8ZV7B","338431Z1FL1IVIVZ3BK6A6QS21HROA","","null","<img src=""img/animal5.png"" style=""width:200px; border:14px solid green;"">","null","","","","","",""
"","image-keyboard-response","329","219185","0.0-329.0","31T4R4OBOT29QUCBVUIBZ81ZJSXC7E","A5NE8TWS8ZV7B","338431Z1FL1IVIVZ3BK6A6QS21HROA","","1054","img/animal2.png","75","1054","2","1","2","1,0.7,0,0,1,0.7,0.7,0,1",""
"","html-keyboard-response","330","219495","0.0-330.0","31T4R4OBOT29QUCBVUIBZ81ZJSXC7E","A5NE8TWS8ZV7B","338431Z1FL1IVIVZ3BK6A6QS21HROA","","null","<img src=""img/animal2.png"" style=""width:200px; border:14px solid green;"">","null","","","","","",""
"","image-keyboard-response","331","219940","0.0-331.0","31T4R4OBOT29QUCBVUIBZ81ZJSXC7E","A5NE8TWS8ZV7B","338431Z1FL1IVIVZ3BK6A6QS21HROA","","442","img/animal2.png","75","443","2","1","2","1,0.7,0,0,1,0.7,0.7,0,1",""
"","html-keyboard-response","332","220247","0.0-332.0","31T4R4OBOT29QUCBVUIBZ81ZJSXC7E","A5NE8TWS8ZV7B","338431Z1FL1IVIVZ3BK6A6QS21HROA","","null","<img src=""img/animal2.png"" style=""width:200px; border:14px solid green;"">","null","","","","","",""
"","image-keyboard-response","333","220963","0.0-333.0","31T4R4OBOT29QUCBVUIBZ81ZJSXC7E","A5NE8TWS8ZV7B","338431Z1FL1IVIVZ3BK6A6QS21HROA","","715","img/animal3.png","76","715","3","1","3","1,0.7,0,0,1,0.7,0.7,0,1",""
"","html-keyboard-response","334","221268","0.0-334.0","31T4R4OBOT29QUCBVUIBZ81ZJSXC7E","A5NE8TWS8ZV7B","338431Z1FL1IVIVZ3BK6A6QS21HROA","","null","<img src=""img/animal3.png"" style=""width:200px; border:14px solid green;"">","null","","","","","",""
"","image-keyboard-response","335","221931","0.0-335.0","31T4R4OBOT29QUCBVUIBZ81ZJSXC7E","A5NE8TWS8ZV7B","338431Z1FL1IVIVZ3BK6A6QS21HROA","","662","img/animal3.png","76","662","3","1","3","1,0.7,0,0,1,0.7,0.7,0,1",""
"","html-keyboard-response","336","222244","0.0-336.0","31T4R4OBOT29QUCBVUIBZ81ZJSXC7E","A5NE8TWS8ZV7B","338431Z1FL1IVIVZ3BK6A6QS21HROA","","null","<img src=""img/animal3.png"" style=""width:200px; border:14px solid green;"">","null","","","","","",""
"","image-keyboard-response","337","222970","0.0-337.0","31T4R4OBOT29QUCBVUIBZ81ZJSXC7E","A5NE8TWS8ZV7B","338431Z1FL1IVIVZ3BK6A6QS21HROA","","725","img/animal5.png","74","727","1","1","1","1,0.7,0,0,1,0.7,0.7,0,1",""
"","html-keyboard-response","338","223286","0.0-338.0","31T4R4OBOT29QUCBVUIBZ81ZJSXC7E","A5NE8TWS8ZV7B","338431Z1FL1IVIVZ3BK6A6QS21HROA","","null","<img src=""img/animal5.png"" style=""width:200px; border:14px solid green;"">","null","","","","","",""
"","image-keyboard-response","339","223976","0.0-339.0","31T4R4OBOT29QUCBVUIBZ81ZJSXC7E","A5NE8TWS8ZV7B","338431Z1FL1IVIVZ3BK6A6QS21HROA","","690","img/animal3.png","76","691","3","1","3","1,0.7,0,0,1,0.7,0.7,0,1",""
"","html-keyboard-response","340","224278","0.0-340.0","31T4R4OBOT29QUCBVUIBZ81ZJSXC7E","A5NE8TWS8ZV7B","338431Z1FL1IVIVZ3BK6A6QS21HROA","","null","<img src=""img/animal3.png"" style=""width:200px; border:14px solid green;"">","null","","","","","",""
"","image-keyboard-response","341","224970","0.0-341.0","31T4R4OBOT29QUCBVUIBZ81ZJSXC7E","A5NE8TWS8ZV7B","338431Z1FL1IVIVZ3BK6A6QS21HROA","","691","img/animal2.png","75","691","2","1","2","1,0.7,0,0,1,0.7,0.7,0,1",""
"","html-keyboard-response","342","225278","0.0-342.0","31T4R4OBOT29QUCBVUIBZ81ZJSXC7E","A5NE8TWS8ZV7B","338431Z1FL1IVIVZ3BK6A6QS21HROA","","null","<img src=""img/animal2.png"" style=""width:200px; border:14px solid green;"">","null","","","","","",""
"","image-keyboard-response","343","225715","0.0-343.0","31T4R4OBOT29QUCBVUIBZ81ZJSXC7E","A5NE8TWS8ZV7B","338431Z1FL1IVIVZ3BK6A6QS21HROA","","435","img/animal2.png","75","436","2","1","2","1,0.7,0,0,1,0.7,0.7,0,1",""
"","html-keyboard-response","344","226027","0.0-344.0","31T4R4OBOT29QUCBVUIBZ81ZJSXC7E","A5NE8TWS8ZV7B","338431Z1FL1IVIVZ3BK6A6QS21HROA","","null","<img src=""img/animal2.png"" style=""width:200px; border:14px solid green;"">","null","","","","","",""
"","image-keyboard-response","345","226426","0.0-345.0","31T4R4OBOT29QUCBVUIBZ81ZJSXC7E","A5NE8TWS8ZV7B","338431Z1FL1IVIVZ3BK6A6QS21HROA","","399","img/animal2.png","75","399","2","1","2","1,0.7,0,0,1,0.7,0.7,0,1",""
"","html-keyboard-response","346","226743","0.0-346.0","31T4R4OBOT29QUCBVUIBZ81ZJSXC7E","A5NE8TWS8ZV7B","338431Z1FL1IVIVZ3BK6A6QS21HROA","","null","<img src=""img/animal2.png"" style=""width:200px; border:14px solid green;"">","null","","","","","",""
"","image-keyboard-response","347","227441","0.0-347.0","31T4R4OBOT29QUCBVUIBZ81ZJSXC7E","A5NE8TWS8ZV7B","338431Z1FL1IVIVZ3BK6A6QS21HROA","","696","img/animal3.png","76","697","3","1","3","1,0.7,0,0,1,0.7,0.7,0,1",""
"","html-keyboard-response","348","227751","0.0-348.0","31T4R4OBOT29QUCBVUIBZ81ZJSXC7E","A5NE8TWS8ZV7B","338431Z1FL1IVIVZ3BK6A6QS21HROA","","null","<img src=""img/animal3.png"" style=""width:200px; border:14px solid green;"">","null","","","","","",""
"","image-keyboard-response","349","228115","0.0-349.0","31T4R4OBOT29QUCBVUIBZ81ZJSXC7E","A5NE8TWS8ZV7B","338431Z1FL1IVIVZ3BK6A6QS21HROA","","363","img/animal3.png","76","363","3","1","3","1,0.7,0,0,1,0.7,0.7,0,1",""
"","html-keyboard-response","350","228416","0.0-350.0","31T4R4OBOT29QUCBVUIBZ81ZJSXC7E","A5NE8TWS8ZV7B","338431Z1FL1IVIVZ3BK6A6QS21HROA","","null","<img src=""img/animal3.png"" style=""width:200px; border:14px solid green;"">","null","","","","","",""
"","image-keyboard-response","351","229234","0.0-351.0","31T4R4OBOT29QUCBVUIBZ81ZJSXC7E","A5NE8TWS8ZV7B","338431Z1FL1IVIVZ3BK6A6QS21HROA","","818","img/animal2.png","75","820","2","1","2","1,0.7,0,0,1,0.7,0.7,0,1",""
"","html-keyboard-response","352","229547","0.0-352.0","31T4R4OBOT29QUCBVUIBZ81ZJSXC7E","A5NE8TWS8ZV7B","338431Z1FL1IVIVZ3BK6A6QS21HROA","","null","<img src=""img/animal2.png"" style=""width:200px; border:14px solid green;"">","null","","","","","",""
"","image-keyboard-response","353","230163","0.0-353.0","31T4R4OBOT29QUCBVUIBZ81ZJSXC7E","A5NE8TWS8ZV7B","338431Z1FL1IVIVZ3BK6A6QS21HROA","","615","img/animal2.png","75","616","2","1","2","1,0.7,0,0,1,0.7,0.7,0,1",""
"","html-keyboard-response","354","230468","0.0-354.0","31T4R4OBOT29QUCBVUIBZ81ZJSXC7E","A5NE8TWS8ZV7B","338431Z1FL1IVIVZ3BK6A6QS21HROA","","null","<img src=""img/animal2.png"" style=""width:200px; border:14px solid green;"">","null","","","","","",""
"","image-keyboard-response","355","231275","0.0-355.0","31T4R4OBOT29QUCBVUIBZ81ZJSXC7E","A5NE8TWS8ZV7B","338431Z1FL1IVIVZ3BK6A6QS21HROA","","805","img/animal5.png","74","808","1","1","1","1,0.7,0,0,1,0.7,0.7,0,1",""
"","html-keyboard-response","356","231591","0.0-356.0","31T4R4OBOT29QUCBVUIBZ81ZJSXC7E","A5NE8TWS8ZV7B","338431Z1FL1IVIVZ3BK6A6QS21HROA","","null","<img src=""img/animal5.png"" style=""width:200px; border:14px solid green;"">","null","","","","","",""
"","image-keyboard-response","357","232331","0.0-357.0","31T4R4OBOT29QUCBVUIBZ81ZJSXC7E","A5NE8TWS8ZV7B","338431Z1FL1IVIVZ3BK6A6QS21HROA","","738","img/animal2.png","75","739","2","1","2","1,0.7,0,0,1,0.7,0.7,0,1",""
"","html-keyboard-response","358","232637","0.0-358.0","31T4R4OBOT29QUCBVUIBZ81ZJSXC7E","A5NE8TWS8ZV7B","338431Z1FL1IVIVZ3BK6A6QS21HROA","","null","<img src=""img/animal2.png"" style=""width:200px; border:14px solid green;"">","null","","","","","",""
"","image-keyboard-response","359","233282","0.0-359.0","31T4R4OBOT29QUCBVUIBZ81ZJSXC7E","A5NE8TWS8ZV7B","338431Z1FL1IVIVZ3BK6A6QS21HROA","","643","img/animal5.png","74","644","1","1","1","1,0.7,0,0,1,0.7,0.7,0,1",""
"","html-keyboard-response","360","233597","0.0-360.0","31T4R4OBOT29QUCBVUIBZ81ZJSXC7E","A5NE8TWS8ZV7B","338431Z1FL1IVIVZ3BK6A6QS21HROA","","null","<img src=""img/animal5.png"" style=""width:200px; border:14px solid green;"">","null","","","","","",""
"","image-keyboard-response","361","234338","0.0-361.0","31T4R4OBOT29QUCBVUIBZ81ZJSXC7E","A5NE8TWS8ZV7B","338431Z1FL1IVIVZ3BK6A6QS21HROA","","739","img/animal3.png","76","741","3","1","3","1,0.7,0,0,1,0.7,0.7,0,1",""
"","html-keyboard-response","362","234639","0.0-362.0","31T4R4OBOT29QUCBVUIBZ81ZJSXC7E","A5NE8TWS8ZV7B","338431Z1FL1IVIVZ3BK6A6QS21HROA","","null","<img src=""img/animal3.png"" style=""width:200px; border:14px solid green;"">","null","","","","","",""
"","instructions","363","238015","0.0-363.0","31T4R4OBOT29QUCBVUIBZ81ZJSXC7E","A5NE8TWS8ZV7B","338431Z1FL1IVIVZ3BK6A6QS21HROA","[{""page_index"":0,""viewing_time"":3375}]","3375","","","","","","","",""
"","survey-text","364","241729","0.0-364.0","31T4R4OBOT29QUCBVUIBZ81ZJSXC7E","A5NE8TWS8ZV7B","338431Z1FL1IVIVZ3BK6A6QS21HROA","","3711","","","","","","","","{""Q0"":""A5NE8TWS8ZV7B""}"
