"success","trial_type","trial_index","time_elapsed","internal_node_id","assignmentID","mturkID","hitID","view_history","rt","stimulus","key_press","reactionTime","a","r","s","reward_cond","responses"
"true","fullscreen","0","14791","0.0-0.0","3Z7ISHFUH1HQY1S4XDUPO6YF1ZK8ZZ","A5P12YJP805RG","3UAU495MIIEABANG75FBFHDC9WUUOI","","","","","","","","","",""
"","instructions","1","43857","0.0-1.0","3Z7ISHFUH1HQY1S4XDUPO6YF1ZK8ZZ","A5P12YJP805RG","3UAU495MIIEABANG75FBFHDC9WUUOI","[{""page_index"":0,""viewing_time"":18712},{""page_index"":1,""viewing_time"":1024.4000000953674},{""page_index"":2,""viewing_time"":2391.2999999523163},{""page_index"":3,""viewing_time"":1303.9000000953674},{""page_index"":4,""viewing_time"":1248},{""page_index"":5,""viewing_time"":2048.2999999523163},{""page_index"":6,""viewing_time"":848.7000000476837},{""page_index"":7,""viewing_time"":1487.5999999046326}]","29064.700000047684","","","","","","","",""
"","image-keyboard-response","2","44399","0.0-2.0","3Z7ISHFUH1HQY1S4XDUPO6YF1ZK8ZZ","A5P12YJP805RG","3UAU495MIIEABANG75FBFHDC9WUUOI","","541.3999998569489","img/animal3.png","74","542.1000001430511","1","0","3","1,0.5,0,1,0,0.5,0.5,0,1",""
"","html-keyboard-response","3","44701","0.0-3.0","3Z7ISHFUH1HQY1S4XDUPO6YF1ZK8ZZ","A5P12YJP805RG","3UAU495MIIEABANG75FBFHDC9WUUOI","","null","<img src=""img/animal3.png"" style=""width:200px;border:14px solid red;"">","null","","","","","",""
"","image-keyboard-response","4","45278","0.0-4.0","3Z7ISHFUH1HQY1S4XDUPO6YF1ZK8ZZ","A5P12YJP805RG","3UAU495MIIEABANG75FBFHDC9WUUOI","","576.1000001430511","img/animal2.png","74","576.5999999046326","1","1","1","1,0.5,0,1,0,0.5,0.5,0,1",""
"","html-keyboard-response","5","45580","0.0-5.0","3Z7ISHFUH1HQY1S4XDUPO6YF1ZK8ZZ","A5P12YJP805RG","3UAU495MIIEABANG75FBFHDC9WUUOI","","null","<img src=""img/animal2.png"" style=""width:200px; border:14px solid green;"">","null","","","","","",""
"","image-keyboard-response","6","46062","0.0-6.0","3Z7ISHFUH1HQY1S4XDUPO6YF1ZK8ZZ","A5P12YJP805RG","3UAU495MIIEABANG75FBFHDC9WUUOI","","482","img/animal5.png","74","482.59999990463257","1","1","2","1,0.5,0,1,0,0.5,0.5,0,1",""
"","html-keyboard-response","7","46363","0.0-7.0","3Z7ISHFUH1HQY1S4XDUPO6YF1ZK8ZZ","A5P12YJP805RG","3UAU495MIIEABANG75FBFHDC9WUUOI","","null","<img src=""img/animal5.png"" style=""width:200px; border:14px solid green;"">","null","","","","","",""
"","image-keyboard-response","8","46822","0.0-8.0","3Z7ISHFUH1HQY1S4XDUPO6YF1ZK8ZZ","A5P12YJP805RG","3UAU495MIIEABANG75FBFHDC9WUUOI","","458.40000009536743","img/animal2.png","74","459","1","1","1","1,0.5,0,1,0,0.5,0.5,0,1",""
"","html-keyboard-response","9","47123","0.0-9.0","3Z7ISHFUH1HQY1S4XDUPO6YF1ZK8ZZ","A5P12YJP805RG","3UAU495MIIEABANG75FBFHDC9WUUOI","","null","<img src=""img/animal2.png"" style=""width:200px; border:14px solid green;"">","null","","","","","",""
"","image-keyboard-response","10","47495","0.0-10.0","3Z7ISHFUH1HQY1S4XDUPO6YF1ZK8ZZ","A5P12YJP805RG","3UAU495MIIEABANG75FBFHDC9WUUOI","","371","img/animal5.png","74","371.59999990463257","1","1","2","1,0.5,0,1,0,0.5,0.5,0,1",""
"","html-keyboard-response","11","47797","0.0-11.0","3Z7ISHFUH1HQY1S4XDUPO6YF1ZK8ZZ","A5P12YJP805RG","3UAU495MIIEABANG75FBFHDC9WUUOI","","null","<img src=""img/animal5.png"" style=""width:200px; border:14px solid green;"">","null","","","","","",""
"","image-keyboard-response","12","48127","0.0-12.0","3Z7ISHFUH1HQY1S4XDUPO6YF1ZK8ZZ","A5P12YJP805RG","3UAU495MIIEABANG75FBFHDC9WUUOI","","328.89999985694885","img/animal5.png","74","329.5","1","1","2","1,0.5,0,1,0,0.5,0.5,0,1",""
"","html-keyboard-response","13","48428","0.0-13.0","3Z7ISHFUH1HQY1S4XDUPO6YF1ZK8ZZ","A5P12YJP805RG","3UAU495MIIEABANG75FBFHDC9WUUOI","","null","<img src=""img/animal5.png"" style=""width:200px; border:14px solid green;"">","null","","","","","",""
"","image-keyboard-response","14","48815","0.0-14.0","3Z7ISHFUH1HQY1S4XDUPO6YF1ZK8ZZ","A5P12YJP805RG","3UAU495MIIEABANG75FBFHDC9WUUOI","","385.5","img/animal2.png","74","386.09999990463257","1","1","1","1,0.5,0,1,0,0.5,0.5,0,1",""
"","html-keyboard-response","15","49116","0.0-15.0","3Z7ISHFUH1HQY1S4XDUPO6YF1ZK8ZZ","A5P12YJP805RG","3UAU495MIIEABANG75FBFHDC9WUUOI","","null","<img src=""img/animal2.png"" style=""width:200px; border:14px solid green;"">","null","","","","","",""
"","image-keyboard-response","16","49543","0.0-16.0","3Z7ISHFUH1HQY1S4XDUPO6YF1ZK8ZZ","A5P12YJP805RG","3UAU495MIIEABANG75FBFHDC9WUUOI","","425.40000009536743","img/animal5.png","74","426.09999990463257","1","1","2","1,0.5,0,1,0,0.5,0.5,0,1",""
"","html-keyboard-response","17","49844","0.0-17.0","3Z7ISHFUH1HQY1S4XDUPO6YF1ZK8ZZ","A5P12YJP805RG","3UAU495MIIEABANG75FBFHDC9WUUOI","","null","<img src=""img/animal5.png"" style=""width:200px; border:14px solid green;"">","null","","","","","",""
"","image-keyboard-response","18","50519","0.0-18.0","3Z7ISHFUH1HQY1S4XDUPO6YF1ZK8ZZ","A5P12YJP805RG","3UAU495MIIEABANG75FBFHDC9WUUOI","","674.5999999046326","img/animal3.png","75","675.3000001907349","2","0","3","1,0.5,0,1,0,0.5,0.5,0,1",""
"","html-keyboard-response","19","50821","0.0-19.0","3Z7ISHFUH1HQY1S4XDUPO6YF1ZK8ZZ","A5P12YJP805RG","3UAU495MIIEABANG75FBFHDC9WUUOI","","null","<img src=""img/animal3.png"" style=""width:200px;border:14px solid red;"">","null","","","","","",""
"","image-keyboard-response","20","51183","0.0-20.0","3Z7ISHFUH1HQY1S4XDUPO6YF1ZK8ZZ","A5P12YJP805RG","3UAU495MIIEABANG75FBFHDC9WUUOI","","361.2999999523163","img/animal5.png","74","361.90000009536743","1","1","2","1,0.5,0,1,0,0.5,0.5,0,1",""
"","html-keyboard-response","21","51485","0.0-21.0","3Z7ISHFUH1HQY1S4XDUPO6YF1ZK8ZZ","A5P12YJP805RG","3UAU495MIIEABANG75FBFHDC9WUUOI","","null","<img src=""img/animal5.png"" style=""width:200px; border:14px solid green;"">","null","","","","","",""
"","image-keyboard-response","22","51840","0.0-22.0","3Z7ISHFUH1HQY1S4XDUPO6YF1ZK8ZZ","A5P12YJP805RG","3UAU495MIIEABANG75FBFHDC9WUUOI","","354.2999999523163","img/animal5.png","74","354.90000009536743","1","1","2","1,0.5,0,1,0,0.5,0.5,0,1",""
"","html-keyboard-response","23","52141","0.0-23.0","3Z7ISHFUH1HQY1S4XDUPO6YF1ZK8ZZ","A5P12YJP805RG","3UAU495MIIEABANG75FBFHDC9WUUOI","","null","<img src=""img/animal5.png"" style=""width:200px; border:14px solid green;"">","null","","","","","",""
"","image-keyboard-response","24","52640","0.0-24.0","3Z7ISHFUH1HQY1S4XDUPO6YF1ZK8ZZ","A5P12YJP805RG","3UAU495MIIEABANG75FBFHDC9WUUOI","","498.2999999523163","img/animal2.png","74","498.90000009536743","1","1","1","1,0.5,0,1,0,0.5,0.5,0,1",""
"","html-keyboard-response","25","52942","0.0-25.0","3Z7ISHFUH1HQY1S4XDUPO6YF1ZK8ZZ","A5P12YJP805RG","3UAU495MIIEABANG75FBFHDC9WUUOI","","null","<img src=""img/animal2.png"" style=""width:200px; border:14px solid green;"">","null","","","","","",""
"","image-keyboard-response","26","54504","0.0-26.0","3Z7ISHFUH1HQY1S4XDUPO6YF1ZK8ZZ","A5P12YJP805RG","3UAU495MIIEABANG75FBFHDC9WUUOI","","1561","img/animal3.png","76","1561.4000000953674","3","1","3","1,0.5,0,1,0,0.5,0.5,0,1",""
"","html-keyboard-response","27","54805","0.0-27.0","3Z7ISHFUH1HQY1S4XDUPO6YF1ZK8ZZ","A5P12YJP805RG","3UAU495MIIEABANG75FBFHDC9WUUOI","","null","<img src=""img/animal3.png"" style=""width:200px; border:14px solid green;"">","null","","","","","",""
"","image-keyboard-response","28","55528","0.0-28.0","3Z7ISHFUH1HQY1S4XDUPO6YF1ZK8ZZ","A5P12YJP805RG","3UAU495MIIEABANG75FBFHDC9WUUOI","","721.7000000476837","img/animal2.png","74","722.2999999523163","1","1","1","1,0.5,0,1,0,0.5,0.5,0,1",""
"","html-keyboard-response","29","55828","0.0-29.0","3Z7ISHFUH1HQY1S4XDUPO6YF1ZK8ZZ","A5P12YJP805RG","3UAU495MIIEABANG75FBFHDC9WUUOI","","null","<img src=""img/animal2.png"" style=""width:200px; border:14px solid green;"">","null","","","","","",""
"","image-keyboard-response","30","56136","0.0-30.0","3Z7ISHFUH1HQY1S4XDUPO6YF1ZK8ZZ","A5P12YJP805RG","3UAU495MIIEABANG75FBFHDC9WUUOI","","306.89999985694885","img/animal2.png","74","307.5","1","1","1","1,0.5,0,1,0,0.5,0.5,0,1",""
"","html-keyboard-response","31","56437","0.0-31.0","3Z7ISHFUH1HQY1S4XDUPO6YF1ZK8ZZ","A5P12YJP805RG","3UAU495MIIEABANG75FBFHDC9WUUOI","","null","<img src=""img/animal2.png"" style=""width:200px; border:14px solid green;"">","null","","","","","",""
"","image-keyboard-response","32","56736","0.0-32.0","3Z7ISHFUH1HQY1S4XDUPO6YF1ZK8ZZ","A5P12YJP805RG","3UAU495MIIEABANG75FBFHDC9WUUOI","","298.2000000476837","img/animal2.png","74","298.7000000476837","1","1","1","1,0.5,0,1,0,0.5,0.5,0,1",""
"","html-keyboard-response","33","57037","0.0-33.0","3Z7ISHFUH1HQY1S4XDUPO6YF1ZK8ZZ","A5P12YJP805RG","3UAU495MIIEABANG75FBFHDC9WUUOI","","null","<img src=""img/animal2.png"" style=""width:200px; border:14px solid green;"">","null","","","","","",""
"","image-keyboard-response","34","57344","0.0-34.0","3Z7ISHFUH1HQY1S4XDUPO6YF1ZK8ZZ","A5P12YJP805RG","3UAU495MIIEABANG75FBFHDC9WUUOI","","305.90000009536743","img/animal2.png","74","306.60000014305115","1","1","1","1,0.5,0,1,0,0.5,0.5,0,1",""
"","html-keyboard-response","35","57646","0.0-35.0","3Z7ISHFUH1HQY1S4XDUPO6YF1ZK8ZZ","A5P12YJP805RG","3UAU495MIIEABANG75FBFHDC9WUUOI","","null","<img src=""img/animal2.png"" style=""width:200px; border:14px solid green;"">","null","","","","","",""
"","image-keyboard-response","36","58040","0.0-36.0","3Z7ISHFUH1HQY1S4XDUPO6YF1ZK8ZZ","A5P12YJP805RG","3UAU495MIIEABANG75FBFHDC9WUUOI","","393.7000000476837","img/animal3.png","74","394.09999990463257","1","1","3","1,0.5,0,1,0,0.5,0.5,0,1",""
"","html-keyboard-response","37","58342","0.0-37.0","3Z7ISHFUH1HQY1S4XDUPO6YF1ZK8ZZ","A5P12YJP805RG","3UAU495MIIEABANG75FBFHDC9WUUOI","","null","<img src=""img/animal3.png"" style=""width:200px; border:14px solid green;"">","null","","","","","",""
"","image-keyboard-response","38","58929","0.0-38.0","3Z7ISHFUH1HQY1S4XDUPO6YF1ZK8ZZ","A5P12YJP805RG","3UAU495MIIEABANG75FBFHDC9WUUOI","","585.6999998092651","img/animal2.png","74","586.5","1","1","1","1,0.5,0,1,0,0.5,0.5,0,1",""
"","html-keyboard-response","39","59231","0.0-39.0","3Z7ISHFUH1HQY1S4XDUPO6YF1ZK8ZZ","A5P12YJP805RG","3UAU495MIIEABANG75FBFHDC9WUUOI","","null","<img src=""img/animal2.png"" style=""width:200px; border:14px solid green;"">","null","","","","","",""
"","image-keyboard-response","40","59784","0.0-40.0","3Z7ISHFUH1HQY1S4XDUPO6YF1ZK8ZZ","A5P12YJP805RG","3UAU495MIIEABANG75FBFHDC9WUUOI","","553.0999999046326","img/animal5.png","74","553.8000001907349","1","1","2","1,0.5,0,1,0,0.5,0.5,0,1",""
"","html-keyboard-response","41","60087","0.0-41.0","3Z7ISHFUH1HQY1S4XDUPO6YF1ZK8ZZ","A5P12YJP805RG","3UAU495MIIEABANG75FBFHDC9WUUOI","","null","<img src=""img/animal5.png"" style=""width:200px; border:14px solid green;"">","null","","","","","",""
"","image-keyboard-response","42","60737","0.0-42.0","3Z7ISHFUH1HQY1S4XDUPO6YF1ZK8ZZ","A5P12YJP805RG","3UAU495MIIEABANG75FBFHDC9WUUOI","","649.3000001907349","img/animal2.png","74","650","1","1","1","1,0.5,0,1,0,0.5,0.5,0,1",""
"","html-keyboard-response","43","61038","0.0-43.0","3Z7ISHFUH1HQY1S4XDUPO6YF1ZK8ZZ","A5P12YJP805RG","3UAU495MIIEABANG75FBFHDC9WUUOI","","null","<img src=""img/animal2.png"" style=""width:200px; border:14px solid green;"">","null","","","","","",""
"","image-keyboard-response","44","61609","0.0-44.0","3Z7ISHFUH1HQY1S4XDUPO6YF1ZK8ZZ","A5P12YJP805RG","3UAU495MIIEABANG75FBFHDC9WUUOI","","570","img/animal3.png","76","570.5","3","1","3","1,0.5,0,1,0,0.5,0.5,0,1",""
"","html-keyboard-response","45","61910","0.0-45.0","3Z7ISHFUH1HQY1S4XDUPO6YF1ZK8ZZ","A5P12YJP805RG","3UAU495MIIEABANG75FBFHDC9WUUOI","","null","<img src=""img/animal3.png"" style=""width:200px; border:14px solid green;"">","null","","","","","",""
"","image-keyboard-response","46","62257","0.0-46.0","3Z7ISHFUH1HQY1S4XDUPO6YF1ZK8ZZ","A5P12YJP805RG","3UAU495MIIEABANG75FBFHDC9WUUOI","","345.90000009536743","img/animal5.png","74","346.5","1","1","2","1,0.5,0,1,0,0.5,0.5,0,1",""
"","html-keyboard-response","47","62559","0.0-47.0","3Z7ISHFUH1HQY1S4XDUPO6YF1ZK8ZZ","A5P12YJP805RG","3UAU495MIIEABANG75FBFHDC9WUUOI","","null","<img src=""img/animal5.png"" style=""width:200px; border:14px solid green;"">","null","","","","","",""
"","image-keyboard-response","48","63057","0.0-48.0","3Z7ISHFUH1HQY1S4XDUPO6YF1ZK8ZZ","A5P12YJP805RG","3UAU495MIIEABANG75FBFHDC9WUUOI","","497.40000009536743","img/animal3.png","76","498","3","1","3","1,0.5,0,1,0,0.5,0.5,0,1",""
"","html-keyboard-response","49","63359","0.0-49.0","3Z7ISHFUH1HQY1S4XDUPO6YF1ZK8ZZ","A5P12YJP805RG","3UAU495MIIEABANG75FBFHDC9WUUOI","","null","<img src=""img/animal3.png"" style=""width:200px; border:14px solid green;"">","null","","","","","",""
"","image-keyboard-response","50","63913","0.0-50.0","3Z7ISHFUH1HQY1S4XDUPO6YF1ZK8ZZ","A5P12YJP805RG","3UAU495MIIEABANG75FBFHDC9WUUOI","","553.2000000476837","img/animal2.png","74","553.7999999523163","1","1","1","1,0.5,0,1,0,0.5,0.5,0,1",""
"","html-keyboard-response","51","64214","0.0-51.0","3Z7ISHFUH1HQY1S4XDUPO6YF1ZK8ZZ","A5P12YJP805RG","3UAU495MIIEABANG75FBFHDC9WUUOI","","null","<img src=""img/animal2.png"" style=""width:200px; border:14px solid green;"">","null","","","","","",""
"","image-keyboard-response","52","64858","0.0-52.0","3Z7ISHFUH1HQY1S4XDUPO6YF1ZK8ZZ","A5P12YJP805RG","3UAU495MIIEABANG75FBFHDC9WUUOI","","642.5","img/animal3.png","76","643.0999999046326","3","1","3","1,0.5,0,1,0,0.5,0.5,0,1",""
"","html-keyboard-response","53","65159","0.0-53.0","3Z7ISHFUH1HQY1S4XDUPO6YF1ZK8ZZ","A5P12YJP805RG","3UAU495MIIEABANG75FBFHDC9WUUOI","","null","<img src=""img/animal3.png"" style=""width:200px; border:14px solid green;"">","null","","","","","",""
"","image-keyboard-response","54","65610","0.0-54.0","3Z7ISHFUH1HQY1S4XDUPO6YF1ZK8ZZ","A5P12YJP805RG","3UAU495MIIEABANG75FBFHDC9WUUOI","","449.89999985694885","img/animal5.png","74","450.40000009536743","1","1","2","1,0.5,0,1,0,0.5,0.5,0,1",""
"","html-keyboard-response","55","65911","0.0-55.0","3Z7ISHFUH1HQY1S4XDUPO6YF1ZK8ZZ","A5P12YJP805RG","3UAU495MIIEABANG75FBFHDC9WUUOI","","null","<img src=""img/animal5.png"" style=""width:200px; border:14px solid green;"">","null","","","","","",""
"","image-keyboard-response","56","66233","0.0-56.0","3Z7ISHFUH1HQY1S4XDUPO6YF1ZK8ZZ","A5P12YJP805RG","3UAU495MIIEABANG75FBFHDC9WUUOI","","321.5","img/animal5.png","74","322","1","1","2","1,0.5,0,1,0,0.5,0.5,0,1",""
"","html-keyboard-response","57","66535","0.0-57.0","3Z7ISHFUH1HQY1S4XDUPO6YF1ZK8ZZ","A5P12YJP805RG","3UAU495MIIEABANG75FBFHDC9WUUOI","","null","<img src=""img/animal5.png"" style=""width:200px; border:14px solid green;"">","null","","","","","",""
"","image-keyboard-response","58","66898","0.0-58.0","3Z7ISHFUH1HQY1S4XDUPO6YF1ZK8ZZ","A5P12YJP805RG","3UAU495MIIEABANG75FBFHDC9WUUOI","","361.89999985694885","img/animal5.png","74","362.5","1","1","2","1,0.5,0,1,0,0.5,0.5,0,1",""
"","html-keyboard-response","59","67198","0.0-59.0","3Z7ISHFUH1HQY1S4XDUPO6YF1ZK8ZZ","A5P12YJP805RG","3UAU495MIIEABANG75FBFHDC9WUUOI","","null","<img src=""img/animal5.png"" style=""width:200px; border:14px solid green;"">","null","","","","","",""
"","image-keyboard-response","60","67858","0.0-60.0","3Z7ISHFUH1HQY1S4XDUPO6YF1ZK8ZZ","A5P12YJP805RG","3UAU495MIIEABANG75FBFHDC9WUUOI","","658.6000001430511","img/animal3.png","76","659.3999998569489","3","1","3","1,0.5,0,1,0,0.5,0.5,0,1",""
"","html-keyboard-response","61","68160","0.0-61.0","3Z7ISHFUH1HQY1S4XDUPO6YF1ZK8ZZ","A5P12YJP805RG","3UAU495MIIEABANG75FBFHDC9WUUOI","","null","<img src=""img/animal3.png"" style=""width:200px; border:14px solid green;"">","null","","","","","",""
"","image-keyboard-response","62","68778","0.0-62.0","3Z7ISHFUH1HQY1S4XDUPO6YF1ZK8ZZ","A5P12YJP805RG","3UAU495MIIEABANG75FBFHDC9WUUOI","","617","img/animal2.png","74","617.6000001430511","1","1","1","1,0.5,0,1,0,0.5,0.5,0,1",""
"","html-keyboard-response","63","69081","0.0-63.0","3Z7ISHFUH1HQY1S4XDUPO6YF1ZK8ZZ","A5P12YJP805RG","3UAU495MIIEABANG75FBFHDC9WUUOI","","null","<img src=""img/animal2.png"" style=""width:200px; border:14px solid green;"">","null","","","","","",""
"","image-keyboard-response","64","69586","0.0-64.0","3Z7ISHFUH1HQY1S4XDUPO6YF1ZK8ZZ","A5P12YJP805RG","3UAU495MIIEABANG75FBFHDC9WUUOI","","504.39999985694885","img/animal5.png","74","505","1","1","2","1,0.5,0,1,0,0.5,0.5,0,1",""
"","html-keyboard-response","65","69887","0.0-65.0","3Z7ISHFUH1HQY1S4XDUPO6YF1ZK8ZZ","A5P12YJP805RG","3UAU495MIIEABANG75FBFHDC9WUUOI","","null","<img src=""img/animal5.png"" style=""width:200px; border:14px solid green;"">","null","","","","","",""
"","image-keyboard-response","66","70410","0.0-66.0","3Z7ISHFUH1HQY1S4XDUPO6YF1ZK8ZZ","A5P12YJP805RG","3UAU495MIIEABANG75FBFHDC9WUUOI","","522.5","img/animal2.png","74","523","1","1","1","1,0.5,0,1,0,0.5,0.5,0,1",""
"","html-keyboard-response","67","70711","0.0-67.0","3Z7ISHFUH1HQY1S4XDUPO6YF1ZK8ZZ","A5P12YJP805RG","3UAU495MIIEABANG75FBFHDC9WUUOI","","null","<img src=""img/animal2.png"" style=""width:200px; border:14px solid green;"">","null","","","","","",""
"","image-keyboard-response","68","71266","0.0-68.0","3Z7ISHFUH1HQY1S4XDUPO6YF1ZK8ZZ","A5P12YJP805RG","3UAU495MIIEABANG75FBFHDC9WUUOI","","554.1999998092651","img/animal5.png","74","554.7000000476837","1","1","2","1,0.5,0,1,0,0.5,0.5,0,1",""
"","html-keyboard-response","69","71569","0.0-69.0","3Z7ISHFUH1HQY1S4XDUPO6YF1ZK8ZZ","A5P12YJP805RG","3UAU495MIIEABANG75FBFHDC9WUUOI","","null","<img src=""img/animal5.png"" style=""width:200px; border:14px solid green;"">","null","","","","","",""
"","image-keyboard-response","70","72059","0.0-70.0","3Z7ISHFUH1HQY1S4XDUPO6YF1ZK8ZZ","A5P12YJP805RG","3UAU495MIIEABANG75FBFHDC9WUUOI","","489.40000009536743","img/animal3.png","76","490.09999990463257","3","1","3","1,0.5,0,1,0,0.5,0.5,0,1",""
"","html-keyboard-response","71","72360","0.0-71.0","3Z7ISHFUH1HQY1S4XDUPO6YF1ZK8ZZ","A5P12YJP805RG","3UAU495MIIEABANG75FBFHDC9WUUOI","","null","<img src=""img/animal3.png"" style=""width:200px; border:14px solid green;"">","null","","","","","",""
"","image-keyboard-response","72","72747","0.0-72.0","3Z7ISHFUH1HQY1S4XDUPO6YF1ZK8ZZ","A5P12YJP805RG","3UAU495MIIEABANG75FBFHDC9WUUOI","","385.7000000476837","img/animal5.png","74","386.30000019073486","1","1","2","1,0.5,0,1,0,0.5,0.5,0,1",""
"","html-keyboard-response","73","73048","0.0-73.0","3Z7ISHFUH1HQY1S4XDUPO6YF1ZK8ZZ","A5P12YJP805RG","3UAU495MIIEABANG75FBFHDC9WUUOI","","null","<img src=""img/animal5.png"" style=""width:200px; border:14px solid green;"">","null","","","","","",""
"","image-keyboard-response","74","73443","0.0-74.0","3Z7ISHFUH1HQY1S4XDUPO6YF1ZK8ZZ","A5P12YJP805RG","3UAU495MIIEABANG75FBFHDC9WUUOI","","393.60000014305115","img/animal5.png","74","394.2999999523163","1","1","2","1,0.5,0,1,0,0.5,0.5,0,1",""
"","html-keyboard-response","75","73744","0.0-75.0","3Z7ISHFUH1HQY1S4XDUPO6YF1ZK8ZZ","A5P12YJP805RG","3UAU495MIIEABANG75FBFHDC9WUUOI","","null","<img src=""img/animal5.png"" style=""width:200px; border:14px solid green;"">","null","","","","","",""
"","image-keyboard-response","76","74403","0.0-76.0","3Z7ISHFUH1HQY1S4XDUPO6YF1ZK8ZZ","A5P12YJP805RG","3UAU495MIIEABANG75FBFHDC9WUUOI","","657.7999999523163","img/animal3.png","76","658.2999999523163","3","1","3","1,0.5,0,1,0,0.5,0.5,0,1",""
"","html-keyboard-response","77","74704","0.0-77.0","3Z7ISHFUH1HQY1S4XDUPO6YF1ZK8ZZ","A5P12YJP805RG","3UAU495MIIEABANG75FBFHDC9WUUOI","","null","<img src=""img/animal3.png"" style=""width:200px; border:14px solid green;"">","null","","","","","",""
"","image-keyboard-response","78","75035","0.0-78.0","3Z7ISHFUH1HQY1S4XDUPO6YF1ZK8ZZ","A5P12YJP805RG","3UAU495MIIEABANG75FBFHDC9WUUOI","","331","img/animal2.png","74","331.5","1","1","1","1,0.5,0,1,0,0.5,0.5,0,1",""
"","html-keyboard-response","79","75336","0.0-79.0","3Z7ISHFUH1HQY1S4XDUPO6YF1ZK8ZZ","A5P12YJP805RG","3UAU495MIIEABANG75FBFHDC9WUUOI","","null","<img src=""img/animal2.png"" style=""width:200px; border:14px solid green;"">","null","","","","","",""
"","image-keyboard-response","80","75819","0.0-80.0","3Z7ISHFUH1HQY1S4XDUPO6YF1ZK8ZZ","A5P12YJP805RG","3UAU495MIIEABANG75FBFHDC9WUUOI","","481.90000009536743","img/animal5.png","74","482.7000000476837","1","1","2","1,0.5,0,1,0,0.5,0.5,0,1",""
"","html-keyboard-response","81","76120","0.0-81.0","3Z7ISHFUH1HQY1S4XDUPO6YF1ZK8ZZ","A5P12YJP805RG","3UAU495MIIEABANG75FBFHDC9WUUOI","","null","<img src=""img/animal5.png"" style=""width:200px; border:14px solid green;"">","null","","","","","",""
"","image-keyboard-response","82","76835","0.0-82.0","3Z7ISHFUH1HQY1S4XDUPO6YF1ZK8ZZ","A5P12YJP805RG","3UAU495MIIEABANG75FBFHDC9WUUOI","","713.7000000476837","img/animal2.png","74","714.3999998569489","1","1","1","1,0.5,0,1,0,0.5,0.5,0,1",""
"","html-keyboard-response","83","77136","0.0-83.0","3Z7ISHFUH1HQY1S4XDUPO6YF1ZK8ZZ","A5P12YJP805RG","3UAU495MIIEABANG75FBFHDC9WUUOI","","null","<img src=""img/animal2.png"" style=""width:200px; border:14px solid green;"">","null","","","","","",""
"","image-keyboard-response","84","77611","0.0-84.0","3Z7ISHFUH1HQY1S4XDUPO6YF1ZK8ZZ","A5P12YJP805RG","3UAU495MIIEABANG75FBFHDC9WUUOI","","475","img/animal5.png","74","475.5","1","1","2","1,0.5,0,1,0,0.5,0.5,0,1",""
"","html-keyboard-response","85","77913","0.0-85.0","3Z7ISHFUH1HQY1S4XDUPO6YF1ZK8ZZ","A5P12YJP805RG","3UAU495MIIEABANG75FBFHDC9WUUOI","","null","<img src=""img/animal5.png"" style=""width:200px; border:14px solid green;"">","null","","","","","",""
"","image-keyboard-response","86","78283","0.0-86.0","3Z7ISHFUH1HQY1S4XDUPO6YF1ZK8ZZ","A5P12YJP805RG","3UAU495MIIEABANG75FBFHDC9WUUOI","","369.5","img/animal2.png","74","370.09999990463257","1","1","1","1,0.5,0,1,0,0.5,0.5,0,1",""
"","html-keyboard-response","87","78585","0.0-87.0","3Z7ISHFUH1HQY1S4XDUPO6YF1ZK8ZZ","A5P12YJP805RG","3UAU495MIIEABANG75FBFHDC9WUUOI","","null","<img src=""img/animal2.png"" style=""width:200px; border:14px solid green;"">","null","","","","","",""
"","image-keyboard-response","88","79060","0.0-88.0","3Z7ISHFUH1HQY1S4XDUPO6YF1ZK8ZZ","A5P12YJP805RG","3UAU495MIIEABANG75FBFHDC9WUUOI","","474.39999985694885","img/animal5.png","74","475","1","1","2","1,0.5,0,1,0,0.5,0.5,0,1",""
"","html-keyboard-response","89","79363","0.0-89.0","3Z7ISHFUH1HQY1S4XDUPO6YF1ZK8ZZ","A5P12YJP805RG","3UAU495MIIEABANG75FBFHDC9WUUOI","","null","<img src=""img/animal5.png"" style=""width:200px; border:14px solid green;"">","null","","","","","",""
"","image-keyboard-response","90","80035","0.0-90.0","3Z7ISHFUH1HQY1S4XDUPO6YF1ZK8ZZ","A5P12YJP805RG","3UAU495MIIEABANG75FBFHDC9WUUOI","","672.2000000476837","img/animal3.png","76","672.6000001430511","3","1","3","1,0.5,0,1,0,0.5,0.5,0,1",""
"","html-keyboard-response","91","80337","0.0-91.0","3Z7ISHFUH1HQY1S4XDUPO6YF1ZK8ZZ","A5P12YJP805RG","3UAU495MIIEABANG75FBFHDC9WUUOI","","null","<img src=""img/animal3.png"" style=""width:200px; border:14px solid green;"">","null","","","","","",""
"","image-keyboard-response","92","80748","0.0-92.0","3Z7ISHFUH1HQY1S4XDUPO6YF1ZK8ZZ","A5P12YJP805RG","3UAU495MIIEABANG75FBFHDC9WUUOI","","409.7999999523163","img/animal3.png","76","410.39999985694885","3","1","3","1,0.5,0,1,0,0.5,0.5,0,1",""
"","html-keyboard-response","93","81050","0.0-93.0","3Z7ISHFUH1HQY1S4XDUPO6YF1ZK8ZZ","A5P12YJP805RG","3UAU495MIIEABANG75FBFHDC9WUUOI","","null","<img src=""img/animal3.png"" style=""width:200px; border:14px solid green;"">","null","","","","","",""
"","image-keyboard-response","94","81451","0.0-94.0","3Z7ISHFUH1HQY1S4XDUPO6YF1ZK8ZZ","A5P12YJP805RG","3UAU495MIIEABANG75FBFHDC9WUUOI","","401.09999990463257","img/animal5.png","74","401.59999990463257","1","1","2","1,0.5,0,1,0,0.5,0.5,0,1",""
"","html-keyboard-response","95","81753","0.0-95.0","3Z7ISHFUH1HQY1S4XDUPO6YF1ZK8ZZ","A5P12YJP805RG","3UAU495MIIEABANG75FBFHDC9WUUOI","","null","<img src=""img/animal5.png"" style=""width:200px; border:14px solid green;"">","null","","","","","",""
"","image-keyboard-response","96","82252","0.0-96.0","3Z7ISHFUH1HQY1S4XDUPO6YF1ZK8ZZ","A5P12YJP805RG","3UAU495MIIEABANG75FBFHDC9WUUOI","","498.5","img/animal3.png","76","499.09999990463257","3","1","3","1,0.5,0,1,0,0.5,0.5,0,1",""
"","html-keyboard-response","97","82553","0.0-97.0","3Z7ISHFUH1HQY1S4XDUPO6YF1ZK8ZZ","A5P12YJP805RG","3UAU495MIIEABANG75FBFHDC9WUUOI","","null","<img src=""img/animal3.png"" style=""width:200px; border:14px solid green;"">","null","","","","","",""
"","image-keyboard-response","98","82916","0.0-98.0","3Z7ISHFUH1HQY1S4XDUPO6YF1ZK8ZZ","A5P12YJP805RG","3UAU495MIIEABANG75FBFHDC9WUUOI","","362.09999990463257","img/animal3.png","76","362.7000000476837","3","1","3","1,0.5,0,1,0,0.5,0.5,0,1",""
"","html-keyboard-response","99","83217","0.0-99.0","3Z7ISHFUH1HQY1S4XDUPO6YF1ZK8ZZ","A5P12YJP805RG","3UAU495MIIEABANG75FBFHDC9WUUOI","","null","<img src=""img/animal3.png"" style=""width:200px; border:14px solid green;"">","null","","","","","",""
"","image-keyboard-response","100","83588","0.0-100.0","3Z7ISHFUH1HQY1S4XDUPO6YF1ZK8ZZ","A5P12YJP805RG","3UAU495MIIEABANG75FBFHDC9WUUOI","","370.5","img/animal3.png","76","371","3","1","3","1,0.5,0,1,0,0.5,0.5,0,1",""
"","html-keyboard-response","101","83890","0.0-101.0","3Z7ISHFUH1HQY1S4XDUPO6YF1ZK8ZZ","A5P12YJP805RG","3UAU495MIIEABANG75FBFHDC9WUUOI","","null","<img src=""img/animal3.png"" style=""width:200px; border:14px solid green;"">","null","","","","","",""
"","image-keyboard-response","102","84260","0.0-102.0","3Z7ISHFUH1HQY1S4XDUPO6YF1ZK8ZZ","A5P12YJP805RG","3UAU495MIIEABANG75FBFHDC9WUUOI","","369.7999999523163","img/animal3.png","76","370.2999999523163","3","1","3","1,0.5,0,1,0,0.5,0.5,0,1",""
"","html-keyboard-response","103","84562","0.0-103.0","3Z7ISHFUH1HQY1S4XDUPO6YF1ZK8ZZ","A5P12YJP805RG","3UAU495MIIEABANG75FBFHDC9WUUOI","","null","<img src=""img/animal3.png"" style=""width:200px; border:14px solid green;"">","null","","","","","",""
"","image-keyboard-response","104","85036","0.0-104.0","3Z7ISHFUH1HQY1S4XDUPO6YF1ZK8ZZ","A5P12YJP805RG","3UAU495MIIEABANG75FBFHDC9WUUOI","","474","img/animal2.png","74","474.7000000476837","1","1","1","1,0.5,0,1,0,0.5,0.5,0,1",""
"","html-keyboard-response","105","85338","0.0-105.0","3Z7ISHFUH1HQY1S4XDUPO6YF1ZK8ZZ","A5P12YJP805RG","3UAU495MIIEABANG75FBFHDC9WUUOI","","null","<img src=""img/animal2.png"" style=""width:200px; border:14px solid green;"">","null","","","","","",""
"","image-keyboard-response","106","85732","0.0-106.0","3Z7ISHFUH1HQY1S4XDUPO6YF1ZK8ZZ","A5P12YJP805RG","3UAU495MIIEABANG75FBFHDC9WUUOI","","393.89999985694885","img/animal3.png","74","394.59999990463257","1","0","3","1,0.5,0,1,0,0.5,0.5,0,1",""
"","html-keyboard-response","107","86033","0.0-107.0","3Z7ISHFUH1HQY1S4XDUPO6YF1ZK8ZZ","A5P12YJP805RG","3UAU495MIIEABANG75FBFHDC9WUUOI","","null","<img src=""img/animal3.png"" style=""width:200px;border:14px solid red;"">","null","","","","","",""
"","image-keyboard-response","108","86477","0.0-108.0","3Z7ISHFUH1HQY1S4XDUPO6YF1ZK8ZZ","A5P12YJP805RG","3UAU495MIIEABANG75FBFHDC9WUUOI","","443.5","img/animal5.png","74","444.09999990463257","1","1","2","1,0.5,0,1,0,0.5,0.5,0,1",""
"","html-keyboard-response","109","86779","0.0-109.0","3Z7ISHFUH1HQY1S4XDUPO6YF1ZK8ZZ","A5P12YJP805RG","3UAU495MIIEABANG75FBFHDC9WUUOI","","null","<img src=""img/animal5.png"" style=""width:200px; border:14px solid green;"">","null","","","","","",""
"","image-keyboard-response","110","87237","0.0-110.0","3Z7ISHFUH1HQY1S4XDUPO6YF1ZK8ZZ","A5P12YJP805RG","3UAU495MIIEABANG75FBFHDC9WUUOI","","457","img/animal2.png","74","457.59999990463257","1","1","1","1,0.5,0,1,0,0.5,0.5,0,1",""
"","html-keyboard-response","111","87538","0.0-111.0","3Z7ISHFUH1HQY1S4XDUPO6YF1ZK8ZZ","A5P12YJP805RG","3UAU495MIIEABANG75FBFHDC9WUUOI","","null","<img src=""img/animal2.png"" style=""width:200px; border:14px solid green;"">","null","","","","","",""
"","image-keyboard-response","112","87861","0.0-112.0","3Z7ISHFUH1HQY1S4XDUPO6YF1ZK8ZZ","A5P12YJP805RG","3UAU495MIIEABANG75FBFHDC9WUUOI","","321.90000009536743","img/animal2.png","74","322.5","1","1","1","1,0.5,0,1,0,0.5,0.5,0,1",""
"","html-keyboard-response","113","88162","0.0-113.0","3Z7ISHFUH1HQY1S4XDUPO6YF1ZK8ZZ","A5P12YJP805RG","3UAU495MIIEABANG75FBFHDC9WUUOI","","null","<img src=""img/animal2.png"" style=""width:200px; border:14px solid green;"">","null","","","","","",""
"","image-keyboard-response","114","88469","0.0-114.0","3Z7ISHFUH1HQY1S4XDUPO6YF1ZK8ZZ","A5P12YJP805RG","3UAU495MIIEABANG75FBFHDC9WUUOI","","306.2999999523163","img/animal2.png","74","306.80000019073486","1","1","1","1,0.5,0,1,0,0.5,0.5,0,1",""
"","html-keyboard-response","115","88771","0.0-115.0","3Z7ISHFUH1HQY1S4XDUPO6YF1ZK8ZZ","A5P12YJP805RG","3UAU495MIIEABANG75FBFHDC9WUUOI","","null","<img src=""img/animal2.png"" style=""width:200px; border:14px solid green;"">","null","","","","","",""
"","image-keyboard-response","116","89069","0.0-116.0","3Z7ISHFUH1HQY1S4XDUPO6YF1ZK8ZZ","A5P12YJP805RG","3UAU495MIIEABANG75FBFHDC9WUUOI","","297.7000000476837","img/animal2.png","74","298","1","1","1","1,0.5,0,1,0,0.5,0.5,0,1",""
"","html-keyboard-response","117","89371","0.0-117.0","3Z7ISHFUH1HQY1S4XDUPO6YF1ZK8ZZ","A5P12YJP805RG","3UAU495MIIEABANG75FBFHDC9WUUOI","","null","<img src=""img/animal2.png"" style=""width:200px; border:14px solid green;"">","null","","","","","",""
"","image-keyboard-response","118","89805","0.0-118.0","3Z7ISHFUH1HQY1S4XDUPO6YF1ZK8ZZ","A5P12YJP805RG","3UAU495MIIEABANG75FBFHDC9WUUOI","","433.7000000476837","img/animal3.png","76","434.10000014305115","3","1","3","1,0.5,0,1,0,0.5,0.5,0,1",""
"","html-keyboard-response","119","90106","0.0-119.0","3Z7ISHFUH1HQY1S4XDUPO6YF1ZK8ZZ","A5P12YJP805RG","3UAU495MIIEABANG75FBFHDC9WUUOI","","null","<img src=""img/animal3.png"" style=""width:200px; border:14px solid green;"">","null","","","","","",""
"","image-keyboard-response","120","90565","0.0-120.0","3Z7ISHFUH1HQY1S4XDUPO6YF1ZK8ZZ","A5P12YJP805RG","3UAU495MIIEABANG75FBFHDC9WUUOI","","458.5","img/animal5.png","74","459.19999980926514","1","1","2","1,0.5,0,1,0,0.5,0.5,0,1",""
"","html-keyboard-response","121","90867","0.0-121.0","3Z7ISHFUH1HQY1S4XDUPO6YF1ZK8ZZ","A5P12YJP805RG","3UAU495MIIEABANG75FBFHDC9WUUOI","","null","<img src=""img/animal5.png"" style=""width:200px; border:14px solid green;"">","null","","","","","",""
"","image-keyboard-response","122","91205","0.0-122.0","3Z7ISHFUH1HQY1S4XDUPO6YF1ZK8ZZ","A5P12YJP805RG","3UAU495MIIEABANG75FBFHDC9WUUOI","","337.40000009536743","img/animal5.png","74","338.10000014305115","1","1","2","1,0.5,0,1,0,0.5,0.5,0,1",""
"","html-keyboard-response","123","91507","0.0-123.0","3Z7ISHFUH1HQY1S4XDUPO6YF1ZK8ZZ","A5P12YJP805RG","3UAU495MIIEABANG75FBFHDC9WUUOI","","null","<img src=""img/animal5.png"" style=""width:200px; border:14px solid green;"">","null","","","","","",""
"","image-keyboard-response","124","92077","0.0-124.0","3Z7ISHFUH1HQY1S4XDUPO6YF1ZK8ZZ","A5P12YJP805RG","3UAU495MIIEABANG75FBFHDC9WUUOI","","569.7000000476837","img/animal2.png","74","570.5","1","1","1","1,0.5,0,1,0,0.5,0.5,0,1",""
"","html-keyboard-response","125","92378","0.0-125.0","3Z7ISHFUH1HQY1S4XDUPO6YF1ZK8ZZ","A5P12YJP805RG","3UAU495MIIEABANG75FBFHDC9WUUOI","","null","<img src=""img/animal2.png"" style=""width:200px; border:14px solid green;"">","null","","","","","",""
"","image-keyboard-response","126","92742","0.0-126.0","3Z7ISHFUH1HQY1S4XDUPO6YF1ZK8ZZ","A5P12YJP805RG","3UAU495MIIEABANG75FBFHDC9WUUOI","","362.7999999523163","img/animal2.png","74","363.39999985694885","1","1","1","1,0.5,0,1,0,0.5,0.5,0,1",""
"","html-keyboard-response","127","93043","0.0-127.0","3Z7ISHFUH1HQY1S4XDUPO6YF1ZK8ZZ","A5P12YJP805RG","3UAU495MIIEABANG75FBFHDC9WUUOI","","null","<img src=""img/animal2.png"" style=""width:200px; border:14px solid green;"">","null","","","","","",""
"","image-keyboard-response","128","93349","0.0-128.0","3Z7ISHFUH1HQY1S4XDUPO6YF1ZK8ZZ","A5P12YJP805RG","3UAU495MIIEABANG75FBFHDC9WUUOI","","305.90000009536743","img/animal2.png","74","306.5","1","1","1","1,0.5,0,1,0,0.5,0.5,0,1",""
"","html-keyboard-response","129","93652","0.0-129.0","3Z7ISHFUH1HQY1S4XDUPO6YF1ZK8ZZ","A5P12YJP805RG","3UAU495MIIEABANG75FBFHDC9WUUOI","","null","<img src=""img/animal2.png"" style=""width:200px; border:14px solid green;"">","null","","","","","",""
"","image-keyboard-response","130","94117","0.0-130.0","3Z7ISHFUH1HQY1S4XDUPO6YF1ZK8ZZ","A5P12YJP805RG","3UAU495MIIEABANG75FBFHDC9WUUOI","","465","img/animal5.png","74","465.60000014305115","1","1","2","1,0.5,0,1,0,0.5,0.5,0,1",""
"","html-keyboard-response","131","94418","0.0-131.0","3Z7ISHFUH1HQY1S4XDUPO6YF1ZK8ZZ","A5P12YJP805RG","3UAU495MIIEABANG75FBFHDC9WUUOI","","null","<img src=""img/animal5.png"" style=""width:200px; border:14px solid green;"">","null","","","","","",""
"","image-keyboard-response","132","94918","0.0-132.0","3Z7ISHFUH1HQY1S4XDUPO6YF1ZK8ZZ","A5P12YJP805RG","3UAU495MIIEABANG75FBFHDC9WUUOI","","498.59999990463257","img/animal2.png","74","499","1","1","1","1,0.5,0,1,0,0.5,0.5,0,1",""
"","html-keyboard-response","133","95219","0.0-133.0","3Z7ISHFUH1HQY1S4XDUPO6YF1ZK8ZZ","A5P12YJP805RG","3UAU495MIIEABANG75FBFHDC9WUUOI","","null","<img src=""img/animal2.png"" style=""width:200px; border:14px solid green;"">","null","","","","","",""
"","image-keyboard-response","134","95822","0.0-134.0","3Z7ISHFUH1HQY1S4XDUPO6YF1ZK8ZZ","A5P12YJP805RG","3UAU495MIIEABANG75FBFHDC9WUUOI","","602.6000001430511","img/animal3.png","76","603.0999999046326","3","1","3","1,0.5,0,1,0,0.5,0.5,0,1",""
"","html-keyboard-response","135","96123","0.0-135.0","3Z7ISHFUH1HQY1S4XDUPO6YF1ZK8ZZ","A5P12YJP805RG","3UAU495MIIEABANG75FBFHDC9WUUOI","","null","<img src=""img/animal3.png"" style=""width:200px; border:14px solid green;"">","null","","","","","",""
"","image-keyboard-response","136","96486","0.0-136.0","3Z7ISHFUH1HQY1S4XDUPO6YF1ZK8ZZ","A5P12YJP805RG","3UAU495MIIEABANG75FBFHDC9WUUOI","","361.60000014305115","img/animal5.png","74","362.2000000476837","1","1","2","1,0.5,0,1,0,0.5,0.5,0,1",""
"","html-keyboard-response","137","96787","0.0-137.0","3Z7ISHFUH1HQY1S4XDUPO6YF1ZK8ZZ","A5P12YJP805RG","3UAU495MIIEABANG75FBFHDC9WUUOI","","null","<img src=""img/animal5.png"" style=""width:200px; border:14px solid green;"">","null","","","","","",""
"","image-keyboard-response","138","97279","0.0-138.0","3Z7ISHFUH1HQY1S4XDUPO6YF1ZK8ZZ","A5P12YJP805RG","3UAU495MIIEABANG75FBFHDC9WUUOI","","490.89999985694885","img/animal3.png","76","491.39999985694885","3","1","3","1,0.5,0,1,0,0.5,0.5,0,1",""
"","html-keyboard-response","139","97580","0.0-139.0","3Z7ISHFUH1HQY1S4XDUPO6YF1ZK8ZZ","A5P12YJP805RG","3UAU495MIIEABANG75FBFHDC9WUUOI","","null","<img src=""img/animal3.png"" style=""width:200px; border:14px solid green;"">","null","","","","","",""
"","image-keyboard-response","140","97918","0.0-140.0","3Z7ISHFUH1HQY1S4XDUPO6YF1ZK8ZZ","A5P12YJP805RG","3UAU495MIIEABANG75FBFHDC9WUUOI","","337.2999999523163","img/animal3.png","76","337.89999985694885","3","1","3","1,0.5,0,1,0,0.5,0.5,0,1",""
"","html-keyboard-response","141","98219","0.0-141.0","3Z7ISHFUH1HQY1S4XDUPO6YF1ZK8ZZ","A5P12YJP805RG","3UAU495MIIEABANG75FBFHDC9WUUOI","","null","<img src=""img/animal3.png"" style=""width:200px; border:14px solid green;"">","null","","","","","",""
"","image-keyboard-response","142","98558","0.0-142.0","3Z7ISHFUH1HQY1S4XDUPO6YF1ZK8ZZ","A5P12YJP805RG","3UAU495MIIEABANG75FBFHDC9WUUOI","","338.2999999523163","img/animal3.png","76","339","3","1","3","1,0.5,0,1,0,0.5,0.5,0,1",""
"","html-keyboard-response","143","98859","0.0-143.0","3Z7ISHFUH1HQY1S4XDUPO6YF1ZK8ZZ","A5P12YJP805RG","3UAU495MIIEABANG75FBFHDC9WUUOI","","null","<img src=""img/animal3.png"" style=""width:200px; border:14px solid green;"">","null","","","","","",""
"","image-keyboard-response","144","99199","0.0-144.0","3Z7ISHFUH1HQY1S4XDUPO6YF1ZK8ZZ","A5P12YJP805RG","3UAU495MIIEABANG75FBFHDC9WUUOI","","338.5","img/animal5.png","74","339","1","1","2","1,0.5,0,1,0,0.5,0.5,0,1",""
"","html-keyboard-response","145","99500","0.0-145.0","3Z7ISHFUH1HQY1S4XDUPO6YF1ZK8ZZ","A5P12YJP805RG","3UAU495MIIEABANG75FBFHDC9WUUOI","","null","<img src=""img/animal5.png"" style=""width:200px; border:14px solid green;"">","null","","","","","",""
"","image-keyboard-response","146","100014","0.0-146.0","3Z7ISHFUH1HQY1S4XDUPO6YF1ZK8ZZ","A5P12YJP805RG","3UAU495MIIEABANG75FBFHDC9WUUOI","","513.5","img/animal3.png","76","514","3","1","3","1,0.5,0,1,0,0.5,0.5,0,1",""
"","html-keyboard-response","147","100316","0.0-147.0","3Z7ISHFUH1HQY1S4XDUPO6YF1ZK8ZZ","A5P12YJP805RG","3UAU495MIIEABANG75FBFHDC9WUUOI","","null","<img src=""img/animal3.png"" style=""width:200px; border:14px solid green;"">","null","","","","","",""
"","image-keyboard-response","148","100671","0.0-148.0","3Z7ISHFUH1HQY1S4XDUPO6YF1ZK8ZZ","A5P12YJP805RG","3UAU495MIIEABANG75FBFHDC9WUUOI","","353.90000009536743","img/animal2.png","74","354.5","1","1","1","1,0.5,0,1,0,0.5,0.5,0,1",""
"","html-keyboard-response","149","100972","0.0-149.0","3Z7ISHFUH1HQY1S4XDUPO6YF1ZK8ZZ","A5P12YJP805RG","3UAU495MIIEABANG75FBFHDC9WUUOI","","null","<img src=""img/animal2.png"" style=""width:200px; border:14px solid green;"">","null","","","","","",""
"","image-keyboard-response","150","101423","0.0-150.0","3Z7ISHFUH1HQY1S4XDUPO6YF1ZK8ZZ","A5P12YJP805RG","3UAU495MIIEABANG75FBFHDC9WUUOI","","449.7999999523163","img/animal3.png","76","450.30000019073486","3","1","3","1,0.5,0,1,0,0.5,0.5,0,1",""
"","html-keyboard-response","151","101725","0.0-151.0","3Z7ISHFUH1HQY1S4XDUPO6YF1ZK8ZZ","A5P12YJP805RG","3UAU495MIIEABANG75FBFHDC9WUUOI","","null","<img src=""img/animal3.png"" style=""width:200px; border:14px solid green;"">","null","","","","","",""
"","image-keyboard-response","152","102063","0.0-152.0","3Z7ISHFUH1HQY1S4XDUPO6YF1ZK8ZZ","A5P12YJP805RG","3UAU495MIIEABANG75FBFHDC9WUUOI","","337.2999999523163","img/animal3.png","76","337.90000009536743","3","1","3","1,0.5,0,1,0,0.5,0.5,0,1",""
"","html-keyboard-response","153","102364","0.0-153.0","3Z7ISHFUH1HQY1S4XDUPO6YF1ZK8ZZ","A5P12YJP805RG","3UAU495MIIEABANG75FBFHDC9WUUOI","","null","<img src=""img/animal3.png"" style=""width:200px; border:14px solid green;"">","null","","","","","",""
"","image-keyboard-response","154","102719","0.0-154.0","3Z7ISHFUH1HQY1S4XDUPO6YF1ZK8ZZ","A5P12YJP805RG","3UAU495MIIEABANG75FBFHDC9WUUOI","","354.90000009536743","img/animal3.png","76","355.60000014305115","3","1","3","1,0.5,0,1,0,0.5,0.5,0,1",""
"","html-keyboard-response","155","103021","0.0-155.0","3Z7ISHFUH1HQY1S4XDUPO6YF1ZK8ZZ","A5P12YJP805RG","3UAU495MIIEABANG75FBFHDC9WUUOI","","null","<img src=""img/animal3.png"" style=""width:200px; border:14px solid green;"">","null","","","","","",""
"","image-keyboard-response","156","103407","0.0-156.0","3Z7ISHFUH1HQY1S4XDUPO6YF1ZK8ZZ","A5P12YJP805RG","3UAU495MIIEABANG75FBFHDC9WUUOI","","385","img/animal2.png","74","385.59999990463257","1","1","1","1,0.5,0,1,0,0.5,0.5,0,1",""
"","html-keyboard-response","157","103709","0.0-157.0","3Z7ISHFUH1HQY1S4XDUPO6YF1ZK8ZZ","A5P12YJP805RG","3UAU495MIIEABANG75FBFHDC9WUUOI","","null","<img src=""img/animal2.png"" style=""width:200px; border:14px solid green;"">","null","","","","","",""
"","image-keyboard-response","158","104311","0.0-158.0","3Z7ISHFUH1HQY1S4XDUPO6YF1ZK8ZZ","A5P12YJP805RG","3UAU495MIIEABANG75FBFHDC9WUUOI","","601.3000001907349","img/animal5.png","74","601.7999999523163","1","1","2","1,0.5,0,1,0,0.5,0.5,0,1",""
"","html-keyboard-response","159","104612","0.0-159.0","3Z7ISHFUH1HQY1S4XDUPO6YF1ZK8ZZ","A5P12YJP805RG","3UAU495MIIEABANG75FBFHDC9WUUOI","","null","<img src=""img/animal5.png"" style=""width:200px; border:14px solid green;"">","null","","","","","",""
"","image-keyboard-response","160","104951","0.0-160.0","3Z7ISHFUH1HQY1S4XDUPO6YF1ZK8ZZ","A5P12YJP805RG","3UAU495MIIEABANG75FBFHDC9WUUOI","","338.10000014305115","img/animal5.png","74","338.7000000476837","1","1","2","1,0.5,0,1,0,0.5,0.5,0,1",""
"","html-keyboard-response","161","105253","0.0-161.0","3Z7ISHFUH1HQY1S4XDUPO6YF1ZK8ZZ","A5P12YJP805RG","3UAU495MIIEABANG75FBFHDC9WUUOI","","null","<img src=""img/animal5.png"" style=""width:200px; border:14px solid green;"">","null","","","","","",""
"","image-keyboard-response","162","105551","0.0-162.0","3Z7ISHFUH1HQY1S4XDUPO6YF1ZK8ZZ","A5P12YJP805RG","3UAU495MIIEABANG75FBFHDC9WUUOI","","297.39999985694885","img/animal5.png","74","297.90000009536743","1","1","2","1,0.5,0,1,0,0.5,0.5,0,1",""
"","html-keyboard-response","163","105853","0.0-163.0","3Z7ISHFUH1HQY1S4XDUPO6YF1ZK8ZZ","A5P12YJP805RG","3UAU495MIIEABANG75FBFHDC9WUUOI","","null","<img src=""img/animal5.png"" style=""width:200px; border:14px solid green;"">","null","","","","","",""
"","image-keyboard-response","164","106479","0.0-164.0","3Z7ISHFUH1HQY1S4XDUPO6YF1ZK8ZZ","A5P12YJP805RG","3UAU495MIIEABANG75FBFHDC9WUUOI","","626.3000001907349","img/animal2.png","74","626.7999999523163","1","1","1","1,0.5,0,1,0,0.5,0.5,0,1",""
"","html-keyboard-response","165","106781","0.0-165.0","3Z7ISHFUH1HQY1S4XDUPO6YF1ZK8ZZ","A5P12YJP805RG","3UAU495MIIEABANG75FBFHDC9WUUOI","","null","<img src=""img/animal2.png"" style=""width:200px; border:14px solid green;"">","null","","","","","",""
"","image-keyboard-response","166","107311","0.0-166.0","3Z7ISHFUH1HQY1S4XDUPO6YF1ZK8ZZ","A5P12YJP805RG","3UAU495MIIEABANG75FBFHDC9WUUOI","","529.5","img/animal3.png","76","529.9000000953674","3","1","3","1,0.5,0,1,0,0.5,0.5,0,1",""
"","html-keyboard-response","167","107613","0.0-167.0","3Z7ISHFUH1HQY1S4XDUPO6YF1ZK8ZZ","A5P12YJP805RG","3UAU495MIIEABANG75FBFHDC9WUUOI","","null","<img src=""img/animal3.png"" style=""width:200px; border:14px solid green;"">","null","","","","","",""
"","image-keyboard-response","168","108000","0.0-168.0","3Z7ISHFUH1HQY1S4XDUPO6YF1ZK8ZZ","A5P12YJP805RG","3UAU495MIIEABANG75FBFHDC9WUUOI","","387","img/animal2.png","74","387.59999990463257","1","1","1","1,0.5,0,1,0,0.5,0.5,0,1",""
"","html-keyboard-response","169","108302","0.0-169.0","3Z7ISHFUH1HQY1S4XDUPO6YF1ZK8ZZ","A5P12YJP805RG","3UAU495MIIEABANG75FBFHDC9WUUOI","","null","<img src=""img/animal2.png"" style=""width:200px; border:14px solid green;"">","null","","","","","",""
"","image-keyboard-response","170","108776","0.0-170.0","3Z7ISHFUH1HQY1S4XDUPO6YF1ZK8ZZ","A5P12YJP805RG","3UAU495MIIEABANG75FBFHDC9WUUOI","","473.5","img/animal3.png","76","474","3","1","3","1,0.5,0,1,0,0.5,0.5,0,1",""
"","html-keyboard-response","171","109077","0.0-171.0","3Z7ISHFUH1HQY1S4XDUPO6YF1ZK8ZZ","A5P12YJP805RG","3UAU495MIIEABANG75FBFHDC9WUUOI","","null","<img src=""img/animal3.png"" style=""width:200px; border:14px solid green;"">","null","","","","","",""
"","image-keyboard-response","172","109408","0.0-172.0","3Z7ISHFUH1HQY1S4XDUPO6YF1ZK8ZZ","A5P12YJP805RG","3UAU495MIIEABANG75FBFHDC9WUUOI","","329.7999999523163","img/animal3.png","76","330.39999985694885","3","1","3","1,0.5,0,1,0,0.5,0.5,0,1",""
"","html-keyboard-response","173","109710","0.0-173.0","3Z7ISHFUH1HQY1S4XDUPO6YF1ZK8ZZ","A5P12YJP805RG","3UAU495MIIEABANG75FBFHDC9WUUOI","","null","<img src=""img/animal3.png"" style=""width:200px; border:14px solid green;"">","null","","","","","",""
"","image-keyboard-response","174","110040","0.0-174.0","3Z7ISHFUH1HQY1S4XDUPO6YF1ZK8ZZ","A5P12YJP805RG","3UAU495MIIEABANG75FBFHDC9WUUOI","","329.89999985694885","img/animal3.png","76","330.60000014305115","3","1","3","1,0.5,0,1,0,0.5,0.5,0,1",""
"","html-keyboard-response","175","110341","0.0-175.0","3Z7ISHFUH1HQY1S4XDUPO6YF1ZK8ZZ","A5P12YJP805RG","3UAU495MIIEABANG75FBFHDC9WUUOI","","null","<img src=""img/animal3.png"" style=""width:200px; border:14px solid green;"">","null","","","","","",""
"","image-keyboard-response","176","110776","0.0-176.0","3Z7ISHFUH1HQY1S4XDUPO6YF1ZK8ZZ","A5P12YJP805RG","3UAU495MIIEABANG75FBFHDC9WUUOI","","434","img/animal2.png","74","434.5","1","1","1","1,0.5,0,1,0,0.5,0.5,0,1",""
"","html-keyboard-response","177","111077","0.0-177.0","3Z7ISHFUH1HQY1S4XDUPO6YF1ZK8ZZ","A5P12YJP805RG","3UAU495MIIEABANG75FBFHDC9WUUOI","","null","<img src=""img/animal2.png"" style=""width:200px; border:14px solid green;"">","null","","","","","",""
"","image-keyboard-response","178","111520","0.0-178.0","3Z7ISHFUH1HQY1S4XDUPO6YF1ZK8ZZ","A5P12YJP805RG","3UAU495MIIEABANG75FBFHDC9WUUOI","","442.90000009536743","img/animal5.png","74","443.5","1","1","2","1,0.5,0,1,0,0.5,0.5,0,1",""
"","html-keyboard-response","179","111822","0.0-179.0","3Z7ISHFUH1HQY1S4XDUPO6YF1ZK8ZZ","A5P12YJP805RG","3UAU495MIIEABANG75FBFHDC9WUUOI","","null","<img src=""img/animal5.png"" style=""width:200px; border:14px solid green;"">","null","","","","","",""
"","image-keyboard-response","180","112144","0.0-180.0","3Z7ISHFUH1HQY1S4XDUPO6YF1ZK8ZZ","A5P12YJP805RG","3UAU495MIIEABANG75FBFHDC9WUUOI","","321.7000000476837","img/animal5.png","74","322.2999999523163","1","1","2","1,0.5,0,1,0,0.5,0.5,0,1",""
"","html-keyboard-response","181","112446","0.0-181.0","3Z7ISHFUH1HQY1S4XDUPO6YF1ZK8ZZ","A5P12YJP805RG","3UAU495MIIEABANG75FBFHDC9WUUOI","","null","<img src=""img/animal5.png"" style=""width:200px; border:14px solid green;"">","null","","","","","",""
"","html-keyboard-response","182","114912","0.0-182.0","3Z7ISHFUH1HQY1S4XDUPO6YF1ZK8ZZ","A5P12YJP805RG","3UAU495MIIEABANG75FBFHDC9WUUOI","","","","","","","","","",""
"","image-keyboard-response","183","115632","0.0-183.0","3Z7ISHFUH1HQY1S4XDUPO6YF1ZK8ZZ","A5P12YJP805RG","3UAU495MIIEABANG75FBFHDC9WUUOI","","720.2000000476837","img/animal1.png","74","720.6999998092651","1","0","2","1,0.5,0,0,1,0.5,0.5,0,1",""
"","html-keyboard-response","184","115933","0.0-184.0","3Z7ISHFUH1HQY1S4XDUPO6YF1ZK8ZZ","A5P12YJP805RG","3UAU495MIIEABANG75FBFHDC9WUUOI","","null","<img src=""img/animal1.png"" style=""width:200px;border:14px solid red;"">","null","","","","","",""
"","image-keyboard-response","185","116281","0.0-185.0","3Z7ISHFUH1HQY1S4XDUPO6YF1ZK8ZZ","A5P12YJP805RG","3UAU495MIIEABANG75FBFHDC9WUUOI","","347.2000000476837","img/animal1.png","74","347.7999999523163","1","0","2","1,0.5,0,0,1,0.5,0.5,0,1",""
"","html-keyboard-response","186","116583","0.0-186.0","3Z7ISHFUH1HQY1S4XDUPO6YF1ZK8ZZ","A5P12YJP805RG","3UAU495MIIEABANG75FBFHDC9WUUOI","","null","<img src=""img/animal1.png"" style=""width:200px;border:14px solid red;"">","null","","","","","",""
"","image-keyboard-response","187","117297","0.0-187.0","3Z7ISHFUH1HQY1S4XDUPO6YF1ZK8ZZ","A5P12YJP805RG","3UAU495MIIEABANG75FBFHDC9WUUOI","","713.7999999523163","img/animal6.png","74","714.5","1","0","3","1,0.5,0,0,1,0.5,0.5,0,1",""
"","html-keyboard-response","188","117599","0.0-188.0","3Z7ISHFUH1HQY1S4XDUPO6YF1ZK8ZZ","A5P12YJP805RG","3UAU495MIIEABANG75FBFHDC9WUUOI","","null","<img src=""img/animal6.png"" style=""width:200px;border:14px solid red;"">","null","","","","","",""
"","image-keyboard-response","189","118457","0.0-189.0","3Z7ISHFUH1HQY1S4XDUPO6YF1ZK8ZZ","A5P12YJP805RG","3UAU495MIIEABANG75FBFHDC9WUUOI","","857","img/animal1.png","75","857.6000001430511","2","1","2","1,0.5,0,0,1,0.5,0.5,0,1",""
"","html-keyboard-response","190","118758","0.0-190.0","3Z7ISHFUH1HQY1S4XDUPO6YF1ZK8ZZ","A5P12YJP805RG","3UAU495MIIEABANG75FBFHDC9WUUOI","","null","<img src=""img/animal1.png"" style=""width:200px; border:14px solid green;"">","null","","","","","",""
"","image-keyboard-response","191","119441","0.0-191.0","3Z7ISHFUH1HQY1S4XDUPO6YF1ZK8ZZ","A5P12YJP805RG","3UAU495MIIEABANG75FBFHDC9WUUOI","","682.5","img/animal6.png","74","682.8999998569489","1","1","3","1,0.5,0,0,1,0.5,0.5,0,1",""
"","html-keyboard-response","192","119742","0.0-192.0","3Z7ISHFUH1HQY1S4XDUPO6YF1ZK8ZZ","A5P12YJP805RG","3UAU495MIIEABANG75FBFHDC9WUUOI","","null","<img src=""img/animal6.png"" style=""width:200px; border:14px solid green;"">","null","","","","","",""
"","image-keyboard-response","193","120793","0.0-193.0","3Z7ISHFUH1HQY1S4XDUPO6YF1ZK8ZZ","A5P12YJP805RG","3UAU495MIIEABANG75FBFHDC9WUUOI","","1050.2999999523163","img/animal1.png","75","1050.9000000953674","2","1","2","1,0.5,0,0,1,0.5,0.5,0,1",""
"","html-keyboard-response","194","121094","0.0-194.0","3Z7ISHFUH1HQY1S4XDUPO6YF1ZK8ZZ","A5P12YJP805RG","3UAU495MIIEABANG75FBFHDC9WUUOI","","null","<img src=""img/animal1.png"" style=""width:200px; border:14px solid green;"">","null","","","","","",""
"","image-keyboard-response","195","122154","0.0-195.0","3Z7ISHFUH1HQY1S4XDUPO6YF1ZK8ZZ","A5P12YJP805RG","3UAU495MIIEABANG75FBFHDC9WUUOI","","1058.6999998092651","img/animal4.png","74","1059.2000000476837","1","1","1","1,0.5,0,0,1,0.5,0.5,0,1",""
"","html-keyboard-response","196","122455","0.0-196.0","3Z7ISHFUH1HQY1S4XDUPO6YF1ZK8ZZ","A5P12YJP805RG","3UAU495MIIEABANG75FBFHDC9WUUOI","","null","<img src=""img/animal4.png"" style=""width:200px; border:14px solid green;"">","null","","","","","",""
"","image-keyboard-response","197","122762","0.0-197.0","3Z7ISHFUH1HQY1S4XDUPO6YF1ZK8ZZ","A5P12YJP805RG","3UAU495MIIEABANG75FBFHDC9WUUOI","","305.7999999523163","img/animal4.png","74","306.5","1","1","1","1,0.5,0,0,1,0.5,0.5,0,1",""
"","html-keyboard-response","198","123063","0.0-198.0","3Z7ISHFUH1HQY1S4XDUPO6YF1ZK8ZZ","A5P12YJP805RG","3UAU495MIIEABANG75FBFHDC9WUUOI","","null","<img src=""img/animal4.png"" style=""width:200px; border:14px solid green;"">","null","","","","","",""
"","image-keyboard-response","199","123386","0.0-199.0","3Z7ISHFUH1HQY1S4XDUPO6YF1ZK8ZZ","A5P12YJP805RG","3UAU495MIIEABANG75FBFHDC9WUUOI","","321.7999999523163","img/animal4.png","74","322.2999999523163","1","1","1","1,0.5,0,0,1,0.5,0.5,0,1",""
"","html-keyboard-response","200","123688","0.0-200.0","3Z7ISHFUH1HQY1S4XDUPO6YF1ZK8ZZ","A5P12YJP805RG","3UAU495MIIEABANG75FBFHDC9WUUOI","","null","<img src=""img/animal4.png"" style=""width:200px; border:14px solid green;"">","null","","","","","",""
"","image-keyboard-response","201","124034","0.0-201.0","3Z7ISHFUH1HQY1S4XDUPO6YF1ZK8ZZ","A5P12YJP805RG","3UAU495MIIEABANG75FBFHDC9WUUOI","","345.90000009536743","img/animal4.png","74","346.5","1","1","1","1,0.5,0,0,1,0.5,0.5,0,1",""
"","html-keyboard-response","202","124335","0.0-202.0","3Z7ISHFUH1HQY1S4XDUPO6YF1ZK8ZZ","A5P12YJP805RG","3UAU495MIIEABANG75FBFHDC9WUUOI","","null","<img src=""img/animal4.png"" style=""width:200px; border:14px solid green;"">","null","","","","","",""
"","image-keyboard-response","203","124666","0.0-203.0","3Z7ISHFUH1HQY1S4XDUPO6YF1ZK8ZZ","A5P12YJP805RG","3UAU495MIIEABANG75FBFHDC9WUUOI","","330.30000019073486","img/animal4.png","74","330.7999999523163","1","1","1","1,0.5,0,0,1,0.5,0.5,0,1",""
"","html-keyboard-response","204","124968","0.0-204.0","3Z7ISHFUH1HQY1S4XDUPO6YF1ZK8ZZ","A5P12YJP805RG","3UAU495MIIEABANG75FBFHDC9WUUOI","","null","<img src=""img/animal4.png"" style=""width:200px; border:14px solid green;"">","null","","","","","",""
"","image-keyboard-response","205","125506","0.0-205.0","3Z7ISHFUH1HQY1S4XDUPO6YF1ZK8ZZ","A5P12YJP805RG","3UAU495MIIEABANG75FBFHDC9WUUOI","","537.1999998092651","img/animal6.png","74","537.5","1","1","3","1,0.5,0,0,1,0.5,0.5,0,1",""
"","html-keyboard-response","206","125807","0.0-206.0","3Z7ISHFUH1HQY1S4XDUPO6YF1ZK8ZZ","A5P12YJP805RG","3UAU495MIIEABANG75FBFHDC9WUUOI","","null","<img src=""img/animal6.png"" style=""width:200px; border:14px solid green;"">","null","","","","","",""
"","image-keyboard-response","207","126643","0.0-207.0","3Z7ISHFUH1HQY1S4XDUPO6YF1ZK8ZZ","A5P12YJP805RG","3UAU495MIIEABANG75FBFHDC9WUUOI","","834.3999998569489","img/animal1.png","75","835.1999998092651","2","1","2","1,0.5,0,0,1,0.5,0.5,0,1",""
"","html-keyboard-response","208","126943","0.0-208.0","3Z7ISHFUH1HQY1S4XDUPO6YF1ZK8ZZ","A5P12YJP805RG","3UAU495MIIEABANG75FBFHDC9WUUOI","","null","<img src=""img/animal1.png"" style=""width:200px; border:14px solid green;"">","null","","","","","",""
"","image-keyboard-response","209","127795","0.0-209.0","3Z7ISHFUH1HQY1S4XDUPO6YF1ZK8ZZ","A5P12YJP805RG","3UAU495MIIEABANG75FBFHDC9WUUOI","","850.5999999046326","img/animal4.png","74","851.1000001430511","1","1","1","1,0.5,0,0,1,0.5,0.5,0,1",""
"","html-keyboard-response","210","128096","0.0-210.0","3Z7ISHFUH1HQY1S4XDUPO6YF1ZK8ZZ","A5P12YJP805RG","3UAU495MIIEABANG75FBFHDC9WUUOI","","null","<img src=""img/animal4.png"" style=""width:200px; border:14px solid green;"">","null","","","","","",""
"","image-keyboard-response","211","128811","0.0-211.0","3Z7ISHFUH1HQY1S4XDUPO6YF1ZK8ZZ","A5P12YJP805RG","3UAU495MIIEABANG75FBFHDC9WUUOI","","713.5","img/animal6.png","74","714","1","1","3","1,0.5,0,0,1,0.5,0.5,0,1",""
"","html-keyboard-response","212","129112","0.0-212.0","3Z7ISHFUH1HQY1S4XDUPO6YF1ZK8ZZ","A5P12YJP805RG","3UAU495MIIEABANG75FBFHDC9WUUOI","","null","<img src=""img/animal6.png"" style=""width:200px; border:14px solid green;"">","null","","","","","",""
"","image-keyboard-response","213","129715","0.0-213.0","3Z7ISHFUH1HQY1S4XDUPO6YF1ZK8ZZ","A5P12YJP805RG","3UAU495MIIEABANG75FBFHDC9WUUOI","","602.2999999523163","img/animal4.png","74","602.8000001907349","1","1","1","1,0.5,0,0,1,0.5,0.5,0,1",""
"","html-keyboard-response","214","130017","0.0-214.0","3Z7ISHFUH1HQY1S4XDUPO6YF1ZK8ZZ","A5P12YJP805RG","3UAU495MIIEABANG75FBFHDC9WUUOI","","null","<img src=""img/animal4.png"" style=""width:200px; border:14px solid green;"">","null","","","","","",""
"","image-keyboard-response","215","130347","0.0-215.0","3Z7ISHFUH1HQY1S4XDUPO6YF1ZK8ZZ","A5P12YJP805RG","3UAU495MIIEABANG75FBFHDC9WUUOI","","329.7000000476837","img/animal4.png","74","330.30000019073486","1","1","1","1,0.5,0,0,1,0.5,0.5,0,1",""
"","html-keyboard-response","216","130648","0.0-216.0","3Z7ISHFUH1HQY1S4XDUPO6YF1ZK8ZZ","A5P12YJP805RG","3UAU495MIIEABANG75FBFHDC9WUUOI","","null","<img src=""img/animal4.png"" style=""width:200px; border:14px solid green;"">","null","","","","","",""
"","image-keyboard-response","217","130955","0.0-217.0","3Z7ISHFUH1HQY1S4XDUPO6YF1ZK8ZZ","A5P12YJP805RG","3UAU495MIIEABANG75FBFHDC9WUUOI","","306.30000019073486","img/animal4.png","74","306.90000009536743","1","1","1","1,0.5,0,0,1,0.5,0.5,0,1",""
"","html-keyboard-response","218","131256","0.0-218.0","3Z7ISHFUH1HQY1S4XDUPO6YF1ZK8ZZ","A5P12YJP805RG","3UAU495MIIEABANG75FBFHDC9WUUOI","","null","<img src=""img/animal4.png"" style=""width:200px; border:14px solid green;"">","null","","","","","",""
"","image-keyboard-response","219","131771","0.0-219.0","3Z7ISHFUH1HQY1S4XDUPO6YF1ZK8ZZ","A5P12YJP805RG","3UAU495MIIEABANG75FBFHDC9WUUOI","","514.2000000476837","img/animal4.png","74","514.7999999523163","1","1","1","1,0.5,0,0,1,0.5,0.5,0,1",""
"","html-keyboard-response","220","132073","0.0-220.0","3Z7ISHFUH1HQY1S4XDUPO6YF1ZK8ZZ","A5P12YJP805RG","3UAU495MIIEABANG75FBFHDC9WUUOI","","null","<img src=""img/animal4.png"" style=""width:200px; border:14px solid green;"">","null","","","","","",""
"","image-keyboard-response","221","132851","0.0-221.0","3Z7ISHFUH1HQY1S4XDUPO6YF1ZK8ZZ","A5P12YJP805RG","3UAU495MIIEABANG75FBFHDC9WUUOI","","777.7000000476837","img/animal6.png","74","778.2000000476837","1","0","3","1,0.5,0,0,1,0.5,0.5,0,1",""
"","html-keyboard-response","222","133153","0.0-222.0","3Z7ISHFUH1HQY1S4XDUPO6YF1ZK8ZZ","A5P12YJP805RG","3UAU495MIIEABANG75FBFHDC9WUUOI","","null","<img src=""img/animal6.png"" style=""width:200px;border:14px solid red;"">","null","","","","","",""
"","image-keyboard-response","223","134636","0.0-223.0","3Z7ISHFUH1HQY1S4XDUPO6YF1ZK8ZZ","A5P12YJP805RG","3UAU495MIIEABANG75FBFHDC9WUUOI","","1482.0999999046326","img/animal4.png","74","1482.5999999046326","1","1","1","1,0.5,0,0,1,0.5,0.5,0,1",""
"","html-keyboard-response","224","134937","0.0-224.0","3Z7ISHFUH1HQY1S4XDUPO6YF1ZK8ZZ","A5P12YJP805RG","3UAU495MIIEABANG75FBFHDC9WUUOI","","null","<img src=""img/animal4.png"" style=""width:200px; border:14px solid green;"">","null","","","","","",""
"","image-keyboard-response","225","135900","0.0-225.0","3Z7ISHFUH1HQY1S4XDUPO6YF1ZK8ZZ","A5P12YJP805RG","3UAU495MIIEABANG75FBFHDC9WUUOI","","962.8000001907349","img/animal6.png","76","963.2999999523163","3","1","3","1,0.5,0,0,1,0.5,0.5,0,1",""
"","html-keyboard-response","226","136202","0.0-226.0","3Z7ISHFUH1HQY1S4XDUPO6YF1ZK8ZZ","A5P12YJP805RG","3UAU495MIIEABANG75FBFHDC9WUUOI","","null","<img src=""img/animal6.png"" style=""width:200px; border:14px solid green;"">","null","","","","","",""
"","image-keyboard-response","227","136612","0.0-227.0","3Z7ISHFUH1HQY1S4XDUPO6YF1ZK8ZZ","A5P12YJP805RG","3UAU495MIIEABANG75FBFHDC9WUUOI","","409.09999990463257","img/animal6.png","76","409.59999990463257","3","1","3","1,0.5,0,0,1,0.5,0.5,0,1",""
"","html-keyboard-response","228","136914","0.0-228.0","3Z7ISHFUH1HQY1S4XDUPO6YF1ZK8ZZ","A5P12YJP805RG","3UAU495MIIEABANG75FBFHDC9WUUOI","","null","<img src=""img/animal6.png"" style=""width:200px; border:14px solid green;"">","null","","","","","",""
"","image-keyboard-response","229","137300","0.0-229.0","3Z7ISHFUH1HQY1S4XDUPO6YF1ZK8ZZ","A5P12YJP805RG","3UAU495MIIEABANG75FBFHDC9WUUOI","","386","img/animal6.png","76","386.7000000476837","3","1","3","1,0.5,0,0,1,0.5,0.5,0,1",""
"","html-keyboard-response","230","137602","0.0-230.0","3Z7ISHFUH1HQY1S4XDUPO6YF1ZK8ZZ","A5P12YJP805RG","3UAU495MIIEABANG75FBFHDC9WUUOI","","null","<img src=""img/animal6.png"" style=""width:200px; border:14px solid green;"">","null","","","","","",""
"","image-keyboard-response","231","138532","0.0-231.0","3Z7ISHFUH1HQY1S4XDUPO6YF1ZK8ZZ","A5P12YJP805RG","3UAU495MIIEABANG75FBFHDC9WUUOI","","929.5","img/animal4.png","74","930","1","1","1","1,0.5,0,0,1,0.5,0.5,0,1",""
"","html-keyboard-response","232","138833","0.0-232.0","3Z7ISHFUH1HQY1S4XDUPO6YF1ZK8ZZ","A5P12YJP805RG","3UAU495MIIEABANG75FBFHDC9WUUOI","","null","<img src=""img/animal4.png"" style=""width:200px; border:14px solid green;"">","null","","","","","",""
"","image-keyboard-response","233","139572","0.0-233.0","3Z7ISHFUH1HQY1S4XDUPO6YF1ZK8ZZ","A5P12YJP805RG","3UAU495MIIEABANG75FBFHDC9WUUOI","","738.0999999046326","img/animal6.png","76","738.8000001907349","3","1","3","1,0.5,0,0,1,0.5,0.5,0,1",""
"","html-keyboard-response","234","139874","0.0-234.0","3Z7ISHFUH1HQY1S4XDUPO6YF1ZK8ZZ","A5P12YJP805RG","3UAU495MIIEABANG75FBFHDC9WUUOI","","null","<img src=""img/animal6.png"" style=""width:200px; border:14px solid green;"">","null","","","","","",""
"","image-keyboard-response","235","141085","0.0-235.0","3Z7ISHFUH1HQY1S4XDUPO6YF1ZK8ZZ","A5P12YJP805RG","3UAU495MIIEABANG75FBFHDC9WUUOI","","1210","img/animal4.png","74","1210.5","1","1","1","1,0.5,0,0,1,0.5,0.5,0,1",""
"","html-keyboard-response","236","141386","0.0-236.0","3Z7ISHFUH1HQY1S4XDUPO6YF1ZK8ZZ","A5P12YJP805RG","3UAU495MIIEABANG75FBFHDC9WUUOI","","null","<img src=""img/animal4.png"" style=""width:200px; border:14px solid green;"">","null","","","","","",""
"","image-keyboard-response","237","142005","0.0-237.0","3Z7ISHFUH1HQY1S4XDUPO6YF1ZK8ZZ","A5P12YJP805RG","3UAU495MIIEABANG75FBFHDC9WUUOI","","618.8999998569489","img/animal6.png","76","619.5","3","1","3","1,0.5,0,0,1,0.5,0.5,0,1",""
"","html-keyboard-response","238","142306","0.0-238.0","3Z7ISHFUH1HQY1S4XDUPO6YF1ZK8ZZ","A5P12YJP805RG","3UAU495MIIEABANG75FBFHDC9WUUOI","","null","<img src=""img/animal6.png"" style=""width:200px; border:14px solid green;"">","null","","","","","",""
"","image-keyboard-response","239","142733","0.0-239.0","3Z7ISHFUH1HQY1S4XDUPO6YF1ZK8ZZ","A5P12YJP805RG","3UAU495MIIEABANG75FBFHDC9WUUOI","","425.40000009536743","img/animal6.png","76","426.10000014305115","3","1","3","1,0.5,0,0,1,0.5,0.5,0,1",""
"","html-keyboard-response","240","143034","0.0-240.0","3Z7ISHFUH1HQY1S4XDUPO6YF1ZK8ZZ","A5P12YJP805RG","3UAU495MIIEABANG75FBFHDC9WUUOI","","null","<img src=""img/animal6.png"" style=""width:200px; border:14px solid green;"">","null","","","","","",""
"","image-keyboard-response","241","143525","0.0-241.0","3Z7ISHFUH1HQY1S4XDUPO6YF1ZK8ZZ","A5P12YJP805RG","3UAU495MIIEABANG75FBFHDC9WUUOI","","490.2999999523163","img/animal1.png","75","490.7999999523163","2","1","2","1,0.5,0,0,1,0.5,0.5,0,1",""
"","html-keyboard-response","242","143826","0.0-242.0","3Z7ISHFUH1HQY1S4XDUPO6YF1ZK8ZZ","A5P12YJP805RG","3UAU495MIIEABANG75FBFHDC9WUUOI","","null","<img src=""img/animal1.png"" style=""width:200px; border:14px solid green;"">","null","","","","","",""
"","image-keyboard-response","243","144173","0.0-243.0","3Z7ISHFUH1HQY1S4XDUPO6YF1ZK8ZZ","A5P12YJP805RG","3UAU495MIIEABANG75FBFHDC9WUUOI","","346.09999990463257","img/animal1.png","75","346.7000000476837","2","1","2","1,0.5,0,0,1,0.5,0.5,0,1",""
"","html-keyboard-response","244","144474","0.0-244.0","3Z7ISHFUH1HQY1S4XDUPO6YF1ZK8ZZ","A5P12YJP805RG","3UAU495MIIEABANG75FBFHDC9WUUOI","","null","<img src=""img/animal1.png"" style=""width:200px; border:14px solid green;"">","null","","","","","",""
"","image-keyboard-response","245","144822","0.0-245.0","3Z7ISHFUH1HQY1S4XDUPO6YF1ZK8ZZ","A5P12YJP805RG","3UAU495MIIEABANG75FBFHDC9WUUOI","","347.19999980926514","img/animal1.png","75","347.7000000476837","2","1","2","1,0.5,0,0,1,0.5,0.5,0,1",""
"","html-keyboard-response","246","145124","0.0-246.0","3Z7ISHFUH1HQY1S4XDUPO6YF1ZK8ZZ","A5P12YJP805RG","3UAU495MIIEABANG75FBFHDC9WUUOI","","null","<img src=""img/animal1.png"" style=""width:200px; border:14px solid green;"">","null","","","","","",""
"","image-keyboard-response","247","145446","0.0-247.0","3Z7ISHFUH1HQY1S4XDUPO6YF1ZK8ZZ","A5P12YJP805RG","3UAU495MIIEABANG75FBFHDC9WUUOI","","321.5","img/animal1.png","75","322.2000000476837","2","1","2","1,0.5,0,0,1,0.5,0.5,0,1",""
"","html-keyboard-response","248","145748","0.0-248.0","3Z7ISHFUH1HQY1S4XDUPO6YF1ZK8ZZ","A5P12YJP805RG","3UAU495MIIEABANG75FBFHDC9WUUOI","","null","<img src=""img/animal1.png"" style=""width:200px; border:14px solid green;"">","null","","","","","",""
"","image-keyboard-response","249","146990","0.0-249.0","3Z7ISHFUH1HQY1S4XDUPO6YF1ZK8ZZ","A5P12YJP805RG","3UAU495MIIEABANG75FBFHDC9WUUOI","","1241.0999999046326","img/animal4.png","74","1241.9000000953674","1","1","1","1,0.5,0,0,1,0.5,0.5,0,1",""
"","html-keyboard-response","250","147291","0.0-250.0","3Z7ISHFUH1HQY1S4XDUPO6YF1ZK8ZZ","A5P12YJP805RG","3UAU495MIIEABANG75FBFHDC9WUUOI","","null","<img src=""img/animal4.png"" style=""width:200px; border:14px solid green;"">","null","","","","","",""
"","image-keyboard-response","251","147622","0.0-251.0","3Z7ISHFUH1HQY1S4XDUPO6YF1ZK8ZZ","A5P12YJP805RG","3UAU495MIIEABANG75FBFHDC9WUUOI","","330.39999985694885","img/animal4.png","74","330.90000009536743","1","1","1","1,0.5,0,0,1,0.5,0.5,0,1",""
"","html-keyboard-response","252","147922","0.0-252.0","3Z7ISHFUH1HQY1S4XDUPO6YF1ZK8ZZ","A5P12YJP805RG","3UAU495MIIEABANG75FBFHDC9WUUOI","","null","<img src=""img/animal4.png"" style=""width:200px; border:14px solid green;"">","null","","","","","",""
"","image-keyboard-response","253","148862","0.0-253.0","3Z7ISHFUH1HQY1S4XDUPO6YF1ZK8ZZ","A5P12YJP805RG","3UAU495MIIEABANG75FBFHDC9WUUOI","","938.8999998569489","img/animal6.png","76","939.4000000953674","3","1","3","1,0.5,0,0,1,0.5,0.5,0,1",""
"","html-keyboard-response","254","149164","0.0-254.0","3Z7ISHFUH1HQY1S4XDUPO6YF1ZK8ZZ","A5P12YJP805RG","3UAU495MIIEABANG75FBFHDC9WUUOI","","null","<img src=""img/animal6.png"" style=""width:200px; border:14px solid green;"">","null","","","","","",""
"","image-keyboard-response","255","149478","0.0-255.0","3Z7ISHFUH1HQY1S4XDUPO6YF1ZK8ZZ","A5P12YJP805RG","3UAU495MIIEABANG75FBFHDC9WUUOI","","313.40000009536743","img/animal6.png","76","314.10000014305115","3","1","3","1,0.5,0,0,1,0.5,0.5,0,1",""
"","html-keyboard-response","256","149779","0.0-256.0","3Z7ISHFUH1HQY1S4XDUPO6YF1ZK8ZZ","A5P12YJP805RG","3UAU495MIIEABANG75FBFHDC9WUUOI","","null","<img src=""img/animal6.png"" style=""width:200px; border:14px solid green;"">","null","","","","","",""
"","image-keyboard-response","257","150398","0.0-257.0","3Z7ISHFUH1HQY1S4XDUPO6YF1ZK8ZZ","A5P12YJP805RG","3UAU495MIIEABANG75FBFHDC9WUUOI","","618.3999998569489","img/animal4.png","74","619","1","1","1","1,0.5,0,0,1,0.5,0.5,0,1",""
"","html-keyboard-response","258","150701","0.0-258.0","3Z7ISHFUH1HQY1S4XDUPO6YF1ZK8ZZ","A5P12YJP805RG","3UAU495MIIEABANG75FBFHDC9WUUOI","","null","<img src=""img/animal4.png"" style=""width:200px; border:14px solid green;"">","null","","","","","",""
"","image-keyboard-response","259","151862","0.0-259.0","3Z7ISHFUH1HQY1S4XDUPO6YF1ZK8ZZ","A5P12YJP805RG","3UAU495MIIEABANG75FBFHDC9WUUOI","","1160.8999998569489","img/animal1.png","75","1161.5","2","1","2","1,0.5,0,0,1,0.5,0.5,0,1",""
"","html-keyboard-response","260","152164","0.0-260.0","3Z7ISHFUH1HQY1S4XDUPO6YF1ZK8ZZ","A5P12YJP805RG","3UAU495MIIEABANG75FBFHDC9WUUOI","","null","<img src=""img/animal1.png"" style=""width:200px; border:14px solid green;"">","null","","","","","",""
"","image-keyboard-response","261","152446","0.0-261.0","3Z7ISHFUH1HQY1S4XDUPO6YF1ZK8ZZ","A5P12YJP805RG","3UAU495MIIEABANG75FBFHDC9WUUOI","","281.90000009536743","img/animal1.png","75","282.5","2","1","2","1,0.5,0,0,1,0.5,0.5,0,1",""
"","html-keyboard-response","262","152748","0.0-262.0","3Z7ISHFUH1HQY1S4XDUPO6YF1ZK8ZZ","A5P12YJP805RG","3UAU495MIIEABANG75FBFHDC9WUUOI","","null","<img src=""img/animal1.png"" style=""width:200px; border:14px solid green;"">","null","","","","","",""
"","image-keyboard-response","263","153047","0.0-263.0","3Z7ISHFUH1HQY1S4XDUPO6YF1ZK8ZZ","A5P12YJP805RG","3UAU495MIIEABANG75FBFHDC9WUUOI","","297.90000009536743","img/animal1.png","75","298.59999990463257","2","1","2","1,0.5,0,0,1,0.5,0.5,0,1",""
"","html-keyboard-response","264","153348","0.0-264.0","3Z7ISHFUH1HQY1S4XDUPO6YF1ZK8ZZ","A5P12YJP805RG","3UAU495MIIEABANG75FBFHDC9WUUOI","","null","<img src=""img/animal1.png"" style=""width:200px; border:14px solid green;"">","null","","","","","",""
"","image-keyboard-response","265","154199","0.0-265.0","3Z7ISHFUH1HQY1S4XDUPO6YF1ZK8ZZ","A5P12YJP805RG","3UAU495MIIEABANG75FBFHDC9WUUOI","","850.0999999046326","img/animal4.png","74","850.7000000476837","1","1","1","1,0.5,0,0,1,0.5,0.5,0,1",""
"","html-keyboard-response","266","154501","0.0-266.0","3Z7ISHFUH1HQY1S4XDUPO6YF1ZK8ZZ","A5P12YJP805RG","3UAU495MIIEABANG75FBFHDC9WUUOI","","null","<img src=""img/animal4.png"" style=""width:200px; border:14px solid green;"">","null","","","","","",""
"","image-keyboard-response","267","155223","0.0-267.0","3Z7ISHFUH1HQY1S4XDUPO6YF1ZK8ZZ","A5P12YJP805RG","3UAU495MIIEABANG75FBFHDC9WUUOI","","720.5","img/animal6.png","76","721.0999999046326","3","1","3","1,0.5,0,0,1,0.5,0.5,0,1",""
"","html-keyboard-response","268","155525","0.0-268.0","3Z7ISHFUH1HQY1S4XDUPO6YF1ZK8ZZ","A5P12YJP805RG","3UAU495MIIEABANG75FBFHDC9WUUOI","","null","<img src=""img/animal6.png"" style=""width:200px; border:14px solid green;"">","null","","","","","",""
"","image-keyboard-response","269","156255","0.0-269.0","3Z7ISHFUH1HQY1S4XDUPO6YF1ZK8ZZ","A5P12YJP805RG","3UAU495MIIEABANG75FBFHDC9WUUOI","","729.5999999046326","img/animal1.png","75","730.2000000476837","2","1","2","1,0.5,0,0,1,0.5,0.5,0,1",""
"","html-keyboard-response","270","156556","0.0-270.0","3Z7ISHFUH1HQY1S4XDUPO6YF1ZK8ZZ","A5P12YJP805RG","3UAU495MIIEABANG75FBFHDC9WUUOI","","null","<img src=""img/animal1.png"" style=""width:200px; border:14px solid green;"">","null","","","","","",""
"","image-keyboard-response","271","156839","0.0-271.0","3Z7ISHFUH1HQY1S4XDUPO6YF1ZK8ZZ","A5P12YJP805RG","3UAU495MIIEABANG75FBFHDC9WUUOI","","282.2999999523163","img/animal1.png","75","282.7999999523163","2","1","2","1,0.5,0,0,1,0.5,0.5,0,1",""
"","html-keyboard-response","272","157141","0.0-272.0","3Z7ISHFUH1HQY1S4XDUPO6YF1ZK8ZZ","A5P12YJP805RG","3UAU495MIIEABANG75FBFHDC9WUUOI","","null","<img src=""img/animal1.png"" style=""width:200px; border:14px solid green;"">","null","","","","","",""
"","image-keyboard-response","273","157447","0.0-273.0","3Z7ISHFUH1HQY1S4XDUPO6YF1ZK8ZZ","A5P12YJP805RG","3UAU495MIIEABANG75FBFHDC9WUUOI","","305.7000000476837","img/animal1.png","75","306.2000000476837","2","1","2","1,0.5,0,0,1,0.5,0.5,0,1",""
"","html-keyboard-response","274","157748","0.0-274.0","3Z7ISHFUH1HQY1S4XDUPO6YF1ZK8ZZ","A5P12YJP805RG","3UAU495MIIEABANG75FBFHDC9WUUOI","","null","<img src=""img/animal1.png"" style=""width:200px; border:14px solid green;"">","null","","","","","",""
"","image-keyboard-response","275","158679","0.0-275.0","3Z7ISHFUH1HQY1S4XDUPO6YF1ZK8ZZ","A5P12YJP805RG","3UAU495MIIEABANG75FBFHDC9WUUOI","","930.2000000476837","img/animal4.png","74","930.9000000953674","1","1","1","1,0.5,0,0,1,0.5,0.5,0,1",""
"","html-keyboard-response","276","158981","0.0-276.0","3Z7ISHFUH1HQY1S4XDUPO6YF1ZK8ZZ","A5P12YJP805RG","3UAU495MIIEABANG75FBFHDC9WUUOI","","null","<img src=""img/animal4.png"" style=""width:200px; border:14px solid green;"">","null","","","","","",""
"","image-keyboard-response","277","159752","0.0-277.0","3Z7ISHFUH1HQY1S4XDUPO6YF1ZK8ZZ","A5P12YJP805RG","3UAU495MIIEABANG75FBFHDC9WUUOI","","769.5","img/animal1.png","75","770","2","1","2","1,0.5,0,0,1,0.5,0.5,0,1",""
"","html-keyboard-response","278","160052","0.0-278.0","3Z7ISHFUH1HQY1S4XDUPO6YF1ZK8ZZ","A5P12YJP805RG","3UAU495MIIEABANG75FBFHDC9WUUOI","","null","<img src=""img/animal1.png"" style=""width:200px; border:14px solid green;"">","null","","","","","",""
"","image-keyboard-response","279","160376","0.0-279.0","3Z7ISHFUH1HQY1S4XDUPO6YF1ZK8ZZ","A5P12YJP805RG","3UAU495MIIEABANG75FBFHDC9WUUOI","","322.5","img/animal1.png","75","323.10000014305115","2","1","2","1,0.5,0,0,1,0.5,0.5,0,1",""
"","html-keyboard-response","280","160676","0.0-280.0","3Z7ISHFUH1HQY1S4XDUPO6YF1ZK8ZZ","A5P12YJP805RG","3UAU495MIIEABANG75FBFHDC9WUUOI","","null","<img src=""img/animal1.png"" style=""width:200px; border:14px solid green;"">","null","","","","","",""
"","image-keyboard-response","281","161256","0.0-281.0","3Z7ISHFUH1HQY1S4XDUPO6YF1ZK8ZZ","A5P12YJP805RG","3UAU495MIIEABANG75FBFHDC9WUUOI","","578.6000001430511","img/animal4.png","74","579.2999999523163","1","1","1","1,0.5,0,0,1,0.5,0.5,0,1",""
"","html-keyboard-response","282","161557","0.0-282.0","3Z7ISHFUH1HQY1S4XDUPO6YF1ZK8ZZ","A5P12YJP805RG","3UAU495MIIEABANG75FBFHDC9WUUOI","","null","<img src=""img/animal4.png"" style=""width:200px; border:14px solid green;"">","null","","","","","",""
"","image-keyboard-response","283","162184","0.0-283.0","3Z7ISHFUH1HQY1S4XDUPO6YF1ZK8ZZ","A5P12YJP805RG","3UAU495MIIEABANG75FBFHDC9WUUOI","","626.2000000476837","img/animal6.png","76","626.7999999523163","3","1","3","1,0.5,0,0,1,0.5,0.5,0,1",""
"","html-keyboard-response","284","162486","0.0-284.0","3Z7ISHFUH1HQY1S4XDUPO6YF1ZK8ZZ","A5P12YJP805RG","3UAU495MIIEABANG75FBFHDC9WUUOI","","null","<img src=""img/animal6.png"" style=""width:200px; border:14px solid green;"">","null","","","","","",""
"","image-keyboard-response","285","163200","0.0-285.0","3Z7ISHFUH1HQY1S4XDUPO6YF1ZK8ZZ","A5P12YJP805RG","3UAU495MIIEABANG75FBFHDC9WUUOI","","713.3000001907349","img/animal1.png","75","713.8999998569489","2","1","2","1,0.5,0,0,1,0.5,0.5,0,1",""
"","html-keyboard-response","286","163502","0.0-286.0","3Z7ISHFUH1HQY1S4XDUPO6YF1ZK8ZZ","A5P12YJP805RG","3UAU495MIIEABANG75FBFHDC9WUUOI","","null","<img src=""img/animal1.png"" style=""width:200px; border:14px solid green;"">","null","","","","","",""
"","image-keyboard-response","287","166272","0.0-287.0","3Z7ISHFUH1HQY1S4XDUPO6YF1ZK8ZZ","A5P12YJP805RG","3UAU495MIIEABANG75FBFHDC9WUUOI","","2769.5999999046326","img/animal6.png","76","2770.399999856949","3","1","3","1,0.5,0,0,1,0.5,0.5,0,1",""
"","html-keyboard-response","288","166574","0.0-288.0","3Z7ISHFUH1HQY1S4XDUPO6YF1ZK8ZZ","A5P12YJP805RG","3UAU495MIIEABANG75FBFHDC9WUUOI","","null","<img src=""img/animal6.png"" style=""width:200px; border:14px solid green;"">","null","","","","","",""
"","image-keyboard-response","289","167240","0.0-289.0","3Z7ISHFUH1HQY1S4XDUPO6YF1ZK8ZZ","A5P12YJP805RG","3UAU495MIIEABANG75FBFHDC9WUUOI","","666.0999999046326","img/animal1.png","75","666.5","2","1","2","1,0.5,0,0,1,0.5,0.5,0,1",""
"","html-keyboard-response","290","167542","0.0-290.0","3Z7ISHFUH1HQY1S4XDUPO6YF1ZK8ZZ","A5P12YJP805RG","3UAU495MIIEABANG75FBFHDC9WUUOI","","null","<img src=""img/animal1.png"" style=""width:200px; border:14px solid green;"">","null","","","","","",""
"","image-keyboard-response","291","168217","0.0-291.0","3Z7ISHFUH1HQY1S4XDUPO6YF1ZK8ZZ","A5P12YJP805RG","3UAU495MIIEABANG75FBFHDC9WUUOI","","674","img/animal6.png","76","674.7000000476837","3","1","3","1,0.5,0,0,1,0.5,0.5,0,1",""
"","html-keyboard-response","292","168519","0.0-292.0","3Z7ISHFUH1HQY1S4XDUPO6YF1ZK8ZZ","A5P12YJP805RG","3UAU495MIIEABANG75FBFHDC9WUUOI","","null","<img src=""img/animal6.png"" style=""width:200px; border:14px solid green;"">","null","","","","","",""
"","image-keyboard-response","293","168832","0.0-293.0","3Z7ISHFUH1HQY1S4XDUPO6YF1ZK8ZZ","A5P12YJP805RG","3UAU495MIIEABANG75FBFHDC9WUUOI","","312.80000019073486","img/animal6.png","76","313.09999990463257","3","1","3","1,0.5,0,0,1,0.5,0.5,0,1",""
"","html-keyboard-response","294","169134","0.0-294.0","3Z7ISHFUH1HQY1S4XDUPO6YF1ZK8ZZ","A5P12YJP805RG","3UAU495MIIEABANG75FBFHDC9WUUOI","","null","<img src=""img/animal6.png"" style=""width:200px; border:14px solid green;"">","null","","","","","",""
"","image-keyboard-response","295","169449","0.0-295.0","3Z7ISHFUH1HQY1S4XDUPO6YF1ZK8ZZ","A5P12YJP805RG","3UAU495MIIEABANG75FBFHDC9WUUOI","","314.19999980926514","img/animal6.png","76","314.7999999523163","3","1","3","1,0.5,0,0,1,0.5,0.5,0,1",""
"","html-keyboard-response","296","169750","0.0-296.0","3Z7ISHFUH1HQY1S4XDUPO6YF1ZK8ZZ","A5P12YJP805RG","3UAU495MIIEABANG75FBFHDC9WUUOI","","null","<img src=""img/animal6.png"" style=""width:200px; border:14px solid green;"">","null","","","","","",""
"","image-keyboard-response","297","170257","0.0-297.0","3Z7ISHFUH1HQY1S4XDUPO6YF1ZK8ZZ","A5P12YJP805RG","3UAU495MIIEABANG75FBFHDC9WUUOI","","506.5","img/animal6.png","76","507.2000000476837","3","1","3","1,0.5,0,0,1,0.5,0.5,0,1",""
"","html-keyboard-response","298","170559","0.0-298.0","3Z7ISHFUH1HQY1S4XDUPO6YF1ZK8ZZ","A5P12YJP805RG","3UAU495MIIEABANG75FBFHDC9WUUOI","","null","<img src=""img/animal6.png"" style=""width:200px; border:14px solid green;"">","null","","","","","",""
"","image-keyboard-response","299","171233","0.0-299.0","3Z7ISHFUH1HQY1S4XDUPO6YF1ZK8ZZ","A5P12YJP805RG","3UAU495MIIEABANG75FBFHDC9WUUOI","","672.7999999523163","img/animal4.png","74","673.5","1","1","1","1,0.5,0,0,1,0.5,0.5,0,1",""
"","html-keyboard-response","300","171534","0.0-300.0","3Z7ISHFUH1HQY1S4XDUPO6YF1ZK8ZZ","A5P12YJP805RG","3UAU495MIIEABANG75FBFHDC9WUUOI","","null","<img src=""img/animal4.png"" style=""width:200px; border:14px solid green;"">","null","","","","","",""
"","image-keyboard-response","301","172145","0.0-301.0","3Z7ISHFUH1HQY1S4XDUPO6YF1ZK8ZZ","A5P12YJP805RG","3UAU495MIIEABANG75FBFHDC9WUUOI","","610.2999999523163","img/animal6.png","76","611","3","1","3","1,0.5,0,0,1,0.5,0.5,0,1",""
"","html-keyboard-response","302","172447","0.0-302.0","3Z7ISHFUH1HQY1S4XDUPO6YF1ZK8ZZ","A5P12YJP805RG","3UAU495MIIEABANG75FBFHDC9WUUOI","","null","<img src=""img/animal6.png"" style=""width:200px; border:14px solid green;"">","null","","","","","",""
"","image-keyboard-response","303","172793","0.0-303.0","3Z7ISHFUH1HQY1S4XDUPO6YF1ZK8ZZ","A5P12YJP805RG","3UAU495MIIEABANG75FBFHDC9WUUOI","","345.7999999523163","img/animal6.png","76","346.39999985694885","3","1","3","1,0.5,0,0,1,0.5,0.5,0,1",""
"","html-keyboard-response","304","173095","0.0-304.0","3Z7ISHFUH1HQY1S4XDUPO6YF1ZK8ZZ","A5P12YJP805RG","3UAU495MIIEABANG75FBFHDC9WUUOI","","null","<img src=""img/animal6.png"" style=""width:200px; border:14px solid green;"">","null","","","","","",""
"","image-keyboard-response","305","173505","0.0-305.0","3Z7ISHFUH1HQY1S4XDUPO6YF1ZK8ZZ","A5P12YJP805RG","3UAU495MIIEABANG75FBFHDC9WUUOI","","410","img/animal6.png","76","410.5","3","1","3","1,0.5,0,0,1,0.5,0.5,0,1",""
"","html-keyboard-response","306","173807","0.0-306.0","3Z7ISHFUH1HQY1S4XDUPO6YF1ZK8ZZ","A5P12YJP805RG","3UAU495MIIEABANG75FBFHDC9WUUOI","","null","<img src=""img/animal6.png"" style=""width:200px; border:14px solid green;"">","null","","","","","",""
"","image-keyboard-response","307","174450","0.0-307.0","3Z7ISHFUH1HQY1S4XDUPO6YF1ZK8ZZ","A5P12YJP805RG","3UAU495MIIEABANG75FBFHDC9WUUOI","","642.0999999046326","img/animal1.png","75","642.7999999523163","2","1","2","1,0.5,0,0,1,0.5,0.5,0,1",""
"","html-keyboard-response","308","174752","0.0-308.0","3Z7ISHFUH1HQY1S4XDUPO6YF1ZK8ZZ","A5P12YJP805RG","3UAU495MIIEABANG75FBFHDC9WUUOI","","null","<img src=""img/animal1.png"" style=""width:200px; border:14px solid green;"">","null","","","","","",""
"","image-keyboard-response","309","175610","0.0-309.0","3Z7ISHFUH1HQY1S4XDUPO6YF1ZK8ZZ","A5P12YJP805RG","3UAU495MIIEABANG75FBFHDC9WUUOI","","857.5","img/animal4.png","74","858","1","1","1","1,0.5,0,0,1,0.5,0.5,0,1",""
"","html-keyboard-response","310","175912","0.0-310.0","3Z7ISHFUH1HQY1S4XDUPO6YF1ZK8ZZ","A5P12YJP805RG","3UAU495MIIEABANG75FBFHDC9WUUOI","","null","<img src=""img/animal4.png"" style=""width:200px; border:14px solid green;"">","null","","","","","",""
"","image-keyboard-response","311","176578","0.0-311.0","3Z7ISHFUH1HQY1S4XDUPO6YF1ZK8ZZ","A5P12YJP805RG","3UAU495MIIEABANG75FBFHDC9WUUOI","","665.5","img/animal1.png","75","666.2000000476837","2","1","2","1,0.5,0,0,1,0.5,0.5,0,1",""
"","html-keyboard-response","312","176880","0.0-312.0","3Z7ISHFUH1HQY1S4XDUPO6YF1ZK8ZZ","A5P12YJP805RG","3UAU495MIIEABANG75FBFHDC9WUUOI","","null","<img src=""img/animal1.png"" style=""width:200px; border:14px solid green;"">","null","","","","","",""
"","image-keyboard-response","313","177506","0.0-313.0","3Z7ISHFUH1HQY1S4XDUPO6YF1ZK8ZZ","A5P12YJP805RG","3UAU495MIIEABANG75FBFHDC9WUUOI","","625.6000001430511","img/animal6.png","76","626.2000000476837","3","1","3","1,0.5,0,0,1,0.5,0.5,0,1",""
"","html-keyboard-response","314","177807","0.0-314.0","3Z7ISHFUH1HQY1S4XDUPO6YF1ZK8ZZ","A5P12YJP805RG","3UAU495MIIEABANG75FBFHDC9WUUOI","","null","<img src=""img/animal6.png"" style=""width:200px; border:14px solid green;"">","null","","","","","",""
"","image-keyboard-response","315","178450","0.0-315.0","3Z7ISHFUH1HQY1S4XDUPO6YF1ZK8ZZ","A5P12YJP805RG","3UAU495MIIEABANG75FBFHDC9WUUOI","","642","img/animal4.png","74","642.7000000476837","1","1","1","1,0.5,0,0,1,0.5,0.5,0,1",""
"","html-keyboard-response","316","178751","0.0-316.0","3Z7ISHFUH1HQY1S4XDUPO6YF1ZK8ZZ","A5P12YJP805RG","3UAU495MIIEABANG75FBFHDC9WUUOI","","null","<img src=""img/animal4.png"" style=""width:200px; border:14px solid green;"">","null","","","","","",""
"","image-keyboard-response","317","179146","0.0-317.0","3Z7ISHFUH1HQY1S4XDUPO6YF1ZK8ZZ","A5P12YJP805RG","3UAU495MIIEABANG75FBFHDC9WUUOI","","394.2999999523163","img/animal4.png","74","394.7999999523163","1","1","1","1,0.5,0,0,1,0.5,0.5,0,1",""
"","html-keyboard-response","318","179447","0.0-318.0","3Z7ISHFUH1HQY1S4XDUPO6YF1ZK8ZZ","A5P12YJP805RG","3UAU495MIIEABANG75FBFHDC9WUUOI","","null","<img src=""img/animal4.png"" style=""width:200px; border:14px solid green;"">","null","","","","","",""
"","image-keyboard-response","319","180074","0.0-319.0","3Z7ISHFUH1HQY1S4XDUPO6YF1ZK8ZZ","A5P12YJP805RG","3UAU495MIIEABANG75FBFHDC9WUUOI","","626.3999998569489","img/animal6.png","76","626.9000000953674","3","1","3","1,0.5,0,0,1,0.5,0.5,0,1",""
"","html-keyboard-response","320","180375","0.0-320.0","3Z7ISHFUH1HQY1S4XDUPO6YF1ZK8ZZ","A5P12YJP805RG","3UAU495MIIEABANG75FBFHDC9WUUOI","","null","<img src=""img/animal6.png"" style=""width:200px; border:14px solid green;"">","null","","","","","",""
"","image-keyboard-response","321","180963","0.0-321.0","3Z7ISHFUH1HQY1S4XDUPO6YF1ZK8ZZ","A5P12YJP805RG","3UAU495MIIEABANG75FBFHDC9WUUOI","","586.5","img/animal4.png","74","587.1999998092651","1","1","1","1,0.5,0,0,1,0.5,0.5,0,1",""
"","html-keyboard-response","322","181264","0.0-322.0","3Z7ISHFUH1HQY1S4XDUPO6YF1ZK8ZZ","A5P12YJP805RG","3UAU495MIIEABANG75FBFHDC9WUUOI","","null","<img src=""img/animal4.png"" style=""width:200px; border:14px solid green;"">","null","","","","","",""
"","image-keyboard-response","323","181634","0.0-323.0","3Z7ISHFUH1HQY1S4XDUPO6YF1ZK8ZZ","A5P12YJP805RG","3UAU495MIIEABANG75FBFHDC9WUUOI","","369.5","img/animal4.png","74","370.2000000476837","1","1","1","1,0.5,0,0,1,0.5,0.5,0,1",""
"","html-keyboard-response","324","181935","0.0-324.0","3Z7ISHFUH1HQY1S4XDUPO6YF1ZK8ZZ","A5P12YJP805RG","3UAU495MIIEABANG75FBFHDC9WUUOI","","null","<img src=""img/animal4.png"" style=""width:200px; border:14px solid green;"">","null","","","","","",""
"","image-keyboard-response","325","182275","0.0-325.0","3Z7ISHFUH1HQY1S4XDUPO6YF1ZK8ZZ","A5P12YJP805RG","3UAU495MIIEABANG75FBFHDC9WUUOI","","338.7000000476837","img/animal4.png","74","339.2999999523163","1","1","1","1,0.5,0,0,1,0.5,0.5,0,1",""
"","html-keyboard-response","326","182577","0.0-326.0","3Z7ISHFUH1HQY1S4XDUPO6YF1ZK8ZZ","A5P12YJP805RG","3UAU495MIIEABANG75FBFHDC9WUUOI","","null","<img src=""img/animal4.png"" style=""width:200px; border:14px solid green;"">","null","","","","","",""
"","image-keyboard-response","327","183059","0.0-327.0","3Z7ISHFUH1HQY1S4XDUPO6YF1ZK8ZZ","A5P12YJP805RG","3UAU495MIIEABANG75FBFHDC9WUUOI","","481.59999990463257","img/animal4.png","74","482.2000000476837","1","1","1","1,0.5,0,0,1,0.5,0.5,0,1",""
"","html-keyboard-response","328","183360","0.0-328.0","3Z7ISHFUH1HQY1S4XDUPO6YF1ZK8ZZ","A5P12YJP805RG","3UAU495MIIEABANG75FBFHDC9WUUOI","","null","<img src=""img/animal4.png"" style=""width:200px; border:14px solid green;"">","null","","","","","",""
"","image-keyboard-response","329","184011","0.0-329.0","3Z7ISHFUH1HQY1S4XDUPO6YF1ZK8ZZ","A5P12YJP805RG","3UAU495MIIEABANG75FBFHDC9WUUOI","","650.2000000476837","img/animal1.png","75","650.6999998092651","2","1","2","1,0.5,0,0,1,0.5,0.5,0,1",""
"","html-keyboard-response","330","184313","0.0-330.0","3Z7ISHFUH1HQY1S4XDUPO6YF1ZK8ZZ","A5P12YJP805RG","3UAU495MIIEABANG75FBFHDC9WUUOI","","null","<img src=""img/animal1.png"" style=""width:200px; border:14px solid green;"">","null","","","","","",""
"","image-keyboard-response","331","184659","0.0-331.0","3Z7ISHFUH1HQY1S4XDUPO6YF1ZK8ZZ","A5P12YJP805RG","3UAU495MIIEABANG75FBFHDC9WUUOI","","345.60000014305115","img/animal1.png","75","346.2000000476837","2","1","2","1,0.5,0,0,1,0.5,0.5,0,1",""
"","html-keyboard-response","332","184960","0.0-332.0","3Z7ISHFUH1HQY1S4XDUPO6YF1ZK8ZZ","A5P12YJP805RG","3UAU495MIIEABANG75FBFHDC9WUUOI","","null","<img src=""img/animal1.png"" style=""width:200px; border:14px solid green;"">","null","","","","","",""
"","image-keyboard-response","333","185291","0.0-333.0","3Z7ISHFUH1HQY1S4XDUPO6YF1ZK8ZZ","A5P12YJP805RG","3UAU495MIIEABANG75FBFHDC9WUUOI","","329.89999985694885","img/animal1.png","75","330.40000009536743","2","1","2","1,0.5,0,0,1,0.5,0.5,0,1",""
"","html-keyboard-response","334","185593","0.0-334.0","3Z7ISHFUH1HQY1S4XDUPO6YF1ZK8ZZ","A5P12YJP805RG","3UAU495MIIEABANG75FBFHDC9WUUOI","","null","<img src=""img/animal1.png"" style=""width:200px; border:14px solid green;"">","null","","","","","",""
"","image-keyboard-response","335","185931","0.0-335.0","3Z7ISHFUH1HQY1S4XDUPO6YF1ZK8ZZ","A5P12YJP805RG","3UAU495MIIEABANG75FBFHDC9WUUOI","","337.80000019073486","img/animal1.png","75","338.2000000476837","2","1","2","1,0.5,0,0,1,0.5,0.5,0,1",""
"","html-keyboard-response","336","186232","0.0-336.0","3Z7ISHFUH1HQY1S4XDUPO6YF1ZK8ZZ","A5P12YJP805RG","3UAU495MIIEABANG75FBFHDC9WUUOI","","null","<img src=""img/animal1.png"" style=""width:200px; border:14px solid green;"">","null","","","","","",""
"","image-keyboard-response","337","186851","0.0-337.0","3Z7ISHFUH1HQY1S4XDUPO6YF1ZK8ZZ","A5P12YJP805RG","3UAU495MIIEABANG75FBFHDC9WUUOI","","618.5999999046326","img/animal4.png","74","619.0999999046326","1","1","1","1,0.5,0,0,1,0.5,0.5,0,1",""
"","html-keyboard-response","338","187152","0.0-338.0","3Z7ISHFUH1HQY1S4XDUPO6YF1ZK8ZZ","A5P12YJP805RG","3UAU495MIIEABANG75FBFHDC9WUUOI","","null","<img src=""img/animal4.png"" style=""width:200px; border:14px solid green;"">","null","","","","","",""
"","image-keyboard-response","339","187691","0.0-339.0","3Z7ISHFUH1HQY1S4XDUPO6YF1ZK8ZZ","A5P12YJP805RG","3UAU495MIIEABANG75FBFHDC9WUUOI","","538.4000000953674","img/animal6.png","76","538.8999998569489","3","1","3","1,0.5,0,0,1,0.5,0.5,0,1",""
"","html-keyboard-response","340","187993","0.0-340.0","3Z7ISHFUH1HQY1S4XDUPO6YF1ZK8ZZ","A5P12YJP805RG","3UAU495MIIEABANG75FBFHDC9WUUOI","","null","<img src=""img/animal6.png"" style=""width:200px; border:14px solid green;"">","null","","","","","",""
"","image-keyboard-response","341","188316","0.0-341.0","3Z7ISHFUH1HQY1S4XDUPO6YF1ZK8ZZ","A5P12YJP805RG","3UAU495MIIEABANG75FBFHDC9WUUOI","","321.7000000476837","img/animal6.png","76","322.2999999523163","3","1","3","1,0.5,0,0,1,0.5,0.5,0,1",""
"","html-keyboard-response","342","188617","0.0-342.0","3Z7ISHFUH1HQY1S4XDUPO6YF1ZK8ZZ","A5P12YJP805RG","3UAU495MIIEABANG75FBFHDC9WUUOI","","null","<img src=""img/animal6.png"" style=""width:200px; border:14px solid green;"">","null","","","","","",""
"","image-keyboard-response","343","189244","0.0-343.0","3Z7ISHFUH1HQY1S4XDUPO6YF1ZK8ZZ","A5P12YJP805RG","3UAU495MIIEABANG75FBFHDC9WUUOI","","626.5999999046326","img/animal4.png","74","627.2000000476837","1","1","1","1,0.5,0,0,1,0.5,0.5,0,1",""
"","html-keyboard-response","344","189546","0.0-344.0","3Z7ISHFUH1HQY1S4XDUPO6YF1ZK8ZZ","A5P12YJP805RG","3UAU495MIIEABANG75FBFHDC9WUUOI","","null","<img src=""img/animal4.png"" style=""width:200px; border:14px solid green;"">","null","","","","","",""
"","image-keyboard-response","345","190268","0.0-345.0","3Z7ISHFUH1HQY1S4XDUPO6YF1ZK8ZZ","A5P12YJP805RG","3UAU495MIIEABANG75FBFHDC9WUUOI","","721.9000000953674","img/animal6.png","76","722.3999998569489","3","1","3","1,0.5,0,0,1,0.5,0.5,0,1",""
"","html-keyboard-response","346","190570","0.0-346.0","3Z7ISHFUH1HQY1S4XDUPO6YF1ZK8ZZ","A5P12YJP805RG","3UAU495MIIEABANG75FBFHDC9WUUOI","","null","<img src=""img/animal6.png"" style=""width:200px; border:14px solid green;"">","null","","","","","",""
"","image-keyboard-response","347","191237","0.0-347.0","3Z7ISHFUH1HQY1S4XDUPO6YF1ZK8ZZ","A5P12YJP805RG","3UAU495MIIEABANG75FBFHDC9WUUOI","","666.2000000476837","img/animal1.png","75","666.5999999046326","2","1","2","1,0.5,0,0,1,0.5,0.5,0,1",""
"","html-keyboard-response","348","191539","0.0-348.0","3Z7ISHFUH1HQY1S4XDUPO6YF1ZK8ZZ","A5P12YJP805RG","3UAU495MIIEABANG75FBFHDC9WUUOI","","null","<img src=""img/animal1.png"" style=""width:200px; border:14px solid green;"">","null","","","","","",""
"","image-keyboard-response","349","191844","0.0-349.0","3Z7ISHFUH1HQY1S4XDUPO6YF1ZK8ZZ","A5P12YJP805RG","3UAU495MIIEABANG75FBFHDC9WUUOI","","304.59999990463257","img/animal1.png","75","305.40000009536743","2","1","2","1,0.5,0,0,1,0.5,0.5,0,1",""
"","html-keyboard-response","350","192146","0.0-350.0","3Z7ISHFUH1HQY1S4XDUPO6YF1ZK8ZZ","A5P12YJP805RG","3UAU495MIIEABANG75FBFHDC9WUUOI","","null","<img src=""img/animal1.png"" style=""width:200px; border:14px solid green;"">","null","","","","","",""
"","image-keyboard-response","351","192477","0.0-351.0","3Z7ISHFUH1HQY1S4XDUPO6YF1ZK8ZZ","A5P12YJP805RG","3UAU495MIIEABANG75FBFHDC9WUUOI","","329.89999985694885","img/animal1.png","75","330.59999990463257","2","1","2","1,0.5,0,0,1,0.5,0.5,0,1",""
"","html-keyboard-response","352","192778","0.0-352.0","3Z7ISHFUH1HQY1S4XDUPO6YF1ZK8ZZ","A5P12YJP805RG","3UAU495MIIEABANG75FBFHDC9WUUOI","","null","<img src=""img/animal1.png"" style=""width:200px; border:14px solid green;"">","null","","","","","",""
"","image-keyboard-response","353","193100","0.0-353.0","3Z7ISHFUH1HQY1S4XDUPO6YF1ZK8ZZ","A5P12YJP805RG","3UAU495MIIEABANG75FBFHDC9WUUOI","","321.59999990463257","img/animal1.png","75","322.09999990463257","2","1","2","1,0.5,0,0,1,0.5,0.5,0,1",""
"","html-keyboard-response","354","193402","0.0-354.0","3Z7ISHFUH1HQY1S4XDUPO6YF1ZK8ZZ","A5P12YJP805RG","3UAU495MIIEABANG75FBFHDC9WUUOI","","null","<img src=""img/animal1.png"" style=""width:200px; border:14px solid green;"">","null","","","","","",""
"","image-keyboard-response","355","193724","0.0-355.0","3Z7ISHFUH1HQY1S4XDUPO6YF1ZK8ZZ","A5P12YJP805RG","3UAU495MIIEABANG75FBFHDC9WUUOI","","321.89999985694885","img/animal1.png","75","322.5","2","1","2","1,0.5,0,0,1,0.5,0.5,0,1",""
"","html-keyboard-response","356","194026","0.0-356.0","3Z7ISHFUH1HQY1S4XDUPO6YF1ZK8ZZ","A5P12YJP805RG","3UAU495MIIEABANG75FBFHDC9WUUOI","","null","<img src=""img/animal1.png"" style=""width:200px; border:14px solid green;"">","null","","","","","",""
"","image-keyboard-response","357","194668","0.0-357.0","3Z7ISHFUH1HQY1S4XDUPO6YF1ZK8ZZ","A5P12YJP805RG","3UAU495MIIEABANG75FBFHDC9WUUOI","","641.9000000953674","img/animal6.png","76","642.4000000953674","3","1","3","1,0.5,0,0,1,0.5,0.5,0,1",""
"","html-keyboard-response","358","194970","0.0-358.0","3Z7ISHFUH1HQY1S4XDUPO6YF1ZK8ZZ","A5P12YJP805RG","3UAU495MIIEABANG75FBFHDC9WUUOI","","null","<img src=""img/animal6.png"" style=""width:200px; border:14px solid green;"">","null","","","","","",""
"","image-keyboard-response","359","195293","0.0-359.0","3Z7ISHFUH1HQY1S4XDUPO6YF1ZK8ZZ","A5P12YJP805RG","3UAU495MIIEABANG75FBFHDC9WUUOI","","321.80000019073486","img/animal6.png","76","322.2999999523163","3","1","3","1,0.5,0,0,1,0.5,0.5,0,1",""
"","html-keyboard-response","360","195594","0.0-360.0","3Z7ISHFUH1HQY1S4XDUPO6YF1ZK8ZZ","A5P12YJP805RG","3UAU495MIIEABANG75FBFHDC9WUUOI","","null","<img src=""img/animal6.png"" style=""width:200px; border:14px solid green;"">","null","","","","","",""
"","image-keyboard-response","361","196269","0.0-361.0","3Z7ISHFUH1HQY1S4XDUPO6YF1ZK8ZZ","A5P12YJP805RG","3UAU495MIIEABANG75FBFHDC9WUUOI","","674.0999999046326","img/animal4.png","74","674.7000000476837","1","1","1","1,0.5,0,0,1,0.5,0.5,0,1",""
"","html-keyboard-response","362","196571","0.0-362.0","3Z7ISHFUH1HQY1S4XDUPO6YF1ZK8ZZ","A5P12YJP805RG","3UAU495MIIEABANG75FBFHDC9WUUOI","","null","<img src=""img/animal4.png"" style=""width:200px; border:14px solid green;"">","null","","","","","",""
"","instructions","363","199264","0.0-363.0","3Z7ISHFUH1HQY1S4XDUPO6YF1ZK8ZZ","A5P12YJP805RG","3UAU495MIIEABANG75FBFHDC9WUUOI","[{""page_index"":0,""viewing_time"":2692.2000000476837}]","2692.4000000953674","","","","","","","",""
"","survey-text","364","203249","0.0-364.0","3Z7ISHFUH1HQY1S4XDUPO6YF1ZK8ZZ","A5P12YJP805RG","3UAU495MIIEABANG75FBFHDC9WUUOI","","3983.0999999046326","","","","","","","","{""Q0"":""A5P12YJP805RG""}"
