"success","trial_type","trial_index","time_elapsed","internal_node_id","assignmentID","mturkID","hitID","view_history","rt","stimulus","key_press","reactionTime","a","r","s","reward_cond","responses"
"true","fullscreen","0","2533","0.0-0.0","3NXNZ5RS1BJ7SW58JA8KXI0RCW997M","A6THOSGKI6HQC","329E6HTMSWO7MPPIUTRHLR63CI0K3O","","","","","","","","","",""
"","instructions","1","15760","0.0-1.0","3NXNZ5RS1BJ7SW58JA8KXI0RCW997M","A6THOSGKI6HQC","329E6HTMSWO7MPPIUTRHLR63CI0K3O","[{""page_index"":0,""viewing_time"":2642.399999856949},{""page_index"":1,""viewing_time"":1135.5},{""page_index"":2,""viewing_time"":640.1000001430511},{""page_index"":3,""viewing_time"":1584},{""page_index"":4,""viewing_time"":3528.5999999046326},{""page_index"":5,""viewing_time"":1344.1000001430511},{""page_index"":6,""viewing_time"":1328.5999999046326},{""page_index"":7,""viewing_time"":1022.2999999523163}]","13226.5","","","","","","","",""
"","image-keyboard-response","2","18367","0.0-2.0","3NXNZ5RS1BJ7SW58JA8KXI0RCW997M","A6THOSGKI6HQC","329E6HTMSWO7MPPIUTRHLR63CI0K3O","","2604.9000000953674","img/animal6.png","75","2606.600000143051","2","1","2","1,0.5,0,0,1,0.5,0.5,0,1",""
"","html-keyboard-response","3","18671","0.0-3.0","3NXNZ5RS1BJ7SW58JA8KXI0RCW997M","A6THOSGKI6HQC","329E6HTMSWO7MPPIUTRHLR63CI0K3O","","null","<img src=""img/animal6.png"" style=""width:200px; border:14px solid green;"">","null","","","","","",""
"","image-keyboard-response","4","18775","0.0-4.0","3NXNZ5RS1BJ7SW58JA8KXI0RCW997M","A6THOSGKI6HQC","329E6HTMSWO7MPPIUTRHLR63CI0K3O","","102.40000009536743","img/animal2.png","75","103.29999995231628","2","1","1","1,0.5,0,0,1,0.5,0.5,0,1",""
"","html-keyboard-response","5","19078","0.0-5.0","3NXNZ5RS1BJ7SW58JA8KXI0RCW997M","A6THOSGKI6HQC","329E6HTMSWO7MPPIUTRHLR63CI0K3O","","null","<img src=""img/animal2.png"" style=""width:200px; border:14px solid green;"">","null","","","","","",""
"","image-keyboard-response","6","19222","0.0-6.0","3NXNZ5RS1BJ7SW58JA8KXI0RCW997M","A6THOSGKI6HQC","329E6HTMSWO7MPPIUTRHLR63CI0K3O","","143.59999990463257","img/animal2.png","75","144.59999990463257","2","1","1","1,0.5,0,0,1,0.5,0.5,0,1",""
"","html-keyboard-response","7","19526","0.0-7.0","3NXNZ5RS1BJ7SW58JA8KXI0RCW997M","A6THOSGKI6HQC","329E6HTMSWO7MPPIUTRHLR63CI0K3O","","null","<img src=""img/animal2.png"" style=""width:200px; border:14px solid green;"">","null","","","","","",""
"","image-keyboard-response","8","19598","0.0-8.0","3NXNZ5RS1BJ7SW58JA8KXI0RCW997M","A6THOSGKI6HQC","329E6HTMSWO7MPPIUTRHLR63CI0K3O","","71.59999990463257","img/animal6.png","75","72.40000009536743","2","1","2","1,0.5,0,0,1,0.5,0.5,0,1",""
"","html-keyboard-response","9","19901","0.0-9.0","3NXNZ5RS1BJ7SW58JA8KXI0RCW997M","A6THOSGKI6HQC","329E6HTMSWO7MPPIUTRHLR63CI0K3O","","null","<img src=""img/animal6.png"" style=""width:200px; border:14px solid green;"">","null","","","","","",""
"","image-keyboard-response","10","19934","0.0-10.0","3NXNZ5RS1BJ7SW58JA8KXI0RCW997M","A6THOSGKI6HQC","329E6HTMSWO7MPPIUTRHLR63CI0K3O","","31.59999990463257","img/animal6.png","75","32.40000009536743","2","1","2","1,0.5,0,0,1,0.5,0.5,0,1",""
"","html-keyboard-response","11","20236","0.0-11.0","3NXNZ5RS1BJ7SW58JA8KXI0RCW997M","A6THOSGKI6HQC","329E6HTMSWO7MPPIUTRHLR63CI0K3O","","null","<img src=""img/animal6.png"" style=""width:200px; border:14px solid green;"">","null","","","","","",""
"","image-keyboard-response","12","20326","0.0-12.0","3NXNZ5RS1BJ7SW58JA8KXI0RCW997M","A6THOSGKI6HQC","329E6HTMSWO7MPPIUTRHLR63CI0K3O","","89.29999995231628","img/animal2.png","75","90.20000004768372","2","0","1","1,0.5,0,0,1,0.5,0.5,0,1",""
"","html-keyboard-response","13","20629","0.0-13.0","3NXNZ5RS1BJ7SW58JA8KXI0RCW997M","A6THOSGKI6HQC","329E6HTMSWO7MPPIUTRHLR63CI0K3O","","null","<img src=""img/animal2.png"" style=""width:200px;border:14px solid red;"">","null","","","","","",""
"","image-keyboard-response","14","20677","0.0-14.0","3NXNZ5RS1BJ7SW58JA8KXI0RCW997M","A6THOSGKI6HQC","329E6HTMSWO7MPPIUTRHLR63CI0K3O","","47.90000009536743","img/animal5.png","75","48.799999952316284","2","0","3","1,0.5,0,0,1,0.5,0.5,0,1",""
"","html-keyboard-response","15","20980","0.0-15.0","3NXNZ5RS1BJ7SW58JA8KXI0RCW997M","A6THOSGKI6HQC","329E6HTMSWO7MPPIUTRHLR63CI0K3O","","null","<img src=""img/animal5.png"" style=""width:200px;border:14px solid red;"">","null","","","","","",""
"","image-keyboard-response","16","21134","0.0-16.0","3NXNZ5RS1BJ7SW58JA8KXI0RCW997M","A6THOSGKI6HQC","329E6HTMSWO7MPPIUTRHLR63CI0K3O","","152.59999990463257","img/animal5.png","75","153.5","2","0","3","1,0.5,0,0,1,0.5,0.5,0,1",""
"","html-keyboard-response","17","21437","0.0-17.0","3NXNZ5RS1BJ7SW58JA8KXI0RCW997M","A6THOSGKI6HQC","329E6HTMSWO7MPPIUTRHLR63CI0K3O","","null","<img src=""img/animal5.png"" style=""width:200px;border:14px solid red;"">","null","","","","","",""
"","image-keyboard-response","18","21494","0.0-18.0","3NXNZ5RS1BJ7SW58JA8KXI0RCW997M","A6THOSGKI6HQC","329E6HTMSWO7MPPIUTRHLR63CI0K3O","","55.799999952316284","img/animal6.png","75","56.60000014305115","2","1","2","1,0.5,0,0,1,0.5,0.5,0,1",""
"","html-keyboard-response","19","21797","0.0-19.0","3NXNZ5RS1BJ7SW58JA8KXI0RCW997M","A6THOSGKI6HQC","329E6HTMSWO7MPPIUTRHLR63CI0K3O","","null","<img src=""img/animal6.png"" style=""width:200px; border:14px solid green;"">","null","","","","","",""
"","image-keyboard-response","20","30606","0.0-20.0","3NXNZ5RS1BJ7SW58JA8KXI0RCW997M","A6THOSGKI6HQC","329E6HTMSWO7MPPIUTRHLR63CI0K3O","","8808.599999904633","img/animal6.png","75","8809.599999904633","2","1","2","1,0.5,0,0,1,0.5,0.5,0,1",""
"","html-keyboard-response","21","30909","0.0-21.0","3NXNZ5RS1BJ7SW58JA8KXI0RCW997M","A6THOSGKI6HQC","329E6HTMSWO7MPPIUTRHLR63CI0K3O","","null","<img src=""img/animal6.png"" style=""width:200px; border:14px solid green;"">","null","","","","","",""
"","image-keyboard-response","22","30965","0.0-22.0","3NXNZ5RS1BJ7SW58JA8KXI0RCW997M","A6THOSGKI6HQC","329E6HTMSWO7MPPIUTRHLR63CI0K3O","","55.10000014305115","img/animal5.png","75","55.90000009536743","2","0","3","1,0.5,0,0,1,0.5,0.5,0,1",""
"","html-keyboard-response","23","31268","0.0-23.0","3NXNZ5RS1BJ7SW58JA8KXI0RCW997M","A6THOSGKI6HQC","329E6HTMSWO7MPPIUTRHLR63CI0K3O","","null","<img src=""img/animal5.png"" style=""width:200px;border:14px solid red;"">","null","","","","","",""
"","image-keyboard-response","24","31318","0.0-24.0","3NXNZ5RS1BJ7SW58JA8KXI0RCW997M","A6THOSGKI6HQC","329E6HTMSWO7MPPIUTRHLR63CI0K3O","","48.5","img/animal5.png","75","49.200000047683716","2","0","3","1,0.5,0,0,1,0.5,0.5,0,1",""
"","html-keyboard-response","25","31620","0.0-25.0","3NXNZ5RS1BJ7SW58JA8KXI0RCW997M","A6THOSGKI6HQC","329E6HTMSWO7MPPIUTRHLR63CI0K3O","","null","<img src=""img/animal5.png"" style=""width:200px;border:14px solid red;"">","null","","","","","",""
"","image-keyboard-response","26","31654","0.0-26.0","3NXNZ5RS1BJ7SW58JA8KXI0RCW997M","A6THOSGKI6HQC","329E6HTMSWO7MPPIUTRHLR63CI0K3O","","32.700000047683716","img/animal5.png","75","33.40000009536743","2","0","3","1,0.5,0,0,1,0.5,0.5,0,1",""
"","html-keyboard-response","27","31956","0.0-27.0","3NXNZ5RS1BJ7SW58JA8KXI0RCW997M","A6THOSGKI6HQC","329E6HTMSWO7MPPIUTRHLR63CI0K3O","","null","<img src=""img/animal5.png"" style=""width:200px;border:14px solid red;"">","null","","","","","",""
"","image-keyboard-response","28","34670","0.0-28.0","3NXNZ5RS1BJ7SW58JA8KXI0RCW997M","A6THOSGKI6HQC","329E6HTMSWO7MPPIUTRHLR63CI0K3O","","2713.100000143051","img/animal6.png","75","2713.7999999523163","2","1","2","1,0.5,0,0,1,0.5,0.5,0,1",""
"","html-keyboard-response","29","34972","0.0-29.0","3NXNZ5RS1BJ7SW58JA8KXI0RCW997M","A6THOSGKI6HQC","329E6HTMSWO7MPPIUTRHLR63CI0K3O","","null","<img src=""img/animal6.png"" style=""width:200px; border:14px solid green;"">","null","","","","","",""
"","image-keyboard-response","30","35101","0.0-30.0","3NXNZ5RS1BJ7SW58JA8KXI0RCW997M","A6THOSGKI6HQC","329E6HTMSWO7MPPIUTRHLR63CI0K3O","","128.5","img/animal2.png","75","129.29999995231628","2","0","1","1,0.5,0,0,1,0.5,0.5,0,1",""
"","html-keyboard-response","31","35403","0.0-31.0","3NXNZ5RS1BJ7SW58JA8KXI0RCW997M","A6THOSGKI6HQC","329E6HTMSWO7MPPIUTRHLR63CI0K3O","","null","<img src=""img/animal2.png"" style=""width:200px;border:14px solid red;"">","null","","","","","",""
"","image-keyboard-response","32","35493","0.0-32.0","3NXNZ5RS1BJ7SW58JA8KXI0RCW997M","A6THOSGKI6HQC","329E6HTMSWO7MPPIUTRHLR63CI0K3O","","89.40000009536743","img/animal2.png","75","90.20000004768372","2","0","1","1,0.5,0,0,1,0.5,0.5,0,1",""
"","html-keyboard-response","33","35796","0.0-33.0","3NXNZ5RS1BJ7SW58JA8KXI0RCW997M","A6THOSGKI6HQC","329E6HTMSWO7MPPIUTRHLR63CI0K3O","","null","<img src=""img/animal2.png"" style=""width:200px;border:14px solid red;"">","null","","","","","",""
"","image-keyboard-response","34","35901","0.0-34.0","3NXNZ5RS1BJ7SW58JA8KXI0RCW997M","A6THOSGKI6HQC","329E6HTMSWO7MPPIUTRHLR63CI0K3O","","104.79999995231628","img/animal6.png","75","105.59999990463257","2","1","2","1,0.5,0,0,1,0.5,0.5,0,1",""
"","html-keyboard-response","35","36204","0.0-35.0","3NXNZ5RS1BJ7SW58JA8KXI0RCW997M","A6THOSGKI6HQC","329E6HTMSWO7MPPIUTRHLR63CI0K3O","","null","<img src=""img/animal6.png"" style=""width:200px; border:14px solid green;"">","null","","","","","",""
"","image-keyboard-response","36","36309","0.0-36.0","3NXNZ5RS1BJ7SW58JA8KXI0RCW997M","A6THOSGKI6HQC","329E6HTMSWO7MPPIUTRHLR63CI0K3O","","104.59999990463257","img/animal2.png","75","105.40000009536743","2","0","1","1,0.5,0,0,1,0.5,0.5,0,1",""
"","html-keyboard-response","37","36611","0.0-37.0","3NXNZ5RS1BJ7SW58JA8KXI0RCW997M","A6THOSGKI6HQC","329E6HTMSWO7MPPIUTRHLR63CI0K3O","","null","<img src=""img/animal2.png"" style=""width:200px;border:14px solid red;"">","null","","","","","",""
"","image-keyboard-response","38","36662","0.0-38.0","3NXNZ5RS1BJ7SW58JA8KXI0RCW997M","A6THOSGKI6HQC","329E6HTMSWO7MPPIUTRHLR63CI0K3O","","49","img/animal2.png","75","50","2","0","1","1,0.5,0,0,1,0.5,0.5,0,1",""
"","html-keyboard-response","39","36964","0.0-39.0","3NXNZ5RS1BJ7SW58JA8KXI0RCW997M","A6THOSGKI6HQC","329E6HTMSWO7MPPIUTRHLR63CI0K3O","","null","<img src=""img/animal2.png"" style=""width:200px;border:14px solid red;"">","null","","","","","",""
"","image-keyboard-response","40","37006","0.0-40.0","3NXNZ5RS1BJ7SW58JA8KXI0RCW997M","A6THOSGKI6HQC","329E6HTMSWO7MPPIUTRHLR63CI0K3O","","40.700000047683716","img/animal5.png","75","41.60000014305115","2","0","3","1,0.5,0,0,1,0.5,0.5,0,1",""
"","html-keyboard-response","41","37308","0.0-41.0","3NXNZ5RS1BJ7SW58JA8KXI0RCW997M","A6THOSGKI6HQC","329E6HTMSWO7MPPIUTRHLR63CI0K3O","","null","<img src=""img/animal5.png"" style=""width:200px;border:14px solid red;"">","null","","","","","",""
"","image-keyboard-response","42","37326","0.0-42.0","3NXNZ5RS1BJ7SW58JA8KXI0RCW997M","A6THOSGKI6HQC","329E6HTMSWO7MPPIUTRHLR63CI0K3O","","16.90000009536743","img/animal2.png","75","17.700000047683716","2","0","1","1,0.5,0,0,1,0.5,0.5,0,1",""
"","html-keyboard-response","43","37628","0.0-43.0","3NXNZ5RS1BJ7SW58JA8KXI0RCW997M","A6THOSGKI6HQC","329E6HTMSWO7MPPIUTRHLR63CI0K3O","","null","<img src=""img/animal2.png"" style=""width:200px;border:14px solid red;"">","null","","","","","",""
"","image-keyboard-response","44","37678","0.0-44.0","3NXNZ5RS1BJ7SW58JA8KXI0RCW997M","A6THOSGKI6HQC","329E6HTMSWO7MPPIUTRHLR63CI0K3O","","48.59999990463257","img/animal5.png","75","49.39999985694885","2","0","3","1,0.5,0,0,1,0.5,0.5,0,1",""
"","html-keyboard-response","45","37980","0.0-45.0","3NXNZ5RS1BJ7SW58JA8KXI0RCW997M","A6THOSGKI6HQC","329E6HTMSWO7MPPIUTRHLR63CI0K3O","","null","<img src=""img/animal5.png"" style=""width:200px;border:14px solid red;"">","null","","","","","",""
"","image-keyboard-response","46","37981","0.0-46.0","3NXNZ5RS1BJ7SW58JA8KXI0RCW997M","A6THOSGKI6HQC","329E6HTMSWO7MPPIUTRHLR63CI0K3O","","0.5","img/animal2.png","75","1.2000000476837158","2","1","1","1,0.5,0,0,1,0.5,0.5,0,1",""
"","html-keyboard-response","47","38284","0.0-47.0","3NXNZ5RS1BJ7SW58JA8KXI0RCW997M","A6THOSGKI6HQC","329E6HTMSWO7MPPIUTRHLR63CI0K3O","","null","<img src=""img/animal2.png"" style=""width:200px; border:14px solid green;"">","null","","","","","",""
"","image-keyboard-response","48","38333","0.0-48.0","3NXNZ5RS1BJ7SW58JA8KXI0RCW997M","A6THOSGKI6HQC","329E6HTMSWO7MPPIUTRHLR63CI0K3O","","48.10000014305115","img/animal2.png","75","48.90000009536743","2","1","1","1,0.5,0,0,1,0.5,0.5,0,1",""
"","html-keyboard-response","49","38636","0.0-49.0","3NXNZ5RS1BJ7SW58JA8KXI0RCW997M","A6THOSGKI6HQC","329E6HTMSWO7MPPIUTRHLR63CI0K3O","","null","<img src=""img/animal2.png"" style=""width:200px; border:14px solid green;"">","null","","","","","",""
"","image-keyboard-response","50","38669","0.0-50.0","3NXNZ5RS1BJ7SW58JA8KXI0RCW997M","A6THOSGKI6HQC","329E6HTMSWO7MPPIUTRHLR63CI0K3O","","32.39999985694885","img/animal2.png","75","33.30000019073486","2","0","1","1,0.5,0,0,1,0.5,0.5,0,1",""
"","html-keyboard-response","51","38972","0.0-51.0","3NXNZ5RS1BJ7SW58JA8KXI0RCW997M","A6THOSGKI6HQC","329E6HTMSWO7MPPIUTRHLR63CI0K3O","","null","<img src=""img/animal2.png"" style=""width:200px;border:14px solid red;"">","null","","","","","",""
"","image-keyboard-response","52","39021","0.0-52.0","3NXNZ5RS1BJ7SW58JA8KXI0RCW997M","A6THOSGKI6HQC","329E6HTMSWO7MPPIUTRHLR63CI0K3O","","48.299999952316284","img/animal6.png","75","49.19999980926514","2","1","2","1,0.5,0,0,1,0.5,0.5,0,1",""
"","html-keyboard-response","53","39324","0.0-53.0","3NXNZ5RS1BJ7SW58JA8KXI0RCW997M","A6THOSGKI6HQC","329E6HTMSWO7MPPIUTRHLR63CI0K3O","","null","<img src=""img/animal6.png"" style=""width:200px; border:14px solid green;"">","null","","","","","",""
"","image-keyboard-response","54","45358","0.0-54.0","3NXNZ5RS1BJ7SW58JA8KXI0RCW997M","A6THOSGKI6HQC","329E6HTMSWO7MPPIUTRHLR63CI0K3O","","6033.299999952316","img/animal6.png","75","6034.099999904633","2","1","2","1,0.5,0,0,1,0.5,0.5,0,1",""
"","html-keyboard-response","55","45661","0.0-55.0","3NXNZ5RS1BJ7SW58JA8KXI0RCW997M","A6THOSGKI6HQC","329E6HTMSWO7MPPIUTRHLR63CI0K3O","","null","<img src=""img/animal6.png"" style=""width:200px; border:14px solid green;"">","null","","","","","",""
"","image-keyboard-response","56","45749","0.0-56.0","3NXNZ5RS1BJ7SW58JA8KXI0RCW997M","A6THOSGKI6HQC","329E6HTMSWO7MPPIUTRHLR63CI0K3O","","87.70000004768372","img/animal5.png","75","88.5","2","0","3","1,0.5,0,0,1,0.5,0.5,0,1",""
"","html-keyboard-response","57","46051","0.0-57.0","3NXNZ5RS1BJ7SW58JA8KXI0RCW997M","A6THOSGKI6HQC","329E6HTMSWO7MPPIUTRHLR63CI0K3O","","null","<img src=""img/animal5.png"" style=""width:200px;border:14px solid red;"">","null","","","","","",""
"","image-keyboard-response","58","46109","0.0-58.0","3NXNZ5RS1BJ7SW58JA8KXI0RCW997M","A6THOSGKI6HQC","329E6HTMSWO7MPPIUTRHLR63CI0K3O","","56.700000047683716","img/animal6.png","75","57.5","2","1","2","1,0.5,0,0,1,0.5,0.5,0,1",""
"","html-keyboard-response","59","46411","0.0-59.0","3NXNZ5RS1BJ7SW58JA8KXI0RCW997M","A6THOSGKI6HQC","329E6HTMSWO7MPPIUTRHLR63CI0K3O","","null","<img src=""img/animal6.png"" style=""width:200px; border:14px solid green;"">","null","","","","","",""
"","image-keyboard-response","60","46462","0.0-60.0","3NXNZ5RS1BJ7SW58JA8KXI0RCW997M","A6THOSGKI6HQC","329E6HTMSWO7MPPIUTRHLR63CI0K3O","","49.299999952316284","img/animal5.png","75","50.200000047683716","2","0","3","1,0.5,0,0,1,0.5,0.5,0,1",""
"","html-keyboard-response","61","46764","0.0-61.0","3NXNZ5RS1BJ7SW58JA8KXI0RCW997M","A6THOSGKI6HQC","329E6HTMSWO7MPPIUTRHLR63CI0K3O","","null","<img src=""img/animal5.png"" style=""width:200px;border:14px solid red;"">","null","","","","","",""
"","image-keyboard-response","62","46789","0.0-62.0","3NXNZ5RS1BJ7SW58JA8KXI0RCW997M","A6THOSGKI6HQC","329E6HTMSWO7MPPIUTRHLR63CI0K3O","","24.299999952316284","img/animal6.png","75","24.90000009536743","2","1","2","1,0.5,0,0,1,0.5,0.5,0,1",""
"","html-keyboard-response","63","47092","0.0-63.0","3NXNZ5RS1BJ7SW58JA8KXI0RCW997M","A6THOSGKI6HQC","329E6HTMSWO7MPPIUTRHLR63CI0K3O","","null","<img src=""img/animal6.png"" style=""width:200px; border:14px solid green;"">","null","","","","","",""
"","image-keyboard-response","64","47125","0.0-64.0","3NXNZ5RS1BJ7SW58JA8KXI0RCW997M","A6THOSGKI6HQC","329E6HTMSWO7MPPIUTRHLR63CI0K3O","","32.10000014305115","img/animal6.png","75","32.799999952316284","2","1","2","1,0.5,0,0,1,0.5,0.5,0,1",""
"","html-keyboard-response","65","47428","0.0-65.0","3NXNZ5RS1BJ7SW58JA8KXI0RCW997M","A6THOSGKI6HQC","329E6HTMSWO7MPPIUTRHLR63CI0K3O","","null","<img src=""img/animal6.png"" style=""width:200px; border:14px solid green;"">","null","","","","","",""
"","image-keyboard-response","66","47477","0.0-66.0","3NXNZ5RS1BJ7SW58JA8KXI0RCW997M","A6THOSGKI6HQC","329E6HTMSWO7MPPIUTRHLR63CI0K3O","","48.299999952316284","img/animal6.png","75","49","2","1","2","1,0.5,0,0,1,0.5,0.5,0,1",""
"","html-keyboard-response","67","47780","0.0-67.0","3NXNZ5RS1BJ7SW58JA8KXI0RCW997M","A6THOSGKI6HQC","329E6HTMSWO7MPPIUTRHLR63CI0K3O","","null","<img src=""img/animal6.png"" style=""width:200px; border:14px solid green;"">","null","","","","","",""
"","image-keyboard-response","68","50573","0.0-68.0","3NXNZ5RS1BJ7SW58JA8KXI0RCW997M","A6THOSGKI6HQC","329E6HTMSWO7MPPIUTRHLR63CI0K3O","","2792.2999999523163","img/animal2.png","75","2793.100000143051","2","1","1","1,0.5,0,0,1,0.5,0.5,0,1",""
"","html-keyboard-response","69","50876","0.0-69.0","3NXNZ5RS1BJ7SW58JA8KXI0RCW997M","A6THOSGKI6HQC","329E6HTMSWO7MPPIUTRHLR63CI0K3O","","null","<img src=""img/animal2.png"" style=""width:200px; border:14px solid green;"">","null","","","","","",""
"","image-keyboard-response","70","50997","0.0-70.0","3NXNZ5RS1BJ7SW58JA8KXI0RCW997M","A6THOSGKI6HQC","329E6HTMSWO7MPPIUTRHLR63CI0K3O","","120.20000004768372","img/animal5.png","75","121","2","0","3","1,0.5,0,0,1,0.5,0.5,0,1",""
"","html-keyboard-response","71","51300","0.0-71.0","3NXNZ5RS1BJ7SW58JA8KXI0RCW997M","A6THOSGKI6HQC","329E6HTMSWO7MPPIUTRHLR63CI0K3O","","null","<img src=""img/animal5.png"" style=""width:200px;border:14px solid red;"">","null","","","","","",""
"","image-keyboard-response","72","51357","0.0-72.0","3NXNZ5RS1BJ7SW58JA8KXI0RCW997M","A6THOSGKI6HQC","329E6HTMSWO7MPPIUTRHLR63CI0K3O","","56.10000014305115","img/animal5.png","75","56.90000009536743","2","0","3","1,0.5,0,0,1,0.5,0.5,0,1",""
"","html-keyboard-response","73","51660","0.0-73.0","3NXNZ5RS1BJ7SW58JA8KXI0RCW997M","A6THOSGKI6HQC","329E6HTMSWO7MPPIUTRHLR63CI0K3O","","null","<img src=""img/animal5.png"" style=""width:200px;border:14px solid red;"">","null","","","","","",""
"","image-keyboard-response","74","51709","0.0-74.0","3NXNZ5RS1BJ7SW58JA8KXI0RCW997M","A6THOSGKI6HQC","329E6HTMSWO7MPPIUTRHLR63CI0K3O","","48.10000014305115","img/animal2.png","75","49","2","0","1","1,0.5,0,0,1,0.5,0.5,0,1",""
"","html-keyboard-response","75","52011","0.0-75.0","3NXNZ5RS1BJ7SW58JA8KXI0RCW997M","A6THOSGKI6HQC","329E6HTMSWO7MPPIUTRHLR63CI0K3O","","null","<img src=""img/animal2.png"" style=""width:200px;border:14px solid red;"">","null","","","","","",""
"","image-keyboard-response","76","52086","0.0-76.0","3NXNZ5RS1BJ7SW58JA8KXI0RCW997M","A6THOSGKI6HQC","329E6HTMSWO7MPPIUTRHLR63CI0K3O","","73.09999990463257","img/animal6.png","75","73.90000009536743","2","1","2","1,0.5,0,0,1,0.5,0.5,0,1",""
"","html-keyboard-response","77","52387","0.0-77.0","3NXNZ5RS1BJ7SW58JA8KXI0RCW997M","A6THOSGKI6HQC","329E6HTMSWO7MPPIUTRHLR63CI0K3O","","null","<img src=""img/animal6.png"" style=""width:200px; border:14px solid green;"">","null","","","","","",""
"","image-keyboard-response","78","52493","0.0-78.0","3NXNZ5RS1BJ7SW58JA8KXI0RCW997M","A6THOSGKI6HQC","329E6HTMSWO7MPPIUTRHLR63CI0K3O","","104.5","img/animal5.png","75","105.29999995231628","2","0","3","1,0.5,0,0,1,0.5,0.5,0,1",""
"","html-keyboard-response","79","52795","0.0-79.0","3NXNZ5RS1BJ7SW58JA8KXI0RCW997M","A6THOSGKI6HQC","329E6HTMSWO7MPPIUTRHLR63CI0K3O","","null","<img src=""img/animal5.png"" style=""width:200px;border:14px solid red;"">","null","","","","","",""
"","image-keyboard-response","80","52909","0.0-80.0","3NXNZ5RS1BJ7SW58JA8KXI0RCW997M","A6THOSGKI6HQC","329E6HTMSWO7MPPIUTRHLR63CI0K3O","","113.40000009536743","img/animal2.png","75","114","2","1","1","1,0.5,0,0,1,0.5,0.5,0,1",""
"","html-keyboard-response","81","53212","0.0-81.0","3NXNZ5RS1BJ7SW58JA8KXI0RCW997M","A6THOSGKI6HQC","329E6HTMSWO7MPPIUTRHLR63CI0K3O","","null","<img src=""img/animal2.png"" style=""width:200px; border:14px solid green;"">","null","","","","","",""
"","image-keyboard-response","82","53309","0.0-82.0","3NXNZ5RS1BJ7SW58JA8KXI0RCW997M","A6THOSGKI6HQC","329E6HTMSWO7MPPIUTRHLR63CI0K3O","","96.10000014305115","img/animal6.png","75","96.90000009536743","2","1","2","1,0.5,0,0,1,0.5,0.5,0,1",""
"","html-keyboard-response","83","53611","0.0-83.0","3NXNZ5RS1BJ7SW58JA8KXI0RCW997M","A6THOSGKI6HQC","329E6HTMSWO7MPPIUTRHLR63CI0K3O","","null","<img src=""img/animal6.png"" style=""width:200px; border:14px solid green;"">","null","","","","","",""
"","image-keyboard-response","84","53669","0.0-84.0","3NXNZ5RS1BJ7SW58JA8KXI0RCW997M","A6THOSGKI6HQC","329E6HTMSWO7MPPIUTRHLR63CI0K3O","","57.299999952316284","img/animal6.png","75","58.200000047683716","2","1","2","1,0.5,0,0,1,0.5,0.5,0,1",""
"","html-keyboard-response","85","53972","0.0-85.0","3NXNZ5RS1BJ7SW58JA8KXI0RCW997M","A6THOSGKI6HQC","329E6HTMSWO7MPPIUTRHLR63CI0K3O","","null","<img src=""img/animal6.png"" style=""width:200px; border:14px solid green;"">","null","","","","","",""
"","image-keyboard-response","86","54005","0.0-86.0","3NXNZ5RS1BJ7SW58JA8KXI0RCW997M","A6THOSGKI6HQC","329E6HTMSWO7MPPIUTRHLR63CI0K3O","","32.299999952316284","img/animal5.png","75","33.200000047683716","2","0","3","1,0.5,0,0,1,0.5,0.5,0,1",""
"","html-keyboard-response","87","54308","0.0-87.0","3NXNZ5RS1BJ7SW58JA8KXI0RCW997M","A6THOSGKI6HQC","329E6HTMSWO7MPPIUTRHLR63CI0K3O","","null","<img src=""img/animal5.png"" style=""width:200px;border:14px solid red;"">","null","","","","","",""
"","image-keyboard-response","88","54333","0.0-88.0","3NXNZ5RS1BJ7SW58JA8KXI0RCW997M","A6THOSGKI6HQC","329E6HTMSWO7MPPIUTRHLR63CI0K3O","","24","img/animal2.png","75","24.800000190734863","2","1","1","1,0.5,0,0,1,0.5,0.5,0,1",""
"","html-keyboard-response","89","54636","0.0-89.0","3NXNZ5RS1BJ7SW58JA8KXI0RCW997M","A6THOSGKI6HQC","329E6HTMSWO7MPPIUTRHLR63CI0K3O","","null","<img src=""img/animal2.png"" style=""width:200px; border:14px solid green;"">","null","","","","","",""
"","image-keyboard-response","90","54653","0.0-90.0","3NXNZ5RS1BJ7SW58JA8KXI0RCW997M","A6THOSGKI6HQC","329E6HTMSWO7MPPIUTRHLR63CI0K3O","","16.399999856948853","img/animal6.png","75","17","2","1","2","1,0.5,0,0,1,0.5,0.5,0,1",""
"","html-keyboard-response","91","54956","0.0-91.0","3NXNZ5RS1BJ7SW58JA8KXI0RCW997M","A6THOSGKI6HQC","329E6HTMSWO7MPPIUTRHLR63CI0K3O","","null","<img src=""img/animal6.png"" style=""width:200px; border:14px solid green;"">","null","","","","","",""
"","image-keyboard-response","92","54966","0.0-92.0","3NXNZ5RS1BJ7SW58JA8KXI0RCW997M","A6THOSGKI6HQC","329E6HTMSWO7MPPIUTRHLR63CI0K3O","","9.099999904632568","img/animal6.png","75","9.899999856948853","2","1","2","1,0.5,0,0,1,0.5,0.5,0,1",""
"","html-keyboard-response","93","55268","0.0-93.0","3NXNZ5RS1BJ7SW58JA8KXI0RCW997M","A6THOSGKI6HQC","329E6HTMSWO7MPPIUTRHLR63CI0K3O","","null","<img src=""img/animal6.png"" style=""width:200px; border:14px solid green;"">","null","","","","","",""
"","image-keyboard-response","94","55293","0.0-94.0","3NXNZ5RS1BJ7SW58JA8KXI0RCW997M","A6THOSGKI6HQC","329E6HTMSWO7MPPIUTRHLR63CI0K3O","","23.700000047683716","img/animal5.png","75","24.40000009536743","2","0","3","1,0.5,0,0,1,0.5,0.5,0,1",""
"","html-keyboard-response","95","55595","0.0-95.0","3NXNZ5RS1BJ7SW58JA8KXI0RCW997M","A6THOSGKI6HQC","329E6HTMSWO7MPPIUTRHLR63CI0K3O","","null","<img src=""img/animal5.png"" style=""width:200px;border:14px solid red;"">","null","","","","","",""
"","image-keyboard-response","96","55605","0.0-96.0","3NXNZ5RS1BJ7SW58JA8KXI0RCW997M","A6THOSGKI6HQC","329E6HTMSWO7MPPIUTRHLR63CI0K3O","","8.399999856948853","img/animal2.png","75","9.200000047683716","2","1","1","1,0.5,0,0,1,0.5,0.5,0,1",""
"","html-keyboard-response","97","55907","0.0-97.0","3NXNZ5RS1BJ7SW58JA8KXI0RCW997M","A6THOSGKI6HQC","329E6HTMSWO7MPPIUTRHLR63CI0K3O","","null","<img src=""img/animal2.png"" style=""width:200px; border:14px solid green;"">","null","","","","","",""
"","image-keyboard-response","98","55909","0.0-98.0","3NXNZ5RS1BJ7SW58JA8KXI0RCW997M","A6THOSGKI6HQC","329E6HTMSWO7MPPIUTRHLR63CI0K3O","","1","img/animal5.png","75","1.7000000476837158","2","0","3","1,0.5,0,0,1,0.5,0.5,0,1",""
"","html-keyboard-response","99","56211","0.0-99.0","3NXNZ5RS1BJ7SW58JA8KXI0RCW997M","A6THOSGKI6HQC","329E6HTMSWO7MPPIUTRHLR63CI0K3O","","null","<img src=""img/animal5.png"" style=""width:200px;border:14px solid red;"">","null","","","","","",""
"","image-keyboard-response","100","57757","0.0-100.0","3NXNZ5RS1BJ7SW58JA8KXI0RCW997M","A6THOSGKI6HQC","329E6HTMSWO7MPPIUTRHLR63CI0K3O","","1544.5","img/animal5.png","75","1545.5","2","0","3","1,0.5,0,0,1,0.5,0.5,0,1",""
"","html-keyboard-response","101","58060","0.0-101.0","3NXNZ5RS1BJ7SW58JA8KXI0RCW997M","A6THOSGKI6HQC","329E6HTMSWO7MPPIUTRHLR63CI0K3O","","null","<img src=""img/animal5.png"" style=""width:200px;border:14px solid red;"">","null","","","","","",""
"","image-keyboard-response","102","58116","0.0-102.0","3NXNZ5RS1BJ7SW58JA8KXI0RCW997M","A6THOSGKI6HQC","329E6HTMSWO7MPPIUTRHLR63CI0K3O","","56.09999990463257","img/animal6.png","75","56.69999980926514","2","1","2","1,0.5,0,0,1,0.5,0.5,0,1",""
"","html-keyboard-response","103","58419","0.0-103.0","3NXNZ5RS1BJ7SW58JA8KXI0RCW997M","A6THOSGKI6HQC","329E6HTMSWO7MPPIUTRHLR63CI0K3O","","null","<img src=""img/animal6.png"" style=""width:200px; border:14px solid green;"">","null","","","","","",""
"","image-keyboard-response","104","58469","0.0-104.0","3NXNZ5RS1BJ7SW58JA8KXI0RCW997M","A6THOSGKI6HQC","329E6HTMSWO7MPPIUTRHLR63CI0K3O","","48.5","img/animal6.png","75","49.5","2","1","2","1,0.5,0,0,1,0.5,0.5,0,1",""
"","html-keyboard-response","105","58771","0.0-105.0","3NXNZ5RS1BJ7SW58JA8KXI0RCW997M","A6THOSGKI6HQC","329E6HTMSWO7MPPIUTRHLR63CI0K3O","","null","<img src=""img/animal6.png"" style=""width:200px; border:14px solid green;"">","null","","","","","",""
"","image-keyboard-response","106","58845","0.0-106.0","3NXNZ5RS1BJ7SW58JA8KXI0RCW997M","A6THOSGKI6HQC","329E6HTMSWO7MPPIUTRHLR63CI0K3O","","72.5","img/animal6.png","75","73.29999995231628","2","1","2","1,0.5,0,0,1,0.5,0.5,0,1",""
"","html-keyboard-response","107","59147","0.0-107.0","3NXNZ5RS1BJ7SW58JA8KXI0RCW997M","A6THOSGKI6HQC","329E6HTMSWO7MPPIUTRHLR63CI0K3O","","null","<img src=""img/animal6.png"" style=""width:200px; border:14px solid green;"">","null","","","","","",""
"","image-keyboard-response","108","59197","0.0-108.0","3NXNZ5RS1BJ7SW58JA8KXI0RCW997M","A6THOSGKI6HQC","329E6HTMSWO7MPPIUTRHLR63CI0K3O","","49.30000019073486","img/animal5.png","75","50.09999990463257","2","0","3","1,0.5,0,0,1,0.5,0.5,0,1",""
"","html-keyboard-response","109","59500","0.0-109.0","3NXNZ5RS1BJ7SW58JA8KXI0RCW997M","A6THOSGKI6HQC","329E6HTMSWO7MPPIUTRHLR63CI0K3O","","null","<img src=""img/animal5.png"" style=""width:200px;border:14px solid red;"">","null","","","","","",""
"","image-keyboard-response","110","59533","0.0-110.0","3NXNZ5RS1BJ7SW58JA8KXI0RCW997M","A6THOSGKI6HQC","329E6HTMSWO7MPPIUTRHLR63CI0K3O","","31.59999990463257","img/animal6.png","75","32.39999985694885","2","1","2","1,0.5,0,0,1,0.5,0.5,0,1",""
"","html-keyboard-response","111","59835","0.0-111.0","3NXNZ5RS1BJ7SW58JA8KXI0RCW997M","A6THOSGKI6HQC","329E6HTMSWO7MPPIUTRHLR63CI0K3O","","null","<img src=""img/animal6.png"" style=""width:200px; border:14px solid green;"">","null","","","","","",""
"","image-keyboard-response","112","59877","0.0-112.0","3NXNZ5RS1BJ7SW58JA8KXI0RCW997M","A6THOSGKI6HQC","329E6HTMSWO7MPPIUTRHLR63CI0K3O","","40.700000047683716","img/animal5.png","75","41.5","2","0","3","1,0.5,0,0,1,0.5,0.5,0,1",""
"","html-keyboard-response","113","60179","0.0-113.0","3NXNZ5RS1BJ7SW58JA8KXI0RCW997M","A6THOSGKI6HQC","329E6HTMSWO7MPPIUTRHLR63CI0K3O","","null","<img src=""img/animal5.png"" style=""width:200px;border:14px solid red;"">","null","","","","","",""
"","image-keyboard-response","114","60262","0.0-114.0","3NXNZ5RS1BJ7SW58JA8KXI0RCW997M","A6THOSGKI6HQC","329E6HTMSWO7MPPIUTRHLR63CI0K3O","","81.59999990463257","img/animal6.png","75","82.29999995231628","2","1","2","1,0.5,0,0,1,0.5,0.5,0,1",""
"","html-keyboard-response","115","60564","0.0-115.0","3NXNZ5RS1BJ7SW58JA8KXI0RCW997M","A6THOSGKI6HQC","329E6HTMSWO7MPPIUTRHLR63CI0K3O","","null","<img src=""img/animal6.png"" style=""width:200px; border:14px solid green;"">","null","","","","","",""
"","image-keyboard-response","116","60613","0.0-116.0","3NXNZ5RS1BJ7SW58JA8KXI0RCW997M","A6THOSGKI6HQC","329E6HTMSWO7MPPIUTRHLR63CI0K3O","","48.30000019073486","img/animal2.png","75","49","2","0","1","1,0.5,0,0,1,0.5,0.5,0,1",""
"","html-keyboard-response","117","60916","0.0-117.0","3NXNZ5RS1BJ7SW58JA8KXI0RCW997M","A6THOSGKI6HQC","329E6HTMSWO7MPPIUTRHLR63CI0K3O","","null","<img src=""img/animal2.png"" style=""width:200px;border:14px solid red;"">","null","","","","","",""
"","image-keyboard-response","118","60949","0.0-118.0","3NXNZ5RS1BJ7SW58JA8KXI0RCW997M","A6THOSGKI6HQC","329E6HTMSWO7MPPIUTRHLR63CI0K3O","","32.09999990463257","img/animal2.png","75","32.90000009536743","2","0","1","1,0.5,0,0,1,0.5,0.5,0,1",""
"","html-keyboard-response","119","61252","0.0-119.0","3NXNZ5RS1BJ7SW58JA8KXI0RCW997M","A6THOSGKI6HQC","329E6HTMSWO7MPPIUTRHLR63CI0K3O","","null","<img src=""img/animal2.png"" style=""width:200px;border:14px solid red;"">","null","","","","","",""
"","image-keyboard-response","120","61317","0.0-120.0","3NXNZ5RS1BJ7SW58JA8KXI0RCW997M","A6THOSGKI6HQC","329E6HTMSWO7MPPIUTRHLR63CI0K3O","","64.09999990463257","img/animal2.png","75","64.79999995231628","2","1","1","1,0.5,0,0,1,0.5,0.5,0,1",""
"","html-keyboard-response","121","61619","0.0-121.0","3NXNZ5RS1BJ7SW58JA8KXI0RCW997M","A6THOSGKI6HQC","329E6HTMSWO7MPPIUTRHLR63CI0K3O","","null","<img src=""img/animal2.png"" style=""width:200px; border:14px solid green;"">","null","","","","","",""
"","image-keyboard-response","122","61677","0.0-122.0","3NXNZ5RS1BJ7SW58JA8KXI0RCW997M","A6THOSGKI6HQC","329E6HTMSWO7MPPIUTRHLR63CI0K3O","","56.39999985694885","img/animal2.png","75","57.39999985694885","2","1","1","1,0.5,0,0,1,0.5,0.5,0,1",""
"","html-keyboard-response","123","61979","0.0-123.0","3NXNZ5RS1BJ7SW58JA8KXI0RCW997M","A6THOSGKI6HQC","329E6HTMSWO7MPPIUTRHLR63CI0K3O","","null","<img src=""img/animal2.png"" style=""width:200px; border:14px solid green;"">","null","","","","","",""
"","image-keyboard-response","124","62037","0.0-124.0","3NXNZ5RS1BJ7SW58JA8KXI0RCW997M","A6THOSGKI6HQC","329E6HTMSWO7MPPIUTRHLR63CI0K3O","","56.59999990463257","img/animal6.png","75","57.40000009536743","2","1","2","1,0.5,0,0,1,0.5,0.5,0,1",""
"","html-keyboard-response","125","62339","0.0-125.0","3NXNZ5RS1BJ7SW58JA8KXI0RCW997M","A6THOSGKI6HQC","329E6HTMSWO7MPPIUTRHLR63CI0K3O","","null","<img src=""img/animal6.png"" style=""width:200px; border:14px solid green;"">","null","","","","","",""
"","image-keyboard-response","126","62365","0.0-126.0","3NXNZ5RS1BJ7SW58JA8KXI0RCW997M","A6THOSGKI6HQC","329E6HTMSWO7MPPIUTRHLR63CI0K3O","","25.299999952316284","img/animal2.png","75","26","2","0","1","1,0.5,0,0,1,0.5,0.5,0,1",""
"","html-keyboard-response","127","62668","0.0-127.0","3NXNZ5RS1BJ7SW58JA8KXI0RCW997M","A6THOSGKI6HQC","329E6HTMSWO7MPPIUTRHLR63CI0K3O","","null","<img src=""img/animal2.png"" style=""width:200px;border:14px solid red;"">","null","","","","","",""
"","image-keyboard-response","128","62701","0.0-128.0","3NXNZ5RS1BJ7SW58JA8KXI0RCW997M","A6THOSGKI6HQC","329E6HTMSWO7MPPIUTRHLR63CI0K3O","","32.5","img/animal5.png","75","33.299999952316284","2","0","3","1,0.5,0,0,1,0.5,0.5,0,1",""
"","html-keyboard-response","129","63004","0.0-129.0","3NXNZ5RS1BJ7SW58JA8KXI0RCW997M","A6THOSGKI6HQC","329E6HTMSWO7MPPIUTRHLR63CI0K3O","","null","<img src=""img/animal5.png"" style=""width:200px;border:14px solid red;"">","null","","","","","",""
"","image-keyboard-response","130","63093","0.0-130.0","3NXNZ5RS1BJ7SW58JA8KXI0RCW997M","A6THOSGKI6HQC","329E6HTMSWO7MPPIUTRHLR63CI0K3O","","88.09999990463257","img/animal2.png","75","88.90000009536743","2","0","1","1,0.5,0,0,1,0.5,0.5,0,1",""
"","html-keyboard-response","131","63395","0.0-131.0","3NXNZ5RS1BJ7SW58JA8KXI0RCW997M","A6THOSGKI6HQC","329E6HTMSWO7MPPIUTRHLR63CI0K3O","","null","<img src=""img/animal2.png"" style=""width:200px;border:14px solid red;"">","null","","","","","",""
"","image-keyboard-response","132","63453","0.0-132.0","3NXNZ5RS1BJ7SW58JA8KXI0RCW997M","A6THOSGKI6HQC","329E6HTMSWO7MPPIUTRHLR63CI0K3O","","56.59999990463257","img/animal5.png","75","57.59999990463257","2","0","3","1,0.5,0,0,1,0.5,0.5,0,1",""
"","html-keyboard-response","133","63755","0.0-133.0","3NXNZ5RS1BJ7SW58JA8KXI0RCW997M","A6THOSGKI6HQC","329E6HTMSWO7MPPIUTRHLR63CI0K3O","","null","<img src=""img/animal5.png"" style=""width:200px;border:14px solid red;"">","null","","","","","",""
"","image-keyboard-response","134","63845","0.0-134.0","3NXNZ5RS1BJ7SW58JA8KXI0RCW997M","A6THOSGKI6HQC","329E6HTMSWO7MPPIUTRHLR63CI0K3O","","88.90000009536743","img/animal2.png","75","89.70000004768372","2","0","1","1,0.5,0,0,1,0.5,0.5,0,1",""
"","html-keyboard-response","135","64148","0.0-135.0","3NXNZ5RS1BJ7SW58JA8KXI0RCW997M","A6THOSGKI6HQC","329E6HTMSWO7MPPIUTRHLR63CI0K3O","","null","<img src=""img/animal2.png"" style=""width:200px;border:14px solid red;"">","null","","","","","",""
"","image-keyboard-response","136","64165","0.0-136.0","3NXNZ5RS1BJ7SW58JA8KXI0RCW997M","A6THOSGKI6HQC","329E6HTMSWO7MPPIUTRHLR63CI0K3O","","16.09999990463257","img/animal5.png","75","16.799999952316284","2","0","3","1,0.5,0,0,1,0.5,0.5,0,1",""
"","html-keyboard-response","137","64468","0.0-137.0","3NXNZ5RS1BJ7SW58JA8KXI0RCW997M","A6THOSGKI6HQC","329E6HTMSWO7MPPIUTRHLR63CI0K3O","","null","<img src=""img/animal5.png"" style=""width:200px;border:14px solid red;"">","null","","","","","",""
"","image-keyboard-response","138","64557","0.0-138.0","3NXNZ5RS1BJ7SW58JA8KXI0RCW997M","A6THOSGKI6HQC","329E6HTMSWO7MPPIUTRHLR63CI0K3O","","88.40000009536743","img/animal2.png","75","89.40000009536743","2","0","1","1,0.5,0,0,1,0.5,0.5,0,1",""
"","html-keyboard-response","139","64859","0.0-139.0","3NXNZ5RS1BJ7SW58JA8KXI0RCW997M","A6THOSGKI6HQC","329E6HTMSWO7MPPIUTRHLR63CI0K3O","","null","<img src=""img/animal2.png"" style=""width:200px;border:14px solid red;"">","null","","","","","",""
"","image-keyboard-response","140","64941","0.0-140.0","3NXNZ5RS1BJ7SW58JA8KXI0RCW997M","A6THOSGKI6HQC","329E6HTMSWO7MPPIUTRHLR63CI0K3O","","80.5","img/animal5.png","75","81.40000009536743","2","0","3","1,0.5,0,0,1,0.5,0.5,0,1",""
"","html-keyboard-response","141","65243","0.0-141.0","3NXNZ5RS1BJ7SW58JA8KXI0RCW997M","A6THOSGKI6HQC","329E6HTMSWO7MPPIUTRHLR63CI0K3O","","null","<img src=""img/animal5.png"" style=""width:200px;border:14px solid red;"">","null","","","","","",""
"","image-keyboard-response","142","65341","0.0-142.0","3NXNZ5RS1BJ7SW58JA8KXI0RCW997M","A6THOSGKI6HQC","329E6HTMSWO7MPPIUTRHLR63CI0K3O","","96.5","img/animal5.png","75","97.40000009536743","2","0","3","1,0.5,0,0,1,0.5,0.5,0,1",""
"","html-keyboard-response","143","65642","0.0-143.0","3NXNZ5RS1BJ7SW58JA8KXI0RCW997M","A6THOSGKI6HQC","329E6HTMSWO7MPPIUTRHLR63CI0K3O","","null","<img src=""img/animal5.png"" style=""width:200px;border:14px solid red;"">","null","","","","","",""
"","image-keyboard-response","144","65725","0.0-144.0","3NXNZ5RS1BJ7SW58JA8KXI0RCW997M","A6THOSGKI6HQC","329E6HTMSWO7MPPIUTRHLR63CI0K3O","","82","img/animal5.png","75","82.69999980926514","2","0","3","1,0.5,0,0,1,0.5,0.5,0,1",""
"","html-keyboard-response","145","66027","0.0-145.0","3NXNZ5RS1BJ7SW58JA8KXI0RCW997M","A6THOSGKI6HQC","329E6HTMSWO7MPPIUTRHLR63CI0K3O","","null","<img src=""img/animal5.png"" style=""width:200px;border:14px solid red;"">","null","","","","","",""
"","image-keyboard-response","146","66117","0.0-146.0","3NXNZ5RS1BJ7SW58JA8KXI0RCW997M","A6THOSGKI6HQC","329E6HTMSWO7MPPIUTRHLR63CI0K3O","","89","img/animal6.png","75","89.79999995231628","2","1","2","1,0.5,0,0,1,0.5,0.5,0,1",""
"","html-keyboard-response","147","66420","0.0-147.0","3NXNZ5RS1BJ7SW58JA8KXI0RCW997M","A6THOSGKI6HQC","329E6HTMSWO7MPPIUTRHLR63CI0K3O","","null","<img src=""img/animal6.png"" style=""width:200px; border:14px solid green;"">","null","","","","","",""
"","image-keyboard-response","148","66493","0.0-148.0","3NXNZ5RS1BJ7SW58JA8KXI0RCW997M","A6THOSGKI6HQC","329E6HTMSWO7MPPIUTRHLR63CI0K3O","","71.79999995231628","img/animal6.png","75","72.5","2","1","2","1,0.5,0,0,1,0.5,0.5,0,1",""
"","html-keyboard-response","149","66795","0.0-149.0","3NXNZ5RS1BJ7SW58JA8KXI0RCW997M","A6THOSGKI6HQC","329E6HTMSWO7MPPIUTRHLR63CI0K3O","","null","<img src=""img/animal6.png"" style=""width:200px; border:14px solid green;"">","null","","","","","",""
"","image-keyboard-response","150","66845","0.0-150.0","3NXNZ5RS1BJ7SW58JA8KXI0RCW997M","A6THOSGKI6HQC","329E6HTMSWO7MPPIUTRHLR63CI0K3O","","49.5","img/animal6.png","75","50.10000014305115","2","1","2","1,0.5,0,0,1,0.5,0.5,0,1",""
"","html-keyboard-response","151","67147","0.0-151.0","3NXNZ5RS1BJ7SW58JA8KXI0RCW997M","A6THOSGKI6HQC","329E6HTMSWO7MPPIUTRHLR63CI0K3O","","null","<img src=""img/animal6.png"" style=""width:200px; border:14px solid green;"">","null","","","","","",""
"","image-keyboard-response","152","67261","0.0-152.0","3NXNZ5RS1BJ7SW58JA8KXI0RCW997M","A6THOSGKI6HQC","329E6HTMSWO7MPPIUTRHLR63CI0K3O","","113.09999990463257","img/animal6.png","75","113.89999985694885","2","1","2","1,0.5,0,0,1,0.5,0.5,0,1",""
"","html-keyboard-response","153","67564","0.0-153.0","3NXNZ5RS1BJ7SW58JA8KXI0RCW997M","A6THOSGKI6HQC","329E6HTMSWO7MPPIUTRHLR63CI0K3O","","null","<img src=""img/animal6.png"" style=""width:200px; border:14px solid green;"">","null","","","","","",""
"","image-keyboard-response","154","67677","0.0-154.0","3NXNZ5RS1BJ7SW58JA8KXI0RCW997M","A6THOSGKI6HQC","329E6HTMSWO7MPPIUTRHLR63CI0K3O","","112.20000004768372","img/animal6.png","75","113","2","1","2","1,0.5,0,0,1,0.5,0.5,0,1",""
"","html-keyboard-response","155","67979","0.0-155.0","3NXNZ5RS1BJ7SW58JA8KXI0RCW997M","A6THOSGKI6HQC","329E6HTMSWO7MPPIUTRHLR63CI0K3O","","null","<img src=""img/animal6.png"" style=""width:200px; border:14px solid green;"">","null","","","","","",""
"","image-keyboard-response","156","68061","0.0-156.0","3NXNZ5RS1BJ7SW58JA8KXI0RCW997M","A6THOSGKI6HQC","329E6HTMSWO7MPPIUTRHLR63CI0K3O","","80.60000014305115","img/animal2.png","75","81.39999985694885","2","0","1","1,0.5,0,0,1,0.5,0.5,0,1",""
"","html-keyboard-response","157","68363","0.0-157.0","3NXNZ5RS1BJ7SW58JA8KXI0RCW997M","A6THOSGKI6HQC","329E6HTMSWO7MPPIUTRHLR63CI0K3O","","null","<img src=""img/animal2.png"" style=""width:200px;border:14px solid red;"">","null","","","","","",""
"","image-keyboard-response","158","68453","0.0-158.0","3NXNZ5RS1BJ7SW58JA8KXI0RCW997M","A6THOSGKI6HQC","329E6HTMSWO7MPPIUTRHLR63CI0K3O","","88.70000004768372","img/animal2.png","75","89.5","2","0","1","1,0.5,0,0,1,0.5,0.5,0,1",""
"","html-keyboard-response","159","68755","0.0-159.0","3NXNZ5RS1BJ7SW58JA8KXI0RCW997M","A6THOSGKI6HQC","329E6HTMSWO7MPPIUTRHLR63CI0K3O","","null","<img src=""img/animal2.png"" style=""width:200px;border:14px solid red;"">","null","","","","","",""
"","image-keyboard-response","160","68900","0.0-160.0","3NXNZ5RS1BJ7SW58JA8KXI0RCW997M","A6THOSGKI6HQC","329E6HTMSWO7MPPIUTRHLR63CI0K3O","","144.40000009536743","img/animal2.png","75","145.19999980926514","2","0","1","1,0.5,0,0,1,0.5,0.5,0,1",""
"","html-keyboard-response","161","69203","0.0-161.0","3NXNZ5RS1BJ7SW58JA8KXI0RCW997M","A6THOSGKI6HQC","329E6HTMSWO7MPPIUTRHLR63CI0K3O","","null","<img src=""img/animal2.png"" style=""width:200px;border:14px solid red;"">","null","","","","","",""
"","image-keyboard-response","162","69372","0.0-162.0","3NXNZ5RS1BJ7SW58JA8KXI0RCW997M","A6THOSGKI6HQC","329E6HTMSWO7MPPIUTRHLR63CI0K3O","","168.39999985694885","img/animal5.png","75","169.39999985694885","2","0","3","1,0.5,0,0,1,0.5,0.5,0,1",""
"","html-keyboard-response","163","69674","0.0-163.0","3NXNZ5RS1BJ7SW58JA8KXI0RCW997M","A6THOSGKI6HQC","329E6HTMSWO7MPPIUTRHLR63CI0K3O","","null","<img src=""img/animal5.png"" style=""width:200px;border:14px solid red;"">","null","","","","","",""
"","image-keyboard-response","164","69789","0.0-164.0","3NXNZ5RS1BJ7SW58JA8KXI0RCW997M","A6THOSGKI6HQC","329E6HTMSWO7MPPIUTRHLR63CI0K3O","","114.60000014305115","img/animal6.png","75","115.5","2","1","2","1,0.5,0,0,1,0.5,0.5,0,1",""
"","html-keyboard-response","165","70092","0.0-165.0","3NXNZ5RS1BJ7SW58JA8KXI0RCW997M","A6THOSGKI6HQC","329E6HTMSWO7MPPIUTRHLR63CI0K3O","","null","<img src=""img/animal6.png"" style=""width:200px; border:14px solid green;"">","null","","","","","",""
"","image-keyboard-response","166","70213","0.0-166.0","3NXNZ5RS1BJ7SW58JA8KXI0RCW997M","A6THOSGKI6HQC","329E6HTMSWO7MPPIUTRHLR63CI0K3O","","120.40000009536743","img/animal5.png","75","121.20000004768372","2","0","3","1,0.5,0,0,1,0.5,0.5,0,1",""
"","html-keyboard-response","167","70515","0.0-167.0","3NXNZ5RS1BJ7SW58JA8KXI0RCW997M","A6THOSGKI6HQC","329E6HTMSWO7MPPIUTRHLR63CI0K3O","","null","<img src=""img/animal5.png"" style=""width:200px;border:14px solid red;"">","null","","","","","",""
"","image-keyboard-response","168","70629","0.0-168.0","3NXNZ5RS1BJ7SW58JA8KXI0RCW997M","A6THOSGKI6HQC","329E6HTMSWO7MPPIUTRHLR63CI0K3O","","113","img/animal5.png","75","113.79999995231628","2","0","3","1,0.5,0,0,1,0.5,0.5,0,1",""
"","html-keyboard-response","169","70931","0.0-169.0","3NXNZ5RS1BJ7SW58JA8KXI0RCW997M","A6THOSGKI6HQC","329E6HTMSWO7MPPIUTRHLR63CI0K3O","","null","<img src=""img/animal5.png"" style=""width:200px;border:14px solid red;"">","null","","","","","",""
"","image-keyboard-response","170","71013","0.0-170.0","3NXNZ5RS1BJ7SW58JA8KXI0RCW997M","A6THOSGKI6HQC","329E6HTMSWO7MPPIUTRHLR63CI0K3O","","80.19999980926514","img/animal2.png","75","81","2","0","1","1,0.5,0,0,1,0.5,0.5,0,1",""
"","html-keyboard-response","171","71315","0.0-171.0","3NXNZ5RS1BJ7SW58JA8KXI0RCW997M","A6THOSGKI6HQC","329E6HTMSWO7MPPIUTRHLR63CI0K3O","","null","<img src=""img/animal2.png"" style=""width:200px;border:14px solid red;"">","null","","","","","",""
"","image-keyboard-response","172","71405","0.0-172.0","3NXNZ5RS1BJ7SW58JA8KXI0RCW997M","A6THOSGKI6HQC","329E6HTMSWO7MPPIUTRHLR63CI0K3O","","88.40000009536743","img/animal5.png","75","89.29999995231628","2","0","3","1,0.5,0,0,1,0.5,0.5,0,1",""
"","html-keyboard-response","173","71707","0.0-173.0","3NXNZ5RS1BJ7SW58JA8KXI0RCW997M","A6THOSGKI6HQC","329E6HTMSWO7MPPIUTRHLR63CI0K3O","","null","<img src=""img/animal5.png"" style=""width:200px;border:14px solid red;"">","null","","","","","",""
"","image-keyboard-response","174","71789","0.0-174.0","3NXNZ5RS1BJ7SW58JA8KXI0RCW997M","A6THOSGKI6HQC","329E6HTMSWO7MPPIUTRHLR63CI0K3O","","81.10000014305115","img/animal2.png","75","82","2","1","1","1,0.5,0,0,1,0.5,0.5,0,1",""
"","html-keyboard-response","175","72092","0.0-175.0","3NXNZ5RS1BJ7SW58JA8KXI0RCW997M","A6THOSGKI6HQC","329E6HTMSWO7MPPIUTRHLR63CI0K3O","","null","<img src=""img/animal2.png"" style=""width:200px; border:14px solid green;"">","null","","","","","",""
"","image-keyboard-response","176","75046","0.0-176.0","3NXNZ5RS1BJ7SW58JA8KXI0RCW997M","A6THOSGKI6HQC","329E6HTMSWO7MPPIUTRHLR63CI0K3O","","2952","img/animal2.png","75","2952.7999999523163","2","1","1","1,0.5,0,0,1,0.5,0.5,0,1",""
"","html-keyboard-response","177","75348","0.0-177.0","3NXNZ5RS1BJ7SW58JA8KXI0RCW997M","A6THOSGKI6HQC","329E6HTMSWO7MPPIUTRHLR63CI0K3O","","null","<img src=""img/animal2.png"" style=""width:200px; border:14px solid green;"">","null","","","","","",""
"","image-keyboard-response","178","75470","0.0-178.0","3NXNZ5RS1BJ7SW58JA8KXI0RCW997M","A6THOSGKI6HQC","329E6HTMSWO7MPPIUTRHLR63CI0K3O","","121.29999995231628","img/animal5.png","75","122.09999990463257","2","0","3","1,0.5,0,0,1,0.5,0.5,0,1",""
"","html-keyboard-response","179","75773","0.0-179.0","3NXNZ5RS1BJ7SW58JA8KXI0RCW997M","A6THOSGKI6HQC","329E6HTMSWO7MPPIUTRHLR63CI0K3O","","null","<img src=""img/animal5.png"" style=""width:200px;border:14px solid red;"">","null","","","","","",""
"","image-keyboard-response","180","75862","0.0-180.0","3NXNZ5RS1BJ7SW58JA8KXI0RCW997M","A6THOSGKI6HQC","329E6HTMSWO7MPPIUTRHLR63CI0K3O","","88","img/animal5.png","75","88.79999995231628","2","0","3","1,0.5,0,0,1,0.5,0.5,0,1",""
"","html-keyboard-response","181","76163","0.0-181.0","3NXNZ5RS1BJ7SW58JA8KXI0RCW997M","A6THOSGKI6HQC","329E6HTMSWO7MPPIUTRHLR63CI0K3O","","null","<img src=""img/animal5.png"" style=""width:200px;border:14px solid red;"">","null","","","","","",""
"","html-keyboard-response","182","79935","0.0-182.0","3NXNZ5RS1BJ7SW58JA8KXI0RCW997M","A6THOSGKI6HQC","329E6HTMSWO7MPPIUTRHLR63CI0K3O","","","","","","","","","",""
"","image-keyboard-response","183","81781","0.0-183.0","3NXNZ5RS1BJ7SW58JA8KXI0RCW997M","A6THOSGKI6HQC","329E6HTMSWO7MPPIUTRHLR63CI0K3O","","1844.4000000953674","img/animal4.png","75","1845.7000000476837","2","1","2","1,0.5,0,1,0.5,0,0.5,0,1",""
"","html-keyboard-response","184","82084","0.0-184.0","3NXNZ5RS1BJ7SW58JA8KXI0RCW997M","A6THOSGKI6HQC","329E6HTMSWO7MPPIUTRHLR63CI0K3O","","null","<img src=""img/animal4.png"" style=""width:200px; border:14px solid green;"">","null","","","","","",""
"","image-keyboard-response","185","82133","0.0-185.0","3NXNZ5RS1BJ7SW58JA8KXI0RCW997M","A6THOSGKI6HQC","329E6HTMSWO7MPPIUTRHLR63CI0K3O","","48.299999952316284","img/animal3.png","75","49.200000047683716","2","0","3","1,0.5,0,1,0.5,0,0.5,0,1",""
"","html-keyboard-response","186","82435","0.0-186.0","3NXNZ5RS1BJ7SW58JA8KXI0RCW997M","A6THOSGKI6HQC","329E6HTMSWO7MPPIUTRHLR63CI0K3O","","null","<img src=""img/animal3.png"" style=""width:200px;border:14px solid red;"">","null","","","","","",""
"","image-keyboard-response","187","82478","0.0-187.0","3NXNZ5RS1BJ7SW58JA8KXI0RCW997M","A6THOSGKI6HQC","329E6HTMSWO7MPPIUTRHLR63CI0K3O","","40.89999985694885","img/animal3.png","75","42","2","0","3","1,0.5,0,1,0.5,0,0.5,0,1",""
"","html-keyboard-response","188","82780","0.0-188.0","3NXNZ5RS1BJ7SW58JA8KXI0RCW997M","A6THOSGKI6HQC","329E6HTMSWO7MPPIUTRHLR63CI0K3O","","null","<img src=""img/animal3.png"" style=""width:200px;border:14px solid red;"">","null","","","","","",""
"","image-keyboard-response","189","82821","0.0-189.0","3NXNZ5RS1BJ7SW58JA8KXI0RCW997M","A6THOSGKI6HQC","329E6HTMSWO7MPPIUTRHLR63CI0K3O","","40.10000014305115","img/animal3.png","75","41","2","0","3","1,0.5,0,1,0.5,0,0.5,0,1",""
"","html-keyboard-response","190","83124","0.0-190.0","3NXNZ5RS1BJ7SW58JA8KXI0RCW997M","A6THOSGKI6HQC","329E6HTMSWO7MPPIUTRHLR63CI0K3O","","null","<img src=""img/animal3.png"" style=""width:200px;border:14px solid red;"">","null","","","","","",""
"","image-keyboard-response","191","83149","0.0-191.0","3NXNZ5RS1BJ7SW58JA8KXI0RCW997M","A6THOSGKI6HQC","329E6HTMSWO7MPPIUTRHLR63CI0K3O","","24.299999952316284","img/animal1.png","75","25.09999990463257","2","1","1","1,0.5,0,1,0.5,0,0.5,0,1",""
"","html-keyboard-response","192","83452","0.0-192.0","3NXNZ5RS1BJ7SW58JA8KXI0RCW997M","A6THOSGKI6HQC","329E6HTMSWO7MPPIUTRHLR63CI0K3O","","null","<img src=""img/animal1.png"" style=""width:200px; border:14px solid green;"">","null","","","","","",""
"","image-keyboard-response","193","83493","0.0-193.0","3NXNZ5RS1BJ7SW58JA8KXI0RCW997M","A6THOSGKI6HQC","329E6HTMSWO7MPPIUTRHLR63CI0K3O","","39.40000009536743","img/animal4.png","75","40.700000047683716","2","0","2","1,0.5,0,1,0.5,0,0.5,0,1",""
"","html-keyboard-response","194","83796","0.0-194.0","3NXNZ5RS1BJ7SW58JA8KXI0RCW997M","A6THOSGKI6HQC","329E6HTMSWO7MPPIUTRHLR63CI0K3O","","null","<img src=""img/animal4.png"" style=""width:200px;border:14px solid red;"">","null","","","","","",""
"","image-keyboard-response","195","83869","0.0-195.0","3NXNZ5RS1BJ7SW58JA8KXI0RCW997M","A6THOSGKI6HQC","329E6HTMSWO7MPPIUTRHLR63CI0K3O","","71.89999985694885","img/animal1.png","75","72.59999990463257","2","1","1","1,0.5,0,1,0.5,0,0.5,0,1",""
"","html-keyboard-response","196","84171","0.0-196.0","3NXNZ5RS1BJ7SW58JA8KXI0RCW997M","A6THOSGKI6HQC","329E6HTMSWO7MPPIUTRHLR63CI0K3O","","null","<img src=""img/animal1.png"" style=""width:200px; border:14px solid green;"">","null","","","","","",""
"","image-keyboard-response","197","84221","0.0-197.0","3NXNZ5RS1BJ7SW58JA8KXI0RCW997M","A6THOSGKI6HQC","329E6HTMSWO7MPPIUTRHLR63CI0K3O","","48.89999985694885","img/animal4.png","75","49.90000009536743","2","1","2","1,0.5,0,1,0.5,0,0.5,0,1",""
"","html-keyboard-response","198","84524","0.0-198.0","3NXNZ5RS1BJ7SW58JA8KXI0RCW997M","A6THOSGKI6HQC","329E6HTMSWO7MPPIUTRHLR63CI0K3O","","null","<img src=""img/animal4.png"" style=""width:200px; border:14px solid green;"">","null","","","","","",""
"","image-keyboard-response","199","84829","0.0-199.0","3NXNZ5RS1BJ7SW58JA8KXI0RCW997M","A6THOSGKI6HQC","329E6HTMSWO7MPPIUTRHLR63CI0K3O","","304","img/animal1.png","75","304.7999999523163","2","1","1","1,0.5,0,1,0.5,0,0.5,0,1",""
"","html-keyboard-response","200","85131","0.0-200.0","3NXNZ5RS1BJ7SW58JA8KXI0RCW997M","A6THOSGKI6HQC","329E6HTMSWO7MPPIUTRHLR63CI0K3O","","null","<img src=""img/animal1.png"" style=""width:200px; border:14px solid green;"">","null","","","","","",""
"","image-keyboard-response","201","85205","0.0-201.0","3NXNZ5RS1BJ7SW58JA8KXI0RCW997M","A6THOSGKI6HQC","329E6HTMSWO7MPPIUTRHLR63CI0K3O","","73.20000004768372","img/animal3.png","75","73.90000009536743","2","0","3","1,0.5,0,1,0.5,0,0.5,0,1",""
"","html-keyboard-response","202","85507","0.0-202.0","3NXNZ5RS1BJ7SW58JA8KXI0RCW997M","A6THOSGKI6HQC","329E6HTMSWO7MPPIUTRHLR63CI0K3O","","null","<img src=""img/animal3.png"" style=""width:200px;border:14px solid red;"">","null","","","","","",""
"","image-keyboard-response","203","85661","0.0-203.0","3NXNZ5RS1BJ7SW58JA8KXI0RCW997M","A6THOSGKI6HQC","329E6HTMSWO7MPPIUTRHLR63CI0K3O","","152.20000004768372","img/animal3.png","75","153.10000014305115","2","0","3","1,0.5,0,1,0.5,0,0.5,0,1",""
"","html-keyboard-response","204","85963","0.0-204.0","3NXNZ5RS1BJ7SW58JA8KXI0RCW997M","A6THOSGKI6HQC","329E6HTMSWO7MPPIUTRHLR63CI0K3O","","null","<img src=""img/animal3.png"" style=""width:200px;border:14px solid red;"">","null","","","","","",""
"","image-keyboard-response","205","86109","0.0-205.0","3NXNZ5RS1BJ7SW58JA8KXI0RCW997M","A6THOSGKI6HQC","329E6HTMSWO7MPPIUTRHLR63CI0K3O","","144.90000009536743","img/animal3.png","75","145.70000004768372","2","0","3","1,0.5,0,1,0.5,0,0.5,0,1",""
"","html-keyboard-response","206","86412","0.0-206.0","3NXNZ5RS1BJ7SW58JA8KXI0RCW997M","A6THOSGKI6HQC","329E6HTMSWO7MPPIUTRHLR63CI0K3O","","null","<img src=""img/animal3.png"" style=""width:200px;border:14px solid red;"">","null","","","","","",""
"","image-keyboard-response","207","86549","0.0-207.0","3NXNZ5RS1BJ7SW58JA8KXI0RCW997M","A6THOSGKI6HQC","329E6HTMSWO7MPPIUTRHLR63CI0K3O","","135.59999990463257","img/animal1.png","75","136.5","2","1","1","1,0.5,0,1,0.5,0,0.5,0,1",""
"","html-keyboard-response","208","86851","0.0-208.0","3NXNZ5RS1BJ7SW58JA8KXI0RCW997M","A6THOSGKI6HQC","329E6HTMSWO7MPPIUTRHLR63CI0K3O","","null","<img src=""img/animal1.png"" style=""width:200px; border:14px solid green;"">","null","","","","","",""
"","image-keyboard-response","209","87021","0.0-209.0","3NXNZ5RS1BJ7SW58JA8KXI0RCW997M","A6THOSGKI6HQC","329E6HTMSWO7MPPIUTRHLR63CI0K3O","","168.70000004768372","img/animal1.png","75","169.59999990463257","2","0","1","1,0.5,0,1,0.5,0,0.5,0,1",""
"","html-keyboard-response","210","87324","0.0-210.0","3NXNZ5RS1BJ7SW58JA8KXI0RCW997M","A6THOSGKI6HQC","329E6HTMSWO7MPPIUTRHLR63CI0K3O","","null","<img src=""img/animal1.png"" style=""width:200px;border:14px solid red;"">","null","","","","","",""
"","image-keyboard-response","211","87485","0.0-211.0","3NXNZ5RS1BJ7SW58JA8KXI0RCW997M","A6THOSGKI6HQC","329E6HTMSWO7MPPIUTRHLR63CI0K3O","","159.90000009536743","img/animal1.png","75","160.79999995231628","2","0","1","1,0.5,0,1,0.5,0,0.5,0,1",""
"","html-keyboard-response","212","87788","0.0-212.0","3NXNZ5RS1BJ7SW58JA8KXI0RCW997M","A6THOSGKI6HQC","329E6HTMSWO7MPPIUTRHLR63CI0K3O","","null","<img src=""img/animal1.png"" style=""width:200px;border:14px solid red;"">","null","","","","","",""
"","image-keyboard-response","213","87901","0.0-213.0","3NXNZ5RS1BJ7SW58JA8KXI0RCW997M","A6THOSGKI6HQC","329E6HTMSWO7MPPIUTRHLR63CI0K3O","","112","img/animal3.png","75","112.89999985694885","2","0","3","1,0.5,0,1,0.5,0,0.5,0,1",""
"","html-keyboard-response","214","88204","0.0-214.0","3NXNZ5RS1BJ7SW58JA8KXI0RCW997M","A6THOSGKI6HQC","329E6HTMSWO7MPPIUTRHLR63CI0K3O","","null","<img src=""img/animal3.png"" style=""width:200px;border:14px solid red;"">","null","","","","","",""
"","image-keyboard-response","215","90037","0.0-215.0","3NXNZ5RS1BJ7SW58JA8KXI0RCW997M","A6THOSGKI6HQC","329E6HTMSWO7MPPIUTRHLR63CI0K3O","","1832.1999998092651","img/animal1.png","75","1833.2000000476837","2","1","1","1,0.5,0,1,0.5,0,0.5,0,1",""
"","html-keyboard-response","216","90339","0.0-216.0","3NXNZ5RS1BJ7SW58JA8KXI0RCW997M","A6THOSGKI6HQC","329E6HTMSWO7MPPIUTRHLR63CI0K3O","","null","<img src=""img/animal1.png"" style=""width:200px; border:14px solid green;"">","null","","","","","",""
"","image-keyboard-response","217","90413","0.0-217.0","3NXNZ5RS1BJ7SW58JA8KXI0RCW997M","A6THOSGKI6HQC","329E6HTMSWO7MPPIUTRHLR63CI0K3O","","73.20000004768372","img/animal3.png","75","74.10000014305115","2","0","3","1,0.5,0,1,0.5,0,0.5,0,1",""
"","html-keyboard-response","218","90716","0.0-218.0","3NXNZ5RS1BJ7SW58JA8KXI0RCW997M","A6THOSGKI6HQC","329E6HTMSWO7MPPIUTRHLR63CI0K3O","","null","<img src=""img/animal3.png"" style=""width:200px;border:14px solid red;"">","null","","","","","",""
"","image-keyboard-response","219","90813","0.0-219.0","3NXNZ5RS1BJ7SW58JA8KXI0RCW997M","A6THOSGKI6HQC","329E6HTMSWO7MPPIUTRHLR63CI0K3O","","95.80000019073486","img/animal3.png","75","96.69999980926514","2","0","3","1,0.5,0,1,0.5,0,0.5,0,1",""
"","html-keyboard-response","220","91115","0.0-220.0","3NXNZ5RS1BJ7SW58JA8KXI0RCW997M","A6THOSGKI6HQC","329E6HTMSWO7MPPIUTRHLR63CI0K3O","","null","<img src=""img/animal3.png"" style=""width:200px;border:14px solid red;"">","null","","","","","",""
"","image-keyboard-response","221","91205","0.0-221.0","3NXNZ5RS1BJ7SW58JA8KXI0RCW997M","A6THOSGKI6HQC","329E6HTMSWO7MPPIUTRHLR63CI0K3O","","89.59999990463257","img/animal3.png","75","90.5","2","0","3","1,0.5,0,1,0.5,0,0.5,0,1",""
"","html-keyboard-response","222","91508","0.0-222.0","3NXNZ5RS1BJ7SW58JA8KXI0RCW997M","A6THOSGKI6HQC","329E6HTMSWO7MPPIUTRHLR63CI0K3O","","null","<img src=""img/animal3.png"" style=""width:200px;border:14px solid red;"">","null","","","","","",""
"","image-keyboard-response","223","91613","0.0-223.0","3NXNZ5RS1BJ7SW58JA8KXI0RCW997M","A6THOSGKI6HQC","329E6HTMSWO7MPPIUTRHLR63CI0K3O","","104.70000004768372","img/animal4.png","75","105.29999995231628","2","0","2","1,0.5,0,1,0.5,0,0.5,0,1",""
"","html-keyboard-response","224","91915","0.0-224.0","3NXNZ5RS1BJ7SW58JA8KXI0RCW997M","A6THOSGKI6HQC","329E6HTMSWO7MPPIUTRHLR63CI0K3O","","null","<img src=""img/animal4.png"" style=""width:200px;border:14px solid red;"">","null","","","","","",""
"","image-keyboard-response","225","91997","0.0-225.0","3NXNZ5RS1BJ7SW58JA8KXI0RCW997M","A6THOSGKI6HQC","329E6HTMSWO7MPPIUTRHLR63CI0K3O","","80.89999985694885","img/animal1.png","75","81.70000004768372","2","0","1","1,0.5,0,1,0.5,0,0.5,0,1",""
"","html-keyboard-response","226","92300","0.0-226.0","3NXNZ5RS1BJ7SW58JA8KXI0RCW997M","A6THOSGKI6HQC","329E6HTMSWO7MPPIUTRHLR63CI0K3O","","null","<img src=""img/animal1.png"" style=""width:200px;border:14px solid red;"">","null","","","","","",""
"","image-keyboard-response","227","92389","0.0-227.0","3NXNZ5RS1BJ7SW58JA8KXI0RCW997M","A6THOSGKI6HQC","329E6HTMSWO7MPPIUTRHLR63CI0K3O","","87.5","img/animal3.png","75","88.29999995231628","2","0","3","1,0.5,0,1,0.5,0,0.5,0,1",""
"","html-keyboard-response","228","92691","0.0-228.0","3NXNZ5RS1BJ7SW58JA8KXI0RCW997M","A6THOSGKI6HQC","329E6HTMSWO7MPPIUTRHLR63CI0K3O","","null","<img src=""img/animal3.png"" style=""width:200px;border:14px solid red;"">","null","","","","","",""
"","image-keyboard-response","229","92797","0.0-229.0","3NXNZ5RS1BJ7SW58JA8KXI0RCW997M","A6THOSGKI6HQC","329E6HTMSWO7MPPIUTRHLR63CI0K3O","","104.59999990463257","img/animal4.png","75","105.40000009536743","2","0","2","1,0.5,0,1,0.5,0,0.5,0,1",""
"","html-keyboard-response","230","93099","0.0-230.0","3NXNZ5RS1BJ7SW58JA8KXI0RCW997M","A6THOSGKI6HQC","329E6HTMSWO7MPPIUTRHLR63CI0K3O","","null","<img src=""img/animal4.png"" style=""width:200px;border:14px solid red;"">","null","","","","","",""
"","image-keyboard-response","231","93189","0.0-231.0","3NXNZ5RS1BJ7SW58JA8KXI0RCW997M","A6THOSGKI6HQC","329E6HTMSWO7MPPIUTRHLR63CI0K3O","","89.10000014305115","img/animal1.png","75","90","2","0","1","1,0.5,0,1,0.5,0,0.5,0,1",""
"","html-keyboard-response","232","93492","0.0-232.0","3NXNZ5RS1BJ7SW58JA8KXI0RCW997M","A6THOSGKI6HQC","329E6HTMSWO7MPPIUTRHLR63CI0K3O","","null","<img src=""img/animal1.png"" style=""width:200px;border:14px solid red;"">","null","","","","","",""
"","image-keyboard-response","233","93598","0.0-233.0","3NXNZ5RS1BJ7SW58JA8KXI0RCW997M","A6THOSGKI6HQC","329E6HTMSWO7MPPIUTRHLR63CI0K3O","","104.59999990463257","img/animal1.png","75","105.5","2","1","1","1,0.5,0,1,0.5,0,0.5,0,1",""
"","html-keyboard-response","234","93900","0.0-234.0","3NXNZ5RS1BJ7SW58JA8KXI0RCW997M","A6THOSGKI6HQC","329E6HTMSWO7MPPIUTRHLR63CI0K3O","","null","<img src=""img/animal1.png"" style=""width:200px; border:14px solid green;"">","null","","","","","",""
"","image-keyboard-response","235","93997","0.0-235.0","3NXNZ5RS1BJ7SW58JA8KXI0RCW997M","A6THOSGKI6HQC","329E6HTMSWO7MPPIUTRHLR63CI0K3O","","96.29999995231628","img/animal4.png","75","97","2","0","2","1,0.5,0,1,0.5,0,0.5,0,1",""
"","html-keyboard-response","236","94300","0.0-236.0","3NXNZ5RS1BJ7SW58JA8KXI0RCW997M","A6THOSGKI6HQC","329E6HTMSWO7MPPIUTRHLR63CI0K3O","","null","<img src=""img/animal4.png"" style=""width:200px;border:14px solid red;"">","null","","","","","",""
"","image-keyboard-response","237","94373","0.0-237.0","3NXNZ5RS1BJ7SW58JA8KXI0RCW997M","A6THOSGKI6HQC","329E6HTMSWO7MPPIUTRHLR63CI0K3O","","72.19999980926514","img/animal4.png","75","73.10000014305115","2","1","2","1,0.5,0,1,0.5,0,0.5,0,1",""
"","html-keyboard-response","238","94676","0.0-238.0","3NXNZ5RS1BJ7SW58JA8KXI0RCW997M","A6THOSGKI6HQC","329E6HTMSWO7MPPIUTRHLR63CI0K3O","","null","<img src=""img/animal4.png"" style=""width:200px; border:14px solid green;"">","null","","","","","",""
"","image-keyboard-response","239","94757","0.0-239.0","3NXNZ5RS1BJ7SW58JA8KXI0RCW997M","A6THOSGKI6HQC","329E6HTMSWO7MPPIUTRHLR63CI0K3O","","80.5","img/animal4.png","75","81.29999995231628","2","1","2","1,0.5,0,1,0.5,0,0.5,0,1",""
"","html-keyboard-response","240","95059","0.0-240.0","3NXNZ5RS1BJ7SW58JA8KXI0RCW997M","A6THOSGKI6HQC","329E6HTMSWO7MPPIUTRHLR63CI0K3O","","null","<img src=""img/animal4.png"" style=""width:200px; border:14px solid green;"">","null","","","","","",""
"","image-keyboard-response","241","95157","0.0-241.0","3NXNZ5RS1BJ7SW58JA8KXI0RCW997M","A6THOSGKI6HQC","329E6HTMSWO7MPPIUTRHLR63CI0K3O","","96.30000019073486","img/animal4.png","75","97.20000004768372","2","0","2","1,0.5,0,1,0.5,0,0.5,0,1",""
"","html-keyboard-response","242","95459","0.0-242.0","3NXNZ5RS1BJ7SW58JA8KXI0RCW997M","A6THOSGKI6HQC","329E6HTMSWO7MPPIUTRHLR63CI0K3O","","null","<img src=""img/animal4.png"" style=""width:200px;border:14px solid red;"">","null","","","","","",""
"","image-keyboard-response","243","95517","0.0-243.0","3NXNZ5RS1BJ7SW58JA8KXI0RCW997M","A6THOSGKI6HQC","329E6HTMSWO7MPPIUTRHLR63CI0K3O","","56.799999952316284","img/animal1.png","75","57.700000047683716","2","1","1","1,0.5,0,1,0.5,0,0.5,0,1",""
"","html-keyboard-response","244","95820","0.0-244.0","3NXNZ5RS1BJ7SW58JA8KXI0RCW997M","A6THOSGKI6HQC","329E6HTMSWO7MPPIUTRHLR63CI0K3O","","null","<img src=""img/animal1.png"" style=""width:200px; border:14px solid green;"">","null","","","","","",""
"","image-keyboard-response","245","95870","0.0-245.0","3NXNZ5RS1BJ7SW58JA8KXI0RCW997M","A6THOSGKI6HQC","329E6HTMSWO7MPPIUTRHLR63CI0K3O","","48.700000047683716","img/animal3.png","75","49.5","2","0","3","1,0.5,0,1,0.5,0,0.5,0,1",""
"","html-keyboard-response","246","96172","0.0-246.0","3NXNZ5RS1BJ7SW58JA8KXI0RCW997M","A6THOSGKI6HQC","329E6HTMSWO7MPPIUTRHLR63CI0K3O","","null","<img src=""img/animal3.png"" style=""width:200px;border:14px solid red;"">","null","","","","","",""
"","image-keyboard-response","247","96285","0.0-247.0","3NXNZ5RS1BJ7SW58JA8KXI0RCW997M","A6THOSGKI6HQC","329E6HTMSWO7MPPIUTRHLR63CI0K3O","","111.79999995231628","img/animal3.png","75","112.70000004768372","2","0","3","1,0.5,0,1,0.5,0,0.5,0,1",""
"","html-keyboard-response","248","96587","0.0-248.0","3NXNZ5RS1BJ7SW58JA8KXI0RCW997M","A6THOSGKI6HQC","329E6HTMSWO7MPPIUTRHLR63CI0K3O","","null","<img src=""img/animal3.png"" style=""width:200px;border:14px solid red;"">","null","","","","","",""
"","image-keyboard-response","249","96685","0.0-249.0","3NXNZ5RS1BJ7SW58JA8KXI0RCW997M","A6THOSGKI6HQC","329E6HTMSWO7MPPIUTRHLR63CI0K3O","","97.40000009536743","img/animal1.png","75","98.20000004768372","2","0","1","1,0.5,0,1,0.5,0,0.5,0,1",""
"","html-keyboard-response","250","96988","0.0-250.0","3NXNZ5RS1BJ7SW58JA8KXI0RCW997M","A6THOSGKI6HQC","329E6HTMSWO7MPPIUTRHLR63CI0K3O","","null","<img src=""img/animal1.png"" style=""width:200px;border:14px solid red;"">","null","","","","","",""
"","image-keyboard-response","251","97077","0.0-251.0","3NXNZ5RS1BJ7SW58JA8KXI0RCW997M","A6THOSGKI6HQC","329E6HTMSWO7MPPIUTRHLR63CI0K3O","","87.80000019073486","img/animal1.png","75","88.70000004768372","2","0","1","1,0.5,0,1,0.5,0,0.5,0,1",""
"","html-keyboard-response","252","97380","0.0-252.0","3NXNZ5RS1BJ7SW58JA8KXI0RCW997M","A6THOSGKI6HQC","329E6HTMSWO7MPPIUTRHLR63CI0K3O","","null","<img src=""img/animal1.png"" style=""width:200px;border:14px solid red;"">","null","","","","","",""
"","image-keyboard-response","253","97917","0.0-253.0","3NXNZ5RS1BJ7SW58JA8KXI0RCW997M","A6THOSGKI6HQC","329E6HTMSWO7MPPIUTRHLR63CI0K3O","","536.3999998569489","img/animal3.png","75","537.2000000476837","2","0","3","1,0.5,0,1,0.5,0,0.5,0,1",""
"","html-keyboard-response","254","98218","0.0-254.0","3NXNZ5RS1BJ7SW58JA8KXI0RCW997M","A6THOSGKI6HQC","329E6HTMSWO7MPPIUTRHLR63CI0K3O","","null","<img src=""img/animal3.png"" style=""width:200px;border:14px solid red;"">","null","","","","","",""
"","image-keyboard-response","255","98317","0.0-255.0","3NXNZ5RS1BJ7SW58JA8KXI0RCW997M","A6THOSGKI6HQC","329E6HTMSWO7MPPIUTRHLR63CI0K3O","","97.5","img/animal4.png","75","98.39999985694885","2","0","2","1,0.5,0,1,0.5,0,0.5,0,1",""
"","html-keyboard-response","256","98619","0.0-256.0","3NXNZ5RS1BJ7SW58JA8KXI0RCW997M","A6THOSGKI6HQC","329E6HTMSWO7MPPIUTRHLR63CI0K3O","","null","<img src=""img/animal4.png"" style=""width:200px;border:14px solid red;"">","null","","","","","",""
"","image-keyboard-response","257","98749","0.0-257.0","3NXNZ5RS1BJ7SW58JA8KXI0RCW997M","A6THOSGKI6HQC","329E6HTMSWO7MPPIUTRHLR63CI0K3O","","128.5","img/animal4.png","75","129.29999995231628","2","0","2","1,0.5,0,1,0.5,0,0.5,0,1",""
"","html-keyboard-response","258","99051","0.0-258.0","3NXNZ5RS1BJ7SW58JA8KXI0RCW997M","A6THOSGKI6HQC","329E6HTMSWO7MPPIUTRHLR63CI0K3O","","null","<img src=""img/animal4.png"" style=""width:200px;border:14px solid red;"">","null","","","","","",""
"","image-keyboard-response","259","99188","0.0-259.0","3NXNZ5RS1BJ7SW58JA8KXI0RCW997M","A6THOSGKI6HQC","329E6HTMSWO7MPPIUTRHLR63CI0K3O","","136.40000009536743","img/animal1.png","75","137.29999995231628","2","0","1","1,0.5,0,1,0.5,0,0.5,0,1",""
"","html-keyboard-response","260","99491","0.0-260.0","3NXNZ5RS1BJ7SW58JA8KXI0RCW997M","A6THOSGKI6HQC","329E6HTMSWO7MPPIUTRHLR63CI0K3O","","null","<img src=""img/animal1.png"" style=""width:200px;border:14px solid red;"">","null","","","","","",""
"","image-keyboard-response","261","99605","0.0-261.0","3NXNZ5RS1BJ7SW58JA8KXI0RCW997M","A6THOSGKI6HQC","329E6HTMSWO7MPPIUTRHLR63CI0K3O","","113.29999995231628","img/animal4.png","75","114.20000004768372","2","1","2","1,0.5,0,1,0.5,0,0.5,0,1",""
"","html-keyboard-response","262","99908","0.0-262.0","3NXNZ5RS1BJ7SW58JA8KXI0RCW997M","A6THOSGKI6HQC","329E6HTMSWO7MPPIUTRHLR63CI0K3O","","null","<img src=""img/animal4.png"" style=""width:200px; border:14px solid green;"">","null","","","","","",""
"","image-keyboard-response","263","100021","0.0-263.0","3NXNZ5RS1BJ7SW58JA8KXI0RCW997M","A6THOSGKI6HQC","329E6HTMSWO7MPPIUTRHLR63CI0K3O","","111.90000009536743","img/animal1.png","75","112.59999990463257","2","1","1","1,0.5,0,1,0.5,0,0.5,0,1",""
"","html-keyboard-response","264","100323","0.0-264.0","3NXNZ5RS1BJ7SW58JA8KXI0RCW997M","A6THOSGKI6HQC","329E6HTMSWO7MPPIUTRHLR63CI0K3O","","null","<img src=""img/animal1.png"" style=""width:200px; border:14px solid green;"">","null","","","","","",""
"","image-keyboard-response","265","100429","0.0-265.0","3NXNZ5RS1BJ7SW58JA8KXI0RCW997M","A6THOSGKI6HQC","329E6HTMSWO7MPPIUTRHLR63CI0K3O","","105.39999985694885","img/animal4.png","75","106.19999980926514","2","0","2","1,0.5,0,1,0.5,0,0.5,0,1",""
"","html-keyboard-response","266","100732","0.0-266.0","3NXNZ5RS1BJ7SW58JA8KXI0RCW997M","A6THOSGKI6HQC","329E6HTMSWO7MPPIUTRHLR63CI0K3O","","null","<img src=""img/animal4.png"" style=""width:200px;border:14px solid red;"">","null","","","","","",""
"","image-keyboard-response","267","100829","0.0-267.0","3NXNZ5RS1BJ7SW58JA8KXI0RCW997M","A6THOSGKI6HQC","329E6HTMSWO7MPPIUTRHLR63CI0K3O","","96.79999995231628","img/animal1.png","75","97.5","2","0","1","1,0.5,0,1,0.5,0,0.5,0,1",""
"","html-keyboard-response","268","101131","0.0-268.0","3NXNZ5RS1BJ7SW58JA8KXI0RCW997M","A6THOSGKI6HQC","329E6HTMSWO7MPPIUTRHLR63CI0K3O","","null","<img src=""img/animal1.png"" style=""width:200px;border:14px solid red;"">","null","","","","","",""
"","image-keyboard-response","269","101196","0.0-269.0","3NXNZ5RS1BJ7SW58JA8KXI0RCW997M","A6THOSGKI6HQC","329E6HTMSWO7MPPIUTRHLR63CI0K3O","","64","img/animal1.png","75","64.80000019073486","2","0","1","1,0.5,0,1,0.5,0,0.5,0,1",""
"","html-keyboard-response","270","101499","0.0-270.0","3NXNZ5RS1BJ7SW58JA8KXI0RCW997M","A6THOSGKI6HQC","329E6HTMSWO7MPPIUTRHLR63CI0K3O","","null","<img src=""img/animal1.png"" style=""width:200px;border:14px solid red;"">","null","","","","","",""
"","image-keyboard-response","271","101556","0.0-271.0","3NXNZ5RS1BJ7SW58JA8KXI0RCW997M","A6THOSGKI6HQC","329E6HTMSWO7MPPIUTRHLR63CI0K3O","","56.10000014305115","img/animal1.png","75","57","2","1","1","1,0.5,0,1,0.5,0,0.5,0,1",""
"","html-keyboard-response","272","101859","0.0-272.0","3NXNZ5RS1BJ7SW58JA8KXI0RCW997M","A6THOSGKI6HQC","329E6HTMSWO7MPPIUTRHLR63CI0K3O","","null","<img src=""img/animal1.png"" style=""width:200px; border:14px solid green;"">","null","","","","","",""
"","image-keyboard-response","273","101933","0.0-273.0","3NXNZ5RS1BJ7SW58JA8KXI0RCW997M","A6THOSGKI6HQC","329E6HTMSWO7MPPIUTRHLR63CI0K3O","","73.09999990463257","img/animal1.png","75","74.09999990463257","2","0","1","1,0.5,0,1,0.5,0,0.5,0,1",""
"","html-keyboard-response","274","102236","0.0-274.0","3NXNZ5RS1BJ7SW58JA8KXI0RCW997M","A6THOSGKI6HQC","329E6HTMSWO7MPPIUTRHLR63CI0K3O","","null","<img src=""img/animal1.png"" style=""width:200px;border:14px solid red;"">","null","","","","","",""
"","image-keyboard-response","275","102285","0.0-275.0","3NXNZ5RS1BJ7SW58JA8KXI0RCW997M","A6THOSGKI6HQC","329E6HTMSWO7MPPIUTRHLR63CI0K3O","","48.09999990463257","img/animal1.png","75","49.10000014305115","2","0","1","1,0.5,0,1,0.5,0,0.5,0,1",""
"","html-keyboard-response","276","102588","0.0-276.0","3NXNZ5RS1BJ7SW58JA8KXI0RCW997M","A6THOSGKI6HQC","329E6HTMSWO7MPPIUTRHLR63CI0K3O","","null","<img src=""img/animal1.png"" style=""width:200px;border:14px solid red;"">","null","","","","","",""
"","image-keyboard-response","277","102646","0.0-277.0","3NXNZ5RS1BJ7SW58JA8KXI0RCW997M","A6THOSGKI6HQC","329E6HTMSWO7MPPIUTRHLR63CI0K3O","","56.700000047683716","img/animal4.png","75","57.5","2","1","2","1,0.5,0,1,0.5,0,0.5,0,1",""
"","html-keyboard-response","278","102948","0.0-278.0","3NXNZ5RS1BJ7SW58JA8KXI0RCW997M","A6THOSGKI6HQC","329E6HTMSWO7MPPIUTRHLR63CI0K3O","","null","<img src=""img/animal4.png"" style=""width:200px; border:14px solid green;"">","null","","","","","",""
"","image-keyboard-response","279","103077","0.0-279.0","3NXNZ5RS1BJ7SW58JA8KXI0RCW997M","A6THOSGKI6HQC","329E6HTMSWO7MPPIUTRHLR63CI0K3O","","128.09999990463257","img/animal3.png","75","128.90000009536743","2","0","3","1,0.5,0,1,0.5,0,0.5,0,1",""
"","html-keyboard-response","280","103380","0.0-280.0","3NXNZ5RS1BJ7SW58JA8KXI0RCW997M","A6THOSGKI6HQC","329E6HTMSWO7MPPIUTRHLR63CI0K3O","","null","<img src=""img/animal3.png"" style=""width:200px;border:14px solid red;"">","null","","","","","",""
"","image-keyboard-response","281","103500","0.0-281.0","3NXNZ5RS1BJ7SW58JA8KXI0RCW997M","A6THOSGKI6HQC","329E6HTMSWO7MPPIUTRHLR63CI0K3O","","119.69999980926514","img/animal4.png","75","120.60000014305115","2","1","2","1,0.5,0,1,0.5,0,0.5,0,1",""
"","html-keyboard-response","282","103803","0.0-282.0","3NXNZ5RS1BJ7SW58JA8KXI0RCW997M","A6THOSGKI6HQC","329E6HTMSWO7MPPIUTRHLR63CI0K3O","","null","<img src=""img/animal4.png"" style=""width:200px; border:14px solid green;"">","null","","","","","",""
"","image-keyboard-response","283","103925","0.0-283.0","3NXNZ5RS1BJ7SW58JA8KXI0RCW997M","A6THOSGKI6HQC","329E6HTMSWO7MPPIUTRHLR63CI0K3O","","121.10000014305115","img/animal4.png","75","121.90000009536743","2","1","2","1,0.5,0,1,0.5,0,0.5,0,1",""
"","html-keyboard-response","284","104226","0.0-284.0","3NXNZ5RS1BJ7SW58JA8KXI0RCW997M","A6THOSGKI6HQC","329E6HTMSWO7MPPIUTRHLR63CI0K3O","","null","<img src=""img/animal4.png"" style=""width:200px; border:14px solid green;"">","null","","","","","",""
"","image-keyboard-response","285","104341","0.0-285.0","3NXNZ5RS1BJ7SW58JA8KXI0RCW997M","A6THOSGKI6HQC","329E6HTMSWO7MPPIUTRHLR63CI0K3O","","113.40000009536743","img/animal4.png","75","114.09999990463257","2","1","2","1,0.5,0,1,0.5,0,0.5,0,1",""
"","html-keyboard-response","286","104643","0.0-286.0","3NXNZ5RS1BJ7SW58JA8KXI0RCW997M","A6THOSGKI6HQC","329E6HTMSWO7MPPIUTRHLR63CI0K3O","","null","<img src=""img/animal4.png"" style=""width:200px; border:14px solid green;"">","null","","","","","",""
"","image-keyboard-response","287","104709","0.0-287.0","3NXNZ5RS1BJ7SW58JA8KXI0RCW997M","A6THOSGKI6HQC","329E6HTMSWO7MPPIUTRHLR63CI0K3O","","64.80000019073486","img/animal3.png","75","65.79999995231628","2","0","3","1,0.5,0,1,0.5,0,0.5,0,1",""
"","html-keyboard-response","288","105011","0.0-288.0","3NXNZ5RS1BJ7SW58JA8KXI0RCW997M","A6THOSGKI6HQC","329E6HTMSWO7MPPIUTRHLR63CI0K3O","","null","<img src=""img/animal3.png"" style=""width:200px;border:14px solid red;"">","null","","","","","",""
"","image-keyboard-response","289","105109","0.0-289.0","3NXNZ5RS1BJ7SW58JA8KXI0RCW997M","A6THOSGKI6HQC","329E6HTMSWO7MPPIUTRHLR63CI0K3O","","96.89999985694885","img/animal4.png","75","97.69999980926514","2","1","2","1,0.5,0,1,0.5,0,0.5,0,1",""
"","html-keyboard-response","290","105412","0.0-290.0","3NXNZ5RS1BJ7SW58JA8KXI0RCW997M","A6THOSGKI6HQC","329E6HTMSWO7MPPIUTRHLR63CI0K3O","","null","<img src=""img/animal4.png"" style=""width:200px; border:14px solid green;"">","null","","","","","",""
"","image-keyboard-response","291","105509","0.0-291.0","3NXNZ5RS1BJ7SW58JA8KXI0RCW997M","A6THOSGKI6HQC","329E6HTMSWO7MPPIUTRHLR63CI0K3O","","95.70000004768372","img/animal3.png","75","96.59999990463257","2","0","3","1,0.5,0,1,0.5,0,0.5,0,1",""
"","html-keyboard-response","292","105811","0.0-292.0","3NXNZ5RS1BJ7SW58JA8KXI0RCW997M","A6THOSGKI6HQC","329E6HTMSWO7MPPIUTRHLR63CI0K3O","","null","<img src=""img/animal3.png"" style=""width:200px;border:14px solid red;"">","null","","","","","",""
"","image-keyboard-response","293","105948","0.0-293.0","3NXNZ5RS1BJ7SW58JA8KXI0RCW997M","A6THOSGKI6HQC","329E6HTMSWO7MPPIUTRHLR63CI0K3O","","135.89999985694885","img/animal4.png","75","136.80000019073486","2","1","2","1,0.5,0,1,0.5,0,0.5,0,1",""
"","html-keyboard-response","294","106251","0.0-294.0","3NXNZ5RS1BJ7SW58JA8KXI0RCW997M","A6THOSGKI6HQC","329E6HTMSWO7MPPIUTRHLR63CI0K3O","","null","<img src=""img/animal4.png"" style=""width:200px; border:14px solid green;"">","null","","","","","",""
"","image-keyboard-response","295","106397","0.0-295.0","3NXNZ5RS1BJ7SW58JA8KXI0RCW997M","A6THOSGKI6HQC","329E6HTMSWO7MPPIUTRHLR63CI0K3O","","145.09999990463257","img/animal4.png","75","146","2","1","2","1,0.5,0,1,0.5,0,0.5,0,1",""
"","html-keyboard-response","296","106699","0.0-296.0","3NXNZ5RS1BJ7SW58JA8KXI0RCW997M","A6THOSGKI6HQC","329E6HTMSWO7MPPIUTRHLR63CI0K3O","","null","<img src=""img/animal4.png"" style=""width:200px; border:14px solid green;"">","null","","","","","",""
"","image-keyboard-response","297","106805","0.0-297.0","3NXNZ5RS1BJ7SW58JA8KXI0RCW997M","A6THOSGKI6HQC","329E6HTMSWO7MPPIUTRHLR63CI0K3O","","105.39999985694885","img/animal3.png","75","106.29999995231628","2","0","3","1,0.5,0,1,0.5,0,0.5,0,1",""
"","html-keyboard-response","298","107108","0.0-298.0","3NXNZ5RS1BJ7SW58JA8KXI0RCW997M","A6THOSGKI6HQC","329E6HTMSWO7MPPIUTRHLR63CI0K3O","","null","<img src=""img/animal3.png"" style=""width:200px;border:14px solid red;"">","null","","","","","",""
"","image-keyboard-response","299","107236","0.0-299.0","3NXNZ5RS1BJ7SW58JA8KXI0RCW997M","A6THOSGKI6HQC","329E6HTMSWO7MPPIUTRHLR63CI0K3O","","128","img/animal1.png","75","128.79999995231628","2","1","1","1,0.5,0,1,0.5,0,0.5,0,1",""
"","html-keyboard-response","300","107538","0.0-300.0","3NXNZ5RS1BJ7SW58JA8KXI0RCW997M","A6THOSGKI6HQC","329E6HTMSWO7MPPIUTRHLR63CI0K3O","","null","<img src=""img/animal1.png"" style=""width:200px; border:14px solid green;"">","null","","","","","",""
"","image-keyboard-response","301","107661","0.0-301.0","3NXNZ5RS1BJ7SW58JA8KXI0RCW997M","A6THOSGKI6HQC","329E6HTMSWO7MPPIUTRHLR63CI0K3O","","121.90000009536743","img/animal1.png","75","122.70000004768372","2","1","1","1,0.5,0,1,0.5,0,0.5,0,1",""
"","html-keyboard-response","302","107962","0.0-302.0","3NXNZ5RS1BJ7SW58JA8KXI0RCW997M","A6THOSGKI6HQC","329E6HTMSWO7MPPIUTRHLR63CI0K3O","","null","<img src=""img/animal1.png"" style=""width:200px; border:14px solid green;"">","null","","","","","",""
"","image-keyboard-response","303","108077","0.0-303.0","3NXNZ5RS1BJ7SW58JA8KXI0RCW997M","A6THOSGKI6HQC","329E6HTMSWO7MPPIUTRHLR63CI0K3O","","113.79999995231628","img/animal4.png","75","114.59999990463257","2","1","2","1,0.5,0,1,0.5,0,0.5,0,1",""
"","html-keyboard-response","304","108380","0.0-304.0","3NXNZ5RS1BJ7SW58JA8KXI0RCW997M","A6THOSGKI6HQC","329E6HTMSWO7MPPIUTRHLR63CI0K3O","","null","<img src=""img/animal4.png"" style=""width:200px; border:14px solid green;"">","null","","","","","",""
"","image-keyboard-response","305","108485","0.0-305.0","3NXNZ5RS1BJ7SW58JA8KXI0RCW997M","A6THOSGKI6HQC","329E6HTMSWO7MPPIUTRHLR63CI0K3O","","103.60000014305115","img/animal3.png","75","104.5","2","0","3","1,0.5,0,1,0.5,0,0.5,0,1",""
"","html-keyboard-response","306","108787","0.0-306.0","3NXNZ5RS1BJ7SW58JA8KXI0RCW997M","A6THOSGKI6HQC","329E6HTMSWO7MPPIUTRHLR63CI0K3O","","null","<img src=""img/animal3.png"" style=""width:200px;border:14px solid red;"">","null","","","","","",""
"","image-keyboard-response","307","108901","0.0-307.0","3NXNZ5RS1BJ7SW58JA8KXI0RCW997M","A6THOSGKI6HQC","329E6HTMSWO7MPPIUTRHLR63CI0K3O","","112.79999995231628","img/animal4.png","75","113.79999995231628","2","1","2","1,0.5,0,1,0.5,0,0.5,0,1",""
"","html-keyboard-response","308","109204","0.0-308.0","3NXNZ5RS1BJ7SW58JA8KXI0RCW997M","A6THOSGKI6HQC","329E6HTMSWO7MPPIUTRHLR63CI0K3O","","null","<img src=""img/animal4.png"" style=""width:200px; border:14px solid green;"">","null","","","","","",""
"","image-keyboard-response","309","109325","0.0-309.0","3NXNZ5RS1BJ7SW58JA8KXI0RCW997M","A6THOSGKI6HQC","329E6HTMSWO7MPPIUTRHLR63CI0K3O","","120.20000004768372","img/animal4.png","75","121.29999995231628","2","1","2","1,0.5,0,1,0.5,0,0.5,0,1",""
"","html-keyboard-response","310","109628","0.0-310.0","3NXNZ5RS1BJ7SW58JA8KXI0RCW997M","A6THOSGKI6HQC","329E6HTMSWO7MPPIUTRHLR63CI0K3O","","null","<img src=""img/animal4.png"" style=""width:200px; border:14px solid green;"">","null","","","","","",""
"","image-keyboard-response","311","109740","0.0-311.0","3NXNZ5RS1BJ7SW58JA8KXI0RCW997M","A6THOSGKI6HQC","329E6HTMSWO7MPPIUTRHLR63CI0K3O","","111.69999980926514","img/animal3.png","75","112.39999985694885","2","0","3","1,0.5,0,1,0.5,0,0.5,0,1",""
"","html-keyboard-response","312","110043","0.0-312.0","3NXNZ5RS1BJ7SW58JA8KXI0RCW997M","A6THOSGKI6HQC","329E6HTMSWO7MPPIUTRHLR63CI0K3O","","null","<img src=""img/animal3.png"" style=""width:200px;border:14px solid red;"">","null","","","","","",""
"","image-keyboard-response","313","110141","0.0-313.0","3NXNZ5RS1BJ7SW58JA8KXI0RCW997M","A6THOSGKI6HQC","329E6HTMSWO7MPPIUTRHLR63CI0K3O","","96.89999985694885","img/animal3.png","75","97.89999985694885","2","0","3","1,0.5,0,1,0.5,0,0.5,0,1",""
"","html-keyboard-response","314","110442","0.0-314.0","3NXNZ5RS1BJ7SW58JA8KXI0RCW997M","A6THOSGKI6HQC","329E6HTMSWO7MPPIUTRHLR63CI0K3O","","null","<img src=""img/animal3.png"" style=""width:200px;border:14px solid red;"">","null","","","","","",""
"","image-keyboard-response","315","110532","0.0-315.0","3NXNZ5RS1BJ7SW58JA8KXI0RCW997M","A6THOSGKI6HQC","329E6HTMSWO7MPPIUTRHLR63CI0K3O","","89","img/animal1.png","75","89.90000009536743","2","1","1","1,0.5,0,1,0.5,0,0.5,0,1",""
"","html-keyboard-response","316","110834","0.0-316.0","3NXNZ5RS1BJ7SW58JA8KXI0RCW997M","A6THOSGKI6HQC","329E6HTMSWO7MPPIUTRHLR63CI0K3O","","null","<img src=""img/animal1.png"" style=""width:200px; border:14px solid green;"">","null","","","","","",""
"","image-keyboard-response","317","110933","0.0-317.0","3NXNZ5RS1BJ7SW58JA8KXI0RCW997M","A6THOSGKI6HQC","329E6HTMSWO7MPPIUTRHLR63CI0K3O","","97.10000014305115","img/animal1.png","75","98","2","0","1","1,0.5,0,1,0.5,0,0.5,0,1",""
"","html-keyboard-response","318","111235","0.0-318.0","3NXNZ5RS1BJ7SW58JA8KXI0RCW997M","A6THOSGKI6HQC","329E6HTMSWO7MPPIUTRHLR63CI0K3O","","null","<img src=""img/animal1.png"" style=""width:200px;border:14px solid red;"">","null","","","","","",""
"","image-keyboard-response","319","111316","0.0-319.0","3NXNZ5RS1BJ7SW58JA8KXI0RCW997M","A6THOSGKI6HQC","329E6HTMSWO7MPPIUTRHLR63CI0K3O","","79.79999995231628","img/animal4.png","75","80.79999995231628","2","0","2","1,0.5,0,1,0.5,0,0.5,0,1",""
"","html-keyboard-response","320","111619","0.0-320.0","3NXNZ5RS1BJ7SW58JA8KXI0RCW997M","A6THOSGKI6HQC","329E6HTMSWO7MPPIUTRHLR63CI0K3O","","null","<img src=""img/animal4.png"" style=""width:200px;border:14px solid red;"">","null","","","","","",""
"","image-keyboard-response","321","111748","0.0-321.0","3NXNZ5RS1BJ7SW58JA8KXI0RCW997M","A6THOSGKI6HQC","329E6HTMSWO7MPPIUTRHLR63CI0K3O","","128.29999995231628","img/animal3.png","75","129","2","0","3","1,0.5,0,1,0.5,0,0.5,0,1",""
"","html-keyboard-response","322","112051","0.0-322.0","3NXNZ5RS1BJ7SW58JA8KXI0RCW997M","A6THOSGKI6HQC","329E6HTMSWO7MPPIUTRHLR63CI0K3O","","null","<img src=""img/animal3.png"" style=""width:200px;border:14px solid red;"">","null","","","","","",""
"","image-keyboard-response","323","112197","0.0-323.0","3NXNZ5RS1BJ7SW58JA8KXI0RCW997M","A6THOSGKI6HQC","329E6HTMSWO7MPPIUTRHLR63CI0K3O","","144.70000004768372","img/animal3.png","75","145.5","2","0","3","1,0.5,0,1,0.5,0,0.5,0,1",""
"","html-keyboard-response","324","112499","0.0-324.0","3NXNZ5RS1BJ7SW58JA8KXI0RCW997M","A6THOSGKI6HQC","329E6HTMSWO7MPPIUTRHLR63CI0K3O","","null","<img src=""img/animal3.png"" style=""width:200px;border:14px solid red;"">","null","","","","","",""
"","image-keyboard-response","325","112668","0.0-325.0","3NXNZ5RS1BJ7SW58JA8KXI0RCW997M","A6THOSGKI6HQC","329E6HTMSWO7MPPIUTRHLR63CI0K3O","","168.30000019073486","img/animal1.png","75","169.09999990463257","2","1","1","1,0.5,0,1,0.5,0,0.5,0,1",""
"","html-keyboard-response","326","112971","0.0-326.0","3NXNZ5RS1BJ7SW58JA8KXI0RCW997M","A6THOSGKI6HQC","329E6HTMSWO7MPPIUTRHLR63CI0K3O","","null","<img src=""img/animal1.png"" style=""width:200px; border:14px solid green;"">","null","","","","","",""
"","image-keyboard-response","327","113092","0.0-327.0","3NXNZ5RS1BJ7SW58JA8KXI0RCW997M","A6THOSGKI6HQC","329E6HTMSWO7MPPIUTRHLR63CI0K3O","","120.70000004768372","img/animal4.png","75","121.5","2","0","2","1,0.5,0,1,0.5,0,0.5,0,1",""
"","html-keyboard-response","328","113395","0.0-328.0","3NXNZ5RS1BJ7SW58JA8KXI0RCW997M","A6THOSGKI6HQC","329E6HTMSWO7MPPIUTRHLR63CI0K3O","","null","<img src=""img/animal4.png"" style=""width:200px;border:14px solid red;"">","null","","","","","",""
"","image-keyboard-response","329","113493","0.0-329.0","3NXNZ5RS1BJ7SW58JA8KXI0RCW997M","A6THOSGKI6HQC","329E6HTMSWO7MPPIUTRHLR63CI0K3O","","97.10000014305115","img/animal1.png","75","98","2","0","1","1,0.5,0,1,0.5,0,0.5,0,1",""
"","html-keyboard-response","330","113795","0.0-330.0","3NXNZ5RS1BJ7SW58JA8KXI0RCW997M","A6THOSGKI6HQC","329E6HTMSWO7MPPIUTRHLR63CI0K3O","","null","<img src=""img/animal1.png"" style=""width:200px;border:14px solid red;"">","null","","","","","",""
"","image-keyboard-response","331","113933","0.0-331.0","3NXNZ5RS1BJ7SW58JA8KXI0RCW997M","A6THOSGKI6HQC","329E6HTMSWO7MPPIUTRHLR63CI0K3O","","136.39999985694885","img/animal4.png","75","137.5","2","1","2","1,0.5,0,1,0.5,0,0.5,0,1",""
"","html-keyboard-response","332","114236","0.0-332.0","3NXNZ5RS1BJ7SW58JA8KXI0RCW997M","A6THOSGKI6HQC","329E6HTMSWO7MPPIUTRHLR63CI0K3O","","null","<img src=""img/animal4.png"" style=""width:200px; border:14px solid green;"">","null","","","","","",""
"","image-keyboard-response","333","114405","0.0-333.0","3NXNZ5RS1BJ7SW58JA8KXI0RCW997M","A6THOSGKI6HQC","329E6HTMSWO7MPPIUTRHLR63CI0K3O","","167.40000009536743","img/animal3.png","75","168.20000004768372","2","0","3","1,0.5,0,1,0.5,0,0.5,0,1",""
"","html-keyboard-response","334","114707","0.0-334.0","3NXNZ5RS1BJ7SW58JA8KXI0RCW997M","A6THOSGKI6HQC","329E6HTMSWO7MPPIUTRHLR63CI0K3O","","null","<img src=""img/animal3.png"" style=""width:200px;border:14px solid red;"">","null","","","","","",""
"","image-keyboard-response","335","114908","0.0-335.0","3NXNZ5RS1BJ7SW58JA8KXI0RCW997M","A6THOSGKI6HQC","329E6HTMSWO7MPPIUTRHLR63CI0K3O","","199.79999995231628","img/animal4.png","75","200.89999985694885","2","0","2","1,0.5,0,1,0.5,0,0.5,0,1",""
"","html-keyboard-response","336","115211","0.0-336.0","3NXNZ5RS1BJ7SW58JA8KXI0RCW997M","A6THOSGKI6HQC","329E6HTMSWO7MPPIUTRHLR63CI0K3O","","null","<img src=""img/animal4.png"" style=""width:200px;border:14px solid red;"">","null","","","","","",""
"","image-keyboard-response","337","115356","0.0-337.0","3NXNZ5RS1BJ7SW58JA8KXI0RCW997M","A6THOSGKI6HQC","329E6HTMSWO7MPPIUTRHLR63CI0K3O","","144.29999995231628","img/animal4.png","75","145.20000004768372","2","0","2","1,0.5,0,1,0.5,0,0.5,0,1",""
"","html-keyboard-response","338","115659","0.0-338.0","3NXNZ5RS1BJ7SW58JA8KXI0RCW997M","A6THOSGKI6HQC","329E6HTMSWO7MPPIUTRHLR63CI0K3O","","null","<img src=""img/animal4.png"" style=""width:200px;border:14px solid red;"">","null","","","","","",""
"","image-keyboard-response","339","115804","0.0-339.0","3NXNZ5RS1BJ7SW58JA8KXI0RCW997M","A6THOSGKI6HQC","329E6HTMSWO7MPPIUTRHLR63CI0K3O","","144.40000009536743","img/animal3.png","75","145.29999995231628","2","0","3","1,0.5,0,1,0.5,0,0.5,0,1",""
"","html-keyboard-response","340","116107","0.0-340.0","3NXNZ5RS1BJ7SW58JA8KXI0RCW997M","A6THOSGKI6HQC","329E6HTMSWO7MPPIUTRHLR63CI0K3O","","null","<img src=""img/animal3.png"" style=""width:200px;border:14px solid red;"">","null","","","","","",""
"","image-keyboard-response","341","116261","0.0-341.0","3NXNZ5RS1BJ7SW58JA8KXI0RCW997M","A6THOSGKI6HQC","329E6HTMSWO7MPPIUTRHLR63CI0K3O","","153.09999990463257","img/animal3.png","75","154","2","0","3","1,0.5,0,1,0.5,0,0.5,0,1",""
"","html-keyboard-response","342","116564","0.0-342.0","3NXNZ5RS1BJ7SW58JA8KXI0RCW997M","A6THOSGKI6HQC","329E6HTMSWO7MPPIUTRHLR63CI0K3O","","null","<img src=""img/animal3.png"" style=""width:200px;border:14px solid red;"">","null","","","","","",""
"","image-keyboard-response","343","116708","0.0-343.0","3NXNZ5RS1BJ7SW58JA8KXI0RCW997M","A6THOSGKI6HQC","329E6HTMSWO7MPPIUTRHLR63CI0K3O","","143.60000014305115","img/animal1.png","75","144.39999985694885","2","1","1","1,0.5,0,1,0.5,0,0.5,0,1",""
"","html-keyboard-response","344","117010","0.0-344.0","3NXNZ5RS1BJ7SW58JA8KXI0RCW997M","A6THOSGKI6HQC","329E6HTMSWO7MPPIUTRHLR63CI0K3O","","null","<img src=""img/animal1.png"" style=""width:200px; border:14px solid green;"">","null","","","","","",""
"","image-keyboard-response","345","117149","0.0-345.0","3NXNZ5RS1BJ7SW58JA8KXI0RCW997M","A6THOSGKI6HQC","329E6HTMSWO7MPPIUTRHLR63CI0K3O","","137.40000009536743","img/animal3.png","75","138.20000004768372","2","0","3","1,0.5,0,1,0.5,0,0.5,0,1",""
"","html-keyboard-response","346","117451","0.0-346.0","3NXNZ5RS1BJ7SW58JA8KXI0RCW997M","A6THOSGKI6HQC","329E6HTMSWO7MPPIUTRHLR63CI0K3O","","null","<img src=""img/animal3.png"" style=""width:200px;border:14px solid red;"">","null","","","","","",""
"","image-keyboard-response","347","117581","0.0-347.0","3NXNZ5RS1BJ7SW58JA8KXI0RCW997M","A6THOSGKI6HQC","329E6HTMSWO7MPPIUTRHLR63CI0K3O","","128.30000019073486","img/animal1.png","75","129.20000004768372","2","1","1","1,0.5,0,1,0.5,0,0.5,0,1",""
"","html-keyboard-response","348","117883","0.0-348.0","3NXNZ5RS1BJ7SW58JA8KXI0RCW997M","A6THOSGKI6HQC","329E6HTMSWO7MPPIUTRHLR63CI0K3O","","null","<img src=""img/animal1.png"" style=""width:200px; border:14px solid green;"">","null","","","","","",""
"","image-keyboard-response","349","118052","0.0-349.0","3NXNZ5RS1BJ7SW58JA8KXI0RCW997M","A6THOSGKI6HQC","329E6HTMSWO7MPPIUTRHLR63CI0K3O","","167.79999995231628","img/animal3.png","75","168.70000004768372","2","0","3","1,0.5,0,1,0.5,0,0.5,0,1",""
"","html-keyboard-response","350","118354","0.0-350.0","3NXNZ5RS1BJ7SW58JA8KXI0RCW997M","A6THOSGKI6HQC","329E6HTMSWO7MPPIUTRHLR63CI0K3O","","null","<img src=""img/animal3.png"" style=""width:200px;border:14px solid red;"">","null","","","","","",""
"","image-keyboard-response","351","118492","0.0-351.0","3NXNZ5RS1BJ7SW58JA8KXI0RCW997M","A6THOSGKI6HQC","329E6HTMSWO7MPPIUTRHLR63CI0K3O","","137.09999990463257","img/animal4.png","75","138","2","0","2","1,0.5,0,1,0.5,0,0.5,0,1",""
"","html-keyboard-response","352","118795","0.0-352.0","3NXNZ5RS1BJ7SW58JA8KXI0RCW997M","A6THOSGKI6HQC","329E6HTMSWO7MPPIUTRHLR63CI0K3O","","null","<img src=""img/animal4.png"" style=""width:200px;border:14px solid red;"">","null","","","","","",""
"","image-keyboard-response","353","119517","0.0-353.0","3NXNZ5RS1BJ7SW58JA8KXI0RCW997M","A6THOSGKI6HQC","329E6HTMSWO7MPPIUTRHLR63CI0K3O","","721.0999999046326","img/animal3.png","75","721.7999999523163","2","0","3","1,0.5,0,1,0.5,0,0.5,0,1",""
"","html-keyboard-response","354","119819","0.0-354.0","3NXNZ5RS1BJ7SW58JA8KXI0RCW997M","A6THOSGKI6HQC","329E6HTMSWO7MPPIUTRHLR63CI0K3O","","null","<img src=""img/animal3.png"" style=""width:200px;border:14px solid red;"">","null","","","","","",""
"","image-keyboard-response","355","134868","0.0-355.0","3NXNZ5RS1BJ7SW58JA8KXI0RCW997M","A6THOSGKI6HQC","329E6HTMSWO7MPPIUTRHLR63CI0K3O","","15047.5","img/animal1.png","75","15048.600000143051","2","0","1","1,0.5,0,1,0.5,0,0.5,0,1",""
"","html-keyboard-response","356","135170","0.0-356.0","3NXNZ5RS1BJ7SW58JA8KXI0RCW997M","A6THOSGKI6HQC","329E6HTMSWO7MPPIUTRHLR63CI0K3O","","null","<img src=""img/animal1.png"" style=""width:200px;border:14px solid red;"">","null","","","","","",""
"","image-keyboard-response","357","135203","0.0-357.0","3NXNZ5RS1BJ7SW58JA8KXI0RCW997M","A6THOSGKI6HQC","329E6HTMSWO7MPPIUTRHLR63CI0K3O","","32.39999985694885","img/animal3.png","75","33.09999990463257","2","0","3","1,0.5,0,1,0.5,0,0.5,0,1",""
"","html-keyboard-response","358","135506","0.0-358.0","3NXNZ5RS1BJ7SW58JA8KXI0RCW997M","A6THOSGKI6HQC","329E6HTMSWO7MPPIUTRHLR63CI0K3O","","null","<img src=""img/animal3.png"" style=""width:200px;border:14px solid red;"">","null","","","","","",""
"","image-keyboard-response","359","135540","0.0-359.0","3NXNZ5RS1BJ7SW58JA8KXI0RCW997M","A6THOSGKI6HQC","329E6HTMSWO7MPPIUTRHLR63CI0K3O","","33.299999952316284","img/animal4.png","75","34.10000014305115","2","1","2","1,0.5,0,1,0.5,0,0.5,0,1",""
"","html-keyboard-response","360","135843","0.0-360.0","3NXNZ5RS1BJ7SW58JA8KXI0RCW997M","A6THOSGKI6HQC","329E6HTMSWO7MPPIUTRHLR63CI0K3O","","null","<img src=""img/animal4.png"" style=""width:200px; border:14px solid green;"">","null","","","","","",""
"","image-keyboard-response","361","148084","0.0-361.0","3NXNZ5RS1BJ7SW58JA8KXI0RCW997M","A6THOSGKI6HQC","329E6HTMSWO7MPPIUTRHLR63CI0K3O","","12239.799999952316","img/animal1.png","75","12240.700000047684","2","1","1","1,0.5,0,1,0.5,0,0.5,0,1",""
"","html-keyboard-response","362","148386","0.0-362.0","3NXNZ5RS1BJ7SW58JA8KXI0RCW997M","A6THOSGKI6HQC","329E6HTMSWO7MPPIUTRHLR63CI0K3O","","null","<img src=""img/animal1.png"" style=""width:200px; border:14px solid green;"">","null","","","","","",""
"","instructions","363","150861","0.0-363.0","3NXNZ5RS1BJ7SW58JA8KXI0RCW997M","A6THOSGKI6HQC","329E6HTMSWO7MPPIUTRHLR63CI0K3O","[{""page_index"":0,""viewing_time"":2474.399999856949}]","2474.7000000476837","","","","","","","",""
"","survey-text","364","164886","0.0-364.0","3NXNZ5RS1BJ7SW58JA8KXI0RCW997M","A6THOSGKI6HQC","329E6HTMSWO7MPPIUTRHLR63CI0K3O","","14022.099999904633","","","","","","","","{""Q0"":""A6THOSGKI6HQC""}"
