"success","trial_type","trial_index","time_elapsed","internal_node_id","assignmentID","mturkID","hitID","view_history","rt","stimulus","key_press","reactionTime","a","r","s","reward_cond","responses"
"true","fullscreen","0","4950","0.0-0.0","3SPJ033422PFDSEISVPXZPYRA04JY0","ABX5OQLR6UNBC","3S829FDFT2NBOHQMM1CIOU0HZYXDXL","","","","","","","","","",""
"","instructions","1","30229","0.0-1.0","3SPJ033422PFDSEISVPXZPYRA04JY0","ABX5OQLR6UNBC","3S829FDFT2NBOHQMM1CIOU0HZYXDXL","[{""page_index"":0,""viewing_time"":11731.5},{""page_index"":1,""viewing_time"":1191.8999999985099},{""page_index"":2,""viewing_time"":1216.1000000014901},{""page_index"":3,""viewing_time"":5144},{""page_index"":4,""viewing_time"":2399.89999999851},{""page_index"":5,""viewing_time"":1503.8999999985099},{""page_index"":6,""viewing_time"":1096},{""page_index"":7,""viewing_time"":992.1000000014901}]","25275.79999999702","","","","","","","",""
"","image-keyboard-response","2","32220","0.0-2.0","3SPJ033422PFDSEISVPXZPYRA04JY0","ABX5OQLR6UNBC","3S829FDFT2NBOHQMM1CIOU0HZYXDXL","","1990.8000000044703","img/animal4.png","74","1991.9000000059605","1","1","2","0.5,0,1,1,0.5,0,0,1,0.5",""
"","html-keyboard-response","3","32523","0.0-3.0","3SPJ033422PFDSEISVPXZPYRA04JY0","ABX5OQLR6UNBC","3S829FDFT2NBOHQMM1CIOU0HZYXDXL","","null","<img src=""img/animal4.png"" style=""width:200px; border:14px solid green;"">","null","","","","","",""
"","image-keyboard-response","4","33149","0.0-4.0","3SPJ033422PFDSEISVPXZPYRA04JY0","ABX5OQLR6UNBC","3S829FDFT2NBOHQMM1CIOU0HZYXDXL","","624.7000000029802","img/animal4.png","74","625.5","1","1","2","0.5,0,1,1,0.5,0,0,1,0.5",""
"","html-keyboard-response","5","33451","0.0-5.0","3SPJ033422PFDSEISVPXZPYRA04JY0","ABX5OQLR6UNBC","3S829FDFT2NBOHQMM1CIOU0HZYXDXL","","null","<img src=""img/animal4.png"" style=""width:200px; border:14px solid green;"">","null","","","","","",""
"","image-keyboard-response","6","34181","0.0-6.0","3SPJ033422PFDSEISVPXZPYRA04JY0","ABX5OQLR6UNBC","3S829FDFT2NBOHQMM1CIOU0HZYXDXL","","727.6999999955297","img/animal6.png","75","729.1000000014901","2","0","1","0.5,0,1,1,0.5,0,0,1,0.5",""
"","html-keyboard-response","7","34483","0.0-7.0","3SPJ033422PFDSEISVPXZPYRA04JY0","ABX5OQLR6UNBC","3S829FDFT2NBOHQMM1CIOU0HZYXDXL","","null","<img src=""img/animal6.png"" style=""width:200px;border:14px solid red;"">","null","","","","","",""
"","image-keyboard-response","8","34845","0.0-8.0","3SPJ033422PFDSEISVPXZPYRA04JY0","ABX5OQLR6UNBC","3S829FDFT2NBOHQMM1CIOU0HZYXDXL","","359.80000000447035","img/animal6.png","76","361.20000000298023","3","1","1","0.5,0,1,1,0.5,0,0,1,0.5",""
"","html-keyboard-response","9","35148","0.0-9.0","3SPJ033422PFDSEISVPXZPYRA04JY0","ABX5OQLR6UNBC","3S829FDFT2NBOHQMM1CIOU0HZYXDXL","","null","<img src=""img/animal6.png"" style=""width:200px; border:14px solid green;"">","null","","","","","",""
"","image-keyboard-response","10","35853","0.0-10.0","3SPJ033422PFDSEISVPXZPYRA04JY0","ABX5OQLR6UNBC","3S829FDFT2NBOHQMM1CIOU0HZYXDXL","","703.7000000029802","img/animal4.png","74","704.9000000059605","1","1","2","0.5,0,1,1,0.5,0,0,1,0.5",""
"","html-keyboard-response","11","36155","0.0-11.0","3SPJ033422PFDSEISVPXZPYRA04JY0","ABX5OQLR6UNBC","3S829FDFT2NBOHQMM1CIOU0HZYXDXL","","null","<img src=""img/animal4.png"" style=""width:200px; border:14px solid green;"">","null","","","","","",""
"","image-keyboard-response","12","37060","0.0-12.0","3SPJ033422PFDSEISVPXZPYRA04JY0","ABX5OQLR6UNBC","3S829FDFT2NBOHQMM1CIOU0HZYXDXL","","903.1000000014901","img/animal1.png","75","904.1000000014901","2","1","3","0.5,0,1,1,0.5,0,0,1,0.5",""
"","html-keyboard-response","13","37362","0.0-13.0","3SPJ033422PFDSEISVPXZPYRA04JY0","ABX5OQLR6UNBC","3S829FDFT2NBOHQMM1CIOU0HZYXDXL","","null","<img src=""img/animal1.png"" style=""width:200px; border:14px solid green;"">","null","","","","","",""
"","image-keyboard-response","14","37956","0.0-14.0","3SPJ033422PFDSEISVPXZPYRA04JY0","ABX5OQLR6UNBC","3S829FDFT2NBOHQMM1CIOU0HZYXDXL","","592.5","img/animal1.png","75","593.7000000029802","2","1","3","0.5,0,1,1,0.5,0,0,1,0.5",""
"","html-keyboard-response","15","38258","0.0-15.0","3SPJ033422PFDSEISVPXZPYRA04JY0","ABX5OQLR6UNBC","3S829FDFT2NBOHQMM1CIOU0HZYXDXL","","null","<img src=""img/animal1.png"" style=""width:200px; border:14px solid green;"">","null","","","","","",""
"","image-keyboard-response","16","38701","0.0-16.0","3SPJ033422PFDSEISVPXZPYRA04JY0","ABX5OQLR6UNBC","3S829FDFT2NBOHQMM1CIOU0HZYXDXL","","441.3999999985099","img/animal1.png","75","442.70000000298023","2","1","3","0.5,0,1,1,0.5,0,0,1,0.5",""
"","html-keyboard-response","17","39003","0.0-17.0","3SPJ033422PFDSEISVPXZPYRA04JY0","ABX5OQLR6UNBC","3S829FDFT2NBOHQMM1CIOU0HZYXDXL","","null","<img src=""img/animal1.png"" style=""width:200px; border:14px solid green;"">","null","","","","","",""
"","image-keyboard-response","18","39404","0.0-18.0","3SPJ033422PFDSEISVPXZPYRA04JY0","ABX5OQLR6UNBC","3S829FDFT2NBOHQMM1CIOU0HZYXDXL","","401","img/animal1.png","75","401.69999999552965","2","1","3","0.5,0,1,1,0.5,0,0,1,0.5",""
"","html-keyboard-response","19","39707","0.0-19.0","3SPJ033422PFDSEISVPXZPYRA04JY0","ABX5OQLR6UNBC","3S829FDFT2NBOHQMM1CIOU0HZYXDXL","","null","<img src=""img/animal1.png"" style=""width:200px; border:14px solid green;"">","null","","","","","",""
"","image-keyboard-response","20","40141","0.0-20.0","3SPJ033422PFDSEISVPXZPYRA04JY0","ABX5OQLR6UNBC","3S829FDFT2NBOHQMM1CIOU0HZYXDXL","","432.20000000298023","img/animal1.png","75","433.6000000014901","2","1","3","0.5,0,1,1,0.5,0,0,1,0.5",""
"","html-keyboard-response","21","40443","0.0-21.0","3SPJ033422PFDSEISVPXZPYRA04JY0","ABX5OQLR6UNBC","3S829FDFT2NBOHQMM1CIOU0HZYXDXL","","null","<img src=""img/animal1.png"" style=""width:200px; border:14px solid green;"">","null","","","","","",""
"","image-keyboard-response","22","41300","0.0-22.0","3SPJ033422PFDSEISVPXZPYRA04JY0","ABX5OQLR6UNBC","3S829FDFT2NBOHQMM1CIOU0HZYXDXL","","856.1000000014901","img/animal4.png","74","857.2999999970198","1","1","2","0.5,0,1,1,0.5,0,0,1,0.5",""
"","html-keyboard-response","23","41617","0.0-23.0","3SPJ033422PFDSEISVPXZPYRA04JY0","ABX5OQLR6UNBC","3S829FDFT2NBOHQMM1CIOU0HZYXDXL","","null","<img src=""img/animal4.png"" style=""width:200px; border:14px solid green;"">","null","","","","","",""
"","image-keyboard-response","24","42556","0.0-24.0","3SPJ033422PFDSEISVPXZPYRA04JY0","ABX5OQLR6UNBC","3S829FDFT2NBOHQMM1CIOU0HZYXDXL","","938.8000000044703","img/animal6.png","76","939.3999999985099","3","1","1","0.5,0,1,1,0.5,0,0,1,0.5",""
"","html-keyboard-response","25","42858","0.0-25.0","3SPJ033422PFDSEISVPXZPYRA04JY0","ABX5OQLR6UNBC","3S829FDFT2NBOHQMM1CIOU0HZYXDXL","","null","<img src=""img/animal6.png"" style=""width:200px; border:14px solid green;"">","null","","","","","",""
"","image-keyboard-response","26","43611","0.0-26.0","3SPJ033422PFDSEISVPXZPYRA04JY0","ABX5OQLR6UNBC","3S829FDFT2NBOHQMM1CIOU0HZYXDXL","","752.0999999940395","img/animal4.png","74","752.7999999970198","1","1","2","0.5,0,1,1,0.5,0,0,1,0.5",""
"","html-keyboard-response","27","43913","0.0-27.0","3SPJ033422PFDSEISVPXZPYRA04JY0","ABX5OQLR6UNBC","3S829FDFT2NBOHQMM1CIOU0HZYXDXL","","null","<img src=""img/animal4.png"" style=""width:200px; border:14px solid green;"">","null","","","","","",""
"","image-keyboard-response","28","44516","0.0-28.0","3SPJ033422PFDSEISVPXZPYRA04JY0","ABX5OQLR6UNBC","3S829FDFT2NBOHQMM1CIOU0HZYXDXL","","601.8999999985099","img/animal6.png","76","603.1000000014901","3","1","1","0.5,0,1,1,0.5,0,0,1,0.5",""
"","html-keyboard-response","29","44819","0.0-29.0","3SPJ033422PFDSEISVPXZPYRA04JY0","ABX5OQLR6UNBC","3S829FDFT2NBOHQMM1CIOU0HZYXDXL","","null","<img src=""img/animal6.png"" style=""width:200px; border:14px solid green;"">","null","","","","","",""
"","image-keyboard-response","30","45452","0.0-30.0","3SPJ033422PFDSEISVPXZPYRA04JY0","ABX5OQLR6UNBC","3S829FDFT2NBOHQMM1CIOU0HZYXDXL","","632.7000000029802","img/animal1.png","74","633.2999999970198","1","0","3","0.5,0,1,1,0.5,0,0,1,0.5",""
"","html-keyboard-response","31","45755","0.0-31.0","3SPJ033422PFDSEISVPXZPYRA04JY0","ABX5OQLR6UNBC","3S829FDFT2NBOHQMM1CIOU0HZYXDXL","","null","<img src=""img/animal1.png"" style=""width:200px;border:14px solid red;"">","null","","","","","",""
"","image-keyboard-response","32","46276","0.0-32.0","3SPJ033422PFDSEISVPXZPYRA04JY0","ABX5OQLR6UNBC","3S829FDFT2NBOHQMM1CIOU0HZYXDXL","","519.8000000044703","img/animal1.png","75","521.1000000014901","2","1","3","0.5,0,1,1,0.5,0,0,1,0.5",""
"","html-keyboard-response","33","46594","0.0-33.0","3SPJ033422PFDSEISVPXZPYRA04JY0","ABX5OQLR6UNBC","3S829FDFT2NBOHQMM1CIOU0HZYXDXL","","null","<img src=""img/animal1.png"" style=""width:200px; border:14px solid green;"">","null","","","","","",""
"","image-keyboard-response","34","47163","0.0-34.0","3SPJ033422PFDSEISVPXZPYRA04JY0","ABX5OQLR6UNBC","3S829FDFT2NBOHQMM1CIOU0HZYXDXL","","568.5","img/animal1.png","75","569.5999999940395","2","1","3","0.5,0,1,1,0.5,0,0,1,0.5",""
"","html-keyboard-response","35","47465","0.0-35.0","3SPJ033422PFDSEISVPXZPYRA04JY0","ABX5OQLR6UNBC","3S829FDFT2NBOHQMM1CIOU0HZYXDXL","","null","<img src=""img/animal1.png"" style=""width:200px; border:14px solid green;"">","null","","","","","",""
"","image-keyboard-response","36","48252","0.0-36.0","3SPJ033422PFDSEISVPXZPYRA04JY0","ABX5OQLR6UNBC","3S829FDFT2NBOHQMM1CIOU0HZYXDXL","","785.8999999985099","img/animal4.png","74","787.1999999955297","1","1","2","0.5,0,1,1,0.5,0,0,1,0.5",""
"","html-keyboard-response","37","48561","0.0-37.0","3SPJ033422PFDSEISVPXZPYRA04JY0","ABX5OQLR6UNBC","3S829FDFT2NBOHQMM1CIOU0HZYXDXL","","null","<img src=""img/animal4.png"" style=""width:200px; border:14px solid green;"">","null","","","","","",""
"","image-keyboard-response","38","49468","0.0-38.0","3SPJ033422PFDSEISVPXZPYRA04JY0","ABX5OQLR6UNBC","3S829FDFT2NBOHQMM1CIOU0HZYXDXL","","906","img/animal6.png","76","907.2000000029802","3","1","1","0.5,0,1,1,0.5,0,0,1,0.5",""
"","html-keyboard-response","39","49770","0.0-39.0","3SPJ033422PFDSEISVPXZPYRA04JY0","ABX5OQLR6UNBC","3S829FDFT2NBOHQMM1CIOU0HZYXDXL","","null","<img src=""img/animal6.png"" style=""width:200px; border:14px solid green;"">","null","","","","","",""
"","image-keyboard-response","40","50557","0.0-40.0","3SPJ033422PFDSEISVPXZPYRA04JY0","ABX5OQLR6UNBC","3S829FDFT2NBOHQMM1CIOU0HZYXDXL","","785.3000000044703","img/animal1.png","75","786.6000000014901","2","1","3","0.5,0,1,1,0.5,0,0,1,0.5",""
"","html-keyboard-response","41","50859","0.0-41.0","3SPJ033422PFDSEISVPXZPYRA04JY0","ABX5OQLR6UNBC","3S829FDFT2NBOHQMM1CIOU0HZYXDXL","","null","<img src=""img/animal1.png"" style=""width:200px; border:14px solid green;"">","null","","","","","",""
"","image-keyboard-response","42","51268","0.0-42.0","3SPJ033422PFDSEISVPXZPYRA04JY0","ABX5OQLR6UNBC","3S829FDFT2NBOHQMM1CIOU0HZYXDXL","","408.30000000447035","img/animal1.png","75","409.6000000014901","2","1","3","0.5,0,1,1,0.5,0,0,1,0.5",""
"","html-keyboard-response","43","51570","0.0-43.0","3SPJ033422PFDSEISVPXZPYRA04JY0","ABX5OQLR6UNBC","3S829FDFT2NBOHQMM1CIOU0HZYXDXL","","null","<img src=""img/animal1.png"" style=""width:200px; border:14px solid green;"">","null","","","","","",""
"","image-keyboard-response","44","51997","0.0-44.0","3SPJ033422PFDSEISVPXZPYRA04JY0","ABX5OQLR6UNBC","3S829FDFT2NBOHQMM1CIOU0HZYXDXL","","425.5","img/animal1.png","75","426.1000000014901","2","1","3","0.5,0,1,1,0.5,0,0,1,0.5",""
"","html-keyboard-response","45","52298","0.0-45.0","3SPJ033422PFDSEISVPXZPYRA04JY0","ABX5OQLR6UNBC","3S829FDFT2NBOHQMM1CIOU0HZYXDXL","","null","<img src=""img/animal1.png"" style=""width:200px; border:14px solid green;"">","null","","","","","",""
"","image-keyboard-response","46","52964","0.0-46.0","3SPJ033422PFDSEISVPXZPYRA04JY0","ABX5OQLR6UNBC","3S829FDFT2NBOHQMM1CIOU0HZYXDXL","","665.2000000029802","img/animal4.png","74","666","1","1","2","0.5,0,1,1,0.5,0,0,1,0.5",""
"","html-keyboard-response","47","53268","0.0-47.0","3SPJ033422PFDSEISVPXZPYRA04JY0","ABX5OQLR6UNBC","3S829FDFT2NBOHQMM1CIOU0HZYXDXL","","null","<img src=""img/animal4.png"" style=""width:200px; border:14px solid green;"">","null","","","","","",""
"","image-keyboard-response","48","53733","0.0-48.0","3SPJ033422PFDSEISVPXZPYRA04JY0","ABX5OQLR6UNBC","3S829FDFT2NBOHQMM1CIOU0HZYXDXL","","462.8999999985099","img/animal4.png","74","464.20000000298023","1","1","2","0.5,0,1,1,0.5,0,0,1,0.5",""
"","html-keyboard-response","49","54035","0.0-49.0","3SPJ033422PFDSEISVPXZPYRA04JY0","ABX5OQLR6UNBC","3S829FDFT2NBOHQMM1CIOU0HZYXDXL","","null","<img src=""img/animal4.png"" style=""width:200px; border:14px solid green;"">","null","","","","","",""
"","image-keyboard-response","50","55165","0.0-50.0","3SPJ033422PFDSEISVPXZPYRA04JY0","ABX5OQLR6UNBC","3S829FDFT2NBOHQMM1CIOU0HZYXDXL","","1127.8999999985099","img/animal4.png","74","1129.2999999970198","1","1","2","0.5,0,1,1,0.5,0,0,1,0.5",""
"","html-keyboard-response","51","55468","0.0-51.0","3SPJ033422PFDSEISVPXZPYRA04JY0","ABX5OQLR6UNBC","3S829FDFT2NBOHQMM1CIOU0HZYXDXL","","null","<img src=""img/animal4.png"" style=""width:200px; border:14px solid green;"">","null","","","","","",""
"","image-keyboard-response","52","56196","0.0-52.0","3SPJ033422PFDSEISVPXZPYRA04JY0","ABX5OQLR6UNBC","3S829FDFT2NBOHQMM1CIOU0HZYXDXL","","726.6000000014901","img/animal1.png","75","727.7000000029802","2","1","3","0.5,0,1,1,0.5,0,0,1,0.5",""
"","html-keyboard-response","53","56497","0.0-53.0","3SPJ033422PFDSEISVPXZPYRA04JY0","ABX5OQLR6UNBC","3S829FDFT2NBOHQMM1CIOU0HZYXDXL","","null","<img src=""img/animal1.png"" style=""width:200px; border:14px solid green;"">","null","","","","","",""
"","image-keyboard-response","54","56901","0.0-54.0","3SPJ033422PFDSEISVPXZPYRA04JY0","ABX5OQLR6UNBC","3S829FDFT2NBOHQMM1CIOU0HZYXDXL","","401.70000000298023","img/animal1.png","75","403","2","1","3","0.5,0,1,1,0.5,0,0,1,0.5",""
"","html-keyboard-response","55","57203","0.0-55.0","3SPJ033422PFDSEISVPXZPYRA04JY0","ABX5OQLR6UNBC","3S829FDFT2NBOHQMM1CIOU0HZYXDXL","","null","<img src=""img/animal1.png"" style=""width:200px; border:14px solid green;"">","null","","","","","",""
"","image-keyboard-response","56","57596","0.0-56.0","3SPJ033422PFDSEISVPXZPYRA04JY0","ABX5OQLR6UNBC","3S829FDFT2NBOHQMM1CIOU0HZYXDXL","","391.8999999985099","img/animal1.png","75","392.3999999985099","2","1","3","0.5,0,1,1,0.5,0,0,1,0.5",""
"","html-keyboard-response","57","57898","0.0-57.0","3SPJ033422PFDSEISVPXZPYRA04JY0","ABX5OQLR6UNBC","3S829FDFT2NBOHQMM1CIOU0HZYXDXL","","null","<img src=""img/animal1.png"" style=""width:200px; border:14px solid green;"">","null","","","","","",""
"","image-keyboard-response","58","58549","0.0-58.0","3SPJ033422PFDSEISVPXZPYRA04JY0","ABX5OQLR6UNBC","3S829FDFT2NBOHQMM1CIOU0HZYXDXL","","649.1000000014901","img/animal6.png","76","650.5","3","1","1","0.5,0,1,1,0.5,0,0,1,0.5",""
"","html-keyboard-response","59","58851","0.0-59.0","3SPJ033422PFDSEISVPXZPYRA04JY0","ABX5OQLR6UNBC","3S829FDFT2NBOHQMM1CIOU0HZYXDXL","","null","<img src=""img/animal6.png"" style=""width:200px; border:14px solid green;"">","null","","","","","",""
"","image-keyboard-response","60","59269","0.0-60.0","3SPJ033422PFDSEISVPXZPYRA04JY0","ABX5OQLR6UNBC","3S829FDFT2NBOHQMM1CIOU0HZYXDXL","","415.90000000596046","img/animal6.png","76","417.20000000298023","3","1","1","0.5,0,1,1,0.5,0,0,1,0.5",""
"","html-keyboard-response","61","59570","0.0-61.0","3SPJ033422PFDSEISVPXZPYRA04JY0","ABX5OQLR6UNBC","3S829FDFT2NBOHQMM1CIOU0HZYXDXL","","null","<img src=""img/animal6.png"" style=""width:200px; border:14px solid green;"">","null","","","","","",""
"","image-keyboard-response","62","60437","0.0-62.0","3SPJ033422PFDSEISVPXZPYRA04JY0","ABX5OQLR6UNBC","3S829FDFT2NBOHQMM1CIOU0HZYXDXL","","865.8999999985099","img/animal1.png","75","866.3999999985099","2","1","3","0.5,0,1,1,0.5,0,0,1,0.5",""
"","html-keyboard-response","63","60739","0.0-63.0","3SPJ033422PFDSEISVPXZPYRA04JY0","ABX5OQLR6UNBC","3S829FDFT2NBOHQMM1CIOU0HZYXDXL","","null","<img src=""img/animal1.png"" style=""width:200px; border:14px solid green;"">","null","","","","","",""
"","image-keyboard-response","64","61588","0.0-64.0","3SPJ033422PFDSEISVPXZPYRA04JY0","ABX5OQLR6UNBC","3S829FDFT2NBOHQMM1CIOU0HZYXDXL","","847.5","img/animal4.png","74","848.6000000014901","1","1","2","0.5,0,1,1,0.5,0,0,1,0.5",""
"","html-keyboard-response","65","61889","0.0-65.0","3SPJ033422PFDSEISVPXZPYRA04JY0","ABX5OQLR6UNBC","3S829FDFT2NBOHQMM1CIOU0HZYXDXL","","null","<img src=""img/animal4.png"" style=""width:200px; border:14px solid green;"">","null","","","","","",""
"","image-keyboard-response","66","63165","0.0-66.0","3SPJ033422PFDSEISVPXZPYRA04JY0","ABX5OQLR6UNBC","3S829FDFT2NBOHQMM1CIOU0HZYXDXL","","1274.4000000059605","img/animal6.png","76","1275.3999999985099","3","1","1","0.5,0,1,1,0.5,0,0,1,0.5",""
"","html-keyboard-response","67","63467","0.0-67.0","3SPJ033422PFDSEISVPXZPYRA04JY0","ABX5OQLR6UNBC","3S829FDFT2NBOHQMM1CIOU0HZYXDXL","","null","<img src=""img/animal6.png"" style=""width:200px; border:14px solid green;"">","null","","","","","",""
"","image-keyboard-response","68","64173","0.0-68.0","3SPJ033422PFDSEISVPXZPYRA04JY0","ABX5OQLR6UNBC","3S829FDFT2NBOHQMM1CIOU0HZYXDXL","","705.3000000044703","img/animal1.png","75","706","2","1","3","0.5,0,1,1,0.5,0,0,1,0.5",""
"","html-keyboard-response","69","64475","0.0-69.0","3SPJ033422PFDSEISVPXZPYRA04JY0","ABX5OQLR6UNBC","3S829FDFT2NBOHQMM1CIOU0HZYXDXL","","null","<img src=""img/animal1.png"" style=""width:200px; border:14px solid green;"">","null","","","","","",""
"","image-keyboard-response","70","65165","0.0-70.0","3SPJ033422PFDSEISVPXZPYRA04JY0","ABX5OQLR6UNBC","3S829FDFT2NBOHQMM1CIOU0HZYXDXL","","688.3000000044703","img/animal4.png","74","689.5","1","1","2","0.5,0,1,1,0.5,0,0,1,0.5",""
"","html-keyboard-response","71","65467","0.0-71.0","3SPJ033422PFDSEISVPXZPYRA04JY0","ABX5OQLR6UNBC","3S829FDFT2NBOHQMM1CIOU0HZYXDXL","","null","<img src=""img/animal4.png"" style=""width:200px; border:14px solid green;"">","null","","","","","",""
"","image-keyboard-response","72","66117","0.0-72.0","3SPJ033422PFDSEISVPXZPYRA04JY0","ABX5OQLR6UNBC","3S829FDFT2NBOHQMM1CIOU0HZYXDXL","","648.3999999985099","img/animal6.png","76","649.6999999955297","3","1","1","0.5,0,1,1,0.5,0,0,1,0.5",""
"","html-keyboard-response","73","66420","0.0-73.0","3SPJ033422PFDSEISVPXZPYRA04JY0","ABX5OQLR6UNBC","3S829FDFT2NBOHQMM1CIOU0HZYXDXL","","null","<img src=""img/animal6.png"" style=""width:200px; border:14px solid green;"">","null","","","","","",""
"","image-keyboard-response","74","66925","0.0-74.0","3SPJ033422PFDSEISVPXZPYRA04JY0","ABX5OQLR6UNBC","3S829FDFT2NBOHQMM1CIOU0HZYXDXL","","503.20000000298023","img/animal6.png","76","504.6000000014901","3","1","1","0.5,0,1,1,0.5,0,0,1,0.5",""
"","html-keyboard-response","75","67227","0.0-75.0","3SPJ033422PFDSEISVPXZPYRA04JY0","ABX5OQLR6UNBC","3S829FDFT2NBOHQMM1CIOU0HZYXDXL","","null","<img src=""img/animal6.png"" style=""width:200px; border:14px solid green;"">","null","","","","","",""
"","image-keyboard-response","76","67917","0.0-76.0","3SPJ033422PFDSEISVPXZPYRA04JY0","ABX5OQLR6UNBC","3S829FDFT2NBOHQMM1CIOU0HZYXDXL","","688.2000000029802","img/animal1.png","75","689.5","2","1","3","0.5,0,1,1,0.5,0,0,1,0.5",""
"","html-keyboard-response","77","68218","0.0-77.0","3SPJ033422PFDSEISVPXZPYRA04JY0","ABX5OQLR6UNBC","3S829FDFT2NBOHQMM1CIOU0HZYXDXL","","null","<img src=""img/animal1.png"" style=""width:200px; border:14px solid green;"">","null","","","","","",""
"","image-keyboard-response","78","69205","0.0-78.0","3SPJ033422PFDSEISVPXZPYRA04JY0","ABX5OQLR6UNBC","3S829FDFT2NBOHQMM1CIOU0HZYXDXL","","984.8999999985099","img/animal6.png","76","985.8999999985099","3","1","1","0.5,0,1,1,0.5,0,0,1,0.5",""
"","html-keyboard-response","79","69507","0.0-79.0","3SPJ033422PFDSEISVPXZPYRA04JY0","ABX5OQLR6UNBC","3S829FDFT2NBOHQMM1CIOU0HZYXDXL","","null","<img src=""img/animal6.png"" style=""width:200px; border:14px solid green;"">","null","","","","","",""
"","image-keyboard-response","80","70269","0.0-80.0","3SPJ033422PFDSEISVPXZPYRA04JY0","ABX5OQLR6UNBC","3S829FDFT2NBOHQMM1CIOU0HZYXDXL","","759.7000000029802","img/animal1.png","75","760.8999999985099","2","1","3","0.5,0,1,1,0.5,0,0,1,0.5",""
"","html-keyboard-response","81","70571","0.0-81.0","3SPJ033422PFDSEISVPXZPYRA04JY0","ABX5OQLR6UNBC","3S829FDFT2NBOHQMM1CIOU0HZYXDXL","","null","<img src=""img/animal1.png"" style=""width:200px; border:14px solid green;"">","null","","","","","",""
"","image-keyboard-response","82","71333","0.0-82.0","3SPJ033422PFDSEISVPXZPYRA04JY0","ABX5OQLR6UNBC","3S829FDFT2NBOHQMM1CIOU0HZYXDXL","","760.7999999970198","img/animal4.png","74","761.3999999985099","1","1","2","0.5,0,1,1,0.5,0,0,1,0.5",""
"","html-keyboard-response","83","71635","0.0-83.0","3SPJ033422PFDSEISVPXZPYRA04JY0","ABX5OQLR6UNBC","3S829FDFT2NBOHQMM1CIOU0HZYXDXL","","null","<img src=""img/animal4.png"" style=""width:200px; border:14px solid green;"">","null","","","","","",""
"","image-keyboard-response","84","72157","0.0-84.0","3SPJ033422PFDSEISVPXZPYRA04JY0","ABX5OQLR6UNBC","3S829FDFT2NBOHQMM1CIOU0HZYXDXL","","520.5","img/animal4.png","74","521.2000000029802","1","1","2","0.5,0,1,1,0.5,0,0,1,0.5",""
"","html-keyboard-response","85","72459","0.0-85.0","3SPJ033422PFDSEISVPXZPYRA04JY0","ABX5OQLR6UNBC","3S829FDFT2NBOHQMM1CIOU0HZYXDXL","","null","<img src=""img/animal4.png"" style=""width:200px; border:14px solid green;"">","null","","","","","",""
"","image-keyboard-response","86","73133","0.0-86.0","3SPJ033422PFDSEISVPXZPYRA04JY0","ABX5OQLR6UNBC","3S829FDFT2NBOHQMM1CIOU0HZYXDXL","","672.3000000044703","img/animal6.png","76","673.5","3","1","1","0.5,0,1,1,0.5,0,0,1,0.5",""
"","html-keyboard-response","87","73435","0.0-87.0","3SPJ033422PFDSEISVPXZPYRA04JY0","ABX5OQLR6UNBC","3S829FDFT2NBOHQMM1CIOU0HZYXDXL","","null","<img src=""img/animal6.png"" style=""width:200px; border:14px solid green;"">","null","","","","","",""
"","image-keyboard-response","88","74381","0.0-88.0","3SPJ033422PFDSEISVPXZPYRA04JY0","ABX5OQLR6UNBC","3S829FDFT2NBOHQMM1CIOU0HZYXDXL","","944.2000000029802","img/animal1.png","75","945.5","2","1","3","0.5,0,1,1,0.5,0,0,1,0.5",""
"","html-keyboard-response","89","74683","0.0-89.0","3SPJ033422PFDSEISVPXZPYRA04JY0","ABX5OQLR6UNBC","3S829FDFT2NBOHQMM1CIOU0HZYXDXL","","null","<img src=""img/animal1.png"" style=""width:200px; border:14px solid green;"">","null","","","","","",""
"","image-keyboard-response","90","75084","0.0-90.0","3SPJ033422PFDSEISVPXZPYRA04JY0","ABX5OQLR6UNBC","3S829FDFT2NBOHQMM1CIOU0HZYXDXL","","400.1000000014901","img/animal1.png","75","401.29999999701977","2","1","3","0.5,0,1,1,0.5,0,0,1,0.5",""
"","html-keyboard-response","91","75387","0.0-91.0","3SPJ033422PFDSEISVPXZPYRA04JY0","ABX5OQLR6UNBC","3S829FDFT2NBOHQMM1CIOU0HZYXDXL","","null","<img src=""img/animal1.png"" style=""width:200px; border:14px solid green;"">","null","","","","","",""
"","image-keyboard-response","92","76133","0.0-92.0","3SPJ033422PFDSEISVPXZPYRA04JY0","ABX5OQLR6UNBC","3S829FDFT2NBOHQMM1CIOU0HZYXDXL","","744.1000000014901","img/animal4.png","74","745.5","1","1","2","0.5,0,1,1,0.5,0,0,1,0.5",""
"","html-keyboard-response","93","76435","0.0-93.0","3SPJ033422PFDSEISVPXZPYRA04JY0","ABX5OQLR6UNBC","3S829FDFT2NBOHQMM1CIOU0HZYXDXL","","null","<img src=""img/animal4.png"" style=""width:200px; border:14px solid green;"">","null","","","","","",""
"","image-keyboard-response","94","77123","0.0-94.0","3SPJ033422PFDSEISVPXZPYRA04JY0","ABX5OQLR6UNBC","3S829FDFT2NBOHQMM1CIOU0HZYXDXL","","687.4000000059605","img/animal6.png","76","688.3999999985099","3","1","1","0.5,0,1,1,0.5,0,0,1,0.5",""
"","html-keyboard-response","95","77425","0.0-95.0","3SPJ033422PFDSEISVPXZPYRA04JY0","ABX5OQLR6UNBC","3S829FDFT2NBOHQMM1CIOU0HZYXDXL","","null","<img src=""img/animal6.png"" style=""width:200px; border:14px solid green;"">","null","","","","","",""
"","image-keyboard-response","96","78812","0.0-96.0","3SPJ033422PFDSEISVPXZPYRA04JY0","ABX5OQLR6UNBC","3S829FDFT2NBOHQMM1CIOU0HZYXDXL","","1386.5","img/animal4.png","74","1387.6999999955297","1","1","2","0.5,0,1,1,0.5,0,0,1,0.5",""
"","html-keyboard-response","97","79115","0.0-97.0","3SPJ033422PFDSEISVPXZPYRA04JY0","ABX5OQLR6UNBC","3S829FDFT2NBOHQMM1CIOU0HZYXDXL","","null","<img src=""img/animal4.png"" style=""width:200px; border:14px solid green;"">","null","","","","","",""
"","image-keyboard-response","98","79837","0.0-98.0","3SPJ033422PFDSEISVPXZPYRA04JY0","ABX5OQLR6UNBC","3S829FDFT2NBOHQMM1CIOU0HZYXDXL","","720.1999999955297","img/animal6.png","76","721.3999999985099","3","1","1","0.5,0,1,1,0.5,0,0,1,0.5",""
"","html-keyboard-response","99","80146","0.0-99.0","3SPJ033422PFDSEISVPXZPYRA04JY0","ABX5OQLR6UNBC","3S829FDFT2NBOHQMM1CIOU0HZYXDXL","","null","<img src=""img/animal6.png"" style=""width:200px; border:14px solid green;"">","null","","","","","",""
"","image-keyboard-response","100","80596","0.0-100.0","3SPJ033422PFDSEISVPXZPYRA04JY0","ABX5OQLR6UNBC","3S829FDFT2NBOHQMM1CIOU0HZYXDXL","","448.5","img/animal6.png","76","449.6000000014901","3","1","1","0.5,0,1,1,0.5,0,0,1,0.5",""
"","html-keyboard-response","101","80897","0.0-101.0","3SPJ033422PFDSEISVPXZPYRA04JY0","ABX5OQLR6UNBC","3S829FDFT2NBOHQMM1CIOU0HZYXDXL","","null","<img src=""img/animal6.png"" style=""width:200px; border:14px solid green;"">","null","","","","","",""
"","image-keyboard-response","102","81565","0.0-102.0","3SPJ033422PFDSEISVPXZPYRA04JY0","ABX5OQLR6UNBC","3S829FDFT2NBOHQMM1CIOU0HZYXDXL","","666.6999999955297","img/animal1.png","75","667.3000000044703","2","1","3","0.5,0,1,1,0.5,0,0,1,0.5",""
"","html-keyboard-response","103","81868","0.0-103.0","3SPJ033422PFDSEISVPXZPYRA04JY0","ABX5OQLR6UNBC","3S829FDFT2NBOHQMM1CIOU0HZYXDXL","","null","<img src=""img/animal1.png"" style=""width:200px; border:14px solid green;"">","null","","","","","",""
"","image-keyboard-response","104","82949","0.0-104.0","3SPJ033422PFDSEISVPXZPYRA04JY0","ABX5OQLR6UNBC","3S829FDFT2NBOHQMM1CIOU0HZYXDXL","","1079.2000000029802","img/animal6.png","76","1080.6000000014901","3","1","1","0.5,0,1,1,0.5,0,0,1,0.5",""
"","html-keyboard-response","105","83251","0.0-105.0","3SPJ033422PFDSEISVPXZPYRA04JY0","ABX5OQLR6UNBC","3S829FDFT2NBOHQMM1CIOU0HZYXDXL","","null","<img src=""img/animal6.png"" style=""width:200px; border:14px solid green;"">","null","","","","","",""
"","image-keyboard-response","106","83772","0.0-106.0","3SPJ033422PFDSEISVPXZPYRA04JY0","ABX5OQLR6UNBC","3S829FDFT2NBOHQMM1CIOU0HZYXDXL","","519.7000000029802","img/animal6.png","76","521","3","1","1","0.5,0,1,1,0.5,0,0,1,0.5",""
"","html-keyboard-response","107","84075","0.0-107.0","3SPJ033422PFDSEISVPXZPYRA04JY0","ABX5OQLR6UNBC","3S829FDFT2NBOHQMM1CIOU0HZYXDXL","","null","<img src=""img/animal6.png"" style=""width:200px; border:14px solid green;"">","null","","","","","",""
"","image-keyboard-response","108","85068","0.0-108.0","3SPJ033422PFDSEISVPXZPYRA04JY0","ABX5OQLR6UNBC","3S829FDFT2NBOHQMM1CIOU0HZYXDXL","","992.1000000014901","img/animal4.png","74","993.3999999985099","1","1","2","0.5,0,1,1,0.5,0,0,1,0.5",""
"","html-keyboard-response","109","85371","0.0-109.0","3SPJ033422PFDSEISVPXZPYRA04JY0","ABX5OQLR6UNBC","3S829FDFT2NBOHQMM1CIOU0HZYXDXL","","null","<img src=""img/animal4.png"" style=""width:200px; border:14px solid green;"">","null","","","","","",""
"","image-keyboard-response","110","86180","0.0-110.0","3SPJ033422PFDSEISVPXZPYRA04JY0","ABX5OQLR6UNBC","3S829FDFT2NBOHQMM1CIOU0HZYXDXL","","807.3999999985099","img/animal6.png","76","808.5","3","1","1","0.5,0,1,1,0.5,0,0,1,0.5",""
"","html-keyboard-response","111","86481","0.0-111.0","3SPJ033422PFDSEISVPXZPYRA04JY0","ABX5OQLR6UNBC","3S829FDFT2NBOHQMM1CIOU0HZYXDXL","","null","<img src=""img/animal6.png"" style=""width:200px; border:14px solid green;"">","null","","","","","",""
"","image-keyboard-response","112","87237","0.0-112.0","3SPJ033422PFDSEISVPXZPYRA04JY0","ABX5OQLR6UNBC","3S829FDFT2NBOHQMM1CIOU0HZYXDXL","","754.0999999940395","img/animal4.png","74","755.3000000044703","1","1","2","0.5,0,1,1,0.5,0,0,1,0.5",""
"","html-keyboard-response","113","87553","0.0-113.0","3SPJ033422PFDSEISVPXZPYRA04JY0","ABX5OQLR6UNBC","3S829FDFT2NBOHQMM1CIOU0HZYXDXL","","null","<img src=""img/animal4.png"" style=""width:200px; border:14px solid green;"">","null","","","","","",""
"","image-keyboard-response","114","88005","0.0-114.0","3SPJ033422PFDSEISVPXZPYRA04JY0","ABX5OQLR6UNBC","3S829FDFT2NBOHQMM1CIOU0HZYXDXL","","450.5","img/animal4.png","74","451.79999999701977","1","1","2","0.5,0,1,1,0.5,0,0,1,0.5",""
"","html-keyboard-response","115","88308","0.0-115.0","3SPJ033422PFDSEISVPXZPYRA04JY0","ABX5OQLR6UNBC","3S829FDFT2NBOHQMM1CIOU0HZYXDXL","","null","<img src=""img/animal4.png"" style=""width:200px; border:14px solid green;"">","null","","","","","",""
"","image-keyboard-response","116","88717","0.0-116.0","3SPJ033422PFDSEISVPXZPYRA04JY0","ABX5OQLR6UNBC","3S829FDFT2NBOHQMM1CIOU0HZYXDXL","","407.30000000447035","img/animal4.png","74","408.6000000014901","1","1","2","0.5,0,1,1,0.5,0,0,1,0.5",""
"","html-keyboard-response","117","89019","0.0-117.0","3SPJ033422PFDSEISVPXZPYRA04JY0","ABX5OQLR6UNBC","3S829FDFT2NBOHQMM1CIOU0HZYXDXL","","null","<img src=""img/animal4.png"" style=""width:200px; border:14px solid green;"">","null","","","","","",""
"","image-keyboard-response","118","89582","0.0-118.0","3SPJ033422PFDSEISVPXZPYRA04JY0","ABX5OQLR6UNBC","3S829FDFT2NBOHQMM1CIOU0HZYXDXL","","561.6999999955297","img/animal6.png","76","563","3","1","1","0.5,0,1,1,0.5,0,0,1,0.5",""
"","html-keyboard-response","119","89885","0.0-119.0","3SPJ033422PFDSEISVPXZPYRA04JY0","ABX5OQLR6UNBC","3S829FDFT2NBOHQMM1CIOU0HZYXDXL","","null","<img src=""img/animal6.png"" style=""width:200px; border:14px solid green;"">","null","","","","","",""
"","image-keyboard-response","120","90309","0.0-120.0","3SPJ033422PFDSEISVPXZPYRA04JY0","ABX5OQLR6UNBC","3S829FDFT2NBOHQMM1CIOU0HZYXDXL","","422.5","img/animal6.png","76","423.70000000298023","3","1","1","0.5,0,1,1,0.5,0,0,1,0.5",""
"","html-keyboard-response","121","90611","0.0-121.0","3SPJ033422PFDSEISVPXZPYRA04JY0","ABX5OQLR6UNBC","3S829FDFT2NBOHQMM1CIOU0HZYXDXL","","null","<img src=""img/animal6.png"" style=""width:200px; border:14px solid green;"">","null","","","","","",""
"","image-keyboard-response","122","91372","0.0-122.0","3SPJ033422PFDSEISVPXZPYRA04JY0","ABX5OQLR6UNBC","3S829FDFT2NBOHQMM1CIOU0HZYXDXL","","760.2999999970198","img/animal4.png","74","760.7999999970198","1","1","2","0.5,0,1,1,0.5,0,0,1,0.5",""
"","html-keyboard-response","123","91673","0.0-123.0","3SPJ033422PFDSEISVPXZPYRA04JY0","ABX5OQLR6UNBC","3S829FDFT2NBOHQMM1CIOU0HZYXDXL","","null","<img src=""img/animal4.png"" style=""width:200px; border:14px solid green;"">","null","","","","","",""
"","image-keyboard-response","124","92437","0.0-124.0","3SPJ033422PFDSEISVPXZPYRA04JY0","ABX5OQLR6UNBC","3S829FDFT2NBOHQMM1CIOU0HZYXDXL","","762.6000000014901","img/animal6.png","76","763.8999999985099","3","1","1","0.5,0,1,1,0.5,0,0,1,0.5",""
"","html-keyboard-response","125","92740","0.0-125.0","3SPJ033422PFDSEISVPXZPYRA04JY0","ABX5OQLR6UNBC","3S829FDFT2NBOHQMM1CIOU0HZYXDXL","","null","<img src=""img/animal6.png"" style=""width:200px; border:14px solid green;"">","null","","","","","",""
"","image-keyboard-response","126","93165","0.0-126.0","3SPJ033422PFDSEISVPXZPYRA04JY0","ABX5OQLR6UNBC","3S829FDFT2NBOHQMM1CIOU0HZYXDXL","","423.5","img/animal6.png","76","424.70000000298023","3","1","1","0.5,0,1,1,0.5,0,0,1,0.5",""
"","html-keyboard-response","127","93468","0.0-127.0","3SPJ033422PFDSEISVPXZPYRA04JY0","ABX5OQLR6UNBC","3S829FDFT2NBOHQMM1CIOU0HZYXDXL","","null","<img src=""img/animal6.png"" style=""width:200px; border:14px solid green;"">","null","","","","","",""
"","image-keyboard-response","128","94157","0.0-128.0","3SPJ033422PFDSEISVPXZPYRA04JY0","ABX5OQLR6UNBC","3S829FDFT2NBOHQMM1CIOU0HZYXDXL","","687.2999999970198","img/animal1.png","75","688.5","2","1","3","0.5,0,1,1,0.5,0,0,1,0.5",""
"","html-keyboard-response","129","94459","0.0-129.0","3SPJ033422PFDSEISVPXZPYRA04JY0","ABX5OQLR6UNBC","3S829FDFT2NBOHQMM1CIOU0HZYXDXL","","null","<img src=""img/animal1.png"" style=""width:200px; border:14px solid green;"">","null","","","","","",""
"","image-keyboard-response","130","95284","0.0-130.0","3SPJ033422PFDSEISVPXZPYRA04JY0","ABX5OQLR6UNBC","3S829FDFT2NBOHQMM1CIOU0HZYXDXL","","824.3999999985099","img/animal6.png","76","824.8999999985099","3","1","1","0.5,0,1,1,0.5,0,0,1,0.5",""
"","html-keyboard-response","131","95585","0.0-131.0","3SPJ033422PFDSEISVPXZPYRA04JY0","ABX5OQLR6UNBC","3S829FDFT2NBOHQMM1CIOU0HZYXDXL","","null","<img src=""img/animal6.png"" style=""width:200px; border:14px solid green;"">","null","","","","","",""
"","image-keyboard-response","132","96309","0.0-132.0","3SPJ033422PFDSEISVPXZPYRA04JY0","ABX5OQLR6UNBC","3S829FDFT2NBOHQMM1CIOU0HZYXDXL","","723.2000000029802","img/animal4.png","74","723.7000000029802","1","1","2","0.5,0,1,1,0.5,0,0,1,0.5",""
"","html-keyboard-response","133","96612","0.0-133.0","3SPJ033422PFDSEISVPXZPYRA04JY0","ABX5OQLR6UNBC","3S829FDFT2NBOHQMM1CIOU0HZYXDXL","","null","<img src=""img/animal4.png"" style=""width:200px; border:14px solid green;"">","null","","","","","",""
"","image-keyboard-response","134","97133","0.0-134.0","3SPJ033422PFDSEISVPXZPYRA04JY0","ABX5OQLR6UNBC","3S829FDFT2NBOHQMM1CIOU0HZYXDXL","","520.4000000059605","img/animal4.png","74","521.3000000044703","1","1","2","0.5,0,1,1,0.5,0,0,1,0.5",""
"","html-keyboard-response","135","97435","0.0-135.0","3SPJ033422PFDSEISVPXZPYRA04JY0","ABX5OQLR6UNBC","3S829FDFT2NBOHQMM1CIOU0HZYXDXL","","null","<img src=""img/animal4.png"" style=""width:200px; border:14px solid green;"">","null","","","","","",""
"","image-keyboard-response","136","97909","0.0-136.0","3SPJ033422PFDSEISVPXZPYRA04JY0","ABX5OQLR6UNBC","3S829FDFT2NBOHQMM1CIOU0HZYXDXL","","471.1000000014901","img/animal4.png","74","472.29999999701977","1","1","2","0.5,0,1,1,0.5,0,0,1,0.5",""
"","html-keyboard-response","137","98212","0.0-137.0","3SPJ033422PFDSEISVPXZPYRA04JY0","ABX5OQLR6UNBC","3S829FDFT2NBOHQMM1CIOU0HZYXDXL","","null","<img src=""img/animal4.png"" style=""width:200px; border:14px solid green;"">","null","","","","","",""
"","image-keyboard-response","138","98596","0.0-138.0","3SPJ033422PFDSEISVPXZPYRA04JY0","ABX5OQLR6UNBC","3S829FDFT2NBOHQMM1CIOU0HZYXDXL","","383","img/animal4.png","74","384","1","1","2","0.5,0,1,1,0.5,0,0,1,0.5",""
"","html-keyboard-response","139","98897","0.0-139.0","3SPJ033422PFDSEISVPXZPYRA04JY0","ABX5OQLR6UNBC","3S829FDFT2NBOHQMM1CIOU0HZYXDXL","","null","<img src=""img/animal4.png"" style=""width:200px; border:14px solid green;"">","null","","","","","",""
"","image-keyboard-response","140","99301","0.0-140.0","3SPJ033422PFDSEISVPXZPYRA04JY0","ABX5OQLR6UNBC","3S829FDFT2NBOHQMM1CIOU0HZYXDXL","","402.79999999701977","img/animal4.png","74","403.8999999985099","1","1","2","0.5,0,1,1,0.5,0,0,1,0.5",""
"","html-keyboard-response","141","99604","0.0-141.0","3SPJ033422PFDSEISVPXZPYRA04JY0","ABX5OQLR6UNBC","3S829FDFT2NBOHQMM1CIOU0HZYXDXL","","null","<img src=""img/animal4.png"" style=""width:200px; border:14px solid green;"">","null","","","","","",""
"","image-keyboard-response","142","100045","0.0-142.0","3SPJ033422PFDSEISVPXZPYRA04JY0","ABX5OQLR6UNBC","3S829FDFT2NBOHQMM1CIOU0HZYXDXL","","440.30000000447035","img/animal4.png","74","441","1","1","2","0.5,0,1,1,0.5,0,0,1,0.5",""
"","html-keyboard-response","143","100348","0.0-143.0","3SPJ033422PFDSEISVPXZPYRA04JY0","ABX5OQLR6UNBC","3S829FDFT2NBOHQMM1CIOU0HZYXDXL","","null","<img src=""img/animal4.png"" style=""width:200px; border:14px solid green;"">","null","","","","","",""
"","image-keyboard-response","144","101085","0.0-144.0","3SPJ033422PFDSEISVPXZPYRA04JY0","ABX5OQLR6UNBC","3S829FDFT2NBOHQMM1CIOU0HZYXDXL","","735.6999999955297","img/animal1.png","75","736.8999999985099","2","1","3","0.5,0,1,1,0.5,0,0,1,0.5",""
"","html-keyboard-response","145","101387","0.0-145.0","3SPJ033422PFDSEISVPXZPYRA04JY0","ABX5OQLR6UNBC","3S829FDFT2NBOHQMM1CIOU0HZYXDXL","","null","<img src=""img/animal1.png"" style=""width:200px; border:14px solid green;"">","null","","","","","",""
"","image-keyboard-response","146","101845","0.0-146.0","3SPJ033422PFDSEISVPXZPYRA04JY0","ABX5OQLR6UNBC","3S829FDFT2NBOHQMM1CIOU0HZYXDXL","","456.29999999701977","img/animal1.png","75","457.5","2","1","3","0.5,0,1,1,0.5,0,0,1,0.5",""
"","html-keyboard-response","147","102149","0.0-147.0","3SPJ033422PFDSEISVPXZPYRA04JY0","ABX5OQLR6UNBC","3S829FDFT2NBOHQMM1CIOU0HZYXDXL","","null","<img src=""img/animal1.png"" style=""width:200px; border:14px solid green;"">","null","","","","","",""
"","image-keyboard-response","148","102909","0.0-148.0","3SPJ033422PFDSEISVPXZPYRA04JY0","ABX5OQLR6UNBC","3S829FDFT2NBOHQMM1CIOU0HZYXDXL","","759.3999999985099","img/animal4.png","74","760.6999999955297","1","1","2","0.5,0,1,1,0.5,0,0,1,0.5",""
"","html-keyboard-response","149","103212","0.0-149.0","3SPJ033422PFDSEISVPXZPYRA04JY0","ABX5OQLR6UNBC","3S829FDFT2NBOHQMM1CIOU0HZYXDXL","","null","<img src=""img/animal4.png"" style=""width:200px; border:14px solid green;"">","null","","","","","",""
"","image-keyboard-response","150","103813","0.0-150.0","3SPJ033422PFDSEISVPXZPYRA04JY0","ABX5OQLR6UNBC","3S829FDFT2NBOHQMM1CIOU0HZYXDXL","","599.9000000059605","img/animal6.png","76","601.3000000044703","3","1","1","0.5,0,1,1,0.5,0,0,1,0.5",""
"","html-keyboard-response","151","104116","0.0-151.0","3SPJ033422PFDSEISVPXZPYRA04JY0","ABX5OQLR6UNBC","3S829FDFT2NBOHQMM1CIOU0HZYXDXL","","null","<img src=""img/animal6.png"" style=""width:200px; border:14px solid green;"">","null","","","","","",""
"","image-keyboard-response","152","104565","0.0-152.0","3SPJ033422PFDSEISVPXZPYRA04JY0","ABX5OQLR6UNBC","3S829FDFT2NBOHQMM1CIOU0HZYXDXL","","448.69999999552965","img/animal6.png","76","449.3999999985099","3","1","1","0.5,0,1,1,0.5,0,0,1,0.5",""
"","html-keyboard-response","153","104867","0.0-153.0","3SPJ033422PFDSEISVPXZPYRA04JY0","ABX5OQLR6UNBC","3S829FDFT2NBOHQMM1CIOU0HZYXDXL","","null","<img src=""img/animal6.png"" style=""width:200px; border:14px solid green;"">","null","","","","","",""
"","image-keyboard-response","154","105765","0.0-154.0","3SPJ033422PFDSEISVPXZPYRA04JY0","ABX5OQLR6UNBC","3S829FDFT2NBOHQMM1CIOU0HZYXDXL","","896.5","img/animal1.png","75","897.7000000029802","2","1","3","0.5,0,1,1,0.5,0,0,1,0.5",""
"","html-keyboard-response","155","106068","0.0-155.0","3SPJ033422PFDSEISVPXZPYRA04JY0","ABX5OQLR6UNBC","3S829FDFT2NBOHQMM1CIOU0HZYXDXL","","null","<img src=""img/animal1.png"" style=""width:200px; border:14px solid green;"">","null","","","","","",""
"","image-keyboard-response","156","107061","0.0-156.0","3SPJ033422PFDSEISVPXZPYRA04JY0","ABX5OQLR6UNBC","3S829FDFT2NBOHQMM1CIOU0HZYXDXL","","991.7000000029802","img/animal6.png","76","992.8999999985099","3","1","1","0.5,0,1,1,0.5,0,0,1,0.5",""
"","html-keyboard-response","157","107363","0.0-157.0","3SPJ033422PFDSEISVPXZPYRA04JY0","ABX5OQLR6UNBC","3S829FDFT2NBOHQMM1CIOU0HZYXDXL","","null","<img src=""img/animal6.png"" style=""width:200px; border:14px solid green;"">","null","","","","","",""
"","image-keyboard-response","158","107773","0.0-158.0","3SPJ033422PFDSEISVPXZPYRA04JY0","ABX5OQLR6UNBC","3S829FDFT2NBOHQMM1CIOU0HZYXDXL","","408.3999999985099","img/animal6.png","76","409.70000000298023","3","1","1","0.5,0,1,1,0.5,0,0,1,0.5",""
"","html-keyboard-response","159","108075","0.0-159.0","3SPJ033422PFDSEISVPXZPYRA04JY0","ABX5OQLR6UNBC","3S829FDFT2NBOHQMM1CIOU0HZYXDXL","","null","<img src=""img/animal6.png"" style=""width:200px; border:14px solid green;"">","null","","","","","",""
"","image-keyboard-response","160","108477","0.0-160.0","3SPJ033422PFDSEISVPXZPYRA04JY0","ABX5OQLR6UNBC","3S829FDFT2NBOHQMM1CIOU0HZYXDXL","","400.5","img/animal6.png","76","401.70000000298023","3","1","1","0.5,0,1,1,0.5,0,0,1,0.5",""
"","html-keyboard-response","161","108779","0.0-161.0","3SPJ033422PFDSEISVPXZPYRA04JY0","ABX5OQLR6UNBC","3S829FDFT2NBOHQMM1CIOU0HZYXDXL","","null","<img src=""img/animal6.png"" style=""width:200px; border:14px solid green;"">","null","","","","","",""
"","image-keyboard-response","162","109541","0.0-162.0","3SPJ033422PFDSEISVPXZPYRA04JY0","ABX5OQLR6UNBC","3S829FDFT2NBOHQMM1CIOU0HZYXDXL","","760.2999999970198","img/animal1.png","75","761.6000000014901","2","1","3","0.5,0,1,1,0.5,0,0,1,0.5",""
"","html-keyboard-response","163","109844","0.0-163.0","3SPJ033422PFDSEISVPXZPYRA04JY0","ABX5OQLR6UNBC","3S829FDFT2NBOHQMM1CIOU0HZYXDXL","","null","<img src=""img/animal1.png"" style=""width:200px; border:14px solid green;"">","null","","","","","",""
"","image-keyboard-response","164","110261","0.0-164.0","3SPJ033422PFDSEISVPXZPYRA04JY0","ABX5OQLR6UNBC","3S829FDFT2NBOHQMM1CIOU0HZYXDXL","","415.20000000298023","img/animal1.png","75","416.29999999701977","2","1","3","0.5,0,1,1,0.5,0,0,1,0.5",""
"","html-keyboard-response","165","110563","0.0-165.0","3SPJ033422PFDSEISVPXZPYRA04JY0","ABX5OQLR6UNBC","3S829FDFT2NBOHQMM1CIOU0HZYXDXL","","null","<img src=""img/animal1.png"" style=""width:200px; border:14px solid green;"">","null","","","","","",""
"","image-keyboard-response","166","110997","0.0-166.0","3SPJ033422PFDSEISVPXZPYRA04JY0","ABX5OQLR6UNBC","3S829FDFT2NBOHQMM1CIOU0HZYXDXL","","432.5","img/animal1.png","75","433.70000000298023","2","1","3","0.5,0,1,1,0.5,0,0,1,0.5",""
"","html-keyboard-response","167","111300","0.0-167.0","3SPJ033422PFDSEISVPXZPYRA04JY0","ABX5OQLR6UNBC","3S829FDFT2NBOHQMM1CIOU0HZYXDXL","","null","<img src=""img/animal1.png"" style=""width:200px; border:14px solid green;"">","null","","","","","",""
"","image-keyboard-response","168","111693","0.0-168.0","3SPJ033422PFDSEISVPXZPYRA04JY0","ABX5OQLR6UNBC","3S829FDFT2NBOHQMM1CIOU0HZYXDXL","","392.09999999403954","img/animal1.png","75","393.30000000447035","2","1","3","0.5,0,1,1,0.5,0,0,1,0.5",""
"","html-keyboard-response","169","111996","0.0-169.0","3SPJ033422PFDSEISVPXZPYRA04JY0","ABX5OQLR6UNBC","3S829FDFT2NBOHQMM1CIOU0HZYXDXL","","null","<img src=""img/animal1.png"" style=""width:200px; border:14px solid green;"">","null","","","","","",""
"","image-keyboard-response","170","112653","0.0-170.0","3SPJ033422PFDSEISVPXZPYRA04JY0","ABX5OQLR6UNBC","3S829FDFT2NBOHQMM1CIOU0HZYXDXL","","656","img/animal4.png","74","657.3000000044703","1","1","2","0.5,0,1,1,0.5,0,0,1,0.5",""
"","html-keyboard-response","171","112955","0.0-171.0","3SPJ033422PFDSEISVPXZPYRA04JY0","ABX5OQLR6UNBC","3S829FDFT2NBOHQMM1CIOU0HZYXDXL","","null","<img src=""img/animal4.png"" style=""width:200px; border:14px solid green;"">","null","","","","","",""
"","image-keyboard-response","172","113653","0.0-172.0","3SPJ033422PFDSEISVPXZPYRA04JY0","ABX5OQLR6UNBC","3S829FDFT2NBOHQMM1CIOU0HZYXDXL","","696.3999999985099","img/animal6.png","76","697.7999999970198","3","1","1","0.5,0,1,1,0.5,0,0,1,0.5",""
"","html-keyboard-response","173","113956","0.0-173.0","3SPJ033422PFDSEISVPXZPYRA04JY0","ABX5OQLR6UNBC","3S829FDFT2NBOHQMM1CIOU0HZYXDXL","","null","<img src=""img/animal6.png"" style=""width:200px; border:14px solid green;"">","null","","","","","",""
"","image-keyboard-response","174","114636","0.0-174.0","3SPJ033422PFDSEISVPXZPYRA04JY0","ABX5OQLR6UNBC","3S829FDFT2NBOHQMM1CIOU0HZYXDXL","","678.5999999940395","img/animal4.png","74","679.6000000014901","1","1","2","0.5,0,1,1,0.5,0,0,1,0.5",""
"","html-keyboard-response","175","114938","0.0-175.0","3SPJ033422PFDSEISVPXZPYRA04JY0","ABX5OQLR6UNBC","3S829FDFT2NBOHQMM1CIOU0HZYXDXL","","null","<img src=""img/animal4.png"" style=""width:200px; border:14px solid green;"">","null","","","","","",""
"","image-keyboard-response","176","115885","0.0-176.0","3SPJ033422PFDSEISVPXZPYRA04JY0","ABX5OQLR6UNBC","3S829FDFT2NBOHQMM1CIOU0HZYXDXL","","945.4000000059605","img/animal6.png","76","946.7000000029802","3","1","1","0.5,0,1,1,0.5,0,0,1,0.5",""
"","html-keyboard-response","177","116187","0.0-177.0","3SPJ033422PFDSEISVPXZPYRA04JY0","ABX5OQLR6UNBC","3S829FDFT2NBOHQMM1CIOU0HZYXDXL","","null","<img src=""img/animal6.png"" style=""width:200px; border:14px solid green;"">","null","","","","","",""
"","image-keyboard-response","178","117103","0.0-178.0","3SPJ033422PFDSEISVPXZPYRA04JY0","ABX5OQLR6UNBC","3S829FDFT2NBOHQMM1CIOU0HZYXDXL","","914.0999999940395","img/animal1.png","75","915.2000000029802","2","1","3","0.5,0,1,1,0.5,0,0,1,0.5",""
"","html-keyboard-response","179","117404","0.0-179.0","3SPJ033422PFDSEISVPXZPYRA04JY0","ABX5OQLR6UNBC","3S829FDFT2NBOHQMM1CIOU0HZYXDXL","","null","<img src=""img/animal1.png"" style=""width:200px; border:14px solid green;"">","null","","","","","",""
"","image-keyboard-response","180","118181","0.0-180.0","3SPJ033422PFDSEISVPXZPYRA04JY0","ABX5OQLR6UNBC","3S829FDFT2NBOHQMM1CIOU0HZYXDXL","","775.1000000014901","img/animal4.png","74","776.5","1","1","2","0.5,0,1,1,0.5,0,0,1,0.5",""
"","html-keyboard-response","181","118483","0.0-181.0","3SPJ033422PFDSEISVPXZPYRA04JY0","ABX5OQLR6UNBC","3S829FDFT2NBOHQMM1CIOU0HZYXDXL","","null","<img src=""img/animal4.png"" style=""width:200px; border:14px solid green;"">","null","","","","","",""
"","html-keyboard-response","182","121892","0.0-182.0","3SPJ033422PFDSEISVPXZPYRA04JY0","ABX5OQLR6UNBC","3S829FDFT2NBOHQMM1CIOU0HZYXDXL","","","","","","","","","",""
"","image-keyboard-response","183","123613","0.0-183.0","3SPJ033422PFDSEISVPXZPYRA04JY0","ABX5OQLR6UNBC","3S829FDFT2NBOHQMM1CIOU0HZYXDXL","","1720","img/animal2.png","74","1720.9000000059605","1","0","1","0.7,0,0.8,0.7,0.8,0,0.7,0.8,0",""
"","html-keyboard-response","184","123915","0.0-184.0","3SPJ033422PFDSEISVPXZPYRA04JY0","ABX5OQLR6UNBC","3S829FDFT2NBOHQMM1CIOU0HZYXDXL","","null","<img src=""img/animal2.png"" style=""width:200px;border:14px solid red;"">","null","","","","","",""
"","image-keyboard-response","185","124342","0.0-185.0","3SPJ033422PFDSEISVPXZPYRA04JY0","ABX5OQLR6UNBC","3S829FDFT2NBOHQMM1CIOU0HZYXDXL","","424.90000000596046","img/animal2.png","75","426.20000000298023","2","0","1","0.7,0,0.8,0.7,0.8,0,0.7,0.8,0",""
"","html-keyboard-response","186","124644","0.0-186.0","3SPJ033422PFDSEISVPXZPYRA04JY0","ABX5OQLR6UNBC","3S829FDFT2NBOHQMM1CIOU0HZYXDXL","","null","<img src=""img/animal2.png"" style=""width:200px;border:14px solid red;"">","null","","","","","",""
"","image-keyboard-response","187","125725","0.0-187.0","3SPJ033422PFDSEISVPXZPYRA04JY0","ABX5OQLR6UNBC","3S829FDFT2NBOHQMM1CIOU0HZYXDXL","","1078.9000000059605","img/animal5.png","76","1080.5","3","0","2","0.7,0,0.8,0.7,0.8,0,0.7,0.8,0",""
"","html-keyboard-response","188","126028","0.0-188.0","3SPJ033422PFDSEISVPXZPYRA04JY0","ABX5OQLR6UNBC","3S829FDFT2NBOHQMM1CIOU0HZYXDXL","","null","<img src=""img/animal5.png"" style=""width:200px;border:14px solid red;"">","null","","","","","",""
"","image-keyboard-response","189","127125","0.0-189.0","3SPJ033422PFDSEISVPXZPYRA04JY0","ABX5OQLR6UNBC","3S829FDFT2NBOHQMM1CIOU0HZYXDXL","","1095.3000000044703","img/animal2.png","76","1096.7000000029802","3","1","1","0.7,0,0.8,0.7,0.8,0,0.7,0.8,0",""
"","html-keyboard-response","190","127428","0.0-190.0","3SPJ033422PFDSEISVPXZPYRA04JY0","ABX5OQLR6UNBC","3S829FDFT2NBOHQMM1CIOU0HZYXDXL","","null","<img src=""img/animal2.png"" style=""width:200px; border:14px solid green;"">","null","","","","","",""
"","image-keyboard-response","191","128173","0.0-191.0","3SPJ033422PFDSEISVPXZPYRA04JY0","ABX5OQLR6UNBC","3S829FDFT2NBOHQMM1CIOU0HZYXDXL","","743.0999999940395","img/animal5.png","75","744.4000000059605","2","1","2","0.7,0,0.8,0.7,0.8,0,0.7,0.8,0",""
"","html-keyboard-response","192","128475","0.0-192.0","3SPJ033422PFDSEISVPXZPYRA04JY0","ABX5OQLR6UNBC","3S829FDFT2NBOHQMM1CIOU0HZYXDXL","","null","<img src=""img/animal5.png"" style=""width:200px; border:14px solid green;"">","null","","","","","",""
"","image-keyboard-response","193","129149","0.0-193.0","3SPJ033422PFDSEISVPXZPYRA04JY0","ABX5OQLR6UNBC","3S829FDFT2NBOHQMM1CIOU0HZYXDXL","","672.3999999985099","img/animal2.png","76","673.8999999985099","3","1","1","0.7,0,0.8,0.7,0.8,0,0.7,0.8,0",""
"","html-keyboard-response","194","129452","0.0-194.0","3SPJ033422PFDSEISVPXZPYRA04JY0","ABX5OQLR6UNBC","3S829FDFT2NBOHQMM1CIOU0HZYXDXL","","null","<img src=""img/animal2.png"" style=""width:200px; border:14px solid green;"">","null","","","","","",""
"","image-keyboard-response","195","129973","0.0-195.0","3SPJ033422PFDSEISVPXZPYRA04JY0","ABX5OQLR6UNBC","3S829FDFT2NBOHQMM1CIOU0HZYXDXL","","519.0999999940395","img/animal5.png","75","520.6000000014901","2","1","2","0.7,0,0.8,0.7,0.8,0,0.7,0.8,0",""
"","html-keyboard-response","196","130275","0.0-196.0","3SPJ033422PFDSEISVPXZPYRA04JY0","ABX5OQLR6UNBC","3S829FDFT2NBOHQMM1CIOU0HZYXDXL","","null","<img src=""img/animal5.png"" style=""width:200px; border:14px solid green;"">","null","","","","","",""
"","image-keyboard-response","197","130749","0.0-197.0","3SPJ033422PFDSEISVPXZPYRA04JY0","ABX5OQLR6UNBC","3S829FDFT2NBOHQMM1CIOU0HZYXDXL","","472.20000000298023","img/animal5.png","75","473.5","2","1","2","0.7,0,0.8,0.7,0.8,0,0.7,0.8,0",""
"","html-keyboard-response","198","131052","0.0-198.0","3SPJ033422PFDSEISVPXZPYRA04JY0","ABX5OQLR6UNBC","3S829FDFT2NBOHQMM1CIOU0HZYXDXL","","null","<img src=""img/animal5.png"" style=""width:200px; border:14px solid green;"">","null","","","","","",""
"","image-keyboard-response","199","131653","0.0-199.0","3SPJ033422PFDSEISVPXZPYRA04JY0","ABX5OQLR6UNBC","3S829FDFT2NBOHQMM1CIOU0HZYXDXL","","599.4000000059605","img/animal2.png","76","600.6000000014901","3","1","1","0.7,0,0.8,0.7,0.8,0,0.7,0.8,0",""
"","html-keyboard-response","200","131954","0.0-200.0","3SPJ033422PFDSEISVPXZPYRA04JY0","ABX5OQLR6UNBC","3S829FDFT2NBOHQMM1CIOU0HZYXDXL","","null","<img src=""img/animal2.png"" style=""width:200px; border:14px solid green;"">","null","","","","","",""
"","image-keyboard-response","201","132525","0.0-201.0","3SPJ033422PFDSEISVPXZPYRA04JY0","ABX5OQLR6UNBC","3S829FDFT2NBOHQMM1CIOU0HZYXDXL","","569.1000000014901","img/animal2.png","76","570.5","3","1","1","0.7,0,0.8,0.7,0.8,0,0.7,0.8,0",""
"","html-keyboard-response","202","132827","0.0-202.0","3SPJ033422PFDSEISVPXZPYRA04JY0","ABX5OQLR6UNBC","3S829FDFT2NBOHQMM1CIOU0HZYXDXL","","null","<img src=""img/animal2.png"" style=""width:200px; border:14px solid green;"">","null","","","","","",""
"","image-keyboard-response","203","133629","0.0-203.0","3SPJ033422PFDSEISVPXZPYRA04JY0","ABX5OQLR6UNBC","3S829FDFT2NBOHQMM1CIOU0HZYXDXL","","801.6000000014901","img/animal3.png","74","802.2000000029802","1","1","3","0.7,0,0.8,0.7,0.8,0,0.7,0.8,0",""
"","html-keyboard-response","204","133932","0.0-204.0","3SPJ033422PFDSEISVPXZPYRA04JY0","ABX5OQLR6UNBC","3S829FDFT2NBOHQMM1CIOU0HZYXDXL","","null","<img src=""img/animal3.png"" style=""width:200px; border:14px solid green;"">","null","","","","","",""
"","image-keyboard-response","205","134413","0.0-205.0","3SPJ033422PFDSEISVPXZPYRA04JY0","ABX5OQLR6UNBC","3S829FDFT2NBOHQMM1CIOU0HZYXDXL","","479.69999999552965","img/animal3.png","74","481.09999999403954","1","1","3","0.7,0,0.8,0.7,0.8,0,0.7,0.8,0",""
"","html-keyboard-response","206","134716","0.0-206.0","3SPJ033422PFDSEISVPXZPYRA04JY0","ABX5OQLR6UNBC","3S829FDFT2NBOHQMM1CIOU0HZYXDXL","","null","<img src=""img/animal3.png"" style=""width:200px; border:14px solid green;"">","null","","","","","",""
"","image-keyboard-response","207","135789","0.0-207.0","3SPJ033422PFDSEISVPXZPYRA04JY0","ABX5OQLR6UNBC","3S829FDFT2NBOHQMM1CIOU0HZYXDXL","","1071.5999999940395","img/animal2.png","76","1072.8999999985099","3","1","1","0.7,0,0.8,0.7,0.8,0,0.7,0.8,0",""
"","html-keyboard-response","208","136092","0.0-208.0","3SPJ033422PFDSEISVPXZPYRA04JY0","ABX5OQLR6UNBC","3S829FDFT2NBOHQMM1CIOU0HZYXDXL","","null","<img src=""img/animal2.png"" style=""width:200px; border:14px solid green;"">","null","","","","","",""
"","image-keyboard-response","209","137068","0.0-209.0","3SPJ033422PFDSEISVPXZPYRA04JY0","ABX5OQLR6UNBC","3S829FDFT2NBOHQMM1CIOU0HZYXDXL","","974.7999999970198","img/animal3.png","74","976","1","1","3","0.7,0,0.8,0.7,0.8,0,0.7,0.8,0",""
"","html-keyboard-response","210","137370","0.0-210.0","3SPJ033422PFDSEISVPXZPYRA04JY0","ABX5OQLR6UNBC","3S829FDFT2NBOHQMM1CIOU0HZYXDXL","","null","<img src=""img/animal3.png"" style=""width:200px; border:14px solid green;"">","null","","","","","",""
"","image-keyboard-response","211","137885","0.0-211.0","3SPJ033422PFDSEISVPXZPYRA04JY0","ABX5OQLR6UNBC","3S829FDFT2NBOHQMM1CIOU0HZYXDXL","","513.8000000044703","img/animal3.png","74","515.1000000014901","1","1","3","0.7,0,0.8,0.7,0.8,0,0.7,0.8,0",""
"","html-keyboard-response","212","138188","0.0-212.0","3SPJ033422PFDSEISVPXZPYRA04JY0","ABX5OQLR6UNBC","3S829FDFT2NBOHQMM1CIOU0HZYXDXL","","null","<img src=""img/animal3.png"" style=""width:200px; border:14px solid green;"">","null","","","","","",""
"","image-keyboard-response","213","139021","0.0-213.0","3SPJ033422PFDSEISVPXZPYRA04JY0","ABX5OQLR6UNBC","3S829FDFT2NBOHQMM1CIOU0HZYXDXL","","831.9000000059605","img/animal2.png","76","833.3000000044703","3","1","1","0.7,0,0.8,0.7,0.8,0,0.7,0.8,0",""
"","html-keyboard-response","214","139323","0.0-214.0","3SPJ033422PFDSEISVPXZPYRA04JY0","ABX5OQLR6UNBC","3S829FDFT2NBOHQMM1CIOU0HZYXDXL","","null","<img src=""img/animal2.png"" style=""width:200px; border:14px solid green;"">","null","","","","","",""
"","image-keyboard-response","215","139892","0.0-215.0","3SPJ033422PFDSEISVPXZPYRA04JY0","ABX5OQLR6UNBC","3S829FDFT2NBOHQMM1CIOU0HZYXDXL","","567.7000000029802","img/animal3.png","74","569","1","1","3","0.7,0,0.8,0.7,0.8,0,0.7,0.8,0",""
"","html-keyboard-response","216","140194","0.0-216.0","3SPJ033422PFDSEISVPXZPYRA04JY0","ABX5OQLR6UNBC","3S829FDFT2NBOHQMM1CIOU0HZYXDXL","","null","<img src=""img/animal3.png"" style=""width:200px; border:14px solid green;"">","null","","","","","",""
"","image-keyboard-response","217","140813","0.0-217.0","3SPJ033422PFDSEISVPXZPYRA04JY0","ABX5OQLR6UNBC","3S829FDFT2NBOHQMM1CIOU0HZYXDXL","","617.3000000044703","img/animal2.png","76","618.7000000029802","3","1","1","0.7,0,0.8,0.7,0.8,0,0.7,0.8,0",""
"","html-keyboard-response","218","141115","0.0-218.0","3SPJ033422PFDSEISVPXZPYRA04JY0","ABX5OQLR6UNBC","3S829FDFT2NBOHQMM1CIOU0HZYXDXL","","null","<img src=""img/animal2.png"" style=""width:200px; border:14px solid green;"">","null","","","","","",""
"","image-keyboard-response","219","141709","0.0-219.0","3SPJ033422PFDSEISVPXZPYRA04JY0","ABX5OQLR6UNBC","3S829FDFT2NBOHQMM1CIOU0HZYXDXL","","590.7999999970198","img/animal5.png","75","592.1000000014901","2","0","2","0.7,0,0.8,0.7,0.8,0,0.7,0.8,0",""
"","html-keyboard-response","220","142011","0.0-220.0","3SPJ033422PFDSEISVPXZPYRA04JY0","ABX5OQLR6UNBC","3S829FDFT2NBOHQMM1CIOU0HZYXDXL","","null","<img src=""img/animal5.png"" style=""width:200px;border:14px solid red;"">","null","","","","","",""
"","image-keyboard-response","221","143038","0.0-221.0","3SPJ033422PFDSEISVPXZPYRA04JY0","ABX5OQLR6UNBC","3S829FDFT2NBOHQMM1CIOU0HZYXDXL","","1025.5","img/animal3.png","74","1026.3000000044703","1","0","3","0.7,0,0.8,0.7,0.8,0,0.7,0.8,0",""
"","html-keyboard-response","222","143341","0.0-222.0","3SPJ033422PFDSEISVPXZPYRA04JY0","ABX5OQLR6UNBC","3S829FDFT2NBOHQMM1CIOU0HZYXDXL","","null","<img src=""img/animal3.png"" style=""width:200px;border:14px solid red;"">","null","","","","","",""
"","image-keyboard-response","223","144285","0.0-223.0","3SPJ033422PFDSEISVPXZPYRA04JY0","ABX5OQLR6UNBC","3S829FDFT2NBOHQMM1CIOU0HZYXDXL","","942.8000000044703","img/animal2.png","76","944.3000000044703","3","1","1","0.7,0,0.8,0.7,0.8,0,0.7,0.8,0",""
"","html-keyboard-response","224","144588","0.0-224.0","3SPJ033422PFDSEISVPXZPYRA04JY0","ABX5OQLR6UNBC","3S829FDFT2NBOHQMM1CIOU0HZYXDXL","","null","<img src=""img/animal2.png"" style=""width:200px; border:14px solid green;"">","null","","","","","",""
"","image-keyboard-response","225","145286","0.0-225.0","3SPJ033422PFDSEISVPXZPYRA04JY0","ABX5OQLR6UNBC","3S829FDFT2NBOHQMM1CIOU0HZYXDXL","","696","img/animal5.png","75","697.2999999970198","2","0","2","0.7,0,0.8,0.7,0.8,0,0.7,0.8,0",""
"","html-keyboard-response","226","145588","0.0-226.0","3SPJ033422PFDSEISVPXZPYRA04JY0","ABX5OQLR6UNBC","3S829FDFT2NBOHQMM1CIOU0HZYXDXL","","null","<img src=""img/animal5.png"" style=""width:200px;border:14px solid red;"">","null","","","","","",""
"","image-keyboard-response","227","146020","0.0-227.0","3SPJ033422PFDSEISVPXZPYRA04JY0","ABX5OQLR6UNBC","3S829FDFT2NBOHQMM1CIOU0HZYXDXL","","431.3999999985099","img/animal5.png","75","431.8999999985099","2","1","2","0.7,0,0.8,0.7,0.8,0,0.7,0.8,0",""
"","html-keyboard-response","228","146321","0.0-228.0","3SPJ033422PFDSEISVPXZPYRA04JY0","ABX5OQLR6UNBC","3S829FDFT2NBOHQMM1CIOU0HZYXDXL","","null","<img src=""img/animal5.png"" style=""width:200px; border:14px solid green;"">","null","","","","","",""
"","image-keyboard-response","229","146917","0.0-229.0","3SPJ033422PFDSEISVPXZPYRA04JY0","ABX5OQLR6UNBC","3S829FDFT2NBOHQMM1CIOU0HZYXDXL","","594.2999999970198","img/animal3.png","74","595.5","1","1","3","0.7,0,0.8,0.7,0.8,0,0.7,0.8,0",""
"","html-keyboard-response","230","147230","0.0-230.0","3SPJ033422PFDSEISVPXZPYRA04JY0","ABX5OQLR6UNBC","3S829FDFT2NBOHQMM1CIOU0HZYXDXL","","null","<img src=""img/animal3.png"" style=""width:200px; border:14px solid green;"">","null","","","","","",""
"","image-keyboard-response","231","148037","0.0-231.0","3SPJ033422PFDSEISVPXZPYRA04JY0","ABX5OQLR6UNBC","3S829FDFT2NBOHQMM1CIOU0HZYXDXL","","805.5999999940395","img/animal2.png","76","806.8999999985099","3","1","1","0.7,0,0.8,0.7,0.8,0,0.7,0.8,0",""
"","html-keyboard-response","232","148339","0.0-232.0","3SPJ033422PFDSEISVPXZPYRA04JY0","ABX5OQLR6UNBC","3S829FDFT2NBOHQMM1CIOU0HZYXDXL","","null","<img src=""img/animal2.png"" style=""width:200px; border:14px solid green;"">","null","","","","","",""
"","image-keyboard-response","233","149117","0.0-233.0","3SPJ033422PFDSEISVPXZPYRA04JY0","ABX5OQLR6UNBC","3S829FDFT2NBOHQMM1CIOU0HZYXDXL","","776.5999999940395","img/animal3.png","74","777.8999999985099","1","1","3","0.7,0,0.8,0.7,0.8,0,0.7,0.8,0",""
"","html-keyboard-response","234","149419","0.0-234.0","3SPJ033422PFDSEISVPXZPYRA04JY0","ABX5OQLR6UNBC","3S829FDFT2NBOHQMM1CIOU0HZYXDXL","","null","<img src=""img/animal3.png"" style=""width:200px; border:14px solid green;"">","null","","","","","",""
"","image-keyboard-response","235","150117","0.0-235.0","3SPJ033422PFDSEISVPXZPYRA04JY0","ABX5OQLR6UNBC","3S829FDFT2NBOHQMM1CIOU0HZYXDXL","","696.1000000014901","img/animal2.png","76","697.3999999985099","3","1","1","0.7,0,0.8,0.7,0.8,0,0.7,0.8,0",""
"","html-keyboard-response","236","150420","0.0-236.0","3SPJ033422PFDSEISVPXZPYRA04JY0","ABX5OQLR6UNBC","3S829FDFT2NBOHQMM1CIOU0HZYXDXL","","null","<img src=""img/animal2.png"" style=""width:200px; border:14px solid green;"">","null","","","","","",""
"","image-keyboard-response","237","151029","0.0-237.0","3SPJ033422PFDSEISVPXZPYRA04JY0","ABX5OQLR6UNBC","3S829FDFT2NBOHQMM1CIOU0HZYXDXL","","607.4000000059605","img/animal5.png","75","608.7000000029802","2","1","2","0.7,0,0.8,0.7,0.8,0,0.7,0.8,0",""
"","html-keyboard-response","238","151331","0.0-238.0","3SPJ033422PFDSEISVPXZPYRA04JY0","ABX5OQLR6UNBC","3S829FDFT2NBOHQMM1CIOU0HZYXDXL","","null","<img src=""img/animal5.png"" style=""width:200px; border:14px solid green;"">","null","","","","","",""
"","image-keyboard-response","239","152724","0.0-239.0","3SPJ033422PFDSEISVPXZPYRA04JY0","ABX5OQLR6UNBC","3S829FDFT2NBOHQMM1CIOU0HZYXDXL","","1391.5","img/animal2.png","76","1392.6000000014901","3","1","1","0.7,0,0.8,0.7,0.8,0,0.7,0.8,0",""
"","html-keyboard-response","240","153025","0.0-240.0","3SPJ033422PFDSEISVPXZPYRA04JY0","ABX5OQLR6UNBC","3S829FDFT2NBOHQMM1CIOU0HZYXDXL","","null","<img src=""img/animal2.png"" style=""width:200px; border:14px solid green;"">","null","","","","","",""
"","image-keyboard-response","241","153796","0.0-241.0","3SPJ033422PFDSEISVPXZPYRA04JY0","ABX5OQLR6UNBC","3S829FDFT2NBOHQMM1CIOU0HZYXDXL","","769.3999999985099","img/animal5.png","75","770.6999999955297","2","1","2","0.7,0,0.8,0.7,0.8,0,0.7,0.8,0",""
"","html-keyboard-response","242","154098","0.0-242.0","3SPJ033422PFDSEISVPXZPYRA04JY0","ABX5OQLR6UNBC","3S829FDFT2NBOHQMM1CIOU0HZYXDXL","","null","<img src=""img/animal5.png"" style=""width:200px; border:14px solid green;"">","null","","","","","",""
"","image-keyboard-response","243","154596","0.0-243.0","3SPJ033422PFDSEISVPXZPYRA04JY0","ABX5OQLR6UNBC","3S829FDFT2NBOHQMM1CIOU0HZYXDXL","","496.59999999403954","img/animal5.png","75","497.69999999552965","2","1","2","0.7,0,0.8,0.7,0.8,0,0.7,0.8,0",""
"","html-keyboard-response","244","154898","0.0-244.0","3SPJ033422PFDSEISVPXZPYRA04JY0","ABX5OQLR6UNBC","3S829FDFT2NBOHQMM1CIOU0HZYXDXL","","null","<img src=""img/animal5.png"" style=""width:200px; border:14px solid green;"">","null","","","","","",""
"","image-keyboard-response","245","155541","0.0-245.0","3SPJ033422PFDSEISVPXZPYRA04JY0","ABX5OQLR6UNBC","3S829FDFT2NBOHQMM1CIOU0HZYXDXL","","641.8000000044703","img/animal3.png","74","642.8999999985099","1","0","3","0.7,0,0.8,0.7,0.8,0,0.7,0.8,0",""
"","html-keyboard-response","246","155843","0.0-246.0","3SPJ033422PFDSEISVPXZPYRA04JY0","ABX5OQLR6UNBC","3S829FDFT2NBOHQMM1CIOU0HZYXDXL","","null","<img src=""img/animal3.png"" style=""width:200px;border:14px solid red;"">","null","","","","","",""
"","image-keyboard-response","247","156604","0.0-247.0","3SPJ033422PFDSEISVPXZPYRA04JY0","ABX5OQLR6UNBC","3S829FDFT2NBOHQMM1CIOU0HZYXDXL","","759.1999999955297","img/animal2.png","75","760.3999999985099","2","0","1","0.7,0,0.8,0.7,0.8,0,0.7,0.8,0",""
"","html-keyboard-response","248","156906","0.0-248.0","3SPJ033422PFDSEISVPXZPYRA04JY0","ABX5OQLR6UNBC","3S829FDFT2NBOHQMM1CIOU0HZYXDXL","","null","<img src=""img/animal2.png"" style=""width:200px;border:14px solid red;"">","null","","","","","",""
"","image-keyboard-response","249","157349","0.0-249.0","3SPJ033422PFDSEISVPXZPYRA04JY0","ABX5OQLR6UNBC","3S829FDFT2NBOHQMM1CIOU0HZYXDXL","","441.80000000447035","img/animal2.png","76","443.20000000298023","3","0","1","0.7,0,0.8,0.7,0.8,0,0.7,0.8,0",""
"","html-keyboard-response","250","157651","0.0-250.0","3SPJ033422PFDSEISVPXZPYRA04JY0","ABX5OQLR6UNBC","3S829FDFT2NBOHQMM1CIOU0HZYXDXL","","null","<img src=""img/animal2.png"" style=""width:200px;border:14px solid red;"">","null","","","","","",""
"","image-keyboard-response","251","158461","0.0-251.0","3SPJ033422PFDSEISVPXZPYRA04JY0","ABX5OQLR6UNBC","3S829FDFT2NBOHQMM1CIOU0HZYXDXL","","808.6999999955297","img/animal5.png","75","809.8999999985099","2","1","2","0.7,0,0.8,0.7,0.8,0,0.7,0.8,0",""
"","html-keyboard-response","252","158763","0.0-252.0","3SPJ033422PFDSEISVPXZPYRA04JY0","ABX5OQLR6UNBC","3S829FDFT2NBOHQMM1CIOU0HZYXDXL","","null","<img src=""img/animal5.png"" style=""width:200px; border:14px solid green;"">","null","","","","","",""
"","image-keyboard-response","253","159517","0.0-253.0","3SPJ033422PFDSEISVPXZPYRA04JY0","ABX5OQLR6UNBC","3S829FDFT2NBOHQMM1CIOU0HZYXDXL","","752.7000000029802","img/animal3.png","74","753.3999999985099","1","0","3","0.7,0,0.8,0.7,0.8,0,0.7,0.8,0",""
"","html-keyboard-response","254","159819","0.0-254.0","3SPJ033422PFDSEISVPXZPYRA04JY0","ABX5OQLR6UNBC","3S829FDFT2NBOHQMM1CIOU0HZYXDXL","","null","<img src=""img/animal3.png"" style=""width:200px;border:14px solid red;"">","null","","","","","",""
"","image-keyboard-response","255","160861","0.0-255.0","3SPJ033422PFDSEISVPXZPYRA04JY0","ABX5OQLR6UNBC","3S829FDFT2NBOHQMM1CIOU0HZYXDXL","","1040.5","img/animal5.png","75","1041.7999999970198","2","1","2","0.7,0,0.8,0.7,0.8,0,0.7,0.8,0",""
"","html-keyboard-response","256","161164","0.0-256.0","3SPJ033422PFDSEISVPXZPYRA04JY0","ABX5OQLR6UNBC","3S829FDFT2NBOHQMM1CIOU0HZYXDXL","","null","<img src=""img/animal5.png"" style=""width:200px; border:14px solid green;"">","null","","","","","",""
"","image-keyboard-response","257","161973","0.0-257.0","3SPJ033422PFDSEISVPXZPYRA04JY0","ABX5OQLR6UNBC","3S829FDFT2NBOHQMM1CIOU0HZYXDXL","","807.6000000014901","img/animal3.png","74","809.1000000014901","1","1","3","0.7,0,0.8,0.7,0.8,0,0.7,0.8,0",""
"","html-keyboard-response","258","162276","0.0-258.0","3SPJ033422PFDSEISVPXZPYRA04JY0","ABX5OQLR6UNBC","3S829FDFT2NBOHQMM1CIOU0HZYXDXL","","null","<img src=""img/animal3.png"" style=""width:200px; border:14px solid green;"">","null","","","","","",""
"","image-keyboard-response","259","162749","0.0-259.0","3SPJ033422PFDSEISVPXZPYRA04JY0","ABX5OQLR6UNBC","3S829FDFT2NBOHQMM1CIOU0HZYXDXL","","472","img/animal3.png","74","473.20000000298023","1","1","3","0.7,0,0.8,0.7,0.8,0,0.7,0.8,0",""
"","html-keyboard-response","260","163051","0.0-260.0","3SPJ033422PFDSEISVPXZPYRA04JY0","ABX5OQLR6UNBC","3S829FDFT2NBOHQMM1CIOU0HZYXDXL","","null","<img src=""img/animal3.png"" style=""width:200px; border:14px solid green;"">","null","","","","","",""
"","image-keyboard-response","261","163701","0.0-261.0","3SPJ033422PFDSEISVPXZPYRA04JY0","ABX5OQLR6UNBC","3S829FDFT2NBOHQMM1CIOU0HZYXDXL","","648.5","img/animal2.png","76","649.8000000044703","3","1","1","0.7,0,0.8,0.7,0.8,0,0.7,0.8,0",""
"","html-keyboard-response","262","164004","0.0-262.0","3SPJ033422PFDSEISVPXZPYRA04JY0","ABX5OQLR6UNBC","3S829FDFT2NBOHQMM1CIOU0HZYXDXL","","null","<img src=""img/animal2.png"" style=""width:200px; border:14px solid green;"">","null","","","","","",""
"","image-keyboard-response","263","164493","0.0-263.0","3SPJ033422PFDSEISVPXZPYRA04JY0","ABX5OQLR6UNBC","3S829FDFT2NBOHQMM1CIOU0HZYXDXL","","487.8999999985099","img/animal2.png","76","489.20000000298023","3","0","1","0.7,0,0.8,0.7,0.8,0,0.7,0.8,0",""
"","html-keyboard-response","264","164796","0.0-264.0","3SPJ033422PFDSEISVPXZPYRA04JY0","ABX5OQLR6UNBC","3S829FDFT2NBOHQMM1CIOU0HZYXDXL","","null","<img src=""img/animal2.png"" style=""width:200px;border:14px solid red;"">","null","","","","","",""
"","image-keyboard-response","265","165701","0.0-265.0","3SPJ033422PFDSEISVPXZPYRA04JY0","ABX5OQLR6UNBC","3S829FDFT2NBOHQMM1CIOU0HZYXDXL","","904.2000000029802","img/animal3.png","74","905.3999999985099","1","0","3","0.7,0,0.8,0.7,0.8,0,0.7,0.8,0",""
"","html-keyboard-response","266","166003","0.0-266.0","3SPJ033422PFDSEISVPXZPYRA04JY0","ABX5OQLR6UNBC","3S829FDFT2NBOHQMM1CIOU0HZYXDXL","","null","<img src=""img/animal3.png"" style=""width:200px;border:14px solid red;"">","null","","","","","",""
"","image-keyboard-response","267","166861","0.0-267.0","3SPJ033422PFDSEISVPXZPYRA04JY0","ABX5OQLR6UNBC","3S829FDFT2NBOHQMM1CIOU0HZYXDXL","","856.8999999985099","img/animal2.png","75","857.5","2","0","1","0.7,0,0.8,0.7,0.8,0,0.7,0.8,0",""
"","html-keyboard-response","268","167163","0.0-268.0","3SPJ033422PFDSEISVPXZPYRA04JY0","ABX5OQLR6UNBC","3S829FDFT2NBOHQMM1CIOU0HZYXDXL","","null","<img src=""img/animal2.png"" style=""width:200px;border:14px solid red;"">","null","","","","","",""
"","image-keyboard-response","269","167525","0.0-269.0","3SPJ033422PFDSEISVPXZPYRA04JY0","ABX5OQLR6UNBC","3S829FDFT2NBOHQMM1CIOU0HZYXDXL","","360","img/animal2.png","76","361.3999999985099","3","1","1","0.7,0,0.8,0.7,0.8,0,0.7,0.8,0",""
"","html-keyboard-response","270","167827","0.0-270.0","3SPJ033422PFDSEISVPXZPYRA04JY0","ABX5OQLR6UNBC","3S829FDFT2NBOHQMM1CIOU0HZYXDXL","","null","<img src=""img/animal2.png"" style=""width:200px; border:14px solid green;"">","null","","","","","",""
"","image-keyboard-response","271","168661","0.0-271.0","3SPJ033422PFDSEISVPXZPYRA04JY0","ABX5OQLR6UNBC","3S829FDFT2NBOHQMM1CIOU0HZYXDXL","","832.5","img/animal3.png","74","833.8999999985099","1","1","3","0.7,0,0.8,0.7,0.8,0,0.7,0.8,0",""
"","html-keyboard-response","272","168963","0.0-272.0","3SPJ033422PFDSEISVPXZPYRA04JY0","ABX5OQLR6UNBC","3S829FDFT2NBOHQMM1CIOU0HZYXDXL","","null","<img src=""img/animal3.png"" style=""width:200px; border:14px solid green;"">","null","","","","","",""
"","image-keyboard-response","273","170173","0.0-273.0","3SPJ033422PFDSEISVPXZPYRA04JY0","ABX5OQLR6UNBC","3S829FDFT2NBOHQMM1CIOU0HZYXDXL","","1208.1999999955297","img/animal5.png","75","1209.5","2","0","2","0.7,0,0.8,0.7,0.8,0,0.7,0.8,0",""
"","html-keyboard-response","274","170475","0.0-274.0","3SPJ033422PFDSEISVPXZPYRA04JY0","ABX5OQLR6UNBC","3S829FDFT2NBOHQMM1CIOU0HZYXDXL","","null","<img src=""img/animal5.png"" style=""width:200px;border:14px solid red;"">","null","","","","","",""
"","image-keyboard-response","275","171789","0.0-275.0","3SPJ033422PFDSEISVPXZPYRA04JY0","ABX5OQLR6UNBC","3S829FDFT2NBOHQMM1CIOU0HZYXDXL","","1312.2999999970198","img/animal3.png","74","1313.6000000014901","1","1","3","0.7,0,0.8,0.7,0.8,0,0.7,0.8,0",""
"","html-keyboard-response","276","172091","0.0-276.0","3SPJ033422PFDSEISVPXZPYRA04JY0","ABX5OQLR6UNBC","3S829FDFT2NBOHQMM1CIOU0HZYXDXL","","null","<img src=""img/animal3.png"" style=""width:200px; border:14px solid green;"">","null","","","","","",""
"","image-keyboard-response","277","172501","0.0-277.0","3SPJ033422PFDSEISVPXZPYRA04JY0","ABX5OQLR6UNBC","3S829FDFT2NBOHQMM1CIOU0HZYXDXL","","409.09999999403954","img/animal3.png","74","409.70000000298023","1","0","3","0.7,0,0.8,0.7,0.8,0,0.7,0.8,0",""
"","html-keyboard-response","278","172804","0.0-278.0","3SPJ033422PFDSEISVPXZPYRA04JY0","ABX5OQLR6UNBC","3S829FDFT2NBOHQMM1CIOU0HZYXDXL","","null","<img src=""img/animal3.png"" style=""width:200px;border:14px solid red;"">","null","","","","","",""
"","image-keyboard-response","279","173653","0.0-279.0","3SPJ033422PFDSEISVPXZPYRA04JY0","ABX5OQLR6UNBC","3S829FDFT2NBOHQMM1CIOU0HZYXDXL","","847.8000000044703","img/animal2.png","76","849.3000000044703","3","1","1","0.7,0,0.8,0.7,0.8,0,0.7,0.8,0",""
"","html-keyboard-response","280","173955","0.0-280.0","3SPJ033422PFDSEISVPXZPYRA04JY0","ABX5OQLR6UNBC","3S829FDFT2NBOHQMM1CIOU0HZYXDXL","","null","<img src=""img/animal2.png"" style=""width:200px; border:14px solid green;"">","null","","","","","",""
"","image-keyboard-response","281","174397","0.0-281.0","3SPJ033422PFDSEISVPXZPYRA04JY0","ABX5OQLR6UNBC","3S829FDFT2NBOHQMM1CIOU0HZYXDXL","","440.19999999552965","img/animal2.png","76","441.3999999985099","3","1","1","0.7,0,0.8,0.7,0.8,0,0.7,0.8,0",""
"","html-keyboard-response","282","174712","0.0-282.0","3SPJ033422PFDSEISVPXZPYRA04JY0","ABX5OQLR6UNBC","3S829FDFT2NBOHQMM1CIOU0HZYXDXL","","null","<img src=""img/animal2.png"" style=""width:200px; border:14px solid green;"">","null","","","","","",""
"","image-keyboard-response","283","175485","0.0-283.0","3SPJ033422PFDSEISVPXZPYRA04JY0","ABX5OQLR6UNBC","3S829FDFT2NBOHQMM1CIOU0HZYXDXL","","771.2999999970198","img/animal3.png","74","772.7000000029802","1","1","3","0.7,0,0.8,0.7,0.8,0,0.7,0.8,0",""
"","html-keyboard-response","284","175788","0.0-284.0","3SPJ033422PFDSEISVPXZPYRA04JY0","ABX5OQLR6UNBC","3S829FDFT2NBOHQMM1CIOU0HZYXDXL","","null","<img src=""img/animal3.png"" style=""width:200px; border:14px solid green;"">","null","","","","","",""
"","image-keyboard-response","285","176205","0.0-285.0","3SPJ033422PFDSEISVPXZPYRA04JY0","ABX5OQLR6UNBC","3S829FDFT2NBOHQMM1CIOU0HZYXDXL","","416","img/animal3.png","74","417.29999999701977","1","1","3","0.7,0,0.8,0.7,0.8,0,0.7,0.8,0",""
"","html-keyboard-response","286","176508","0.0-286.0","3SPJ033422PFDSEISVPXZPYRA04JY0","ABX5OQLR6UNBC","3S829FDFT2NBOHQMM1CIOU0HZYXDXL","","null","<img src=""img/animal3.png"" style=""width:200px; border:14px solid green;"">","null","","","","","",""
"","image-keyboard-response","287","176948","0.0-287.0","3SPJ033422PFDSEISVPXZPYRA04JY0","ABX5OQLR6UNBC","3S829FDFT2NBOHQMM1CIOU0HZYXDXL","","438.6000000014901","img/animal3.png","74","439.70000000298023","1","1","3","0.7,0,0.8,0.7,0.8,0,0.7,0.8,0",""
"","html-keyboard-response","288","177250","0.0-288.0","3SPJ033422PFDSEISVPXZPYRA04JY0","ABX5OQLR6UNBC","3S829FDFT2NBOHQMM1CIOU0HZYXDXL","","null","<img src=""img/animal3.png"" style=""width:200px; border:14px solid green;"">","null","","","","","",""
"","image-keyboard-response","289","178076","0.0-289.0","3SPJ033422PFDSEISVPXZPYRA04JY0","ABX5OQLR6UNBC","3S829FDFT2NBOHQMM1CIOU0HZYXDXL","","824.7999999970198","img/animal5.png","75","825.8999999985099","2","0","2","0.7,0,0.8,0.7,0.8,0,0.7,0.8,0",""
"","html-keyboard-response","290","178377","0.0-290.0","3SPJ033422PFDSEISVPXZPYRA04JY0","ABX5OQLR6UNBC","3S829FDFT2NBOHQMM1CIOU0HZYXDXL","","null","<img src=""img/animal5.png"" style=""width:200px;border:14px solid red;"">","null","","","","","",""
"","image-keyboard-response","291","178725","0.0-291.0","3SPJ033422PFDSEISVPXZPYRA04JY0","ABX5OQLR6UNBC","3S829FDFT2NBOHQMM1CIOU0HZYXDXL","","346.59999999403954","img/animal5.png","75","347.80000000447035","2","1","2","0.7,0,0.8,0.7,0.8,0,0.7,0.8,0",""
"","html-keyboard-response","292","179029","0.0-292.0","3SPJ033422PFDSEISVPXZPYRA04JY0","ABX5OQLR6UNBC","3S829FDFT2NBOHQMM1CIOU0HZYXDXL","","null","<img src=""img/animal5.png"" style=""width:200px; border:14px solid green;"">","null","","","","","",""
"","image-keyboard-response","293","179525","0.0-293.0","3SPJ033422PFDSEISVPXZPYRA04JY0","ABX5OQLR6UNBC","3S829FDFT2NBOHQMM1CIOU0HZYXDXL","","494.8999999985099","img/animal5.png","75","496.20000000298023","2","1","2","0.7,0,0.8,0.7,0.8,0,0.7,0.8,0",""
"","html-keyboard-response","294","179828","0.0-294.0","3SPJ033422PFDSEISVPXZPYRA04JY0","ABX5OQLR6UNBC","3S829FDFT2NBOHQMM1CIOU0HZYXDXL","","null","<img src=""img/animal5.png"" style=""width:200px; border:14px solid green;"">","null","","","","","",""
"","image-keyboard-response","295","180700","0.0-295.0","3SPJ033422PFDSEISVPXZPYRA04JY0","ABX5OQLR6UNBC","3S829FDFT2NBOHQMM1CIOU0HZYXDXL","","870.5","img/animal2.png","76","871.7000000029802","3","0","1","0.7,0,0.8,0.7,0.8,0,0.7,0.8,0",""
"","html-keyboard-response","296","181002","0.0-296.0","3SPJ033422PFDSEISVPXZPYRA04JY0","ABX5OQLR6UNBC","3S829FDFT2NBOHQMM1CIOU0HZYXDXL","","null","<img src=""img/animal2.png"" style=""width:200px;border:14px solid red;"">","null","","","","","",""
"","image-keyboard-response","297","181860","0.0-297.0","3SPJ033422PFDSEISVPXZPYRA04JY0","ABX5OQLR6UNBC","3S829FDFT2NBOHQMM1CIOU0HZYXDXL","","856.8999999985099","img/animal5.png","75","858","2","1","2","0.7,0,0.8,0.7,0.8,0,0.7,0.8,0",""
"","html-keyboard-response","298","182162","0.0-298.0","3SPJ033422PFDSEISVPXZPYRA04JY0","ABX5OQLR6UNBC","3S829FDFT2NBOHQMM1CIOU0HZYXDXL","","null","<img src=""img/animal5.png"" style=""width:200px; border:14px solid green;"">","null","","","","","",""
"","image-keyboard-response","299","182580","0.0-299.0","3SPJ033422PFDSEISVPXZPYRA04JY0","ABX5OQLR6UNBC","3S829FDFT2NBOHQMM1CIOU0HZYXDXL","","417","img/animal5.png","75","418.30000000447035","2","1","2","0.7,0,0.8,0.7,0.8,0,0.7,0.8,0",""
"","html-keyboard-response","300","182881","0.0-300.0","3SPJ033422PFDSEISVPXZPYRA04JY0","ABX5OQLR6UNBC","3S829FDFT2NBOHQMM1CIOU0HZYXDXL","","null","<img src=""img/animal5.png"" style=""width:200px; border:14px solid green;"">","null","","","","","",""
"","image-keyboard-response","301","184285","0.0-301.0","3SPJ033422PFDSEISVPXZPYRA04JY0","ABX5OQLR6UNBC","3S829FDFT2NBOHQMM1CIOU0HZYXDXL","","1403.2999999970198","img/animal2.png","76","1404.1000000014901","3","0","1","0.7,0,0.8,0.7,0.8,0,0.7,0.8,0",""
"","html-keyboard-response","302","184588","0.0-302.0","3SPJ033422PFDSEISVPXZPYRA04JY0","ABX5OQLR6UNBC","3S829FDFT2NBOHQMM1CIOU0HZYXDXL","","null","<img src=""img/animal2.png"" style=""width:200px;border:14px solid red;"">","null","","","","","",""
"","image-keyboard-response","303","185021","0.0-303.0","3SPJ033422PFDSEISVPXZPYRA04JY0","ABX5OQLR6UNBC","3S829FDFT2NBOHQMM1CIOU0HZYXDXL","","432.79999999701977","img/animal2.png","76","433.40000000596046","3","1","1","0.7,0,0.8,0.7,0.8,0,0.7,0.8,0",""
"","html-keyboard-response","304","185323","0.0-304.0","3SPJ033422PFDSEISVPXZPYRA04JY0","ABX5OQLR6UNBC","3S829FDFT2NBOHQMM1CIOU0HZYXDXL","","null","<img src=""img/animal2.png"" style=""width:200px; border:14px solid green;"">","null","","","","","",""
"","image-keyboard-response","305","186389","0.0-305.0","3SPJ033422PFDSEISVPXZPYRA04JY0","ABX5OQLR6UNBC","3S829FDFT2NBOHQMM1CIOU0HZYXDXL","","1064.8000000044703","img/animal3.png","74","1066.1000000014901","1","1","3","0.7,0,0.8,0.7,0.8,0,0.7,0.8,0",""
"","html-keyboard-response","306","186692","0.0-306.0","3SPJ033422PFDSEISVPXZPYRA04JY0","ABX5OQLR6UNBC","3S829FDFT2NBOHQMM1CIOU0HZYXDXL","","null","<img src=""img/animal3.png"" style=""width:200px; border:14px solid green;"">","null","","","","","",""
"","image-keyboard-response","307","187141","0.0-307.0","3SPJ033422PFDSEISVPXZPYRA04JY0","ABX5OQLR6UNBC","3S829FDFT2NBOHQMM1CIOU0HZYXDXL","","447.59999999403954","img/animal3.png","74","449","1","1","3","0.7,0,0.8,0.7,0.8,0,0.7,0.8,0",""
"","html-keyboard-response","308","187444","0.0-308.0","3SPJ033422PFDSEISVPXZPYRA04JY0","ABX5OQLR6UNBC","3S829FDFT2NBOHQMM1CIOU0HZYXDXL","","null","<img src=""img/animal3.png"" style=""width:200px; border:14px solid green;"">","null","","","","","",""
"","image-keyboard-response","309","188181","0.0-309.0","3SPJ033422PFDSEISVPXZPYRA04JY0","ABX5OQLR6UNBC","3S829FDFT2NBOHQMM1CIOU0HZYXDXL","","735.6999999955297","img/animal2.png","76","737","3","0","1","0.7,0,0.8,0.7,0.8,0,0.7,0.8,0",""
"","html-keyboard-response","310","188484","0.0-310.0","3SPJ033422PFDSEISVPXZPYRA04JY0","ABX5OQLR6UNBC","3S829FDFT2NBOHQMM1CIOU0HZYXDXL","","null","<img src=""img/animal2.png"" style=""width:200px;border:14px solid red;"">","null","","","","","",""
"","image-keyboard-response","311","189205","0.0-311.0","3SPJ033422PFDSEISVPXZPYRA04JY0","ABX5OQLR6UNBC","3S829FDFT2NBOHQMM1CIOU0HZYXDXL","","719.7999999970198","img/animal3.png","74","721.2000000029802","1","1","3","0.7,0,0.8,0.7,0.8,0,0.7,0.8,0",""
"","html-keyboard-response","312","189508","0.0-312.0","3SPJ033422PFDSEISVPXZPYRA04JY0","ABX5OQLR6UNBC","3S829FDFT2NBOHQMM1CIOU0HZYXDXL","","null","<img src=""img/animal3.png"" style=""width:200px; border:14px solid green;"">","null","","","","","",""
"","image-keyboard-response","313","189957","0.0-313.0","3SPJ033422PFDSEISVPXZPYRA04JY0","ABX5OQLR6UNBC","3S829FDFT2NBOHQMM1CIOU0HZYXDXL","","448.59999999403954","img/animal3.png","74","449.20000000298023","1","0","3","0.7,0,0.8,0.7,0.8,0,0.7,0.8,0",""
"","html-keyboard-response","314","190274","0.0-314.0","3SPJ033422PFDSEISVPXZPYRA04JY0","ABX5OQLR6UNBC","3S829FDFT2NBOHQMM1CIOU0HZYXDXL","","null","<img src=""img/animal3.png"" style=""width:200px;border:14px solid red;"">","null","","","","","",""
"","image-keyboard-response","315","190836","0.0-315.0","3SPJ033422PFDSEISVPXZPYRA04JY0","ABX5OQLR6UNBC","3S829FDFT2NBOHQMM1CIOU0HZYXDXL","","561.1000000014901","img/animal3.png","74","562.1000000014901","1","1","3","0.7,0,0.8,0.7,0.8,0,0.7,0.8,0",""
"","html-keyboard-response","316","191138","0.0-316.0","3SPJ033422PFDSEISVPXZPYRA04JY0","ABX5OQLR6UNBC","3S829FDFT2NBOHQMM1CIOU0HZYXDXL","","null","<img src=""img/animal3.png"" style=""width:200px; border:14px solid green;"">","null","","","","","",""
"","image-keyboard-response","317","191597","0.0-317.0","3SPJ033422PFDSEISVPXZPYRA04JY0","ABX5OQLR6UNBC","3S829FDFT2NBOHQMM1CIOU0HZYXDXL","","457.5","img/animal3.png","74","459","1","1","3","0.7,0,0.8,0.7,0.8,0,0.7,0.8,0",""
"","html-keyboard-response","318","191899","0.0-318.0","3SPJ033422PFDSEISVPXZPYRA04JY0","ABX5OQLR6UNBC","3S829FDFT2NBOHQMM1CIOU0HZYXDXL","","null","<img src=""img/animal3.png"" style=""width:200px; border:14px solid green;"">","null","","","","","",""
"","image-keyboard-response","319","192644","0.0-319.0","3SPJ033422PFDSEISVPXZPYRA04JY0","ABX5OQLR6UNBC","3S829FDFT2NBOHQMM1CIOU0HZYXDXL","","743.6000000014901","img/animal5.png","76","744.7000000029802","3","0","2","0.7,0,0.8,0.7,0.8,0,0.7,0.8,0",""
"","html-keyboard-response","320","192945","0.0-320.0","3SPJ033422PFDSEISVPXZPYRA04JY0","ABX5OQLR6UNBC","3S829FDFT2NBOHQMM1CIOU0HZYXDXL","","null","<img src=""img/animal5.png"" style=""width:200px;border:14px solid red;"">","null","","","","","",""
"","image-keyboard-response","321","193404","0.0-321.0","3SPJ033422PFDSEISVPXZPYRA04JY0","ABX5OQLR6UNBC","3S829FDFT2NBOHQMM1CIOU0HZYXDXL","","457.20000000298023","img/animal5.png","75","458.30000000447035","2","1","2","0.7,0,0.8,0.7,0.8,0,0.7,0.8,0",""
"","html-keyboard-response","322","193710","0.0-322.0","3SPJ033422PFDSEISVPXZPYRA04JY0","ABX5OQLR6UNBC","3S829FDFT2NBOHQMM1CIOU0HZYXDXL","","null","<img src=""img/animal5.png"" style=""width:200px; border:14px solid green;"">","null","","","","","",""
"","image-keyboard-response","323","194189","0.0-323.0","3SPJ033422PFDSEISVPXZPYRA04JY0","ABX5OQLR6UNBC","3S829FDFT2NBOHQMM1CIOU0HZYXDXL","","477.09999999403954","img/animal5.png","75","478.5","2","1","2","0.7,0,0.8,0.7,0.8,0,0.7,0.8,0",""
"","html-keyboard-response","324","194492","0.0-324.0","3SPJ033422PFDSEISVPXZPYRA04JY0","ABX5OQLR6UNBC","3S829FDFT2NBOHQMM1CIOU0HZYXDXL","","null","<img src=""img/animal5.png"" style=""width:200px; border:14px solid green;"">","null","","","","","",""
"","image-keyboard-response","325","194909","0.0-325.0","3SPJ033422PFDSEISVPXZPYRA04JY0","ABX5OQLR6UNBC","3S829FDFT2NBOHQMM1CIOU0HZYXDXL","","415.8999999985099","img/animal5.png","75","417.20000000298023","2","1","2","0.7,0,0.8,0.7,0.8,0,0.7,0.8,0",""
"","html-keyboard-response","326","195211","0.0-326.0","3SPJ033422PFDSEISVPXZPYRA04JY0","ABX5OQLR6UNBC","3S829FDFT2NBOHQMM1CIOU0HZYXDXL","","null","<img src=""img/animal5.png"" style=""width:200px; border:14px solid green;"">","null","","","","","",""
"","image-keyboard-response","327","195652","0.0-327.0","3SPJ033422PFDSEISVPXZPYRA04JY0","ABX5OQLR6UNBC","3S829FDFT2NBOHQMM1CIOU0HZYXDXL","","439.69999999552965","img/animal5.png","75","440.70000000298023","2","0","2","0.7,0,0.8,0.7,0.8,0,0.7,0.8,0",""
"","html-keyboard-response","328","195953","0.0-328.0","3SPJ033422PFDSEISVPXZPYRA04JY0","ABX5OQLR6UNBC","3S829FDFT2NBOHQMM1CIOU0HZYXDXL","","null","<img src=""img/animal5.png"" style=""width:200px;border:14px solid red;"">","null","","","","","",""
"","image-keyboard-response","329","196637","0.0-329.0","3SPJ033422PFDSEISVPXZPYRA04JY0","ABX5OQLR6UNBC","3S829FDFT2NBOHQMM1CIOU0HZYXDXL","","682.7000000029802","img/animal3.png","74","684.1000000014901","1","0","3","0.7,0,0.8,0.7,0.8,0,0.7,0.8,0",""
"","html-keyboard-response","330","196939","0.0-330.0","3SPJ033422PFDSEISVPXZPYRA04JY0","ABX5OQLR6UNBC","3S829FDFT2NBOHQMM1CIOU0HZYXDXL","","null","<img src=""img/animal3.png"" style=""width:200px;border:14px solid red;"">","null","","","","","",""
"","image-keyboard-response","331","197749","0.0-331.0","3SPJ033422PFDSEISVPXZPYRA04JY0","ABX5OQLR6UNBC","3S829FDFT2NBOHQMM1CIOU0HZYXDXL","","808.1000000014901","img/animal5.png","75","809.3999999985099","2","1","2","0.7,0,0.8,0.7,0.8,0,0.7,0.8,0",""
"","html-keyboard-response","332","198052","0.0-332.0","3SPJ033422PFDSEISVPXZPYRA04JY0","ABX5OQLR6UNBC","3S829FDFT2NBOHQMM1CIOU0HZYXDXL","","null","<img src=""img/animal5.png"" style=""width:200px; border:14px solid green;"">","null","","","","","",""
"","image-keyboard-response","333","198517","0.0-333.0","3SPJ033422PFDSEISVPXZPYRA04JY0","ABX5OQLR6UNBC","3S829FDFT2NBOHQMM1CIOU0HZYXDXL","","463.79999999701977","img/animal5.png","75","465.20000000298023","2","1","2","0.7,0,0.8,0.7,0.8,0,0.7,0.8,0",""
"","html-keyboard-response","334","198820","0.0-334.0","3SPJ033422PFDSEISVPXZPYRA04JY0","ABX5OQLR6UNBC","3S829FDFT2NBOHQMM1CIOU0HZYXDXL","","null","<img src=""img/animal5.png"" style=""width:200px; border:14px solid green;"">","null","","","","","",""
"","image-keyboard-response","335","199645","0.0-335.0","3SPJ033422PFDSEISVPXZPYRA04JY0","ABX5OQLR6UNBC","3S829FDFT2NBOHQMM1CIOU0HZYXDXL","","823.3999999985099","img/animal3.png","74","824.7999999970198","1","0","3","0.7,0,0.8,0.7,0.8,0,0.7,0.8,0",""
"","html-keyboard-response","336","199948","0.0-336.0","3SPJ033422PFDSEISVPXZPYRA04JY0","ABX5OQLR6UNBC","3S829FDFT2NBOHQMM1CIOU0HZYXDXL","","null","<img src=""img/animal3.png"" style=""width:200px;border:14px solid red;"">","null","","","","","",""
"","image-keyboard-response","337","200669","0.0-337.0","3SPJ033422PFDSEISVPXZPYRA04JY0","ABX5OQLR6UNBC","3S829FDFT2NBOHQMM1CIOU0HZYXDXL","","719.5999999940395","img/animal2.png","76","720.9000000059605","3","1","1","0.7,0,0.8,0.7,0.8,0,0.7,0.8,0",""
"","html-keyboard-response","338","200971","0.0-338.0","3SPJ033422PFDSEISVPXZPYRA04JY0","ABX5OQLR6UNBC","3S829FDFT2NBOHQMM1CIOU0HZYXDXL","","null","<img src=""img/animal2.png"" style=""width:200px; border:14px solid green;"">","null","","","","","",""
"","image-keyboard-response","339","201476","0.0-339.0","3SPJ033422PFDSEISVPXZPYRA04JY0","ABX5OQLR6UNBC","3S829FDFT2NBOHQMM1CIOU0HZYXDXL","","503.29999999701977","img/animal2.png","76","504.3999999985099","3","1","1","0.7,0,0.8,0.7,0.8,0,0.7,0.8,0",""
"","html-keyboard-response","340","201778","0.0-340.0","3SPJ033422PFDSEISVPXZPYRA04JY0","ABX5OQLR6UNBC","3S829FDFT2NBOHQMM1CIOU0HZYXDXL","","null","<img src=""img/animal2.png"" style=""width:200px; border:14px solid green;"">","null","","","","","",""
"","image-keyboard-response","341","202493","0.0-341.0","3SPJ033422PFDSEISVPXZPYRA04JY0","ABX5OQLR6UNBC","3S829FDFT2NBOHQMM1CIOU0HZYXDXL","","713.6999999955297","img/animal3.png","74","715.1000000014901","1","1","3","0.7,0,0.8,0.7,0.8,0,0.7,0.8,0",""
"","html-keyboard-response","342","202795","0.0-342.0","3SPJ033422PFDSEISVPXZPYRA04JY0","ABX5OQLR6UNBC","3S829FDFT2NBOHQMM1CIOU0HZYXDXL","","null","<img src=""img/animal3.png"" style=""width:200px; border:14px solid green;"">","null","","","","","",""
"","image-keyboard-response","343","203228","0.0-343.0","3SPJ033422PFDSEISVPXZPYRA04JY0","ABX5OQLR6UNBC","3S829FDFT2NBOHQMM1CIOU0HZYXDXL","","431.29999999701977","img/animal3.png","74","432.29999999701977","1","1","3","0.7,0,0.8,0.7,0.8,0,0.7,0.8,0",""
"","html-keyboard-response","344","203530","0.0-344.0","3SPJ033422PFDSEISVPXZPYRA04JY0","ABX5OQLR6UNBC","3S829FDFT2NBOHQMM1CIOU0HZYXDXL","","null","<img src=""img/animal3.png"" style=""width:200px; border:14px solid green;"">","null","","","","","",""
"","image-keyboard-response","345","206724","0.0-345.0","3SPJ033422PFDSEISVPXZPYRA04JY0","ABX5OQLR6UNBC","3S829FDFT2NBOHQMM1CIOU0HZYXDXL","","3193","img/animal5.png","75","3194.10000000149","2","0","2","0.7,0,0.8,0.7,0.8,0,0.7,0.8,0",""
"","html-keyboard-response","346","207025","0.0-346.0","3SPJ033422PFDSEISVPXZPYRA04JY0","ABX5OQLR6UNBC","3S829FDFT2NBOHQMM1CIOU0HZYXDXL","","null","<img src=""img/animal5.png"" style=""width:200px;border:14px solid red;"">","null","","","","","",""
"","image-keyboard-response","347","207789","0.0-347.0","3SPJ033422PFDSEISVPXZPYRA04JY0","ABX5OQLR6UNBC","3S829FDFT2NBOHQMM1CIOU0HZYXDXL","","762.1999999955297","img/animal3.png","74","763.4000000059605","1","0","3","0.7,0,0.8,0.7,0.8,0,0.7,0.8,0",""
"","html-keyboard-response","348","208092","0.0-348.0","3SPJ033422PFDSEISVPXZPYRA04JY0","ABX5OQLR6UNBC","3S829FDFT2NBOHQMM1CIOU0HZYXDXL","","null","<img src=""img/animal3.png"" style=""width:200px;border:14px solid red;"">","null","","","","","",""
"","image-keyboard-response","349","208813","0.0-349.0","3SPJ033422PFDSEISVPXZPYRA04JY0","ABX5OQLR6UNBC","3S829FDFT2NBOHQMM1CIOU0HZYXDXL","","719.5999999940395","img/animal2.png","76","720.8999999985099","3","1","1","0.7,0,0.8,0.7,0.8,0,0.7,0.8,0",""
"","html-keyboard-response","350","209115","0.0-350.0","3SPJ033422PFDSEISVPXZPYRA04JY0","ABX5OQLR6UNBC","3S829FDFT2NBOHQMM1CIOU0HZYXDXL","","null","<img src=""img/animal2.png"" style=""width:200px; border:14px solid green;"">","null","","","","","",""
"","image-keyboard-response","351","210173","0.0-351.0","3SPJ033422PFDSEISVPXZPYRA04JY0","ABX5OQLR6UNBC","3S829FDFT2NBOHQMM1CIOU0HZYXDXL","","1057.0999999940395","img/animal5.png","74","1057.7000000029802","1","1","2","0.7,0,0.8,0.7,0.8,0,0.7,0.8,0",""
"","html-keyboard-response","352","210487","0.0-352.0","3SPJ033422PFDSEISVPXZPYRA04JY0","ABX5OQLR6UNBC","3S829FDFT2NBOHQMM1CIOU0HZYXDXL","","null","<img src=""img/animal5.png"" style=""width:200px; border:14px solid green;"">","null","","","","","",""
"","image-keyboard-response","353","210981","0.0-353.0","3SPJ033422PFDSEISVPXZPYRA04JY0","ABX5OQLR6UNBC","3S829FDFT2NBOHQMM1CIOU0HZYXDXL","","492.69999999552965","img/animal5.png","74","494.1000000014901","1","0","2","0.7,0,0.8,0.7,0.8,0,0.7,0.8,0",""
"","html-keyboard-response","354","211283","0.0-354.0","3SPJ033422PFDSEISVPXZPYRA04JY0","ABX5OQLR6UNBC","3S829FDFT2NBOHQMM1CIOU0HZYXDXL","","null","<img src=""img/animal5.png"" style=""width:200px;border:14px solid red;"">","null","","","","","",""
"","image-keyboard-response","355","212237","0.0-355.0","3SPJ033422PFDSEISVPXZPYRA04JY0","ABX5OQLR6UNBC","3S829FDFT2NBOHQMM1CIOU0HZYXDXL","","952.3999999985099","img/animal2.png","76","953.7000000029802","3","1","1","0.7,0,0.8,0.7,0.8,0,0.7,0.8,0",""
"","html-keyboard-response","356","212540","0.0-356.0","3SPJ033422PFDSEISVPXZPYRA04JY0","ABX5OQLR6UNBC","3S829FDFT2NBOHQMM1CIOU0HZYXDXL","","null","<img src=""img/animal2.png"" style=""width:200px; border:14px solid green;"">","null","","","","","",""
"","image-keyboard-response","357","212989","0.0-357.0","3SPJ033422PFDSEISVPXZPYRA04JY0","ABX5OQLR6UNBC","3S829FDFT2NBOHQMM1CIOU0HZYXDXL","","447.8999999985099","img/animal2.png","76","449.1000000014901","3","0","1","0.7,0,0.8,0.7,0.8,0,0.7,0.8,0",""
"","html-keyboard-response","358","213291","0.0-358.0","3SPJ033422PFDSEISVPXZPYRA04JY0","ABX5OQLR6UNBC","3S829FDFT2NBOHQMM1CIOU0HZYXDXL","","null","<img src=""img/animal2.png"" style=""width:200px;border:14px solid red;"">","null","","","","","",""
"","image-keyboard-response","359","214245","0.0-359.0","3SPJ033422PFDSEISVPXZPYRA04JY0","ABX5OQLR6UNBC","3S829FDFT2NBOHQMM1CIOU0HZYXDXL","","952.5","img/animal5.png","74","953.8999999985099","1","1","2","0.7,0,0.8,0.7,0.8,0,0.7,0.8,0",""
"","html-keyboard-response","360","214548","0.0-360.0","3SPJ033422PFDSEISVPXZPYRA04JY0","ABX5OQLR6UNBC","3S829FDFT2NBOHQMM1CIOU0HZYXDXL","","null","<img src=""img/animal5.png"" style=""width:200px; border:14px solid green;"">","null","","","","","",""
"","image-keyboard-response","361","214893","0.0-361.0","3SPJ033422PFDSEISVPXZPYRA04JY0","ABX5OQLR6UNBC","3S829FDFT2NBOHQMM1CIOU0HZYXDXL","","342.6000000014901","img/animal5.png","74","343.90000000596046","1","1","2","0.7,0,0.8,0.7,0.8,0,0.7,0.8,0",""
"","html-keyboard-response","362","215194","0.0-362.0","3SPJ033422PFDSEISVPXZPYRA04JY0","ABX5OQLR6UNBC","3S829FDFT2NBOHQMM1CIOU0HZYXDXL","","null","<img src=""img/animal5.png"" style=""width:200px; border:14px solid green;"">","null","","","","","",""
"","instructions","363","219092","0.0-363.0","3SPJ033422PFDSEISVPXZPYRA04JY0","ABX5OQLR6UNBC","3S829FDFT2NBOHQMM1CIOU0HZYXDXL","[{""page_index"":0,""viewing_time"":3897}]","3897.0999999940395","","","","","","","",""
"","survey-text","364","223141","0.0-364.0","3SPJ033422PFDSEISVPXZPYRA04JY0","ABX5OQLR6UNBC","3S829FDFT2NBOHQMM1CIOU0HZYXDXL","","4047","","","","","","","","{""Q0"":""ABX5OQLR6UNBC""}"
