"success","trial_type","trial_index","time_elapsed","internal_node_id","assignmentID","mturkID","hitID","view_history","rt","stimulus","key_press","reactionTime","chosenAction","reward","responses"
"true","fullscreen","0","3330","0.0-0.0","3MB8LZR5BGFQODD1R10J6WW8G8GLKL","ACJ6NSCIWMUZI","3SBNLSTU6UR0TCQ1NJ03LFGS7YQZDZ","","","","","","","",""
"","instructions","1","19086","0.0-1.0","3MB8LZR5BGFQODD1R10J6WW8G8GLKL","ACJ6NSCIWMUZI","3SBNLSTU6UR0TCQ1NJ03LFGS7YQZDZ","[{""page_index"":0,""viewing_time"":4614.399999991059},{""page_index"":1,""viewing_time"":1539.7999999970198},{""page_index"":2,""viewing_time"":1553.4000000059605},{""page_index"":3,""viewing_time"":2244.0999999940395},{""page_index"":4,""viewing_time"":1589.800000011921},{""page_index"":5,""viewing_time"":1650.3999999910593},{""page_index"":6,""viewing_time"":1238.2999999970198},{""page_index"":7,""viewing_time"":1322.6000000089407}]","15754.199999988079","","","","","",""
"","image-keyboard-response","2","21295","0.0-2.0","3MB8LZR5BGFQODD1R10J6WW8G8GLKL","ACJ6NSCIWMUZI","3SBNLSTU6UR0TCQ1NJ03LFGS7YQZDZ","","2206.6000000089407","img/animal5.png","74","2209.199999988079","74","0",""
"","html-keyboard-response","3","21602","0.0-3.0","3MB8LZR5BGFQODD1R10J6WW8G8GLKL","ACJ6NSCIWMUZI","3SBNLSTU6UR0TCQ1NJ03LFGS7YQZDZ","","null","<img src=""img/animal5.png"" style=""width:200px;border:14px solid red;"">","null","","","",""
"","image-keyboard-response","4","21782","0.0-4.0","3MB8LZR5BGFQODD1R10J6WW8G8GLKL","ACJ6NSCIWMUZI","3SBNLSTU6UR0TCQ1NJ03LFGS7YQZDZ","","177.90000000596046","img/animal5.png","74","179.5","74","1",""
"","html-keyboard-response","5","22090","0.0-5.0","3MB8LZR5BGFQODD1R10J6WW8G8GLKL","ACJ6NSCIWMUZI","3SBNLSTU6UR0TCQ1NJ03LFGS7YQZDZ","","null","<img src=""img/animal5.png"" style=""width:200px; border:14px solid green;"">","null","","","",""
"","image-keyboard-response","6","22750","0.0-6.0","3MB8LZR5BGFQODD1R10J6WW8G8GLKL","ACJ6NSCIWMUZI","3SBNLSTU6UR0TCQ1NJ03LFGS7YQZDZ","","659.3999999910593","img/animal5.png","75","660.7999999970198","75","1",""
"","html-keyboard-response","7","23057","0.0-7.0","3MB8LZR5BGFQODD1R10J6WW8G8GLKL","ACJ6NSCIWMUZI","3SBNLSTU6UR0TCQ1NJ03LFGS7YQZDZ","","null","<img src=""img/animal5.png"" style=""width:200px; border:14px solid green;"">","null","","","",""
"","image-keyboard-response","8","23373","0.0-8.0","3MB8LZR5BGFQODD1R10J6WW8G8GLKL","ACJ6NSCIWMUZI","3SBNLSTU6UR0TCQ1NJ03LFGS7YQZDZ","","314.79999999701977","img/animal1.png","75","316.20000000298023","75","1",""
"","html-keyboard-response","9","23682","0.0-9.0","3MB8LZR5BGFQODD1R10J6WW8G8GLKL","ACJ6NSCIWMUZI","3SBNLSTU6UR0TCQ1NJ03LFGS7YQZDZ","","null","<img src=""img/animal1.png"" style=""width:200px; border:14px solid green;"">","null","","","",""
"","image-keyboard-response","10","23976","0.0-10.0","3MB8LZR5BGFQODD1R10J6WW8G8GLKL","ACJ6NSCIWMUZI","3SBNLSTU6UR0TCQ1NJ03LFGS7YQZDZ","","292.5","img/animal1.png","75","294.19999998807907","75","0",""
"","html-keyboard-response","11","24282","0.0-11.0","3MB8LZR5BGFQODD1R10J6WW8G8GLKL","ACJ6NSCIWMUZI","3SBNLSTU6UR0TCQ1NJ03LFGS7YQZDZ","","null","<img src=""img/animal1.png"" style=""width:200px;border:14px solid red;"">","null","","","",""
"","image-keyboard-response","12","24508","0.0-12.0","3MB8LZR5BGFQODD1R10J6WW8G8GLKL","ACJ6NSCIWMUZI","3SBNLSTU6UR0TCQ1NJ03LFGS7YQZDZ","","224.59999999403954","img/animal5.png","76","226.5","76","0",""
"","html-keyboard-response","13","24817","0.0-13.0","3MB8LZR5BGFQODD1R10J6WW8G8GLKL","ACJ6NSCIWMUZI","3SBNLSTU6UR0TCQ1NJ03LFGS7YQZDZ","","null","<img src=""img/animal5.png"" style=""width:200px;border:14px solid red;"">","null","","","",""
"","image-keyboard-response","14","24994","0.0-14.0","3MB8LZR5BGFQODD1R10J6WW8G8GLKL","ACJ6NSCIWMUZI","3SBNLSTU6UR0TCQ1NJ03LFGS7YQZDZ","","175.59999999403954","img/animal1.png","75","176.79999999701977","75","1",""
"","html-keyboard-response","15","25298","0.0-15.0","3MB8LZR5BGFQODD1R10J6WW8G8GLKL","ACJ6NSCIWMUZI","3SBNLSTU6UR0TCQ1NJ03LFGS7YQZDZ","","null","<img src=""img/animal1.png"" style=""width:200px; border:14px solid green;"">","null","","","",""
"","image-keyboard-response","16","25801","0.0-16.0","3MB8LZR5BGFQODD1R10J6WW8G8GLKL","ACJ6NSCIWMUZI","3SBNLSTU6UR0TCQ1NJ03LFGS7YQZDZ","","502.09999999403954","img/animal1.png","75","503.5","75","0",""
"","html-keyboard-response","17","26105","0.0-17.0","3MB8LZR5BGFQODD1R10J6WW8G8GLKL","ACJ6NSCIWMUZI","3SBNLSTU6UR0TCQ1NJ03LFGS7YQZDZ","","null","<img src=""img/animal1.png"" style=""width:200px;border:14px solid red;"">","null","","","",""
"","image-keyboard-response","18","27064","0.0-18.0","3MB8LZR5BGFQODD1R10J6WW8G8GLKL","ACJ6NSCIWMUZI","3SBNLSTU6UR0TCQ1NJ03LFGS7YQZDZ","","957.3999999910593","img/animal5.png","74","959","74","0",""
"","html-keyboard-response","19","27369","0.0-19.0","3MB8LZR5BGFQODD1R10J6WW8G8GLKL","ACJ6NSCIWMUZI","3SBNLSTU6UR0TCQ1NJ03LFGS7YQZDZ","","null","<img src=""img/animal5.png"" style=""width:200px;border:14px solid red;"">","null","","","",""
"","image-keyboard-response","20","28010","0.0-20.0","3MB8LZR5BGFQODD1R10J6WW8G8GLKL","ACJ6NSCIWMUZI","3SBNLSTU6UR0TCQ1NJ03LFGS7YQZDZ","","639.5999999940395","img/animal6.png","76","641.0999999940395","76","1",""
"","html-keyboard-response","21","28313","0.0-21.0","3MB8LZR5BGFQODD1R10J6WW8G8GLKL","ACJ6NSCIWMUZI","3SBNLSTU6UR0TCQ1NJ03LFGS7YQZDZ","","null","<img src=""img/animal6.png"" style=""width:200px; border:14px solid green;"">","null","","","",""
"","image-keyboard-response","22","29752","0.0-22.0","3MB8LZR5BGFQODD1R10J6WW8G8GLKL","ACJ6NSCIWMUZI","3SBNLSTU6UR0TCQ1NJ03LFGS7YQZDZ","","1437.699999988079","img/animal5.png","74","1439.0999999940395","74","0",""
"","html-keyboard-response","23","30057","0.0-23.0","3MB8LZR5BGFQODD1R10J6WW8G8GLKL","ACJ6NSCIWMUZI","3SBNLSTU6UR0TCQ1NJ03LFGS7YQZDZ","","null","<img src=""img/animal5.png"" style=""width:200px;border:14px solid red;"">","null","","","",""
"","image-keyboard-response","24","30080","0.0-24.0","3MB8LZR5BGFQODD1R10J6WW8G8GLKL","ACJ6NSCIWMUZI","3SBNLSTU6UR0TCQ1NJ03LFGS7YQZDZ","","21.200000002980232","img/animal1.png","74","22.5","74","1",""
"","html-keyboard-response","25","30386","0.0-25.0","3MB8LZR5BGFQODD1R10J6WW8G8GLKL","ACJ6NSCIWMUZI","3SBNLSTU6UR0TCQ1NJ03LFGS7YQZDZ","","null","<img src=""img/animal1.png"" style=""width:200px; border:14px solid green;"">","null","","","",""
"","image-keyboard-response","26","30978","0.0-26.0","3MB8LZR5BGFQODD1R10J6WW8G8GLKL","ACJ6NSCIWMUZI","3SBNLSTU6UR0TCQ1NJ03LFGS7YQZDZ","","591.2999999970198","img/animal5.png","75","592.5999999940395","75","1",""
"","html-keyboard-response","27","31281","0.0-27.0","3MB8LZR5BGFQODD1R10J6WW8G8GLKL","ACJ6NSCIWMUZI","3SBNLSTU6UR0TCQ1NJ03LFGS7YQZDZ","","null","<img src=""img/animal5.png"" style=""width:200px; border:14px solid green;"">","null","","","",""
"","image-keyboard-response","28","31694","0.0-28.0","3MB8LZR5BGFQODD1R10J6WW8G8GLKL","ACJ6NSCIWMUZI","3SBNLSTU6UR0TCQ1NJ03LFGS7YQZDZ","","411","img/animal5.png","75","412.20000000298023","75","0",""
"","html-keyboard-response","29","32001","0.0-29.0","3MB8LZR5BGFQODD1R10J6WW8G8GLKL","ACJ6NSCIWMUZI","3SBNLSTU6UR0TCQ1NJ03LFGS7YQZDZ","","null","<img src=""img/animal5.png"" style=""width:200px;border:14px solid red;"">","null","","","",""
"","image-keyboard-response","30","32228","0.0-30.0","3MB8LZR5BGFQODD1R10J6WW8G8GLKL","ACJ6NSCIWMUZI","3SBNLSTU6UR0TCQ1NJ03LFGS7YQZDZ","","224.3999999910593","img/animal5.png","76","225.90000000596046","76","0",""
"","html-keyboard-response","31","32537","0.0-31.0","3MB8LZR5BGFQODD1R10J6WW8G8GLKL","ACJ6NSCIWMUZI","3SBNLSTU6UR0TCQ1NJ03LFGS7YQZDZ","","null","<img src=""img/animal5.png"" style=""width:200px;border:14px solid red;"">","null","","","",""
"","image-keyboard-response","32","33033","0.0-32.0","3MB8LZR5BGFQODD1R10J6WW8G8GLKL","ACJ6NSCIWMUZI","3SBNLSTU6UR0TCQ1NJ03LFGS7YQZDZ","","494.20000000298023","img/animal5.png","74","495.5","74","1",""
"","html-keyboard-response","33","33337","0.0-33.0","3MB8LZR5BGFQODD1R10J6WW8G8GLKL","ACJ6NSCIWMUZI","3SBNLSTU6UR0TCQ1NJ03LFGS7YQZDZ","","null","<img src=""img/animal5.png"" style=""width:200px; border:14px solid green;"">","null","","","",""
"","image-keyboard-response","34","34091","0.0-34.0","3MB8LZR5BGFQODD1R10J6WW8G8GLKL","ACJ6NSCIWMUZI","3SBNLSTU6UR0TCQ1NJ03LFGS7YQZDZ","","753","img/animal1.png","75","754.2999999970198","75","1",""
"","html-keyboard-response","35","34401","0.0-35.0","3MB8LZR5BGFQODD1R10J6WW8G8GLKL","ACJ6NSCIWMUZI","3SBNLSTU6UR0TCQ1NJ03LFGS7YQZDZ","","null","<img src=""img/animal1.png"" style=""width:200px; border:14px solid green;"">","null","","","",""
"","image-keyboard-response","36","34946","0.0-36.0","3MB8LZR5BGFQODD1R10J6WW8G8GLKL","ACJ6NSCIWMUZI","3SBNLSTU6UR0TCQ1NJ03LFGS7YQZDZ","","542.4000000059605","img/animal6.png","76","544","76","1",""
"","html-keyboard-response","37","35249","0.0-37.0","3MB8LZR5BGFQODD1R10J6WW8G8GLKL","ACJ6NSCIWMUZI","3SBNLSTU6UR0TCQ1NJ03LFGS7YQZDZ","","null","<img src=""img/animal6.png"" style=""width:200px; border:14px solid green;"">","null","","","",""
"","image-keyboard-response","38","35774","0.0-38.0","3MB8LZR5BGFQODD1R10J6WW8G8GLKL","ACJ6NSCIWMUZI","3SBNLSTU6UR0TCQ1NJ03LFGS7YQZDZ","","523.2000000029802","img/animal5.png","74","524.8999999910593","74","1",""
"","html-keyboard-response","39","36081","0.0-39.0","3MB8LZR5BGFQODD1R10J6WW8G8GLKL","ACJ6NSCIWMUZI","3SBNLSTU6UR0TCQ1NJ03LFGS7YQZDZ","","null","<img src=""img/animal5.png"" style=""width:200px; border:14px solid green;"">","null","","","",""
"","image-keyboard-response","40","36466","0.0-40.0","3MB8LZR5BGFQODD1R10J6WW8G8GLKL","ACJ6NSCIWMUZI","3SBNLSTU6UR0TCQ1NJ03LFGS7YQZDZ","","381.5","img/animal1.png","75","384.70000000298023","75","1",""
"","html-keyboard-response","41","36769","0.0-41.0","3MB8LZR5BGFQODD1R10J6WW8G8GLKL","ACJ6NSCIWMUZI","3SBNLSTU6UR0TCQ1NJ03LFGS7YQZDZ","","null","<img src=""img/animal1.png"" style=""width:200px; border:14px solid green;"">","null","","","",""
"","image-keyboard-response","42","37160","0.0-42.0","3MB8LZR5BGFQODD1R10J6WW8G8GLKL","ACJ6NSCIWMUZI","3SBNLSTU6UR0TCQ1NJ03LFGS7YQZDZ","","389.3999999910593","img/animal6.png","76","390.79999999701977","76","1",""
"","html-keyboard-response","43","37465","0.0-43.0","3MB8LZR5BGFQODD1R10J6WW8G8GLKL","ACJ6NSCIWMUZI","3SBNLSTU6UR0TCQ1NJ03LFGS7YQZDZ","","null","<img src=""img/animal6.png"" style=""width:200px; border:14px solid green;"">","null","","","",""
"","image-keyboard-response","44","39272","0.0-44.0","3MB8LZR5BGFQODD1R10J6WW8G8GLKL","ACJ6NSCIWMUZI","3SBNLSTU6UR0TCQ1NJ03LFGS7YQZDZ","","1805.1000000089407","img/animal6.png","76","1806.5","76","1",""
"","html-keyboard-response","45","39577","0.0-45.0","3MB8LZR5BGFQODD1R10J6WW8G8GLKL","ACJ6NSCIWMUZI","3SBNLSTU6UR0TCQ1NJ03LFGS7YQZDZ","","null","<img src=""img/animal6.png"" style=""width:200px; border:14px solid green;"">","null","","","",""
"","image-keyboard-response","46","40122","0.0-46.0","3MB8LZR5BGFQODD1R10J6WW8G8GLKL","ACJ6NSCIWMUZI","3SBNLSTU6UR0TCQ1NJ03LFGS7YQZDZ","","544","img/animal5.png","74","545.2000000029802","74","0",""
"","html-keyboard-response","47","40425","0.0-47.0","3MB8LZR5BGFQODD1R10J6WW8G8GLKL","ACJ6NSCIWMUZI","3SBNLSTU6UR0TCQ1NJ03LFGS7YQZDZ","","null","<img src=""img/animal5.png"" style=""width:200px;border:14px solid red;"">","null","","","",""
"","image-keyboard-response","48","41022","0.0-48.0","3MB8LZR5BGFQODD1R10J6WW8G8GLKL","ACJ6NSCIWMUZI","3SBNLSTU6UR0TCQ1NJ03LFGS7YQZDZ","","595","img/animal1.png","75","596.9000000059605","75","1",""
"","html-keyboard-response","49","41329","0.0-49.0","3MB8LZR5BGFQODD1R10J6WW8G8GLKL","ACJ6NSCIWMUZI","3SBNLSTU6UR0TCQ1NJ03LFGS7YQZDZ","","null","<img src=""img/animal1.png"" style=""width:200px; border:14px solid green;"">","null","","","",""
"","image-keyboard-response","50","41876","0.0-50.0","3MB8LZR5BGFQODD1R10J6WW8G8GLKL","ACJ6NSCIWMUZI","3SBNLSTU6UR0TCQ1NJ03LFGS7YQZDZ","","545.7999999970198","img/animal5.png","76","547.2000000029802","76","0",""
"","html-keyboard-response","51","42186","0.0-51.0","3MB8LZR5BGFQODD1R10J6WW8G8GLKL","ACJ6NSCIWMUZI","3SBNLSTU6UR0TCQ1NJ03LFGS7YQZDZ","","null","<img src=""img/animal5.png"" style=""width:200px;border:14px solid red;"">","null","","","",""
"","image-keyboard-response","52","43689","0.0-52.0","3MB8LZR5BGFQODD1R10J6WW8G8GLKL","ACJ6NSCIWMUZI","3SBNLSTU6UR0TCQ1NJ03LFGS7YQZDZ","","1501.3999999910593","img/animal6.png","76","1503.1000000089407","76","1",""
"","html-keyboard-response","53","43993","0.0-53.0","3MB8LZR5BGFQODD1R10J6WW8G8GLKL","ACJ6NSCIWMUZI","3SBNLSTU6UR0TCQ1NJ03LFGS7YQZDZ","","null","<img src=""img/animal6.png"" style=""width:200px; border:14px solid green;"">","null","","","",""
"","image-keyboard-response","54","44405","0.0-54.0","3MB8LZR5BGFQODD1R10J6WW8G8GLKL","ACJ6NSCIWMUZI","3SBNLSTU6UR0TCQ1NJ03LFGS7YQZDZ","","410","img/animal6.png","76","411.6000000089407","76","1",""
"","html-keyboard-response","55","44714","0.0-55.0","3MB8LZR5BGFQODD1R10J6WW8G8GLKL","ACJ6NSCIWMUZI","3SBNLSTU6UR0TCQ1NJ03LFGS7YQZDZ","","null","<img src=""img/animal6.png"" style=""width:200px; border:14px solid green;"">","null","","","",""
"","image-keyboard-response","56","45553","0.0-56.0","3MB8LZR5BGFQODD1R10J6WW8G8GLKL","ACJ6NSCIWMUZI","3SBNLSTU6UR0TCQ1NJ03LFGS7YQZDZ","","837.2999999970198","img/animal1.png","75","838.6000000089407","75","1",""
"","html-keyboard-response","57","45858","0.0-57.0","3MB8LZR5BGFQODD1R10J6WW8G8GLKL","ACJ6NSCIWMUZI","3SBNLSTU6UR0TCQ1NJ03LFGS7YQZDZ","","null","<img src=""img/animal1.png"" style=""width:200px; border:14px solid green;"">","null","","","",""
"","image-keyboard-response","58","46655","0.0-58.0","3MB8LZR5BGFQODD1R10J6WW8G8GLKL","ACJ6NSCIWMUZI","3SBNLSTU6UR0TCQ1NJ03LFGS7YQZDZ","","795.8999999910593","img/animal5.png","74","797.5","74","1",""
"","html-keyboard-response","59","46961","0.0-59.0","3MB8LZR5BGFQODD1R10J6WW8G8GLKL","ACJ6NSCIWMUZI","3SBNLSTU6UR0TCQ1NJ03LFGS7YQZDZ","","null","<img src=""img/animal5.png"" style=""width:200px; border:14px solid green;"">","null","","","",""
"","image-keyboard-response","60","47554","0.0-60.0","3MB8LZR5BGFQODD1R10J6WW8G8GLKL","ACJ6NSCIWMUZI","3SBNLSTU6UR0TCQ1NJ03LFGS7YQZDZ","","591.6999999880791","img/animal1.png","75","593.2999999970198","75","1",""
"","html-keyboard-response","61","47857","0.0-61.0","3MB8LZR5BGFQODD1R10J6WW8G8GLKL","ACJ6NSCIWMUZI","3SBNLSTU6UR0TCQ1NJ03LFGS7YQZDZ","","null","<img src=""img/animal1.png"" style=""width:200px; border:14px solid green;"">","null","","","",""
"","image-keyboard-response","62","48476","0.0-62.0","3MB8LZR5BGFQODD1R10J6WW8G8GLKL","ACJ6NSCIWMUZI","3SBNLSTU6UR0TCQ1NJ03LFGS7YQZDZ","","617.1000000089407","img/animal6.png","76","618.4000000059605","76","1",""
"","html-keyboard-response","63","48785","0.0-63.0","3MB8LZR5BGFQODD1R10J6WW8G8GLKL","ACJ6NSCIWMUZI","3SBNLSTU6UR0TCQ1NJ03LFGS7YQZDZ","","null","<img src=""img/animal6.png"" style=""width:200px; border:14px solid green;"">","null","","","",""
"","image-keyboard-response","64","49397","0.0-64.0","3MB8LZR5BGFQODD1R10J6WW8G8GLKL","ACJ6NSCIWMUZI","3SBNLSTU6UR0TCQ1NJ03LFGS7YQZDZ","","611","img/animal1.png","75","612.5","75","1",""
"","html-keyboard-response","65","49706","0.0-65.0","3MB8LZR5BGFQODD1R10J6WW8G8GLKL","ACJ6NSCIWMUZI","3SBNLSTU6UR0TCQ1NJ03LFGS7YQZDZ","","null","<img src=""img/animal1.png"" style=""width:200px; border:14px solid green;"">","null","","","",""
"","image-keyboard-response","66","50251","0.0-66.0","3MB8LZR5BGFQODD1R10J6WW8G8GLKL","ACJ6NSCIWMUZI","3SBNLSTU6UR0TCQ1NJ03LFGS7YQZDZ","","543.3999999910593","img/animal6.png","76","544.9000000059605","76","1",""
"","html-keyboard-response","67","50553","0.0-67.0","3MB8LZR5BGFQODD1R10J6WW8G8GLKL","ACJ6NSCIWMUZI","3SBNLSTU6UR0TCQ1NJ03LFGS7YQZDZ","","null","<img src=""img/animal6.png"" style=""width:200px; border:14px solid green;"">","null","","","",""
"","image-keyboard-response","68","52339","0.0-68.0","3MB8LZR5BGFQODD1R10J6WW8G8GLKL","ACJ6NSCIWMUZI","3SBNLSTU6UR0TCQ1NJ03LFGS7YQZDZ","","1784.5","img/animal6.png","76","1785.699999988079","76","1",""
"","html-keyboard-response","69","52641","0.0-69.0","3MB8LZR5BGFQODD1R10J6WW8G8GLKL","ACJ6NSCIWMUZI","3SBNLSTU6UR0TCQ1NJ03LFGS7YQZDZ","","null","<img src=""img/animal6.png"" style=""width:200px; border:14px solid green;"">","null","","","",""
"","image-keyboard-response","70","53189","0.0-70.0","3MB8LZR5BGFQODD1R10J6WW8G8GLKL","ACJ6NSCIWMUZI","3SBNLSTU6UR0TCQ1NJ03LFGS7YQZDZ","","546.3999999910593","img/animal1.png","75","547.7000000029802","75","1",""
"","html-keyboard-response","71","53501","0.0-71.0","3MB8LZR5BGFQODD1R10J6WW8G8GLKL","ACJ6NSCIWMUZI","3SBNLSTU6UR0TCQ1NJ03LFGS7YQZDZ","","null","<img src=""img/animal1.png"" style=""width:200px; border:14px solid green;"">","null","","","",""
"","image-keyboard-response","72","54043","0.0-72.0","3MB8LZR5BGFQODD1R10J6WW8G8GLKL","ACJ6NSCIWMUZI","3SBNLSTU6UR0TCQ1NJ03LFGS7YQZDZ","","541.5","img/animal6.png","76","542.7999999970198","76","0",""
"","html-keyboard-response","73","54353","0.0-73.0","3MB8LZR5BGFQODD1R10J6WW8G8GLKL","ACJ6NSCIWMUZI","3SBNLSTU6UR0TCQ1NJ03LFGS7YQZDZ","","null","<img src=""img/animal6.png"" style=""width:200px;border:14px solid red;"">","null","","","",""
"","image-keyboard-response","74","55055","0.0-74.0","3MB8LZR5BGFQODD1R10J6WW8G8GLKL","ACJ6NSCIWMUZI","3SBNLSTU6UR0TCQ1NJ03LFGS7YQZDZ","","699.5","img/animal1.png","75","700.8999999910593","75","1",""
"","html-keyboard-response","75","55362","0.0-75.0","3MB8LZR5BGFQODD1R10J6WW8G8GLKL","ACJ6NSCIWMUZI","3SBNLSTU6UR0TCQ1NJ03LFGS7YQZDZ","","null","<img src=""img/animal1.png"" style=""width:200px; border:14px solid green;"">","null","","","",""
"","image-keyboard-response","76","55840","0.0-76.0","3MB8LZR5BGFQODD1R10J6WW8G8GLKL","ACJ6NSCIWMUZI","3SBNLSTU6UR0TCQ1NJ03LFGS7YQZDZ","","476.5","img/animal6.png","76","478.09999999403954","76","1",""
"","html-keyboard-response","77","56145","0.0-77.0","3MB8LZR5BGFQODD1R10J6WW8G8GLKL","ACJ6NSCIWMUZI","3SBNLSTU6UR0TCQ1NJ03LFGS7YQZDZ","","null","<img src=""img/animal6.png"" style=""width:200px; border:14px solid green;"">","null","","","",""
"","image-keyboard-response","78","56737","0.0-78.0","3MB8LZR5BGFQODD1R10J6WW8G8GLKL","ACJ6NSCIWMUZI","3SBNLSTU6UR0TCQ1NJ03LFGS7YQZDZ","","590.5999999940395","img/animal6.png","76","591.7999999970198","76","0",""
"","html-keyboard-response","79","57041","0.0-79.0","3MB8LZR5BGFQODD1R10J6WW8G8GLKL","ACJ6NSCIWMUZI","3SBNLSTU6UR0TCQ1NJ03LFGS7YQZDZ","","null","<img src=""img/animal6.png"" style=""width:200px;border:14px solid red;"">","null","","","",""
"","image-keyboard-response","80","57570","0.0-80.0","3MB8LZR5BGFQODD1R10J6WW8G8GLKL","ACJ6NSCIWMUZI","3SBNLSTU6UR0TCQ1NJ03LFGS7YQZDZ","","526.8999999910593","img/animal1.png","75","528.2000000029802","75","1",""
"","html-keyboard-response","81","57873","0.0-81.0","3MB8LZR5BGFQODD1R10J6WW8G8GLKL","ACJ6NSCIWMUZI","3SBNLSTU6UR0TCQ1NJ03LFGS7YQZDZ","","null","<img src=""img/animal1.png"" style=""width:200px; border:14px solid green;"">","null","","","",""
"","image-keyboard-response","82","58398","0.0-82.0","3MB8LZR5BGFQODD1R10J6WW8G8GLKL","ACJ6NSCIWMUZI","3SBNLSTU6UR0TCQ1NJ03LFGS7YQZDZ","","523.2000000029802","img/animal6.png","76","524.6999999880791","76","1",""
"","html-keyboard-response","83","58706","0.0-83.0","3MB8LZR5BGFQODD1R10J6WW8G8GLKL","ACJ6NSCIWMUZI","3SBNLSTU6UR0TCQ1NJ03LFGS7YQZDZ","","null","<img src=""img/animal6.png"" style=""width:200px; border:14px solid green;"">","null","","","",""
"","image-keyboard-response","84","59247","0.0-84.0","3MB8LZR5BGFQODD1R10J6WW8G8GLKL","ACJ6NSCIWMUZI","3SBNLSTU6UR0TCQ1NJ03LFGS7YQZDZ","","539.9000000059605","img/animal5.png","74","541.2000000029802","74","1",""
"","html-keyboard-response","85","59553","0.0-85.0","3MB8LZR5BGFQODD1R10J6WW8G8GLKL","ACJ6NSCIWMUZI","3SBNLSTU6UR0TCQ1NJ03LFGS7YQZDZ","","null","<img src=""img/animal5.png"" style=""width:200px; border:14px solid green;"">","null","","","",""
"","image-keyboard-response","86","60101","0.0-86.0","3MB8LZR5BGFQODD1R10J6WW8G8GLKL","ACJ6NSCIWMUZI","3SBNLSTU6UR0TCQ1NJ03LFGS7YQZDZ","","545.7999999970198","img/animal1.png","75","547.2999999970198","75","1",""
"","html-keyboard-response","87","60409","0.0-87.0","3MB8LZR5BGFQODD1R10J6WW8G8GLKL","ACJ6NSCIWMUZI","3SBNLSTU6UR0TCQ1NJ03LFGS7YQZDZ","","null","<img src=""img/animal1.png"" style=""width:200px; border:14px solid green;"">","null","","","",""
"","image-keyboard-response","88","60908","0.0-88.0","3MB8LZR5BGFQODD1R10J6WW8G8GLKL","ACJ6NSCIWMUZI","3SBNLSTU6UR0TCQ1NJ03LFGS7YQZDZ","","497.5","img/animal6.png","76","498.70000000298023","76","1",""
"","html-keyboard-response","89","61217","0.0-89.0","3MB8LZR5BGFQODD1R10J6WW8G8GLKL","ACJ6NSCIWMUZI","3SBNLSTU6UR0TCQ1NJ03LFGS7YQZDZ","","null","<img src=""img/animal6.png"" style=""width:200px; border:14px solid green;"">","null","","","",""
"","image-keyboard-response","90","61943","0.0-90.0","3MB8LZR5BGFQODD1R10J6WW8G8GLKL","ACJ6NSCIWMUZI","3SBNLSTU6UR0TCQ1NJ03LFGS7YQZDZ","","724.0999999940395","img/animal1.png","75","725.5999999940395","75","1",""
"","html-keyboard-response","91","62249","0.0-91.0","3MB8LZR5BGFQODD1R10J6WW8G8GLKL","ACJ6NSCIWMUZI","3SBNLSTU6UR0TCQ1NJ03LFGS7YQZDZ","","null","<img src=""img/animal1.png"" style=""width:200px; border:14px solid green;"">","null","","","",""
"","image-keyboard-response","92","62819","0.0-92.0","3MB8LZR5BGFQODD1R10J6WW8G8GLKL","ACJ6NSCIWMUZI","3SBNLSTU6UR0TCQ1NJ03LFGS7YQZDZ","","568.3999999910593","img/animal1.png","75","569.5999999940395","75","1",""
"","html-keyboard-response","93","63121","0.0-93.0","3MB8LZR5BGFQODD1R10J6WW8G8GLKL","ACJ6NSCIWMUZI","3SBNLSTU6UR0TCQ1NJ03LFGS7YQZDZ","","null","<img src=""img/animal1.png"" style=""width:200px; border:14px solid green;"">","null","","","",""
"","image-keyboard-response","94","63852","0.0-94.0","3MB8LZR5BGFQODD1R10J6WW8G8GLKL","ACJ6NSCIWMUZI","3SBNLSTU6UR0TCQ1NJ03LFGS7YQZDZ","","729.7000000029802","img/animal5.png","74","731.2000000029802","74","1",""
"","html-keyboard-response","95","64161","0.0-95.0","3MB8LZR5BGFQODD1R10J6WW8G8GLKL","ACJ6NSCIWMUZI","3SBNLSTU6UR0TCQ1NJ03LFGS7YQZDZ","","null","<img src=""img/animal5.png"" style=""width:200px; border:14px solid green;"">","null","","","",""
"","image-keyboard-response","96","65119","0.0-96.0","3MB8LZR5BGFQODD1R10J6WW8G8GLKL","ACJ6NSCIWMUZI","3SBNLSTU6UR0TCQ1NJ03LFGS7YQZDZ","","956.0999999940395","img/animal6.png","76","957.5","76","1",""
"","html-keyboard-response","97","65425","0.0-97.0","3MB8LZR5BGFQODD1R10J6WW8G8GLKL","ACJ6NSCIWMUZI","3SBNLSTU6UR0TCQ1NJ03LFGS7YQZDZ","","null","<img src=""img/animal6.png"" style=""width:200px; border:14px solid green;"">","null","","","",""
"","image-keyboard-response","98","66130","0.0-98.0","3MB8LZR5BGFQODD1R10J6WW8G8GLKL","ACJ6NSCIWMUZI","3SBNLSTU6UR0TCQ1NJ03LFGS7YQZDZ","","702.8999999910593","img/animal5.png","75","704.5","75","1",""
"","html-keyboard-response","99","66433","0.0-99.0","3MB8LZR5BGFQODD1R10J6WW8G8GLKL","ACJ6NSCIWMUZI","3SBNLSTU6UR0TCQ1NJ03LFGS7YQZDZ","","null","<img src=""img/animal5.png"" style=""width:200px; border:14px solid green;"">","null","","","",""
"","image-keyboard-response","100","67119","0.0-100.0","3MB8LZR5BGFQODD1R10J6WW8G8GLKL","ACJ6NSCIWMUZI","3SBNLSTU6UR0TCQ1NJ03LFGS7YQZDZ","","684.2999999970198","img/animal5.png","75","685.3999999910593","75","1",""
"","html-keyboard-response","101","67425","0.0-101.0","3MB8LZR5BGFQODD1R10J6WW8G8GLKL","ACJ6NSCIWMUZI","3SBNLSTU6UR0TCQ1NJ03LFGS7YQZDZ","","null","<img src=""img/animal5.png"" style=""width:200px; border:14px solid green;"">","null","","","",""
"","image-keyboard-response","102","67584","0.0-102.0","3MB8LZR5BGFQODD1R10J6WW8G8GLKL","ACJ6NSCIWMUZI","3SBNLSTU6UR0TCQ1NJ03LFGS7YQZDZ","","156.90000000596046","img/animal1.png","74","158.1000000089407","74","0",""
"","html-keyboard-response","103","67890","0.0-103.0","3MB8LZR5BGFQODD1R10J6WW8G8GLKL","ACJ6NSCIWMUZI","3SBNLSTU6UR0TCQ1NJ03LFGS7YQZDZ","","null","<img src=""img/animal1.png"" style=""width:200px;border:14px solid red;"">","null","","","",""
"","image-keyboard-response","104","68160","0.0-104.0","3MB8LZR5BGFQODD1R10J6WW8G8GLKL","ACJ6NSCIWMUZI","3SBNLSTU6UR0TCQ1NJ03LFGS7YQZDZ","","269.20000000298023","img/animal6.png","75","270.3999999910593","75","0",""
"","html-keyboard-response","105","68465","0.0-105.0","3MB8LZR5BGFQODD1R10J6WW8G8GLKL","ACJ6NSCIWMUZI","3SBNLSTU6UR0TCQ1NJ03LFGS7YQZDZ","","null","<img src=""img/animal6.png"" style=""width:200px;border:14px solid red;"">","null","","","",""
"","image-keyboard-response","106","68672","0.0-106.0","3MB8LZR5BGFQODD1R10J6WW8G8GLKL","ACJ6NSCIWMUZI","3SBNLSTU6UR0TCQ1NJ03LFGS7YQZDZ","","203.19999998807907","img/animal1.png","76","204.79999999701977","76","0",""
"","html-keyboard-response","107","68977","0.0-107.0","3MB8LZR5BGFQODD1R10J6WW8G8GLKL","ACJ6NSCIWMUZI","3SBNLSTU6UR0TCQ1NJ03LFGS7YQZDZ","","null","<img src=""img/animal1.png"" style=""width:200px;border:14px solid red;"">","null","","","",""
"","image-keyboard-response","108","69841","0.0-108.0","3MB8LZR5BGFQODD1R10J6WW8G8GLKL","ACJ6NSCIWMUZI","3SBNLSTU6UR0TCQ1NJ03LFGS7YQZDZ","","862.9000000059605","img/animal5.png","74","864.3999999910593","74","1",""
"","html-keyboard-response","109","70146","0.0-109.0","3MB8LZR5BGFQODD1R10J6WW8G8GLKL","ACJ6NSCIWMUZI","3SBNLSTU6UR0TCQ1NJ03LFGS7YQZDZ","","null","<img src=""img/animal5.png"" style=""width:200px; border:14px solid green;"">","null","","","",""
"","image-keyboard-response","110","70994","0.0-110.0","3MB8LZR5BGFQODD1R10J6WW8G8GLKL","ACJ6NSCIWMUZI","3SBNLSTU6UR0TCQ1NJ03LFGS7YQZDZ","","846.1000000089407","img/animal6.png","76","848","76","0",""
"","html-keyboard-response","111","71297","0.0-111.0","3MB8LZR5BGFQODD1R10J6WW8G8GLKL","ACJ6NSCIWMUZI","3SBNLSTU6UR0TCQ1NJ03LFGS7YQZDZ","","null","<img src=""img/animal6.png"" style=""width:200px;border:14px solid red;"">","null","","","",""
"","image-keyboard-response","112","71868","0.0-112.0","3MB8LZR5BGFQODD1R10J6WW8G8GLKL","ACJ6NSCIWMUZI","3SBNLSTU6UR0TCQ1NJ03LFGS7YQZDZ","","569.7000000029802","img/animal6.png","76","571.2000000029802","76","1",""
"","html-keyboard-response","113","72178","0.0-113.0","3MB8LZR5BGFQODD1R10J6WW8G8GLKL","ACJ6NSCIWMUZI","3SBNLSTU6UR0TCQ1NJ03LFGS7YQZDZ","","null","<img src=""img/animal6.png"" style=""width:200px; border:14px solid green;"">","null","","","",""
"","image-keyboard-response","114","72584","0.0-114.0","3MB8LZR5BGFQODD1R10J6WW8G8GLKL","ACJ6NSCIWMUZI","3SBNLSTU6UR0TCQ1NJ03LFGS7YQZDZ","","404.40000000596046","img/animal6.png","76","405.79999999701977","76","1",""
"","html-keyboard-response","115","72889","0.0-115.0","3MB8LZR5BGFQODD1R10J6WW8G8GLKL","ACJ6NSCIWMUZI","3SBNLSTU6UR0TCQ1NJ03LFGS7YQZDZ","","null","<img src=""img/animal6.png"" style=""width:200px; border:14px solid green;"">","null","","","",""
"","image-keyboard-response","116","73230","0.0-116.0","3MB8LZR5BGFQODD1R10J6WW8G8GLKL","ACJ6NSCIWMUZI","3SBNLSTU6UR0TCQ1NJ03LFGS7YQZDZ","","339.5","img/animal6.png","76","340.70000000298023","76","1",""
"","html-keyboard-response","117","73537","0.0-117.0","3MB8LZR5BGFQODD1R10J6WW8G8GLKL","ACJ6NSCIWMUZI","3SBNLSTU6UR0TCQ1NJ03LFGS7YQZDZ","","null","<img src=""img/animal6.png"" style=""width:200px; border:14px solid green;"">","null","","","",""
"","image-keyboard-response","118","74197","0.0-118.0","3MB8LZR5BGFQODD1R10J6WW8G8GLKL","ACJ6NSCIWMUZI","3SBNLSTU6UR0TCQ1NJ03LFGS7YQZDZ","","658","img/animal6.png","76","659.3999999910593","76","0",""
"","html-keyboard-response","119","74505","0.0-119.0","3MB8LZR5BGFQODD1R10J6WW8G8GLKL","ACJ6NSCIWMUZI","3SBNLSTU6UR0TCQ1NJ03LFGS7YQZDZ","","null","<img src=""img/animal6.png"" style=""width:200px;border:14px solid red;"">","null","","","",""
"","image-keyboard-response","120","75023","0.0-120.0","3MB8LZR5BGFQODD1R10J6WW8G8GLKL","ACJ6NSCIWMUZI","3SBNLSTU6UR0TCQ1NJ03LFGS7YQZDZ","","516.7000000029802","img/animal5.png","74","518.0999999940395","74","1",""
"","html-keyboard-response","121","75329","0.0-121.0","3MB8LZR5BGFQODD1R10J6WW8G8GLKL","ACJ6NSCIWMUZI","3SBNLSTU6UR0TCQ1NJ03LFGS7YQZDZ","","null","<img src=""img/animal5.png"" style=""width:200px; border:14px solid green;"">","null","","","",""
"","image-keyboard-response","122","75854","0.0-122.0","3MB8LZR5BGFQODD1R10J6WW8G8GLKL","ACJ6NSCIWMUZI","3SBNLSTU6UR0TCQ1NJ03LFGS7YQZDZ","","523.9000000059605","img/animal1.png","75","525.2000000029802","75","1",""
"","html-keyboard-response","123","76161","0.0-123.0","3MB8LZR5BGFQODD1R10J6WW8G8GLKL","ACJ6NSCIWMUZI","3SBNLSTU6UR0TCQ1NJ03LFGS7YQZDZ","","null","<img src=""img/animal1.png"" style=""width:200px; border:14px solid green;"">","null","","","",""
"","image-keyboard-response","124","76685","0.0-124.0","3MB8LZR5BGFQODD1R10J6WW8G8GLKL","ACJ6NSCIWMUZI","3SBNLSTU6UR0TCQ1NJ03LFGS7YQZDZ","","522","img/animal6.png","76","523.4000000059605","76","1",""
"","html-keyboard-response","125","76993","0.0-125.0","3MB8LZR5BGFQODD1R10J6WW8G8GLKL","ACJ6NSCIWMUZI","3SBNLSTU6UR0TCQ1NJ03LFGS7YQZDZ","","null","<img src=""img/animal6.png"" style=""width:200px; border:14px solid green;"">","null","","","",""
"","image-keyboard-response","126","77627","0.0-126.0","3MB8LZR5BGFQODD1R10J6WW8G8GLKL","ACJ6NSCIWMUZI","3SBNLSTU6UR0TCQ1NJ03LFGS7YQZDZ","","632.2000000029802","img/animal1.png","75","633.5","75","0",""
"","html-keyboard-response","127","77929","0.0-127.0","3MB8LZR5BGFQODD1R10J6WW8G8GLKL","ACJ6NSCIWMUZI","3SBNLSTU6UR0TCQ1NJ03LFGS7YQZDZ","","null","<img src=""img/animal1.png"" style=""width:200px;border:14px solid red;"">","null","","","",""
"","image-keyboard-response","128","78500","0.0-128.0","3MB8LZR5BGFQODD1R10J6WW8G8GLKL","ACJ6NSCIWMUZI","3SBNLSTU6UR0TCQ1NJ03LFGS7YQZDZ","","569.4000000059605","img/animal5.png","74","570.7000000029802","74","1",""
"","html-keyboard-response","129","78809","0.0-129.0","3MB8LZR5BGFQODD1R10J6WW8G8GLKL","ACJ6NSCIWMUZI","3SBNLSTU6UR0TCQ1NJ03LFGS7YQZDZ","","null","<img src=""img/animal5.png"" style=""width:200px; border:14px solid green;"">","null","","","",""
"","image-keyboard-response","130","79284","0.0-130.0","3MB8LZR5BGFQODD1R10J6WW8G8GLKL","ACJ6NSCIWMUZI","3SBNLSTU6UR0TCQ1NJ03LFGS7YQZDZ","","473.79999999701977","img/animal5.png","74","475.09999999403954","74","0",""
"","html-keyboard-response","131","79593","0.0-131.0","3MB8LZR5BGFQODD1R10J6WW8G8GLKL","ACJ6NSCIWMUZI","3SBNLSTU6UR0TCQ1NJ03LFGS7YQZDZ","","null","<img src=""img/animal5.png"" style=""width:200px;border:14px solid red;"">","null","","","",""
"","image-keyboard-response","132","79998","0.0-132.0","3MB8LZR5BGFQODD1R10J6WW8G8GLKL","ACJ6NSCIWMUZI","3SBNLSTU6UR0TCQ1NJ03LFGS7YQZDZ","","403.40000000596046","img/animal5.png","74","404.70000000298023","74","1",""
"","html-keyboard-response","133","80305","0.0-133.0","3MB8LZR5BGFQODD1R10J6WW8G8GLKL","ACJ6NSCIWMUZI","3SBNLSTU6UR0TCQ1NJ03LFGS7YQZDZ","","null","<img src=""img/animal5.png"" style=""width:200px; border:14px solid green;"">","null","","","",""
"","image-keyboard-response","134","80761","0.0-134.0","3MB8LZR5BGFQODD1R10J6WW8G8GLKL","ACJ6NSCIWMUZI","3SBNLSTU6UR0TCQ1NJ03LFGS7YQZDZ","","453.5","img/animal5.png","74","454.79999999701977","74","1",""
"","html-keyboard-response","135","81065","0.0-135.0","3MB8LZR5BGFQODD1R10J6WW8G8GLKL","ACJ6NSCIWMUZI","3SBNLSTU6UR0TCQ1NJ03LFGS7YQZDZ","","null","<img src=""img/animal5.png"" style=""width:200px; border:14px solid green;"">","null","","","",""
"","image-keyboard-response","136","81614","0.0-136.0","3MB8LZR5BGFQODD1R10J6WW8G8GLKL","ACJ6NSCIWMUZI","3SBNLSTU6UR0TCQ1NJ03LFGS7YQZDZ","","546.9000000059605","img/animal1.png","75","548.2999999970198","75","1",""
"","html-keyboard-response","137","81921","0.0-137.0","3MB8LZR5BGFQODD1R10J6WW8G8GLKL","ACJ6NSCIWMUZI","3SBNLSTU6UR0TCQ1NJ03LFGS7YQZDZ","","null","<img src=""img/animal1.png"" style=""width:200px; border:14px solid green;"">","null","","","",""
"","image-keyboard-response","138","82650","0.0-138.0","3MB8LZR5BGFQODD1R10J6WW8G8GLKL","ACJ6NSCIWMUZI","3SBNLSTU6UR0TCQ1NJ03LFGS7YQZDZ","","727","img/animal6.png","76","728.3000000119209","76","1",""
"","html-keyboard-response","139","82953","0.0-139.0","3MB8LZR5BGFQODD1R10J6WW8G8GLKL","ACJ6NSCIWMUZI","3SBNLSTU6UR0TCQ1NJ03LFGS7YQZDZ","","null","<img src=""img/animal6.png"" style=""width:200px; border:14px solid green;"">","null","","","",""
"","image-keyboard-response","140","83457","0.0-140.0","3MB8LZR5BGFQODD1R10J6WW8G8GLKL","ACJ6NSCIWMUZI","3SBNLSTU6UR0TCQ1NJ03LFGS7YQZDZ","","502.30000001192093","img/animal6.png","76","503.70000000298023","76","0",""
"","html-keyboard-response","141","83761","0.0-141.0","3MB8LZR5BGFQODD1R10J6WW8G8GLKL","ACJ6NSCIWMUZI","3SBNLSTU6UR0TCQ1NJ03LFGS7YQZDZ","","null","<img src=""img/animal6.png"" style=""width:200px;border:14px solid red;"">","null","","","",""
"","image-keyboard-response","142","84536","0.0-142.0","3MB8LZR5BGFQODD1R10J6WW8G8GLKL","ACJ6NSCIWMUZI","3SBNLSTU6UR0TCQ1NJ03LFGS7YQZDZ","","773.5999999940395","img/animal6.png","76","774.7000000029802","76","1",""
"","html-keyboard-response","143","84841","0.0-143.0","3MB8LZR5BGFQODD1R10J6WW8G8GLKL","ACJ6NSCIWMUZI","3SBNLSTU6UR0TCQ1NJ03LFGS7YQZDZ","","null","<img src=""img/animal6.png"" style=""width:200px; border:14px solid green;"">","null","","","",""
"","image-keyboard-response","144","85411","0.0-144.0","3MB8LZR5BGFQODD1R10J6WW8G8GLKL","ACJ6NSCIWMUZI","3SBNLSTU6UR0TCQ1NJ03LFGS7YQZDZ","","567.5","img/animal1.png","75","569.3999999910593","75","1",""
"","html-keyboard-response","145","85713","0.0-145.0","3MB8LZR5BGFQODD1R10J6WW8G8GLKL","ACJ6NSCIWMUZI","3SBNLSTU6UR0TCQ1NJ03LFGS7YQZDZ","","null","<img src=""img/animal1.png"" style=""width:200px; border:14px solid green;"">","null","","","",""
"","image-keyboard-response","146","86399","0.0-146.0","3MB8LZR5BGFQODD1R10J6WW8G8GLKL","ACJ6NSCIWMUZI","3SBNLSTU6UR0TCQ1NJ03LFGS7YQZDZ","","683.5999999940395","img/animal5.png","74","685.2000000029802","74","0",""
"","html-keyboard-response","147","86705","0.0-147.0","3MB8LZR5BGFQODD1R10J6WW8G8GLKL","ACJ6NSCIWMUZI","3SBNLSTU6UR0TCQ1NJ03LFGS7YQZDZ","","null","<img src=""img/animal5.png"" style=""width:200px;border:14px solid red;"">","null","","","",""
"","image-keyboard-response","148","87411","0.0-148.0","3MB8LZR5BGFQODD1R10J6WW8G8GLKL","ACJ6NSCIWMUZI","3SBNLSTU6UR0TCQ1NJ03LFGS7YQZDZ","","704.5","img/animal1.png","75","705.7000000029802","75","1",""
"","html-keyboard-response","149","87721","0.0-149.0","3MB8LZR5BGFQODD1R10J6WW8G8GLKL","ACJ6NSCIWMUZI","3SBNLSTU6UR0TCQ1NJ03LFGS7YQZDZ","","null","<img src=""img/animal1.png"" style=""width:200px; border:14px solid green;"">","null","","","",""
"","image-keyboard-response","150","88447","0.0-150.0","3MB8LZR5BGFQODD1R10J6WW8G8GLKL","ACJ6NSCIWMUZI","3SBNLSTU6UR0TCQ1NJ03LFGS7YQZDZ","","724.2999999970198","img/animal1.png","75","725.7999999970198","75","1",""
"","html-keyboard-response","151","88753","0.0-151.0","3MB8LZR5BGFQODD1R10J6WW8G8GLKL","ACJ6NSCIWMUZI","3SBNLSTU6UR0TCQ1NJ03LFGS7YQZDZ","","null","<img src=""img/animal1.png"" style=""width:200px; border:14px solid green;"">","null","","","",""
"","image-keyboard-response","152","89435","0.0-152.0","3MB8LZR5BGFQODD1R10J6WW8G8GLKL","ACJ6NSCIWMUZI","3SBNLSTU6UR0TCQ1NJ03LFGS7YQZDZ","","679.7999999970198","img/animal5.png","74","681.7000000029802","74","1",""
"","html-keyboard-response","153","89738","0.0-153.0","3MB8LZR5BGFQODD1R10J6WW8G8GLKL","ACJ6NSCIWMUZI","3SBNLSTU6UR0TCQ1NJ03LFGS7YQZDZ","","null","<img src=""img/animal5.png"" style=""width:200px; border:14px solid green;"">","null","","","",""
"","image-keyboard-response","154","90266","0.0-154.0","3MB8LZR5BGFQODD1R10J6WW8G8GLKL","ACJ6NSCIWMUZI","3SBNLSTU6UR0TCQ1NJ03LFGS7YQZDZ","","526.5","img/animal1.png","76","528.7000000029802","76","0",""
"","html-keyboard-response","155","90571","0.0-155.0","3MB8LZR5BGFQODD1R10J6WW8G8GLKL","ACJ6NSCIWMUZI","3SBNLSTU6UR0TCQ1NJ03LFGS7YQZDZ","","null","<img src=""img/animal1.png"" style=""width:200px;border:14px solid red;"">","null","","","",""
"","image-keyboard-response","156","90615","0.0-156.0","3MB8LZR5BGFQODD1R10J6WW8G8GLKL","ACJ6NSCIWMUZI","3SBNLSTU6UR0TCQ1NJ03LFGS7YQZDZ","","42","img/animal6.png","75","43.29999999701977","75","0",""
"","html-keyboard-response","157","90921","0.0-157.0","3MB8LZR5BGFQODD1R10J6WW8G8GLKL","ACJ6NSCIWMUZI","3SBNLSTU6UR0TCQ1NJ03LFGS7YQZDZ","","null","<img src=""img/animal6.png"" style=""width:200px;border:14px solid red;"">","null","","","",""
"","image-keyboard-response","158","91558","0.0-158.0","3MB8LZR5BGFQODD1R10J6WW8G8GLKL","ACJ6NSCIWMUZI","3SBNLSTU6UR0TCQ1NJ03LFGS7YQZDZ","","635.2000000029802","img/animal1.png","75","636.7000000029802","75","1",""
"","html-keyboard-response","159","91865","0.0-159.0","3MB8LZR5BGFQODD1R10J6WW8G8GLKL","ACJ6NSCIWMUZI","3SBNLSTU6UR0TCQ1NJ03LFGS7YQZDZ","","null","<img src=""img/animal1.png"" style=""width:200px; border:14px solid green;"">","null","","","",""
"","image-keyboard-response","160","92319","0.0-160.0","3MB8LZR5BGFQODD1R10J6WW8G8GLKL","ACJ6NSCIWMUZI","3SBNLSTU6UR0TCQ1NJ03LFGS7YQZDZ","","452.5","img/animal6.png","76","454.09999999403954","76","0",""
"","html-keyboard-response","161","92625","0.0-161.0","3MB8LZR5BGFQODD1R10J6WW8G8GLKL","ACJ6NSCIWMUZI","3SBNLSTU6UR0TCQ1NJ03LFGS7YQZDZ","","null","<img src=""img/animal6.png"" style=""width:200px;border:14px solid red;"">","null","","","",""
"","image-keyboard-response","162","93583","0.0-162.0","3MB8LZR5BGFQODD1R10J6WW8G8GLKL","ACJ6NSCIWMUZI","3SBNLSTU6UR0TCQ1NJ03LFGS7YQZDZ","","956.5999999940395","img/animal1.png","75","957.9000000059605","75","1",""
"","html-keyboard-response","163","93890","0.0-163.0","3MB8LZR5BGFQODD1R10J6WW8G8GLKL","ACJ6NSCIWMUZI","3SBNLSTU6UR0TCQ1NJ03LFGS7YQZDZ","","null","<img src=""img/animal1.png"" style=""width:200px; border:14px solid green;"">","null","","","",""
"","image-keyboard-response","164","94939","0.0-164.0","3MB8LZR5BGFQODD1R10J6WW8G8GLKL","ACJ6NSCIWMUZI","3SBNLSTU6UR0TCQ1NJ03LFGS7YQZDZ","","1047.7999999970198","img/animal6.png","76","1049","76","1",""
"","html-keyboard-response","165","95251","0.0-165.0","3MB8LZR5BGFQODD1R10J6WW8G8GLKL","ACJ6NSCIWMUZI","3SBNLSTU6UR0TCQ1NJ03LFGS7YQZDZ","","null","<img src=""img/animal6.png"" style=""width:200px; border:14px solid green;"">","null","","","",""
"","image-keyboard-response","166","96132","0.0-166.0","3MB8LZR5BGFQODD1R10J6WW8G8GLKL","ACJ6NSCIWMUZI","3SBNLSTU6UR0TCQ1NJ03LFGS7YQZDZ","","879.5","img/animal5.png","75","881.4000000059605","75","0",""
"","html-keyboard-response","167","96442","0.0-167.0","3MB8LZR5BGFQODD1R10J6WW8G8GLKL","ACJ6NSCIWMUZI","3SBNLSTU6UR0TCQ1NJ03LFGS7YQZDZ","","null","<img src=""img/animal5.png"" style=""width:200px;border:14px solid red;"">","null","","","",""
"","image-keyboard-response","168","97396","0.0-168.0","3MB8LZR5BGFQODD1R10J6WW8G8GLKL","ACJ6NSCIWMUZI","3SBNLSTU6UR0TCQ1NJ03LFGS7YQZDZ","","952.5","img/animal5.png","74","953.7999999970198","74","0",""
"","html-keyboard-response","169","97706","0.0-169.0","3MB8LZR5BGFQODD1R10J6WW8G8GLKL","ACJ6NSCIWMUZI","3SBNLSTU6UR0TCQ1NJ03LFGS7YQZDZ","","null","<img src=""img/animal5.png"" style=""width:200px;border:14px solid red;"">","null","","","",""
"","image-keyboard-response","170","98020","0.0-170.0","3MB8LZR5BGFQODD1R10J6WW8G8GLKL","ACJ6NSCIWMUZI","3SBNLSTU6UR0TCQ1NJ03LFGS7YQZDZ","","312.70000000298023","img/animal5.png","74","314.20000000298023","74","0",""
"","html-keyboard-response","171","98329","0.0-171.0","3MB8LZR5BGFQODD1R10J6WW8G8GLKL","ACJ6NSCIWMUZI","3SBNLSTU6UR0TCQ1NJ03LFGS7YQZDZ","","null","<img src=""img/animal5.png"" style=""width:200px;border:14px solid red;"">","null","","","",""
"","image-keyboard-response","172","99012","0.0-172.0","3MB8LZR5BGFQODD1R10J6WW8G8GLKL","ACJ6NSCIWMUZI","3SBNLSTU6UR0TCQ1NJ03LFGS7YQZDZ","","681.0999999940395","img/animal6.png","76","683.2000000029802","76","0",""
"","html-keyboard-response","173","99321","0.0-173.0","3MB8LZR5BGFQODD1R10J6WW8G8GLKL","ACJ6NSCIWMUZI","3SBNLSTU6UR0TCQ1NJ03LFGS7YQZDZ","","null","<img src=""img/animal6.png"" style=""width:200px;border:14px solid red;"">","null","","","",""
"","image-keyboard-response","174","99977","0.0-174.0","3MB8LZR5BGFQODD1R10J6WW8G8GLKL","ACJ6NSCIWMUZI","3SBNLSTU6UR0TCQ1NJ03LFGS7YQZDZ","","654.2999999970198","img/animal1.png","75","655.9000000059605","75","0",""
"","html-keyboard-response","175","100283","0.0-175.0","3MB8LZR5BGFQODD1R10J6WW8G8GLKL","ACJ6NSCIWMUZI","3SBNLSTU6UR0TCQ1NJ03LFGS7YQZDZ","","null","<img src=""img/animal1.png"" style=""width:200px;border:14px solid red;"">","null","","","",""
"","image-keyboard-response","176","100988","0.0-176.0","3MB8LZR5BGFQODD1R10J6WW8G8GLKL","ACJ6NSCIWMUZI","3SBNLSTU6UR0TCQ1NJ03LFGS7YQZDZ","","704","img/animal5.png","74","705.2000000029802","74","1",""
"","html-keyboard-response","177","101297","0.0-177.0","3MB8LZR5BGFQODD1R10J6WW8G8GLKL","ACJ6NSCIWMUZI","3SBNLSTU6UR0TCQ1NJ03LFGS7YQZDZ","","null","<img src=""img/animal5.png"" style=""width:200px; border:14px solid green;"">","null","","","",""
"","image-keyboard-response","178","102003","0.0-178.0","3MB8LZR5BGFQODD1R10J6WW8G8GLKL","ACJ6NSCIWMUZI","3SBNLSTU6UR0TCQ1NJ03LFGS7YQZDZ","","703.5","img/animal6.png","76","704.8999999910593","76","1",""
"","html-keyboard-response","179","102305","0.0-179.0","3MB8LZR5BGFQODD1R10J6WW8G8GLKL","ACJ6NSCIWMUZI","3SBNLSTU6UR0TCQ1NJ03LFGS7YQZDZ","","null","<img src=""img/animal6.png"" style=""width:200px; border:14px solid green;"">","null","","","",""
"","image-keyboard-response","180","103013","0.0-180.0","3MB8LZR5BGFQODD1R10J6WW8G8GLKL","ACJ6NSCIWMUZI","3SBNLSTU6UR0TCQ1NJ03LFGS7YQZDZ","","706.1999999880791","img/animal1.png","75","707.5","75","1",""
"","html-keyboard-response","181","103321","0.0-181.0","3MB8LZR5BGFQODD1R10J6WW8G8GLKL","ACJ6NSCIWMUZI","3SBNLSTU6UR0TCQ1NJ03LFGS7YQZDZ","","null","<img src=""img/animal1.png"" style=""width:200px; border:14px solid green;"">","null","","","",""
"","html-keyboard-response","182","105940","0.0-182.0","3MB8LZR5BGFQODD1R10J6WW8G8GLKL","ACJ6NSCIWMUZI","3SBNLSTU6UR0TCQ1NJ03LFGS7YQZDZ","","","","","","","",""
"","image-keyboard-response","183","106978","0.0-183.0","3MB8LZR5BGFQODD1R10J6WW8G8GLKL","ACJ6NSCIWMUZI","3SBNLSTU6UR0TCQ1NJ03LFGS7YQZDZ","","1035.2000000029802","img/animal3.png","74","1037.0999999940395","74","0",""
"","html-keyboard-response","184","107281","0.0-184.0","3MB8LZR5BGFQODD1R10J6WW8G8GLKL","ACJ6NSCIWMUZI","3SBNLSTU6UR0TCQ1NJ03LFGS7YQZDZ","","null","<img src=""img/animal3.png"" style=""width:200px;border:14px solid red;"">","null","","","",""
"","image-keyboard-response","185","107920","0.0-185.0","3MB8LZR5BGFQODD1R10J6WW8G8GLKL","ACJ6NSCIWMUZI","3SBNLSTU6UR0TCQ1NJ03LFGS7YQZDZ","","637.2999999970198","img/animal2.png","75","639.2000000029802","75","0",""
"","html-keyboard-response","186","108226","0.0-186.0","3MB8LZR5BGFQODD1R10J6WW8G8GLKL","ACJ6NSCIWMUZI","3SBNLSTU6UR0TCQ1NJ03LFGS7YQZDZ","","null","<img src=""img/animal2.png"" style=""width:200px;border:14px solid red;"">","null","","","",""
"","image-keyboard-response","187","108612","0.0-187.0","3MB8LZR5BGFQODD1R10J6WW8G8GLKL","ACJ6NSCIWMUZI","3SBNLSTU6UR0TCQ1NJ03LFGS7YQZDZ","","384.79999999701977","img/animal2.png","76","386.20000000298023","76","1",""
"","html-keyboard-response","188","108922","0.0-188.0","3MB8LZR5BGFQODD1R10J6WW8G8GLKL","ACJ6NSCIWMUZI","3SBNLSTU6UR0TCQ1NJ03LFGS7YQZDZ","","null","<img src=""img/animal2.png"" style=""width:200px; border:14px solid green;"">","null","","","",""
"","image-keyboard-response","189","109441","0.0-189.0","3MB8LZR5BGFQODD1R10J6WW8G8GLKL","ACJ6NSCIWMUZI","3SBNLSTU6UR0TCQ1NJ03LFGS7YQZDZ","","517.2000000029802","img/animal2.png","75","518.5","75","0",""
"","html-keyboard-response","190","109745","0.0-190.0","3MB8LZR5BGFQODD1R10J6WW8G8GLKL","ACJ6NSCIWMUZI","3SBNLSTU6UR0TCQ1NJ03LFGS7YQZDZ","","null","<img src=""img/animal2.png"" style=""width:200px;border:14px solid red;"">","null","","","",""
"","image-keyboard-response","191","111781","0.0-191.0","3MB8LZR5BGFQODD1R10J6WW8G8GLKL","ACJ6NSCIWMUZI","3SBNLSTU6UR0TCQ1NJ03LFGS7YQZDZ","","2034.5","img/animal4.png","76","2035.7999999970198","76","0",""
"","html-keyboard-response","192","112089","0.0-192.0","3MB8LZR5BGFQODD1R10J6WW8G8GLKL","ACJ6NSCIWMUZI","3SBNLSTU6UR0TCQ1NJ03LFGS7YQZDZ","","null","<img src=""img/animal4.png"" style=""width:200px;border:14px solid red;"">","null","","","",""
"","image-keyboard-response","193","112268","0.0-193.0","3MB8LZR5BGFQODD1R10J6WW8G8GLKL","ACJ6NSCIWMUZI","3SBNLSTU6UR0TCQ1NJ03LFGS7YQZDZ","","177","img/animal4.png","76","178.70000000298023","76","0",""
"","html-keyboard-response","194","112578","0.0-194.0","3MB8LZR5BGFQODD1R10J6WW8G8GLKL","ACJ6NSCIWMUZI","3SBNLSTU6UR0TCQ1NJ03LFGS7YQZDZ","","null","<img src=""img/animal4.png"" style=""width:200px;border:14px solid red;"">","null","","","",""
"","image-keyboard-response","195","113140","0.0-195.0","3MB8LZR5BGFQODD1R10J6WW8G8GLKL","ACJ6NSCIWMUZI","3SBNLSTU6UR0TCQ1NJ03LFGS7YQZDZ","","559.1999999880791","img/animal4.png","74","560.5","74","1",""
"","html-keyboard-response","196","113450","0.0-196.0","3MB8LZR5BGFQODD1R10J6WW8G8GLKL","ACJ6NSCIWMUZI","3SBNLSTU6UR0TCQ1NJ03LFGS7YQZDZ","","null","<img src=""img/animal4.png"" style=""width:200px; border:14px solid green;"">","null","","","",""
"","image-keyboard-response","197","114473","0.0-197.0","3MB8LZR5BGFQODD1R10J6WW8G8GLKL","ACJ6NSCIWMUZI","3SBNLSTU6UR0TCQ1NJ03LFGS7YQZDZ","","1021.5","img/animal4.png","74","1022.7999999970198","74","1",""
"","html-keyboard-response","198","114777","0.0-198.0","3MB8LZR5BGFQODD1R10J6WW8G8GLKL","ACJ6NSCIWMUZI","3SBNLSTU6UR0TCQ1NJ03LFGS7YQZDZ","","null","<img src=""img/animal4.png"" style=""width:200px; border:14px solid green;"">","null","","","",""
"","image-keyboard-response","199","115142","0.0-199.0","3MB8LZR5BGFQODD1R10J6WW8G8GLKL","ACJ6NSCIWMUZI","3SBNLSTU6UR0TCQ1NJ03LFGS7YQZDZ","","363.09999999403954","img/animal4.png","74","365.20000000298023","74","1",""
"","html-keyboard-response","200","115449","0.0-200.0","3MB8LZR5BGFQODD1R10J6WW8G8GLKL","ACJ6NSCIWMUZI","3SBNLSTU6UR0TCQ1NJ03LFGS7YQZDZ","","null","<img src=""img/animal4.png"" style=""width:200px; border:14px solid green;"">","null","","","",""
"","image-keyboard-response","201","116384","0.0-201.0","3MB8LZR5BGFQODD1R10J6WW8G8GLKL","ACJ6NSCIWMUZI","3SBNLSTU6UR0TCQ1NJ03LFGS7YQZDZ","","933.3999999910593","img/animal2.png","75","934.7000000029802","75","0",""
"","html-keyboard-response","202","116689","0.0-202.0","3MB8LZR5BGFQODD1R10J6WW8G8GLKL","ACJ6NSCIWMUZI","3SBNLSTU6UR0TCQ1NJ03LFGS7YQZDZ","","null","<img src=""img/animal2.png"" style=""width:200px;border:14px solid red;"">","null","","","",""
"","image-keyboard-response","203","117510","0.0-203.0","3MB8LZR5BGFQODD1R10J6WW8G8GLKL","ACJ6NSCIWMUZI","3SBNLSTU6UR0TCQ1NJ03LFGS7YQZDZ","","819.1000000089407","img/animal4.png","74","820.2999999970198","74","1",""
"","html-keyboard-response","204","117818","0.0-204.0","3MB8LZR5BGFQODD1R10J6WW8G8GLKL","ACJ6NSCIWMUZI","3SBNLSTU6UR0TCQ1NJ03LFGS7YQZDZ","","null","<img src=""img/animal4.png"" style=""width:200px; border:14px solid green;"">","null","","","",""
"","image-keyboard-response","205","119050","0.0-205.0","3MB8LZR5BGFQODD1R10J6WW8G8GLKL","ACJ6NSCIWMUZI","3SBNLSTU6UR0TCQ1NJ03LFGS7YQZDZ","","1231","img/animal3.png","76","1232.2999999970198","76","0",""
"","html-keyboard-response","206","119353","0.0-206.0","3MB8LZR5BGFQODD1R10J6WW8G8GLKL","ACJ6NSCIWMUZI","3SBNLSTU6UR0TCQ1NJ03LFGS7YQZDZ","","null","<img src=""img/animal3.png"" style=""width:200px;border:14px solid red;"">","null","","","",""
"","image-keyboard-response","207","119489","0.0-207.0","3MB8LZR5BGFQODD1R10J6WW8G8GLKL","ACJ6NSCIWMUZI","3SBNLSTU6UR0TCQ1NJ03LFGS7YQZDZ","","134.69999998807907","img/animal2.png","76","136","76","1",""
"","html-keyboard-response","208","119794","0.0-208.0","3MB8LZR5BGFQODD1R10J6WW8G8GLKL","ACJ6NSCIWMUZI","3SBNLSTU6UR0TCQ1NJ03LFGS7YQZDZ","","null","<img src=""img/animal2.png"" style=""width:200px; border:14px solid green;"">","null","","","",""
"","image-keyboard-response","209","120638","0.0-209.0","3MB8LZR5BGFQODD1R10J6WW8G8GLKL","ACJ6NSCIWMUZI","3SBNLSTU6UR0TCQ1NJ03LFGS7YQZDZ","","842.2000000029802","img/animal4.png","74","843.5","74","1",""
"","html-keyboard-response","210","120945","0.0-210.0","3MB8LZR5BGFQODD1R10J6WW8G8GLKL","ACJ6NSCIWMUZI","3SBNLSTU6UR0TCQ1NJ03LFGS7YQZDZ","","null","<img src=""img/animal4.png"" style=""width:200px; border:14px solid green;"">","null","","","",""
"","image-keyboard-response","211","121878","0.0-211.0","3MB8LZR5BGFQODD1R10J6WW8G8GLKL","ACJ6NSCIWMUZI","3SBNLSTU6UR0TCQ1NJ03LFGS7YQZDZ","","930.9000000059605","img/animal4.png","74","932.1999999880791","74","1",""
"","html-keyboard-response","212","122185","0.0-212.0","3MB8LZR5BGFQODD1R10J6WW8G8GLKL","ACJ6NSCIWMUZI","3SBNLSTU6UR0TCQ1NJ03LFGS7YQZDZ","","null","<img src=""img/animal4.png"" style=""width:200px; border:14px solid green;"">","null","","","",""
"","image-keyboard-response","213","123006","0.0-213.0","3MB8LZR5BGFQODD1R10J6WW8G8GLKL","ACJ6NSCIWMUZI","3SBNLSTU6UR0TCQ1NJ03LFGS7YQZDZ","","819.3000000119209","img/animal2.png","76","820.5999999940395","76","1",""
"","html-keyboard-response","214","123313","0.0-214.0","3MB8LZR5BGFQODD1R10J6WW8G8GLKL","ACJ6NSCIWMUZI","3SBNLSTU6UR0TCQ1NJ03LFGS7YQZDZ","","null","<img src=""img/animal2.png"" style=""width:200px; border:14px solid green;"">","null","","","",""
"","image-keyboard-response","215","124040","0.0-215.0","3MB8LZR5BGFQODD1R10J6WW8G8GLKL","ACJ6NSCIWMUZI","3SBNLSTU6UR0TCQ1NJ03LFGS7YQZDZ","","725.6999999880791","img/animal3.png","75","727","75","1",""
"","html-keyboard-response","216","124345","0.0-216.0","3MB8LZR5BGFQODD1R10J6WW8G8GLKL","ACJ6NSCIWMUZI","3SBNLSTU6UR0TCQ1NJ03LFGS7YQZDZ","","null","<img src=""img/animal3.png"" style=""width:200px; border:14px solid green;"">","null","","","",""
"","image-keyboard-response","217","124915","0.0-217.0","3MB8LZR5BGFQODD1R10J6WW8G8GLKL","ACJ6NSCIWMUZI","3SBNLSTU6UR0TCQ1NJ03LFGS7YQZDZ","","567.5999999940395","img/animal4.png","74","569.1000000089407","74","1",""
"","html-keyboard-response","218","125217","0.0-218.0","3MB8LZR5BGFQODD1R10J6WW8G8GLKL","ACJ6NSCIWMUZI","3SBNLSTU6UR0TCQ1NJ03LFGS7YQZDZ","","null","<img src=""img/animal4.png"" style=""width:200px; border:14px solid green;"">","null","","","",""
"","image-keyboard-response","219","125768","0.0-219.0","3MB8LZR5BGFQODD1R10J6WW8G8GLKL","ACJ6NSCIWMUZI","3SBNLSTU6UR0TCQ1NJ03LFGS7YQZDZ","","547.9000000059605","img/animal2.png","76","551.0999999940395","76","1",""
"","html-keyboard-response","220","126073","0.0-220.0","3MB8LZR5BGFQODD1R10J6WW8G8GLKL","ACJ6NSCIWMUZI","3SBNLSTU6UR0TCQ1NJ03LFGS7YQZDZ","","null","<img src=""img/animal2.png"" style=""width:200px; border:14px solid green;"">","null","","","",""
"","image-keyboard-response","221","126780","0.0-221.0","3MB8LZR5BGFQODD1R10J6WW8G8GLKL","ACJ6NSCIWMUZI","3SBNLSTU6UR0TCQ1NJ03LFGS7YQZDZ","","704.6000000089407","img/animal4.png","74","706","74","1",""
"","html-keyboard-response","222","127089","0.0-222.0","3MB8LZR5BGFQODD1R10J6WW8G8GLKL","ACJ6NSCIWMUZI","3SBNLSTU6UR0TCQ1NJ03LFGS7YQZDZ","","null","<img src=""img/animal4.png"" style=""width:200px; border:14px solid green;"">","null","","","",""
"","image-keyboard-response","223","127632","0.0-223.0","3MB8LZR5BGFQODD1R10J6WW8G8GLKL","ACJ6NSCIWMUZI","3SBNLSTU6UR0TCQ1NJ03LFGS7YQZDZ","","542","img/animal3.png","75","543.3999999910593","75","1",""
"","html-keyboard-response","224","127937","0.0-224.0","3MB8LZR5BGFQODD1R10J6WW8G8GLKL","ACJ6NSCIWMUZI","3SBNLSTU6UR0TCQ1NJ03LFGS7YQZDZ","","null","<img src=""img/animal3.png"" style=""width:200px; border:14px solid green;"">","null","","","",""
"","image-keyboard-response","225","129169","0.0-225.0","3MB8LZR5BGFQODD1R10J6WW8G8GLKL","ACJ6NSCIWMUZI","3SBNLSTU6UR0TCQ1NJ03LFGS7YQZDZ","","1230.199999988079","img/animal2.png","74","1231.5","74","0",""
"","html-keyboard-response","226","129473","0.0-226.0","3MB8LZR5BGFQODD1R10J6WW8G8GLKL","ACJ6NSCIWMUZI","3SBNLSTU6UR0TCQ1NJ03LFGS7YQZDZ","","null","<img src=""img/animal2.png"" style=""width:200px;border:14px solid red;"">","null","","","",""
"","image-keyboard-response","227","130161","0.0-227.0","3MB8LZR5BGFQODD1R10J6WW8G8GLKL","ACJ6NSCIWMUZI","3SBNLSTU6UR0TCQ1NJ03LFGS7YQZDZ","","685.5","img/animal3.png","75","687.2000000029802","75","1",""
"","html-keyboard-response","228","130465","0.0-228.0","3MB8LZR5BGFQODD1R10J6WW8G8GLKL","ACJ6NSCIWMUZI","3SBNLSTU6UR0TCQ1NJ03LFGS7YQZDZ","","null","<img src=""img/animal3.png"" style=""width:200px; border:14px solid green;"">","null","","","",""
"","image-keyboard-response","229","131496","0.0-229.0","3MB8LZR5BGFQODD1R10J6WW8G8GLKL","ACJ6NSCIWMUZI","3SBNLSTU6UR0TCQ1NJ03LFGS7YQZDZ","","1028.8999999910593","img/animal4.png","76","1030.6000000089407","76","0",""
"","html-keyboard-response","230","131802","0.0-230.0","3MB8LZR5BGFQODD1R10J6WW8G8GLKL","ACJ6NSCIWMUZI","3SBNLSTU6UR0TCQ1NJ03LFGS7YQZDZ","","null","<img src=""img/animal4.png"" style=""width:200px;border:14px solid red;"">","null","","","",""
"","image-keyboard-response","231","132871","0.0-231.0","3MB8LZR5BGFQODD1R10J6WW8G8GLKL","ACJ6NSCIWMUZI","3SBNLSTU6UR0TCQ1NJ03LFGS7YQZDZ","","1066.8999999910593","img/animal3.png","75","1068.7000000029802","75","1",""
"","html-keyboard-response","232","133177","0.0-232.0","3MB8LZR5BGFQODD1R10J6WW8G8GLKL","ACJ6NSCIWMUZI","3SBNLSTU6UR0TCQ1NJ03LFGS7YQZDZ","","null","<img src=""img/animal3.png"" style=""width:200px; border:14px solid green;"">","null","","","",""
"","image-keyboard-response","233","133768","0.0-233.0","3MB8LZR5BGFQODD1R10J6WW8G8GLKL","ACJ6NSCIWMUZI","3SBNLSTU6UR0TCQ1NJ03LFGS7YQZDZ","","589.2000000029802","img/animal4.png","74","591","74","1",""
"","html-keyboard-response","234","134073","0.0-234.0","3MB8LZR5BGFQODD1R10J6WW8G8GLKL","ACJ6NSCIWMUZI","3SBNLSTU6UR0TCQ1NJ03LFGS7YQZDZ","","null","<img src=""img/animal4.png"" style=""width:200px; border:14px solid green;"">","null","","","",""
"","image-keyboard-response","235","135170","0.0-235.0","3MB8LZR5BGFQODD1R10J6WW8G8GLKL","ACJ6NSCIWMUZI","3SBNLSTU6UR0TCQ1NJ03LFGS7YQZDZ","","1095.7000000029802","img/animal3.png","75","1097.1000000089407","75","1",""
"","html-keyboard-response","236","135473","0.0-236.0","3MB8LZR5BGFQODD1R10J6WW8G8GLKL","ACJ6NSCIWMUZI","3SBNLSTU6UR0TCQ1NJ03LFGS7YQZDZ","","null","<img src=""img/animal3.png"" style=""width:200px; border:14px solid green;"">","null","","","",""
"","image-keyboard-response","237","136113","0.0-237.0","3MB8LZR5BGFQODD1R10J6WW8G8GLKL","ACJ6NSCIWMUZI","3SBNLSTU6UR0TCQ1NJ03LFGS7YQZDZ","","638.7999999970198","img/animal3.png","75","640.0999999940395","75","1",""
"","html-keyboard-response","238","136417","0.0-238.0","3MB8LZR5BGFQODD1R10J6WW8G8GLKL","ACJ6NSCIWMUZI","3SBNLSTU6UR0TCQ1NJ03LFGS7YQZDZ","","null","<img src=""img/animal3.png"" style=""width:200px; border:14px solid green;"">","null","","","",""
"","image-keyboard-response","239","136899","0.0-239.0","3MB8LZR5BGFQODD1R10J6WW8G8GLKL","ACJ6NSCIWMUZI","3SBNLSTU6UR0TCQ1NJ03LFGS7YQZDZ","","479.90000000596046","img/animal2.png","76","481.20000000298023","76","1",""
"","html-keyboard-response","240","137201","0.0-240.0","3MB8LZR5BGFQODD1R10J6WW8G8GLKL","ACJ6NSCIWMUZI","3SBNLSTU6UR0TCQ1NJ03LFGS7YQZDZ","","null","<img src=""img/animal2.png"" style=""width:200px; border:14px solid green;"">","null","","","",""
"","image-keyboard-response","241","137820","0.0-241.0","3MB8LZR5BGFQODD1R10J6WW8G8GLKL","ACJ6NSCIWMUZI","3SBNLSTU6UR0TCQ1NJ03LFGS7YQZDZ","","617.0999999940395","img/animal2.png","76","620.5","76","1",""
"","html-keyboard-response","242","138129","0.0-242.0","3MB8LZR5BGFQODD1R10J6WW8G8GLKL","ACJ6NSCIWMUZI","3SBNLSTU6UR0TCQ1NJ03LFGS7YQZDZ","","null","<img src=""img/animal2.png"" style=""width:200px; border:14px solid green;"">","null","","","",""
"","image-keyboard-response","243","138853","0.0-243.0","3MB8LZR5BGFQODD1R10J6WW8G8GLKL","ACJ6NSCIWMUZI","3SBNLSTU6UR0TCQ1NJ03LFGS7YQZDZ","","722.5","img/animal3.png","75","723.8999999910593","75","1",""
"","html-keyboard-response","244","139161","0.0-244.0","3MB8LZR5BGFQODD1R10J6WW8G8GLKL","ACJ6NSCIWMUZI","3SBNLSTU6UR0TCQ1NJ03LFGS7YQZDZ","","null","<img src=""img/animal3.png"" style=""width:200px; border:14px solid green;"">","null","","","",""
"","image-keyboard-response","245","139913","0.0-245.0","3MB8LZR5BGFQODD1R10J6WW8G8GLKL","ACJ6NSCIWMUZI","3SBNLSTU6UR0TCQ1NJ03LFGS7YQZDZ","","750.4000000059605","img/animal2.png","76","751.8999999910593","76","1",""
"","html-keyboard-response","246","140218","0.0-246.0","3MB8LZR5BGFQODD1R10J6WW8G8GLKL","ACJ6NSCIWMUZI","3SBNLSTU6UR0TCQ1NJ03LFGS7YQZDZ","","null","<img src=""img/animal2.png"" style=""width:200px; border:14px solid green;"">","null","","","",""
"","image-keyboard-response","247","140719","0.0-247.0","3MB8LZR5BGFQODD1R10J6WW8G8GLKL","ACJ6NSCIWMUZI","3SBNLSTU6UR0TCQ1NJ03LFGS7YQZDZ","","499.29999999701977","img/animal3.png","75","501.20000000298023","75","1",""
"","html-keyboard-response","248","141025","0.0-248.0","3MB8LZR5BGFQODD1R10J6WW8G8GLKL","ACJ6NSCIWMUZI","3SBNLSTU6UR0TCQ1NJ03LFGS7YQZDZ","","null","<img src=""img/animal3.png"" style=""width:200px; border:14px solid green;"">","null","","","",""
"","image-keyboard-response","249","141503","0.0-249.0","3MB8LZR5BGFQODD1R10J6WW8G8GLKL","ACJ6NSCIWMUZI","3SBNLSTU6UR0TCQ1NJ03LFGS7YQZDZ","","476.20000000298023","img/animal2.png","76","477.6000000089407","76","1",""
"","html-keyboard-response","250","141810","0.0-250.0","3MB8LZR5BGFQODD1R10J6WW8G8GLKL","ACJ6NSCIWMUZI","3SBNLSTU6UR0TCQ1NJ03LFGS7YQZDZ","","null","<img src=""img/animal2.png"" style=""width:200px; border:14px solid green;"">","null","","","",""
"","image-keyboard-response","251","142195","0.0-251.0","3MB8LZR5BGFQODD1R10J6WW8G8GLKL","ACJ6NSCIWMUZI","3SBNLSTU6UR0TCQ1NJ03LFGS7YQZDZ","","383.59999999403954","img/animal3.png","75","385","75","1",""
"","html-keyboard-response","252","142497","0.0-252.0","3MB8LZR5BGFQODD1R10J6WW8G8GLKL","ACJ6NSCIWMUZI","3SBNLSTU6UR0TCQ1NJ03LFGS7YQZDZ","","null","<img src=""img/animal3.png"" style=""width:200px; border:14px solid green;"">","null","","","",""
"","image-keyboard-response","253","143184","0.0-253.0","3MB8LZR5BGFQODD1R10J6WW8G8GLKL","ACJ6NSCIWMUZI","3SBNLSTU6UR0TCQ1NJ03LFGS7YQZDZ","","678.5999999940395","img/animal3.png","75","680.2000000029802","75","1",""
"","html-keyboard-response","254","143488","0.0-254.0","3MB8LZR5BGFQODD1R10J6WW8G8GLKL","ACJ6NSCIWMUZI","3SBNLSTU6UR0TCQ1NJ03LFGS7YQZDZ","","null","<img src=""img/animal3.png"" style=""width:200px; border:14px solid green;"">","null","","","",""
"","image-keyboard-response","255","143993","0.0-255.0","3MB8LZR5BGFQODD1R10J6WW8G8GLKL","ACJ6NSCIWMUZI","3SBNLSTU6UR0TCQ1NJ03LFGS7YQZDZ","","502.8999999910593","img/animal2.png","76","504.70000000298023","76","1",""
"","html-keyboard-response","256","144297","0.0-256.0","3MB8LZR5BGFQODD1R10J6WW8G8GLKL","ACJ6NSCIWMUZI","3SBNLSTU6UR0TCQ1NJ03LFGS7YQZDZ","","null","<img src=""img/animal2.png"" style=""width:200px; border:14px solid green;"">","null","","","",""
"","image-keyboard-response","257","144819","0.0-257.0","3MB8LZR5BGFQODD1R10J6WW8G8GLKL","ACJ6NSCIWMUZI","3SBNLSTU6UR0TCQ1NJ03LFGS7YQZDZ","","520.2000000029802","img/animal4.png","74","521.5999999940395","74","1",""
"","html-keyboard-response","258","145121","0.0-258.0","3MB8LZR5BGFQODD1R10J6WW8G8GLKL","ACJ6NSCIWMUZI","3SBNLSTU6UR0TCQ1NJ03LFGS7YQZDZ","","null","<img src=""img/animal4.png"" style=""width:200px; border:14px solid green;"">","null","","","",""
"","image-keyboard-response","259","145927","0.0-259.0","3MB8LZR5BGFQODD1R10J6WW8G8GLKL","ACJ6NSCIWMUZI","3SBNLSTU6UR0TCQ1NJ03LFGS7YQZDZ","","802.5999999940395","img/animal2.png","76","806.2000000029802","76","1",""
"","html-keyboard-response","260","146233","0.0-260.0","3MB8LZR5BGFQODD1R10J6WW8G8GLKL","ACJ6NSCIWMUZI","3SBNLSTU6UR0TCQ1NJ03LFGS7YQZDZ","","null","<img src=""img/animal2.png"" style=""width:200px; border:14px solid green;"">","null","","","",""
"","image-keyboard-response","261","146801","0.0-261.0","3MB8LZR5BGFQODD1R10J6WW8G8GLKL","ACJ6NSCIWMUZI","3SBNLSTU6UR0TCQ1NJ03LFGS7YQZDZ","","566.1000000089407","img/animal3.png","75","567.2999999970198","75","1",""
"","html-keyboard-response","262","147105","0.0-262.0","3MB8LZR5BGFQODD1R10J6WW8G8GLKL","ACJ6NSCIWMUZI","3SBNLSTU6UR0TCQ1NJ03LFGS7YQZDZ","","null","<img src=""img/animal3.png"" style=""width:200px; border:14px solid green;"">","null","","","",""
"","image-keyboard-response","263","147516","0.0-263.0","3MB8LZR5BGFQODD1R10J6WW8G8GLKL","ACJ6NSCIWMUZI","3SBNLSTU6UR0TCQ1NJ03LFGS7YQZDZ","","409.1000000089407","img/animal3.png","75","410.59999999403954","75","1",""
"","html-keyboard-response","264","147825","0.0-264.0","3MB8LZR5BGFQODD1R10J6WW8G8GLKL","ACJ6NSCIWMUZI","3SBNLSTU6UR0TCQ1NJ03LFGS7YQZDZ","","null","<img src=""img/animal3.png"" style=""width:200px; border:14px solid green;"">","null","","","",""
"","image-keyboard-response","265","148163","0.0-265.0","3MB8LZR5BGFQODD1R10J6WW8G8GLKL","ACJ6NSCIWMUZI","3SBNLSTU6UR0TCQ1NJ03LFGS7YQZDZ","","335.40000000596046","img/animal3.png","75","337","75","1",""
"","html-keyboard-response","266","148465","0.0-266.0","3MB8LZR5BGFQODD1R10J6WW8G8GLKL","ACJ6NSCIWMUZI","3SBNLSTU6UR0TCQ1NJ03LFGS7YQZDZ","","null","<img src=""img/animal3.png"" style=""width:200px; border:14px solid green;"">","null","","","",""
"","image-keyboard-response","267","148877","0.0-267.0","3MB8LZR5BGFQODD1R10J6WW8G8GLKL","ACJ6NSCIWMUZI","3SBNLSTU6UR0TCQ1NJ03LFGS7YQZDZ","","409.70000000298023","img/animal3.png","75","411.1000000089407","75","1",""
"","html-keyboard-response","268","149185","0.0-268.0","3MB8LZR5BGFQODD1R10J6WW8G8GLKL","ACJ6NSCIWMUZI","3SBNLSTU6UR0TCQ1NJ03LFGS7YQZDZ","","null","<img src=""img/animal3.png"" style=""width:200px; border:14px solid green;"">","null","","","",""
"","image-keyboard-response","269","149751","0.0-269.0","3MB8LZR5BGFQODD1R10J6WW8G8GLKL","ACJ6NSCIWMUZI","3SBNLSTU6UR0TCQ1NJ03LFGS7YQZDZ","","564.5","img/animal4.png","74","566.1000000089407","74","1",""
"","html-keyboard-response","270","150057","0.0-270.0","3MB8LZR5BGFQODD1R10J6WW8G8GLKL","ACJ6NSCIWMUZI","3SBNLSTU6UR0TCQ1NJ03LFGS7YQZDZ","","null","<img src=""img/animal4.png"" style=""width:200px; border:14px solid green;"">","null","","","",""
"","image-keyboard-response","271","150582","0.0-271.0","3MB8LZR5BGFQODD1R10J6WW8G8GLKL","ACJ6NSCIWMUZI","3SBNLSTU6UR0TCQ1NJ03LFGS7YQZDZ","","523","img/animal4.png","74","524.2999999970198","74","1",""
"","html-keyboard-response","272","150889","0.0-272.0","3MB8LZR5BGFQODD1R10J6WW8G8GLKL","ACJ6NSCIWMUZI","3SBNLSTU6UR0TCQ1NJ03LFGS7YQZDZ","","null","<img src=""img/animal4.png"" style=""width:200px; border:14px solid green;"">","null","","","",""
"","image-keyboard-response","273","151205","0.0-273.0","3MB8LZR5BGFQODD1R10J6WW8G8GLKL","ACJ6NSCIWMUZI","3SBNLSTU6UR0TCQ1NJ03LFGS7YQZDZ","","314.6000000089407","img/animal4.png","74","315.79999999701977","74","1",""
"","html-keyboard-response","274","151513","0.0-274.0","3MB8LZR5BGFQODD1R10J6WW8G8GLKL","ACJ6NSCIWMUZI","3SBNLSTU6UR0TCQ1NJ03LFGS7YQZDZ","","null","<img src=""img/animal4.png"" style=""width:200px; border:14px solid green;"">","null","","","",""
"","image-keyboard-response","275","152174","0.0-275.0","3MB8LZR5BGFQODD1R10J6WW8G8GLKL","ACJ6NSCIWMUZI","3SBNLSTU6UR0TCQ1NJ03LFGS7YQZDZ","","658.5999999940395","img/animal3.png","75","660","75","1",""
"","html-keyboard-response","276","152482","0.0-276.0","3MB8LZR5BGFQODD1R10J6WW8G8GLKL","ACJ6NSCIWMUZI","3SBNLSTU6UR0TCQ1NJ03LFGS7YQZDZ","","null","<img src=""img/animal3.png"" style=""width:200px; border:14px solid green;"">","null","","","",""
"","image-keyboard-response","277","152843","0.0-277.0","3MB8LZR5BGFQODD1R10J6WW8G8GLKL","ACJ6NSCIWMUZI","3SBNLSTU6UR0TCQ1NJ03LFGS7YQZDZ","","360.09999999403954","img/animal3.png","75","361.59999999403954","75","1",""
"","html-keyboard-response","278","153153","0.0-278.0","3MB8LZR5BGFQODD1R10J6WW8G8GLKL","ACJ6NSCIWMUZI","3SBNLSTU6UR0TCQ1NJ03LFGS7YQZDZ","","null","<img src=""img/animal3.png"" style=""width:200px; border:14px solid green;"">","null","","","",""
"","image-keyboard-response","279","153605","0.0-279.0","3MB8LZR5BGFQODD1R10J6WW8G8GLKL","ACJ6NSCIWMUZI","3SBNLSTU6UR0TCQ1NJ03LFGS7YQZDZ","","450.5","img/animal2.png","76","451.79999999701977","76","1",""
"","html-keyboard-response","280","153913","0.0-280.0","3MB8LZR5BGFQODD1R10J6WW8G8GLKL","ACJ6NSCIWMUZI","3SBNLSTU6UR0TCQ1NJ03LFGS7YQZDZ","","null","<img src=""img/animal2.png"" style=""width:200px; border:14px solid green;"">","null","","","",""
"","image-keyboard-response","281","154615","0.0-281.0","3MB8LZR5BGFQODD1R10J6WW8G8GLKL","ACJ6NSCIWMUZI","3SBNLSTU6UR0TCQ1NJ03LFGS7YQZDZ","","700.7000000029802","img/animal4.png","74","702","74","1",""
"","html-keyboard-response","282","154921","0.0-282.0","3MB8LZR5BGFQODD1R10J6WW8G8GLKL","ACJ6NSCIWMUZI","3SBNLSTU6UR0TCQ1NJ03LFGS7YQZDZ","","null","<img src=""img/animal4.png"" style=""width:200px; border:14px solid green;"">","null","","","",""
"","image-keyboard-response","283","155378","0.0-283.0","3MB8LZR5BGFQODD1R10J6WW8G8GLKL","ACJ6NSCIWMUZI","3SBNLSTU6UR0TCQ1NJ03LFGS7YQZDZ","","455.1000000089407","img/animal4.png","74","456.40000000596046","74","1",""
"","html-keyboard-response","284","155682","0.0-284.0","3MB8LZR5BGFQODD1R10J6WW8G8GLKL","ACJ6NSCIWMUZI","3SBNLSTU6UR0TCQ1NJ03LFGS7YQZDZ","","null","<img src=""img/animal4.png"" style=""width:200px; border:14px solid green;"">","null","","","",""
"","image-keyboard-response","285","156047","0.0-285.0","3MB8LZR5BGFQODD1R10J6WW8G8GLKL","ACJ6NSCIWMUZI","3SBNLSTU6UR0TCQ1NJ03LFGS7YQZDZ","","363.20000000298023","img/animal4.png","74","364.8999999910593","74","1",""
"","html-keyboard-response","286","156353","0.0-286.0","3MB8LZR5BGFQODD1R10J6WW8G8GLKL","ACJ6NSCIWMUZI","3SBNLSTU6UR0TCQ1NJ03LFGS7YQZDZ","","null","<img src=""img/animal4.png"" style=""width:200px; border:14px solid green;"">","null","","","",""
"","image-keyboard-response","287","156945","0.0-287.0","3MB8LZR5BGFQODD1R10J6WW8G8GLKL","ACJ6NSCIWMUZI","3SBNLSTU6UR0TCQ1NJ03LFGS7YQZDZ","","590.2000000029802","img/animal2.png","75","591.5","75","0",""
"","html-keyboard-response","288","157249","0.0-288.0","3MB8LZR5BGFQODD1R10J6WW8G8GLKL","ACJ6NSCIWMUZI","3SBNLSTU6UR0TCQ1NJ03LFGS7YQZDZ","","null","<img src=""img/animal2.png"" style=""width:200px;border:14px solid red;"">","null","","","",""
"","image-keyboard-response","289","157549","0.0-289.0","3MB8LZR5BGFQODD1R10J6WW8G8GLKL","ACJ6NSCIWMUZI","3SBNLSTU6UR0TCQ1NJ03LFGS7YQZDZ","","298.19999998807907","img/animal2.png","76","299.59999999403954","76","1",""
"","html-keyboard-response","290","157858","0.0-290.0","3MB8LZR5BGFQODD1R10J6WW8G8GLKL","ACJ6NSCIWMUZI","3SBNLSTU6UR0TCQ1NJ03LFGS7YQZDZ","","null","<img src=""img/animal2.png"" style=""width:200px; border:14px solid green;"">","null","","","",""
"","image-keyboard-response","291","158287","0.0-291.0","3MB8LZR5BGFQODD1R10J6WW8G8GLKL","ACJ6NSCIWMUZI","3SBNLSTU6UR0TCQ1NJ03LFGS7YQZDZ","","427.29999999701977","img/animal2.png","76","429","76","1",""
"","html-keyboard-response","292","158594","0.0-292.0","3MB8LZR5BGFQODD1R10J6WW8G8GLKL","ACJ6NSCIWMUZI","3SBNLSTU6UR0TCQ1NJ03LFGS7YQZDZ","","null","<img src=""img/animal2.png"" style=""width:200px; border:14px solid green;"">","null","","","",""
"","image-keyboard-response","293","159092","0.0-293.0","3MB8LZR5BGFQODD1R10J6WW8G8GLKL","ACJ6NSCIWMUZI","3SBNLSTU6UR0TCQ1NJ03LFGS7YQZDZ","","496.79999999701977","img/animal3.png","75","498.20000000298023","75","1",""
"","html-keyboard-response","294","159401","0.0-294.0","3MB8LZR5BGFQODD1R10J6WW8G8GLKL","ACJ6NSCIWMUZI","3SBNLSTU6UR0TCQ1NJ03LFGS7YQZDZ","","null","<img src=""img/animal3.png"" style=""width:200px; border:14px solid green;"">","null","","","",""
"","image-keyboard-response","295","159716","0.0-295.0","3MB8LZR5BGFQODD1R10J6WW8G8GLKL","ACJ6NSCIWMUZI","3SBNLSTU6UR0TCQ1NJ03LFGS7YQZDZ","","313.5","img/animal2.png","75","314.90000000596046","75","0",""
"","html-keyboard-response","296","160026","0.0-296.0","3MB8LZR5BGFQODD1R10J6WW8G8GLKL","ACJ6NSCIWMUZI","3SBNLSTU6UR0TCQ1NJ03LFGS7YQZDZ","","null","<img src=""img/animal2.png"" style=""width:200px;border:14px solid red;"">","null","","","",""
"","image-keyboard-response","297","160665","0.0-297.0","3MB8LZR5BGFQODD1R10J6WW8G8GLKL","ACJ6NSCIWMUZI","3SBNLSTU6UR0TCQ1NJ03LFGS7YQZDZ","","638.2000000029802","img/animal4.png","74","639.5999999940395","74","1",""
"","html-keyboard-response","298","160969","0.0-298.0","3MB8LZR5BGFQODD1R10J6WW8G8GLKL","ACJ6NSCIWMUZI","3SBNLSTU6UR0TCQ1NJ03LFGS7YQZDZ","","null","<img src=""img/animal4.png"" style=""width:200px; border:14px solid green;"">","null","","","",""
"","image-keyboard-response","299","161656","0.0-299.0","3MB8LZR5BGFQODD1R10J6WW8G8GLKL","ACJ6NSCIWMUZI","3SBNLSTU6UR0TCQ1NJ03LFGS7YQZDZ","","685.7999999970198","img/animal3.png","75","687.2000000029802","75","1",""
"","html-keyboard-response","300","161962","0.0-300.0","3MB8LZR5BGFQODD1R10J6WW8G8GLKL","ACJ6NSCIWMUZI","3SBNLSTU6UR0TCQ1NJ03LFGS7YQZDZ","","null","<img src=""img/animal3.png"" style=""width:200px; border:14px solid green;"">","null","","","",""
"","image-keyboard-response","301","162647","0.0-301.0","3MB8LZR5BGFQODD1R10J6WW8G8GLKL","ACJ6NSCIWMUZI","3SBNLSTU6UR0TCQ1NJ03LFGS7YQZDZ","","683.5","img/animal3.png","75","684.9000000059605","75","1",""
"","html-keyboard-response","302","162950","0.0-302.0","3MB8LZR5BGFQODD1R10J6WW8G8GLKL","ACJ6NSCIWMUZI","3SBNLSTU6UR0TCQ1NJ03LFGS7YQZDZ","","null","<img src=""img/animal3.png"" style=""width:200px; border:14px solid green;"">","null","","","",""
"","image-keyboard-response","303","163430","0.0-303.0","3MB8LZR5BGFQODD1R10J6WW8G8GLKL","ACJ6NSCIWMUZI","3SBNLSTU6UR0TCQ1NJ03LFGS7YQZDZ","","479.19999998807907","img/animal3.png","75","480.5","75","1",""
"","html-keyboard-response","304","163737","0.0-304.0","3MB8LZR5BGFQODD1R10J6WW8G8GLKL","ACJ6NSCIWMUZI","3SBNLSTU6UR0TCQ1NJ03LFGS7YQZDZ","","null","<img src=""img/animal3.png"" style=""width:200px; border:14px solid green;"">","null","","","",""
"","image-keyboard-response","305","164101","0.0-305.0","3MB8LZR5BGFQODD1R10J6WW8G8GLKL","ACJ6NSCIWMUZI","3SBNLSTU6UR0TCQ1NJ03LFGS7YQZDZ","","361.6000000089407","img/animal3.png","75","362.90000000596046","75","1",""
"","html-keyboard-response","306","164409","0.0-306.0","3MB8LZR5BGFQODD1R10J6WW8G8GLKL","ACJ6NSCIWMUZI","3SBNLSTU6UR0TCQ1NJ03LFGS7YQZDZ","","null","<img src=""img/animal3.png"" style=""width:200px; border:14px solid green;"">","null","","","",""
"","image-keyboard-response","307","165045","0.0-307.0","3MB8LZR5BGFQODD1R10J6WW8G8GLKL","ACJ6NSCIWMUZI","3SBNLSTU6UR0TCQ1NJ03LFGS7YQZDZ","","634.5","img/animal2.png","76","635.9000000059605","76","1",""
"","html-keyboard-response","308","165354","0.0-308.0","3MB8LZR5BGFQODD1R10J6WW8G8GLKL","ACJ6NSCIWMUZI","3SBNLSTU6UR0TCQ1NJ03LFGS7YQZDZ","","null","<img src=""img/animal2.png"" style=""width:200px; border:14px solid green;"">","null","","","",""
"","image-keyboard-response","309","165738","0.0-309.0","3MB8LZR5BGFQODD1R10J6WW8G8GLKL","ACJ6NSCIWMUZI","3SBNLSTU6UR0TCQ1NJ03LFGS7YQZDZ","","382.5","img/animal2.png","76","383.90000000596046","76","1",""
"","html-keyboard-response","310","166041","0.0-310.0","3MB8LZR5BGFQODD1R10J6WW8G8GLKL","ACJ6NSCIWMUZI","3SBNLSTU6UR0TCQ1NJ03LFGS7YQZDZ","","null","<img src=""img/animal2.png"" style=""width:200px; border:14px solid green;"">","null","","","",""
"","image-keyboard-response","311","166407","0.0-311.0","3MB8LZR5BGFQODD1R10J6WW8G8GLKL","ACJ6NSCIWMUZI","3SBNLSTU6UR0TCQ1NJ03LFGS7YQZDZ","","364.59999999403954","img/animal2.png","76","365.8999999910593","76","1",""
"","html-keyboard-response","312","166713","0.0-312.0","3MB8LZR5BGFQODD1R10J6WW8G8GLKL","ACJ6NSCIWMUZI","3SBNLSTU6UR0TCQ1NJ03LFGS7YQZDZ","","null","<img src=""img/animal2.png"" style=""width:200px; border:14px solid green;"">","null","","","",""
"","image-keyboard-response","313","167031","0.0-313.0","3MB8LZR5BGFQODD1R10J6WW8G8GLKL","ACJ6NSCIWMUZI","3SBNLSTU6UR0TCQ1NJ03LFGS7YQZDZ","","316.5","img/animal2.png","76","317.90000000596046","76","1",""
"","html-keyboard-response","314","167339","0.0-314.0","3MB8LZR5BGFQODD1R10J6WW8G8GLKL","ACJ6NSCIWMUZI","3SBNLSTU6UR0TCQ1NJ03LFGS7YQZDZ","","null","<img src=""img/animal2.png"" style=""width:200px; border:14px solid green;"">","null","","","",""
"","image-keyboard-response","315","167679","0.0-315.0","3MB8LZR5BGFQODD1R10J6WW8G8GLKL","ACJ6NSCIWMUZI","3SBNLSTU6UR0TCQ1NJ03LFGS7YQZDZ","","339.09999999403954","img/animal2.png","76","340.5","76","1",""
"","html-keyboard-response","316","167985","0.0-316.0","3MB8LZR5BGFQODD1R10J6WW8G8GLKL","ACJ6NSCIWMUZI","3SBNLSTU6UR0TCQ1NJ03LFGS7YQZDZ","","null","<img src=""img/animal2.png"" style=""width:200px; border:14px solid green;"">","null","","","",""
"","image-keyboard-response","317","168713","0.0-317.0","3MB8LZR5BGFQODD1R10J6WW8G8GLKL","ACJ6NSCIWMUZI","3SBNLSTU6UR0TCQ1NJ03LFGS7YQZDZ","","726.2000000029802","img/animal3.png","75","727.5999999940395","75","1",""
"","html-keyboard-response","318","169017","0.0-318.0","3MB8LZR5BGFQODD1R10J6WW8G8GLKL","ACJ6NSCIWMUZI","3SBNLSTU6UR0TCQ1NJ03LFGS7YQZDZ","","null","<img src=""img/animal3.png"" style=""width:200px; border:14px solid green;"">","null","","","",""
"","image-keyboard-response","319","169176","0.0-319.0","3MB8LZR5BGFQODD1R10J6WW8G8GLKL","ACJ6NSCIWMUZI","3SBNLSTU6UR0TCQ1NJ03LFGS7YQZDZ","","157.29999999701977","img/animal4.png","75","158.79999999701977","75","0",""
"","html-keyboard-response","320","169481","0.0-320.0","3MB8LZR5BGFQODD1R10J6WW8G8GLKL","ACJ6NSCIWMUZI","3SBNLSTU6UR0TCQ1NJ03LFGS7YQZDZ","","null","<img src=""img/animal4.png"" style=""width:200px;border:14px solid red;"">","null","","","",""
"","image-keyboard-response","321","169707","0.0-321.0","3MB8LZR5BGFQODD1R10J6WW8G8GLKL","ACJ6NSCIWMUZI","3SBNLSTU6UR0TCQ1NJ03LFGS7YQZDZ","","224.3999999910593","img/animal4.png","74","225.70000000298023","74","1",""
"","html-keyboard-response","322","170017","0.0-322.0","3MB8LZR5BGFQODD1R10J6WW8G8GLKL","ACJ6NSCIWMUZI","3SBNLSTU6UR0TCQ1NJ03LFGS7YQZDZ","","null","<img src=""img/animal4.png"" style=""width:200px; border:14px solid green;"">","null","","","",""
"","image-keyboard-response","323","170172","0.0-323.0","3MB8LZR5BGFQODD1R10J6WW8G8GLKL","ACJ6NSCIWMUZI","3SBNLSTU6UR0TCQ1NJ03LFGS7YQZDZ","","153.09999999403954","img/animal4.png","74","154.59999999403954","74","1",""
"","html-keyboard-response","324","170481","0.0-324.0","3MB8LZR5BGFQODD1R10J6WW8G8GLKL","ACJ6NSCIWMUZI","3SBNLSTU6UR0TCQ1NJ03LFGS7YQZDZ","","null","<img src=""img/animal4.png"" style=""width:200px; border:14px solid green;"">","null","","","",""
"","image-keyboard-response","325","170704","0.0-325.0","3MB8LZR5BGFQODD1R10J6WW8G8GLKL","ACJ6NSCIWMUZI","3SBNLSTU6UR0TCQ1NJ03LFGS7YQZDZ","","220.70000000298023","img/animal4.png","74","222.20000000298023","74","1",""
"","html-keyboard-response","326","171009","0.0-326.0","3MB8LZR5BGFQODD1R10J6WW8G8GLKL","ACJ6NSCIWMUZI","3SBNLSTU6UR0TCQ1NJ03LFGS7YQZDZ","","null","<img src=""img/animal4.png"" style=""width:200px; border:14px solid green;"">","null","","","",""
"","image-keyboard-response","327","171488","0.0-327.0","3MB8LZR5BGFQODD1R10J6WW8G8GLKL","ACJ6NSCIWMUZI","3SBNLSTU6UR0TCQ1NJ03LFGS7YQZDZ","","477.30000001192093","img/animal3.png","75","479.20000000298023","75","1",""
"","html-keyboard-response","328","171794","0.0-328.0","3MB8LZR5BGFQODD1R10J6WW8G8GLKL","ACJ6NSCIWMUZI","3SBNLSTU6UR0TCQ1NJ03LFGS7YQZDZ","","null","<img src=""img/animal3.png"" style=""width:200px; border:14px solid green;"">","null","","","",""
"","image-keyboard-response","329","172159","0.0-329.0","3MB8LZR5BGFQODD1R10J6WW8G8GLKL","ACJ6NSCIWMUZI","3SBNLSTU6UR0TCQ1NJ03LFGS7YQZDZ","","363.3999999910593","img/animal3.png","75","364.70000000298023","75","1",""
"","html-keyboard-response","330","172465","0.0-330.0","3MB8LZR5BGFQODD1R10J6WW8G8GLKL","ACJ6NSCIWMUZI","3SBNLSTU6UR0TCQ1NJ03LFGS7YQZDZ","","null","<img src=""img/animal3.png"" style=""width:200px; border:14px solid green;"">","null","","","",""
"","image-keyboard-response","331","172828","0.0-331.0","3MB8LZR5BGFQODD1R10J6WW8G8GLKL","ACJ6NSCIWMUZI","3SBNLSTU6UR0TCQ1NJ03LFGS7YQZDZ","","360","img/animal3.png","75","362.5","75","1",""
"","html-keyboard-response","332","173137","0.0-332.0","3MB8LZR5BGFQODD1R10J6WW8G8GLKL","ACJ6NSCIWMUZI","3SBNLSTU6UR0TCQ1NJ03LFGS7YQZDZ","","null","<img src=""img/animal3.png"" style=""width:200px; border:14px solid green;"">","null","","","",""
"","image-keyboard-response","333","173794","0.0-333.0","3MB8LZR5BGFQODD1R10J6WW8G8GLKL","ACJ6NSCIWMUZI","3SBNLSTU6UR0TCQ1NJ03LFGS7YQZDZ","","655.0999999940395","img/animal4.png","74","656.9000000059605","74","1",""
"","html-keyboard-response","334","174099","0.0-334.0","3MB8LZR5BGFQODD1R10J6WW8G8GLKL","ACJ6NSCIWMUZI","3SBNLSTU6UR0TCQ1NJ03LFGS7YQZDZ","","null","<img src=""img/animal4.png"" style=""width:200px; border:14px solid green;"">","null","","","",""
"","image-keyboard-response","335","174395","0.0-335.0","3MB8LZR5BGFQODD1R10J6WW8G8GLKL","ACJ6NSCIWMUZI","3SBNLSTU6UR0TCQ1NJ03LFGS7YQZDZ","","294.40000000596046","img/animal3.png","74","296","74","0",""
"","html-keyboard-response","336","174698","0.0-336.0","3MB8LZR5BGFQODD1R10J6WW8G8GLKL","ACJ6NSCIWMUZI","3SBNLSTU6UR0TCQ1NJ03LFGS7YQZDZ","","null","<img src=""img/animal3.png"" style=""width:200px;border:14px solid red;"">","null","","","",""
"","image-keyboard-response","337","175414","0.0-337.0","3MB8LZR5BGFQODD1R10J6WW8G8GLKL","ACJ6NSCIWMUZI","3SBNLSTU6UR0TCQ1NJ03LFGS7YQZDZ","","714.9000000059605","img/animal4.png","74","716.3000000119209","74","1",""
"","html-keyboard-response","338","175722","0.0-338.0","3MB8LZR5BGFQODD1R10J6WW8G8GLKL","ACJ6NSCIWMUZI","3SBNLSTU6UR0TCQ1NJ03LFGS7YQZDZ","","null","<img src=""img/animal4.png"" style=""width:200px; border:14px solid green;"">","null","","","",""
"","image-keyboard-response","339","176407","0.0-339.0","3MB8LZR5BGFQODD1R10J6WW8G8GLKL","ACJ6NSCIWMUZI","3SBNLSTU6UR0TCQ1NJ03LFGS7YQZDZ","","683.1999999880791","img/animal2.png","76","684.7000000029802","76","1",""
"","html-keyboard-response","340","176714","0.0-340.0","3MB8LZR5BGFQODD1R10J6WW8G8GLKL","ACJ6NSCIWMUZI","3SBNLSTU6UR0TCQ1NJ03LFGS7YQZDZ","","null","<img src=""img/animal2.png"" style=""width:200px; border:14px solid green;"">","null","","","",""
"","image-keyboard-response","341","177257","0.0-341.0","3MB8LZR5BGFQODD1R10J6WW8G8GLKL","ACJ6NSCIWMUZI","3SBNLSTU6UR0TCQ1NJ03LFGS7YQZDZ","","541.7000000029802","img/animal4.png","74","543.1999999880791","74","1",""
"","html-keyboard-response","342","177562","0.0-342.0","3MB8LZR5BGFQODD1R10J6WW8G8GLKL","ACJ6NSCIWMUZI","3SBNLSTU6UR0TCQ1NJ03LFGS7YQZDZ","","null","<img src=""img/animal4.png"" style=""width:200px; border:14px solid green;"">","null","","","",""
"","image-keyboard-response","343","178202","0.0-343.0","3MB8LZR5BGFQODD1R10J6WW8G8GLKL","ACJ6NSCIWMUZI","3SBNLSTU6UR0TCQ1NJ03LFGS7YQZDZ","","639.2999999970198","img/animal3.png","75","640.6999999880791","75","1",""
"","html-keyboard-response","344","178505","0.0-344.0","3MB8LZR5BGFQODD1R10J6WW8G8GLKL","ACJ6NSCIWMUZI","3SBNLSTU6UR0TCQ1NJ03LFGS7YQZDZ","","null","<img src=""img/animal3.png"" style=""width:200px; border:14px solid green;"">","null","","","",""
"","image-keyboard-response","345","179304","0.0-345.0","3MB8LZR5BGFQODD1R10J6WW8G8GLKL","ACJ6NSCIWMUZI","3SBNLSTU6UR0TCQ1NJ03LFGS7YQZDZ","","796.7999999970198","img/animal4.png","74","799","74","1",""
"","html-keyboard-response","346","179609","0.0-346.0","3MB8LZR5BGFQODD1R10J6WW8G8GLKL","ACJ6NSCIWMUZI","3SBNLSTU6UR0TCQ1NJ03LFGS7YQZDZ","","null","<img src=""img/animal4.png"" style=""width:200px; border:14px solid green;"">","null","","","",""
"","image-keyboard-response","347","180320","0.0-347.0","3MB8LZR5BGFQODD1R10J6WW8G8GLKL","ACJ6NSCIWMUZI","3SBNLSTU6UR0TCQ1NJ03LFGS7YQZDZ","","709.3999999910593","img/animal2.png","76","711.1000000089407","76","1",""
"","html-keyboard-response","348","180625","0.0-348.0","3MB8LZR5BGFQODD1R10J6WW8G8GLKL","ACJ6NSCIWMUZI","3SBNLSTU6UR0TCQ1NJ03LFGS7YQZDZ","","null","<img src=""img/animal2.png"" style=""width:200px; border:14px solid green;"">","null","","","",""
"","image-keyboard-response","349","181238","0.0-349.0","3MB8LZR5BGFQODD1R10J6WW8G8GLKL","ACJ6NSCIWMUZI","3SBNLSTU6UR0TCQ1NJ03LFGS7YQZDZ","","611","img/animal4.png","74","612.8000000119209","74","1",""
"","html-keyboard-response","350","181545","0.0-350.0","3MB8LZR5BGFQODD1R10J6WW8G8GLKL","ACJ6NSCIWMUZI","3SBNLSTU6UR0TCQ1NJ03LFGS7YQZDZ","","null","<img src=""img/animal4.png"" style=""width:200px; border:14px solid green;"">","null","","","",""
"","image-keyboard-response","351","182276","0.0-351.0","3MB8LZR5BGFQODD1R10J6WW8G8GLKL","ACJ6NSCIWMUZI","3SBNLSTU6UR0TCQ1NJ03LFGS7YQZDZ","","729.0999999940395","img/animal2.png","76","730.5999999940395","76","1",""
"","html-keyboard-response","352","182585","0.0-352.0","3MB8LZR5BGFQODD1R10J6WW8G8GLKL","ACJ6NSCIWMUZI","3SBNLSTU6UR0TCQ1NJ03LFGS7YQZDZ","","null","<img src=""img/animal2.png"" style=""width:200px; border:14px solid green;"">","null","","","",""
"","image-keyboard-response","353","183014","0.0-353.0","3MB8LZR5BGFQODD1R10J6WW8G8GLKL","ACJ6NSCIWMUZI","3SBNLSTU6UR0TCQ1NJ03LFGS7YQZDZ","","427.20000000298023","img/animal2.png","76","428.59999999403954","76","1",""
"","html-keyboard-response","354","183320","0.0-354.0","3MB8LZR5BGFQODD1R10J6WW8G8GLKL","ACJ6NSCIWMUZI","3SBNLSTU6UR0TCQ1NJ03LFGS7YQZDZ","","null","<img src=""img/animal2.png"" style=""width:200px; border:14px solid green;"">","null","","","",""
"","image-keyboard-response","355","183684","0.0-355.0","3MB8LZR5BGFQODD1R10J6WW8G8GLKL","ACJ6NSCIWMUZI","3SBNLSTU6UR0TCQ1NJ03LFGS7YQZDZ","","362.59999999403954","img/animal2.png","76","363.79999999701977","76","1",""
"","html-keyboard-response","356","183987","0.0-356.0","3MB8LZR5BGFQODD1R10J6WW8G8GLKL","ACJ6NSCIWMUZI","3SBNLSTU6UR0TCQ1NJ03LFGS7YQZDZ","","null","<img src=""img/animal2.png"" style=""width:200px; border:14px solid green;"">","null","","","",""
"","image-keyboard-response","357","184786","0.0-357.0","3MB8LZR5BGFQODD1R10J6WW8G8GLKL","ACJ6NSCIWMUZI","3SBNLSTU6UR0TCQ1NJ03LFGS7YQZDZ","","796.7999999970198","img/animal4.png","74","798.2000000029802","74","1",""
"","html-keyboard-response","358","185089","0.0-358.0","3MB8LZR5BGFQODD1R10J6WW8G8GLKL","ACJ6NSCIWMUZI","3SBNLSTU6UR0TCQ1NJ03LFGS7YQZDZ","","null","<img src=""img/animal4.png"" style=""width:200px; border:14px solid green;"">","null","","","",""
"","image-keyboard-response","359","185663","0.0-359.0","3MB8LZR5BGFQODD1R10J6WW8G8GLKL","ACJ6NSCIWMUZI","3SBNLSTU6UR0TCQ1NJ03LFGS7YQZDZ","","571.1000000089407","img/animal2.png","76","573.5","76","1",""
"","html-keyboard-response","360","185969","0.0-360.0","3MB8LZR5BGFQODD1R10J6WW8G8GLKL","ACJ6NSCIWMUZI","3SBNLSTU6UR0TCQ1NJ03LFGS7YQZDZ","","null","<img src=""img/animal2.png"" style=""width:200px; border:14px solid green;"">","null","","","",""
"","image-keyboard-response","361","186514","0.0-361.0","3MB8LZR5BGFQODD1R10J6WW8G8GLKL","ACJ6NSCIWMUZI","3SBNLSTU6UR0TCQ1NJ03LFGS7YQZDZ","","542.6000000089407","img/animal3.png","75","544.0999999940395","75","1",""
"","html-keyboard-response","362","186817","0.0-362.0","3MB8LZR5BGFQODD1R10J6WW8G8GLKL","ACJ6NSCIWMUZI","3SBNLSTU6UR0TCQ1NJ03LFGS7YQZDZ","","null","<img src=""img/animal3.png"" style=""width:200px; border:14px solid green;"">","null","","","",""
"","instructions","363","188329","0.0-363.0","3MB8LZR5BGFQODD1R10J6WW8G8GLKL","ACJ6NSCIWMUZI","3SBNLSTU6UR0TCQ1NJ03LFGS7YQZDZ","[{""page_index"":0,""viewing_time"":1509.7999999970198}]","1511","","","","","",""
"","survey-text","364","192573","0.0-364.0","3MB8LZR5BGFQODD1R10J6WW8G8GLKL","ACJ6NSCIWMUZI","3SBNLSTU6UR0TCQ1NJ03LFGS7YQZDZ","","4236.5","","","","","","{""Q0"":""ACJ6NSCIWMUZI""}"
