"success","trial_type","trial_index","time_elapsed","internal_node_id","assignmentID","mturkID","hitID","view_history","rt","stimulus","key_press","reactionTime","a","r","s","reward_cond","responses"
"true","fullscreen","0","2556","0.0-0.0","3AWETUDC93EJN74H6Z6G1VST4VOIZG","ACSS93E03ZUGX","3A3KKYU7P33Z3BR9PPFZ5194ZCQMWU","","","","","","","","","",""
"","instructions","1","24573","0.0-1.0","3AWETUDC93EJN74H6Z6G1VST4VOIZG","ACSS93E03ZUGX","3A3KKYU7P33Z3BR9PPFZ5194ZCQMWU","[{""page_index"":0,""viewing_time"":8259.10000000149},{""page_index"":1,""viewing_time"":2395.199999999255},{""page_index"":2,""viewing_time"":986.8999999985099},{""page_index"":3,""viewing_time"":3710.10000000149},{""page_index"":4,""viewing_time"":2602.89999999851},{""page_index"":5,""viewing_time"":1530.6000000014901},{""page_index"":6,""viewing_time"":1560.0999999977648},{""page_index"":7,""viewing_time"":962.7000000029802}]","22010.699999999255","","","","","","","",""
"","image-keyboard-response","2","26896","0.0-2.0","3AWETUDC93EJN74H6Z6G1VST4VOIZG","ACSS93E03ZUGX","3A3KKYU7P33Z3BR9PPFZ5194ZCQMWU","","2315.800000000745","img/animal1.png","74","2322","1","0","2","1,0.5,0,0,1,0.5,0.5,0,1",""
"","html-keyboard-response","3","27203","0.0-3.0","3AWETUDC93EJN74H6Z6G1VST4VOIZG","ACSS93E03ZUGX","3A3KKYU7P33Z3BR9PPFZ5194ZCQMWU","","null","<img src=""img/animal1.png"" style=""width:200px;border:14px solid red;"">","null","","","","","",""
"","image-keyboard-response","4","27929","0.0-4.0","3AWETUDC93EJN74H6Z6G1VST4VOIZG","ACSS93E03ZUGX","3A3KKYU7P33Z3BR9PPFZ5194ZCQMWU","","721","img/animal4.png","74","724.8999999985099","1","1","1","1,0.5,0,0,1,0.5,0.5,0,1",""
"","html-keyboard-response","5","28235","0.0-5.0","3AWETUDC93EJN74H6Z6G1VST4VOIZG","ACSS93E03ZUGX","3A3KKYU7P33Z3BR9PPFZ5194ZCQMWU","","null","<img src=""img/animal4.png"" style=""width:200px; border:14px solid green;"">","null","","","","","",""
"","image-keyboard-response","6","29864","0.0-6.0","3AWETUDC93EJN74H6Z6G1VST4VOIZG","ACSS93E03ZUGX","3A3KKYU7P33Z3BR9PPFZ5194ZCQMWU","","1624.3999999985099","img/animal3.png","75","1628","2","0","3","1,0.5,0,0,1,0.5,0.5,0,1",""
"","html-keyboard-response","7","30173","0.0-7.0","3AWETUDC93EJN74H6Z6G1VST4VOIZG","ACSS93E03ZUGX","3A3KKYU7P33Z3BR9PPFZ5194ZCQMWU","","null","<img src=""img/animal3.png"" style=""width:200px;border:14px solid red;"">","null","","","","","",""
"","image-keyboard-response","8","31208","0.0-8.0","3AWETUDC93EJN74H6Z6G1VST4VOIZG","ACSS93E03ZUGX","3A3KKYU7P33Z3BR9PPFZ5194ZCQMWU","","1030.300000000745","img/animal1.png","74","1034.300000000745","1","0","2","1,0.5,0,0,1,0.5,0.5,0,1",""
"","html-keyboard-response","9","31516","0.0-9.0","3AWETUDC93EJN74H6Z6G1VST4VOIZG","ACSS93E03ZUGX","3A3KKYU7P33Z3BR9PPFZ5194ZCQMWU","","null","<img src=""img/animal1.png"" style=""width:200px;border:14px solid red;"">","null","","","","","",""
"","image-keyboard-response","10","35903","0.0-10.0","3AWETUDC93EJN74H6Z6G1VST4VOIZG","ACSS93E03ZUGX","3A3KKYU7P33Z3BR9PPFZ5194ZCQMWU","","4383.5","img/animal1.png","76","4387","3","0","2","1,0.5,0,0,1,0.5,0.5,0,1",""
"","html-keyboard-response","11","36211","0.0-11.0","3AWETUDC93EJN74H6Z6G1VST4VOIZG","ACSS93E03ZUGX","3A3KKYU7P33Z3BR9PPFZ5194ZCQMWU","","null","<img src=""img/animal1.png"" style=""width:200px;border:14px solid red;"">","null","","","","","",""
"","image-keyboard-response","12","37422","0.0-12.0","3AWETUDC93EJN74H6Z6G1VST4VOIZG","ACSS93E03ZUGX","3A3KKYU7P33Z3BR9PPFZ5194ZCQMWU","","1207.7999999970198","img/animal1.png","74","1210.4000000022352","1","0","2","1,0.5,0,0,1,0.5,0.5,0,1",""
"","html-keyboard-response","13","37731","0.0-13.0","3AWETUDC93EJN74H6Z6G1VST4VOIZG","ACSS93E03ZUGX","3A3KKYU7P33Z3BR9PPFZ5194ZCQMWU","","null","<img src=""img/animal1.png"" style=""width:200px;border:14px solid red;"">","null","","","","","",""
"","image-keyboard-response","14","38576","0.0-14.0","3AWETUDC93EJN74H6Z6G1VST4VOIZG","ACSS93E03ZUGX","3A3KKYU7P33Z3BR9PPFZ5194ZCQMWU","","841","img/animal3.png","74","844","1","1","3","1,0.5,0,0,1,0.5,0.5,0,1",""
"","html-keyboard-response","15","38883","0.0-15.0","3AWETUDC93EJN74H6Z6G1VST4VOIZG","ACSS93E03ZUGX","3A3KKYU7P33Z3BR9PPFZ5194ZCQMWU","","null","<img src=""img/animal3.png"" style=""width:200px; border:14px solid green;"">","null","","","","","",""
"","image-keyboard-response","16","40728","0.0-16.0","3AWETUDC93EJN74H6Z6G1VST4VOIZG","ACSS93E03ZUGX","3A3KKYU7P33Z3BR9PPFZ5194ZCQMWU","","1840.9000000022352","img/animal3.png","74","1844.5999999977648","1","0","3","1,0.5,0,0,1,0.5,0.5,0,1",""
"","html-keyboard-response","17","41035","0.0-17.0","3AWETUDC93EJN74H6Z6G1VST4VOIZG","ACSS93E03ZUGX","3A3KKYU7P33Z3BR9PPFZ5194ZCQMWU","","null","<img src=""img/animal3.png"" style=""width:200px;border:14px solid red;"">","null","","","","","",""
"","image-keyboard-response","18","42026","0.0-18.0","3AWETUDC93EJN74H6Z6G1VST4VOIZG","ACSS93E03ZUGX","3A3KKYU7P33Z3BR9PPFZ5194ZCQMWU","","987.3999999985099","img/animal1.png","75","991.1000000014901","2","1","2","1,0.5,0,0,1,0.5,0.5,0,1",""
"","html-keyboard-response","19","42339","0.0-19.0","3AWETUDC93EJN74H6Z6G1VST4VOIZG","ACSS93E03ZUGX","3A3KKYU7P33Z3BR9PPFZ5194ZCQMWU","","null","<img src=""img/animal1.png"" style=""width:200px; border:14px solid green;"">","null","","","","","",""
"","image-keyboard-response","20","43156","0.0-20.0","3AWETUDC93EJN74H6Z6G1VST4VOIZG","ACSS93E03ZUGX","3A3KKYU7P33Z3BR9PPFZ5194ZCQMWU","","813.8000000007451","img/animal3.png","74","816.6999999992549","1","0","3","1,0.5,0,0,1,0.5,0.5,0,1",""
"","html-keyboard-response","21","43467","0.0-21.0","3AWETUDC93EJN74H6Z6G1VST4VOIZG","ACSS93E03ZUGX","3A3KKYU7P33Z3BR9PPFZ5194ZCQMWU","","null","<img src=""img/animal3.png"" style=""width:200px;border:14px solid red;"">","null","","","","","",""
"","image-keyboard-response","22","44298","0.0-22.0","3AWETUDC93EJN74H6Z6G1VST4VOIZG","ACSS93E03ZUGX","3A3KKYU7P33Z3BR9PPFZ5194ZCQMWU","","826.8000000007451","img/animal1.png","75","829.9000000022352","2","1","2","1,0.5,0,0,1,0.5,0.5,0,1",""
"","html-keyboard-response","23","44603","0.0-23.0","3AWETUDC93EJN74H6Z6G1VST4VOIZG","ACSS93E03ZUGX","3A3KKYU7P33Z3BR9PPFZ5194ZCQMWU","","null","<img src=""img/animal1.png"" style=""width:200px; border:14px solid green;"">","null","","","","","",""
"","image-keyboard-response","24","45530","0.0-24.0","3AWETUDC93EJN74H6Z6G1VST4VOIZG","ACSS93E03ZUGX","3A3KKYU7P33Z3BR9PPFZ5194ZCQMWU","","923.6999999992549","img/animal4.png","76","926.6999999992549","3","0","1","1,0.5,0,0,1,0.5,0.5,0,1",""
"","html-keyboard-response","25","45835","0.0-25.0","3AWETUDC93EJN74H6Z6G1VST4VOIZG","ACSS93E03ZUGX","3A3KKYU7P33Z3BR9PPFZ5194ZCQMWU","","null","<img src=""img/animal4.png"" style=""width:200px;border:14px solid red;"">","null","","","","","",""
"","image-keyboard-response","26","47254","0.0-26.0","3AWETUDC93EJN74H6Z6G1VST4VOIZG","ACSS93E03ZUGX","3A3KKYU7P33Z3BR9PPFZ5194ZCQMWU","","1415.1000000014901","img/animal4.png","76","1418.199999999255","3","0","1","1,0.5,0,0,1,0.5,0.5,0,1",""
"","html-keyboard-response","27","47563","0.0-27.0","3AWETUDC93EJN74H6Z6G1VST4VOIZG","ACSS93E03ZUGX","3A3KKYU7P33Z3BR9PPFZ5194ZCQMWU","","null","<img src=""img/animal4.png"" style=""width:200px;border:14px solid red;"">","null","","","","","",""
"","image-keyboard-response","28","48668","0.0-28.0","3AWETUDC93EJN74H6Z6G1VST4VOIZG","ACSS93E03ZUGX","3A3KKYU7P33Z3BR9PPFZ5194ZCQMWU","","1102.1000000014901","img/animal1.png","75","1104.800000000745","2","1","2","1,0.5,0,0,1,0.5,0.5,0,1",""
"","html-keyboard-response","29","48979","0.0-29.0","3AWETUDC93EJN74H6Z6G1VST4VOIZG","ACSS93E03ZUGX","3A3KKYU7P33Z3BR9PPFZ5194ZCQMWU","","null","<img src=""img/animal1.png"" style=""width:200px; border:14px solid green;"">","null","","","","","",""
"","image-keyboard-response","30","50324","0.0-30.0","3AWETUDC93EJN74H6Z6G1VST4VOIZG","ACSS93E03ZUGX","3A3KKYU7P33Z3BR9PPFZ5194ZCQMWU","","1342.699999999255","img/animal4.png","76","1345.300000000745","3","0","1","1,0.5,0,0,1,0.5,0.5,0,1",""
"","html-keyboard-response","31","50635","0.0-31.0","3AWETUDC93EJN74H6Z6G1VST4VOIZG","ACSS93E03ZUGX","3A3KKYU7P33Z3BR9PPFZ5194ZCQMWU","","null","<img src=""img/animal4.png"" style=""width:200px;border:14px solid red;"">","null","","","","","",""
"","image-keyboard-response","32","51601","0.0-32.0","3AWETUDC93EJN74H6Z6G1VST4VOIZG","ACSS93E03ZUGX","3A3KKYU7P33Z3BR9PPFZ5194ZCQMWU","","961.5999999977648","img/animal4.png","74","965.1000000014901","1","1","1","1,0.5,0,0,1,0.5,0.5,0,1",""
"","html-keyboard-response","33","51907","0.0-33.0","3AWETUDC93EJN74H6Z6G1VST4VOIZG","ACSS93E03ZUGX","3A3KKYU7P33Z3BR9PPFZ5194ZCQMWU","","null","<img src=""img/animal4.png"" style=""width:200px; border:14px solid green;"">","null","","","","","",""
"","image-keyboard-response","34","53620","0.0-34.0","3AWETUDC93EJN74H6Z6G1VST4VOIZG","ACSS93E03ZUGX","3A3KKYU7P33Z3BR9PPFZ5194ZCQMWU","","1707.800000000745","img/animal1.png","75","1711.199999999255","2","1","2","1,0.5,0,0,1,0.5,0.5,0,1",""
"","html-keyboard-response","35","53932","0.0-35.0","3AWETUDC93EJN74H6Z6G1VST4VOIZG","ACSS93E03ZUGX","3A3KKYU7P33Z3BR9PPFZ5194ZCQMWU","","null","<img src=""img/animal1.png"" style=""width:200px; border:14px solid green;"">","null","","","","","",""
"","image-keyboard-response","36","54615","0.0-36.0","3AWETUDC93EJN74H6Z6G1VST4VOIZG","ACSS93E03ZUGX","3A3KKYU7P33Z3BR9PPFZ5194ZCQMWU","","678.1999999992549","img/animal4.png","74","682","1","1","1","1,0.5,0,0,1,0.5,0.5,0,1",""
"","html-keyboard-response","37","54924","0.0-37.0","3AWETUDC93EJN74H6Z6G1VST4VOIZG","ACSS93E03ZUGX","3A3KKYU7P33Z3BR9PPFZ5194ZCQMWU","","null","<img src=""img/animal4.png"" style=""width:200px; border:14px solid green;"">","null","","","","","",""
"","image-keyboard-response","38","58035","0.0-38.0","3AWETUDC93EJN74H6Z6G1VST4VOIZG","ACSS93E03ZUGX","3A3KKYU7P33Z3BR9PPFZ5194ZCQMWU","","3107.199999999255","img/animal4.png","75","3110.400000002235","2","1","1","1,0.5,0,0,1,0.5,0.5,0,1",""
"","html-keyboard-response","39","58339","0.0-39.0","3AWETUDC93EJN74H6Z6G1VST4VOIZG","ACSS93E03ZUGX","3A3KKYU7P33Z3BR9PPFZ5194ZCQMWU","","null","<img src=""img/animal4.png"" style=""width:200px; border:14px solid green;"">","null","","","","","",""
"","image-keyboard-response","40","59605","0.0-40.0","3AWETUDC93EJN74H6Z6G1VST4VOIZG","ACSS93E03ZUGX","3A3KKYU7P33Z3BR9PPFZ5194ZCQMWU","","1261.8999999985099","img/animal1.png","74","1265.300000000745","1","0","2","1,0.5,0,0,1,0.5,0.5,0,1",""
"","html-keyboard-response","41","59916","0.0-41.0","3AWETUDC93EJN74H6Z6G1VST4VOIZG","ACSS93E03ZUGX","3A3KKYU7P33Z3BR9PPFZ5194ZCQMWU","","null","<img src=""img/animal1.png"" style=""width:200px;border:14px solid red;"">","null","","","","","",""
"","image-keyboard-response","42","61534","0.0-42.0","3AWETUDC93EJN74H6Z6G1VST4VOIZG","ACSS93E03ZUGX","3A3KKYU7P33Z3BR9PPFZ5194ZCQMWU","","1613.8999999985099","img/animal4.png","75","1617.3999999985099","2","0","1","1,0.5,0,0,1,0.5,0.5,0,1",""
"","html-keyboard-response","43","61844","0.0-43.0","3AWETUDC93EJN74H6Z6G1VST4VOIZG","ACSS93E03ZUGX","3A3KKYU7P33Z3BR9PPFZ5194ZCQMWU","","null","<img src=""img/animal4.png"" style=""width:200px;border:14px solid red;"">","null","","","","","",""
"","image-keyboard-response","44","64449","0.0-44.0","3AWETUDC93EJN74H6Z6G1VST4VOIZG","ACSS93E03ZUGX","3A3KKYU7P33Z3BR9PPFZ5194ZCQMWU","","2601","img/animal1.png","74","2604.5","1","0","2","1,0.5,0,0,1,0.5,0.5,0,1",""
"","html-keyboard-response","45","64755","0.0-45.0","3AWETUDC93EJN74H6Z6G1VST4VOIZG","ACSS93E03ZUGX","3A3KKYU7P33Z3BR9PPFZ5194ZCQMWU","","null","<img src=""img/animal1.png"" style=""width:200px;border:14px solid red;"">","null","","","","","",""
"","image-keyboard-response","46","65582","0.0-46.0","3AWETUDC93EJN74H6Z6G1VST4VOIZG","ACSS93E03ZUGX","3A3KKYU7P33Z3BR9PPFZ5194ZCQMWU","","822.6999999992549","img/animal1.png","76","826.3999999985099","3","0","2","1,0.5,0,0,1,0.5,0.5,0,1",""
"","html-keyboard-response","47","65891","0.0-47.0","3AWETUDC93EJN74H6Z6G1VST4VOIZG","ACSS93E03ZUGX","3A3KKYU7P33Z3BR9PPFZ5194ZCQMWU","","null","<img src=""img/animal1.png"" style=""width:200px;border:14px solid red;"">","null","","","","","",""
"","image-keyboard-response","48","67125","0.0-48.0","3AWETUDC93EJN74H6Z6G1VST4VOIZG","ACSS93E03ZUGX","3A3KKYU7P33Z3BR9PPFZ5194ZCQMWU","","1230.5","img/animal4.png","75","1233.800000000745","2","1","1","1,0.5,0,0,1,0.5,0.5,0,1",""
"","html-keyboard-response","49","67436","0.0-49.0","3AWETUDC93EJN74H6Z6G1VST4VOIZG","ACSS93E03ZUGX","3A3KKYU7P33Z3BR9PPFZ5194ZCQMWU","","null","<img src=""img/animal4.png"" style=""width:200px; border:14px solid green;"">","null","","","","","",""
"","image-keyboard-response","50","68444","0.0-50.0","3AWETUDC93EJN74H6Z6G1VST4VOIZG","ACSS93E03ZUGX","3A3KKYU7P33Z3BR9PPFZ5194ZCQMWU","","1003.9000000022352","img/animal4.png","75","1007.3999999985099","2","1","1","1,0.5,0,0,1,0.5,0.5,0,1",""
"","html-keyboard-response","51","68750","0.0-51.0","3AWETUDC93EJN74H6Z6G1VST4VOIZG","ACSS93E03ZUGX","3A3KKYU7P33Z3BR9PPFZ5194ZCQMWU","","null","<img src=""img/animal4.png"" style=""width:200px; border:14px solid green;"">","null","","","","","",""
"","image-keyboard-response","52","70089","0.0-52.0","3AWETUDC93EJN74H6Z6G1VST4VOIZG","ACSS93E03ZUGX","3A3KKYU7P33Z3BR9PPFZ5194ZCQMWU","","1335.5","img/animal1.png","74","1338.5","1","0","2","1,0.5,0,0,1,0.5,0.5,0,1",""
"","html-keyboard-response","53","70395","0.0-53.0","3AWETUDC93EJN74H6Z6G1VST4VOIZG","ACSS93E03ZUGX","3A3KKYU7P33Z3BR9PPFZ5194ZCQMWU","","null","<img src=""img/animal1.png"" style=""width:200px;border:14px solid red;"">","null","","","","","",""
"","image-keyboard-response","54","71322","0.0-54.0","3AWETUDC93EJN74H6Z6G1VST4VOIZG","ACSS93E03ZUGX","3A3KKYU7P33Z3BR9PPFZ5194ZCQMWU","","922.6000000014901","img/animal1.png","75","925.9000000022352","2","1","2","1,0.5,0,0,1,0.5,0.5,0,1",""
"","html-keyboard-response","55","71627","0.0-55.0","3AWETUDC93EJN74H6Z6G1VST4VOIZG","ACSS93E03ZUGX","3A3KKYU7P33Z3BR9PPFZ5194ZCQMWU","","null","<img src=""img/animal1.png"" style=""width:200px; border:14px solid green;"">","null","","","","","",""
"","image-keyboard-response","56","72592","0.0-56.0","3AWETUDC93EJN74H6Z6G1VST4VOIZG","ACSS93E03ZUGX","3A3KKYU7P33Z3BR9PPFZ5194ZCQMWU","","961.8000000007451","img/animal3.png","74","964.8000000007451","1","1","3","1,0.5,0,0,1,0.5,0.5,0,1",""
"","html-keyboard-response","57","72899","0.0-57.0","3AWETUDC93EJN74H6Z6G1VST4VOIZG","ACSS93E03ZUGX","3A3KKYU7P33Z3BR9PPFZ5194ZCQMWU","","null","<img src=""img/animal3.png"" style=""width:200px; border:14px solid green;"">","null","","","","","",""
"","image-keyboard-response","58","73983","0.0-58.0","3AWETUDC93EJN74H6Z6G1VST4VOIZG","ACSS93E03ZUGX","3A3KKYU7P33Z3BR9PPFZ5194ZCQMWU","","1079.300000000745","img/animal1.png","75","1082.7999999970198","2","1","2","1,0.5,0,0,1,0.5,0.5,0,1",""
"","html-keyboard-response","59","74291","0.0-59.0","3AWETUDC93EJN74H6Z6G1VST4VOIZG","ACSS93E03ZUGX","3A3KKYU7P33Z3BR9PPFZ5194ZCQMWU","","null","<img src=""img/animal1.png"" style=""width:200px; border:14px solid green;"">","null","","","","","",""
"","image-keyboard-response","60","75891","0.0-60.0","3AWETUDC93EJN74H6Z6G1VST4VOIZG","ACSS93E03ZUGX","3A3KKYU7P33Z3BR9PPFZ5194ZCQMWU","","1596.199999999255","img/animal4.png","75","1599.699999999255","2","0","1","1,0.5,0,0,1,0.5,0.5,0,1",""
"","html-keyboard-response","61","76203","0.0-61.0","3AWETUDC93EJN74H6Z6G1VST4VOIZG","ACSS93E03ZUGX","3A3KKYU7P33Z3BR9PPFZ5194ZCQMWU","","null","<img src=""img/animal4.png"" style=""width:200px;border:14px solid red;"">","null","","","","","",""
"","image-keyboard-response","62","76937","0.0-62.0","3AWETUDC93EJN74H6Z6G1VST4VOIZG","ACSS93E03ZUGX","3A3KKYU7P33Z3BR9PPFZ5194ZCQMWU","","726.9000000022352","img/animal3.png","74","733.2000000029802","1","0","3","1,0.5,0,0,1,0.5,0.5,0,1",""
"","html-keyboard-response","63","77243","0.0-63.0","3AWETUDC93EJN74H6Z6G1VST4VOIZG","ACSS93E03ZUGX","3A3KKYU7P33Z3BR9PPFZ5194ZCQMWU","","null","<img src=""img/animal3.png"" style=""width:200px;border:14px solid red;"">","null","","","","","",""
"","image-keyboard-response","64","78068","0.0-64.0","3AWETUDC93EJN74H6Z6G1VST4VOIZG","ACSS93E03ZUGX","3A3KKYU7P33Z3BR9PPFZ5194ZCQMWU","","821.1000000014901","img/animal1.png","74","824.6000000014901","1","0","2","1,0.5,0,0,1,0.5,0.5,0,1",""
"","html-keyboard-response","65","78379","0.0-65.0","3AWETUDC93EJN74H6Z6G1VST4VOIZG","ACSS93E03ZUGX","3A3KKYU7P33Z3BR9PPFZ5194ZCQMWU","","null","<img src=""img/animal1.png"" style=""width:200px;border:14px solid red;"">","null","","","","","",""
"","image-keyboard-response","66","78970","0.0-66.0","3AWETUDC93EJN74H6Z6G1VST4VOIZG","ACSS93E03ZUGX","3A3KKYU7P33Z3BR9PPFZ5194ZCQMWU","","586.8000000007451","img/animal4.png","75","590.2000000029802","2","0","1","1,0.5,0,0,1,0.5,0.5,0,1",""
"","html-keyboard-response","67","79276","0.0-67.0","3AWETUDC93EJN74H6Z6G1VST4VOIZG","ACSS93E03ZUGX","3A3KKYU7P33Z3BR9PPFZ5194ZCQMWU","","null","<img src=""img/animal4.png"" style=""width:200px;border:14px solid red;"">","null","","","","","",""
"","image-keyboard-response","68","79600","0.0-68.0","3AWETUDC93EJN74H6Z6G1VST4VOIZG","ACSS93E03ZUGX","3A3KKYU7P33Z3BR9PPFZ5194ZCQMWU","","320","img/animal4.png","74","323.6000000014901","1","1","1","1,0.5,0,0,1,0.5,0.5,0,1",""
"","html-keyboard-response","69","79907","0.0-69.0","3AWETUDC93EJN74H6Z6G1VST4VOIZG","ACSS93E03ZUGX","3A3KKYU7P33Z3BR9PPFZ5194ZCQMWU","","null","<img src=""img/animal4.png"" style=""width:200px; border:14px solid green;"">","null","","","","","",""
"","image-keyboard-response","70","80722","0.0-70.0","3AWETUDC93EJN74H6Z6G1VST4VOIZG","ACSS93E03ZUGX","3A3KKYU7P33Z3BR9PPFZ5194ZCQMWU","","810.5","img/animal4.png","74","814","1","1","1","1,0.5,0,0,1,0.5,0.5,0,1",""
"","html-keyboard-response","71","81028","0.0-71.0","3AWETUDC93EJN74H6Z6G1VST4VOIZG","ACSS93E03ZUGX","3A3KKYU7P33Z3BR9PPFZ5194ZCQMWU","","null","<img src=""img/animal4.png"" style=""width:200px; border:14px solid green;"">","null","","","","","",""
"","image-keyboard-response","72","81478","0.0-72.0","3AWETUDC93EJN74H6Z6G1VST4VOIZG","ACSS93E03ZUGX","3A3KKYU7P33Z3BR9PPFZ5194ZCQMWU","","446","img/animal4.png","74","449.5","1","1","1","1,0.5,0,0,1,0.5,0.5,0,1",""
"","html-keyboard-response","73","81788","0.0-73.0","3AWETUDC93EJN74H6Z6G1VST4VOIZG","ACSS93E03ZUGX","3A3KKYU7P33Z3BR9PPFZ5194ZCQMWU","","null","<img src=""img/animal4.png"" style=""width:200px; border:14px solid green;"">","null","","","","","",""
"","image-keyboard-response","74","82543","0.0-74.0","3AWETUDC93EJN74H6Z6G1VST4VOIZG","ACSS93E03ZUGX","3A3KKYU7P33Z3BR9PPFZ5194ZCQMWU","","751.7000000029802","img/animal3.png","74","755","1","1","3","1,0.5,0,0,1,0.5,0.5,0,1",""
"","html-keyboard-response","75","82852","0.0-75.0","3AWETUDC93EJN74H6Z6G1VST4VOIZG","ACSS93E03ZUGX","3A3KKYU7P33Z3BR9PPFZ5194ZCQMWU","","null","<img src=""img/animal3.png"" style=""width:200px; border:14px solid green;"">","null","","","","","",""
"","image-keyboard-response","76","84246","0.0-76.0","3AWETUDC93EJN74H6Z6G1VST4VOIZG","ACSS93E03ZUGX","3A3KKYU7P33Z3BR9PPFZ5194ZCQMWU","","1390.2000000029802","img/animal1.png","75","1393.6000000014901","2","1","2","1,0.5,0,0,1,0.5,0.5,0,1",""
"","html-keyboard-response","77","84555","0.0-77.0","3AWETUDC93EJN74H6Z6G1VST4VOIZG","ACSS93E03ZUGX","3A3KKYU7P33Z3BR9PPFZ5194ZCQMWU","","null","<img src=""img/animal1.png"" style=""width:200px; border:14px solid green;"">","null","","","","","",""
"","image-keyboard-response","78","85562","0.0-78.0","3AWETUDC93EJN74H6Z6G1VST4VOIZG","ACSS93E03ZUGX","3A3KKYU7P33Z3BR9PPFZ5194ZCQMWU","","1002.8000000007451","img/animal3.png","74","1006.1999999992549","1","1","3","1,0.5,0,0,1,0.5,0.5,0,1",""
"","html-keyboard-response","79","85875","0.0-79.0","3AWETUDC93EJN74H6Z6G1VST4VOIZG","ACSS93E03ZUGX","3A3KKYU7P33Z3BR9PPFZ5194ZCQMWU","","null","<img src=""img/animal3.png"" style=""width:200px; border:14px solid green;"">","null","","","","","",""
"","image-keyboard-response","80","88188","0.0-80.0","3AWETUDC93EJN74H6Z6G1VST4VOIZG","ACSS93E03ZUGX","3A3KKYU7P33Z3BR9PPFZ5194ZCQMWU","","2309.300000000745","img/animal3.png","74","2312.199999999255","1","1","3","1,0.5,0,0,1,0.5,0.5,0,1",""
"","html-keyboard-response","81","88499","0.0-81.0","3AWETUDC93EJN74H6Z6G1VST4VOIZG","ACSS93E03ZUGX","3A3KKYU7P33Z3BR9PPFZ5194ZCQMWU","","null","<img src=""img/animal3.png"" style=""width:200px; border:14px solid green;"">","null","","","","","",""
"","image-keyboard-response","82","90401","0.0-82.0","3AWETUDC93EJN74H6Z6G1VST4VOIZG","ACSS93E03ZUGX","3A3KKYU7P33Z3BR9PPFZ5194ZCQMWU","","1897.2000000029802","img/animal3.png","74","1900.9000000022352","1","1","3","1,0.5,0,0,1,0.5,0.5,0,1",""
"","html-keyboard-response","83","90707","0.0-83.0","3AWETUDC93EJN74H6Z6G1VST4VOIZG","ACSS93E03ZUGX","3A3KKYU7P33Z3BR9PPFZ5194ZCQMWU","","null","<img src=""img/animal3.png"" style=""width:200px; border:14px solid green;"">","null","","","","","",""
"","image-keyboard-response","84","92270","0.0-84.0","3AWETUDC93EJN74H6Z6G1VST4VOIZG","ACSS93E03ZUGX","3A3KKYU7P33Z3BR9PPFZ5194ZCQMWU","","1559.8999999985099","img/animal1.png","76","1562.3999999985099","3","0","2","1,0.5,0,0,1,0.5,0.5,0,1",""
"","html-keyboard-response","85","92579","0.0-85.0","3AWETUDC93EJN74H6Z6G1VST4VOIZG","ACSS93E03ZUGX","3A3KKYU7P33Z3BR9PPFZ5194ZCQMWU","","null","<img src=""img/animal1.png"" style=""width:200px;border:14px solid red;"">","null","","","","","",""
"","image-keyboard-response","86","93394","0.0-86.0","3AWETUDC93EJN74H6Z6G1VST4VOIZG","ACSS93E03ZUGX","3A3KKYU7P33Z3BR9PPFZ5194ZCQMWU","","812.3000000007451","img/animal4.png","74","814.6999999992549","1","1","1","1,0.5,0,0,1,0.5,0.5,0,1",""
"","html-keyboard-response","87","93699","0.0-87.0","3AWETUDC93EJN74H6Z6G1VST4VOIZG","ACSS93E03ZUGX","3A3KKYU7P33Z3BR9PPFZ5194ZCQMWU","","null","<img src=""img/animal4.png"" style=""width:200px; border:14px solid green;"">","null","","","","","",""
"","image-keyboard-response","88","94664","0.0-88.0","3AWETUDC93EJN74H6Z6G1VST4VOIZG","ACSS93E03ZUGX","3A3KKYU7P33Z3BR9PPFZ5194ZCQMWU","","960.5","img/animal3.png","74","964","1","0","3","1,0.5,0,0,1,0.5,0.5,0,1",""
"","html-keyboard-response","89","94971","0.0-89.0","3AWETUDC93EJN74H6Z6G1VST4VOIZG","ACSS93E03ZUGX","3A3KKYU7P33Z3BR9PPFZ5194ZCQMWU","","null","<img src=""img/animal3.png"" style=""width:200px;border:14px solid red;"">","null","","","","","",""
"","image-keyboard-response","90","96023","0.0-90.0","3AWETUDC93EJN74H6Z6G1VST4VOIZG","ACSS93E03ZUGX","3A3KKYU7P33Z3BR9PPFZ5194ZCQMWU","","1049","img/animal3.png","75","1051.699999999255","2","0","3","1,0.5,0,0,1,0.5,0.5,0,1",""
"","html-keyboard-response","91","96331","0.0-91.0","3AWETUDC93EJN74H6Z6G1VST4VOIZG","ACSS93E03ZUGX","3A3KKYU7P33Z3BR9PPFZ5194ZCQMWU","","null","<img src=""img/animal3.png"" style=""width:200px;border:14px solid red;"">","null","","","","","",""
"","image-keyboard-response","92","97157","0.0-92.0","3AWETUDC93EJN74H6Z6G1VST4VOIZG","ACSS93E03ZUGX","3A3KKYU7P33Z3BR9PPFZ5194ZCQMWU","","821.5","img/animal4.png","74","825","1","1","1","1,0.5,0,0,1,0.5,0.5,0,1",""
"","html-keyboard-response","93","97468","0.0-93.0","3AWETUDC93EJN74H6Z6G1VST4VOIZG","ACSS93E03ZUGX","3A3KKYU7P33Z3BR9PPFZ5194ZCQMWU","","null","<img src=""img/animal4.png"" style=""width:200px; border:14px solid green;"">","null","","","","","",""
"","image-keyboard-response","94","98367","0.0-94.0","3AWETUDC93EJN74H6Z6G1VST4VOIZG","ACSS93E03ZUGX","3A3KKYU7P33Z3BR9PPFZ5194ZCQMWU","","895.3999999985099","img/animal1.png","74","898.6999999992549","1","0","2","1,0.5,0,0,1,0.5,0.5,0,1",""
"","html-keyboard-response","95","98675","0.0-95.0","3AWETUDC93EJN74H6Z6G1VST4VOIZG","ACSS93E03ZUGX","3A3KKYU7P33Z3BR9PPFZ5194ZCQMWU","","null","<img src=""img/animal1.png"" style=""width:200px;border:14px solid red;"">","null","","","","","",""
"","image-keyboard-response","96","99105","0.0-96.0","3AWETUDC93EJN74H6Z6G1VST4VOIZG","ACSS93E03ZUGX","3A3KKYU7P33Z3BR9PPFZ5194ZCQMWU","","425.9000000022352","img/animal3.png","75","429.4000000022352","2","0","3","1,0.5,0,0,1,0.5,0.5,0,1",""
"","html-keyboard-response","97","99411","0.0-97.0","3AWETUDC93EJN74H6Z6G1VST4VOIZG","ACSS93E03ZUGX","3A3KKYU7P33Z3BR9PPFZ5194ZCQMWU","","null","<img src=""img/animal3.png"" style=""width:200px;border:14px solid red;"">","null","","","","","",""
"","image-keyboard-response","98","99787","0.0-98.0","3AWETUDC93EJN74H6Z6G1VST4VOIZG","ACSS93E03ZUGX","3A3KKYU7P33Z3BR9PPFZ5194ZCQMWU","","372.5","img/animal1.png","76","375.5999999977648","3","1","2","1,0.5,0,0,1,0.5,0.5,0,1",""
"","html-keyboard-response","99","100099","0.0-99.0","3AWETUDC93EJN74H6Z6G1VST4VOIZG","ACSS93E03ZUGX","3A3KKYU7P33Z3BR9PPFZ5194ZCQMWU","","null","<img src=""img/animal1.png"" style=""width:200px; border:14px solid green;"">","null","","","","","",""
"","image-keyboard-response","100","101099","0.0-100.0","3AWETUDC93EJN74H6Z6G1VST4VOIZG","ACSS93E03ZUGX","3A3KKYU7P33Z3BR9PPFZ5194ZCQMWU","","995.6999999992549","img/animal4.png","74","999.0999999977648","1","1","1","1,0.5,0,0,1,0.5,0.5,0,1",""
"","html-keyboard-response","101","101411","0.0-101.0","3AWETUDC93EJN74H6Z6G1VST4VOIZG","ACSS93E03ZUGX","3A3KKYU7P33Z3BR9PPFZ5194ZCQMWU","","null","<img src=""img/animal4.png"" style=""width:200px; border:14px solid green;"">","null","","","","","",""
"","image-keyboard-response","102","102199","0.0-102.0","3AWETUDC93EJN74H6Z6G1VST4VOIZG","ACSS93E03ZUGX","3A3KKYU7P33Z3BR9PPFZ5194ZCQMWU","","785.1999999992549","img/animal1.png","76","787.8999999985099","3","1","2","1,0.5,0,0,1,0.5,0.5,0,1",""
"","html-keyboard-response","103","102508","0.0-103.0","3AWETUDC93EJN74H6Z6G1VST4VOIZG","ACSS93E03ZUGX","3A3KKYU7P33Z3BR9PPFZ5194ZCQMWU","","null","<img src=""img/animal1.png"" style=""width:200px; border:14px solid green;"">","null","","","","","",""
"","image-keyboard-response","104","103409","0.0-104.0","3AWETUDC93EJN74H6Z6G1VST4VOIZG","ACSS93E03ZUGX","3A3KKYU7P33Z3BR9PPFZ5194ZCQMWU","","897.6999999992549","img/animal3.png","74","901","1","1","3","1,0.5,0,0,1,0.5,0.5,0,1",""
"","html-keyboard-response","105","103715","0.0-105.0","3AWETUDC93EJN74H6Z6G1VST4VOIZG","ACSS93E03ZUGX","3A3KKYU7P33Z3BR9PPFZ5194ZCQMWU","","null","<img src=""img/animal3.png"" style=""width:200px; border:14px solid green;"">","null","","","","","",""
"","image-keyboard-response","106","104477","0.0-106.0","3AWETUDC93EJN74H6Z6G1VST4VOIZG","ACSS93E03ZUGX","3A3KKYU7P33Z3BR9PPFZ5194ZCQMWU","","757.7000000029802","img/animal1.png","74","761.4000000022352","1","0","2","1,0.5,0,0,1,0.5,0.5,0,1",""
"","html-keyboard-response","107","104787","0.0-107.0","3AWETUDC93EJN74H6Z6G1VST4VOIZG","ACSS93E03ZUGX","3A3KKYU7P33Z3BR9PPFZ5194ZCQMWU","","null","<img src=""img/animal1.png"" style=""width:200px;border:14px solid red;"">","null","","","","","",""
"","image-keyboard-response","108","105537","0.0-108.0","3AWETUDC93EJN74H6Z6G1VST4VOIZG","ACSS93E03ZUGX","3A3KKYU7P33Z3BR9PPFZ5194ZCQMWU","","746.8000000007451","img/animal4.png","75","750","2","0","1","1,0.5,0,0,1,0.5,0.5,0,1",""
"","html-keyboard-response","109","105843","0.0-109.0","3AWETUDC93EJN74H6Z6G1VST4VOIZG","ACSS93E03ZUGX","3A3KKYU7P33Z3BR9PPFZ5194ZCQMWU","","null","<img src=""img/animal4.png"" style=""width:200px;border:14px solid red;"">","null","","","","","",""
"","image-keyboard-response","110","106529","0.0-110.0","3AWETUDC93EJN74H6Z6G1VST4VOIZG","ACSS93E03ZUGX","3A3KKYU7P33Z3BR9PPFZ5194ZCQMWU","","682","img/animal3.png","74","685.1999999992549","1","0","3","1,0.5,0,0,1,0.5,0.5,0,1",""
"","html-keyboard-response","111","106835","0.0-111.0","3AWETUDC93EJN74H6Z6G1VST4VOIZG","ACSS93E03ZUGX","3A3KKYU7P33Z3BR9PPFZ5194ZCQMWU","","null","<img src=""img/animal3.png"" style=""width:200px;border:14px solid red;"">","null","","","","","",""
"","image-keyboard-response","112","107492","0.0-112.0","3AWETUDC93EJN74H6Z6G1VST4VOIZG","ACSS93E03ZUGX","3A3KKYU7P33Z3BR9PPFZ5194ZCQMWU","","653.6999999992549","img/animal4.png","74","657","1","1","1","1,0.5,0,0,1,0.5,0.5,0,1",""
"","html-keyboard-response","113","107803","0.0-113.0","3AWETUDC93EJN74H6Z6G1VST4VOIZG","ACSS93E03ZUGX","3A3KKYU7P33Z3BR9PPFZ5194ZCQMWU","","null","<img src=""img/animal4.png"" style=""width:200px; border:14px solid green;"">","null","","","","","",""
"","image-keyboard-response","114","108588","0.0-114.0","3AWETUDC93EJN74H6Z6G1VST4VOIZG","ACSS93E03ZUGX","3A3KKYU7P33Z3BR9PPFZ5194ZCQMWU","","780.5","img/animal4.png","75","783.8999999985099","2","1","1","1,0.5,0,0,1,0.5,0.5,0,1",""
"","html-keyboard-response","115","108899","0.0-115.0","3AWETUDC93EJN74H6Z6G1VST4VOIZG","ACSS93E03ZUGX","3A3KKYU7P33Z3BR9PPFZ5194ZCQMWU","","null","<img src=""img/animal4.png"" style=""width:200px; border:14px solid green;"">","null","","","","","",""
"","image-keyboard-response","116","109589","0.0-116.0","3AWETUDC93EJN74H6Z6G1VST4VOIZG","ACSS93E03ZUGX","3A3KKYU7P33Z3BR9PPFZ5194ZCQMWU","","685.8000000007451","img/animal4.png","75","689","2","0","1","1,0.5,0,0,1,0.5,0.5,0,1",""
"","html-keyboard-response","117","109899","0.0-117.0","3AWETUDC93EJN74H6Z6G1VST4VOIZG","ACSS93E03ZUGX","3A3KKYU7P33Z3BR9PPFZ5194ZCQMWU","","null","<img src=""img/animal4.png"" style=""width:200px;border:14px solid red;"">","null","","","","","",""
"","image-keyboard-response","118","110612","0.0-118.0","3AWETUDC93EJN74H6Z6G1VST4VOIZG","ACSS93E03ZUGX","3A3KKYU7P33Z3BR9PPFZ5194ZCQMWU","","709.2999999970198","img/animal3.png","74","712.6999999992549","1","1","3","1,0.5,0,0,1,0.5,0.5,0,1",""
"","html-keyboard-response","119","110918","0.0-119.0","3AWETUDC93EJN74H6Z6G1VST4VOIZG","ACSS93E03ZUGX","3A3KKYU7P33Z3BR9PPFZ5194ZCQMWU","","null","<img src=""img/animal3.png"" style=""width:200px; border:14px solid green;"">","null","","","","","",""
"","image-keyboard-response","120","111760","0.0-120.0","3AWETUDC93EJN74H6Z6G1VST4VOIZG","ACSS93E03ZUGX","3A3KKYU7P33Z3BR9PPFZ5194ZCQMWU","","837.6999999992549","img/animal1.png","74","841.1000000014901","1","0","2","1,0.5,0,0,1,0.5,0.5,0,1",""
"","html-keyboard-response","121","112067","0.0-121.0","3AWETUDC93EJN74H6Z6G1VST4VOIZG","ACSS93E03ZUGX","3A3KKYU7P33Z3BR9PPFZ5194ZCQMWU","","null","<img src=""img/animal1.png"" style=""width:200px;border:14px solid red;"">","null","","","","","",""
"","image-keyboard-response","122","112817","0.0-122.0","3AWETUDC93EJN74H6Z6G1VST4VOIZG","ACSS93E03ZUGX","3A3KKYU7P33Z3BR9PPFZ5194ZCQMWU","","745.7999999970198","img/animal3.png","74","749.1999999992549","1","1","3","1,0.5,0,0,1,0.5,0.5,0,1",""
"","html-keyboard-response","123","113123","0.0-123.0","3AWETUDC93EJN74H6Z6G1VST4VOIZG","ACSS93E03ZUGX","3A3KKYU7P33Z3BR9PPFZ5194ZCQMWU","","null","<img src=""img/animal3.png"" style=""width:200px; border:14px solid green;"">","null","","","","","",""
"","image-keyboard-response","124","113586","0.0-124.0","3AWETUDC93EJN74H6Z6G1VST4VOIZG","ACSS93E03ZUGX","3A3KKYU7P33Z3BR9PPFZ5194ZCQMWU","","459.5999999977648","img/animal3.png","74","463","1","0","3","1,0.5,0,0,1,0.5,0.5,0,1",""
"","html-keyboard-response","125","113907","0.0-125.0","3AWETUDC93EJN74H6Z6G1VST4VOIZG","ACSS93E03ZUGX","3A3KKYU7P33Z3BR9PPFZ5194ZCQMWU","","null","<img src=""img/animal3.png"" style=""width:200px;border:14px solid red;"">","null","","","","","",""
"","image-keyboard-response","126","114302","0.0-126.0","3AWETUDC93EJN74H6Z6G1VST4VOIZG","ACSS93E03ZUGX","3A3KKYU7P33Z3BR9PPFZ5194ZCQMWU","","390.70000000298023","img/animal3.png","75","394.5","2","0","3","1,0.5,0,0,1,0.5,0.5,0,1",""
"","html-keyboard-response","127","114612","0.0-127.0","3AWETUDC93EJN74H6Z6G1VST4VOIZG","ACSS93E03ZUGX","3A3KKYU7P33Z3BR9PPFZ5194ZCQMWU","","null","<img src=""img/animal3.png"" style=""width:200px;border:14px solid red;"">","null","","","","","",""
"","image-keyboard-response","128","114984","0.0-128.0","3AWETUDC93EJN74H6Z6G1VST4VOIZG","ACSS93E03ZUGX","3A3KKYU7P33Z3BR9PPFZ5194ZCQMWU","","368.5","img/animal3.png","76","372","3","1","3","1,0.5,0,0,1,0.5,0.5,0,1",""
"","html-keyboard-response","129","115292","0.0-129.0","3AWETUDC93EJN74H6Z6G1VST4VOIZG","ACSS93E03ZUGX","3A3KKYU7P33Z3BR9PPFZ5194ZCQMWU","","null","<img src=""img/animal3.png"" style=""width:200px; border:14px solid green;"">","null","","","","","",""
"","image-keyboard-response","130","115892","0.0-130.0","3AWETUDC93EJN74H6Z6G1VST4VOIZG","ACSS93E03ZUGX","3A3KKYU7P33Z3BR9PPFZ5194ZCQMWU","","595.1000000014901","img/animal3.png","76","598.8000000007451","3","1","3","1,0.5,0,0,1,0.5,0.5,0,1",""
"","html-keyboard-response","131","116204","0.0-131.0","3AWETUDC93EJN74H6Z6G1VST4VOIZG","ACSS93E03ZUGX","3A3KKYU7P33Z3BR9PPFZ5194ZCQMWU","","null","<img src=""img/animal3.png"" style=""width:200px; border:14px solid green;"">","null","","","","","",""
"","image-keyboard-response","132","116765","0.0-132.0","3AWETUDC93EJN74H6Z6G1VST4VOIZG","ACSS93E03ZUGX","3A3KKYU7P33Z3BR9PPFZ5194ZCQMWU","","556.5","img/animal3.png","76","560.1999999992549","3","1","3","1,0.5,0,0,1,0.5,0.5,0,1",""
"","html-keyboard-response","133","117075","0.0-133.0","3AWETUDC93EJN74H6Z6G1VST4VOIZG","ACSS93E03ZUGX","3A3KKYU7P33Z3BR9PPFZ5194ZCQMWU","","null","<img src=""img/animal3.png"" style=""width:200px; border:14px solid green;"">","null","","","","","",""
"","image-keyboard-response","134","117999","0.0-134.0","3AWETUDC93EJN74H6Z6G1VST4VOIZG","ACSS93E03ZUGX","3A3KKYU7P33Z3BR9PPFZ5194ZCQMWU","","919.2000000029802","img/animal3.png","76","922.5999999977648","3","1","3","1,0.5,0,0,1,0.5,0.5,0,1",""
"","html-keyboard-response","135","118308","0.0-135.0","3AWETUDC93EJN74H6Z6G1VST4VOIZG","ACSS93E03ZUGX","3A3KKYU7P33Z3BR9PPFZ5194ZCQMWU","","null","<img src=""img/animal3.png"" style=""width:200px; border:14px solid green;"">","null","","","","","",""
"","image-keyboard-response","136","119389","0.0-136.0","3AWETUDC93EJN74H6Z6G1VST4VOIZG","ACSS93E03ZUGX","3A3KKYU7P33Z3BR9PPFZ5194ZCQMWU","","1076.8999999985099","img/animal1.png","74","1080.1000000014901","1","0","2","1,0.5,0,0,1,0.5,0.5,0,1",""
"","html-keyboard-response","137","119700","0.0-137.0","3AWETUDC93EJN74H6Z6G1VST4VOIZG","ACSS93E03ZUGX","3A3KKYU7P33Z3BR9PPFZ5194ZCQMWU","","null","<img src=""img/animal1.png"" style=""width:200px;border:14px solid red;"">","null","","","","","",""
"","image-keyboard-response","138","120253","0.0-138.0","3AWETUDC93EJN74H6Z6G1VST4VOIZG","ACSS93E03ZUGX","3A3KKYU7P33Z3BR9PPFZ5194ZCQMWU","","549.2999999970198","img/animal1.png","74","552.6999999992549","1","0","2","1,0.5,0,0,1,0.5,0.5,0,1",""
"","html-keyboard-response","139","120563","0.0-139.0","3AWETUDC93EJN74H6Z6G1VST4VOIZG","ACSS93E03ZUGX","3A3KKYU7P33Z3BR9PPFZ5194ZCQMWU","","null","<img src=""img/animal1.png"" style=""width:200px;border:14px solid red;"">","null","","","","","",""
"","image-keyboard-response","140","121667","0.0-140.0","3AWETUDC93EJN74H6Z6G1VST4VOIZG","ACSS93E03ZUGX","3A3KKYU7P33Z3BR9PPFZ5194ZCQMWU","","1100.1000000014901","img/animal4.png","75","1103.699999999255","2","0","1","1,0.5,0,0,1,0.5,0.5,0,1",""
"","html-keyboard-response","141","121980","0.0-141.0","3AWETUDC93EJN74H6Z6G1VST4VOIZG","ACSS93E03ZUGX","3A3KKYU7P33Z3BR9PPFZ5194ZCQMWU","","null","<img src=""img/animal4.png"" style=""width:200px;border:14px solid red;"">","null","","","","","",""
"","image-keyboard-response","142","122532","0.0-142.0","3AWETUDC93EJN74H6Z6G1VST4VOIZG","ACSS93E03ZUGX","3A3KKYU7P33Z3BR9PPFZ5194ZCQMWU","","547.8000000007451","img/animal1.png","74","551.4000000022352","1","0","2","1,0.5,0,0,1,0.5,0.5,0,1",""
"","html-keyboard-response","143","122843","0.0-143.0","3AWETUDC93EJN74H6Z6G1VST4VOIZG","ACSS93E03ZUGX","3A3KKYU7P33Z3BR9PPFZ5194ZCQMWU","","null","<img src=""img/animal1.png"" style=""width:200px;border:14px solid red;"">","null","","","","","",""
"","image-keyboard-response","144","123451","0.0-144.0","3AWETUDC93EJN74H6Z6G1VST4VOIZG","ACSS93E03ZUGX","3A3KKYU7P33Z3BR9PPFZ5194ZCQMWU","","602.6000000014901","img/animal4.png","74","606.5","1","1","1","1,0.5,0,0,1,0.5,0.5,0,1",""
"","html-keyboard-response","145","123763","0.0-145.0","3AWETUDC93EJN74H6Z6G1VST4VOIZG","ACSS93E03ZUGX","3A3KKYU7P33Z3BR9PPFZ5194ZCQMWU","","null","<img src=""img/animal4.png"" style=""width:200px; border:14px solid green;"">","null","","","","","",""
"","image-keyboard-response","146","124531","0.0-146.0","3AWETUDC93EJN74H6Z6G1VST4VOIZG","ACSS93E03ZUGX","3A3KKYU7P33Z3BR9PPFZ5194ZCQMWU","","763.8999999985099","img/animal3.png","74","767.1999999992549","1","0","3","1,0.5,0,0,1,0.5,0.5,0,1",""
"","html-keyboard-response","147","124843","0.0-147.0","3AWETUDC93EJN74H6Z6G1VST4VOIZG","ACSS93E03ZUGX","3A3KKYU7P33Z3BR9PPFZ5194ZCQMWU","","null","<img src=""img/animal3.png"" style=""width:200px;border:14px solid red;"">","null","","","","","",""
"","image-keyboard-response","148","126062","0.0-148.0","3AWETUDC93EJN74H6Z6G1VST4VOIZG","ACSS93E03ZUGX","3A3KKYU7P33Z3BR9PPFZ5194ZCQMWU","","1213.4000000022352","img/animal3.png","75","1217.9000000022352","2","0","3","1,0.5,0,0,1,0.5,0.5,0,1",""
"","html-keyboard-response","149","126371","0.0-149.0","3AWETUDC93EJN74H6Z6G1VST4VOIZG","ACSS93E03ZUGX","3A3KKYU7P33Z3BR9PPFZ5194ZCQMWU","","null","<img src=""img/animal3.png"" style=""width:200px;border:14px solid red;"">","null","","","","","",""
"","image-keyboard-response","150","126983","0.0-150.0","3AWETUDC93EJN74H6Z6G1VST4VOIZG","ACSS93E03ZUGX","3A3KKYU7P33Z3BR9PPFZ5194ZCQMWU","","607.5999999977648","img/animal1.png","74","610.8000000007451","1","0","2","1,0.5,0,0,1,0.5,0.5,0,1",""
"","html-keyboard-response","151","127291","0.0-151.0","3AWETUDC93EJN74H6Z6G1VST4VOIZG","ACSS93E03ZUGX","3A3KKYU7P33Z3BR9PPFZ5194ZCQMWU","","null","<img src=""img/animal1.png"" style=""width:200px;border:14px solid red;"">","null","","","","","",""
"","image-keyboard-response","152","128031","0.0-152.0","3AWETUDC93EJN74H6Z6G1VST4VOIZG","ACSS93E03ZUGX","3A3KKYU7P33Z3BR9PPFZ5194ZCQMWU","","736.2999999970198","img/animal4.png","75","739.3999999985099","2","0","1","1,0.5,0,0,1,0.5,0.5,0,1",""
"","html-keyboard-response","153","128339","0.0-153.0","3AWETUDC93EJN74H6Z6G1VST4VOIZG","ACSS93E03ZUGX","3A3KKYU7P33Z3BR9PPFZ5194ZCQMWU","","null","<img src=""img/animal4.png"" style=""width:200px;border:14px solid red;"">","null","","","","","",""
"","image-keyboard-response","154","129037","0.0-154.0","3AWETUDC93EJN74H6Z6G1VST4VOIZG","ACSS93E03ZUGX","3A3KKYU7P33Z3BR9PPFZ5194ZCQMWU","","694.1999999992549","img/animal1.png","76","697.6000000014901","3","1","2","1,0.5,0,0,1,0.5,0.5,0,1",""
"","html-keyboard-response","155","129347","0.0-155.0","3AWETUDC93EJN74H6Z6G1VST4VOIZG","ACSS93E03ZUGX","3A3KKYU7P33Z3BR9PPFZ5194ZCQMWU","","null","<img src=""img/animal1.png"" style=""width:200px; border:14px solid green;"">","null","","","","","",""
"","image-keyboard-response","156","130122","0.0-156.0","3AWETUDC93EJN74H6Z6G1VST4VOIZG","ACSS93E03ZUGX","3A3KKYU7P33Z3BR9PPFZ5194ZCQMWU","","770.3999999985099","img/animal4.png","75","774","2","0","1","1,0.5,0,0,1,0.5,0.5,0,1",""
"","html-keyboard-response","157","130427","0.0-157.0","3AWETUDC93EJN74H6Z6G1VST4VOIZG","ACSS93E03ZUGX","3A3KKYU7P33Z3BR9PPFZ5194ZCQMWU","","null","<img src=""img/animal4.png"" style=""width:200px;border:14px solid red;"">","null","","","","","",""
"","image-keyboard-response","158","130999","0.0-158.0","3AWETUDC93EJN74H6Z6G1VST4VOIZG","ACSS93E03ZUGX","3A3KKYU7P33Z3BR9PPFZ5194ZCQMWU","","567.8000000007451","img/animal1.png","75","571.5999999977648","2","1","2","1,0.5,0,0,1,0.5,0.5,0,1",""
"","html-keyboard-response","159","131308","0.0-159.0","3AWETUDC93EJN74H6Z6G1VST4VOIZG","ACSS93E03ZUGX","3A3KKYU7P33Z3BR9PPFZ5194ZCQMWU","","null","<img src=""img/animal1.png"" style=""width:200px; border:14px solid green;"">","null","","","","","",""
"","image-keyboard-response","160","132218","0.0-160.0","3AWETUDC93EJN74H6Z6G1VST4VOIZG","ACSS93E03ZUGX","3A3KKYU7P33Z3BR9PPFZ5194ZCQMWU","","906.9000000022352","img/animal3.png","74","910.1000000014901","1","0","3","1,0.5,0,0,1,0.5,0.5,0,1",""
"","html-keyboard-response","161","132523","0.0-161.0","3AWETUDC93EJN74H6Z6G1VST4VOIZG","ACSS93E03ZUGX","3A3KKYU7P33Z3BR9PPFZ5194ZCQMWU","","null","<img src=""img/animal3.png"" style=""width:200px;border:14px solid red;"">","null","","","","","",""
"","image-keyboard-response","162","133110","0.0-162.0","3AWETUDC93EJN74H6Z6G1VST4VOIZG","ACSS93E03ZUGX","3A3KKYU7P33Z3BR9PPFZ5194ZCQMWU","","582.8999999985099","img/animal4.png","75","586.3000000007451","2","0","1","1,0.5,0,0,1,0.5,0.5,0,1",""
"","html-keyboard-response","163","133419","0.0-163.0","3AWETUDC93EJN74H6Z6G1VST4VOIZG","ACSS93E03ZUGX","3A3KKYU7P33Z3BR9PPFZ5194ZCQMWU","","null","<img src=""img/animal4.png"" style=""width:200px;border:14px solid red;"">","null","","","","","",""
"","image-keyboard-response","164","134059","0.0-164.0","3AWETUDC93EJN74H6Z6G1VST4VOIZG","ACSS93E03ZUGX","3A3KKYU7P33Z3BR9PPFZ5194ZCQMWU","","635.4000000022352","img/animal4.png","76","638.8000000007451","3","0","1","1,0.5,0,0,1,0.5,0.5,0,1",""
"","html-keyboard-response","165","134371","0.0-165.0","3AWETUDC93EJN74H6Z6G1VST4VOIZG","ACSS93E03ZUGX","3A3KKYU7P33Z3BR9PPFZ5194ZCQMWU","","null","<img src=""img/animal4.png"" style=""width:200px;border:14px solid red;"">","null","","","","","",""
"","image-keyboard-response","166","134780","0.0-166.0","3AWETUDC93EJN74H6Z6G1VST4VOIZG","ACSS93E03ZUGX","3A3KKYU7P33Z3BR9PPFZ5194ZCQMWU","","404.5999999977648","img/animal4.png","75","408","2","1","1","1,0.5,0,0,1,0.5,0.5,0,1",""
"","html-keyboard-response","167","135091","0.0-167.0","3AWETUDC93EJN74H6Z6G1VST4VOIZG","ACSS93E03ZUGX","3A3KKYU7P33Z3BR9PPFZ5194ZCQMWU","","null","<img src=""img/animal4.png"" style=""width:200px; border:14px solid green;"">","null","","","","","",""
"","image-keyboard-response","168","135803","0.0-168.0","3AWETUDC93EJN74H6Z6G1VST4VOIZG","ACSS93E03ZUGX","3A3KKYU7P33Z3BR9PPFZ5194ZCQMWU","","709.1000000014901","img/animal3.png","74","711.6999999992549","1","0","3","1,0.5,0,0,1,0.5,0.5,0,1",""
"","html-keyboard-response","169","136111","0.0-169.0","3AWETUDC93EJN74H6Z6G1VST4VOIZG","ACSS93E03ZUGX","3A3KKYU7P33Z3BR9PPFZ5194ZCQMWU","","null","<img src=""img/animal3.png"" style=""width:200px;border:14px solid red;"">","null","","","","","",""
"","image-keyboard-response","170","136564","0.0-170.0","3AWETUDC93EJN74H6Z6G1VST4VOIZG","ACSS93E03ZUGX","3A3KKYU7P33Z3BR9PPFZ5194ZCQMWU","","448.79999999701977","img/animal3.png","75","452.19999999925494","2","0","3","1,0.5,0,0,1,0.5,0.5,0,1",""
"","html-keyboard-response","171","136875","0.0-171.0","3AWETUDC93EJN74H6Z6G1VST4VOIZG","ACSS93E03ZUGX","3A3KKYU7P33Z3BR9PPFZ5194ZCQMWU","","null","<img src=""img/animal3.png"" style=""width:200px;border:14px solid red;"">","null","","","","","",""
"","image-keyboard-response","172","137277","0.0-172.0","3AWETUDC93EJN74H6Z6G1VST4VOIZG","ACSS93E03ZUGX","3A3KKYU7P33Z3BR9PPFZ5194ZCQMWU","","397.9000000022352","img/animal4.png","76","401.5","3","0","1","1,0.5,0,0,1,0.5,0.5,0,1",""
"","html-keyboard-response","173","137587","0.0-173.0","3AWETUDC93EJN74H6Z6G1VST4VOIZG","ACSS93E03ZUGX","3A3KKYU7P33Z3BR9PPFZ5194ZCQMWU","","null","<img src=""img/animal4.png"" style=""width:200px;border:14px solid red;"">","null","","","","","",""
"","image-keyboard-response","174","138381","0.0-174.0","3AWETUDC93EJN74H6Z6G1VST4VOIZG","ACSS93E03ZUGX","3A3KKYU7P33Z3BR9PPFZ5194ZCQMWU","","790.3000000007451","img/animal3.png","74","793.7000000029802","1","0","3","1,0.5,0,0,1,0.5,0.5,0,1",""
"","html-keyboard-response","175","138694","0.0-175.0","3AWETUDC93EJN74H6Z6G1VST4VOIZG","ACSS93E03ZUGX","3A3KKYU7P33Z3BR9PPFZ5194ZCQMWU","","null","<img src=""img/animal3.png"" style=""width:200px;border:14px solid red;"">","null","","","","","",""
"","image-keyboard-response","176","139422","0.0-176.0","3AWETUDC93EJN74H6Z6G1VST4VOIZG","ACSS93E03ZUGX","3A3KKYU7P33Z3BR9PPFZ5194ZCQMWU","","724.1000000014901","img/animal1.png","75","727.6000000014901","2","1","2","1,0.5,0,0,1,0.5,0.5,0,1",""
"","html-keyboard-response","177","139732","0.0-177.0","3AWETUDC93EJN74H6Z6G1VST4VOIZG","ACSS93E03ZUGX","3A3KKYU7P33Z3BR9PPFZ5194ZCQMWU","","null","<img src=""img/animal1.png"" style=""width:200px; border:14px solid green;"">","null","","","","","",""
"","image-keyboard-response","178","140502","0.0-178.0","3AWETUDC93EJN74H6Z6G1VST4VOIZG","ACSS93E03ZUGX","3A3KKYU7P33Z3BR9PPFZ5194ZCQMWU","","766.1999999992549","img/animal3.png","74","769.6999999992549","1","0","3","1,0.5,0,0,1,0.5,0.5,0,1",""
"","html-keyboard-response","179","140811","0.0-179.0","3AWETUDC93EJN74H6Z6G1VST4VOIZG","ACSS93E03ZUGX","3A3KKYU7P33Z3BR9PPFZ5194ZCQMWU","","null","<img src=""img/animal3.png"" style=""width:200px;border:14px solid red;"">","null","","","","","",""
"","image-keyboard-response","180","143431","0.0-180.0","3AWETUDC93EJN74H6Z6G1VST4VOIZG","ACSS93E03ZUGX","3A3KKYU7P33Z3BR9PPFZ5194ZCQMWU","","2615.5","img/animal1.png","74","2618.900000002235","1","0","2","1,0.5,0,0,1,0.5,0.5,0,1",""
"","html-keyboard-response","181","143739","0.0-181.0","3AWETUDC93EJN74H6Z6G1VST4VOIZG","ACSS93E03ZUGX","3A3KKYU7P33Z3BR9PPFZ5194ZCQMWU","","null","<img src=""img/animal1.png"" style=""width:200px;border:14px solid red;"">","null","","","","","",""
"","html-keyboard-response","182","253154","0.0-182.0","3AWETUDC93EJN74H6Z6G1VST4VOIZG","ACSS93E03ZUGX","3A3KKYU7P33Z3BR9PPFZ5194ZCQMWU","","","","","","","","","",""
"","image-keyboard-response","183","254260","0.0-183.0","3AWETUDC93EJN74H6Z6G1VST4VOIZG","ACSS93E03ZUGX","3A3KKYU7P33Z3BR9PPFZ5194ZCQMWU","","1101.8999999985099","img/animal6.png","74","1105.6000000014901","1","0","3","1,0.5,0,1,0,0.5,0.5,0,1",""
"","html-keyboard-response","184","254571","0.0-184.0","3AWETUDC93EJN74H6Z6G1VST4VOIZG","ACSS93E03ZUGX","3A3KKYU7P33Z3BR9PPFZ5194ZCQMWU","","null","<img src=""img/animal6.png"" style=""width:200px;border:14px solid red;"">","null","","","","","",""
"","image-keyboard-response","185","255506","0.0-185.0","3AWETUDC93EJN74H6Z6G1VST4VOIZG","ACSS93E03ZUGX","3A3KKYU7P33Z3BR9PPFZ5194ZCQMWU","","928.8999999985099","img/animal6.png","75","933.1000000014901","2","0","3","1,0.5,0,1,0,0.5,0.5,0,1",""
"","html-keyboard-response","186","255811","0.0-186.0","3AWETUDC93EJN74H6Z6G1VST4VOIZG","ACSS93E03ZUGX","3A3KKYU7P33Z3BR9PPFZ5194ZCQMWU","","null","<img src=""img/animal6.png"" style=""width:200px;border:14px solid red;"">","null","","","","","",""
"","image-keyboard-response","187","256609","0.0-187.0","3AWETUDC93EJN74H6Z6G1VST4VOIZG","ACSS93E03ZUGX","3A3KKYU7P33Z3BR9PPFZ5194ZCQMWU","","794","img/animal2.png","76","797.5","3","0","1","1,0.5,0,1,0,0.5,0.5,0,1",""
"","html-keyboard-response","188","256916","0.0-188.0","3AWETUDC93EJN74H6Z6G1VST4VOIZG","ACSS93E03ZUGX","3A3KKYU7P33Z3BR9PPFZ5194ZCQMWU","","null","<img src=""img/animal2.png"" style=""width:200px;border:14px solid red;"">","null","","","","","",""
"","image-keyboard-response","189","257749","0.0-189.0","3AWETUDC93EJN74H6Z6G1VST4VOIZG","ACSS93E03ZUGX","3A3KKYU7P33Z3BR9PPFZ5194ZCQMWU","","828.6000000014901","img/animal5.png","74","832.8000000007451","1","1","2","1,0.5,0,1,0,0.5,0.5,0,1",""
"","html-keyboard-response","190","258059","0.0-190.0","3AWETUDC93EJN74H6Z6G1VST4VOIZG","ACSS93E03ZUGX","3A3KKYU7P33Z3BR9PPFZ5194ZCQMWU","","null","<img src=""img/animal5.png"" style=""width:200px; border:14px solid green;"">","null","","","","","",""
"","image-keyboard-response","191","258850","0.0-191.0","3AWETUDC93EJN74H6Z6G1VST4VOIZG","ACSS93E03ZUGX","3A3KKYU7P33Z3BR9PPFZ5194ZCQMWU","","785.7000000029802","img/animal6.png","75","789.3999999985099","2","0","3","1,0.5,0,1,0,0.5,0.5,0,1",""
"","html-keyboard-response","192","259155","0.0-192.0","3AWETUDC93EJN74H6Z6G1VST4VOIZG","ACSS93E03ZUGX","3A3KKYU7P33Z3BR9PPFZ5194ZCQMWU","","null","<img src=""img/animal6.png"" style=""width:200px;border:14px solid red;"">","null","","","","","",""
"","image-keyboard-response","193","260268","0.0-193.0","3AWETUDC93EJN74H6Z6G1VST4VOIZG","ACSS93E03ZUGX","3A3KKYU7P33Z3BR9PPFZ5194ZCQMWU","","1108","img/animal6.png","74","1112","1","1","3","1,0.5,0,1,0,0.5,0.5,0,1",""
"","html-keyboard-response","194","260577","0.0-194.0","3AWETUDC93EJN74H6Z6G1VST4VOIZG","ACSS93E03ZUGX","3A3KKYU7P33Z3BR9PPFZ5194ZCQMWU","","null","<img src=""img/animal6.png"" style=""width:200px; border:14px solid green;"">","null","","","","","",""
"","image-keyboard-response","195","261346","0.0-195.0","3AWETUDC93EJN74H6Z6G1VST4VOIZG","ACSS93E03ZUGX","3A3KKYU7P33Z3BR9PPFZ5194ZCQMWU","","765.3000000007451","img/animal6.png","74","768.7000000029802","1","1","3","1,0.5,0,1,0,0.5,0.5,0,1",""
"","html-keyboard-response","196","261660","0.0-196.0","3AWETUDC93EJN74H6Z6G1VST4VOIZG","ACSS93E03ZUGX","3A3KKYU7P33Z3BR9PPFZ5194ZCQMWU","","null","<img src=""img/animal6.png"" style=""width:200px; border:14px solid green;"">","null","","","","","",""
"","image-keyboard-response","197","262476","0.0-197.0","3AWETUDC93EJN74H6Z6G1VST4VOIZG","ACSS93E03ZUGX","3A3KKYU7P33Z3BR9PPFZ5194ZCQMWU","","812","img/animal2.png","74","815.5","1","1","1","1,0.5,0,1,0,0.5,0.5,0,1",""
"","html-keyboard-response","198","262787","0.0-198.0","3AWETUDC93EJN74H6Z6G1VST4VOIZG","ACSS93E03ZUGX","3A3KKYU7P33Z3BR9PPFZ5194ZCQMWU","","null","<img src=""img/animal2.png"" style=""width:200px; border:14px solid green;"">","null","","","","","",""
"","image-keyboard-response","199","263726","0.0-199.0","3AWETUDC93EJN74H6Z6G1VST4VOIZG","ACSS93E03ZUGX","3A3KKYU7P33Z3BR9PPFZ5194ZCQMWU","","934.4000000022352","img/animal5.png","76","937.5","3","0","2","1,0.5,0,1,0,0.5,0.5,0,1",""
"","html-keyboard-response","200","264035","0.0-200.0","3AWETUDC93EJN74H6Z6G1VST4VOIZG","ACSS93E03ZUGX","3A3KKYU7P33Z3BR9PPFZ5194ZCQMWU","","null","<img src=""img/animal5.png"" style=""width:200px;border:14px solid red;"">","null","","","","","",""
"","image-keyboard-response","201","266105","0.0-201.0","3AWETUDC93EJN74H6Z6G1VST4VOIZG","ACSS93E03ZUGX","3A3KKYU7P33Z3BR9PPFZ5194ZCQMWU","","2066.39999999851","img/animal6.png","74","2069.2999999970198","1","0","3","1,0.5,0,1,0,0.5,0.5,0,1",""
"","html-keyboard-response","202","266412","0.0-202.0","3AWETUDC93EJN74H6Z6G1VST4VOIZG","ACSS93E03ZUGX","3A3KKYU7P33Z3BR9PPFZ5194ZCQMWU","","null","<img src=""img/animal6.png"" style=""width:200px;border:14px solid red;"">","null","","","","","",""
"","image-keyboard-response","203","267335","0.0-203.0","3AWETUDC93EJN74H6Z6G1VST4VOIZG","ACSS93E03ZUGX","3A3KKYU7P33Z3BR9PPFZ5194ZCQMWU","","918.8999999985099","img/animal6.png","75","922.3999999985099","2","0","3","1,0.5,0,1,0,0.5,0.5,0,1",""
"","html-keyboard-response","204","267643","0.0-204.0","3AWETUDC93EJN74H6Z6G1VST4VOIZG","ACSS93E03ZUGX","3A3KKYU7P33Z3BR9PPFZ5194ZCQMWU","","null","<img src=""img/animal6.png"" style=""width:200px;border:14px solid red;"">","null","","","","","",""
"","image-keyboard-response","205","269110","0.0-205.0","3AWETUDC93EJN74H6Z6G1VST4VOIZG","ACSS93E03ZUGX","3A3KKYU7P33Z3BR9PPFZ5194ZCQMWU","","1462.300000000745","img/animal2.png","76","1466.0999999977648","3","0","1","1,0.5,0,1,0,0.5,0.5,0,1",""
"","html-keyboard-response","206","269419","0.0-206.0","3AWETUDC93EJN74H6Z6G1VST4VOIZG","ACSS93E03ZUGX","3A3KKYU7P33Z3BR9PPFZ5194ZCQMWU","","null","<img src=""img/animal2.png"" style=""width:200px;border:14px solid red;"">","null","","","","","",""
"","image-keyboard-response","207","270688","0.0-207.0","3AWETUDC93EJN74H6Z6G1VST4VOIZG","ACSS93E03ZUGX","3A3KKYU7P33Z3BR9PPFZ5194ZCQMWU","","1265.5","img/animal2.png","75","1268.5","2","0","1","1,0.5,0,1,0,0.5,0.5,0,1",""
"","html-keyboard-response","208","270996","0.0-208.0","3AWETUDC93EJN74H6Z6G1VST4VOIZG","ACSS93E03ZUGX","3A3KKYU7P33Z3BR9PPFZ5194ZCQMWU","","null","<img src=""img/animal2.png"" style=""width:200px;border:14px solid red;"">","null","","","","","",""
"","image-keyboard-response","209","272039","0.0-209.0","3AWETUDC93EJN74H6Z6G1VST4VOIZG","ACSS93E03ZUGX","3A3KKYU7P33Z3BR9PPFZ5194ZCQMWU","","1038.9000000022352","img/animal5.png","74","1042.4000000022352","1","1","2","1,0.5,0,1,0,0.5,0.5,0,1",""
"","html-keyboard-response","210","272347","0.0-210.0","3AWETUDC93EJN74H6Z6G1VST4VOIZG","ACSS93E03ZUGX","3A3KKYU7P33Z3BR9PPFZ5194ZCQMWU","","null","<img src=""img/animal5.png"" style=""width:200px; border:14px solid green;"">","null","","","","","",""
"","image-keyboard-response","211","274028","0.0-211.0","3AWETUDC93EJN74H6Z6G1VST4VOIZG","ACSS93E03ZUGX","3A3KKYU7P33Z3BR9PPFZ5194ZCQMWU","","1677.199999999255","img/animal5.png","74","1680.5","1","1","2","1,0.5,0,1,0,0.5,0.5,0,1",""
"","html-keyboard-response","212","274340","0.0-212.0","3AWETUDC93EJN74H6Z6G1VST4VOIZG","ACSS93E03ZUGX","3A3KKYU7P33Z3BR9PPFZ5194ZCQMWU","","null","<img src=""img/animal5.png"" style=""width:200px; border:14px solid green;"">","null","","","","","",""
"","image-keyboard-response","213","275026","0.0-213.0","3AWETUDC93EJN74H6Z6G1VST4VOIZG","ACSS93E03ZUGX","3A3KKYU7P33Z3BR9PPFZ5194ZCQMWU","","678.5","img/animal5.png","74","684.6999999992549","1","1","2","1,0.5,0,1,0,0.5,0.5,0,1",""
"","html-keyboard-response","214","275332","0.0-214.0","3AWETUDC93EJN74H6Z6G1VST4VOIZG","ACSS93E03ZUGX","3A3KKYU7P33Z3BR9PPFZ5194ZCQMWU","","null","<img src=""img/animal5.png"" style=""width:200px; border:14px solid green;"">","null","","","","","",""
"","image-keyboard-response","215","276150","0.0-215.0","3AWETUDC93EJN74H6Z6G1VST4VOIZG","ACSS93E03ZUGX","3A3KKYU7P33Z3BR9PPFZ5194ZCQMWU","","814.1999999992549","img/animal2.png","75","817.8000000007451","2","1","1","1,0.5,0,1,0,0.5,0.5,0,1",""
"","html-keyboard-response","216","276459","0.0-216.0","3AWETUDC93EJN74H6Z6G1VST4VOIZG","ACSS93E03ZUGX","3A3KKYU7P33Z3BR9PPFZ5194ZCQMWU","","null","<img src=""img/animal2.png"" style=""width:200px; border:14px solid green;"">","null","","","","","",""
"","image-keyboard-response","217","277565","0.0-217.0","3AWETUDC93EJN74H6Z6G1VST4VOIZG","ACSS93E03ZUGX","3A3KKYU7P33Z3BR9PPFZ5194ZCQMWU","","1101.1000000014901","img/animal6.png","74","1104.800000000745","1","1","3","1,0.5,0,1,0,0.5,0.5,0,1",""
"","html-keyboard-response","218","277875","0.0-218.0","3AWETUDC93EJN74H6Z6G1VST4VOIZG","ACSS93E03ZUGX","3A3KKYU7P33Z3BR9PPFZ5194ZCQMWU","","null","<img src=""img/animal6.png"" style=""width:200px; border:14px solid green;"">","null","","","","","",""
"","image-keyboard-response","219","278884","0.0-219.0","3AWETUDC93EJN74H6Z6G1VST4VOIZG","ACSS93E03ZUGX","3A3KKYU7P33Z3BR9PPFZ5194ZCQMWU","","1004.3999999985099","img/animal5.png","76","1007.5999999977648","3","1","2","1,0.5,0,1,0,0.5,0.5,0,1",""
"","html-keyboard-response","220","279195","0.0-220.0","3AWETUDC93EJN74H6Z6G1VST4VOIZG","ACSS93E03ZUGX","3A3KKYU7P33Z3BR9PPFZ5194ZCQMWU","","null","<img src=""img/animal5.png"" style=""width:200px; border:14px solid green;"">","null","","","","","",""
"","image-keyboard-response","221","279817","0.0-221.0","3AWETUDC93EJN74H6Z6G1VST4VOIZG","ACSS93E03ZUGX","3A3KKYU7P33Z3BR9PPFZ5194ZCQMWU","","617.4000000022352","img/animal2.png","75","621","2","1","1","1,0.5,0,1,0,0.5,0.5,0,1",""
"","html-keyboard-response","222","280123","0.0-222.0","3AWETUDC93EJN74H6Z6G1VST4VOIZG","ACSS93E03ZUGX","3A3KKYU7P33Z3BR9PPFZ5194ZCQMWU","","null","<img src=""img/animal2.png"" style=""width:200px; border:14px solid green;"">","null","","","","","",""
"","image-keyboard-response","223","280839","0.0-223.0","3AWETUDC93EJN74H6Z6G1VST4VOIZG","ACSS93E03ZUGX","3A3KKYU7P33Z3BR9PPFZ5194ZCQMWU","","711","img/animal5.png","76","717.8000000007451","3","1","2","1,0.5,0,1,0,0.5,0.5,0,1",""
"","html-keyboard-response","224","281156","0.0-224.0","3AWETUDC93EJN74H6Z6G1VST4VOIZG","ACSS93E03ZUGX","3A3KKYU7P33Z3BR9PPFZ5194ZCQMWU","","null","<img src=""img/animal5.png"" style=""width:200px; border:14px solid green;"">","null","","","","","",""
"","image-keyboard-response","225","281807","0.0-225.0","3AWETUDC93EJN74H6Z6G1VST4VOIZG","ACSS93E03ZUGX","3A3KKYU7P33Z3BR9PPFZ5194ZCQMWU","","647.1999999992549","img/animal5.png","76","650.6000000014901","3","0","2","1,0.5,0,1,0,0.5,0.5,0,1",""
"","html-keyboard-response","226","282115","0.0-226.0","3AWETUDC93EJN74H6Z6G1VST4VOIZG","ACSS93E03ZUGX","3A3KKYU7P33Z3BR9PPFZ5194ZCQMWU","","null","<img src=""img/animal5.png"" style=""width:200px;border:14px solid red;"">","null","","","","","",""
"","image-keyboard-response","227","282798","0.0-227.0","3AWETUDC93EJN74H6Z6G1VST4VOIZG","ACSS93E03ZUGX","3A3KKYU7P33Z3BR9PPFZ5194ZCQMWU","","679.3000000007451","img/animal5.png","76","682.5","3","1","2","1,0.5,0,1,0,0.5,0.5,0,1",""
"","html-keyboard-response","228","283107","0.0-228.0","3AWETUDC93EJN74H6Z6G1VST4VOIZG","ACSS93E03ZUGX","3A3KKYU7P33Z3BR9PPFZ5194ZCQMWU","","null","<img src=""img/animal5.png"" style=""width:200px; border:14px solid green;"">","null","","","","","",""
"","image-keyboard-response","229","283737","0.0-229.0","3AWETUDC93EJN74H6Z6G1VST4VOIZG","ACSS93E03ZUGX","3A3KKYU7P33Z3BR9PPFZ5194ZCQMWU","","625.5","img/animal5.png","76","629.1000000014901","3","1","2","1,0.5,0,1,0,0.5,0.5,0,1",""
"","html-keyboard-response","230","284043","0.0-230.0","3AWETUDC93EJN74H6Z6G1VST4VOIZG","ACSS93E03ZUGX","3A3KKYU7P33Z3BR9PPFZ5194ZCQMWU","","null","<img src=""img/animal5.png"" style=""width:200px; border:14px solid green;"">","null","","","","","",""
"","image-keyboard-response","231","284750","0.0-231.0","3AWETUDC93EJN74H6Z6G1VST4VOIZG","ACSS93E03ZUGX","3A3KKYU7P33Z3BR9PPFZ5194ZCQMWU","","703","img/animal2.png","75","706.0999999977648","2","1","1","1,0.5,0,1,0,0.5,0.5,0,1",""
"","html-keyboard-response","232","285059","0.0-232.0","3AWETUDC93EJN74H6Z6G1VST4VOIZG","ACSS93E03ZUGX","3A3KKYU7P33Z3BR9PPFZ5194ZCQMWU","","null","<img src=""img/animal2.png"" style=""width:200px; border:14px solid green;"">","null","","","","","",""
"","image-keyboard-response","233","285542","0.0-233.0","3AWETUDC93EJN74H6Z6G1VST4VOIZG","ACSS93E03ZUGX","3A3KKYU7P33Z3BR9PPFZ5194ZCQMWU","","479.5","img/animal2.png","75","482.80000000074506","2","1","1","1,0.5,0,1,0,0.5,0.5,0,1",""
"","html-keyboard-response","234","285852","0.0-234.0","3AWETUDC93EJN74H6Z6G1VST4VOIZG","ACSS93E03ZUGX","3A3KKYU7P33Z3BR9PPFZ5194ZCQMWU","","null","<img src=""img/animal2.png"" style=""width:200px; border:14px solid green;"">","null","","","","","",""
"","image-keyboard-response","235","286859","0.0-235.0","3AWETUDC93EJN74H6Z6G1VST4VOIZG","ACSS93E03ZUGX","3A3KKYU7P33Z3BR9PPFZ5194ZCQMWU","","1002.5","img/animal5.png","74","1006.1999999992549","1","1","2","1,0.5,0,1,0,0.5,0.5,0,1",""
"","html-keyboard-response","236","287163","0.0-236.0","3AWETUDC93EJN74H6Z6G1VST4VOIZG","ACSS93E03ZUGX","3A3KKYU7P33Z3BR9PPFZ5194ZCQMWU","","null","<img src=""img/animal5.png"" style=""width:200px; border:14px solid green;"">","null","","","","","",""
"","image-keyboard-response","237","287731","0.0-237.0","3AWETUDC93EJN74H6Z6G1VST4VOIZG","ACSS93E03ZUGX","3A3KKYU7P33Z3BR9PPFZ5194ZCQMWU","","565.6999999992549","img/animal5.png","76","568.3000000007451","3","0","2","1,0.5,0,1,0,0.5,0.5,0,1",""
"","html-keyboard-response","238","288044","0.0-238.0","3AWETUDC93EJN74H6Z6G1VST4VOIZG","ACSS93E03ZUGX","3A3KKYU7P33Z3BR9PPFZ5194ZCQMWU","","null","<img src=""img/animal5.png"" style=""width:200px;border:14px solid red;"">","null","","","","","",""
"","image-keyboard-response","239","288759","0.0-239.0","3AWETUDC93EJN74H6Z6G1VST4VOIZG","ACSS93E03ZUGX","3A3KKYU7P33Z3BR9PPFZ5194ZCQMWU","","711.3000000007451","img/animal5.png","74","714.7000000029802","1","1","2","1,0.5,0,1,0,0.5,0.5,0,1",""
"","html-keyboard-response","240","289067","0.0-240.0","3AWETUDC93EJN74H6Z6G1VST4VOIZG","ACSS93E03ZUGX","3A3KKYU7P33Z3BR9PPFZ5194ZCQMWU","","null","<img src=""img/animal5.png"" style=""width:200px; border:14px solid green;"">","null","","","","","",""
"","image-keyboard-response","241","289752","0.0-241.0","3AWETUDC93EJN74H6Z6G1VST4VOIZG","ACSS93E03ZUGX","3A3KKYU7P33Z3BR9PPFZ5194ZCQMWU","","680.3999999985099","img/animal5.png","76","683.6999999992549","3","0","2","1,0.5,0,1,0,0.5,0.5,0,1",""
"","html-keyboard-response","242","290057","0.0-242.0","3AWETUDC93EJN74H6Z6G1VST4VOIZG","ACSS93E03ZUGX","3A3KKYU7P33Z3BR9PPFZ5194ZCQMWU","","null","<img src=""img/animal5.png"" style=""width:200px;border:14px solid red;"">","null","","","","","",""
"","image-keyboard-response","243","290918","0.0-243.0","3AWETUDC93EJN74H6Z6G1VST4VOIZG","ACSS93E03ZUGX","3A3KKYU7P33Z3BR9PPFZ5194ZCQMWU","","856.4000000022352","img/animal2.png","75","859.5999999977648","2","0","1","1,0.5,0,1,0,0.5,0.5,0,1",""
"","html-keyboard-response","244","291227","0.0-244.0","3AWETUDC93EJN74H6Z6G1VST4VOIZG","ACSS93E03ZUGX","3A3KKYU7P33Z3BR9PPFZ5194ZCQMWU","","null","<img src=""img/animal2.png"" style=""width:200px;border:14px solid red;"">","null","","","","","",""
"","image-keyboard-response","245","292197","0.0-245.0","3AWETUDC93EJN74H6Z6G1VST4VOIZG","ACSS93E03ZUGX","3A3KKYU7P33Z3BR9PPFZ5194ZCQMWU","","965.5","img/animal6.png","74","969","1","0","3","1,0.5,0,1,0,0.5,0.5,0,1",""
"","html-keyboard-response","246","292507","0.0-246.0","3AWETUDC93EJN74H6Z6G1VST4VOIZG","ACSS93E03ZUGX","3A3KKYU7P33Z3BR9PPFZ5194ZCQMWU","","null","<img src=""img/animal6.png"" style=""width:200px;border:14px solid red;"">","null","","","","","",""
"","image-keyboard-response","247","293297","0.0-247.0","3AWETUDC93EJN74H6Z6G1VST4VOIZG","ACSS93E03ZUGX","3A3KKYU7P33Z3BR9PPFZ5194ZCQMWU","","786.4000000022352","img/animal2.png","75","789.6000000014901","2","0","1","1,0.5,0,1,0,0.5,0.5,0,1",""
"","html-keyboard-response","248","293603","0.0-248.0","3AWETUDC93EJN74H6Z6G1VST4VOIZG","ACSS93E03ZUGX","3A3KKYU7P33Z3BR9PPFZ5194ZCQMWU","","null","<img src=""img/animal2.png"" style=""width:200px;border:14px solid red;"">","null","","","","","",""
"","image-keyboard-response","249","294407","0.0-249.0","3AWETUDC93EJN74H6Z6G1VST4VOIZG","ACSS93E03ZUGX","3A3KKYU7P33Z3BR9PPFZ5194ZCQMWU","","800.1999999992549","img/animal5.png","74","803.6999999992549","1","1","2","1,0.5,0,1,0,0.5,0.5,0,1",""
"","html-keyboard-response","250","294715","0.0-250.0","3AWETUDC93EJN74H6Z6G1VST4VOIZG","ACSS93E03ZUGX","3A3KKYU7P33Z3BR9PPFZ5194ZCQMWU","","null","<img src=""img/animal5.png"" style=""width:200px; border:14px solid green;"">","null","","","","","",""
"","image-keyboard-response","251","295500","0.0-251.0","3AWETUDC93EJN74H6Z6G1VST4VOIZG","ACSS93E03ZUGX","3A3KKYU7P33Z3BR9PPFZ5194ZCQMWU","","781","img/animal6.png","75","784.3000000007451","2","0","3","1,0.5,0,1,0,0.5,0.5,0,1",""
"","html-keyboard-response","252","295810","0.0-252.0","3AWETUDC93EJN74H6Z6G1VST4VOIZG","ACSS93E03ZUGX","3A3KKYU7P33Z3BR9PPFZ5194ZCQMWU","","null","<img src=""img/animal6.png"" style=""width:200px;border:14px solid red;"">","null","","","","","",""
"","image-keyboard-response","253","296426","0.0-253.0","3AWETUDC93EJN74H6Z6G1VST4VOIZG","ACSS93E03ZUGX","3A3KKYU7P33Z3BR9PPFZ5194ZCQMWU","","612.2999999970198","img/animal5.png","74","615.8999999985099","1","1","2","1,0.5,0,1,0,0.5,0.5,0,1",""
"","html-keyboard-response","254","296731","0.0-254.0","3AWETUDC93EJN74H6Z6G1VST4VOIZG","ACSS93E03ZUGX","3A3KKYU7P33Z3BR9PPFZ5194ZCQMWU","","null","<img src=""img/animal5.png"" style=""width:200px; border:14px solid green;"">","null","","","","","",""
"","image-keyboard-response","255","297543","0.0-255.0","3AWETUDC93EJN74H6Z6G1VST4VOIZG","ACSS93E03ZUGX","3A3KKYU7P33Z3BR9PPFZ5194ZCQMWU","","808.3999999985099","img/animal2.png","75","811.6000000014901","2","1","1","1,0.5,0,1,0,0.5,0.5,0,1",""
"","html-keyboard-response","256","297852","0.0-256.0","3AWETUDC93EJN74H6Z6G1VST4VOIZG","ACSS93E03ZUGX","3A3KKYU7P33Z3BR9PPFZ5194ZCQMWU","","null","<img src=""img/animal2.png"" style=""width:200px; border:14px solid green;"">","null","","","","","",""
"","image-keyboard-response","257","298238","0.0-257.0","3AWETUDC93EJN74H6Z6G1VST4VOIZG","ACSS93E03ZUGX","3A3KKYU7P33Z3BR9PPFZ5194ZCQMWU","","382","img/animal2.png","75","385.80000000074506","2","0","1","1,0.5,0,1,0,0.5,0.5,0,1",""
"","html-keyboard-response","258","298547","0.0-258.0","3AWETUDC93EJN74H6Z6G1VST4VOIZG","ACSS93E03ZUGX","3A3KKYU7P33Z3BR9PPFZ5194ZCQMWU","","null","<img src=""img/animal2.png"" style=""width:200px;border:14px solid red;"">","null","","","","","",""
"","image-keyboard-response","259","299245","0.0-259.0","3AWETUDC93EJN74H6Z6G1VST4VOIZG","ACSS93E03ZUGX","3A3KKYU7P33Z3BR9PPFZ5194ZCQMWU","","693.5","img/animal6.png","74","696.6999999992549","1","0","3","1,0.5,0,1,0,0.5,0.5,0,1",""
"","html-keyboard-response","260","299555","0.0-260.0","3AWETUDC93EJN74H6Z6G1VST4VOIZG","ACSS93E03ZUGX","3A3KKYU7P33Z3BR9PPFZ5194ZCQMWU","","null","<img src=""img/animal6.png"" style=""width:200px;border:14px solid red;"">","null","","","","","",""
"","image-keyboard-response","261","300173","0.0-261.0","3AWETUDC93EJN74H6Z6G1VST4VOIZG","ACSS93E03ZUGX","3A3KKYU7P33Z3BR9PPFZ5194ZCQMWU","","613.3000000007451","img/animal6.png","74","616.6999999992549","1","1","3","1,0.5,0,1,0,0.5,0.5,0,1",""
"","html-keyboard-response","262","300484","0.0-262.0","3AWETUDC93EJN74H6Z6G1VST4VOIZG","ACSS93E03ZUGX","3A3KKYU7P33Z3BR9PPFZ5194ZCQMWU","","null","<img src=""img/animal6.png"" style=""width:200px; border:14px solid green;"">","null","","","","","",""
"","image-keyboard-response","263","301242","0.0-263.0","3AWETUDC93EJN74H6Z6G1VST4VOIZG","ACSS93E03ZUGX","3A3KKYU7P33Z3BR9PPFZ5194ZCQMWU","","753.9000000022352","img/animal2.png","75","757.6999999992549","2","0","1","1,0.5,0,1,0,0.5,0.5,0,1",""
"","html-keyboard-response","264","301547","0.0-264.0","3AWETUDC93EJN74H6Z6G1VST4VOIZG","ACSS93E03ZUGX","3A3KKYU7P33Z3BR9PPFZ5194ZCQMWU","","null","<img src=""img/animal2.png"" style=""width:200px;border:14px solid red;"">","null","","","","","",""
"","image-keyboard-response","265","302188","0.0-265.0","3AWETUDC93EJN74H6Z6G1VST4VOIZG","ACSS93E03ZUGX","3A3KKYU7P33Z3BR9PPFZ5194ZCQMWU","","638.3000000007451","img/animal2.png","75","640.8000000007451","2","0","1","1,0.5,0,1,0,0.5,0.5,0,1",""
"","html-keyboard-response","266","302499","0.0-266.0","3AWETUDC93EJN74H6Z6G1VST4VOIZG","ACSS93E03ZUGX","3A3KKYU7P33Z3BR9PPFZ5194ZCQMWU","","null","<img src=""img/animal2.png"" style=""width:200px;border:14px solid red;"">","null","","","","","",""
"","image-keyboard-response","267","303570","0.0-267.0","3AWETUDC93EJN74H6Z6G1VST4VOIZG","ACSS93E03ZUGX","3A3KKYU7P33Z3BR9PPFZ5194ZCQMWU","","1066.0999999977648","img/animal5.png","74","1069.5","1","1","2","1,0.5,0,1,0,0.5,0.5,0,1",""
"","html-keyboard-response","268","303875","0.0-268.0","3AWETUDC93EJN74H6Z6G1VST4VOIZG","ACSS93E03ZUGX","3A3KKYU7P33Z3BR9PPFZ5194ZCQMWU","","null","<img src=""img/animal5.png"" style=""width:200px; border:14px solid green;"">","null","","","","","",""
"","image-keyboard-response","269","304688","0.0-269.0","3AWETUDC93EJN74H6Z6G1VST4VOIZG","ACSS93E03ZUGX","3A3KKYU7P33Z3BR9PPFZ5194ZCQMWU","","809.1999999992549","img/animal2.png","74","812.5","1","1","1","1,0.5,0,1,0,0.5,0.5,0,1",""
"","html-keyboard-response","270","304996","0.0-270.0","3AWETUDC93EJN74H6Z6G1VST4VOIZG","ACSS93E03ZUGX","3A3KKYU7P33Z3BR9PPFZ5194ZCQMWU","","null","<img src=""img/animal2.png"" style=""width:200px; border:14px solid green;"">","null","","","","","",""
"","image-keyboard-response","271","305724","0.0-271.0","3AWETUDC93EJN74H6Z6G1VST4VOIZG","ACSS93E03ZUGX","3A3KKYU7P33Z3BR9PPFZ5194ZCQMWU","","723.7000000029802","img/animal5.png","74","728","1","1","2","1,0.5,0,1,0,0.5,0.5,0,1",""
"","html-keyboard-response","272","306035","0.0-272.0","3AWETUDC93EJN74H6Z6G1VST4VOIZG","ACSS93E03ZUGX","3A3KKYU7P33Z3BR9PPFZ5194ZCQMWU","","null","<img src=""img/animal5.png"" style=""width:200px; border:14px solid green;"">","null","","","","","",""
"","image-keyboard-response","273","306526","0.0-273.0","3AWETUDC93EJN74H6Z6G1VST4VOIZG","ACSS93E03ZUGX","3A3KKYU7P33Z3BR9PPFZ5194ZCQMWU","","486.5","img/animal2.png","74","489.8999999985099","1","1","1","1,0.5,0,1,0,0.5,0.5,0,1",""
"","html-keyboard-response","274","306836","0.0-274.0","3AWETUDC93EJN74H6Z6G1VST4VOIZG","ACSS93E03ZUGX","3A3KKYU7P33Z3BR9PPFZ5194ZCQMWU","","null","<img src=""img/animal2.png"" style=""width:200px; border:14px solid green;"">","null","","","","","",""
"","image-keyboard-response","275","307955","0.0-275.0","3AWETUDC93EJN74H6Z6G1VST4VOIZG","ACSS93E03ZUGX","3A3KKYU7P33Z3BR9PPFZ5194ZCQMWU","","1115.1000000014901","img/animal6.png","75","1118.7000000029802","2","0","3","1,0.5,0,1,0,0.5,0.5,0,1",""
"","html-keyboard-response","276","308267","0.0-276.0","3AWETUDC93EJN74H6Z6G1VST4VOIZG","ACSS93E03ZUGX","3A3KKYU7P33Z3BR9PPFZ5194ZCQMWU","","null","<img src=""img/animal6.png"" style=""width:200px;border:14px solid red;"">","null","","","","","",""
"","image-keyboard-response","277","309440","0.0-277.0","3AWETUDC93EJN74H6Z6G1VST4VOIZG","ACSS93E03ZUGX","3A3KKYU7P33Z3BR9PPFZ5194ZCQMWU","","1168.9000000022352","img/animal2.png","74","1172.300000000745","1","1","1","1,0.5,0,1,0,0.5,0.5,0,1",""
"","html-keyboard-response","278","309748","0.0-278.0","3AWETUDC93EJN74H6Z6G1VST4VOIZG","ACSS93E03ZUGX","3A3KKYU7P33Z3BR9PPFZ5194ZCQMWU","","null","<img src=""img/animal2.png"" style=""width:200px; border:14px solid green;"">","null","","","","","",""
"","image-keyboard-response","279","310675","0.0-279.0","3AWETUDC93EJN74H6Z6G1VST4VOIZG","ACSS93E03ZUGX","3A3KKYU7P33Z3BR9PPFZ5194ZCQMWU","","923.3999999985099","img/animal5.png","74","927","1","1","2","1,0.5,0,1,0,0.5,0.5,0,1",""
"","html-keyboard-response","280","310987","0.0-280.0","3AWETUDC93EJN74H6Z6G1VST4VOIZG","ACSS93E03ZUGX","3A3KKYU7P33Z3BR9PPFZ5194ZCQMWU","","null","<img src=""img/animal5.png"" style=""width:200px; border:14px solid green;"">","null","","","","","",""
"","image-keyboard-response","281","312137","0.0-281.0","3AWETUDC93EJN74H6Z6G1VST4VOIZG","ACSS93E03ZUGX","3A3KKYU7P33Z3BR9PPFZ5194ZCQMWU","","1145.300000000745","img/animal6.png","75","1148.8999999985099","2","0","3","1,0.5,0,1,0,0.5,0.5,0,1",""
"","html-keyboard-response","282","312443","0.0-282.0","3AWETUDC93EJN74H6Z6G1VST4VOIZG","ACSS93E03ZUGX","3A3KKYU7P33Z3BR9PPFZ5194ZCQMWU","","null","<img src=""img/animal6.png"" style=""width:200px;border:14px solid red;"">","null","","","","","",""
"","image-keyboard-response","283","312999","0.0-283.0","3AWETUDC93EJN74H6Z6G1VST4VOIZG","ACSS93E03ZUGX","3A3KKYU7P33Z3BR9PPFZ5194ZCQMWU","","552.0999999977648","img/animal6.png","76","555.5","3","1","3","1,0.5,0,1,0,0.5,0.5,0,1",""
"","html-keyboard-response","284","313307","0.0-284.0","3AWETUDC93EJN74H6Z6G1VST4VOIZG","ACSS93E03ZUGX","3A3KKYU7P33Z3BR9PPFZ5194ZCQMWU","","null","<img src=""img/animal6.png"" style=""width:200px; border:14px solid green;"">","null","","","","","",""
"","image-keyboard-response","285","314444","0.0-285.0","3AWETUDC93EJN74H6Z6G1VST4VOIZG","ACSS93E03ZUGX","3A3KKYU7P33Z3BR9PPFZ5194ZCQMWU","","1133","img/animal5.png","74","1136.699999999255","1","1","2","1,0.5,0,1,0,0.5,0.5,0,1",""
"","html-keyboard-response","286","314761","0.0-286.0","3AWETUDC93EJN74H6Z6G1VST4VOIZG","ACSS93E03ZUGX","3A3KKYU7P33Z3BR9PPFZ5194ZCQMWU","","null","<img src=""img/animal5.png"" style=""width:200px; border:14px solid green;"">","null","","","","","",""
"","image-keyboard-response","287","319399","0.0-287.0","3AWETUDC93EJN74H6Z6G1VST4VOIZG","ACSS93E03ZUGX","3A3KKYU7P33Z3BR9PPFZ5194ZCQMWU","","4631.89999999851","img/animal6.png","74","4635.699999999255","1","1","3","1,0.5,0,1,0,0.5,0.5,0,1",""
"","html-keyboard-response","288","319707","0.0-288.0","3AWETUDC93EJN74H6Z6G1VST4VOIZG","ACSS93E03ZUGX","3A3KKYU7P33Z3BR9PPFZ5194ZCQMWU","","null","<img src=""img/animal6.png"" style=""width:200px; border:14px solid green;"">","null","","","","","",""
"","image-keyboard-response","289","320600","0.0-289.0","3AWETUDC93EJN74H6Z6G1VST4VOIZG","ACSS93E03ZUGX","3A3KKYU7P33Z3BR9PPFZ5194ZCQMWU","","887.8000000007451","img/animal2.png","75","891.6999999992549","2","1","1","1,0.5,0,1,0,0.5,0.5,0,1",""
"","html-keyboard-response","290","320907","0.0-290.0","3AWETUDC93EJN74H6Z6G1VST4VOIZG","ACSS93E03ZUGX","3A3KKYU7P33Z3BR9PPFZ5194ZCQMWU","","null","<img src=""img/animal2.png"" style=""width:200px; border:14px solid green;"">","null","","","","","",""
"","image-keyboard-response","291","321757","0.0-291.0","3AWETUDC93EJN74H6Z6G1VST4VOIZG","ACSS93E03ZUGX","3A3KKYU7P33Z3BR9PPFZ5194ZCQMWU","","847","img/animal6.png","74","850","1","1","3","1,0.5,0,1,0,0.5,0.5,0,1",""
"","html-keyboard-response","292","322067","0.0-292.0","3AWETUDC93EJN74H6Z6G1VST4VOIZG","ACSS93E03ZUGX","3A3KKYU7P33Z3BR9PPFZ5194ZCQMWU","","null","<img src=""img/animal6.png"" style=""width:200px; border:14px solid green;"">","null","","","","","",""
"","image-keyboard-response","293","322615","0.0-293.0","3AWETUDC93EJN74H6Z6G1VST4VOIZG","ACSS93E03ZUGX","3A3KKYU7P33Z3BR9PPFZ5194ZCQMWU","","543.5","img/animal2.png","75","548.6999999992549","2","1","1","1,0.5,0,1,0,0.5,0.5,0,1",""
"","html-keyboard-response","294","322923","0.0-294.0","3AWETUDC93EJN74H6Z6G1VST4VOIZG","ACSS93E03ZUGX","3A3KKYU7P33Z3BR9PPFZ5194ZCQMWU","","null","<img src=""img/animal2.png"" style=""width:200px; border:14px solid green;"">","null","","","","","",""
"","image-keyboard-response","295","323507","0.0-295.0","3AWETUDC93EJN74H6Z6G1VST4VOIZG","ACSS93E03ZUGX","3A3KKYU7P33Z3BR9PPFZ5194ZCQMWU","","579.5999999977648","img/animal6.png","74","583","1","0","3","1,0.5,0,1,0,0.5,0.5,0,1",""
"","html-keyboard-response","296","323820","0.0-296.0","3AWETUDC93EJN74H6Z6G1VST4VOIZG","ACSS93E03ZUGX","3A3KKYU7P33Z3BR9PPFZ5194ZCQMWU","","null","<img src=""img/animal6.png"" style=""width:200px;border:14px solid red;"">","null","","","","","",""
"","image-keyboard-response","297","324903","0.0-297.0","3AWETUDC93EJN74H6Z6G1VST4VOIZG","ACSS93E03ZUGX","3A3KKYU7P33Z3BR9PPFZ5194ZCQMWU","","1079.4000000022352","img/animal5.png","74","1082.800000000745","1","1","2","1,0.5,0,1,0,0.5,0.5,0,1",""
"","html-keyboard-response","298","325212","0.0-298.0","3AWETUDC93EJN74H6Z6G1VST4VOIZG","ACSS93E03ZUGX","3A3KKYU7P33Z3BR9PPFZ5194ZCQMWU","","null","<img src=""img/animal5.png"" style=""width:200px; border:14px solid green;"">","null","","","","","",""
"","image-keyboard-response","299","326128","0.0-299.0","3AWETUDC93EJN74H6Z6G1VST4VOIZG","ACSS93E03ZUGX","3A3KKYU7P33Z3BR9PPFZ5194ZCQMWU","","911.7999999970198","img/animal6.png","76","915.3000000007451","3","1","3","1,0.5,0,1,0,0.5,0.5,0,1",""
"","html-keyboard-response","300","326436","0.0-300.0","3AWETUDC93EJN74H6Z6G1VST4VOIZG","ACSS93E03ZUGX","3A3KKYU7P33Z3BR9PPFZ5194ZCQMWU","","null","<img src=""img/animal6.png"" style=""width:200px; border:14px solid green;"">","null","","","","","",""
"","image-keyboard-response","301","326979","0.0-301.0","3AWETUDC93EJN74H6Z6G1VST4VOIZG","ACSS93E03ZUGX","3A3KKYU7P33Z3BR9PPFZ5194ZCQMWU","","539","img/animal5.png","74","542.5999999977648","1","1","2","1,0.5,0,1,0,0.5,0.5,0,1",""
"","html-keyboard-response","302","327291","0.0-302.0","3AWETUDC93EJN74H6Z6G1VST4VOIZG","ACSS93E03ZUGX","3A3KKYU7P33Z3BR9PPFZ5194ZCQMWU","","null","<img src=""img/animal5.png"" style=""width:200px; border:14px solid green;"">","null","","","","","",""
"","image-keyboard-response","303","327705","0.0-303.0","3AWETUDC93EJN74H6Z6G1VST4VOIZG","ACSS93E03ZUGX","3A3KKYU7P33Z3BR9PPFZ5194ZCQMWU","","408.6000000014901","img/animal5.png","74","412.6000000014901","1","1","2","1,0.5,0,1,0,0.5,0.5,0,1",""
"","html-keyboard-response","304","328011","0.0-304.0","3AWETUDC93EJN74H6Z6G1VST4VOIZG","ACSS93E03ZUGX","3A3KKYU7P33Z3BR9PPFZ5194ZCQMWU","","null","<img src=""img/animal5.png"" style=""width:200px; border:14px solid green;"">","null","","","","","",""
"","image-keyboard-response","305","328553","0.0-305.0","3AWETUDC93EJN74H6Z6G1VST4VOIZG","ACSS93E03ZUGX","3A3KKYU7P33Z3BR9PPFZ5194ZCQMWU","","537.7999999970198","img/animal6.png","76","541.2999999970198","3","1","3","1,0.5,0,1,0,0.5,0.5,0,1",""
"","html-keyboard-response","306","328860","0.0-306.0","3AWETUDC93EJN74H6Z6G1VST4VOIZG","ACSS93E03ZUGX","3A3KKYU7P33Z3BR9PPFZ5194ZCQMWU","","null","<img src=""img/animal6.png"" style=""width:200px; border:14px solid green;"">","null","","","","","",""
"","image-keyboard-response","307","329515","0.0-307.0","3AWETUDC93EJN74H6Z6G1VST4VOIZG","ACSS93E03ZUGX","3A3KKYU7P33Z3BR9PPFZ5194ZCQMWU","","650.5","img/animal5.png","74","654.3999999985099","1","1","2","1,0.5,0,1,0,0.5,0.5,0,1",""
"","html-keyboard-response","308","329827","0.0-308.0","3AWETUDC93EJN74H6Z6G1VST4VOIZG","ACSS93E03ZUGX","3A3KKYU7P33Z3BR9PPFZ5194ZCQMWU","","null","<img src=""img/animal5.png"" style=""width:200px; border:14px solid green;"">","null","","","","","",""
"","image-keyboard-response","309","330217","0.0-309.0","3AWETUDC93EJN74H6Z6G1VST4VOIZG","ACSS93E03ZUGX","3A3KKYU7P33Z3BR9PPFZ5194ZCQMWU","","385.1000000014901","img/animal5.png","74","388.80000000074506","1","1","2","1,0.5,0,1,0,0.5,0.5,0,1",""
"","html-keyboard-response","310","330523","0.0-310.0","3AWETUDC93EJN74H6Z6G1VST4VOIZG","ACSS93E03ZUGX","3A3KKYU7P33Z3BR9PPFZ5194ZCQMWU","","null","<img src=""img/animal5.png"" style=""width:200px; border:14px solid green;"">","null","","","","","",""
"","image-keyboard-response","311","331040","0.0-311.0","3AWETUDC93EJN74H6Z6G1VST4VOIZG","ACSS93E03ZUGX","3A3KKYU7P33Z3BR9PPFZ5194ZCQMWU","","512.6999999992549","img/animal6.png","74","515.8999999985099","1","0","3","1,0.5,0,1,0,0.5,0.5,0,1",""
"","html-keyboard-response","312","331347","0.0-312.0","3AWETUDC93EJN74H6Z6G1VST4VOIZG","ACSS93E03ZUGX","3A3KKYU7P33Z3BR9PPFZ5194ZCQMWU","","null","<img src=""img/animal6.png"" style=""width:200px;border:14px solid red;"">","null","","","","","",""
"","image-keyboard-response","313","331903","0.0-313.0","3AWETUDC93EJN74H6Z6G1VST4VOIZG","ACSS93E03ZUGX","3A3KKYU7P33Z3BR9PPFZ5194ZCQMWU","","552","img/animal6.png","76","555.3999999985099","3","1","3","1,0.5,0,1,0,0.5,0.5,0,1",""
"","html-keyboard-response","314","332212","0.0-314.0","3AWETUDC93EJN74H6Z6G1VST4VOIZG","ACSS93E03ZUGX","3A3KKYU7P33Z3BR9PPFZ5194ZCQMWU","","null","<img src=""img/animal6.png"" style=""width:200px; border:14px solid green;"">","null","","","","","",""
"","image-keyboard-response","315","332821","0.0-315.0","3AWETUDC93EJN74H6Z6G1VST4VOIZG","ACSS93E03ZUGX","3A3KKYU7P33Z3BR9PPFZ5194ZCQMWU","","605.6000000014901","img/animal5.png","74","609.1000000014901","1","1","2","1,0.5,0,1,0,0.5,0.5,0,1",""
"","html-keyboard-response","316","333131","0.0-316.0","3AWETUDC93EJN74H6Z6G1VST4VOIZG","ACSS93E03ZUGX","3A3KKYU7P33Z3BR9PPFZ5194ZCQMWU","","null","<img src=""img/animal5.png"" style=""width:200px; border:14px solid green;"">","null","","","","","",""
"","image-keyboard-response","317","333883","0.0-317.0","3AWETUDC93EJN74H6Z6G1VST4VOIZG","ACSS93E03ZUGX","3A3KKYU7P33Z3BR9PPFZ5194ZCQMWU","","747.9000000022352","img/animal2.png","75","751.2000000029802","2","0","1","1,0.5,0,1,0,0.5,0.5,0,1",""
"","html-keyboard-response","318","334195","0.0-318.0","3AWETUDC93EJN74H6Z6G1VST4VOIZG","ACSS93E03ZUGX","3A3KKYU7P33Z3BR9PPFZ5194ZCQMWU","","null","<img src=""img/animal2.png"" style=""width:200px;border:14px solid red;"">","null","","","","","",""
"","image-keyboard-response","319","335110","0.0-319.0","3AWETUDC93EJN74H6Z6G1VST4VOIZG","ACSS93E03ZUGX","3A3KKYU7P33Z3BR9PPFZ5194ZCQMWU","","910.3999999985099","img/animal6.png","74","913.9000000022352","1","0","3","1,0.5,0,1,0,0.5,0.5,0,1",""
"","html-keyboard-response","320","335419","0.0-320.0","3AWETUDC93EJN74H6Z6G1VST4VOIZG","ACSS93E03ZUGX","3A3KKYU7P33Z3BR9PPFZ5194ZCQMWU","","null","<img src=""img/animal6.png"" style=""width:200px;border:14px solid red;"">","null","","","","","",""
"","image-keyboard-response","321","336152","0.0-321.0","3AWETUDC93EJN74H6Z6G1VST4VOIZG","ACSS93E03ZUGX","3A3KKYU7P33Z3BR9PPFZ5194ZCQMWU","","728.6999999992549","img/animal2.png","75","732.4000000022352","2","1","1","1,0.5,0,1,0,0.5,0.5,0,1",""
"","html-keyboard-response","322","336459","0.0-322.0","3AWETUDC93EJN74H6Z6G1VST4VOIZG","ACSS93E03ZUGX","3A3KKYU7P33Z3BR9PPFZ5194ZCQMWU","","null","<img src=""img/animal2.png"" style=""width:200px; border:14px solid green;"">","null","","","","","",""
"","image-keyboard-response","323","337225","0.0-323.0","3AWETUDC93EJN74H6Z6G1VST4VOIZG","ACSS93E03ZUGX","3A3KKYU7P33Z3BR9PPFZ5194ZCQMWU","","761","img/animal6.png","74","764.5","1","1","3","1,0.5,0,1,0,0.5,0.5,0,1",""
"","html-keyboard-response","324","337531","0.0-324.0","3AWETUDC93EJN74H6Z6G1VST4VOIZG","ACSS93E03ZUGX","3A3KKYU7P33Z3BR9PPFZ5194ZCQMWU","","null","<img src=""img/animal6.png"" style=""width:200px; border:14px solid green;"">","null","","","","","",""
"","image-keyboard-response","325","338063","0.0-325.0","3AWETUDC93EJN74H6Z6G1VST4VOIZG","ACSS93E03ZUGX","3A3KKYU7P33Z3BR9PPFZ5194ZCQMWU","","527.6000000014901","img/animal2.png","75","531.1999999992549","2","1","1","1,0.5,0,1,0,0.5,0.5,0,1",""
"","html-keyboard-response","326","338370","0.0-326.0","3AWETUDC93EJN74H6Z6G1VST4VOIZG","ACSS93E03ZUGX","3A3KKYU7P33Z3BR9PPFZ5194ZCQMWU","","null","<img src=""img/animal2.png"" style=""width:200px; border:14px solid green;"">","null","","","","","",""
"","image-keyboard-response","327","339263","0.0-327.0","3AWETUDC93EJN74H6Z6G1VST4VOIZG","ACSS93E03ZUGX","3A3KKYU7P33Z3BR9PPFZ5194ZCQMWU","","889.0999999977648","img/animal5.png","74","892.6999999992549","1","1","2","1,0.5,0,1,0,0.5,0.5,0,1",""
"","html-keyboard-response","328","339571","0.0-328.0","3AWETUDC93EJN74H6Z6G1VST4VOIZG","ACSS93E03ZUGX","3A3KKYU7P33Z3BR9PPFZ5194ZCQMWU","","null","<img src=""img/animal5.png"" style=""width:200px; border:14px solid green;"">","null","","","","","",""
"","image-keyboard-response","329","340230","0.0-329.0","3AWETUDC93EJN74H6Z6G1VST4VOIZG","ACSS93E03ZUGX","3A3KKYU7P33Z3BR9PPFZ5194ZCQMWU","","655.1999999992549","img/animal2.png","75","658.1999999992549","2","0","1","1,0.5,0,1,0,0.5,0.5,0,1",""
"","html-keyboard-response","330","340540","0.0-330.0","3AWETUDC93EJN74H6Z6G1VST4VOIZG","ACSS93E03ZUGX","3A3KKYU7P33Z3BR9PPFZ5194ZCQMWU","","null","<img src=""img/animal2.png"" style=""width:200px;border:14px solid red;"">","null","","","","","",""
"","image-keyboard-response","331","341135","0.0-331.0","3AWETUDC93EJN74H6Z6G1VST4VOIZG","ACSS93E03ZUGX","3A3KKYU7P33Z3BR9PPFZ5194ZCQMWU","","591.1999999992549","img/animal6.png","74","594.7999999970198","1","0","3","1,0.5,0,1,0,0.5,0.5,0,1",""
"","html-keyboard-response","332","341443","0.0-332.0","3AWETUDC93EJN74H6Z6G1VST4VOIZG","ACSS93E03ZUGX","3A3KKYU7P33Z3BR9PPFZ5194ZCQMWU","","null","<img src=""img/animal6.png"" style=""width:200px;border:14px solid red;"">","null","","","","","",""
"","image-keyboard-response","333","342046","0.0-333.0","3AWETUDC93EJN74H6Z6G1VST4VOIZG","ACSS93E03ZUGX","3A3KKYU7P33Z3BR9PPFZ5194ZCQMWU","","598.8999999985099","img/animal2.png","76","602.2000000029802","3","0","1","1,0.5,0,1,0,0.5,0.5,0,1",""
"","html-keyboard-response","334","342356","0.0-334.0","3AWETUDC93EJN74H6Z6G1VST4VOIZG","ACSS93E03ZUGX","3A3KKYU7P33Z3BR9PPFZ5194ZCQMWU","","null","<img src=""img/animal2.png"" style=""width:200px;border:14px solid red;"">","null","","","","","",""
"","image-keyboard-response","335","342834","0.0-335.0","3AWETUDC93EJN74H6Z6G1VST4VOIZG","ACSS93E03ZUGX","3A3KKYU7P33Z3BR9PPFZ5194ZCQMWU","","473.5999999977648","img/animal2.png","75","477.30000000074506","2","0","1","1,0.5,0,1,0,0.5,0.5,0,1",""
"","html-keyboard-response","336","343139","0.0-336.0","3AWETUDC93EJN74H6Z6G1VST4VOIZG","ACSS93E03ZUGX","3A3KKYU7P33Z3BR9PPFZ5194ZCQMWU","","null","<img src=""img/animal2.png"" style=""width:200px;border:14px solid red;"">","null","","","","","",""
"","image-keyboard-response","337","344027","0.0-337.0","3AWETUDC93EJN74H6Z6G1VST4VOIZG","ACSS93E03ZUGX","3A3KKYU7P33Z3BR9PPFZ5194ZCQMWU","","883.1999999992549","img/animal6.png","75","886.8999999985099","2","0","3","1,0.5,0,1,0,0.5,0.5,0,1",""
"","html-keyboard-response","338","344339","0.0-338.0","3AWETUDC93EJN74H6Z6G1VST4VOIZG","ACSS93E03ZUGX","3A3KKYU7P33Z3BR9PPFZ5194ZCQMWU","","null","<img src=""img/animal6.png"" style=""width:200px;border:14px solid red;"">","null","","","","","",""
"","image-keyboard-response","339","344862","0.0-339.0","3AWETUDC93EJN74H6Z6G1VST4VOIZG","ACSS93E03ZUGX","3A3KKYU7P33Z3BR9PPFZ5194ZCQMWU","","518.8999999985099","img/animal2.png","74","522.4000000022352","1","1","1","1,0.5,0,1,0,0.5,0.5,0,1",""
"","html-keyboard-response","340","345171","0.0-340.0","3AWETUDC93EJN74H6Z6G1VST4VOIZG","ACSS93E03ZUGX","3A3KKYU7P33Z3BR9PPFZ5194ZCQMWU","","null","<img src=""img/animal2.png"" style=""width:200px; border:14px solid green;"">","null","","","","","",""
"","image-keyboard-response","341","345678","0.0-341.0","3AWETUDC93EJN74H6Z6G1VST4VOIZG","ACSS93E03ZUGX","3A3KKYU7P33Z3BR9PPFZ5194ZCQMWU","","502.79999999701977","img/animal2.png","74","506.5999999977648","1","1","1","1,0.5,0,1,0,0.5,0.5,0,1",""
"","html-keyboard-response","342","345988","0.0-342.0","3AWETUDC93EJN74H6Z6G1VST4VOIZG","ACSS93E03ZUGX","3A3KKYU7P33Z3BR9PPFZ5194ZCQMWU","","null","<img src=""img/animal2.png"" style=""width:200px; border:14px solid green;"">","null","","","","","",""
"","image-keyboard-response","343","346426","0.0-343.0","3AWETUDC93EJN74H6Z6G1VST4VOIZG","ACSS93E03ZUGX","3A3KKYU7P33Z3BR9PPFZ5194ZCQMWU","","433.30000000074506","img/animal2.png","74","437","1","1","1","1,0.5,0,1,0,0.5,0.5,0,1",""
"","html-keyboard-response","344","346731","0.0-344.0","3AWETUDC93EJN74H6Z6G1VST4VOIZG","ACSS93E03ZUGX","3A3KKYU7P33Z3BR9PPFZ5194ZCQMWU","","null","<img src=""img/animal2.png"" style=""width:200px; border:14px solid green;"">","null","","","","","",""
"","image-keyboard-response","345","348090","0.0-345.0","3AWETUDC93EJN74H6Z6G1VST4VOIZG","ACSS93E03ZUGX","3A3KKYU7P33Z3BR9PPFZ5194ZCQMWU","","1353.800000000745","img/animal5.png","75","1357.3999999985099","2","0","2","1,0.5,0,1,0,0.5,0.5,0,1",""
"","html-keyboard-response","346","348395","0.0-346.0","3AWETUDC93EJN74H6Z6G1VST4VOIZG","ACSS93E03ZUGX","3A3KKYU7P33Z3BR9PPFZ5194ZCQMWU","","null","<img src=""img/animal5.png"" style=""width:200px;border:14px solid red;"">","null","","","","","",""
"","image-keyboard-response","347","349418","0.0-347.0","3AWETUDC93EJN74H6Z6G1VST4VOIZG","ACSS93E03ZUGX","3A3KKYU7P33Z3BR9PPFZ5194ZCQMWU","","1018.1999999992549","img/animal6.png","75","1021.7999999970198","2","0","3","1,0.5,0,1,0,0.5,0.5,0,1",""
"","html-keyboard-response","348","349724","0.0-348.0","3AWETUDC93EJN74H6Z6G1VST4VOIZG","ACSS93E03ZUGX","3A3KKYU7P33Z3BR9PPFZ5194ZCQMWU","","null","<img src=""img/animal6.png"" style=""width:200px;border:14px solid red;"">","null","","","","","",""
"","image-keyboard-response","349","350232","0.0-349.0","3AWETUDC93EJN74H6Z6G1VST4VOIZG","ACSS93E03ZUGX","3A3KKYU7P33Z3BR9PPFZ5194ZCQMWU","","504.1000000014901","img/animal6.png","74","508","1","1","3","1,0.5,0,1,0,0.5,0.5,0,1",""
"","html-keyboard-response","350","350539","0.0-350.0","3AWETUDC93EJN74H6Z6G1VST4VOIZG","ACSS93E03ZUGX","3A3KKYU7P33Z3BR9PPFZ5194ZCQMWU","","null","<img src=""img/animal6.png"" style=""width:200px; border:14px solid green;"">","null","","","","","",""
"","image-keyboard-response","351","350950","0.0-351.0","3AWETUDC93EJN74H6Z6G1VST4VOIZG","ACSS93E03ZUGX","3A3KKYU7P33Z3BR9PPFZ5194ZCQMWU","","406","img/animal6.png","74","409.80000000074506","1","0","3","1,0.5,0,1,0,0.5,0.5,0,1",""
"","html-keyboard-response","352","351259","0.0-352.0","3AWETUDC93EJN74H6Z6G1VST4VOIZG","ACSS93E03ZUGX","3A3KKYU7P33Z3BR9PPFZ5194ZCQMWU","","null","<img src=""img/animal6.png"" style=""width:200px;border:14px solid red;"">","null","","","","","",""
"","image-keyboard-response","353","352158","0.0-353.0","3AWETUDC93EJN74H6Z6G1VST4VOIZG","ACSS93E03ZUGX","3A3KKYU7P33Z3BR9PPFZ5194ZCQMWU","","894.3999999985099","img/animal5.png","75","897.9000000022352","2","0","2","1,0.5,0,1,0,0.5,0.5,0,1",""
"","html-keyboard-response","354","352467","0.0-354.0","3AWETUDC93EJN74H6Z6G1VST4VOIZG","ACSS93E03ZUGX","3A3KKYU7P33Z3BR9PPFZ5194ZCQMWU","","null","<img src=""img/animal5.png"" style=""width:200px;border:14px solid red;"">","null","","","","","",""
"","image-keyboard-response","355","353396","0.0-355.0","3AWETUDC93EJN74H6Z6G1VST4VOIZG","ACSS93E03ZUGX","3A3KKYU7P33Z3BR9PPFZ5194ZCQMWU","","924.1000000014901","img/animal2.png","75","928.1000000014901","2","1","1","1,0.5,0,1,0,0.5,0.5,0,1",""
"","html-keyboard-response","356","353707","0.0-356.0","3AWETUDC93EJN74H6Z6G1VST4VOIZG","ACSS93E03ZUGX","3A3KKYU7P33Z3BR9PPFZ5194ZCQMWU","","null","<img src=""img/animal2.png"" style=""width:200px; border:14px solid green;"">","null","","","","","",""
"","image-keyboard-response","357","354564","0.0-357.0","3AWETUDC93EJN74H6Z6G1VST4VOIZG","ACSS93E03ZUGX","3A3KKYU7P33Z3BR9PPFZ5194ZCQMWU","","852.2000000029802","img/animal6.png","74","855.8999999985099","1","0","3","1,0.5,0,1,0,0.5,0.5,0,1",""
"","html-keyboard-response","358","354875","0.0-358.0","3AWETUDC93EJN74H6Z6G1VST4VOIZG","ACSS93E03ZUGX","3A3KKYU7P33Z3BR9PPFZ5194ZCQMWU","","null","<img src=""img/animal6.png"" style=""width:200px;border:14px solid red;"">","null","","","","","",""
"","image-keyboard-response","359","355718","0.0-359.0","3AWETUDC93EJN74H6Z6G1VST4VOIZG","ACSS93E03ZUGX","3A3KKYU7P33Z3BR9PPFZ5194ZCQMWU","","839","img/animal5.png","75","842.3000000007451","2","0","2","1,0.5,0,1,0,0.5,0.5,0,1",""
"","html-keyboard-response","360","356027","0.0-360.0","3AWETUDC93EJN74H6Z6G1VST4VOIZG","ACSS93E03ZUGX","3A3KKYU7P33Z3BR9PPFZ5194ZCQMWU","","null","<img src=""img/animal5.png"" style=""width:200px;border:14px solid red;"">","null","","","","","",""
"","image-keyboard-response","361","356545","0.0-361.0","3AWETUDC93EJN74H6Z6G1VST4VOIZG","ACSS93E03ZUGX","3A3KKYU7P33Z3BR9PPFZ5194ZCQMWU","","513.1000000014901","img/animal2.png","74","517","1","1","1","1,0.5,0,1,0,0.5,0.5,0,1",""
"","html-keyboard-response","362","356851","0.0-362.0","3AWETUDC93EJN74H6Z6G1VST4VOIZG","ACSS93E03ZUGX","3A3KKYU7P33Z3BR9PPFZ5194ZCQMWU","","null","<img src=""img/animal2.png"" style=""width:200px; border:14px solid green;"">","null","","","","","",""
"","instructions","363","358756","0.0-363.0","3AWETUDC93EJN74H6Z6G1VST4VOIZG","ACSS93E03ZUGX","3A3KKYU7P33Z3BR9PPFZ5194ZCQMWU","[{""page_index"":0,""viewing_time"":1900.199999999255}]","1901.5","","","","","","","",""
"","survey-text","364","363853","0.0-364.0","3AWETUDC93EJN74H6Z6G1VST4VOIZG","ACSS93E03ZUGX","3A3KKYU7P33Z3BR9PPFZ5194ZCQMWU","","5083.699999999255","","","","","","","","{""Q0"":""ACSS93E03ZUGX""}"
