"success","trial_type","trial_index","time_elapsed","internal_node_id","assignmentID","mturkID","hitID","view_history","rt","stimulus","key_press","reactionTime","a","r","s","reward_cond","responses"
"true","fullscreen","0","4820","0.0-0.0","3QAVNHZ3ENQKC04FFANUCITCDYWALB","AIC2D8A9UQO8S","30F94FBDNR6BS3JI3VKF41RBJN4TBU","","","","","","","","","",""
"","instructions","1","26516","0.0-1.0","3QAVNHZ3ENQKC04FFANUCITCDYWALB","AIC2D8A9UQO8S","30F94FBDNR6BS3JI3VKF41RBJN4TBU","[{""page_index"":0,""viewing_time"":9359},{""page_index"":1,""viewing_time"":2030},{""page_index"":2,""viewing_time"":1532},{""page_index"":3,""viewing_time"":2988},{""page_index"":4,""viewing_time"":1746},{""page_index"":5,""viewing_time"":1302},{""page_index"":6,""viewing_time"":1738},{""page_index"":7,""viewing_time"":1001}]","21696","","","","","","","",""
"","image-keyboard-response","2","27471","0.0-2.0","3QAVNHZ3ENQKC04FFANUCITCDYWALB","AIC2D8A9UQO8S","30F94FBDNR6BS3JI3VKF41RBJN4TBU","","954","img/animal2.png","74","954","1","0","3","1,0.5,0,0,1,0.5,0.5,0,1",""
"","html-keyboard-response","3","27775","0.0-3.0","3QAVNHZ3ENQKC04FFANUCITCDYWALB","AIC2D8A9UQO8S","30F94FBDNR6BS3JI3VKF41RBJN4TBU","","null","<img src=""img/animal2.png"" style=""width:200px;border:14px solid red;"">","null","","","","","",""
"","image-keyboard-response","4","28375","0.0-4.0","3QAVNHZ3ENQKC04FFANUCITCDYWALB","AIC2D8A9UQO8S","30F94FBDNR6BS3JI3VKF41RBJN4TBU","","599","img/animal6.png","75","599","2","1","2","1,0.5,0,0,1,0.5,0.5,0,1",""
"","html-keyboard-response","5","28686","0.0-5.0","3QAVNHZ3ENQKC04FFANUCITCDYWALB","AIC2D8A9UQO8S","30F94FBDNR6BS3JI3VKF41RBJN4TBU","","null","<img src=""img/animal6.png"" style=""width:200px; border:14px solid green;"">","null","","","","","",""
"","image-keyboard-response","6","29684","0.0-6.0","3QAVNHZ3ENQKC04FFANUCITCDYWALB","AIC2D8A9UQO8S","30F94FBDNR6BS3JI3VKF41RBJN4TBU","","997","img/animal6.png","75","997","2","1","2","1,0.5,0,0,1,0.5,0.5,0,1",""
"","html-keyboard-response","7","30022","0.0-7.0","3QAVNHZ3ENQKC04FFANUCITCDYWALB","AIC2D8A9UQO8S","30F94FBDNR6BS3JI3VKF41RBJN4TBU","","null","<img src=""img/animal6.png"" style=""width:200px; border:14px solid green;"">","null","","","","","",""
"","image-keyboard-response","8","30547","0.0-8.0","3QAVNHZ3ENQKC04FFANUCITCDYWALB","AIC2D8A9UQO8S","30F94FBDNR6BS3JI3VKF41RBJN4TBU","","525","img/animal4.png","76","525","3","0","1","1,0.5,0,0,1,0.5,0.5,0,1",""
"","html-keyboard-response","9","30853","0.0-9.0","3QAVNHZ3ENQKC04FFANUCITCDYWALB","AIC2D8A9UQO8S","30F94FBDNR6BS3JI3VKF41RBJN4TBU","","null","<img src=""img/animal4.png"" style=""width:200px;border:14px solid red;"">","null","","","","","",""
"","image-keyboard-response","10","31324","0.0-10.0","3QAVNHZ3ENQKC04FFANUCITCDYWALB","AIC2D8A9UQO8S","30F94FBDNR6BS3JI3VKF41RBJN4TBU","","470","img/animal4.png","74","471","1","1","1","1,0.5,0,0,1,0.5,0.5,0,1",""
"","html-keyboard-response","11","31630","0.0-11.0","3QAVNHZ3ENQKC04FFANUCITCDYWALB","AIC2D8A9UQO8S","30F94FBDNR6BS3JI3VKF41RBJN4TBU","","null","<img src=""img/animal4.png"" style=""width:200px; border:14px solid green;"">","null","","","","","",""
"","image-keyboard-response","12","32749","0.0-12.0","3QAVNHZ3ENQKC04FFANUCITCDYWALB","AIC2D8A9UQO8S","30F94FBDNR6BS3JI3VKF41RBJN4TBU","","1119","img/animal6.png","75","1119","2","1","2","1,0.5,0,0,1,0.5,0.5,0,1",""
"","html-keyboard-response","13","33056","0.0-13.0","3QAVNHZ3ENQKC04FFANUCITCDYWALB","AIC2D8A9UQO8S","30F94FBDNR6BS3JI3VKF41RBJN4TBU","","null","<img src=""img/animal6.png"" style=""width:200px; border:14px solid green;"">","null","","","","","",""
"","image-keyboard-response","14","33454","0.0-14.0","3QAVNHZ3ENQKC04FFANUCITCDYWALB","AIC2D8A9UQO8S","30F94FBDNR6BS3JI3VKF41RBJN4TBU","","399","img/animal6.png","75","399","2","1","2","1,0.5,0,0,1,0.5,0.5,0,1",""
"","html-keyboard-response","15","33766","0.0-15.0","3QAVNHZ3ENQKC04FFANUCITCDYWALB","AIC2D8A9UQO8S","30F94FBDNR6BS3JI3VKF41RBJN4TBU","","null","<img src=""img/animal6.png"" style=""width:200px; border:14px solid green;"">","null","","","","","",""
"","image-keyboard-response","16","34758","0.0-16.0","3QAVNHZ3ENQKC04FFANUCITCDYWALB","AIC2D8A9UQO8S","30F94FBDNR6BS3JI3VKF41RBJN4TBU","","990","img/animal2.png","76","991","3","1","3","1,0.5,0,0,1,0.5,0.5,0,1",""
"","html-keyboard-response","17","35062","0.0-17.0","3QAVNHZ3ENQKC04FFANUCITCDYWALB","AIC2D8A9UQO8S","30F94FBDNR6BS3JI3VKF41RBJN4TBU","","null","<img src=""img/animal2.png"" style=""width:200px; border:14px solid green;"">","null","","","","","",""
"","image-keyboard-response","18","35498","0.0-18.0","3QAVNHZ3ENQKC04FFANUCITCDYWALB","AIC2D8A9UQO8S","30F94FBDNR6BS3JI3VKF41RBJN4TBU","","435","img/animal2.png","76","435","3","1","3","1,0.5,0,0,1,0.5,0.5,0,1",""
"","html-keyboard-response","19","35805","0.0-19.0","3QAVNHZ3ENQKC04FFANUCITCDYWALB","AIC2D8A9UQO8S","30F94FBDNR6BS3JI3VKF41RBJN4TBU","","null","<img src=""img/animal2.png"" style=""width:200px; border:14px solid green;"">","null","","","","","",""
"","image-keyboard-response","20","37128","0.0-20.0","3QAVNHZ3ENQKC04FFANUCITCDYWALB","AIC2D8A9UQO8S","30F94FBDNR6BS3JI3VKF41RBJN4TBU","","1323","img/animal4.png","75","1324","2","1","1","1,0.5,0,0,1,0.5,0.5,0,1",""
"","html-keyboard-response","21","37437","0.0-21.0","3QAVNHZ3ENQKC04FFANUCITCDYWALB","AIC2D8A9UQO8S","30F94FBDNR6BS3JI3VKF41RBJN4TBU","","null","<img src=""img/animal4.png"" style=""width:200px; border:14px solid green;"">","null","","","","","",""
"","image-keyboard-response","22","38247","0.0-22.0","3QAVNHZ3ENQKC04FFANUCITCDYWALB","AIC2D8A9UQO8S","30F94FBDNR6BS3JI3VKF41RBJN4TBU","","809","img/animal6.png","74","809","1","0","2","1,0.5,0,0,1,0.5,0.5,0,1",""
"","html-keyboard-response","23","38558","0.0-23.0","3QAVNHZ3ENQKC04FFANUCITCDYWALB","AIC2D8A9UQO8S","30F94FBDNR6BS3JI3VKF41RBJN4TBU","","null","<img src=""img/animal6.png"" style=""width:200px;border:14px solid red;"">","null","","","","","",""
"","image-keyboard-response","24","38692","0.0-24.0","3QAVNHZ3ENQKC04FFANUCITCDYWALB","AIC2D8A9UQO8S","30F94FBDNR6BS3JI3VKF41RBJN4TBU","","134","img/animal2.png","75","135","2","0","3","1,0.5,0,0,1,0.5,0.5,0,1",""
"","html-keyboard-response","25","39003","0.0-25.0","3QAVNHZ3ENQKC04FFANUCITCDYWALB","AIC2D8A9UQO8S","30F94FBDNR6BS3JI3VKF41RBJN4TBU","","null","<img src=""img/animal2.png"" style=""width:200px;border:14px solid red;"">","null","","","","","",""
"","image-keyboard-response","26","39945","0.0-26.0","3QAVNHZ3ENQKC04FFANUCITCDYWALB","AIC2D8A9UQO8S","30F94FBDNR6BS3JI3VKF41RBJN4TBU","","940","img/animal6.png","75","940","2","1","2","1,0.5,0,0,1,0.5,0.5,0,1",""
"","html-keyboard-response","27","40252","0.0-27.0","3QAVNHZ3ENQKC04FFANUCITCDYWALB","AIC2D8A9UQO8S","30F94FBDNR6BS3JI3VKF41RBJN4TBU","","null","<img src=""img/animal6.png"" style=""width:200px; border:14px solid green;"">","null","","","","","",""
"","image-keyboard-response","28","41103","0.0-28.0","3QAVNHZ3ENQKC04FFANUCITCDYWALB","AIC2D8A9UQO8S","30F94FBDNR6BS3JI3VKF41RBJN4TBU","","851","img/animal4.png","76","851","3","0","1","1,0.5,0,0,1,0.5,0.5,0,1",""
"","html-keyboard-response","29","41414","0.0-29.0","3QAVNHZ3ENQKC04FFANUCITCDYWALB","AIC2D8A9UQO8S","30F94FBDNR6BS3JI3VKF41RBJN4TBU","","null","<img src=""img/animal4.png"" style=""width:200px;border:14px solid red;"">","null","","","","","",""
"","image-keyboard-response","30","42207","0.0-30.0","3QAVNHZ3ENQKC04FFANUCITCDYWALB","AIC2D8A9UQO8S","30F94FBDNR6BS3JI3VKF41RBJN4TBU","","792","img/animal6.png","75","792","2","1","2","1,0.5,0,0,1,0.5,0.5,0,1",""
"","html-keyboard-response","31","42513","0.0-31.0","3QAVNHZ3ENQKC04FFANUCITCDYWALB","AIC2D8A9UQO8S","30F94FBDNR6BS3JI3VKF41RBJN4TBU","","null","<img src=""img/animal6.png"" style=""width:200px; border:14px solid green;"">","null","","","","","",""
"","image-keyboard-response","32","43786","0.0-32.0","3QAVNHZ3ENQKC04FFANUCITCDYWALB","AIC2D8A9UQO8S","30F94FBDNR6BS3JI3VKF41RBJN4TBU","","1272","img/animal2.png","76","1273","3","1","3","1,0.5,0,0,1,0.5,0.5,0,1",""
"","html-keyboard-response","33","44100","0.0-33.0","3QAVNHZ3ENQKC04FFANUCITCDYWALB","AIC2D8A9UQO8S","30F94FBDNR6BS3JI3VKF41RBJN4TBU","","null","<img src=""img/animal2.png"" style=""width:200px; border:14px solid green;"">","null","","","","","",""
"","image-keyboard-response","34","44471","0.0-34.0","3QAVNHZ3ENQKC04FFANUCITCDYWALB","AIC2D8A9UQO8S","30F94FBDNR6BS3JI3VKF41RBJN4TBU","","371","img/animal2.png","76","371","3","1","3","1,0.5,0,0,1,0.5,0.5,0,1",""
"","html-keyboard-response","35","44783","0.0-35.0","3QAVNHZ3ENQKC04FFANUCITCDYWALB","AIC2D8A9UQO8S","30F94FBDNR6BS3JI3VKF41RBJN4TBU","","null","<img src=""img/animal2.png"" style=""width:200px; border:14px solid green;"">","null","","","","","",""
"","image-keyboard-response","36","45458","0.0-36.0","3QAVNHZ3ENQKC04FFANUCITCDYWALB","AIC2D8A9UQO8S","30F94FBDNR6BS3JI3VKF41RBJN4TBU","","674","img/animal4.png","74","674","1","1","1","1,0.5,0,0,1,0.5,0.5,0,1",""
"","html-keyboard-response","37","45771","0.0-37.0","3QAVNHZ3ENQKC04FFANUCITCDYWALB","AIC2D8A9UQO8S","30F94FBDNR6BS3JI3VKF41RBJN4TBU","","null","<img src=""img/animal4.png"" style=""width:200px; border:14px solid green;"">","null","","","","","",""
"","image-keyboard-response","38","46162","0.0-38.0","3QAVNHZ3ENQKC04FFANUCITCDYWALB","AIC2D8A9UQO8S","30F94FBDNR6BS3JI3VKF41RBJN4TBU","","391","img/animal4.png","74","391","1","1","1","1,0.5,0,0,1,0.5,0.5,0,1",""
"","html-keyboard-response","39","46486","0.0-39.0","3QAVNHZ3ENQKC04FFANUCITCDYWALB","AIC2D8A9UQO8S","30F94FBDNR6BS3JI3VKF41RBJN4TBU","","null","<img src=""img/animal4.png"" style=""width:200px; border:14px solid green;"">","null","","","","","",""
"","image-keyboard-response","40","47439","0.0-40.0","3QAVNHZ3ENQKC04FFANUCITCDYWALB","AIC2D8A9UQO8S","30F94FBDNR6BS3JI3VKF41RBJN4TBU","","954","img/animal2.png","76","954","3","1","3","1,0.5,0,0,1,0.5,0.5,0,1",""
"","html-keyboard-response","41","47751","0.0-41.0","3QAVNHZ3ENQKC04FFANUCITCDYWALB","AIC2D8A9UQO8S","30F94FBDNR6BS3JI3VKF41RBJN4TBU","","null","<img src=""img/animal2.png"" style=""width:200px; border:14px solid green;"">","null","","","","","",""
"","image-keyboard-response","42","48405","0.0-42.0","3QAVNHZ3ENQKC04FFANUCITCDYWALB","AIC2D8A9UQO8S","30F94FBDNR6BS3JI3VKF41RBJN4TBU","","654","img/animal6.png","75","654","2","1","2","1,0.5,0,0,1,0.5,0.5,0,1",""
"","html-keyboard-response","43","48712","0.0-43.0","3QAVNHZ3ENQKC04FFANUCITCDYWALB","AIC2D8A9UQO8S","30F94FBDNR6BS3JI3VKF41RBJN4TBU","","null","<img src=""img/animal6.png"" style=""width:200px; border:14px solid green;"">","null","","","","","",""
"","image-keyboard-response","44","49867","0.0-44.0","3QAVNHZ3ENQKC04FFANUCITCDYWALB","AIC2D8A9UQO8S","30F94FBDNR6BS3JI3VKF41RBJN4TBU","","1155","img/animal4.png","74","1155","1","1","1","1,0.5,0,0,1,0.5,0.5,0,1",""
"","html-keyboard-response","45","50182","0.0-45.0","3QAVNHZ3ENQKC04FFANUCITCDYWALB","AIC2D8A9UQO8S","30F94FBDNR6BS3JI3VKF41RBJN4TBU","","null","<img src=""img/animal4.png"" style=""width:200px; border:14px solid green;"">","null","","","","","",""
"","image-keyboard-response","46","51016","0.0-46.0","3QAVNHZ3ENQKC04FFANUCITCDYWALB","AIC2D8A9UQO8S","30F94FBDNR6BS3JI3VKF41RBJN4TBU","","834","img/animal6.png","75","834","2","1","2","1,0.5,0,0,1,0.5,0.5,0,1",""
"","html-keyboard-response","47","51317","0.0-47.0","3QAVNHZ3ENQKC04FFANUCITCDYWALB","AIC2D8A9UQO8S","30F94FBDNR6BS3JI3VKF41RBJN4TBU","","null","<img src=""img/animal6.png"" style=""width:200px; border:14px solid green;"">","null","","","","","",""
"","image-keyboard-response","48","51885","0.0-48.0","3QAVNHZ3ENQKC04FFANUCITCDYWALB","AIC2D8A9UQO8S","30F94FBDNR6BS3JI3VKF41RBJN4TBU","","568","img/animal2.png","76","568","3","1","3","1,0.5,0,0,1,0.5,0.5,0,1",""
"","html-keyboard-response","49","52199","0.0-49.0","3QAVNHZ3ENQKC04FFANUCITCDYWALB","AIC2D8A9UQO8S","30F94FBDNR6BS3JI3VKF41RBJN4TBU","","null","<img src=""img/animal2.png"" style=""width:200px; border:14px solid green;"">","null","","","","","",""
"","image-keyboard-response","50","52754","0.0-50.0","3QAVNHZ3ENQKC04FFANUCITCDYWALB","AIC2D8A9UQO8S","30F94FBDNR6BS3JI3VKF41RBJN4TBU","","554","img/animal2.png","76","555","3","1","3","1,0.5,0,0,1,0.5,0.5,0,1",""
"","html-keyboard-response","51","53054","0.0-51.0","3QAVNHZ3ENQKC04FFANUCITCDYWALB","AIC2D8A9UQO8S","30F94FBDNR6BS3JI3VKF41RBJN4TBU","","null","<img src=""img/animal2.png"" style=""width:200px; border:14px solid green;"">","null","","","","","",""
"","image-keyboard-response","52","53402","0.0-52.0","3QAVNHZ3ENQKC04FFANUCITCDYWALB","AIC2D8A9UQO8S","30F94FBDNR6BS3JI3VKF41RBJN4TBU","","347","img/animal2.png","76","347","3","1","3","1,0.5,0,0,1,0.5,0.5,0,1",""
"","html-keyboard-response","53","53707","0.0-53.0","3QAVNHZ3ENQKC04FFANUCITCDYWALB","AIC2D8A9UQO8S","30F94FBDNR6BS3JI3VKF41RBJN4TBU","","null","<img src=""img/animal2.png"" style=""width:200px; border:14px solid green;"">","null","","","","","",""
"","image-keyboard-response","54","54373","0.0-54.0","3QAVNHZ3ENQKC04FFANUCITCDYWALB","AIC2D8A9UQO8S","30F94FBDNR6BS3JI3VKF41RBJN4TBU","","665","img/animal6.png","75","665","2","1","2","1,0.5,0,0,1,0.5,0.5,0,1",""
"","html-keyboard-response","55","54682","0.0-55.0","3QAVNHZ3ENQKC04FFANUCITCDYWALB","AIC2D8A9UQO8S","30F94FBDNR6BS3JI3VKF41RBJN4TBU","","null","<img src=""img/animal6.png"" style=""width:200px; border:14px solid green;"">","null","","","","","",""
"","image-keyboard-response","56","55196","0.0-56.0","3QAVNHZ3ENQKC04FFANUCITCDYWALB","AIC2D8A9UQO8S","30F94FBDNR6BS3JI3VKF41RBJN4TBU","","514","img/animal2.png","76","514","3","1","3","1,0.5,0,0,1,0.5,0.5,0,1",""
"","html-keyboard-response","57","55499","0.0-57.0","3QAVNHZ3ENQKC04FFANUCITCDYWALB","AIC2D8A9UQO8S","30F94FBDNR6BS3JI3VKF41RBJN4TBU","","null","<img src=""img/animal2.png"" style=""width:200px; border:14px solid green;"">","null","","","","","",""
"","image-keyboard-response","58","56146","0.0-58.0","3QAVNHZ3ENQKC04FFANUCITCDYWALB","AIC2D8A9UQO8S","30F94FBDNR6BS3JI3VKF41RBJN4TBU","","647","img/animal4.png","74","648","1","1","1","1,0.5,0,0,1,0.5,0.5,0,1",""
"","html-keyboard-response","59","56458","0.0-59.0","3QAVNHZ3ENQKC04FFANUCITCDYWALB","AIC2D8A9UQO8S","30F94FBDNR6BS3JI3VKF41RBJN4TBU","","null","<img src=""img/animal4.png"" style=""width:200px; border:14px solid green;"">","null","","","","","",""
"","image-keyboard-response","60","57088","0.0-60.0","3QAVNHZ3ENQKC04FFANUCITCDYWALB","AIC2D8A9UQO8S","30F94FBDNR6BS3JI3VKF41RBJN4TBU","","629","img/animal6.png","75","629","2","1","2","1,0.5,0,0,1,0.5,0.5,0,1",""
"","html-keyboard-response","61","57388","0.0-61.0","3QAVNHZ3ENQKC04FFANUCITCDYWALB","AIC2D8A9UQO8S","30F94FBDNR6BS3JI3VKF41RBJN4TBU","","null","<img src=""img/animal6.png"" style=""width:200px; border:14px solid green;"">","null","","","","","",""
"","image-keyboard-response","62","58252","0.0-62.0","3QAVNHZ3ENQKC04FFANUCITCDYWALB","AIC2D8A9UQO8S","30F94FBDNR6BS3JI3VKF41RBJN4TBU","","863","img/animal4.png","74","864","1","1","1","1,0.5,0,0,1,0.5,0.5,0,1",""
"","html-keyboard-response","63","58563","0.0-63.0","3QAVNHZ3ENQKC04FFANUCITCDYWALB","AIC2D8A9UQO8S","30F94FBDNR6BS3JI3VKF41RBJN4TBU","","null","<img src=""img/animal4.png"" style=""width:200px; border:14px solid green;"">","null","","","","","",""
"","image-keyboard-response","64","59351","0.0-64.0","3QAVNHZ3ENQKC04FFANUCITCDYWALB","AIC2D8A9UQO8S","30F94FBDNR6BS3JI3VKF41RBJN4TBU","","787","img/animal2.png","76","787","3","1","3","1,0.5,0,0,1,0.5,0.5,0,1",""
"","html-keyboard-response","65","59654","0.0-65.0","3QAVNHZ3ENQKC04FFANUCITCDYWALB","AIC2D8A9UQO8S","30F94FBDNR6BS3JI3VKF41RBJN4TBU","","null","<img src=""img/animal2.png"" style=""width:200px; border:14px solid green;"">","null","","","","","",""
"","image-keyboard-response","66","60076","0.0-66.0","3QAVNHZ3ENQKC04FFANUCITCDYWALB","AIC2D8A9UQO8S","30F94FBDNR6BS3JI3VKF41RBJN4TBU","","422","img/animal2.png","76","422","3","1","3","1,0.5,0,0,1,0.5,0.5,0,1",""
"","html-keyboard-response","67","60382","0.0-67.0","3QAVNHZ3ENQKC04FFANUCITCDYWALB","AIC2D8A9UQO8S","30F94FBDNR6BS3JI3VKF41RBJN4TBU","","null","<img src=""img/animal2.png"" style=""width:200px; border:14px solid green;"">","null","","","","","",""
"","image-keyboard-response","68","61236","0.0-68.0","3QAVNHZ3ENQKC04FFANUCITCDYWALB","AIC2D8A9UQO8S","30F94FBDNR6BS3JI3VKF41RBJN4TBU","","854","img/animal4.png","74","854","1","1","1","1,0.5,0,0,1,0.5,0.5,0,1",""
"","html-keyboard-response","69","61542","0.0-69.0","3QAVNHZ3ENQKC04FFANUCITCDYWALB","AIC2D8A9UQO8S","30F94FBDNR6BS3JI3VKF41RBJN4TBU","","null","<img src=""img/animal4.png"" style=""width:200px; border:14px solid green;"">","null","","","","","",""
"","image-keyboard-response","70","62247","0.0-70.0","3QAVNHZ3ENQKC04FFANUCITCDYWALB","AIC2D8A9UQO8S","30F94FBDNR6BS3JI3VKF41RBJN4TBU","","706","img/animal2.png","76","706","3","1","3","1,0.5,0,0,1,0.5,0.5,0,1",""
"","html-keyboard-response","71","62551","0.0-71.0","3QAVNHZ3ENQKC04FFANUCITCDYWALB","AIC2D8A9UQO8S","30F94FBDNR6BS3JI3VKF41RBJN4TBU","","null","<img src=""img/animal2.png"" style=""width:200px; border:14px solid green;"">","null","","","","","",""
"","image-keyboard-response","72","63147","0.0-72.0","3QAVNHZ3ENQKC04FFANUCITCDYWALB","AIC2D8A9UQO8S","30F94FBDNR6BS3JI3VKF41RBJN4TBU","","595","img/animal4.png","74","596","1","1","1","1,0.5,0,0,1,0.5,0.5,0,1",""
"","html-keyboard-response","73","63450","0.0-73.0","3QAVNHZ3ENQKC04FFANUCITCDYWALB","AIC2D8A9UQO8S","30F94FBDNR6BS3JI3VKF41RBJN4TBU","","null","<img src=""img/animal4.png"" style=""width:200px; border:14px solid green;"">","null","","","","","",""
"","image-keyboard-response","74","63974","0.0-74.0","3QAVNHZ3ENQKC04FFANUCITCDYWALB","AIC2D8A9UQO8S","30F94FBDNR6BS3JI3VKF41RBJN4TBU","","524","img/animal6.png","75","524","2","1","2","1,0.5,0,0,1,0.5,0.5,0,1",""
"","html-keyboard-response","75","64281","0.0-75.0","3QAVNHZ3ENQKC04FFANUCITCDYWALB","AIC2D8A9UQO8S","30F94FBDNR6BS3JI3VKF41RBJN4TBU","","null","<img src=""img/animal6.png"" style=""width:200px; border:14px solid green;"">","null","","","","","",""
"","image-keyboard-response","76","64972","0.0-76.0","3QAVNHZ3ENQKC04FFANUCITCDYWALB","AIC2D8A9UQO8S","30F94FBDNR6BS3JI3VKF41RBJN4TBU","","691","img/animal4.png","74","691","1","1","1","1,0.5,0,0,1,0.5,0.5,0,1",""
"","html-keyboard-response","77","65282","0.0-77.0","3QAVNHZ3ENQKC04FFANUCITCDYWALB","AIC2D8A9UQO8S","30F94FBDNR6BS3JI3VKF41RBJN4TBU","","null","<img src=""img/animal4.png"" style=""width:200px; border:14px solid green;"">","null","","","","","",""
"","image-keyboard-response","78","65926","0.0-78.0","3QAVNHZ3ENQKC04FFANUCITCDYWALB","AIC2D8A9UQO8S","30F94FBDNR6BS3JI3VKF41RBJN4TBU","","645","img/animal6.png","75","645","2","1","2","1,0.5,0,0,1,0.5,0.5,0,1",""
"","html-keyboard-response","79","66239","0.0-79.0","3QAVNHZ3ENQKC04FFANUCITCDYWALB","AIC2D8A9UQO8S","30F94FBDNR6BS3JI3VKF41RBJN4TBU","","null","<img src=""img/animal6.png"" style=""width:200px; border:14px solid green;"">","null","","","","","",""
"","image-keyboard-response","80","67076","0.0-80.0","3QAVNHZ3ENQKC04FFANUCITCDYWALB","AIC2D8A9UQO8S","30F94FBDNR6BS3JI3VKF41RBJN4TBU","","838","img/animal4.png","74","838","1","1","1","1,0.5,0,0,1,0.5,0.5,0,1",""
"","html-keyboard-response","81","67388","0.0-81.0","3QAVNHZ3ENQKC04FFANUCITCDYWALB","AIC2D8A9UQO8S","30F94FBDNR6BS3JI3VKF41RBJN4TBU","","null","<img src=""img/animal4.png"" style=""width:200px; border:14px solid green;"">","null","","","","","",""
"","image-keyboard-response","82","68538","0.0-82.0","3QAVNHZ3ENQKC04FFANUCITCDYWALB","AIC2D8A9UQO8S","30F94FBDNR6BS3JI3VKF41RBJN4TBU","","1149","img/animal2.png","76","1149","3","1","3","1,0.5,0,0,1,0.5,0.5,0,1",""
"","html-keyboard-response","83","68845","0.0-83.0","3QAVNHZ3ENQKC04FFANUCITCDYWALB","AIC2D8A9UQO8S","30F94FBDNR6BS3JI3VKF41RBJN4TBU","","null","<img src=""img/animal2.png"" style=""width:200px; border:14px solid green;"">","null","","","","","",""
"","image-keyboard-response","84","70281","0.0-84.0","3QAVNHZ3ENQKC04FFANUCITCDYWALB","AIC2D8A9UQO8S","30F94FBDNR6BS3JI3VKF41RBJN4TBU","","1435","img/animal6.png","75","1435","2","1","2","1,0.5,0,0,1,0.5,0.5,0,1",""
"","html-keyboard-response","85","70595","0.0-85.0","3QAVNHZ3ENQKC04FFANUCITCDYWALB","AIC2D8A9UQO8S","30F94FBDNR6BS3JI3VKF41RBJN4TBU","","null","<img src=""img/animal6.png"" style=""width:200px; border:14px solid green;"">","null","","","","","",""
"","image-keyboard-response","86","71133","0.0-86.0","3QAVNHZ3ENQKC04FFANUCITCDYWALB","AIC2D8A9UQO8S","30F94FBDNR6BS3JI3VKF41RBJN4TBU","","538","img/animal6.png","75","538","2","1","2","1,0.5,0,0,1,0.5,0.5,0,1",""
"","html-keyboard-response","87","71443","0.0-87.0","3QAVNHZ3ENQKC04FFANUCITCDYWALB","AIC2D8A9UQO8S","30F94FBDNR6BS3JI3VKF41RBJN4TBU","","null","<img src=""img/animal6.png"" style=""width:200px; border:14px solid green;"">","null","","","","","",""
"","image-keyboard-response","88","71869","0.0-88.0","3QAVNHZ3ENQKC04FFANUCITCDYWALB","AIC2D8A9UQO8S","30F94FBDNR6BS3JI3VKF41RBJN4TBU","","426","img/animal6.png","75","426","2","1","2","1,0.5,0,0,1,0.5,0.5,0,1",""
"","html-keyboard-response","89","72170","0.0-89.0","3QAVNHZ3ENQKC04FFANUCITCDYWALB","AIC2D8A9UQO8S","30F94FBDNR6BS3JI3VKF41RBJN4TBU","","null","<img src=""img/animal6.png"" style=""width:200px; border:14px solid green;"">","null","","","","","",""
"","image-keyboard-response","90","72876","0.0-90.0","3QAVNHZ3ENQKC04FFANUCITCDYWALB","AIC2D8A9UQO8S","30F94FBDNR6BS3JI3VKF41RBJN4TBU","","705","img/animal6.png","75","706","2","1","2","1,0.5,0,0,1,0.5,0.5,0,1",""
"","html-keyboard-response","91","73186","0.0-91.0","3QAVNHZ3ENQKC04FFANUCITCDYWALB","AIC2D8A9UQO8S","30F94FBDNR6BS3JI3VKF41RBJN4TBU","","null","<img src=""img/animal6.png"" style=""width:200px; border:14px solid green;"">","null","","","","","",""
"","image-keyboard-response","92","73882","0.0-92.0","3QAVNHZ3ENQKC04FFANUCITCDYWALB","AIC2D8A9UQO8S","30F94FBDNR6BS3JI3VKF41RBJN4TBU","","694","img/animal2.png","76","694","3","1","3","1,0.5,0,0,1,0.5,0.5,0,1",""
"","html-keyboard-response","93","74194","0.0-93.0","3QAVNHZ3ENQKC04FFANUCITCDYWALB","AIC2D8A9UQO8S","30F94FBDNR6BS3JI3VKF41RBJN4TBU","","null","<img src=""img/animal2.png"" style=""width:200px; border:14px solid green;"">","null","","","","","",""
"","image-keyboard-response","94","74889","0.0-94.0","3QAVNHZ3ENQKC04FFANUCITCDYWALB","AIC2D8A9UQO8S","30F94FBDNR6BS3JI3VKF41RBJN4TBU","","694","img/animal6.png","75","694","2","1","2","1,0.5,0,0,1,0.5,0.5,0,1",""
"","html-keyboard-response","95","75194","0.0-95.0","3QAVNHZ3ENQKC04FFANUCITCDYWALB","AIC2D8A9UQO8S","30F94FBDNR6BS3JI3VKF41RBJN4TBU","","null","<img src=""img/animal6.png"" style=""width:200px; border:14px solid green;"">","null","","","","","",""
"","image-keyboard-response","96","76013","0.0-96.0","3QAVNHZ3ENQKC04FFANUCITCDYWALB","AIC2D8A9UQO8S","30F94FBDNR6BS3JI3VKF41RBJN4TBU","","818","img/animal2.png","76","819","3","1","3","1,0.5,0,0,1,0.5,0.5,0,1",""
"","html-keyboard-response","97","76322","0.0-97.0","3QAVNHZ3ENQKC04FFANUCITCDYWALB","AIC2D8A9UQO8S","30F94FBDNR6BS3JI3VKF41RBJN4TBU","","null","<img src=""img/animal2.png"" style=""width:200px; border:14px solid green;"">","null","","","","","",""
"","image-keyboard-response","98","76923","0.0-98.0","3QAVNHZ3ENQKC04FFANUCITCDYWALB","AIC2D8A9UQO8S","30F94FBDNR6BS3JI3VKF41RBJN4TBU","","600","img/animal2.png","76","600","3","1","3","1,0.5,0,0,1,0.5,0.5,0,1",""
"","html-keyboard-response","99","77237","0.0-99.0","3QAVNHZ3ENQKC04FFANUCITCDYWALB","AIC2D8A9UQO8S","30F94FBDNR6BS3JI3VKF41RBJN4TBU","","null","<img src=""img/animal2.png"" style=""width:200px; border:14px solid green;"">","null","","","","","",""
"","image-keyboard-response","100","77929","0.0-100.0","3QAVNHZ3ENQKC04FFANUCITCDYWALB","AIC2D8A9UQO8S","30F94FBDNR6BS3JI3VKF41RBJN4TBU","","693","img/animal2.png","76","693","3","1","3","1,0.5,0,0,1,0.5,0.5,0,1",""
"","html-keyboard-response","101","78244","0.0-101.0","3QAVNHZ3ENQKC04FFANUCITCDYWALB","AIC2D8A9UQO8S","30F94FBDNR6BS3JI3VKF41RBJN4TBU","","null","<img src=""img/animal2.png"" style=""width:200px; border:14px solid green;"">","null","","","","","",""
"","image-keyboard-response","102","78819","0.0-102.0","3QAVNHZ3ENQKC04FFANUCITCDYWALB","AIC2D8A9UQO8S","30F94FBDNR6BS3JI3VKF41RBJN4TBU","","574","img/animal6.png","74","574","1","0","2","1,0.5,0,0,1,0.5,0.5,0,1",""
"","html-keyboard-response","103","79123","0.0-103.0","3QAVNHZ3ENQKC04FFANUCITCDYWALB","AIC2D8A9UQO8S","30F94FBDNR6BS3JI3VKF41RBJN4TBU","","null","<img src=""img/animal6.png"" style=""width:200px;border:14px solid red;"">","null","","","","","",""
"","image-keyboard-response","104","79600","0.0-104.0","3QAVNHZ3ENQKC04FFANUCITCDYWALB","AIC2D8A9UQO8S","30F94FBDNR6BS3JI3VKF41RBJN4TBU","","476","img/animal6.png","75","477","2","1","2","1,0.5,0,0,1,0.5,0.5,0,1",""
"","html-keyboard-response","105","79913","0.0-105.0","3QAVNHZ3ENQKC04FFANUCITCDYWALB","AIC2D8A9UQO8S","30F94FBDNR6BS3JI3VKF41RBJN4TBU","","null","<img src=""img/animal6.png"" style=""width:200px; border:14px solid green;"">","null","","","","","",""
"","image-keyboard-response","106","80790","0.0-106.0","3QAVNHZ3ENQKC04FFANUCITCDYWALB","AIC2D8A9UQO8S","30F94FBDNR6BS3JI3VKF41RBJN4TBU","","877","img/animal4.png","74","877","1","1","1","1,0.5,0,0,1,0.5,0.5,0,1",""
"","html-keyboard-response","107","81136","0.0-107.0","3QAVNHZ3ENQKC04FFANUCITCDYWALB","AIC2D8A9UQO8S","30F94FBDNR6BS3JI3VKF41RBJN4TBU","","null","<img src=""img/animal4.png"" style=""width:200px; border:14px solid green;"">","null","","","","","",""
"","image-keyboard-response","108","81628","0.0-108.0","3QAVNHZ3ENQKC04FFANUCITCDYWALB","AIC2D8A9UQO8S","30F94FBDNR6BS3JI3VKF41RBJN4TBU","","492","img/animal4.png","74","492","1","1","1","1,0.5,0,0,1,0.5,0.5,0,1",""
"","html-keyboard-response","109","81941","0.0-109.0","3QAVNHZ3ENQKC04FFANUCITCDYWALB","AIC2D8A9UQO8S","30F94FBDNR6BS3JI3VKF41RBJN4TBU","","null","<img src=""img/animal4.png"" style=""width:200px; border:14px solid green;"">","null","","","","","",""
"","image-keyboard-response","110","82564","0.0-110.0","3QAVNHZ3ENQKC04FFANUCITCDYWALB","AIC2D8A9UQO8S","30F94FBDNR6BS3JI3VKF41RBJN4TBU","","621","img/animal6.png","75","621","2","1","2","1,0.5,0,0,1,0.5,0.5,0,1",""
"","html-keyboard-response","111","82863","0.0-111.0","3QAVNHZ3ENQKC04FFANUCITCDYWALB","AIC2D8A9UQO8S","30F94FBDNR6BS3JI3VKF41RBJN4TBU","","null","<img src=""img/animal6.png"" style=""width:200px; border:14px solid green;"">","null","","","","","",""
"","image-keyboard-response","112","83575","0.0-112.0","3QAVNHZ3ENQKC04FFANUCITCDYWALB","AIC2D8A9UQO8S","30F94FBDNR6BS3JI3VKF41RBJN4TBU","","712","img/animal4.png","74","712","1","1","1","1,0.5,0,0,1,0.5,0.5,0,1",""
"","html-keyboard-response","113","83889","0.0-113.0","3QAVNHZ3ENQKC04FFANUCITCDYWALB","AIC2D8A9UQO8S","30F94FBDNR6BS3JI3VKF41RBJN4TBU","","null","<img src=""img/animal4.png"" style=""width:200px; border:14px solid green;"">","null","","","","","",""
"","image-keyboard-response","114","84418","0.0-114.0","3QAVNHZ3ENQKC04FFANUCITCDYWALB","AIC2D8A9UQO8S","30F94FBDNR6BS3JI3VKF41RBJN4TBU","","528","img/animal6.png","75","529","2","1","2","1,0.5,0,0,1,0.5,0.5,0,1",""
"","html-keyboard-response","115","84730","0.0-115.0","3QAVNHZ3ENQKC04FFANUCITCDYWALB","AIC2D8A9UQO8S","30F94FBDNR6BS3JI3VKF41RBJN4TBU","","null","<img src=""img/animal6.png"" style=""width:200px; border:14px solid green;"">","null","","","","","",""
"","image-keyboard-response","116","85394","0.0-116.0","3QAVNHZ3ENQKC04FFANUCITCDYWALB","AIC2D8A9UQO8S","30F94FBDNR6BS3JI3VKF41RBJN4TBU","","664","img/animal4.png","74","665","1","1","1","1,0.5,0,0,1,0.5,0.5,0,1",""
"","html-keyboard-response","117","85706","0.0-117.0","3QAVNHZ3ENQKC04FFANUCITCDYWALB","AIC2D8A9UQO8S","30F94FBDNR6BS3JI3VKF41RBJN4TBU","","null","<img src=""img/animal4.png"" style=""width:200px; border:14px solid green;"">","null","","","","","",""
"","image-keyboard-response","118","86248","0.0-118.0","3QAVNHZ3ENQKC04FFANUCITCDYWALB","AIC2D8A9UQO8S","30F94FBDNR6BS3JI3VKF41RBJN4TBU","","540","img/animal4.png","74","540","1","1","1","1,0.5,0,0,1,0.5,0.5,0,1",""
"","html-keyboard-response","119","86560","0.0-119.0","3QAVNHZ3ENQKC04FFANUCITCDYWALB","AIC2D8A9UQO8S","30F94FBDNR6BS3JI3VKF41RBJN4TBU","","null","<img src=""img/animal4.png"" style=""width:200px; border:14px solid green;"">","null","","","","","",""
"","image-keyboard-response","120","87229","0.0-120.0","3QAVNHZ3ENQKC04FFANUCITCDYWALB","AIC2D8A9UQO8S","30F94FBDNR6BS3JI3VKF41RBJN4TBU","","668","img/animal2.png","76","668","3","1","3","1,0.5,0,0,1,0.5,0.5,0,1",""
"","html-keyboard-response","121","87544","0.0-121.0","3QAVNHZ3ENQKC04FFANUCITCDYWALB","AIC2D8A9UQO8S","30F94FBDNR6BS3JI3VKF41RBJN4TBU","","null","<img src=""img/animal2.png"" style=""width:200px; border:14px solid green;"">","null","","","","","",""
"","image-keyboard-response","122","88000","0.0-122.0","3QAVNHZ3ENQKC04FFANUCITCDYWALB","AIC2D8A9UQO8S","30F94FBDNR6BS3JI3VKF41RBJN4TBU","","456","img/animal2.png","76","457","3","1","3","1,0.5,0,0,1,0.5,0.5,0,1",""
"","html-keyboard-response","123","88302","0.0-123.0","3QAVNHZ3ENQKC04FFANUCITCDYWALB","AIC2D8A9UQO8S","30F94FBDNR6BS3JI3VKF41RBJN4TBU","","null","<img src=""img/animal2.png"" style=""width:200px; border:14px solid green;"">","null","","","","","",""
"","image-keyboard-response","124","89109","0.0-124.0","3QAVNHZ3ENQKC04FFANUCITCDYWALB","AIC2D8A9UQO8S","30F94FBDNR6BS3JI3VKF41RBJN4TBU","","808","img/animal4.png","74","808","1","1","1","1,0.5,0,0,1,0.5,0.5,0,1",""
"","html-keyboard-response","125","89415","0.0-125.0","3QAVNHZ3ENQKC04FFANUCITCDYWALB","AIC2D8A9UQO8S","30F94FBDNR6BS3JI3VKF41RBJN4TBU","","null","<img src=""img/animal4.png"" style=""width:200px; border:14px solid green;"">","null","","","","","",""
"","image-keyboard-response","126","89861","0.0-126.0","3QAVNHZ3ENQKC04FFANUCITCDYWALB","AIC2D8A9UQO8S","30F94FBDNR6BS3JI3VKF41RBJN4TBU","","446","img/animal4.png","74","446","1","1","1","1,0.5,0,0,1,0.5,0.5,0,1",""
"","html-keyboard-response","127","90174","0.0-127.0","3QAVNHZ3ENQKC04FFANUCITCDYWALB","AIC2D8A9UQO8S","30F94FBDNR6BS3JI3VKF41RBJN4TBU","","null","<img src=""img/animal4.png"" style=""width:200px; border:14px solid green;"">","null","","","","","",""
"","image-keyboard-response","128","90519","0.0-128.0","3QAVNHZ3ENQKC04FFANUCITCDYWALB","AIC2D8A9UQO8S","30F94FBDNR6BS3JI3VKF41RBJN4TBU","","344","img/animal4.png","74","344","1","1","1","1,0.5,0,0,1,0.5,0.5,0,1",""
"","html-keyboard-response","129","90824","0.0-129.0","3QAVNHZ3ENQKC04FFANUCITCDYWALB","AIC2D8A9UQO8S","30F94FBDNR6BS3JI3VKF41RBJN4TBU","","null","<img src=""img/animal4.png"" style=""width:200px; border:14px solid green;"">","null","","","","","",""
"","image-keyboard-response","130","91210","0.0-130.0","3QAVNHZ3ENQKC04FFANUCITCDYWALB","AIC2D8A9UQO8S","30F94FBDNR6BS3JI3VKF41RBJN4TBU","","385","img/animal4.png","74","385","1","1","1","1,0.5,0,0,1,0.5,0.5,0,1",""
"","html-keyboard-response","131","91515","0.0-131.0","3QAVNHZ3ENQKC04FFANUCITCDYWALB","AIC2D8A9UQO8S","30F94FBDNR6BS3JI3VKF41RBJN4TBU","","null","<img src=""img/animal4.png"" style=""width:200px; border:14px solid green;"">","null","","","","","",""
"","image-keyboard-response","132","91883","0.0-132.0","3QAVNHZ3ENQKC04FFANUCITCDYWALB","AIC2D8A9UQO8S","30F94FBDNR6BS3JI3VKF41RBJN4TBU","","368","img/animal4.png","74","368","1","1","1","1,0.5,0,0,1,0.5,0.5,0,1",""
"","html-keyboard-response","133","92196","0.0-133.0","3QAVNHZ3ENQKC04FFANUCITCDYWALB","AIC2D8A9UQO8S","30F94FBDNR6BS3JI3VKF41RBJN4TBU","","null","<img src=""img/animal4.png"" style=""width:200px; border:14px solid green;"">","null","","","","","",""
"","image-keyboard-response","134","92778","0.0-134.0","3QAVNHZ3ENQKC04FFANUCITCDYWALB","AIC2D8A9UQO8S","30F94FBDNR6BS3JI3VKF41RBJN4TBU","","581","img/animal2.png","75","582","2","0","3","1,0.5,0,0,1,0.5,0.5,0,1",""
"","html-keyboard-response","135","93091","0.0-135.0","3QAVNHZ3ENQKC04FFANUCITCDYWALB","AIC2D8A9UQO8S","30F94FBDNR6BS3JI3VKF41RBJN4TBU","","null","<img src=""img/animal2.png"" style=""width:200px;border:14px solid red;"">","null","","","","","",""
"","image-keyboard-response","136","93125","0.0-136.0","3QAVNHZ3ENQKC04FFANUCITCDYWALB","AIC2D8A9UQO8S","30F94FBDNR6BS3JI3VKF41RBJN4TBU","","33","img/animal6.png","76","34","3","1","2","1,0.5,0,0,1,0.5,0.5,0,1",""
"","html-keyboard-response","137","93436","0.0-137.0","3QAVNHZ3ENQKC04FFANUCITCDYWALB","AIC2D8A9UQO8S","30F94FBDNR6BS3JI3VKF41RBJN4TBU","","null","<img src=""img/animal6.png"" style=""width:200px; border:14px solid green;"">","null","","","","","",""
"","image-keyboard-response","138","95523","0.0-138.0","3QAVNHZ3ENQKC04FFANUCITCDYWALB","AIC2D8A9UQO8S","30F94FBDNR6BS3JI3VKF41RBJN4TBU","","2086","img/animal6.png","75","2087","2","1","2","1,0.5,0,0,1,0.5,0.5,0,1",""
"","html-keyboard-response","139","95836","0.0-139.0","3QAVNHZ3ENQKC04FFANUCITCDYWALB","AIC2D8A9UQO8S","30F94FBDNR6BS3JI3VKF41RBJN4TBU","","null","<img src=""img/animal6.png"" style=""width:200px; border:14px solid green;"">","null","","","","","",""
"","image-keyboard-response","140","96482","0.0-140.0","3QAVNHZ3ENQKC04FFANUCITCDYWALB","AIC2D8A9UQO8S","30F94FBDNR6BS3JI3VKF41RBJN4TBU","","645","img/animal2.png","76","646","3","1","3","1,0.5,0,0,1,0.5,0.5,0,1",""
"","html-keyboard-response","141","96790","0.0-141.0","3QAVNHZ3ENQKC04FFANUCITCDYWALB","AIC2D8A9UQO8S","30F94FBDNR6BS3JI3VKF41RBJN4TBU","","null","<img src=""img/animal2.png"" style=""width:200px; border:14px solid green;"">","null","","","","","",""
"","image-keyboard-response","142","97403","0.0-142.0","3QAVNHZ3ENQKC04FFANUCITCDYWALB","AIC2D8A9UQO8S","30F94FBDNR6BS3JI3VKF41RBJN4TBU","","611","img/animal2.png","76","611","3","1","3","1,0.5,0,0,1,0.5,0.5,0,1",""
"","html-keyboard-response","143","97712","0.0-143.0","3QAVNHZ3ENQKC04FFANUCITCDYWALB","AIC2D8A9UQO8S","30F94FBDNR6BS3JI3VKF41RBJN4TBU","","null","<img src=""img/animal2.png"" style=""width:200px; border:14px solid green;"">","null","","","","","",""
"","image-keyboard-response","144","98362","0.0-144.0","3QAVNHZ3ENQKC04FFANUCITCDYWALB","AIC2D8A9UQO8S","30F94FBDNR6BS3JI3VKF41RBJN4TBU","","649","img/animal6.png","75","650","2","1","2","1,0.5,0,0,1,0.5,0.5,0,1",""
"","html-keyboard-response","145","98667","0.0-145.0","3QAVNHZ3ENQKC04FFANUCITCDYWALB","AIC2D8A9UQO8S","30F94FBDNR6BS3JI3VKF41RBJN4TBU","","null","<img src=""img/animal6.png"" style=""width:200px; border:14px solid green;"">","null","","","","","",""
"","image-keyboard-response","146","99093","0.0-146.0","3QAVNHZ3ENQKC04FFANUCITCDYWALB","AIC2D8A9UQO8S","30F94FBDNR6BS3JI3VKF41RBJN4TBU","","426","img/animal6.png","75","426","2","1","2","1,0.5,0,0,1,0.5,0.5,0,1",""
"","html-keyboard-response","147","99407","0.0-147.0","3QAVNHZ3ENQKC04FFANUCITCDYWALB","AIC2D8A9UQO8S","30F94FBDNR6BS3JI3VKF41RBJN4TBU","","null","<img src=""img/animal6.png"" style=""width:200px; border:14px solid green;"">","null","","","","","",""
"","image-keyboard-response","148","100075","0.0-148.0","3QAVNHZ3ENQKC04FFANUCITCDYWALB","AIC2D8A9UQO8S","30F94FBDNR6BS3JI3VKF41RBJN4TBU","","667","img/animal2.png","76","667","3","1","3","1,0.5,0,0,1,0.5,0.5,0,1",""
"","html-keyboard-response","149","100380","0.0-149.0","3QAVNHZ3ENQKC04FFANUCITCDYWALB","AIC2D8A9UQO8S","30F94FBDNR6BS3JI3VKF41RBJN4TBU","","null","<img src=""img/animal2.png"" style=""width:200px; border:14px solid green;"">","null","","","","","",""
"","image-keyboard-response","150","100968","0.0-150.0","3QAVNHZ3ENQKC04FFANUCITCDYWALB","AIC2D8A9UQO8S","30F94FBDNR6BS3JI3VKF41RBJN4TBU","","587","img/animal2.png","76","587","3","1","3","1,0.5,0,0,1,0.5,0.5,0,1",""
"","html-keyboard-response","151","101277","0.0-151.0","3QAVNHZ3ENQKC04FFANUCITCDYWALB","AIC2D8A9UQO8S","30F94FBDNR6BS3JI3VKF41RBJN4TBU","","null","<img src=""img/animal2.png"" style=""width:200px; border:14px solid green;"">","null","","","","","",""
"","image-keyboard-response","152","101909","0.0-152.0","3QAVNHZ3ENQKC04FFANUCITCDYWALB","AIC2D8A9UQO8S","30F94FBDNR6BS3JI3VKF41RBJN4TBU","","631","img/animal4.png","74","631","1","1","1","1,0.5,0,0,1,0.5,0.5,0,1",""
"","html-keyboard-response","153","102216","0.0-153.0","3QAVNHZ3ENQKC04FFANUCITCDYWALB","AIC2D8A9UQO8S","30F94FBDNR6BS3JI3VKF41RBJN4TBU","","null","<img src=""img/animal4.png"" style=""width:200px; border:14px solid green;"">","null","","","","","",""
"","image-keyboard-response","154","102920","0.0-154.0","3QAVNHZ3ENQKC04FFANUCITCDYWALB","AIC2D8A9UQO8S","30F94FBDNR6BS3JI3VKF41RBJN4TBU","","704","img/animal2.png","76","704","3","1","3","1,0.5,0,0,1,0.5,0.5,0,1",""
"","html-keyboard-response","155","103231","0.0-155.0","3QAVNHZ3ENQKC04FFANUCITCDYWALB","AIC2D8A9UQO8S","30F94FBDNR6BS3JI3VKF41RBJN4TBU","","null","<img src=""img/animal2.png"" style=""width:200px; border:14px solid green;"">","null","","","","","",""
"","image-keyboard-response","156","103708","0.0-156.0","3QAVNHZ3ENQKC04FFANUCITCDYWALB","AIC2D8A9UQO8S","30F94FBDNR6BS3JI3VKF41RBJN4TBU","","475","img/animal2.png","76","476","3","1","3","1,0.5,0,0,1,0.5,0.5,0,1",""
"","html-keyboard-response","157","104007","0.0-157.0","3QAVNHZ3ENQKC04FFANUCITCDYWALB","AIC2D8A9UQO8S","30F94FBDNR6BS3JI3VKF41RBJN4TBU","","null","<img src=""img/animal2.png"" style=""width:200px; border:14px solid green;"">","null","","","","","",""
"","image-keyboard-response","158","105026","0.0-158.0","3QAVNHZ3ENQKC04FFANUCITCDYWALB","AIC2D8A9UQO8S","30F94FBDNR6BS3JI3VKF41RBJN4TBU","","1019","img/animal4.png","74","1019","1","1","1","1,0.5,0,0,1,0.5,0.5,0,1",""
"","html-keyboard-response","159","105330","0.0-159.0","3QAVNHZ3ENQKC04FFANUCITCDYWALB","AIC2D8A9UQO8S","30F94FBDNR6BS3JI3VKF41RBJN4TBU","","null","<img src=""img/animal4.png"" style=""width:200px; border:14px solid green;"">","null","","","","","",""
"","image-keyboard-response","160","106083","0.0-160.0","3QAVNHZ3ENQKC04FFANUCITCDYWALB","AIC2D8A9UQO8S","30F94FBDNR6BS3JI3VKF41RBJN4TBU","","754","img/animal6.png","75","754","2","1","2","1,0.5,0,0,1,0.5,0.5,0,1",""
"","html-keyboard-response","161","106398","0.0-161.0","3QAVNHZ3ENQKC04FFANUCITCDYWALB","AIC2D8A9UQO8S","30F94FBDNR6BS3JI3VKF41RBJN4TBU","","null","<img src=""img/animal6.png"" style=""width:200px; border:14px solid green;"">","null","","","","","",""
"","image-keyboard-response","162","107299","0.0-162.0","3QAVNHZ3ENQKC04FFANUCITCDYWALB","AIC2D8A9UQO8S","30F94FBDNR6BS3JI3VKF41RBJN4TBU","","902","img/animal4.png","74","902","1","1","1","1,0.5,0,0,1,0.5,0.5,0,1",""
"","html-keyboard-response","163","107605","0.0-163.0","3QAVNHZ3ENQKC04FFANUCITCDYWALB","AIC2D8A9UQO8S","30F94FBDNR6BS3JI3VKF41RBJN4TBU","","null","<img src=""img/animal4.png"" style=""width:200px; border:14px solid green;"">","null","","","","","",""
"","image-keyboard-response","164","108102","0.0-164.0","3QAVNHZ3ENQKC04FFANUCITCDYWALB","AIC2D8A9UQO8S","30F94FBDNR6BS3JI3VKF41RBJN4TBU","","497","img/animal4.png","74","497","1","1","1","1,0.5,0,0,1,0.5,0.5,0,1",""
"","html-keyboard-response","165","108406","0.0-165.0","3QAVNHZ3ENQKC04FFANUCITCDYWALB","AIC2D8A9UQO8S","30F94FBDNR6BS3JI3VKF41RBJN4TBU","","null","<img src=""img/animal4.png"" style=""width:200px; border:14px solid green;"">","null","","","","","",""
"","image-keyboard-response","166","109134","0.0-166.0","3QAVNHZ3ENQKC04FFANUCITCDYWALB","AIC2D8A9UQO8S","30F94FBDNR6BS3JI3VKF41RBJN4TBU","","727","img/animal6.png","75","727","2","1","2","1,0.5,0,0,1,0.5,0.5,0,1",""
"","html-keyboard-response","167","109443","0.0-167.0","3QAVNHZ3ENQKC04FFANUCITCDYWALB","AIC2D8A9UQO8S","30F94FBDNR6BS3JI3VKF41RBJN4TBU","","null","<img src=""img/animal6.png"" style=""width:200px; border:14px solid green;"">","null","","","","","",""
"","image-keyboard-response","168","110304","0.0-168.0","3QAVNHZ3ENQKC04FFANUCITCDYWALB","AIC2D8A9UQO8S","30F94FBDNR6BS3JI3VKF41RBJN4TBU","","861","img/animal4.png","74","861","1","1","1","1,0.5,0,0,1,0.5,0.5,0,1",""
"","html-keyboard-response","169","110608","0.0-169.0","3QAVNHZ3ENQKC04FFANUCITCDYWALB","AIC2D8A9UQO8S","30F94FBDNR6BS3JI3VKF41RBJN4TBU","","null","<img src=""img/animal4.png"" style=""width:200px; border:14px solid green;"">","null","","","","","",""
"","image-keyboard-response","170","111443","0.0-170.0","3QAVNHZ3ENQKC04FFANUCITCDYWALB","AIC2D8A9UQO8S","30F94FBDNR6BS3JI3VKF41RBJN4TBU","","836","img/animal6.png","75","836","2","1","2","1,0.5,0,0,1,0.5,0.5,0,1",""
"","html-keyboard-response","171","111757","0.0-171.0","3QAVNHZ3ENQKC04FFANUCITCDYWALB","AIC2D8A9UQO8S","30F94FBDNR6BS3JI3VKF41RBJN4TBU","","null","<img src=""img/animal6.png"" style=""width:200px; border:14px solid green;"">","null","","","","","",""
"","image-keyboard-response","172","112440","0.0-172.0","3QAVNHZ3ENQKC04FFANUCITCDYWALB","AIC2D8A9UQO8S","30F94FBDNR6BS3JI3VKF41RBJN4TBU","","683","img/animal6.png","75","683","2","1","2","1,0.5,0,0,1,0.5,0.5,0,1",""
"","html-keyboard-response","173","112754","0.0-173.0","3QAVNHZ3ENQKC04FFANUCITCDYWALB","AIC2D8A9UQO8S","30F94FBDNR6BS3JI3VKF41RBJN4TBU","","null","<img src=""img/animal6.png"" style=""width:200px; border:14px solid green;"">","null","","","","","",""
"","image-keyboard-response","174","113487","0.0-174.0","3QAVNHZ3ENQKC04FFANUCITCDYWALB","AIC2D8A9UQO8S","30F94FBDNR6BS3JI3VKF41RBJN4TBU","","734","img/animal2.png","76","734","3","1","3","1,0.5,0,0,1,0.5,0.5,0,1",""
"","html-keyboard-response","175","113797","0.0-175.0","3QAVNHZ3ENQKC04FFANUCITCDYWALB","AIC2D8A9UQO8S","30F94FBDNR6BS3JI3VKF41RBJN4TBU","","null","<img src=""img/animal2.png"" style=""width:200px; border:14px solid green;"">","null","","","","","",""
"","image-keyboard-response","176","115112","0.0-176.0","3QAVNHZ3ENQKC04FFANUCITCDYWALB","AIC2D8A9UQO8S","30F94FBDNR6BS3JI3VKF41RBJN4TBU","","1313","img/animal4.png","74","1314","1","1","1","1,0.5,0,0,1,0.5,0.5,0,1",""
"","html-keyboard-response","177","115426","0.0-177.0","3QAVNHZ3ENQKC04FFANUCITCDYWALB","AIC2D8A9UQO8S","30F94FBDNR6BS3JI3VKF41RBJN4TBU","","null","<img src=""img/animal4.png"" style=""width:200px; border:14px solid green;"">","null","","","","","",""
"","image-keyboard-response","178","115961","0.0-178.0","3QAVNHZ3ENQKC04FFANUCITCDYWALB","AIC2D8A9UQO8S","30F94FBDNR6BS3JI3VKF41RBJN4TBU","","533","img/animal4.png","74","533","1","1","1","1,0.5,0,0,1,0.5,0.5,0,1",""
"","html-keyboard-response","179","116275","0.0-179.0","3QAVNHZ3ENQKC04FFANUCITCDYWALB","AIC2D8A9UQO8S","30F94FBDNR6BS3JI3VKF41RBJN4TBU","","null","<img src=""img/animal4.png"" style=""width:200px; border:14px solid green;"">","null","","","","","",""
"","image-keyboard-response","180","116946","0.0-180.0","3QAVNHZ3ENQKC04FFANUCITCDYWALB","AIC2D8A9UQO8S","30F94FBDNR6BS3JI3VKF41RBJN4TBU","","671","img/animal2.png","76","671","3","1","3","1,0.5,0,0,1,0.5,0.5,0,1",""
"","html-keyboard-response","181","117250","0.0-181.0","3QAVNHZ3ENQKC04FFANUCITCDYWALB","AIC2D8A9UQO8S","30F94FBDNR6BS3JI3VKF41RBJN4TBU","","null","<img src=""img/animal2.png"" style=""width:200px; border:14px solid green;"">","null","","","","","",""
"","html-keyboard-response","182","119979","0.0-182.0","3QAVNHZ3ENQKC04FFANUCITCDYWALB","AIC2D8A9UQO8S","30F94FBDNR6BS3JI3VKF41RBJN4TBU","","","","","","","","","",""
"","image-keyboard-response","183","121480","0.0-183.0","3QAVNHZ3ENQKC04FFANUCITCDYWALB","AIC2D8A9UQO8S","30F94FBDNR6BS3JI3VKF41RBJN4TBU","","1499","img/animal3.png","74","1500","1","1","1","1,0.5,0,1,0.5,0,0.5,0,1",""
"","html-keyboard-response","184","121790","0.0-184.0","3QAVNHZ3ENQKC04FFANUCITCDYWALB","AIC2D8A9UQO8S","30F94FBDNR6BS3JI3VKF41RBJN4TBU","","null","<img src=""img/animal3.png"" style=""width:200px; border:14px solid green;"">","null","","","","","",""
"","image-keyboard-response","185","122378","0.0-185.0","3QAVNHZ3ENQKC04FFANUCITCDYWALB","AIC2D8A9UQO8S","30F94FBDNR6BS3JI3VKF41RBJN4TBU","","587","img/animal3.png","74","587","1","1","1","1,0.5,0,1,0.5,0,0.5,0,1",""
"","html-keyboard-response","186","122694","0.0-186.0","3QAVNHZ3ENQKC04FFANUCITCDYWALB","AIC2D8A9UQO8S","30F94FBDNR6BS3JI3VKF41RBJN4TBU","","null","<img src=""img/animal3.png"" style=""width:200px; border:14px solid green;"">","null","","","","","",""
"","image-keyboard-response","187","123676","0.0-187.0","3QAVNHZ3ENQKC04FFANUCITCDYWALB","AIC2D8A9UQO8S","30F94FBDNR6BS3JI3VKF41RBJN4TBU","","983","img/animal5.png","76","983","3","0","2","1,0.5,0,1,0.5,0,0.5,0,1",""
"","html-keyboard-response","188","123979","0.0-188.0","3QAVNHZ3ENQKC04FFANUCITCDYWALB","AIC2D8A9UQO8S","30F94FBDNR6BS3JI3VKF41RBJN4TBU","","null","<img src=""img/animal5.png"" style=""width:200px;border:14px solid red;"">","null","","","","","",""
"","image-keyboard-response","189","125108","0.0-189.0","3QAVNHZ3ENQKC04FFANUCITCDYWALB","AIC2D8A9UQO8S","30F94FBDNR6BS3JI3VKF41RBJN4TBU","","1129","img/animal1.png","76","1129","3","1","3","1,0.5,0,1,0.5,0,0.5,0,1",""
"","html-keyboard-response","190","125420","0.0-190.0","3QAVNHZ3ENQKC04FFANUCITCDYWALB","AIC2D8A9UQO8S","30F94FBDNR6BS3JI3VKF41RBJN4TBU","","null","<img src=""img/animal1.png"" style=""width:200px; border:14px solid green;"">","null","","","","","",""
"","image-keyboard-response","191","125893","0.0-191.0","3QAVNHZ3ENQKC04FFANUCITCDYWALB","AIC2D8A9UQO8S","30F94FBDNR6BS3JI3VKF41RBJN4TBU","","473","img/animal3.png","75","473","2","0","1","1,0.5,0,1,0.5,0,0.5,0,1",""
"","html-keyboard-response","192","126206","0.0-192.0","3QAVNHZ3ENQKC04FFANUCITCDYWALB","AIC2D8A9UQO8S","30F94FBDNR6BS3JI3VKF41RBJN4TBU","","null","<img src=""img/animal3.png"" style=""width:200px;border:14px solid red;"">","null","","","","","",""
"","image-keyboard-response","193","126364","0.0-193.0","3QAVNHZ3ENQKC04FFANUCITCDYWALB","AIC2D8A9UQO8S","30F94FBDNR6BS3JI3VKF41RBJN4TBU","","158","img/animal1.png","74","158","1","1","3","1,0.5,0,1,0.5,0,0.5,0,1",""
"","html-keyboard-response","194","126673","0.0-194.0","3QAVNHZ3ENQKC04FFANUCITCDYWALB","AIC2D8A9UQO8S","30F94FBDNR6BS3JI3VKF41RBJN4TBU","","null","<img src=""img/animal1.png"" style=""width:200px; border:14px solid green;"">","null","","","","","",""
"","image-keyboard-response","195","127896","0.0-195.0","3QAVNHZ3ENQKC04FFANUCITCDYWALB","AIC2D8A9UQO8S","30F94FBDNR6BS3JI3VKF41RBJN4TBU","","1223","img/animal3.png","74","1223","1","1","1","1,0.5,0,1,0.5,0,0.5,0,1",""
"","html-keyboard-response","196","128207","0.0-196.0","3QAVNHZ3ENQKC04FFANUCITCDYWALB","AIC2D8A9UQO8S","30F94FBDNR6BS3JI3VKF41RBJN4TBU","","null","<img src=""img/animal3.png"" style=""width:200px; border:14px solid green;"">","null","","","","","",""
"","image-keyboard-response","197","128683","0.0-197.0","3QAVNHZ3ENQKC04FFANUCITCDYWALB","AIC2D8A9UQO8S","30F94FBDNR6BS3JI3VKF41RBJN4TBU","","475","img/animal5.png","75","476","2","0","2","1,0.5,0,1,0.5,0,0.5,0,1",""
"","html-keyboard-response","198","128985","0.0-198.0","3QAVNHZ3ENQKC04FFANUCITCDYWALB","AIC2D8A9UQO8S","30F94FBDNR6BS3JI3VKF41RBJN4TBU","","null","<img src=""img/animal5.png"" style=""width:200px;border:14px solid red;"">","null","","","","","",""
"","image-keyboard-response","199","130058","0.0-199.0","3QAVNHZ3ENQKC04FFANUCITCDYWALB","AIC2D8A9UQO8S","30F94FBDNR6BS3JI3VKF41RBJN4TBU","","1073","img/animal5.png","74","1073","1","1","2","1,0.5,0,1,0.5,0,0.5,0,1",""
"","html-keyboard-response","200","130361","0.0-200.0","3QAVNHZ3ENQKC04FFANUCITCDYWALB","AIC2D8A9UQO8S","30F94FBDNR6BS3JI3VKF41RBJN4TBU","","null","<img src=""img/animal5.png"" style=""width:200px; border:14px solid green;"">","null","","","","","",""
"","image-keyboard-response","201","131192","0.0-201.0","3QAVNHZ3ENQKC04FFANUCITCDYWALB","AIC2D8A9UQO8S","30F94FBDNR6BS3JI3VKF41RBJN4TBU","","832","img/animal1.png","75","832","2","0","3","1,0.5,0,1,0.5,0,0.5,0,1",""
"","html-keyboard-response","202","131505","0.0-202.0","3QAVNHZ3ENQKC04FFANUCITCDYWALB","AIC2D8A9UQO8S","30F94FBDNR6BS3JI3VKF41RBJN4TBU","","null","<img src=""img/animal1.png"" style=""width:200px;border:14px solid red;"">","null","","","","","",""
"","image-keyboard-response","203","132389","0.0-203.0","3QAVNHZ3ENQKC04FFANUCITCDYWALB","AIC2D8A9UQO8S","30F94FBDNR6BS3JI3VKF41RBJN4TBU","","883","img/animal3.png","74","883","1","1","1","1,0.5,0,1,0.5,0,0.5,0,1",""
"","html-keyboard-response","204","132691","0.0-204.0","3QAVNHZ3ENQKC04FFANUCITCDYWALB","AIC2D8A9UQO8S","30F94FBDNR6BS3JI3VKF41RBJN4TBU","","null","<img src=""img/animal3.png"" style=""width:200px; border:14px solid green;"">","null","","","","","",""
"","image-keyboard-response","205","133165","0.0-205.0","3QAVNHZ3ENQKC04FFANUCITCDYWALB","AIC2D8A9UQO8S","30F94FBDNR6BS3JI3VKF41RBJN4TBU","","473","img/animal1.png","74","474","1","0","3","1,0.5,0,1,0.5,0,0.5,0,1",""
"","html-keyboard-response","206","133470","0.0-206.0","3QAVNHZ3ENQKC04FFANUCITCDYWALB","AIC2D8A9UQO8S","30F94FBDNR6BS3JI3VKF41RBJN4TBU","","null","<img src=""img/animal1.png"" style=""width:200px;border:14px solid red;"">","null","","","","","",""
"","image-keyboard-response","207","134232","0.0-207.0","3QAVNHZ3ENQKC04FFANUCITCDYWALB","AIC2D8A9UQO8S","30F94FBDNR6BS3JI3VKF41RBJN4TBU","","761","img/animal3.png","74","763","1","1","1","1,0.5,0,1,0.5,0,0.5,0,1",""
"","html-keyboard-response","208","134537","0.0-208.0","3QAVNHZ3ENQKC04FFANUCITCDYWALB","AIC2D8A9UQO8S","30F94FBDNR6BS3JI3VKF41RBJN4TBU","","null","<img src=""img/animal3.png"" style=""width:200px; border:14px solid green;"">","null","","","","","",""
"","image-keyboard-response","209","135770","0.0-209.0","3QAVNHZ3ENQKC04FFANUCITCDYWALB","AIC2D8A9UQO8S","30F94FBDNR6BS3JI3VKF41RBJN4TBU","","1233","img/animal5.png","74","1234","1","1","2","1,0.5,0,1,0.5,0,0.5,0,1",""
"","html-keyboard-response","210","136079","0.0-210.0","3QAVNHZ3ENQKC04FFANUCITCDYWALB","AIC2D8A9UQO8S","30F94FBDNR6BS3JI3VKF41RBJN4TBU","","null","<img src=""img/animal5.png"" style=""width:200px; border:14px solid green;"">","null","","","","","",""
"","image-keyboard-response","211","136905","0.0-211.0","3QAVNHZ3ENQKC04FFANUCITCDYWALB","AIC2D8A9UQO8S","30F94FBDNR6BS3JI3VKF41RBJN4TBU","","826","img/animal1.png","76","827","3","1","3","1,0.5,0,1,0.5,0,0.5,0,1",""
"","html-keyboard-response","212","137235","0.0-212.0","3QAVNHZ3ENQKC04FFANUCITCDYWALB","AIC2D8A9UQO8S","30F94FBDNR6BS3JI3VKF41RBJN4TBU","","null","<img src=""img/animal1.png"" style=""width:200px; border:14px solid green;"">","null","","","","","",""
"","image-keyboard-response","213","137682","0.0-213.0","3QAVNHZ3ENQKC04FFANUCITCDYWALB","AIC2D8A9UQO8S","30F94FBDNR6BS3JI3VKF41RBJN4TBU","","445","img/animal1.png","76","445","3","1","3","1,0.5,0,1,0.5,0,0.5,0,1",""
"","html-keyboard-response","214","137995","0.0-214.0","3QAVNHZ3ENQKC04FFANUCITCDYWALB","AIC2D8A9UQO8S","30F94FBDNR6BS3JI3VKF41RBJN4TBU","","null","<img src=""img/animal1.png"" style=""width:200px; border:14px solid green;"">","null","","","","","",""
"","image-keyboard-response","215","138887","0.0-215.0","3QAVNHZ3ENQKC04FFANUCITCDYWALB","AIC2D8A9UQO8S","30F94FBDNR6BS3JI3VKF41RBJN4TBU","","892","img/animal5.png","74","892","1","1","2","1,0.5,0,1,0.5,0,0.5,0,1",""
"","html-keyboard-response","216","139189","0.0-216.0","3QAVNHZ3ENQKC04FFANUCITCDYWALB","AIC2D8A9UQO8S","30F94FBDNR6BS3JI3VKF41RBJN4TBU","","null","<img src=""img/animal5.png"" style=""width:200px; border:14px solid green;"">","null","","","","","",""
"","image-keyboard-response","217","139935","0.0-217.0","3QAVNHZ3ENQKC04FFANUCITCDYWALB","AIC2D8A9UQO8S","30F94FBDNR6BS3JI3VKF41RBJN4TBU","","746","img/animal3.png","74","746","1","1","1","1,0.5,0,1,0.5,0,0.5,0,1",""
"","html-keyboard-response","218","140242","0.0-218.0","3QAVNHZ3ENQKC04FFANUCITCDYWALB","AIC2D8A9UQO8S","30F94FBDNR6BS3JI3VKF41RBJN4TBU","","null","<img src=""img/animal3.png"" style=""width:200px; border:14px solid green;"">","null","","","","","",""
"","image-keyboard-response","219","141028","0.0-219.0","3QAVNHZ3ENQKC04FFANUCITCDYWALB","AIC2D8A9UQO8S","30F94FBDNR6BS3JI3VKF41RBJN4TBU","","784","img/animal1.png","76","786","3","1","3","1,0.5,0,1,0.5,0,0.5,0,1",""
"","html-keyboard-response","220","141330","0.0-220.0","3QAVNHZ3ENQKC04FFANUCITCDYWALB","AIC2D8A9UQO8S","30F94FBDNR6BS3JI3VKF41RBJN4TBU","","null","<img src=""img/animal1.png"" style=""width:200px; border:14px solid green;"">","null","","","","","",""
"","image-keyboard-response","221","141897","0.0-221.0","3QAVNHZ3ENQKC04FFANUCITCDYWALB","AIC2D8A9UQO8S","30F94FBDNR6BS3JI3VKF41RBJN4TBU","","566","img/animal1.png","76","566","3","1","3","1,0.5,0,1,0.5,0,0.5,0,1",""
"","html-keyboard-response","222","142201","0.0-222.0","3QAVNHZ3ENQKC04FFANUCITCDYWALB","AIC2D8A9UQO8S","30F94FBDNR6BS3JI3VKF41RBJN4TBU","","null","<img src=""img/animal1.png"" style=""width:200px; border:14px solid green;"">","null","","","","","",""
"","image-keyboard-response","223","142750","0.0-223.0","3QAVNHZ3ENQKC04FFANUCITCDYWALB","AIC2D8A9UQO8S","30F94FBDNR6BS3JI3VKF41RBJN4TBU","","550","img/animal3.png","74","550","1","1","1","1,0.5,0,1,0.5,0,0.5,0,1",""
"","html-keyboard-response","224","143065","0.0-224.0","3QAVNHZ3ENQKC04FFANUCITCDYWALB","AIC2D8A9UQO8S","30F94FBDNR6BS3JI3VKF41RBJN4TBU","","null","<img src=""img/animal3.png"" style=""width:200px; border:14px solid green;"">","null","","","","","",""
"","image-keyboard-response","225","143717","0.0-225.0","3QAVNHZ3ENQKC04FFANUCITCDYWALB","AIC2D8A9UQO8S","30F94FBDNR6BS3JI3VKF41RBJN4TBU","","650","img/animal1.png","76","651","3","1","3","1,0.5,0,1,0.5,0,0.5,0,1",""
"","html-keyboard-response","226","144028","0.0-226.0","3QAVNHZ3ENQKC04FFANUCITCDYWALB","AIC2D8A9UQO8S","30F94FBDNR6BS3JI3VKF41RBJN4TBU","","null","<img src=""img/animal1.png"" style=""width:200px; border:14px solid green;"">","null","","","","","",""
"","image-keyboard-response","227","144574","0.0-227.0","3QAVNHZ3ENQKC04FFANUCITCDYWALB","AIC2D8A9UQO8S","30F94FBDNR6BS3JI3VKF41RBJN4TBU","","545","img/animal1.png","76","545","3","1","3","1,0.5,0,1,0.5,0,0.5,0,1",""
"","html-keyboard-response","228","144890","0.0-228.0","3QAVNHZ3ENQKC04FFANUCITCDYWALB","AIC2D8A9UQO8S","30F94FBDNR6BS3JI3VKF41RBJN4TBU","","null","<img src=""img/animal1.png"" style=""width:200px; border:14px solid green;"">","null","","","","","",""
"","image-keyboard-response","229","145479","0.0-229.0","3QAVNHZ3ENQKC04FFANUCITCDYWALB","AIC2D8A9UQO8S","30F94FBDNR6BS3JI3VKF41RBJN4TBU","","590","img/animal3.png","74","590","1","1","1","1,0.5,0,1,0.5,0,0.5,0,1",""
"","html-keyboard-response","230","145789","0.0-230.0","3QAVNHZ3ENQKC04FFANUCITCDYWALB","AIC2D8A9UQO8S","30F94FBDNR6BS3JI3VKF41RBJN4TBU","","null","<img src=""img/animal3.png"" style=""width:200px; border:14px solid green;"">","null","","","","","",""
"","image-keyboard-response","231","146190","0.0-231.0","3QAVNHZ3ENQKC04FFANUCITCDYWALB","AIC2D8A9UQO8S","30F94FBDNR6BS3JI3VKF41RBJN4TBU","","400","img/animal3.png","74","400","1","1","1","1,0.5,0,1,0.5,0,0.5,0,1",""
"","html-keyboard-response","232","146502","0.0-232.0","3QAVNHZ3ENQKC04FFANUCITCDYWALB","AIC2D8A9UQO8S","30F94FBDNR6BS3JI3VKF41RBJN4TBU","","null","<img src=""img/animal3.png"" style=""width:200px; border:14px solid green;"">","null","","","","","",""
"","image-keyboard-response","233","146874","0.0-233.0","3QAVNHZ3ENQKC04FFANUCITCDYWALB","AIC2D8A9UQO8S","30F94FBDNR6BS3JI3VKF41RBJN4TBU","","373","img/animal3.png","74","373","1","1","1","1,0.5,0,1,0.5,0,0.5,0,1",""
"","html-keyboard-response","234","147185","0.0-234.0","3QAVNHZ3ENQKC04FFANUCITCDYWALB","AIC2D8A9UQO8S","30F94FBDNR6BS3JI3VKF41RBJN4TBU","","null","<img src=""img/animal3.png"" style=""width:200px; border:14px solid green;"">","null","","","","","",""
"","image-keyboard-response","235","147543","0.0-235.0","3QAVNHZ3ENQKC04FFANUCITCDYWALB","AIC2D8A9UQO8S","30F94FBDNR6BS3JI3VKF41RBJN4TBU","","359","img/animal3.png","74","359","1","1","1","1,0.5,0,1,0.5,0,0.5,0,1",""
"","html-keyboard-response","236","147849","0.0-236.0","3QAVNHZ3ENQKC04FFANUCITCDYWALB","AIC2D8A9UQO8S","30F94FBDNR6BS3JI3VKF41RBJN4TBU","","null","<img src=""img/animal3.png"" style=""width:200px; border:14px solid green;"">","null","","","","","",""
"","image-keyboard-response","237","148546","0.0-237.0","3QAVNHZ3ENQKC04FFANUCITCDYWALB","AIC2D8A9UQO8S","30F94FBDNR6BS3JI3VKF41RBJN4TBU","","695","img/animal5.png","76","695","3","0","2","1,0.5,0,1,0.5,0,0.5,0,1",""
"","html-keyboard-response","238","148859","0.0-238.0","3QAVNHZ3ENQKC04FFANUCITCDYWALB","AIC2D8A9UQO8S","30F94FBDNR6BS3JI3VKF41RBJN4TBU","","null","<img src=""img/animal5.png"" style=""width:200px;border:14px solid red;"">","null","","","","","",""
"","image-keyboard-response","239","149997","0.0-239.0","3QAVNHZ3ENQKC04FFANUCITCDYWALB","AIC2D8A9UQO8S","30F94FBDNR6BS3JI3VKF41RBJN4TBU","","1138","img/animal1.png","76","1138","3","1","3","1,0.5,0,1,0.5,0,0.5,0,1",""
"","html-keyboard-response","240","150303","0.0-240.0","3QAVNHZ3ENQKC04FFANUCITCDYWALB","AIC2D8A9UQO8S","30F94FBDNR6BS3JI3VKF41RBJN4TBU","","null","<img src=""img/animal1.png"" style=""width:200px; border:14px solid green;"">","null","","","","","",""
"","image-keyboard-response","241","150614","0.0-241.0","3QAVNHZ3ENQKC04FFANUCITCDYWALB","AIC2D8A9UQO8S","30F94FBDNR6BS3JI3VKF41RBJN4TBU","","311","img/animal1.png","76","312","3","1","3","1,0.5,0,1,0.5,0,0.5,0,1",""
"","html-keyboard-response","242","150920","0.0-242.0","3QAVNHZ3ENQKC04FFANUCITCDYWALB","AIC2D8A9UQO8S","30F94FBDNR6BS3JI3VKF41RBJN4TBU","","null","<img src=""img/animal1.png"" style=""width:200px; border:14px solid green;"">","null","","","","","",""
"","image-keyboard-response","243","151013","0.0-243.0","3QAVNHZ3ENQKC04FFANUCITCDYWALB","AIC2D8A9UQO8S","30F94FBDNR6BS3JI3VKF41RBJN4TBU","","93","img/animal5.png","76","93","3","0","2","1,0.5,0,1,0.5,0,0.5,0,1",""
"","html-keyboard-response","244","151321","0.0-244.0","3QAVNHZ3ENQKC04FFANUCITCDYWALB","AIC2D8A9UQO8S","30F94FBDNR6BS3JI3VKF41RBJN4TBU","","null","<img src=""img/animal5.png"" style=""width:200px;border:14px solid red;"">","null","","","","","",""
"","image-keyboard-response","245","151999","0.0-245.0","3QAVNHZ3ENQKC04FFANUCITCDYWALB","AIC2D8A9UQO8S","30F94FBDNR6BS3JI3VKF41RBJN4TBU","","677","img/animal3.png","74","678","1","1","1","1,0.5,0,1,0.5,0,0.5,0,1",""
"","html-keyboard-response","246","152311","0.0-246.0","3QAVNHZ3ENQKC04FFANUCITCDYWALB","AIC2D8A9UQO8S","30F94FBDNR6BS3JI3VKF41RBJN4TBU","","null","<img src=""img/animal3.png"" style=""width:200px; border:14px solid green;"">","null","","","","","",""
"","image-keyboard-response","247","153011","0.0-247.0","3QAVNHZ3ENQKC04FFANUCITCDYWALB","AIC2D8A9UQO8S","30F94FBDNR6BS3JI3VKF41RBJN4TBU","","699","img/animal1.png","76","700","3","1","3","1,0.5,0,1,0.5,0,0.5,0,1",""
"","html-keyboard-response","248","153314","0.0-248.0","3QAVNHZ3ENQKC04FFANUCITCDYWALB","AIC2D8A9UQO8S","30F94FBDNR6BS3JI3VKF41RBJN4TBU","","null","<img src=""img/animal1.png"" style=""width:200px; border:14px solid green;"">","null","","","","","",""
"","image-keyboard-response","249","153624","0.0-249.0","3QAVNHZ3ENQKC04FFANUCITCDYWALB","AIC2D8A9UQO8S","30F94FBDNR6BS3JI3VKF41RBJN4TBU","","309","img/animal1.png","76","309","3","1","3","1,0.5,0,1,0.5,0,0.5,0,1",""
"","html-keyboard-response","250","153930","0.0-250.0","3QAVNHZ3ENQKC04FFANUCITCDYWALB","AIC2D8A9UQO8S","30F94FBDNR6BS3JI3VKF41RBJN4TBU","","null","<img src=""img/animal1.png"" style=""width:200px; border:14px solid green;"">","null","","","","","",""
"","image-keyboard-response","251","154830","0.0-251.0","3QAVNHZ3ENQKC04FFANUCITCDYWALB","AIC2D8A9UQO8S","30F94FBDNR6BS3JI3VKF41RBJN4TBU","","900","img/animal5.png","74","900","1","1","2","1,0.5,0,1,0.5,0,0.5,0,1",""
"","html-keyboard-response","252","155146","0.0-252.0","3QAVNHZ3ENQKC04FFANUCITCDYWALB","AIC2D8A9UQO8S","30F94FBDNR6BS3JI3VKF41RBJN4TBU","","null","<img src=""img/animal5.png"" style=""width:200px; border:14px solid green;"">","null","","","","","",""
"","image-keyboard-response","253","155867","0.0-253.0","3QAVNHZ3ENQKC04FFANUCITCDYWALB","AIC2D8A9UQO8S","30F94FBDNR6BS3JI3VKF41RBJN4TBU","","721","img/animal3.png","74","722","1","1","1","1,0.5,0,1,0.5,0,0.5,0,1",""
"","html-keyboard-response","254","156181","0.0-254.0","3QAVNHZ3ENQKC04FFANUCITCDYWALB","AIC2D8A9UQO8S","30F94FBDNR6BS3JI3VKF41RBJN4TBU","","null","<img src=""img/animal3.png"" style=""width:200px; border:14px solid green;"">","null","","","","","",""
"","image-keyboard-response","255","156797","0.0-255.0","3QAVNHZ3ENQKC04FFANUCITCDYWALB","AIC2D8A9UQO8S","30F94FBDNR6BS3JI3VKF41RBJN4TBU","","616","img/animal1.png","76","616","3","1","3","1,0.5,0,1,0.5,0,0.5,0,1",""
"","html-keyboard-response","256","157105","0.0-256.0","3QAVNHZ3ENQKC04FFANUCITCDYWALB","AIC2D8A9UQO8S","30F94FBDNR6BS3JI3VKF41RBJN4TBU","","null","<img src=""img/animal1.png"" style=""width:200px; border:14px solid green;"">","null","","","","","",""
"","image-keyboard-response","257","157498","0.0-257.0","3QAVNHZ3ENQKC04FFANUCITCDYWALB","AIC2D8A9UQO8S","30F94FBDNR6BS3JI3VKF41RBJN4TBU","","393","img/animal1.png","76","393","3","1","3","1,0.5,0,1,0.5,0,0.5,0,1",""
"","html-keyboard-response","258","157802","0.0-258.0","3QAVNHZ3ENQKC04FFANUCITCDYWALB","AIC2D8A9UQO8S","30F94FBDNR6BS3JI3VKF41RBJN4TBU","","null","<img src=""img/animal1.png"" style=""width:200px; border:14px solid green;"">","null","","","","","",""
"","image-keyboard-response","259","158289","0.0-259.0","3QAVNHZ3ENQKC04FFANUCITCDYWALB","AIC2D8A9UQO8S","30F94FBDNR6BS3JI3VKF41RBJN4TBU","","487","img/animal5.png","74","487","1","1","2","1,0.5,0,1,0.5,0,0.5,0,1",""
"","html-keyboard-response","260","158589","0.0-260.0","3QAVNHZ3ENQKC04FFANUCITCDYWALB","AIC2D8A9UQO8S","30F94FBDNR6BS3JI3VKF41RBJN4TBU","","null","<img src=""img/animal5.png"" style=""width:200px; border:14px solid green;"">","null","","","","","",""
"","image-keyboard-response","261","159317","0.0-261.0","3QAVNHZ3ENQKC04FFANUCITCDYWALB","AIC2D8A9UQO8S","30F94FBDNR6BS3JI3VKF41RBJN4TBU","","726","img/animal1.png","76","726","3","1","3","1,0.5,0,1,0.5,0,0.5,0,1",""
"","html-keyboard-response","262","159628","0.0-262.0","3QAVNHZ3ENQKC04FFANUCITCDYWALB","AIC2D8A9UQO8S","30F94FBDNR6BS3JI3VKF41RBJN4TBU","","null","<img src=""img/animal1.png"" style=""width:200px; border:14px solid green;"">","null","","","","","",""
"","image-keyboard-response","263","160230","0.0-263.0","3QAVNHZ3ENQKC04FFANUCITCDYWALB","AIC2D8A9UQO8S","30F94FBDNR6BS3JI3VKF41RBJN4TBU","","603","img/animal5.png","74","603","1","1","2","1,0.5,0,1,0.5,0,0.5,0,1",""
"","html-keyboard-response","264","160544","0.0-264.0","3QAVNHZ3ENQKC04FFANUCITCDYWALB","AIC2D8A9UQO8S","30F94FBDNR6BS3JI3VKF41RBJN4TBU","","null","<img src=""img/animal5.png"" style=""width:200px; border:14px solid green;"">","null","","","","","",""
"","image-keyboard-response","265","161069","0.0-265.0","3QAVNHZ3ENQKC04FFANUCITCDYWALB","AIC2D8A9UQO8S","30F94FBDNR6BS3JI3VKF41RBJN4TBU","","524","img/animal5.png","74","525","1","1","2","1,0.5,0,1,0.5,0,0.5,0,1",""
"","html-keyboard-response","266","161369","0.0-266.0","3QAVNHZ3ENQKC04FFANUCITCDYWALB","AIC2D8A9UQO8S","30F94FBDNR6BS3JI3VKF41RBJN4TBU","","null","<img src=""img/animal5.png"" style=""width:200px; border:14px solid green;"">","null","","","","","",""
"","image-keyboard-response","267","162356","0.0-267.0","3QAVNHZ3ENQKC04FFANUCITCDYWALB","AIC2D8A9UQO8S","30F94FBDNR6BS3JI3VKF41RBJN4TBU","","987","img/animal1.png","76","987","3","1","3","1,0.5,0,1,0.5,0,0.5,0,1",""
"","html-keyboard-response","268","162664","0.0-268.0","3QAVNHZ3ENQKC04FFANUCITCDYWALB","AIC2D8A9UQO8S","30F94FBDNR6BS3JI3VKF41RBJN4TBU","","null","<img src=""img/animal1.png"" style=""width:200px; border:14px solid green;"">","null","","","","","",""
"","image-keyboard-response","269","163373","0.0-269.0","3QAVNHZ3ENQKC04FFANUCITCDYWALB","AIC2D8A9UQO8S","30F94FBDNR6BS3JI3VKF41RBJN4TBU","","708","img/animal5.png","74","708","1","1","2","1,0.5,0,1,0.5,0,0.5,0,1",""
"","html-keyboard-response","270","163684","0.0-270.0","3QAVNHZ3ENQKC04FFANUCITCDYWALB","AIC2D8A9UQO8S","30F94FBDNR6BS3JI3VKF41RBJN4TBU","","null","<img src=""img/animal5.png"" style=""width:200px; border:14px solid green;"">","null","","","","","",""
"","image-keyboard-response","271","164365","0.0-271.0","3QAVNHZ3ENQKC04FFANUCITCDYWALB","AIC2D8A9UQO8S","30F94FBDNR6BS3JI3VKF41RBJN4TBU","","679","img/animal3.png","74","680","1","1","1","1,0.5,0,1,0.5,0,0.5,0,1",""
"","html-keyboard-response","272","164672","0.0-272.0","3QAVNHZ3ENQKC04FFANUCITCDYWALB","AIC2D8A9UQO8S","30F94FBDNR6BS3JI3VKF41RBJN4TBU","","null","<img src=""img/animal3.png"" style=""width:200px; border:14px solid green;"">","null","","","","","",""
"","image-keyboard-response","273","165224","0.0-273.0","3QAVNHZ3ENQKC04FFANUCITCDYWALB","AIC2D8A9UQO8S","30F94FBDNR6BS3JI3VKF41RBJN4TBU","","552","img/animal3.png","74","552","1","1","1","1,0.5,0,1,0.5,0,0.5,0,1",""
"","html-keyboard-response","274","165538","0.0-274.0","3QAVNHZ3ENQKC04FFANUCITCDYWALB","AIC2D8A9UQO8S","30F94FBDNR6BS3JI3VKF41RBJN4TBU","","null","<img src=""img/animal3.png"" style=""width:200px; border:14px solid green;"">","null","","","","","",""
"","image-keyboard-response","275","166066","0.0-275.0","3QAVNHZ3ENQKC04FFANUCITCDYWALB","AIC2D8A9UQO8S","30F94FBDNR6BS3JI3VKF41RBJN4TBU","","529","img/animal3.png","74","529","1","1","1","1,0.5,0,1,0.5,0,0.5,0,1",""
"","html-keyboard-response","276","166374","0.0-276.0","3QAVNHZ3ENQKC04FFANUCITCDYWALB","AIC2D8A9UQO8S","30F94FBDNR6BS3JI3VKF41RBJN4TBU","","null","<img src=""img/animal3.png"" style=""width:200px; border:14px solid green;"">","null","","","","","",""
"","image-keyboard-response","277","166986","0.0-277.0","3QAVNHZ3ENQKC04FFANUCITCDYWALB","AIC2D8A9UQO8S","30F94FBDNR6BS3JI3VKF41RBJN4TBU","","611","img/animal3.png","74","611","1","1","1","1,0.5,0,1,0.5,0,0.5,0,1",""
"","html-keyboard-response","278","167287","0.0-278.0","3QAVNHZ3ENQKC04FFANUCITCDYWALB","AIC2D8A9UQO8S","30F94FBDNR6BS3JI3VKF41RBJN4TBU","","null","<img src=""img/animal3.png"" style=""width:200px; border:14px solid green;"">","null","","","","","",""
"","image-keyboard-response","279","168043","0.0-279.0","3QAVNHZ3ENQKC04FFANUCITCDYWALB","AIC2D8A9UQO8S","30F94FBDNR6BS3JI3VKF41RBJN4TBU","","755","img/animal5.png","76","756","3","0","2","1,0.5,0,1,0.5,0,0.5,0,1",""
"","html-keyboard-response","280","168354","0.0-280.0","3QAVNHZ3ENQKC04FFANUCITCDYWALB","AIC2D8A9UQO8S","30F94FBDNR6BS3JI3VKF41RBJN4TBU","","null","<img src=""img/animal5.png"" style=""width:200px;border:14px solid red;"">","null","","","","","",""
"","image-keyboard-response","281","169484","0.0-281.0","3QAVNHZ3ENQKC04FFANUCITCDYWALB","AIC2D8A9UQO8S","30F94FBDNR6BS3JI3VKF41RBJN4TBU","","1129","img/animal1.png","74","1130","1","0","3","1,0.5,0,1,0.5,0,0.5,0,1",""
"","html-keyboard-response","282","169791","0.0-282.0","3QAVNHZ3ENQKC04FFANUCITCDYWALB","AIC2D8A9UQO8S","30F94FBDNR6BS3JI3VKF41RBJN4TBU","","null","<img src=""img/animal1.png"" style=""width:200px;border:14px solid red;"">","null","","","","","",""
"","image-keyboard-response","283","170685","0.0-283.0","3QAVNHZ3ENQKC04FFANUCITCDYWALB","AIC2D8A9UQO8S","30F94FBDNR6BS3JI3VKF41RBJN4TBU","","895","img/animal3.png","74","895","1","1","1","1,0.5,0,1,0.5,0,0.5,0,1",""
"","html-keyboard-response","284","171001","0.0-284.0","3QAVNHZ3ENQKC04FFANUCITCDYWALB","AIC2D8A9UQO8S","30F94FBDNR6BS3JI3VKF41RBJN4TBU","","null","<img src=""img/animal3.png"" style=""width:200px; border:14px solid green;"">","null","","","","","",""
"","image-keyboard-response","285","171851","0.0-285.0","3QAVNHZ3ENQKC04FFANUCITCDYWALB","AIC2D8A9UQO8S","30F94FBDNR6BS3JI3VKF41RBJN4TBU","","850","img/animal5.png","76","850","3","0","2","1,0.5,0,1,0.5,0,0.5,0,1",""
"","html-keyboard-response","286","172163","0.0-286.0","3QAVNHZ3ENQKC04FFANUCITCDYWALB","AIC2D8A9UQO8S","30F94FBDNR6BS3JI3VKF41RBJN4TBU","","null","<img src=""img/animal5.png"" style=""width:200px;border:14px solid red;"">","null","","","","","",""
"","image-keyboard-response","287","172964","0.0-287.0","3QAVNHZ3ENQKC04FFANUCITCDYWALB","AIC2D8A9UQO8S","30F94FBDNR6BS3JI3VKF41RBJN4TBU","","801","img/animal3.png","74","801","1","1","1","1,0.5,0,1,0.5,0,0.5,0,1",""
"","html-keyboard-response","288","173276","0.0-288.0","3QAVNHZ3ENQKC04FFANUCITCDYWALB","AIC2D8A9UQO8S","30F94FBDNR6BS3JI3VKF41RBJN4TBU","","null","<img src=""img/animal3.png"" style=""width:200px; border:14px solid green;"">","null","","","","","",""
"","image-keyboard-response","289","173725","0.0-289.0","3QAVNHZ3ENQKC04FFANUCITCDYWALB","AIC2D8A9UQO8S","30F94FBDNR6BS3JI3VKF41RBJN4TBU","","448","img/animal3.png","74","448","1","1","1","1,0.5,0,1,0.5,0,0.5,0,1",""
"","html-keyboard-response","290","174032","0.0-290.0","3QAVNHZ3ENQKC04FFANUCITCDYWALB","AIC2D8A9UQO8S","30F94FBDNR6BS3JI3VKF41RBJN4TBU","","null","<img src=""img/animal3.png"" style=""width:200px; border:14px solid green;"">","null","","","","","",""
"","image-keyboard-response","291","174471","0.0-291.0","3QAVNHZ3ENQKC04FFANUCITCDYWALB","AIC2D8A9UQO8S","30F94FBDNR6BS3JI3VKF41RBJN4TBU","","439","img/animal1.png","76","439","3","1","3","1,0.5,0,1,0.5,0,0.5,0,1",""
"","html-keyboard-response","292","174805","0.0-292.0","3QAVNHZ3ENQKC04FFANUCITCDYWALB","AIC2D8A9UQO8S","30F94FBDNR6BS3JI3VKF41RBJN4TBU","","null","<img src=""img/animal1.png"" style=""width:200px; border:14px solid green;"">","null","","","","","",""
"","image-keyboard-response","293","175427","0.0-293.0","3QAVNHZ3ENQKC04FFANUCITCDYWALB","AIC2D8A9UQO8S","30F94FBDNR6BS3JI3VKF41RBJN4TBU","","622","img/animal5.png","74","622","1","1","2","1,0.5,0,1,0.5,0,0.5,0,1",""
"","html-keyboard-response","294","175738","0.0-294.0","3QAVNHZ3ENQKC04FFANUCITCDYWALB","AIC2D8A9UQO8S","30F94FBDNR6BS3JI3VKF41RBJN4TBU","","null","<img src=""img/animal5.png"" style=""width:200px; border:14px solid green;"">","null","","","","","",""
"","image-keyboard-response","295","176168","0.0-295.0","3QAVNHZ3ENQKC04FFANUCITCDYWALB","AIC2D8A9UQO8S","30F94FBDNR6BS3JI3VKF41RBJN4TBU","","431","img/animal5.png","74","431","1","1","2","1,0.5,0,1,0.5,0,0.5,0,1",""
"","html-keyboard-response","296","176481","0.0-296.0","3QAVNHZ3ENQKC04FFANUCITCDYWALB","AIC2D8A9UQO8S","30F94FBDNR6BS3JI3VKF41RBJN4TBU","","null","<img src=""img/animal5.png"" style=""width:200px; border:14px solid green;"">","null","","","","","",""
"","image-keyboard-response","297","176869","0.0-297.0","3QAVNHZ3ENQKC04FFANUCITCDYWALB","AIC2D8A9UQO8S","30F94FBDNR6BS3JI3VKF41RBJN4TBU","","386","img/animal5.png","74","386","1","1","2","1,0.5,0,1,0.5,0,0.5,0,1",""
"","html-keyboard-response","298","177179","0.0-298.0","3QAVNHZ3ENQKC04FFANUCITCDYWALB","AIC2D8A9UQO8S","30F94FBDNR6BS3JI3VKF41RBJN4TBU","","null","<img src=""img/animal5.png"" style=""width:200px; border:14px solid green;"">","null","","","","","",""
"","image-keyboard-response","299","178334","0.0-299.0","3QAVNHZ3ENQKC04FFANUCITCDYWALB","AIC2D8A9UQO8S","30F94FBDNR6BS3JI3VKF41RBJN4TBU","","1156","img/animal1.png","76","1156","3","1","3","1,0.5,0,1,0.5,0,0.5,0,1",""
"","html-keyboard-response","300","178647","0.0-300.0","3QAVNHZ3ENQKC04FFANUCITCDYWALB","AIC2D8A9UQO8S","30F94FBDNR6BS3JI3VKF41RBJN4TBU","","null","<img src=""img/animal1.png"" style=""width:200px; border:14px solid green;"">","null","","","","","",""
"","image-keyboard-response","301","179168","0.0-301.0","3QAVNHZ3ENQKC04FFANUCITCDYWALB","AIC2D8A9UQO8S","30F94FBDNR6BS3JI3VKF41RBJN4TBU","","520","img/animal1.png","76","520","3","1","3","1,0.5,0,1,0.5,0,0.5,0,1",""
"","html-keyboard-response","302","179473","0.0-302.0","3QAVNHZ3ENQKC04FFANUCITCDYWALB","AIC2D8A9UQO8S","30F94FBDNR6BS3JI3VKF41RBJN4TBU","","null","<img src=""img/animal1.png"" style=""width:200px; border:14px solid green;"">","null","","","","","",""
"","image-keyboard-response","303","180266","0.0-303.0","3QAVNHZ3ENQKC04FFANUCITCDYWALB","AIC2D8A9UQO8S","30F94FBDNR6BS3JI3VKF41RBJN4TBU","","792","img/animal5.png","74","794","1","1","2","1,0.5,0,1,0.5,0,0.5,0,1",""
"","html-keyboard-response","304","180578","0.0-304.0","3QAVNHZ3ENQKC04FFANUCITCDYWALB","AIC2D8A9UQO8S","30F94FBDNR6BS3JI3VKF41RBJN4TBU","","null","<img src=""img/animal5.png"" style=""width:200px; border:14px solid green;"">","null","","","","","",""
"","image-keyboard-response","305","181195","0.0-305.0","3QAVNHZ3ENQKC04FFANUCITCDYWALB","AIC2D8A9UQO8S","30F94FBDNR6BS3JI3VKF41RBJN4TBU","","618","img/animal3.png","74","618","1","1","1","1,0.5,0,1,0.5,0,0.5,0,1",""
"","html-keyboard-response","306","181504","0.0-306.0","3QAVNHZ3ENQKC04FFANUCITCDYWALB","AIC2D8A9UQO8S","30F94FBDNR6BS3JI3VKF41RBJN4TBU","","null","<img src=""img/animal3.png"" style=""width:200px; border:14px solid green;"">","null","","","","","",""
"","image-keyboard-response","307","182152","0.0-307.0","3QAVNHZ3ENQKC04FFANUCITCDYWALB","AIC2D8A9UQO8S","30F94FBDNR6BS3JI3VKF41RBJN4TBU","","645","img/animal5.png","76","646","3","0","2","1,0.5,0,1,0.5,0,0.5,0,1",""
"","html-keyboard-response","308","182460","0.0-308.0","3QAVNHZ3ENQKC04FFANUCITCDYWALB","AIC2D8A9UQO8S","30F94FBDNR6BS3JI3VKF41RBJN4TBU","","null","<img src=""img/animal5.png"" style=""width:200px;border:14px solid red;"">","null","","","","","",""
"","image-keyboard-response","309","183021","0.0-309.0","3QAVNHZ3ENQKC04FFANUCITCDYWALB","AIC2D8A9UQO8S","30F94FBDNR6BS3JI3VKF41RBJN4TBU","","559","img/animal5.png","74","560","1","1","2","1,0.5,0,1,0.5,0,0.5,0,1",""
"","html-keyboard-response","310","183325","0.0-310.0","3QAVNHZ3ENQKC04FFANUCITCDYWALB","AIC2D8A9UQO8S","30F94FBDNR6BS3JI3VKF41RBJN4TBU","","null","<img src=""img/animal5.png"" style=""width:200px; border:14px solid green;"">","null","","","","","",""
"","image-keyboard-response","311","184522","0.0-311.0","3QAVNHZ3ENQKC04FFANUCITCDYWALB","AIC2D8A9UQO8S","30F94FBDNR6BS3JI3VKF41RBJN4TBU","","1197","img/animal1.png","76","1197","3","1","3","1,0.5,0,1,0.5,0,0.5,0,1",""
"","html-keyboard-response","312","184825","0.0-312.0","3QAVNHZ3ENQKC04FFANUCITCDYWALB","AIC2D8A9UQO8S","30F94FBDNR6BS3JI3VKF41RBJN4TBU","","null","<img src=""img/animal1.png"" style=""width:200px; border:14px solid green;"">","null","","","","","",""
"","image-keyboard-response","313","185442","0.0-313.0","3QAVNHZ3ENQKC04FFANUCITCDYWALB","AIC2D8A9UQO8S","30F94FBDNR6BS3JI3VKF41RBJN4TBU","","618","img/animal3.png","74","618","1","1","1","1,0.5,0,1,0.5,0,0.5,0,1",""
"","html-keyboard-response","314","185746","0.0-314.0","3QAVNHZ3ENQKC04FFANUCITCDYWALB","AIC2D8A9UQO8S","30F94FBDNR6BS3JI3VKF41RBJN4TBU","","null","<img src=""img/animal3.png"" style=""width:200px; border:14px solid green;"">","null","","","","","",""
"","image-keyboard-response","315","186162","0.0-315.0","3QAVNHZ3ENQKC04FFANUCITCDYWALB","AIC2D8A9UQO8S","30F94FBDNR6BS3JI3VKF41RBJN4TBU","","415","img/animal3.png","74","415","1","1","1","1,0.5,0,1,0.5,0,0.5,0,1",""
"","html-keyboard-response","316","186470","0.0-316.0","3QAVNHZ3ENQKC04FFANUCITCDYWALB","AIC2D8A9UQO8S","30F94FBDNR6BS3JI3VKF41RBJN4TBU","","null","<img src=""img/animal3.png"" style=""width:200px; border:14px solid green;"">","null","","","","","",""
"","image-keyboard-response","317","187982","0.0-317.0","3QAVNHZ3ENQKC04FFANUCITCDYWALB","AIC2D8A9UQO8S","30F94FBDNR6BS3JI3VKF41RBJN4TBU","","1511","img/animal5.png","74","1511","1","1","2","1,0.5,0,1,0.5,0,0.5,0,1",""
"","html-keyboard-response","318","188293","0.0-318.0","3QAVNHZ3ENQKC04FFANUCITCDYWALB","AIC2D8A9UQO8S","30F94FBDNR6BS3JI3VKF41RBJN4TBU","","null","<img src=""img/animal5.png"" style=""width:200px; border:14px solid green;"">","null","","","","","",""
"","image-keyboard-response","319","189141","0.0-319.0","3QAVNHZ3ENQKC04FFANUCITCDYWALB","AIC2D8A9UQO8S","30F94FBDNR6BS3JI3VKF41RBJN4TBU","","847","img/animal1.png","76","848","3","1","3","1,0.5,0,1,0.5,0,0.5,0,1",""
"","html-keyboard-response","320","189454","0.0-320.0","3QAVNHZ3ENQKC04FFANUCITCDYWALB","AIC2D8A9UQO8S","30F94FBDNR6BS3JI3VKF41RBJN4TBU","","null","<img src=""img/animal1.png"" style=""width:200px; border:14px solid green;"">","null","","","","","",""
"","image-keyboard-response","321","189867","0.0-321.0","3QAVNHZ3ENQKC04FFANUCITCDYWALB","AIC2D8A9UQO8S","30F94FBDNR6BS3JI3VKF41RBJN4TBU","","414","img/animal1.png","76","414","3","1","3","1,0.5,0,1,0.5,0,0.5,0,1",""
"","html-keyboard-response","322","190171","0.0-322.0","3QAVNHZ3ENQKC04FFANUCITCDYWALB","AIC2D8A9UQO8S","30F94FBDNR6BS3JI3VKF41RBJN4TBU","","null","<img src=""img/animal1.png"" style=""width:200px; border:14px solid green;"">","null","","","","","",""
"","image-keyboard-response","323","191232","0.0-323.0","3QAVNHZ3ENQKC04FFANUCITCDYWALB","AIC2D8A9UQO8S","30F94FBDNR6BS3JI3VKF41RBJN4TBU","","1060","img/animal5.png","74","1060","1","1","2","1,0.5,0,1,0.5,0,0.5,0,1",""
"","html-keyboard-response","324","191538","0.0-324.0","3QAVNHZ3ENQKC04FFANUCITCDYWALB","AIC2D8A9UQO8S","30F94FBDNR6BS3JI3VKF41RBJN4TBU","","null","<img src=""img/animal5.png"" style=""width:200px; border:14px solid green;"">","null","","","","","",""
"","image-keyboard-response","325","192370","0.0-325.0","3QAVNHZ3ENQKC04FFANUCITCDYWALB","AIC2D8A9UQO8S","30F94FBDNR6BS3JI3VKF41RBJN4TBU","","832","img/animal3.png","74","832","1","1","1","1,0.5,0,1,0.5,0,0.5,0,1",""
"","html-keyboard-response","326","192678","0.0-326.0","3QAVNHZ3ENQKC04FFANUCITCDYWALB","AIC2D8A9UQO8S","30F94FBDNR6BS3JI3VKF41RBJN4TBU","","null","<img src=""img/animal3.png"" style=""width:200px; border:14px solid green;"">","null","","","","","",""
"","image-keyboard-response","327","193346","0.0-327.0","3QAVNHZ3ENQKC04FFANUCITCDYWALB","AIC2D8A9UQO8S","30F94FBDNR6BS3JI3VKF41RBJN4TBU","","668","img/animal5.png","74","669","1","1","2","1,0.5,0,1,0.5,0,0.5,0,1",""
"","html-keyboard-response","328","193657","0.0-328.0","3QAVNHZ3ENQKC04FFANUCITCDYWALB","AIC2D8A9UQO8S","30F94FBDNR6BS3JI3VKF41RBJN4TBU","","null","<img src=""img/animal5.png"" style=""width:200px; border:14px solid green;"">","null","","","","","",""
"","image-keyboard-response","329","194430","0.0-329.0","3QAVNHZ3ENQKC04FFANUCITCDYWALB","AIC2D8A9UQO8S","30F94FBDNR6BS3JI3VKF41RBJN4TBU","","773","img/animal1.png","76","773","3","1","3","1,0.5,0,1,0.5,0,0.5,0,1",""
"","html-keyboard-response","330","194736","0.0-330.0","3QAVNHZ3ENQKC04FFANUCITCDYWALB","AIC2D8A9UQO8S","30F94FBDNR6BS3JI3VKF41RBJN4TBU","","null","<img src=""img/animal1.png"" style=""width:200px; border:14px solid green;"">","null","","","","","",""
"","image-keyboard-response","331","195293","0.0-331.0","3QAVNHZ3ENQKC04FFANUCITCDYWALB","AIC2D8A9UQO8S","30F94FBDNR6BS3JI3VKF41RBJN4TBU","","557","img/animal3.png","74","557","1","1","1","1,0.5,0,1,0.5,0,0.5,0,1",""
"","html-keyboard-response","332","195601","0.0-332.0","3QAVNHZ3ENQKC04FFANUCITCDYWALB","AIC2D8A9UQO8S","30F94FBDNR6BS3JI3VKF41RBJN4TBU","","null","<img src=""img/animal3.png"" style=""width:200px; border:14px solid green;"">","null","","","","","",""
"","image-keyboard-response","333","196444","0.0-333.0","3QAVNHZ3ENQKC04FFANUCITCDYWALB","AIC2D8A9UQO8S","30F94FBDNR6BS3JI3VKF41RBJN4TBU","","843","img/animal1.png","76","843","3","1","3","1,0.5,0,1,0.5,0,0.5,0,1",""
"","html-keyboard-response","334","196747","0.0-334.0","3QAVNHZ3ENQKC04FFANUCITCDYWALB","AIC2D8A9UQO8S","30F94FBDNR6BS3JI3VKF41RBJN4TBU","","null","<img src=""img/animal1.png"" style=""width:200px; border:14px solid green;"">","null","","","","","",""
"","image-keyboard-response","335","197725","0.0-335.0","3QAVNHZ3ENQKC04FFANUCITCDYWALB","AIC2D8A9UQO8S","30F94FBDNR6BS3JI3VKF41RBJN4TBU","","979","img/animal5.png","74","979","1","1","2","1,0.5,0,1,0.5,0,0.5,0,1",""
"","html-keyboard-response","336","198027","0.0-336.0","3QAVNHZ3ENQKC04FFANUCITCDYWALB","AIC2D8A9UQO8S","30F94FBDNR6BS3JI3VKF41RBJN4TBU","","null","<img src=""img/animal5.png"" style=""width:200px; border:14px solid green;"">","null","","","","","",""
"","image-keyboard-response","337","198437","0.0-337.0","3QAVNHZ3ENQKC04FFANUCITCDYWALB","AIC2D8A9UQO8S","30F94FBDNR6BS3JI3VKF41RBJN4TBU","","408","img/animal5.png","74","409","1","1","2","1,0.5,0,1,0.5,0,0.5,0,1",""
"","html-keyboard-response","338","198742","0.0-338.0","3QAVNHZ3ENQKC04FFANUCITCDYWALB","AIC2D8A9UQO8S","30F94FBDNR6BS3JI3VKF41RBJN4TBU","","null","<img src=""img/animal5.png"" style=""width:200px; border:14px solid green;"">","null","","","","","",""
"","image-keyboard-response","339","199493","0.0-339.0","3QAVNHZ3ENQKC04FFANUCITCDYWALB","AIC2D8A9UQO8S","30F94FBDNR6BS3JI3VKF41RBJN4TBU","","752","img/animal1.png","76","752","3","1","3","1,0.5,0,1,0.5,0,0.5,0,1",""
"","html-keyboard-response","340","199807","0.0-340.0","3QAVNHZ3ENQKC04FFANUCITCDYWALB","AIC2D8A9UQO8S","30F94FBDNR6BS3JI3VKF41RBJN4TBU","","null","<img src=""img/animal1.png"" style=""width:200px; border:14px solid green;"">","null","","","","","",""
"","image-keyboard-response","341","200454","0.0-341.0","3QAVNHZ3ENQKC04FFANUCITCDYWALB","AIC2D8A9UQO8S","30F94FBDNR6BS3JI3VKF41RBJN4TBU","","648","img/animal3.png","74","648","1","1","1","1,0.5,0,1,0.5,0,0.5,0,1",""
"","html-keyboard-response","342","200765","0.0-342.0","3QAVNHZ3ENQKC04FFANUCITCDYWALB","AIC2D8A9UQO8S","30F94FBDNR6BS3JI3VKF41RBJN4TBU","","null","<img src=""img/animal3.png"" style=""width:200px; border:14px solid green;"">","null","","","","","",""
"","image-keyboard-response","343","201962","0.0-343.0","3QAVNHZ3ENQKC04FFANUCITCDYWALB","AIC2D8A9UQO8S","30F94FBDNR6BS3JI3VKF41RBJN4TBU","","1196","img/animal5.png","76","1196","3","0","2","1,0.5,0,1,0.5,0,0.5,0,1",""
"","html-keyboard-response","344","202264","0.0-344.0","3QAVNHZ3ENQKC04FFANUCITCDYWALB","AIC2D8A9UQO8S","30F94FBDNR6BS3JI3VKF41RBJN4TBU","","null","<img src=""img/animal5.png"" style=""width:200px;border:14px solid red;"">","null","","","","","",""
"","image-keyboard-response","345","203015","0.0-345.0","3QAVNHZ3ENQKC04FFANUCITCDYWALB","AIC2D8A9UQO8S","30F94FBDNR6BS3JI3VKF41RBJN4TBU","","749","img/animal1.png","76","750","3","1","3","1,0.5,0,1,0.5,0,0.5,0,1",""
"","html-keyboard-response","346","203329","0.0-346.0","3QAVNHZ3ENQKC04FFANUCITCDYWALB","AIC2D8A9UQO8S","30F94FBDNR6BS3JI3VKF41RBJN4TBU","","null","<img src=""img/animal1.png"" style=""width:200px; border:14px solid green;"">","null","","","","","",""
"","image-keyboard-response","347","204026","0.0-347.0","3QAVNHZ3ENQKC04FFANUCITCDYWALB","AIC2D8A9UQO8S","30F94FBDNR6BS3JI3VKF41RBJN4TBU","","697","img/animal5.png","74","697","1","1","2","1,0.5,0,1,0.5,0,0.5,0,1",""
"","html-keyboard-response","348","204337","0.0-348.0","3QAVNHZ3ENQKC04FFANUCITCDYWALB","AIC2D8A9UQO8S","30F94FBDNR6BS3JI3VKF41RBJN4TBU","","null","<img src=""img/animal5.png"" style=""width:200px; border:14px solid green;"">","null","","","","","",""
"","image-keyboard-response","349","205432","0.0-349.0","3QAVNHZ3ENQKC04FFANUCITCDYWALB","AIC2D8A9UQO8S","30F94FBDNR6BS3JI3VKF41RBJN4TBU","","1093","img/animal1.png","76","1094","3","1","3","1,0.5,0,1,0.5,0,0.5,0,1",""
"","html-keyboard-response","350","205741","0.0-350.0","3QAVNHZ3ENQKC04FFANUCITCDYWALB","AIC2D8A9UQO8S","30F94FBDNR6BS3JI3VKF41RBJN4TBU","","null","<img src=""img/animal1.png"" style=""width:200px; border:14px solid green;"">","null","","","","","",""
"","image-keyboard-response","351","207260","0.0-351.0","3QAVNHZ3ENQKC04FFANUCITCDYWALB","AIC2D8A9UQO8S","30F94FBDNR6BS3JI3VKF41RBJN4TBU","","1518","img/animal5.png","74","1519","1","1","2","1,0.5,0,1,0.5,0,0.5,0,1",""
"","html-keyboard-response","352","207565","0.0-352.0","3QAVNHZ3ENQKC04FFANUCITCDYWALB","AIC2D8A9UQO8S","30F94FBDNR6BS3JI3VKF41RBJN4TBU","","null","<img src=""img/animal5.png"" style=""width:200px; border:14px solid green;"">","null","","","","","",""
"","image-keyboard-response","353","209391","0.0-353.0","3QAVNHZ3ENQKC04FFANUCITCDYWALB","AIC2D8A9UQO8S","30F94FBDNR6BS3JI3VKF41RBJN4TBU","","1825","img/animal3.png","74","1826","1","1","1","1,0.5,0,1,0.5,0,0.5,0,1",""
"","html-keyboard-response","354","209705","0.0-354.0","3QAVNHZ3ENQKC04FFANUCITCDYWALB","AIC2D8A9UQO8S","30F94FBDNR6BS3JI3VKF41RBJN4TBU","","null","<img src=""img/animal3.png"" style=""width:200px; border:14px solid green;"">","null","","","","","",""
"","image-keyboard-response","355","210506","0.0-355.0","3QAVNHZ3ENQKC04FFANUCITCDYWALB","AIC2D8A9UQO8S","30F94FBDNR6BS3JI3VKF41RBJN4TBU","","801","img/animal5.png","74","801","1","1","2","1,0.5,0,1,0.5,0,0.5,0,1",""
"","html-keyboard-response","356","210807","0.0-356.0","3QAVNHZ3ENQKC04FFANUCITCDYWALB","AIC2D8A9UQO8S","30F94FBDNR6BS3JI3VKF41RBJN4TBU","","null","<img src=""img/animal5.png"" style=""width:200px; border:14px solid green;"">","null","","","","","",""
"","image-keyboard-response","357","211344","0.0-357.0","3QAVNHZ3ENQKC04FFANUCITCDYWALB","AIC2D8A9UQO8S","30F94FBDNR6BS3JI3VKF41RBJN4TBU","","536","img/animal3.png","74","537","1","1","1","1,0.5,0,1,0.5,0,0.5,0,1",""
"","html-keyboard-response","358","211654","0.0-358.0","3QAVNHZ3ENQKC04FFANUCITCDYWALB","AIC2D8A9UQO8S","30F94FBDNR6BS3JI3VKF41RBJN4TBU","","null","<img src=""img/animal3.png"" style=""width:200px; border:14px solid green;"">","null","","","","","",""
"","image-keyboard-response","359","212723","0.0-359.0","3QAVNHZ3ENQKC04FFANUCITCDYWALB","AIC2D8A9UQO8S","30F94FBDNR6BS3JI3VKF41RBJN4TBU","","1068","img/animal5.png","74","1070","1","1","2","1,0.5,0,1,0.5,0,0.5,0,1",""
"","html-keyboard-response","360","213028","0.0-360.0","3QAVNHZ3ENQKC04FFANUCITCDYWALB","AIC2D8A9UQO8S","30F94FBDNR6BS3JI3VKF41RBJN4TBU","","null","<img src=""img/animal5.png"" style=""width:200px; border:14px solid green;"">","null","","","","","",""
"","image-keyboard-response","361","213663","0.0-361.0","3QAVNHZ3ENQKC04FFANUCITCDYWALB","AIC2D8A9UQO8S","30F94FBDNR6BS3JI3VKF41RBJN4TBU","","635","img/animal3.png","74","635","1","1","1","1,0.5,0,1,0.5,0,0.5,0,1",""
"","html-keyboard-response","362","213972","0.0-362.0","3QAVNHZ3ENQKC04FFANUCITCDYWALB","AIC2D8A9UQO8S","30F94FBDNR6BS3JI3VKF41RBJN4TBU","","null","<img src=""img/animal3.png"" style=""width:200px; border:14px solid green;"">","null","","","","","",""
"","instructions","363","217137","0.0-363.0","3QAVNHZ3ENQKC04FFANUCITCDYWALB","AIC2D8A9UQO8S","30F94FBDNR6BS3JI3VKF41RBJN4TBU","[{""page_index"":0,""viewing_time"":3166}]","3166","","","","","","","",""
"","survey-text","364","222111","0.0-364.0","3QAVNHZ3ENQKC04FFANUCITCDYWALB","AIC2D8A9UQO8S","30F94FBDNR6BS3JI3VKF41RBJN4TBU","","4972","","","","","","","","{""Q0"":""AIC2D8A9UQO8S""}"
