"success","trial_type","trial_index","time_elapsed","internal_node_id","assignmentID","mturkID","hitID","view_history","rt","stimulus","key_press","reactionTime","a","r","s","reward_cond","responses"
"true","fullscreen","0","2409","0.0-0.0","3FIUS151DWO50Z3HQJIOVCZ7DCXGGV","AIEKCWYZTS41V","3S829FDFT2NBOHQMM1CIOU0HZYXDXL","","","","","","","","","",""
"","instructions","1","24125","0.0-1.0","3FIUS151DWO50Z3HQJIOVCZ7DCXGGV","AIEKCWYZTS41V","3S829FDFT2NBOHQMM1CIOU0HZYXDXL","[{""page_index"":0,""viewing_time"":6888},{""page_index"":1,""viewing_time"":621.3999999910593},{""page_index"":2,""viewing_time"":349.70000000298023},{""page_index"":3,""viewing_time"":1122.0999999940395},{""page_index"":4,""viewing_time"":847.1000000089407},{""page_index"":5,""viewing_time"":613.0999999940395},{""page_index"":6,""viewing_time"":540.9000000059605},{""page_index"":7,""viewing_time"":10732.20000000298}]","21714.79999999702","","","","","","","",""
"","image-keyboard-response","2","24832","0.0-2.0","3FIUS151DWO50Z3HQJIOVCZ7DCXGGV","AIEKCWYZTS41V","3S829FDFT2NBOHQMM1CIOU0HZYXDXL","","705.7999999970198","img/animal3.png","74","706.3999999910593","1","0","1","0.5,0,1,1,0.5,0,0,1,0.5",""
"","html-keyboard-response","3","25137","0.0-3.0","3FIUS151DWO50Z3HQJIOVCZ7DCXGGV","AIEKCWYZTS41V","3S829FDFT2NBOHQMM1CIOU0HZYXDXL","","null","<img src=""img/animal3.png"" style=""width:200px;border:14px solid red;"">","null","","","","","",""
"","image-keyboard-response","4","25722","0.0-4.0","3FIUS151DWO50Z3HQJIOVCZ7DCXGGV","AIEKCWYZTS41V","3S829FDFT2NBOHQMM1CIOU0HZYXDXL","","583.9000000059605","img/animal6.png","75","584.1999999880791","2","1","3","0.5,0,1,1,0.5,0,0,1,0.5",""
"","html-keyboard-response","5","26028","0.0-5.0","3FIUS151DWO50Z3HQJIOVCZ7DCXGGV","AIEKCWYZTS41V","3S829FDFT2NBOHQMM1CIOU0HZYXDXL","","null","<img src=""img/animal6.png"" style=""width:200px; border:14px solid green;"">","null","","","","","",""
"","image-keyboard-response","6","26352","0.0-6.0","3FIUS151DWO50Z3HQJIOVCZ7DCXGGV","AIEKCWYZTS41V","3S829FDFT2NBOHQMM1CIOU0HZYXDXL","","323.1000000089407","img/animal6.png","75","323.6000000089407","2","1","3","0.5,0,1,1,0.5,0,0,1,0.5",""
"","html-keyboard-response","7","26667","0.0-7.0","3FIUS151DWO50Z3HQJIOVCZ7DCXGGV","AIEKCWYZTS41V","3S829FDFT2NBOHQMM1CIOU0HZYXDXL","","null","<img src=""img/animal6.png"" style=""width:200px; border:14px solid green;"">","null","","","","","",""
"","image-keyboard-response","8","26823","0.0-8.0","3FIUS151DWO50Z3HQJIOVCZ7DCXGGV","AIEKCWYZTS41V","3S829FDFT2NBOHQMM1CIOU0HZYXDXL","","154.90000000596046","img/animal5.png","75","155.40000000596046","2","1","2","0.5,0,1,1,0.5,0,0,1,0.5",""
"","html-keyboard-response","9","27133","0.0-9.0","3FIUS151DWO50Z3HQJIOVCZ7DCXGGV","AIEKCWYZTS41V","3S829FDFT2NBOHQMM1CIOU0HZYXDXL","","null","<img src=""img/animal5.png"" style=""width:200px; border:14px solid green;"">","null","","","","","",""
"","image-keyboard-response","10","28093","0.0-10.0","3FIUS151DWO50Z3HQJIOVCZ7DCXGGV","AIEKCWYZTS41V","3S829FDFT2NBOHQMM1CIOU0HZYXDXL","","959","img/animal3.png","74","959.5","1","0","1","0.5,0,1,1,0.5,0,0,1,0.5",""
"","html-keyboard-response","11","28395","0.0-11.0","3FIUS151DWO50Z3HQJIOVCZ7DCXGGV","AIEKCWYZTS41V","3S829FDFT2NBOHQMM1CIOU0HZYXDXL","","null","<img src=""img/animal3.png"" style=""width:200px;border:14px solid red;"">","null","","","","","",""
"","image-keyboard-response","12","28923","0.0-12.0","3FIUS151DWO50Z3HQJIOVCZ7DCXGGV","AIEKCWYZTS41V","3S829FDFT2NBOHQMM1CIOU0HZYXDXL","","527.7999999970198","img/animal3.png","76","528.2000000029802","3","1","1","0.5,0,1,1,0.5,0,0,1,0.5",""
"","html-keyboard-response","13","29234","0.0-13.0","3FIUS151DWO50Z3HQJIOVCZ7DCXGGV","AIEKCWYZTS41V","3S829FDFT2NBOHQMM1CIOU0HZYXDXL","","null","<img src=""img/animal3.png"" style=""width:200px; border:14px solid green;"">","null","","","","","",""
"","image-keyboard-response","14","30120","0.0-14.0","3FIUS151DWO50Z3HQJIOVCZ7DCXGGV","AIEKCWYZTS41V","3S829FDFT2NBOHQMM1CIOU0HZYXDXL","","885.1000000089407","img/animal5.png","74","885.5","1","1","2","0.5,0,1,1,0.5,0,0,1,0.5",""
"","html-keyboard-response","15","30421","0.0-15.0","3FIUS151DWO50Z3HQJIOVCZ7DCXGGV","AIEKCWYZTS41V","3S829FDFT2NBOHQMM1CIOU0HZYXDXL","","null","<img src=""img/animal5.png"" style=""width:200px; border:14px solid green;"">","null","","","","","",""
"","image-keyboard-response","16","31063","0.0-16.0","3FIUS151DWO50Z3HQJIOVCZ7DCXGGV","AIEKCWYZTS41V","3S829FDFT2NBOHQMM1CIOU0HZYXDXL","","641.5","img/animal6.png","75","641.9000000059605","2","1","3","0.5,0,1,1,0.5,0,0,1,0.5",""
"","html-keyboard-response","17","31365","0.0-17.0","3FIUS151DWO50Z3HQJIOVCZ7DCXGGV","AIEKCWYZTS41V","3S829FDFT2NBOHQMM1CIOU0HZYXDXL","","null","<img src=""img/animal6.png"" style=""width:200px; border:14px solid green;"">","null","","","","","",""
"","image-keyboard-response","18","31639","0.0-18.0","3FIUS151DWO50Z3HQJIOVCZ7DCXGGV","AIEKCWYZTS41V","3S829FDFT2NBOHQMM1CIOU0HZYXDXL","","274","img/animal6.png","75","274.29999999701977","2","1","3","0.5,0,1,1,0.5,0,0,1,0.5",""
"","html-keyboard-response","19","31941","0.0-19.0","3FIUS151DWO50Z3HQJIOVCZ7DCXGGV","AIEKCWYZTS41V","3S829FDFT2NBOHQMM1CIOU0HZYXDXL","","null","<img src=""img/animal6.png"" style=""width:200px; border:14px solid green;"">","null","","","","","",""
"","image-keyboard-response","20","32350","0.0-20.0","3FIUS151DWO50Z3HQJIOVCZ7DCXGGV","AIEKCWYZTS41V","3S829FDFT2NBOHQMM1CIOU0HZYXDXL","","407.8999999910593","img/animal3.png","76","408.29999999701977","3","1","1","0.5,0,1,1,0.5,0,0,1,0.5",""
"","html-keyboard-response","21","32652","0.0-21.0","3FIUS151DWO50Z3HQJIOVCZ7DCXGGV","AIEKCWYZTS41V","3S829FDFT2NBOHQMM1CIOU0HZYXDXL","","null","<img src=""img/animal3.png"" style=""width:200px; border:14px solid green;"">","null","","","","","",""
"","image-keyboard-response","22","32903","0.0-22.0","3FIUS151DWO50Z3HQJIOVCZ7DCXGGV","AIEKCWYZTS41V","3S829FDFT2NBOHQMM1CIOU0HZYXDXL","","251.09999999403954","img/animal3.png","76","251.40000000596046","3","1","1","0.5,0,1,1,0.5,0,0,1,0.5",""
"","html-keyboard-response","23","33205","0.0-23.0","3FIUS151DWO50Z3HQJIOVCZ7DCXGGV","AIEKCWYZTS41V","3S829FDFT2NBOHQMM1CIOU0HZYXDXL","","null","<img src=""img/animal3.png"" style=""width:200px; border:14px solid green;"">","null","","","","","",""
"","image-keyboard-response","24","33447","0.0-24.0","3FIUS151DWO50Z3HQJIOVCZ7DCXGGV","AIEKCWYZTS41V","3S829FDFT2NBOHQMM1CIOU0HZYXDXL","","241.79999999701977","img/animal3.png","76","242.1000000089407","3","1","1","0.5,0,1,1,0.5,0,0,1,0.5",""
"","html-keyboard-response","25","33749","0.0-25.0","3FIUS151DWO50Z3HQJIOVCZ7DCXGGV","AIEKCWYZTS41V","3S829FDFT2NBOHQMM1CIOU0HZYXDXL","","null","<img src=""img/animal3.png"" style=""width:200px; border:14px solid green;"">","null","","","","","",""
"","image-keyboard-response","26","34374","0.0-26.0","3FIUS151DWO50Z3HQJIOVCZ7DCXGGV","AIEKCWYZTS41V","3S829FDFT2NBOHQMM1CIOU0HZYXDXL","","624.5999999940395","img/animal6.png","75","625.0999999940395","2","1","3","0.5,0,1,1,0.5,0,0,1,0.5",""
"","html-keyboard-response","27","34675","0.0-27.0","3FIUS151DWO50Z3HQJIOVCZ7DCXGGV","AIEKCWYZTS41V","3S829FDFT2NBOHQMM1CIOU0HZYXDXL","","null","<img src=""img/animal6.png"" style=""width:200px; border:14px solid green;"">","null","","","","","",""
"","image-keyboard-response","28","34961","0.0-28.0","3FIUS151DWO50Z3HQJIOVCZ7DCXGGV","AIEKCWYZTS41V","3S829FDFT2NBOHQMM1CIOU0HZYXDXL","","285.90000000596046","img/animal6.png","75","286.09999999403954","2","1","3","0.5,0,1,1,0.5,0,0,1,0.5",""
"","html-keyboard-response","29","35263","0.0-29.0","3FIUS151DWO50Z3HQJIOVCZ7DCXGGV","AIEKCWYZTS41V","3S829FDFT2NBOHQMM1CIOU0HZYXDXL","","null","<img src=""img/animal6.png"" style=""width:200px; border:14px solid green;"">","null","","","","","",""
"","image-keyboard-response","30","35478","0.0-30.0","3FIUS151DWO50Z3HQJIOVCZ7DCXGGV","AIEKCWYZTS41V","3S829FDFT2NBOHQMM1CIOU0HZYXDXL","","214.40000000596046","img/animal6.png","75","214.79999999701977","2","1","3","0.5,0,1,1,0.5,0,0,1,0.5",""
"","html-keyboard-response","31","35778","0.0-31.0","3FIUS151DWO50Z3HQJIOVCZ7DCXGGV","AIEKCWYZTS41V","3S829FDFT2NBOHQMM1CIOU0HZYXDXL","","null","<img src=""img/animal6.png"" style=""width:200px; border:14px solid green;"">","null","","","","","",""
"","image-keyboard-response","32","35932","0.0-32.0","3FIUS151DWO50Z3HQJIOVCZ7DCXGGV","AIEKCWYZTS41V","3S829FDFT2NBOHQMM1CIOU0HZYXDXL","","152.79999999701977","img/animal3.png","75","153.29999999701977","2","0","1","0.5,0,1,1,0.5,0,0,1,0.5",""
"","html-keyboard-response","33","36233","0.0-33.0","3FIUS151DWO50Z3HQJIOVCZ7DCXGGV","AIEKCWYZTS41V","3S829FDFT2NBOHQMM1CIOU0HZYXDXL","","null","<img src=""img/animal3.png"" style=""width:200px;border:14px solid red;"">","null","","","","","",""
"","image-keyboard-response","34","36369","0.0-34.0","3FIUS151DWO50Z3HQJIOVCZ7DCXGGV","AIEKCWYZTS41V","3S829FDFT2NBOHQMM1CIOU0HZYXDXL","","135","img/animal3.png","76","135.40000000596046","3","1","1","0.5,0,1,1,0.5,0,0,1,0.5",""
"","html-keyboard-response","35","36670","0.0-35.0","3FIUS151DWO50Z3HQJIOVCZ7DCXGGV","AIEKCWYZTS41V","3S829FDFT2NBOHQMM1CIOU0HZYXDXL","","null","<img src=""img/animal3.png"" style=""width:200px; border:14px solid green;"">","null","","","","","",""
"","image-keyboard-response","36","36821","0.0-36.0","3FIUS151DWO50Z3HQJIOVCZ7DCXGGV","AIEKCWYZTS41V","3S829FDFT2NBOHQMM1CIOU0HZYXDXL","","150.1000000089407","img/animal5.png","76","150.40000000596046","3","0","2","0.5,0,1,1,0.5,0,0,1,0.5",""
"","html-keyboard-response","37","37122","0.0-37.0","3FIUS151DWO50Z3HQJIOVCZ7DCXGGV","AIEKCWYZTS41V","3S829FDFT2NBOHQMM1CIOU0HZYXDXL","","null","<img src=""img/animal5.png"" style=""width:200px;border:14px solid red;"">","null","","","","","",""
"","image-keyboard-response","38","37218","0.0-38.0","3FIUS151DWO50Z3HQJIOVCZ7DCXGGV","AIEKCWYZTS41V","3S829FDFT2NBOHQMM1CIOU0HZYXDXL","","95.29999999701977","img/animal6.png","74","95.59999999403954","1","0","3","0.5,0,1,1,0.5,0,0,1,0.5",""
"","html-keyboard-response","39","37519","0.0-39.0","3FIUS151DWO50Z3HQJIOVCZ7DCXGGV","AIEKCWYZTS41V","3S829FDFT2NBOHQMM1CIOU0HZYXDXL","","null","<img src=""img/animal6.png"" style=""width:200px;border:14px solid red;"">","null","","","","","",""
"","image-keyboard-response","40","38142","0.0-40.0","3FIUS151DWO50Z3HQJIOVCZ7DCXGGV","AIEKCWYZTS41V","3S829FDFT2NBOHQMM1CIOU0HZYXDXL","","622.5","img/animal3.png","76","622.9000000059605","3","1","1","0.5,0,1,1,0.5,0,0,1,0.5",""
"","html-keyboard-response","41","38444","0.0-41.0","3FIUS151DWO50Z3HQJIOVCZ7DCXGGV","AIEKCWYZTS41V","3S829FDFT2NBOHQMM1CIOU0HZYXDXL","","null","<img src=""img/animal3.png"" style=""width:200px; border:14px solid green;"">","null","","","","","",""
"","image-keyboard-response","42","38756","0.0-42.0","3FIUS151DWO50Z3HQJIOVCZ7DCXGGV","AIEKCWYZTS41V","3S829FDFT2NBOHQMM1CIOU0HZYXDXL","","311.30000001192093","img/animal3.png","76","311.70000000298023","3","1","1","0.5,0,1,1,0.5,0,0,1,0.5",""
"","html-keyboard-response","43","39058","0.0-43.0","3FIUS151DWO50Z3HQJIOVCZ7DCXGGV","AIEKCWYZTS41V","3S829FDFT2NBOHQMM1CIOU0HZYXDXL","","null","<img src=""img/animal3.png"" style=""width:200px; border:14px solid green;"">","null","","","","","",""
"","image-keyboard-response","44","39061","0.0-44.0","3FIUS151DWO50Z3HQJIOVCZ7DCXGGV","AIEKCWYZTS41V","3S829FDFT2NBOHQMM1CIOU0HZYXDXL","","2.7000000029802322","img/animal3.png","76","2.9000000059604645","3","1","1","0.5,0,1,1,0.5,0,0,1,0.5",""
"","html-keyboard-response","45","39361","0.0-45.0","3FIUS151DWO50Z3HQJIOVCZ7DCXGGV","AIEKCWYZTS41V","3S829FDFT2NBOHQMM1CIOU0HZYXDXL","","null","<img src=""img/animal3.png"" style=""width:200px; border:14px solid green;"">","null","","","","","",""
"","image-keyboard-response","46","39622","0.0-46.0","3FIUS151DWO50Z3HQJIOVCZ7DCXGGV","AIEKCWYZTS41V","3S829FDFT2NBOHQMM1CIOU0HZYXDXL","","260.3999999910593","img/animal3.png","76","260.70000000298023","3","1","1","0.5,0,1,1,0.5,0,0,1,0.5",""
"","html-keyboard-response","47","39924","0.0-47.0","3FIUS151DWO50Z3HQJIOVCZ7DCXGGV","AIEKCWYZTS41V","3S829FDFT2NBOHQMM1CIOU0HZYXDXL","","null","<img src=""img/animal3.png"" style=""width:200px; border:14px solid green;"">","null","","","","","",""
"","image-keyboard-response","48","40054","0.0-48.0","3FIUS151DWO50Z3HQJIOVCZ7DCXGGV","AIEKCWYZTS41V","3S829FDFT2NBOHQMM1CIOU0HZYXDXL","","129.5","img/animal6.png","76","129.79999999701977","3","1","3","0.5,0,1,1,0.5,0,0,1,0.5",""
"","html-keyboard-response","49","40355","0.0-49.0","3FIUS151DWO50Z3HQJIOVCZ7DCXGGV","AIEKCWYZTS41V","3S829FDFT2NBOHQMM1CIOU0HZYXDXL","","null","<img src=""img/animal6.png"" style=""width:200px; border:14px solid green;"">","null","","","","","",""
"","image-keyboard-response","50","41078","0.0-50.0","3FIUS151DWO50Z3HQJIOVCZ7DCXGGV","AIEKCWYZTS41V","3S829FDFT2NBOHQMM1CIOU0HZYXDXL","","723.2000000029802","img/animal3.png","76","723.5","3","1","1","0.5,0,1,1,0.5,0,0,1,0.5",""
"","html-keyboard-response","51","41393","0.0-51.0","3FIUS151DWO50Z3HQJIOVCZ7DCXGGV","AIEKCWYZTS41V","3S829FDFT2NBOHQMM1CIOU0HZYXDXL","","null","<img src=""img/animal3.png"" style=""width:200px; border:14px solid green;"">","null","","","","","",""
"","image-keyboard-response","52","41786","0.0-52.0","3FIUS151DWO50Z3HQJIOVCZ7DCXGGV","AIEKCWYZTS41V","3S829FDFT2NBOHQMM1CIOU0HZYXDXL","","392.5","img/animal6.png","75","392.79999999701977","2","1","3","0.5,0,1,1,0.5,0,0,1,0.5",""
"","html-keyboard-response","53","42088","0.0-53.0","3FIUS151DWO50Z3HQJIOVCZ7DCXGGV","AIEKCWYZTS41V","3S829FDFT2NBOHQMM1CIOU0HZYXDXL","","null","<img src=""img/animal6.png"" style=""width:200px; border:14px solid green;"">","null","","","","","",""
"","image-keyboard-response","54","42181","0.0-54.0","3FIUS151DWO50Z3HQJIOVCZ7DCXGGV","AIEKCWYZTS41V","3S829FDFT2NBOHQMM1CIOU0HZYXDXL","","92.6000000089407","img/animal5.png","75","92.79999999701977","2","0","2","0.5,0,1,1,0.5,0,0,1,0.5",""
"","html-keyboard-response","55","42483","0.0-55.0","3FIUS151DWO50Z3HQJIOVCZ7DCXGGV","AIEKCWYZTS41V","3S829FDFT2NBOHQMM1CIOU0HZYXDXL","","null","<img src=""img/animal5.png"" style=""width:200px;border:14px solid red;"">","null","","","","","",""
"","image-keyboard-response","56","42942","0.0-56.0","3FIUS151DWO50Z3HQJIOVCZ7DCXGGV","AIEKCWYZTS41V","3S829FDFT2NBOHQMM1CIOU0HZYXDXL","","457.8999999910593","img/animal6.png","75","458.20000000298023","2","1","3","0.5,0,1,1,0.5,0,0,1,0.5",""
"","html-keyboard-response","57","43242","0.0-57.0","3FIUS151DWO50Z3HQJIOVCZ7DCXGGV","AIEKCWYZTS41V","3S829FDFT2NBOHQMM1CIOU0HZYXDXL","","null","<img src=""img/animal6.png"" style=""width:200px; border:14px solid green;"">","null","","","","","",""
"","image-keyboard-response","58","43509","0.0-58.0","3FIUS151DWO50Z3HQJIOVCZ7DCXGGV","AIEKCWYZTS41V","3S829FDFT2NBOHQMM1CIOU0HZYXDXL","","266.09999999403954","img/animal6.png","75","266.5","2","1","3","0.5,0,1,1,0.5,0,0,1,0.5",""
"","html-keyboard-response","59","43810","0.0-59.0","3FIUS151DWO50Z3HQJIOVCZ7DCXGGV","AIEKCWYZTS41V","3S829FDFT2NBOHQMM1CIOU0HZYXDXL","","null","<img src=""img/animal6.png"" style=""width:200px; border:14px solid green;"">","null","","","","","",""
"","image-keyboard-response","60","44185","0.0-60.0","3FIUS151DWO50Z3HQJIOVCZ7DCXGGV","AIEKCWYZTS41V","3S829FDFT2NBOHQMM1CIOU0HZYXDXL","","374.59999999403954","img/animal5.png","74","374.90000000596046","1","1","2","0.5,0,1,1,0.5,0,0,1,0.5",""
"","html-keyboard-response","61","44485","0.0-61.0","3FIUS151DWO50Z3HQJIOVCZ7DCXGGV","AIEKCWYZTS41V","3S829FDFT2NBOHQMM1CIOU0HZYXDXL","","null","<img src=""img/animal5.png"" style=""width:200px; border:14px solid green;"">","null","","","","","",""
"","image-keyboard-response","62","44951","0.0-62.0","3FIUS151DWO50Z3HQJIOVCZ7DCXGGV","AIEKCWYZTS41V","3S829FDFT2NBOHQMM1CIOU0HZYXDXL","","465.20000000298023","img/animal6.png","75","465.59999999403954","2","1","3","0.5,0,1,1,0.5,0,0,1,0.5",""
"","html-keyboard-response","63","45252","0.0-63.0","3FIUS151DWO50Z3HQJIOVCZ7DCXGGV","AIEKCWYZTS41V","3S829FDFT2NBOHQMM1CIOU0HZYXDXL","","null","<img src=""img/animal6.png"" style=""width:200px; border:14px solid green;"">","null","","","","","",""
"","image-keyboard-response","64","45749","0.0-64.0","3FIUS151DWO50Z3HQJIOVCZ7DCXGGV","AIEKCWYZTS41V","3S829FDFT2NBOHQMM1CIOU0HZYXDXL","","496.20000000298023","img/animal5.png","74","496.70000000298023","1","1","2","0.5,0,1,1,0.5,0,0,1,0.5",""
"","html-keyboard-response","65","46050","0.0-65.0","3FIUS151DWO50Z3HQJIOVCZ7DCXGGV","AIEKCWYZTS41V","3S829FDFT2NBOHQMM1CIOU0HZYXDXL","","null","<img src=""img/animal5.png"" style=""width:200px; border:14px solid green;"">","null","","","","","",""
"","image-keyboard-response","66","46441","0.0-66.0","3FIUS151DWO50Z3HQJIOVCZ7DCXGGV","AIEKCWYZTS41V","3S829FDFT2NBOHQMM1CIOU0HZYXDXL","","390.30000001192093","img/animal6.png","75","390.40000000596046","2","1","3","0.5,0,1,1,0.5,0,0,1,0.5",""
"","html-keyboard-response","67","46743","0.0-67.0","3FIUS151DWO50Z3HQJIOVCZ7DCXGGV","AIEKCWYZTS41V","3S829FDFT2NBOHQMM1CIOU0HZYXDXL","","null","<img src=""img/animal6.png"" style=""width:200px; border:14px solid green;"">","null","","","","","",""
"","image-keyboard-response","68","47213","0.0-68.0","3FIUS151DWO50Z3HQJIOVCZ7DCXGGV","AIEKCWYZTS41V","3S829FDFT2NBOHQMM1CIOU0HZYXDXL","","469.30000001192093","img/animal5.png","74","469.70000000298023","1","1","2","0.5,0,1,1,0.5,0,0,1,0.5",""
"","html-keyboard-response","69","47520","0.0-69.0","3FIUS151DWO50Z3HQJIOVCZ7DCXGGV","AIEKCWYZTS41V","3S829FDFT2NBOHQMM1CIOU0HZYXDXL","","null","<img src=""img/animal5.png"" style=""width:200px; border:14px solid green;"">","null","","","","","",""
"","image-keyboard-response","70","47872","0.0-70.0","3FIUS151DWO50Z3HQJIOVCZ7DCXGGV","AIEKCWYZTS41V","3S829FDFT2NBOHQMM1CIOU0HZYXDXL","","351.30000001192093","img/animal5.png","74","351.70000000298023","1","1","2","0.5,0,1,1,0.5,0,0,1,0.5",""
"","html-keyboard-response","71","48173","0.0-71.0","3FIUS151DWO50Z3HQJIOVCZ7DCXGGV","AIEKCWYZTS41V","3S829FDFT2NBOHQMM1CIOU0HZYXDXL","","null","<img src=""img/animal5.png"" style=""width:200px; border:14px solid green;"">","null","","","","","",""
"","image-keyboard-response","72","48710","0.0-72.0","3FIUS151DWO50Z3HQJIOVCZ7DCXGGV","AIEKCWYZTS41V","3S829FDFT2NBOHQMM1CIOU0HZYXDXL","","536.7000000029802","img/animal3.png","76","537.1999999880791","3","1","1","0.5,0,1,1,0.5,0,0,1,0.5",""
"","html-keyboard-response","73","49012","0.0-73.0","3FIUS151DWO50Z3HQJIOVCZ7DCXGGV","AIEKCWYZTS41V","3S829FDFT2NBOHQMM1CIOU0HZYXDXL","","null","<img src=""img/animal3.png"" style=""width:200px; border:14px solid green;"">","null","","","","","",""
"","image-keyboard-response","74","49283","0.0-74.0","3FIUS151DWO50Z3HQJIOVCZ7DCXGGV","AIEKCWYZTS41V","3S829FDFT2NBOHQMM1CIOU0HZYXDXL","","270.5","img/animal3.png","76","270.8999999910593","3","1","1","0.5,0,1,1,0.5,0,0,1,0.5",""
"","html-keyboard-response","75","49585","0.0-75.0","3FIUS151DWO50Z3HQJIOVCZ7DCXGGV","AIEKCWYZTS41V","3S829FDFT2NBOHQMM1CIOU0HZYXDXL","","null","<img src=""img/animal3.png"" style=""width:200px; border:14px solid green;"">","null","","","","","",""
"","image-keyboard-response","76","50044","0.0-76.0","3FIUS151DWO50Z3HQJIOVCZ7DCXGGV","AIEKCWYZTS41V","3S829FDFT2NBOHQMM1CIOU0HZYXDXL","","459.20000000298023","img/animal6.png","75","459.5","2","1","3","0.5,0,1,1,0.5,0,0,1,0.5",""
"","html-keyboard-response","77","50345","0.0-77.0","3FIUS151DWO50Z3HQJIOVCZ7DCXGGV","AIEKCWYZTS41V","3S829FDFT2NBOHQMM1CIOU0HZYXDXL","","null","<img src=""img/animal6.png"" style=""width:200px; border:14px solid green;"">","null","","","","","",""
"","image-keyboard-response","78","50781","0.0-78.0","3FIUS151DWO50Z3HQJIOVCZ7DCXGGV","AIEKCWYZTS41V","3S829FDFT2NBOHQMM1CIOU0HZYXDXL","","435.5","img/animal5.png","74","435.79999999701977","1","1","2","0.5,0,1,1,0.5,0,0,1,0.5",""
"","html-keyboard-response","79","51093","0.0-79.0","3FIUS151DWO50Z3HQJIOVCZ7DCXGGV","AIEKCWYZTS41V","3S829FDFT2NBOHQMM1CIOU0HZYXDXL","","null","<img src=""img/animal5.png"" style=""width:200px; border:14px solid green;"">","null","","","","","",""
"","image-keyboard-response","80","51580","0.0-80.0","3FIUS151DWO50Z3HQJIOVCZ7DCXGGV","AIEKCWYZTS41V","3S829FDFT2NBOHQMM1CIOU0HZYXDXL","","487.5","img/animal3.png","76","487.79999999701977","3","1","1","0.5,0,1,1,0.5,0,0,1,0.5",""
"","html-keyboard-response","81","51882","0.0-81.0","3FIUS151DWO50Z3HQJIOVCZ7DCXGGV","AIEKCWYZTS41V","3S829FDFT2NBOHQMM1CIOU0HZYXDXL","","null","<img src=""img/animal3.png"" style=""width:200px; border:14px solid green;"">","null","","","","","",""
"","image-keyboard-response","82","52444","0.0-82.0","3FIUS151DWO50Z3HQJIOVCZ7DCXGGV","AIEKCWYZTS41V","3S829FDFT2NBOHQMM1CIOU0HZYXDXL","","562.2000000029802","img/animal5.png","74","562.5999999940395","1","1","2","0.5,0,1,1,0.5,0,0,1,0.5",""
"","html-keyboard-response","83","52746","0.0-83.0","3FIUS151DWO50Z3HQJIOVCZ7DCXGGV","AIEKCWYZTS41V","3S829FDFT2NBOHQMM1CIOU0HZYXDXL","","null","<img src=""img/animal5.png"" style=""width:200px; border:14px solid green;"">","null","","","","","",""
"","image-keyboard-response","84","53409","0.0-84.0","3FIUS151DWO50Z3HQJIOVCZ7DCXGGV","AIEKCWYZTS41V","3S829FDFT2NBOHQMM1CIOU0HZYXDXL","","662","img/animal6.png","75","662.5","2","1","3","0.5,0,1,1,0.5,0,0,1,0.5",""
"","html-keyboard-response","85","53710","0.0-85.0","3FIUS151DWO50Z3HQJIOVCZ7DCXGGV","AIEKCWYZTS41V","3S829FDFT2NBOHQMM1CIOU0HZYXDXL","","null","<img src=""img/animal6.png"" style=""width:200px; border:14px solid green;"">","null","","","","","",""
"","image-keyboard-response","86","54336","0.0-86.0","3FIUS151DWO50Z3HQJIOVCZ7DCXGGV","AIEKCWYZTS41V","3S829FDFT2NBOHQMM1CIOU0HZYXDXL","","625","img/animal5.png","74","625.2999999970198","1","1","2","0.5,0,1,1,0.5,0,0,1,0.5",""
"","html-keyboard-response","87","54636","0.0-87.0","3FIUS151DWO50Z3HQJIOVCZ7DCXGGV","AIEKCWYZTS41V","3S829FDFT2NBOHQMM1CIOU0HZYXDXL","","null","<img src=""img/animal5.png"" style=""width:200px; border:14px solid green;"">","null","","","","","",""
"","image-keyboard-response","88","55186","0.0-88.0","3FIUS151DWO50Z3HQJIOVCZ7DCXGGV","AIEKCWYZTS41V","3S829FDFT2NBOHQMM1CIOU0HZYXDXL","","549.3000000119209","img/animal3.png","76","549.6999999880791","3","1","1","0.5,0,1,1,0.5,0,0,1,0.5",""
"","html-keyboard-response","89","55487","0.0-89.0","3FIUS151DWO50Z3HQJIOVCZ7DCXGGV","AIEKCWYZTS41V","3S829FDFT2NBOHQMM1CIOU0HZYXDXL","","null","<img src=""img/animal3.png"" style=""width:200px; border:14px solid green;"">","null","","","","","",""
"","image-keyboard-response","90","55813","0.0-90.0","3FIUS151DWO50Z3HQJIOVCZ7DCXGGV","AIEKCWYZTS41V","3S829FDFT2NBOHQMM1CIOU0HZYXDXL","","325.3999999910593","img/animal3.png","76","325.70000000298023","3","1","1","0.5,0,1,1,0.5,0,0,1,0.5",""
"","html-keyboard-response","91","56114","0.0-91.0","3FIUS151DWO50Z3HQJIOVCZ7DCXGGV","AIEKCWYZTS41V","3S829FDFT2NBOHQMM1CIOU0HZYXDXL","","null","<img src=""img/animal3.png"" style=""width:200px; border:14px solid green;"">","null","","","","","",""
"","image-keyboard-response","92","56732","0.0-92.0","3FIUS151DWO50Z3HQJIOVCZ7DCXGGV","AIEKCWYZTS41V","3S829FDFT2NBOHQMM1CIOU0HZYXDXL","","617.2000000029802","img/animal5.png","74","617.5999999940395","1","1","2","0.5,0,1,1,0.5,0,0,1,0.5",""
"","html-keyboard-response","93","57045","0.0-93.0","3FIUS151DWO50Z3HQJIOVCZ7DCXGGV","AIEKCWYZTS41V","3S829FDFT2NBOHQMM1CIOU0HZYXDXL","","null","<img src=""img/animal5.png"" style=""width:200px; border:14px solid green;"">","null","","","","","",""
"","image-keyboard-response","94","57371","0.0-94.0","3FIUS151DWO50Z3HQJIOVCZ7DCXGGV","AIEKCWYZTS41V","3S829FDFT2NBOHQMM1CIOU0HZYXDXL","","325.1000000089407","img/animal5.png","74","325.59999999403954","1","1","2","0.5,0,1,1,0.5,0,0,1,0.5",""
"","html-keyboard-response","95","57673","0.0-95.0","3FIUS151DWO50Z3HQJIOVCZ7DCXGGV","AIEKCWYZTS41V","3S829FDFT2NBOHQMM1CIOU0HZYXDXL","","null","<img src=""img/animal5.png"" style=""width:200px; border:14px solid green;"">","null","","","","","",""
"","image-keyboard-response","96","57965","0.0-96.0","3FIUS151DWO50Z3HQJIOVCZ7DCXGGV","AIEKCWYZTS41V","3S829FDFT2NBOHQMM1CIOU0HZYXDXL","","292","img/animal5.png","74","292.29999999701977","1","1","2","0.5,0,1,1,0.5,0,0,1,0.5",""
"","html-keyboard-response","97","58265","0.0-97.0","3FIUS151DWO50Z3HQJIOVCZ7DCXGGV","AIEKCWYZTS41V","3S829FDFT2NBOHQMM1CIOU0HZYXDXL","","null","<img src=""img/animal5.png"" style=""width:200px; border:14px solid green;"">","null","","","","","",""
"","image-keyboard-response","98","58533","0.0-98.0","3FIUS151DWO50Z3HQJIOVCZ7DCXGGV","AIEKCWYZTS41V","3S829FDFT2NBOHQMM1CIOU0HZYXDXL","","267.29999999701977","img/animal5.png","74","267.5","1","1","2","0.5,0,1,1,0.5,0,0,1,0.5",""
"","html-keyboard-response","99","58835","0.0-99.0","3FIUS151DWO50Z3HQJIOVCZ7DCXGGV","AIEKCWYZTS41V","3S829FDFT2NBOHQMM1CIOU0HZYXDXL","","null","<img src=""img/animal5.png"" style=""width:200px; border:14px solid green;"">","null","","","","","",""
"","image-keyboard-response","100","59104","0.0-100.0","3FIUS151DWO50Z3HQJIOVCZ7DCXGGV","AIEKCWYZTS41V","3S829FDFT2NBOHQMM1CIOU0HZYXDXL","","269","img/animal5.png","74","269.29999999701977","1","1","2","0.5,0,1,1,0.5,0,0,1,0.5",""
"","html-keyboard-response","101","59405","0.0-101.0","3FIUS151DWO50Z3HQJIOVCZ7DCXGGV","AIEKCWYZTS41V","3S829FDFT2NBOHQMM1CIOU0HZYXDXL","","null","<img src=""img/animal5.png"" style=""width:200px; border:14px solid green;"">","null","","","","","",""
"","image-keyboard-response","102","60503","0.0-102.0","3FIUS151DWO50Z3HQJIOVCZ7DCXGGV","AIEKCWYZTS41V","3S829FDFT2NBOHQMM1CIOU0HZYXDXL","","1097","img/animal6.png","75","1097.4000000059605","2","1","3","0.5,0,1,1,0.5,0,0,1,0.5",""
"","html-keyboard-response","103","60804","0.0-103.0","3FIUS151DWO50Z3HQJIOVCZ7DCXGGV","AIEKCWYZTS41V","3S829FDFT2NBOHQMM1CIOU0HZYXDXL","","null","<img src=""img/animal6.png"" style=""width:200px; border:14px solid green;"">","null","","","","","",""
"","image-keyboard-response","104","61069","0.0-104.0","3FIUS151DWO50Z3HQJIOVCZ7DCXGGV","AIEKCWYZTS41V","3S829FDFT2NBOHQMM1CIOU0HZYXDXL","","265.29999999701977","img/animal6.png","75","265.70000000298023","2","1","3","0.5,0,1,1,0.5,0,0,1,0.5",""
"","html-keyboard-response","105","61371","0.0-105.0","3FIUS151DWO50Z3HQJIOVCZ7DCXGGV","AIEKCWYZTS41V","3S829FDFT2NBOHQMM1CIOU0HZYXDXL","","null","<img src=""img/animal6.png"" style=""width:200px; border:14px solid green;"">","null","","","","","",""
"","image-keyboard-response","106","61623","0.0-106.0","3FIUS151DWO50Z3HQJIOVCZ7DCXGGV","AIEKCWYZTS41V","3S829FDFT2NBOHQMM1CIOU0HZYXDXL","","251.79999999701977","img/animal6.png","75","252","2","1","3","0.5,0,1,1,0.5,0,0,1,0.5",""
"","html-keyboard-response","107","61925","0.0-107.0","3FIUS151DWO50Z3HQJIOVCZ7DCXGGV","AIEKCWYZTS41V","3S829FDFT2NBOHQMM1CIOU0HZYXDXL","","null","<img src=""img/animal6.png"" style=""width:200px; border:14px solid green;"">","null","","","","","",""
"","image-keyboard-response","108","62451","0.0-108.0","3FIUS151DWO50Z3HQJIOVCZ7DCXGGV","AIEKCWYZTS41V","3S829FDFT2NBOHQMM1CIOU0HZYXDXL","","525","img/animal3.png","76","525.4000000059605","3","1","1","0.5,0,1,1,0.5,0,0,1,0.5",""
"","html-keyboard-response","109","62753","0.0-109.0","3FIUS151DWO50Z3HQJIOVCZ7DCXGGV","AIEKCWYZTS41V","3S829FDFT2NBOHQMM1CIOU0HZYXDXL","","null","<img src=""img/animal3.png"" style=""width:200px; border:14px solid green;"">","null","","","","","",""
"","image-keyboard-response","110","63320","0.0-110.0","3FIUS151DWO50Z3HQJIOVCZ7DCXGGV","AIEKCWYZTS41V","3S829FDFT2NBOHQMM1CIOU0HZYXDXL","","566.0999999940395","img/animal6.png","75","566.6000000089407","2","1","3","0.5,0,1,1,0.5,0,0,1,0.5",""
"","html-keyboard-response","111","63621","0.0-111.0","3FIUS151DWO50Z3HQJIOVCZ7DCXGGV","AIEKCWYZTS41V","3S829FDFT2NBOHQMM1CIOU0HZYXDXL","","null","<img src=""img/animal6.png"" style=""width:200px; border:14px solid green;"">","null","","","","","",""
"","image-keyboard-response","112","63967","0.0-112.0","3FIUS151DWO50Z3HQJIOVCZ7DCXGGV","AIEKCWYZTS41V","3S829FDFT2NBOHQMM1CIOU0HZYXDXL","","345.20000000298023","img/animal6.png","75","345.5","2","1","3","0.5,0,1,1,0.5,0,0,1,0.5",""
"","html-keyboard-response","113","64267","0.0-113.0","3FIUS151DWO50Z3HQJIOVCZ7DCXGGV","AIEKCWYZTS41V","3S829FDFT2NBOHQMM1CIOU0HZYXDXL","","null","<img src=""img/animal6.png"" style=""width:200px; border:14px solid green;"">","null","","","","","",""
"","image-keyboard-response","114","64836","0.0-114.0","3FIUS151DWO50Z3HQJIOVCZ7DCXGGV","AIEKCWYZTS41V","3S829FDFT2NBOHQMM1CIOU0HZYXDXL","","567.7000000029802","img/animal5.png","74","568.2000000029802","1","1","2","0.5,0,1,1,0.5,0,0,1,0.5",""
"","html-keyboard-response","115","65137","0.0-115.0","3FIUS151DWO50Z3HQJIOVCZ7DCXGGV","AIEKCWYZTS41V","3S829FDFT2NBOHQMM1CIOU0HZYXDXL","","null","<img src=""img/animal5.png"" style=""width:200px; border:14px solid green;"">","null","","","","","",""
"","image-keyboard-response","116","66063","0.0-116.0","3FIUS151DWO50Z3HQJIOVCZ7DCXGGV","AIEKCWYZTS41V","3S829FDFT2NBOHQMM1CIOU0HZYXDXL","","925.6000000089407","img/animal6.png","75","926.0999999940395","2","1","3","0.5,0,1,1,0.5,0,0,1,0.5",""
"","html-keyboard-response","117","66364","0.0-117.0","3FIUS151DWO50Z3HQJIOVCZ7DCXGGV","AIEKCWYZTS41V","3S829FDFT2NBOHQMM1CIOU0HZYXDXL","","null","<img src=""img/animal6.png"" style=""width:200px; border:14px solid green;"">","null","","","","","",""
"","image-keyboard-response","118","68298","0.0-118.0","3FIUS151DWO50Z3HQJIOVCZ7DCXGGV","AIEKCWYZTS41V","3S829FDFT2NBOHQMM1CIOU0HZYXDXL","","1933.5","img/animal5.png","74","1933.800000011921","1","1","2","0.5,0,1,1,0.5,0,0,1,0.5",""
"","html-keyboard-response","119","68600","0.0-119.0","3FIUS151DWO50Z3HQJIOVCZ7DCXGGV","AIEKCWYZTS41V","3S829FDFT2NBOHQMM1CIOU0HZYXDXL","","null","<img src=""img/animal5.png"" style=""width:200px; border:14px solid green;"">","null","","","","","",""
"","image-keyboard-response","120","69358","0.0-120.0","3FIUS151DWO50Z3HQJIOVCZ7DCXGGV","AIEKCWYZTS41V","3S829FDFT2NBOHQMM1CIOU0HZYXDXL","","758.4000000059605","img/animal6.png","75","758.7000000029802","2","1","3","0.5,0,1,1,0.5,0,0,1,0.5",""
"","html-keyboard-response","121","69660","0.0-121.0","3FIUS151DWO50Z3HQJIOVCZ7DCXGGV","AIEKCWYZTS41V","3S829FDFT2NBOHQMM1CIOU0HZYXDXL","","null","<img src=""img/animal6.png"" style=""width:200px; border:14px solid green;"">","null","","","","","",""
"","image-keyboard-response","122","70190","0.0-122.0","3FIUS151DWO50Z3HQJIOVCZ7DCXGGV","AIEKCWYZTS41V","3S829FDFT2NBOHQMM1CIOU0HZYXDXL","","528.8999999910593","img/animal5.png","74","529.2000000029802","1","1","2","0.5,0,1,1,0.5,0,0,1,0.5",""
"","html-keyboard-response","123","70491","0.0-123.0","3FIUS151DWO50Z3HQJIOVCZ7DCXGGV","AIEKCWYZTS41V","3S829FDFT2NBOHQMM1CIOU0HZYXDXL","","null","<img src=""img/animal5.png"" style=""width:200px; border:14px solid green;"">","null","","","","","",""
"","image-keyboard-response","124","70783","0.0-124.0","3FIUS151DWO50Z3HQJIOVCZ7DCXGGV","AIEKCWYZTS41V","3S829FDFT2NBOHQMM1CIOU0HZYXDXL","","291.90000000596046","img/animal5.png","74","292.90000000596046","1","1","2","0.5,0,1,1,0.5,0,0,1,0.5",""
"","html-keyboard-response","125","71087","0.0-125.0","3FIUS151DWO50Z3HQJIOVCZ7DCXGGV","AIEKCWYZTS41V","3S829FDFT2NBOHQMM1CIOU0HZYXDXL","","null","<img src=""img/animal5.png"" style=""width:200px; border:14px solid green;"">","null","","","","","",""
"","image-keyboard-response","126","71349","0.0-126.0","3FIUS151DWO50Z3HQJIOVCZ7DCXGGV","AIEKCWYZTS41V","3S829FDFT2NBOHQMM1CIOU0HZYXDXL","","261.5","img/animal5.png","74","261.8999999910593","1","1","2","0.5,0,1,1,0.5,0,0,1,0.5",""
"","html-keyboard-response","127","71650","0.0-127.0","3FIUS151DWO50Z3HQJIOVCZ7DCXGGV","AIEKCWYZTS41V","3S829FDFT2NBOHQMM1CIOU0HZYXDXL","","null","<img src=""img/animal5.png"" style=""width:200px; border:14px solid green;"">","null","","","","","",""
"","image-keyboard-response","128","71912","0.0-128.0","3FIUS151DWO50Z3HQJIOVCZ7DCXGGV","AIEKCWYZTS41V","3S829FDFT2NBOHQMM1CIOU0HZYXDXL","","261","img/animal5.png","74","261.29999999701977","1","1","2","0.5,0,1,1,0.5,0,0,1,0.5",""
"","html-keyboard-response","129","72213","0.0-129.0","3FIUS151DWO50Z3HQJIOVCZ7DCXGGV","AIEKCWYZTS41V","3S829FDFT2NBOHQMM1CIOU0HZYXDXL","","null","<img src=""img/animal5.png"" style=""width:200px; border:14px solid green;"">","null","","","","","",""
"","image-keyboard-response","130","72909","0.0-130.0","3FIUS151DWO50Z3HQJIOVCZ7DCXGGV","AIEKCWYZTS41V","3S829FDFT2NBOHQMM1CIOU0HZYXDXL","","695.1000000089407","img/animal3.png","76","695.6000000089407","3","1","1","0.5,0,1,1,0.5,0,0,1,0.5",""
"","html-keyboard-response","131","73210","0.0-131.0","3FIUS151DWO50Z3HQJIOVCZ7DCXGGV","AIEKCWYZTS41V","3S829FDFT2NBOHQMM1CIOU0HZYXDXL","","null","<img src=""img/animal3.png"" style=""width:200px; border:14px solid green;"">","null","","","","","",""
"","image-keyboard-response","132","73498","0.0-132.0","3FIUS151DWO50Z3HQJIOVCZ7DCXGGV","AIEKCWYZTS41V","3S829FDFT2NBOHQMM1CIOU0HZYXDXL","","287.79999999701977","img/animal3.png","76","288","3","1","1","0.5,0,1,1,0.5,0,0,1,0.5",""
"","html-keyboard-response","133","73799","0.0-133.0","3FIUS151DWO50Z3HQJIOVCZ7DCXGGV","AIEKCWYZTS41V","3S829FDFT2NBOHQMM1CIOU0HZYXDXL","","null","<img src=""img/animal3.png"" style=""width:200px; border:14px solid green;"">","null","","","","","",""
"","image-keyboard-response","134","74057","0.0-134.0","3FIUS151DWO50Z3HQJIOVCZ7DCXGGV","AIEKCWYZTS41V","3S829FDFT2NBOHQMM1CIOU0HZYXDXL","","257.30000001192093","img/animal3.png","76","257.70000000298023","3","1","1","0.5,0,1,1,0.5,0,0,1,0.5",""
"","html-keyboard-response","135","74359","0.0-135.0","3FIUS151DWO50Z3HQJIOVCZ7DCXGGV","AIEKCWYZTS41V","3S829FDFT2NBOHQMM1CIOU0HZYXDXL","","null","<img src=""img/animal3.png"" style=""width:200px; border:14px solid green;"">","null","","","","","",""
"","image-keyboard-response","136","74848","0.0-136.0","3FIUS151DWO50Z3HQJIOVCZ7DCXGGV","AIEKCWYZTS41V","3S829FDFT2NBOHQMM1CIOU0HZYXDXL","","489","img/animal6.png","75","489.5","2","1","3","0.5,0,1,1,0.5,0,0,1,0.5",""
"","html-keyboard-response","137","75150","0.0-137.0","3FIUS151DWO50Z3HQJIOVCZ7DCXGGV","AIEKCWYZTS41V","3S829FDFT2NBOHQMM1CIOU0HZYXDXL","","null","<img src=""img/animal6.png"" style=""width:200px; border:14px solid green;"">","null","","","","","",""
"","image-keyboard-response","138","75435","0.0-138.0","3FIUS151DWO50Z3HQJIOVCZ7DCXGGV","AIEKCWYZTS41V","3S829FDFT2NBOHQMM1CIOU0HZYXDXL","","284.40000000596046","img/animal6.png","75","284.70000000298023","2","1","3","0.5,0,1,1,0.5,0,0,1,0.5",""
"","html-keyboard-response","139","75736","0.0-139.0","3FIUS151DWO50Z3HQJIOVCZ7DCXGGV","AIEKCWYZTS41V","3S829FDFT2NBOHQMM1CIOU0HZYXDXL","","null","<img src=""img/animal6.png"" style=""width:200px; border:14px solid green;"">","null","","","","","",""
"","image-keyboard-response","140","76033","0.0-140.0","3FIUS151DWO50Z3HQJIOVCZ7DCXGGV","AIEKCWYZTS41V","3S829FDFT2NBOHQMM1CIOU0HZYXDXL","","296.59999999403954","img/animal6.png","75","297","2","1","3","0.5,0,1,1,0.5,0,0,1,0.5",""
"","html-keyboard-response","141","76335","0.0-141.0","3FIUS151DWO50Z3HQJIOVCZ7DCXGGV","AIEKCWYZTS41V","3S829FDFT2NBOHQMM1CIOU0HZYXDXL","","null","<img src=""img/animal6.png"" style=""width:200px; border:14px solid green;"">","null","","","","","",""
"","image-keyboard-response","142","76879","0.0-142.0","3FIUS151DWO50Z3HQJIOVCZ7DCXGGV","AIEKCWYZTS41V","3S829FDFT2NBOHQMM1CIOU0HZYXDXL","","543.2999999970198","img/animal5.png","74","543.7000000029802","1","1","2","0.5,0,1,1,0.5,0,0,1,0.5",""
"","html-keyboard-response","143","77181","0.0-143.0","3FIUS151DWO50Z3HQJIOVCZ7DCXGGV","AIEKCWYZTS41V","3S829FDFT2NBOHQMM1CIOU0HZYXDXL","","null","<img src=""img/animal5.png"" style=""width:200px; border:14px solid green;"">","null","","","","","",""
"","image-keyboard-response","144","77437","0.0-144.0","3FIUS151DWO50Z3HQJIOVCZ7DCXGGV","AIEKCWYZTS41V","3S829FDFT2NBOHQMM1CIOU0HZYXDXL","","256.29999999701977","img/animal5.png","74","256.5","1","1","2","0.5,0,1,1,0.5,0,0,1,0.5",""
"","html-keyboard-response","145","77739","0.0-145.0","3FIUS151DWO50Z3HQJIOVCZ7DCXGGV","AIEKCWYZTS41V","3S829FDFT2NBOHQMM1CIOU0HZYXDXL","","null","<img src=""img/animal5.png"" style=""width:200px; border:14px solid green;"">","null","","","","","",""
"","image-keyboard-response","146","77996","0.0-146.0","3FIUS151DWO50Z3HQJIOVCZ7DCXGGV","AIEKCWYZTS41V","3S829FDFT2NBOHQMM1CIOU0HZYXDXL","","256.5","img/animal5.png","74","256.90000000596046","1","1","2","0.5,0,1,1,0.5,0,0,1,0.5",""
"","html-keyboard-response","147","78297","0.0-147.0","3FIUS151DWO50Z3HQJIOVCZ7DCXGGV","AIEKCWYZTS41V","3S829FDFT2NBOHQMM1CIOU0HZYXDXL","","null","<img src=""img/animal5.png"" style=""width:200px; border:14px solid green;"">","null","","","","","",""
"","image-keyboard-response","148","79267","0.0-148.0","3FIUS151DWO50Z3HQJIOVCZ7DCXGGV","AIEKCWYZTS41V","3S829FDFT2NBOHQMM1CIOU0HZYXDXL","","969.0999999940395","img/animal3.png","76","969.5","3","1","1","0.5,0,1,1,0.5,0,0,1,0.5",""
"","html-keyboard-response","149","79568","0.0-149.0","3FIUS151DWO50Z3HQJIOVCZ7DCXGGV","AIEKCWYZTS41V","3S829FDFT2NBOHQMM1CIOU0HZYXDXL","","null","<img src=""img/animal3.png"" style=""width:200px; border:14px solid green;"">","null","","","","","",""
"","image-keyboard-response","150","80192","0.0-150.0","3FIUS151DWO50Z3HQJIOVCZ7DCXGGV","AIEKCWYZTS41V","3S829FDFT2NBOHQMM1CIOU0HZYXDXL","","624.4000000059605","img/animal6.png","75","624.7000000029802","2","1","3","0.5,0,1,1,0.5,0,0,1,0.5",""
"","html-keyboard-response","151","80494","0.0-151.0","3FIUS151DWO50Z3HQJIOVCZ7DCXGGV","AIEKCWYZTS41V","3S829FDFT2NBOHQMM1CIOU0HZYXDXL","","null","<img src=""img/animal6.png"" style=""width:200px; border:14px solid green;"">","null","","","","","",""
"","image-keyboard-response","152","81055","0.0-152.0","3FIUS151DWO50Z3HQJIOVCZ7DCXGGV","AIEKCWYZTS41V","3S829FDFT2NBOHQMM1CIOU0HZYXDXL","","560.5","img/animal5.png","74","560.9000000059605","1","1","2","0.5,0,1,1,0.5,0,0,1,0.5",""
"","html-keyboard-response","153","81357","0.0-153.0","3FIUS151DWO50Z3HQJIOVCZ7DCXGGV","AIEKCWYZTS41V","3S829FDFT2NBOHQMM1CIOU0HZYXDXL","","null","<img src=""img/animal5.png"" style=""width:200px; border:14px solid green;"">","null","","","","","",""
"","image-keyboard-response","154","81812","0.0-154.0","3FIUS151DWO50Z3HQJIOVCZ7DCXGGV","AIEKCWYZTS41V","3S829FDFT2NBOHQMM1CIOU0HZYXDXL","","454.30000001192093","img/animal6.png","75","454.70000000298023","2","1","3","0.5,0,1,1,0.5,0,0,1,0.5",""
"","html-keyboard-response","155","82113","0.0-155.0","3FIUS151DWO50Z3HQJIOVCZ7DCXGGV","AIEKCWYZTS41V","3S829FDFT2NBOHQMM1CIOU0HZYXDXL","","null","<img src=""img/animal6.png"" style=""width:200px; border:14px solid green;"">","null","","","","","",""
"","image-keyboard-response","156","82513","0.0-156.0","3FIUS151DWO50Z3HQJIOVCZ7DCXGGV","AIEKCWYZTS41V","3S829FDFT2NBOHQMM1CIOU0HZYXDXL","","399.80000001192093","img/animal3.png","76","400.20000000298023","3","1","1","0.5,0,1,1,0.5,0,0,1,0.5",""
"","html-keyboard-response","157","82814","0.0-157.0","3FIUS151DWO50Z3HQJIOVCZ7DCXGGV","AIEKCWYZTS41V","3S829FDFT2NBOHQMM1CIOU0HZYXDXL","","null","<img src=""img/animal3.png"" style=""width:200px; border:14px solid green;"">","null","","","","","",""
"","image-keyboard-response","158","83377","0.0-158.0","3FIUS151DWO50Z3HQJIOVCZ7DCXGGV","AIEKCWYZTS41V","3S829FDFT2NBOHQMM1CIOU0HZYXDXL","","562.4000000059605","img/animal5.png","74","562.7000000029802","1","1","2","0.5,0,1,1,0.5,0,0,1,0.5",""
"","html-keyboard-response","159","83679","0.0-159.0","3FIUS151DWO50Z3HQJIOVCZ7DCXGGV","AIEKCWYZTS41V","3S829FDFT2NBOHQMM1CIOU0HZYXDXL","","null","<img src=""img/animal5.png"" style=""width:200px; border:14px solid green;"">","null","","","","","",""
"","image-keyboard-response","160","84215","0.0-160.0","3FIUS151DWO50Z3HQJIOVCZ7DCXGGV","AIEKCWYZTS41V","3S829FDFT2NBOHQMM1CIOU0HZYXDXL","","534.7000000029802","img/animal3.png","76","535.1999999880791","3","1","1","0.5,0,1,1,0.5,0,0,1,0.5",""
"","html-keyboard-response","161","84515","0.0-161.0","3FIUS151DWO50Z3HQJIOVCZ7DCXGGV","AIEKCWYZTS41V","3S829FDFT2NBOHQMM1CIOU0HZYXDXL","","null","<img src=""img/animal3.png"" style=""width:200px; border:14px solid green;"">","null","","","","","",""
"","image-keyboard-response","162","84982","0.0-162.0","3FIUS151DWO50Z3HQJIOVCZ7DCXGGV","AIEKCWYZTS41V","3S829FDFT2NBOHQMM1CIOU0HZYXDXL","","466.5","img/animal3.png","76","466.70000000298023","3","1","1","0.5,0,1,1,0.5,0,0,1,0.5",""
"","html-keyboard-response","163","85285","0.0-163.0","3FIUS151DWO50Z3HQJIOVCZ7DCXGGV","AIEKCWYZTS41V","3S829FDFT2NBOHQMM1CIOU0HZYXDXL","","null","<img src=""img/animal3.png"" style=""width:200px; border:14px solid green;"">","null","","","","","",""
"","image-keyboard-response","164","85890","0.0-164.0","3FIUS151DWO50Z3HQJIOVCZ7DCXGGV","AIEKCWYZTS41V","3S829FDFT2NBOHQMM1CIOU0HZYXDXL","","605.5999999940395","img/animal5.png","74","605.9000000059605","1","1","2","0.5,0,1,1,0.5,0,0,1,0.5",""
"","html-keyboard-response","165","86192","0.0-165.0","3FIUS151DWO50Z3HQJIOVCZ7DCXGGV","AIEKCWYZTS41V","3S829FDFT2NBOHQMM1CIOU0HZYXDXL","","null","<img src=""img/animal5.png"" style=""width:200px; border:14px solid green;"">","null","","","","","",""
"","image-keyboard-response","166","86586","0.0-166.0","3FIUS151DWO50Z3HQJIOVCZ7DCXGGV","AIEKCWYZTS41V","3S829FDFT2NBOHQMM1CIOU0HZYXDXL","","393.5","img/animal5.png","74","393.8999999910593","1","1","2","0.5,0,1,1,0.5,0,0,1,0.5",""
"","html-keyboard-response","167","86888","0.0-167.0","3FIUS151DWO50Z3HQJIOVCZ7DCXGGV","AIEKCWYZTS41V","3S829FDFT2NBOHQMM1CIOU0HZYXDXL","","null","<img src=""img/animal5.png"" style=""width:200px; border:14px solid green;"">","null","","","","","",""
"","image-keyboard-response","168","87383","0.0-168.0","3FIUS151DWO50Z3HQJIOVCZ7DCXGGV","AIEKCWYZTS41V","3S829FDFT2NBOHQMM1CIOU0HZYXDXL","","495","img/animal6.png","75","495.29999999701977","2","1","3","0.5,0,1,1,0.5,0,0,1,0.5",""
"","html-keyboard-response","169","87685","0.0-169.0","3FIUS151DWO50Z3HQJIOVCZ7DCXGGV","AIEKCWYZTS41V","3S829FDFT2NBOHQMM1CIOU0HZYXDXL","","null","<img src=""img/animal6.png"" style=""width:200px; border:14px solid green;"">","null","","","","","",""
"","image-keyboard-response","170","88239","0.0-170.0","3FIUS151DWO50Z3HQJIOVCZ7DCXGGV","AIEKCWYZTS41V","3S829FDFT2NBOHQMM1CIOU0HZYXDXL","","553.5999999940395","img/animal3.png","76","553.9000000059605","3","1","1","0.5,0,1,1,0.5,0,0,1,0.5",""
"","html-keyboard-response","171","88539","0.0-171.0","3FIUS151DWO50Z3HQJIOVCZ7DCXGGV","AIEKCWYZTS41V","3S829FDFT2NBOHQMM1CIOU0HZYXDXL","","null","<img src=""img/animal3.png"" style=""width:200px; border:14px solid green;"">","null","","","","","",""
"","image-keyboard-response","172","89242","0.0-172.0","3FIUS151DWO50Z3HQJIOVCZ7DCXGGV","AIEKCWYZTS41V","3S829FDFT2NBOHQMM1CIOU0HZYXDXL","","702.0999999940395","img/animal6.png","75","702.4000000059605","2","1","3","0.5,0,1,1,0.5,0,0,1,0.5",""
"","html-keyboard-response","173","89543","0.0-173.0","3FIUS151DWO50Z3HQJIOVCZ7DCXGGV","AIEKCWYZTS41V","3S829FDFT2NBOHQMM1CIOU0HZYXDXL","","null","<img src=""img/animal6.png"" style=""width:200px; border:14px solid green;"">","null","","","","","",""
"","image-keyboard-response","174","91910","0.0-174.0","3FIUS151DWO50Z3HQJIOVCZ7DCXGGV","AIEKCWYZTS41V","3S829FDFT2NBOHQMM1CIOU0HZYXDXL","","2366.7000000029802","img/animal3.png","74","2366.7999999970198","1","0","1","0.5,0,1,1,0.5,0,0,1,0.5",""
"","html-keyboard-response","175","92212","0.0-175.0","3FIUS151DWO50Z3HQJIOVCZ7DCXGGV","AIEKCWYZTS41V","3S829FDFT2NBOHQMM1CIOU0HZYXDXL","","null","<img src=""img/animal3.png"" style=""width:200px;border:14px solid red;"">","null","","","","","",""
"","image-keyboard-response","176","92613","0.0-176.0","3FIUS151DWO50Z3HQJIOVCZ7DCXGGV","AIEKCWYZTS41V","3S829FDFT2NBOHQMM1CIOU0HZYXDXL","","400.90000000596046","img/animal3.png","76","401.40000000596046","3","1","1","0.5,0,1,1,0.5,0,0,1,0.5",""
"","html-keyboard-response","177","92914","0.0-177.0","3FIUS151DWO50Z3HQJIOVCZ7DCXGGV","AIEKCWYZTS41V","3S829FDFT2NBOHQMM1CIOU0HZYXDXL","","null","<img src=""img/animal3.png"" style=""width:200px; border:14px solid green;"">","null","","","","","",""
"","image-keyboard-response","178","93470","0.0-178.0","3FIUS151DWO50Z3HQJIOVCZ7DCXGGV","AIEKCWYZTS41V","3S829FDFT2NBOHQMM1CIOU0HZYXDXL","","555.5","img/animal5.png","74","555.7999999970198","1","1","2","0.5,0,1,1,0.5,0,0,1,0.5",""
"","html-keyboard-response","179","93772","0.0-179.0","3FIUS151DWO50Z3HQJIOVCZ7DCXGGV","AIEKCWYZTS41V","3S829FDFT2NBOHQMM1CIOU0HZYXDXL","","null","<img src=""img/animal5.png"" style=""width:200px; border:14px solid green;"">","null","","","","","",""
"","image-keyboard-response","180","94228","0.0-180.0","3FIUS151DWO50Z3HQJIOVCZ7DCXGGV","AIEKCWYZTS41V","3S829FDFT2NBOHQMM1CIOU0HZYXDXL","","456","img/animal3.png","76","456.40000000596046","3","1","1","0.5,0,1,1,0.5,0,0,1,0.5",""
"","html-keyboard-response","181","94530","0.0-181.0","3FIUS151DWO50Z3HQJIOVCZ7DCXGGV","AIEKCWYZTS41V","3S829FDFT2NBOHQMM1CIOU0HZYXDXL","","null","<img src=""img/animal3.png"" style=""width:200px; border:14px solid green;"">","null","","","","","",""
"","html-keyboard-response","182","96207","0.0-182.0","3FIUS151DWO50Z3HQJIOVCZ7DCXGGV","AIEKCWYZTS41V","3S829FDFT2NBOHQMM1CIOU0HZYXDXL","","","","","","","","","",""
"","image-keyboard-response","183","97052","0.0-183.0","3FIUS151DWO50Z3HQJIOVCZ7DCXGGV","AIEKCWYZTS41V","3S829FDFT2NBOHQMM1CIOU0HZYXDXL","","843.6000000089407","img/animal1.png","75","844.0999999940395","2","1","3","0.7,0,0.8,0.7,0.8,0,0.7,0.8,0",""
"","html-keyboard-response","184","97352","0.0-184.0","3FIUS151DWO50Z3HQJIOVCZ7DCXGGV","AIEKCWYZTS41V","3S829FDFT2NBOHQMM1CIOU0HZYXDXL","","null","<img src=""img/animal1.png"" style=""width:200px; border:14px solid green;"">","null","","","","","",""
"","image-keyboard-response","185","98293","0.0-185.0","3FIUS151DWO50Z3HQJIOVCZ7DCXGGV","AIEKCWYZTS41V","3S829FDFT2NBOHQMM1CIOU0HZYXDXL","","940.3999999910593","img/animal4.png","74","940.7000000029802","1","1","1","0.7,0,0.8,0.7,0.8,0,0.7,0.8,0",""
"","html-keyboard-response","186","98595","0.0-186.0","3FIUS151DWO50Z3HQJIOVCZ7DCXGGV","AIEKCWYZTS41V","3S829FDFT2NBOHQMM1CIOU0HZYXDXL","","null","<img src=""img/animal4.png"" style=""width:200px; border:14px solid green;"">","null","","","","","",""
"","image-keyboard-response","187","98953","0.0-187.0","3FIUS151DWO50Z3HQJIOVCZ7DCXGGV","AIEKCWYZTS41V","3S829FDFT2NBOHQMM1CIOU0HZYXDXL","","358","img/animal4.png","74","358.40000000596046","1","0","1","0.7,0,0.8,0.7,0.8,0,0.7,0.8,0",""
"","html-keyboard-response","188","99254","0.0-188.0","3FIUS151DWO50Z3HQJIOVCZ7DCXGGV","AIEKCWYZTS41V","3S829FDFT2NBOHQMM1CIOU0HZYXDXL","","null","<img src=""img/animal4.png"" style=""width:200px;border:14px solid red;"">","null","","","","","",""
"","image-keyboard-response","189","99892","0.0-189.0","3FIUS151DWO50Z3HQJIOVCZ7DCXGGV","AIEKCWYZTS41V","3S829FDFT2NBOHQMM1CIOU0HZYXDXL","","638.0999999940395","img/animal1.png","75","638.3999999910593","2","1","3","0.7,0,0.8,0.7,0.8,0,0.7,0.8,0",""
"","html-keyboard-response","190","100194","0.0-190.0","3FIUS151DWO50Z3HQJIOVCZ7DCXGGV","AIEKCWYZTS41V","3S829FDFT2NBOHQMM1CIOU0HZYXDXL","","null","<img src=""img/animal1.png"" style=""width:200px; border:14px solid green;"">","null","","","","","",""
"","image-keyboard-response","191","100474","0.0-191.0","3FIUS151DWO50Z3HQJIOVCZ7DCXGGV","AIEKCWYZTS41V","3S829FDFT2NBOHQMM1CIOU0HZYXDXL","","279.5","img/animal1.png","75","279.8999999910593","2","1","3","0.7,0,0.8,0.7,0.8,0,0.7,0.8,0",""
"","html-keyboard-response","192","100775","0.0-192.0","3FIUS151DWO50Z3HQJIOVCZ7DCXGGV","AIEKCWYZTS41V","3S829FDFT2NBOHQMM1CIOU0HZYXDXL","","null","<img src=""img/animal1.png"" style=""width:200px; border:14px solid green;"">","null","","","","","",""
"","image-keyboard-response","193","101239","0.0-193.0","3FIUS151DWO50Z3HQJIOVCZ7DCXGGV","AIEKCWYZTS41V","3S829FDFT2NBOHQMM1CIOU0HZYXDXL","","463.40000000596046","img/animal1.png","75","463.79999999701977","2","1","3","0.7,0,0.8,0.7,0.8,0,0.7,0.8,0",""
"","html-keyboard-response","194","101544","0.0-194.0","3FIUS151DWO50Z3HQJIOVCZ7DCXGGV","AIEKCWYZTS41V","3S829FDFT2NBOHQMM1CIOU0HZYXDXL","","null","<img src=""img/animal1.png"" style=""width:200px; border:14px solid green;"">","null","","","","","",""
"","image-keyboard-response","195","102248","0.0-195.0","3FIUS151DWO50Z3HQJIOVCZ7DCXGGV","AIEKCWYZTS41V","3S829FDFT2NBOHQMM1CIOU0HZYXDXL","","703.4000000059605","img/animal2.png","76","703.7000000029802","3","0","2","0.7,0,0.8,0.7,0.8,0,0.7,0.8,0",""
"","html-keyboard-response","196","102550","0.0-196.0","3FIUS151DWO50Z3HQJIOVCZ7DCXGGV","AIEKCWYZTS41V","3S829FDFT2NBOHQMM1CIOU0HZYXDXL","","null","<img src=""img/animal2.png"" style=""width:200px;border:14px solid red;"">","null","","","","","",""
"","image-keyboard-response","197","103126","0.0-197.0","3FIUS151DWO50Z3HQJIOVCZ7DCXGGV","AIEKCWYZTS41V","3S829FDFT2NBOHQMM1CIOU0HZYXDXL","","575.8999999910593","img/animal2.png","74","576.5999999940395","1","1","2","0.7,0,0.8,0.7,0.8,0,0.7,0.8,0",""
"","html-keyboard-response","198","103428","0.0-198.0","3FIUS151DWO50Z3HQJIOVCZ7DCXGGV","AIEKCWYZTS41V","3S829FDFT2NBOHQMM1CIOU0HZYXDXL","","null","<img src=""img/animal2.png"" style=""width:200px; border:14px solid green;"">","null","","","","","",""
"","image-keyboard-response","199","104127","0.0-199.0","3FIUS151DWO50Z3HQJIOVCZ7DCXGGV","AIEKCWYZTS41V","3S829FDFT2NBOHQMM1CIOU0HZYXDXL","","697.8999999910593","img/animal1.png","75","698.2999999970198","2","1","3","0.7,0,0.8,0.7,0.8,0,0.7,0.8,0",""
"","html-keyboard-response","200","104429","0.0-200.0","3FIUS151DWO50Z3HQJIOVCZ7DCXGGV","AIEKCWYZTS41V","3S829FDFT2NBOHQMM1CIOU0HZYXDXL","","null","<img src=""img/animal1.png"" style=""width:200px; border:14px solid green;"">","null","","","","","",""
"","image-keyboard-response","201","105107","0.0-201.0","3FIUS151DWO50Z3HQJIOVCZ7DCXGGV","AIEKCWYZTS41V","3S829FDFT2NBOHQMM1CIOU0HZYXDXL","","678.2000000029802","img/animal4.png","76","678.5","3","1","1","0.7,0,0.8,0.7,0.8,0,0.7,0.8,0",""
"","html-keyboard-response","202","105410","0.0-202.0","3FIUS151DWO50Z3HQJIOVCZ7DCXGGV","AIEKCWYZTS41V","3S829FDFT2NBOHQMM1CIOU0HZYXDXL","","null","<img src=""img/animal4.png"" style=""width:200px; border:14px solid green;"">","null","","","","","",""
"","image-keyboard-response","203","105946","0.0-203.0","3FIUS151DWO50Z3HQJIOVCZ7DCXGGV","AIEKCWYZTS41V","3S829FDFT2NBOHQMM1CIOU0HZYXDXL","","535.8999999910593","img/animal1.png","75","536.2000000029802","2","1","3","0.7,0,0.8,0.7,0.8,0,0.7,0.8,0",""
"","html-keyboard-response","204","106246","0.0-204.0","3FIUS151DWO50Z3HQJIOVCZ7DCXGGV","AIEKCWYZTS41V","3S829FDFT2NBOHQMM1CIOU0HZYXDXL","","null","<img src=""img/animal1.png"" style=""width:200px; border:14px solid green;"">","null","","","","","",""
"","image-keyboard-response","205","106767","0.0-205.0","3FIUS151DWO50Z3HQJIOVCZ7DCXGGV","AIEKCWYZTS41V","3S829FDFT2NBOHQMM1CIOU0HZYXDXL","","519.7000000029802","img/animal2.png","74","520","1","0","2","0.7,0,0.8,0.7,0.8,0,0.7,0.8,0",""
"","html-keyboard-response","206","107069","0.0-206.0","3FIUS151DWO50Z3HQJIOVCZ7DCXGGV","AIEKCWYZTS41V","3S829FDFT2NBOHQMM1CIOU0HZYXDXL","","null","<img src=""img/animal2.png"" style=""width:200px;border:14px solid red;"">","null","","","","","",""
"","image-keyboard-response","207","107597","0.0-207.0","3FIUS151DWO50Z3HQJIOVCZ7DCXGGV","AIEKCWYZTS41V","3S829FDFT2NBOHQMM1CIOU0HZYXDXL","","527.5999999940395","img/animal4.png","76","527.9000000059605","3","1","1","0.7,0,0.8,0.7,0.8,0,0.7,0.8,0",""
"","html-keyboard-response","208","107900","0.0-208.0","3FIUS151DWO50Z3HQJIOVCZ7DCXGGV","AIEKCWYZTS41V","3S829FDFT2NBOHQMM1CIOU0HZYXDXL","","null","<img src=""img/animal4.png"" style=""width:200px; border:14px solid green;"">","null","","","","","",""
"","image-keyboard-response","209","108192","0.0-209.0","3FIUS151DWO50Z3HQJIOVCZ7DCXGGV","AIEKCWYZTS41V","3S829FDFT2NBOHQMM1CIOU0HZYXDXL","","292","img/animal4.png","76","292.30000001192093","3","1","1","0.7,0,0.8,0.7,0.8,0,0.7,0.8,0",""
"","html-keyboard-response","210","108493","0.0-210.0","3FIUS151DWO50Z3HQJIOVCZ7DCXGGV","AIEKCWYZTS41V","3S829FDFT2NBOHQMM1CIOU0HZYXDXL","","null","<img src=""img/animal4.png"" style=""width:200px; border:14px solid green;"">","null","","","","","",""
"","image-keyboard-response","211","109083","0.0-211.0","3FIUS151DWO50Z3HQJIOVCZ7DCXGGV","AIEKCWYZTS41V","3S829FDFT2NBOHQMM1CIOU0HZYXDXL","","589","img/animal2.png","74","589.2999999970198","1","1","2","0.7,0,0.8,0.7,0.8,0,0.7,0.8,0",""
"","html-keyboard-response","212","109384","0.0-212.0","3FIUS151DWO50Z3HQJIOVCZ7DCXGGV","AIEKCWYZTS41V","3S829FDFT2NBOHQMM1CIOU0HZYXDXL","","null","<img src=""img/animal2.png"" style=""width:200px; border:14px solid green;"">","null","","","","","",""
"","image-keyboard-response","213","109805","0.0-213.0","3FIUS151DWO50Z3HQJIOVCZ7DCXGGV","AIEKCWYZTS41V","3S829FDFT2NBOHQMM1CIOU0HZYXDXL","","420.8999999910593","img/animal4.png","75","421.40000000596046","2","0","1","0.7,0,0.8,0.7,0.8,0,0.7,0.8,0",""
"","html-keyboard-response","214","110106","0.0-214.0","3FIUS151DWO50Z3HQJIOVCZ7DCXGGV","AIEKCWYZTS41V","3S829FDFT2NBOHQMM1CIOU0HZYXDXL","","null","<img src=""img/animal4.png"" style=""width:200px;border:14px solid red;"">","null","","","","","",""
"","image-keyboard-response","215","110661","0.0-215.0","3FIUS151DWO50Z3HQJIOVCZ7DCXGGV","AIEKCWYZTS41V","3S829FDFT2NBOHQMM1CIOU0HZYXDXL","","554.8999999910593","img/animal1.png","75","555.2999999970198","2","0","3","0.7,0,0.8,0.7,0.8,0,0.7,0.8,0",""
"","html-keyboard-response","216","110963","0.0-216.0","3FIUS151DWO50Z3HQJIOVCZ7DCXGGV","AIEKCWYZTS41V","3S829FDFT2NBOHQMM1CIOU0HZYXDXL","","null","<img src=""img/animal1.png"" style=""width:200px;border:14px solid red;"">","null","","","","","",""
"","image-keyboard-response","217","111548","0.0-217.0","3FIUS151DWO50Z3HQJIOVCZ7DCXGGV","AIEKCWYZTS41V","3S829FDFT2NBOHQMM1CIOU0HZYXDXL","","585.3999999910593","img/animal2.png","74","585.7000000029802","1","0","2","0.7,0,0.8,0.7,0.8,0,0.7,0.8,0",""
"","html-keyboard-response","218","111850","0.0-218.0","3FIUS151DWO50Z3HQJIOVCZ7DCXGGV","AIEKCWYZTS41V","3S829FDFT2NBOHQMM1CIOU0HZYXDXL","","null","<img src=""img/animal2.png"" style=""width:200px;border:14px solid red;"">","null","","","","","",""
"","image-keyboard-response","219","112575","0.0-219.0","3FIUS151DWO50Z3HQJIOVCZ7DCXGGV","AIEKCWYZTS41V","3S829FDFT2NBOHQMM1CIOU0HZYXDXL","","725.5","img/animal4.png","76","725.7999999970198","3","1","1","0.7,0,0.8,0.7,0.8,0,0.7,0.8,0",""
"","html-keyboard-response","220","112877","0.0-220.0","3FIUS151DWO50Z3HQJIOVCZ7DCXGGV","AIEKCWYZTS41V","3S829FDFT2NBOHQMM1CIOU0HZYXDXL","","null","<img src=""img/animal4.png"" style=""width:200px; border:14px solid green;"">","null","","","","","",""
"","image-keyboard-response","221","113230","0.0-221.0","3FIUS151DWO50Z3HQJIOVCZ7DCXGGV","AIEKCWYZTS41V","3S829FDFT2NBOHQMM1CIOU0HZYXDXL","","352.70000000298023","img/animal4.png","76","353","3","0","1","0.7,0,0.8,0.7,0.8,0,0.7,0.8,0",""
"","html-keyboard-response","222","113532","0.0-222.0","3FIUS151DWO50Z3HQJIOVCZ7DCXGGV","AIEKCWYZTS41V","3S829FDFT2NBOHQMM1CIOU0HZYXDXL","","null","<img src=""img/animal4.png"" style=""width:200px;border:14px solid red;"">","null","","","","","",""
"","image-keyboard-response","223","113818","0.0-223.0","3FIUS151DWO50Z3HQJIOVCZ7DCXGGV","AIEKCWYZTS41V","3S829FDFT2NBOHQMM1CIOU0HZYXDXL","","284.90000000596046","img/animal4.png","76","285.40000000596046","3","0","1","0.7,0,0.8,0.7,0.8,0,0.7,0.8,0",""
"","html-keyboard-response","224","114119","0.0-224.0","3FIUS151DWO50Z3HQJIOVCZ7DCXGGV","AIEKCWYZTS41V","3S829FDFT2NBOHQMM1CIOU0HZYXDXL","","null","<img src=""img/animal4.png"" style=""width:200px;border:14px solid red;"">","null","","","","","",""
"","image-keyboard-response","225","114736","0.0-225.0","3FIUS151DWO50Z3HQJIOVCZ7DCXGGV","AIEKCWYZTS41V","3S829FDFT2NBOHQMM1CIOU0HZYXDXL","","616.4000000059605","img/animal2.png","74","616.7000000029802","1","0","2","0.7,0,0.8,0.7,0.8,0,0.7,0.8,0",""
"","html-keyboard-response","226","115039","0.0-226.0","3FIUS151DWO50Z3HQJIOVCZ7DCXGGV","AIEKCWYZTS41V","3S829FDFT2NBOHQMM1CIOU0HZYXDXL","","null","<img src=""img/animal2.png"" style=""width:200px;border:14px solid red;"">","null","","","","","",""
"","image-keyboard-response","227","115304","0.0-227.0","3FIUS151DWO50Z3HQJIOVCZ7DCXGGV","AIEKCWYZTS41V","3S829FDFT2NBOHQMM1CIOU0HZYXDXL","","264.40000000596046","img/animal2.png","74","264.6000000089407","1","1","2","0.7,0,0.8,0.7,0.8,0,0.7,0.8,0",""
"","html-keyboard-response","228","115604","0.0-228.0","3FIUS151DWO50Z3HQJIOVCZ7DCXGGV","AIEKCWYZTS41V","3S829FDFT2NBOHQMM1CIOU0HZYXDXL","","null","<img src=""img/animal2.png"" style=""width:200px; border:14px solid green;"">","null","","","","","",""
"","image-keyboard-response","229","116148","0.0-229.0","3FIUS151DWO50Z3HQJIOVCZ7DCXGGV","AIEKCWYZTS41V","3S829FDFT2NBOHQMM1CIOU0HZYXDXL","","543.2999999970198","img/animal1.png","75","543.5999999940395","2","1","3","0.7,0,0.8,0.7,0.8,0,0.7,0.8,0",""
"","html-keyboard-response","230","116450","0.0-230.0","3FIUS151DWO50Z3HQJIOVCZ7DCXGGV","AIEKCWYZTS41V","3S829FDFT2NBOHQMM1CIOU0HZYXDXL","","null","<img src=""img/animal1.png"" style=""width:200px; border:14px solid green;"">","null","","","","","",""
"","image-keyboard-response","231","116737","0.0-231.0","3FIUS151DWO50Z3HQJIOVCZ7DCXGGV","AIEKCWYZTS41V","3S829FDFT2NBOHQMM1CIOU0HZYXDXL","","286.79999999701977","img/animal1.png","75","287.20000000298023","2","1","3","0.7,0,0.8,0.7,0.8,0,0.7,0.8,0",""
"","html-keyboard-response","232","117039","0.0-232.0","3FIUS151DWO50Z3HQJIOVCZ7DCXGGV","AIEKCWYZTS41V","3S829FDFT2NBOHQMM1CIOU0HZYXDXL","","null","<img src=""img/animal1.png"" style=""width:200px; border:14px solid green;"">","null","","","","","",""
"","image-keyboard-response","233","117504","0.0-233.0","3FIUS151DWO50Z3HQJIOVCZ7DCXGGV","AIEKCWYZTS41V","3S829FDFT2NBOHQMM1CIOU0HZYXDXL","","464.79999999701977","img/animal4.png","76","465.1000000089407","3","1","1","0.7,0,0.8,0.7,0.8,0,0.7,0.8,0",""
"","html-keyboard-response","234","117806","0.0-234.0","3FIUS151DWO50Z3HQJIOVCZ7DCXGGV","AIEKCWYZTS41V","3S829FDFT2NBOHQMM1CIOU0HZYXDXL","","null","<img src=""img/animal4.png"" style=""width:200px; border:14px solid green;"">","null","","","","","",""
"","image-keyboard-response","235","118051","0.0-235.0","3FIUS151DWO50Z3HQJIOVCZ7DCXGGV","AIEKCWYZTS41V","3S829FDFT2NBOHQMM1CIOU0HZYXDXL","","244.70000000298023","img/animal4.png","76","244.79999999701977","3","1","1","0.7,0,0.8,0.7,0.8,0,0.7,0.8,0",""
"","html-keyboard-response","236","118352","0.0-236.0","3FIUS151DWO50Z3HQJIOVCZ7DCXGGV","AIEKCWYZTS41V","3S829FDFT2NBOHQMM1CIOU0HZYXDXL","","null","<img src=""img/animal4.png"" style=""width:200px; border:14px solid green;"">","null","","","","","",""
"","image-keyboard-response","237","119313","0.0-237.0","3FIUS151DWO50Z3HQJIOVCZ7DCXGGV","AIEKCWYZTS41V","3S829FDFT2NBOHQMM1CIOU0HZYXDXL","","960.3999999910593","img/animal1.png","75","960.9000000059605","2","1","3","0.7,0,0.8,0.7,0.8,0,0.7,0.8,0",""
"","html-keyboard-response","238","119614","0.0-238.0","3FIUS151DWO50Z3HQJIOVCZ7DCXGGV","AIEKCWYZTS41V","3S829FDFT2NBOHQMM1CIOU0HZYXDXL","","null","<img src=""img/animal1.png"" style=""width:200px; border:14px solid green;"">","null","","","","","",""
"","image-keyboard-response","239","120057","0.0-239.0","3FIUS151DWO50Z3HQJIOVCZ7DCXGGV","AIEKCWYZTS41V","3S829FDFT2NBOHQMM1CIOU0HZYXDXL","","442.5","img/animal2.png","74","442.70000000298023","1","1","2","0.7,0,0.8,0.7,0.8,0,0.7,0.8,0",""
"","html-keyboard-response","240","120359","0.0-240.0","3FIUS151DWO50Z3HQJIOVCZ7DCXGGV","AIEKCWYZTS41V","3S829FDFT2NBOHQMM1CIOU0HZYXDXL","","null","<img src=""img/animal2.png"" style=""width:200px; border:14px solid green;"">","null","","","","","",""
"","image-keyboard-response","241","121065","0.0-241.0","3FIUS151DWO50Z3HQJIOVCZ7DCXGGV","AIEKCWYZTS41V","3S829FDFT2NBOHQMM1CIOU0HZYXDXL","","706.1999999880791","img/animal1.png","75","706.6000000089407","2","0","3","0.7,0,0.8,0.7,0.8,0,0.7,0.8,0",""
"","html-keyboard-response","242","121366","0.0-242.0","3FIUS151DWO50Z3HQJIOVCZ7DCXGGV","AIEKCWYZTS41V","3S829FDFT2NBOHQMM1CIOU0HZYXDXL","","null","<img src=""img/animal1.png"" style=""width:200px;border:14px solid red;"">","null","","","","","",""
"","image-keyboard-response","243","122104","0.0-243.0","3FIUS151DWO50Z3HQJIOVCZ7DCXGGV","AIEKCWYZTS41V","3S829FDFT2NBOHQMM1CIOU0HZYXDXL","","737.7000000029802","img/animal2.png","74","738","1","1","2","0.7,0,0.8,0.7,0.8,0,0.7,0.8,0",""
"","html-keyboard-response","244","122406","0.0-244.0","3FIUS151DWO50Z3HQJIOVCZ7DCXGGV","AIEKCWYZTS41V","3S829FDFT2NBOHQMM1CIOU0HZYXDXL","","null","<img src=""img/animal2.png"" style=""width:200px; border:14px solid green;"">","null","","","","","",""
"","image-keyboard-response","245","122827","0.0-245.0","3FIUS151DWO50Z3HQJIOVCZ7DCXGGV","AIEKCWYZTS41V","3S829FDFT2NBOHQMM1CIOU0HZYXDXL","","420.1000000089407","img/animal1.png","75","420.59999999403954","2","1","3","0.7,0,0.8,0.7,0.8,0,0.7,0.8,0",""
"","html-keyboard-response","246","123127","0.0-246.0","3FIUS151DWO50Z3HQJIOVCZ7DCXGGV","AIEKCWYZTS41V","3S829FDFT2NBOHQMM1CIOU0HZYXDXL","","null","<img src=""img/animal1.png"" style=""width:200px; border:14px solid green;"">","null","","","","","",""
"","image-keyboard-response","247","123676","0.0-247.0","3FIUS151DWO50Z3HQJIOVCZ7DCXGGV","AIEKCWYZTS41V","3S829FDFT2NBOHQMM1CIOU0HZYXDXL","","547.9000000059605","img/animal4.png","76","548.4000000059605","3","0","1","0.7,0,0.8,0.7,0.8,0,0.7,0.8,0",""
"","html-keyboard-response","248","123977","0.0-248.0","3FIUS151DWO50Z3HQJIOVCZ7DCXGGV","AIEKCWYZTS41V","3S829FDFT2NBOHQMM1CIOU0HZYXDXL","","null","<img src=""img/animal4.png"" style=""width:200px;border:14px solid red;"">","null","","","","","",""
"","image-keyboard-response","249","124527","0.0-249.0","3FIUS151DWO50Z3HQJIOVCZ7DCXGGV","AIEKCWYZTS41V","3S829FDFT2NBOHQMM1CIOU0HZYXDXL","","550","img/animal1.png","75","550.4000000059605","2","1","3","0.7,0,0.8,0.7,0.8,0,0.7,0.8,0",""
"","html-keyboard-response","250","124829","0.0-250.0","3FIUS151DWO50Z3HQJIOVCZ7DCXGGV","AIEKCWYZTS41V","3S829FDFT2NBOHQMM1CIOU0HZYXDXL","","null","<img src=""img/animal1.png"" style=""width:200px; border:14px solid green;"">","null","","","","","",""
"","image-keyboard-response","251","125374","0.0-251.0","3FIUS151DWO50Z3HQJIOVCZ7DCXGGV","AIEKCWYZTS41V","3S829FDFT2NBOHQMM1CIOU0HZYXDXL","","543.6999999880791","img/animal2.png","74","544.1000000089407","1","1","2","0.7,0,0.8,0.7,0.8,0,0.7,0.8,0",""
"","html-keyboard-response","252","125674","0.0-252.0","3FIUS151DWO50Z3HQJIOVCZ7DCXGGV","AIEKCWYZTS41V","3S829FDFT2NBOHQMM1CIOU0HZYXDXL","","null","<img src=""img/animal2.png"" style=""width:200px; border:14px solid green;"">","null","","","","","",""
"","image-keyboard-response","253","126358","0.0-253.0","3FIUS151DWO50Z3HQJIOVCZ7DCXGGV","AIEKCWYZTS41V","3S829FDFT2NBOHQMM1CIOU0HZYXDXL","","683.5","img/animal4.png","76","683.7999999970198","3","1","1","0.7,0,0.8,0.7,0.8,0,0.7,0.8,0",""
"","html-keyboard-response","254","126670","0.0-254.0","3FIUS151DWO50Z3HQJIOVCZ7DCXGGV","AIEKCWYZTS41V","3S829FDFT2NBOHQMM1CIOU0HZYXDXL","","null","<img src=""img/animal4.png"" style=""width:200px; border:14px solid green;"">","null","","","","","",""
"","image-keyboard-response","255","127076","0.0-255.0","3FIUS151DWO50Z3HQJIOVCZ7DCXGGV","AIEKCWYZTS41V","3S829FDFT2NBOHQMM1CIOU0HZYXDXL","","405.5","img/animal4.png","76","405.79999999701977","3","1","1","0.7,0,0.8,0.7,0.8,0,0.7,0.8,0",""
"","html-keyboard-response","256","127377","0.0-256.0","3FIUS151DWO50Z3HQJIOVCZ7DCXGGV","AIEKCWYZTS41V","3S829FDFT2NBOHQMM1CIOU0HZYXDXL","","null","<img src=""img/animal4.png"" style=""width:200px; border:14px solid green;"">","null","","","","","",""
"","image-keyboard-response","257","128776","0.0-257.0","3FIUS151DWO50Z3HQJIOVCZ7DCXGGV","AIEKCWYZTS41V","3S829FDFT2NBOHQMM1CIOU0HZYXDXL","","1398.5999999940395","img/animal1.png","75","1398.8999999910593","2","0","3","0.7,0,0.8,0.7,0.8,0,0.7,0.8,0",""
"","html-keyboard-response","258","129077","0.0-258.0","3FIUS151DWO50Z3HQJIOVCZ7DCXGGV","AIEKCWYZTS41V","3S829FDFT2NBOHQMM1CIOU0HZYXDXL","","null","<img src=""img/animal1.png"" style=""width:200px;border:14px solid red;"">","null","","","","","",""
"","image-keyboard-response","259","130844","0.0-259.0","3FIUS151DWO50Z3HQJIOVCZ7DCXGGV","AIEKCWYZTS41V","3S829FDFT2NBOHQMM1CIOU0HZYXDXL","","1765.9000000059605","img/animal1.png","75","1766.0999999940395","2","1","3","0.7,0,0.8,0.7,0.8,0,0.7,0.8,0",""
"","html-keyboard-response","260","131145","0.0-260.0","3FIUS151DWO50Z3HQJIOVCZ7DCXGGV","AIEKCWYZTS41V","3S829FDFT2NBOHQMM1CIOU0HZYXDXL","","null","<img src=""img/animal1.png"" style=""width:200px; border:14px solid green;"">","null","","","","","",""
"","image-keyboard-response","261","132143","0.0-261.0","3FIUS151DWO50Z3HQJIOVCZ7DCXGGV","AIEKCWYZTS41V","3S829FDFT2NBOHQMM1CIOU0HZYXDXL","","997.1000000089407","img/animal4.png","76","997.6000000089407","3","0","1","0.7,0,0.8,0.7,0.8,0,0.7,0.8,0",""
"","html-keyboard-response","262","132445","0.0-262.0","3FIUS151DWO50Z3HQJIOVCZ7DCXGGV","AIEKCWYZTS41V","3S829FDFT2NBOHQMM1CIOU0HZYXDXL","","null","<img src=""img/animal4.png"" style=""width:200px;border:14px solid red;"">","null","","","","","",""
"","image-keyboard-response","263","133159","0.0-263.0","3FIUS151DWO50Z3HQJIOVCZ7DCXGGV","AIEKCWYZTS41V","3S829FDFT2NBOHQMM1CIOU0HZYXDXL","","713.5","img/animal2.png","74","713.9000000059605","1","0","2","0.7,0,0.8,0.7,0.8,0,0.7,0.8,0",""
"","html-keyboard-response","264","133460","0.0-264.0","3FIUS151DWO50Z3HQJIOVCZ7DCXGGV","AIEKCWYZTS41V","3S829FDFT2NBOHQMM1CIOU0HZYXDXL","","null","<img src=""img/animal2.png"" style=""width:200px;border:14px solid red;"">","null","","","","","",""
"","image-keyboard-response","265","133907","0.0-265.0","3FIUS151DWO50Z3HQJIOVCZ7DCXGGV","AIEKCWYZTS41V","3S829FDFT2NBOHQMM1CIOU0HZYXDXL","","446.30000001192093","img/animal4.png","75","446.59999999403954","2","0","1","0.7,0,0.8,0.7,0.8,0,0.7,0.8,0",""
"","html-keyboard-response","266","134208","0.0-266.0","3FIUS151DWO50Z3HQJIOVCZ7DCXGGV","AIEKCWYZTS41V","3S829FDFT2NBOHQMM1CIOU0HZYXDXL","","null","<img src=""img/animal4.png"" style=""width:200px;border:14px solid red;"">","null","","","","","",""
"","image-keyboard-response","267","134743","0.0-267.0","3FIUS151DWO50Z3HQJIOVCZ7DCXGGV","AIEKCWYZTS41V","3S829FDFT2NBOHQMM1CIOU0HZYXDXL","","534.0999999940395","img/animal2.png","74","534.2999999970198","1","0","2","0.7,0,0.8,0.7,0.8,0,0.7,0.8,0",""
"","html-keyboard-response","268","135044","0.0-268.0","3FIUS151DWO50Z3HQJIOVCZ7DCXGGV","AIEKCWYZTS41V","3S829FDFT2NBOHQMM1CIOU0HZYXDXL","","null","<img src=""img/animal2.png"" style=""width:200px;border:14px solid red;"">","null","","","","","",""
"","image-keyboard-response","269","135827","0.0-269.0","3FIUS151DWO50Z3HQJIOVCZ7DCXGGV","AIEKCWYZTS41V","3S829FDFT2NBOHQMM1CIOU0HZYXDXL","","782.8999999910593","img/animal1.png","75","783.2999999970198","2","1","3","0.7,0,0.8,0.7,0.8,0,0.7,0.8,0",""
"","html-keyboard-response","270","136143","0.0-270.0","3FIUS151DWO50Z3HQJIOVCZ7DCXGGV","AIEKCWYZTS41V","3S829FDFT2NBOHQMM1CIOU0HZYXDXL","","null","<img src=""img/animal1.png"" style=""width:200px; border:14px solid green;"">","null","","","","","",""
"","image-keyboard-response","271","137484","0.0-271.0","3FIUS151DWO50Z3HQJIOVCZ7DCXGGV","AIEKCWYZTS41V","3S829FDFT2NBOHQMM1CIOU0HZYXDXL","","1340.7000000029802","img/animal2.png","76","1341.1000000089407","3","0","2","0.7,0,0.8,0.7,0.8,0,0.7,0.8,0",""
"","html-keyboard-response","272","137786","0.0-272.0","3FIUS151DWO50Z3HQJIOVCZ7DCXGGV","AIEKCWYZTS41V","3S829FDFT2NBOHQMM1CIOU0HZYXDXL","","null","<img src=""img/animal2.png"" style=""width:200px;border:14px solid red;"">","null","","","","","",""
"","image-keyboard-response","273","138329","0.0-273.0","3FIUS151DWO50Z3HQJIOVCZ7DCXGGV","AIEKCWYZTS41V","3S829FDFT2NBOHQMM1CIOU0HZYXDXL","","543.2999999970198","img/animal1.png","75","543.5999999940395","2","1","3","0.7,0,0.8,0.7,0.8,0,0.7,0.8,0",""
"","html-keyboard-response","274","138631","0.0-274.0","3FIUS151DWO50Z3HQJIOVCZ7DCXGGV","AIEKCWYZTS41V","3S829FDFT2NBOHQMM1CIOU0HZYXDXL","","null","<img src=""img/animal1.png"" style=""width:200px; border:14px solid green;"">","null","","","","","",""
"","image-keyboard-response","275","139014","0.0-275.0","3FIUS151DWO50Z3HQJIOVCZ7DCXGGV","AIEKCWYZTS41V","3S829FDFT2NBOHQMM1CIOU0HZYXDXL","","383.29999999701977","img/animal1.png","75","383.70000000298023","2","1","3","0.7,0,0.8,0.7,0.8,0,0.7,0.8,0",""
"","html-keyboard-response","276","139315","0.0-276.0","3FIUS151DWO50Z3HQJIOVCZ7DCXGGV","AIEKCWYZTS41V","3S829FDFT2NBOHQMM1CIOU0HZYXDXL","","null","<img src=""img/animal1.png"" style=""width:200px; border:14px solid green;"">","null","","","","","",""
"","image-keyboard-response","277","139691","0.0-277.0","3FIUS151DWO50Z3HQJIOVCZ7DCXGGV","AIEKCWYZTS41V","3S829FDFT2NBOHQMM1CIOU0HZYXDXL","","374.79999999701977","img/animal2.png","74","375.19999998807907","1","1","2","0.7,0,0.8,0.7,0.8,0,0.7,0.8,0",""
"","html-keyboard-response","278","139992","0.0-278.0","3FIUS151DWO50Z3HQJIOVCZ7DCXGGV","AIEKCWYZTS41V","3S829FDFT2NBOHQMM1CIOU0HZYXDXL","","null","<img src=""img/animal2.png"" style=""width:200px; border:14px solid green;"">","null","","","","","",""
"","image-keyboard-response","279","140553","0.0-279.0","3FIUS151DWO50Z3HQJIOVCZ7DCXGGV","AIEKCWYZTS41V","3S829FDFT2NBOHQMM1CIOU0HZYXDXL","","559.7000000029802","img/animal1.png","75","560.0999999940395","2","1","3","0.7,0,0.8,0.7,0.8,0,0.7,0.8,0",""
"","html-keyboard-response","280","140854","0.0-280.0","3FIUS151DWO50Z3HQJIOVCZ7DCXGGV","AIEKCWYZTS41V","3S829FDFT2NBOHQMM1CIOU0HZYXDXL","","null","<img src=""img/animal1.png"" style=""width:200px; border:14px solid green;"">","null","","","","","",""
"","image-keyboard-response","281","141379","0.0-281.0","3FIUS151DWO50Z3HQJIOVCZ7DCXGGV","AIEKCWYZTS41V","3S829FDFT2NBOHQMM1CIOU0HZYXDXL","","524.1000000089407","img/animal4.png","76","524.2000000029802","3","1","1","0.7,0,0.8,0.7,0.8,0,0.7,0.8,0",""
"","html-keyboard-response","282","141680","0.0-282.0","3FIUS151DWO50Z3HQJIOVCZ7DCXGGV","AIEKCWYZTS41V","3S829FDFT2NBOHQMM1CIOU0HZYXDXL","","null","<img src=""img/animal4.png"" style=""width:200px; border:14px solid green;"">","null","","","","","",""
"","image-keyboard-response","283","142497","0.0-283.0","3FIUS151DWO50Z3HQJIOVCZ7DCXGGV","AIEKCWYZTS41V","3S829FDFT2NBOHQMM1CIOU0HZYXDXL","","816.0999999940395","img/animal2.png","74","816.4000000059605","1","1","2","0.7,0,0.8,0.7,0.8,0,0.7,0.8,0",""
"","html-keyboard-response","284","142798","0.0-284.0","3FIUS151DWO50Z3HQJIOVCZ7DCXGGV","AIEKCWYZTS41V","3S829FDFT2NBOHQMM1CIOU0HZYXDXL","","null","<img src=""img/animal2.png"" style=""width:200px; border:14px solid green;"">","null","","","","","",""
"","image-keyboard-response","285","143091","0.0-285.0","3FIUS151DWO50Z3HQJIOVCZ7DCXGGV","AIEKCWYZTS41V","3S829FDFT2NBOHQMM1CIOU0HZYXDXL","","292.09999999403954","img/animal2.png","74","292.40000000596046","1","1","2","0.7,0,0.8,0.7,0.8,0,0.7,0.8,0",""
"","html-keyboard-response","286","143393","0.0-286.0","3FIUS151DWO50Z3HQJIOVCZ7DCXGGV","AIEKCWYZTS41V","3S829FDFT2NBOHQMM1CIOU0HZYXDXL","","null","<img src=""img/animal2.png"" style=""width:200px; border:14px solid green;"">","null","","","","","",""
"","image-keyboard-response","287","143677","0.0-287.0","3FIUS151DWO50Z3HQJIOVCZ7DCXGGV","AIEKCWYZTS41V","3S829FDFT2NBOHQMM1CIOU0HZYXDXL","","283.5","img/animal2.png","74","283.80000001192093","1","1","2","0.7,0,0.8,0.7,0.8,0,0.7,0.8,0",""
"","html-keyboard-response","288","143979","0.0-288.0","3FIUS151DWO50Z3HQJIOVCZ7DCXGGV","AIEKCWYZTS41V","3S829FDFT2NBOHQMM1CIOU0HZYXDXL","","null","<img src=""img/animal2.png"" style=""width:200px; border:14px solid green;"">","null","","","","","",""
"","image-keyboard-response","289","144765","0.0-289.0","3FIUS151DWO50Z3HQJIOVCZ7DCXGGV","AIEKCWYZTS41V","3S829FDFT2NBOHQMM1CIOU0HZYXDXL","","785.2000000029802","img/animal1.png","75","785.6000000089407","2","1","3","0.7,0,0.8,0.7,0.8,0,0.7,0.8,0",""
"","html-keyboard-response","290","145066","0.0-290.0","3FIUS151DWO50Z3HQJIOVCZ7DCXGGV","AIEKCWYZTS41V","3S829FDFT2NBOHQMM1CIOU0HZYXDXL","","null","<img src=""img/animal1.png"" style=""width:200px; border:14px solid green;"">","null","","","","","",""
"","image-keyboard-response","291","145368","0.0-291.0","3FIUS151DWO50Z3HQJIOVCZ7DCXGGV","AIEKCWYZTS41V","3S829FDFT2NBOHQMM1CIOU0HZYXDXL","","301.59999999403954","img/animal1.png","75","301.79999999701977","2","1","3","0.7,0,0.8,0.7,0.8,0,0.7,0.8,0",""
"","html-keyboard-response","292","145669","0.0-292.0","3FIUS151DWO50Z3HQJIOVCZ7DCXGGV","AIEKCWYZTS41V","3S829FDFT2NBOHQMM1CIOU0HZYXDXL","","null","<img src=""img/animal1.png"" style=""width:200px; border:14px solid green;"">","null","","","","","",""
"","image-keyboard-response","293","145976","0.0-293.0","3FIUS151DWO50Z3HQJIOVCZ7DCXGGV","AIEKCWYZTS41V","3S829FDFT2NBOHQMM1CIOU0HZYXDXL","","306.30000001192093","img/animal1.png","75","306.5","2","1","3","0.7,0,0.8,0.7,0.8,0,0.7,0.8,0",""
"","html-keyboard-response","294","146278","0.0-294.0","3FIUS151DWO50Z3HQJIOVCZ7DCXGGV","AIEKCWYZTS41V","3S829FDFT2NBOHQMM1CIOU0HZYXDXL","","null","<img src=""img/animal1.png"" style=""width:200px; border:14px solid green;"">","null","","","","","",""
"","image-keyboard-response","295","147825","0.0-295.0","3FIUS151DWO50Z3HQJIOVCZ7DCXGGV","AIEKCWYZTS41V","3S829FDFT2NBOHQMM1CIOU0HZYXDXL","","1546.9000000059605","img/animal4.png","76","1547.2000000029802","3","1","1","0.7,0,0.8,0.7,0.8,0,0.7,0.8,0",""
"","html-keyboard-response","296","148127","0.0-296.0","3FIUS151DWO50Z3HQJIOVCZ7DCXGGV","AIEKCWYZTS41V","3S829FDFT2NBOHQMM1CIOU0HZYXDXL","","null","<img src=""img/animal4.png"" style=""width:200px; border:14px solid green;"">","null","","","","","",""
"","image-keyboard-response","297","148756","0.0-297.0","3FIUS151DWO50Z3HQJIOVCZ7DCXGGV","AIEKCWYZTS41V","3S829FDFT2NBOHQMM1CIOU0HZYXDXL","","629.4000000059605","img/animal1.png","74","629.8000000119209","1","1","3","0.7,0,0.8,0.7,0.8,0,0.7,0.8,0",""
"","html-keyboard-response","298","149058","0.0-298.0","3FIUS151DWO50Z3HQJIOVCZ7DCXGGV","AIEKCWYZTS41V","3S829FDFT2NBOHQMM1CIOU0HZYXDXL","","null","<img src=""img/animal1.png"" style=""width:200px; border:14px solid green;"">","null","","","","","",""
"","image-keyboard-response","299","149956","0.0-299.0","3FIUS151DWO50Z3HQJIOVCZ7DCXGGV","AIEKCWYZTS41V","3S829FDFT2NBOHQMM1CIOU0HZYXDXL","","897.7999999970198","img/animal4.png","76","898.1000000089407","3","1","1","0.7,0,0.8,0.7,0.8,0,0.7,0.8,0",""
"","html-keyboard-response","300","150259","0.0-300.0","3FIUS151DWO50Z3HQJIOVCZ7DCXGGV","AIEKCWYZTS41V","3S829FDFT2NBOHQMM1CIOU0HZYXDXL","","null","<img src=""img/animal4.png"" style=""width:200px; border:14px solid green;"">","null","","","","","",""
"","image-keyboard-response","301","150678","0.0-301.0","3FIUS151DWO50Z3HQJIOVCZ7DCXGGV","AIEKCWYZTS41V","3S829FDFT2NBOHQMM1CIOU0HZYXDXL","","418.6000000089407","img/animal1.png","75","418.90000000596046","2","1","3","0.7,0,0.8,0.7,0.8,0,0.7,0.8,0",""
"","html-keyboard-response","302","150988","0.0-302.0","3FIUS151DWO50Z3HQJIOVCZ7DCXGGV","AIEKCWYZTS41V","3S829FDFT2NBOHQMM1CIOU0HZYXDXL","","null","<img src=""img/animal1.png"" style=""width:200px; border:14px solid green;"">","null","","","","","",""
"","image-keyboard-response","303","151274","0.0-303.0","3FIUS151DWO50Z3HQJIOVCZ7DCXGGV","AIEKCWYZTS41V","3S829FDFT2NBOHQMM1CIOU0HZYXDXL","","285","img/animal1.png","75","285.40000000596046","2","1","3","0.7,0,0.8,0.7,0.8,0,0.7,0.8,0",""
"","html-keyboard-response","304","151575","0.0-304.0","3FIUS151DWO50Z3HQJIOVCZ7DCXGGV","AIEKCWYZTS41V","3S829FDFT2NBOHQMM1CIOU0HZYXDXL","","null","<img src=""img/animal1.png"" style=""width:200px; border:14px solid green;"">","null","","","","","",""
"","image-keyboard-response","305","152140","0.0-305.0","3FIUS151DWO50Z3HQJIOVCZ7DCXGGV","AIEKCWYZTS41V","3S829FDFT2NBOHQMM1CIOU0HZYXDXL","","564.5999999940395","img/animal4.png","76","565.0999999940395","3","1","1","0.7,0,0.8,0.7,0.8,0,0.7,0.8,0",""
"","html-keyboard-response","306","152442","0.0-306.0","3FIUS151DWO50Z3HQJIOVCZ7DCXGGV","AIEKCWYZTS41V","3S829FDFT2NBOHQMM1CIOU0HZYXDXL","","null","<img src=""img/animal4.png"" style=""width:200px; border:14px solid green;"">","null","","","","","",""
"","image-keyboard-response","307","152918","0.0-307.0","3FIUS151DWO50Z3HQJIOVCZ7DCXGGV","AIEKCWYZTS41V","3S829FDFT2NBOHQMM1CIOU0HZYXDXL","","475.29999999701977","img/animal2.png","74","475.70000000298023","1","1","2","0.7,0,0.8,0.7,0.8,0,0.7,0.8,0",""
"","html-keyboard-response","308","153220","0.0-308.0","3FIUS151DWO50Z3HQJIOVCZ7DCXGGV","AIEKCWYZTS41V","3S829FDFT2NBOHQMM1CIOU0HZYXDXL","","null","<img src=""img/animal2.png"" style=""width:200px; border:14px solid green;"">","null","","","","","",""
"","image-keyboard-response","309","153517","0.0-309.0","3FIUS151DWO50Z3HQJIOVCZ7DCXGGV","AIEKCWYZTS41V","3S829FDFT2NBOHQMM1CIOU0HZYXDXL","","296.80000001192093","img/animal2.png","74","297.19999998807907","1","0","2","0.7,0,0.8,0.7,0.8,0,0.7,0.8,0",""
"","html-keyboard-response","310","153819","0.0-310.0","3FIUS151DWO50Z3HQJIOVCZ7DCXGGV","AIEKCWYZTS41V","3S829FDFT2NBOHQMM1CIOU0HZYXDXL","","null","<img src=""img/animal2.png"" style=""width:200px;border:14px solid red;"">","null","","","","","",""
"","image-keyboard-response","311","154466","0.0-311.0","3FIUS151DWO50Z3HQJIOVCZ7DCXGGV","AIEKCWYZTS41V","3S829FDFT2NBOHQMM1CIOU0HZYXDXL","","646.2000000029802","img/animal1.png","75","646.5999999940395","2","1","3","0.7,0,0.8,0.7,0.8,0,0.7,0.8,0",""
"","html-keyboard-response","312","154767","0.0-312.0","3FIUS151DWO50Z3HQJIOVCZ7DCXGGV","AIEKCWYZTS41V","3S829FDFT2NBOHQMM1CIOU0HZYXDXL","","null","<img src=""img/animal1.png"" style=""width:200px; border:14px solid green;"">","null","","","","","",""
"","image-keyboard-response","313","155032","0.0-313.0","3FIUS151DWO50Z3HQJIOVCZ7DCXGGV","AIEKCWYZTS41V","3S829FDFT2NBOHQMM1CIOU0HZYXDXL","","264.1000000089407","img/animal1.png","75","264.3999999910593","2","1","3","0.7,0,0.8,0.7,0.8,0,0.7,0.8,0",""
"","html-keyboard-response","314","155333","0.0-314.0","3FIUS151DWO50Z3HQJIOVCZ7DCXGGV","AIEKCWYZTS41V","3S829FDFT2NBOHQMM1CIOU0HZYXDXL","","null","<img src=""img/animal1.png"" style=""width:200px; border:14px solid green;"">","null","","","","","",""
"","image-keyboard-response","315","156101","0.0-315.0","3FIUS151DWO50Z3HQJIOVCZ7DCXGGV","AIEKCWYZTS41V","3S829FDFT2NBOHQMM1CIOU0HZYXDXL","","767.7999999970198","img/animal4.png","76","768.0999999940395","3","1","1","0.7,0,0.8,0.7,0.8,0,0.7,0.8,0",""
"","html-keyboard-response","316","156402","0.0-316.0","3FIUS151DWO50Z3HQJIOVCZ7DCXGGV","AIEKCWYZTS41V","3S829FDFT2NBOHQMM1CIOU0HZYXDXL","","null","<img src=""img/animal4.png"" style=""width:200px; border:14px solid green;"">","null","","","","","",""
"","image-keyboard-response","317","156873","0.0-317.0","3FIUS151DWO50Z3HQJIOVCZ7DCXGGV","AIEKCWYZTS41V","3S829FDFT2NBOHQMM1CIOU0HZYXDXL","","470.40000000596046","img/animal1.png","75","470.79999999701977","2","1","3","0.7,0,0.8,0.7,0.8,0,0.7,0.8,0",""
"","html-keyboard-response","318","157174","0.0-318.0","3FIUS151DWO50Z3HQJIOVCZ7DCXGGV","AIEKCWYZTS41V","3S829FDFT2NBOHQMM1CIOU0HZYXDXL","","null","<img src=""img/animal1.png"" style=""width:200px; border:14px solid green;"">","null","","","","","",""
"","image-keyboard-response","319","157612","0.0-319.0","3FIUS151DWO50Z3HQJIOVCZ7DCXGGV","AIEKCWYZTS41V","3S829FDFT2NBOHQMM1CIOU0HZYXDXL","","437.6000000089407","img/animal4.png","76","438","3","1","1","0.7,0,0.8,0.7,0.8,0,0.7,0.8,0",""
"","html-keyboard-response","320","157913","0.0-320.0","3FIUS151DWO50Z3HQJIOVCZ7DCXGGV","AIEKCWYZTS41V","3S829FDFT2NBOHQMM1CIOU0HZYXDXL","","null","<img src=""img/animal4.png"" style=""width:200px; border:14px solid green;"">","null","","","","","",""
"","image-keyboard-response","321","158354","0.0-321.0","3FIUS151DWO50Z3HQJIOVCZ7DCXGGV","AIEKCWYZTS41V","3S829FDFT2NBOHQMM1CIOU0HZYXDXL","","440.6000000089407","img/animal1.png","75","440.8999999910593","2","0","3","0.7,0,0.8,0.7,0.8,0,0.7,0.8,0",""
"","html-keyboard-response","322","158656","0.0-322.0","3FIUS151DWO50Z3HQJIOVCZ7DCXGGV","AIEKCWYZTS41V","3S829FDFT2NBOHQMM1CIOU0HZYXDXL","","null","<img src=""img/animal1.png"" style=""width:200px;border:14px solid red;"">","null","","","","","",""
"","image-keyboard-response","323","159283","0.0-323.0","3FIUS151DWO50Z3HQJIOVCZ7DCXGGV","AIEKCWYZTS41V","3S829FDFT2NBOHQMM1CIOU0HZYXDXL","","626.5999999940395","img/animal4.png","76","627","3","1","1","0.7,0,0.8,0.7,0.8,0,0.7,0.8,0",""
"","html-keyboard-response","324","159584","0.0-324.0","3FIUS151DWO50Z3HQJIOVCZ7DCXGGV","AIEKCWYZTS41V","3S829FDFT2NBOHQMM1CIOU0HZYXDXL","","null","<img src=""img/animal4.png"" style=""width:200px; border:14px solid green;"">","null","","","","","",""
"","image-keyboard-response","325","160120","0.0-325.0","3FIUS151DWO50Z3HQJIOVCZ7DCXGGV","AIEKCWYZTS41V","3S829FDFT2NBOHQMM1CIOU0HZYXDXL","","534.7000000029802","img/animal2.png","74","535.1999999880791","1","1","2","0.7,0,0.8,0.7,0.8,0,0.7,0.8,0",""
"","html-keyboard-response","326","160421","0.0-326.0","3FIUS151DWO50Z3HQJIOVCZ7DCXGGV","AIEKCWYZTS41V","3S829FDFT2NBOHQMM1CIOU0HZYXDXL","","null","<img src=""img/animal2.png"" style=""width:200px; border:14px solid green;"">","null","","","","","",""
"","image-keyboard-response","327","161037","0.0-327.0","3FIUS151DWO50Z3HQJIOVCZ7DCXGGV","AIEKCWYZTS41V","3S829FDFT2NBOHQMM1CIOU0HZYXDXL","","616","img/animal4.png","76","616.4000000059605","3","1","1","0.7,0,0.8,0.7,0.8,0,0.7,0.8,0",""
"","html-keyboard-response","328","161339","0.0-328.0","3FIUS151DWO50Z3HQJIOVCZ7DCXGGV","AIEKCWYZTS41V","3S829FDFT2NBOHQMM1CIOU0HZYXDXL","","null","<img src=""img/animal4.png"" style=""width:200px; border:14px solid green;"">","null","","","","","",""
"","image-keyboard-response","329","161870","0.0-329.0","3FIUS151DWO50Z3HQJIOVCZ7DCXGGV","AIEKCWYZTS41V","3S829FDFT2NBOHQMM1CIOU0HZYXDXL","","530.7000000029802","img/animal2.png","74","531.1000000089407","1","0","2","0.7,0,0.8,0.7,0.8,0,0.7,0.8,0",""
"","html-keyboard-response","330","162171","0.0-330.0","3FIUS151DWO50Z3HQJIOVCZ7DCXGGV","AIEKCWYZTS41V","3S829FDFT2NBOHQMM1CIOU0HZYXDXL","","null","<img src=""img/animal2.png"" style=""width:200px;border:14px solid red;"">","null","","","","","",""
"","image-keyboard-response","331","162528","0.0-331.0","3FIUS151DWO50Z3HQJIOVCZ7DCXGGV","AIEKCWYZTS41V","3S829FDFT2NBOHQMM1CIOU0HZYXDXL","","355.90000000596046","img/animal2.png","74","356.20000000298023","1","1","2","0.7,0,0.8,0.7,0.8,0,0.7,0.8,0",""
"","html-keyboard-response","332","162829","0.0-332.0","3FIUS151DWO50Z3HQJIOVCZ7DCXGGV","AIEKCWYZTS41V","3S829FDFT2NBOHQMM1CIOU0HZYXDXL","","null","<img src=""img/animal2.png"" style=""width:200px; border:14px solid green;"">","null","","","","","",""
"","image-keyboard-response","333","163095","0.0-333.0","3FIUS151DWO50Z3HQJIOVCZ7DCXGGV","AIEKCWYZTS41V","3S829FDFT2NBOHQMM1CIOU0HZYXDXL","","265.09999999403954","img/animal2.png","74","265.5","1","0","2","0.7,0,0.8,0.7,0.8,0,0.7,0.8,0",""
"","html-keyboard-response","334","163396","0.0-334.0","3FIUS151DWO50Z3HQJIOVCZ7DCXGGV","AIEKCWYZTS41V","3S829FDFT2NBOHQMM1CIOU0HZYXDXL","","null","<img src=""img/animal2.png"" style=""width:200px;border:14px solid red;"">","null","","","","","",""
"","image-keyboard-response","335","164216","0.0-335.0","3FIUS151DWO50Z3HQJIOVCZ7DCXGGV","AIEKCWYZTS41V","3S829FDFT2NBOHQMM1CIOU0HZYXDXL","","818.7000000029802","img/animal4.png","76","819.2000000029802","3","1","1","0.7,0,0.8,0.7,0.8,0,0.7,0.8,0",""
"","html-keyboard-response","336","164517","0.0-336.0","3FIUS151DWO50Z3HQJIOVCZ7DCXGGV","AIEKCWYZTS41V","3S829FDFT2NBOHQMM1CIOU0HZYXDXL","","null","<img src=""img/animal4.png"" style=""width:200px; border:14px solid green;"">","null","","","","","",""
"","image-keyboard-response","337","165019","0.0-337.0","3FIUS151DWO50Z3HQJIOVCZ7DCXGGV","AIEKCWYZTS41V","3S829FDFT2NBOHQMM1CIOU0HZYXDXL","","501.40000000596046","img/animal2.png","74","501.79999999701977","1","1","2","0.7,0,0.8,0.7,0.8,0,0.7,0.8,0",""
"","html-keyboard-response","338","165320","0.0-338.0","3FIUS151DWO50Z3HQJIOVCZ7DCXGGV","AIEKCWYZTS41V","3S829FDFT2NBOHQMM1CIOU0HZYXDXL","","null","<img src=""img/animal2.png"" style=""width:200px; border:14px solid green;"">","null","","","","","",""
"","image-keyboard-response","339","165768","0.0-339.0","3FIUS151DWO50Z3HQJIOVCZ7DCXGGV","AIEKCWYZTS41V","3S829FDFT2NBOHQMM1CIOU0HZYXDXL","","447.40000000596046","img/animal4.png","76","447.69999998807907","3","1","1","0.7,0,0.8,0.7,0.8,0,0.7,0.8,0",""
"","html-keyboard-response","340","166070","0.0-340.0","3FIUS151DWO50Z3HQJIOVCZ7DCXGGV","AIEKCWYZTS41V","3S829FDFT2NBOHQMM1CIOU0HZYXDXL","","null","<img src=""img/animal4.png"" style=""width:200px; border:14px solid green;"">","null","","","","","",""
"","image-keyboard-response","341","166388","0.0-341.0","3FIUS151DWO50Z3HQJIOVCZ7DCXGGV","AIEKCWYZTS41V","3S829FDFT2NBOHQMM1CIOU0HZYXDXL","","318.29999999701977","img/animal4.png","76","318.80000001192093","3","1","1","0.7,0,0.8,0.7,0.8,0,0.7,0.8,0",""
"","html-keyboard-response","342","166690","0.0-342.0","3FIUS151DWO50Z3HQJIOVCZ7DCXGGV","AIEKCWYZTS41V","3S829FDFT2NBOHQMM1CIOU0HZYXDXL","","null","<img src=""img/animal4.png"" style=""width:200px; border:14px solid green;"">","null","","","","","",""
"","image-keyboard-response","343","167320","0.0-343.0","3FIUS151DWO50Z3HQJIOVCZ7DCXGGV","AIEKCWYZTS41V","3S829FDFT2NBOHQMM1CIOU0HZYXDXL","","630.2999999970198","img/animal2.png","74","630.7000000029802","1","1","2","0.7,0,0.8,0.7,0.8,0,0.7,0.8,0",""
"","html-keyboard-response","344","167622","0.0-344.0","3FIUS151DWO50Z3HQJIOVCZ7DCXGGV","AIEKCWYZTS41V","3S829FDFT2NBOHQMM1CIOU0HZYXDXL","","null","<img src=""img/animal2.png"" style=""width:200px; border:14px solid green;"">","null","","","","","",""
"","image-keyboard-response","345","168199","0.0-345.0","3FIUS151DWO50Z3HQJIOVCZ7DCXGGV","AIEKCWYZTS41V","3S829FDFT2NBOHQMM1CIOU0HZYXDXL","","575.9000000059605","img/animal4.png","76","576.1999999880791","3","0","1","0.7,0,0.8,0.7,0.8,0,0.7,0.8,0",""
"","html-keyboard-response","346","168499","0.0-346.0","3FIUS151DWO50Z3HQJIOVCZ7DCXGGV","AIEKCWYZTS41V","3S829FDFT2NBOHQMM1CIOU0HZYXDXL","","null","<img src=""img/animal4.png"" style=""width:200px;border:14px solid red;"">","null","","","","","",""
"","image-keyboard-response","347","169172","0.0-347.0","3FIUS151DWO50Z3HQJIOVCZ7DCXGGV","AIEKCWYZTS41V","3S829FDFT2NBOHQMM1CIOU0HZYXDXL","","671.8999999910593","img/animal2.png","74","672.1999999880791","1","1","2","0.7,0,0.8,0.7,0.8,0,0.7,0.8,0",""
"","html-keyboard-response","348","169472","0.0-348.0","3FIUS151DWO50Z3HQJIOVCZ7DCXGGV","AIEKCWYZTS41V","3S829FDFT2NBOHQMM1CIOU0HZYXDXL","","null","<img src=""img/animal2.png"" style=""width:200px; border:14px solid green;"">","null","","","","","",""
"","image-keyboard-response","349","169777","0.0-349.0","3FIUS151DWO50Z3HQJIOVCZ7DCXGGV","AIEKCWYZTS41V","3S829FDFT2NBOHQMM1CIOU0HZYXDXL","","303.8999999910593","img/animal2.png","74","304.29999999701977","1","1","2","0.7,0,0.8,0.7,0.8,0,0.7,0.8,0",""
"","html-keyboard-response","350","170078","0.0-350.0","3FIUS151DWO50Z3HQJIOVCZ7DCXGGV","AIEKCWYZTS41V","3S829FDFT2NBOHQMM1CIOU0HZYXDXL","","null","<img src=""img/animal2.png"" style=""width:200px; border:14px solid green;"">","null","","","","","",""
"","image-keyboard-response","351","170695","0.0-351.0","3FIUS151DWO50Z3HQJIOVCZ7DCXGGV","AIEKCWYZTS41V","3S829FDFT2NBOHQMM1CIOU0HZYXDXL","","616.7999999970198","img/animal1.png","75","617.2999999970198","2","1","3","0.7,0,0.8,0.7,0.8,0,0.7,0.8,0",""
"","html-keyboard-response","352","170995","0.0-352.0","3FIUS151DWO50Z3HQJIOVCZ7DCXGGV","AIEKCWYZTS41V","3S829FDFT2NBOHQMM1CIOU0HZYXDXL","","null","<img src=""img/animal1.png"" style=""width:200px; border:14px solid green;"">","null","","","","","",""
"","image-keyboard-response","353","171599","0.0-353.0","3FIUS151DWO50Z3HQJIOVCZ7DCXGGV","AIEKCWYZTS41V","3S829FDFT2NBOHQMM1CIOU0HZYXDXL","","603.2000000029802","img/animal2.png","74","603.5999999940395","1","1","2","0.7,0,0.8,0.7,0.8,0,0.7,0.8,0",""
"","html-keyboard-response","354","171901","0.0-354.0","3FIUS151DWO50Z3HQJIOVCZ7DCXGGV","AIEKCWYZTS41V","3S829FDFT2NBOHQMM1CIOU0HZYXDXL","","null","<img src=""img/animal2.png"" style=""width:200px; border:14px solid green;"">","null","","","","","",""
"","image-keyboard-response","355","172467","0.0-355.0","3FIUS151DWO50Z3HQJIOVCZ7DCXGGV","AIEKCWYZTS41V","3S829FDFT2NBOHQMM1CIOU0HZYXDXL","","566.2000000029802","img/animal4.png","76","566.7000000029802","3","1","1","0.7,0,0.8,0.7,0.8,0,0.7,0.8,0",""
"","html-keyboard-response","356","172768","0.0-356.0","3FIUS151DWO50Z3HQJIOVCZ7DCXGGV","AIEKCWYZTS41V","3S829FDFT2NBOHQMM1CIOU0HZYXDXL","","null","<img src=""img/animal4.png"" style=""width:200px; border:14px solid green;"">","null","","","","","",""
"","image-keyboard-response","357","173164","0.0-357.0","3FIUS151DWO50Z3HQJIOVCZ7DCXGGV","AIEKCWYZTS41V","3S829FDFT2NBOHQMM1CIOU0HZYXDXL","","395.70000000298023","img/animal4.png","76","396","3","1","1","0.7,0,0.8,0.7,0.8,0,0.7,0.8,0",""
"","html-keyboard-response","358","173466","0.0-358.0","3FIUS151DWO50Z3HQJIOVCZ7DCXGGV","AIEKCWYZTS41V","3S829FDFT2NBOHQMM1CIOU0HZYXDXL","","null","<img src=""img/animal4.png"" style=""width:200px; border:14px solid green;"">","null","","","","","",""
"","image-keyboard-response","359","174110","0.0-359.0","3FIUS151DWO50Z3HQJIOVCZ7DCXGGV","AIEKCWYZTS41V","3S829FDFT2NBOHQMM1CIOU0HZYXDXL","","643.8000000119209","img/animal2.png","74","644.1999999880791","1","1","2","0.7,0,0.8,0.7,0.8,0,0.7,0.8,0",""
"","html-keyboard-response","360","174411","0.0-360.0","3FIUS151DWO50Z3HQJIOVCZ7DCXGGV","AIEKCWYZTS41V","3S829FDFT2NBOHQMM1CIOU0HZYXDXL","","null","<img src=""img/animal2.png"" style=""width:200px; border:14px solid green;"">","null","","","","","",""
"","image-keyboard-response","361","174690","0.0-361.0","3FIUS151DWO50Z3HQJIOVCZ7DCXGGV","AIEKCWYZTS41V","3S829FDFT2NBOHQMM1CIOU0HZYXDXL","","278.40000000596046","img/animal2.png","74","278.79999999701977","1","1","2","0.7,0,0.8,0.7,0.8,0,0.7,0.8,0",""
"","html-keyboard-response","362","174991","0.0-362.0","3FIUS151DWO50Z3HQJIOVCZ7DCXGGV","AIEKCWYZTS41V","3S829FDFT2NBOHQMM1CIOU0HZYXDXL","","null","<img src=""img/animal2.png"" style=""width:200px; border:14px solid green;"">","null","","","","","",""
"","instructions","363","179088","0.0-363.0","3FIUS151DWO50Z3HQJIOVCZ7DCXGGV","AIEKCWYZTS41V","3S829FDFT2NBOHQMM1CIOU0HZYXDXL","[{""page_index"":0,""viewing_time"":4096.5}]","4096.70000000298","","","","","","","",""
"","survey-text","364","185627","0.0-364.0","3FIUS151DWO50Z3HQJIOVCZ7DCXGGV","AIEKCWYZTS41V","3S829FDFT2NBOHQMM1CIOU0HZYXDXL","","6538.5999999940395","","","","","","","","{""Q0"":""AIEKCWYZTS41V""}"
