"success","trial_type","trial_index","time_elapsed","internal_node_id","assignmentID","mturkID","hitID","view_history","rt","stimulus","key_press","reactionTime","a","r","s","reward_cond","responses"
"true","fullscreen","0","2725","0.0-0.0","3X1FV8S5JYDOIWTCFEHAVD2H0RLGVK","AKSJ3C5O3V9RB","3FW4EL5A3LANKRP91N782LFHPY722Q","","","","","","","","","",""
"","instructions","1","22224","0.0-1.0","3X1FV8S5JYDOIWTCFEHAVD2H0RLGVK","AKSJ3C5O3V9RB","3FW4EL5A3LANKRP91N782LFHPY722Q","[{""page_index"":0,""viewing_time"":1029.1000000238419},{""page_index"":1,""viewing_time"":1174.7999999821186},{""page_index"":2,""viewing_time"":739.0999999940395},{""page_index"":3,""viewing_time"":1576},{""page_index"":4,""viewing_time"":1254},{""page_index"":5,""viewing_time"":1280.1000000238419},{""page_index"":6,""viewing_time"":9704},{""page_index"":7,""viewing_time"":2740}]","19497.90000000596","","","","","","","",""
"","image-keyboard-response","2","23186","0.0-2.0","3X1FV8S5JYDOIWTCFEHAVD2H0RLGVK","AKSJ3C5O3V9RB","3FW4EL5A3LANKRP91N782LFHPY722Q","","960.7999999821186","img/animal5.png","74","962","1","0","1","0.7,0,0.8,0.7,0.8,0,0.7,0.8,0",""
"","html-keyboard-response","3","23498","0.0-3.0","3X1FV8S5JYDOIWTCFEHAVD2H0RLGVK","AKSJ3C5O3V9RB","3FW4EL5A3LANKRP91N782LFHPY722Q","","null","<img src=""img/animal5.png"" style=""width:200px;border:14px solid red;"">","null","","","","","",""
"","image-keyboard-response","4","24169","0.0-4.0","3X1FV8S5JYDOIWTCFEHAVD2H0RLGVK","AKSJ3C5O3V9RB","3FW4EL5A3LANKRP91N782LFHPY722Q","","669.6999999880791","img/animal2.png","75","670.5","2","1","2","0.7,0,0.8,0.7,0.8,0,0.7,0.8,0",""
"","html-keyboard-response","5","24471","0.0-5.0","3X1FV8S5JYDOIWTCFEHAVD2H0RLGVK","AKSJ3C5O3V9RB","3FW4EL5A3LANKRP91N782LFHPY722Q","","null","<img src=""img/animal2.png"" style=""width:200px; border:14px solid green;"">","null","","","","","",""
"","image-keyboard-response","6","25186","0.0-6.0","3X1FV8S5JYDOIWTCFEHAVD2H0RLGVK","AKSJ3C5O3V9RB","3FW4EL5A3LANKRP91N782LFHPY722Q","","714.5999999940395","img/animal5.png","76","715.4000000059605","3","1","1","0.7,0,0.8,0.7,0.8,0,0.7,0.8,0",""
"","html-keyboard-response","7","25491","0.0-7.0","3X1FV8S5JYDOIWTCFEHAVD2H0RLGVK","AKSJ3C5O3V9RB","3FW4EL5A3LANKRP91N782LFHPY722Q","","null","<img src=""img/animal5.png"" style=""width:200px; border:14px solid green;"">","null","","","","","",""
"","image-keyboard-response","8","26273","0.0-8.0","3X1FV8S5JYDOIWTCFEHAVD2H0RLGVK","AKSJ3C5O3V9RB","3FW4EL5A3LANKRP91N782LFHPY722Q","","781.1999999880791","img/animal3.png","74","782","1","1","3","0.7,0,0.8,0.7,0.8,0,0.7,0.8,0",""
"","html-keyboard-response","9","26582","0.0-9.0","3X1FV8S5JYDOIWTCFEHAVD2H0RLGVK","AKSJ3C5O3V9RB","3FW4EL5A3LANKRP91N782LFHPY722Q","","null","<img src=""img/animal3.png"" style=""width:200px; border:14px solid green;"">","null","","","","","",""
"","image-keyboard-response","10","27194","0.0-10.0","3X1FV8S5JYDOIWTCFEHAVD2H0RLGVK","AKSJ3C5O3V9RB","3FW4EL5A3LANKRP91N782LFHPY722Q","","611.0999999940395","img/animal2.png","75","611.6999999880791","2","0","2","0.7,0,0.8,0.7,0.8,0,0.7,0.8,0",""
"","html-keyboard-response","11","27507","0.0-11.0","3X1FV8S5JYDOIWTCFEHAVD2H0RLGVK","AKSJ3C5O3V9RB","3FW4EL5A3LANKRP91N782LFHPY722Q","","null","<img src=""img/animal2.png"" style=""width:200px;border:14px solid red;"">","null","","","","","",""
"","image-keyboard-response","12","28157","0.0-12.0","3X1FV8S5JYDOIWTCFEHAVD2H0RLGVK","AKSJ3C5O3V9RB","3FW4EL5A3LANKRP91N782LFHPY722Q","","650","img/animal5.png","76","650.5999999940395","3","1","1","0.7,0,0.8,0.7,0.8,0,0.7,0.8,0",""
"","html-keyboard-response","13","28460","0.0-13.0","3X1FV8S5JYDOIWTCFEHAVD2H0RLGVK","AKSJ3C5O3V9RB","3FW4EL5A3LANKRP91N782LFHPY722Q","","null","<img src=""img/animal5.png"" style=""width:200px; border:14px solid green;"">","null","","","","","",""
"","image-keyboard-response","14","28971","0.0-14.0","3X1FV8S5JYDOIWTCFEHAVD2H0RLGVK","AKSJ3C5O3V9RB","3FW4EL5A3LANKRP91N782LFHPY722Q","","509.90000000596046","img/animal2.png","75","510.69999998807907","2","0","2","0.7,0,0.8,0.7,0.8,0,0.7,0.8,0",""
"","html-keyboard-response","15","29284","0.0-15.0","3X1FV8S5JYDOIWTCFEHAVD2H0RLGVK","AKSJ3C5O3V9RB","3FW4EL5A3LANKRP91N782LFHPY722Q","","null","<img src=""img/animal2.png"" style=""width:200px;border:14px solid red;"">","null","","","","","",""
"","image-keyboard-response","16","30136","0.0-16.0","3X1FV8S5JYDOIWTCFEHAVD2H0RLGVK","AKSJ3C5O3V9RB","3FW4EL5A3LANKRP91N782LFHPY722Q","","851.2999999821186","img/animal2.png","76","851.9000000059605","3","0","2","0.7,0,0.8,0.7,0.8,0,0.7,0.8,0",""
"","html-keyboard-response","17","30438","0.0-17.0","3X1FV8S5JYDOIWTCFEHAVD2H0RLGVK","AKSJ3C5O3V9RB","3FW4EL5A3LANKRP91N782LFHPY722Q","","null","<img src=""img/animal2.png"" style=""width:200px;border:14px solid red;"">","null","","","","","",""
"","image-keyboard-response","18","31189","0.0-18.0","3X1FV8S5JYDOIWTCFEHAVD2H0RLGVK","AKSJ3C5O3V9RB","3FW4EL5A3LANKRP91N782LFHPY722Q","","750","img/animal5.png","74","750.8000000119209","1","1","1","0.7,0,0.8,0.7,0.8,0,0.7,0.8,0",""
"","html-keyboard-response","19","31491","0.0-19.0","3X1FV8S5JYDOIWTCFEHAVD2H0RLGVK","AKSJ3C5O3V9RB","3FW4EL5A3LANKRP91N782LFHPY722Q","","null","<img src=""img/animal5.png"" style=""width:200px; border:14px solid green;"">","null","","","","","",""
"","image-keyboard-response","20","32255","0.0-20.0","3X1FV8S5JYDOIWTCFEHAVD2H0RLGVK","AKSJ3C5O3V9RB","3FW4EL5A3LANKRP91N782LFHPY722Q","","763.2000000178814","img/animal3.png","76","763.7999999821186","3","0","3","0.7,0,0.8,0.7,0.8,0,0.7,0.8,0",""
"","html-keyboard-response","21","32557","0.0-21.0","3X1FV8S5JYDOIWTCFEHAVD2H0RLGVK","AKSJ3C5O3V9RB","3FW4EL5A3LANKRP91N782LFHPY722Q","","null","<img src=""img/animal3.png"" style=""width:200px;border:14px solid red;"">","null","","","","","",""
"","image-keyboard-response","22","33323","0.0-22.0","3X1FV8S5JYDOIWTCFEHAVD2H0RLGVK","AKSJ3C5O3V9RB","3FW4EL5A3LANKRP91N782LFHPY722Q","","765.9000000059605","img/animal5.png","74","766.5999999940395","1","1","1","0.7,0,0.8,0.7,0.8,0,0.7,0.8,0",""
"","html-keyboard-response","23","33625","0.0-23.0","3X1FV8S5JYDOIWTCFEHAVD2H0RLGVK","AKSJ3C5O3V9RB","3FW4EL5A3LANKRP91N782LFHPY722Q","","null","<img src=""img/animal5.png"" style=""width:200px; border:14px solid green;"">","null","","","","","",""
"","image-keyboard-response","24","34397","0.0-24.0","3X1FV8S5JYDOIWTCFEHAVD2H0RLGVK","AKSJ3C5O3V9RB","3FW4EL5A3LANKRP91N782LFHPY722Q","","771","img/animal2.png","75","771.6000000238419","2","1","2","0.7,0,0.8,0.7,0.8,0,0.7,0.8,0",""
"","html-keyboard-response","25","34699","0.0-25.0","3X1FV8S5JYDOIWTCFEHAVD2H0RLGVK","AKSJ3C5O3V9RB","3FW4EL5A3LANKRP91N782LFHPY722Q","","null","<img src=""img/animal2.png"" style=""width:200px; border:14px solid green;"">","null","","","","","",""
"","image-keyboard-response","26","35475","0.0-26.0","3X1FV8S5JYDOIWTCFEHAVD2H0RLGVK","AKSJ3C5O3V9RB","3FW4EL5A3LANKRP91N782LFHPY722Q","","775.0999999940395","img/animal3.png","76","775.7999999821186","3","0","3","0.7,0,0.8,0.7,0.8,0,0.7,0.8,0",""
"","html-keyboard-response","27","35780","0.0-27.0","3X1FV8S5JYDOIWTCFEHAVD2H0RLGVK","AKSJ3C5O3V9RB","3FW4EL5A3LANKRP91N782LFHPY722Q","","null","<img src=""img/animal3.png"" style=""width:200px;border:14px solid red;"">","null","","","","","",""
"","image-keyboard-response","28","36242","0.0-28.0","3X1FV8S5JYDOIWTCFEHAVD2H0RLGVK","AKSJ3C5O3V9RB","3FW4EL5A3LANKRP91N782LFHPY722Q","","460.59999999403954","img/animal3.png","74","461.10000002384186","1","0","3","0.7,0,0.8,0.7,0.8,0,0.7,0.8,0",""
"","html-keyboard-response","29","36558","0.0-29.0","3X1FV8S5JYDOIWTCFEHAVD2H0RLGVK","AKSJ3C5O3V9RB","3FW4EL5A3LANKRP91N782LFHPY722Q","","null","<img src=""img/animal3.png"" style=""width:200px;border:14px solid red;"">","null","","","","","",""
"","image-keyboard-response","30","37306","0.0-30.0","3X1FV8S5JYDOIWTCFEHAVD2H0RLGVK","AKSJ3C5O3V9RB","3FW4EL5A3LANKRP91N782LFHPY722Q","","747.4000000059605","img/animal5.png","74","748","1","0","1","0.7,0,0.8,0.7,0.8,0,0.7,0.8,0",""
"","html-keyboard-response","31","37609","0.0-31.0","3X1FV8S5JYDOIWTCFEHAVD2H0RLGVK","AKSJ3C5O3V9RB","3FW4EL5A3LANKRP91N782LFHPY722Q","","null","<img src=""img/animal5.png"" style=""width:200px;border:14px solid red;"">","null","","","","","",""
"","image-keyboard-response","32","38256","0.0-32.0","3X1FV8S5JYDOIWTCFEHAVD2H0RLGVK","AKSJ3C5O3V9RB","3FW4EL5A3LANKRP91N782LFHPY722Q","","646","img/animal3.png","75","646.7000000178814","2","1","3","0.7,0,0.8,0.7,0.8,0,0.7,0.8,0",""
"","html-keyboard-response","33","38558","0.0-33.0","3X1FV8S5JYDOIWTCFEHAVD2H0RLGVK","AKSJ3C5O3V9RB","3FW4EL5A3LANKRP91N782LFHPY722Q","","null","<img src=""img/animal3.png"" style=""width:200px; border:14px solid green;"">","null","","","","","",""
"","image-keyboard-response","34","38952","0.0-34.0","3X1FV8S5JYDOIWTCFEHAVD2H0RLGVK","AKSJ3C5O3V9RB","3FW4EL5A3LANKRP91N782LFHPY722Q","","393","img/animal3.png","75","394","2","1","3","0.7,0,0.8,0.7,0.8,0,0.7,0.8,0",""
"","html-keyboard-response","35","39255","0.0-35.0","3X1FV8S5JYDOIWTCFEHAVD2H0RLGVK","AKSJ3C5O3V9RB","3FW4EL5A3LANKRP91N782LFHPY722Q","","null","<img src=""img/animal3.png"" style=""width:200px; border:14px solid green;"">","null","","","","","",""
"","image-keyboard-response","36","39655","0.0-36.0","3X1FV8S5JYDOIWTCFEHAVD2H0RLGVK","AKSJ3C5O3V9RB","3FW4EL5A3LANKRP91N782LFHPY722Q","","399.40000000596046","img/animal3.png","75","400.19999998807907","2","1","3","0.7,0,0.8,0.7,0.8,0,0.7,0.8,0",""
"","html-keyboard-response","37","39972","0.0-37.0","3X1FV8S5JYDOIWTCFEHAVD2H0RLGVK","AKSJ3C5O3V9RB","3FW4EL5A3LANKRP91N782LFHPY722Q","","null","<img src=""img/animal3.png"" style=""width:200px; border:14px solid green;"">","null","","","","","",""
"","image-keyboard-response","38","40852","0.0-38.0","3X1FV8S5JYDOIWTCFEHAVD2H0RLGVK","AKSJ3C5O3V9RB","3FW4EL5A3LANKRP91N782LFHPY722Q","","879.5","img/animal5.png","76","880.2999999821186","3","0","1","0.7,0,0.8,0.7,0.8,0,0.7,0.8,0",""
"","html-keyboard-response","39","41154","0.0-39.0","3X1FV8S5JYDOIWTCFEHAVD2H0RLGVK","AKSJ3C5O3V9RB","3FW4EL5A3LANKRP91N782LFHPY722Q","","null","<img src=""img/animal5.png"" style=""width:200px;border:14px solid red;"">","null","","","","","",""
"","image-keyboard-response","40","41880","0.0-40.0","3X1FV8S5JYDOIWTCFEHAVD2H0RLGVK","AKSJ3C5O3V9RB","3FW4EL5A3LANKRP91N782LFHPY722Q","","725.0999999940395","img/animal2.png","75","725.7000000178814","2","1","2","0.7,0,0.8,0.7,0.8,0,0.7,0.8,0",""
"","html-keyboard-response","41","42181","0.0-41.0","3X1FV8S5JYDOIWTCFEHAVD2H0RLGVK","AKSJ3C5O3V9RB","3FW4EL5A3LANKRP91N782LFHPY722Q","","null","<img src=""img/animal2.png"" style=""width:200px; border:14px solid green;"">","null","","","","","",""
"","image-keyboard-response","42","42818","0.0-42.0","3X1FV8S5JYDOIWTCFEHAVD2H0RLGVK","AKSJ3C5O3V9RB","3FW4EL5A3LANKRP91N782LFHPY722Q","","636.4000000059605","img/animal5.png","74","637","1","1","1","0.7,0,0.8,0.7,0.8,0,0.7,0.8,0",""
"","html-keyboard-response","43","43120","0.0-43.0","3X1FV8S5JYDOIWTCFEHAVD2H0RLGVK","AKSJ3C5O3V9RB","3FW4EL5A3LANKRP91N782LFHPY722Q","","null","<img src=""img/animal5.png"" style=""width:200px; border:14px solid green;"">","null","","","","","",""
"","image-keyboard-response","44","43762","0.0-44.0","3X1FV8S5JYDOIWTCFEHAVD2H0RLGVK","AKSJ3C5O3V9RB","3FW4EL5A3LANKRP91N782LFHPY722Q","","641.9000000059605","img/animal2.png","75","642.3999999761581","2","1","2","0.7,0,0.8,0.7,0.8,0,0.7,0.8,0",""
"","html-keyboard-response","45","44064","0.0-45.0","3X1FV8S5JYDOIWTCFEHAVD2H0RLGVK","AKSJ3C5O3V9RB","3FW4EL5A3LANKRP91N782LFHPY722Q","","null","<img src=""img/animal2.png"" style=""width:200px; border:14px solid green;"">","null","","","","","",""
"","image-keyboard-response","46","44467","0.0-46.0","3X1FV8S5JYDOIWTCFEHAVD2H0RLGVK","AKSJ3C5O3V9RB","3FW4EL5A3LANKRP91N782LFHPY722Q","","402.40000000596046","img/animal2.png","75","403.09999999403954","2","0","2","0.7,0,0.8,0.7,0.8,0,0.7,0.8,0",""
"","html-keyboard-response","47","44769","0.0-47.0","3X1FV8S5JYDOIWTCFEHAVD2H0RLGVK","AKSJ3C5O3V9RB","3FW4EL5A3LANKRP91N782LFHPY722Q","","null","<img src=""img/animal2.png"" style=""width:200px;border:14px solid red;"">","null","","","","","",""
"","image-keyboard-response","48","45155","0.0-48.0","3X1FV8S5JYDOIWTCFEHAVD2H0RLGVK","AKSJ3C5O3V9RB","3FW4EL5A3LANKRP91N782LFHPY722Q","","384","img/animal2.png","75","386.09999999403954","2","1","2","0.7,0,0.8,0.7,0.8,0,0.7,0.8,0",""
"","html-keyboard-response","49","45457","0.0-49.0","3X1FV8S5JYDOIWTCFEHAVD2H0RLGVK","AKSJ3C5O3V9RB","3FW4EL5A3LANKRP91N782LFHPY722Q","","null","<img src=""img/animal2.png"" style=""width:200px; border:14px solid green;"">","null","","","","","",""
"","image-keyboard-response","50","46148","0.0-50.0","3X1FV8S5JYDOIWTCFEHAVD2H0RLGVK","AKSJ3C5O3V9RB","3FW4EL5A3LANKRP91N782LFHPY722Q","","689.7999999821186","img/animal3.png","74","690.5","1","1","3","0.7,0,0.8,0.7,0.8,0,0.7,0.8,0",""
"","html-keyboard-response","51","46450","0.0-51.0","3X1FV8S5JYDOIWTCFEHAVD2H0RLGVK","AKSJ3C5O3V9RB","3FW4EL5A3LANKRP91N782LFHPY722Q","","null","<img src=""img/animal3.png"" style=""width:200px; border:14px solid green;"">","null","","","","","",""
"","image-keyboard-response","52","47066","0.0-52.0","3X1FV8S5JYDOIWTCFEHAVD2H0RLGVK","AKSJ3C5O3V9RB","3FW4EL5A3LANKRP91N782LFHPY722Q","","615.8000000119209","img/animal2.png","75","616.5","2","1","2","0.7,0,0.8,0.7,0.8,0,0.7,0.8,0",""
"","html-keyboard-response","53","47368","0.0-53.0","3X1FV8S5JYDOIWTCFEHAVD2H0RLGVK","AKSJ3C5O3V9RB","3FW4EL5A3LANKRP91N782LFHPY722Q","","null","<img src=""img/animal2.png"" style=""width:200px; border:14px solid green;"">","null","","","","","",""
"","image-keyboard-response","54","48008","0.0-54.0","3X1FV8S5JYDOIWTCFEHAVD2H0RLGVK","AKSJ3C5O3V9RB","3FW4EL5A3LANKRP91N782LFHPY722Q","","639.2000000178814","img/animal3.png","74","639.8999999761581","1","1","3","0.7,0,0.8,0.7,0.8,0,0.7,0.8,0",""
"","html-keyboard-response","55","48311","0.0-55.0","3X1FV8S5JYDOIWTCFEHAVD2H0RLGVK","AKSJ3C5O3V9RB","3FW4EL5A3LANKRP91N782LFHPY722Q","","null","<img src=""img/animal3.png"" style=""width:200px; border:14px solid green;"">","null","","","","","",""
"","image-keyboard-response","56","49102","0.0-56.0","3X1FV8S5JYDOIWTCFEHAVD2H0RLGVK","AKSJ3C5O3V9RB","3FW4EL5A3LANKRP91N782LFHPY722Q","","790.5999999940395","img/animal5.png","76","791.4000000059605","3","1","1","0.7,0,0.8,0.7,0.8,0,0.7,0.8,0",""
"","html-keyboard-response","57","49417","0.0-57.0","3X1FV8S5JYDOIWTCFEHAVD2H0RLGVK","AKSJ3C5O3V9RB","3FW4EL5A3LANKRP91N782LFHPY722Q","","null","<img src=""img/animal5.png"" style=""width:200px; border:14px solid green;"">","null","","","","","",""
"","image-keyboard-response","58","50168","0.0-58.0","3X1FV8S5JYDOIWTCFEHAVD2H0RLGVK","AKSJ3C5O3V9RB","3FW4EL5A3LANKRP91N782LFHPY722Q","","750.2999999821186","img/animal3.png","74","750.9000000059605","1","1","3","0.7,0,0.8,0.7,0.8,0,0.7,0.8,0",""
"","html-keyboard-response","59","50469","0.0-59.0","3X1FV8S5JYDOIWTCFEHAVD2H0RLGVK","AKSJ3C5O3V9RB","3FW4EL5A3LANKRP91N782LFHPY722Q","","null","<img src=""img/animal3.png"" style=""width:200px; border:14px solid green;"">","null","","","","","",""
"","image-keyboard-response","60","51028","0.0-60.0","3X1FV8S5JYDOIWTCFEHAVD2H0RLGVK","AKSJ3C5O3V9RB","3FW4EL5A3LANKRP91N782LFHPY722Q","","557.9000000059605","img/animal3.png","74","558.6000000238419","1","0","3","0.7,0,0.8,0.7,0.8,0,0.7,0.8,0",""
"","html-keyboard-response","61","51330","0.0-61.0","3X1FV8S5JYDOIWTCFEHAVD2H0RLGVK","AKSJ3C5O3V9RB","3FW4EL5A3LANKRP91N782LFHPY722Q","","null","<img src=""img/animal3.png"" style=""width:200px;border:14px solid red;"">","null","","","","","",""
"","image-keyboard-response","62","52141","0.0-62.0","3X1FV8S5JYDOIWTCFEHAVD2H0RLGVK","AKSJ3C5O3V9RB","3FW4EL5A3LANKRP91N782LFHPY722Q","","810.6999999880791","img/animal5.png","76","811.4000000059605","3","1","1","0.7,0,0.8,0.7,0.8,0,0.7,0.8,0",""
"","html-keyboard-response","63","52443","0.0-63.0","3X1FV8S5JYDOIWTCFEHAVD2H0RLGVK","AKSJ3C5O3V9RB","3FW4EL5A3LANKRP91N782LFHPY722Q","","null","<img src=""img/animal5.png"" style=""width:200px; border:14px solid green;"">","null","","","","","",""
"","image-keyboard-response","64","53195","0.0-64.0","3X1FV8S5JYDOIWTCFEHAVD2H0RLGVK","AKSJ3C5O3V9RB","3FW4EL5A3LANKRP91N782LFHPY722Q","","750.5","img/animal3.png","74","751.2999999821186","1","0","3","0.7,0,0.8,0.7,0.8,0,0.7,0.8,0",""
"","html-keyboard-response","65","53497","0.0-65.0","3X1FV8S5JYDOIWTCFEHAVD2H0RLGVK","AKSJ3C5O3V9RB","3FW4EL5A3LANKRP91N782LFHPY722Q","","null","<img src=""img/animal3.png"" style=""width:200px;border:14px solid red;"">","null","","","","","",""
"","image-keyboard-response","66","54232","0.0-66.0","3X1FV8S5JYDOIWTCFEHAVD2H0RLGVK","AKSJ3C5O3V9RB","3FW4EL5A3LANKRP91N782LFHPY722Q","","734.7000000178814","img/animal5.png","76","735.3999999761581","3","0","1","0.7,0,0.8,0.7,0.8,0,0.7,0.8,0",""
"","html-keyboard-response","67","54544","0.0-67.0","3X1FV8S5JYDOIWTCFEHAVD2H0RLGVK","AKSJ3C5O3V9RB","3FW4EL5A3LANKRP91N782LFHPY722Q","","null","<img src=""img/animal5.png"" style=""width:200px;border:14px solid red;"">","null","","","","","",""
"","image-keyboard-response","68","54978","0.0-68.0","3X1FV8S5JYDOIWTCFEHAVD2H0RLGVK","AKSJ3C5O3V9RB","3FW4EL5A3LANKRP91N782LFHPY722Q","","433.09999999403954","img/animal5.png","76","433.7999999821186","3","0","1","0.7,0,0.8,0.7,0.8,0,0.7,0.8,0",""
"","html-keyboard-response","69","55280","0.0-69.0","3X1FV8S5JYDOIWTCFEHAVD2H0RLGVK","AKSJ3C5O3V9RB","3FW4EL5A3LANKRP91N782LFHPY722Q","","null","<img src=""img/animal5.png"" style=""width:200px;border:14px solid red;"">","null","","","","","",""
"","image-keyboard-response","70","55927","0.0-70.0","3X1FV8S5JYDOIWTCFEHAVD2H0RLGVK","AKSJ3C5O3V9RB","3FW4EL5A3LANKRP91N782LFHPY722Q","","646.0999999940395","img/animal3.png","74","646.7000000178814","1","0","3","0.7,0,0.8,0.7,0.8,0,0.7,0.8,0",""
"","html-keyboard-response","71","56229","0.0-71.0","3X1FV8S5JYDOIWTCFEHAVD2H0RLGVK","AKSJ3C5O3V9RB","3FW4EL5A3LANKRP91N782LFHPY722Q","","null","<img src=""img/animal3.png"" style=""width:200px;border:14px solid red;"">","null","","","","","",""
"","image-keyboard-response","72","56590","0.0-72.0","3X1FV8S5JYDOIWTCFEHAVD2H0RLGVK","AKSJ3C5O3V9RB","3FW4EL5A3LANKRP91N782LFHPY722Q","","360.80000001192093","img/animal3.png","74","361.5","1","1","3","0.7,0,0.8,0.7,0.8,0,0.7,0.8,0",""
"","html-keyboard-response","73","56892","0.0-73.0","3X1FV8S5JYDOIWTCFEHAVD2H0RLGVK","AKSJ3C5O3V9RB","3FW4EL5A3LANKRP91N782LFHPY722Q","","null","<img src=""img/animal3.png"" style=""width:200px; border:14px solid green;"">","null","","","","","",""
"","image-keyboard-response","74","57397","0.0-74.0","3X1FV8S5JYDOIWTCFEHAVD2H0RLGVK","AKSJ3C5O3V9RB","3FW4EL5A3LANKRP91N782LFHPY722Q","","505","img/animal2.png","75","505.7000000178814","2","1","2","0.7,0,0.8,0.7,0.8,0,0.7,0.8,0",""
"","html-keyboard-response","75","57700","0.0-75.0","3X1FV8S5JYDOIWTCFEHAVD2H0RLGVK","AKSJ3C5O3V9RB","3FW4EL5A3LANKRP91N782LFHPY722Q","","null","<img src=""img/animal2.png"" style=""width:200px; border:14px solid green;"">","null","","","","","",""
"","image-keyboard-response","76","58304","0.0-76.0","3X1FV8S5JYDOIWTCFEHAVD2H0RLGVK","AKSJ3C5O3V9RB","3FW4EL5A3LANKRP91N782LFHPY722Q","","603.7000000178814","img/animal5.png","74","604.2999999821186","1","1","1","0.7,0,0.8,0.7,0.8,0,0.7,0.8,0",""
"","html-keyboard-response","77","58607","0.0-77.0","3X1FV8S5JYDOIWTCFEHAVD2H0RLGVK","AKSJ3C5O3V9RB","3FW4EL5A3LANKRP91N782LFHPY722Q","","null","<img src=""img/animal5.png"" style=""width:200px; border:14px solid green;"">","null","","","","","",""
"","image-keyboard-response","78","59369","0.0-78.0","3X1FV8S5JYDOIWTCFEHAVD2H0RLGVK","AKSJ3C5O3V9RB","3FW4EL5A3LANKRP91N782LFHPY722Q","","761.7999999821186","img/animal2.png","75","762.4000000059605","2","1","2","0.7,0,0.8,0.7,0.8,0,0.7,0.8,0",""
"","html-keyboard-response","79","59671","0.0-79.0","3X1FV8S5JYDOIWTCFEHAVD2H0RLGVK","AKSJ3C5O3V9RB","3FW4EL5A3LANKRP91N782LFHPY722Q","","null","<img src=""img/animal2.png"" style=""width:200px; border:14px solid green;"">","null","","","","","",""
"","image-keyboard-response","80","60072","0.0-80.0","3X1FV8S5JYDOIWTCFEHAVD2H0RLGVK","AKSJ3C5O3V9RB","3FW4EL5A3LANKRP91N782LFHPY722Q","","399.80000001192093","img/animal2.png","75","400.39999997615814","2","0","2","0.7,0,0.8,0.7,0.8,0,0.7,0.8,0",""
"","html-keyboard-response","81","60375","0.0-81.0","3X1FV8S5JYDOIWTCFEHAVD2H0RLGVK","AKSJ3C5O3V9RB","3FW4EL5A3LANKRP91N782LFHPY722Q","","null","<img src=""img/animal2.png"" style=""width:200px;border:14px solid red;"">","null","","","","","",""
"","image-keyboard-response","82","61113","0.0-82.0","3X1FV8S5JYDOIWTCFEHAVD2H0RLGVK","AKSJ3C5O3V9RB","3FW4EL5A3LANKRP91N782LFHPY722Q","","737.1999999880791","img/animal5.png","74","737.9000000059605","1","1","1","0.7,0,0.8,0.7,0.8,0,0.7,0.8,0",""
"","html-keyboard-response","83","61416","0.0-83.0","3X1FV8S5JYDOIWTCFEHAVD2H0RLGVK","AKSJ3C5O3V9RB","3FW4EL5A3LANKRP91N782LFHPY722Q","","null","<img src=""img/animal5.png"" style=""width:200px; border:14px solid green;"">","null","","","","","",""
"","image-keyboard-response","84","62236","0.0-84.0","3X1FV8S5JYDOIWTCFEHAVD2H0RLGVK","AKSJ3C5O3V9RB","3FW4EL5A3LANKRP91N782LFHPY722Q","","820.0999999940395","img/animal2.png","75","820.8000000119209","2","1","2","0.7,0,0.8,0.7,0.8,0,0.7,0.8,0",""
"","html-keyboard-response","85","62550","0.0-85.0","3X1FV8S5JYDOIWTCFEHAVD2H0RLGVK","AKSJ3C5O3V9RB","3FW4EL5A3LANKRP91N782LFHPY722Q","","null","<img src=""img/animal2.png"" style=""width:200px; border:14px solid green;"">","null","","","","","",""
"","image-keyboard-response","86","63173","0.0-86.0","3X1FV8S5JYDOIWTCFEHAVD2H0RLGVK","AKSJ3C5O3V9RB","3FW4EL5A3LANKRP91N782LFHPY722Q","","622.7999999821186","img/animal5.png","74","623.6000000238419","1","0","1","0.7,0,0.8,0.7,0.8,0,0.7,0.8,0",""
"","html-keyboard-response","87","63475","0.0-87.0","3X1FV8S5JYDOIWTCFEHAVD2H0RLGVK","AKSJ3C5O3V9RB","3FW4EL5A3LANKRP91N782LFHPY722Q","","null","<img src=""img/animal5.png"" style=""width:200px;border:14px solid red;"">","null","","","","","",""
"","image-keyboard-response","88","63974","0.0-88.0","3X1FV8S5JYDOIWTCFEHAVD2H0RLGVK","AKSJ3C5O3V9RB","3FW4EL5A3LANKRP91N782LFHPY722Q","","498.5","img/animal2.png","75","499.09999999403954","2","0","2","0.7,0,0.8,0.7,0.8,0,0.7,0.8,0",""
"","html-keyboard-response","89","64275","0.0-89.0","3X1FV8S5JYDOIWTCFEHAVD2H0RLGVK","AKSJ3C5O3V9RB","3FW4EL5A3LANKRP91N782LFHPY722Q","","null","<img src=""img/animal2.png"" style=""width:200px;border:14px solid red;"">","null","","","","","",""
"","image-keyboard-response","90","65168","0.0-90.0","3X1FV8S5JYDOIWTCFEHAVD2H0RLGVK","AKSJ3C5O3V9RB","3FW4EL5A3LANKRP91N782LFHPY722Q","","892.2000000178814","img/animal3.png","74","892.7000000178814","1","1","3","0.7,0,0.8,0.7,0.8,0,0.7,0.8,0",""
"","html-keyboard-response","91","65470","0.0-91.0","3X1FV8S5JYDOIWTCFEHAVD2H0RLGVK","AKSJ3C5O3V9RB","3FW4EL5A3LANKRP91N782LFHPY722Q","","null","<img src=""img/animal3.png"" style=""width:200px; border:14px solid green;"">","null","","","","","",""
"","image-keyboard-response","92","66304","0.0-92.0","3X1FV8S5JYDOIWTCFEHAVD2H0RLGVK","AKSJ3C5O3V9RB","3FW4EL5A3LANKRP91N782LFHPY722Q","","833.4000000059605","img/animal2.png","75","833.9000000059605","2","1","2","0.7,0,0.8,0.7,0.8,0,0.7,0.8,0",""
"","html-keyboard-response","93","66606","0.0-93.0","3X1FV8S5JYDOIWTCFEHAVD2H0RLGVK","AKSJ3C5O3V9RB","3FW4EL5A3LANKRP91N782LFHPY722Q","","null","<img src=""img/animal2.png"" style=""width:200px; border:14px solid green;"">","null","","","","","",""
"","image-keyboard-response","94","67354","0.0-94.0","3X1FV8S5JYDOIWTCFEHAVD2H0RLGVK","AKSJ3C5O3V9RB","3FW4EL5A3LANKRP91N782LFHPY722Q","","747.5","img/animal5.png","76","748.0999999940395","3","1","1","0.7,0,0.8,0.7,0.8,0,0.7,0.8,0",""
"","html-keyboard-response","95","67657","0.0-95.0","3X1FV8S5JYDOIWTCFEHAVD2H0RLGVK","AKSJ3C5O3V9RB","3FW4EL5A3LANKRP91N782LFHPY722Q","","null","<img src=""img/animal5.png"" style=""width:200px; border:14px solid green;"">","null","","","","","",""
"","image-keyboard-response","96","68263","0.0-96.0","3X1FV8S5JYDOIWTCFEHAVD2H0RLGVK","AKSJ3C5O3V9RB","3FW4EL5A3LANKRP91N782LFHPY722Q","","606.0999999940395","img/animal3.png","74","606.6999999880791","1","1","3","0.7,0,0.8,0.7,0.8,0,0.7,0.8,0",""
"","html-keyboard-response","97","68565","0.0-97.0","3X1FV8S5JYDOIWTCFEHAVD2H0RLGVK","AKSJ3C5O3V9RB","3FW4EL5A3LANKRP91N782LFHPY722Q","","null","<img src=""img/animal3.png"" style=""width:200px; border:14px solid green;"">","null","","","","","",""
"","image-keyboard-response","98","69132","0.0-98.0","3X1FV8S5JYDOIWTCFEHAVD2H0RLGVK","AKSJ3C5O3V9RB","3FW4EL5A3LANKRP91N782LFHPY722Q","","565.7000000178814","img/animal5.png","76","566.5","3","1","1","0.7,0,0.8,0.7,0.8,0,0.7,0.8,0",""
"","html-keyboard-response","99","69435","0.0-99.0","3X1FV8S5JYDOIWTCFEHAVD2H0RLGVK","AKSJ3C5O3V9RB","3FW4EL5A3LANKRP91N782LFHPY722Q","","null","<img src=""img/animal5.png"" style=""width:200px; border:14px solid green;"">","null","","","","","",""
"","image-keyboard-response","100","70112","0.0-100.0","3X1FV8S5JYDOIWTCFEHAVD2H0RLGVK","AKSJ3C5O3V9RB","3FW4EL5A3LANKRP91N782LFHPY722Q","","676.9000000059605","img/animal3.png","74","677.5","1","1","3","0.7,0,0.8,0.7,0.8,0,0.7,0.8,0",""
"","html-keyboard-response","101","70414","0.0-101.0","3X1FV8S5JYDOIWTCFEHAVD2H0RLGVK","AKSJ3C5O3V9RB","3FW4EL5A3LANKRP91N782LFHPY722Q","","null","<img src=""img/animal3.png"" style=""width:200px; border:14px solid green;"">","null","","","","","",""
"","image-keyboard-response","102","71150","0.0-102.0","3X1FV8S5JYDOIWTCFEHAVD2H0RLGVK","AKSJ3C5O3V9RB","3FW4EL5A3LANKRP91N782LFHPY722Q","","735.5999999940395","img/animal2.png","75","736.0999999940395","2","1","2","0.7,0,0.8,0.7,0.8,0,0.7,0.8,0",""
"","html-keyboard-response","103","71453","0.0-103.0","3X1FV8S5JYDOIWTCFEHAVD2H0RLGVK","AKSJ3C5O3V9RB","3FW4EL5A3LANKRP91N782LFHPY722Q","","null","<img src=""img/animal2.png"" style=""width:200px; border:14px solid green;"">","null","","","","","",""
"","image-keyboard-response","104","72128","0.0-104.0","3X1FV8S5JYDOIWTCFEHAVD2H0RLGVK","AKSJ3C5O3V9RB","3FW4EL5A3LANKRP91N782LFHPY722Q","","674.5999999940395","img/animal3.png","74","675.2000000178814","1","1","3","0.7,0,0.8,0.7,0.8,0,0.7,0.8,0",""
"","html-keyboard-response","105","72430","0.0-105.0","3X1FV8S5JYDOIWTCFEHAVD2H0RLGVK","AKSJ3C5O3V9RB","3FW4EL5A3LANKRP91N782LFHPY722Q","","null","<img src=""img/animal3.png"" style=""width:200px; border:14px solid green;"">","null","","","","","",""
"","image-keyboard-response","106","73056","0.0-106.0","3X1FV8S5JYDOIWTCFEHAVD2H0RLGVK","AKSJ3C5O3V9RB","3FW4EL5A3LANKRP91N782LFHPY722Q","","625.2000000178814","img/animal5.png","76","625.6999999880791","3","1","1","0.7,0,0.8,0.7,0.8,0,0.7,0.8,0",""
"","html-keyboard-response","107","73358","0.0-107.0","3X1FV8S5JYDOIWTCFEHAVD2H0RLGVK","AKSJ3C5O3V9RB","3FW4EL5A3LANKRP91N782LFHPY722Q","","null","<img src=""img/animal5.png"" style=""width:200px; border:14px solid green;"">","null","","","","","",""
"","image-keyboard-response","108","74042","0.0-108.0","3X1FV8S5JYDOIWTCFEHAVD2H0RLGVK","AKSJ3C5O3V9RB","3FW4EL5A3LANKRP91N782LFHPY722Q","","683.8000000119209","img/animal2.png","75","684.5","2","1","2","0.7,0,0.8,0.7,0.8,0,0.7,0.8,0",""
"","html-keyboard-response","109","74344","0.0-109.0","3X1FV8S5JYDOIWTCFEHAVD2H0RLGVK","AKSJ3C5O3V9RB","3FW4EL5A3LANKRP91N782LFHPY722Q","","null","<img src=""img/animal2.png"" style=""width:200px; border:14px solid green;"">","null","","","","","",""
"","image-keyboard-response","110","74972","0.0-110.0","3X1FV8S5JYDOIWTCFEHAVD2H0RLGVK","AKSJ3C5O3V9RB","3FW4EL5A3LANKRP91N782LFHPY722Q","","626.6999999880791","img/animal2.png","75","627.3000000119209","2","1","2","0.7,0,0.8,0.7,0.8,0,0.7,0.8,0",""
"","html-keyboard-response","111","75274","0.0-111.0","3X1FV8S5JYDOIWTCFEHAVD2H0RLGVK","AKSJ3C5O3V9RB","3FW4EL5A3LANKRP91N782LFHPY722Q","","null","<img src=""img/animal2.png"" style=""width:200px; border:14px solid green;"">","null","","","","","",""
"","image-keyboard-response","112","75881","0.0-112.0","3X1FV8S5JYDOIWTCFEHAVD2H0RLGVK","AKSJ3C5O3V9RB","3FW4EL5A3LANKRP91N782LFHPY722Q","","605.7999999821186","img/animal3.png","74","606.7000000178814","1","1","3","0.7,0,0.8,0.7,0.8,0,0.7,0.8,0",""
"","html-keyboard-response","113","76188","0.0-113.0","3X1FV8S5JYDOIWTCFEHAVD2H0RLGVK","AKSJ3C5O3V9RB","3FW4EL5A3LANKRP91N782LFHPY722Q","","null","<img src=""img/animal3.png"" style=""width:200px; border:14px solid green;"">","null","","","","","",""
"","image-keyboard-response","114","76777","0.0-114.0","3X1FV8S5JYDOIWTCFEHAVD2H0RLGVK","AKSJ3C5O3V9RB","3FW4EL5A3LANKRP91N782LFHPY722Q","","588.4000000059605","img/animal5.png","76","589","3","1","1","0.7,0,0.8,0.7,0.8,0,0.7,0.8,0",""
"","html-keyboard-response","115","77079","0.0-115.0","3X1FV8S5JYDOIWTCFEHAVD2H0RLGVK","AKSJ3C5O3V9RB","3FW4EL5A3LANKRP91N782LFHPY722Q","","null","<img src=""img/animal5.png"" style=""width:200px; border:14px solid green;"">","null","","","","","",""
"","image-keyboard-response","116","77705","0.0-116.0","3X1FV8S5JYDOIWTCFEHAVD2H0RLGVK","AKSJ3C5O3V9RB","3FW4EL5A3LANKRP91N782LFHPY722Q","","625.5","img/animal2.png","75","626.1999999880791","2","1","2","0.7,0,0.8,0.7,0.8,0,0.7,0.8,0",""
"","html-keyboard-response","117","78007","0.0-117.0","3X1FV8S5JYDOIWTCFEHAVD2H0RLGVK","AKSJ3C5O3V9RB","3FW4EL5A3LANKRP91N782LFHPY722Q","","null","<img src=""img/animal2.png"" style=""width:200px; border:14px solid green;"">","null","","","","","",""
"","image-keyboard-response","118","78568","0.0-118.0","3X1FV8S5JYDOIWTCFEHAVD2H0RLGVK","AKSJ3C5O3V9RB","3FW4EL5A3LANKRP91N782LFHPY722Q","","560.4000000059605","img/animal5.png","76","561.1000000238419","3","0","1","0.7,0,0.8,0.7,0.8,0,0.7,0.8,0",""
"","html-keyboard-response","119","78871","0.0-119.0","3X1FV8S5JYDOIWTCFEHAVD2H0RLGVK","AKSJ3C5O3V9RB","3FW4EL5A3LANKRP91N782LFHPY722Q","","null","<img src=""img/animal5.png"" style=""width:200px;border:14px solid red;"">","null","","","","","",""
"","image-keyboard-response","120","79551","0.0-120.0","3X1FV8S5JYDOIWTCFEHAVD2H0RLGVK","AKSJ3C5O3V9RB","3FW4EL5A3LANKRP91N782LFHPY722Q","","679.3000000119209","img/animal3.png","74","680","1","1","3","0.7,0,0.8,0.7,0.8,0,0.7,0.8,0",""
"","html-keyboard-response","121","79852","0.0-121.0","3X1FV8S5JYDOIWTCFEHAVD2H0RLGVK","AKSJ3C5O3V9RB","3FW4EL5A3LANKRP91N782LFHPY722Q","","null","<img src=""img/animal3.png"" style=""width:200px; border:14px solid green;"">","null","","","","","",""
"","image-keyboard-response","122","80274","0.0-122.0","3X1FV8S5JYDOIWTCFEHAVD2H0RLGVK","AKSJ3C5O3V9RB","3FW4EL5A3LANKRP91N782LFHPY722Q","","420.59999999403954","img/animal3.png","74","421.19999998807907","1","1","3","0.7,0,0.8,0.7,0.8,0,0.7,0.8,0",""
"","html-keyboard-response","123","80576","0.0-123.0","3X1FV8S5JYDOIWTCFEHAVD2H0RLGVK","AKSJ3C5O3V9RB","3FW4EL5A3LANKRP91N782LFHPY722Q","","null","<img src=""img/animal3.png"" style=""width:200px; border:14px solid green;"">","null","","","","","",""
"","image-keyboard-response","124","81207","0.0-124.0","3X1FV8S5JYDOIWTCFEHAVD2H0RLGVK","AKSJ3C5O3V9RB","3FW4EL5A3LANKRP91N782LFHPY722Q","","630.7999999821186","img/animal2.png","75","631.4000000059605","2","0","2","0.7,0,0.8,0.7,0.8,0,0.7,0.8,0",""
"","html-keyboard-response","125","81508","0.0-125.0","3X1FV8S5JYDOIWTCFEHAVD2H0RLGVK","AKSJ3C5O3V9RB","3FW4EL5A3LANKRP91N782LFHPY722Q","","null","<img src=""img/animal2.png"" style=""width:200px;border:14px solid red;"">","null","","","","","",""
"","image-keyboard-response","126","82124","0.0-126.0","3X1FV8S5JYDOIWTCFEHAVD2H0RLGVK","AKSJ3C5O3V9RB","3FW4EL5A3LANKRP91N782LFHPY722Q","","615.0999999940395","img/animal5.png","76","615.8000000119209","3","1","1","0.7,0,0.8,0.7,0.8,0,0.7,0.8,0",""
"","html-keyboard-response","127","82427","0.0-127.0","3X1FV8S5JYDOIWTCFEHAVD2H0RLGVK","AKSJ3C5O3V9RB","3FW4EL5A3LANKRP91N782LFHPY722Q","","null","<img src=""img/animal5.png"" style=""width:200px; border:14px solid green;"">","null","","","","","",""
"","image-keyboard-response","128","82829","0.0-128.0","3X1FV8S5JYDOIWTCFEHAVD2H0RLGVK","AKSJ3C5O3V9RB","3FW4EL5A3LANKRP91N782LFHPY722Q","","401.89999997615814","img/animal5.png","76","402.69999998807907","3","1","1","0.7,0,0.8,0.7,0.8,0,0.7,0.8,0",""
"","html-keyboard-response","129","83133","0.0-129.0","3X1FV8S5JYDOIWTCFEHAVD2H0RLGVK","AKSJ3C5O3V9RB","3FW4EL5A3LANKRP91N782LFHPY722Q","","null","<img src=""img/animal5.png"" style=""width:200px; border:14px solid green;"">","null","","","","","",""
"","image-keyboard-response","130","83766","0.0-130.0","3X1FV8S5JYDOIWTCFEHAVD2H0RLGVK","AKSJ3C5O3V9RB","3FW4EL5A3LANKRP91N782LFHPY722Q","","632.9000000059605","img/animal3.png","74","633.4000000059605","1","1","3","0.7,0,0.8,0.7,0.8,0,0.7,0.8,0",""
"","html-keyboard-response","131","84068","0.0-131.0","3X1FV8S5JYDOIWTCFEHAVD2H0RLGVK","AKSJ3C5O3V9RB","3FW4EL5A3LANKRP91N782LFHPY722Q","","null","<img src=""img/animal3.png"" style=""width:200px; border:14px solid green;"">","null","","","","","",""
"","image-keyboard-response","132","84538","0.0-132.0","3X1FV8S5JYDOIWTCFEHAVD2H0RLGVK","AKSJ3C5O3V9RB","3FW4EL5A3LANKRP91N782LFHPY722Q","","468.59999999403954","img/animal5.png","74","469.40000000596046","1","0","1","0.7,0,0.8,0.7,0.8,0,0.7,0.8,0",""
"","html-keyboard-response","133","84840","0.0-133.0","3X1FV8S5JYDOIWTCFEHAVD2H0RLGVK","AKSJ3C5O3V9RB","3FW4EL5A3LANKRP91N782LFHPY722Q","","null","<img src=""img/animal5.png"" style=""width:200px;border:14px solid red;"">","null","","","","","",""
"","image-keyboard-response","134","85552","0.0-134.0","3X1FV8S5JYDOIWTCFEHAVD2H0RLGVK","AKSJ3C5O3V9RB","3FW4EL5A3LANKRP91N782LFHPY722Q","","711.4000000059605","img/animal3.png","74","711.8999999761581","1","0","3","0.7,0,0.8,0.7,0.8,0,0.7,0.8,0",""
"","html-keyboard-response","135","85853","0.0-135.0","3X1FV8S5JYDOIWTCFEHAVD2H0RLGVK","AKSJ3C5O3V9RB","3FW4EL5A3LANKRP91N782LFHPY722Q","","null","<img src=""img/animal3.png"" style=""width:200px;border:14px solid red;"">","null","","","","","",""
"","image-keyboard-response","136","86246","0.0-136.0","3X1FV8S5JYDOIWTCFEHAVD2H0RLGVK","AKSJ3C5O3V9RB","3FW4EL5A3LANKRP91N782LFHPY722Q","","392.09999999403954","img/animal3.png","74","392.69999998807907","1","1","3","0.7,0,0.8,0.7,0.8,0,0.7,0.8,0",""
"","html-keyboard-response","137","86548","0.0-137.0","3X1FV8S5JYDOIWTCFEHAVD2H0RLGVK","AKSJ3C5O3V9RB","3FW4EL5A3LANKRP91N782LFHPY722Q","","null","<img src=""img/animal3.png"" style=""width:200px; border:14px solid green;"">","null","","","","","",""
"","image-keyboard-response","138","87125","0.0-138.0","3X1FV8S5JYDOIWTCFEHAVD2H0RLGVK","AKSJ3C5O3V9RB","3FW4EL5A3LANKRP91N782LFHPY722Q","","575.4000000059605","img/animal5.png","76","575.8999999761581","3","1","1","0.7,0,0.8,0.7,0.8,0,0.7,0.8,0",""
"","html-keyboard-response","139","87427","0.0-139.0","3X1FV8S5JYDOIWTCFEHAVD2H0RLGVK","AKSJ3C5O3V9RB","3FW4EL5A3LANKRP91N782LFHPY722Q","","null","<img src=""img/animal5.png"" style=""width:200px; border:14px solid green;"">","null","","","","","",""
"","image-keyboard-response","140","87918","0.0-140.0","3X1FV8S5JYDOIWTCFEHAVD2H0RLGVK","AKSJ3C5O3V9RB","3FW4EL5A3LANKRP91N782LFHPY722Q","","489.80000001192093","img/animal5.png","76","490.5","3","1","1","0.7,0,0.8,0.7,0.8,0,0.7,0.8,0",""
"","html-keyboard-response","141","88220","0.0-141.0","3X1FV8S5JYDOIWTCFEHAVD2H0RLGVK","AKSJ3C5O3V9RB","3FW4EL5A3LANKRP91N782LFHPY722Q","","null","<img src=""img/animal5.png"" style=""width:200px; border:14px solid green;"">","null","","","","","",""
"","image-keyboard-response","142","88597","0.0-142.0","3X1FV8S5JYDOIWTCFEHAVD2H0RLGVK","AKSJ3C5O3V9RB","3FW4EL5A3LANKRP91N782LFHPY722Q","","376.09999999403954","img/animal5.png","76","376.80000001192093","3","1","1","0.7,0,0.8,0.7,0.8,0,0.7,0.8,0",""
"","html-keyboard-response","143","88899","0.0-143.0","3X1FV8S5JYDOIWTCFEHAVD2H0RLGVK","AKSJ3C5O3V9RB","3FW4EL5A3LANKRP91N782LFHPY722Q","","null","<img src=""img/animal5.png"" style=""width:200px; border:14px solid green;"">","null","","","","","",""
"","image-keyboard-response","144","89288","0.0-144.0","3X1FV8S5JYDOIWTCFEHAVD2H0RLGVK","AKSJ3C5O3V9RB","3FW4EL5A3LANKRP91N782LFHPY722Q","","387.40000000596046","img/animal5.png","76","388","3","1","1","0.7,0,0.8,0.7,0.8,0,0.7,0.8,0",""
"","html-keyboard-response","145","89591","0.0-145.0","3X1FV8S5JYDOIWTCFEHAVD2H0RLGVK","AKSJ3C5O3V9RB","3FW4EL5A3LANKRP91N782LFHPY722Q","","null","<img src=""img/animal5.png"" style=""width:200px; border:14px solid green;"">","null","","","","","",""
"","image-keyboard-response","146","90089","0.0-146.0","3X1FV8S5JYDOIWTCFEHAVD2H0RLGVK","AKSJ3C5O3V9RB","3FW4EL5A3LANKRP91N782LFHPY722Q","","497.5","img/animal2.png","75","498.09999999403954","2","0","2","0.7,0,0.8,0.7,0.8,0,0.7,0.8,0",""
"","html-keyboard-response","147","90391","0.0-147.0","3X1FV8S5JYDOIWTCFEHAVD2H0RLGVK","AKSJ3C5O3V9RB","3FW4EL5A3LANKRP91N782LFHPY722Q","","null","<img src=""img/animal2.png"" style=""width:200px;border:14px solid red;"">","null","","","","","",""
"","image-keyboard-response","148","90735","0.0-148.0","3X1FV8S5JYDOIWTCFEHAVD2H0RLGVK","AKSJ3C5O3V9RB","3FW4EL5A3LANKRP91N782LFHPY722Q","","343.7999999821186","img/animal2.png","75","344.59999999403954","2","1","2","0.7,0,0.8,0.7,0.8,0,0.7,0.8,0",""
"","html-keyboard-response","149","91039","0.0-149.0","3X1FV8S5JYDOIWTCFEHAVD2H0RLGVK","AKSJ3C5O3V9RB","3FW4EL5A3LANKRP91N782LFHPY722Q","","null","<img src=""img/animal2.png"" style=""width:200px; border:14px solid green;"">","null","","","","","",""
"","image-keyboard-response","150","91632","0.0-150.0","3X1FV8S5JYDOIWTCFEHAVD2H0RLGVK","AKSJ3C5O3V9RB","3FW4EL5A3LANKRP91N782LFHPY722Q","","592.1000000238419","img/animal3.png","74","592.8000000119209","1","1","3","0.7,0,0.8,0.7,0.8,0,0.7,0.8,0",""
"","html-keyboard-response","151","91934","0.0-151.0","3X1FV8S5JYDOIWTCFEHAVD2H0RLGVK","AKSJ3C5O3V9RB","3FW4EL5A3LANKRP91N782LFHPY722Q","","null","<img src=""img/animal3.png"" style=""width:200px; border:14px solid green;"">","null","","","","","",""
"","image-keyboard-response","152","92475","0.0-152.0","3X1FV8S5JYDOIWTCFEHAVD2H0RLGVK","AKSJ3C5O3V9RB","3FW4EL5A3LANKRP91N782LFHPY722Q","","539.6999999880791","img/animal5.png","76","540.2000000178814","3","0","1","0.7,0,0.8,0.7,0.8,0,0.7,0.8,0",""
"","html-keyboard-response","153","92776","0.0-153.0","3X1FV8S5JYDOIWTCFEHAVD2H0RLGVK","AKSJ3C5O3V9RB","3FW4EL5A3LANKRP91N782LFHPY722Q","","null","<img src=""img/animal5.png"" style=""width:200px;border:14px solid red;"">","null","","","","","",""
"","image-keyboard-response","154","93453","0.0-154.0","3X1FV8S5JYDOIWTCFEHAVD2H0RLGVK","AKSJ3C5O3V9RB","3FW4EL5A3LANKRP91N782LFHPY722Q","","675.6999999880791","img/animal2.png","75","676.6000000238419","2","1","2","0.7,0,0.8,0.7,0.8,0,0.7,0.8,0",""
"","html-keyboard-response","155","93755","0.0-155.0","3X1FV8S5JYDOIWTCFEHAVD2H0RLGVK","AKSJ3C5O3V9RB","3FW4EL5A3LANKRP91N782LFHPY722Q","","null","<img src=""img/animal2.png"" style=""width:200px; border:14px solid green;"">","null","","","","","",""
"","image-keyboard-response","156","94148","0.0-156.0","3X1FV8S5JYDOIWTCFEHAVD2H0RLGVK","AKSJ3C5O3V9RB","3FW4EL5A3LANKRP91N782LFHPY722Q","","392.89999997615814","img/animal2.png","75","393.40000000596046","2","1","2","0.7,0,0.8,0.7,0.8,0,0.7,0.8,0",""
"","html-keyboard-response","157","94450","0.0-157.0","3X1FV8S5JYDOIWTCFEHAVD2H0RLGVK","AKSJ3C5O3V9RB","3FW4EL5A3LANKRP91N782LFHPY722Q","","null","<img src=""img/animal2.png"" style=""width:200px; border:14px solid green;"">","null","","","","","",""
"","image-keyboard-response","158","95168","0.0-158.0","3X1FV8S5JYDOIWTCFEHAVD2H0RLGVK","AKSJ3C5O3V9RB","3FW4EL5A3LANKRP91N782LFHPY722Q","","717.7000000178814","img/animal5.png","76","718.3000000119209","3","0","1","0.7,0,0.8,0.7,0.8,0,0.7,0.8,0",""
"","html-keyboard-response","159","95470","0.0-159.0","3X1FV8S5JYDOIWTCFEHAVD2H0RLGVK","AKSJ3C5O3V9RB","3FW4EL5A3LANKRP91N782LFHPY722Q","","null","<img src=""img/animal5.png"" style=""width:200px;border:14px solid red;"">","null","","","","","",""
"","image-keyboard-response","160","96303","0.0-160.0","3X1FV8S5JYDOIWTCFEHAVD2H0RLGVK","AKSJ3C5O3V9RB","3FW4EL5A3LANKRP91N782LFHPY722Q","","831.7999999821186","img/animal2.png","75","832.5","2","1","2","0.7,0,0.8,0.7,0.8,0,0.7,0.8,0",""
"","html-keyboard-response","161","96604","0.0-161.0","3X1FV8S5JYDOIWTCFEHAVD2H0RLGVK","AKSJ3C5O3V9RB","3FW4EL5A3LANKRP91N782LFHPY722Q","","null","<img src=""img/animal2.png"" style=""width:200px; border:14px solid green;"">","null","","","","","",""
"","image-keyboard-response","162","97022","0.0-162.0","3X1FV8S5JYDOIWTCFEHAVD2H0RLGVK","AKSJ3C5O3V9RB","3FW4EL5A3LANKRP91N782LFHPY722Q","","416.60000002384186","img/animal2.png","75","417.40000000596046","2","1","2","0.7,0,0.8,0.7,0.8,0,0.7,0.8,0",""
"","html-keyboard-response","163","97338","0.0-163.0","3X1FV8S5JYDOIWTCFEHAVD2H0RLGVK","AKSJ3C5O3V9RB","3FW4EL5A3LANKRP91N782LFHPY722Q","","null","<img src=""img/animal2.png"" style=""width:200px; border:14px solid green;"">","null","","","","","",""
"","image-keyboard-response","164","97768","0.0-164.0","3X1FV8S5JYDOIWTCFEHAVD2H0RLGVK","AKSJ3C5O3V9RB","3FW4EL5A3LANKRP91N782LFHPY722Q","","429.2999999821186","img/animal3.png","74","430","1","1","3","0.7,0,0.8,0.7,0.8,0,0.7,0.8,0",""
"","html-keyboard-response","165","98070","0.0-165.0","3X1FV8S5JYDOIWTCFEHAVD2H0RLGVK","AKSJ3C5O3V9RB","3FW4EL5A3LANKRP91N782LFHPY722Q","","null","<img src=""img/animal3.png"" style=""width:200px; border:14px solid green;"">","null","","","","","",""
"","image-keyboard-response","166","98867","0.0-166.0","3X1FV8S5JYDOIWTCFEHAVD2H0RLGVK","AKSJ3C5O3V9RB","3FW4EL5A3LANKRP91N782LFHPY722Q","","796.5","img/animal5.png","76","797.2000000178814","3","0","1","0.7,0,0.8,0.7,0.8,0,0.7,0.8,0",""
"","html-keyboard-response","167","99170","0.0-167.0","3X1FV8S5JYDOIWTCFEHAVD2H0RLGVK","AKSJ3C5O3V9RB","3FW4EL5A3LANKRP91N782LFHPY722Q","","null","<img src=""img/animal5.png"" style=""width:200px;border:14px solid red;"">","null","","","","","",""
"","image-keyboard-response","168","99691","0.0-168.0","3X1FV8S5JYDOIWTCFEHAVD2H0RLGVK","AKSJ3C5O3V9RB","3FW4EL5A3LANKRP91N782LFHPY722Q","","519.9000000059605","img/animal2.png","75","520.5999999940395","2","1","2","0.7,0,0.8,0.7,0.8,0,0.7,0.8,0",""
"","html-keyboard-response","169","99992","0.0-169.0","3X1FV8S5JYDOIWTCFEHAVD2H0RLGVK","AKSJ3C5O3V9RB","3FW4EL5A3LANKRP91N782LFHPY722Q","","null","<img src=""img/animal2.png"" style=""width:200px; border:14px solid green;"">","null","","","","","",""
"","image-keyboard-response","170","100741","0.0-170.0","3X1FV8S5JYDOIWTCFEHAVD2H0RLGVK","AKSJ3C5O3V9RB","3FW4EL5A3LANKRP91N782LFHPY722Q","","748.6999999880791","img/animal3.png","74","749.4000000059605","1","0","3","0.7,0,0.8,0.7,0.8,0,0.7,0.8,0",""
"","html-keyboard-response","171","101044","0.0-171.0","3X1FV8S5JYDOIWTCFEHAVD2H0RLGVK","AKSJ3C5O3V9RB","3FW4EL5A3LANKRP91N782LFHPY722Q","","null","<img src=""img/animal3.png"" style=""width:200px;border:14px solid red;"">","null","","","","","",""
"","image-keyboard-response","172","101665","0.0-172.0","3X1FV8S5JYDOIWTCFEHAVD2H0RLGVK","AKSJ3C5O3V9RB","3FW4EL5A3LANKRP91N782LFHPY722Q","","620.4000000059605","img/animal2.png","75","621","2","1","2","0.7,0,0.8,0.7,0.8,0,0.7,0.8,0",""
"","html-keyboard-response","173","101969","0.0-173.0","3X1FV8S5JYDOIWTCFEHAVD2H0RLGVK","AKSJ3C5O3V9RB","3FW4EL5A3LANKRP91N782LFHPY722Q","","null","<img src=""img/animal2.png"" style=""width:200px; border:14px solid green;"">","null","","","","","",""
"","image-keyboard-response","174","102790","0.0-174.0","3X1FV8S5JYDOIWTCFEHAVD2H0RLGVK","AKSJ3C5O3V9RB","3FW4EL5A3LANKRP91N782LFHPY722Q","","820.1999999880791","img/animal3.png","74","820.8000000119209","1","1","3","0.7,0,0.8,0.7,0.8,0,0.7,0.8,0",""
"","html-keyboard-response","175","103092","0.0-175.0","3X1FV8S5JYDOIWTCFEHAVD2H0RLGVK","AKSJ3C5O3V9RB","3FW4EL5A3LANKRP91N782LFHPY722Q","","null","<img src=""img/animal3.png"" style=""width:200px; border:14px solid green;"">","null","","","","","",""
"","image-keyboard-response","176","103713","0.0-176.0","3X1FV8S5JYDOIWTCFEHAVD2H0RLGVK","AKSJ3C5O3V9RB","3FW4EL5A3LANKRP91N782LFHPY722Q","","620","img/animal3.png","74","620.7999999821186","1","1","3","0.7,0,0.8,0.7,0.8,0,0.7,0.8,0",""
"","html-keyboard-response","177","104014","0.0-177.0","3X1FV8S5JYDOIWTCFEHAVD2H0RLGVK","AKSJ3C5O3V9RB","3FW4EL5A3LANKRP91N782LFHPY722Q","","null","<img src=""img/animal3.png"" style=""width:200px; border:14px solid green;"">","null","","","","","",""
"","image-keyboard-response","178","104415","0.0-178.0","3X1FV8S5JYDOIWTCFEHAVD2H0RLGVK","AKSJ3C5O3V9RB","3FW4EL5A3LANKRP91N782LFHPY722Q","","400","img/animal3.png","74","400.59999999403954","1","1","3","0.7,0,0.8,0.7,0.8,0,0.7,0.8,0",""
"","html-keyboard-response","179","104716","0.0-179.0","3X1FV8S5JYDOIWTCFEHAVD2H0RLGVK","AKSJ3C5O3V9RB","3FW4EL5A3LANKRP91N782LFHPY722Q","","null","<img src=""img/animal3.png"" style=""width:200px; border:14px solid green;"">","null","","","","","",""
"","image-keyboard-response","180","105365","0.0-180.0","3X1FV8S5JYDOIWTCFEHAVD2H0RLGVK","AKSJ3C5O3V9RB","3FW4EL5A3LANKRP91N782LFHPY722Q","","648.2000000178814","img/animal2.png","74","648.9000000059605","1","1","2","0.7,0,0.8,0.7,0.8,0,0.7,0.8,0",""
"","html-keyboard-response","181","105666","0.0-181.0","3X1FV8S5JYDOIWTCFEHAVD2H0RLGVK","AKSJ3C5O3V9RB","3FW4EL5A3LANKRP91N782LFHPY722Q","","null","<img src=""img/animal2.png"" style=""width:200px; border:14px solid green;"">","null","","","","","",""
"","html-keyboard-response","182","107656","0.0-182.0","3X1FV8S5JYDOIWTCFEHAVD2H0RLGVK","AKSJ3C5O3V9RB","3FW4EL5A3LANKRP91N782LFHPY722Q","","","","","","","","","",""
"","image-keyboard-response","183","108843","0.0-183.0","3X1FV8S5JYDOIWTCFEHAVD2H0RLGVK","AKSJ3C5O3V9RB","3FW4EL5A3LANKRP91N782LFHPY722Q","","1186.5999999940395","img/animal6.png","74","1187.5","1","0","1","0.5,0,1,1,0.5,0,0,1,0.5",""
"","html-keyboard-response","184","109145","0.0-184.0","3X1FV8S5JYDOIWTCFEHAVD2H0RLGVK","AKSJ3C5O3V9RB","3FW4EL5A3LANKRP91N782LFHPY722Q","","null","<img src=""img/animal6.png"" style=""width:200px;border:14px solid red;"">","null","","","","","",""
"","image-keyboard-response","185","110068","0.0-185.0","3X1FV8S5JYDOIWTCFEHAVD2H0RLGVK","AKSJ3C5O3V9RB","3FW4EL5A3LANKRP91N782LFHPY722Q","","922.1999999880791","img/animal1.png","76","922.9000000059605","3","0","2","0.5,0,1,1,0.5,0,0,1,0.5",""
"","html-keyboard-response","186","110370","0.0-186.0","3X1FV8S5JYDOIWTCFEHAVD2H0RLGVK","AKSJ3C5O3V9RB","3FW4EL5A3LANKRP91N782LFHPY722Q","","null","<img src=""img/animal1.png"" style=""width:200px;border:14px solid red;"">","null","","","","","",""
"","image-keyboard-response","187","111237","0.0-187.0","3X1FV8S5JYDOIWTCFEHAVD2H0RLGVK","AKSJ3C5O3V9RB","3FW4EL5A3LANKRP91N782LFHPY722Q","","867.1000000238419","img/animal6.png","75","867.6999999880791","2","0","1","0.5,0,1,1,0.5,0,0,1,0.5",""
"","html-keyboard-response","188","111539","0.0-188.0","3X1FV8S5JYDOIWTCFEHAVD2H0RLGVK","AKSJ3C5O3V9RB","3FW4EL5A3LANKRP91N782LFHPY722Q","","null","<img src=""img/animal6.png"" style=""width:200px;border:14px solid red;"">","null","","","","","",""
"","image-keyboard-response","189","112145","0.0-189.0","3X1FV8S5JYDOIWTCFEHAVD2H0RLGVK","AKSJ3C5O3V9RB","3FW4EL5A3LANKRP91N782LFHPY722Q","","605.2000000178814","img/animal6.png","74","605.9000000059605","1","1","1","0.5,0,1,1,0.5,0,0,1,0.5",""
"","html-keyboard-response","190","112447","0.0-190.0","3X1FV8S5JYDOIWTCFEHAVD2H0RLGVK","AKSJ3C5O3V9RB","3FW4EL5A3LANKRP91N782LFHPY722Q","","null","<img src=""img/animal6.png"" style=""width:200px; border:14px solid green;"">","null","","","","","",""
"","image-keyboard-response","191","113438","0.0-191.0","3X1FV8S5JYDOIWTCFEHAVD2H0RLGVK","AKSJ3C5O3V9RB","3FW4EL5A3LANKRP91N782LFHPY722Q","","990.1999999880791","img/animal4.png","75","990.8000000119209","2","1","3","0.5,0,1,1,0.5,0,0,1,0.5",""
"","html-keyboard-response","192","113741","0.0-192.0","3X1FV8S5JYDOIWTCFEHAVD2H0RLGVK","AKSJ3C5O3V9RB","3FW4EL5A3LANKRP91N782LFHPY722Q","","null","<img src=""img/animal4.png"" style=""width:200px; border:14px solid green;"">","null","","","","","",""
"","image-keyboard-response","193","114438","0.0-193.0","3X1FV8S5JYDOIWTCFEHAVD2H0RLGVK","AKSJ3C5O3V9RB","3FW4EL5A3LANKRP91N782LFHPY722Q","","696.1999999880791","img/animal1.png","76","696.9000000059605","3","0","2","0.5,0,1,1,0.5,0,0,1,0.5",""
"","html-keyboard-response","194","114739","0.0-194.0","3X1FV8S5JYDOIWTCFEHAVD2H0RLGVK","AKSJ3C5O3V9RB","3FW4EL5A3LANKRP91N782LFHPY722Q","","null","<img src=""img/animal1.png"" style=""width:200px;border:14px solid red;"">","null","","","","","",""
"","image-keyboard-response","195","115310","0.0-195.0","3X1FV8S5JYDOIWTCFEHAVD2H0RLGVK","AKSJ3C5O3V9RB","3FW4EL5A3LANKRP91N782LFHPY722Q","","569.7000000178814","img/animal1.png","76","570.5999999940395","3","0","2","0.5,0,1,1,0.5,0,0,1,0.5",""
"","html-keyboard-response","196","115612","0.0-196.0","3X1FV8S5JYDOIWTCFEHAVD2H0RLGVK","AKSJ3C5O3V9RB","3FW4EL5A3LANKRP91N782LFHPY722Q","","null","<img src=""img/animal1.png"" style=""width:200px;border:14px solid red;"">","null","","","","","",""
"","image-keyboard-response","197","116505","0.0-197.0","3X1FV8S5JYDOIWTCFEHAVD2H0RLGVK","AKSJ3C5O3V9RB","3FW4EL5A3LANKRP91N782LFHPY722Q","","891.3000000119209","img/animal4.png","74","892.1999999880791","1","0","3","0.5,0,1,1,0.5,0,0,1,0.5",""
"","html-keyboard-response","198","116812","0.0-198.0","3X1FV8S5JYDOIWTCFEHAVD2H0RLGVK","AKSJ3C5O3V9RB","3FW4EL5A3LANKRP91N782LFHPY722Q","","null","<img src=""img/animal4.png"" style=""width:200px;border:14px solid red;"">","null","","","","","",""
"","image-keyboard-response","199","117258","0.0-199.0","3X1FV8S5JYDOIWTCFEHAVD2H0RLGVK","AKSJ3C5O3V9RB","3FW4EL5A3LANKRP91N782LFHPY722Q","","444.90000000596046","img/animal4.png","75","445.7000000178814","2","1","3","0.5,0,1,1,0.5,0,0,1,0.5",""
"","html-keyboard-response","200","117560","0.0-200.0","3X1FV8S5JYDOIWTCFEHAVD2H0RLGVK","AKSJ3C5O3V9RB","3FW4EL5A3LANKRP91N782LFHPY722Q","","null","<img src=""img/animal4.png"" style=""width:200px; border:14px solid green;"">","null","","","","","",""
"","image-keyboard-response","201","117969","0.0-201.0","3X1FV8S5JYDOIWTCFEHAVD2H0RLGVK","AKSJ3C5O3V9RB","3FW4EL5A3LANKRP91N782LFHPY722Q","","408.69999998807907","img/animal4.png","75","409.5","2","1","3","0.5,0,1,1,0.5,0,0,1,0.5",""
"","html-keyboard-response","202","118272","0.0-202.0","3X1FV8S5JYDOIWTCFEHAVD2H0RLGVK","AKSJ3C5O3V9RB","3FW4EL5A3LANKRP91N782LFHPY722Q","","null","<img src=""img/animal4.png"" style=""width:200px; border:14px solid green;"">","null","","","","","",""
"","image-keyboard-response","203","118978","0.0-203.0","3X1FV8S5JYDOIWTCFEHAVD2H0RLGVK","AKSJ3C5O3V9RB","3FW4EL5A3LANKRP91N782LFHPY722Q","","705.5","img/animal6.png","74","706.0999999940395","1","1","1","0.5,0,1,1,0.5,0,0,1,0.5",""
"","html-keyboard-response","204","119281","0.0-204.0","3X1FV8S5JYDOIWTCFEHAVD2H0RLGVK","AKSJ3C5O3V9RB","3FW4EL5A3LANKRP91N782LFHPY722Q","","null","<img src=""img/animal6.png"" style=""width:200px; border:14px solid green;"">","null","","","","","",""
"","image-keyboard-response","205","120219","0.0-205.0","3X1FV8S5JYDOIWTCFEHAVD2H0RLGVK","AKSJ3C5O3V9RB","3FW4EL5A3LANKRP91N782LFHPY722Q","","936.9000000059605","img/animal1.png","76","937.8000000119209","3","0","2","0.5,0,1,1,0.5,0,0,1,0.5",""
"","html-keyboard-response","206","120521","0.0-206.0","3X1FV8S5JYDOIWTCFEHAVD2H0RLGVK","AKSJ3C5O3V9RB","3FW4EL5A3LANKRP91N782LFHPY722Q","","null","<img src=""img/animal1.png"" style=""width:200px;border:14px solid red;"">","null","","","","","",""
"","image-keyboard-response","207","121354","0.0-207.0","3X1FV8S5JYDOIWTCFEHAVD2H0RLGVK","AKSJ3C5O3V9RB","3FW4EL5A3LANKRP91N782LFHPY722Q","","832.0999999940395","img/animal6.png","74","832.7000000178814","1","0","1","0.5,0,1,1,0.5,0,0,1,0.5",""
"","html-keyboard-response","208","121656","0.0-208.0","3X1FV8S5JYDOIWTCFEHAVD2H0RLGVK","AKSJ3C5O3V9RB","3FW4EL5A3LANKRP91N782LFHPY722Q","","null","<img src=""img/animal6.png"" style=""width:200px;border:14px solid red;"">","null","","","","","",""
"","image-keyboard-response","209","122428","0.0-209.0","3X1FV8S5JYDOIWTCFEHAVD2H0RLGVK","AKSJ3C5O3V9RB","3FW4EL5A3LANKRP91N782LFHPY722Q","","770.6999999880791","img/animal4.png","75","771.2999999821186","2","1","3","0.5,0,1,1,0.5,0,0,1,0.5",""
"","html-keyboard-response","210","122730","0.0-210.0","3X1FV8S5JYDOIWTCFEHAVD2H0RLGVK","AKSJ3C5O3V9RB","3FW4EL5A3LANKRP91N782LFHPY722Q","","null","<img src=""img/animal4.png"" style=""width:200px; border:14px solid green;"">","null","","","","","",""
"","image-keyboard-response","211","123519","0.0-211.0","3X1FV8S5JYDOIWTCFEHAVD2H0RLGVK","AKSJ3C5O3V9RB","3FW4EL5A3LANKRP91N782LFHPY722Q","","788.6999999880791","img/animal6.png","74","789.5","1","1","1","0.5,0,1,1,0.5,0,0,1,0.5",""
"","html-keyboard-response","212","123822","0.0-212.0","3X1FV8S5JYDOIWTCFEHAVD2H0RLGVK","AKSJ3C5O3V9RB","3FW4EL5A3LANKRP91N782LFHPY722Q","","null","<img src=""img/animal6.png"" style=""width:200px; border:14px solid green;"">","null","","","","","",""
"","image-keyboard-response","213","124402","0.0-213.0","3X1FV8S5JYDOIWTCFEHAVD2H0RLGVK","AKSJ3C5O3V9RB","3FW4EL5A3LANKRP91N782LFHPY722Q","","578.8000000119209","img/animal4.png","75","579.5999999940395","2","1","3","0.5,0,1,1,0.5,0,0,1,0.5",""
"","html-keyboard-response","214","124704","0.0-214.0","3X1FV8S5JYDOIWTCFEHAVD2H0RLGVK","AKSJ3C5O3V9RB","3FW4EL5A3LANKRP91N782LFHPY722Q","","null","<img src=""img/animal4.png"" style=""width:200px; border:14px solid green;"">","null","","","","","",""
"","image-keyboard-response","215","125373","0.0-215.0","3X1FV8S5JYDOIWTCFEHAVD2H0RLGVK","AKSJ3C5O3V9RB","3FW4EL5A3LANKRP91N782LFHPY722Q","","669.0999999940395","img/animal6.png","74","669.8000000119209","1","0","1","0.5,0,1,1,0.5,0,0,1,0.5",""
"","html-keyboard-response","216","125689","0.0-216.0","3X1FV8S5JYDOIWTCFEHAVD2H0RLGVK","AKSJ3C5O3V9RB","3FW4EL5A3LANKRP91N782LFHPY722Q","","null","<img src=""img/animal6.png"" style=""width:200px;border:14px solid red;"">","null","","","","","",""
"","image-keyboard-response","217","126277","0.0-217.0","3X1FV8S5JYDOIWTCFEHAVD2H0RLGVK","AKSJ3C5O3V9RB","3FW4EL5A3LANKRP91N782LFHPY722Q","","585.5999999940395","img/animal4.png","75","586.5","2","1","3","0.5,0,1,1,0.5,0,0,1,0.5",""
"","html-keyboard-response","218","126578","0.0-218.0","3X1FV8S5JYDOIWTCFEHAVD2H0RLGVK","AKSJ3C5O3V9RB","3FW4EL5A3LANKRP91N782LFHPY722Q","","null","<img src=""img/animal4.png"" style=""width:200px; border:14px solid green;"">","null","","","","","",""
"","image-keyboard-response","219","127005","0.0-219.0","3X1FV8S5JYDOIWTCFEHAVD2H0RLGVK","AKSJ3C5O3V9RB","3FW4EL5A3LANKRP91N782LFHPY722Q","","426.30000001192093","img/animal4.png","75","426.90000000596046","2","1","3","0.5,0,1,1,0.5,0,0,1,0.5",""
"","html-keyboard-response","220","127307","0.0-220.0","3X1FV8S5JYDOIWTCFEHAVD2H0RLGVK","AKSJ3C5O3V9RB","3FW4EL5A3LANKRP91N782LFHPY722Q","","null","<img src=""img/animal4.png"" style=""width:200px; border:14px solid green;"">","null","","","","","",""
"","image-keyboard-response","221","127908","0.0-221.0","3X1FV8S5JYDOIWTCFEHAVD2H0RLGVK","AKSJ3C5O3V9RB","3FW4EL5A3LANKRP91N782LFHPY722Q","","599.6999999880791","img/animal6.png","74","601.1999999880791","1","0","1","0.5,0,1,1,0.5,0,0,1,0.5",""
"","html-keyboard-response","222","128211","0.0-222.0","3X1FV8S5JYDOIWTCFEHAVD2H0RLGVK","AKSJ3C5O3V9RB","3FW4EL5A3LANKRP91N782LFHPY722Q","","null","<img src=""img/animal6.png"" style=""width:200px;border:14px solid red;"">","null","","","","","",""
"","image-keyboard-response","223","129129","0.0-223.0","3X1FV8S5JYDOIWTCFEHAVD2H0RLGVK","AKSJ3C5O3V9RB","3FW4EL5A3LANKRP91N782LFHPY722Q","","917.4000000059605","img/animal4.png","75","918.2000000178814","2","1","3","0.5,0,1,1,0.5,0,0,1,0.5",""
"","html-keyboard-response","224","129431","0.0-224.0","3X1FV8S5JYDOIWTCFEHAVD2H0RLGVK","AKSJ3C5O3V9RB","3FW4EL5A3LANKRP91N782LFHPY722Q","","null","<img src=""img/animal4.png"" style=""width:200px; border:14px solid green;"">","null","","","","","",""
"","image-keyboard-response","225","130420","0.0-225.0","3X1FV8S5JYDOIWTCFEHAVD2H0RLGVK","AKSJ3C5O3V9RB","3FW4EL5A3LANKRP91N782LFHPY722Q","","987.3000000119209","img/animal1.png","74","988","1","1","2","0.5,0,1,1,0.5,0,0,1,0.5",""
"","html-keyboard-response","226","130721","0.0-226.0","3X1FV8S5JYDOIWTCFEHAVD2H0RLGVK","AKSJ3C5O3V9RB","3FW4EL5A3LANKRP91N782LFHPY722Q","","null","<img src=""img/animal1.png"" style=""width:200px; border:14px solid green;"">","null","","","","","",""
"","image-keyboard-response","227","131622","0.0-227.0","3X1FV8S5JYDOIWTCFEHAVD2H0RLGVK","AKSJ3C5O3V9RB","3FW4EL5A3LANKRP91N782LFHPY722Q","","900.0999999940395","img/animal4.png","75","900.6000000238419","2","1","3","0.5,0,1,1,0.5,0,0,1,0.5",""
"","html-keyboard-response","228","131923","0.0-228.0","3X1FV8S5JYDOIWTCFEHAVD2H0RLGVK","AKSJ3C5O3V9RB","3FW4EL5A3LANKRP91N782LFHPY722Q","","null","<img src=""img/animal4.png"" style=""width:200px; border:14px solid green;"">","null","","","","","",""
"","image-keyboard-response","229","132613","0.0-229.0","3X1FV8S5JYDOIWTCFEHAVD2H0RLGVK","AKSJ3C5O3V9RB","3FW4EL5A3LANKRP91N782LFHPY722Q","","688.5","img/animal6.png","76","689.4000000059605","3","1","1","0.5,0,1,1,0.5,0,0,1,0.5",""
"","html-keyboard-response","230","132915","0.0-230.0","3X1FV8S5JYDOIWTCFEHAVD2H0RLGVK","AKSJ3C5O3V9RB","3FW4EL5A3LANKRP91N782LFHPY722Q","","null","<img src=""img/animal6.png"" style=""width:200px; border:14px solid green;"">","null","","","","","",""
"","image-keyboard-response","231","133311","0.0-231.0","3X1FV8S5JYDOIWTCFEHAVD2H0RLGVK","AKSJ3C5O3V9RB","3FW4EL5A3LANKRP91N782LFHPY722Q","","395.40000000596046","img/animal6.png","76","396","3","1","1","0.5,0,1,1,0.5,0,0,1,0.5",""
"","html-keyboard-response","232","133614","0.0-232.0","3X1FV8S5JYDOIWTCFEHAVD2H0RLGVK","AKSJ3C5O3V9RB","3FW4EL5A3LANKRP91N782LFHPY722Q","","null","<img src=""img/animal6.png"" style=""width:200px; border:14px solid green;"">","null","","","","","",""
"","image-keyboard-response","233","134426","0.0-233.0","3X1FV8S5JYDOIWTCFEHAVD2H0RLGVK","AKSJ3C5O3V9RB","3FW4EL5A3LANKRP91N782LFHPY722Q","","811.0999999940395","img/animal1.png","74","811.7000000178814","1","1","2","0.5,0,1,1,0.5,0,0,1,0.5",""
"","html-keyboard-response","234","134733","0.0-234.0","3X1FV8S5JYDOIWTCFEHAVD2H0RLGVK","AKSJ3C5O3V9RB","3FW4EL5A3LANKRP91N782LFHPY722Q","","null","<img src=""img/animal1.png"" style=""width:200px; border:14px solid green;"">","null","","","","","",""
"","image-keyboard-response","235","135543","0.0-235.0","3X1FV8S5JYDOIWTCFEHAVD2H0RLGVK","AKSJ3C5O3V9RB","3FW4EL5A3LANKRP91N782LFHPY722Q","","809.1999999880791","img/animal6.png","76","810","3","1","1","0.5,0,1,1,0.5,0,0,1,0.5",""
"","html-keyboard-response","236","135846","0.0-236.0","3X1FV8S5JYDOIWTCFEHAVD2H0RLGVK","AKSJ3C5O3V9RB","3FW4EL5A3LANKRP91N782LFHPY722Q","","null","<img src=""img/animal6.png"" style=""width:200px; border:14px solid green;"">","null","","","","","",""
"","image-keyboard-response","237","136581","0.0-237.0","3X1FV8S5JYDOIWTCFEHAVD2H0RLGVK","AKSJ3C5O3V9RB","3FW4EL5A3LANKRP91N782LFHPY722Q","","734.0999999940395","img/animal1.png","74","734.7999999821186","1","1","2","0.5,0,1,1,0.5,0,0,1,0.5",""
"","html-keyboard-response","238","136883","0.0-238.0","3X1FV8S5JYDOIWTCFEHAVD2H0RLGVK","AKSJ3C5O3V9RB","3FW4EL5A3LANKRP91N782LFHPY722Q","","null","<img src=""img/animal1.png"" style=""width:200px; border:14px solid green;"">","null","","","","","",""
"","image-keyboard-response","239","137270","0.0-239.0","3X1FV8S5JYDOIWTCFEHAVD2H0RLGVK","AKSJ3C5O3V9RB","3FW4EL5A3LANKRP91N782LFHPY722Q","","386.09999999403954","img/animal1.png","74","386.69999998807907","1","1","2","0.5,0,1,1,0.5,0,0,1,0.5",""
"","html-keyboard-response","240","137571","0.0-240.0","3X1FV8S5JYDOIWTCFEHAVD2H0RLGVK","AKSJ3C5O3V9RB","3FW4EL5A3LANKRP91N782LFHPY722Q","","null","<img src=""img/animal1.png"" style=""width:200px; border:14px solid green;"">","null","","","","","",""
"","image-keyboard-response","241","137950","0.0-241.0","3X1FV8S5JYDOIWTCFEHAVD2H0RLGVK","AKSJ3C5O3V9RB","3FW4EL5A3LANKRP91N782LFHPY722Q","","377.7999999821186","img/animal1.png","74","378.5","1","1","2","0.5,0,1,1,0.5,0,0,1,0.5",""
"","html-keyboard-response","242","138257","0.0-242.0","3X1FV8S5JYDOIWTCFEHAVD2H0RLGVK","AKSJ3C5O3V9RB","3FW4EL5A3LANKRP91N782LFHPY722Q","","null","<img src=""img/animal1.png"" style=""width:200px; border:14px solid green;"">","null","","","","","",""
"","image-keyboard-response","243","139012","0.0-243.0","3X1FV8S5JYDOIWTCFEHAVD2H0RLGVK","AKSJ3C5O3V9RB","3FW4EL5A3LANKRP91N782LFHPY722Q","","755","img/animal6.png","76","755.6000000238419","3","1","1","0.5,0,1,1,0.5,0,0,1,0.5",""
"","html-keyboard-response","244","139315","0.0-244.0","3X1FV8S5JYDOIWTCFEHAVD2H0RLGVK","AKSJ3C5O3V9RB","3FW4EL5A3LANKRP91N782LFHPY722Q","","null","<img src=""img/animal6.png"" style=""width:200px; border:14px solid green;"">","null","","","","","",""
"","image-keyboard-response","245","139920","0.0-245.0","3X1FV8S5JYDOIWTCFEHAVD2H0RLGVK","AKSJ3C5O3V9RB","3FW4EL5A3LANKRP91N782LFHPY722Q","","603.8999999761581","img/animal4.png","75","604.5","2","1","3","0.5,0,1,1,0.5,0,0,1,0.5",""
"","html-keyboard-response","246","140222","0.0-246.0","3X1FV8S5JYDOIWTCFEHAVD2H0RLGVK","AKSJ3C5O3V9RB","3FW4EL5A3LANKRP91N782LFHPY722Q","","null","<img src=""img/animal4.png"" style=""width:200px; border:14px solid green;"">","null","","","","","",""
"","image-keyboard-response","247","140575","0.0-247.0","3X1FV8S5JYDOIWTCFEHAVD2H0RLGVK","AKSJ3C5O3V9RB","3FW4EL5A3LANKRP91N782LFHPY722Q","","352.10000002384186","img/animal4.png","75","352.7999999821186","2","1","3","0.5,0,1,1,0.5,0,0,1,0.5",""
"","html-keyboard-response","248","140877","0.0-248.0","3X1FV8S5JYDOIWTCFEHAVD2H0RLGVK","AKSJ3C5O3V9RB","3FW4EL5A3LANKRP91N782LFHPY722Q","","null","<img src=""img/animal4.png"" style=""width:200px; border:14px solid green;"">","null","","","","","",""
"","image-keyboard-response","249","141474","0.0-249.0","3X1FV8S5JYDOIWTCFEHAVD2H0RLGVK","AKSJ3C5O3V9RB","3FW4EL5A3LANKRP91N782LFHPY722Q","","595.5","img/animal6.png","76","596.1000000238419","3","1","1","0.5,0,1,1,0.5,0,0,1,0.5",""
"","html-keyboard-response","250","141776","0.0-250.0","3X1FV8S5JYDOIWTCFEHAVD2H0RLGVK","AKSJ3C5O3V9RB","3FW4EL5A3LANKRP91N782LFHPY722Q","","null","<img src=""img/animal6.png"" style=""width:200px; border:14px solid green;"">","null","","","","","",""
"","image-keyboard-response","251","142574","0.0-251.0","3X1FV8S5JYDOIWTCFEHAVD2H0RLGVK","AKSJ3C5O3V9RB","3FW4EL5A3LANKRP91N782LFHPY722Q","","797.4000000059605","img/animal4.png","75","798.0999999940395","2","1","3","0.5,0,1,1,0.5,0,0,1,0.5",""
"","html-keyboard-response","252","142876","0.0-252.0","3X1FV8S5JYDOIWTCFEHAVD2H0RLGVK","AKSJ3C5O3V9RB","3FW4EL5A3LANKRP91N782LFHPY722Q","","null","<img src=""img/animal4.png"" style=""width:200px; border:14px solid green;"">","null","","","","","",""
"","image-keyboard-response","253","143473","0.0-253.0","3X1FV8S5JYDOIWTCFEHAVD2H0RLGVK","AKSJ3C5O3V9RB","3FW4EL5A3LANKRP91N782LFHPY722Q","","596.1999999880791","img/animal6.png","76","596.7999999821186","3","1","1","0.5,0,1,1,0.5,0,0,1,0.5",""
"","html-keyboard-response","254","143775","0.0-254.0","3X1FV8S5JYDOIWTCFEHAVD2H0RLGVK","AKSJ3C5O3V9RB","3FW4EL5A3LANKRP91N782LFHPY722Q","","null","<img src=""img/animal6.png"" style=""width:200px; border:14px solid green;"">","null","","","","","",""
"","image-keyboard-response","255","144568","0.0-255.0","3X1FV8S5JYDOIWTCFEHAVD2H0RLGVK","AKSJ3C5O3V9RB","3FW4EL5A3LANKRP91N782LFHPY722Q","","792.2999999821186","img/animal1.png","74","793.2000000178814","1","1","2","0.5,0,1,1,0.5,0,0,1,0.5",""
"","html-keyboard-response","256","144870","0.0-256.0","3X1FV8S5JYDOIWTCFEHAVD2H0RLGVK","AKSJ3C5O3V9RB","3FW4EL5A3LANKRP91N782LFHPY722Q","","null","<img src=""img/animal1.png"" style=""width:200px; border:14px solid green;"">","null","","","","","",""
"","image-keyboard-response","257","145554","0.0-257.0","3X1FV8S5JYDOIWTCFEHAVD2H0RLGVK","AKSJ3C5O3V9RB","3FW4EL5A3LANKRP91N782LFHPY722Q","","683.6999999880791","img/animal4.png","75","684.3999999761581","2","1","3","0.5,0,1,1,0.5,0,0,1,0.5",""
"","html-keyboard-response","258","145857","0.0-258.0","3X1FV8S5JYDOIWTCFEHAVD2H0RLGVK","AKSJ3C5O3V9RB","3FW4EL5A3LANKRP91N782LFHPY722Q","","null","<img src=""img/animal4.png"" style=""width:200px; border:14px solid green;"">","null","","","","","",""
"","image-keyboard-response","259","146523","0.0-259.0","3X1FV8S5JYDOIWTCFEHAVD2H0RLGVK","AKSJ3C5O3V9RB","3FW4EL5A3LANKRP91N782LFHPY722Q","","665.3000000119209","img/animal1.png","74","665.7999999821186","1","1","2","0.5,0,1,1,0.5,0,0,1,0.5",""
"","html-keyboard-response","260","146825","0.0-260.0","3X1FV8S5JYDOIWTCFEHAVD2H0RLGVK","AKSJ3C5O3V9RB","3FW4EL5A3LANKRP91N782LFHPY722Q","","null","<img src=""img/animal1.png"" style=""width:200px; border:14px solid green;"">","null","","","","","",""
"","image-keyboard-response","261","147376","0.0-261.0","3X1FV8S5JYDOIWTCFEHAVD2H0RLGVK","AKSJ3C5O3V9RB","3FW4EL5A3LANKRP91N782LFHPY722Q","","550.0999999940395","img/animal4.png","75","550.6999999880791","2","1","3","0.5,0,1,1,0.5,0,0,1,0.5",""
"","html-keyboard-response","262","147677","0.0-262.0","3X1FV8S5JYDOIWTCFEHAVD2H0RLGVK","AKSJ3C5O3V9RB","3FW4EL5A3LANKRP91N782LFHPY722Q","","null","<img src=""img/animal4.png"" style=""width:200px; border:14px solid green;"">","null","","","","","",""
"","image-keyboard-response","263","148104","0.0-263.0","3X1FV8S5JYDOIWTCFEHAVD2H0RLGVK","AKSJ3C5O3V9RB","3FW4EL5A3LANKRP91N782LFHPY722Q","","426.59999999403954","img/animal4.png","75","427.30000001192093","2","1","3","0.5,0,1,1,0.5,0,0,1,0.5",""
"","html-keyboard-response","264","148406","0.0-264.0","3X1FV8S5JYDOIWTCFEHAVD2H0RLGVK","AKSJ3C5O3V9RB","3FW4EL5A3LANKRP91N782LFHPY722Q","","null","<img src=""img/animal4.png"" style=""width:200px; border:14px solid green;"">","null","","","","","",""
"","image-keyboard-response","265","149044","0.0-265.0","3X1FV8S5JYDOIWTCFEHAVD2H0RLGVK","AKSJ3C5O3V9RB","3FW4EL5A3LANKRP91N782LFHPY722Q","","636.7000000178814","img/animal6.png","76","637.2999999821186","3","1","1","0.5,0,1,1,0.5,0,0,1,0.5",""
"","html-keyboard-response","266","149346","0.0-266.0","3X1FV8S5JYDOIWTCFEHAVD2H0RLGVK","AKSJ3C5O3V9RB","3FW4EL5A3LANKRP91N782LFHPY722Q","","null","<img src=""img/animal6.png"" style=""width:200px; border:14px solid green;"">","null","","","","","",""
"","image-keyboard-response","267","149940","0.0-267.0","3X1FV8S5JYDOIWTCFEHAVD2H0RLGVK","AKSJ3C5O3V9RB","3FW4EL5A3LANKRP91N782LFHPY722Q","","592","img/animal1.png","74","592.7000000178814","1","1","2","0.5,0,1,1,0.5,0,0,1,0.5",""
"","html-keyboard-response","268","150242","0.0-268.0","3X1FV8S5JYDOIWTCFEHAVD2H0RLGVK","AKSJ3C5O3V9RB","3FW4EL5A3LANKRP91N782LFHPY722Q","","null","<img src=""img/animal1.png"" style=""width:200px; border:14px solid green;"">","null","","","","","",""
"","image-keyboard-response","269","150633","0.0-269.0","3X1FV8S5JYDOIWTCFEHAVD2H0RLGVK","AKSJ3C5O3V9RB","3FW4EL5A3LANKRP91N782LFHPY722Q","","390.40000000596046","img/animal1.png","74","391","1","1","2","0.5,0,1,1,0.5,0,0,1,0.5",""
"","html-keyboard-response","270","150935","0.0-270.0","3X1FV8S5JYDOIWTCFEHAVD2H0RLGVK","AKSJ3C5O3V9RB","3FW4EL5A3LANKRP91N782LFHPY722Q","","null","<img src=""img/animal1.png"" style=""width:200px; border:14px solid green;"">","null","","","","","",""
"","image-keyboard-response","271","151463","0.0-271.0","3X1FV8S5JYDOIWTCFEHAVD2H0RLGVK","AKSJ3C5O3V9RB","3FW4EL5A3LANKRP91N782LFHPY722Q","","527.1999999880791","img/animal6.png","76","527.8000000119209","3","1","1","0.5,0,1,1,0.5,0,0,1,0.5",""
"","html-keyboard-response","272","151770","0.0-272.0","3X1FV8S5JYDOIWTCFEHAVD2H0RLGVK","AKSJ3C5O3V9RB","3FW4EL5A3LANKRP91N782LFHPY722Q","","null","<img src=""img/animal6.png"" style=""width:200px; border:14px solid green;"">","null","","","","","",""
"","image-keyboard-response","273","152291","0.0-273.0","3X1FV8S5JYDOIWTCFEHAVD2H0RLGVK","AKSJ3C5O3V9RB","3FW4EL5A3LANKRP91N782LFHPY722Q","","519.5999999940395","img/animal4.png","75","520.2999999821186","2","1","3","0.5,0,1,1,0.5,0,0,1,0.5",""
"","html-keyboard-response","274","152595","0.0-274.0","3X1FV8S5JYDOIWTCFEHAVD2H0RLGVK","AKSJ3C5O3V9RB","3FW4EL5A3LANKRP91N782LFHPY722Q","","null","<img src=""img/animal4.png"" style=""width:200px; border:14px solid green;"">","null","","","","","",""
"","image-keyboard-response","275","153220","0.0-275.0","3X1FV8S5JYDOIWTCFEHAVD2H0RLGVK","AKSJ3C5O3V9RB","3FW4EL5A3LANKRP91N782LFHPY722Q","","624.8000000119209","img/animal1.png","74","625.5999999940395","1","1","2","0.5,0,1,1,0.5,0,0,1,0.5",""
"","html-keyboard-response","276","153523","0.0-276.0","3X1FV8S5JYDOIWTCFEHAVD2H0RLGVK","AKSJ3C5O3V9RB","3FW4EL5A3LANKRP91N782LFHPY722Q","","null","<img src=""img/animal1.png"" style=""width:200px; border:14px solid green;"">","null","","","","","",""
"","image-keyboard-response","277","153906","0.0-277.0","3X1FV8S5JYDOIWTCFEHAVD2H0RLGVK","AKSJ3C5O3V9RB","3FW4EL5A3LANKRP91N782LFHPY722Q","","382.10000002384186","img/animal1.png","74","382.69999998807907","1","1","2","0.5,0,1,1,0.5,0,0,1,0.5",""
"","html-keyboard-response","278","154207","0.0-278.0","3X1FV8S5JYDOIWTCFEHAVD2H0RLGVK","AKSJ3C5O3V9RB","3FW4EL5A3LANKRP91N782LFHPY722Q","","null","<img src=""img/animal1.png"" style=""width:200px; border:14px solid green;"">","null","","","","","",""
"","image-keyboard-response","279","154699","0.0-279.0","3X1FV8S5JYDOIWTCFEHAVD2H0RLGVK","AKSJ3C5O3V9RB","3FW4EL5A3LANKRP91N782LFHPY722Q","","490.89999997615814","img/animal1.png","74","491.59999999403954","1","1","2","0.5,0,1,1,0.5,0,0,1,0.5",""
"","html-keyboard-response","280","155007","0.0-280.0","3X1FV8S5JYDOIWTCFEHAVD2H0RLGVK","AKSJ3C5O3V9RB","3FW4EL5A3LANKRP91N782LFHPY722Q","","null","<img src=""img/animal1.png"" style=""width:200px; border:14px solid green;"">","null","","","","","",""
"","image-keyboard-response","281","155687","0.0-281.0","3X1FV8S5JYDOIWTCFEHAVD2H0RLGVK","AKSJ3C5O3V9RB","3FW4EL5A3LANKRP91N782LFHPY722Q","","679.9000000059605","img/animal6.png","75","680.8000000119209","2","0","1","0.5,0,1,1,0.5,0,0,1,0.5",""
"","html-keyboard-response","282","155990","0.0-282.0","3X1FV8S5JYDOIWTCFEHAVD2H0RLGVK","AKSJ3C5O3V9RB","3FW4EL5A3LANKRP91N782LFHPY722Q","","null","<img src=""img/animal6.png"" style=""width:200px;border:14px solid red;"">","null","","","","","",""
"","image-keyboard-response","283","156769","0.0-283.0","3X1FV8S5JYDOIWTCFEHAVD2H0RLGVK","AKSJ3C5O3V9RB","3FW4EL5A3LANKRP91N782LFHPY722Q","","778.6999999880791","img/animal1.png","74","779.3000000119209","1","1","2","0.5,0,1,1,0.5,0,0,1,0.5",""
"","html-keyboard-response","284","157073","0.0-284.0","3X1FV8S5JYDOIWTCFEHAVD2H0RLGVK","AKSJ3C5O3V9RB","3FW4EL5A3LANKRP91N782LFHPY722Q","","null","<img src=""img/animal1.png"" style=""width:200px; border:14px solid green;"">","null","","","","","",""
"","image-keyboard-response","285","157521","0.0-285.0","3X1FV8S5JYDOIWTCFEHAVD2H0RLGVK","AKSJ3C5O3V9RB","3FW4EL5A3LANKRP91N782LFHPY722Q","","447.40000000596046","img/animal1.png","74","447.89999997615814","1","1","2","0.5,0,1,1,0.5,0,0,1,0.5",""
"","html-keyboard-response","286","157833","0.0-286.0","3X1FV8S5JYDOIWTCFEHAVD2H0RLGVK","AKSJ3C5O3V9RB","3FW4EL5A3LANKRP91N782LFHPY722Q","","null","<img src=""img/animal1.png"" style=""width:200px; border:14px solid green;"">","null","","","","","",""
"","image-keyboard-response","287","158255","0.0-287.0","3X1FV8S5JYDOIWTCFEHAVD2H0RLGVK","AKSJ3C5O3V9RB","3FW4EL5A3LANKRP91N782LFHPY722Q","","421","img/animal1.png","74","421.40000000596046","1","1","2","0.5,0,1,1,0.5,0,0,1,0.5",""
"","html-keyboard-response","288","158557","0.0-288.0","3X1FV8S5JYDOIWTCFEHAVD2H0RLGVK","AKSJ3C5O3V9RB","3FW4EL5A3LANKRP91N782LFHPY722Q","","null","<img src=""img/animal1.png"" style=""width:200px; border:14px solid green;"">","null","","","","","",""
"","image-keyboard-response","289","158954","0.0-289.0","3X1FV8S5JYDOIWTCFEHAVD2H0RLGVK","AKSJ3C5O3V9RB","3FW4EL5A3LANKRP91N782LFHPY722Q","","396.5","img/animal1.png","74","397.09999999403954","1","1","2","0.5,0,1,1,0.5,0,0,1,0.5",""
"","html-keyboard-response","290","159257","0.0-290.0","3X1FV8S5JYDOIWTCFEHAVD2H0RLGVK","AKSJ3C5O3V9RB","3FW4EL5A3LANKRP91N782LFHPY722Q","","null","<img src=""img/animal1.png"" style=""width:200px; border:14px solid green;"">","null","","","","","",""
"","image-keyboard-response","291","159717","0.0-291.0","3X1FV8S5JYDOIWTCFEHAVD2H0RLGVK","AKSJ3C5O3V9RB","3FW4EL5A3LANKRP91N782LFHPY722Q","","458.80000001192093","img/animal1.png","74","459.5","1","1","2","0.5,0,1,1,0.5,0,0,1,0.5",""
"","html-keyboard-response","292","160019","0.0-292.0","3X1FV8S5JYDOIWTCFEHAVD2H0RLGVK","AKSJ3C5O3V9RB","3FW4EL5A3LANKRP91N782LFHPY722Q","","null","<img src=""img/animal1.png"" style=""width:200px; border:14px solid green;"">","null","","","","","",""
"","image-keyboard-response","293","160388","0.0-293.0","3X1FV8S5JYDOIWTCFEHAVD2H0RLGVK","AKSJ3C5O3V9RB","3FW4EL5A3LANKRP91N782LFHPY722Q","","368.89999997615814","img/animal1.png","74","369.5","1","1","2","0.5,0,1,1,0.5,0,0,1,0.5",""
"","html-keyboard-response","294","160690","0.0-294.0","3X1FV8S5JYDOIWTCFEHAVD2H0RLGVK","AKSJ3C5O3V9RB","3FW4EL5A3LANKRP91N782LFHPY722Q","","null","<img src=""img/animal1.png"" style=""width:200px; border:14px solid green;"">","null","","","","","",""
"","image-keyboard-response","295","161247","0.0-295.0","3X1FV8S5JYDOIWTCFEHAVD2H0RLGVK","AKSJ3C5O3V9RB","3FW4EL5A3LANKRP91N782LFHPY722Q","","555.4000000059605","img/animal6.png","76","556.1999999880791","3","1","1","0.5,0,1,1,0.5,0,0,1,0.5",""
"","html-keyboard-response","296","161549","0.0-296.0","3X1FV8S5JYDOIWTCFEHAVD2H0RLGVK","AKSJ3C5O3V9RB","3FW4EL5A3LANKRP91N782LFHPY722Q","","null","<img src=""img/animal6.png"" style=""width:200px; border:14px solid green;"">","null","","","","","",""
"","image-keyboard-response","297","162199","0.0-297.0","3X1FV8S5JYDOIWTCFEHAVD2H0RLGVK","AKSJ3C5O3V9RB","3FW4EL5A3LANKRP91N782LFHPY722Q","","649.2999999821186","img/animal1.png","74","649.8000000119209","1","1","2","0.5,0,1,1,0.5,0,0,1,0.5",""
"","html-keyboard-response","298","162500","0.0-298.0","3X1FV8S5JYDOIWTCFEHAVD2H0RLGVK","AKSJ3C5O3V9RB","3FW4EL5A3LANKRP91N782LFHPY722Q","","null","<img src=""img/animal1.png"" style=""width:200px; border:14px solid green;"">","null","","","","","",""
"","image-keyboard-response","299","163158","0.0-299.0","3X1FV8S5JYDOIWTCFEHAVD2H0RLGVK","AKSJ3C5O3V9RB","3FW4EL5A3LANKRP91N782LFHPY722Q","","656.5","img/animal4.png","75","657.2999999821186","2","1","3","0.5,0,1,1,0.5,0,0,1,0.5",""
"","html-keyboard-response","300","163459","0.0-300.0","3X1FV8S5JYDOIWTCFEHAVD2H0RLGVK","AKSJ3C5O3V9RB","3FW4EL5A3LANKRP91N782LFHPY722Q","","null","<img src=""img/animal4.png"" style=""width:200px; border:14px solid green;"">","null","","","","","",""
"","image-keyboard-response","301","163805","0.0-301.0","3X1FV8S5JYDOIWTCFEHAVD2H0RLGVK","AKSJ3C5O3V9RB","3FW4EL5A3LANKRP91N782LFHPY722Q","","344.90000000596046","img/animal4.png","75","345.69999998807907","2","1","3","0.5,0,1,1,0.5,0,0,1,0.5",""
"","html-keyboard-response","302","164106","0.0-302.0","3X1FV8S5JYDOIWTCFEHAVD2H0RLGVK","AKSJ3C5O3V9RB","3FW4EL5A3LANKRP91N782LFHPY722Q","","null","<img src=""img/animal4.png"" style=""width:200px; border:14px solid green;"">","null","","","","","",""
"","image-keyboard-response","303","164788","0.0-303.0","3X1FV8S5JYDOIWTCFEHAVD2H0RLGVK","AKSJ3C5O3V9RB","3FW4EL5A3LANKRP91N782LFHPY722Q","","680.7000000178814","img/animal6.png","76","681.5","3","1","1","0.5,0,1,1,0.5,0,0,1,0.5",""
"","html-keyboard-response","304","165090","0.0-304.0","3X1FV8S5JYDOIWTCFEHAVD2H0RLGVK","AKSJ3C5O3V9RB","3FW4EL5A3LANKRP91N782LFHPY722Q","","null","<img src=""img/animal6.png"" style=""width:200px; border:14px solid green;"">","null","","","","","",""
"","image-keyboard-response","305","165716","0.0-305.0","3X1FV8S5JYDOIWTCFEHAVD2H0RLGVK","AKSJ3C5O3V9RB","3FW4EL5A3LANKRP91N782LFHPY722Q","","625.0999999940395","img/animal1.png","74","625.7999999821186","1","1","2","0.5,0,1,1,0.5,0,0,1,0.5",""
"","html-keyboard-response","306","166019","0.0-306.0","3X1FV8S5JYDOIWTCFEHAVD2H0RLGVK","AKSJ3C5O3V9RB","3FW4EL5A3LANKRP91N782LFHPY722Q","","null","<img src=""img/animal1.png"" style=""width:200px; border:14px solid green;"">","null","","","","","",""
"","image-keyboard-response","307","166638","0.0-307.0","3X1FV8S5JYDOIWTCFEHAVD2H0RLGVK","AKSJ3C5O3V9RB","3FW4EL5A3LANKRP91N782LFHPY722Q","","618.7999999821186","img/animal6.png","76","619.2999999821186","3","1","1","0.5,0,1,1,0.5,0,0,1,0.5",""
"","html-keyboard-response","308","166945","0.0-308.0","3X1FV8S5JYDOIWTCFEHAVD2H0RLGVK","AKSJ3C5O3V9RB","3FW4EL5A3LANKRP91N782LFHPY722Q","","null","<img src=""img/animal6.png"" style=""width:200px; border:14px solid green;"">","null","","","","","",""
"","image-keyboard-response","309","167400","0.0-309.0","3X1FV8S5JYDOIWTCFEHAVD2H0RLGVK","AKSJ3C5O3V9RB","3FW4EL5A3LANKRP91N782LFHPY722Q","","454.90000000596046","img/animal6.png","76","455.5","3","1","1","0.5,0,1,1,0.5,0,0,1,0.5",""
"","html-keyboard-response","310","167705","0.0-310.0","3X1FV8S5JYDOIWTCFEHAVD2H0RLGVK","AKSJ3C5O3V9RB","3FW4EL5A3LANKRP91N782LFHPY722Q","","null","<img src=""img/animal6.png"" style=""width:200px; border:14px solid green;"">","null","","","","","",""
"","image-keyboard-response","311","168076","0.0-311.0","3X1FV8S5JYDOIWTCFEHAVD2H0RLGVK","AKSJ3C5O3V9RB","3FW4EL5A3LANKRP91N782LFHPY722Q","","370","img/animal6.png","76","370.59999999403954","3","1","1","0.5,0,1,1,0.5,0,0,1,0.5",""
"","html-keyboard-response","312","168378","0.0-312.0","3X1FV8S5JYDOIWTCFEHAVD2H0RLGVK","AKSJ3C5O3V9RB","3FW4EL5A3LANKRP91N782LFHPY722Q","","null","<img src=""img/animal6.png"" style=""width:200px; border:14px solid green;"">","null","","","","","",""
"","image-keyboard-response","313","168919","0.0-313.0","3X1FV8S5JYDOIWTCFEHAVD2H0RLGVK","AKSJ3C5O3V9RB","3FW4EL5A3LANKRP91N782LFHPY722Q","","540.4000000059605","img/animal4.png","75","541.2000000178814","2","1","3","0.5,0,1,1,0.5,0,0,1,0.5",""
"","html-keyboard-response","314","169221","0.0-314.0","3X1FV8S5JYDOIWTCFEHAVD2H0RLGVK","AKSJ3C5O3V9RB","3FW4EL5A3LANKRP91N782LFHPY722Q","","null","<img src=""img/animal4.png"" style=""width:200px; border:14px solid green;"">","null","","","","","",""
"","image-keyboard-response","315","169719","0.0-315.0","3X1FV8S5JYDOIWTCFEHAVD2H0RLGVK","AKSJ3C5O3V9RB","3FW4EL5A3LANKRP91N782LFHPY722Q","","498","img/animal1.png","74","498.59999999403954","1","1","2","0.5,0,1,1,0.5,0,0,1,0.5",""
"","html-keyboard-response","316","170020","0.0-316.0","3X1FV8S5JYDOIWTCFEHAVD2H0RLGVK","AKSJ3C5O3V9RB","3FW4EL5A3LANKRP91N782LFHPY722Q","","null","<img src=""img/animal1.png"" style=""width:200px; border:14px solid green;"">","null","","","","","",""
"","image-keyboard-response","317","170609","0.0-317.0","3X1FV8S5JYDOIWTCFEHAVD2H0RLGVK","AKSJ3C5O3V9RB","3FW4EL5A3LANKRP91N782LFHPY722Q","","587.1000000238419","img/animal4.png","75","587.9000000059605","2","1","3","0.5,0,1,1,0.5,0,0,1,0.5",""
"","html-keyboard-response","318","170912","0.0-318.0","3X1FV8S5JYDOIWTCFEHAVD2H0RLGVK","AKSJ3C5O3V9RB","3FW4EL5A3LANKRP91N782LFHPY722Q","","null","<img src=""img/animal4.png"" style=""width:200px; border:14px solid green;"">","null","","","","","",""
"","image-keyboard-response","319","171426","0.0-319.0","3X1FV8S5JYDOIWTCFEHAVD2H0RLGVK","AKSJ3C5O3V9RB","3FW4EL5A3LANKRP91N782LFHPY722Q","","513.8000000119209","img/animal4.png","75","514.6000000238419","2","1","3","0.5,0,1,1,0.5,0,0,1,0.5",""
"","html-keyboard-response","320","171728","0.0-320.0","3X1FV8S5JYDOIWTCFEHAVD2H0RLGVK","AKSJ3C5O3V9RB","3FW4EL5A3LANKRP91N782LFHPY722Q","","null","<img src=""img/animal4.png"" style=""width:200px; border:14px solid green;"">","null","","","","","",""
"","image-keyboard-response","321","172199","0.0-321.0","3X1FV8S5JYDOIWTCFEHAVD2H0RLGVK","AKSJ3C5O3V9RB","3FW4EL5A3LANKRP91N782LFHPY722Q","","470.59999999403954","img/animal4.png","75","471.30000001192093","2","1","3","0.5,0,1,1,0.5,0,0,1,0.5",""
"","html-keyboard-response","322","172501","0.0-322.0","3X1FV8S5JYDOIWTCFEHAVD2H0RLGVK","AKSJ3C5O3V9RB","3FW4EL5A3LANKRP91N782LFHPY722Q","","null","<img src=""img/animal4.png"" style=""width:200px; border:14px solid green;"">","null","","","","","",""
"","image-keyboard-response","323","172890","0.0-323.0","3X1FV8S5JYDOIWTCFEHAVD2H0RLGVK","AKSJ3C5O3V9RB","3FW4EL5A3LANKRP91N782LFHPY722Q","","387.40000000596046","img/animal4.png","75","388.19999998807907","2","1","3","0.5,0,1,1,0.5,0,0,1,0.5",""
"","html-keyboard-response","324","173191","0.0-324.0","3X1FV8S5JYDOIWTCFEHAVD2H0RLGVK","AKSJ3C5O3V9RB","3FW4EL5A3LANKRP91N782LFHPY722Q","","null","<img src=""img/animal4.png"" style=""width:200px; border:14px solid green;"">","null","","","","","",""
"","image-keyboard-response","325","173606","0.0-325.0","3X1FV8S5JYDOIWTCFEHAVD2H0RLGVK","AKSJ3C5O3V9RB","3FW4EL5A3LANKRP91N782LFHPY722Q","","414.09999999403954","img/animal4.png","75","414.80000001192093","2","1","3","0.5,0,1,1,0.5,0,0,1,0.5",""
"","html-keyboard-response","326","173908","0.0-326.0","3X1FV8S5JYDOIWTCFEHAVD2H0RLGVK","AKSJ3C5O3V9RB","3FW4EL5A3LANKRP91N782LFHPY722Q","","null","<img src=""img/animal4.png"" style=""width:200px; border:14px solid green;"">","null","","","","","",""
"","image-keyboard-response","327","174476","0.0-327.0","3X1FV8S5JYDOIWTCFEHAVD2H0RLGVK","AKSJ3C5O3V9RB","3FW4EL5A3LANKRP91N782LFHPY722Q","","567.2999999821186","img/animal1.png","74","568.1000000238419","1","1","2","0.5,0,1,1,0.5,0,0,1,0.5",""
"","html-keyboard-response","328","174778","0.0-328.0","3X1FV8S5JYDOIWTCFEHAVD2H0RLGVK","AKSJ3C5O3V9RB","3FW4EL5A3LANKRP91N782LFHPY722Q","","null","<img src=""img/animal1.png"" style=""width:200px; border:14px solid green;"">","null","","","","","",""
"","image-keyboard-response","329","175356","0.0-329.0","3X1FV8S5JYDOIWTCFEHAVD2H0RLGVK","AKSJ3C5O3V9RB","3FW4EL5A3LANKRP91N782LFHPY722Q","","576.6999999880791","img/animal6.png","76","577.4000000059605","3","1","1","0.5,0,1,1,0.5,0,0,1,0.5",""
"","html-keyboard-response","330","175658","0.0-330.0","3X1FV8S5JYDOIWTCFEHAVD2H0RLGVK","AKSJ3C5O3V9RB","3FW4EL5A3LANKRP91N782LFHPY722Q","","null","<img src=""img/animal6.png"" style=""width:200px; border:14px solid green;"">","null","","","","","",""
"","image-keyboard-response","331","176060","0.0-331.0","3X1FV8S5JYDOIWTCFEHAVD2H0RLGVK","AKSJ3C5O3V9RB","3FW4EL5A3LANKRP91N782LFHPY722Q","","401.69999998807907","img/animal6.png","76","402.40000000596046","3","1","1","0.5,0,1,1,0.5,0,0,1,0.5",""
"","html-keyboard-response","332","176363","0.0-332.0","3X1FV8S5JYDOIWTCFEHAVD2H0RLGVK","AKSJ3C5O3V9RB","3FW4EL5A3LANKRP91N782LFHPY722Q","","null","<img src=""img/animal6.png"" style=""width:200px; border:14px solid green;"">","null","","","","","",""
"","image-keyboard-response","333","176750","0.0-333.0","3X1FV8S5JYDOIWTCFEHAVD2H0RLGVK","AKSJ3C5O3V9RB","3FW4EL5A3LANKRP91N782LFHPY722Q","","386.90000000596046","img/animal6.png","76","387.5","3","1","1","0.5,0,1,1,0.5,0,0,1,0.5",""
"","html-keyboard-response","334","177053","0.0-334.0","3X1FV8S5JYDOIWTCFEHAVD2H0RLGVK","AKSJ3C5O3V9RB","3FW4EL5A3LANKRP91N782LFHPY722Q","","null","<img src=""img/animal6.png"" style=""width:200px; border:14px solid green;"">","null","","","","","",""
"","image-keyboard-response","335","177656","0.0-335.0","3X1FV8S5JYDOIWTCFEHAVD2H0RLGVK","AKSJ3C5O3V9RB","3FW4EL5A3LANKRP91N782LFHPY722Q","","602.6999999880791","img/animal4.png","75","603.4000000059605","2","1","3","0.5,0,1,1,0.5,0,0,1,0.5",""
"","html-keyboard-response","336","177959","0.0-336.0","3X1FV8S5JYDOIWTCFEHAVD2H0RLGVK","AKSJ3C5O3V9RB","3FW4EL5A3LANKRP91N782LFHPY722Q","","null","<img src=""img/animal4.png"" style=""width:200px; border:14px solid green;"">","null","","","","","",""
"","image-keyboard-response","337","178314","0.0-337.0","3X1FV8S5JYDOIWTCFEHAVD2H0RLGVK","AKSJ3C5O3V9RB","3FW4EL5A3LANKRP91N782LFHPY722Q","","353.59999999403954","img/animal4.png","75","354.39999997615814","2","1","3","0.5,0,1,1,0.5,0,0,1,0.5",""
"","html-keyboard-response","338","178617","0.0-338.0","3X1FV8S5JYDOIWTCFEHAVD2H0RLGVK","AKSJ3C5O3V9RB","3FW4EL5A3LANKRP91N782LFHPY722Q","","null","<img src=""img/animal4.png"" style=""width:200px; border:14px solid green;"">","null","","","","","",""
"","image-keyboard-response","339","179143","0.0-339.0","3X1FV8S5JYDOIWTCFEHAVD2H0RLGVK","AKSJ3C5O3V9RB","3FW4EL5A3LANKRP91N782LFHPY722Q","","526","img/animal6.png","74","526.8000000119209","1","0","1","0.5,0,1,1,0.5,0,0,1,0.5",""
"","html-keyboard-response","340","179446","0.0-340.0","3X1FV8S5JYDOIWTCFEHAVD2H0RLGVK","AKSJ3C5O3V9RB","3FW4EL5A3LANKRP91N782LFHPY722Q","","null","<img src=""img/animal6.png"" style=""width:200px;border:14px solid red;"">","null","","","","","",""
"","image-keyboard-response","341","179787","0.0-341.0","3X1FV8S5JYDOIWTCFEHAVD2H0RLGVK","AKSJ3C5O3V9RB","3FW4EL5A3LANKRP91N782LFHPY722Q","","340.90000000596046","img/animal6.png","76","341.5","3","1","1","0.5,0,1,1,0.5,0,0,1,0.5",""
"","html-keyboard-response","342","180089","0.0-342.0","3X1FV8S5JYDOIWTCFEHAVD2H0RLGVK","AKSJ3C5O3V9RB","3FW4EL5A3LANKRP91N782LFHPY722Q","","null","<img src=""img/animal6.png"" style=""width:200px; border:14px solid green;"">","null","","","","","",""
"","image-keyboard-response","343","180448","0.0-343.0","3X1FV8S5JYDOIWTCFEHAVD2H0RLGVK","AKSJ3C5O3V9RB","3FW4EL5A3LANKRP91N782LFHPY722Q","","358.5","img/animal6.png","76","359.09999999403954","3","1","1","0.5,0,1,1,0.5,0,0,1,0.5",""
"","html-keyboard-response","344","180750","0.0-344.0","3X1FV8S5JYDOIWTCFEHAVD2H0RLGVK","AKSJ3C5O3V9RB","3FW4EL5A3LANKRP91N782LFHPY722Q","","null","<img src=""img/animal6.png"" style=""width:200px; border:14px solid green;"">","null","","","","","",""
"","image-keyboard-response","345","181623","0.0-345.0","3X1FV8S5JYDOIWTCFEHAVD2H0RLGVK","AKSJ3C5O3V9RB","3FW4EL5A3LANKRP91N782LFHPY722Q","","872.8000000119209","img/animal1.png","74","873.4000000059605","1","1","2","0.5,0,1,1,0.5,0,0,1,0.5",""
"","html-keyboard-response","346","181925","0.0-346.0","3X1FV8S5JYDOIWTCFEHAVD2H0RLGVK","AKSJ3C5O3V9RB","3FW4EL5A3LANKRP91N782LFHPY722Q","","null","<img src=""img/animal1.png"" style=""width:200px; border:14px solid green;"">","null","","","","","",""
"","image-keyboard-response","347","182591","0.0-347.0","3X1FV8S5JYDOIWTCFEHAVD2H0RLGVK","AKSJ3C5O3V9RB","3FW4EL5A3LANKRP91N782LFHPY722Q","","665.7999999821186","img/animal4.png","75","666.5999999940395","2","1","3","0.5,0,1,1,0.5,0,0,1,0.5",""
"","html-keyboard-response","348","182893","0.0-348.0","3X1FV8S5JYDOIWTCFEHAVD2H0RLGVK","AKSJ3C5O3V9RB","3FW4EL5A3LANKRP91N782LFHPY722Q","","null","<img src=""img/animal4.png"" style=""width:200px; border:14px solid green;"">","null","","","","","",""
"","image-keyboard-response","349","183583","0.0-349.0","3X1FV8S5JYDOIWTCFEHAVD2H0RLGVK","AKSJ3C5O3V9RB","3FW4EL5A3LANKRP91N782LFHPY722Q","","689.4000000059605","img/animal1.png","74","690","1","1","2","0.5,0,1,1,0.5,0,0,1,0.5",""
"","html-keyboard-response","350","183885","0.0-350.0","3X1FV8S5JYDOIWTCFEHAVD2H0RLGVK","AKSJ3C5O3V9RB","3FW4EL5A3LANKRP91N782LFHPY722Q","","null","<img src=""img/animal1.png"" style=""width:200px; border:14px solid green;"">","null","","","","","",""
"","image-keyboard-response","351","184762","0.0-351.0","3X1FV8S5JYDOIWTCFEHAVD2H0RLGVK","AKSJ3C5O3V9RB","3FW4EL5A3LANKRP91N782LFHPY722Q","","876.0999999940395","img/animal6.png","76","876.7999999821186","3","1","1","0.5,0,1,1,0.5,0,0,1,0.5",""
"","html-keyboard-response","352","185064","0.0-352.0","3X1FV8S5JYDOIWTCFEHAVD2H0RLGVK","AKSJ3C5O3V9RB","3FW4EL5A3LANKRP91N782LFHPY722Q","","null","<img src=""img/animal6.png"" style=""width:200px; border:14px solid green;"">","null","","","","","",""
"","image-keyboard-response","353","185912","0.0-353.0","3X1FV8S5JYDOIWTCFEHAVD2H0RLGVK","AKSJ3C5O3V9RB","3FW4EL5A3LANKRP91N782LFHPY722Q","","847","img/animal4.png","75","847.5999999940395","2","1","3","0.5,0,1,1,0.5,0,0,1,0.5",""
"","html-keyboard-response","354","186214","0.0-354.0","3X1FV8S5JYDOIWTCFEHAVD2H0RLGVK","AKSJ3C5O3V9RB","3FW4EL5A3LANKRP91N782LFHPY722Q","","null","<img src=""img/animal4.png"" style=""width:200px; border:14px solid green;"">","null","","","","","",""
"","image-keyboard-response","355","187106","0.0-355.0","3X1FV8S5JYDOIWTCFEHAVD2H0RLGVK","AKSJ3C5O3V9RB","3FW4EL5A3LANKRP91N782LFHPY722Q","","890.9000000059605","img/animal6.png","76","891.5","3","1","1","0.5,0,1,1,0.5,0,0,1,0.5",""
"","html-keyboard-response","356","187407","0.0-356.0","3X1FV8S5JYDOIWTCFEHAVD2H0RLGVK","AKSJ3C5O3V9RB","3FW4EL5A3LANKRP91N782LFHPY722Q","","null","<img src=""img/animal6.png"" style=""width:200px; border:14px solid green;"">","null","","","","","",""
"","image-keyboard-response","357","188117","0.0-357.0","3X1FV8S5JYDOIWTCFEHAVD2H0RLGVK","AKSJ3C5O3V9RB","3FW4EL5A3LANKRP91N782LFHPY722Q","","709.7999999821186","img/animal1.png","74","710.3000000119209","1","1","2","0.5,0,1,1,0.5,0,0,1,0.5",""
"","html-keyboard-response","358","188420","0.0-358.0","3X1FV8S5JYDOIWTCFEHAVD2H0RLGVK","AKSJ3C5O3V9RB","3FW4EL5A3LANKRP91N782LFHPY722Q","","null","<img src=""img/animal1.png"" style=""width:200px; border:14px solid green;"">","null","","","","","",""
"","image-keyboard-response","359","189003","0.0-359.0","3X1FV8S5JYDOIWTCFEHAVD2H0RLGVK","AKSJ3C5O3V9RB","3FW4EL5A3LANKRP91N782LFHPY722Q","","581.5999999940395","img/animal4.png","75","582.5999999940395","2","1","3","0.5,0,1,1,0.5,0,0,1,0.5",""
"","html-keyboard-response","360","189305","0.0-360.0","3X1FV8S5JYDOIWTCFEHAVD2H0RLGVK","AKSJ3C5O3V9RB","3FW4EL5A3LANKRP91N782LFHPY722Q","","null","<img src=""img/animal4.png"" style=""width:200px; border:14px solid green;"">","null","","","","","",""
"","image-keyboard-response","361","189991","0.0-361.0","3X1FV8S5JYDOIWTCFEHAVD2H0RLGVK","AKSJ3C5O3V9RB","3FW4EL5A3LANKRP91N782LFHPY722Q","","684.9000000059605","img/animal1.png","74","685.5","1","1","2","0.5,0,1,1,0.5,0,0,1,0.5",""
"","html-keyboard-response","362","190292","0.0-362.0","3X1FV8S5JYDOIWTCFEHAVD2H0RLGVK","AKSJ3C5O3V9RB","3FW4EL5A3LANKRP91N782LFHPY722Q","","null","<img src=""img/animal1.png"" style=""width:200px; border:14px solid green;"">","null","","","","","",""
"","instructions","363","192600","0.0-363.0","3X1FV8S5JYDOIWTCFEHAVD2H0RLGVK","AKSJ3C5O3V9RB","3FW4EL5A3LANKRP91N782LFHPY722Q","[{""page_index"":0,""viewing_time"":2306.7999999821186}]","2307.0999999940395","","","","","","","",""
"","survey-text","364","197216","0.0-364.0","3X1FV8S5JYDOIWTCFEHAVD2H0RLGVK","AKSJ3C5O3V9RB","3FW4EL5A3LANKRP91N782LFHPY722Q","","4613.5","","","","","","","","{""Q0"":""AKSJ3C5O3V9RB""}"
