"success","trial_type","trial_index","time_elapsed","internal_node_id","assignmentID","mturkID","hitID","view_history","rt","stimulus","key_press","reactionTime","a","r","s","reward_cond","responses"
"true","fullscreen","0","9352","0.0-0.0","3WQQ9FUS6BGUG3PORZEM2ORC9GD8BB","AMHUDJ44HF1ZH","3WPCIUYH1AU470H2HRBLZRFBM3CTDN","","","","","","","","","",""
"","instructions","1","32996","0.0-1.0","3WQQ9FUS6BGUG3PORZEM2ORC9GD8BB","AMHUDJ44HF1ZH","3WPCIUYH1AU470H2HRBLZRFBM3CTDN","[{""page_index"":0,""viewing_time"":9719.40000000596},{""page_index"":1,""viewing_time"":938.3000000119209},{""page_index"":2,""viewing_time"":519.8999999761581},{""page_index"":3,""viewing_time"":3926.800000011921},{""page_index"":4,""viewing_time"":2609.9000000059605},{""page_index"":5,""viewing_time"":1466.4000000059605},{""page_index"":6,""viewing_time"":977.8999999761581},{""page_index"":7,""viewing_time"":3484.4000000059605}]","23643.5","","","","","","","",""
"","image-keyboard-response","2","36081","0.0-2.0","3WQQ9FUS6BGUG3PORZEM2ORC9GD8BB","AMHUDJ44HF1ZH","3WPCIUYH1AU470H2HRBLZRFBM3CTDN","","3083.800000011921","img/animal3.png","74","3084.2999999821186","1","0","3","0.5,0,1,1,0.5,0,0,1,0.5",""
"","html-keyboard-response","3","36383","0.0-3.0","3WQQ9FUS6BGUG3PORZEM2ORC9GD8BB","AMHUDJ44HF1ZH","3WPCIUYH1AU470H2HRBLZRFBM3CTDN","","null","<img src=""img/animal3.png"" style=""width:200px;border:14px solid red;"">","null","","","","","",""
"","image-keyboard-response","4","38777","0.0-4.0","3WQQ9FUS6BGUG3PORZEM2ORC9GD8BB","AMHUDJ44HF1ZH","3WPCIUYH1AU470H2HRBLZRFBM3CTDN","","2393.199999988079","img/animal2.png","74","2393.7000000178814","1","1","1","0.5,0,1,1,0.5,0,0,1,0.5",""
"","html-keyboard-response","5","39079","0.0-5.0","3WQQ9FUS6BGUG3PORZEM2ORC9GD8BB","AMHUDJ44HF1ZH","3WPCIUYH1AU470H2HRBLZRFBM3CTDN","","null","<img src=""img/animal2.png"" style=""width:200px; border:14px solid green;"">","null","","","","","",""
"","image-keyboard-response","6","40114","0.0-6.0","3WQQ9FUS6BGUG3PORZEM2ORC9GD8BB","AMHUDJ44HF1ZH","3WPCIUYH1AU470H2HRBLZRFBM3CTDN","","1035.0999999940395","img/animal3.png","75","1035.6000000238419","2","1","3","0.5,0,1,1,0.5,0,0,1,0.5",""
"","html-keyboard-response","7","40415","0.0-7.0","3WQQ9FUS6BGUG3PORZEM2ORC9GD8BB","AMHUDJ44HF1ZH","3WPCIUYH1AU470H2HRBLZRFBM3CTDN","","null","<img src=""img/animal3.png"" style=""width:200px; border:14px solid green;"">","null","","","","","",""
"","image-keyboard-response","8","41293","0.0-8.0","3WQQ9FUS6BGUG3PORZEM2ORC9GD8BB","AMHUDJ44HF1ZH","3WPCIUYH1AU470H2HRBLZRFBM3CTDN","","876.5999999940395","img/animal3.png","75","877.2000000178814","2","1","3","0.5,0,1,1,0.5,0,0,1,0.5",""
"","html-keyboard-response","9","41594","0.0-9.0","3WQQ9FUS6BGUG3PORZEM2ORC9GD8BB","AMHUDJ44HF1ZH","3WPCIUYH1AU470H2HRBLZRFBM3CTDN","","null","<img src=""img/animal3.png"" style=""width:200px; border:14px solid green;"">","null","","","","","",""
"","image-keyboard-response","10","41937","0.0-10.0","3WQQ9FUS6BGUG3PORZEM2ORC9GD8BB","AMHUDJ44HF1ZH","3WPCIUYH1AU470H2HRBLZRFBM3CTDN","","342.2999999821186","img/animal3.png","75","343","2","1","3","0.5,0,1,1,0.5,0,0,1,0.5",""
"","html-keyboard-response","11","42238","0.0-11.0","3WQQ9FUS6BGUG3PORZEM2ORC9GD8BB","AMHUDJ44HF1ZH","3WPCIUYH1AU470H2HRBLZRFBM3CTDN","","null","<img src=""img/animal3.png"" style=""width:200px; border:14px solid green;"">","null","","","","","",""
"","image-keyboard-response","12","42576","0.0-12.0","3WQQ9FUS6BGUG3PORZEM2ORC9GD8BB","AMHUDJ44HF1ZH","3WPCIUYH1AU470H2HRBLZRFBM3CTDN","","336.90000000596046","img/animal3.png","75","337.40000000596046","2","1","3","0.5,0,1,1,0.5,0,0,1,0.5",""
"","html-keyboard-response","13","42877","0.0-13.0","3WQQ9FUS6BGUG3PORZEM2ORC9GD8BB","AMHUDJ44HF1ZH","3WPCIUYH1AU470H2HRBLZRFBM3CTDN","","null","<img src=""img/animal3.png"" style=""width:200px; border:14px solid green;"">","null","","","","","",""
"","image-keyboard-response","14","43928","0.0-14.0","3WQQ9FUS6BGUG3PORZEM2ORC9GD8BB","AMHUDJ44HF1ZH","3WPCIUYH1AU470H2HRBLZRFBM3CTDN","","1050","img/animal1.png","76","1050.4000000059605","3","0","2","0.5,0,1,1,0.5,0,0,1,0.5",""
"","html-keyboard-response","15","44229","0.0-15.0","3WQQ9FUS6BGUG3PORZEM2ORC9GD8BB","AMHUDJ44HF1ZH","3WPCIUYH1AU470H2HRBLZRFBM3CTDN","","null","<img src=""img/animal1.png"" style=""width:200px;border:14px solid red;"">","null","","","","","",""
"","image-keyboard-response","16","45275","0.0-16.0","3WQQ9FUS6BGUG3PORZEM2ORC9GD8BB","AMHUDJ44HF1ZH","3WPCIUYH1AU470H2HRBLZRFBM3CTDN","","1044.9000000059605","img/animal3.png","75","1045.300000011921","2","1","3","0.5,0,1,1,0.5,0,0,1,0.5",""
"","html-keyboard-response","17","45576","0.0-17.0","3WQQ9FUS6BGUG3PORZEM2ORC9GD8BB","AMHUDJ44HF1ZH","3WPCIUYH1AU470H2HRBLZRFBM3CTDN","","null","<img src=""img/animal3.png"" style=""width:200px; border:14px solid green;"">","null","","","","","",""
"","image-keyboard-response","18","45938","0.0-18.0","3WQQ9FUS6BGUG3PORZEM2ORC9GD8BB","AMHUDJ44HF1ZH","3WPCIUYH1AU470H2HRBLZRFBM3CTDN","","361.2999999821186","img/animal3.png","75","361.80000001192093","2","1","3","0.5,0,1,1,0.5,0,0,1,0.5",""
"","html-keyboard-response","19","46239","0.0-19.0","3WQQ9FUS6BGUG3PORZEM2ORC9GD8BB","AMHUDJ44HF1ZH","3WPCIUYH1AU470H2HRBLZRFBM3CTDN","","null","<img src=""img/animal3.png"" style=""width:200px; border:14px solid green;"">","null","","","","","",""
"","image-keyboard-response","20","46577","0.0-20.0","3WQQ9FUS6BGUG3PORZEM2ORC9GD8BB","AMHUDJ44HF1ZH","3WPCIUYH1AU470H2HRBLZRFBM3CTDN","","337.09999999403954","img/animal3.png","75","337.69999998807907","2","1","3","0.5,0,1,1,0.5,0,0,1,0.5",""
"","html-keyboard-response","21","46879","0.0-21.0","3WQQ9FUS6BGUG3PORZEM2ORC9GD8BB","AMHUDJ44HF1ZH","3WPCIUYH1AU470H2HRBLZRFBM3CTDN","","null","<img src=""img/animal3.png"" style=""width:200px; border:14px solid green;"">","null","","","","","",""
"","image-keyboard-response","22","48978","0.0-22.0","3WQQ9FUS6BGUG3PORZEM2ORC9GD8BB","AMHUDJ44HF1ZH","3WPCIUYH1AU470H2HRBLZRFBM3CTDN","","2097.5","img/animal1.png","74","2098.0999999940395","1","1","2","0.5,0,1,1,0.5,0,0,1,0.5",""
"","html-keyboard-response","23","49279","0.0-23.0","3WQQ9FUS6BGUG3PORZEM2ORC9GD8BB","AMHUDJ44HF1ZH","3WPCIUYH1AU470H2HRBLZRFBM3CTDN","","null","<img src=""img/animal1.png"" style=""width:200px; border:14px solid green;"">","null","","","","","",""
"","image-keyboard-response","24","50015","0.0-24.0","3WQQ9FUS6BGUG3PORZEM2ORC9GD8BB","AMHUDJ44HF1ZH","3WPCIUYH1AU470H2HRBLZRFBM3CTDN","","735.8999999761581","img/animal2.png","74","736.3000000119209","1","1","1","0.5,0,1,1,0.5,0,0,1,0.5",""
"","html-keyboard-response","25","50316","0.0-25.0","3WQQ9FUS6BGUG3PORZEM2ORC9GD8BB","AMHUDJ44HF1ZH","3WPCIUYH1AU470H2HRBLZRFBM3CTDN","","null","<img src=""img/animal2.png"" style=""width:200px; border:14px solid green;"">","null","","","","","",""
"","image-keyboard-response","26","50676","0.0-26.0","3WQQ9FUS6BGUG3PORZEM2ORC9GD8BB","AMHUDJ44HF1ZH","3WPCIUYH1AU470H2HRBLZRFBM3CTDN","","359","img/animal2.png","74","359.40000000596046","1","1","1","0.5,0,1,1,0.5,0,0,1,0.5",""
"","html-keyboard-response","27","50977","0.0-27.0","3WQQ9FUS6BGUG3PORZEM2ORC9GD8BB","AMHUDJ44HF1ZH","3WPCIUYH1AU470H2HRBLZRFBM3CTDN","","null","<img src=""img/animal2.png"" style=""width:200px; border:14px solid green;"">","null","","","","","",""
"","image-keyboard-response","28","51609","0.0-28.0","3WQQ9FUS6BGUG3PORZEM2ORC9GD8BB","AMHUDJ44HF1ZH","3WPCIUYH1AU470H2HRBLZRFBM3CTDN","","631.5999999940395","img/animal1.png","75","631.9000000059605","2","0","2","0.5,0,1,1,0.5,0,0,1,0.5",""
"","html-keyboard-response","29","51910","0.0-29.0","3WQQ9FUS6BGUG3PORZEM2ORC9GD8BB","AMHUDJ44HF1ZH","3WPCIUYH1AU470H2HRBLZRFBM3CTDN","","null","<img src=""img/animal1.png"" style=""width:200px;border:14px solid red;"">","null","","","","","",""
"","image-keyboard-response","30","52604","0.0-30.0","3WQQ9FUS6BGUG3PORZEM2ORC9GD8BB","AMHUDJ44HF1ZH","3WPCIUYH1AU470H2HRBLZRFBM3CTDN","","693.9000000059605","img/animal3.png","74","694.5","1","0","3","0.5,0,1,1,0.5,0,0,1,0.5",""
"","html-keyboard-response","31","52906","0.0-31.0","3WQQ9FUS6BGUG3PORZEM2ORC9GD8BB","AMHUDJ44HF1ZH","3WPCIUYH1AU470H2HRBLZRFBM3CTDN","","null","<img src=""img/animal3.png"" style=""width:200px;border:14px solid red;"">","null","","","","","",""
"","image-keyboard-response","32","53794","0.0-32.0","3WQQ9FUS6BGUG3PORZEM2ORC9GD8BB","AMHUDJ44HF1ZH","3WPCIUYH1AU470H2HRBLZRFBM3CTDN","","887.3000000119209","img/animal2.png","74","888","1","1","1","0.5,0,1,1,0.5,0,0,1,0.5",""
"","html-keyboard-response","33","54106","0.0-33.0","3WQQ9FUS6BGUG3PORZEM2ORC9GD8BB","AMHUDJ44HF1ZH","3WPCIUYH1AU470H2HRBLZRFBM3CTDN","","null","<img src=""img/animal2.png"" style=""width:200px; border:14px solid green;"">","null","","","","","",""
"","image-keyboard-response","34","55114","0.0-34.0","3WQQ9FUS6BGUG3PORZEM2ORC9GD8BB","AMHUDJ44HF1ZH","3WPCIUYH1AU470H2HRBLZRFBM3CTDN","","1007.5999999940395","img/animal3.png","75","1008","2","1","3","0.5,0,1,1,0.5,0,0,1,0.5",""
"","html-keyboard-response","35","55423","0.0-35.0","3WQQ9FUS6BGUG3PORZEM2ORC9GD8BB","AMHUDJ44HF1ZH","3WPCIUYH1AU470H2HRBLZRFBM3CTDN","","null","<img src=""img/animal3.png"" style=""width:200px; border:14px solid green;"">","null","","","","","",""
"","image-keyboard-response","36","56185","0.0-36.0","3WQQ9FUS6BGUG3PORZEM2ORC9GD8BB","AMHUDJ44HF1ZH","3WPCIUYH1AU470H2HRBLZRFBM3CTDN","","760.7999999821186","img/animal2.png","74","761.1999999880791","1","1","1","0.5,0,1,1,0.5,0,0,1,0.5",""
"","html-keyboard-response","37","56487","0.0-37.0","3WQQ9FUS6BGUG3PORZEM2ORC9GD8BB","AMHUDJ44HF1ZH","3WPCIUYH1AU470H2HRBLZRFBM3CTDN","","null","<img src=""img/animal2.png"" style=""width:200px; border:14px solid green;"">","null","","","","","",""
"","image-keyboard-response","38","57111","0.0-38.0","3WQQ9FUS6BGUG3PORZEM2ORC9GD8BB","AMHUDJ44HF1ZH","3WPCIUYH1AU470H2HRBLZRFBM3CTDN","","623.5999999940395","img/animal1.png","74","624.0999999940395","1","1","2","0.5,0,1,1,0.5,0,0,1,0.5",""
"","html-keyboard-response","39","57412","0.0-39.0","3WQQ9FUS6BGUG3PORZEM2ORC9GD8BB","AMHUDJ44HF1ZH","3WPCIUYH1AU470H2HRBLZRFBM3CTDN","","null","<img src=""img/animal1.png"" style=""width:200px; border:14px solid green;"">","null","","","","","",""
"","image-keyboard-response","40","58308","0.0-40.0","3WQQ9FUS6BGUG3PORZEM2ORC9GD8BB","AMHUDJ44HF1ZH","3WPCIUYH1AU470H2HRBLZRFBM3CTDN","","895","img/animal2.png","74","895.5","1","1","1","0.5,0,1,1,0.5,0,0,1,0.5",""
"","html-keyboard-response","41","58611","0.0-41.0","3WQQ9FUS6BGUG3PORZEM2ORC9GD8BB","AMHUDJ44HF1ZH","3WPCIUYH1AU470H2HRBLZRFBM3CTDN","","null","<img src=""img/animal2.png"" style=""width:200px; border:14px solid green;"">","null","","","","","",""
"","image-keyboard-response","42","58955","0.0-42.0","3WQQ9FUS6BGUG3PORZEM2ORC9GD8BB","AMHUDJ44HF1ZH","3WPCIUYH1AU470H2HRBLZRFBM3CTDN","","343.5","img/animal3.png","74","343.89999997615814","1","0","3","0.5,0,1,1,0.5,0,0,1,0.5",""
"","html-keyboard-response","43","59256","0.0-43.0","3WQQ9FUS6BGUG3PORZEM2ORC9GD8BB","AMHUDJ44HF1ZH","3WPCIUYH1AU470H2HRBLZRFBM3CTDN","","null","<img src=""img/animal3.png"" style=""width:200px;border:14px solid red;"">","null","","","","","",""
"","image-keyboard-response","44","59762","0.0-44.0","3WQQ9FUS6BGUG3PORZEM2ORC9GD8BB","AMHUDJ44HF1ZH","3WPCIUYH1AU470H2HRBLZRFBM3CTDN","","505","img/animal2.png","74","505.59999999403954","1","1","1","0.5,0,1,1,0.5,0,0,1,0.5",""
"","html-keyboard-response","45","60063","0.0-45.0","3WQQ9FUS6BGUG3PORZEM2ORC9GD8BB","AMHUDJ44HF1ZH","3WPCIUYH1AU470H2HRBLZRFBM3CTDN","","null","<img src=""img/animal2.png"" style=""width:200px; border:14px solid green;"">","null","","","","","",""
"","image-keyboard-response","46","60446","0.0-46.0","3WQQ9FUS6BGUG3PORZEM2ORC9GD8BB","AMHUDJ44HF1ZH","3WPCIUYH1AU470H2HRBLZRFBM3CTDN","","382.10000002384186","img/animal2.png","74","382.5","1","1","1","0.5,0,1,1,0.5,0,0,1,0.5",""
"","html-keyboard-response","47","60747","0.0-47.0","3WQQ9FUS6BGUG3PORZEM2ORC9GD8BB","AMHUDJ44HF1ZH","3WPCIUYH1AU470H2HRBLZRFBM3CTDN","","null","<img src=""img/animal2.png"" style=""width:200px; border:14px solid green;"">","null","","","","","",""
"","image-keyboard-response","48","61074","0.0-48.0","3WQQ9FUS6BGUG3PORZEM2ORC9GD8BB","AMHUDJ44HF1ZH","3WPCIUYH1AU470H2HRBLZRFBM3CTDN","","326.40000000596046","img/animal2.png","74","326.90000000596046","1","1","1","0.5,0,1,1,0.5,0,0,1,0.5",""
"","html-keyboard-response","49","61375","0.0-49.0","3WQQ9FUS6BGUG3PORZEM2ORC9GD8BB","AMHUDJ44HF1ZH","3WPCIUYH1AU470H2HRBLZRFBM3CTDN","","null","<img src=""img/animal2.png"" style=""width:200px; border:14px solid green;"">","null","","","","","",""
"","image-keyboard-response","50","61713","0.0-50.0","3WQQ9FUS6BGUG3PORZEM2ORC9GD8BB","AMHUDJ44HF1ZH","3WPCIUYH1AU470H2HRBLZRFBM3CTDN","","337","img/animal2.png","74","337.5","1","0","1","0.5,0,1,1,0.5,0,0,1,0.5",""
"","html-keyboard-response","51","62014","0.0-51.0","3WQQ9FUS6BGUG3PORZEM2ORC9GD8BB","AMHUDJ44HF1ZH","3WPCIUYH1AU470H2HRBLZRFBM3CTDN","","null","<img src=""img/animal2.png"" style=""width:200px;border:14px solid red;"">","null","","","","","",""
"","image-keyboard-response","52","62611","0.0-52.0","3WQQ9FUS6BGUG3PORZEM2ORC9GD8BB","AMHUDJ44HF1ZH","3WPCIUYH1AU470H2HRBLZRFBM3CTDN","","596.5","img/animal2.png","74","597","1","0","1","0.5,0,1,1,0.5,0,0,1,0.5",""
"","html-keyboard-response","53","62913","0.0-53.0","3WQQ9FUS6BGUG3PORZEM2ORC9GD8BB","AMHUDJ44HF1ZH","3WPCIUYH1AU470H2HRBLZRFBM3CTDN","","null","<img src=""img/animal2.png"" style=""width:200px;border:14px solid red;"">","null","","","","","",""
"","image-keyboard-response","54","63790","0.0-54.0","3WQQ9FUS6BGUG3PORZEM2ORC9GD8BB","AMHUDJ44HF1ZH","3WPCIUYH1AU470H2HRBLZRFBM3CTDN","","876.2999999821186","img/animal1.png","74","876.7999999821186","1","1","2","0.5,0,1,1,0.5,0,0,1,0.5",""
"","html-keyboard-response","55","64091","0.0-55.0","3WQQ9FUS6BGUG3PORZEM2ORC9GD8BB","AMHUDJ44HF1ZH","3WPCIUYH1AU470H2HRBLZRFBM3CTDN","","null","<img src=""img/animal1.png"" style=""width:200px; border:14px solid green;"">","null","","","","","",""
"","image-keyboard-response","56","65121","0.0-56.0","3WQQ9FUS6BGUG3PORZEM2ORC9GD8BB","AMHUDJ44HF1ZH","3WPCIUYH1AU470H2HRBLZRFBM3CTDN","","1029","img/animal2.png","74","1029.5","1","1","1","0.5,0,1,1,0.5,0,0,1,0.5",""
"","html-keyboard-response","57","65423","0.0-57.0","3WQQ9FUS6BGUG3PORZEM2ORC9GD8BB","AMHUDJ44HF1ZH","3WPCIUYH1AU470H2HRBLZRFBM3CTDN","","null","<img src=""img/animal2.png"" style=""width:200px; border:14px solid green;"">","null","","","","","",""
"","image-keyboard-response","58","66075","0.0-58.0","3WQQ9FUS6BGUG3PORZEM2ORC9GD8BB","AMHUDJ44HF1ZH","3WPCIUYH1AU470H2HRBLZRFBM3CTDN","","651.6999999880791","img/animal1.png","74","652.3000000119209","1","1","2","0.5,0,1,1,0.5,0,0,1,0.5",""
"","html-keyboard-response","59","66381","0.0-59.0","3WQQ9FUS6BGUG3PORZEM2ORC9GD8BB","AMHUDJ44HF1ZH","3WPCIUYH1AU470H2HRBLZRFBM3CTDN","","null","<img src=""img/animal1.png"" style=""width:200px; border:14px solid green;"">","null","","","","","",""
"","image-keyboard-response","60","66977","0.0-60.0","3WQQ9FUS6BGUG3PORZEM2ORC9GD8BB","AMHUDJ44HF1ZH","3WPCIUYH1AU470H2HRBLZRFBM3CTDN","","595.4000000059605","img/animal2.png","74","595.8000000119209","1","0","1","0.5,0,1,1,0.5,0,0,1,0.5",""
"","html-keyboard-response","61","67279","0.0-61.0","3WQQ9FUS6BGUG3PORZEM2ORC9GD8BB","AMHUDJ44HF1ZH","3WPCIUYH1AU470H2HRBLZRFBM3CTDN","","null","<img src=""img/animal2.png"" style=""width:200px;border:14px solid red;"">","null","","","","","",""
"","image-keyboard-response","62","67828","0.0-62.0","3WQQ9FUS6BGUG3PORZEM2ORC9GD8BB","AMHUDJ44HF1ZH","3WPCIUYH1AU470H2HRBLZRFBM3CTDN","","548.1999999880791","img/animal1.png","74","548.9000000059605","1","1","2","0.5,0,1,1,0.5,0,0,1,0.5",""
"","html-keyboard-response","63","68129","0.0-63.0","3WQQ9FUS6BGUG3PORZEM2ORC9GD8BB","AMHUDJ44HF1ZH","3WPCIUYH1AU470H2HRBLZRFBM3CTDN","","null","<img src=""img/animal1.png"" style=""width:200px; border:14px solid green;"">","null","","","","","",""
"","image-keyboard-response","64","69103","0.0-64.0","3WQQ9FUS6BGUG3PORZEM2ORC9GD8BB","AMHUDJ44HF1ZH","3WPCIUYH1AU470H2HRBLZRFBM3CTDN","","973.2000000178814","img/animal3.png","75","973.7999999821186","2","1","3","0.5,0,1,1,0.5,0,0,1,0.5",""
"","html-keyboard-response","65","69404","0.0-65.0","3WQQ9FUS6BGUG3PORZEM2ORC9GD8BB","AMHUDJ44HF1ZH","3WPCIUYH1AU470H2HRBLZRFBM3CTDN","","null","<img src=""img/animal3.png"" style=""width:200px; border:14px solid green;"">","null","","","","","",""
"","image-keyboard-response","66","71370","0.0-66.0","3WQQ9FUS6BGUG3PORZEM2ORC9GD8BB","AMHUDJ44HF1ZH","3WPCIUYH1AU470H2HRBLZRFBM3CTDN","","1965.2000000178814","img/animal2.png","74","1965.5999999940395","1","1","1","0.5,0,1,1,0.5,0,0,1,0.5",""
"","html-keyboard-response","67","71672","0.0-67.0","3WQQ9FUS6BGUG3PORZEM2ORC9GD8BB","AMHUDJ44HF1ZH","3WPCIUYH1AU470H2HRBLZRFBM3CTDN","","null","<img src=""img/animal2.png"" style=""width:200px; border:14px solid green;"">","null","","","","","",""
"","image-keyboard-response","68","72281","0.0-68.0","3WQQ9FUS6BGUG3PORZEM2ORC9GD8BB","AMHUDJ44HF1ZH","3WPCIUYH1AU470H2HRBLZRFBM3CTDN","","609","img/animal1.png","74","609.5","1","1","2","0.5,0,1,1,0.5,0,0,1,0.5",""
"","html-keyboard-response","69","72583","0.0-69.0","3WQQ9FUS6BGUG3PORZEM2ORC9GD8BB","AMHUDJ44HF1ZH","3WPCIUYH1AU470H2HRBLZRFBM3CTDN","","null","<img src=""img/animal1.png"" style=""width:200px; border:14px solid green;"">","null","","","","","",""
"","image-keyboard-response","70","72926","0.0-70.0","3WQQ9FUS6BGUG3PORZEM2ORC9GD8BB","AMHUDJ44HF1ZH","3WPCIUYH1AU470H2HRBLZRFBM3CTDN","","342.19999998807907","img/animal2.png","74","342.69999998807907","1","1","1","0.5,0,1,1,0.5,0,0,1,0.5",""
"","html-keyboard-response","71","73227","0.0-71.0","3WQQ9FUS6BGUG3PORZEM2ORC9GD8BB","AMHUDJ44HF1ZH","3WPCIUYH1AU470H2HRBLZRFBM3CTDN","","null","<img src=""img/animal2.png"" style=""width:200px; border:14px solid green;"">","null","","","","","",""
"","image-keyboard-response","72","73640","0.0-72.0","3WQQ9FUS6BGUG3PORZEM2ORC9GD8BB","AMHUDJ44HF1ZH","3WPCIUYH1AU470H2HRBLZRFBM3CTDN","","412.2000000178814","img/animal1.png","74","412.69999998807907","1","1","2","0.5,0,1,1,0.5,0,0,1,0.5",""
"","html-keyboard-response","73","73941","0.0-73.0","3WQQ9FUS6BGUG3PORZEM2ORC9GD8BB","AMHUDJ44HF1ZH","3WPCIUYH1AU470H2HRBLZRFBM3CTDN","","null","<img src=""img/animal1.png"" style=""width:200px; border:14px solid green;"">","null","","","","","",""
"","image-keyboard-response","74","74336","0.0-74.0","3WQQ9FUS6BGUG3PORZEM2ORC9GD8BB","AMHUDJ44HF1ZH","3WPCIUYH1AU470H2HRBLZRFBM3CTDN","","394.60000002384186","img/animal1.png","74","395.09999999403954","1","1","2","0.5,0,1,1,0.5,0,0,1,0.5",""
"","html-keyboard-response","75","74637","0.0-75.0","3WQQ9FUS6BGUG3PORZEM2ORC9GD8BB","AMHUDJ44HF1ZH","3WPCIUYH1AU470H2HRBLZRFBM3CTDN","","null","<img src=""img/animal1.png"" style=""width:200px; border:14px solid green;"">","null","","","","","",""
"","image-keyboard-response","76","75198","0.0-76.0","3WQQ9FUS6BGUG3PORZEM2ORC9GD8BB","AMHUDJ44HF1ZH","3WPCIUYH1AU470H2HRBLZRFBM3CTDN","","560.0999999940395","img/animal3.png","75","560.5","2","1","3","0.5,0,1,1,0.5,0,0,1,0.5",""
"","html-keyboard-response","77","75500","0.0-77.0","3WQQ9FUS6BGUG3PORZEM2ORC9GD8BB","AMHUDJ44HF1ZH","3WPCIUYH1AU470H2HRBLZRFBM3CTDN","","null","<img src=""img/animal3.png"" style=""width:200px; border:14px solid green;"">","null","","","","","",""
"","image-keyboard-response","78","75891","0.0-78.0","3WQQ9FUS6BGUG3PORZEM2ORC9GD8BB","AMHUDJ44HF1ZH","3WPCIUYH1AU470H2HRBLZRFBM3CTDN","","390.60000002384186","img/animal3.png","75","391.09999999403954","2","1","3","0.5,0,1,1,0.5,0,0,1,0.5",""
"","html-keyboard-response","79","76194","0.0-79.0","3WQQ9FUS6BGUG3PORZEM2ORC9GD8BB","AMHUDJ44HF1ZH","3WPCIUYH1AU470H2HRBLZRFBM3CTDN","","null","<img src=""img/animal3.png"" style=""width:200px; border:14px solid green;"">","null","","","","","",""
"","image-keyboard-response","80","76781","0.0-80.0","3WQQ9FUS6BGUG3PORZEM2ORC9GD8BB","AMHUDJ44HF1ZH","3WPCIUYH1AU470H2HRBLZRFBM3CTDN","","586.3000000119209","img/animal1.png","74","586.5999999940395","1","1","2","0.5,0,1,1,0.5,0,0,1,0.5",""
"","html-keyboard-response","81","77081","0.0-81.0","3WQQ9FUS6BGUG3PORZEM2ORC9GD8BB","AMHUDJ44HF1ZH","3WPCIUYH1AU470H2HRBLZRFBM3CTDN","","null","<img src=""img/animal1.png"" style=""width:200px; border:14px solid green;"">","null","","","","","",""
"","image-keyboard-response","82","77475","0.0-82.0","3WQQ9FUS6BGUG3PORZEM2ORC9GD8BB","AMHUDJ44HF1ZH","3WPCIUYH1AU470H2HRBLZRFBM3CTDN","","392.80000001192093","img/animal1.png","74","393.19999998807907","1","1","2","0.5,0,1,1,0.5,0,0,1,0.5",""
"","html-keyboard-response","83","77785","0.0-83.0","3WQQ9FUS6BGUG3PORZEM2ORC9GD8BB","AMHUDJ44HF1ZH","3WPCIUYH1AU470H2HRBLZRFBM3CTDN","","null","<img src=""img/animal1.png"" style=""width:200px; border:14px solid green;"">","null","","","","","",""
"","image-keyboard-response","84","78355","0.0-84.0","3WQQ9FUS6BGUG3PORZEM2ORC9GD8BB","AMHUDJ44HF1ZH","3WPCIUYH1AU470H2HRBLZRFBM3CTDN","","569.5","img/animal2.png","74","570.0999999940395","1","1","1","0.5,0,1,1,0.5,0,0,1,0.5",""
"","html-keyboard-response","85","78657","0.0-85.0","3WQQ9FUS6BGUG3PORZEM2ORC9GD8BB","AMHUDJ44HF1ZH","3WPCIUYH1AU470H2HRBLZRFBM3CTDN","","null","<img src=""img/animal2.png"" style=""width:200px; border:14px solid green;"">","null","","","","","",""
"","image-keyboard-response","86","78980","0.0-86.0","3WQQ9FUS6BGUG3PORZEM2ORC9GD8BB","AMHUDJ44HF1ZH","3WPCIUYH1AU470H2HRBLZRFBM3CTDN","","322.09999999403954","img/animal3.png","74","322.60000002384186","1","0","3","0.5,0,1,1,0.5,0,0,1,0.5",""
"","html-keyboard-response","87","79281","0.0-87.0","3WQQ9FUS6BGUG3PORZEM2ORC9GD8BB","AMHUDJ44HF1ZH","3WPCIUYH1AU470H2HRBLZRFBM3CTDN","","null","<img src=""img/animal3.png"" style=""width:200px;border:14px solid red;"">","null","","","","","",""
"","image-keyboard-response","88","79560","0.0-88.0","3WQQ9FUS6BGUG3PORZEM2ORC9GD8BB","AMHUDJ44HF1ZH","3WPCIUYH1AU470H2HRBLZRFBM3CTDN","","278","img/animal3.png","75","278.5","2","1","3","0.5,0,1,1,0.5,0,0,1,0.5",""
"","html-keyboard-response","89","79861","0.0-89.0","3WQQ9FUS6BGUG3PORZEM2ORC9GD8BB","AMHUDJ44HF1ZH","3WPCIUYH1AU470H2HRBLZRFBM3CTDN","","null","<img src=""img/animal3.png"" style=""width:200px; border:14px solid green;"">","null","","","","","",""
"","image-keyboard-response","90","80530","0.0-90.0","3WQQ9FUS6BGUG3PORZEM2ORC9GD8BB","AMHUDJ44HF1ZH","3WPCIUYH1AU470H2HRBLZRFBM3CTDN","","668","img/animal2.png","74","668.5","1","0","1","0.5,0,1,1,0.5,0,0,1,0.5",""
"","html-keyboard-response","91","80831","0.0-91.0","3WQQ9FUS6BGUG3PORZEM2ORC9GD8BB","AMHUDJ44HF1ZH","3WPCIUYH1AU470H2HRBLZRFBM3CTDN","","null","<img src=""img/animal2.png"" style=""width:200px;border:14px solid red;"">","null","","","","","",""
"","image-keyboard-response","92","81248","0.0-92.0","3WQQ9FUS6BGUG3PORZEM2ORC9GD8BB","AMHUDJ44HF1ZH","3WPCIUYH1AU470H2HRBLZRFBM3CTDN","","416.2000000178814","img/animal3.png","75","416.59999999403954","2","1","3","0.5,0,1,1,0.5,0,0,1,0.5",""
"","html-keyboard-response","93","81551","0.0-93.0","3WQQ9FUS6BGUG3PORZEM2ORC9GD8BB","AMHUDJ44HF1ZH","3WPCIUYH1AU470H2HRBLZRFBM3CTDN","","null","<img src=""img/animal3.png"" style=""width:200px; border:14px solid green;"">","null","","","","","",""
"","image-keyboard-response","94","81917","0.0-94.0","3WQQ9FUS6BGUG3PORZEM2ORC9GD8BB","AMHUDJ44HF1ZH","3WPCIUYH1AU470H2HRBLZRFBM3CTDN","","365.39999997615814","img/animal3.png","75","365.90000000596046","2","1","3","0.5,0,1,1,0.5,0,0,1,0.5",""
"","html-keyboard-response","95","82218","0.0-95.0","3WQQ9FUS6BGUG3PORZEM2ORC9GD8BB","AMHUDJ44HF1ZH","3WPCIUYH1AU470H2HRBLZRFBM3CTDN","","null","<img src=""img/animal3.png"" style=""width:200px; border:14px solid green;"">","null","","","","","",""
"","image-keyboard-response","96","82767","0.0-96.0","3WQQ9FUS6BGUG3PORZEM2ORC9GD8BB","AMHUDJ44HF1ZH","3WPCIUYH1AU470H2HRBLZRFBM3CTDN","","548.3000000119209","img/animal1.png","74","548.7000000178814","1","1","2","0.5,0,1,1,0.5,0,0,1,0.5",""
"","html-keyboard-response","97","83068","0.0-97.0","3WQQ9FUS6BGUG3PORZEM2ORC9GD8BB","AMHUDJ44HF1ZH","3WPCIUYH1AU470H2HRBLZRFBM3CTDN","","null","<img src=""img/animal1.png"" style=""width:200px; border:14px solid green;"">","null","","","","","",""
"","image-keyboard-response","98","83690","0.0-98.0","3WQQ9FUS6BGUG3PORZEM2ORC9GD8BB","AMHUDJ44HF1ZH","3WPCIUYH1AU470H2HRBLZRFBM3CTDN","","621.9000000059605","img/animal2.png","74","622.1999999880791","1","1","1","0.5,0,1,1,0.5,0,0,1,0.5",""
"","html-keyboard-response","99","83991","0.0-99.0","3WQQ9FUS6BGUG3PORZEM2ORC9GD8BB","AMHUDJ44HF1ZH","3WPCIUYH1AU470H2HRBLZRFBM3CTDN","","null","<img src=""img/animal2.png"" style=""width:200px; border:14px solid green;"">","null","","","","","",""
"","image-keyboard-response","100","84393","0.0-100.0","3WQQ9FUS6BGUG3PORZEM2ORC9GD8BB","AMHUDJ44HF1ZH","3WPCIUYH1AU470H2HRBLZRFBM3CTDN","","400.90000000596046","img/animal1.png","74","401.2999999821186","1","1","2","0.5,0,1,1,0.5,0,0,1,0.5",""
"","html-keyboard-response","101","84695","0.0-101.0","3WQQ9FUS6BGUG3PORZEM2ORC9GD8BB","AMHUDJ44HF1ZH","3WPCIUYH1AU470H2HRBLZRFBM3CTDN","","null","<img src=""img/animal1.png"" style=""width:200px; border:14px solid green;"">","null","","","","","",""
"","image-keyboard-response","102","85113","0.0-102.0","3WQQ9FUS6BGUG3PORZEM2ORC9GD8BB","AMHUDJ44HF1ZH","3WPCIUYH1AU470H2HRBLZRFBM3CTDN","","417.40000000596046","img/animal1.png","74","417.80000001192093","1","1","2","0.5,0,1,1,0.5,0,0,1,0.5",""
"","html-keyboard-response","103","85414","0.0-103.0","3WQQ9FUS6BGUG3PORZEM2ORC9GD8BB","AMHUDJ44HF1ZH","3WPCIUYH1AU470H2HRBLZRFBM3CTDN","","null","<img src=""img/animal1.png"" style=""width:200px; border:14px solid green;"">","null","","","","","",""
"","image-keyboard-response","104","85728","0.0-104.0","3WQQ9FUS6BGUG3PORZEM2ORC9GD8BB","AMHUDJ44HF1ZH","3WPCIUYH1AU470H2HRBLZRFBM3CTDN","","313.69999998807907","img/animal1.png","74","314.2000000178814","1","1","2","0.5,0,1,1,0.5,0,0,1,0.5",""
"","html-keyboard-response","105","86030","0.0-105.0","3WQQ9FUS6BGUG3PORZEM2ORC9GD8BB","AMHUDJ44HF1ZH","3WPCIUYH1AU470H2HRBLZRFBM3CTDN","","null","<img src=""img/animal1.png"" style=""width:200px; border:14px solid green;"">","null","","","","","",""
"","image-keyboard-response","106","86725","0.0-106.0","3WQQ9FUS6BGUG3PORZEM2ORC9GD8BB","AMHUDJ44HF1ZH","3WPCIUYH1AU470H2HRBLZRFBM3CTDN","","694.5999999940395","img/animal3.png","75","695","2","1","3","0.5,0,1,1,0.5,0,0,1,0.5",""
"","html-keyboard-response","107","87026","0.0-107.0","3WQQ9FUS6BGUG3PORZEM2ORC9GD8BB","AMHUDJ44HF1ZH","3WPCIUYH1AU470H2HRBLZRFBM3CTDN","","null","<img src=""img/animal3.png"" style=""width:200px; border:14px solid green;"">","null","","","","","",""
"","image-keyboard-response","108","87574","0.0-108.0","3WQQ9FUS6BGUG3PORZEM2ORC9GD8BB","AMHUDJ44HF1ZH","3WPCIUYH1AU470H2HRBLZRFBM3CTDN","","547.4000000059605","img/animal2.png","74","547.9000000059605","1","0","1","0.5,0,1,1,0.5,0,0,1,0.5",""
"","html-keyboard-response","109","87875","0.0-109.0","3WQQ9FUS6BGUG3PORZEM2ORC9GD8BB","AMHUDJ44HF1ZH","3WPCIUYH1AU470H2HRBLZRFBM3CTDN","","null","<img src=""img/animal2.png"" style=""width:200px;border:14px solid red;"">","null","","","","","",""
"","image-keyboard-response","110","88295","0.0-110.0","3WQQ9FUS6BGUG3PORZEM2ORC9GD8BB","AMHUDJ44HF1ZH","3WPCIUYH1AU470H2HRBLZRFBM3CTDN","","419.5","img/animal2.png","74","420","1","1","1","0.5,0,1,1,0.5,0,0,1,0.5",""
"","html-keyboard-response","111","88597","0.0-111.0","3WQQ9FUS6BGUG3PORZEM2ORC9GD8BB","AMHUDJ44HF1ZH","3WPCIUYH1AU470H2HRBLZRFBM3CTDN","","null","<img src=""img/animal2.png"" style=""width:200px; border:14px solid green;"">","null","","","","","",""
"","image-keyboard-response","112","88943","0.0-112.0","3WQQ9FUS6BGUG3PORZEM2ORC9GD8BB","AMHUDJ44HF1ZH","3WPCIUYH1AU470H2HRBLZRFBM3CTDN","","345.59999999403954","img/animal2.png","74","346.19999998807907","1","1","1","0.5,0,1,1,0.5,0,0,1,0.5",""
"","html-keyboard-response","113","89244","0.0-113.0","3WQQ9FUS6BGUG3PORZEM2ORC9GD8BB","AMHUDJ44HF1ZH","3WPCIUYH1AU470H2HRBLZRFBM3CTDN","","null","<img src=""img/animal2.png"" style=""width:200px; border:14px solid green;"">","null","","","","","",""
"","image-keyboard-response","114","89606","0.0-114.0","3WQQ9FUS6BGUG3PORZEM2ORC9GD8BB","AMHUDJ44HF1ZH","3WPCIUYH1AU470H2HRBLZRFBM3CTDN","","360.90000000596046","img/animal2.png","74","361.5","1","1","1","0.5,0,1,1,0.5,0,0,1,0.5",""
"","html-keyboard-response","115","89907","0.0-115.0","3WQQ9FUS6BGUG3PORZEM2ORC9GD8BB","AMHUDJ44HF1ZH","3WPCIUYH1AU470H2HRBLZRFBM3CTDN","","null","<img src=""img/animal2.png"" style=""width:200px; border:14px solid green;"">","null","","","","","",""
"","image-keyboard-response","116","90253","0.0-116.0","3WQQ9FUS6BGUG3PORZEM2ORC9GD8BB","AMHUDJ44HF1ZH","3WPCIUYH1AU470H2HRBLZRFBM3CTDN","","345.10000002384186","img/animal2.png","74","345.59999999403954","1","0","1","0.5,0,1,1,0.5,0,0,1,0.5",""
"","html-keyboard-response","117","90554","0.0-117.0","3WQQ9FUS6BGUG3PORZEM2ORC9GD8BB","AMHUDJ44HF1ZH","3WPCIUYH1AU470H2HRBLZRFBM3CTDN","","null","<img src=""img/animal2.png"" style=""width:200px;border:14px solid red;"">","null","","","","","",""
"","image-keyboard-response","118","90933","0.0-118.0","3WQQ9FUS6BGUG3PORZEM2ORC9GD8BB","AMHUDJ44HF1ZH","3WPCIUYH1AU470H2HRBLZRFBM3CTDN","","378.09999999403954","img/animal2.png","74","378.5","1","0","1","0.5,0,1,1,0.5,0,0,1,0.5",""
"","html-keyboard-response","119","91234","0.0-119.0","3WQQ9FUS6BGUG3PORZEM2ORC9GD8BB","AMHUDJ44HF1ZH","3WPCIUYH1AU470H2HRBLZRFBM3CTDN","","null","<img src=""img/animal2.png"" style=""width:200px;border:14px solid red;"">","null","","","","","",""
"","image-keyboard-response","120","91878","0.0-120.0","3WQQ9FUS6BGUG3PORZEM2ORC9GD8BB","AMHUDJ44HF1ZH","3WPCIUYH1AU470H2HRBLZRFBM3CTDN","","642.6999999880791","img/animal3.png","75","643.1999999880791","2","1","3","0.5,0,1,1,0.5,0,0,1,0.5",""
"","html-keyboard-response","121","92179","0.0-121.0","3WQQ9FUS6BGUG3PORZEM2ORC9GD8BB","AMHUDJ44HF1ZH","3WPCIUYH1AU470H2HRBLZRFBM3CTDN","","null","<img src=""img/animal3.png"" style=""width:200px; border:14px solid green;"">","null","","","","","",""
"","image-keyboard-response","122","92499","0.0-122.0","3WQQ9FUS6BGUG3PORZEM2ORC9GD8BB","AMHUDJ44HF1ZH","3WPCIUYH1AU470H2HRBLZRFBM3CTDN","","319","img/animal3.png","75","319.40000000596046","2","1","3","0.5,0,1,1,0.5,0,0,1,0.5",""
"","html-keyboard-response","123","92800","0.0-123.0","3WQQ9FUS6BGUG3PORZEM2ORC9GD8BB","AMHUDJ44HF1ZH","3WPCIUYH1AU470H2HRBLZRFBM3CTDN","","null","<img src=""img/animal3.png"" style=""width:200px; border:14px solid green;"">","null","","","","","",""
"","image-keyboard-response","124","93407","0.0-124.0","3WQQ9FUS6BGUG3PORZEM2ORC9GD8BB","AMHUDJ44HF1ZH","3WPCIUYH1AU470H2HRBLZRFBM3CTDN","","606.1999999880791","img/animal2.png","74","606.7000000178814","1","1","1","0.5,0,1,1,0.5,0,0,1,0.5",""
"","html-keyboard-response","125","93709","0.0-125.0","3WQQ9FUS6BGUG3PORZEM2ORC9GD8BB","AMHUDJ44HF1ZH","3WPCIUYH1AU470H2HRBLZRFBM3CTDN","","null","<img src=""img/animal2.png"" style=""width:200px; border:14px solid green;"">","null","","","","","",""
"","image-keyboard-response","126","94334","0.0-126.0","3WQQ9FUS6BGUG3PORZEM2ORC9GD8BB","AMHUDJ44HF1ZH","3WPCIUYH1AU470H2HRBLZRFBM3CTDN","","624.5","img/animal1.png","74","624.9000000059605","1","1","2","0.5,0,1,1,0.5,0,0,1,0.5",""
"","html-keyboard-response","127","94635","0.0-127.0","3WQQ9FUS6BGUG3PORZEM2ORC9GD8BB","AMHUDJ44HF1ZH","3WPCIUYH1AU470H2HRBLZRFBM3CTDN","","null","<img src=""img/animal1.png"" style=""width:200px; border:14px solid green;"">","null","","","","","",""
"","image-keyboard-response","128","94990","0.0-128.0","3WQQ9FUS6BGUG3PORZEM2ORC9GD8BB","AMHUDJ44HF1ZH","3WPCIUYH1AU470H2HRBLZRFBM3CTDN","","354.10000002384186","img/animal1.png","74","354.5","1","1","2","0.5,0,1,1,0.5,0,0,1,0.5",""
"","html-keyboard-response","129","95291","0.0-129.0","3WQQ9FUS6BGUG3PORZEM2ORC9GD8BB","AMHUDJ44HF1ZH","3WPCIUYH1AU470H2HRBLZRFBM3CTDN","","null","<img src=""img/animal1.png"" style=""width:200px; border:14px solid green;"">","null","","","","","",""
"","image-keyboard-response","130","95974","0.0-130.0","3WQQ9FUS6BGUG3PORZEM2ORC9GD8BB","AMHUDJ44HF1ZH","3WPCIUYH1AU470H2HRBLZRFBM3CTDN","","682.4000000059605","img/animal3.png","75","683","2","1","3","0.5,0,1,1,0.5,0,0,1,0.5",""
"","html-keyboard-response","131","96275","0.0-131.0","3WQQ9FUS6BGUG3PORZEM2ORC9GD8BB","AMHUDJ44HF1ZH","3WPCIUYH1AU470H2HRBLZRFBM3CTDN","","null","<img src=""img/animal3.png"" style=""width:200px; border:14px solid green;"">","null","","","","","",""
"","image-keyboard-response","132","96834","0.0-132.0","3WQQ9FUS6BGUG3PORZEM2ORC9GD8BB","AMHUDJ44HF1ZH","3WPCIUYH1AU470H2HRBLZRFBM3CTDN","","558.2999999821186","img/animal1.png","74","558.7999999821186","1","1","2","0.5,0,1,1,0.5,0,0,1,0.5",""
"","html-keyboard-response","133","97135","0.0-133.0","3WQQ9FUS6BGUG3PORZEM2ORC9GD8BB","AMHUDJ44HF1ZH","3WPCIUYH1AU470H2HRBLZRFBM3CTDN","","null","<img src=""img/animal1.png"" style=""width:200px; border:14px solid green;"">","null","","","","","",""
"","image-keyboard-response","134","97755","0.0-134.0","3WQQ9FUS6BGUG3PORZEM2ORC9GD8BB","AMHUDJ44HF1ZH","3WPCIUYH1AU470H2HRBLZRFBM3CTDN","","618","img/animal2.png","74","618.5","1","0","1","0.5,0,1,1,0.5,0,0,1,0.5",""
"","html-keyboard-response","135","98055","0.0-135.0","3WQQ9FUS6BGUG3PORZEM2ORC9GD8BB","AMHUDJ44HF1ZH","3WPCIUYH1AU470H2HRBLZRFBM3CTDN","","null","<img src=""img/animal2.png"" style=""width:200px;border:14px solid red;"">","null","","","","","",""
"","image-keyboard-response","136","98399","0.0-136.0","3WQQ9FUS6BGUG3PORZEM2ORC9GD8BB","AMHUDJ44HF1ZH","3WPCIUYH1AU470H2HRBLZRFBM3CTDN","","342.7000000178814","img/animal1.png","74","343.19999998807907","1","1","2","0.5,0,1,1,0.5,0,0,1,0.5",""
"","html-keyboard-response","137","98700","0.0-137.0","3WQQ9FUS6BGUG3PORZEM2ORC9GD8BB","AMHUDJ44HF1ZH","3WPCIUYH1AU470H2HRBLZRFBM3CTDN","","null","<img src=""img/animal1.png"" style=""width:200px; border:14px solid green;"">","null","","","","","",""
"","image-keyboard-response","138","99103","0.0-138.0","3WQQ9FUS6BGUG3PORZEM2ORC9GD8BB","AMHUDJ44HF1ZH","3WPCIUYH1AU470H2HRBLZRFBM3CTDN","","402.59999999403954","img/animal1.png","74","402.90000000596046","1","1","2","0.5,0,1,1,0.5,0,0,1,0.5",""
"","html-keyboard-response","139","99404","0.0-139.0","3WQQ9FUS6BGUG3PORZEM2ORC9GD8BB","AMHUDJ44HF1ZH","3WPCIUYH1AU470H2HRBLZRFBM3CTDN","","null","<img src=""img/animal1.png"" style=""width:200px; border:14px solid green;"">","null","","","","","",""
"","image-keyboard-response","140","99998","0.0-140.0","3WQQ9FUS6BGUG3PORZEM2ORC9GD8BB","AMHUDJ44HF1ZH","3WPCIUYH1AU470H2HRBLZRFBM3CTDN","","593.5","img/animal3.png","75","594","2","1","3","0.5,0,1,1,0.5,0,0,1,0.5",""
"","html-keyboard-response","141","100300","0.0-141.0","3WQQ9FUS6BGUG3PORZEM2ORC9GD8BB","AMHUDJ44HF1ZH","3WPCIUYH1AU470H2HRBLZRFBM3CTDN","","null","<img src=""img/animal3.png"" style=""width:200px; border:14px solid green;"">","null","","","","","",""
"","image-keyboard-response","142","100631","0.0-142.0","3WQQ9FUS6BGUG3PORZEM2ORC9GD8BB","AMHUDJ44HF1ZH","3WPCIUYH1AU470H2HRBLZRFBM3CTDN","","331.2999999821186","img/animal3.png","75","331.7999999821186","2","1","3","0.5,0,1,1,0.5,0,0,1,0.5",""
"","html-keyboard-response","143","100932","0.0-143.0","3WQQ9FUS6BGUG3PORZEM2ORC9GD8BB","AMHUDJ44HF1ZH","3WPCIUYH1AU470H2HRBLZRFBM3CTDN","","null","<img src=""img/animal3.png"" style=""width:200px; border:14px solid green;"">","null","","","","","",""
"","image-keyboard-response","144","101379","0.0-144.0","3WQQ9FUS6BGUG3PORZEM2ORC9GD8BB","AMHUDJ44HF1ZH","3WPCIUYH1AU470H2HRBLZRFBM3CTDN","","445.90000000596046","img/animal3.png","75","446.19999998807907","2","1","3","0.5,0,1,1,0.5,0,0,1,0.5",""
"","html-keyboard-response","145","101681","0.0-145.0","3WQQ9FUS6BGUG3PORZEM2ORC9GD8BB","AMHUDJ44HF1ZH","3WPCIUYH1AU470H2HRBLZRFBM3CTDN","","null","<img src=""img/animal3.png"" style=""width:200px; border:14px solid green;"">","null","","","","","",""
"","image-keyboard-response","146","102287","0.0-146.0","3WQQ9FUS6BGUG3PORZEM2ORC9GD8BB","AMHUDJ44HF1ZH","3WPCIUYH1AU470H2HRBLZRFBM3CTDN","","606","img/animal1.png","74","606.6999999880791","1","1","2","0.5,0,1,1,0.5,0,0,1,0.5",""
"","html-keyboard-response","147","102600","0.0-147.0","3WQQ9FUS6BGUG3PORZEM2ORC9GD8BB","AMHUDJ44HF1ZH","3WPCIUYH1AU470H2HRBLZRFBM3CTDN","","null","<img src=""img/animal1.png"" style=""width:200px; border:14px solid green;"">","null","","","","","",""
"","image-keyboard-response","148","102959","0.0-148.0","3WQQ9FUS6BGUG3PORZEM2ORC9GD8BB","AMHUDJ44HF1ZH","3WPCIUYH1AU470H2HRBLZRFBM3CTDN","","358.59999999403954","img/animal1.png","74","359.09999999403954","1","1","2","0.5,0,1,1,0.5,0,0,1,0.5",""
"","html-keyboard-response","149","103271","0.0-149.0","3WQQ9FUS6BGUG3PORZEM2ORC9GD8BB","AMHUDJ44HF1ZH","3WPCIUYH1AU470H2HRBLZRFBM3CTDN","","null","<img src=""img/animal1.png"" style=""width:200px; border:14px solid green;"">","null","","","","","",""
"","image-keyboard-response","150","103638","0.0-150.0","3WQQ9FUS6BGUG3PORZEM2ORC9GD8BB","AMHUDJ44HF1ZH","3WPCIUYH1AU470H2HRBLZRFBM3CTDN","","366.40000000596046","img/animal1.png","74","366.90000000596046","1","1","2","0.5,0,1,1,0.5,0,0,1,0.5",""
"","html-keyboard-response","151","103939","0.0-151.0","3WQQ9FUS6BGUG3PORZEM2ORC9GD8BB","AMHUDJ44HF1ZH","3WPCIUYH1AU470H2HRBLZRFBM3CTDN","","null","<img src=""img/animal1.png"" style=""width:200px; border:14px solid green;"">","null","","","","","",""
"","image-keyboard-response","152","104950","0.0-152.0","3WQQ9FUS6BGUG3PORZEM2ORC9GD8BB","AMHUDJ44HF1ZH","3WPCIUYH1AU470H2HRBLZRFBM3CTDN","","1009.8000000119209","img/animal2.png","74","1010.3000000119209","1","1","1","0.5,0,1,1,0.5,0,0,1,0.5",""
"","html-keyboard-response","153","105250","0.0-153.0","3WQQ9FUS6BGUG3PORZEM2ORC9GD8BB","AMHUDJ44HF1ZH","3WPCIUYH1AU470H2HRBLZRFBM3CTDN","","null","<img src=""img/animal2.png"" style=""width:200px; border:14px solid green;"">","null","","","","","",""
"","image-keyboard-response","154","105828","0.0-154.0","3WQQ9FUS6BGUG3PORZEM2ORC9GD8BB","AMHUDJ44HF1ZH","3WPCIUYH1AU470H2HRBLZRFBM3CTDN","","576.5999999940395","img/animal1.png","74","577.1000000238419","1","1","2","0.5,0,1,1,0.5,0,0,1,0.5",""
"","html-keyboard-response","155","106129","0.0-155.0","3WQQ9FUS6BGUG3PORZEM2ORC9GD8BB","AMHUDJ44HF1ZH","3WPCIUYH1AU470H2HRBLZRFBM3CTDN","","null","<img src=""img/animal1.png"" style=""width:200px; border:14px solid green;"">","null","","","","","",""
"","image-keyboard-response","156","107051","0.0-156.0","3WQQ9FUS6BGUG3PORZEM2ORC9GD8BB","AMHUDJ44HF1ZH","3WPCIUYH1AU470H2HRBLZRFBM3CTDN","","922","img/animal3.png","75","922.5999999940395","2","1","3","0.5,0,1,1,0.5,0,0,1,0.5",""
"","html-keyboard-response","157","107353","0.0-157.0","3WQQ9FUS6BGUG3PORZEM2ORC9GD8BB","AMHUDJ44HF1ZH","3WPCIUYH1AU470H2HRBLZRFBM3CTDN","","null","<img src=""img/animal3.png"" style=""width:200px; border:14px solid green;"">","null","","","","","",""
"","image-keyboard-response","158","107819","0.0-158.0","3WQQ9FUS6BGUG3PORZEM2ORC9GD8BB","AMHUDJ44HF1ZH","3WPCIUYH1AU470H2HRBLZRFBM3CTDN","","464.69999998807907","img/animal3.png","75","465","2","1","3","0.5,0,1,1,0.5,0,0,1,0.5",""
"","html-keyboard-response","159","108120","0.0-159.0","3WQQ9FUS6BGUG3PORZEM2ORC9GD8BB","AMHUDJ44HF1ZH","3WPCIUYH1AU470H2HRBLZRFBM3CTDN","","null","<img src=""img/animal3.png"" style=""width:200px; border:14px solid green;"">","null","","","","","",""
"","image-keyboard-response","160","108381","0.0-160.0","3WQQ9FUS6BGUG3PORZEM2ORC9GD8BB","AMHUDJ44HF1ZH","3WPCIUYH1AU470H2HRBLZRFBM3CTDN","","260.90000000596046","img/animal3.png","75","261.30000001192093","2","1","3","0.5,0,1,1,0.5,0,0,1,0.5",""
"","html-keyboard-response","161","108683","0.0-161.0","3WQQ9FUS6BGUG3PORZEM2ORC9GD8BB","AMHUDJ44HF1ZH","3WPCIUYH1AU470H2HRBLZRFBM3CTDN","","null","<img src=""img/animal3.png"" style=""width:200px; border:14px solid green;"">","null","","","","","",""
"","image-keyboard-response","162","109540","0.0-162.0","3WQQ9FUS6BGUG3PORZEM2ORC9GD8BB","AMHUDJ44HF1ZH","3WPCIUYH1AU470H2HRBLZRFBM3CTDN","","856.8000000119209","img/animal2.png","74","857.4000000059605","1","0","1","0.5,0,1,1,0.5,0,0,1,0.5",""
"","html-keyboard-response","163","109842","0.0-163.0","3WQQ9FUS6BGUG3PORZEM2ORC9GD8BB","AMHUDJ44HF1ZH","3WPCIUYH1AU470H2HRBLZRFBM3CTDN","","null","<img src=""img/animal2.png"" style=""width:200px;border:14px solid red;"">","null","","","","","",""
"","image-keyboard-response","164","110538","0.0-164.0","3WQQ9FUS6BGUG3PORZEM2ORC9GD8BB","AMHUDJ44HF1ZH","3WPCIUYH1AU470H2HRBLZRFBM3CTDN","","695.5999999940395","img/animal2.png","74","696.0999999940395","1","1","1","0.5,0,1,1,0.5,0,0,1,0.5",""
"","html-keyboard-response","165","110849","0.0-165.0","3WQQ9FUS6BGUG3PORZEM2ORC9GD8BB","AMHUDJ44HF1ZH","3WPCIUYH1AU470H2HRBLZRFBM3CTDN","","null","<img src=""img/animal2.png"" style=""width:200px; border:14px solid green;"">","null","","","","","",""
"","image-keyboard-response","166","111532","0.0-166.0","3WQQ9FUS6BGUG3PORZEM2ORC9GD8BB","AMHUDJ44HF1ZH","3WPCIUYH1AU470H2HRBLZRFBM3CTDN","","682.0999999940395","img/animal1.png","74","682.5","1","1","2","0.5,0,1,1,0.5,0,0,1,0.5",""
"","html-keyboard-response","167","111833","0.0-167.0","3WQQ9FUS6BGUG3PORZEM2ORC9GD8BB","AMHUDJ44HF1ZH","3WPCIUYH1AU470H2HRBLZRFBM3CTDN","","null","<img src=""img/animal1.png"" style=""width:200px; border:14px solid green;"">","null","","","","","",""
"","image-keyboard-response","168","112298","0.0-168.0","3WQQ9FUS6BGUG3PORZEM2ORC9GD8BB","AMHUDJ44HF1ZH","3WPCIUYH1AU470H2HRBLZRFBM3CTDN","","464.90000000596046","img/animal1.png","74","465.39999997615814","1","1","2","0.5,0,1,1,0.5,0,0,1,0.5",""
"","html-keyboard-response","169","112614","0.0-169.0","3WQQ9FUS6BGUG3PORZEM2ORC9GD8BB","AMHUDJ44HF1ZH","3WPCIUYH1AU470H2HRBLZRFBM3CTDN","","null","<img src=""img/animal1.png"" style=""width:200px; border:14px solid green;"">","null","","","","","",""
"","image-keyboard-response","170","112878","0.0-170.0","3WQQ9FUS6BGUG3PORZEM2ORC9GD8BB","AMHUDJ44HF1ZH","3WPCIUYH1AU470H2HRBLZRFBM3CTDN","","263.09999999403954","img/animal1.png","74","263.69999998807907","1","1","2","0.5,0,1,1,0.5,0,0,1,0.5",""
"","html-keyboard-response","171","113181","0.0-171.0","3WQQ9FUS6BGUG3PORZEM2ORC9GD8BB","AMHUDJ44HF1ZH","3WPCIUYH1AU470H2HRBLZRFBM3CTDN","","null","<img src=""img/animal1.png"" style=""width:200px; border:14px solid green;"">","null","","","","","",""
"","image-keyboard-response","172","113431","0.0-172.0","3WQQ9FUS6BGUG3PORZEM2ORC9GD8BB","AMHUDJ44HF1ZH","3WPCIUYH1AU470H2HRBLZRFBM3CTDN","","250","img/animal1.png","74","250.5","1","1","2","0.5,0,1,1,0.5,0,0,1,0.5",""
"","html-keyboard-response","173","113733","0.0-173.0","3WQQ9FUS6BGUG3PORZEM2ORC9GD8BB","AMHUDJ44HF1ZH","3WPCIUYH1AU470H2HRBLZRFBM3CTDN","","null","<img src=""img/animal1.png"" style=""width:200px; border:14px solid green;"">","null","","","","","",""
"","image-keyboard-response","174","113989","0.0-174.0","3WQQ9FUS6BGUG3PORZEM2ORC9GD8BB","AMHUDJ44HF1ZH","3WPCIUYH1AU470H2HRBLZRFBM3CTDN","","255.5","img/animal2.png","74","256","1","0","1","0.5,0,1,1,0.5,0,0,1,0.5",""
"","html-keyboard-response","175","114290","0.0-175.0","3WQQ9FUS6BGUG3PORZEM2ORC9GD8BB","AMHUDJ44HF1ZH","3WPCIUYH1AU470H2HRBLZRFBM3CTDN","","null","<img src=""img/animal2.png"" style=""width:200px;border:14px solid red;"">","null","","","","","",""
"","image-keyboard-response","176","115087","0.0-176.0","3WQQ9FUS6BGUG3PORZEM2ORC9GD8BB","AMHUDJ44HF1ZH","3WPCIUYH1AU470H2HRBLZRFBM3CTDN","","795.9000000059605","img/animal3.png","75","796.3000000119209","2","1","3","0.5,0,1,1,0.5,0,0,1,0.5",""
"","html-keyboard-response","177","115388","0.0-177.0","3WQQ9FUS6BGUG3PORZEM2ORC9GD8BB","AMHUDJ44HF1ZH","3WPCIUYH1AU470H2HRBLZRFBM3CTDN","","null","<img src=""img/animal3.png"" style=""width:200px; border:14px solid green;"">","null","","","","","",""
"","image-keyboard-response","178","116078","0.0-178.0","3WQQ9FUS6BGUG3PORZEM2ORC9GD8BB","AMHUDJ44HF1ZH","3WPCIUYH1AU470H2HRBLZRFBM3CTDN","","689.4000000059605","img/animal1.png","74","689.7999999821186","1","1","2","0.5,0,1,1,0.5,0,0,1,0.5",""
"","html-keyboard-response","179","116380","0.0-179.0","3WQQ9FUS6BGUG3PORZEM2ORC9GD8BB","AMHUDJ44HF1ZH","3WPCIUYH1AU470H2HRBLZRFBM3CTDN","","null","<img src=""img/animal1.png"" style=""width:200px; border:14px solid green;"">","null","","","","","",""
"","image-keyboard-response","180","116889","0.0-180.0","3WQQ9FUS6BGUG3PORZEM2ORC9GD8BB","AMHUDJ44HF1ZH","3WPCIUYH1AU470H2HRBLZRFBM3CTDN","","508.40000000596046","img/animal3.png","75","508.80000001192093","2","1","3","0.5,0,1,1,0.5,0,0,1,0.5",""
"","html-keyboard-response","181","117191","0.0-181.0","3WQQ9FUS6BGUG3PORZEM2ORC9GD8BB","AMHUDJ44HF1ZH","3WPCIUYH1AU470H2HRBLZRFBM3CTDN","","null","<img src=""img/animal3.png"" style=""width:200px; border:14px solid green;"">","null","","","","","",""
"","html-keyboard-response","182","122782","0.0-182.0","3WQQ9FUS6BGUG3PORZEM2ORC9GD8BB","AMHUDJ44HF1ZH","3WPCIUYH1AU470H2HRBLZRFBM3CTDN","","","","","","","","","",""
"","image-keyboard-response","183","128050","0.0-183.0","3WQQ9FUS6BGUG3PORZEM2ORC9GD8BB","AMHUDJ44HF1ZH","3WPCIUYH1AU470H2HRBLZRFBM3CTDN","","5267.100000023842","img/animal6.png","76","5267.5","3","0","2","0.7,0,0.8,0.7,0.8,0,0.7,0.8,0",""
"","html-keyboard-response","184","128351","0.0-184.0","3WQQ9FUS6BGUG3PORZEM2ORC9GD8BB","AMHUDJ44HF1ZH","3WPCIUYH1AU470H2HRBLZRFBM3CTDN","","null","<img src=""img/animal6.png"" style=""width:200px;border:14px solid red;"">","null","","","","","",""
"","image-keyboard-response","185","129697","0.0-185.0","3WQQ9FUS6BGUG3PORZEM2ORC9GD8BB","AMHUDJ44HF1ZH","3WPCIUYH1AU470H2HRBLZRFBM3CTDN","","1345.9000000059605","img/animal5.png","76","1346.3999999761581","3","1","1","0.7,0,0.8,0.7,0.8,0,0.7,0.8,0",""
"","html-keyboard-response","186","129999","0.0-186.0","3WQQ9FUS6BGUG3PORZEM2ORC9GD8BB","AMHUDJ44HF1ZH","3WPCIUYH1AU470H2HRBLZRFBM3CTDN","","null","<img src=""img/animal5.png"" style=""width:200px; border:14px solid green;"">","null","","","","","",""
"","image-keyboard-response","187","130597","0.0-187.0","3WQQ9FUS6BGUG3PORZEM2ORC9GD8BB","AMHUDJ44HF1ZH","3WPCIUYH1AU470H2HRBLZRFBM3CTDN","","597.3000000119209","img/animal5.png","76","598","3","1","1","0.7,0,0.8,0.7,0.8,0,0.7,0.8,0",""
"","html-keyboard-response","188","130899","0.0-188.0","3WQQ9FUS6BGUG3PORZEM2ORC9GD8BB","AMHUDJ44HF1ZH","3WPCIUYH1AU470H2HRBLZRFBM3CTDN","","null","<img src=""img/animal5.png"" style=""width:200px; border:14px solid green;"">","null","","","","","",""
"","image-keyboard-response","189","132102","0.0-189.0","3WQQ9FUS6BGUG3PORZEM2ORC9GD8BB","AMHUDJ44HF1ZH","3WPCIUYH1AU470H2HRBLZRFBM3CTDN","","1203.300000011921","img/animal6.png","75","1203.7999999821186","2","1","2","0.7,0,0.8,0.7,0.8,0,0.7,0.8,0",""
"","html-keyboard-response","190","132405","0.0-190.0","3WQQ9FUS6BGUG3PORZEM2ORC9GD8BB","AMHUDJ44HF1ZH","3WPCIUYH1AU470H2HRBLZRFBM3CTDN","","null","<img src=""img/animal6.png"" style=""width:200px; border:14px solid green;"">","null","","","","","",""
"","image-keyboard-response","191","133646","0.0-191.0","3WQQ9FUS6BGUG3PORZEM2ORC9GD8BB","AMHUDJ44HF1ZH","3WPCIUYH1AU470H2HRBLZRFBM3CTDN","","1240.7000000178814","img/animal4.png","74","1241.0999999940395","1","1","3","0.7,0,0.8,0.7,0.8,0,0.7,0.8,0",""
"","html-keyboard-response","192","133948","0.0-192.0","3WQQ9FUS6BGUG3PORZEM2ORC9GD8BB","AMHUDJ44HF1ZH","3WPCIUYH1AU470H2HRBLZRFBM3CTDN","","null","<img src=""img/animal4.png"" style=""width:200px; border:14px solid green;"">","null","","","","","",""
"","image-keyboard-response","193","134613","0.0-193.0","3WQQ9FUS6BGUG3PORZEM2ORC9GD8BB","AMHUDJ44HF1ZH","3WPCIUYH1AU470H2HRBLZRFBM3CTDN","","664.0999999940395","img/animal4.png","74","664.5999999940395","1","1","3","0.7,0,0.8,0.7,0.8,0,0.7,0.8,0",""
"","html-keyboard-response","194","134915","0.0-194.0","3WQQ9FUS6BGUG3PORZEM2ORC9GD8BB","AMHUDJ44HF1ZH","3WPCIUYH1AU470H2HRBLZRFBM3CTDN","","null","<img src=""img/animal4.png"" style=""width:200px; border:14px solid green;"">","null","","","","","",""
"","image-keyboard-response","195","135720","0.0-195.0","3WQQ9FUS6BGUG3PORZEM2ORC9GD8BB","AMHUDJ44HF1ZH","3WPCIUYH1AU470H2HRBLZRFBM3CTDN","","804.7999999821186","img/animal5.png","75","805.1999999880791","2","0","1","0.7,0,0.8,0.7,0.8,0,0.7,0.8,0",""
"","html-keyboard-response","196","136021","0.0-196.0","3WQQ9FUS6BGUG3PORZEM2ORC9GD8BB","AMHUDJ44HF1ZH","3WPCIUYH1AU470H2HRBLZRFBM3CTDN","","null","<img src=""img/animal5.png"" style=""width:200px;border:14px solid red;"">","null","","","","","",""
"","image-keyboard-response","197","137266","0.0-197.0","3WQQ9FUS6BGUG3PORZEM2ORC9GD8BB","AMHUDJ44HF1ZH","3WPCIUYH1AU470H2HRBLZRFBM3CTDN","","1244.4000000059605","img/animal6.png","75","1244.9000000059605","2","1","2","0.7,0,0.8,0.7,0.8,0,0.7,0.8,0",""
"","html-keyboard-response","198","137568","0.0-198.0","3WQQ9FUS6BGUG3PORZEM2ORC9GD8BB","AMHUDJ44HF1ZH","3WPCIUYH1AU470H2HRBLZRFBM3CTDN","","null","<img src=""img/animal6.png"" style=""width:200px; border:14px solid green;"">","null","","","","","",""
"","image-keyboard-response","199","137880","0.0-199.0","3WQQ9FUS6BGUG3PORZEM2ORC9GD8BB","AMHUDJ44HF1ZH","3WPCIUYH1AU470H2HRBLZRFBM3CTDN","","311.90000000596046","img/animal6.png","75","312.30000001192093","2","1","2","0.7,0,0.8,0.7,0.8,0,0.7,0.8,0",""
"","html-keyboard-response","200","138181","0.0-200.0","3WQQ9FUS6BGUG3PORZEM2ORC9GD8BB","AMHUDJ44HF1ZH","3WPCIUYH1AU470H2HRBLZRFBM3CTDN","","null","<img src=""img/animal6.png"" style=""width:200px; border:14px solid green;"">","null","","","","","",""
"","image-keyboard-response","201","138605","0.0-201.0","3WQQ9FUS6BGUG3PORZEM2ORC9GD8BB","AMHUDJ44HF1ZH","3WPCIUYH1AU470H2HRBLZRFBM3CTDN","","423.40000000596046","img/animal6.png","75","424","2","1","2","0.7,0,0.8,0.7,0.8,0,0.7,0.8,0",""
"","html-keyboard-response","202","138917","0.0-202.0","3WQQ9FUS6BGUG3PORZEM2ORC9GD8BB","AMHUDJ44HF1ZH","3WPCIUYH1AU470H2HRBLZRFBM3CTDN","","null","<img src=""img/animal6.png"" style=""width:200px; border:14px solid green;"">","null","","","","","",""
"","image-keyboard-response","203","139597","0.0-203.0","3WQQ9FUS6BGUG3PORZEM2ORC9GD8BB","AMHUDJ44HF1ZH","3WPCIUYH1AU470H2HRBLZRFBM3CTDN","","678.6999999880791","img/animal5.png","76","679.2000000178814","3","0","1","0.7,0,0.8,0.7,0.8,0,0.7,0.8,0",""
"","html-keyboard-response","204","139898","0.0-204.0","3WQQ9FUS6BGUG3PORZEM2ORC9GD8BB","AMHUDJ44HF1ZH","3WPCIUYH1AU470H2HRBLZRFBM3CTDN","","null","<img src=""img/animal5.png"" style=""width:200px;border:14px solid red;"">","null","","","","","",""
"","image-keyboard-response","205","141186","0.0-205.0","3WQQ9FUS6BGUG3PORZEM2ORC9GD8BB","AMHUDJ44HF1ZH","3WPCIUYH1AU470H2HRBLZRFBM3CTDN","","1287.300000011921","img/animal6.png","75","1287.699999988079","2","1","2","0.7,0,0.8,0.7,0.8,0,0.7,0.8,0",""
"","html-keyboard-response","206","141487","0.0-206.0","3WQQ9FUS6BGUG3PORZEM2ORC9GD8BB","AMHUDJ44HF1ZH","3WPCIUYH1AU470H2HRBLZRFBM3CTDN","","null","<img src=""img/animal6.png"" style=""width:200px; border:14px solid green;"">","null","","","","","",""
"","image-keyboard-response","207","142477","0.0-207.0","3WQQ9FUS6BGUG3PORZEM2ORC9GD8BB","AMHUDJ44HF1ZH","3WPCIUYH1AU470H2HRBLZRFBM3CTDN","","989.8000000119209","img/animal5.png","76","990.3999999761581","3","1","1","0.7,0,0.8,0.7,0.8,0,0.7,0.8,0",""
"","html-keyboard-response","208","142779","0.0-208.0","3WQQ9FUS6BGUG3PORZEM2ORC9GD8BB","AMHUDJ44HF1ZH","3WPCIUYH1AU470H2HRBLZRFBM3CTDN","","null","<img src=""img/animal5.png"" style=""width:200px; border:14px solid green;"">","null","","","","","",""
"","image-keyboard-response","209","143560","0.0-209.0","3WQQ9FUS6BGUG3PORZEM2ORC9GD8BB","AMHUDJ44HF1ZH","3WPCIUYH1AU470H2HRBLZRFBM3CTDN","","780.7000000178814","img/animal6.png","75","781.0999999940395","2","1","2","0.7,0,0.8,0.7,0.8,0,0.7,0.8,0",""
"","html-keyboard-response","210","143861","0.0-210.0","3WQQ9FUS6BGUG3PORZEM2ORC9GD8BB","AMHUDJ44HF1ZH","3WPCIUYH1AU470H2HRBLZRFBM3CTDN","","null","<img src=""img/animal6.png"" style=""width:200px; border:14px solid green;"">","null","","","","","",""
"","image-keyboard-response","211","144812","0.0-211.0","3WQQ9FUS6BGUG3PORZEM2ORC9GD8BB","AMHUDJ44HF1ZH","3WPCIUYH1AU470H2HRBLZRFBM3CTDN","","950.7000000178814","img/animal4.png","74","951.1999999880791","1","1","3","0.7,0,0.8,0.7,0.8,0,0.7,0.8,0",""
"","html-keyboard-response","212","145114","0.0-212.0","3WQQ9FUS6BGUG3PORZEM2ORC9GD8BB","AMHUDJ44HF1ZH","3WPCIUYH1AU470H2HRBLZRFBM3CTDN","","null","<img src=""img/animal4.png"" style=""width:200px; border:14px solid green;"">","null","","","","","",""
"","image-keyboard-response","213","145889","0.0-213.0","3WQQ9FUS6BGUG3PORZEM2ORC9GD8BB","AMHUDJ44HF1ZH","3WPCIUYH1AU470H2HRBLZRFBM3CTDN","","774.4000000059605","img/animal5.png","75","774.7999999821186","2","0","1","0.7,0,0.8,0.7,0.8,0,0.7,0.8,0",""
"","html-keyboard-response","214","146190","0.0-214.0","3WQQ9FUS6BGUG3PORZEM2ORC9GD8BB","AMHUDJ44HF1ZH","3WPCIUYH1AU470H2HRBLZRFBM3CTDN","","null","<img src=""img/animal5.png"" style=""width:200px;border:14px solid red;"">","null","","","","","",""
"","image-keyboard-response","215","146736","0.0-215.0","3WQQ9FUS6BGUG3PORZEM2ORC9GD8BB","AMHUDJ44HF1ZH","3WPCIUYH1AU470H2HRBLZRFBM3CTDN","","545.6999999880791","img/animal5.png","75","546.0999999940395","2","0","1","0.7,0,0.8,0.7,0.8,0,0.7,0.8,0",""
"","html-keyboard-response","216","147039","0.0-216.0","3WQQ9FUS6BGUG3PORZEM2ORC9GD8BB","AMHUDJ44HF1ZH","3WPCIUYH1AU470H2HRBLZRFBM3CTDN","","null","<img src=""img/animal5.png"" style=""width:200px;border:14px solid red;"">","null","","","","","",""
"","image-keyboard-response","217","148070","0.0-217.0","3WQQ9FUS6BGUG3PORZEM2ORC9GD8BB","AMHUDJ44HF1ZH","3WPCIUYH1AU470H2HRBLZRFBM3CTDN","","1030.7999999821186","img/animal5.png","76","1031.4000000059605","3","1","1","0.7,0,0.8,0.7,0.8,0,0.7,0.8,0",""
"","html-keyboard-response","218","148383","0.0-218.0","3WQQ9FUS6BGUG3PORZEM2ORC9GD8BB","AMHUDJ44HF1ZH","3WPCIUYH1AU470H2HRBLZRFBM3CTDN","","null","<img src=""img/animal5.png"" style=""width:200px; border:14px solid green;"">","null","","","","","",""
"","image-keyboard-response","219","150005","0.0-219.0","3WQQ9FUS6BGUG3PORZEM2ORC9GD8BB","AMHUDJ44HF1ZH","3WPCIUYH1AU470H2HRBLZRFBM3CTDN","","1621.7999999821186","img/animal4.png","74","1622.4000000059605","1","1","3","0.7,0,0.8,0.7,0.8,0,0.7,0.8,0",""
"","html-keyboard-response","220","150307","0.0-220.0","3WQQ9FUS6BGUG3PORZEM2ORC9GD8BB","AMHUDJ44HF1ZH","3WPCIUYH1AU470H2HRBLZRFBM3CTDN","","null","<img src=""img/animal4.png"" style=""width:200px; border:14px solid green;"">","null","","","","","",""
"","image-keyboard-response","221","150632","0.0-221.0","3WQQ9FUS6BGUG3PORZEM2ORC9GD8BB","AMHUDJ44HF1ZH","3WPCIUYH1AU470H2HRBLZRFBM3CTDN","","324.5","img/animal4.png","74","325","1","1","3","0.7,0,0.8,0.7,0.8,0,0.7,0.8,0",""
"","html-keyboard-response","222","150933","0.0-222.0","3WQQ9FUS6BGUG3PORZEM2ORC9GD8BB","AMHUDJ44HF1ZH","3WPCIUYH1AU470H2HRBLZRFBM3CTDN","","null","<img src=""img/animal4.png"" style=""width:200px; border:14px solid green;"">","null","","","","","",""
"","image-keyboard-response","223","151828","0.0-223.0","3WQQ9FUS6BGUG3PORZEM2ORC9GD8BB","AMHUDJ44HF1ZH","3WPCIUYH1AU470H2HRBLZRFBM3CTDN","","894.0999999940395","img/animal6.png","75","894.5999999940395","2","1","2","0.7,0,0.8,0.7,0.8,0,0.7,0.8,0",""
"","html-keyboard-response","224","152131","0.0-224.0","3WQQ9FUS6BGUG3PORZEM2ORC9GD8BB","AMHUDJ44HF1ZH","3WPCIUYH1AU470H2HRBLZRFBM3CTDN","","null","<img src=""img/animal6.png"" style=""width:200px; border:14px solid green;"">","null","","","","","",""
"","image-keyboard-response","225","152914","0.0-225.0","3WQQ9FUS6BGUG3PORZEM2ORC9GD8BB","AMHUDJ44HF1ZH","3WPCIUYH1AU470H2HRBLZRFBM3CTDN","","781.9000000059605","img/animal5.png","76","782.4000000059605","3","1","1","0.7,0,0.8,0.7,0.8,0,0.7,0.8,0",""
"","html-keyboard-response","226","153215","0.0-226.0","3WQQ9FUS6BGUG3PORZEM2ORC9GD8BB","AMHUDJ44HF1ZH","3WPCIUYH1AU470H2HRBLZRFBM3CTDN","","null","<img src=""img/animal5.png"" style=""width:200px; border:14px solid green;"">","null","","","","","",""
"","image-keyboard-response","227","153520","0.0-227.0","3WQQ9FUS6BGUG3PORZEM2ORC9GD8BB","AMHUDJ44HF1ZH","3WPCIUYH1AU470H2HRBLZRFBM3CTDN","","304.5","img/animal5.png","76","305","3","1","1","0.7,0,0.8,0.7,0.8,0,0.7,0.8,0",""
"","html-keyboard-response","228","153821","0.0-228.0","3WQQ9FUS6BGUG3PORZEM2ORC9GD8BB","AMHUDJ44HF1ZH","3WPCIUYH1AU470H2HRBLZRFBM3CTDN","","null","<img src=""img/animal5.png"" style=""width:200px; border:14px solid green;"">","null","","","","","",""
"","image-keyboard-response","229","154570","0.0-229.0","3WQQ9FUS6BGUG3PORZEM2ORC9GD8BB","AMHUDJ44HF1ZH","3WPCIUYH1AU470H2HRBLZRFBM3CTDN","","748.3000000119209","img/animal6.png","75","748.8000000119209","2","1","2","0.7,0,0.8,0.7,0.8,0,0.7,0.8,0",""
"","html-keyboard-response","230","154870","0.0-230.0","3WQQ9FUS6BGUG3PORZEM2ORC9GD8BB","AMHUDJ44HF1ZH","3WPCIUYH1AU470H2HRBLZRFBM3CTDN","","null","<img src=""img/animal6.png"" style=""width:200px; border:14px solid green;"">","null","","","","","",""
"","image-keyboard-response","231","155478","0.0-231.0","3WQQ9FUS6BGUG3PORZEM2ORC9GD8BB","AMHUDJ44HF1ZH","3WPCIUYH1AU470H2HRBLZRFBM3CTDN","","607.3000000119209","img/animal5.png","76","607.8999999761581","3","1","1","0.7,0,0.8,0.7,0.8,0,0.7,0.8,0",""
"","html-keyboard-response","232","155780","0.0-232.0","3WQQ9FUS6BGUG3PORZEM2ORC9GD8BB","AMHUDJ44HF1ZH","3WPCIUYH1AU470H2HRBLZRFBM3CTDN","","null","<img src=""img/animal5.png"" style=""width:200px; border:14px solid green;"">","null","","","","","",""
"","image-keyboard-response","233","156672","0.0-233.0","3WQQ9FUS6BGUG3PORZEM2ORC9GD8BB","AMHUDJ44HF1ZH","3WPCIUYH1AU470H2HRBLZRFBM3CTDN","","890.8999999761581","img/animal4.png","74","891.4000000059605","1","0","3","0.7,0,0.8,0.7,0.8,0,0.7,0.8,0",""
"","html-keyboard-response","234","156973","0.0-234.0","3WQQ9FUS6BGUG3PORZEM2ORC9GD8BB","AMHUDJ44HF1ZH","3WPCIUYH1AU470H2HRBLZRFBM3CTDN","","null","<img src=""img/animal4.png"" style=""width:200px;border:14px solid red;"">","null","","","","","",""
"","image-keyboard-response","235","157580","0.0-235.0","3WQQ9FUS6BGUG3PORZEM2ORC9GD8BB","AMHUDJ44HF1ZH","3WPCIUYH1AU470H2HRBLZRFBM3CTDN","","606.4000000059605","img/animal4.png","74","606.9000000059605","1","1","3","0.7,0,0.8,0.7,0.8,0,0.7,0.8,0",""
"","html-keyboard-response","236","157881","0.0-236.0","3WQQ9FUS6BGUG3PORZEM2ORC9GD8BB","AMHUDJ44HF1ZH","3WPCIUYH1AU470H2HRBLZRFBM3CTDN","","null","<img src=""img/animal4.png"" style=""width:200px; border:14px solid green;"">","null","","","","","",""
"","image-keyboard-response","237","158474","0.0-237.0","3WQQ9FUS6BGUG3PORZEM2ORC9GD8BB","AMHUDJ44HF1ZH","3WPCIUYH1AU470H2HRBLZRFBM3CTDN","","592.1000000238419","img/animal4.png","74","592.5999999940395","1","0","3","0.7,0,0.8,0.7,0.8,0,0.7,0.8,0",""
"","html-keyboard-response","238","158775","0.0-238.0","3WQQ9FUS6BGUG3PORZEM2ORC9GD8BB","AMHUDJ44HF1ZH","3WPCIUYH1AU470H2HRBLZRFBM3CTDN","","null","<img src=""img/animal4.png"" style=""width:200px;border:14px solid red;"">","null","","","","","",""
"","image-keyboard-response","239","159510","0.0-239.0","3WQQ9FUS6BGUG3PORZEM2ORC9GD8BB","AMHUDJ44HF1ZH","3WPCIUYH1AU470H2HRBLZRFBM3CTDN","","734.4000000059605","img/animal6.png","75","734.7999999821186","2","0","2","0.7,0,0.8,0.7,0.8,0,0.7,0.8,0",""
"","html-keyboard-response","240","159812","0.0-240.0","3WQQ9FUS6BGUG3PORZEM2ORC9GD8BB","AMHUDJ44HF1ZH","3WPCIUYH1AU470H2HRBLZRFBM3CTDN","","null","<img src=""img/animal6.png"" style=""width:200px;border:14px solid red;"">","null","","","","","",""
"","image-keyboard-response","241","160277","0.0-241.0","3WQQ9FUS6BGUG3PORZEM2ORC9GD8BB","AMHUDJ44HF1ZH","3WPCIUYH1AU470H2HRBLZRFBM3CTDN","","464.90000000596046","img/animal6.png","75","465.60000002384186","2","0","2","0.7,0,0.8,0.7,0.8,0,0.7,0.8,0",""
"","html-keyboard-response","242","160579","0.0-242.0","3WQQ9FUS6BGUG3PORZEM2ORC9GD8BB","AMHUDJ44HF1ZH","3WPCIUYH1AU470H2HRBLZRFBM3CTDN","","null","<img src=""img/animal6.png"" style=""width:200px;border:14px solid red;"">","null","","","","","",""
"","image-keyboard-response","243","161501","0.0-243.0","3WQQ9FUS6BGUG3PORZEM2ORC9GD8BB","AMHUDJ44HF1ZH","3WPCIUYH1AU470H2HRBLZRFBM3CTDN","","921.5","img/animal4.png","74","922.1000000238419","1","1","3","0.7,0,0.8,0.7,0.8,0,0.7,0.8,0",""
"","html-keyboard-response","244","161802","0.0-244.0","3WQQ9FUS6BGUG3PORZEM2ORC9GD8BB","AMHUDJ44HF1ZH","3WPCIUYH1AU470H2HRBLZRFBM3CTDN","","null","<img src=""img/animal4.png"" style=""width:200px; border:14px solid green;"">","null","","","","","",""
"","image-keyboard-response","245","163158","0.0-245.0","3WQQ9FUS6BGUG3PORZEM2ORC9GD8BB","AMHUDJ44HF1ZH","3WPCIUYH1AU470H2HRBLZRFBM3CTDN","","1354.9000000059605","img/animal5.png","76","1355.300000011921","3","1","1","0.7,0,0.8,0.7,0.8,0,0.7,0.8,0",""
"","html-keyboard-response","246","163459","0.0-246.0","3WQQ9FUS6BGUG3PORZEM2ORC9GD8BB","AMHUDJ44HF1ZH","3WPCIUYH1AU470H2HRBLZRFBM3CTDN","","null","<img src=""img/animal5.png"" style=""width:200px; border:14px solid green;"">","null","","","","","",""
"","image-keyboard-response","247","163738","0.0-247.0","3WQQ9FUS6BGUG3PORZEM2ORC9GD8BB","AMHUDJ44HF1ZH","3WPCIUYH1AU470H2HRBLZRFBM3CTDN","","277.89999997615814","img/animal5.png","76","278.5","3","1","1","0.7,0,0.8,0.7,0.8,0,0.7,0.8,0",""
"","html-keyboard-response","248","164039","0.0-248.0","3WQQ9FUS6BGUG3PORZEM2ORC9GD8BB","AMHUDJ44HF1ZH","3WPCIUYH1AU470H2HRBLZRFBM3CTDN","","null","<img src=""img/animal5.png"" style=""width:200px; border:14px solid green;"">","null","","","","","",""
"","image-keyboard-response","249","164852","0.0-249.0","3WQQ9FUS6BGUG3PORZEM2ORC9GD8BB","AMHUDJ44HF1ZH","3WPCIUYH1AU470H2HRBLZRFBM3CTDN","","812.6999999880791","img/animal4.png","74","813.1999999880791","1","1","3","0.7,0,0.8,0.7,0.8,0,0.7,0.8,0",""
"","html-keyboard-response","250","165154","0.0-250.0","3WQQ9FUS6BGUG3PORZEM2ORC9GD8BB","AMHUDJ44HF1ZH","3WPCIUYH1AU470H2HRBLZRFBM3CTDN","","null","<img src=""img/animal4.png"" style=""width:200px; border:14px solid green;"">","null","","","","","",""
"","image-keyboard-response","251","165962","0.0-251.0","3WQQ9FUS6BGUG3PORZEM2ORC9GD8BB","AMHUDJ44HF1ZH","3WPCIUYH1AU470H2HRBLZRFBM3CTDN","","807.4000000059605","img/animal6.png","75","807.8000000119209","2","0","2","0.7,0,0.8,0.7,0.8,0,0.7,0.8,0",""
"","html-keyboard-response","252","166264","0.0-252.0","3WQQ9FUS6BGUG3PORZEM2ORC9GD8BB","AMHUDJ44HF1ZH","3WPCIUYH1AU470H2HRBLZRFBM3CTDN","","null","<img src=""img/animal6.png"" style=""width:200px;border:14px solid red;"">","null","","","","","",""
"","image-keyboard-response","253","166589","0.0-253.0","3WQQ9FUS6BGUG3PORZEM2ORC9GD8BB","AMHUDJ44HF1ZH","3WPCIUYH1AU470H2HRBLZRFBM3CTDN","","324.59999999403954","img/animal4.png","75","325","2","1","3","0.7,0,0.8,0.7,0.8,0,0.7,0.8,0",""
"","html-keyboard-response","254","166891","0.0-254.0","3WQQ9FUS6BGUG3PORZEM2ORC9GD8BB","AMHUDJ44HF1ZH","3WPCIUYH1AU470H2HRBLZRFBM3CTDN","","null","<img src=""img/animal4.png"" style=""width:200px; border:14px solid green;"">","null","","","","","",""
"","image-keyboard-response","255","169256","0.0-255.0","3WQQ9FUS6BGUG3PORZEM2ORC9GD8BB","AMHUDJ44HF1ZH","3WPCIUYH1AU470H2HRBLZRFBM3CTDN","","2364.300000011921","img/animal5.png","76","2364.600000023842","3","1","1","0.7,0,0.8,0.7,0.8,0,0.7,0.8,0",""
"","html-keyboard-response","256","169559","0.0-256.0","3WQQ9FUS6BGUG3PORZEM2ORC9GD8BB","AMHUDJ44HF1ZH","3WPCIUYH1AU470H2HRBLZRFBM3CTDN","","null","<img src=""img/animal5.png"" style=""width:200px; border:14px solid green;"">","null","","","","","",""
"","image-keyboard-response","257","170554","0.0-257.0","3WQQ9FUS6BGUG3PORZEM2ORC9GD8BB","AMHUDJ44HF1ZH","3WPCIUYH1AU470H2HRBLZRFBM3CTDN","","994.4000000059605","img/animal4.png","74","994.9000000059605","1","1","3","0.7,0,0.8,0.7,0.8,0,0.7,0.8,0",""
"","html-keyboard-response","258","170855","0.0-258.0","3WQQ9FUS6BGUG3PORZEM2ORC9GD8BB","AMHUDJ44HF1ZH","3WPCIUYH1AU470H2HRBLZRFBM3CTDN","","null","<img src=""img/animal4.png"" style=""width:200px; border:14px solid green;"">","null","","","","","",""
"","image-keyboard-response","259","171176","0.0-259.0","3WQQ9FUS6BGUG3PORZEM2ORC9GD8BB","AMHUDJ44HF1ZH","3WPCIUYH1AU470H2HRBLZRFBM3CTDN","","320.60000002384186","img/animal6.png","74","321.09999999403954","1","1","2","0.7,0,0.8,0.7,0.8,0,0.7,0.8,0",""
"","html-keyboard-response","260","171477","0.0-260.0","3WQQ9FUS6BGUG3PORZEM2ORC9GD8BB","AMHUDJ44HF1ZH","3WPCIUYH1AU470H2HRBLZRFBM3CTDN","","null","<img src=""img/animal6.png"" style=""width:200px; border:14px solid green;"">","null","","","","","",""
"","image-keyboard-response","261","171927","0.0-261.0","3WQQ9FUS6BGUG3PORZEM2ORC9GD8BB","AMHUDJ44HF1ZH","3WPCIUYH1AU470H2HRBLZRFBM3CTDN","","448.90000000596046","img/animal6.png","74","449.5","1","1","2","0.7,0,0.8,0.7,0.8,0,0.7,0.8,0",""
"","html-keyboard-response","262","172228","0.0-262.0","3WQQ9FUS6BGUG3PORZEM2ORC9GD8BB","AMHUDJ44HF1ZH","3WPCIUYH1AU470H2HRBLZRFBM3CTDN","","null","<img src=""img/animal6.png"" style=""width:200px; border:14px solid green;"">","null","","","","","",""
"","image-keyboard-response","263","172553","0.0-263.0","3WQQ9FUS6BGUG3PORZEM2ORC9GD8BB","AMHUDJ44HF1ZH","3WPCIUYH1AU470H2HRBLZRFBM3CTDN","","324","img/animal6.png","74","324.59999999403954","1","1","2","0.7,0,0.8,0.7,0.8,0,0.7,0.8,0",""
"","html-keyboard-response","264","172854","0.0-264.0","3WQQ9FUS6BGUG3PORZEM2ORC9GD8BB","AMHUDJ44HF1ZH","3WPCIUYH1AU470H2HRBLZRFBM3CTDN","","null","<img src=""img/animal6.png"" style=""width:200px; border:14px solid green;"">","null","","","","","",""
"","image-keyboard-response","265","173505","0.0-265.0","3WQQ9FUS6BGUG3PORZEM2ORC9GD8BB","AMHUDJ44HF1ZH","3WPCIUYH1AU470H2HRBLZRFBM3CTDN","","650.5999999940395","img/animal4.png","74","651.1000000238419","1","0","3","0.7,0,0.8,0.7,0.8,0,0.7,0.8,0",""
"","html-keyboard-response","266","173807","0.0-266.0","3WQQ9FUS6BGUG3PORZEM2ORC9GD8BB","AMHUDJ44HF1ZH","3WPCIUYH1AU470H2HRBLZRFBM3CTDN","","null","<img src=""img/animal4.png"" style=""width:200px;border:14px solid red;"">","null","","","","","",""
"","image-keyboard-response","267","175100","0.0-267.0","3WQQ9FUS6BGUG3PORZEM2ORC9GD8BB","AMHUDJ44HF1ZH","3WPCIUYH1AU470H2HRBLZRFBM3CTDN","","1292.5","img/animal5.png","76","1292.9000000059605","3","1","1","0.7,0,0.8,0.7,0.8,0,0.7,0.8,0",""
"","html-keyboard-response","268","175412","0.0-268.0","3WQQ9FUS6BGUG3PORZEM2ORC9GD8BB","AMHUDJ44HF1ZH","3WPCIUYH1AU470H2HRBLZRFBM3CTDN","","null","<img src=""img/animal5.png"" style=""width:200px; border:14px solid green;"">","null","","","","","",""
"","image-keyboard-response","269","176458","0.0-269.0","3WQQ9FUS6BGUG3PORZEM2ORC9GD8BB","AMHUDJ44HF1ZH","3WPCIUYH1AU470H2HRBLZRFBM3CTDN","","1045.4000000059605","img/animal4.png","74","1046","1","1","3","0.7,0,0.8,0.7,0.8,0,0.7,0.8,0",""
"","html-keyboard-response","270","176760","0.0-270.0","3WQQ9FUS6BGUG3PORZEM2ORC9GD8BB","AMHUDJ44HF1ZH","3WPCIUYH1AU470H2HRBLZRFBM3CTDN","","null","<img src=""img/animal4.png"" style=""width:200px; border:14px solid green;"">","null","","","","","",""
"","image-keyboard-response","271","177600","0.0-271.0","3WQQ9FUS6BGUG3PORZEM2ORC9GD8BB","AMHUDJ44HF1ZH","3WPCIUYH1AU470H2HRBLZRFBM3CTDN","","839.9000000059605","img/animal5.png","76","840.4000000059605","3","1","1","0.7,0,0.8,0.7,0.8,0,0.7,0.8,0",""
"","html-keyboard-response","272","177901","0.0-272.0","3WQQ9FUS6BGUG3PORZEM2ORC9GD8BB","AMHUDJ44HF1ZH","3WPCIUYH1AU470H2HRBLZRFBM3CTDN","","null","<img src=""img/animal5.png"" style=""width:200px; border:14px solid green;"">","null","","","","","",""
"","image-keyboard-response","273","178800","0.0-273.0","3WQQ9FUS6BGUG3PORZEM2ORC9GD8BB","AMHUDJ44HF1ZH","3WPCIUYH1AU470H2HRBLZRFBM3CTDN","","898.5999999940395","img/animal6.png","74","899.1999999880791","1","0","2","0.7,0,0.8,0.7,0.8,0,0.7,0.8,0",""
"","html-keyboard-response","274","179102","0.0-274.0","3WQQ9FUS6BGUG3PORZEM2ORC9GD8BB","AMHUDJ44HF1ZH","3WPCIUYH1AU470H2HRBLZRFBM3CTDN","","null","<img src=""img/animal6.png"" style=""width:200px;border:14px solid red;"">","null","","","","","",""
"","image-keyboard-response","275","179406","0.0-275.0","3WQQ9FUS6BGUG3PORZEM2ORC9GD8BB","AMHUDJ44HF1ZH","3WPCIUYH1AU470H2HRBLZRFBM3CTDN","","302.60000002384186","img/animal6.png","74","303.30000001192093","1","1","2","0.7,0,0.8,0.7,0.8,0,0.7,0.8,0",""
"","html-keyboard-response","276","179707","0.0-276.0","3WQQ9FUS6BGUG3PORZEM2ORC9GD8BB","AMHUDJ44HF1ZH","3WPCIUYH1AU470H2HRBLZRFBM3CTDN","","null","<img src=""img/animal6.png"" style=""width:200px; border:14px solid green;"">","null","","","","","",""
"","image-keyboard-response","277","180660","0.0-277.0","3WQQ9FUS6BGUG3PORZEM2ORC9GD8BB","AMHUDJ44HF1ZH","3WPCIUYH1AU470H2HRBLZRFBM3CTDN","","952.4000000059605","img/animal4.png","74","952.7999999821186","1","1","3","0.7,0,0.8,0.7,0.8,0,0.7,0.8,0",""
"","html-keyboard-response","278","180962","0.0-278.0","3WQQ9FUS6BGUG3PORZEM2ORC9GD8BB","AMHUDJ44HF1ZH","3WPCIUYH1AU470H2HRBLZRFBM3CTDN","","null","<img src=""img/animal4.png"" style=""width:200px; border:14px solid green;"">","null","","","","","",""
"","image-keyboard-response","279","182006","0.0-279.0","3WQQ9FUS6BGUG3PORZEM2ORC9GD8BB","AMHUDJ44HF1ZH","3WPCIUYH1AU470H2HRBLZRFBM3CTDN","","1043.800000011921","img/animal6.png","74","1044.199999988079","1","1","2","0.7,0,0.8,0.7,0.8,0,0.7,0.8,0",""
"","html-keyboard-response","280","182308","0.0-280.0","3WQQ9FUS6BGUG3PORZEM2ORC9GD8BB","AMHUDJ44HF1ZH","3WPCIUYH1AU470H2HRBLZRFBM3CTDN","","null","<img src=""img/animal6.png"" style=""width:200px; border:14px solid green;"">","null","","","","","",""
"","image-keyboard-response","281","183111","0.0-281.0","3WQQ9FUS6BGUG3PORZEM2ORC9GD8BB","AMHUDJ44HF1ZH","3WPCIUYH1AU470H2HRBLZRFBM3CTDN","","802.5999999940395","img/animal5.png","76","803.0999999940395","3","1","1","0.7,0,0.8,0.7,0.8,0,0.7,0.8,0",""
"","html-keyboard-response","282","183412","0.0-282.0","3WQQ9FUS6BGUG3PORZEM2ORC9GD8BB","AMHUDJ44HF1ZH","3WPCIUYH1AU470H2HRBLZRFBM3CTDN","","null","<img src=""img/animal5.png"" style=""width:200px; border:14px solid green;"">","null","","","","","",""
"","image-keyboard-response","283","184810","0.0-283.0","3WQQ9FUS6BGUG3PORZEM2ORC9GD8BB","AMHUDJ44HF1ZH","3WPCIUYH1AU470H2HRBLZRFBM3CTDN","","1397.9000000059605","img/animal6.png","74","1398.4000000059605","1","1","2","0.7,0,0.8,0.7,0.8,0,0.7,0.8,0",""
"","html-keyboard-response","284","185111","0.0-284.0","3WQQ9FUS6BGUG3PORZEM2ORC9GD8BB","AMHUDJ44HF1ZH","3WPCIUYH1AU470H2HRBLZRFBM3CTDN","","null","<img src=""img/animal6.png"" style=""width:200px; border:14px solid green;"">","null","","","","","",""
"","image-keyboard-response","285","185495","0.0-285.0","3WQQ9FUS6BGUG3PORZEM2ORC9GD8BB","AMHUDJ44HF1ZH","3WPCIUYH1AU470H2HRBLZRFBM3CTDN","","383.5","img/animal6.png","74","384","1","1","2","0.7,0,0.8,0.7,0.8,0,0.7,0.8,0",""
"","html-keyboard-response","286","185797","0.0-286.0","3WQQ9FUS6BGUG3PORZEM2ORC9GD8BB","AMHUDJ44HF1ZH","3WPCIUYH1AU470H2HRBLZRFBM3CTDN","","null","<img src=""img/animal6.png"" style=""width:200px; border:14px solid green;"">","null","","","","","",""
"","image-keyboard-response","287","186100","0.0-287.0","3WQQ9FUS6BGUG3PORZEM2ORC9GD8BB","AMHUDJ44HF1ZH","3WPCIUYH1AU470H2HRBLZRFBM3CTDN","","302.80000001192093","img/animal6.png","74","303.19999998807907","1","1","2","0.7,0,0.8,0.7,0.8,0,0.7,0.8,0",""
"","html-keyboard-response","288","186402","0.0-288.0","3WQQ9FUS6BGUG3PORZEM2ORC9GD8BB","AMHUDJ44HF1ZH","3WPCIUYH1AU470H2HRBLZRFBM3CTDN","","null","<img src=""img/animal6.png"" style=""width:200px; border:14px solid green;"">","null","","","","","",""
"","image-keyboard-response","289","187071","0.0-289.0","3WQQ9FUS6BGUG3PORZEM2ORC9GD8BB","AMHUDJ44HF1ZH","3WPCIUYH1AU470H2HRBLZRFBM3CTDN","","669.0999999940395","img/animal4.png","74","669.5999999940395","1","1","3","0.7,0,0.8,0.7,0.8,0,0.7,0.8,0",""
"","html-keyboard-response","290","187373","0.0-290.0","3WQQ9FUS6BGUG3PORZEM2ORC9GD8BB","AMHUDJ44HF1ZH","3WPCIUYH1AU470H2HRBLZRFBM3CTDN","","null","<img src=""img/animal4.png"" style=""width:200px; border:14px solid green;"">","null","","","","","",""
"","image-keyboard-response","291","188059","0.0-291.0","3WQQ9FUS6BGUG3PORZEM2ORC9GD8BB","AMHUDJ44HF1ZH","3WPCIUYH1AU470H2HRBLZRFBM3CTDN","","686.0999999940395","img/animal6.png","74","686.5","1","1","2","0.7,0,0.8,0.7,0.8,0,0.7,0.8,0",""
"","html-keyboard-response","292","188361","0.0-292.0","3WQQ9FUS6BGUG3PORZEM2ORC9GD8BB","AMHUDJ44HF1ZH","3WPCIUYH1AU470H2HRBLZRFBM3CTDN","","null","<img src=""img/animal6.png"" style=""width:200px; border:14px solid green;"">","null","","","","","",""
"","image-keyboard-response","293","188772","0.0-293.0","3WQQ9FUS6BGUG3PORZEM2ORC9GD8BB","AMHUDJ44HF1ZH","3WPCIUYH1AU470H2HRBLZRFBM3CTDN","","410","img/animal6.png","74","410.5","1","0","2","0.7,0,0.8,0.7,0.8,0,0.7,0.8,0",""
"","html-keyboard-response","294","189073","0.0-294.0","3WQQ9FUS6BGUG3PORZEM2ORC9GD8BB","AMHUDJ44HF1ZH","3WPCIUYH1AU470H2HRBLZRFBM3CTDN","","null","<img src=""img/animal6.png"" style=""width:200px;border:14px solid red;"">","null","","","","","",""
"","image-keyboard-response","295","189947","0.0-295.0","3WQQ9FUS6BGUG3PORZEM2ORC9GD8BB","AMHUDJ44HF1ZH","3WPCIUYH1AU470H2HRBLZRFBM3CTDN","","872.8000000119209","img/animal5.png","76","873.1999999880791","3","1","1","0.7,0,0.8,0.7,0.8,0,0.7,0.8,0",""
"","html-keyboard-response","296","190249","0.0-296.0","3WQQ9FUS6BGUG3PORZEM2ORC9GD8BB","AMHUDJ44HF1ZH","3WPCIUYH1AU470H2HRBLZRFBM3CTDN","","null","<img src=""img/animal5.png"" style=""width:200px; border:14px solid green;"">","null","","","","","",""
"","image-keyboard-response","297","191245","0.0-297.0","3WQQ9FUS6BGUG3PORZEM2ORC9GD8BB","AMHUDJ44HF1ZH","3WPCIUYH1AU470H2HRBLZRFBM3CTDN","","996.3000000119209","img/animal4.png","74","996.6999999880791","1","1","3","0.7,0,0.8,0.7,0.8,0,0.7,0.8,0",""
"","html-keyboard-response","298","191547","0.0-298.0","3WQQ9FUS6BGUG3PORZEM2ORC9GD8BB","AMHUDJ44HF1ZH","3WPCIUYH1AU470H2HRBLZRFBM3CTDN","","null","<img src=""img/animal4.png"" style=""width:200px; border:14px solid green;"">","null","","","","","",""
"","image-keyboard-response","299","191991","0.0-299.0","3WQQ9FUS6BGUG3PORZEM2ORC9GD8BB","AMHUDJ44HF1ZH","3WPCIUYH1AU470H2HRBLZRFBM3CTDN","","443","img/animal6.png","74","443.59999999403954","1","1","2","0.7,0,0.8,0.7,0.8,0,0.7,0.8,0",""
"","html-keyboard-response","300","192291","0.0-300.0","3WQQ9FUS6BGUG3PORZEM2ORC9GD8BB","AMHUDJ44HF1ZH","3WPCIUYH1AU470H2HRBLZRFBM3CTDN","","null","<img src=""img/animal6.png"" style=""width:200px; border:14px solid green;"">","null","","","","","",""
"","image-keyboard-response","301","192950","0.0-301.0","3WQQ9FUS6BGUG3PORZEM2ORC9GD8BB","AMHUDJ44HF1ZH","3WPCIUYH1AU470H2HRBLZRFBM3CTDN","","657.8999999761581","img/animal4.png","74","658.4000000059605","1","1","3","0.7,0,0.8,0.7,0.8,0,0.7,0.8,0",""
"","html-keyboard-response","302","193251","0.0-302.0","3WQQ9FUS6BGUG3PORZEM2ORC9GD8BB","AMHUDJ44HF1ZH","3WPCIUYH1AU470H2HRBLZRFBM3CTDN","","null","<img src=""img/animal4.png"" style=""width:200px; border:14px solid green;"">","null","","","","","",""
"","image-keyboard-response","303","193635","0.0-303.0","3WQQ9FUS6BGUG3PORZEM2ORC9GD8BB","AMHUDJ44HF1ZH","3WPCIUYH1AU470H2HRBLZRFBM3CTDN","","383.30000001192093","img/animal5.png","74","383.69999998807907","1","0","1","0.7,0,0.8,0.7,0.8,0,0.7,0.8,0",""
"","html-keyboard-response","304","193936","0.0-304.0","3WQQ9FUS6BGUG3PORZEM2ORC9GD8BB","AMHUDJ44HF1ZH","3WPCIUYH1AU470H2HRBLZRFBM3CTDN","","null","<img src=""img/animal5.png"" style=""width:200px;border:14px solid red;"">","null","","","","","",""
"","image-keyboard-response","305","194558","0.0-305.0","3WQQ9FUS6BGUG3PORZEM2ORC9GD8BB","AMHUDJ44HF1ZH","3WPCIUYH1AU470H2HRBLZRFBM3CTDN","","621.5","img/animal4.png","74","621.8999999761581","1","1","3","0.7,0,0.8,0.7,0.8,0,0.7,0.8,0",""
"","html-keyboard-response","306","194872","0.0-306.0","3WQQ9FUS6BGUG3PORZEM2ORC9GD8BB","AMHUDJ44HF1ZH","3WPCIUYH1AU470H2HRBLZRFBM3CTDN","","null","<img src=""img/animal4.png"" style=""width:200px; border:14px solid green;"">","null","","","","","",""
"","image-keyboard-response","307","195445","0.0-307.0","3WQQ9FUS6BGUG3PORZEM2ORC9GD8BB","AMHUDJ44HF1ZH","3WPCIUYH1AU470H2HRBLZRFBM3CTDN","","572","img/animal5.png","76","572.5","3","1","1","0.7,0,0.8,0.7,0.8,0,0.7,0.8,0",""
"","html-keyboard-response","308","195747","0.0-308.0","3WQQ9FUS6BGUG3PORZEM2ORC9GD8BB","AMHUDJ44HF1ZH","3WPCIUYH1AU470H2HRBLZRFBM3CTDN","","null","<img src=""img/animal5.png"" style=""width:200px; border:14px solid green;"">","null","","","","","",""
"","image-keyboard-response","309","196393","0.0-309.0","3WQQ9FUS6BGUG3PORZEM2ORC9GD8BB","AMHUDJ44HF1ZH","3WPCIUYH1AU470H2HRBLZRFBM3CTDN","","645","img/animal4.png","74","645.3999999761581","1","0","3","0.7,0,0.8,0.7,0.8,0,0.7,0.8,0",""
"","html-keyboard-response","310","196694","0.0-310.0","3WQQ9FUS6BGUG3PORZEM2ORC9GD8BB","AMHUDJ44HF1ZH","3WPCIUYH1AU470H2HRBLZRFBM3CTDN","","null","<img src=""img/animal4.png"" style=""width:200px;border:14px solid red;"">","null","","","","","",""
"","image-keyboard-response","311","197123","0.0-311.0","3WQQ9FUS6BGUG3PORZEM2ORC9GD8BB","AMHUDJ44HF1ZH","3WPCIUYH1AU470H2HRBLZRFBM3CTDN","","428.40000000596046","img/animal5.png","76","428.80000001192093","3","1","1","0.7,0,0.8,0.7,0.8,0,0.7,0.8,0",""
"","html-keyboard-response","312","197425","0.0-312.0","3WQQ9FUS6BGUG3PORZEM2ORC9GD8BB","AMHUDJ44HF1ZH","3WPCIUYH1AU470H2HRBLZRFBM3CTDN","","null","<img src=""img/animal5.png"" style=""width:200px; border:14px solid green;"">","null","","","","","",""
"","image-keyboard-response","313","197930","0.0-313.0","3WQQ9FUS6BGUG3PORZEM2ORC9GD8BB","AMHUDJ44HF1ZH","3WPCIUYH1AU470H2HRBLZRFBM3CTDN","","504.2999999821186","img/animal4.png","74","504.69999998807907","1","0","3","0.7,0,0.8,0.7,0.8,0,0.7,0.8,0",""
"","html-keyboard-response","314","198231","0.0-314.0","3WQQ9FUS6BGUG3PORZEM2ORC9GD8BB","AMHUDJ44HF1ZH","3WPCIUYH1AU470H2HRBLZRFBM3CTDN","","null","<img src=""img/animal4.png"" style=""width:200px;border:14px solid red;"">","null","","","","","",""
"","image-keyboard-response","315","198694","0.0-315.0","3WQQ9FUS6BGUG3PORZEM2ORC9GD8BB","AMHUDJ44HF1ZH","3WPCIUYH1AU470H2HRBLZRFBM3CTDN","","463","img/animal6.png","76","463.5","3","0","2","0.7,0,0.8,0.7,0.8,0,0.7,0.8,0",""
"","html-keyboard-response","316","198996","0.0-316.0","3WQQ9FUS6BGUG3PORZEM2ORC9GD8BB","AMHUDJ44HF1ZH","3WPCIUYH1AU470H2HRBLZRFBM3CTDN","","null","<img src=""img/animal6.png"" style=""width:200px;border:14px solid red;"">","null","","","","","",""
"","image-keyboard-response","317","199747","0.0-317.0","3WQQ9FUS6BGUG3PORZEM2ORC9GD8BB","AMHUDJ44HF1ZH","3WPCIUYH1AU470H2HRBLZRFBM3CTDN","","750.8000000119209","img/animal5.png","74","751.3000000119209","1","0","1","0.7,0,0.8,0.7,0.8,0,0.7,0.8,0",""
"","html-keyboard-response","318","200048","0.0-318.0","3WQQ9FUS6BGUG3PORZEM2ORC9GD8BB","AMHUDJ44HF1ZH","3WPCIUYH1AU470H2HRBLZRFBM3CTDN","","null","<img src=""img/animal5.png"" style=""width:200px;border:14px solid red;"">","null","","","","","",""
"","image-keyboard-response","319","200927","0.0-319.0","3WQQ9FUS6BGUG3PORZEM2ORC9GD8BB","AMHUDJ44HF1ZH","3WPCIUYH1AU470H2HRBLZRFBM3CTDN","","878.3000000119209","img/animal4.png","74","878.9000000059605","1","0","3","0.7,0,0.8,0.7,0.8,0,0.7,0.8,0",""
"","html-keyboard-response","320","201229","0.0-320.0","3WQQ9FUS6BGUG3PORZEM2ORC9GD8BB","AMHUDJ44HF1ZH","3WPCIUYH1AU470H2HRBLZRFBM3CTDN","","null","<img src=""img/animal4.png"" style=""width:200px;border:14px solid red;"">","null","","","","","",""
"","image-keyboard-response","321","201661","0.0-321.0","3WQQ9FUS6BGUG3PORZEM2ORC9GD8BB","AMHUDJ44HF1ZH","3WPCIUYH1AU470H2HRBLZRFBM3CTDN","","430.80000001192093","img/animal4.png","74","431.19999998807907","1","1","3","0.7,0,0.8,0.7,0.8,0,0.7,0.8,0",""
"","html-keyboard-response","322","201962","0.0-322.0","3WQQ9FUS6BGUG3PORZEM2ORC9GD8BB","AMHUDJ44HF1ZH","3WPCIUYH1AU470H2HRBLZRFBM3CTDN","","null","<img src=""img/animal4.png"" style=""width:200px; border:14px solid green;"">","null","","","","","",""
"","image-keyboard-response","323","202317","0.0-323.0","3WQQ9FUS6BGUG3PORZEM2ORC9GD8BB","AMHUDJ44HF1ZH","3WPCIUYH1AU470H2HRBLZRFBM3CTDN","","355","img/animal4.png","74","355.59999999403954","1","1","3","0.7,0,0.8,0.7,0.8,0,0.7,0.8,0",""
"","html-keyboard-response","324","202618","0.0-324.0","3WQQ9FUS6BGUG3PORZEM2ORC9GD8BB","AMHUDJ44HF1ZH","3WPCIUYH1AU470H2HRBLZRFBM3CTDN","","null","<img src=""img/animal4.png"" style=""width:200px; border:14px solid green;"">","null","","","","","",""
"","image-keyboard-response","325","202958","0.0-325.0","3WQQ9FUS6BGUG3PORZEM2ORC9GD8BB","AMHUDJ44HF1ZH","3WPCIUYH1AU470H2HRBLZRFBM3CTDN","","339.09999999403954","img/animal5.png","74","339.5","1","1","1","0.7,0,0.8,0.7,0.8,0,0.7,0.8,0",""
"","html-keyboard-response","326","203260","0.0-326.0","3WQQ9FUS6BGUG3PORZEM2ORC9GD8BB","AMHUDJ44HF1ZH","3WPCIUYH1AU470H2HRBLZRFBM3CTDN","","null","<img src=""img/animal5.png"" style=""width:200px; border:14px solid green;"">","null","","","","","",""
"","image-keyboard-response","327","203866","0.0-327.0","3WQQ9FUS6BGUG3PORZEM2ORC9GD8BB","AMHUDJ44HF1ZH","3WPCIUYH1AU470H2HRBLZRFBM3CTDN","","606.2000000178814","img/animal5.png","76","606.7000000178814","3","1","1","0.7,0,0.8,0.7,0.8,0,0.7,0.8,0",""
"","html-keyboard-response","328","204168","0.0-328.0","3WQQ9FUS6BGUG3PORZEM2ORC9GD8BB","AMHUDJ44HF1ZH","3WPCIUYH1AU470H2HRBLZRFBM3CTDN","","null","<img src=""img/animal5.png"" style=""width:200px; border:14px solid green;"">","null","","","","","",""
"","image-keyboard-response","329","205278","0.0-329.0","3WQQ9FUS6BGUG3PORZEM2ORC9GD8BB","AMHUDJ44HF1ZH","3WPCIUYH1AU470H2HRBLZRFBM3CTDN","","1110.0999999940395","img/animal4.png","74","1110.5999999940395","1","1","3","0.7,0,0.8,0.7,0.8,0,0.7,0.8,0",""
"","html-keyboard-response","330","205579","0.0-330.0","3WQQ9FUS6BGUG3PORZEM2ORC9GD8BB","AMHUDJ44HF1ZH","3WPCIUYH1AU470H2HRBLZRFBM3CTDN","","null","<img src=""img/animal4.png"" style=""width:200px; border:14px solid green;"">","null","","","","","",""
"","image-keyboard-response","331","207153","0.0-331.0","3WQQ9FUS6BGUG3PORZEM2ORC9GD8BB","AMHUDJ44HF1ZH","3WPCIUYH1AU470H2HRBLZRFBM3CTDN","","1572.5999999940395","img/animal6.png","74","1573","1","1","2","0.7,0,0.8,0.7,0.8,0,0.7,0.8,0",""
"","html-keyboard-response","332","207455","0.0-332.0","3WQQ9FUS6BGUG3PORZEM2ORC9GD8BB","AMHUDJ44HF1ZH","3WPCIUYH1AU470H2HRBLZRFBM3CTDN","","null","<img src=""img/animal6.png"" style=""width:200px; border:14px solid green;"">","null","","","","","",""
"","image-keyboard-response","333","208063","0.0-333.0","3WQQ9FUS6BGUG3PORZEM2ORC9GD8BB","AMHUDJ44HF1ZH","3WPCIUYH1AU470H2HRBLZRFBM3CTDN","","607.6999999880791","img/animal4.png","74","608.2000000178814","1","1","3","0.7,0,0.8,0.7,0.8,0,0.7,0.8,0",""
"","html-keyboard-response","334","208364","0.0-334.0","3WQQ9FUS6BGUG3PORZEM2ORC9GD8BB","AMHUDJ44HF1ZH","3WPCIUYH1AU470H2HRBLZRFBM3CTDN","","null","<img src=""img/animal4.png"" style=""width:200px; border:14px solid green;"">","null","","","","","",""
"","image-keyboard-response","335","208900","0.0-335.0","3WQQ9FUS6BGUG3PORZEM2ORC9GD8BB","AMHUDJ44HF1ZH","3WPCIUYH1AU470H2HRBLZRFBM3CTDN","","535.5","img/animal4.png","74","536.0999999940395","1","0","3","0.7,0,0.8,0.7,0.8,0,0.7,0.8,0",""
"","html-keyboard-response","336","209201","0.0-336.0","3WQQ9FUS6BGUG3PORZEM2ORC9GD8BB","AMHUDJ44HF1ZH","3WPCIUYH1AU470H2HRBLZRFBM3CTDN","","null","<img src=""img/animal4.png"" style=""width:200px;border:14px solid red;"">","null","","","","","",""
"","image-keyboard-response","337","209612","0.0-337.0","3WQQ9FUS6BGUG3PORZEM2ORC9GD8BB","AMHUDJ44HF1ZH","3WPCIUYH1AU470H2HRBLZRFBM3CTDN","","410.09999999403954","img/animal4.png","74","410.60000002384186","1","1","3","0.7,0,0.8,0.7,0.8,0,0.7,0.8,0",""
"","html-keyboard-response","338","209913","0.0-338.0","3WQQ9FUS6BGUG3PORZEM2ORC9GD8BB","AMHUDJ44HF1ZH","3WPCIUYH1AU470H2HRBLZRFBM3CTDN","","null","<img src=""img/animal4.png"" style=""width:200px; border:14px solid green;"">","null","","","","","",""
"","image-keyboard-response","339","210777","0.0-339.0","3WQQ9FUS6BGUG3PORZEM2ORC9GD8BB","AMHUDJ44HF1ZH","3WPCIUYH1AU470H2HRBLZRFBM3CTDN","","863.5","img/animal5.png","76","864","3","1","1","0.7,0,0.8,0.7,0.8,0,0.7,0.8,0",""
"","html-keyboard-response","340","211079","0.0-340.0","3WQQ9FUS6BGUG3PORZEM2ORC9GD8BB","AMHUDJ44HF1ZH","3WPCIUYH1AU470H2HRBLZRFBM3CTDN","","null","<img src=""img/animal5.png"" style=""width:200px; border:14px solid green;"">","null","","","","","",""
"","image-keyboard-response","341","211691","0.0-341.0","3WQQ9FUS6BGUG3PORZEM2ORC9GD8BB","AMHUDJ44HF1ZH","3WPCIUYH1AU470H2HRBLZRFBM3CTDN","","611.9000000059605","img/animal5.png","76","612.5","3","1","1","0.7,0,0.8,0.7,0.8,0,0.7,0.8,0",""
"","html-keyboard-response","342","211993","0.0-342.0","3WQQ9FUS6BGUG3PORZEM2ORC9GD8BB","AMHUDJ44HF1ZH","3WPCIUYH1AU470H2HRBLZRFBM3CTDN","","null","<img src=""img/animal5.png"" style=""width:200px; border:14px solid green;"">","null","","","","","",""
"","image-keyboard-response","343","212376","0.0-343.0","3WQQ9FUS6BGUG3PORZEM2ORC9GD8BB","AMHUDJ44HF1ZH","3WPCIUYH1AU470H2HRBLZRFBM3CTDN","","382.80000001192093","img/animal5.png","76","383.40000000596046","3","1","1","0.7,0,0.8,0.7,0.8,0,0.7,0.8,0",""
"","html-keyboard-response","344","212678","0.0-344.0","3WQQ9FUS6BGUG3PORZEM2ORC9GD8BB","AMHUDJ44HF1ZH","3WPCIUYH1AU470H2HRBLZRFBM3CTDN","","null","<img src=""img/animal5.png"" style=""width:200px; border:14px solid green;"">","null","","","","","",""
"","image-keyboard-response","345","213420","0.0-345.0","3WQQ9FUS6BGUG3PORZEM2ORC9GD8BB","AMHUDJ44HF1ZH","3WPCIUYH1AU470H2HRBLZRFBM3CTDN","","741.1999999880791","img/animal6.png","74","741.6999999880791","1","1","2","0.7,0,0.8,0.7,0.8,0,0.7,0.8,0",""
"","html-keyboard-response","346","213721","0.0-346.0","3WQQ9FUS6BGUG3PORZEM2ORC9GD8BB","AMHUDJ44HF1ZH","3WPCIUYH1AU470H2HRBLZRFBM3CTDN","","null","<img src=""img/animal6.png"" style=""width:200px; border:14px solid green;"">","null","","","","","",""
"","image-keyboard-response","347","215618","0.0-347.0","3WQQ9FUS6BGUG3PORZEM2ORC9GD8BB","AMHUDJ44HF1ZH","3WPCIUYH1AU470H2HRBLZRFBM3CTDN","","1897","img/animal5.png","74","1897.5","1","1","1","0.7,0,0.8,0.7,0.8,0,0.7,0.8,0",""
"","html-keyboard-response","348","215919","0.0-348.0","3WQQ9FUS6BGUG3PORZEM2ORC9GD8BB","AMHUDJ44HF1ZH","3WPCIUYH1AU470H2HRBLZRFBM3CTDN","","null","<img src=""img/animal5.png"" style=""width:200px; border:14px solid green;"">","null","","","","","",""
"","image-keyboard-response","349","216244","0.0-349.0","3WQQ9FUS6BGUG3PORZEM2ORC9GD8BB","AMHUDJ44HF1ZH","3WPCIUYH1AU470H2HRBLZRFBM3CTDN","","324","img/animal5.png","74","324.59999999403954","1","1","1","0.7,0,0.8,0.7,0.8,0,0.7,0.8,0",""
"","html-keyboard-response","350","216547","0.0-350.0","3WQQ9FUS6BGUG3PORZEM2ORC9GD8BB","AMHUDJ44HF1ZH","3WPCIUYH1AU470H2HRBLZRFBM3CTDN","","null","<img src=""img/animal5.png"" style=""width:200px; border:14px solid green;"">","null","","","","","",""
"","image-keyboard-response","351","217400","0.0-351.0","3WQQ9FUS6BGUG3PORZEM2ORC9GD8BB","AMHUDJ44HF1ZH","3WPCIUYH1AU470H2HRBLZRFBM3CTDN","","851.6999999880791","img/animal6.png","74","852.0999999940395","1","0","2","0.7,0,0.8,0.7,0.8,0,0.7,0.8,0",""
"","html-keyboard-response","352","217701","0.0-352.0","3WQQ9FUS6BGUG3PORZEM2ORC9GD8BB","AMHUDJ44HF1ZH","3WPCIUYH1AU470H2HRBLZRFBM3CTDN","","null","<img src=""img/animal6.png"" style=""width:200px;border:14px solid red;"">","null","","","","","",""
"","image-keyboard-response","353","218286","0.0-353.0","3WQQ9FUS6BGUG3PORZEM2ORC9GD8BB","AMHUDJ44HF1ZH","3WPCIUYH1AU470H2HRBLZRFBM3CTDN","","585.1000000238419","img/animal4.png","76","585.5","3","0","3","0.7,0,0.8,0.7,0.8,0,0.7,0.8,0",""
"","html-keyboard-response","354","218588","0.0-354.0","3WQQ9FUS6BGUG3PORZEM2ORC9GD8BB","AMHUDJ44HF1ZH","3WPCIUYH1AU470H2HRBLZRFBM3CTDN","","null","<img src=""img/animal4.png"" style=""width:200px;border:14px solid red;"">","null","","","","","",""
"","image-keyboard-response","355","219455","0.0-355.0","3WQQ9FUS6BGUG3PORZEM2ORC9GD8BB","AMHUDJ44HF1ZH","3WPCIUYH1AU470H2HRBLZRFBM3CTDN","","866.9000000059605","img/animal5.png","76","867.3000000119209","3","1","1","0.7,0,0.8,0.7,0.8,0,0.7,0.8,0",""
"","html-keyboard-response","356","219757","0.0-356.0","3WQQ9FUS6BGUG3PORZEM2ORC9GD8BB","AMHUDJ44HF1ZH","3WPCIUYH1AU470H2HRBLZRFBM3CTDN","","null","<img src=""img/animal5.png"" style=""width:200px; border:14px solid green;"">","null","","","","","",""
"","image-keyboard-response","357","220425","0.0-357.0","3WQQ9FUS6BGUG3PORZEM2ORC9GD8BB","AMHUDJ44HF1ZH","3WPCIUYH1AU470H2HRBLZRFBM3CTDN","","667.5999999940395","img/animal6.png","74","668.1000000238419","1","0","2","0.7,0,0.8,0.7,0.8,0,0.7,0.8,0",""
"","html-keyboard-response","358","220726","0.0-358.0","3WQQ9FUS6BGUG3PORZEM2ORC9GD8BB","AMHUDJ44HF1ZH","3WPCIUYH1AU470H2HRBLZRFBM3CTDN","","null","<img src=""img/animal6.png"" style=""width:200px;border:14px solid red;"">","null","","","","","",""
"","image-keyboard-response","359","221156","0.0-359.0","3WQQ9FUS6BGUG3PORZEM2ORC9GD8BB","AMHUDJ44HF1ZH","3WPCIUYH1AU470H2HRBLZRFBM3CTDN","","429.5","img/animal4.png","74","429.89999997615814","1","1","3","0.7,0,0.8,0.7,0.8,0,0.7,0.8,0",""
"","html-keyboard-response","360","221458","0.0-360.0","3WQQ9FUS6BGUG3PORZEM2ORC9GD8BB","AMHUDJ44HF1ZH","3WPCIUYH1AU470H2HRBLZRFBM3CTDN","","null","<img src=""img/animal4.png"" style=""width:200px; border:14px solid green;"">","null","","","","","",""
"","image-keyboard-response","361","221767","0.0-361.0","3WQQ9FUS6BGUG3PORZEM2ORC9GD8BB","AMHUDJ44HF1ZH","3WPCIUYH1AU470H2HRBLZRFBM3CTDN","","308.90000000596046","img/animal6.png","74","309.40000000596046","1","1","2","0.7,0,0.8,0.7,0.8,0,0.7,0.8,0",""
"","html-keyboard-response","362","222068","0.0-362.0","3WQQ9FUS6BGUG3PORZEM2ORC9GD8BB","AMHUDJ44HF1ZH","3WPCIUYH1AU470H2HRBLZRFBM3CTDN","","null","<img src=""img/animal6.png"" style=""width:200px; border:14px solid green;"">","null","","","","","",""
"","instructions","363","226701","0.0-363.0","3WQQ9FUS6BGUG3PORZEM2ORC9GD8BB","AMHUDJ44HF1ZH","3WPCIUYH1AU470H2HRBLZRFBM3CTDN","[{""page_index"":0,""viewing_time"":4632.4000000059605}]","4632.5","","","","","","","",""
"","survey-text","364","233480","0.0-364.0","3WQQ9FUS6BGUG3PORZEM2ORC9GD8BB","AMHUDJ44HF1ZH","3WPCIUYH1AU470H2HRBLZRFBM3CTDN","","6778","","","","","","","","{""Q0"":""AMHUDJ44HF1ZH""}"
