"success","trial_type","trial_index","time_elapsed","internal_node_id","assignmentID","mturkID","hitID","view_history","rt","stimulus","key_press","reactionTime","a","r","s","reward_cond","responses"
"true","fullscreen","0","2515","0.0-0.0","3MRNMEIQW6SIA77RZKEW2J1IW1OLDH","AOAZMLP27GD81","368IUKXGA5U7UZ9GQNUNOB4MGE4P6M","","","","","","","","","",""
"","instructions","1","22793","0.0-1.0","3MRNMEIQW6SIA77RZKEW2J1IW1OLDH","AOAZMLP27GD81","368IUKXGA5U7UZ9GQNUNOB4MGE4P6M","[{""page_index"":0,""viewing_time"":7205.5},{""page_index"":1,""viewing_time"":1695.7999999970198},{""page_index"":2,""viewing_time"":1160.1000000014901},{""page_index"":1,""viewing_time"":2000.1000000014901},{""page_index"":2,""viewing_time"":783.8999999985099},{""page_index"":3,""viewing_time"":3967.89999999851},{""page_index"":4,""viewing_time"":1480.1000000014901},{""page_index"":5,""viewing_time"":760.1000000014901},{""page_index"":6,""viewing_time"":631.7999999970198},{""page_index"":7,""viewing_time"":592}]","20277.69999999553","","","","","","","",""
"","image-keyboard-response","2","25070","0.0-2.0","3MRNMEIQW6SIA77RZKEW2J1IW1OLDH","AOAZMLP27GD81","368IUKXGA5U7UZ9GQNUNOB4MGE4P6M","","2275.7000000029802","img/animal4.png","74","2276.2999999970198","1","1","1","0.7,0,0.8,0.7,0.8,0,0.7,0.8,0",""
"","html-keyboard-response","3","25372","0.0-3.0","3MRNMEIQW6SIA77RZKEW2J1IW1OLDH","AOAZMLP27GD81","368IUKXGA5U7UZ9GQNUNOB4MGE4P6M","","null","<img src=""img/animal4.png"" style=""width:200px; border:14px solid green;"">","null","","","","","",""
"","image-keyboard-response","4","25934","0.0-4.0","3MRNMEIQW6SIA77RZKEW2J1IW1OLDH","AOAZMLP27GD81","368IUKXGA5U7UZ9GQNUNOB4MGE4P6M","","561.0999999940395","img/animal4.png","74","561.6000000014901","1","1","1","0.7,0,0.8,0.7,0.8,0,0.7,0.8,0",""
"","html-keyboard-response","5","26235","0.0-5.0","3MRNMEIQW6SIA77RZKEW2J1IW1OLDH","AOAZMLP27GD81","368IUKXGA5U7UZ9GQNUNOB4MGE4P6M","","null","<img src=""img/animal4.png"" style=""width:200px; border:14px solid green;"">","null","","","","","",""
"","image-keyboard-response","6","26596","0.0-6.0","3MRNMEIQW6SIA77RZKEW2J1IW1OLDH","AOAZMLP27GD81","368IUKXGA5U7UZ9GQNUNOB4MGE4P6M","","360.3999999985099","img/animal4.png","74","360.79999999701977","1","1","1","0.7,0,0.8,0.7,0.8,0,0.7,0.8,0",""
"","html-keyboard-response","7","26897","0.0-7.0","3MRNMEIQW6SIA77RZKEW2J1IW1OLDH","AOAZMLP27GD81","368IUKXGA5U7UZ9GQNUNOB4MGE4P6M","","null","<img src=""img/animal4.png"" style=""width:200px; border:14px solid green;"">","null","","","","","",""
"","image-keyboard-response","8","27441","0.0-8.0","3MRNMEIQW6SIA77RZKEW2J1IW1OLDH","AOAZMLP27GD81","368IUKXGA5U7UZ9GQNUNOB4MGE4P6M","","543.2000000029802","img/animal5.png","75","543.6000000014901","2","1","3","0.7,0,0.8,0.7,0.8,0,0.7,0.8,0",""
"","html-keyboard-response","9","27743","0.0-9.0","3MRNMEIQW6SIA77RZKEW2J1IW1OLDH","AOAZMLP27GD81","368IUKXGA5U7UZ9GQNUNOB4MGE4P6M","","null","<img src=""img/animal5.png"" style=""width:200px; border:14px solid green;"">","null","","","","","",""
"","image-keyboard-response","10","28352","0.0-10.0","3MRNMEIQW6SIA77RZKEW2J1IW1OLDH","AOAZMLP27GD81","368IUKXGA5U7UZ9GQNUNOB4MGE4P6M","","608.3999999985099","img/animal4.png","74","608.8000000044703","1","1","1","0.7,0,0.8,0.7,0.8,0,0.7,0.8,0",""
"","html-keyboard-response","11","28654","0.0-11.0","3MRNMEIQW6SIA77RZKEW2J1IW1OLDH","AOAZMLP27GD81","368IUKXGA5U7UZ9GQNUNOB4MGE4P6M","","null","<img src=""img/animal4.png"" style=""width:200px; border:14px solid green;"">","null","","","","","",""
"","image-keyboard-response","12","29357","0.0-12.0","3MRNMEIQW6SIA77RZKEW2J1IW1OLDH","AOAZMLP27GD81","368IUKXGA5U7UZ9GQNUNOB4MGE4P6M","","702.7999999970198","img/animal1.png","76","703.2000000029802","3","0","2","0.7,0,0.8,0.7,0.8,0,0.7,0.8,0",""
"","html-keyboard-response","13","29659","0.0-13.0","3MRNMEIQW6SIA77RZKEW2J1IW1OLDH","AOAZMLP27GD81","368IUKXGA5U7UZ9GQNUNOB4MGE4P6M","","null","<img src=""img/animal1.png"" style=""width:200px;border:14px solid red;"">","null","","","","","",""
"","image-keyboard-response","14","30932","0.0-14.0","3MRNMEIQW6SIA77RZKEW2J1IW1OLDH","AOAZMLP27GD81","368IUKXGA5U7UZ9GQNUNOB4MGE4P6M","","1272.6000000014901","img/animal5.png","75","1273.1000000014901","2","1","3","0.7,0,0.8,0.7,0.8,0,0.7,0.8,0",""
"","html-keyboard-response","15","31234","0.0-15.0","3MRNMEIQW6SIA77RZKEW2J1IW1OLDH","AOAZMLP27GD81","368IUKXGA5U7UZ9GQNUNOB4MGE4P6M","","null","<img src=""img/animal5.png"" style=""width:200px; border:14px solid green;"">","null","","","","","",""
"","image-keyboard-response","16","31814","0.0-16.0","3MRNMEIQW6SIA77RZKEW2J1IW1OLDH","AOAZMLP27GD81","368IUKXGA5U7UZ9GQNUNOB4MGE4P6M","","580","img/animal1.png","76","580.3999999985099","3","0","2","0.7,0,0.8,0.7,0.8,0,0.7,0.8,0",""
"","html-keyboard-response","17","32116","0.0-17.0","3MRNMEIQW6SIA77RZKEW2J1IW1OLDH","AOAZMLP27GD81","368IUKXGA5U7UZ9GQNUNOB4MGE4P6M","","null","<img src=""img/animal1.png"" style=""width:200px;border:14px solid red;"">","null","","","","","",""
"","image-keyboard-response","18","32628","0.0-18.0","3MRNMEIQW6SIA77RZKEW2J1IW1OLDH","AOAZMLP27GD81","368IUKXGA5U7UZ9GQNUNOB4MGE4P6M","","512.1000000014901","img/animal1.png","76","512.5","3","0","2","0.7,0,0.8,0.7,0.8,0,0.7,0.8,0",""
"","html-keyboard-response","19","32930","0.0-19.0","3MRNMEIQW6SIA77RZKEW2J1IW1OLDH","AOAZMLP27GD81","368IUKXGA5U7UZ9GQNUNOB4MGE4P6M","","null","<img src=""img/animal1.png"" style=""width:200px;border:14px solid red;"">","null","","","","","",""
"","image-keyboard-response","20","33506","0.0-20.0","3MRNMEIQW6SIA77RZKEW2J1IW1OLDH","AOAZMLP27GD81","368IUKXGA5U7UZ9GQNUNOB4MGE4P6M","","576","img/animal1.png","74","576.5","1","1","2","0.7,0,0.8,0.7,0.8,0,0.7,0.8,0",""
"","html-keyboard-response","21","33808","0.0-21.0","3MRNMEIQW6SIA77RZKEW2J1IW1OLDH","AOAZMLP27GD81","368IUKXGA5U7UZ9GQNUNOB4MGE4P6M","","null","<img src=""img/animal1.png"" style=""width:200px; border:14px solid green;"">","null","","","","","",""
"","image-keyboard-response","22","34688","0.0-22.0","3MRNMEIQW6SIA77RZKEW2J1IW1OLDH","AOAZMLP27GD81","368IUKXGA5U7UZ9GQNUNOB4MGE4P6M","","880","img/animal4.png","74","880.3999999985099","1","1","1","0.7,0,0.8,0.7,0.8,0,0.7,0.8,0",""
"","html-keyboard-response","23","34990","0.0-23.0","3MRNMEIQW6SIA77RZKEW2J1IW1OLDH","AOAZMLP27GD81","368IUKXGA5U7UZ9GQNUNOB4MGE4P6M","","null","<img src=""img/animal4.png"" style=""width:200px; border:14px solid green;"">","null","","","","","",""
"","image-keyboard-response","24","36277","0.0-24.0","3MRNMEIQW6SIA77RZKEW2J1IW1OLDH","AOAZMLP27GD81","368IUKXGA5U7UZ9GQNUNOB4MGE4P6M","","1286.8999999985099","img/animal5.png","75","1287.1999999955297","2","1","3","0.7,0,0.8,0.7,0.8,0,0.7,0.8,0",""
"","html-keyboard-response","25","36578","0.0-25.0","3MRNMEIQW6SIA77RZKEW2J1IW1OLDH","AOAZMLP27GD81","368IUKXGA5U7UZ9GQNUNOB4MGE4P6M","","null","<img src=""img/animal5.png"" style=""width:200px; border:14px solid green;"">","null","","","","","",""
"","image-keyboard-response","26","36898","0.0-26.0","3MRNMEIQW6SIA77RZKEW2J1IW1OLDH","AOAZMLP27GD81","368IUKXGA5U7UZ9GQNUNOB4MGE4P6M","","319.19999999552965","img/animal5.png","75","319.5","2","1","3","0.7,0,0.8,0.7,0.8,0,0.7,0.8,0",""
"","html-keyboard-response","27","37199","0.0-27.0","3MRNMEIQW6SIA77RZKEW2J1IW1OLDH","AOAZMLP27GD81","368IUKXGA5U7UZ9GQNUNOB4MGE4P6M","","null","<img src=""img/animal5.png"" style=""width:200px; border:14px solid green;"">","null","","","","","",""
"","image-keyboard-response","28","37625","0.0-28.0","3MRNMEIQW6SIA77RZKEW2J1IW1OLDH","AOAZMLP27GD81","368IUKXGA5U7UZ9GQNUNOB4MGE4P6M","","425.70000000298023","img/animal4.png","74","426.1000000014901","1","0","1","0.7,0,0.8,0.7,0.8,0,0.7,0.8,0",""
"","html-keyboard-response","29","37927","0.0-29.0","3MRNMEIQW6SIA77RZKEW2J1IW1OLDH","AOAZMLP27GD81","368IUKXGA5U7UZ9GQNUNOB4MGE4P6M","","null","<img src=""img/animal4.png"" style=""width:200px;border:14px solid red;"">","null","","","","","",""
"","image-keyboard-response","30","38408","0.0-30.0","3MRNMEIQW6SIA77RZKEW2J1IW1OLDH","AOAZMLP27GD81","368IUKXGA5U7UZ9GQNUNOB4MGE4P6M","","480.70000000298023","img/animal1.png","74","481.20000000298023","1","0","2","0.7,0,0.8,0.7,0.8,0,0.7,0.8,0",""
"","html-keyboard-response","31","38710","0.0-31.0","3MRNMEIQW6SIA77RZKEW2J1IW1OLDH","AOAZMLP27GD81","368IUKXGA5U7UZ9GQNUNOB4MGE4P6M","","null","<img src=""img/animal1.png"" style=""width:200px;border:14px solid red;"">","null","","","","","",""
"","image-keyboard-response","32","39288","0.0-32.0","3MRNMEIQW6SIA77RZKEW2J1IW1OLDH","AOAZMLP27GD81","368IUKXGA5U7UZ9GQNUNOB4MGE4P6M","","577.2999999970198","img/animal4.png","74","577.6000000014901","1","1","1","0.7,0,0.8,0.7,0.8,0,0.7,0.8,0",""
"","html-keyboard-response","33","39589","0.0-33.0","3MRNMEIQW6SIA77RZKEW2J1IW1OLDH","AOAZMLP27GD81","368IUKXGA5U7UZ9GQNUNOB4MGE4P6M","","null","<img src=""img/animal4.png"" style=""width:200px; border:14px solid green;"">","null","","","","","",""
"","image-keyboard-response","34","40034","0.0-34.0","3MRNMEIQW6SIA77RZKEW2J1IW1OLDH","AOAZMLP27GD81","368IUKXGA5U7UZ9GQNUNOB4MGE4P6M","","443.70000000298023","img/animal4.png","74","444.1000000014901","1","0","1","0.7,0,0.8,0.7,0.8,0,0.7,0.8,0",""
"","html-keyboard-response","35","40336","0.0-35.0","3MRNMEIQW6SIA77RZKEW2J1IW1OLDH","AOAZMLP27GD81","368IUKXGA5U7UZ9GQNUNOB4MGE4P6M","","null","<img src=""img/animal4.png"" style=""width:200px;border:14px solid red;"">","null","","","","","",""
"","image-keyboard-response","36","40684","0.0-36.0","3MRNMEIQW6SIA77RZKEW2J1IW1OLDH","AOAZMLP27GD81","368IUKXGA5U7UZ9GQNUNOB4MGE4P6M","","348.1000000014901","img/animal4.png","74","348.3999999985099","1","1","1","0.7,0,0.8,0.7,0.8,0,0.7,0.8,0",""
"","html-keyboard-response","37","40985","0.0-37.0","3MRNMEIQW6SIA77RZKEW2J1IW1OLDH","AOAZMLP27GD81","368IUKXGA5U7UZ9GQNUNOB4MGE4P6M","","null","<img src=""img/animal4.png"" style=""width:200px; border:14px solid green;"">","null","","","","","",""
"","image-keyboard-response","38","41586","0.0-38.0","3MRNMEIQW6SIA77RZKEW2J1IW1OLDH","AOAZMLP27GD81","368IUKXGA5U7UZ9GQNUNOB4MGE4P6M","","600.5","img/animal5.png","75","600.7999999970198","2","1","3","0.7,0,0.8,0.7,0.8,0,0.7,0.8,0",""
"","html-keyboard-response","39","41888","0.0-39.0","3MRNMEIQW6SIA77RZKEW2J1IW1OLDH","AOAZMLP27GD81","368IUKXGA5U7UZ9GQNUNOB4MGE4P6M","","null","<img src=""img/animal5.png"" style=""width:200px; border:14px solid green;"">","null","","","","","",""
"","image-keyboard-response","40","42535","0.0-40.0","3MRNMEIQW6SIA77RZKEW2J1IW1OLDH","AOAZMLP27GD81","368IUKXGA5U7UZ9GQNUNOB4MGE4P6M","","647.2000000029802","img/animal4.png","74","647.5","1","0","1","0.7,0,0.8,0.7,0.8,0,0.7,0.8,0",""
"","html-keyboard-response","41","42836","0.0-41.0","3MRNMEIQW6SIA77RZKEW2J1IW1OLDH","AOAZMLP27GD81","368IUKXGA5U7UZ9GQNUNOB4MGE4P6M","","null","<img src=""img/animal4.png"" style=""width:200px;border:14px solid red;"">","null","","","","","",""
"","image-keyboard-response","42","43443","0.0-42.0","3MRNMEIQW6SIA77RZKEW2J1IW1OLDH","AOAZMLP27GD81","368IUKXGA5U7UZ9GQNUNOB4MGE4P6M","","605.8999999985099","img/animal1.png","74","606.2999999970198","1","1","2","0.7,0,0.8,0.7,0.8,0,0.7,0.8,0",""
"","html-keyboard-response","43","43745","0.0-43.0","3MRNMEIQW6SIA77RZKEW2J1IW1OLDH","AOAZMLP27GD81","368IUKXGA5U7UZ9GQNUNOB4MGE4P6M","","null","<img src=""img/animal1.png"" style=""width:200px; border:14px solid green;"">","null","","","","","",""
"","image-keyboard-response","44","44343","0.0-44.0","3MRNMEIQW6SIA77RZKEW2J1IW1OLDH","AOAZMLP27GD81","368IUKXGA5U7UZ9GQNUNOB4MGE4P6M","","597.9000000059605","img/animal4.png","74","598.0999999940395","1","1","1","0.7,0,0.8,0.7,0.8,0,0.7,0.8,0",""
"","html-keyboard-response","45","44644","0.0-45.0","3MRNMEIQW6SIA77RZKEW2J1IW1OLDH","AOAZMLP27GD81","368IUKXGA5U7UZ9GQNUNOB4MGE4P6M","","null","<img src=""img/animal4.png"" style=""width:200px; border:14px solid green;"">","null","","","","","",""
"","image-keyboard-response","46","45132","0.0-46.0","3MRNMEIQW6SIA77RZKEW2J1IW1OLDH","AOAZMLP27GD81","368IUKXGA5U7UZ9GQNUNOB4MGE4P6M","","487.6000000014901","img/animal5.png","75","488","2","0","3","0.7,0,0.8,0.7,0.8,0,0.7,0.8,0",""
"","html-keyboard-response","47","45433","0.0-47.0","3MRNMEIQW6SIA77RZKEW2J1IW1OLDH","AOAZMLP27GD81","368IUKXGA5U7UZ9GQNUNOB4MGE4P6M","","null","<img src=""img/animal5.png"" style=""width:200px;border:14px solid red;"">","null","","","","","",""
"","image-keyboard-response","48","46190","0.0-48.0","3MRNMEIQW6SIA77RZKEW2J1IW1OLDH","AOAZMLP27GD81","368IUKXGA5U7UZ9GQNUNOB4MGE4P6M","","756.8000000044703","img/animal4.png","74","757.2000000029802","1","1","1","0.7,0,0.8,0.7,0.8,0,0.7,0.8,0",""
"","html-keyboard-response","49","46492","0.0-49.0","3MRNMEIQW6SIA77RZKEW2J1IW1OLDH","AOAZMLP27GD81","368IUKXGA5U7UZ9GQNUNOB4MGE4P6M","","null","<img src=""img/animal4.png"" style=""width:200px; border:14px solid green;"">","null","","","","","",""
"","image-keyboard-response","50","46793","0.0-50.0","3MRNMEIQW6SIA77RZKEW2J1IW1OLDH","AOAZMLP27GD81","368IUKXGA5U7UZ9GQNUNOB4MGE4P6M","","300.79999999701977","img/animal4.png","74","301.1000000014901","1","1","1","0.7,0,0.8,0.7,0.8,0,0.7,0.8,0",""
"","html-keyboard-response","51","47094","0.0-51.0","3MRNMEIQW6SIA77RZKEW2J1IW1OLDH","AOAZMLP27GD81","368IUKXGA5U7UZ9GQNUNOB4MGE4P6M","","null","<img src=""img/animal4.png"" style=""width:200px; border:14px solid green;"">","null","","","","","",""
"","image-keyboard-response","52","47512","0.0-52.0","3MRNMEIQW6SIA77RZKEW2J1IW1OLDH","AOAZMLP27GD81","368IUKXGA5U7UZ9GQNUNOB4MGE4P6M","","417","img/animal5.png","75","417.3999999985099","2","1","3","0.7,0,0.8,0.7,0.8,0,0.7,0.8,0",""
"","html-keyboard-response","53","47813","0.0-53.0","3MRNMEIQW6SIA77RZKEW2J1IW1OLDH","AOAZMLP27GD81","368IUKXGA5U7UZ9GQNUNOB4MGE4P6M","","null","<img src=""img/animal5.png"" style=""width:200px; border:14px solid green;"">","null","","","","","",""
"","image-keyboard-response","54","48372","0.0-54.0","3MRNMEIQW6SIA77RZKEW2J1IW1OLDH","AOAZMLP27GD81","368IUKXGA5U7UZ9GQNUNOB4MGE4P6M","","559.2000000029802","img/animal1.png","74","559.4000000059605","1","0","2","0.7,0,0.8,0.7,0.8,0,0.7,0.8,0",""
"","html-keyboard-response","55","48674","0.0-55.0","3MRNMEIQW6SIA77RZKEW2J1IW1OLDH","AOAZMLP27GD81","368IUKXGA5U7UZ9GQNUNOB4MGE4P6M","","null","<img src=""img/animal1.png"" style=""width:200px;border:14px solid red;"">","null","","","","","",""
"","image-keyboard-response","56","49220","0.0-56.0","3MRNMEIQW6SIA77RZKEW2J1IW1OLDH","AOAZMLP27GD81","368IUKXGA5U7UZ9GQNUNOB4MGE4P6M","","546.2999999970198","img/animal5.png","75","546.5","2","0","3","0.7,0,0.8,0.7,0.8,0,0.7,0.8,0",""
"","html-keyboard-response","57","49522","0.0-57.0","3MRNMEIQW6SIA77RZKEW2J1IW1OLDH","AOAZMLP27GD81","368IUKXGA5U7UZ9GQNUNOB4MGE4P6M","","null","<img src=""img/animal5.png"" style=""width:200px;border:14px solid red;"">","null","","","","","",""
"","image-keyboard-response","58","50025","0.0-58.0","3MRNMEIQW6SIA77RZKEW2J1IW1OLDH","AOAZMLP27GD81","368IUKXGA5U7UZ9GQNUNOB4MGE4P6M","","502.5","img/animal5.png","75","503","2","1","3","0.7,0,0.8,0.7,0.8,0,0.7,0.8,0",""
"","html-keyboard-response","59","50326","0.0-59.0","3MRNMEIQW6SIA77RZKEW2J1IW1OLDH","AOAZMLP27GD81","368IUKXGA5U7UZ9GQNUNOB4MGE4P6M","","null","<img src=""img/animal5.png"" style=""width:200px; border:14px solid green;"">","null","","","","","",""
"","image-keyboard-response","60","50786","0.0-60.0","3MRNMEIQW6SIA77RZKEW2J1IW1OLDH","AOAZMLP27GD81","368IUKXGA5U7UZ9GQNUNOB4MGE4P6M","","459.5","img/animal5.png","75","459.8999999985099","2","1","3","0.7,0,0.8,0.7,0.8,0,0.7,0.8,0",""
"","html-keyboard-response","61","51086","0.0-61.0","3MRNMEIQW6SIA77RZKEW2J1IW1OLDH","AOAZMLP27GD81","368IUKXGA5U7UZ9GQNUNOB4MGE4P6M","","null","<img src=""img/animal5.png"" style=""width:200px; border:14px solid green;"">","null","","","","","",""
"","image-keyboard-response","62","52245","0.0-62.0","3MRNMEIQW6SIA77RZKEW2J1IW1OLDH","AOAZMLP27GD81","368IUKXGA5U7UZ9GQNUNOB4MGE4P6M","","1158","img/animal1.png","75","1158.5","2","1","2","0.7,0,0.8,0.7,0.8,0,0.7,0.8,0",""
"","html-keyboard-response","63","52545","0.0-63.0","3MRNMEIQW6SIA77RZKEW2J1IW1OLDH","AOAZMLP27GD81","368IUKXGA5U7UZ9GQNUNOB4MGE4P6M","","null","<img src=""img/animal1.png"" style=""width:200px; border:14px solid green;"">","null","","","","","",""
"","image-keyboard-response","64","53251","0.0-64.0","3MRNMEIQW6SIA77RZKEW2J1IW1OLDH","AOAZMLP27GD81","368IUKXGA5U7UZ9GQNUNOB4MGE4P6M","","705.1999999955297","img/animal5.png","75","705.5","2","1","3","0.7,0,0.8,0.7,0.8,0,0.7,0.8,0",""
"","html-keyboard-response","65","53553","0.0-65.0","3MRNMEIQW6SIA77RZKEW2J1IW1OLDH","AOAZMLP27GD81","368IUKXGA5U7UZ9GQNUNOB4MGE4P6M","","null","<img src=""img/animal5.png"" style=""width:200px; border:14px solid green;"">","null","","","","","",""
"","image-keyboard-response","66","53886","0.0-66.0","3MRNMEIQW6SIA77RZKEW2J1IW1OLDH","AOAZMLP27GD81","368IUKXGA5U7UZ9GQNUNOB4MGE4P6M","","332.5","img/animal5.png","75","333","2","1","3","0.7,0,0.8,0.7,0.8,0,0.7,0.8,0",""
"","html-keyboard-response","67","54187","0.0-67.0","3MRNMEIQW6SIA77RZKEW2J1IW1OLDH","AOAZMLP27GD81","368IUKXGA5U7UZ9GQNUNOB4MGE4P6M","","null","<img src=""img/animal5.png"" style=""width:200px; border:14px solid green;"">","null","","","","","",""
"","image-keyboard-response","68","54470","0.0-68.0","3MRNMEIQW6SIA77RZKEW2J1IW1OLDH","AOAZMLP27GD81","368IUKXGA5U7UZ9GQNUNOB4MGE4P6M","","282.3999999985099","img/animal5.png","75","282.79999999701977","2","0","3","0.7,0,0.8,0.7,0.8,0,0.7,0.8,0",""
"","html-keyboard-response","69","54771","0.0-69.0","3MRNMEIQW6SIA77RZKEW2J1IW1OLDH","AOAZMLP27GD81","368IUKXGA5U7UZ9GQNUNOB4MGE4P6M","","null","<img src=""img/animal5.png"" style=""width:200px;border:14px solid red;"">","null","","","","","",""
"","image-keyboard-response","70","55365","0.0-70.0","3MRNMEIQW6SIA77RZKEW2J1IW1OLDH","AOAZMLP27GD81","368IUKXGA5U7UZ9GQNUNOB4MGE4P6M","","593.8999999985099","img/animal1.png","75","594.0999999940395","2","0","2","0.7,0,0.8,0.7,0.8,0,0.7,0.8,0",""
"","html-keyboard-response","71","55666","0.0-71.0","3MRNMEIQW6SIA77RZKEW2J1IW1OLDH","AOAZMLP27GD81","368IUKXGA5U7UZ9GQNUNOB4MGE4P6M","","null","<img src=""img/animal1.png"" style=""width:200px;border:14px solid red;"">","null","","","","","",""
"","image-keyboard-response","72","56198","0.0-72.0","3MRNMEIQW6SIA77RZKEW2J1IW1OLDH","AOAZMLP27GD81","368IUKXGA5U7UZ9GQNUNOB4MGE4P6M","","531.2000000029802","img/animal5.png","74","531.6000000014901","1","1","3","0.7,0,0.8,0.7,0.8,0,0.7,0.8,0",""
"","html-keyboard-response","73","56499","0.0-73.0","3MRNMEIQW6SIA77RZKEW2J1IW1OLDH","AOAZMLP27GD81","368IUKXGA5U7UZ9GQNUNOB4MGE4P6M","","null","<img src=""img/animal5.png"" style=""width:200px; border:14px solid green;"">","null","","","","","",""
"","image-keyboard-response","74","58692","0.0-74.0","3MRNMEIQW6SIA77RZKEW2J1IW1OLDH","AOAZMLP27GD81","368IUKXGA5U7UZ9GQNUNOB4MGE4P6M","","2192.8000000044703","img/animal4.png","74","2193.10000000149","1","0","1","0.7,0,0.8,0.7,0.8,0,0.7,0.8,0",""
"","html-keyboard-response","75","58994","0.0-75.0","3MRNMEIQW6SIA77RZKEW2J1IW1OLDH","AOAZMLP27GD81","368IUKXGA5U7UZ9GQNUNOB4MGE4P6M","","null","<img src=""img/animal4.png"" style=""width:200px;border:14px solid red;"">","null","","","","","",""
"","image-keyboard-response","76","59581","0.0-76.0","3MRNMEIQW6SIA77RZKEW2J1IW1OLDH","AOAZMLP27GD81","368IUKXGA5U7UZ9GQNUNOB4MGE4P6M","","586.6999999955297","img/animal1.png","75","587","2","1","2","0.7,0,0.8,0.7,0.8,0,0.7,0.8,0",""
"","html-keyboard-response","77","59882","0.0-77.0","3MRNMEIQW6SIA77RZKEW2J1IW1OLDH","AOAZMLP27GD81","368IUKXGA5U7UZ9GQNUNOB4MGE4P6M","","null","<img src=""img/animal1.png"" style=""width:200px; border:14px solid green;"">","null","","","","","",""
"","image-keyboard-response","78","60157","0.0-78.0","3MRNMEIQW6SIA77RZKEW2J1IW1OLDH","AOAZMLP27GD81","368IUKXGA5U7UZ9GQNUNOB4MGE4P6M","","274.29999999701977","img/animal1.png","75","274.79999999701977","2","1","2","0.7,0,0.8,0.7,0.8,0,0.7,0.8,0",""
"","html-keyboard-response","79","60458","0.0-79.0","3MRNMEIQW6SIA77RZKEW2J1IW1OLDH","AOAZMLP27GD81","368IUKXGA5U7UZ9GQNUNOB4MGE4P6M","","null","<img src=""img/animal1.png"" style=""width:200px; border:14px solid green;"">","null","","","","","",""
"","image-keyboard-response","80","60685","0.0-80.0","3MRNMEIQW6SIA77RZKEW2J1IW1OLDH","AOAZMLP27GD81","368IUKXGA5U7UZ9GQNUNOB4MGE4P6M","","226.79999999701977","img/animal5.png","75","227.19999999552965","2","1","3","0.7,0,0.8,0.7,0.8,0,0.7,0.8,0",""
"","html-keyboard-response","81","60986","0.0-81.0","3MRNMEIQW6SIA77RZKEW2J1IW1OLDH","AOAZMLP27GD81","368IUKXGA5U7UZ9GQNUNOB4MGE4P6M","","null","<img src=""img/animal5.png"" style=""width:200px; border:14px solid green;"">","null","","","","","",""
"","image-keyboard-response","82","61257","0.0-82.0","3MRNMEIQW6SIA77RZKEW2J1IW1OLDH","AOAZMLP27GD81","368IUKXGA5U7UZ9GQNUNOB4MGE4P6M","","271.1000000014901","img/animal5.png","75","271.59999999403954","2","0","3","0.7,0,0.8,0.7,0.8,0,0.7,0.8,0",""
"","html-keyboard-response","83","61559","0.0-83.0","3MRNMEIQW6SIA77RZKEW2J1IW1OLDH","AOAZMLP27GD81","368IUKXGA5U7UZ9GQNUNOB4MGE4P6M","","null","<img src=""img/animal5.png"" style=""width:200px;border:14px solid red;"">","null","","","","","",""
"","image-keyboard-response","84","61837","0.0-84.0","3MRNMEIQW6SIA77RZKEW2J1IW1OLDH","AOAZMLP27GD81","368IUKXGA5U7UZ9GQNUNOB4MGE4P6M","","277.6000000014901","img/animal5.png","75","278","2","1","3","0.7,0,0.8,0.7,0.8,0,0.7,0.8,0",""
"","html-keyboard-response","85","62139","0.0-85.0","3MRNMEIQW6SIA77RZKEW2J1IW1OLDH","AOAZMLP27GD81","368IUKXGA5U7UZ9GQNUNOB4MGE4P6M","","null","<img src=""img/animal5.png"" style=""width:200px; border:14px solid green;"">","null","","","","","",""
"","image-keyboard-response","86","62438","0.0-86.0","3MRNMEIQW6SIA77RZKEW2J1IW1OLDH","AOAZMLP27GD81","368IUKXGA5U7UZ9GQNUNOB4MGE4P6M","","298.1000000014901","img/animal5.png","75","298.6000000014901","2","1","3","0.7,0,0.8,0.7,0.8,0,0.7,0.8,0",""
"","html-keyboard-response","87","62739","0.0-87.0","3MRNMEIQW6SIA77RZKEW2J1IW1OLDH","AOAZMLP27GD81","368IUKXGA5U7UZ9GQNUNOB4MGE4P6M","","null","<img src=""img/animal5.png"" style=""width:200px; border:14px solid green;"">","null","","","","","",""
"","image-keyboard-response","88","62957","0.0-88.0","3MRNMEIQW6SIA77RZKEW2J1IW1OLDH","AOAZMLP27GD81","368IUKXGA5U7UZ9GQNUNOB4MGE4P6M","","217.39999999850988","img/animal4.png","75","217.60000000149012","2","0","1","0.7,0,0.8,0.7,0.8,0,0.7,0.8,0",""
"","html-keyboard-response","89","63259","0.0-89.0","3MRNMEIQW6SIA77RZKEW2J1IW1OLDH","AOAZMLP27GD81","368IUKXGA5U7UZ9GQNUNOB4MGE4P6M","","null","<img src=""img/animal4.png"" style=""width:200px;border:14px solid red;"">","null","","","","","",""
"","image-keyboard-response","90","64027","0.0-90.0","3MRNMEIQW6SIA77RZKEW2J1IW1OLDH","AOAZMLP27GD81","368IUKXGA5U7UZ9GQNUNOB4MGE4P6M","","767.7000000029802","img/animal5.png","75","768.1000000014901","2","1","3","0.7,0,0.8,0.7,0.8,0,0.7,0.8,0",""
"","html-keyboard-response","91","64328","0.0-91.0","3MRNMEIQW6SIA77RZKEW2J1IW1OLDH","AOAZMLP27GD81","368IUKXGA5U7UZ9GQNUNOB4MGE4P6M","","null","<img src=""img/animal5.png"" style=""width:200px; border:14px solid green;"">","null","","","","","",""
"","image-keyboard-response","92","64745","0.0-92.0","3MRNMEIQW6SIA77RZKEW2J1IW1OLDH","AOAZMLP27GD81","368IUKXGA5U7UZ9GQNUNOB4MGE4P6M","","416.30000000447035","img/animal1.png","74","416.79999999701977","1","1","2","0.7,0,0.8,0.7,0.8,0,0.7,0.8,0",""
"","html-keyboard-response","93","65046","0.0-93.0","3MRNMEIQW6SIA77RZKEW2J1IW1OLDH","AOAZMLP27GD81","368IUKXGA5U7UZ9GQNUNOB4MGE4P6M","","null","<img src=""img/animal1.png"" style=""width:200px; border:14px solid green;"">","null","","","","","",""
"","image-keyboard-response","94","67087","0.0-94.0","3MRNMEIQW6SIA77RZKEW2J1IW1OLDH","AOAZMLP27GD81","368IUKXGA5U7UZ9GQNUNOB4MGE4P6M","","2040.2000000029802","img/animal5.png","75","2040.6000000014901","2","1","3","0.7,0,0.8,0.7,0.8,0,0.7,0.8,0",""
"","html-keyboard-response","95","67389","0.0-95.0","3MRNMEIQW6SIA77RZKEW2J1IW1OLDH","AOAZMLP27GD81","368IUKXGA5U7UZ9GQNUNOB4MGE4P6M","","null","<img src=""img/animal5.png"" style=""width:200px; border:14px solid green;"">","null","","","","","",""
"","image-keyboard-response","96","68139","0.0-96.0","3MRNMEIQW6SIA77RZKEW2J1IW1OLDH","AOAZMLP27GD81","368IUKXGA5U7UZ9GQNUNOB4MGE4P6M","","749","img/animal4.png","74","749.3999999985099","1","1","1","0.7,0,0.8,0.7,0.8,0,0.7,0.8,0",""
"","html-keyboard-response","97","68440","0.0-97.0","3MRNMEIQW6SIA77RZKEW2J1IW1OLDH","AOAZMLP27GD81","368IUKXGA5U7UZ9GQNUNOB4MGE4P6M","","null","<img src=""img/animal4.png"" style=""width:200px; border:14px solid green;"">","null","","","","","",""
"","image-keyboard-response","98","69159","0.0-98.0","3MRNMEIQW6SIA77RZKEW2J1IW1OLDH","AOAZMLP27GD81","368IUKXGA5U7UZ9GQNUNOB4MGE4P6M","","718.3000000044703","img/animal5.png","75","718.6000000014901","2","1","3","0.7,0,0.8,0.7,0.8,0,0.7,0.8,0",""
"","html-keyboard-response","99","69460","0.0-99.0","3MRNMEIQW6SIA77RZKEW2J1IW1OLDH","AOAZMLP27GD81","368IUKXGA5U7UZ9GQNUNOB4MGE4P6M","","null","<img src=""img/animal5.png"" style=""width:200px; border:14px solid green;"">","null","","","","","",""
"","image-keyboard-response","100","70432","0.0-100.0","3MRNMEIQW6SIA77RZKEW2J1IW1OLDH","AOAZMLP27GD81","368IUKXGA5U7UZ9GQNUNOB4MGE4P6M","","971.1000000014901","img/animal1.png","75","971.6000000014901","2","1","2","0.7,0,0.8,0.7,0.8,0,0.7,0.8,0",""
"","html-keyboard-response","101","70733","0.0-101.0","3MRNMEIQW6SIA77RZKEW2J1IW1OLDH","AOAZMLP27GD81","368IUKXGA5U7UZ9GQNUNOB4MGE4P6M","","null","<img src=""img/animal1.png"" style=""width:200px; border:14px solid green;"">","null","","","","","",""
"","image-keyboard-response","102","71507","0.0-102.0","3MRNMEIQW6SIA77RZKEW2J1IW1OLDH","AOAZMLP27GD81","368IUKXGA5U7UZ9GQNUNOB4MGE4P6M","","773.8000000044703","img/animal4.png","74","774.1000000014901","1","0","1","0.7,0,0.8,0.7,0.8,0,0.7,0.8,0",""
"","html-keyboard-response","103","71808","0.0-103.0","3MRNMEIQW6SIA77RZKEW2J1IW1OLDH","AOAZMLP27GD81","368IUKXGA5U7UZ9GQNUNOB4MGE4P6M","","null","<img src=""img/animal4.png"" style=""width:200px;border:14px solid red;"">","null","","","","","",""
"","image-keyboard-response","104","72417","0.0-104.0","3MRNMEIQW6SIA77RZKEW2J1IW1OLDH","AOAZMLP27GD81","368IUKXGA5U7UZ9GQNUNOB4MGE4P6M","","608.5999999940395","img/animal1.png","75","608.7999999970198","2","0","2","0.7,0,0.8,0.7,0.8,0,0.7,0.8,0",""
"","html-keyboard-response","105","72719","0.0-105.0","3MRNMEIQW6SIA77RZKEW2J1IW1OLDH","AOAZMLP27GD81","368IUKXGA5U7UZ9GQNUNOB4MGE4P6M","","null","<img src=""img/animal1.png"" style=""width:200px;border:14px solid red;"">","null","","","","","",""
"","image-keyboard-response","106","73393","0.0-106.0","3MRNMEIQW6SIA77RZKEW2J1IW1OLDH","AOAZMLP27GD81","368IUKXGA5U7UZ9GQNUNOB4MGE4P6M","","673.8999999985099","img/animal5.png","75","674.1999999955297","2","1","3","0.7,0,0.8,0.7,0.8,0,0.7,0.8,0",""
"","html-keyboard-response","107","73695","0.0-107.0","3MRNMEIQW6SIA77RZKEW2J1IW1OLDH","AOAZMLP27GD81","368IUKXGA5U7UZ9GQNUNOB4MGE4P6M","","null","<img src=""img/animal5.png"" style=""width:200px; border:14px solid green;"">","null","","","","","",""
"","image-keyboard-response","108","74032","0.0-108.0","3MRNMEIQW6SIA77RZKEW2J1IW1OLDH","AOAZMLP27GD81","368IUKXGA5U7UZ9GQNUNOB4MGE4P6M","","336.80000000447035","img/animal1.png","75","337.1000000014901","2","1","2","0.7,0,0.8,0.7,0.8,0,0.7,0.8,0",""
"","html-keyboard-response","109","74334","0.0-109.0","3MRNMEIQW6SIA77RZKEW2J1IW1OLDH","AOAZMLP27GD81","368IUKXGA5U7UZ9GQNUNOB4MGE4P6M","","null","<img src=""img/animal1.png"" style=""width:200px; border:14px solid green;"">","null","","","","","",""
"","image-keyboard-response","110","74456","0.0-110.0","3MRNMEIQW6SIA77RZKEW2J1IW1OLDH","AOAZMLP27GD81","368IUKXGA5U7UZ9GQNUNOB4MGE4P6M","","121.20000000298023","img/animal4.png","75","121.60000000149012","2","0","1","0.7,0,0.8,0.7,0.8,0,0.7,0.8,0",""
"","html-keyboard-response","111","74757","0.0-111.0","3MRNMEIQW6SIA77RZKEW2J1IW1OLDH","AOAZMLP27GD81","368IUKXGA5U7UZ9GQNUNOB4MGE4P6M","","null","<img src=""img/animal4.png"" style=""width:200px;border:14px solid red;"">","null","","","","","",""
"","image-keyboard-response","112","75234","0.0-112.0","3MRNMEIQW6SIA77RZKEW2J1IW1OLDH","AOAZMLP27GD81","368IUKXGA5U7UZ9GQNUNOB4MGE4P6M","","476","img/animal4.png","74","476.3999999985099","1","1","1","0.7,0,0.8,0.7,0.8,0,0.7,0.8,0",""
"","html-keyboard-response","113","75535","0.0-113.0","3MRNMEIQW6SIA77RZKEW2J1IW1OLDH","AOAZMLP27GD81","368IUKXGA5U7UZ9GQNUNOB4MGE4P6M","","null","<img src=""img/animal4.png"" style=""width:200px; border:14px solid green;"">","null","","","","","",""
"","image-keyboard-response","114","76061","0.0-114.0","3MRNMEIQW6SIA77RZKEW2J1IW1OLDH","AOAZMLP27GD81","368IUKXGA5U7UZ9GQNUNOB4MGE4P6M","","525.8000000044703","img/animal1.png","75","526.2000000029802","2","1","2","0.7,0,0.8,0.7,0.8,0,0.7,0.8,0",""
"","html-keyboard-response","115","76363","0.0-115.0","3MRNMEIQW6SIA77RZKEW2J1IW1OLDH","AOAZMLP27GD81","368IUKXGA5U7UZ9GQNUNOB4MGE4P6M","","null","<img src=""img/animal1.png"" style=""width:200px; border:14px solid green;"">","null","","","","","",""
"","image-keyboard-response","116","76880","0.0-116.0","3MRNMEIQW6SIA77RZKEW2J1IW1OLDH","AOAZMLP27GD81","368IUKXGA5U7UZ9GQNUNOB4MGE4P6M","","516","img/animal4.png","74","516.2000000029802","1","1","1","0.7,0,0.8,0.7,0.8,0,0.7,0.8,0",""
"","html-keyboard-response","117","77180","0.0-117.0","3MRNMEIQW6SIA77RZKEW2J1IW1OLDH","AOAZMLP27GD81","368IUKXGA5U7UZ9GQNUNOB4MGE4P6M","","null","<img src=""img/animal4.png"" style=""width:200px; border:14px solid green;"">","null","","","","","",""
"","image-keyboard-response","118","77703","0.0-118.0","3MRNMEIQW6SIA77RZKEW2J1IW1OLDH","AOAZMLP27GD81","368IUKXGA5U7UZ9GQNUNOB4MGE4P6M","","521.8999999985099","img/animal5.png","75","522.2999999970198","2","1","3","0.7,0,0.8,0.7,0.8,0,0.7,0.8,0",""
"","html-keyboard-response","119","78005","0.0-119.0","3MRNMEIQW6SIA77RZKEW2J1IW1OLDH","AOAZMLP27GD81","368IUKXGA5U7UZ9GQNUNOB4MGE4P6M","","null","<img src=""img/animal5.png"" style=""width:200px; border:14px solid green;"">","null","","","","","",""
"","image-keyboard-response","120","78474","0.0-120.0","3MRNMEIQW6SIA77RZKEW2J1IW1OLDH","AOAZMLP27GD81","368IUKXGA5U7UZ9GQNUNOB4MGE4P6M","","468.3999999985099","img/animal4.png","74","468.6000000014901","1","1","1","0.7,0,0.8,0.7,0.8,0,0.7,0.8,0",""
"","html-keyboard-response","121","78775","0.0-121.0","3MRNMEIQW6SIA77RZKEW2J1IW1OLDH","AOAZMLP27GD81","368IUKXGA5U7UZ9GQNUNOB4MGE4P6M","","null","<img src=""img/animal4.png"" style=""width:200px; border:14px solid green;"">","null","","","","","",""
"","image-keyboard-response","122","79286","0.0-122.0","3MRNMEIQW6SIA77RZKEW2J1IW1OLDH","AOAZMLP27GD81","368IUKXGA5U7UZ9GQNUNOB4MGE4P6M","","510.80000000447035","img/animal1.png","75","511.29999999701977","2","1","2","0.7,0,0.8,0.7,0.8,0,0.7,0.8,0",""
"","html-keyboard-response","123","79587","0.0-123.0","3MRNMEIQW6SIA77RZKEW2J1IW1OLDH","AOAZMLP27GD81","368IUKXGA5U7UZ9GQNUNOB4MGE4P6M","","null","<img src=""img/animal1.png"" style=""width:200px; border:14px solid green;"">","null","","","","","",""
"","image-keyboard-response","124","80193","0.0-124.0","3MRNMEIQW6SIA77RZKEW2J1IW1OLDH","AOAZMLP27GD81","368IUKXGA5U7UZ9GQNUNOB4MGE4P6M","","605","img/animal4.png","74","605.2999999970198","1","1","1","0.7,0,0.8,0.7,0.8,0,0.7,0.8,0",""
"","html-keyboard-response","125","80494","0.0-125.0","3MRNMEIQW6SIA77RZKEW2J1IW1OLDH","AOAZMLP27GD81","368IUKXGA5U7UZ9GQNUNOB4MGE4P6M","","null","<img src=""img/animal4.png"" style=""width:200px; border:14px solid green;"">","null","","","","","",""
"","image-keyboard-response","126","80902","0.0-126.0","3MRNMEIQW6SIA77RZKEW2J1IW1OLDH","AOAZMLP27GD81","368IUKXGA5U7UZ9GQNUNOB4MGE4P6M","","407","img/animal4.png","74","407.6000000014901","1","0","1","0.7,0,0.8,0.7,0.8,0,0.7,0.8,0",""
"","html-keyboard-response","127","81203","0.0-127.0","3MRNMEIQW6SIA77RZKEW2J1IW1OLDH","AOAZMLP27GD81","368IUKXGA5U7UZ9GQNUNOB4MGE4P6M","","null","<img src=""img/animal4.png"" style=""width:200px;border:14px solid red;"">","null","","","","","",""
"","image-keyboard-response","128","81675","0.0-128.0","3MRNMEIQW6SIA77RZKEW2J1IW1OLDH","AOAZMLP27GD81","368IUKXGA5U7UZ9GQNUNOB4MGE4P6M","","471.5","img/animal5.png","75","471.90000000596046","2","1","3","0.7,0,0.8,0.7,0.8,0,0.7,0.8,0",""
"","html-keyboard-response","129","81977","0.0-129.0","3MRNMEIQW6SIA77RZKEW2J1IW1OLDH","AOAZMLP27GD81","368IUKXGA5U7UZ9GQNUNOB4MGE4P6M","","null","<img src=""img/animal5.png"" style=""width:200px; border:14px solid green;"">","null","","","","","",""
"","image-keyboard-response","130","82494","0.0-130.0","3MRNMEIQW6SIA77RZKEW2J1IW1OLDH","AOAZMLP27GD81","368IUKXGA5U7UZ9GQNUNOB4MGE4P6M","","516.2999999970198","img/animal1.png","74","516.7000000029802","1","1","2","0.7,0,0.8,0.7,0.8,0,0.7,0.8,0",""
"","html-keyboard-response","131","82795","0.0-131.0","3MRNMEIQW6SIA77RZKEW2J1IW1OLDH","AOAZMLP27GD81","368IUKXGA5U7UZ9GQNUNOB4MGE4P6M","","null","<img src=""img/animal1.png"" style=""width:200px; border:14px solid green;"">","null","","","","","",""
"","image-keyboard-response","132","83941","0.0-132.0","3MRNMEIQW6SIA77RZKEW2J1IW1OLDH","AOAZMLP27GD81","368IUKXGA5U7UZ9GQNUNOB4MGE4P6M","","1145.5","img/animal4.png","74","1145.8999999985099","1","1","1","0.7,0,0.8,0.7,0.8,0,0.7,0.8,0",""
"","html-keyboard-response","133","84241","0.0-133.0","3MRNMEIQW6SIA77RZKEW2J1IW1OLDH","AOAZMLP27GD81","368IUKXGA5U7UZ9GQNUNOB4MGE4P6M","","null","<img src=""img/animal4.png"" style=""width:200px; border:14px solid green;"">","null","","","","","",""
"","image-keyboard-response","134","84934","0.0-134.0","3MRNMEIQW6SIA77RZKEW2J1IW1OLDH","AOAZMLP27GD81","368IUKXGA5U7UZ9GQNUNOB4MGE4P6M","","692","img/animal1.png","74","692.2999999970198","1","1","2","0.7,0,0.8,0.7,0.8,0,0.7,0.8,0",""
"","html-keyboard-response","135","85235","0.0-135.0","3MRNMEIQW6SIA77RZKEW2J1IW1OLDH","AOAZMLP27GD81","368IUKXGA5U7UZ9GQNUNOB4MGE4P6M","","null","<img src=""img/animal1.png"" style=""width:200px; border:14px solid green;"">","null","","","","","",""
"","image-keyboard-response","136","86277","0.0-136.0","3MRNMEIQW6SIA77RZKEW2J1IW1OLDH","AOAZMLP27GD81","368IUKXGA5U7UZ9GQNUNOB4MGE4P6M","","1041.2999999970198","img/animal4.png","74","1041.6000000014901","1","1","1","0.7,0,0.8,0.7,0.8,0,0.7,0.8,0",""
"","html-keyboard-response","137","86578","0.0-137.0","3MRNMEIQW6SIA77RZKEW2J1IW1OLDH","AOAZMLP27GD81","368IUKXGA5U7UZ9GQNUNOB4MGE4P6M","","null","<img src=""img/animal4.png"" style=""width:200px; border:14px solid green;"">","null","","","","","",""
"","image-keyboard-response","138","87058","0.0-138.0","3MRNMEIQW6SIA77RZKEW2J1IW1OLDH","AOAZMLP27GD81","368IUKXGA5U7UZ9GQNUNOB4MGE4P6M","","479","img/animal1.png","74","479.5","1","1","2","0.7,0,0.8,0.7,0.8,0,0.7,0.8,0",""
"","html-keyboard-response","139","87360","0.0-139.0","3MRNMEIQW6SIA77RZKEW2J1IW1OLDH","AOAZMLP27GD81","368IUKXGA5U7UZ9GQNUNOB4MGE4P6M","","null","<img src=""img/animal1.png"" style=""width:200px; border:14px solid green;"">","null","","","","","",""
"","image-keyboard-response","140","87787","0.0-140.0","3MRNMEIQW6SIA77RZKEW2J1IW1OLDH","AOAZMLP27GD81","368IUKXGA5U7UZ9GQNUNOB4MGE4P6M","","426.1000000014901","img/animal1.png","74","426.59999999403954","1","1","2","0.7,0,0.8,0.7,0.8,0,0.7,0.8,0",""
"","html-keyboard-response","141","88088","0.0-141.0","3MRNMEIQW6SIA77RZKEW2J1IW1OLDH","AOAZMLP27GD81","368IUKXGA5U7UZ9GQNUNOB4MGE4P6M","","null","<img src=""img/animal1.png"" style=""width:200px; border:14px solid green;"">","null","","","","","",""
"","image-keyboard-response","142","89130","0.0-142.0","3MRNMEIQW6SIA77RZKEW2J1IW1OLDH","AOAZMLP27GD81","368IUKXGA5U7UZ9GQNUNOB4MGE4P6M","","1041.3999999985099","img/animal5.png","75","1041.8999999985099","2","1","3","0.7,0,0.8,0.7,0.8,0,0.7,0.8,0",""
"","html-keyboard-response","143","89431","0.0-143.0","3MRNMEIQW6SIA77RZKEW2J1IW1OLDH","AOAZMLP27GD81","368IUKXGA5U7UZ9GQNUNOB4MGE4P6M","","null","<img src=""img/animal5.png"" style=""width:200px; border:14px solid green;"">","null","","","","","",""
"","image-keyboard-response","144","89990","0.0-144.0","3MRNMEIQW6SIA77RZKEW2J1IW1OLDH","AOAZMLP27GD81","368IUKXGA5U7UZ9GQNUNOB4MGE4P6M","","558.2000000029802","img/animal4.png","74","558.5","1","1","1","0.7,0,0.8,0.7,0.8,0,0.7,0.8,0",""
"","html-keyboard-response","145","90291","0.0-145.0","3MRNMEIQW6SIA77RZKEW2J1IW1OLDH","AOAZMLP27GD81","368IUKXGA5U7UZ9GQNUNOB4MGE4P6M","","null","<img src=""img/animal4.png"" style=""width:200px; border:14px solid green;"">","null","","","","","",""
"","image-keyboard-response","146","90846","0.0-146.0","3MRNMEIQW6SIA77RZKEW2J1IW1OLDH","AOAZMLP27GD81","368IUKXGA5U7UZ9GQNUNOB4MGE4P6M","","554.1000000014901","img/animal1.png","74","554.4000000059605","1","1","2","0.7,0,0.8,0.7,0.8,0,0.7,0.8,0",""
"","html-keyboard-response","147","91148","0.0-147.0","3MRNMEIQW6SIA77RZKEW2J1IW1OLDH","AOAZMLP27GD81","368IUKXGA5U7UZ9GQNUNOB4MGE4P6M","","null","<img src=""img/animal1.png"" style=""width:200px; border:14px solid green;"">","null","","","","","",""
"","image-keyboard-response","148","91624","0.0-148.0","3MRNMEIQW6SIA77RZKEW2J1IW1OLDH","AOAZMLP27GD81","368IUKXGA5U7UZ9GQNUNOB4MGE4P6M","","476.3999999985099","img/animal5.png","75","476.79999999701977","2","1","3","0.7,0,0.8,0.7,0.8,0,0.7,0.8,0",""
"","html-keyboard-response","149","91926","0.0-149.0","3MRNMEIQW6SIA77RZKEW2J1IW1OLDH","AOAZMLP27GD81","368IUKXGA5U7UZ9GQNUNOB4MGE4P6M","","null","<img src=""img/animal5.png"" style=""width:200px; border:14px solid green;"">","null","","","","","",""
"","image-keyboard-response","150","92349","0.0-150.0","3MRNMEIQW6SIA77RZKEW2J1IW1OLDH","AOAZMLP27GD81","368IUKXGA5U7UZ9GQNUNOB4MGE4P6M","","422.3999999985099","img/animal1.png","74","422.70000000298023","1","0","2","0.7,0,0.8,0.7,0.8,0,0.7,0.8,0",""
"","html-keyboard-response","151","92650","0.0-151.0","3MRNMEIQW6SIA77RZKEW2J1IW1OLDH","AOAZMLP27GD81","368IUKXGA5U7UZ9GQNUNOB4MGE4P6M","","null","<img src=""img/animal1.png"" style=""width:200px;border:14px solid red;"">","null","","","","","",""
"","image-keyboard-response","152","93255","0.0-152.0","3MRNMEIQW6SIA77RZKEW2J1IW1OLDH","AOAZMLP27GD81","368IUKXGA5U7UZ9GQNUNOB4MGE4P6M","","604.2999999970198","img/animal4.png","74","604.5","1","1","1","0.7,0,0.8,0.7,0.8,0,0.7,0.8,0",""
"","html-keyboard-response","153","93556","0.0-153.0","3MRNMEIQW6SIA77RZKEW2J1IW1OLDH","AOAZMLP27GD81","368IUKXGA5U7UZ9GQNUNOB4MGE4P6M","","null","<img src=""img/animal4.png"" style=""width:200px; border:14px solid green;"">","null","","","","","",""
"","image-keyboard-response","154","93946","0.0-154.0","3MRNMEIQW6SIA77RZKEW2J1IW1OLDH","AOAZMLP27GD81","368IUKXGA5U7UZ9GQNUNOB4MGE4P6M","","389.90000000596046","img/animal1.png","74","390.29999999701977","1","1","2","0.7,0,0.8,0.7,0.8,0,0.7,0.8,0",""
"","html-keyboard-response","155","94248","0.0-155.0","3MRNMEIQW6SIA77RZKEW2J1IW1OLDH","AOAZMLP27GD81","368IUKXGA5U7UZ9GQNUNOB4MGE4P6M","","null","<img src=""img/animal1.png"" style=""width:200px; border:14px solid green;"">","null","","","","","",""
"","image-keyboard-response","156","94606","0.0-156.0","3MRNMEIQW6SIA77RZKEW2J1IW1OLDH","AOAZMLP27GD81","368IUKXGA5U7UZ9GQNUNOB4MGE4P6M","","358.3999999985099","img/animal1.png","74","358.8999999985099","1","0","2","0.7,0,0.8,0.7,0.8,0,0.7,0.8,0",""
"","html-keyboard-response","157","94908","0.0-157.0","3MRNMEIQW6SIA77RZKEW2J1IW1OLDH","AOAZMLP27GD81","368IUKXGA5U7UZ9GQNUNOB4MGE4P6M","","null","<img src=""img/animal1.png"" style=""width:200px;border:14px solid red;"">","null","","","","","",""
"","image-keyboard-response","158","95190","0.0-158.0","3MRNMEIQW6SIA77RZKEW2J1IW1OLDH","AOAZMLP27GD81","368IUKXGA5U7UZ9GQNUNOB4MGE4P6M","","281.3999999985099","img/animal1.png","74","281.70000000298023","1","1","2","0.7,0,0.8,0.7,0.8,0,0.7,0.8,0",""
"","html-keyboard-response","159","95491","0.0-159.0","3MRNMEIQW6SIA77RZKEW2J1IW1OLDH","AOAZMLP27GD81","368IUKXGA5U7UZ9GQNUNOB4MGE4P6M","","null","<img src=""img/animal1.png"" style=""width:200px; border:14px solid green;"">","null","","","","","",""
"","image-keyboard-response","160","95800","0.0-160.0","3MRNMEIQW6SIA77RZKEW2J1IW1OLDH","AOAZMLP27GD81","368IUKXGA5U7UZ9GQNUNOB4MGE4P6M","","307.8999999985099","img/animal1.png","74","308.20000000298023","1","1","2","0.7,0,0.8,0.7,0.8,0,0.7,0.8,0",""
"","html-keyboard-response","161","96101","0.0-161.0","3MRNMEIQW6SIA77RZKEW2J1IW1OLDH","AOAZMLP27GD81","368IUKXGA5U7UZ9GQNUNOB4MGE4P6M","","null","<img src=""img/animal1.png"" style=""width:200px; border:14px solid green;"">","null","","","","","",""
"","image-keyboard-response","162","96585","0.0-162.0","3MRNMEIQW6SIA77RZKEW2J1IW1OLDH","AOAZMLP27GD81","368IUKXGA5U7UZ9GQNUNOB4MGE4P6M","","483.3999999985099","img/animal5.png","75","483.90000000596046","2","1","3","0.7,0,0.8,0.7,0.8,0,0.7,0.8,0",""
"","html-keyboard-response","163","96887","0.0-163.0","3MRNMEIQW6SIA77RZKEW2J1IW1OLDH","AOAZMLP27GD81","368IUKXGA5U7UZ9GQNUNOB4MGE4P6M","","null","<img src=""img/animal5.png"" style=""width:200px; border:14px solid green;"">","null","","","","","",""
"","image-keyboard-response","164","97582","0.0-164.0","3MRNMEIQW6SIA77RZKEW2J1IW1OLDH","AOAZMLP27GD81","368IUKXGA5U7UZ9GQNUNOB4MGE4P6M","","694.6000000014901","img/animal1.png","74","694.7999999970198","1","1","2","0.7,0,0.8,0.7,0.8,0,0.7,0.8,0",""
"","html-keyboard-response","165","97883","0.0-165.0","3MRNMEIQW6SIA77RZKEW2J1IW1OLDH","AOAZMLP27GD81","368IUKXGA5U7UZ9GQNUNOB4MGE4P6M","","null","<img src=""img/animal1.png"" style=""width:200px; border:14px solid green;"">","null","","","","","",""
"","image-keyboard-response","166","98446","0.0-166.0","3MRNMEIQW6SIA77RZKEW2J1IW1OLDH","AOAZMLP27GD81","368IUKXGA5U7UZ9GQNUNOB4MGE4P6M","","562.8000000044703","img/animal4.png","74","563.0999999940395","1","1","1","0.7,0,0.8,0.7,0.8,0,0.7,0.8,0",""
"","html-keyboard-response","167","98747","0.0-167.0","3MRNMEIQW6SIA77RZKEW2J1IW1OLDH","AOAZMLP27GD81","368IUKXGA5U7UZ9GQNUNOB4MGE4P6M","","null","<img src=""img/animal4.png"" style=""width:200px; border:14px solid green;"">","null","","","","","",""
"","image-keyboard-response","168","99031","0.0-168.0","3MRNMEIQW6SIA77RZKEW2J1IW1OLDH","AOAZMLP27GD81","368IUKXGA5U7UZ9GQNUNOB4MGE4P6M","","283.09999999403954","img/animal4.png","74","283.3999999985099","1","0","1","0.7,0,0.8,0.7,0.8,0,0.7,0.8,0",""
"","html-keyboard-response","169","99333","0.0-169.0","3MRNMEIQW6SIA77RZKEW2J1IW1OLDH","AOAZMLP27GD81","368IUKXGA5U7UZ9GQNUNOB4MGE4P6M","","null","<img src=""img/animal4.png"" style=""width:200px;border:14px solid red;"">","null","","","","","",""
"","image-keyboard-response","170","99607","0.0-170.0","3MRNMEIQW6SIA77RZKEW2J1IW1OLDH","AOAZMLP27GD81","368IUKXGA5U7UZ9GQNUNOB4MGE4P6M","","273.70000000298023","img/animal1.png","74","274.1000000014901","1","1","2","0.7,0,0.8,0.7,0.8,0,0.7,0.8,0",""
"","html-keyboard-response","171","99909","0.0-171.0","3MRNMEIQW6SIA77RZKEW2J1IW1OLDH","AOAZMLP27GD81","368IUKXGA5U7UZ9GQNUNOB4MGE4P6M","","null","<img src=""img/animal1.png"" style=""width:200px; border:14px solid green;"">","null","","","","","",""
"","image-keyboard-response","172","100284","0.0-172.0","3MRNMEIQW6SIA77RZKEW2J1IW1OLDH","AOAZMLP27GD81","368IUKXGA5U7UZ9GQNUNOB4MGE4P6M","","375.70000000298023","img/animal1.png","74","375.8999999985099","1","1","2","0.7,0,0.8,0.7,0.8,0,0.7,0.8,0",""
"","html-keyboard-response","173","100585","0.0-173.0","3MRNMEIQW6SIA77RZKEW2J1IW1OLDH","AOAZMLP27GD81","368IUKXGA5U7UZ9GQNUNOB4MGE4P6M","","null","<img src=""img/animal1.png"" style=""width:200px; border:14px solid green;"">","null","","","","","",""
"","image-keyboard-response","174","100958","0.0-174.0","3MRNMEIQW6SIA77RZKEW2J1IW1OLDH","AOAZMLP27GD81","368IUKXGA5U7UZ9GQNUNOB4MGE4P6M","","372.79999999701977","img/animal5.png","75","373.20000000298023","2","1","3","0.7,0,0.8,0.7,0.8,0,0.7,0.8,0",""
"","html-keyboard-response","175","101259","0.0-175.0","3MRNMEIQW6SIA77RZKEW2J1IW1OLDH","AOAZMLP27GD81","368IUKXGA5U7UZ9GQNUNOB4MGE4P6M","","null","<img src=""img/animal5.png"" style=""width:200px; border:14px solid green;"">","null","","","","","",""
"","image-keyboard-response","176","101599","0.0-176.0","3MRNMEIQW6SIA77RZKEW2J1IW1OLDH","AOAZMLP27GD81","368IUKXGA5U7UZ9GQNUNOB4MGE4P6M","","339","img/animal5.png","75","339.19999999552965","2","1","3","0.7,0,0.8,0.7,0.8,0,0.7,0.8,0",""
"","html-keyboard-response","177","101900","0.0-177.0","3MRNMEIQW6SIA77RZKEW2J1IW1OLDH","AOAZMLP27GD81","368IUKXGA5U7UZ9GQNUNOB4MGE4P6M","","null","<img src=""img/animal5.png"" style=""width:200px; border:14px solid green;"">","null","","","","","",""
"","image-keyboard-response","178","102270","0.0-178.0","3MRNMEIQW6SIA77RZKEW2J1IW1OLDH","AOAZMLP27GD81","368IUKXGA5U7UZ9GQNUNOB4MGE4P6M","","369.3999999985099","img/animal5.png","75","369.90000000596046","2","1","3","0.7,0,0.8,0.7,0.8,0,0.7,0.8,0",""
"","html-keyboard-response","179","102572","0.0-179.0","3MRNMEIQW6SIA77RZKEW2J1IW1OLDH","AOAZMLP27GD81","368IUKXGA5U7UZ9GQNUNOB4MGE4P6M","","null","<img src=""img/animal5.png"" style=""width:200px; border:14px solid green;"">","null","","","","","",""
"","image-keyboard-response","180","103029","0.0-180.0","3MRNMEIQW6SIA77RZKEW2J1IW1OLDH","AOAZMLP27GD81","368IUKXGA5U7UZ9GQNUNOB4MGE4P6M","","456.19999999552965","img/animal4.png","74","456.5","1","1","1","0.7,0,0.8,0.7,0.8,0,0.7,0.8,0",""
"","html-keyboard-response","181","103331","0.0-181.0","3MRNMEIQW6SIA77RZKEW2J1IW1OLDH","AOAZMLP27GD81","368IUKXGA5U7UZ9GQNUNOB4MGE4P6M","","null","<img src=""img/animal4.png"" style=""width:200px; border:14px solid green;"">","null","","","","","",""
"","html-keyboard-response","182","105785","0.0-182.0","3MRNMEIQW6SIA77RZKEW2J1IW1OLDH","AOAZMLP27GD81","368IUKXGA5U7UZ9GQNUNOB4MGE4P6M","","","","","","","","","",""
"","image-keyboard-response","183","107726","0.0-183.0","3MRNMEIQW6SIA77RZKEW2J1IW1OLDH","AOAZMLP27GD81","368IUKXGA5U7UZ9GQNUNOB4MGE4P6M","","1940.2000000029802","img/animal3.png","74","1940.7000000029802","1","1","1","0.5,0,1,1,0.5,0,0,1,0.5",""
"","html-keyboard-response","184","108028","0.0-184.0","3MRNMEIQW6SIA77RZKEW2J1IW1OLDH","AOAZMLP27GD81","368IUKXGA5U7UZ9GQNUNOB4MGE4P6M","","null","<img src=""img/animal3.png"" style=""width:200px; border:14px solid green;"">","null","","","","","",""
"","image-keyboard-response","185","109043","0.0-185.0","3MRNMEIQW6SIA77RZKEW2J1IW1OLDH","AOAZMLP27GD81","368IUKXGA5U7UZ9GQNUNOB4MGE4P6M","","1015","img/animal6.png","75","1015.2999999970198","2","1","3","0.5,0,1,1,0.5,0,0,1,0.5",""
"","html-keyboard-response","186","109345","0.0-186.0","3MRNMEIQW6SIA77RZKEW2J1IW1OLDH","AOAZMLP27GD81","368IUKXGA5U7UZ9GQNUNOB4MGE4P6M","","null","<img src=""img/animal6.png"" style=""width:200px; border:14px solid green;"">","null","","","","","",""
"","image-keyboard-response","187","110072","0.0-187.0","3MRNMEIQW6SIA77RZKEW2J1IW1OLDH","AOAZMLP27GD81","368IUKXGA5U7UZ9GQNUNOB4MGE4P6M","","727","img/animal2.png","76","727.3999999985099","3","0","2","0.5,0,1,1,0.5,0,0,1,0.5",""
"","html-keyboard-response","188","110373","0.0-188.0","3MRNMEIQW6SIA77RZKEW2J1IW1OLDH","AOAZMLP27GD81","368IUKXGA5U7UZ9GQNUNOB4MGE4P6M","","null","<img src=""img/animal2.png"" style=""width:200px;border:14px solid red;"">","null","","","","","",""
"","image-keyboard-response","189","111332","0.0-189.0","3MRNMEIQW6SIA77RZKEW2J1IW1OLDH","AOAZMLP27GD81","368IUKXGA5U7UZ9GQNUNOB4MGE4P6M","","957.7999999970198","img/animal2.png","75","958","2","1","2","0.5,0,1,1,0.5,0,0,1,0.5",""
"","html-keyboard-response","190","111633","0.0-190.0","3MRNMEIQW6SIA77RZKEW2J1IW1OLDH","AOAZMLP27GD81","368IUKXGA5U7UZ9GQNUNOB4MGE4P6M","","null","<img src=""img/animal2.png"" style=""width:200px; border:14px solid green;"">","null","","","","","",""
"","image-keyboard-response","191","112423","0.0-191.0","3MRNMEIQW6SIA77RZKEW2J1IW1OLDH","AOAZMLP27GD81","368IUKXGA5U7UZ9GQNUNOB4MGE4P6M","","790.2999999970198","img/animal6.png","75","790.5","2","1","3","0.5,0,1,1,0.5,0,0,1,0.5",""
"","html-keyboard-response","192","112726","0.0-192.0","3MRNMEIQW6SIA77RZKEW2J1IW1OLDH","AOAZMLP27GD81","368IUKXGA5U7UZ9GQNUNOB4MGE4P6M","","null","<img src=""img/animal6.png"" style=""width:200px; border:14px solid green;"">","null","","","","","",""
"","image-keyboard-response","193","113145","0.0-193.0","3MRNMEIQW6SIA77RZKEW2J1IW1OLDH","AOAZMLP27GD81","368IUKXGA5U7UZ9GQNUNOB4MGE4P6M","","419","img/animal6.png","75","419.5","2","1","3","0.5,0,1,1,0.5,0,0,1,0.5",""
"","html-keyboard-response","194","113447","0.0-194.0","3MRNMEIQW6SIA77RZKEW2J1IW1OLDH","AOAZMLP27GD81","368IUKXGA5U7UZ9GQNUNOB4MGE4P6M","","null","<img src=""img/animal6.png"" style=""width:200px; border:14px solid green;"">","null","","","","","",""
"","image-keyboard-response","195","114071","0.0-195.0","3MRNMEIQW6SIA77RZKEW2J1IW1OLDH","AOAZMLP27GD81","368IUKXGA5U7UZ9GQNUNOB4MGE4P6M","","623.3999999985099","img/animal3.png","74","623.7999999970198","1","0","1","0.5,0,1,1,0.5,0,0,1,0.5",""
"","html-keyboard-response","196","114372","0.0-196.0","3MRNMEIQW6SIA77RZKEW2J1IW1OLDH","AOAZMLP27GD81","368IUKXGA5U7UZ9GQNUNOB4MGE4P6M","","null","<img src=""img/animal3.png"" style=""width:200px;border:14px solid red;"">","null","","","","","",""
"","image-keyboard-response","197","115113","0.0-197.0","3MRNMEIQW6SIA77RZKEW2J1IW1OLDH","AOAZMLP27GD81","368IUKXGA5U7UZ9GQNUNOB4MGE4P6M","","740.1999999955297","img/animal6.png","75","740.6000000014901","2","1","3","0.5,0,1,1,0.5,0,0,1,0.5",""
"","html-keyboard-response","198","115414","0.0-198.0","3MRNMEIQW6SIA77RZKEW2J1IW1OLDH","AOAZMLP27GD81","368IUKXGA5U7UZ9GQNUNOB4MGE4P6M","","null","<img src=""img/animal6.png"" style=""width:200px; border:14px solid green;"">","null","","","","","",""
"","image-keyboard-response","199","115988","0.0-199.0","3MRNMEIQW6SIA77RZKEW2J1IW1OLDH","AOAZMLP27GD81","368IUKXGA5U7UZ9GQNUNOB4MGE4P6M","","573.6000000014901","img/animal2.png","75","573.9000000059605","2","1","2","0.5,0,1,1,0.5,0,0,1,0.5",""
"","html-keyboard-response","200","116289","0.0-200.0","3MRNMEIQW6SIA77RZKEW2J1IW1OLDH","AOAZMLP27GD81","368IUKXGA5U7UZ9GQNUNOB4MGE4P6M","","null","<img src=""img/animal2.png"" style=""width:200px; border:14px solid green;"">","null","","","","","",""
"","image-keyboard-response","201","116608","0.0-201.0","3MRNMEIQW6SIA77RZKEW2J1IW1OLDH","AOAZMLP27GD81","368IUKXGA5U7UZ9GQNUNOB4MGE4P6M","","318.79999999701977","img/animal2.png","75","319.30000000447035","2","0","2","0.5,0,1,1,0.5,0,0,1,0.5",""
"","html-keyboard-response","202","116910","0.0-202.0","3MRNMEIQW6SIA77RZKEW2J1IW1OLDH","AOAZMLP27GD81","368IUKXGA5U7UZ9GQNUNOB4MGE4P6M","","null","<img src=""img/animal2.png"" style=""width:200px;border:14px solid red;"">","null","","","","","",""
"","image-keyboard-response","203","117568","0.0-203.0","3MRNMEIQW6SIA77RZKEW2J1IW1OLDH","AOAZMLP27GD81","368IUKXGA5U7UZ9GQNUNOB4MGE4P6M","","657.5999999940395","img/animal6.png","75","657.8999999985099","2","1","3","0.5,0,1,1,0.5,0,0,1,0.5",""
"","html-keyboard-response","204","117870","0.0-204.0","3MRNMEIQW6SIA77RZKEW2J1IW1OLDH","AOAZMLP27GD81","368IUKXGA5U7UZ9GQNUNOB4MGE4P6M","","null","<img src=""img/animal6.png"" style=""width:200px; border:14px solid green;"">","null","","","","","",""
"","image-keyboard-response","205","118173","0.0-205.0","3MRNMEIQW6SIA77RZKEW2J1IW1OLDH","AOAZMLP27GD81","368IUKXGA5U7UZ9GQNUNOB4MGE4P6M","","302.80000000447035","img/animal6.png","75","303.29999999701977","2","1","3","0.5,0,1,1,0.5,0,0,1,0.5",""
"","html-keyboard-response","206","118475","0.0-206.0","3MRNMEIQW6SIA77RZKEW2J1IW1OLDH","AOAZMLP27GD81","368IUKXGA5U7UZ9GQNUNOB4MGE4P6M","","null","<img src=""img/animal6.png"" style=""width:200px; border:14px solid green;"">","null","","","","","",""
"","image-keyboard-response","207","118841","0.0-207.0","3MRNMEIQW6SIA77RZKEW2J1IW1OLDH","AOAZMLP27GD81","368IUKXGA5U7UZ9GQNUNOB4MGE4P6M","","366","img/animal2.png","75","366.20000000298023","2","1","2","0.5,0,1,1,0.5,0,0,1,0.5",""
"","html-keyboard-response","208","119143","0.0-208.0","3MRNMEIQW6SIA77RZKEW2J1IW1OLDH","AOAZMLP27GD81","368IUKXGA5U7UZ9GQNUNOB4MGE4P6M","","null","<img src=""img/animal2.png"" style=""width:200px; border:14px solid green;"">","null","","","","","",""
"","image-keyboard-response","209","120723","0.0-209.0","3MRNMEIQW6SIA77RZKEW2J1IW1OLDH","AOAZMLP27GD81","368IUKXGA5U7UZ9GQNUNOB4MGE4P6M","","1580.1999999955297","img/animal3.png","74","1580.6000000014901","1","1","1","0.5,0,1,1,0.5,0,0,1,0.5",""
"","html-keyboard-response","210","121025","0.0-210.0","3MRNMEIQW6SIA77RZKEW2J1IW1OLDH","AOAZMLP27GD81","368IUKXGA5U7UZ9GQNUNOB4MGE4P6M","","null","<img src=""img/animal3.png"" style=""width:200px; border:14px solid green;"">","null","","","","","",""
"","image-keyboard-response","211","121425","0.0-211.0","3MRNMEIQW6SIA77RZKEW2J1IW1OLDH","AOAZMLP27GD81","368IUKXGA5U7UZ9GQNUNOB4MGE4P6M","","399.6000000014901","img/animal6.png","75","400","2","1","3","0.5,0,1,1,0.5,0,0,1,0.5",""
"","html-keyboard-response","212","121727","0.0-212.0","3MRNMEIQW6SIA77RZKEW2J1IW1OLDH","AOAZMLP27GD81","368IUKXGA5U7UZ9GQNUNOB4MGE4P6M","","null","<img src=""img/animal6.png"" style=""width:200px; border:14px solid green;"">","null","","","","","",""
"","image-keyboard-response","213","122102","0.0-213.0","3MRNMEIQW6SIA77RZKEW2J1IW1OLDH","AOAZMLP27GD81","368IUKXGA5U7UZ9GQNUNOB4MGE4P6M","","374.69999999552965","img/animal2.png","75","375.1000000014901","2","1","2","0.5,0,1,1,0.5,0,0,1,0.5",""
"","html-keyboard-response","214","122403","0.0-214.0","3MRNMEIQW6SIA77RZKEW2J1IW1OLDH","AOAZMLP27GD81","368IUKXGA5U7UZ9GQNUNOB4MGE4P6M","","null","<img src=""img/animal2.png"" style=""width:200px; border:14px solid green;"">","null","","","","","",""
"","image-keyboard-response","215","122686","0.0-215.0","3MRNMEIQW6SIA77RZKEW2J1IW1OLDH","AOAZMLP27GD81","368IUKXGA5U7UZ9GQNUNOB4MGE4P6M","","282.79999999701977","img/animal2.png","75","283.20000000298023","2","0","2","0.5,0,1,1,0.5,0,0,1,0.5",""
"","html-keyboard-response","216","122987","0.0-216.0","3MRNMEIQW6SIA77RZKEW2J1IW1OLDH","AOAZMLP27GD81","368IUKXGA5U7UZ9GQNUNOB4MGE4P6M","","null","<img src=""img/animal2.png"" style=""width:200px;border:14px solid red;"">","null","","","","","",""
"","image-keyboard-response","217","124074","0.0-217.0","3MRNMEIQW6SIA77RZKEW2J1IW1OLDH","AOAZMLP27GD81","368IUKXGA5U7UZ9GQNUNOB4MGE4P6M","","1086.6000000014901","img/animal6.png","75","1087.3999999985099","2","1","3","0.5,0,1,1,0.5,0,0,1,0.5",""
"","html-keyboard-response","218","124377","0.0-218.0","3MRNMEIQW6SIA77RZKEW2J1IW1OLDH","AOAZMLP27GD81","368IUKXGA5U7UZ9GQNUNOB4MGE4P6M","","null","<img src=""img/animal6.png"" style=""width:200px; border:14px solid green;"">","null","","","","","",""
"","image-keyboard-response","219","124678","0.0-219.0","3MRNMEIQW6SIA77RZKEW2J1IW1OLDH","AOAZMLP27GD81","368IUKXGA5U7UZ9GQNUNOB4MGE4P6M","","300.3999999985099","img/animal6.png","75","300.69999999552965","2","1","3","0.5,0,1,1,0.5,0,0,1,0.5",""
"","html-keyboard-response","220","124978","0.0-220.0","3MRNMEIQW6SIA77RZKEW2J1IW1OLDH","AOAZMLP27GD81","368IUKXGA5U7UZ9GQNUNOB4MGE4P6M","","null","<img src=""img/animal6.png"" style=""width:200px; border:14px solid green;"">","null","","","","","",""
"","image-keyboard-response","221","125379","0.0-221.0","3MRNMEIQW6SIA77RZKEW2J1IW1OLDH","AOAZMLP27GD81","368IUKXGA5U7UZ9GQNUNOB4MGE4P6M","","400.5","img/animal3.png","74","401","1","0","1","0.5,0,1,1,0.5,0,0,1,0.5",""
"","html-keyboard-response","222","125682","0.0-222.0","3MRNMEIQW6SIA77RZKEW2J1IW1OLDH","AOAZMLP27GD81","368IUKXGA5U7UZ9GQNUNOB4MGE4P6M","","null","<img src=""img/animal3.png"" style=""width:200px;border:14px solid red;"">","null","","","","","",""
"","image-keyboard-response","223","126068","0.0-223.0","3MRNMEIQW6SIA77RZKEW2J1IW1OLDH","AOAZMLP27GD81","368IUKXGA5U7UZ9GQNUNOB4MGE4P6M","","385.20000000298023","img/animal3.png","75","385.59999999403954","2","0","1","0.5,0,1,1,0.5,0,0,1,0.5",""
"","html-keyboard-response","224","126369","0.0-224.0","3MRNMEIQW6SIA77RZKEW2J1IW1OLDH","AOAZMLP27GD81","368IUKXGA5U7UZ9GQNUNOB4MGE4P6M","","null","<img src=""img/animal3.png"" style=""width:200px;border:14px solid red;"">","null","","","","","",""
"","image-keyboard-response","225","127800","0.0-225.0","3MRNMEIQW6SIA77RZKEW2J1IW1OLDH","AOAZMLP27GD81","368IUKXGA5U7UZ9GQNUNOB4MGE4P6M","","1431.2000000029802","img/animal6.png","75","1431.6000000014901","2","1","3","0.5,0,1,1,0.5,0,0,1,0.5",""
"","html-keyboard-response","226","128103","0.0-226.0","3MRNMEIQW6SIA77RZKEW2J1IW1OLDH","AOAZMLP27GD81","368IUKXGA5U7UZ9GQNUNOB4MGE4P6M","","null","<img src=""img/animal6.png"" style=""width:200px; border:14px solid green;"">","null","","","","","",""
"","image-keyboard-response","227","128407","0.0-227.0","3MRNMEIQW6SIA77RZKEW2J1IW1OLDH","AOAZMLP27GD81","368IUKXGA5U7UZ9GQNUNOB4MGE4P6M","","304.20000000298023","img/animal6.png","75","304.5","2","1","3","0.5,0,1,1,0.5,0,0,1,0.5",""
"","html-keyboard-response","228","128709","0.0-228.0","3MRNMEIQW6SIA77RZKEW2J1IW1OLDH","AOAZMLP27GD81","368IUKXGA5U7UZ9GQNUNOB4MGE4P6M","","null","<img src=""img/animal6.png"" style=""width:200px; border:14px solid green;"">","null","","","","","",""
"","image-keyboard-response","229","129002","0.0-229.0","3MRNMEIQW6SIA77RZKEW2J1IW1OLDH","AOAZMLP27GD81","368IUKXGA5U7UZ9GQNUNOB4MGE4P6M","","292.29999999701977","img/animal6.png","75","292.6000000014901","2","1","3","0.5,0,1,1,0.5,0,0,1,0.5",""
"","html-keyboard-response","230","129304","0.0-230.0","3MRNMEIQW6SIA77RZKEW2J1IW1OLDH","AOAZMLP27GD81","368IUKXGA5U7UZ9GQNUNOB4MGE4P6M","","null","<img src=""img/animal6.png"" style=""width:200px; border:14px solid green;"">","null","","","","","",""
"","image-keyboard-response","231","129718","0.0-231.0","3MRNMEIQW6SIA77RZKEW2J1IW1OLDH","AOAZMLP27GD81","368IUKXGA5U7UZ9GQNUNOB4MGE4P6M","","414.19999999552965","img/animal2.png","75","414.6000000014901","2","1","2","0.5,0,1,1,0.5,0,0,1,0.5",""
"","html-keyboard-response","232","130020","0.0-232.0","3MRNMEIQW6SIA77RZKEW2J1IW1OLDH","AOAZMLP27GD81","368IUKXGA5U7UZ9GQNUNOB4MGE4P6M","","null","<img src=""img/animal2.png"" style=""width:200px; border:14px solid green;"">","null","","","","","",""
"","image-keyboard-response","233","130326","0.0-233.0","3MRNMEIQW6SIA77RZKEW2J1IW1OLDH","AOAZMLP27GD81","368IUKXGA5U7UZ9GQNUNOB4MGE4P6M","","305.69999999552965","img/animal2.png","75","306.1000000014901","2","1","2","0.5,0,1,1,0.5,0,0,1,0.5",""
"","html-keyboard-response","234","130627","0.0-234.0","3MRNMEIQW6SIA77RZKEW2J1IW1OLDH","AOAZMLP27GD81","368IUKXGA5U7UZ9GQNUNOB4MGE4P6M","","null","<img src=""img/animal2.png"" style=""width:200px; border:14px solid green;"">","null","","","","","",""
"","image-keyboard-response","235","130940","0.0-235.0","3MRNMEIQW6SIA77RZKEW2J1IW1OLDH","AOAZMLP27GD81","368IUKXGA5U7UZ9GQNUNOB4MGE4P6M","","312.09999999403954","img/animal2.png","75","312.3999999985099","2","1","2","0.5,0,1,1,0.5,0,0,1,0.5",""
"","html-keyboard-response","236","131241","0.0-236.0","3MRNMEIQW6SIA77RZKEW2J1IW1OLDH","AOAZMLP27GD81","368IUKXGA5U7UZ9GQNUNOB4MGE4P6M","","null","<img src=""img/animal2.png"" style=""width:200px; border:14px solid green;"">","null","","","","","",""
"","image-keyboard-response","237","131930","0.0-237.0","3MRNMEIQW6SIA77RZKEW2J1IW1OLDH","AOAZMLP27GD81","368IUKXGA5U7UZ9GQNUNOB4MGE4P6M","","689.3000000044703","img/animal6.png","75","689.6000000014901","2","1","3","0.5,0,1,1,0.5,0,0,1,0.5",""
"","html-keyboard-response","238","132232","0.0-238.0","3MRNMEIQW6SIA77RZKEW2J1IW1OLDH","AOAZMLP27GD81","368IUKXGA5U7UZ9GQNUNOB4MGE4P6M","","null","<img src=""img/animal6.png"" style=""width:200px; border:14px solid green;"">","null","","","","","",""
"","image-keyboard-response","239","132679","0.0-239.0","3MRNMEIQW6SIA77RZKEW2J1IW1OLDH","AOAZMLP27GD81","368IUKXGA5U7UZ9GQNUNOB4MGE4P6M","","446.3999999985099","img/animal2.png","75","446.79999999701977","2","0","2","0.5,0,1,1,0.5,0,0,1,0.5",""
"","html-keyboard-response","240","132981","0.0-240.0","3MRNMEIQW6SIA77RZKEW2J1IW1OLDH","AOAZMLP27GD81","368IUKXGA5U7UZ9GQNUNOB4MGE4P6M","","null","<img src=""img/animal2.png"" style=""width:200px;border:14px solid red;"">","null","","","","","",""
"","image-keyboard-response","241","133256","0.0-241.0","3MRNMEIQW6SIA77RZKEW2J1IW1OLDH","AOAZMLP27GD81","368IUKXGA5U7UZ9GQNUNOB4MGE4P6M","","275","img/animal2.png","75","275.29999999701977","2","1","2","0.5,0,1,1,0.5,0,0,1,0.5",""
"","html-keyboard-response","242","133557","0.0-242.0","3MRNMEIQW6SIA77RZKEW2J1IW1OLDH","AOAZMLP27GD81","368IUKXGA5U7UZ9GQNUNOB4MGE4P6M","","null","<img src=""img/animal2.png"" style=""width:200px; border:14px solid green;"">","null","","","","","",""
"","image-keyboard-response","243","134005","0.0-243.0","3MRNMEIQW6SIA77RZKEW2J1IW1OLDH","AOAZMLP27GD81","368IUKXGA5U7UZ9GQNUNOB4MGE4P6M","","448.30000000447035","img/animal6.png","75","448.70000000298023","2","1","3","0.5,0,1,1,0.5,0,0,1,0.5",""
"","html-keyboard-response","244","134307","0.0-244.0","3MRNMEIQW6SIA77RZKEW2J1IW1OLDH","AOAZMLP27GD81","368IUKXGA5U7UZ9GQNUNOB4MGE4P6M","","null","<img src=""img/animal6.png"" style=""width:200px; border:14px solid green;"">","null","","","","","",""
"","image-keyboard-response","245","134926","0.0-245.0","3MRNMEIQW6SIA77RZKEW2J1IW1OLDH","AOAZMLP27GD81","368IUKXGA5U7UZ9GQNUNOB4MGE4P6M","","618.1999999955297","img/animal3.png","76","618.7000000029802","3","1","1","0.5,0,1,1,0.5,0,0,1,0.5",""
"","html-keyboard-response","246","135227","0.0-246.0","3MRNMEIQW6SIA77RZKEW2J1IW1OLDH","AOAZMLP27GD81","368IUKXGA5U7UZ9GQNUNOB4MGE4P6M","","null","<img src=""img/animal3.png"" style=""width:200px; border:14px solid green;"">","null","","","","","",""
"","image-keyboard-response","247","135841","0.0-247.0","3MRNMEIQW6SIA77RZKEW2J1IW1OLDH","AOAZMLP27GD81","368IUKXGA5U7UZ9GQNUNOB4MGE4P6M","","613.5","img/animal3.png","76","613.9000000059605","3","1","1","0.5,0,1,1,0.5,0,0,1,0.5",""
"","html-keyboard-response","248","136142","0.0-248.0","3MRNMEIQW6SIA77RZKEW2J1IW1OLDH","AOAZMLP27GD81","368IUKXGA5U7UZ9GQNUNOB4MGE4P6M","","null","<img src=""img/animal3.png"" style=""width:200px; border:14px solid green;"">","null","","","","","",""
"","image-keyboard-response","249","136570","0.0-249.0","3MRNMEIQW6SIA77RZKEW2J1IW1OLDH","AOAZMLP27GD81","368IUKXGA5U7UZ9GQNUNOB4MGE4P6M","","427.90000000596046","img/animal6.png","75","428.20000000298023","2","1","3","0.5,0,1,1,0.5,0,0,1,0.5",""
"","html-keyboard-response","250","136871","0.0-250.0","3MRNMEIQW6SIA77RZKEW2J1IW1OLDH","AOAZMLP27GD81","368IUKXGA5U7UZ9GQNUNOB4MGE4P6M","","null","<img src=""img/animal6.png"" style=""width:200px; border:14px solid green;"">","null","","","","","",""
"","image-keyboard-response","251","137167","0.0-251.0","3MRNMEIQW6SIA77RZKEW2J1IW1OLDH","AOAZMLP27GD81","368IUKXGA5U7UZ9GQNUNOB4MGE4P6M","","295.1000000014901","img/animal6.png","75","295.5","2","1","3","0.5,0,1,1,0.5,0,0,1,0.5",""
"","html-keyboard-response","252","137468","0.0-252.0","3MRNMEIQW6SIA77RZKEW2J1IW1OLDH","AOAZMLP27GD81","368IUKXGA5U7UZ9GQNUNOB4MGE4P6M","","null","<img src=""img/animal6.png"" style=""width:200px; border:14px solid green;"">","null","","","","","",""
"","image-keyboard-response","253","138236","0.0-253.0","3MRNMEIQW6SIA77RZKEW2J1IW1OLDH","AOAZMLP27GD81","368IUKXGA5U7UZ9GQNUNOB4MGE4P6M","","767.7000000029802","img/animal2.png","75","768.2000000029802","2","1","2","0.5,0,1,1,0.5,0,0,1,0.5",""
"","html-keyboard-response","254","138538","0.0-254.0","3MRNMEIQW6SIA77RZKEW2J1IW1OLDH","AOAZMLP27GD81","368IUKXGA5U7UZ9GQNUNOB4MGE4P6M","","null","<img src=""img/animal2.png"" style=""width:200px; border:14px solid green;"">","null","","","","","",""
"","image-keyboard-response","255","138767","0.0-255.0","3MRNMEIQW6SIA77RZKEW2J1IW1OLDH","AOAZMLP27GD81","368IUKXGA5U7UZ9GQNUNOB4MGE4P6M","","228.79999999701977","img/animal3.png","75","229.20000000298023","2","0","1","0.5,0,1,1,0.5,0,0,1,0.5",""
"","html-keyboard-response","256","139069","0.0-256.0","3MRNMEIQW6SIA77RZKEW2J1IW1OLDH","AOAZMLP27GD81","368IUKXGA5U7UZ9GQNUNOB4MGE4P6M","","null","<img src=""img/animal3.png"" style=""width:200px;border:14px solid red;"">","null","","","","","",""
"","image-keyboard-response","257","140162","0.0-257.0","3MRNMEIQW6SIA77RZKEW2J1IW1OLDH","AOAZMLP27GD81","368IUKXGA5U7UZ9GQNUNOB4MGE4P6M","","1092.1000000014901","img/animal6.png","75","1092.5","2","1","3","0.5,0,1,1,0.5,0,0,1,0.5",""
"","html-keyboard-response","258","140463","0.0-258.0","3MRNMEIQW6SIA77RZKEW2J1IW1OLDH","AOAZMLP27GD81","368IUKXGA5U7UZ9GQNUNOB4MGE4P6M","","null","<img src=""img/animal6.png"" style=""width:200px; border:14px solid green;"">","null","","","","","",""
"","image-keyboard-response","259","141052","0.0-259.0","3MRNMEIQW6SIA77RZKEW2J1IW1OLDH","AOAZMLP27GD81","368IUKXGA5U7UZ9GQNUNOB4MGE4P6M","","587.8000000044703","img/animal2.png","75","588.3999999985099","2","1","2","0.5,0,1,1,0.5,0,0,1,0.5",""
"","html-keyboard-response","260","141354","0.0-260.0","3MRNMEIQW6SIA77RZKEW2J1IW1OLDH","AOAZMLP27GD81","368IUKXGA5U7UZ9GQNUNOB4MGE4P6M","","null","<img src=""img/animal2.png"" style=""width:200px; border:14px solid green;"">","null","","","","","",""
"","image-keyboard-response","261","141636","0.0-261.0","3MRNMEIQW6SIA77RZKEW2J1IW1OLDH","AOAZMLP27GD81","368IUKXGA5U7UZ9GQNUNOB4MGE4P6M","","281.3999999985099","img/animal6.png","75","281.69999999552965","2","1","3","0.5,0,1,1,0.5,0,0,1,0.5",""
"","html-keyboard-response","262","141937","0.0-262.0","3MRNMEIQW6SIA77RZKEW2J1IW1OLDH","AOAZMLP27GD81","368IUKXGA5U7UZ9GQNUNOB4MGE4P6M","","null","<img src=""img/animal6.png"" style=""width:200px; border:14px solid green;"">","null","","","","","",""
"","image-keyboard-response","263","142250","0.0-263.0","3MRNMEIQW6SIA77RZKEW2J1IW1OLDH","AOAZMLP27GD81","368IUKXGA5U7UZ9GQNUNOB4MGE4P6M","","312.5","img/animal2.png","75","312.79999999701977","2","1","2","0.5,0,1,1,0.5,0,0,1,0.5",""
"","html-keyboard-response","264","142551","0.0-264.0","3MRNMEIQW6SIA77RZKEW2J1IW1OLDH","AOAZMLP27GD81","368IUKXGA5U7UZ9GQNUNOB4MGE4P6M","","null","<img src=""img/animal2.png"" style=""width:200px; border:14px solid green;"">","null","","","","","",""
"","image-keyboard-response","265","143155","0.0-265.0","3MRNMEIQW6SIA77RZKEW2J1IW1OLDH","AOAZMLP27GD81","368IUKXGA5U7UZ9GQNUNOB4MGE4P6M","","602.7999999970198","img/animal3.png","76","603.3999999985099","3","1","1","0.5,0,1,1,0.5,0,0,1,0.5",""
"","html-keyboard-response","266","143456","0.0-266.0","3MRNMEIQW6SIA77RZKEW2J1IW1OLDH","AOAZMLP27GD81","368IUKXGA5U7UZ9GQNUNOB4MGE4P6M","","null","<img src=""img/animal3.png"" style=""width:200px; border:14px solid green;"">","null","","","","","",""
"","image-keyboard-response","267","143865","0.0-267.0","3MRNMEIQW6SIA77RZKEW2J1IW1OLDH","AOAZMLP27GD81","368IUKXGA5U7UZ9GQNUNOB4MGE4P6M","","408.20000000298023","img/animal6.png","75","408.6000000014901","2","1","3","0.5,0,1,1,0.5,0,0,1,0.5",""
"","html-keyboard-response","268","144166","0.0-268.0","3MRNMEIQW6SIA77RZKEW2J1IW1OLDH","AOAZMLP27GD81","368IUKXGA5U7UZ9GQNUNOB4MGE4P6M","","null","<img src=""img/animal6.png"" style=""width:200px; border:14px solid green;"">","null","","","","","",""
"","image-keyboard-response","269","144485","0.0-269.0","3MRNMEIQW6SIA77RZKEW2J1IW1OLDH","AOAZMLP27GD81","368IUKXGA5U7UZ9GQNUNOB4MGE4P6M","","317.70000000298023","img/animal6.png","75","318.19999999552965","2","1","3","0.5,0,1,1,0.5,0,0,1,0.5",""
"","html-keyboard-response","270","144785","0.0-270.0","3MRNMEIQW6SIA77RZKEW2J1IW1OLDH","AOAZMLP27GD81","368IUKXGA5U7UZ9GQNUNOB4MGE4P6M","","null","<img src=""img/animal6.png"" style=""width:200px; border:14px solid green;"">","null","","","","","",""
"","image-keyboard-response","271","145345","0.0-271.0","3MRNMEIQW6SIA77RZKEW2J1IW1OLDH","AOAZMLP27GD81","368IUKXGA5U7UZ9GQNUNOB4MGE4P6M","","558.8999999985099","img/animal2.png","75","559.2999999970198","2","1","2","0.5,0,1,1,0.5,0,0,1,0.5",""
"","html-keyboard-response","272","145646","0.0-272.0","3MRNMEIQW6SIA77RZKEW2J1IW1OLDH","AOAZMLP27GD81","368IUKXGA5U7UZ9GQNUNOB4MGE4P6M","","null","<img src=""img/animal2.png"" style=""width:200px; border:14px solid green;"">","null","","","","","",""
"","image-keyboard-response","273","145968","0.0-273.0","3MRNMEIQW6SIA77RZKEW2J1IW1OLDH","AOAZMLP27GD81","368IUKXGA5U7UZ9GQNUNOB4MGE4P6M","","321.20000000298023","img/animal2.png","75","321.5","2","1","2","0.5,0,1,1,0.5,0,0,1,0.5",""
"","html-keyboard-response","274","146269","0.0-274.0","3MRNMEIQW6SIA77RZKEW2J1IW1OLDH","AOAZMLP27GD81","368IUKXGA5U7UZ9GQNUNOB4MGE4P6M","","null","<img src=""img/animal2.png"" style=""width:200px; border:14px solid green;"">","null","","","","","",""
"","image-keyboard-response","275","146746","0.0-275.0","3MRNMEIQW6SIA77RZKEW2J1IW1OLDH","AOAZMLP27GD81","368IUKXGA5U7UZ9GQNUNOB4MGE4P6M","","476.29999999701977","img/animal3.png","76","476.80000000447035","3","1","1","0.5,0,1,1,0.5,0,0,1,0.5",""
"","html-keyboard-response","276","147048","0.0-276.0","3MRNMEIQW6SIA77RZKEW2J1IW1OLDH","AOAZMLP27GD81","368IUKXGA5U7UZ9GQNUNOB4MGE4P6M","","null","<img src=""img/animal3.png"" style=""width:200px; border:14px solid green;"">","null","","","","","",""
"","image-keyboard-response","277","147448","0.0-277.0","3MRNMEIQW6SIA77RZKEW2J1IW1OLDH","AOAZMLP27GD81","368IUKXGA5U7UZ9GQNUNOB4MGE4P6M","","399.20000000298023","img/animal3.png","76","399.8999999985099","3","1","1","0.5,0,1,1,0.5,0,0,1,0.5",""
"","html-keyboard-response","278","147750","0.0-278.0","3MRNMEIQW6SIA77RZKEW2J1IW1OLDH","AOAZMLP27GD81","368IUKXGA5U7UZ9GQNUNOB4MGE4P6M","","null","<img src=""img/animal3.png"" style=""width:200px; border:14px solid green;"">","null","","","","","",""
"","image-keyboard-response","279","148132","0.0-279.0","3MRNMEIQW6SIA77RZKEW2J1IW1OLDH","AOAZMLP27GD81","368IUKXGA5U7UZ9GQNUNOB4MGE4P6M","","381.09999999403954","img/animal6.png","75","381.6000000014901","2","1","3","0.5,0,1,1,0.5,0,0,1,0.5",""
"","html-keyboard-response","280","148433","0.0-280.0","3MRNMEIQW6SIA77RZKEW2J1IW1OLDH","AOAZMLP27GD81","368IUKXGA5U7UZ9GQNUNOB4MGE4P6M","","null","<img src=""img/animal6.png"" style=""width:200px; border:14px solid green;"">","null","","","","","",""
"","image-keyboard-response","281","149087","0.0-281.0","3MRNMEIQW6SIA77RZKEW2J1IW1OLDH","AOAZMLP27GD81","368IUKXGA5U7UZ9GQNUNOB4MGE4P6M","","653.5","img/animal2.png","75","653.8999999985099","2","0","2","0.5,0,1,1,0.5,0,0,1,0.5",""
"","html-keyboard-response","282","149388","0.0-282.0","3MRNMEIQW6SIA77RZKEW2J1IW1OLDH","AOAZMLP27GD81","368IUKXGA5U7UZ9GQNUNOB4MGE4P6M","","null","<img src=""img/animal2.png"" style=""width:200px;border:14px solid red;"">","null","","","","","",""
"","image-keyboard-response","283","150530","0.0-283.0","3MRNMEIQW6SIA77RZKEW2J1IW1OLDH","AOAZMLP27GD81","368IUKXGA5U7UZ9GQNUNOB4MGE4P6M","","1141.0999999940395","img/animal3.png","76","1141.6000000014901","3","1","1","0.5,0,1,1,0.5,0,0,1,0.5",""
"","html-keyboard-response","284","150831","0.0-284.0","3MRNMEIQW6SIA77RZKEW2J1IW1OLDH","AOAZMLP27GD81","368IUKXGA5U7UZ9GQNUNOB4MGE4P6M","","null","<img src=""img/animal3.png"" style=""width:200px; border:14px solid green;"">","null","","","","","",""
"","image-keyboard-response","285","151103","0.0-285.0","3MRNMEIQW6SIA77RZKEW2J1IW1OLDH","AOAZMLP27GD81","368IUKXGA5U7UZ9GQNUNOB4MGE4P6M","","271.1000000014901","img/animal3.png","76","271.6000000014901","3","1","1","0.5,0,1,1,0.5,0,0,1,0.5",""
"","html-keyboard-response","286","151404","0.0-286.0","3MRNMEIQW6SIA77RZKEW2J1IW1OLDH","AOAZMLP27GD81","368IUKXGA5U7UZ9GQNUNOB4MGE4P6M","","null","<img src=""img/animal3.png"" style=""width:200px; border:14px solid green;"">","null","","","","","",""
"","image-keyboard-response","287","151595","0.0-287.0","3MRNMEIQW6SIA77RZKEW2J1IW1OLDH","AOAZMLP27GD81","368IUKXGA5U7UZ9GQNUNOB4MGE4P6M","","190.60000000149012","img/animal2.png","76","191","3","0","2","0.5,0,1,1,0.5,0,0,1,0.5",""
"","html-keyboard-response","288","151897","0.0-288.0","3MRNMEIQW6SIA77RZKEW2J1IW1OLDH","AOAZMLP27GD81","368IUKXGA5U7UZ9GQNUNOB4MGE4P6M","","null","<img src=""img/animal2.png"" style=""width:200px;border:14px solid red;"">","null","","","","","",""
"","image-keyboard-response","289","152296","0.0-289.0","3MRNMEIQW6SIA77RZKEW2J1IW1OLDH","AOAZMLP27GD81","368IUKXGA5U7UZ9GQNUNOB4MGE4P6M","","399.6000000014901","img/animal2.png","75","399.70000000298023","2","0","2","0.5,0,1,1,0.5,0,0,1,0.5",""
"","html-keyboard-response","290","152598","0.0-290.0","3MRNMEIQW6SIA77RZKEW2J1IW1OLDH","AOAZMLP27GD81","368IUKXGA5U7UZ9GQNUNOB4MGE4P6M","","null","<img src=""img/animal2.png"" style=""width:200px;border:14px solid red;"">","null","","","","","",""
"","image-keyboard-response","291","152850","0.0-291.0","3MRNMEIQW6SIA77RZKEW2J1IW1OLDH","AOAZMLP27GD81","368IUKXGA5U7UZ9GQNUNOB4MGE4P6M","","251.5","img/animal3.png","75","251.89999999850988","2","0","1","0.5,0,1,1,0.5,0,0,1,0.5",""
"","html-keyboard-response","292","153152","0.0-292.0","3MRNMEIQW6SIA77RZKEW2J1IW1OLDH","AOAZMLP27GD81","368IUKXGA5U7UZ9GQNUNOB4MGE4P6M","","null","<img src=""img/animal3.png"" style=""width:200px;border:14px solid red;"">","null","","","","","",""
"","image-keyboard-response","293","153609","0.0-293.0","3MRNMEIQW6SIA77RZKEW2J1IW1OLDH","AOAZMLP27GD81","368IUKXGA5U7UZ9GQNUNOB4MGE4P6M","","457.3999999985099","img/animal3.png","76","457.70000000298023","3","1","1","0.5,0,1,1,0.5,0,0,1,0.5",""
"","html-keyboard-response","294","153911","0.0-294.0","3MRNMEIQW6SIA77RZKEW2J1IW1OLDH","AOAZMLP27GD81","368IUKXGA5U7UZ9GQNUNOB4MGE4P6M","","null","<img src=""img/animal3.png"" style=""width:200px; border:14px solid green;"">","null","","","","","",""
"","image-keyboard-response","295","154468","0.0-295.0","3MRNMEIQW6SIA77RZKEW2J1IW1OLDH","AOAZMLP27GD81","368IUKXGA5U7UZ9GQNUNOB4MGE4P6M","","556.8999999985099","img/animal6.png","75","557.4000000059605","2","1","3","0.5,0,1,1,0.5,0,0,1,0.5",""
"","html-keyboard-response","296","154769","0.0-296.0","3MRNMEIQW6SIA77RZKEW2J1IW1OLDH","AOAZMLP27GD81","368IUKXGA5U7UZ9GQNUNOB4MGE4P6M","","null","<img src=""img/animal6.png"" style=""width:200px; border:14px solid green;"">","null","","","","","",""
"","image-keyboard-response","297","155449","0.0-297.0","3MRNMEIQW6SIA77RZKEW2J1IW1OLDH","AOAZMLP27GD81","368IUKXGA5U7UZ9GQNUNOB4MGE4P6M","","679.7999999970198","img/animal3.png","76","680.1000000014901","3","1","1","0.5,0,1,1,0.5,0,0,1,0.5",""
"","html-keyboard-response","298","155752","0.0-298.0","3MRNMEIQW6SIA77RZKEW2J1IW1OLDH","AOAZMLP27GD81","368IUKXGA5U7UZ9GQNUNOB4MGE4P6M","","null","<img src=""img/animal3.png"" style=""width:200px; border:14px solid green;"">","null","","","","","",""
"","image-keyboard-response","299","156166","0.0-299.0","3MRNMEIQW6SIA77RZKEW2J1IW1OLDH","AOAZMLP27GD81","368IUKXGA5U7UZ9GQNUNOB4MGE4P6M","","414.19999999552965","img/animal6.png","75","414.6000000014901","2","1","3","0.5,0,1,1,0.5,0,0,1,0.5",""
"","html-keyboard-response","300","156467","0.0-300.0","3MRNMEIQW6SIA77RZKEW2J1IW1OLDH","AOAZMLP27GD81","368IUKXGA5U7UZ9GQNUNOB4MGE4P6M","","null","<img src=""img/animal6.png"" style=""width:200px; border:14px solid green;"">","null","","","","","",""
"","image-keyboard-response","301","156985","0.0-301.0","3MRNMEIQW6SIA77RZKEW2J1IW1OLDH","AOAZMLP27GD81","368IUKXGA5U7UZ9GQNUNOB4MGE4P6M","","518","img/animal3.png","76","518.2000000029802","3","1","1","0.5,0,1,1,0.5,0,0,1,0.5",""
"","html-keyboard-response","302","157286","0.0-302.0","3MRNMEIQW6SIA77RZKEW2J1IW1OLDH","AOAZMLP27GD81","368IUKXGA5U7UZ9GQNUNOB4MGE4P6M","","null","<img src=""img/animal3.png"" style=""width:200px; border:14px solid green;"">","null","","","","","",""
"","image-keyboard-response","303","157698","0.0-303.0","3MRNMEIQW6SIA77RZKEW2J1IW1OLDH","AOAZMLP27GD81","368IUKXGA5U7UZ9GQNUNOB4MGE4P6M","","411.6000000014901","img/animal6.png","75","412","2","1","3","0.5,0,1,1,0.5,0,0,1,0.5",""
"","html-keyboard-response","304","158000","0.0-304.0","3MRNMEIQW6SIA77RZKEW2J1IW1OLDH","AOAZMLP27GD81","368IUKXGA5U7UZ9GQNUNOB4MGE4P6M","","null","<img src=""img/animal6.png"" style=""width:200px; border:14px solid green;"">","null","","","","","",""
"","image-keyboard-response","305","158278","0.0-305.0","3MRNMEIQW6SIA77RZKEW2J1IW1OLDH","AOAZMLP27GD81","368IUKXGA5U7UZ9GQNUNOB4MGE4P6M","","278.30000000447035","img/animal3.png","75","278.69999999552965","2","0","1","0.5,0,1,1,0.5,0,0,1,0.5",""
"","html-keyboard-response","306","158579","0.0-306.0","3MRNMEIQW6SIA77RZKEW2J1IW1OLDH","AOAZMLP27GD81","368IUKXGA5U7UZ9GQNUNOB4MGE4P6M","","null","<img src=""img/animal3.png"" style=""width:200px;border:14px solid red;"">","null","","","","","",""
"","image-keyboard-response","307","159202","0.0-307.0","3MRNMEIQW6SIA77RZKEW2J1IW1OLDH","AOAZMLP27GD81","368IUKXGA5U7UZ9GQNUNOB4MGE4P6M","","622.6000000014901","img/animal2.png","75","623","2","1","2","0.5,0,1,1,0.5,0,0,1,0.5",""
"","html-keyboard-response","308","159503","0.0-308.0","3MRNMEIQW6SIA77RZKEW2J1IW1OLDH","AOAZMLP27GD81","368IUKXGA5U7UZ9GQNUNOB4MGE4P6M","","null","<img src=""img/animal2.png"" style=""width:200px; border:14px solid green;"">","null","","","","","",""
"","image-keyboard-response","309","160007","0.0-309.0","3MRNMEIQW6SIA77RZKEW2J1IW1OLDH","AOAZMLP27GD81","368IUKXGA5U7UZ9GQNUNOB4MGE4P6M","","503.19999999552965","img/animal3.png","76","503.70000000298023","3","1","1","0.5,0,1,1,0.5,0,0,1,0.5",""
"","html-keyboard-response","310","160309","0.0-310.0","3MRNMEIQW6SIA77RZKEW2J1IW1OLDH","AOAZMLP27GD81","368IUKXGA5U7UZ9GQNUNOB4MGE4P6M","","null","<img src=""img/animal3.png"" style=""width:200px; border:14px solid green;"">","null","","","","","",""
"","image-keyboard-response","311","160647","0.0-311.0","3MRNMEIQW6SIA77RZKEW2J1IW1OLDH","AOAZMLP27GD81","368IUKXGA5U7UZ9GQNUNOB4MGE4P6M","","337.29999999701977","img/animal3.png","76","337.69999999552965","3","1","1","0.5,0,1,1,0.5,0,0,1,0.5",""
"","html-keyboard-response","312","160948","0.0-312.0","3MRNMEIQW6SIA77RZKEW2J1IW1OLDH","AOAZMLP27GD81","368IUKXGA5U7UZ9GQNUNOB4MGE4P6M","","null","<img src=""img/animal3.png"" style=""width:200px; border:14px solid green;"">","null","","","","","",""
"","image-keyboard-response","313","161255","0.0-313.0","3MRNMEIQW6SIA77RZKEW2J1IW1OLDH","AOAZMLP27GD81","368IUKXGA5U7UZ9GQNUNOB4MGE4P6M","","306.70000000298023","img/animal3.png","76","307.09999999403954","3","1","1","0.5,0,1,1,0.5,0,0,1,0.5",""
"","html-keyboard-response","314","161556","0.0-314.0","3MRNMEIQW6SIA77RZKEW2J1IW1OLDH","AOAZMLP27GD81","368IUKXGA5U7UZ9GQNUNOB4MGE4P6M","","null","<img src=""img/animal3.png"" style=""width:200px; border:14px solid green;"">","null","","","","","",""
"","image-keyboard-response","315","161881","0.0-315.0","3MRNMEIQW6SIA77RZKEW2J1IW1OLDH","AOAZMLP27GD81","368IUKXGA5U7UZ9GQNUNOB4MGE4P6M","","324.6000000014901","img/animal3.png","76","324.79999999701977","3","1","1","0.5,0,1,1,0.5,0,0,1,0.5",""
"","html-keyboard-response","316","162182","0.0-316.0","3MRNMEIQW6SIA77RZKEW2J1IW1OLDH","AOAZMLP27GD81","368IUKXGA5U7UZ9GQNUNOB4MGE4P6M","","null","<img src=""img/animal3.png"" style=""width:200px; border:14px solid green;"">","null","","","","","",""
"","image-keyboard-response","317","162588","0.0-317.0","3MRNMEIQW6SIA77RZKEW2J1IW1OLDH","AOAZMLP27GD81","368IUKXGA5U7UZ9GQNUNOB4MGE4P6M","","405.8999999985099","img/animal6.png","75","406.30000000447035","2","1","3","0.5,0,1,1,0.5,0,0,1,0.5",""
"","html-keyboard-response","318","162890","0.0-318.0","3MRNMEIQW6SIA77RZKEW2J1IW1OLDH","AOAZMLP27GD81","368IUKXGA5U7UZ9GQNUNOB4MGE4P6M","","null","<img src=""img/animal6.png"" style=""width:200px; border:14px solid green;"">","null","","","","","",""
"","image-keyboard-response","319","163378","0.0-319.0","3MRNMEIQW6SIA77RZKEW2J1IW1OLDH","AOAZMLP27GD81","368IUKXGA5U7UZ9GQNUNOB4MGE4P6M","","487.8999999985099","img/animal2.png","75","488.20000000298023","2","0","2","0.5,0,1,1,0.5,0,0,1,0.5",""
"","html-keyboard-response","320","163679","0.0-320.0","3MRNMEIQW6SIA77RZKEW2J1IW1OLDH","AOAZMLP27GD81","368IUKXGA5U7UZ9GQNUNOB4MGE4P6M","","null","<img src=""img/animal2.png"" style=""width:200px;border:14px solid red;"">","null","","","","","",""
"","image-keyboard-response","321","164355","0.0-321.0","3MRNMEIQW6SIA77RZKEW2J1IW1OLDH","AOAZMLP27GD81","368IUKXGA5U7UZ9GQNUNOB4MGE4P6M","","675.5","img/animal3.png","76","675.8000000044703","3","1","1","0.5,0,1,1,0.5,0,0,1,0.5",""
"","html-keyboard-response","322","164657","0.0-322.0","3MRNMEIQW6SIA77RZKEW2J1IW1OLDH","AOAZMLP27GD81","368IUKXGA5U7UZ9GQNUNOB4MGE4P6M","","null","<img src=""img/animal3.png"" style=""width:200px; border:14px solid green;"">","null","","","","","",""
"","image-keyboard-response","323","164942","0.0-323.0","3MRNMEIQW6SIA77RZKEW2J1IW1OLDH","AOAZMLP27GD81","368IUKXGA5U7UZ9GQNUNOB4MGE4P6M","","284.8999999985099","img/animal3.png","76","285.20000000298023","3","1","1","0.5,0,1,1,0.5,0,0,1,0.5",""
"","html-keyboard-response","324","165243","0.0-324.0","3MRNMEIQW6SIA77RZKEW2J1IW1OLDH","AOAZMLP27GD81","368IUKXGA5U7UZ9GQNUNOB4MGE4P6M","","null","<img src=""img/animal3.png"" style=""width:200px; border:14px solid green;"">","null","","","","","",""
"","image-keyboard-response","325","165681","0.0-325.0","3MRNMEIQW6SIA77RZKEW2J1IW1OLDH","AOAZMLP27GD81","368IUKXGA5U7UZ9GQNUNOB4MGE4P6M","","437.5","img/animal2.png","75","437.8999999985099","2","0","2","0.5,0,1,1,0.5,0,0,1,0.5",""
"","html-keyboard-response","326","165982","0.0-326.0","3MRNMEIQW6SIA77RZKEW2J1IW1OLDH","AOAZMLP27GD81","368IUKXGA5U7UZ9GQNUNOB4MGE4P6M","","null","<img src=""img/animal2.png"" style=""width:200px;border:14px solid red;"">","null","","","","","",""
"","image-keyboard-response","327","166333","0.0-327.0","3MRNMEIQW6SIA77RZKEW2J1IW1OLDH","AOAZMLP27GD81","368IUKXGA5U7UZ9GQNUNOB4MGE4P6M","","350.19999999552965","img/animal2.png","75","350.3999999985099","2","1","2","0.5,0,1,1,0.5,0,0,1,0.5",""
"","html-keyboard-response","328","166635","0.0-328.0","3MRNMEIQW6SIA77RZKEW2J1IW1OLDH","AOAZMLP27GD81","368IUKXGA5U7UZ9GQNUNOB4MGE4P6M","","null","<img src=""img/animal2.png"" style=""width:200px; border:14px solid green;"">","null","","","","","",""
"","image-keyboard-response","329","167091","0.0-329.0","3MRNMEIQW6SIA77RZKEW2J1IW1OLDH","AOAZMLP27GD81","368IUKXGA5U7UZ9GQNUNOB4MGE4P6M","","455.6000000014901","img/animal3.png","75","455.8999999985099","2","0","1","0.5,0,1,1,0.5,0,0,1,0.5",""
"","html-keyboard-response","330","167392","0.0-330.0","3MRNMEIQW6SIA77RZKEW2J1IW1OLDH","AOAZMLP27GD81","368IUKXGA5U7UZ9GQNUNOB4MGE4P6M","","null","<img src=""img/animal3.png"" style=""width:200px;border:14px solid red;"">","null","","","","","",""
"","image-keyboard-response","331","167999","0.0-331.0","3MRNMEIQW6SIA77RZKEW2J1IW1OLDH","AOAZMLP27GD81","368IUKXGA5U7UZ9GQNUNOB4MGE4P6M","","606.6999999955297","img/animal2.png","75","607.1000000014901","2","1","2","0.5,0,1,1,0.5,0,0,1,0.5",""
"","html-keyboard-response","332","168300","0.0-332.0","3MRNMEIQW6SIA77RZKEW2J1IW1OLDH","AOAZMLP27GD81","368IUKXGA5U7UZ9GQNUNOB4MGE4P6M","","null","<img src=""img/animal2.png"" style=""width:200px; border:14px solid green;"">","null","","","","","",""
"","image-keyboard-response","333","168750","0.0-333.0","3MRNMEIQW6SIA77RZKEW2J1IW1OLDH","AOAZMLP27GD81","368IUKXGA5U7UZ9GQNUNOB4MGE4P6M","","449.6000000014901","img/animal6.png","75","450","2","1","3","0.5,0,1,1,0.5,0,0,1,0.5",""
"","html-keyboard-response","334","169052","0.0-334.0","3MRNMEIQW6SIA77RZKEW2J1IW1OLDH","AOAZMLP27GD81","368IUKXGA5U7UZ9GQNUNOB4MGE4P6M","","null","<img src=""img/animal6.png"" style=""width:200px; border:14px solid green;"">","null","","","","","",""
"","image-keyboard-response","335","169463","0.0-335.0","3MRNMEIQW6SIA77RZKEW2J1IW1OLDH","AOAZMLP27GD81","368IUKXGA5U7UZ9GQNUNOB4MGE4P6M","","410.3999999985099","img/animal2.png","75","410.8999999985099","2","0","2","0.5,0,1,1,0.5,0,0,1,0.5",""
"","html-keyboard-response","336","169764","0.0-336.0","3MRNMEIQW6SIA77RZKEW2J1IW1OLDH","AOAZMLP27GD81","368IUKXGA5U7UZ9GQNUNOB4MGE4P6M","","null","<img src=""img/animal2.png"" style=""width:200px;border:14px solid red;"">","null","","","","","",""
"","image-keyboard-response","337","170064","0.0-337.0","3MRNMEIQW6SIA77RZKEW2J1IW1OLDH","AOAZMLP27GD81","368IUKXGA5U7UZ9GQNUNOB4MGE4P6M","","299.3999999985099","img/animal2.png","75","299.79999999701977","2","0","2","0.5,0,1,1,0.5,0,0,1,0.5",""
"","html-keyboard-response","338","170365","0.0-338.0","3MRNMEIQW6SIA77RZKEW2J1IW1OLDH","AOAZMLP27GD81","368IUKXGA5U7UZ9GQNUNOB4MGE4P6M","","null","<img src=""img/animal2.png"" style=""width:200px;border:14px solid red;"">","null","","","","","",""
"","image-keyboard-response","339","170991","0.0-339.0","3MRNMEIQW6SIA77RZKEW2J1IW1OLDH","AOAZMLP27GD81","368IUKXGA5U7UZ9GQNUNOB4MGE4P6M","","625.2999999970198","img/animal3.png","76","625.7999999970198","3","1","1","0.5,0,1,1,0.5,0,0,1,0.5",""
"","html-keyboard-response","340","171293","0.0-340.0","3MRNMEIQW6SIA77RZKEW2J1IW1OLDH","AOAZMLP27GD81","368IUKXGA5U7UZ9GQNUNOB4MGE4P6M","","null","<img src=""img/animal3.png"" style=""width:200px; border:14px solid green;"">","null","","","","","",""
"","image-keyboard-response","341","172182","0.0-341.0","3MRNMEIQW6SIA77RZKEW2J1IW1OLDH","AOAZMLP27GD81","368IUKXGA5U7UZ9GQNUNOB4MGE4P6M","","888.5","img/animal6.png","75","889","2","1","3","0.5,0,1,1,0.5,0,0,1,0.5",""
"","html-keyboard-response","342","172483","0.0-342.0","3MRNMEIQW6SIA77RZKEW2J1IW1OLDH","AOAZMLP27GD81","368IUKXGA5U7UZ9GQNUNOB4MGE4P6M","","null","<img src=""img/animal6.png"" style=""width:200px; border:14px solid green;"">","null","","","","","",""
"","image-keyboard-response","343","173078","0.0-343.0","3MRNMEIQW6SIA77RZKEW2J1IW1OLDH","AOAZMLP27GD81","368IUKXGA5U7UZ9GQNUNOB4MGE4P6M","","594.3999999985099","img/animal2.png","75","594.7000000029802","2","0","2","0.5,0,1,1,0.5,0,0,1,0.5",""
"","html-keyboard-response","344","173379","0.0-344.0","3MRNMEIQW6SIA77RZKEW2J1IW1OLDH","AOAZMLP27GD81","368IUKXGA5U7UZ9GQNUNOB4MGE4P6M","","null","<img src=""img/animal2.png"" style=""width:200px;border:14px solid red;"">","null","","","","","",""
"","image-keyboard-response","345","174060","0.0-345.0","3MRNMEIQW6SIA77RZKEW2J1IW1OLDH","AOAZMLP27GD81","368IUKXGA5U7UZ9GQNUNOB4MGE4P6M","","680.7000000029802","img/animal3.png","76","681","3","1","1","0.5,0,1,1,0.5,0,0,1,0.5",""
"","html-keyboard-response","346","174362","0.0-346.0","3MRNMEIQW6SIA77RZKEW2J1IW1OLDH","AOAZMLP27GD81","368IUKXGA5U7UZ9GQNUNOB4MGE4P6M","","null","<img src=""img/animal3.png"" style=""width:200px; border:14px solid green;"">","null","","","","","",""
"","image-keyboard-response","347","175095","0.0-347.0","3MRNMEIQW6SIA77RZKEW2J1IW1OLDH","AOAZMLP27GD81","368IUKXGA5U7UZ9GQNUNOB4MGE4P6M","","732.4000000059605","img/animal6.png","75","732.7999999970198","2","1","3","0.5,0,1,1,0.5,0,0,1,0.5",""
"","html-keyboard-response","348","175397","0.0-348.0","3MRNMEIQW6SIA77RZKEW2J1IW1OLDH","AOAZMLP27GD81","368IUKXGA5U7UZ9GQNUNOB4MGE4P6M","","null","<img src=""img/animal6.png"" style=""width:200px; border:14px solid green;"">","null","","","","","",""
"","image-keyboard-response","349","175728","0.0-349.0","3MRNMEIQW6SIA77RZKEW2J1IW1OLDH","AOAZMLP27GD81","368IUKXGA5U7UZ9GQNUNOB4MGE4P6M","","330.30000000447035","img/animal6.png","75","330.69999999552965","2","1","3","0.5,0,1,1,0.5,0,0,1,0.5",""
"","html-keyboard-response","350","176029","0.0-350.0","3MRNMEIQW6SIA77RZKEW2J1IW1OLDH","AOAZMLP27GD81","368IUKXGA5U7UZ9GQNUNOB4MGE4P6M","","null","<img src=""img/animal6.png"" style=""width:200px; border:14px solid green;"">","null","","","","","",""
"","image-keyboard-response","351","176530","0.0-351.0","3MRNMEIQW6SIA77RZKEW2J1IW1OLDH","AOAZMLP27GD81","368IUKXGA5U7UZ9GQNUNOB4MGE4P6M","","500.1000000014901","img/animal3.png","75","500.6000000014901","2","0","1","0.5,0,1,1,0.5,0,0,1,0.5",""
"","html-keyboard-response","352","176832","0.0-352.0","3MRNMEIQW6SIA77RZKEW2J1IW1OLDH","AOAZMLP27GD81","368IUKXGA5U7UZ9GQNUNOB4MGE4P6M","","null","<img src=""img/animal3.png"" style=""width:200px;border:14px solid red;"">","null","","","","","",""
"","image-keyboard-response","353","177228","0.0-353.0","3MRNMEIQW6SIA77RZKEW2J1IW1OLDH","AOAZMLP27GD81","368IUKXGA5U7UZ9GQNUNOB4MGE4P6M","","396","img/animal3.png","76","396.1000000014901","3","1","1","0.5,0,1,1,0.5,0,0,1,0.5",""
"","html-keyboard-response","354","177529","0.0-354.0","3MRNMEIQW6SIA77RZKEW2J1IW1OLDH","AOAZMLP27GD81","368IUKXGA5U7UZ9GQNUNOB4MGE4P6M","","null","<img src=""img/animal3.png"" style=""width:200px; border:14px solid green;"">","null","","","","","",""
"","image-keyboard-response","355","177850","0.0-355.0","3MRNMEIQW6SIA77RZKEW2J1IW1OLDH","AOAZMLP27GD81","368IUKXGA5U7UZ9GQNUNOB4MGE4P6M","","320.40000000596046","img/animal3.png","76","320.69999999552965","3","1","1","0.5,0,1,1,0.5,0,0,1,0.5",""
"","html-keyboard-response","356","178152","0.0-356.0","3MRNMEIQW6SIA77RZKEW2J1IW1OLDH","AOAZMLP27GD81","368IUKXGA5U7UZ9GQNUNOB4MGE4P6M","","null","<img src=""img/animal3.png"" style=""width:200px; border:14px solid green;"">","null","","","","","",""
"","image-keyboard-response","357","178744","0.0-357.0","3MRNMEIQW6SIA77RZKEW2J1IW1OLDH","AOAZMLP27GD81","368IUKXGA5U7UZ9GQNUNOB4MGE4P6M","","592","img/animal2.png","75","592.3999999985099","2","0","2","0.5,0,1,1,0.5,0,0,1,0.5",""
"","html-keyboard-response","358","179046","0.0-358.0","3MRNMEIQW6SIA77RZKEW2J1IW1OLDH","AOAZMLP27GD81","368IUKXGA5U7UZ9GQNUNOB4MGE4P6M","","null","<img src=""img/animal2.png"" style=""width:200px;border:14px solid red;"">","null","","","","","",""
"","image-keyboard-response","359","179973","0.0-359.0","3MRNMEIQW6SIA77RZKEW2J1IW1OLDH","AOAZMLP27GD81","368IUKXGA5U7UZ9GQNUNOB4MGE4P6M","","926.8999999985099","img/animal2.png","75","927.2000000029802","2","0","2","0.5,0,1,1,0.5,0,0,1,0.5",""
"","html-keyboard-response","360","180275","0.0-360.0","3MRNMEIQW6SIA77RZKEW2J1IW1OLDH","AOAZMLP27GD81","368IUKXGA5U7UZ9GQNUNOB4MGE4P6M","","null","<img src=""img/animal2.png"" style=""width:200px;border:14px solid red;"">","null","","","","","",""
"","image-keyboard-response","361","181041","0.0-361.0","3MRNMEIQW6SIA77RZKEW2J1IW1OLDH","AOAZMLP27GD81","368IUKXGA5U7UZ9GQNUNOB4MGE4P6M","","766","img/animal6.png","75","766.3999999985099","2","1","3","0.5,0,1,1,0.5,0,0,1,0.5",""
"","html-keyboard-response","362","181342","0.0-362.0","3MRNMEIQW6SIA77RZKEW2J1IW1OLDH","AOAZMLP27GD81","368IUKXGA5U7UZ9GQNUNOB4MGE4P6M","","null","<img src=""img/animal6.png"" style=""width:200px; border:14px solid green;"">","null","","","","","",""
"","instructions","363","183962","0.0-363.0","3MRNMEIQW6SIA77RZKEW2J1IW1OLDH","AOAZMLP27GD81","368IUKXGA5U7UZ9GQNUNOB4MGE4P6M","[{""page_index"":0,""viewing_time"":2619}]","2619.10000000149","","","","","","","",""
"","survey-text","364","186658","0.0-364.0","3MRNMEIQW6SIA77RZKEW2J1IW1OLDH","AOAZMLP27GD81","368IUKXGA5U7UZ9GQNUNOB4MGE4P6M","","2695.2000000029802","","","","","","","","{""Q0"":""AOAZMLP27GD81""}"
