"success","trial_type","trial_index","time_elapsed","internal_node_id","assignmentID","mturkID","hitID","view_history","rt","stimulus","key_press","reactionTime","a","r","s","reward_cond","responses"
"true","fullscreen","0","4115","0.0-0.0","39LNWE0K4VI218A70C78K3DE2D9UI3","AZCGSVDT79E6X","3UAU495MIIEABANG75FBFHDC9WUUOI","","","","","","","","","",""
"","instructions","1","32453","0.0-1.0","39LNWE0K4VI218A70C78K3DE2D9UI3","AZCGSVDT79E6X","3UAU495MIIEABANG75FBFHDC9WUUOI","[{""page_index"":0,""viewing_time"":7542.799999952316},{""page_index"":1,""viewing_time"":2601.9000000953674},{""page_index"":2,""viewing_time"":6006},{""page_index"":3,""viewing_time"":4201.899999976158},{""page_index"":4,""viewing_time"":1885.8999999761581},{""page_index"":5,""viewing_time"":2028.1000000238419},{""page_index"":6,""viewing_time"":3168.899999976158},{""page_index"":7,""viewing_time"":902.1000000238419}]","28338","","","","","","","",""
"","image-keyboard-response","2","33828","0.0-2.0","39LNWE0K4VI218A70C78K3DE2D9UI3","AZCGSVDT79E6X","3UAU495MIIEABANG75FBFHDC9WUUOI","","1374.1000000238419","img/animal3.png","74","1374.7999999523163","1","1","2","1,0.5,0,1,0,0.5,0.5,0,1",""
"","html-keyboard-response","3","34130","0.0-3.0","39LNWE0K4VI218A70C78K3DE2D9UI3","AZCGSVDT79E6X","3UAU495MIIEABANG75FBFHDC9WUUOI","","null","<img src=""img/animal3.png"" style=""width:200px; border:14px solid green;"">","null","","","","","",""
"","image-keyboard-response","4","34853","0.0-4.0","39LNWE0K4VI218A70C78K3DE2D9UI3","AZCGSVDT79E6X","3UAU495MIIEABANG75FBFHDC9WUUOI","","722.7000000476837","img/animal5.png","75","723.1999999284744","2","0","1","1,0.5,0,1,0,0.5,0.5,0,1",""
"","html-keyboard-response","5","35154","0.0-5.0","39LNWE0K4VI218A70C78K3DE2D9UI3","AZCGSVDT79E6X","3UAU495MIIEABANG75FBFHDC9WUUOI","","null","<img src=""img/animal5.png"" style=""width:200px;border:14px solid red;"">","null","","","","","",""
"","image-keyboard-response","6","36203","0.0-6.0","39LNWE0K4VI218A70C78K3DE2D9UI3","AZCGSVDT79E6X","3UAU495MIIEABANG75FBFHDC9WUUOI","","1048.5","img/animal4.png","75","1048.8000000715256","2","0","3","1,0.5,0,1,0,0.5,0.5,0,1",""
"","html-keyboard-response","7","36504","0.0-7.0","39LNWE0K4VI218A70C78K3DE2D9UI3","AZCGSVDT79E6X","3UAU495MIIEABANG75FBFHDC9WUUOI","","null","<img src=""img/animal4.png"" style=""width:200px;border:14px solid red;"">","null","","","","","",""
"","image-keyboard-response","8","37252","0.0-8.0","39LNWE0K4VI218A70C78K3DE2D9UI3","AZCGSVDT79E6X","3UAU495MIIEABANG75FBFHDC9WUUOI","","747.8000000715256","img/animal3.png","74","748","1","1","2","1,0.5,0,1,0,0.5,0.5,0,1",""
"","html-keyboard-response","9","37553","0.0-9.0","39LNWE0K4VI218A70C78K3DE2D9UI3","AZCGSVDT79E6X","3UAU495MIIEABANG75FBFHDC9WUUOI","","null","<img src=""img/animal3.png"" style=""width:200px; border:14px solid green;"">","null","","","","","",""
"","image-keyboard-response","10","38203","0.0-10.0","39LNWE0K4VI218A70C78K3DE2D9UI3","AZCGSVDT79E6X","3UAU495MIIEABANG75FBFHDC9WUUOI","","649.2000000476837","img/animal4.png","76","649.6000000238419","3","1","3","1,0.5,0,1,0,0.5,0.5,0,1",""
"","html-keyboard-response","11","38504","0.0-11.0","39LNWE0K4VI218A70C78K3DE2D9UI3","AZCGSVDT79E6X","3UAU495MIIEABANG75FBFHDC9WUUOI","","null","<img src=""img/animal4.png"" style=""width:200px; border:14px solid green;"">","null","","","","","",""
"","image-keyboard-response","12","38906","0.0-12.0","39LNWE0K4VI218A70C78K3DE2D9UI3","AZCGSVDT79E6X","3UAU495MIIEABANG75FBFHDC9WUUOI","","401.2000000476837","img/animal4.png","76","401.7000000476837","3","1","3","1,0.5,0,1,0,0.5,0.5,0,1",""
"","html-keyboard-response","13","39207","0.0-13.0","39LNWE0K4VI218A70C78K3DE2D9UI3","AZCGSVDT79E6X","3UAU495MIIEABANG75FBFHDC9WUUOI","","null","<img src=""img/animal4.png"" style=""width:200px; border:14px solid green;"">","null","","","","","",""
"","image-keyboard-response","14","40158","0.0-14.0","39LNWE0K4VI218A70C78K3DE2D9UI3","AZCGSVDT79E6X","3UAU495MIIEABANG75FBFHDC9WUUOI","","951","img/animal5.png","74","951.3000000715256","1","1","1","1,0.5,0,1,0,0.5,0.5,0,1",""
"","html-keyboard-response","15","40459","0.0-15.0","39LNWE0K4VI218A70C78K3DE2D9UI3","AZCGSVDT79E6X","3UAU495MIIEABANG75FBFHDC9WUUOI","","null","<img src=""img/animal5.png"" style=""width:200px; border:14px solid green;"">","null","","","","","",""
"","image-keyboard-response","16","40748","0.0-16.0","39LNWE0K4VI218A70C78K3DE2D9UI3","AZCGSVDT79E6X","3UAU495MIIEABANG75FBFHDC9WUUOI","","288.2000000476837","img/animal5.png","74","288.60000002384186","1","1","1","1,0.5,0,1,0,0.5,0.5,0,1",""
"","html-keyboard-response","17","41049","0.0-17.0","39LNWE0K4VI218A70C78K3DE2D9UI3","AZCGSVDT79E6X","3UAU495MIIEABANG75FBFHDC9WUUOI","","null","<img src=""img/animal5.png"" style=""width:200px; border:14px solid green;"">","null","","","","","",""
"","image-keyboard-response","18","42612","0.0-18.0","39LNWE0K4VI218A70C78K3DE2D9UI3","AZCGSVDT79E6X","3UAU495MIIEABANG75FBFHDC9WUUOI","","1562.6000000238419","img/animal4.png","74","1563.1000000238419","1","0","3","1,0.5,0,1,0,0.5,0.5,0,1",""
"","html-keyboard-response","19","42914","0.0-19.0","39LNWE0K4VI218A70C78K3DE2D9UI3","AZCGSVDT79E6X","3UAU495MIIEABANG75FBFHDC9WUUOI","","null","<img src=""img/animal4.png"" style=""width:200px;border:14px solid red;"">","null","","","","","",""
"","image-keyboard-response","20","43470","0.0-20.0","39LNWE0K4VI218A70C78K3DE2D9UI3","AZCGSVDT79E6X","3UAU495MIIEABANG75FBFHDC9WUUOI","","556.1000000238419","img/animal5.png","74","556.5","1","1","1","1,0.5,0,1,0,0.5,0.5,0,1",""
"","html-keyboard-response","21","43771","0.0-21.0","39LNWE0K4VI218A70C78K3DE2D9UI3","AZCGSVDT79E6X","3UAU495MIIEABANG75FBFHDC9WUUOI","","null","<img src=""img/animal5.png"" style=""width:200px; border:14px solid green;"">","null","","","","","",""
"","image-keyboard-response","22","44332","0.0-22.0","39LNWE0K4VI218A70C78K3DE2D9UI3","AZCGSVDT79E6X","3UAU495MIIEABANG75FBFHDC9WUUOI","","560.7000000476837","img/animal4.png","76","561","3","1","3","1,0.5,0,1,0,0.5,0.5,0,1",""
"","html-keyboard-response","23","44633","0.0-23.0","39LNWE0K4VI218A70C78K3DE2D9UI3","AZCGSVDT79E6X","3UAU495MIIEABANG75FBFHDC9WUUOI","","null","<img src=""img/animal4.png"" style=""width:200px; border:14px solid green;"">","null","","","","","",""
"","image-keyboard-response","24","45139","0.0-24.0","39LNWE0K4VI218A70C78K3DE2D9UI3","AZCGSVDT79E6X","3UAU495MIIEABANG75FBFHDC9WUUOI","","505.7000000476837","img/animal4.png","76","506.10000002384186","3","1","3","1,0.5,0,1,0,0.5,0.5,0,1",""
"","html-keyboard-response","25","45440","0.0-25.0","39LNWE0K4VI218A70C78K3DE2D9UI3","AZCGSVDT79E6X","3UAU495MIIEABANG75FBFHDC9WUUOI","","null","<img src=""img/animal4.png"" style=""width:200px; border:14px solid green;"">","null","","","","","",""
"","image-keyboard-response","26","45843","0.0-26.0","39LNWE0K4VI218A70C78K3DE2D9UI3","AZCGSVDT79E6X","3UAU495MIIEABANG75FBFHDC9WUUOI","","402.7000000476837","img/animal5.png","74","403","1","1","1","1,0.5,0,1,0,0.5,0.5,0,1",""
"","html-keyboard-response","27","46144","0.0-27.0","39LNWE0K4VI218A70C78K3DE2D9UI3","AZCGSVDT79E6X","3UAU495MIIEABANG75FBFHDC9WUUOI","","null","<img src=""img/animal5.png"" style=""width:200px; border:14px solid green;"">","null","","","","","",""
"","image-keyboard-response","28","46695","0.0-28.0","39LNWE0K4VI218A70C78K3DE2D9UI3","AZCGSVDT79E6X","3UAU495MIIEABANG75FBFHDC9WUUOI","","550.6000000238419","img/animal3.png","74","551","1","1","2","1,0.5,0,1,0,0.5,0.5,0,1",""
"","html-keyboard-response","29","46996","0.0-29.0","39LNWE0K4VI218A70C78K3DE2D9UI3","AZCGSVDT79E6X","3UAU495MIIEABANG75FBFHDC9WUUOI","","null","<img src=""img/animal3.png"" style=""width:200px; border:14px solid green;"">","null","","","","","",""
"","image-keyboard-response","30","47407","0.0-30.0","39LNWE0K4VI218A70C78K3DE2D9UI3","AZCGSVDT79E6X","3UAU495MIIEABANG75FBFHDC9WUUOI","","410.39999997615814","img/animal5.png","74","410.7000000476837","1","1","1","1,0.5,0,1,0,0.5,0.5,0,1",""
"","html-keyboard-response","31","47708","0.0-31.0","39LNWE0K4VI218A70C78K3DE2D9UI3","AZCGSVDT79E6X","3UAU495MIIEABANG75FBFHDC9WUUOI","","null","<img src=""img/animal5.png"" style=""width:200px; border:14px solid green;"">","null","","","","","",""
"","image-keyboard-response","32","48042","0.0-32.0","39LNWE0K4VI218A70C78K3DE2D9UI3","AZCGSVDT79E6X","3UAU495MIIEABANG75FBFHDC9WUUOI","","333.60000002384186","img/animal5.png","74","333.89999997615814","1","1","1","1,0.5,0,1,0,0.5,0.5,0,1",""
"","html-keyboard-response","33","48343","0.0-33.0","39LNWE0K4VI218A70C78K3DE2D9UI3","AZCGSVDT79E6X","3UAU495MIIEABANG75FBFHDC9WUUOI","","null","<img src=""img/animal5.png"" style=""width:200px; border:14px solid green;"">","null","","","","","",""
"","image-keyboard-response","34","48647","0.0-34.0","39LNWE0K4VI218A70C78K3DE2D9UI3","AZCGSVDT79E6X","3UAU495MIIEABANG75FBFHDC9WUUOI","","303.7999999523163","img/animal5.png","74","304.2000000476837","1","1","1","1,0.5,0,1,0,0.5,0.5,0,1",""
"","html-keyboard-response","35","48948","0.0-35.0","39LNWE0K4VI218A70C78K3DE2D9UI3","AZCGSVDT79E6X","3UAU495MIIEABANG75FBFHDC9WUUOI","","null","<img src=""img/animal5.png"" style=""width:200px; border:14px solid green;"">","null","","","","","",""
"","image-keyboard-response","36","49190","0.0-36.0","39LNWE0K4VI218A70C78K3DE2D9UI3","AZCGSVDT79E6X","3UAU495MIIEABANG75FBFHDC9WUUOI","","241.89999997615814","img/animal5.png","74","242.10000002384186","1","1","1","1,0.5,0,1,0,0.5,0.5,0,1",""
"","html-keyboard-response","37","49491","0.0-37.0","39LNWE0K4VI218A70C78K3DE2D9UI3","AZCGSVDT79E6X","3UAU495MIIEABANG75FBFHDC9WUUOI","","null","<img src=""img/animal5.png"" style=""width:200px; border:14px solid green;"">","null","","","","","",""
"","image-keyboard-response","38","49958","0.0-38.0","39LNWE0K4VI218A70C78K3DE2D9UI3","AZCGSVDT79E6X","3UAU495MIIEABANG75FBFHDC9WUUOI","","466.7000000476837","img/animal4.png","76","467","3","1","3","1,0.5,0,1,0,0.5,0.5,0,1",""
"","html-keyboard-response","39","50259","0.0-39.0","39LNWE0K4VI218A70C78K3DE2D9UI3","AZCGSVDT79E6X","3UAU495MIIEABANG75FBFHDC9WUUOI","","null","<img src=""img/animal4.png"" style=""width:200px; border:14px solid green;"">","null","","","","","",""
"","image-keyboard-response","40","50658","0.0-40.0","39LNWE0K4VI218A70C78K3DE2D9UI3","AZCGSVDT79E6X","3UAU495MIIEABANG75FBFHDC9WUUOI","","398.5","img/animal5.png","74","399","1","1","1","1,0.5,0,1,0,0.5,0.5,0,1",""
"","html-keyboard-response","41","50959","0.0-41.0","39LNWE0K4VI218A70C78K3DE2D9UI3","AZCGSVDT79E6X","3UAU495MIIEABANG75FBFHDC9WUUOI","","null","<img src=""img/animal5.png"" style=""width:200px; border:14px solid green;"">","null","","","","","",""
"","image-keyboard-response","42","51342","0.0-42.0","39LNWE0K4VI218A70C78K3DE2D9UI3","AZCGSVDT79E6X","3UAU495MIIEABANG75FBFHDC9WUUOI","","382.89999997615814","img/animal5.png","74","383.3000000715256","1","1","1","1,0.5,0,1,0,0.5,0.5,0,1",""
"","html-keyboard-response","43","51642","0.0-43.0","39LNWE0K4VI218A70C78K3DE2D9UI3","AZCGSVDT79E6X","3UAU495MIIEABANG75FBFHDC9WUUOI","","null","<img src=""img/animal5.png"" style=""width:200px; border:14px solid green;"">","null","","","","","",""
"","image-keyboard-response","44","52157","0.0-44.0","39LNWE0K4VI218A70C78K3DE2D9UI3","AZCGSVDT79E6X","3UAU495MIIEABANG75FBFHDC9WUUOI","","514.1000000238419","img/animal3.png","74","514.3999999761581","1","1","2","1,0.5,0,1,0,0.5,0.5,0,1",""
"","html-keyboard-response","45","52458","0.0-45.0","39LNWE0K4VI218A70C78K3DE2D9UI3","AZCGSVDT79E6X","3UAU495MIIEABANG75FBFHDC9WUUOI","","null","<img src=""img/animal3.png"" style=""width:200px; border:14px solid green;"">","null","","","","","",""
"","image-keyboard-response","46","52936","0.0-46.0","39LNWE0K4VI218A70C78K3DE2D9UI3","AZCGSVDT79E6X","3UAU495MIIEABANG75FBFHDC9WUUOI","","477.2999999523163","img/animal5.png","74","477.60000002384186","1","1","1","1,0.5,0,1,0,0.5,0.5,0,1",""
"","html-keyboard-response","47","53237","0.0-47.0","39LNWE0K4VI218A70C78K3DE2D9UI3","AZCGSVDT79E6X","3UAU495MIIEABANG75FBFHDC9WUUOI","","null","<img src=""img/animal5.png"" style=""width:200px; border:14px solid green;"">","null","","","","","",""
"","image-keyboard-response","48","53735","0.0-48.0","39LNWE0K4VI218A70C78K3DE2D9UI3","AZCGSVDT79E6X","3UAU495MIIEABANG75FBFHDC9WUUOI","","497.2999999523163","img/animal4.png","76","497.7000000476837","3","1","3","1,0.5,0,1,0,0.5,0.5,0,1",""
"","html-keyboard-response","49","54037","0.0-49.0","39LNWE0K4VI218A70C78K3DE2D9UI3","AZCGSVDT79E6X","3UAU495MIIEABANG75FBFHDC9WUUOI","","null","<img src=""img/animal4.png"" style=""width:200px; border:14px solid green;"">","null","","","","","",""
"","image-keyboard-response","50","54430","0.0-50.0","39LNWE0K4VI218A70C78K3DE2D9UI3","AZCGSVDT79E6X","3UAU495MIIEABANG75FBFHDC9WUUOI","","392.7999999523163","img/animal3.png","74","393.10000002384186","1","1","2","1,0.5,0,1,0,0.5,0.5,0,1",""
"","html-keyboard-response","51","54731","0.0-51.0","39LNWE0K4VI218A70C78K3DE2D9UI3","AZCGSVDT79E6X","3UAU495MIIEABANG75FBFHDC9WUUOI","","null","<img src=""img/animal3.png"" style=""width:200px; border:14px solid green;"">","null","","","","","",""
"","image-keyboard-response","52","55256","0.0-52.0","39LNWE0K4VI218A70C78K3DE2D9UI3","AZCGSVDT79E6X","3UAU495MIIEABANG75FBFHDC9WUUOI","","524.5","img/animal3.png","74","524.9000000953674","1","1","2","1,0.5,0,1,0,0.5,0.5,0,1",""
"","html-keyboard-response","53","55557","0.0-53.0","39LNWE0K4VI218A70C78K3DE2D9UI3","AZCGSVDT79E6X","3UAU495MIIEABANG75FBFHDC9WUUOI","","null","<img src=""img/animal3.png"" style=""width:200px; border:14px solid green;"">","null","","","","","",""
"","image-keyboard-response","54","55859","0.0-54.0","39LNWE0K4VI218A70C78K3DE2D9UI3","AZCGSVDT79E6X","3UAU495MIIEABANG75FBFHDC9WUUOI","","301.10000002384186","img/animal3.png","74","301.39999997615814","1","1","2","1,0.5,0,1,0,0.5,0.5,0,1",""
"","html-keyboard-response","55","56160","0.0-55.0","39LNWE0K4VI218A70C78K3DE2D9UI3","AZCGSVDT79E6X","3UAU495MIIEABANG75FBFHDC9WUUOI","","null","<img src=""img/animal3.png"" style=""width:200px; border:14px solid green;"">","null","","","","","",""
"","image-keyboard-response","56","56515","0.0-56.0","39LNWE0K4VI218A70C78K3DE2D9UI3","AZCGSVDT79E6X","3UAU495MIIEABANG75FBFHDC9WUUOI","","354.5","img/animal4.png","74","355","1","1","3","1,0.5,0,1,0,0.5,0.5,0,1",""
"","html-keyboard-response","57","56816","0.0-57.0","39LNWE0K4VI218A70C78K3DE2D9UI3","AZCGSVDT79E6X","3UAU495MIIEABANG75FBFHDC9WUUOI","","null","<img src=""img/animal4.png"" style=""width:200px; border:14px solid green;"">","null","","","","","",""
"","image-keyboard-response","58","57165","0.0-58.0","39LNWE0K4VI218A70C78K3DE2D9UI3","AZCGSVDT79E6X","3UAU495MIIEABANG75FBFHDC9WUUOI","","348.2999999523163","img/animal4.png","74","348.5","1","1","3","1,0.5,0,1,0,0.5,0.5,0,1",""
"","html-keyboard-response","59","57466","0.0-59.0","39LNWE0K4VI218A70C78K3DE2D9UI3","AZCGSVDT79E6X","3UAU495MIIEABANG75FBFHDC9WUUOI","","null","<img src=""img/animal4.png"" style=""width:200px; border:14px solid green;"">","null","","","","","",""
"","image-keyboard-response","60","57766","0.0-60.0","39LNWE0K4VI218A70C78K3DE2D9UI3","AZCGSVDT79E6X","3UAU495MIIEABANG75FBFHDC9WUUOI","","299.39999997615814","img/animal4.png","74","299.7000000476837","1","0","3","1,0.5,0,1,0,0.5,0.5,0,1",""
"","html-keyboard-response","61","58067","0.0-61.0","39LNWE0K4VI218A70C78K3DE2D9UI3","AZCGSVDT79E6X","3UAU495MIIEABANG75FBFHDC9WUUOI","","null","<img src=""img/animal4.png"" style=""width:200px;border:14px solid red;"">","null","","","","","",""
"","image-keyboard-response","62","58736","0.0-62.0","39LNWE0K4VI218A70C78K3DE2D9UI3","AZCGSVDT79E6X","3UAU495MIIEABANG75FBFHDC9WUUOI","","668.3999999761581","img/animal4.png","76","668.8000000715256","3","1","3","1,0.5,0,1,0,0.5,0.5,0,1",""
"","html-keyboard-response","63","59037","0.0-63.0","39LNWE0K4VI218A70C78K3DE2D9UI3","AZCGSVDT79E6X","3UAU495MIIEABANG75FBFHDC9WUUOI","","null","<img src=""img/animal4.png"" style=""width:200px; border:14px solid green;"">","null","","","","","",""
"","image-keyboard-response","64","59420","0.0-64.0","39LNWE0K4VI218A70C78K3DE2D9UI3","AZCGSVDT79E6X","3UAU495MIIEABANG75FBFHDC9WUUOI","","382.6999999284744","img/animal3.png","74","383.2000000476837","1","1","2","1,0.5,0,1,0,0.5,0.5,0,1",""
"","html-keyboard-response","65","59721","0.0-65.0","39LNWE0K4VI218A70C78K3DE2D9UI3","AZCGSVDT79E6X","3UAU495MIIEABANG75FBFHDC9WUUOI","","null","<img src=""img/animal3.png"" style=""width:200px; border:14px solid green;"">","null","","","","","",""
"","image-keyboard-response","66","60138","0.0-66.0","39LNWE0K4VI218A70C78K3DE2D9UI3","AZCGSVDT79E6X","3UAU495MIIEABANG75FBFHDC9WUUOI","","416.5","img/animal5.png","74","416.7999999523163","1","1","1","1,0.5,0,1,0,0.5,0.5,0,1",""
"","html-keyboard-response","67","60439","0.0-67.0","39LNWE0K4VI218A70C78K3DE2D9UI3","AZCGSVDT79E6X","3UAU495MIIEABANG75FBFHDC9WUUOI","","null","<img src=""img/animal5.png"" style=""width:200px; border:14px solid green;"">","null","","","","","",""
"","image-keyboard-response","68","61350","0.0-68.0","39LNWE0K4VI218A70C78K3DE2D9UI3","AZCGSVDT79E6X","3UAU495MIIEABANG75FBFHDC9WUUOI","","910.3999999761581","img/animal3.png","74","910.6000000238419","1","1","2","1,0.5,0,1,0,0.5,0.5,0,1",""
"","html-keyboard-response","69","61651","0.0-69.0","39LNWE0K4VI218A70C78K3DE2D9UI3","AZCGSVDT79E6X","3UAU495MIIEABANG75FBFHDC9WUUOI","","null","<img src=""img/animal3.png"" style=""width:200px; border:14px solid green;"">","null","","","","","",""
"","image-keyboard-response","70","61920","0.0-70.0","39LNWE0K4VI218A70C78K3DE2D9UI3","AZCGSVDT79E6X","3UAU495MIIEABANG75FBFHDC9WUUOI","","268.5","img/animal3.png","74","268.7000000476837","1","1","2","1,0.5,0,1,0,0.5,0.5,0,1",""
"","html-keyboard-response","71","62221","0.0-71.0","39LNWE0K4VI218A70C78K3DE2D9UI3","AZCGSVDT79E6X","3UAU495MIIEABANG75FBFHDC9WUUOI","","null","<img src=""img/animal3.png"" style=""width:200px; border:14px solid green;"">","null","","","","","",""
"","image-keyboard-response","72","62810","0.0-72.0","39LNWE0K4VI218A70C78K3DE2D9UI3","AZCGSVDT79E6X","3UAU495MIIEABANG75FBFHDC9WUUOI","","588.7000000476837","img/animal5.png","74","589.1000000238419","1","1","1","1,0.5,0,1,0,0.5,0.5,0,1",""
"","html-keyboard-response","73","63111","0.0-73.0","39LNWE0K4VI218A70C78K3DE2D9UI3","AZCGSVDT79E6X","3UAU495MIIEABANG75FBFHDC9WUUOI","","null","<img src=""img/animal5.png"" style=""width:200px; border:14px solid green;"">","null","","","","","",""
"","image-keyboard-response","74","63408","0.0-74.0","39LNWE0K4VI218A70C78K3DE2D9UI3","AZCGSVDT79E6X","3UAU495MIIEABANG75FBFHDC9WUUOI","","296.60000002384186","img/animal5.png","74","297","1","1","1","1,0.5,0,1,0,0.5,0.5,0,1",""
"","html-keyboard-response","75","63709","0.0-75.0","39LNWE0K4VI218A70C78K3DE2D9UI3","AZCGSVDT79E6X","3UAU495MIIEABANG75FBFHDC9WUUOI","","null","<img src=""img/animal5.png"" style=""width:200px; border:14px solid green;"">","null","","","","","",""
"","image-keyboard-response","76","64000","0.0-76.0","39LNWE0K4VI218A70C78K3DE2D9UI3","AZCGSVDT79E6X","3UAU495MIIEABANG75FBFHDC9WUUOI","","290.2999999523163","img/animal5.png","74","290.7000000476837","1","1","1","1,0.5,0,1,0,0.5,0.5,0,1",""
"","html-keyboard-response","77","64301","0.0-77.0","39LNWE0K4VI218A70C78K3DE2D9UI3","AZCGSVDT79E6X","3UAU495MIIEABANG75FBFHDC9WUUOI","","null","<img src=""img/animal5.png"" style=""width:200px; border:14px solid green;"">","null","","","","","",""
"","image-keyboard-response","78","64756","0.0-78.0","39LNWE0K4VI218A70C78K3DE2D9UI3","AZCGSVDT79E6X","3UAU495MIIEABANG75FBFHDC9WUUOI","","454.60000002384186","img/animal4.png","76","454.89999997615814","3","1","3","1,0.5,0,1,0,0.5,0.5,0,1",""
"","html-keyboard-response","79","65057","0.0-79.0","39LNWE0K4VI218A70C78K3DE2D9UI3","AZCGSVDT79E6X","3UAU495MIIEABANG75FBFHDC9WUUOI","","null","<img src=""img/animal4.png"" style=""width:200px; border:14px solid green;"">","null","","","","","",""
"","image-keyboard-response","80","65422","0.0-80.0","39LNWE0K4VI218A70C78K3DE2D9UI3","AZCGSVDT79E6X","3UAU495MIIEABANG75FBFHDC9WUUOI","","364.60000002384186","img/animal5.png","74","364.8000000715256","1","1","1","1,0.5,0,1,0,0.5,0.5,0,1",""
"","html-keyboard-response","81","65723","0.0-81.0","39LNWE0K4VI218A70C78K3DE2D9UI3","AZCGSVDT79E6X","3UAU495MIIEABANG75FBFHDC9WUUOI","","null","<img src=""img/animal5.png"" style=""width:200px; border:14px solid green;"">","null","","","","","",""
"","image-keyboard-response","82","66280","0.0-82.0","39LNWE0K4VI218A70C78K3DE2D9UI3","AZCGSVDT79E6X","3UAU495MIIEABANG75FBFHDC9WUUOI","","556.7000000476837","img/animal4.png","76","557","3","1","3","1,0.5,0,1,0,0.5,0.5,0,1",""
"","html-keyboard-response","83","66581","0.0-83.0","39LNWE0K4VI218A70C78K3DE2D9UI3","AZCGSVDT79E6X","3UAU495MIIEABANG75FBFHDC9WUUOI","","null","<img src=""img/animal4.png"" style=""width:200px; border:14px solid green;"">","null","","","","","",""
"","image-keyboard-response","84","66891","0.0-84.0","39LNWE0K4VI218A70C78K3DE2D9UI3","AZCGSVDT79E6X","3UAU495MIIEABANG75FBFHDC9WUUOI","","309.7000000476837","img/animal4.png","76","310","3","1","3","1,0.5,0,1,0,0.5,0.5,0,1",""
"","html-keyboard-response","85","67191","0.0-85.0","39LNWE0K4VI218A70C78K3DE2D9UI3","AZCGSVDT79E6X","3UAU495MIIEABANG75FBFHDC9WUUOI","","null","<img src=""img/animal4.png"" style=""width:200px; border:14px solid green;"">","null","","","","","",""
"","image-keyboard-response","86","67622","0.0-86.0","39LNWE0K4VI218A70C78K3DE2D9UI3","AZCGSVDT79E6X","3UAU495MIIEABANG75FBFHDC9WUUOI","","429.7999999523163","img/animal5.png","74","430.2000000476837","1","1","1","1,0.5,0,1,0,0.5,0.5,0,1",""
"","html-keyboard-response","87","67923","0.0-87.0","39LNWE0K4VI218A70C78K3DE2D9UI3","AZCGSVDT79E6X","3UAU495MIIEABANG75FBFHDC9WUUOI","","null","<img src=""img/animal5.png"" style=""width:200px; border:14px solid green;"">","null","","","","","",""
"","image-keyboard-response","88","68254","0.0-88.0","39LNWE0K4VI218A70C78K3DE2D9UI3","AZCGSVDT79E6X","3UAU495MIIEABANG75FBFHDC9WUUOI","","330.2999999523163","img/animal3.png","74","330.7000000476837","1","1","2","1,0.5,0,1,0,0.5,0.5,0,1",""
"","html-keyboard-response","89","68555","0.0-89.0","39LNWE0K4VI218A70C78K3DE2D9UI3","AZCGSVDT79E6X","3UAU495MIIEABANG75FBFHDC9WUUOI","","null","<img src=""img/animal3.png"" style=""width:200px; border:14px solid green;"">","null","","","","","",""
"","image-keyboard-response","90","68913","0.0-90.0","39LNWE0K4VI218A70C78K3DE2D9UI3","AZCGSVDT79E6X","3UAU495MIIEABANG75FBFHDC9WUUOI","","357.60000002384186","img/animal3.png","74","357.89999997615814","1","1","2","1,0.5,0,1,0,0.5,0.5,0,1",""
"","html-keyboard-response","91","69213","0.0-91.0","39LNWE0K4VI218A70C78K3DE2D9UI3","AZCGSVDT79E6X","3UAU495MIIEABANG75FBFHDC9WUUOI","","null","<img src=""img/animal3.png"" style=""width:200px; border:14px solid green;"">","null","","","","","",""
"","image-keyboard-response","92","69484","0.0-92.0","39LNWE0K4VI218A70C78K3DE2D9UI3","AZCGSVDT79E6X","3UAU495MIIEABANG75FBFHDC9WUUOI","","269.7999999523163","img/animal4.png","74","270","1","0","3","1,0.5,0,1,0,0.5,0.5,0,1",""
"","html-keyboard-response","93","69784","0.0-93.0","39LNWE0K4VI218A70C78K3DE2D9UI3","AZCGSVDT79E6X","3UAU495MIIEABANG75FBFHDC9WUUOI","","null","<img src=""img/animal4.png"" style=""width:200px;border:14px solid red;"">","null","","","","","",""
"","image-keyboard-response","94","70312","0.0-94.0","39LNWE0K4VI218A70C78K3DE2D9UI3","AZCGSVDT79E6X","3UAU495MIIEABANG75FBFHDC9WUUOI","","526.8999999761581","img/animal5.png","74","527.3000000715256","1","1","1","1,0.5,0,1,0,0.5,0.5,0,1",""
"","html-keyboard-response","95","70613","0.0-95.0","39LNWE0K4VI218A70C78K3DE2D9UI3","AZCGSVDT79E6X","3UAU495MIIEABANG75FBFHDC9WUUOI","","null","<img src=""img/animal5.png"" style=""width:200px; border:14px solid green;"">","null","","","","","",""
"","image-keyboard-response","96","71113","0.0-96.0","39LNWE0K4VI218A70C78K3DE2D9UI3","AZCGSVDT79E6X","3UAU495MIIEABANG75FBFHDC9WUUOI","","498.6999999284744","img/animal3.png","74","499.2000000476837","1","1","2","1,0.5,0,1,0,0.5,0.5,0,1",""
"","html-keyboard-response","97","71414","0.0-97.0","39LNWE0K4VI218A70C78K3DE2D9UI3","AZCGSVDT79E6X","3UAU495MIIEABANG75FBFHDC9WUUOI","","null","<img src=""img/animal3.png"" style=""width:200px; border:14px solid green;"">","null","","","","","",""
"","image-keyboard-response","98","71662","0.0-98.0","39LNWE0K4VI218A70C78K3DE2D9UI3","AZCGSVDT79E6X","3UAU495MIIEABANG75FBFHDC9WUUOI","","247.60000002384186","img/animal3.png","74","248","1","1","2","1,0.5,0,1,0,0.5,0.5,0,1",""
"","html-keyboard-response","99","71963","0.0-99.0","39LNWE0K4VI218A70C78K3DE2D9UI3","AZCGSVDT79E6X","3UAU495MIIEABANG75FBFHDC9WUUOI","","null","<img src=""img/animal3.png"" style=""width:200px; border:14px solid green;"">","null","","","","","",""
"","image-keyboard-response","100","72305","0.0-100.0","39LNWE0K4VI218A70C78K3DE2D9UI3","AZCGSVDT79E6X","3UAU495MIIEABANG75FBFHDC9WUUOI","","341.60000002384186","img/animal4.png","76","341.7999999523163","3","1","3","1,0.5,0,1,0,0.5,0.5,0,1",""
"","html-keyboard-response","101","72606","0.0-101.0","39LNWE0K4VI218A70C78K3DE2D9UI3","AZCGSVDT79E6X","3UAU495MIIEABANG75FBFHDC9WUUOI","","null","<img src=""img/animal4.png"" style=""width:200px; border:14px solid green;"">","null","","","","","",""
"","image-keyboard-response","102","72995","0.0-102.0","39LNWE0K4VI218A70C78K3DE2D9UI3","AZCGSVDT79E6X","3UAU495MIIEABANG75FBFHDC9WUUOI","","388.2999999523163","img/animal5.png","74","388.5","1","1","1","1,0.5,0,1,0,0.5,0.5,0,1",""
"","html-keyboard-response","103","73296","0.0-103.0","39LNWE0K4VI218A70C78K3DE2D9UI3","AZCGSVDT79E6X","3UAU495MIIEABANG75FBFHDC9WUUOI","","null","<img src=""img/animal5.png"" style=""width:200px; border:14px solid green;"">","null","","","","","",""
"","image-keyboard-response","104","73769","0.0-104.0","39LNWE0K4VI218A70C78K3DE2D9UI3","AZCGSVDT79E6X","3UAU495MIIEABANG75FBFHDC9WUUOI","","471.7999999523163","img/animal3.png","74","472.10000002384186","1","1","2","1,0.5,0,1,0,0.5,0.5,0,1",""
"","html-keyboard-response","105","74070","0.0-105.0","39LNWE0K4VI218A70C78K3DE2D9UI3","AZCGSVDT79E6X","3UAU495MIIEABANG75FBFHDC9WUUOI","","null","<img src=""img/animal3.png"" style=""width:200px; border:14px solid green;"">","null","","","","","",""
"","image-keyboard-response","106","74386","0.0-106.0","39LNWE0K4VI218A70C78K3DE2D9UI3","AZCGSVDT79E6X","3UAU495MIIEABANG75FBFHDC9WUUOI","","315","img/animal3.png","74","315.3000000715256","1","1","2","1,0.5,0,1,0,0.5,0.5,0,1",""
"","html-keyboard-response","107","74686","0.0-107.0","39LNWE0K4VI218A70C78K3DE2D9UI3","AZCGSVDT79E6X","3UAU495MIIEABANG75FBFHDC9WUUOI","","null","<img src=""img/animal3.png"" style=""width:200px; border:14px solid green;"">","null","","","","","",""
"","image-keyboard-response","108","74958","0.0-108.0","39LNWE0K4VI218A70C78K3DE2D9UI3","AZCGSVDT79E6X","3UAU495MIIEABANG75FBFHDC9WUUOI","","271","img/animal3.png","74","271.2999999523163","1","1","2","1,0.5,0,1,0,0.5,0.5,0,1",""
"","html-keyboard-response","109","75259","0.0-109.0","39LNWE0K4VI218A70C78K3DE2D9UI3","AZCGSVDT79E6X","3UAU495MIIEABANG75FBFHDC9WUUOI","","null","<img src=""img/animal3.png"" style=""width:200px; border:14px solid green;"">","null","","","","","",""
"","image-keyboard-response","110","75624","0.0-110.0","39LNWE0K4VI218A70C78K3DE2D9UI3","AZCGSVDT79E6X","3UAU495MIIEABANG75FBFHDC9WUUOI","","364.60000002384186","img/animal4.png","76","364.90000009536743","3","1","3","1,0.5,0,1,0,0.5,0.5,0,1",""
"","html-keyboard-response","111","75925","0.0-111.0","39LNWE0K4VI218A70C78K3DE2D9UI3","AZCGSVDT79E6X","3UAU495MIIEABANG75FBFHDC9WUUOI","","null","<img src=""img/animal4.png"" style=""width:200px; border:14px solid green;"">","null","","","","","",""
"","image-keyboard-response","112","76261","0.0-112.0","39LNWE0K4VI218A70C78K3DE2D9UI3","AZCGSVDT79E6X","3UAU495MIIEABANG75FBFHDC9WUUOI","","335.2000000476837","img/animal3.png","74","335.39999997615814","1","1","2","1,0.5,0,1,0,0.5,0.5,0,1",""
"","html-keyboard-response","113","76562","0.0-113.0","39LNWE0K4VI218A70C78K3DE2D9UI3","AZCGSVDT79E6X","3UAU495MIIEABANG75FBFHDC9WUUOI","","null","<img src=""img/animal3.png"" style=""width:200px; border:14px solid green;"">","null","","","","","",""
"","image-keyboard-response","114","76954","0.0-114.0","39LNWE0K4VI218A70C78K3DE2D9UI3","AZCGSVDT79E6X","3UAU495MIIEABANG75FBFHDC9WUUOI","","391.5","img/animal4.png","76","391.7000000476837","3","1","3","1,0.5,0,1,0,0.5,0.5,0,1",""
"","html-keyboard-response","115","77255","0.0-115.0","39LNWE0K4VI218A70C78K3DE2D9UI3","AZCGSVDT79E6X","3UAU495MIIEABANG75FBFHDC9WUUOI","","null","<img src=""img/animal4.png"" style=""width:200px; border:14px solid green;"">","null","","","","","",""
"","image-keyboard-response","116","77600","0.0-116.0","39LNWE0K4VI218A70C78K3DE2D9UI3","AZCGSVDT79E6X","3UAU495MIIEABANG75FBFHDC9WUUOI","","344.2999999523163","img/animal4.png","76","344.60000002384186","3","1","3","1,0.5,0,1,0,0.5,0.5,0,1",""
"","html-keyboard-response","117","77901","0.0-117.0","39LNWE0K4VI218A70C78K3DE2D9UI3","AZCGSVDT79E6X","3UAU495MIIEABANG75FBFHDC9WUUOI","","null","<img src=""img/animal4.png"" style=""width:200px; border:14px solid green;"">","null","","","","","",""
"","image-keyboard-response","118","78175","0.0-118.0","39LNWE0K4VI218A70C78K3DE2D9UI3","AZCGSVDT79E6X","3UAU495MIIEABANG75FBFHDC9WUUOI","","273.10000002384186","img/animal4.png","76","273.5","3","1","3","1,0.5,0,1,0,0.5,0.5,0,1",""
"","html-keyboard-response","119","78476","0.0-119.0","39LNWE0K4VI218A70C78K3DE2D9UI3","AZCGSVDT79E6X","3UAU495MIIEABANG75FBFHDC9WUUOI","","null","<img src=""img/animal4.png"" style=""width:200px; border:14px solid green;"">","null","","","","","",""
"","image-keyboard-response","120","78838","0.0-120.0","39LNWE0K4VI218A70C78K3DE2D9UI3","AZCGSVDT79E6X","3UAU495MIIEABANG75FBFHDC9WUUOI","","361.5","img/animal3.png","74","361.89999997615814","1","1","2","1,0.5,0,1,0,0.5,0.5,0,1",""
"","html-keyboard-response","121","79138","0.0-121.0","39LNWE0K4VI218A70C78K3DE2D9UI3","AZCGSVDT79E6X","3UAU495MIIEABANG75FBFHDC9WUUOI","","null","<img src=""img/animal3.png"" style=""width:200px; border:14px solid green;"">","null","","","","","",""
"","image-keyboard-response","122","79437","0.0-122.0","39LNWE0K4VI218A70C78K3DE2D9UI3","AZCGSVDT79E6X","3UAU495MIIEABANG75FBFHDC9WUUOI","","297.6999999284744","img/animal3.png","74","298.10000002384186","1","1","2","1,0.5,0,1,0,0.5,0.5,0,1",""
"","html-keyboard-response","123","79737","0.0-123.0","39LNWE0K4VI218A70C78K3DE2D9UI3","AZCGSVDT79E6X","3UAU495MIIEABANG75FBFHDC9WUUOI","","null","<img src=""img/animal3.png"" style=""width:200px; border:14px solid green;"">","null","","","","","",""
"","image-keyboard-response","124","80008","0.0-124.0","39LNWE0K4VI218A70C78K3DE2D9UI3","AZCGSVDT79E6X","3UAU495MIIEABANG75FBFHDC9WUUOI","","269.89999997615814","img/animal3.png","74","270.2000000476837","1","1","2","1,0.5,0,1,0,0.5,0.5,0,1",""
"","html-keyboard-response","125","80309","0.0-125.0","39LNWE0K4VI218A70C78K3DE2D9UI3","AZCGSVDT79E6X","3UAU495MIIEABANG75FBFHDC9WUUOI","","null","<img src=""img/animal3.png"" style=""width:200px; border:14px solid green;"">","null","","","","","",""
"","image-keyboard-response","126","80617","0.0-126.0","39LNWE0K4VI218A70C78K3DE2D9UI3","AZCGSVDT79E6X","3UAU495MIIEABANG75FBFHDC9WUUOI","","307.2000000476837","img/animal5.png","74","307.60000002384186","1","1","1","1,0.5,0,1,0,0.5,0.5,0,1",""
"","html-keyboard-response","127","80917","0.0-127.0","39LNWE0K4VI218A70C78K3DE2D9UI3","AZCGSVDT79E6X","3UAU495MIIEABANG75FBFHDC9WUUOI","","null","<img src=""img/animal5.png"" style=""width:200px; border:14px solid green;"">","null","","","","","",""
"","image-keyboard-response","128","81165","0.0-128.0","39LNWE0K4VI218A70C78K3DE2D9UI3","AZCGSVDT79E6X","3UAU495MIIEABANG75FBFHDC9WUUOI","","246.79999995231628","img/animal5.png","74","247.10000002384186","1","1","1","1,0.5,0,1,0,0.5,0.5,0,1",""
"","html-keyboard-response","129","81466","0.0-129.0","39LNWE0K4VI218A70C78K3DE2D9UI3","AZCGSVDT79E6X","3UAU495MIIEABANG75FBFHDC9WUUOI","","null","<img src=""img/animal5.png"" style=""width:200px; border:14px solid green;"">","null","","","","","",""
"","image-keyboard-response","130","81841","0.0-130.0","39LNWE0K4VI218A70C78K3DE2D9UI3","AZCGSVDT79E6X","3UAU495MIIEABANG75FBFHDC9WUUOI","","374.5","img/animal4.png","74","374.7999999523163","1","1","3","1,0.5,0,1,0,0.5,0.5,0,1",""
"","html-keyboard-response","131","82141","0.0-131.0","39LNWE0K4VI218A70C78K3DE2D9UI3","AZCGSVDT79E6X","3UAU495MIIEABANG75FBFHDC9WUUOI","","null","<img src=""img/animal4.png"" style=""width:200px; border:14px solid green;"">","null","","","","","",""
"","image-keyboard-response","132","82486","0.0-132.0","39LNWE0K4VI218A70C78K3DE2D9UI3","AZCGSVDT79E6X","3UAU495MIIEABANG75FBFHDC9WUUOI","","343.7999999523163","img/animal4.png","76","344.2000000476837","3","1","3","1,0.5,0,1,0,0.5,0.5,0,1",""
"","html-keyboard-response","133","82787","0.0-133.0","39LNWE0K4VI218A70C78K3DE2D9UI3","AZCGSVDT79E6X","3UAU495MIIEABANG75FBFHDC9WUUOI","","null","<img src=""img/animal4.png"" style=""width:200px; border:14px solid green;"">","null","","","","","",""
"","image-keyboard-response","134","83058","0.0-134.0","39LNWE0K4VI218A70C78K3DE2D9UI3","AZCGSVDT79E6X","3UAU495MIIEABANG75FBFHDC9WUUOI","","270.5","img/animal4.png","76","270.7999999523163","3","1","3","1,0.5,0,1,0,0.5,0.5,0,1",""
"","html-keyboard-response","135","83359","0.0-135.0","39LNWE0K4VI218A70C78K3DE2D9UI3","AZCGSVDT79E6X","3UAU495MIIEABANG75FBFHDC9WUUOI","","null","<img src=""img/animal4.png"" style=""width:200px; border:14px solid green;"">","null","","","","","",""
"","image-keyboard-response","136","83841","0.0-136.0","39LNWE0K4VI218A70C78K3DE2D9UI3","AZCGSVDT79E6X","3UAU495MIIEABANG75FBFHDC9WUUOI","","481.7000000476837","img/animal3.png","74","481.89999997615814","1","1","2","1,0.5,0,1,0,0.5,0.5,0,1",""
"","html-keyboard-response","137","84142","0.0-137.0","39LNWE0K4VI218A70C78K3DE2D9UI3","AZCGSVDT79E6X","3UAU495MIIEABANG75FBFHDC9WUUOI","","null","<img src=""img/animal3.png"" style=""width:200px; border:14px solid green;"">","null","","","","","",""
"","image-keyboard-response","138","84575","0.0-138.0","39LNWE0K4VI218A70C78K3DE2D9UI3","AZCGSVDT79E6X","3UAU495MIIEABANG75FBFHDC9WUUOI","","432.5","img/animal4.png","74","432.7000000476837","1","1","3","1,0.5,0,1,0,0.5,0.5,0,1",""
"","html-keyboard-response","139","84876","0.0-139.0","39LNWE0K4VI218A70C78K3DE2D9UI3","AZCGSVDT79E6X","3UAU495MIIEABANG75FBFHDC9WUUOI","","null","<img src=""img/animal4.png"" style=""width:200px; border:14px solid green;"">","null","","","","","",""
"","image-keyboard-response","140","85500","0.0-140.0","39LNWE0K4VI218A70C78K3DE2D9UI3","AZCGSVDT79E6X","3UAU495MIIEABANG75FBFHDC9WUUOI","","623.2000000476837","img/animal5.png","74","623.3999999761581","1","1","1","1,0.5,0,1,0,0.5,0.5,0,1",""
"","html-keyboard-response","141","85801","0.0-141.0","39LNWE0K4VI218A70C78K3DE2D9UI3","AZCGSVDT79E6X","3UAU495MIIEABANG75FBFHDC9WUUOI","","null","<img src=""img/animal5.png"" style=""width:200px; border:14px solid green;"">","null","","","","","",""
"","image-keyboard-response","142","86343","0.0-142.0","39LNWE0K4VI218A70C78K3DE2D9UI3","AZCGSVDT79E6X","3UAU495MIIEABANG75FBFHDC9WUUOI","","541.8999999761581","img/animal3.png","74","542.1000000238419","1","1","2","1,0.5,0,1,0,0.5,0.5,0,1",""
"","html-keyboard-response","143","86644","0.0-143.0","39LNWE0K4VI218A70C78K3DE2D9UI3","AZCGSVDT79E6X","3UAU495MIIEABANG75FBFHDC9WUUOI","","null","<img src=""img/animal3.png"" style=""width:200px; border:14px solid green;"">","null","","","","","",""
"","image-keyboard-response","144","87101","0.0-144.0","39LNWE0K4VI218A70C78K3DE2D9UI3","AZCGSVDT79E6X","3UAU495MIIEABANG75FBFHDC9WUUOI","","456.2000000476837","img/animal4.png","76","456.60000002384186","3","1","3","1,0.5,0,1,0,0.5,0.5,0,1",""
"","html-keyboard-response","145","87402","0.0-145.0","39LNWE0K4VI218A70C78K3DE2D9UI3","AZCGSVDT79E6X","3UAU495MIIEABANG75FBFHDC9WUUOI","","null","<img src=""img/animal4.png"" style=""width:200px; border:14px solid green;"">","null","","","","","",""
"","image-keyboard-response","146","87906","0.0-146.0","39LNWE0K4VI218A70C78K3DE2D9UI3","AZCGSVDT79E6X","3UAU495MIIEABANG75FBFHDC9WUUOI","","503.6999999284744","img/animal5.png","74","504","1","1","1","1,0.5,0,1,0,0.5,0.5,0,1",""
"","html-keyboard-response","147","88207","0.0-147.0","39LNWE0K4VI218A70C78K3DE2D9UI3","AZCGSVDT79E6X","3UAU495MIIEABANG75FBFHDC9WUUOI","","null","<img src=""img/animal5.png"" style=""width:200px; border:14px solid green;"">","null","","","","","",""
"","image-keyboard-response","148","88517","0.0-148.0","39LNWE0K4VI218A70C78K3DE2D9UI3","AZCGSVDT79E6X","3UAU495MIIEABANG75FBFHDC9WUUOI","","309.10000002384186","img/animal5.png","74","309.60000002384186","1","1","1","1,0.5,0,1,0,0.5,0.5,0,1",""
"","html-keyboard-response","149","88818","0.0-149.0","39LNWE0K4VI218A70C78K3DE2D9UI3","AZCGSVDT79E6X","3UAU495MIIEABANG75FBFHDC9WUUOI","","null","<img src=""img/animal5.png"" style=""width:200px; border:14px solid green;"">","null","","","","","",""
"","image-keyboard-response","150","89055","0.0-150.0","39LNWE0K4VI218A70C78K3DE2D9UI3","AZCGSVDT79E6X","3UAU495MIIEABANG75FBFHDC9WUUOI","","236.19999992847443","img/animal5.png","74","236.5","1","1","1","1,0.5,0,1,0,0.5,0.5,0,1",""
"","html-keyboard-response","151","89356","0.0-151.0","39LNWE0K4VI218A70C78K3DE2D9UI3","AZCGSVDT79E6X","3UAU495MIIEABANG75FBFHDC9WUUOI","","null","<img src=""img/animal5.png"" style=""width:200px; border:14px solid green;"">","null","","","","","",""
"","image-keyboard-response","152","90216","0.0-152.0","39LNWE0K4VI218A70C78K3DE2D9UI3","AZCGSVDT79E6X","3UAU495MIIEABANG75FBFHDC9WUUOI","","859.6000000238419","img/animal3.png","74","860","1","1","2","1,0.5,0,1,0,0.5,0.5,0,1",""
"","html-keyboard-response","153","90516","0.0-153.0","39LNWE0K4VI218A70C78K3DE2D9UI3","AZCGSVDT79E6X","3UAU495MIIEABANG75FBFHDC9WUUOI","","null","<img src=""img/animal3.png"" style=""width:200px; border:14px solid green;"">","null","","","","","",""
"","image-keyboard-response","154","90975","0.0-154.0","39LNWE0K4VI218A70C78K3DE2D9UI3","AZCGSVDT79E6X","3UAU495MIIEABANG75FBFHDC9WUUOI","","457.6999999284744","img/animal5.png","74","458.10000002384186","1","1","1","1,0.5,0,1,0,0.5,0.5,0,1",""
"","html-keyboard-response","155","91275","0.0-155.0","39LNWE0K4VI218A70C78K3DE2D9UI3","AZCGSVDT79E6X","3UAU495MIIEABANG75FBFHDC9WUUOI","","null","<img src=""img/animal5.png"" style=""width:200px; border:14px solid green;"">","null","","","","","",""
"","image-keyboard-response","156","91630","0.0-156.0","39LNWE0K4VI218A70C78K3DE2D9UI3","AZCGSVDT79E6X","3UAU495MIIEABANG75FBFHDC9WUUOI","","353.89999997615814","img/animal4.png","76","354.2000000476837","3","1","3","1,0.5,0,1,0,0.5,0.5,0,1",""
"","html-keyboard-response","157","91931","0.0-157.0","39LNWE0K4VI218A70C78K3DE2D9UI3","AZCGSVDT79E6X","3UAU495MIIEABANG75FBFHDC9WUUOI","","null","<img src=""img/animal4.png"" style=""width:200px; border:14px solid green;"">","null","","","","","",""
"","image-keyboard-response","158","92364","0.0-158.0","39LNWE0K4VI218A70C78K3DE2D9UI3","AZCGSVDT79E6X","3UAU495MIIEABANG75FBFHDC9WUUOI","","432.5","img/animal5.png","74","433","1","1","1","1,0.5,0,1,0,0.5,0.5,0,1",""
"","html-keyboard-response","159","92665","0.0-159.0","39LNWE0K4VI218A70C78K3DE2D9UI3","AZCGSVDT79E6X","3UAU495MIIEABANG75FBFHDC9WUUOI","","null","<img src=""img/animal5.png"" style=""width:200px; border:14px solid green;"">","null","","","","","",""
"","image-keyboard-response","160","93058","0.0-160.0","39LNWE0K4VI218A70C78K3DE2D9UI3","AZCGSVDT79E6X","3UAU495MIIEABANG75FBFHDC9WUUOI","","392.60000002384186","img/animal3.png","74","392.89999997615814","1","1","2","1,0.5,0,1,0,0.5,0.5,0,1",""
"","html-keyboard-response","161","93359","0.0-161.0","39LNWE0K4VI218A70C78K3DE2D9UI3","AZCGSVDT79E6X","3UAU495MIIEABANG75FBFHDC9WUUOI","","null","<img src=""img/animal3.png"" style=""width:200px; border:14px solid green;"">","null","","","","","",""
"","image-keyboard-response","162","93630","0.0-162.0","39LNWE0K4VI218A70C78K3DE2D9UI3","AZCGSVDT79E6X","3UAU495MIIEABANG75FBFHDC9WUUOI","","270.60000002384186","img/animal3.png","74","271","1","1","2","1,0.5,0,1,0,0.5,0.5,0,1",""
"","html-keyboard-response","163","93930","0.0-163.0","39LNWE0K4VI218A70C78K3DE2D9UI3","AZCGSVDT79E6X","3UAU495MIIEABANG75FBFHDC9WUUOI","","null","<img src=""img/animal3.png"" style=""width:200px; border:14px solid green;"">","null","","","","","",""
"","image-keyboard-response","164","94359","0.0-164.0","39LNWE0K4VI218A70C78K3DE2D9UI3","AZCGSVDT79E6X","3UAU495MIIEABANG75FBFHDC9WUUOI","","428.10000002384186","img/animal4.png","76","428.5","3","1","3","1,0.5,0,1,0,0.5,0.5,0,1",""
"","html-keyboard-response","165","94659","0.0-165.0","39LNWE0K4VI218A70C78K3DE2D9UI3","AZCGSVDT79E6X","3UAU495MIIEABANG75FBFHDC9WUUOI","","null","<img src=""img/animal4.png"" style=""width:200px; border:14px solid green;"">","null","","","","","",""
"","image-keyboard-response","166","95033","0.0-166.0","39LNWE0K4VI218A70C78K3DE2D9UI3","AZCGSVDT79E6X","3UAU495MIIEABANG75FBFHDC9WUUOI","","372.7999999523163","img/animal3.png","74","373","1","1","2","1,0.5,0,1,0,0.5,0.5,0,1",""
"","html-keyboard-response","167","95334","0.0-167.0","39LNWE0K4VI218A70C78K3DE2D9UI3","AZCGSVDT79E6X","3UAU495MIIEABANG75FBFHDC9WUUOI","","null","<img src=""img/animal3.png"" style=""width:200px; border:14px solid green;"">","null","","","","","",""
"","image-keyboard-response","168","95573","0.0-168.0","39LNWE0K4VI218A70C78K3DE2D9UI3","AZCGSVDT79E6X","3UAU495MIIEABANG75FBFHDC9WUUOI","","238.60000002384186","img/animal4.png","74","239","1","1","3","1,0.5,0,1,0,0.5,0.5,0,1",""
"","html-keyboard-response","169","95873","0.0-169.0","39LNWE0K4VI218A70C78K3DE2D9UI3","AZCGSVDT79E6X","3UAU495MIIEABANG75FBFHDC9WUUOI","","null","<img src=""img/animal4.png"" style=""width:200px; border:14px solid green;"">","null","","","","","",""
"","image-keyboard-response","170","96457","0.0-170.0","39LNWE0K4VI218A70C78K3DE2D9UI3","AZCGSVDT79E6X","3UAU495MIIEABANG75FBFHDC9WUUOI","","583.2000000476837","img/animal5.png","74","583.5","1","1","1","1,0.5,0,1,0,0.5,0.5,0,1",""
"","html-keyboard-response","171","96758","0.0-171.0","39LNWE0K4VI218A70C78K3DE2D9UI3","AZCGSVDT79E6X","3UAU495MIIEABANG75FBFHDC9WUUOI","","null","<img src=""img/animal5.png"" style=""width:200px; border:14px solid green;"">","null","","","","","",""
"","image-keyboard-response","172","97111","0.0-172.0","39LNWE0K4VI218A70C78K3DE2D9UI3","AZCGSVDT79E6X","3UAU495MIIEABANG75FBFHDC9WUUOI","","352.5","img/animal4.png","76","352.7999999523163","3","1","3","1,0.5,0,1,0,0.5,0.5,0,1",""
"","html-keyboard-response","173","97411","0.0-173.0","39LNWE0K4VI218A70C78K3DE2D9UI3","AZCGSVDT79E6X","3UAU495MIIEABANG75FBFHDC9WUUOI","","null","<img src=""img/animal4.png"" style=""width:200px; border:14px solid green;"">","null","","","","","",""
"","image-keyboard-response","174","97796","0.0-174.0","39LNWE0K4VI218A70C78K3DE2D9UI3","AZCGSVDT79E6X","3UAU495MIIEABANG75FBFHDC9WUUOI","","383.6999999284744","img/animal3.png","74","383.89999997615814","1","1","2","1,0.5,0,1,0,0.5,0.5,0,1",""
"","html-keyboard-response","175","98097","0.0-175.0","39LNWE0K4VI218A70C78K3DE2D9UI3","AZCGSVDT79E6X","3UAU495MIIEABANG75FBFHDC9WUUOI","","null","<img src=""img/animal3.png"" style=""width:200px; border:14px solid green;"">","null","","","","","",""
"","image-keyboard-response","176","98385","0.0-176.0","39LNWE0K4VI218A70C78K3DE2D9UI3","AZCGSVDT79E6X","3UAU495MIIEABANG75FBFHDC9WUUOI","","287.39999997615814","img/animal3.png","74","287.7999999523163","1","1","2","1,0.5,0,1,0,0.5,0.5,0,1",""
"","html-keyboard-response","177","98686","0.0-177.0","39LNWE0K4VI218A70C78K3DE2D9UI3","AZCGSVDT79E6X","3UAU495MIIEABANG75FBFHDC9WUUOI","","null","<img src=""img/animal3.png"" style=""width:200px; border:14px solid green;"">","null","","","","","",""
"","image-keyboard-response","178","98975","0.0-178.0","39LNWE0K4VI218A70C78K3DE2D9UI3","AZCGSVDT79E6X","3UAU495MIIEABANG75FBFHDC9WUUOI","","288.60000002384186","img/animal3.png","74","289","1","1","2","1,0.5,0,1,0,0.5,0.5,0,1",""
"","html-keyboard-response","179","99276","0.0-179.0","39LNWE0K4VI218A70C78K3DE2D9UI3","AZCGSVDT79E6X","3UAU495MIIEABANG75FBFHDC9WUUOI","","null","<img src=""img/animal3.png"" style=""width:200px; border:14px solid green;"">","null","","","","","",""
"","image-keyboard-response","180","99733","0.0-180.0","39LNWE0K4VI218A70C78K3DE2D9UI3","AZCGSVDT79E6X","3UAU495MIIEABANG75FBFHDC9WUUOI","","456.10000002384186","img/animal5.png","74","456.60000002384186","1","1","1","1,0.5,0,1,0,0.5,0.5,0,1",""
"","html-keyboard-response","181","100034","0.0-181.0","39LNWE0K4VI218A70C78K3DE2D9UI3","AZCGSVDT79E6X","3UAU495MIIEABANG75FBFHDC9WUUOI","","null","<img src=""img/animal5.png"" style=""width:200px; border:14px solid green;"">","null","","","","","",""
"","html-keyboard-response","182","102042","0.0-182.0","39LNWE0K4VI218A70C78K3DE2D9UI3","AZCGSVDT79E6X","3UAU495MIIEABANG75FBFHDC9WUUOI","","","","","","","","","",""
"","image-keyboard-response","183","103436","0.0-183.0","39LNWE0K4VI218A70C78K3DE2D9UI3","AZCGSVDT79E6X","3UAU495MIIEABANG75FBFHDC9WUUOI","","1393","img/animal1.png","74","1393.3999999761581","1","1","1","1,0.5,0,0,1,0.5,0.5,0,1",""
"","html-keyboard-response","184","103737","0.0-184.0","39LNWE0K4VI218A70C78K3DE2D9UI3","AZCGSVDT79E6X","3UAU495MIIEABANG75FBFHDC9WUUOI","","null","<img src=""img/animal1.png"" style=""width:200px; border:14px solid green;"">","null","","","","","",""
"","image-keyboard-response","185","104026","0.0-185.0","39LNWE0K4VI218A70C78K3DE2D9UI3","AZCGSVDT79E6X","3UAU495MIIEABANG75FBFHDC9WUUOI","","288.1999999284744","img/animal1.png","74","288.5","1","1","1","1,0.5,0,0,1,0.5,0.5,0,1",""
"","html-keyboard-response","186","104327","0.0-186.0","39LNWE0K4VI218A70C78K3DE2D9UI3","AZCGSVDT79E6X","3UAU495MIIEABANG75FBFHDC9WUUOI","","null","<img src=""img/animal1.png"" style=""width:200px; border:14px solid green;"">","null","","","","","",""
"","image-keyboard-response","187","104932","0.0-187.0","39LNWE0K4VI218A70C78K3DE2D9UI3","AZCGSVDT79E6X","3UAU495MIIEABANG75FBFHDC9WUUOI","","604","img/animal6.png","75","604.5","2","0","3","1,0.5,0,0,1,0.5,0.5,0,1",""
"","html-keyboard-response","188","105233","0.0-188.0","39LNWE0K4VI218A70C78K3DE2D9UI3","AZCGSVDT79E6X","3UAU495MIIEABANG75FBFHDC9WUUOI","","null","<img src=""img/animal6.png"" style=""width:200px;border:14px solid red;"">","null","","","","","",""
"","image-keyboard-response","189","105738","0.0-189.0","39LNWE0K4VI218A70C78K3DE2D9UI3","AZCGSVDT79E6X","3UAU495MIIEABANG75FBFHDC9WUUOI","","504.39999997615814","img/animal1.png","74","504.7999999523163","1","1","1","1,0.5,0,0,1,0.5,0.5,0,1",""
"","html-keyboard-response","190","106039","0.0-190.0","39LNWE0K4VI218A70C78K3DE2D9UI3","AZCGSVDT79E6X","3UAU495MIIEABANG75FBFHDC9WUUOI","","null","<img src=""img/animal1.png"" style=""width:200px; border:14px solid green;"">","null","","","","","",""
"","image-keyboard-response","191","106468","0.0-191.0","39LNWE0K4VI218A70C78K3DE2D9UI3","AZCGSVDT79E6X","3UAU495MIIEABANG75FBFHDC9WUUOI","","428.10000002384186","img/animal6.png","76","428.2000000476837","3","1","3","1,0.5,0,0,1,0.5,0.5,0,1",""
"","html-keyboard-response","192","106768","0.0-192.0","39LNWE0K4VI218A70C78K3DE2D9UI3","AZCGSVDT79E6X","3UAU495MIIEABANG75FBFHDC9WUUOI","","null","<img src=""img/animal6.png"" style=""width:200px; border:14px solid green;"">","null","","","","","",""
"","image-keyboard-response","193","107056","0.0-193.0","39LNWE0K4VI218A70C78K3DE2D9UI3","AZCGSVDT79E6X","3UAU495MIIEABANG75FBFHDC9WUUOI","","286.6999999284744","img/animal6.png","76","287.10000002384186","3","1","3","1,0.5,0,0,1,0.5,0.5,0,1",""
"","html-keyboard-response","194","107357","0.0-194.0","39LNWE0K4VI218A70C78K3DE2D9UI3","AZCGSVDT79E6X","3UAU495MIIEABANG75FBFHDC9WUUOI","","null","<img src=""img/animal6.png"" style=""width:200px; border:14px solid green;"">","null","","","","","",""
"","image-keyboard-response","195","107609","0.0-195.0","39LNWE0K4VI218A70C78K3DE2D9UI3","AZCGSVDT79E6X","3UAU495MIIEABANG75FBFHDC9WUUOI","","251.29999995231628","img/animal6.png","76","251.79999995231628","3","1","3","1,0.5,0,0,1,0.5,0.5,0,1",""
"","html-keyboard-response","196","107910","0.0-196.0","39LNWE0K4VI218A70C78K3DE2D9UI3","AZCGSVDT79E6X","3UAU495MIIEABANG75FBFHDC9WUUOI","","null","<img src=""img/animal6.png"" style=""width:200px; border:14px solid green;"">","null","","","","","",""
"","image-keyboard-response","197","108150","0.0-197.0","39LNWE0K4VI218A70C78K3DE2D9UI3","AZCGSVDT79E6X","3UAU495MIIEABANG75FBFHDC9WUUOI","","239.10000002384186","img/animal6.png","76","239.60000002384186","3","1","3","1,0.5,0,0,1,0.5,0.5,0,1",""
"","html-keyboard-response","198","108450","0.0-198.0","39LNWE0K4VI218A70C78K3DE2D9UI3","AZCGSVDT79E6X","3UAU495MIIEABANG75FBFHDC9WUUOI","","null","<img src=""img/animal6.png"" style=""width:200px; border:14px solid green;"">","null","","","","","",""
"","image-keyboard-response","199","108721","0.0-199.0","39LNWE0K4VI218A70C78K3DE2D9UI3","AZCGSVDT79E6X","3UAU495MIIEABANG75FBFHDC9WUUOI","","269.7999999523163","img/animal6.png","76","270","3","1","3","1,0.5,0,0,1,0.5,0.5,0,1",""
"","html-keyboard-response","200","109022","0.0-200.0","39LNWE0K4VI218A70C78K3DE2D9UI3","AZCGSVDT79E6X","3UAU495MIIEABANG75FBFHDC9WUUOI","","null","<img src=""img/animal6.png"" style=""width:200px; border:14px solid green;"">","null","","","","","",""
"","image-keyboard-response","201","109816","0.0-201.0","39LNWE0K4VI218A70C78K3DE2D9UI3","AZCGSVDT79E6X","3UAU495MIIEABANG75FBFHDC9WUUOI","","793.1999999284744","img/animal2.png","75","793.6000000238419","2","1","2","1,0.5,0,0,1,0.5,0.5,0,1",""
"","html-keyboard-response","202","110116","0.0-202.0","39LNWE0K4VI218A70C78K3DE2D9UI3","AZCGSVDT79E6X","3UAU495MIIEABANG75FBFHDC9WUUOI","","null","<img src=""img/animal2.png"" style=""width:200px; border:14px solid green;"">","null","","","","","",""
"","image-keyboard-response","203","110385","0.0-203.0","39LNWE0K4VI218A70C78K3DE2D9UI3","AZCGSVDT79E6X","3UAU495MIIEABANG75FBFHDC9WUUOI","","267.6999999284744","img/animal2.png","75","268.2000000476837","2","1","2","1,0.5,0,0,1,0.5,0.5,0,1",""
"","html-keyboard-response","204","110685","0.0-204.0","39LNWE0K4VI218A70C78K3DE2D9UI3","AZCGSVDT79E6X","3UAU495MIIEABANG75FBFHDC9WUUOI","","null","<img src=""img/animal2.png"" style=""width:200px; border:14px solid green;"">","null","","","","","",""
"","image-keyboard-response","205","111204","0.0-205.0","39LNWE0K4VI218A70C78K3DE2D9UI3","AZCGSVDT79E6X","3UAU495MIIEABANG75FBFHDC9WUUOI","","517.7999999523163","img/animal1.png","74","518.2000000476837","1","1","1","1,0.5,0,0,1,0.5,0.5,0,1",""
"","html-keyboard-response","206","111504","0.0-206.0","39LNWE0K4VI218A70C78K3DE2D9UI3","AZCGSVDT79E6X","3UAU495MIIEABANG75FBFHDC9WUUOI","","null","<img src=""img/animal1.png"" style=""width:200px; border:14px solid green;"">","null","","","","","",""
"","image-keyboard-response","207","112195","0.0-207.0","39LNWE0K4VI218A70C78K3DE2D9UI3","AZCGSVDT79E6X","3UAU495MIIEABANG75FBFHDC9WUUOI","","689.6999999284744","img/animal6.png","76","690","3","1","3","1,0.5,0,0,1,0.5,0.5,0,1",""
"","html-keyboard-response","208","112495","0.0-208.0","39LNWE0K4VI218A70C78K3DE2D9UI3","AZCGSVDT79E6X","3UAU495MIIEABANG75FBFHDC9WUUOI","","null","<img src=""img/animal6.png"" style=""width:200px; border:14px solid green;"">","null","","","","","",""
"","image-keyboard-response","209","113174","0.0-209.0","39LNWE0K4VI218A70C78K3DE2D9UI3","AZCGSVDT79E6X","3UAU495MIIEABANG75FBFHDC9WUUOI","","677.8999999761581","img/animal2.png","75","678.2999999523163","2","1","2","1,0.5,0,0,1,0.5,0.5,0,1",""
"","html-keyboard-response","210","113474","0.0-210.0","39LNWE0K4VI218A70C78K3DE2D9UI3","AZCGSVDT79E6X","3UAU495MIIEABANG75FBFHDC9WUUOI","","null","<img src=""img/animal2.png"" style=""width:200px; border:14px solid green;"">","null","","","","","",""
"","image-keyboard-response","211","113833","0.0-211.0","39LNWE0K4VI218A70C78K3DE2D9UI3","AZCGSVDT79E6X","3UAU495MIIEABANG75FBFHDC9WUUOI","","357.7000000476837","img/animal2.png","75","358","2","1","2","1,0.5,0,0,1,0.5,0.5,0,1",""
"","html-keyboard-response","212","114134","0.0-212.0","39LNWE0K4VI218A70C78K3DE2D9UI3","AZCGSVDT79E6X","3UAU495MIIEABANG75FBFHDC9WUUOI","","null","<img src=""img/animal2.png"" style=""width:200px; border:14px solid green;"">","null","","","","","",""
"","image-keyboard-response","213","114391","0.0-213.0","39LNWE0K4VI218A70C78K3DE2D9UI3","AZCGSVDT79E6X","3UAU495MIIEABANG75FBFHDC9WUUOI","","256.2999999523163","img/animal2.png","75","256.7000000476837","2","1","2","1,0.5,0,0,1,0.5,0.5,0,1",""
"","html-keyboard-response","214","114692","0.0-214.0","39LNWE0K4VI218A70C78K3DE2D9UI3","AZCGSVDT79E6X","3UAU495MIIEABANG75FBFHDC9WUUOI","","null","<img src=""img/animal2.png"" style=""width:200px; border:14px solid green;"">","null","","","","","",""
"","image-keyboard-response","215","114929","0.0-215.0","39LNWE0K4VI218A70C78K3DE2D9UI3","AZCGSVDT79E6X","3UAU495MIIEABANG75FBFHDC9WUUOI","","236.29999995231628","img/animal2.png","75","236.79999995231628","2","1","2","1,0.5,0,0,1,0.5,0.5,0,1",""
"","html-keyboard-response","216","115230","0.0-216.0","39LNWE0K4VI218A70C78K3DE2D9UI3","AZCGSVDT79E6X","3UAU495MIIEABANG75FBFHDC9WUUOI","","null","<img src=""img/animal2.png"" style=""width:200px; border:14px solid green;"">","null","","","","","",""
"","image-keyboard-response","217","115479","0.0-217.0","39LNWE0K4VI218A70C78K3DE2D9UI3","AZCGSVDT79E6X","3UAU495MIIEABANG75FBFHDC9WUUOI","","247.89999997615814","img/animal2.png","75","248.29999995231628","2","1","2","1,0.5,0,0,1,0.5,0.5,0,1",""
"","html-keyboard-response","218","115780","0.0-218.0","39LNWE0K4VI218A70C78K3DE2D9UI3","AZCGSVDT79E6X","3UAU495MIIEABANG75FBFHDC9WUUOI","","null","<img src=""img/animal2.png"" style=""width:200px; border:14px solid green;"">","null","","","","","",""
"","image-keyboard-response","219","116255","0.0-219.0","39LNWE0K4VI218A70C78K3DE2D9UI3","AZCGSVDT79E6X","3UAU495MIIEABANG75FBFHDC9WUUOI","","474.39999997615814","img/animal1.png","74","475.1999999284744","1","1","1","1,0.5,0,0,1,0.5,0.5,0,1",""
"","html-keyboard-response","220","116556","0.0-220.0","39LNWE0K4VI218A70C78K3DE2D9UI3","AZCGSVDT79E6X","3UAU495MIIEABANG75FBFHDC9WUUOI","","null","<img src=""img/animal1.png"" style=""width:200px; border:14px solid green;"">","null","","","","","",""
"","image-keyboard-response","221","117018","0.0-221.0","39LNWE0K4VI218A70C78K3DE2D9UI3","AZCGSVDT79E6X","3UAU495MIIEABANG75FBFHDC9WUUOI","","461.2000000476837","img/animal2.png","75","461.5","2","1","2","1,0.5,0,0,1,0.5,0.5,0,1",""
"","html-keyboard-response","222","117319","0.0-222.0","39LNWE0K4VI218A70C78K3DE2D9UI3","AZCGSVDT79E6X","3UAU495MIIEABANG75FBFHDC9WUUOI","","null","<img src=""img/animal2.png"" style=""width:200px; border:14px solid green;"">","null","","","","","",""
"","image-keyboard-response","223","117795","0.0-223.0","39LNWE0K4VI218A70C78K3DE2D9UI3","AZCGSVDT79E6X","3UAU495MIIEABANG75FBFHDC9WUUOI","","475.10000002384186","img/animal1.png","74","475.5","1","1","1","1,0.5,0,0,1,0.5,0.5,0,1",""
"","html-keyboard-response","224","118096","0.0-224.0","39LNWE0K4VI218A70C78K3DE2D9UI3","AZCGSVDT79E6X","3UAU495MIIEABANG75FBFHDC9WUUOI","","null","<img src=""img/animal1.png"" style=""width:200px; border:14px solid green;"">","null","","","","","",""
"","image-keyboard-response","225","118462","0.0-225.0","39LNWE0K4VI218A70C78K3DE2D9UI3","AZCGSVDT79E6X","3UAU495MIIEABANG75FBFHDC9WUUOI","","365.5","img/animal1.png","74","365.89999997615814","1","1","1","1,0.5,0,0,1,0.5,0.5,0,1",""
"","html-keyboard-response","226","118763","0.0-226.0","39LNWE0K4VI218A70C78K3DE2D9UI3","AZCGSVDT79E6X","3UAU495MIIEABANG75FBFHDC9WUUOI","","null","<img src=""img/animal1.png"" style=""width:200px; border:14px solid green;"">","null","","","","","",""
"","image-keyboard-response","227","119020","0.0-227.0","39LNWE0K4VI218A70C78K3DE2D9UI3","AZCGSVDT79E6X","3UAU495MIIEABANG75FBFHDC9WUUOI","","256.5","img/animal1.png","74","256.89999997615814","1","1","1","1,0.5,0,0,1,0.5,0.5,0,1",""
"","html-keyboard-response","228","119321","0.0-228.0","39LNWE0K4VI218A70C78K3DE2D9UI3","AZCGSVDT79E6X","3UAU495MIIEABANG75FBFHDC9WUUOI","","null","<img src=""img/animal1.png"" style=""width:200px; border:14px solid green;"">","null","","","","","",""
"","image-keyboard-response","229","120029","0.0-229.0","39LNWE0K4VI218A70C78K3DE2D9UI3","AZCGSVDT79E6X","3UAU495MIIEABANG75FBFHDC9WUUOI","","707.6000000238419","img/animal6.png","76","708","3","1","3","1,0.5,0,0,1,0.5,0.5,0,1",""
"","html-keyboard-response","230","120329","0.0-230.0","39LNWE0K4VI218A70C78K3DE2D9UI3","AZCGSVDT79E6X","3UAU495MIIEABANG75FBFHDC9WUUOI","","null","<img src=""img/animal6.png"" style=""width:200px; border:14px solid green;"">","null","","","","","",""
"","image-keyboard-response","231","120903","0.0-231.0","39LNWE0K4VI218A70C78K3DE2D9UI3","AZCGSVDT79E6X","3UAU495MIIEABANG75FBFHDC9WUUOI","","572.6000000238419","img/animal2.png","75","573.1000000238419","2","1","2","1,0.5,0,0,1,0.5,0.5,0,1",""
"","html-keyboard-response","232","121204","0.0-232.0","39LNWE0K4VI218A70C78K3DE2D9UI3","AZCGSVDT79E6X","3UAU495MIIEABANG75FBFHDC9WUUOI","","null","<img src=""img/animal2.png"" style=""width:200px; border:14px solid green;"">","null","","","","","",""
"","image-keyboard-response","233","121519","0.0-233.0","39LNWE0K4VI218A70C78K3DE2D9UI3","AZCGSVDT79E6X","3UAU495MIIEABANG75FBFHDC9WUUOI","","314.5","img/animal2.png","75","314.89999997615814","2","1","2","1,0.5,0,0,1,0.5,0.5,0,1",""
"","html-keyboard-response","234","121820","0.0-234.0","39LNWE0K4VI218A70C78K3DE2D9UI3","AZCGSVDT79E6X","3UAU495MIIEABANG75FBFHDC9WUUOI","","null","<img src=""img/animal2.png"" style=""width:200px; border:14px solid green;"">","null","","","","","",""
"","image-keyboard-response","235","122084","0.0-235.0","39LNWE0K4VI218A70C78K3DE2D9UI3","AZCGSVDT79E6X","3UAU495MIIEABANG75FBFHDC9WUUOI","","263.5","img/animal2.png","75","263.89999997615814","2","1","2","1,0.5,0,0,1,0.5,0.5,0,1",""
"","html-keyboard-response","236","122385","0.0-236.0","39LNWE0K4VI218A70C78K3DE2D9UI3","AZCGSVDT79E6X","3UAU495MIIEABANG75FBFHDC9WUUOI","","null","<img src=""img/animal2.png"" style=""width:200px; border:14px solid green;"">","null","","","","","",""
"","image-keyboard-response","237","122601","0.0-237.0","39LNWE0K4VI218A70C78K3DE2D9UI3","AZCGSVDT79E6X","3UAU495MIIEABANG75FBFHDC9WUUOI","","214.89999997615814","img/animal2.png","75","215.39999997615814","2","1","2","1,0.5,0,0,1,0.5,0.5,0,1",""
"","html-keyboard-response","238","122902","0.0-238.0","39LNWE0K4VI218A70C78K3DE2D9UI3","AZCGSVDT79E6X","3UAU495MIIEABANG75FBFHDC9WUUOI","","null","<img src=""img/animal2.png"" style=""width:200px; border:14px solid green;"">","null","","","","","",""
"","image-keyboard-response","239","123569","0.0-239.0","39LNWE0K4VI218A70C78K3DE2D9UI3","AZCGSVDT79E6X","3UAU495MIIEABANG75FBFHDC9WUUOI","","666.1000000238419","img/animal6.png","76","666.6000000238419","3","1","3","1,0.5,0,0,1,0.5,0.5,0,1",""
"","html-keyboard-response","240","123869","0.0-240.0","39LNWE0K4VI218A70C78K3DE2D9UI3","AZCGSVDT79E6X","3UAU495MIIEABANG75FBFHDC9WUUOI","","null","<img src=""img/animal6.png"" style=""width:200px; border:14px solid green;"">","null","","","","","",""
"","image-keyboard-response","241","124143","0.0-241.0","39LNWE0K4VI218A70C78K3DE2D9UI3","AZCGSVDT79E6X","3UAU495MIIEABANG75FBFHDC9WUUOI","","272.7999999523163","img/animal6.png","76","273.2000000476837","3","1","3","1,0.5,0,0,1,0.5,0.5,0,1",""
"","html-keyboard-response","242","124443","0.0-242.0","39LNWE0K4VI218A70C78K3DE2D9UI3","AZCGSVDT79E6X","3UAU495MIIEABANG75FBFHDC9WUUOI","","null","<img src=""img/animal6.png"" style=""width:200px; border:14px solid green;"">","null","","","","","",""
"","image-keyboard-response","243","124694","0.0-243.0","39LNWE0K4VI218A70C78K3DE2D9UI3","AZCGSVDT79E6X","3UAU495MIIEABANG75FBFHDC9WUUOI","","249.79999995231628","img/animal6.png","76","250.10000002384186","3","1","3","1,0.5,0,0,1,0.5,0.5,0,1",""
"","html-keyboard-response","244","124995","0.0-244.0","39LNWE0K4VI218A70C78K3DE2D9UI3","AZCGSVDT79E6X","3UAU495MIIEABANG75FBFHDC9WUUOI","","null","<img src=""img/animal6.png"" style=""width:200px; border:14px solid green;"">","null","","","","","",""
"","image-keyboard-response","245","125430","0.0-245.0","39LNWE0K4VI218A70C78K3DE2D9UI3","AZCGSVDT79E6X","3UAU495MIIEABANG75FBFHDC9WUUOI","","434.89999997615814","img/animal1.png","74","435.2999999523163","1","1","1","1,0.5,0,0,1,0.5,0.5,0,1",""
"","html-keyboard-response","246","125731","0.0-246.0","39LNWE0K4VI218A70C78K3DE2D9UI3","AZCGSVDT79E6X","3UAU495MIIEABANG75FBFHDC9WUUOI","","null","<img src=""img/animal1.png"" style=""width:200px; border:14px solid green;"">","null","","","","","",""
"","image-keyboard-response","247","126336","0.0-247.0","39LNWE0K4VI218A70C78K3DE2D9UI3","AZCGSVDT79E6X","3UAU495MIIEABANG75FBFHDC9WUUOI","","604.7999999523163","img/animal6.png","76","605.2000000476837","3","1","3","1,0.5,0,0,1,0.5,0.5,0,1",""
"","html-keyboard-response","248","126637","0.0-248.0","39LNWE0K4VI218A70C78K3DE2D9UI3","AZCGSVDT79E6X","3UAU495MIIEABANG75FBFHDC9WUUOI","","null","<img src=""img/animal6.png"" style=""width:200px; border:14px solid green;"">","null","","","","","",""
"","image-keyboard-response","249","126921","0.0-249.0","39LNWE0K4VI218A70C78K3DE2D9UI3","AZCGSVDT79E6X","3UAU495MIIEABANG75FBFHDC9WUUOI","","283.89999997615814","img/animal6.png","76","284.2000000476837","3","1","3","1,0.5,0,0,1,0.5,0.5,0,1",""
"","html-keyboard-response","250","127222","0.0-250.0","39LNWE0K4VI218A70C78K3DE2D9UI3","AZCGSVDT79E6X","3UAU495MIIEABANG75FBFHDC9WUUOI","","null","<img src=""img/animal6.png"" style=""width:200px; border:14px solid green;"">","null","","","","","",""
"","image-keyboard-response","251","127447","0.0-251.0","39LNWE0K4VI218A70C78K3DE2D9UI3","AZCGSVDT79E6X","3UAU495MIIEABANG75FBFHDC9WUUOI","","224.79999995231628","img/animal6.png","76","225.20000004768372","3","1","3","1,0.5,0,0,1,0.5,0.5,0,1",""
"","html-keyboard-response","252","127748","0.0-252.0","39LNWE0K4VI218A70C78K3DE2D9UI3","AZCGSVDT79E6X","3UAU495MIIEABANG75FBFHDC9WUUOI","","null","<img src=""img/animal6.png"" style=""width:200px; border:14px solid green;"">","null","","","","","",""
"","image-keyboard-response","253","128108","0.0-253.0","39LNWE0K4VI218A70C78K3DE2D9UI3","AZCGSVDT79E6X","3UAU495MIIEABANG75FBFHDC9WUUOI","","359.2999999523163","img/animal1.png","74","359.60000002384186","1","1","1","1,0.5,0,0,1,0.5,0.5,0,1",""
"","html-keyboard-response","254","128409","0.0-254.0","39LNWE0K4VI218A70C78K3DE2D9UI3","AZCGSVDT79E6X","3UAU495MIIEABANG75FBFHDC9WUUOI","","null","<img src=""img/animal1.png"" style=""width:200px; border:14px solid green;"">","null","","","","","",""
"","image-keyboard-response","255","128731","0.0-255.0","39LNWE0K4VI218A70C78K3DE2D9UI3","AZCGSVDT79E6X","3UAU495MIIEABANG75FBFHDC9WUUOI","","321.2999999523163","img/animal1.png","74","321.7000000476837","1","1","1","1,0.5,0,0,1,0.5,0.5,0,1",""
"","html-keyboard-response","256","129032","0.0-256.0","39LNWE0K4VI218A70C78K3DE2D9UI3","AZCGSVDT79E6X","3UAU495MIIEABANG75FBFHDC9WUUOI","","null","<img src=""img/animal1.png"" style=""width:200px; border:14px solid green;"">","null","","","","","",""
"","image-keyboard-response","257","129294","0.0-257.0","39LNWE0K4VI218A70C78K3DE2D9UI3","AZCGSVDT79E6X","3UAU495MIIEABANG75FBFHDC9WUUOI","","261.39999997615814","img/animal1.png","74","261.6999999284744","1","1","1","1,0.5,0,0,1,0.5,0.5,0,1",""
"","html-keyboard-response","258","129595","0.0-258.0","39LNWE0K4VI218A70C78K3DE2D9UI3","AZCGSVDT79E6X","3UAU495MIIEABANG75FBFHDC9WUUOI","","null","<img src=""img/animal1.png"" style=""width:200px; border:14px solid green;"">","null","","","","","",""
"","image-keyboard-response","259","129842","0.0-259.0","39LNWE0K4VI218A70C78K3DE2D9UI3","AZCGSVDT79E6X","3UAU495MIIEABANG75FBFHDC9WUUOI","","246.89999997615814","img/animal1.png","74","247.29999995231628","1","1","1","1,0.5,0,0,1,0.5,0.5,0,1",""
"","html-keyboard-response","260","130143","0.0-260.0","39LNWE0K4VI218A70C78K3DE2D9UI3","AZCGSVDT79E6X","3UAU495MIIEABANG75FBFHDC9WUUOI","","null","<img src=""img/animal1.png"" style=""width:200px; border:14px solid green;"">","null","","","","","",""
"","image-keyboard-response","261","130693","0.0-261.0","39LNWE0K4VI218A70C78K3DE2D9UI3","AZCGSVDT79E6X","3UAU495MIIEABANG75FBFHDC9WUUOI","","549.6000000238419","img/animal6.png","76","549.7999999523163","3","1","3","1,0.5,0,0,1,0.5,0.5,0,1",""
"","html-keyboard-response","262","130994","0.0-262.0","39LNWE0K4VI218A70C78K3DE2D9UI3","AZCGSVDT79E6X","3UAU495MIIEABANG75FBFHDC9WUUOI","","null","<img src=""img/animal6.png"" style=""width:200px; border:14px solid green;"">","null","","","","","",""
"","image-keyboard-response","263","131566","0.0-263.0","39LNWE0K4VI218A70C78K3DE2D9UI3","AZCGSVDT79E6X","3UAU495MIIEABANG75FBFHDC9WUUOI","","572","img/animal2.png","75","572.2999999523163","2","1","2","1,0.5,0,0,1,0.5,0.5,0,1",""
"","html-keyboard-response","264","131867","0.0-264.0","39LNWE0K4VI218A70C78K3DE2D9UI3","AZCGSVDT79E6X","3UAU495MIIEABANG75FBFHDC9WUUOI","","null","<img src=""img/animal2.png"" style=""width:200px; border:14px solid green;"">","null","","","","","",""
"","image-keyboard-response","265","132251","0.0-265.0","39LNWE0K4VI218A70C78K3DE2D9UI3","AZCGSVDT79E6X","3UAU495MIIEABANG75FBFHDC9WUUOI","","383.1999999284744","img/animal2.png","75","383.7000000476837","2","1","2","1,0.5,0,0,1,0.5,0.5,0,1",""
"","html-keyboard-response","266","132552","0.0-266.0","39LNWE0K4VI218A70C78K3DE2D9UI3","AZCGSVDT79E6X","3UAU495MIIEABANG75FBFHDC9WUUOI","","null","<img src=""img/animal2.png"" style=""width:200px; border:14px solid green;"">","null","","","","","",""
"","image-keyboard-response","267","133106","0.0-267.0","39LNWE0K4VI218A70C78K3DE2D9UI3","AZCGSVDT79E6X","3UAU495MIIEABANG75FBFHDC9WUUOI","","553.1999999284744","img/animal6.png","76","553.5","3","1","3","1,0.5,0,0,1,0.5,0.5,0,1",""
"","html-keyboard-response","268","133408","0.0-268.0","39LNWE0K4VI218A70C78K3DE2D9UI3","AZCGSVDT79E6X","3UAU495MIIEABANG75FBFHDC9WUUOI","","null","<img src=""img/animal6.png"" style=""width:200px; border:14px solid green;"">","null","","","","","",""
"","image-keyboard-response","269","133696","0.0-269.0","39LNWE0K4VI218A70C78K3DE2D9UI3","AZCGSVDT79E6X","3UAU495MIIEABANG75FBFHDC9WUUOI","","287.89999997615814","img/animal6.png","76","288.39999997615814","3","1","3","1,0.5,0,0,1,0.5,0.5,0,1",""
"","html-keyboard-response","270","133998","0.0-270.0","39LNWE0K4VI218A70C78K3DE2D9UI3","AZCGSVDT79E6X","3UAU495MIIEABANG75FBFHDC9WUUOI","","null","<img src=""img/animal6.png"" style=""width:200px; border:14px solid green;"">","null","","","","","",""
"","image-keyboard-response","271","134749","0.0-271.0","39LNWE0K4VI218A70C78K3DE2D9UI3","AZCGSVDT79E6X","3UAU495MIIEABANG75FBFHDC9WUUOI","","751","img/animal1.png","74","751.2999999523163","1","1","1","1,0.5,0,0,1,0.5,0.5,0,1",""
"","html-keyboard-response","272","135050","0.0-272.0","39LNWE0K4VI218A70C78K3DE2D9UI3","AZCGSVDT79E6X","3UAU495MIIEABANG75FBFHDC9WUUOI","","null","<img src=""img/animal1.png"" style=""width:200px; border:14px solid green;"">","null","","","","","",""
"","image-keyboard-response","273","135381","0.0-273.0","39LNWE0K4VI218A70C78K3DE2D9UI3","AZCGSVDT79E6X","3UAU495MIIEABANG75FBFHDC9WUUOI","","331","img/animal1.png","74","331.39999997615814","1","1","1","1,0.5,0,0,1,0.5,0.5,0,1",""
"","html-keyboard-response","274","135682","0.0-274.0","39LNWE0K4VI218A70C78K3DE2D9UI3","AZCGSVDT79E6X","3UAU495MIIEABANG75FBFHDC9WUUOI","","null","<img src=""img/animal1.png"" style=""width:200px; border:14px solid green;"">","null","","","","","",""
"","image-keyboard-response","275","136148","0.0-275.0","39LNWE0K4VI218A70C78K3DE2D9UI3","AZCGSVDT79E6X","3UAU495MIIEABANG75FBFHDC9WUUOI","","465.39999997615814","img/animal2.png","75","465.7999999523163","2","1","2","1,0.5,0,0,1,0.5,0.5,0,1",""
"","html-keyboard-response","276","136450","0.0-276.0","39LNWE0K4VI218A70C78K3DE2D9UI3","AZCGSVDT79E6X","3UAU495MIIEABANG75FBFHDC9WUUOI","","null","<img src=""img/animal2.png"" style=""width:200px; border:14px solid green;"">","null","","","","","",""
"","image-keyboard-response","277","137108","0.0-277.0","39LNWE0K4VI218A70C78K3DE2D9UI3","AZCGSVDT79E6X","3UAU495MIIEABANG75FBFHDC9WUUOI","","658","img/animal2.png","75","658.2999999523163","2","1","2","1,0.5,0,0,1,0.5,0.5,0,1",""
"","html-keyboard-response","278","137410","0.0-278.0","39LNWE0K4VI218A70C78K3DE2D9UI3","AZCGSVDT79E6X","3UAU495MIIEABANG75FBFHDC9WUUOI","","null","<img src=""img/animal2.png"" style=""width:200px; border:14px solid green;"">","null","","","","","",""
"","image-keyboard-response","279","137910","0.0-279.0","39LNWE0K4VI218A70C78K3DE2D9UI3","AZCGSVDT79E6X","3UAU495MIIEABANG75FBFHDC9WUUOI","","499.7999999523163","img/animal6.png","76","500.2000000476837","3","1","3","1,0.5,0,0,1,0.5,0.5,0,1",""
"","html-keyboard-response","280","138211","0.0-280.0","39LNWE0K4VI218A70C78K3DE2D9UI3","AZCGSVDT79E6X","3UAU495MIIEABANG75FBFHDC9WUUOI","","null","<img src=""img/animal6.png"" style=""width:200px; border:14px solid green;"">","null","","","","","",""
"","image-keyboard-response","281","138732","0.0-281.0","39LNWE0K4VI218A70C78K3DE2D9UI3","AZCGSVDT79E6X","3UAU495MIIEABANG75FBFHDC9WUUOI","","520.1000000238419","img/animal2.png","75","520.3999999761581","2","1","2","1,0.5,0,0,1,0.5,0.5,0,1",""
"","html-keyboard-response","282","139033","0.0-282.0","39LNWE0K4VI218A70C78K3DE2D9UI3","AZCGSVDT79E6X","3UAU495MIIEABANG75FBFHDC9WUUOI","","null","<img src=""img/animal2.png"" style=""width:200px; border:14px solid green;"">","null","","","","","",""
"","image-keyboard-response","283","139489","0.0-283.0","39LNWE0K4VI218A70C78K3DE2D9UI3","AZCGSVDT79E6X","3UAU495MIIEABANG75FBFHDC9WUUOI","","455.39999997615814","img/animal1.png","74","455.7999999523163","1","1","1","1,0.5,0,0,1,0.5,0.5,0,1",""
"","html-keyboard-response","284","139790","0.0-284.0","39LNWE0K4VI218A70C78K3DE2D9UI3","AZCGSVDT79E6X","3UAU495MIIEABANG75FBFHDC9WUUOI","","null","<img src=""img/animal1.png"" style=""width:200px; border:14px solid green;"">","null","","","","","",""
"","image-keyboard-response","285","140308","0.0-285.0","39LNWE0K4VI218A70C78K3DE2D9UI3","AZCGSVDT79E6X","3UAU495MIIEABANG75FBFHDC9WUUOI","","517.3999999761581","img/animal2.png","75","517.7000000476837","2","1","2","1,0.5,0,0,1,0.5,0.5,0,1",""
"","html-keyboard-response","286","140609","0.0-286.0","39LNWE0K4VI218A70C78K3DE2D9UI3","AZCGSVDT79E6X","3UAU495MIIEABANG75FBFHDC9WUUOI","","null","<img src=""img/animal2.png"" style=""width:200px; border:14px solid green;"">","null","","","","","",""
"","image-keyboard-response","287","140941","0.0-287.0","39LNWE0K4VI218A70C78K3DE2D9UI3","AZCGSVDT79E6X","3UAU495MIIEABANG75FBFHDC9WUUOI","","331.6999999284744","img/animal2.png","75","332","2","1","2","1,0.5,0,0,1,0.5,0.5,0,1",""
"","html-keyboard-response","288","141242","0.0-288.0","39LNWE0K4VI218A70C78K3DE2D9UI3","AZCGSVDT79E6X","3UAU495MIIEABANG75FBFHDC9WUUOI","","null","<img src=""img/animal2.png"" style=""width:200px; border:14px solid green;"">","null","","","","","",""
"","image-keyboard-response","289","141580","0.0-289.0","39LNWE0K4VI218A70C78K3DE2D9UI3","AZCGSVDT79E6X","3UAU495MIIEABANG75FBFHDC9WUUOI","","337.39999997615814","img/animal2.png","75","337.7999999523163","2","1","2","1,0.5,0,0,1,0.5,0.5,0,1",""
"","html-keyboard-response","290","141881","0.0-290.0","39LNWE0K4VI218A70C78K3DE2D9UI3","AZCGSVDT79E6X","3UAU495MIIEABANG75FBFHDC9WUUOI","","null","<img src=""img/animal2.png"" style=""width:200px; border:14px solid green;"">","null","","","","","",""
"","image-keyboard-response","291","142200","0.0-291.0","39LNWE0K4VI218A70C78K3DE2D9UI3","AZCGSVDT79E6X","3UAU495MIIEABANG75FBFHDC9WUUOI","","318.7999999523163","img/animal2.png","75","319","2","1","2","1,0.5,0,0,1,0.5,0.5,0,1",""
"","html-keyboard-response","292","142501","0.0-292.0","39LNWE0K4VI218A70C78K3DE2D9UI3","AZCGSVDT79E6X","3UAU495MIIEABANG75FBFHDC9WUUOI","","null","<img src=""img/animal2.png"" style=""width:200px; border:14px solid green;"">","null","","","","","",""
"","image-keyboard-response","293","142752","0.0-293.0","39LNWE0K4VI218A70C78K3DE2D9UI3","AZCGSVDT79E6X","3UAU495MIIEABANG75FBFHDC9WUUOI","","250.69999992847443","img/animal2.png","75","251.10000002384186","2","1","2","1,0.5,0,0,1,0.5,0.5,0,1",""
"","html-keyboard-response","294","143053","0.0-294.0","39LNWE0K4VI218A70C78K3DE2D9UI3","AZCGSVDT79E6X","3UAU495MIIEABANG75FBFHDC9WUUOI","","null","<img src=""img/animal2.png"" style=""width:200px; border:14px solid green;"">","null","","","","","",""
"","image-keyboard-response","295","143314","0.0-295.0","39LNWE0K4VI218A70C78K3DE2D9UI3","AZCGSVDT79E6X","3UAU495MIIEABANG75FBFHDC9WUUOI","","260.10000002384186","img/animal2.png","75","260.39999997615814","2","1","2","1,0.5,0,0,1,0.5,0.5,0,1",""
"","html-keyboard-response","296","143615","0.0-296.0","39LNWE0K4VI218A70C78K3DE2D9UI3","AZCGSVDT79E6X","3UAU495MIIEABANG75FBFHDC9WUUOI","","null","<img src=""img/animal2.png"" style=""width:200px; border:14px solid green;"">","null","","","","","",""
"","image-keyboard-response","297","144059","0.0-297.0","39LNWE0K4VI218A70C78K3DE2D9UI3","AZCGSVDT79E6X","3UAU495MIIEABANG75FBFHDC9WUUOI","","443.60000002384186","img/animal1.png","74","443.89999997615814","1","1","1","1,0.5,0,0,1,0.5,0.5,0,1",""
"","html-keyboard-response","298","144360","0.0-298.0","39LNWE0K4VI218A70C78K3DE2D9UI3","AZCGSVDT79E6X","3UAU495MIIEABANG75FBFHDC9WUUOI","","null","<img src=""img/animal1.png"" style=""width:200px; border:14px solid green;"">","null","","","","","",""
"","image-keyboard-response","299","144645","0.0-299.0","39LNWE0K4VI218A70C78K3DE2D9UI3","AZCGSVDT79E6X","3UAU495MIIEABANG75FBFHDC9WUUOI","","284.2999999523163","img/animal1.png","74","284.60000002384186","1","1","1","1,0.5,0,0,1,0.5,0.5,0,1",""
"","html-keyboard-response","300","144946","0.0-300.0","39LNWE0K4VI218A70C78K3DE2D9UI3","AZCGSVDT79E6X","3UAU495MIIEABANG75FBFHDC9WUUOI","","null","<img src=""img/animal1.png"" style=""width:200px; border:14px solid green;"">","null","","","","","",""
"","image-keyboard-response","301","145232","0.0-301.0","39LNWE0K4VI218A70C78K3DE2D9UI3","AZCGSVDT79E6X","3UAU495MIIEABANG75FBFHDC9WUUOI","","285.59999990463257","img/animal1.png","74","285.89999997615814","1","1","1","1,0.5,0,0,1,0.5,0.5,0,1",""
"","html-keyboard-response","302","145533","0.0-302.0","39LNWE0K4VI218A70C78K3DE2D9UI3","AZCGSVDT79E6X","3UAU495MIIEABANG75FBFHDC9WUUOI","","null","<img src=""img/animal1.png"" style=""width:200px; border:14px solid green;"">","null","","","","","",""
"","image-keyboard-response","303","145785","0.0-303.0","39LNWE0K4VI218A70C78K3DE2D9UI3","AZCGSVDT79E6X","3UAU495MIIEABANG75FBFHDC9WUUOI","","251.69999992847443","img/animal1.png","74","252.10000002384186","1","1","1","1,0.5,0,0,1,0.5,0.5,0,1",""
"","html-keyboard-response","304","146086","0.0-304.0","39LNWE0K4VI218A70C78K3DE2D9UI3","AZCGSVDT79E6X","3UAU495MIIEABANG75FBFHDC9WUUOI","","null","<img src=""img/animal1.png"" style=""width:200px; border:14px solid green;"">","null","","","","","",""
"","image-keyboard-response","305","146666","0.0-305.0","39LNWE0K4VI218A70C78K3DE2D9UI3","AZCGSVDT79E6X","3UAU495MIIEABANG75FBFHDC9WUUOI","","579.7999999523163","img/animal6.png","76","580.2999999523163","3","1","3","1,0.5,0,0,1,0.5,0.5,0,1",""
"","html-keyboard-response","306","146967","0.0-306.0","39LNWE0K4VI218A70C78K3DE2D9UI3","AZCGSVDT79E6X","3UAU495MIIEABANG75FBFHDC9WUUOI","","null","<img src=""img/animal6.png"" style=""width:200px; border:14px solid green;"">","null","","","","","",""
"","image-keyboard-response","307","147506","0.0-307.0","39LNWE0K4VI218A70C78K3DE2D9UI3","AZCGSVDT79E6X","3UAU495MIIEABANG75FBFHDC9WUUOI","","539","img/animal2.png","75","539.2999999523163","2","1","2","1,0.5,0,0,1,0.5,0.5,0,1",""
"","html-keyboard-response","308","147807","0.0-308.0","39LNWE0K4VI218A70C78K3DE2D9UI3","AZCGSVDT79E6X","3UAU495MIIEABANG75FBFHDC9WUUOI","","null","<img src=""img/animal2.png"" style=""width:200px; border:14px solid green;"">","null","","","","","",""
"","image-keyboard-response","309","148393","0.0-309.0","39LNWE0K4VI218A70C78K3DE2D9UI3","AZCGSVDT79E6X","3UAU495MIIEABANG75FBFHDC9WUUOI","","585.7999999523163","img/animal1.png","74","586.1000000238419","1","1","1","1,0.5,0,0,1,0.5,0.5,0,1",""
"","html-keyboard-response","310","148694","0.0-310.0","39LNWE0K4VI218A70C78K3DE2D9UI3","AZCGSVDT79E6X","3UAU495MIIEABANG75FBFHDC9WUUOI","","null","<img src=""img/animal1.png"" style=""width:200px; border:14px solid green;"">","null","","","","","",""
"","image-keyboard-response","311","149206","0.0-311.0","39LNWE0K4VI218A70C78K3DE2D9UI3","AZCGSVDT79E6X","3UAU495MIIEABANG75FBFHDC9WUUOI","","511.5","img/animal2.png","75","511.7999999523163","2","1","2","1,0.5,0,0,1,0.5,0.5,0,1",""
"","html-keyboard-response","312","149507","0.0-312.0","39LNWE0K4VI218A70C78K3DE2D9UI3","AZCGSVDT79E6X","3UAU495MIIEABANG75FBFHDC9WUUOI","","null","<img src=""img/animal2.png"" style=""width:200px; border:14px solid green;"">","null","","","","","",""
"","image-keyboard-response","313","149989","0.0-313.0","39LNWE0K4VI218A70C78K3DE2D9UI3","AZCGSVDT79E6X","3UAU495MIIEABANG75FBFHDC9WUUOI","","481.10000002384186","img/animal1.png","74","481.2999999523163","1","1","1","1,0.5,0,0,1,0.5,0.5,0,1",""
"","html-keyboard-response","314","150290","0.0-314.0","39LNWE0K4VI218A70C78K3DE2D9UI3","AZCGSVDT79E6X","3UAU495MIIEABANG75FBFHDC9WUUOI","","null","<img src=""img/animal1.png"" style=""width:200px; border:14px solid green;"">","null","","","","","",""
"","image-keyboard-response","315","150772","0.0-315.0","39LNWE0K4VI218A70C78K3DE2D9UI3","AZCGSVDT79E6X","3UAU495MIIEABANG75FBFHDC9WUUOI","","481.39999997615814","img/animal1.png","74","481.89999997615814","1","1","1","1,0.5,0,0,1,0.5,0.5,0,1",""
"","html-keyboard-response","316","151073","0.0-316.0","39LNWE0K4VI218A70C78K3DE2D9UI3","AZCGSVDT79E6X","3UAU495MIIEABANG75FBFHDC9WUUOI","","null","<img src=""img/animal1.png"" style=""width:200px; border:14px solid green;"">","null","","","","","",""
"","image-keyboard-response","317","151631","0.0-317.0","39LNWE0K4VI218A70C78K3DE2D9UI3","AZCGSVDT79E6X","3UAU495MIIEABANG75FBFHDC9WUUOI","","557.6999999284744","img/animal2.png","75","558","2","1","2","1,0.5,0,0,1,0.5,0.5,0,1",""
"","html-keyboard-response","318","151932","0.0-318.0","39LNWE0K4VI218A70C78K3DE2D9UI3","AZCGSVDT79E6X","3UAU495MIIEABANG75FBFHDC9WUUOI","","null","<img src=""img/animal2.png"" style=""width:200px; border:14px solid green;"">","null","","","","","",""
"","image-keyboard-response","319","152412","0.0-319.0","39LNWE0K4VI218A70C78K3DE2D9UI3","AZCGSVDT79E6X","3UAU495MIIEABANG75FBFHDC9WUUOI","","479.2999999523163","img/animal2.png","75","479.60000002384186","2","1","2","1,0.5,0,0,1,0.5,0.5,0,1",""
"","html-keyboard-response","320","152713","0.0-320.0","39LNWE0K4VI218A70C78K3DE2D9UI3","AZCGSVDT79E6X","3UAU495MIIEABANG75FBFHDC9WUUOI","","null","<img src=""img/animal2.png"" style=""width:200px; border:14px solid green;"">","null","","","","","",""
"","image-keyboard-response","321","153163","0.0-321.0","39LNWE0K4VI218A70C78K3DE2D9UI3","AZCGSVDT79E6X","3UAU495MIIEABANG75FBFHDC9WUUOI","","449.1999999284744","img/animal1.png","74","449.5","1","1","1","1,0.5,0,0,1,0.5,0.5,0,1",""
"","html-keyboard-response","322","153464","0.0-322.0","39LNWE0K4VI218A70C78K3DE2D9UI3","AZCGSVDT79E6X","3UAU495MIIEABANG75FBFHDC9WUUOI","","null","<img src=""img/animal1.png"" style=""width:200px; border:14px solid green;"">","null","","","","","",""
"","image-keyboard-response","323","153762","0.0-323.0","39LNWE0K4VI218A70C78K3DE2D9UI3","AZCGSVDT79E6X","3UAU495MIIEABANG75FBFHDC9WUUOI","","297.09999990463257","img/animal1.png","74","297.39999997615814","1","1","1","1,0.5,0,0,1,0.5,0.5,0,1",""
"","html-keyboard-response","324","154064","0.0-324.0","39LNWE0K4VI218A70C78K3DE2D9UI3","AZCGSVDT79E6X","3UAU495MIIEABANG75FBFHDC9WUUOI","","null","<img src=""img/animal1.png"" style=""width:200px; border:14px solid green;"">","null","","","","","",""
"","image-keyboard-response","325","154384","0.0-325.0","39LNWE0K4VI218A70C78K3DE2D9UI3","AZCGSVDT79E6X","3UAU495MIIEABANG75FBFHDC9WUUOI","","319.6999999284744","img/animal1.png","74","320.10000002384186","1","1","1","1,0.5,0,0,1,0.5,0.5,0,1",""
"","html-keyboard-response","326","154686","0.0-326.0","39LNWE0K4VI218A70C78K3DE2D9UI3","AZCGSVDT79E6X","3UAU495MIIEABANG75FBFHDC9WUUOI","","null","<img src=""img/animal1.png"" style=""width:200px; border:14px solid green;"">","null","","","","","",""
"","image-keyboard-response","327","155172","0.0-327.0","39LNWE0K4VI218A70C78K3DE2D9UI3","AZCGSVDT79E6X","3UAU495MIIEABANG75FBFHDC9WUUOI","","486","img/animal2.png","75","486.2999999523163","2","1","2","1,0.5,0,0,1,0.5,0.5,0,1",""
"","html-keyboard-response","328","155473","0.0-328.0","39LNWE0K4VI218A70C78K3DE2D9UI3","AZCGSVDT79E6X","3UAU495MIIEABANG75FBFHDC9WUUOI","","null","<img src=""img/animal2.png"" style=""width:200px; border:14px solid green;"">","null","","","","","",""
"","image-keyboard-response","329","155966","0.0-329.0","39LNWE0K4VI218A70C78K3DE2D9UI3","AZCGSVDT79E6X","3UAU495MIIEABANG75FBFHDC9WUUOI","","492.6999999284744","img/animal6.png","76","493.2000000476837","3","1","3","1,0.5,0,0,1,0.5,0.5,0,1",""
"","html-keyboard-response","330","156267","0.0-330.0","39LNWE0K4VI218A70C78K3DE2D9UI3","AZCGSVDT79E6X","3UAU495MIIEABANG75FBFHDC9WUUOI","","null","<img src=""img/animal6.png"" style=""width:200px; border:14px solid green;"">","null","","","","","",""
"","image-keyboard-response","331","156530","0.0-331.0","39LNWE0K4VI218A70C78K3DE2D9UI3","AZCGSVDT79E6X","3UAU495MIIEABANG75FBFHDC9WUUOI","","262.39999997615814","img/animal6.png","76","262.6999999284744","3","1","3","1,0.5,0,0,1,0.5,0.5,0,1",""
"","html-keyboard-response","332","156831","0.0-332.0","39LNWE0K4VI218A70C78K3DE2D9UI3","AZCGSVDT79E6X","3UAU495MIIEABANG75FBFHDC9WUUOI","","null","<img src=""img/animal6.png"" style=""width:200px; border:14px solid green;"">","null","","","","","",""
"","image-keyboard-response","333","157327","0.0-333.0","39LNWE0K4VI218A70C78K3DE2D9UI3","AZCGSVDT79E6X","3UAU495MIIEABANG75FBFHDC9WUUOI","","496","img/animal2.png","75","496.39999997615814","2","1","2","1,0.5,0,0,1,0.5,0.5,0,1",""
"","html-keyboard-response","334","157628","0.0-334.0","39LNWE0K4VI218A70C78K3DE2D9UI3","AZCGSVDT79E6X","3UAU495MIIEABANG75FBFHDC9WUUOI","","null","<img src=""img/animal2.png"" style=""width:200px; border:14px solid green;"">","null","","","","","",""
"","image-keyboard-response","335","158034","0.0-335.0","39LNWE0K4VI218A70C78K3DE2D9UI3","AZCGSVDT79E6X","3UAU495MIIEABANG75FBFHDC9WUUOI","","405.1999999284744","img/animal6.png","76","405.7000000476837","3","1","3","1,0.5,0,0,1,0.5,0.5,0,1",""
"","html-keyboard-response","336","158334","0.0-336.0","39LNWE0K4VI218A70C78K3DE2D9UI3","AZCGSVDT79E6X","3UAU495MIIEABANG75FBFHDC9WUUOI","","null","<img src=""img/animal6.png"" style=""width:200px; border:14px solid green;"">","null","","","","","",""
"","image-keyboard-response","337","158618","0.0-337.0","39LNWE0K4VI218A70C78K3DE2D9UI3","AZCGSVDT79E6X","3UAU495MIIEABANG75FBFHDC9WUUOI","","283.2000000476837","img/animal6.png","76","283.39999997615814","3","1","3","1,0.5,0,0,1,0.5,0.5,0,1",""
"","html-keyboard-response","338","158919","0.0-338.0","39LNWE0K4VI218A70C78K3DE2D9UI3","AZCGSVDT79E6X","3UAU495MIIEABANG75FBFHDC9WUUOI","","null","<img src=""img/animal6.png"" style=""width:200px; border:14px solid green;"">","null","","","","","",""
"","image-keyboard-response","339","159168","0.0-339.0","39LNWE0K4VI218A70C78K3DE2D9UI3","AZCGSVDT79E6X","3UAU495MIIEABANG75FBFHDC9WUUOI","","248.79999995231628","img/animal6.png","76","249.10000002384186","3","1","3","1,0.5,0,0,1,0.5,0.5,0,1",""
"","html-keyboard-response","340","159469","0.0-340.0","39LNWE0K4VI218A70C78K3DE2D9UI3","AZCGSVDT79E6X","3UAU495MIIEABANG75FBFHDC9WUUOI","","null","<img src=""img/animal6.png"" style=""width:200px; border:14px solid green;"">","null","","","","","",""
"","image-keyboard-response","341","159893","0.0-341.0","39LNWE0K4VI218A70C78K3DE2D9UI3","AZCGSVDT79E6X","3UAU495MIIEABANG75FBFHDC9WUUOI","","423.39999997615814","img/animal1.png","74","423.6999999284744","1","1","1","1,0.5,0,0,1,0.5,0.5,0,1",""
"","html-keyboard-response","342","160195","0.0-342.0","39LNWE0K4VI218A70C78K3DE2D9UI3","AZCGSVDT79E6X","3UAU495MIIEABANG75FBFHDC9WUUOI","","null","<img src=""img/animal1.png"" style=""width:200px; border:14px solid green;"">","null","","","","","",""
"","image-keyboard-response","343","160767","0.0-343.0","39LNWE0K4VI218A70C78K3DE2D9UI3","AZCGSVDT79E6X","3UAU495MIIEABANG75FBFHDC9WUUOI","","571.8999999761581","img/animal6.png","76","572.2999999523163","3","1","3","1,0.5,0,0,1,0.5,0.5,0,1",""
"","html-keyboard-response","344","161068","0.0-344.0","39LNWE0K4VI218A70C78K3DE2D9UI3","AZCGSVDT79E6X","3UAU495MIIEABANG75FBFHDC9WUUOI","","null","<img src=""img/animal6.png"" style=""width:200px; border:14px solid green;"">","null","","","","","",""
"","image-keyboard-response","345","161543","0.0-345.0","39LNWE0K4VI218A70C78K3DE2D9UI3","AZCGSVDT79E6X","3UAU495MIIEABANG75FBFHDC9WUUOI","","474.5","img/animal1.png","74","474.6999999284744","1","1","1","1,0.5,0,0,1,0.5,0.5,0,1",""
"","html-keyboard-response","346","161844","0.0-346.0","39LNWE0K4VI218A70C78K3DE2D9UI3","AZCGSVDT79E6X","3UAU495MIIEABANG75FBFHDC9WUUOI","","null","<img src=""img/animal1.png"" style=""width:200px; border:14px solid green;"">","null","","","","","",""
"","image-keyboard-response","347","162283","0.0-347.0","39LNWE0K4VI218A70C78K3DE2D9UI3","AZCGSVDT79E6X","3UAU495MIIEABANG75FBFHDC9WUUOI","","438.1999999284744","img/animal6.png","76","438.60000002384186","3","1","3","1,0.5,0,0,1,0.5,0.5,0,1",""
"","html-keyboard-response","348","162584","0.0-348.0","39LNWE0K4VI218A70C78K3DE2D9UI3","AZCGSVDT79E6X","3UAU495MIIEABANG75FBFHDC9WUUOI","","null","<img src=""img/animal6.png"" style=""width:200px; border:14px solid green;"">","null","","","","","",""
"","image-keyboard-response","349","163042","0.0-349.0","39LNWE0K4VI218A70C78K3DE2D9UI3","AZCGSVDT79E6X","3UAU495MIIEABANG75FBFHDC9WUUOI","","457.39999997615814","img/animal1.png","74","457.6999999284744","1","1","1","1,0.5,0,0,1,0.5,0.5,0,1",""
"","html-keyboard-response","350","163343","0.0-350.0","39LNWE0K4VI218A70C78K3DE2D9UI3","AZCGSVDT79E6X","3UAU495MIIEABANG75FBFHDC9WUUOI","","null","<img src=""img/animal1.png"" style=""width:200px; border:14px solid green;"">","null","","","","","",""
"","image-keyboard-response","351","163779","0.0-351.0","39LNWE0K4VI218A70C78K3DE2D9UI3","AZCGSVDT79E6X","3UAU495MIIEABANG75FBFHDC9WUUOI","","435.39999997615814","img/animal2.png","75","435.6999999284744","2","1","2","1,0.5,0,0,1,0.5,0.5,0,1",""
"","html-keyboard-response","352","164080","0.0-352.0","39LNWE0K4VI218A70C78K3DE2D9UI3","AZCGSVDT79E6X","3UAU495MIIEABANG75FBFHDC9WUUOI","","null","<img src=""img/animal2.png"" style=""width:200px; border:14px solid green;"">","null","","","","","",""
"","image-keyboard-response","353","164661","0.0-353.0","39LNWE0K4VI218A70C78K3DE2D9UI3","AZCGSVDT79E6X","3UAU495MIIEABANG75FBFHDC9WUUOI","","580.0999999046326","img/animal1.png","74","580.5","1","1","1","1,0.5,0,0,1,0.5,0.5,0,1",""
"","html-keyboard-response","354","164962","0.0-354.0","39LNWE0K4VI218A70C78K3DE2D9UI3","AZCGSVDT79E6X","3UAU495MIIEABANG75FBFHDC9WUUOI","","null","<img src=""img/animal1.png"" style=""width:200px; border:14px solid green;"">","null","","","","","",""
"","image-keyboard-response","355","165479","0.0-355.0","39LNWE0K4VI218A70C78K3DE2D9UI3","AZCGSVDT79E6X","3UAU495MIIEABANG75FBFHDC9WUUOI","","516.3999999761581","img/animal6.png","76","516.6000000238419","3","1","3","1,0.5,0,0,1,0.5,0.5,0,1",""
"","html-keyboard-response","356","165780","0.0-356.0","39LNWE0K4VI218A70C78K3DE2D9UI3","AZCGSVDT79E6X","3UAU495MIIEABANG75FBFHDC9WUUOI","","null","<img src=""img/animal6.png"" style=""width:200px; border:14px solid green;"">","null","","","","","",""
"","image-keyboard-response","357","166069","0.0-357.0","39LNWE0K4VI218A70C78K3DE2D9UI3","AZCGSVDT79E6X","3UAU495MIIEABANG75FBFHDC9WUUOI","","288.6999999284744","img/animal6.png","76","288.89999997615814","3","1","3","1,0.5,0,0,1,0.5,0.5,0,1",""
"","html-keyboard-response","358","166370","0.0-358.0","39LNWE0K4VI218A70C78K3DE2D9UI3","AZCGSVDT79E6X","3UAU495MIIEABANG75FBFHDC9WUUOI","","null","<img src=""img/animal6.png"" style=""width:200px; border:14px solid green;"">","null","","","","","",""
"","image-keyboard-response","359","166597","0.0-359.0","39LNWE0K4VI218A70C78K3DE2D9UI3","AZCGSVDT79E6X","3UAU495MIIEABANG75FBFHDC9WUUOI","","226.60000002384186","img/animal6.png","76","226.79999995231628","3","1","3","1,0.5,0,0,1,0.5,0.5,0,1",""
"","html-keyboard-response","360","166898","0.0-360.0","39LNWE0K4VI218A70C78K3DE2D9UI3","AZCGSVDT79E6X","3UAU495MIIEABANG75FBFHDC9WUUOI","","null","<img src=""img/animal6.png"" style=""width:200px; border:14px solid green;"">","null","","","","","",""
"","image-keyboard-response","361","167140","0.0-361.0","39LNWE0K4VI218A70C78K3DE2D9UI3","AZCGSVDT79E6X","3UAU495MIIEABANG75FBFHDC9WUUOI","","241.5","img/animal6.png","76","241.79999995231628","3","1","3","1,0.5,0,0,1,0.5,0.5,0,1",""
"","html-keyboard-response","362","167441","0.0-362.0","39LNWE0K4VI218A70C78K3DE2D9UI3","AZCGSVDT79E6X","3UAU495MIIEABANG75FBFHDC9WUUOI","","null","<img src=""img/animal6.png"" style=""width:200px; border:14px solid green;"">","null","","","","","",""
"","instructions","363","169918","0.0-363.0","39LNWE0K4VI218A70C78K3DE2D9UI3","AZCGSVDT79E6X","3UAU495MIIEABANG75FBFHDC9WUUOI","[{""page_index"":0,""viewing_time"":2476.399999976158}]","2476.5","","","","","","","",""
"","survey-text","364","174661","0.0-364.0","39LNWE0K4VI218A70C78K3DE2D9UI3","AZCGSVDT79E6X","3UAU495MIIEABANG75FBFHDC9WUUOI","","4742.200000047684","","","","","","","","{""Q0"":""AZCGSVDT79E6X""}"
