"success","trial_type","trial_index","time_elapsed","internal_node_id","assignmentID","mturkID","hitID","view_history","rt","stimulus","key_press","reactionTime","a","r","s","reward_cond","responses"
"true","fullscreen","0","1788","0.0-0.0","","","","","","","","","","","","",""
"","instructions","1","7497","0.0-1.0","","","","[{""page_index"":0,""viewing_time"":1327.5},{""page_index"":1,""viewing_time"":500},{""page_index"":2,""viewing_time"":397.10000000009313},{""page_index"":3,""viewing_time"":599.7000000001863},{""page_index"":4,""viewing_time"":1083.5999999996275},{""page_index"":5,""viewing_time"":566.9000000003725},{""page_index"":6,""viewing_time"":650},{""page_index"":7,""viewing_time"":582.8999999999069}]","5708.399999999907","","","","","","","",""
"","image-keyboard-response","2","8389","0.0-2.0","","","","","890.2000000001863","img/animal6.png","74","891.2000000001863","1","1","1","0.7,0,0.8,0.7,0.8,0,0.7,0.8,0",""
"","html-keyboard-response","3","8691","0.0-3.0","","","","","null","<img src=""img/animal6.png"" style=""width:200px; border:14px solid green;"">","null","","","","","",""
"","image-keyboard-response","4","9305","0.0-4.0","","","","","612.8999999999069","img/animal4.png","75","613.6999999997206","2","1","2","0.7,0,0.8,0.7,0.8,0,0.7,0.8,0",""
"","html-keyboard-response","5","9614","0.0-5.0","","","","","null","<img src=""img/animal4.png"" style=""width:200px; border:14px solid green;"">","null","","","","","",""
"","image-keyboard-response","6","10002","0.0-6.0","","","","","386.8000000002794","img/animal1.png","76","387.6999999997206","3","0","3","0.7,0,0.8,0.7,0.8,0,0.7,0.8,0",""
"","html-keyboard-response","7","10308","0.0-7.0","","","","","null","<img src=""img/animal1.png"" style=""width:200px;border:14px solid red;"">","null","","","","","",""
"","image-keyboard-response","8","17689","0.0-8.0","","","","","7379.700000000186","img/animal6.png","74","7380.299999999814","1","0","1","0.7,0,0.8,0.7,0.8,0,0.7,0.8,0",""
"","html-keyboard-response","9","17992","0.0-9.0","","","","","null","<img src=""img/animal6.png"" style=""width:200px;border:14px solid red;"">","null","","","","","",""
"","image-keyboard-response","10","18335","0.0-10.0","","","","","341.8000000002794","img/animal4.png","75","342.70000000018626","2","1","2","0.7,0,0.8,0.7,0.8,0,0.7,0.8,0",""
"","html-keyboard-response","11","18639","0.0-11.0","","","","","null","<img src=""img/animal4.png"" style=""width:200px; border:14px solid green;"">","null","","","","","",""
"","image-keyboard-response","12","18930","0.0-12.0","","","","","290","img/animal6.png","75","291","2","0","1","0.7,0,0.8,0.7,0.8,0,0.7,0.8,0",""
"","html-keyboard-response","13","19236","0.0-13.0","","","","","null","<img src=""img/animal6.png"" style=""width:200px;border:14px solid red;"">","null","","","","","",""
"","image-keyboard-response","14","21442","0.0-14.0","","","","","2205.100000000093","img/animal6.png","74","2205.7999999998137","1","1","1","0.7,0,0.8,0.7,0.8,0,0.7,0.8,0",""
"","html-keyboard-response","15","21750","0.0-15.0","","","","","null","<img src=""img/animal6.png"" style=""width:200px; border:14px solid green;"">","null","","","","","",""
"","image-keyboard-response","16","22140","0.0-16.0","","","","","388.1999999997206","img/animal4.png","75","389","2","1","2","0.7,0,0.8,0.7,0.8,0,0.7,0.8,0",""
"","html-keyboard-response","17","22442","0.0-17.0","","","","","null","<img src=""img/animal4.png"" style=""width:200px; border:14px solid green;"">","null","","","","","",""
"","image-keyboard-response","18","24036","0.0-18.0","","","","","1592.5","img/animal6.png","74","1593.5","1","0","1","0.7,0,0.8,0.7,0.8,0,0.7,0.8,0",""
"","html-keyboard-response","19","24342","0.0-19.0","","","","","null","<img src=""img/animal6.png"" style=""width:200px;border:14px solid red;"">","null","","","","","",""
"","image-keyboard-response","20","24740","0.0-20.0","","","","","396.60000000009313","img/animal1.png","76","397.29999999981374","3","0","3","0.7,0,0.8,0.7,0.8,0,0.7,0.8,0",""
"","html-keyboard-response","21","25042","0.0-21.0","","","","","null","<img src=""img/animal1.png"" style=""width:200px;border:14px solid red;"">","null","","","","","",""
"","image-keyboard-response","22","25638","0.0-22.0","","","","","594.9000000003725","img/animal4.png","75","595.7000000001863","2","0","2","0.7,0,0.8,0.7,0.8,0,0.7,0.8,0",""
"","html-keyboard-response","23","25942","0.0-23.0","","","","","null","<img src=""img/animal4.png"" style=""width:200px;border:14px solid red;"">","null","","","","","",""
"","image-keyboard-response","24","26528","0.0-24.0","","","","","584.5","img/animal1.png","74","585.1000000000931","1","0","3","0.7,0,0.8,0.7,0.8,0,0.7,0.8,0",""
"","html-keyboard-response","25","26831","0.0-25.0","","","","","null","<img src=""img/animal1.png"" style=""width:200px;border:14px solid red;"">","null","","","","","",""
"","image-keyboard-response","26","27361","0.0-26.0","","","","","528.2999999998137","img/animal6.png","76","529.2000000001863","3","1","1","0.7,0,0.8,0.7,0.8,0,0.7,0.8,0",""
"","html-keyboard-response","27","27671","0.0-27.0","","","","","null","<img src=""img/animal6.png"" style=""width:200px; border:14px solid green;"">","null","","","","","",""
"","image-keyboard-response","28","28104","0.0-28.0","","","","","431.89999999990687","img/animal1.png","74","432.70000000018626","1","1","3","0.7,0,0.8,0.7,0.8,0,0.7,0.8,0",""
"","html-keyboard-response","29","28410","0.0-29.0","","","","","null","<img src=""img/animal1.png"" style=""width:200px; border:14px solid green;"">","null","","","","","",""
"","image-keyboard-response","30","28821","0.0-30.0","","","","","410.60000000009313","img/animal4.png","75","411.29999999981374","2","1","2","0.7,0,0.8,0.7,0.8,0,0.7,0.8,0",""
"","html-keyboard-response","31","29124","0.0-31.0","","","","","null","<img src=""img/animal4.png"" style=""width:200px; border:14px solid green;"">","null","","","","","",""
"","image-keyboard-response","32","29578","0.0-32.0","","","","","452.59999999962747","img/animal1.png","75","453.29999999981374","2","1","3","0.7,0,0.8,0.7,0.8,0,0.7,0.8,0",""
"","html-keyboard-response","33","29887","0.0-33.0","","","","","null","<img src=""img/animal1.png"" style=""width:200px; border:14px solid green;"">","null","","","","","",""
"","image-keyboard-response","34","30495","0.0-34.0","","","","","606.8999999999069","img/animal4.png","75","607.7999999998137","2","1","2","0.7,0,0.8,0.7,0.8,0,0.7,0.8,0",""
"","html-keyboard-response","35","30799","0.0-35.0","","","","","null","<img src=""img/animal4.png"" style=""width:200px; border:14px solid green;"">","null","","","","","",""
"","image-keyboard-response","36","31167","0.0-36.0","","","","","366.60000000009313","img/animal1.png","75","367.29999999981374","2","1","3","0.7,0,0.8,0.7,0.8,0,0.7,0.8,0",""
"","html-keyboard-response","37","31471","0.0-37.0","","","","","null","<img src=""img/animal1.png"" style=""width:200px; border:14px solid green;"">","null","","","","","",""
"","image-keyboard-response","38","31782","0.0-38.0","","","","","309.60000000009313","img/animal4.png","74","310.60000000009313","1","1","2","0.7,0,0.8,0.7,0.8,0,0.7,0.8,0",""
"","html-keyboard-response","39","32087","0.0-39.0","","","","","null","<img src=""img/animal4.png"" style=""width:200px; border:14px solid green;"">","null","","","","","",""
"","image-keyboard-response","40","32403","0.0-40.0","","","","","314.70000000018626","img/animal1.png","76","315.5","3","0","3","0.7,0,0.8,0.7,0.8,0,0.7,0.8,0",""
"","html-keyboard-response","41","32707","0.0-41.0","","","","","null","<img src=""img/animal1.png"" style=""width:200px;border:14px solid red;"">","null","","","","","",""
"","image-keyboard-response","42","32945","0.0-42.0","","","","","237","img/animal4.png","75","237.6999999997206","2","1","2","0.7,0,0.8,0.7,0.8,0,0.7,0.8,0",""
"","html-keyboard-response","43","33254","0.0-43.0","","","","","null","<img src=""img/animal4.png"" style=""width:200px; border:14px solid green;"">","null","","","","","",""
"","image-keyboard-response","44","33281","0.0-44.0","","","","","25.799999999813735","img/animal4.png","74","26.600000000093132","1","0","2","0.7,0,0.8,0.7,0.8,0,0.7,0.8,0",""
"","html-keyboard-response","45","33589","0.0-45.0","","","","","null","<img src=""img/animal4.png"" style=""width:200px;border:14px solid red;"">","null","","","","","",""
"","image-keyboard-response","46","33676","0.0-46.0","","","","","86.8000000002794","img/animal6.png","74","87.5","1","1","1","0.7,0,0.8,0.7,0.8,0,0.7,0.8,0",""
"","html-keyboard-response","47","33982","0.0-47.0","","","","","null","<img src=""img/animal6.png"" style=""width:200px; border:14px solid green;"">","null","","","","","",""
"","image-keyboard-response","48","34008","0.0-48.0","","","","","23.899999999906868","img/animal6.png","76","24.800000000279397","3","1","1","0.7,0,0.8,0.7,0.8,0,0.7,0.8,0",""
"","html-keyboard-response","49","34311","0.0-49.0","","","","","null","<img src=""img/animal6.png"" style=""width:200px; border:14px solid green;"">","null","","","","","",""
"","image-keyboard-response","50","34385","0.0-50.0","","","","","72.79999999981374","img/animal4.png","74","73.60000000009313","1","0","2","0.7,0,0.8,0.7,0.8,0,0.7,0.8,0",""
"","html-keyboard-response","51","34691","0.0-51.0","","","","","null","<img src=""img/animal4.png"" style=""width:200px;border:14px solid red;"">","null","","","","","",""
"","image-keyboard-response","52","34715","0.0-52.0","","","","","23.600000000093132","img/animal4.png","76","24.200000000186265","3","0","2","0.7,0,0.8,0.7,0.8,0,0.7,0.8,0",""
"","html-keyboard-response","53","35022","0.0-53.0","","","","","null","<img src=""img/animal4.png"" style=""width:200px;border:14px solid red;"">","null","","","","","",""
"","image-keyboard-response","54","35088","0.0-54.0","","","","","64.5","img/animal6.png","74","65.5","1","0","1","0.7,0,0.8,0.7,0.8,0,0.7,0.8,0",""
"","html-keyboard-response","55","35390","0.0-55.0","","","","","null","<img src=""img/animal6.png"" style=""width:200px;border:14px solid red;"">","null","","","","","",""
"","image-keyboard-response","56","35433","0.0-56.0","","","","","41.8000000002794","img/animal6.png","75","42.40000000037253","2","0","1","0.7,0,0.8,0.7,0.8,0,0.7,0.8,0",""
"","html-keyboard-response","57","35742","0.0-57.0","","","","","null","<img src=""img/animal6.png"" style=""width:200px;border:14px solid red;"">","null","","","","","",""
"","image-keyboard-response","58","35796","0.0-58.0","","","","","52.5","img/animal1.png","76","53.200000000186265","3","0","3","0.7,0,0.8,0.7,0.8,0,0.7,0.8,0",""
"","html-keyboard-response","59","36104","0.0-59.0","","","","","null","<img src=""img/animal1.png"" style=""width:200px;border:14px solid red;"">","null","","","","","",""
"","image-keyboard-response","60","36224","0.0-60.0","","","","","119.5","img/animal4.png","76","120.39999999990687","3","0","2","0.7,0,0.8,0.7,0.8,0,0.7,0.8,0",""
"","html-keyboard-response","61","36527","0.0-61.0","","","","","null","<img src=""img/animal4.png"" style=""width:200px;border:14px solid red;"">","null","","","","","",""
"","image-keyboard-response","62","36597","0.0-62.0","","","","","69","img/animal1.png","76","69.6999999997206","3","0","3","0.7,0,0.8,0.7,0.8,0,0.7,0.8,0",""
"","html-keyboard-response","63","36902","0.0-63.0","","","","","null","<img src=""img/animal1.png"" style=""width:200px;border:14px solid red;"">","null","","","","","",""
"","image-keyboard-response","64","36910","0.0-64.0","","","","","6.2999999998137355","img/animal1.png","76","7","3","0","3","0.7,0,0.8,0.7,0.8,0,0.7,0.8,0",""
"","html-keyboard-response","65","37215","0.0-65.0","","","","","null","<img src=""img/animal1.png"" style=""width:200px;border:14px solid red;"">","null","","","","","",""
"","image-keyboard-response","66","37274","0.0-66.0","","","","","58.39999999990687","img/animal1.png","75","59.1999999997206","2","1","3","0.7,0,0.8,0.7,0.8,0,0.7,0.8,0",""
"","html-keyboard-response","67","37583","0.0-67.0","","","","","null","<img src=""img/animal1.png"" style=""width:200px; border:14px solid green;"">","null","","","","","",""
"","image-keyboard-response","68","37664","0.0-68.0","","","","","80.3000000002794","img/animal4.png","76","81","3","0","2","0.7,0,0.8,0.7,0.8,0,0.7,0.8,0",""
"","html-keyboard-response","69","37966","0.0-69.0","","","","","null","<img src=""img/animal4.png"" style=""width:200px;border:14px solid red;"">","null","","","","","",""
"","image-keyboard-response","70","37990","0.0-70.0","","","","","23","img/animal6.png","74","23.699999999720603","1","1","1","0.7,0,0.8,0.7,0.8,0,0.7,0.8,0",""
"","html-keyboard-response","71","38292","0.0-71.0","","","","","null","<img src=""img/animal6.png"" style=""width:200px; border:14px solid green;"">","null","","","","","",""
"","image-keyboard-response","72","38365","0.0-72.0","","","","","71.70000000018626","img/animal1.png","76","72.39999999990687","3","0","3","0.7,0,0.8,0.7,0.8,0,0.7,0.8,0",""
"","html-keyboard-response","73","38672","0.0-73.0","","","","","null","<img src=""img/animal1.png"" style=""width:200px;border:14px solid red;"">","null","","","","","",""
"","image-keyboard-response","74","38898","0.0-74.0","","","","","224.79999999981374","img/animal1.png","75","225.8000000002794","2","1","3","0.7,0,0.8,0.7,0.8,0,0.7,0.8,0",""
"","html-keyboard-response","75","39207","0.0-75.0","","","","","null","<img src=""img/animal1.png"" style=""width:200px; border:14px solid green;"">","null","","","","","",""
"","image-keyboard-response","76","39290","0.0-76.0","","","","","80.89999999990687","img/animal1.png","76","81.70000000018626","3","0","3","0.7,0,0.8,0.7,0.8,0,0.7,0.8,0",""
"","html-keyboard-response","77","39592","0.0-77.0","","","","","null","<img src=""img/animal1.png"" style=""width:200px;border:14px solid red;"">","null","","","","","",""
"","image-keyboard-response","78","39668","0.0-78.0","","","","","75.20000000018626","img/animal6.png","74","75.89999999990687","1","1","1","0.7,0,0.8,0.7,0.8,0,0.7,0.8,0",""
"","html-keyboard-response","79","39975","0.0-79.0","","","","","null","<img src=""img/animal6.png"" style=""width:200px; border:14px solid green;"">","null","","","","","",""
"","image-keyboard-response","80","40031","0.0-80.0","","","","","55.299999999813735","img/animal1.png","74","56","1","1","3","0.7,0,0.8,0.7,0.8,0,0.7,0.8,0",""
"","html-keyboard-response","81","40335","0.0-81.0","","","","","null","<img src=""img/animal1.png"" style=""width:200px; border:14px solid green;"">","null","","","","","",""
"","image-keyboard-response","82","40350","0.0-82.0","","","","","13","img/animal4.png","74","13.700000000186265","1","1","2","0.7,0,0.8,0.7,0.8,0,0.7,0.8,0",""
"","html-keyboard-response","83","40655","0.0-83.0","","","","","null","<img src=""img/animal4.png"" style=""width:200px; border:14px solid green;"">","null","","","","","",""
"","image-keyboard-response","84","40748","0.0-84.0","","","","","91.1999999997206","img/animal4.png","76","92.10000000009313","3","0","2","0.7,0,0.8,0.7,0.8,0,0.7,0.8,0",""
"","html-keyboard-response","85","41056","0.0-85.0","","","","","null","<img src=""img/animal4.png"" style=""width:200px;border:14px solid red;"">","null","","","","","",""
"","image-keyboard-response","86","41099","0.0-86.0","","","","","42","img/animal4.png","76","43.8000000002794","3","0","2","0.7,0,0.8,0.7,0.8,0,0.7,0.8,0",""
"","html-keyboard-response","87","41407","0.0-87.0","","","","","null","<img src=""img/animal4.png"" style=""width:200px;border:14px solid red;"">","null","","","","","",""
"","image-keyboard-response","88","41461","0.0-88.0","","","","","53.90000000037253","img/animal1.png","74","54.60000000009313","1","1","3","0.7,0,0.8,0.7,0.8,0,0.7,0.8,0",""
"","html-keyboard-response","89","41763","0.0-89.0","","","","","null","<img src=""img/animal1.png"" style=""width:200px; border:14px solid green;"">","null","","","","","",""
"","image-keyboard-response","90","41770","0.0-90.0","","","","","5.399999999906868","img/animal4.png","74","5.899999999906868","1","0","2","0.7,0,0.8,0.7,0.8,0,0.7,0.8,0",""
"","html-keyboard-response","91","42075","0.0-91.0","","","","","null","<img src=""img/animal4.png"" style=""width:200px;border:14px solid red;"">","null","","","","","",""
"","image-keyboard-response","92","42171","0.0-92.0","","","","","95.10000000009313","img/animal4.png","74","95.79999999981374","1","1","2","0.7,0,0.8,0.7,0.8,0,0.7,0.8,0",""
"","html-keyboard-response","93","42473","0.0-93.0","","","","","null","<img src=""img/animal4.png"" style=""width:200px; border:14px solid green;"">","null","","","","","",""
"","image-keyboard-response","94","42501","0.0-94.0","","","","","27.200000000186265","img/animal1.png","76","27.800000000279397","3","0","3","0.7,0,0.8,0.7,0.8,0,0.7,0.8,0",""
"","html-keyboard-response","95","42807","0.0-95.0","","","","","null","<img src=""img/animal1.png"" style=""width:200px;border:14px solid red;"">","null","","","","","",""
"","image-keyboard-response","96","42867","0.0-96.0","","","","","58.299999999813735","img/animal1.png","75","59.200000000186265","2","0","3","0.7,0,0.8,0.7,0.8,0,0.7,0.8,0",""
"","html-keyboard-response","97","43175","0.0-97.0","","","","","null","<img src=""img/animal1.png"" style=""width:200px;border:14px solid red;"">","null","","","","","",""
"","image-keyboard-response","98","43185","0.0-98.0","","","","","8.899999999906868","img/animal4.png","75","9.700000000186265","2","1","2","0.7,0,0.8,0.7,0.8,0,0.7,0.8,0",""
"","html-keyboard-response","99","43492","0.0-99.0","","","","","null","<img src=""img/animal4.png"" style=""width:200px; border:14px solid green;"">","null","","","","","",""
"","image-keyboard-response","100","43579","0.0-100.0","","","","","85.89999999990687","img/animal6.png","74","86.60000000009313","1","1","1","0.7,0,0.8,0.7,0.8,0,0.7,0.8,0",""
"","html-keyboard-response","101","43888","0.0-101.0","","","","","null","<img src=""img/animal6.png"" style=""width:200px; border:14px solid green;"">","null","","","","","",""
"","image-keyboard-response","102","43939","0.0-102.0","","","","","49.799999999813735","img/animal6.png","76","50.60000000009313","3","1","1","0.7,0,0.8,0.7,0.8,0,0.7,0.8,0",""
"","html-keyboard-response","103","44241","0.0-103.0","","","","","null","<img src=""img/animal6.png"" style=""width:200px; border:14px solid green;"">","null","","","","","",""
"","image-keyboard-response","104","44245","0.0-104.0","","","","","3.5","img/animal6.png","75","4.099999999627471","2","0","1","0.7,0,0.8,0.7,0.8,0,0.7,0.8,0",""
"","html-keyboard-response","105","44551","0.0-105.0","","","","","null","<img src=""img/animal6.png"" style=""width:200px;border:14px solid red;"">","null","","","","","",""
"","image-keyboard-response","106","44655","0.0-106.0","","","","","102.5","img/animal1.png","76","103.29999999981374","3","0","3","0.7,0,0.8,0.7,0.8,0,0.7,0.8,0",""
"","html-keyboard-response","107","44956","0.0-107.0","","","","","null","<img src=""img/animal1.png"" style=""width:200px;border:14px solid red;"">","null","","","","","",""
"","image-keyboard-response","108","44973","0.0-108.0","","","","","16.100000000093132","img/animal4.png","75","16.799999999813735","2","1","2","0.7,0,0.8,0.7,0.8,0,0.7,0.8,0",""
"","html-keyboard-response","109","45279","0.0-109.0","","","","","null","<img src=""img/animal4.png"" style=""width:200px; border:14px solid green;"">","null","","","","","",""
"","image-keyboard-response","110","45289","0.0-110.0","","","","","9.100000000093132","img/animal6.png","76","9.899999999906868","3","0","1","0.7,0,0.8,0.7,0.8,0,0.7,0.8,0",""
"","html-keyboard-response","111","45599","0.0-111.0","","","","","null","<img src=""img/animal6.png"" style=""width:200px;border:14px solid red;"">","null","","","","","",""
"","image-keyboard-response","112","45610","0.0-112.0","","","","","10.100000000093132","img/animal6.png","76","10.799999999813735","3","1","1","0.7,0,0.8,0.7,0.8,0,0.7,0.8,0",""
"","html-keyboard-response","113","45915","0.0-113.0","","","","","null","<img src=""img/animal6.png"" style=""width:200px; border:14px solid green;"">","null","","","","","",""
"","image-keyboard-response","114","46068","0.0-114.0","","","","","152.1999999997206","img/animal6.png","75","152.8000000002794","2","0","1","0.7,0,0.8,0.7,0.8,0,0.7,0.8,0",""
"","html-keyboard-response","115","46375","0.0-115.0","","","","","null","<img src=""img/animal6.png"" style=""width:200px;border:14px solid red;"">","null","","","","","",""
"","image-keyboard-response","116","46381","0.0-116.0","","","","","4.800000000279397","img/animal4.png","75","5.699999999720603","2","1","2","0.7,0,0.8,0.7,0.8,0,0.7,0.8,0",""
"","html-keyboard-response","117","46687","0.0-117.0","","","","","null","<img src=""img/animal4.png"" style=""width:200px; border:14px solid green;"">","null","","","","","",""
"","image-keyboard-response","118","46738","0.0-118.0","","","","","50","img/animal6.png","74","50.60000000009313","1","1","1","0.7,0,0.8,0.7,0.8,0,0.7,0.8,0",""
"","html-keyboard-response","119","47042","0.0-119.0","","","","","null","<img src=""img/animal6.png"" style=""width:200px; border:14px solid green;"">","null","","","","","",""
"","image-keyboard-response","120","47158","0.0-120.0","","","","","114.70000000018626","img/animal4.png","74","115.3000000002794","1","0","2","0.7,0,0.8,0.7,0.8,0,0.7,0.8,0",""
"","html-keyboard-response","121","47463","0.0-121.0","","","","","null","<img src=""img/animal4.png"" style=""width:200px;border:14px solid red;"">","null","","","","","",""
"","image-keyboard-response","122","47534","0.0-122.0","","","","","69.1999999997206","img/animal1.png","76","70.20000000018626","3","0","3","0.7,0,0.8,0.7,0.8,0,0.7,0.8,0",""
"","html-keyboard-response","123","47839","0.0-123.0","","","","","null","<img src=""img/animal1.png"" style=""width:200px;border:14px solid red;"">","null","","","","","",""
"","image-keyboard-response","124","47863","0.0-124.0","","","","","23.600000000093132","img/animal4.png","76","24.40000000037253","3","0","2","0.7,0,0.8,0.7,0.8,0,0.7,0.8,0",""
"","html-keyboard-response","125","48168","0.0-125.0","","","","","null","<img src=""img/animal4.png"" style=""width:200px;border:14px solid red;"">","null","","","","","",""
"","image-keyboard-response","126","48173","0.0-126.0","","","","","3.3999999999068677","img/animal4.png","74","4.100000000093132","1","0","2","0.7,0,0.8,0.7,0.8,0,0.7,0.8,0",""
"","html-keyboard-response","127","48474","0.0-127.0","","","","","null","<img src=""img/animal4.png"" style=""width:200px;border:14px solid red;"">","null","","","","","",""
"","image-keyboard-response","128","48569","0.0-128.0","","","","","94","img/animal6.png","76","94.70000000018626","3","1","1","0.7,0,0.8,0.7,0.8,0,0.7,0.8,0",""
"","html-keyboard-response","129","48875","0.0-129.0","","","","","null","<img src=""img/animal6.png"" style=""width:200px; border:14px solid green;"">","null","","","","","",""
"","image-keyboard-response","130","48913","0.0-130.0","","","","","37.60000000009313","img/animal6.png","76","38.39999999990687","3","1","1","0.7,0,0.8,0.7,0.8,0,0.7,0.8,0",""
"","html-keyboard-response","131","49223","0.0-131.0","","","","","null","<img src=""img/animal6.png"" style=""width:200px; border:14px solid green;"">","null","","","","","",""
"","image-keyboard-response","132","49267","0.0-132.0","","","","","43","img/animal6.png","76","43.799999999813735","3","1","1","0.7,0,0.8,0.7,0.8,0,0.7,0.8,0",""
"","html-keyboard-response","133","49575","0.0-133.0","","","","","null","<img src=""img/animal6.png"" style=""width:200px; border:14px solid green;"">","null","","","","","",""
"","image-keyboard-response","134","49613","0.0-134.0","","","","","36.8000000002794","img/animal1.png","76","37.6999999997206","3","0","3","0.7,0,0.8,0.7,0.8,0,0.7,0.8,0",""
"","html-keyboard-response","135","49919","0.0-135.0","","","","","null","<img src=""img/animal1.png"" style=""width:200px;border:14px solid red;"">","null","","","","","",""
"","image-keyboard-response","136","49958","0.0-136.0","","","","","37.799999999813735","img/animal4.png","76","38.60000000009313","3","0","2","0.7,0,0.8,0.7,0.8,0,0.7,0.8,0",""
"","html-keyboard-response","137","50262","0.0-137.0","","","","","null","<img src=""img/animal4.png"" style=""width:200px;border:14px solid red;"">","null","","","","","",""
"","image-keyboard-response","138","50288","0.0-138.0","","","","","23.700000000186265","img/animal6.png","76","24.699999999720603","3","1","1","0.7,0,0.8,0.7,0.8,0,0.7,0.8,0",""
"","html-keyboard-response","139","50592","0.0-139.0","","","","","null","<img src=""img/animal6.png"" style=""width:200px; border:14px solid green;"">","null","","","","","",""
"","image-keyboard-response","140","50642","0.0-140.0","","","","","48.5","img/animal1.png","76","49.1999999997206","3","0","3","0.7,0,0.8,0.7,0.8,0,0.7,0.8,0",""
"","html-keyboard-response","141","50951","0.0-141.0","","","","","null","<img src=""img/animal1.png"" style=""width:200px;border:14px solid red;"">","null","","","","","",""
"","image-keyboard-response","142","51005","0.0-142.0","","","","","53.700000000186265","img/animal1.png","76","54.39999999990687","3","0","3","0.7,0,0.8,0.7,0.8,0,0.7,0.8,0",""
"","html-keyboard-response","143","51307","0.0-143.0","","","","","null","<img src=""img/animal1.png"" style=""width:200px;border:14px solid red;"">","null","","","","","",""
"","image-keyboard-response","144","51324","0.0-144.0","","","","","16.100000000093132","img/animal6.png","75","16.899999999906868","2","0","1","0.7,0,0.8,0.7,0.8,0,0.7,0.8,0",""
"","html-keyboard-response","145","51629","0.0-145.0","","","","","null","<img src=""img/animal6.png"" style=""width:200px;border:14px solid red;"">","null","","","","","",""
"","image-keyboard-response","146","51758","0.0-146.0","","","","","128.1999999997206","img/animal1.png","75","128.89999999990687","2","1","3","0.7,0,0.8,0.7,0.8,0,0.7,0.8,0",""
"","html-keyboard-response","147","52063","0.0-147.0","","","","","null","<img src=""img/animal1.png"" style=""width:200px; border:14px solid green;"">","null","","","","","",""
"","image-keyboard-response","148","52118","0.0-148.0","","","","","53.89999999990687","img/animal6.png","76","54.700000000186265","3","1","1","0.7,0,0.8,0.7,0.8,0,0.7,0.8,0",""
"","html-keyboard-response","149","52421","0.0-149.0","","","","","null","<img src=""img/animal6.png"" style=""width:200px; border:14px solid green;"">","null","","","","","",""
"","image-keyboard-response","150","52510","0.0-150.0","","","","","87.60000000009313","img/animal1.png","76","88.3000000002794","3","0","3","0.7,0,0.8,0.7,0.8,0,0.7,0.8,0",""
"","html-keyboard-response","151","52815","0.0-151.0","","","","","null","<img src=""img/animal1.png"" style=""width:200px;border:14px solid red;"">","null","","","","","",""
"","image-keyboard-response","152","52821","0.0-152.0","","","","","4.2000000001862645","img/animal4.png","75","5","2","1","2","0.7,0,0.8,0.7,0.8,0,0.7,0.8,0",""
"","html-keyboard-response","153","53123","0.0-153.0","","","","","null","<img src=""img/animal4.png"" style=""width:200px; border:14px solid green;"">","null","","","","","",""
"","image-keyboard-response","154","53158","0.0-154.0","","","","","34.39999999990687","img/animal1.png","76","35","3","0","3","0.7,0,0.8,0.7,0.8,0,0.7,0.8,0",""
"","html-keyboard-response","155","53462","0.0-155.0","","","","","null","<img src=""img/animal1.png"" style=""width:200px;border:14px solid red;"">","null","","","","","",""
"","image-keyboard-response","156","53570","0.0-156.0","","","","","106.89999999990687","img/animal4.png","76","107.5","3","0","2","0.7,0,0.8,0.7,0.8,0,0.7,0.8,0",""
"","html-keyboard-response","157","53873","0.0-157.0","","","","","null","<img src=""img/animal4.png"" style=""width:200px;border:14px solid red;"">","null","","","","","",""
"","image-keyboard-response","158","53893","0.0-158.0","","","","","18.700000000186265","img/animal1.png","75","19.299999999813735","2","0","3","0.7,0,0.8,0.7,0.8,0,0.7,0.8,0",""
"","html-keyboard-response","159","54195","0.0-159.0","","","","","null","<img src=""img/animal1.png"" style=""width:200px;border:14px solid red;"">","null","","","","","",""
"","image-keyboard-response","160","54260","0.0-160.0","","","","","64.6999999997206","img/animal1.png","76","65.20000000018626","3","0","3","0.7,0,0.8,0.7,0.8,0,0.7,0.8,0",""
"","html-keyboard-response","161","54567","0.0-161.0","","","","","null","<img src=""img/animal1.png"" style=""width:200px;border:14px solid red;"">","null","","","","","",""
"","image-keyboard-response","162","54577","0.0-162.0","","","","","9","img/animal1.png","74","9.800000000279397","1","1","3","0.7,0,0.8,0.7,0.8,0,0.7,0.8,0",""
"","html-keyboard-response","163","54886","0.0-163.0","","","","","null","<img src=""img/animal1.png"" style=""width:200px; border:14px solid green;"">","null","","","","","",""
"","image-keyboard-response","164","54922","0.0-164.0","","","","","33.89999999990687","img/animal6.png","74","34.89999999990687","1","1","1","0.7,0,0.8,0.7,0.8,0,0.7,0.8,0",""
"","html-keyboard-response","165","55225","0.0-165.0","","","","","null","<img src=""img/animal6.png"" style=""width:200px; border:14px solid green;"">","null","","","","","",""
"","image-keyboard-response","166","55293","0.0-166.0","","","","","67","img/animal1.png","75","67.70000000018626","2","0","3","0.7,0,0.8,0.7,0.8,0,0.7,0.8,0",""
"","html-keyboard-response","167","55600","0.0-167.0","","","","","null","<img src=""img/animal1.png"" style=""width:200px;border:14px solid red;"">","null","","","","","",""
"","image-keyboard-response","168","55629","0.0-168.0","","","","","28.5","img/animal4.png","75","29.300000000279397","2","1","2","0.7,0,0.8,0.7,0.8,0,0.7,0.8,0",""
"","html-keyboard-response","169","55934","0.0-169.0","","","","","null","<img src=""img/animal4.png"" style=""width:200px; border:14px solid green;"">","null","","","","","",""
"","image-keyboard-response","170","55972","0.0-170.0","","","","","36.799999999813735","img/animal4.png","74","37.60000000009313","1","1","2","0.7,0,0.8,0.7,0.8,0,0.7,0.8,0",""
"","html-keyboard-response","171","56275","0.0-171.0","","","","","null","<img src=""img/animal4.png"" style=""width:200px; border:14px solid green;"">","null","","","","","",""
"","image-keyboard-response","172","56423","0.0-172.0","","","","","147.5","img/animal6.png","76","148.29999999981374","3","1","1","0.7,0,0.8,0.7,0.8,0,0.7,0.8,0",""
"","html-keyboard-response","173","56727","0.0-173.0","","","","","null","<img src=""img/animal6.png"" style=""width:200px; border:14px solid green;"">","null","","","","","",""
"","image-keyboard-response","174","57062","0.0-174.0","","","","","333.3000000002794","img/animal6.png","75","334.1999999997206","2","0","1","0.7,0,0.8,0.7,0.8,0,0.7,0.8,0",""
"","html-keyboard-response","175","57367","0.0-175.0","","","","","null","<img src=""img/animal6.png"" style=""width:200px;border:14px solid red;"">","null","","","","","",""
"","image-keyboard-response","176","57421","0.0-176.0","","","","","52.3000000002794","img/animal4.png","76","53.09999999962747","3","0","2","0.7,0,0.8,0.7,0.8,0,0.7,0.8,0",""
"","html-keyboard-response","177","57724","0.0-177.0","","","","","null","<img src=""img/animal4.png"" style=""width:200px;border:14px solid red;"">","null","","","","","",""
"","image-keyboard-response","178","57756","0.0-178.0","","","","","31.700000000186265","img/animal6.png","74","32.299999999813735","1","1","1","0.7,0,0.8,0.7,0.8,0,0.7,0.8,0",""
"","html-keyboard-response","179","58058","0.0-179.0","","","","","null","<img src=""img/animal6.png"" style=""width:200px; border:14px solid green;"">","null","","","","","",""
"","image-keyboard-response","180","58128","0.0-180.0","","","","","68.70000000018626","img/animal6.png","76","69.39999999990687","3","1","1","0.7,0,0.8,0.7,0.8,0,0.7,0.8,0",""
"","html-keyboard-response","181","58431","0.0-181.0","","","","","null","<img src=""img/animal6.png"" style=""width:200px; border:14px solid green;"">","null","","","","","",""
"","html-keyboard-response","182","60698","0.0-182.0","","","","","","","","","","","","",""
"","image-keyboard-response","183","61205","0.0-183.0","","","","","506","img/animal2.png","76","506.90000000037253","3","1","1","0.5,0,1,1,0.5,0,0,1,0.5",""
"","html-keyboard-response","184","61508","0.0-184.0","","","","","null","<img src=""img/animal2.png"" style=""width:200px; border:14px solid green;"">","null","","","","","",""
"","image-keyboard-response","185","61611","0.0-185.0","","","","","101.39999999990687","img/animal3.png","74","102.10000000009313","1","1","2","0.5,0,1,1,0.5,0,0,1,0.5",""
"","html-keyboard-response","186","61920","0.0-186.0","","","","","null","<img src=""img/animal3.png"" style=""width:200px; border:14px solid green;"">","null","","","","","",""
"","image-keyboard-response","187","62000","0.0-187.0","","","","","80","img/animal2.png","75","80.70000000018626","2","0","1","0.5,0,1,1,0.5,0,0,1,0.5",""
"","html-keyboard-response","188","62303","0.0-188.0","","","","","null","<img src=""img/animal2.png"" style=""width:200px;border:14px solid red;"">","null","","","","","",""
"","image-keyboard-response","189","62524","0.0-189.0","","","","","220.10000000009313","img/animal5.png","74","221","1","0","3","0.5,0,1,1,0.5,0,0,1,0.5",""
"","html-keyboard-response","190","62831","0.0-190.0","","","","","null","<img src=""img/animal5.png"" style=""width:200px;border:14px solid red;"">","null","","","","","",""
"","image-keyboard-response","191","62864","0.0-191.0","","","","","32.6999999997206","img/animal2.png","75","33.5","2","0","1","0.5,0,1,1,0.5,0,0,1,0.5",""
"","html-keyboard-response","192","63167","0.0-192.0","","","","","null","<img src=""img/animal2.png"" style=""width:200px;border:14px solid red;"">","null","","","","","",""
"","image-keyboard-response","193","63564","0.0-193.0","","","","","396.09999999962747","img/animal5.png","74","397","1","0","3","0.5,0,1,1,0.5,0,0,1,0.5",""
"","html-keyboard-response","194","63871","0.0-194.0","","","","","null","<img src=""img/animal5.png"" style=""width:200px;border:14px solid red;"">","null","","","","","",""
"","image-keyboard-response","195","64523","0.0-195.0","","","","","650.3000000002794","img/animal2.png","76","651","3","1","1","0.5,0,1,1,0.5,0,0,1,0.5",""
"","html-keyboard-response","196","64825","0.0-196.0","","","","","null","<img src=""img/animal2.png"" style=""width:200px; border:14px solid green;"">","null","","","","","",""
"","image-keyboard-response","197","65146","0.0-197.0","","","","","319.89999999990687","img/animal3.png","76","320.6999999997206","3","0","2","0.5,0,1,1,0.5,0,0,1,0.5",""
"","html-keyboard-response","198","65455","0.0-198.0","","","","","null","<img src=""img/animal3.png"" style=""width:200px;border:14px solid red;"">","null","","","","","",""
"","image-keyboard-response","199","65614","0.0-199.0","","","","","157.60000000009313","img/animal5.png","75","158.39999999990687","2","1","3","0.5,0,1,1,0.5,0,0,1,0.5",""
"","html-keyboard-response","200","65919","0.0-200.0","","","","","null","<img src=""img/animal5.png"" style=""width:200px; border:14px solid green;"">","null","","","","","",""
"","image-keyboard-response","201","66380","0.0-201.0","","","","","459.3000000002794","img/animal3.png","75","460","2","0","2","0.5,0,1,1,0.5,0,0,1,0.5",""
"","html-keyboard-response","202","66688","0.0-202.0","","","","","null","<img src=""img/animal3.png"" style=""width:200px;border:14px solid red;"">","null","","","","","",""
"","image-keyboard-response","203","66959","0.0-203.0","","","","","270.20000000018626","img/animal3.png","74","270.8000000002794","1","1","2","0.5,0,1,1,0.5,0,0,1,0.5",""
"","html-keyboard-response","204","67263","0.0-204.0","","","","","null","<img src=""img/animal3.png"" style=""width:200px; border:14px solid green;"">","null","","","","","",""
"","image-keyboard-response","205","67576","0.0-205.0","","","","","311.60000000009313","img/animal3.png","74","312.60000000009313","1","1","2","0.5,0,1,1,0.5,0,0,1,0.5",""
"","html-keyboard-response","206","67879","0.0-206.0","","","","","null","<img src=""img/animal3.png"" style=""width:200px; border:14px solid green;"">","null","","","","","",""
"","image-keyboard-response","207","68138","0.0-207.0","","","","","257.60000000009313","img/animal2.png","76","258.40000000037253","3","1","1","0.5,0,1,1,0.5,0,0,1,0.5",""
"","html-keyboard-response","208","68442","0.0-208.0","","","","","null","<img src=""img/animal2.png"" style=""width:200px; border:14px solid green;"">","null","","","","","",""
"","image-keyboard-response","209","68816","0.0-209.0","","","","","371.29999999981374","img/animal5.png","76","372.10000000009313","3","1","3","0.5,0,1,1,0.5,0,0,1,0.5",""
"","html-keyboard-response","210","69120","0.0-210.0","","","","","null","<img src=""img/animal5.png"" style=""width:200px; border:14px solid green;"">","null","","","","","",""
"","image-keyboard-response","211","69208","0.0-211.0","","","","","86.3000000002794","img/animal2.png","76","86.90000000037253","3","1","1","0.5,0,1,1,0.5,0,0,1,0.5",""
"","html-keyboard-response","212","69512","0.0-212.0","","","","","null","<img src=""img/animal2.png"" style=""width:200px; border:14px solid green;"">","null","","","","","",""
"","image-keyboard-response","213","69892","0.0-213.0","","","","","379.39999999990687","img/animal2.png","76","380.20000000018626","3","1","1","0.5,0,1,1,0.5,0,0,1,0.5",""
"","html-keyboard-response","214","70199","0.0-214.0","","","","","null","<img src=""img/animal2.png"" style=""width:200px; border:14px solid green;"">","null","","","","","",""
"","image-keyboard-response","215","70354","0.0-215.0","","","","","153.89999999990687","img/animal3.png","76","154.8000000002794","3","0","2","0.5,0,1,1,0.5,0,0,1,0.5",""
"","html-keyboard-response","216","70659","0.0-216.0","","","","","null","<img src=""img/animal3.png"" style=""width:200px;border:14px solid red;"">","null","","","","","",""
"","image-keyboard-response","217","70830","0.0-217.0","","","","","170.5","img/animal5.png","76","171.20000000018626","3","1","3","0.5,0,1,1,0.5,0,0,1,0.5",""
"","html-keyboard-response","218","71135","0.0-218.0","","","","","null","<img src=""img/animal5.png"" style=""width:200px; border:14px solid green;"">","null","","","","","",""
"","image-keyboard-response","219","71399","0.0-219.0","","","","","262.89999999990687","img/animal2.png","74","263.59999999962747","1","1","1","0.5,0,1,1,0.5,0,0,1,0.5",""
"","html-keyboard-response","220","71704","0.0-220.0","","","","","null","<img src=""img/animal2.png"" style=""width:200px; border:14px solid green;"">","null","","","","","",""
"","image-keyboard-response","221","72113","0.0-221.0","","","","","408.39999999990687","img/animal3.png","74","409.29999999981374","1","1","2","0.5,0,1,1,0.5,0,0,1,0.5",""
"","html-keyboard-response","222","72423","0.0-222.0","","","","","null","<img src=""img/animal3.png"" style=""width:200px; border:14px solid green;"">","null","","","","","",""
"","image-keyboard-response","223","72511","0.0-223.0","","","","","86.6999999997206","img/animal2.png","74","87.29999999981374","1","0","1","0.5,0,1,1,0.5,0,0,1,0.5",""
"","html-keyboard-response","224","72816","0.0-224.0","","","","","null","<img src=""img/animal2.png"" style=""width:200px;border:14px solid red;"">","null","","","","","",""
"","image-keyboard-response","225","73145","0.0-225.0","","","","","328.10000000009313","img/animal2.png","75","329","2","0","1","0.5,0,1,1,0.5,0,0,1,0.5",""
"","html-keyboard-response","226","73456","0.0-226.0","","","","","null","<img src=""img/animal2.png"" style=""width:200px;border:14px solid red;"">","null","","","","","",""
"","image-keyboard-response","227","73561","0.0-227.0","","","","","103.6999999997206","img/animal5.png","76","104.60000000009313","3","0","3","0.5,0,1,1,0.5,0,0,1,0.5",""
"","html-keyboard-response","228","73863","0.0-228.0","","","","","null","<img src=""img/animal5.png"" style=""width:200px;border:14px solid red;"">","null","","","","","",""
"","image-keyboard-response","229","74071","0.0-229.0","","","","","206.29999999981374","img/animal3.png","75","207.1999999997206","2","1","2","0.5,0,1,1,0.5,0,0,1,0.5",""
"","html-keyboard-response","230","74376","0.0-230.0","","","","","null","<img src=""img/animal3.png"" style=""width:200px; border:14px solid green;"">","null","","","","","",""
"","image-keyboard-response","231","74558","0.0-231.0","","","","","180.60000000009313","img/animal5.png","75","181.39999999990687","2","1","3","0.5,0,1,1,0.5,0,0,1,0.5",""
"","html-keyboard-response","232","74860","0.0-232.0","","","","","null","<img src=""img/animal5.png"" style=""width:200px; border:14px solid green;"">","null","","","","","",""
"","image-keyboard-response","233","75148","0.0-233.0","","","","","286.39999999990687","img/animal3.png","74","287.1999999997206","1","1","2","0.5,0,1,1,0.5,0,0,1,0.5",""
"","html-keyboard-response","234","75455","0.0-234.0","","","","","null","<img src=""img/animal3.png"" style=""width:200px; border:14px solid green;"">","null","","","","","",""
"","image-keyboard-response","235","75577","0.0-235.0","","","","","121.3000000002794","img/animal2.png","76","122.09999999962747","3","1","1","0.5,0,1,1,0.5,0,0,1,0.5",""
"","html-keyboard-response","236","75888","0.0-236.0","","","","","null","<img src=""img/animal2.png"" style=""width:200px; border:14px solid green;"">","null","","","","","",""
"","image-keyboard-response","237","76182","0.0-237.0","","","","","292.5","img/animal3.png","74","293.5","1","1","2","0.5,0,1,1,0.5,0,0,1,0.5",""
"","html-keyboard-response","238","76488","0.0-238.0","","","","","null","<img src=""img/animal3.png"" style=""width:200px; border:14px solid green;"">","null","","","","","",""
"","image-keyboard-response","239","76515","0.0-239.0","","","","","26.100000000093132","img/animal2.png","74","27","1","1","1","0.5,0,1,1,0.5,0,0,1,0.5",""
"","html-keyboard-response","240","76824","0.0-240.0","","","","","null","<img src=""img/animal2.png"" style=""width:200px; border:14px solid green;"">","null","","","","","",""
"","image-keyboard-response","241","76929","0.0-241.0","","","","","103.3000000002794","img/animal2.png","74","104.09999999962747","1","0","1","0.5,0,1,1,0.5,0,0,1,0.5",""
"","html-keyboard-response","242","77232","0.0-242.0","","","","","null","<img src=""img/animal2.png"" style=""width:200px;border:14px solid red;"">","null","","","","","",""
"","image-keyboard-response","243","78039","0.0-243.0","","","","","805.3999999999069","img/animal3.png","74","806.2000000001863","1","1","2","0.5,0,1,1,0.5,0,0,1,0.5",""
"","html-keyboard-response","244","78343","0.0-244.0","","","","","null","<img src=""img/animal3.png"" style=""width:200px; border:14px solid green;"">","null","","","","","",""
"","image-keyboard-response","245","78510","0.0-245.0","","","","","165.5","img/animal3.png","74","166.20000000018626","1","1","2","0.5,0,1,1,0.5,0,0,1,0.5",""
"","html-keyboard-response","246","78816","0.0-246.0","","","","","null","<img src=""img/animal3.png"" style=""width:200px; border:14px solid green;"">","null","","","","","",""
"","image-keyboard-response","247","78904","0.0-247.0","","","","","86.1999999997206","img/animal3.png","74","87","1","1","2","0.5,0,1,1,0.5,0,0,1,0.5",""
"","html-keyboard-response","248","79207","0.0-248.0","","","","","null","<img src=""img/animal3.png"" style=""width:200px; border:14px solid green;"">","null","","","","","",""
"","image-keyboard-response","249","79243","0.0-249.0","","","","","34.5","img/animal2.png","75","35.5","2","0","1","0.5,0,1,1,0.5,0,0,1,0.5",""
"","html-keyboard-response","250","79551","0.0-250.0","","","","","null","<img src=""img/animal2.png"" style=""width:200px;border:14px solid red;"">","null","","","","","",""
"","image-keyboard-response","251","79574","0.0-251.0","","","","","22.399999999906868","img/animal3.png","76","23.100000000093132","3","0","2","0.5,0,1,1,0.5,0,0,1,0.5",""
"","html-keyboard-response","252","79875","0.0-252.0","","","","","null","<img src=""img/animal3.png"" style=""width:200px;border:14px solid red;"">","null","","","","","",""
"","image-keyboard-response","253","79899","0.0-253.0","","","","","22.100000000093132","img/animal5.png","74","22.899999999906868","1","0","3","0.5,0,1,1,0.5,0,0,1,0.5",""
"","html-keyboard-response","254","80207","0.0-254.0","","","","","null","<img src=""img/animal5.png"" style=""width:200px;border:14px solid red;"">","null","","","","","",""
"","image-keyboard-response","255","80233","0.0-255.0","","","","","24.700000000186265","img/animal5.png","75","25.399999999906868","2","1","3","0.5,0,1,1,0.5,0,0,1,0.5",""
"","html-keyboard-response","256","80536","0.0-256.0","","","","","null","<img src=""img/animal5.png"" style=""width:200px; border:14px solid green;"">","null","","","","","",""
"","image-keyboard-response","257","80562","0.0-257.0","","","","","24.200000000186265","img/animal3.png","76","25","3","0","2","0.5,0,1,1,0.5,0,0,1,0.5",""
"","html-keyboard-response","258","80871","0.0-258.0","","","","","null","<img src=""img/animal3.png"" style=""width:200px;border:14px solid red;"">","null","","","","","",""
"","image-keyboard-response","259","80947","0.0-259.0","","","","","74.10000000009313","img/animal3.png","76","75.90000000037253","3","0","2","0.5,0,1,1,0.5,0,0,1,0.5",""
"","html-keyboard-response","260","81256","0.0-260.0","","","","","null","<img src=""img/animal3.png"" style=""width:200px;border:14px solid red;"">","null","","","","","",""
"","image-keyboard-response","261","81517","0.0-261.0","","","","","260.39999999990687","img/animal2.png","76","261","3","1","1","0.5,0,1,1,0.5,0,0,1,0.5",""
"","html-keyboard-response","262","81824","0.0-262.0","","","","","null","<img src=""img/animal2.png"" style=""width:200px; border:14px solid green;"">","null","","","","","",""
"","image-keyboard-response","263","81836","0.0-263.0","","","","","10","img/animal5.png","76","10.799999999813735","3","0","3","0.5,0,1,1,0.5,0,0,1,0.5",""
"","html-keyboard-response","264","82143","0.0-264.0","","","","","null","<img src=""img/animal5.png"" style=""width:200px;border:14px solid red;"">","null","","","","","",""
"","image-keyboard-response","265","82497","0.0-265.0","","","","","353.39999999990687","img/animal2.png","74","354.09999999962747","1","1","1","0.5,0,1,1,0.5,0,0,1,0.5",""
"","html-keyboard-response","266","82807","0.0-266.0","","","","","null","<img src=""img/animal2.png"" style=""width:200px; border:14px solid green;"">","null","","","","","",""
"","image-keyboard-response","267","82808","0.0-267.0","","","","","0","img/animal3.png","76","0.7999999998137355","3","0","2","0.5,0,1,1,0.5,0,0,1,0.5",""
"","html-keyboard-response","268","83109","0.0-268.0","","","","","null","<img src=""img/animal3.png"" style=""width:200px;border:14px solid red;"">","null","","","","","",""
"","image-keyboard-response","269","83597","0.0-269.0","","","","","486.70000000018626","img/animal3.png","75","487.20000000018626","2","1","2","0.5,0,1,1,0.5,0,0,1,0.5",""
"","html-keyboard-response","270","83903","0.0-270.0","","","","","null","<img src=""img/animal3.png"" style=""width:200px; border:14px solid green;"">","null","","","","","",""
"","image-keyboard-response","271","84009","0.0-271.0","","","","","104.60000000009313","img/animal3.png","74","105.5","1","1","2","0.5,0,1,1,0.5,0,0,1,0.5",""
"","html-keyboard-response","272","84319","0.0-272.0","","","","","null","<img src=""img/animal3.png"" style=""width:200px; border:14px solid green;"">","null","","","","","",""
"","image-keyboard-response","273","84616","0.0-273.0","","","","","295.3000000002794","img/animal5.png","76","296.09999999962747","3","1","3","0.5,0,1,1,0.5,0,0,1,0.5",""
"","html-keyboard-response","274","84919","0.0-274.0","","","","","null","<img src=""img/animal5.png"" style=""width:200px; border:14px solid green;"">","null","","","","","",""
"","image-keyboard-response","275","85102","0.0-275.0","","","","","181.40000000037253","img/animal5.png","76","182.1999999997206","3","1","3","0.5,0,1,1,0.5,0,0,1,0.5",""
"","html-keyboard-response","276","85407","0.0-276.0","","","","","null","<img src=""img/animal5.png"" style=""width:200px; border:14px solid green;"">","null","","","","","",""
"","image-keyboard-response","277","85435","0.0-277.0","","","","","26.100000000093132","img/animal3.png","76","26.90000000037253","3","0","2","0.5,0,1,1,0.5,0,0,1,0.5",""
"","html-keyboard-response","278","85740","0.0-278.0","","","","","null","<img src=""img/animal3.png"" style=""width:200px;border:14px solid red;"">","null","","","","","",""
"","image-keyboard-response","279","86188","0.0-279.0","","","","","446.89999999990687","img/animal2.png","76","447.5","3","1","1","0.5,0,1,1,0.5,0,0,1,0.5",""
"","html-keyboard-response","280","86493","0.0-280.0","","","","","null","<img src=""img/animal2.png"" style=""width:200px; border:14px solid green;"">","null","","","","","",""
"","image-keyboard-response","281","86748","0.0-281.0","","","","","253.39999999990687","img/animal2.png","76","254","3","1","1","0.5,0,1,1,0.5,0,0,1,0.5",""
"","html-keyboard-response","282","87056","0.0-282.0","","","","","null","<img src=""img/animal2.png"" style=""width:200px; border:14px solid green;"">","null","","","","","",""
"","image-keyboard-response","283","87220","0.0-283.0","","","","","162.40000000037253","img/animal5.png","74","163.29999999981374","1","0","3","0.5,0,1,1,0.5,0,0,1,0.5",""
"","html-keyboard-response","284","87526","0.0-284.0","","","","","null","<img src=""img/animal5.png"" style=""width:200px;border:14px solid red;"">","null","","","","","",""
"","image-keyboard-response","285","87593","0.0-285.0","","","","","65.89999999990687","img/animal2.png","76","66.70000000018626","3","1","1","0.5,0,1,1,0.5,0,0,1,0.5",""
"","html-keyboard-response","286","87895","0.0-286.0","","","","","null","<img src=""img/animal2.png"" style=""width:200px; border:14px solid green;"">","null","","","","","",""
"","image-keyboard-response","287","87977","0.0-287.0","","","","","80.20000000018626","img/animal5.png","74","81.1999999997206","1","0","3","0.5,0,1,1,0.5,0,0,1,0.5",""
"","html-keyboard-response","288","88280","0.0-288.0","","","","","null","<img src=""img/animal5.png"" style=""width:200px;border:14px solid red;"">","null","","","","","",""
"","image-keyboard-response","289","88326","0.0-289.0","","","","","44.700000000186265","img/animal3.png","75","45.59999999962747","2","0","2","0.5,0,1,1,0.5,0,0,1,0.5",""
"","html-keyboard-response","290","88632","0.0-290.0","","","","","null","<img src=""img/animal3.png"" style=""width:200px;border:14px solid red;"">","null","","","","","",""
"","image-keyboard-response","291","88684","0.0-291.0","","","","","50.5","img/animal2.png","74","51.40000000037253","1","0","1","0.5,0,1,1,0.5,0,0,1,0.5",""
"","html-keyboard-response","292","88991","0.0-292.0","","","","","null","<img src=""img/animal2.png"" style=""width:200px;border:14px solid red;"">","null","","","","","",""
"","image-keyboard-response","293","89037","0.0-293.0","","","","","44.299999999813735","img/animal5.png","75","45.10000000009313","2","1","3","0.5,0,1,1,0.5,0,0,1,0.5",""
"","html-keyboard-response","294","89342","0.0-294.0","","","","","null","<img src=""img/animal5.png"" style=""width:200px; border:14px solid green;"">","null","","","","","",""
"","image-keyboard-response","295","89696","0.0-295.0","","","","","353.39999999990687","img/animal3.png","76","354.3000000002794","3","0","2","0.5,0,1,1,0.5,0,0,1,0.5",""
"","html-keyboard-response","296","89999","0.0-296.0","","","","","null","<img src=""img/animal3.png"" style=""width:200px;border:14px solid red;"">","null","","","","","",""
"","image-keyboard-response","297","90060","0.0-297.0","","","","","60.200000000186265","img/animal5.png","74","61.10000000009313","1","0","3","0.5,0,1,1,0.5,0,0,1,0.5",""
"","html-keyboard-response","298","90368","0.0-298.0","","","","","null","<img src=""img/animal5.png"" style=""width:200px;border:14px solid red;"">","null","","","","","",""
"","image-keyboard-response","299","90397","0.0-299.0","","","","","27.5","img/animal5.png","74","28.399999999906868","1","0","3","0.5,0,1,1,0.5,0,0,1,0.5",""
"","html-keyboard-response","300","90703","0.0-300.0","","","","","null","<img src=""img/animal5.png"" style=""width:200px;border:14px solid red;"">","null","","","","","",""
"","image-keyboard-response","301","90728","0.0-301.0","","","","","23.90000000037253","img/animal3.png","75","24.699999999720603","2","0","2","0.5,0,1,1,0.5,0,0,1,0.5",""
"","html-keyboard-response","302","91031","0.0-302.0","","","","","null","<img src=""img/animal3.png"" style=""width:200px;border:14px solid red;"">","null","","","","","",""
"","image-keyboard-response","303","91045","0.0-303.0","","","","","12.600000000093132","img/animal3.png","76","13.599999999627471","3","0","2","0.5,0,1,1,0.5,0,0,1,0.5",""
"","html-keyboard-response","304","91351","0.0-304.0","","","","","null","<img src=""img/animal3.png"" style=""width:200px;border:14px solid red;"">","null","","","","","",""
"","image-keyboard-response","305","91553","0.0-305.0","","","","","201","img/animal5.png","76","201.79999999981374","3","1","3","0.5,0,1,1,0.5,0,0,1,0.5",""
"","html-keyboard-response","306","91856","0.0-306.0","","","","","null","<img src=""img/animal5.png"" style=""width:200px; border:14px solid green;"">","null","","","","","",""
"","image-keyboard-response","307","91958","0.0-307.0","","","","","101.29999999981374","img/animal2.png","76","102.20000000018626","3","1","1","0.5,0,1,1,0.5,0,0,1,0.5",""
"","html-keyboard-response","308","92264","0.0-308.0","","","","","null","<img src=""img/animal2.png"" style=""width:200px; border:14px solid green;"">","null","","","","","",""
"","image-keyboard-response","309","92439","0.0-309.0","","","","","173.6999999997206","img/animal5.png","76","174.70000000018626","3","0","3","0.5,0,1,1,0.5,0,0,1,0.5",""
"","html-keyboard-response","310","92743","0.0-310.0","","","","","null","<img src=""img/animal5.png"" style=""width:200px;border:14px solid red;"">","null","","","","","",""
"","image-keyboard-response","311","93172","0.0-311.0","","","","","428.29999999981374","img/animal5.png","76","429.10000000009313","3","1","3","0.5,0,1,1,0.5,0,0,1,0.5",""
"","html-keyboard-response","312","93475","0.0-312.0","","","","","null","<img src=""img/animal5.png"" style=""width:200px; border:14px solid green;"">","null","","","","","",""
"","image-keyboard-response","313","93593","0.0-313.0","","","","","117","img/animal3.png","74","117.79999999981374","1","1","2","0.5,0,1,1,0.5,0,0,1,0.5",""
"","html-keyboard-response","314","93895","0.0-314.0","","","","","null","<img src=""img/animal3.png"" style=""width:200px; border:14px solid green;"">","null","","","","","",""
"","image-keyboard-response","315","94174","0.0-315.0","","","","","277.29999999981374","img/animal5.png","74","278.1999999997206","1","0","3","0.5,0,1,1,0.5,0,0,1,0.5",""
"","html-keyboard-response","316","94476","0.0-316.0","","","","","null","<img src=""img/animal5.png"" style=""width:200px;border:14px solid red;"">","null","","","","","",""
"","image-keyboard-response","317","94632","0.0-317.0","","","","","154.70000000018626","img/animal3.png","76","155.29999999981374","3","0","2","0.5,0,1,1,0.5,0,0,1,0.5",""
"","html-keyboard-response","318","94936","0.0-318.0","","","","","null","<img src=""img/animal3.png"" style=""width:200px;border:14px solid red;"">","null","","","","","",""
"","image-keyboard-response","319","95189","0.0-319.0","","","","","251.79999999981374","img/animal2.png","76","252.70000000018626","3","1","1","0.5,0,1,1,0.5,0,0,1,0.5",""
"","html-keyboard-response","320","95493","0.0-320.0","","","","","null","<img src=""img/animal2.png"" style=""width:200px; border:14px solid green;"">","null","","","","","",""
"","image-keyboard-response","321","95724","0.0-321.0","","","","","230.5","img/animal2.png","74","231.29999999981374","1","1","1","0.5,0,1,1,0.5,0,0,1,0.5",""
"","html-keyboard-response","322","96026","0.0-322.0","","","","","null","<img src=""img/animal2.png"" style=""width:200px; border:14px solid green;"">","null","","","","","",""
"","image-keyboard-response","323","96182","0.0-323.0","","","","","154.90000000037253","img/animal5.png","76","155.6999999997206","3","0","3","0.5,0,1,1,0.5,0,0,1,0.5",""
"","html-keyboard-response","324","96488","0.0-324.0","","","","","null","<img src=""img/animal5.png"" style=""width:200px;border:14px solid red;"">","null","","","","","",""
"","image-keyboard-response","325","96517","0.0-325.0","","","","","27.600000000093132","img/animal2.png","74","28.300000000279397","1","1","1","0.5,0,1,1,0.5,0,0,1,0.5",""
"","html-keyboard-response","326","96824","0.0-326.0","","","","","null","<img src=""img/animal2.png"" style=""width:200px; border:14px solid green;"">","null","","","","","",""
"","image-keyboard-response","327","96859","0.0-327.0","","","","","34.39999999990687","img/animal3.png","76","35.10000000009313","3","0","2","0.5,0,1,1,0.5,0,0,1,0.5",""
"","html-keyboard-response","328","97161","0.0-328.0","","","","","null","<img src=""img/animal3.png"" style=""width:200px;border:14px solid red;"">","null","","","","","",""
"","image-keyboard-response","329","97204","0.0-329.0","","","","","42.39999999990687","img/animal3.png","74","43.299999999813735","1","1","2","0.5,0,1,1,0.5,0,0,1,0.5",""
"","html-keyboard-response","330","97508","0.0-330.0","","","","","null","<img src=""img/animal3.png"" style=""width:200px; border:14px solid green;"">","null","","","","","",""
"","image-keyboard-response","331","97511","0.0-331.0","","","","","2.2000000001862645","img/animal5.png","76","2.8000000002793968","3","1","3","0.5,0,1,1,0.5,0,0,1,0.5",""
"","html-keyboard-response","332","97816","0.0-332.0","","","","","null","<img src=""img/animal5.png"" style=""width:200px; border:14px solid green;"">","null","","","","","",""
"","image-keyboard-response","333","97839","0.0-333.0","","","","","21.799999999813735","img/animal5.png","75","22.600000000093132","2","1","3","0.5,0,1,1,0.5,0,0,1,0.5",""
"","html-keyboard-response","334","98143","0.0-334.0","","","","","null","<img src=""img/animal5.png"" style=""width:200px; border:14px solid green;"">","null","","","","","",""
"","image-keyboard-response","335","98405","0.0-335.0","","","","","261","img/animal5.png","74","261.8000000002794","1","0","3","0.5,0,1,1,0.5,0,0,1,0.5",""
"","html-keyboard-response","336","98709","0.0-336.0","","","","","null","<img src=""img/animal5.png"" style=""width:200px;border:14px solid red;"">","null","","","","","",""
"","image-keyboard-response","337","99040","0.0-337.0","","","","","329.09999999962747","img/animal3.png","75","329.89999999990687","2","0","2","0.5,0,1,1,0.5,0,0,1,0.5",""
"","html-keyboard-response","338","99341","0.0-338.0","","","","","null","<img src=""img/animal3.png"" style=""width:200px;border:14px solid red;"">","null","","","","","",""
"","image-keyboard-response","339","100035","0.0-339.0","","","","","692.7999999998137","img/animal5.png","74","693.3999999999069","1","0","3","0.5,0,1,1,0.5,0,0,1,0.5",""
"","html-keyboard-response","340","100343","0.0-340.0","","","","","null","<img src=""img/animal5.png"" style=""width:200px;border:14px solid red;"">","null","","","","","",""
"","image-keyboard-response","341","100585","0.0-341.0","","","","","240.8000000002794","img/animal2.png","74","241.5","1","1","1","0.5,0,1,1,0.5,0,0,1,0.5",""
"","html-keyboard-response","342","100887","0.0-342.0","","","","","null","<img src=""img/animal2.png"" style=""width:200px; border:14px solid green;"">","null","","","","","",""
"","image-keyboard-response","343","101046","0.0-343.0","","","","","157","img/animal5.png","75","157.89999999990687","2","1","3","0.5,0,1,1,0.5,0,0,1,0.5",""
"","html-keyboard-response","344","101351","0.0-344.0","","","","","null","<img src=""img/animal5.png"" style=""width:200px; border:14px solid green;"">","null","","","","","",""
"","image-keyboard-response","345","101394","0.0-345.0","","","","","41.700000000186265","img/animal2.png","75","42.39999999990687","2","0","1","0.5,0,1,1,0.5,0,0,1,0.5",""
"","html-keyboard-response","346","101704","0.0-346.0","","","","","null","<img src=""img/animal2.png"" style=""width:200px;border:14px solid red;"">","null","","","","","",""
"","image-keyboard-response","347","101827","0.0-347.0","","","","","121.29999999981374","img/animal2.png","75","122.20000000018626","2","0","1","0.5,0,1,1,0.5,0,0,1,0.5",""
"","html-keyboard-response","348","102137","0.0-348.0","","","","","null","<img src=""img/animal2.png"" style=""width:200px;border:14px solid red;"">","null","","","","","",""
"","image-keyboard-response","349","102224","0.0-349.0","","","","","86.29999999981374","img/animal2.png","75","87.10000000009313","2","0","1","0.5,0,1,1,0.5,0,0,1,0.5",""
"","html-keyboard-response","350","102528","0.0-350.0","","","","","null","<img src=""img/animal2.png"" style=""width:200px;border:14px solid red;"">","null","","","","","",""
"","image-keyboard-response","351","102906","0.0-351.0","","","","","377.09999999962747","img/animal2.png","76","377.79999999981374","3","1","1","0.5,0,1,1,0.5,0,0,1,0.5",""
"","html-keyboard-response","352","103208","0.0-352.0","","","","","null","<img src=""img/animal2.png"" style=""width:200px; border:14px solid green;"">","null","","","","","",""
"","image-keyboard-response","353","103233","0.0-353.0","","","","","24.100000000093132","img/animal2.png","76","25","3","1","1","0.5,0,1,1,0.5,0,0,1,0.5",""
"","html-keyboard-response","354","103537","0.0-354.0","","","","","null","<img src=""img/animal2.png"" style=""width:200px; border:14px solid green;"">","null","","","","","",""
"","image-keyboard-response","355","103557","0.0-355.0","","","","","19","img/animal5.png","76","19.799999999813735","3","0","3","0.5,0,1,1,0.5,0,0,1,0.5",""
"","html-keyboard-response","356","103864","0.0-356.0","","","","","null","<img src=""img/animal5.png"" style=""width:200px;border:14px solid red;"">","null","","","","","",""
"","image-keyboard-response","357","104015","0.0-357.0","","","","","149.79999999981374","img/animal3.png","75","150.79999999981374","2","0","2","0.5,0,1,1,0.5,0,0,1,0.5",""
"","html-keyboard-response","358","104321","0.0-358.0","","","","","null","<img src=""img/animal3.png"" style=""width:200px;border:14px solid red;"">","null","","","","","",""
"","image-keyboard-response","359","104351","0.0-359.0","","","","","28.800000000279397","img/animal5.png","76","29.5","3","0","3","0.5,0,1,1,0.5,0,0,1,0.5",""
"","html-keyboard-response","360","104656","0.0-360.0","","","","","null","<img src=""img/animal5.png"" style=""width:200px;border:14px solid red;"">","null","","","","","",""
"","image-keyboard-response","361","108027","0.0-361.0","","","","","3369.2000000001863","img/animal5.png","75","3370.1999999997206","2","1","3","0.5,0,1,1,0.5,0,0,1,0.5",""
"","html-keyboard-response","362","108336","0.0-362.0","","","","","null","<img src=""img/animal5.png"" style=""width:200px; border:14px solid green;"">","null","","","","","",""
"","instructions","363","143300","0.0-363.0","","","","[{""page_index"":0,""viewing_time"":34961.799999999814}]","34962.09999999963","","","","","","","",""
"","survey-text","364","145517","0.0-364.0","","","","","2214.399999999907","","","","","","","","{""Q0"":""test""}"
