"success","trial_type","trial_index","time_elapsed","internal_node_id","assignmentID","mturkID","hitID","view_history","rt","stimulus","key_press","reactionTime","a","r","s","cond","reward_cond","reward_cond_actual","reward_matrix_idx","responses","question_order"
"true","fullscreen","0","3878","0.0-0.0","3OF2M9AATHAAT2U562RSEB76YAAKZE","AKJLAFX2M86TP","3YO4AH2FPD6XG0OGOBTVFFK58DY0QT","","","","","","","","","","","","","",""
"","instructions","1","20502","0.0-1.0","3OF2M9AATHAAT2U562RSEB76YAAKZE","AKJLAFX2M86TP","3YO4AH2FPD6XG0OGOBTVFFK58DY0QT","[{""page_index"":0,""viewing_time"":4313},{""page_index"":1,""viewing_time"":1418},{""page_index"":2,""viewing_time"":880},{""page_index"":3,""viewing_time"":1543},{""page_index"":4,""viewing_time"":3600},{""page_index"":5,""viewing_time"":3584},{""page_index"":6,""viewing_time"":1278}]","16618","","","","","","","","","","","",""
"","image-keyboard-response","2","22006","0.0-2.0","3OF2M9AATHAAT2U562RSEB76YAAKZE","AKJLAFX2M86TP","3YO4AH2FPD6XG0OGOBTVFFK58DY0QT","","","img/land2.png","","1506","-1","0","2","2","1,0.7,0.7,0.7,1,0.7,0.7,0.7,1","1,0.7,0.7,0.7,1,0.7,0.7,0.7,1","","",""
"","html-keyboard-response","3","22312","0.0-3.0","3OF2M9AATHAAT2U562RSEB76YAAKZE","AKJLAFX2M86TP","3YO4AH2FPD6XG0OGOBTVFFK58DY0QT","","null","<img src=""img/land2.png"" style=""width:200px;border:14px solid red;"">","null","","","","","","","","","",""
"","image-keyboard-response","4","23816","0.0-4.0","3OF2M9AATHAAT2U562RSEB76YAAKZE","AKJLAFX2M86TP","3YO4AH2FPD6XG0OGOBTVFFK58DY0QT","","","img/land3.png","","1503","-1","0","3","2","1,0.7,0.7,0.7,1,0.7,0.7,0.7,1","1,0.7,0.7,0.7,1,0.7,0.7,0.7,1","","",""
"","html-keyboard-response","5","24120","0.0-5.0","3OF2M9AATHAAT2U562RSEB76YAAKZE","AKJLAFX2M86TP","3YO4AH2FPD6XG0OGOBTVFFK58DY0QT","","null","<img src=""img/land3.png"" style=""width:200px;border:14px solid red;"">","null","","","","","","","","","",""
"","image-keyboard-response","6","25622","0.0-6.0","3OF2M9AATHAAT2U562RSEB76YAAKZE","AKJLAFX2M86TP","3YO4AH2FPD6XG0OGOBTVFFK58DY0QT","","","img/land1.png","","1502","-1","0","1","2","1,0.7,0.7,0.7,1,0.7,0.7,0.7,1","1,0.7,0.7,0.7,1,0.7,0.7,0.7,1","","",""
"","html-keyboard-response","7","25924","0.0-7.0","3OF2M9AATHAAT2U562RSEB76YAAKZE","AKJLAFX2M86TP","3YO4AH2FPD6XG0OGOBTVFFK58DY0QT","","null","<img src=""img/land1.png"" style=""width:200px;border:14px solid red;"">","null","","","","","","","","","",""
"","image-keyboard-response","8","27428","0.0-8.0","3OF2M9AATHAAT2U562RSEB76YAAKZE","AKJLAFX2M86TP","3YO4AH2FPD6XG0OGOBTVFFK58DY0QT","","","img/land2.png","","1504","-1","0","2","2","1,0.7,0.7,0.7,1,0.7,0.7,0.7,1","1,0.7,0.7,0.7,1,0.7,0.7,0.7,1","","",""
"","html-keyboard-response","9","27731","0.0-9.0","3OF2M9AATHAAT2U562RSEB76YAAKZE","AKJLAFX2M86TP","3YO4AH2FPD6XG0OGOBTVFFK58DY0QT","","null","<img src=""img/land2.png"" style=""width:200px;border:14px solid red;"">","null","","","","","","","","","",""
"","image-keyboard-response","10","29237","0.0-10.0","3OF2M9AATHAAT2U562RSEB76YAAKZE","AKJLAFX2M86TP","3YO4AH2FPD6XG0OGOBTVFFK58DY0QT","","","img/land2.png","","1506","-1","0","2","2","1,0.7,0.7,0.7,1,0.7,0.7,0.7,1","1,0.7,0.7,0.7,1,0.7,0.7,0.7,1","","",""
"","html-keyboard-response","11","29541","0.0-11.0","3OF2M9AATHAAT2U562RSEB76YAAKZE","AKJLAFX2M86TP","3YO4AH2FPD6XG0OGOBTVFFK58DY0QT","","null","<img src=""img/land2.png"" style=""width:200px;border:14px solid red;"">","null","","","","","","","","","",""
"","image-keyboard-response","12","31044","0.0-12.0","3OF2M9AATHAAT2U562RSEB76YAAKZE","AKJLAFX2M86TP","3YO4AH2FPD6XG0OGOBTVFFK58DY0QT","","","img/land2.png","","1501","-1","0","2","2","1,0.7,0.7,0.7,1,0.7,0.7,0.7,1","1,0.7,0.7,0.7,1,0.7,0.7,0.7,1","","",""
"","html-keyboard-response","13","31373","0.0-13.0","3OF2M9AATHAAT2U562RSEB76YAAKZE","AKJLAFX2M86TP","3YO4AH2FPD6XG0OGOBTVFFK58DY0QT","","null","<img src=""img/land2.png"" style=""width:200px;border:14px solid red;"">","null","","","","","","","","","",""
"","image-keyboard-response","14","32876","0.0-14.0","3OF2M9AATHAAT2U562RSEB76YAAKZE","AKJLAFX2M86TP","3YO4AH2FPD6XG0OGOBTVFFK58DY0QT","","","img/land2.png","","1502","-1","0","2","2","1,0.7,0.7,0.7,1,0.7,0.7,0.7,1","1,0.7,0.7,0.7,1,0.7,0.7,0.7,1","","",""
"","html-keyboard-response","15","33177","0.0-15.0","3OF2M9AATHAAT2U562RSEB76YAAKZE","AKJLAFX2M86TP","3YO4AH2FPD6XG0OGOBTVFFK58DY0QT","","null","<img src=""img/land2.png"" style=""width:200px;border:14px solid red;"">","null","","","","","","","","","",""
"","image-keyboard-response","16","34680","0.0-16.0","3OF2M9AATHAAT2U562RSEB76YAAKZE","AKJLAFX2M86TP","3YO4AH2FPD6XG0OGOBTVFFK58DY0QT","","","img/land2.png","","1503","-1","0","2","2","1,0.7,0.7,0.7,1,0.7,0.7,0.7,1","1,0.7,0.7,0.7,1,0.7,0.7,0.7,1","","",""
"","html-keyboard-response","17","34982","0.0-17.0","3OF2M9AATHAAT2U562RSEB76YAAKZE","AKJLAFX2M86TP","3YO4AH2FPD6XG0OGOBTVFFK58DY0QT","","null","<img src=""img/land2.png"" style=""width:200px;border:14px solid red;"">","null","","","","","","","","","",""
"","image-keyboard-response","18","36485","0.0-18.0","3OF2M9AATHAAT2U562RSEB76YAAKZE","AKJLAFX2M86TP","3YO4AH2FPD6XG0OGOBTVFFK58DY0QT","","","img/land1.png","","1502","-1","0","1","2","1,0.7,0.7,0.7,1,0.7,0.7,0.7,1","1,0.7,0.7,0.7,1,0.7,0.7,0.7,1","","",""
"","html-keyboard-response","19","36787","0.0-19.0","3OF2M9AATHAAT2U562RSEB76YAAKZE","AKJLAFX2M86TP","3YO4AH2FPD6XG0OGOBTVFFK58DY0QT","","null","<img src=""img/land1.png"" style=""width:200px;border:14px solid red;"">","null","","","","","","","","","",""
"","image-keyboard-response","20","38290","0.0-20.0","3OF2M9AATHAAT2U562RSEB76YAAKZE","AKJLAFX2M86TP","3YO4AH2FPD6XG0OGOBTVFFK58DY0QT","","","img/land2.png","","1502","-1","0","2","2","1,0.7,0.7,0.7,1,0.7,0.7,0.7,1","1,0.7,0.7,0.7,1,0.7,0.7,0.7,1","","",""
"","html-keyboard-response","21","38594","0.0-21.0","3OF2M9AATHAAT2U562RSEB76YAAKZE","AKJLAFX2M86TP","3YO4AH2FPD6XG0OGOBTVFFK58DY0QT","","null","<img src=""img/land2.png"" style=""width:200px;border:14px solid red;"">","null","","","","","","","","","",""
"","image-keyboard-response","22","40096","0.0-22.0","3OF2M9AATHAAT2U562RSEB76YAAKZE","AKJLAFX2M86TP","3YO4AH2FPD6XG0OGOBTVFFK58DY0QT","","","img/land2.png","","1502","-1","0","2","2","1,0.7,0.7,0.7,1,0.7,0.7,0.7,1","1,0.7,0.7,0.7,1,0.7,0.7,0.7,1","","",""
"","html-keyboard-response","23","40400","0.0-23.0","3OF2M9AATHAAT2U562RSEB76YAAKZE","AKJLAFX2M86TP","3YO4AH2FPD6XG0OGOBTVFFK58DY0QT","","null","<img src=""img/land2.png"" style=""width:200px;border:14px solid red;"">","null","","","","","","","","","",""
"","image-keyboard-response","24","41904","0.0-24.0","3OF2M9AATHAAT2U562RSEB76YAAKZE","AKJLAFX2M86TP","3YO4AH2FPD6XG0OGOBTVFFK58DY0QT","","","img/land2.png","","1503","-1","0","2","2","1,0.7,0.7,0.7,1,0.7,0.7,0.7,1","1,0.7,0.7,0.7,1,0.7,0.7,0.7,1","","",""
"","html-keyboard-response","25","42207","0.0-25.0","3OF2M9AATHAAT2U562RSEB76YAAKZE","AKJLAFX2M86TP","3YO4AH2FPD6XG0OGOBTVFFK58DY0QT","","null","<img src=""img/land2.png"" style=""width:200px;border:14px solid red;"">","null","","","","","","","","","",""
"","image-keyboard-response","26","43709","0.0-26.0","3OF2M9AATHAAT2U562RSEB76YAAKZE","AKJLAFX2M86TP","3YO4AH2FPD6XG0OGOBTVFFK58DY0QT","","","img/land1.png","","1501","-1","0","1","2","1,0.7,0.7,0.7,1,0.7,0.7,0.7,1","1,0.7,0.7,0.7,1,0.7,0.7,0.7,1","","",""
"","html-keyboard-response","27","44010","0.0-27.0","3OF2M9AATHAAT2U562RSEB76YAAKZE","AKJLAFX2M86TP","3YO4AH2FPD6XG0OGOBTVFFK58DY0QT","","null","<img src=""img/land1.png"" style=""width:200px;border:14px solid red;"">","null","","","","","","","","","",""
"","image-keyboard-response","28","45514","0.0-28.0","3OF2M9AATHAAT2U562RSEB76YAAKZE","AKJLAFX2M86TP","3YO4AH2FPD6XG0OGOBTVFFK58DY0QT","","","img/land3.png","","1503","-1","0","3","2","1,0.7,0.7,0.7,1,0.7,0.7,0.7,1","1,0.7,0.7,0.7,1,0.7,0.7,0.7,1","","",""
"","html-keyboard-response","29","45816","0.0-29.0","3OF2M9AATHAAT2U562RSEB76YAAKZE","AKJLAFX2M86TP","3YO4AH2FPD6XG0OGOBTVFFK58DY0QT","","null","<img src=""img/land3.png"" style=""width:200px;border:14px solid red;"">","null","","","","","","","","","",""
"","image-keyboard-response","30","47317","0.0-30.0","3OF2M9AATHAAT2U562RSEB76YAAKZE","AKJLAFX2M86TP","3YO4AH2FPD6XG0OGOBTVFFK58DY0QT","","","img/land2.png","","1502","-1","0","2","2","1,0.7,0.7,0.7,1,0.7,0.7,0.7,1","1,0.7,0.7,0.7,1,0.7,0.7,0.7,1","","",""
"","html-keyboard-response","31","47620","0.0-31.0","3OF2M9AATHAAT2U562RSEB76YAAKZE","AKJLAFX2M86TP","3YO4AH2FPD6XG0OGOBTVFFK58DY0QT","","null","<img src=""img/land2.png"" style=""width:200px;border:14px solid red;"">","null","","","","","","","","","",""
"","image-keyboard-response","32","49123","0.0-32.0","3OF2M9AATHAAT2U562RSEB76YAAKZE","AKJLAFX2M86TP","3YO4AH2FPD6XG0OGOBTVFFK58DY0QT","","","img/land2.png","","1503","-1","0","2","2","1,0.7,0.7,0.7,1,0.7,0.7,0.7,1","1,0.7,0.7,0.7,1,0.7,0.7,0.7,1","","",""
"","html-keyboard-response","33","49424","0.0-33.0","3OF2M9AATHAAT2U562RSEB76YAAKZE","AKJLAFX2M86TP","3YO4AH2FPD6XG0OGOBTVFFK58DY0QT","","null","<img src=""img/land2.png"" style=""width:200px;border:14px solid red;"">","null","","","","","","","","","",""
"","image-keyboard-response","34","50927","0.0-34.0","3OF2M9AATHAAT2U562RSEB76YAAKZE","AKJLAFX2M86TP","3YO4AH2FPD6XG0OGOBTVFFK58DY0QT","","","img/land3.png","","1503","-1","0","3","2","1,0.7,0.7,0.7,1,0.7,0.7,0.7,1","1,0.7,0.7,0.7,1,0.7,0.7,0.7,1","","",""
"","html-keyboard-response","35","51258","0.0-35.0","3OF2M9AATHAAT2U562RSEB76YAAKZE","AKJLAFX2M86TP","3YO4AH2FPD6XG0OGOBTVFFK58DY0QT","","null","<img src=""img/land3.png"" style=""width:200px;border:14px solid red;"">","null","","","","","","","","","",""
"","image-keyboard-response","36","52760","0.0-36.0","3OF2M9AATHAAT2U562RSEB76YAAKZE","AKJLAFX2M86TP","3YO4AH2FPD6XG0OGOBTVFFK58DY0QT","","","img/land2.png","","1502","-1","0","2","2","1,0.7,0.7,0.7,1,0.7,0.7,0.7,1","1,0.7,0.7,0.7,1,0.7,0.7,0.7,1","","",""
"","html-keyboard-response","37","53062","0.0-37.0","3OF2M9AATHAAT2U562RSEB76YAAKZE","AKJLAFX2M86TP","3YO4AH2FPD6XG0OGOBTVFFK58DY0QT","","null","<img src=""img/land2.png"" style=""width:200px;border:14px solid red;"">","null","","","","","","","","","",""
"","image-keyboard-response","38","54566","0.0-38.0","3OF2M9AATHAAT2U562RSEB76YAAKZE","AKJLAFX2M86TP","3YO4AH2FPD6XG0OGOBTVFFK58DY0QT","","","img/land1.png","","1505","-1","0","1","2","1,0.7,0.7,0.7,1,0.7,0.7,0.7,1","1,0.7,0.7,0.7,1,0.7,0.7,0.7,1","","",""
"","html-keyboard-response","39","54872","0.0-39.0","3OF2M9AATHAAT2U562RSEB76YAAKZE","AKJLAFX2M86TP","3YO4AH2FPD6XG0OGOBTVFFK58DY0QT","","null","<img src=""img/land1.png"" style=""width:200px;border:14px solid red;"">","null","","","","","","","","","",""
"","image-keyboard-response","40","56375","0.0-40.0","3OF2M9AATHAAT2U562RSEB76YAAKZE","AKJLAFX2M86TP","3YO4AH2FPD6XG0OGOBTVFFK58DY0QT","","","img/land2.png","","1503","-1","0","2","2","1,0.7,0.7,0.7,1,0.7,0.7,0.7,1","1,0.7,0.7,0.7,1,0.7,0.7,0.7,1","","",""
"","html-keyboard-response","41","56677","0.0-41.0","3OF2M9AATHAAT2U562RSEB76YAAKZE","AKJLAFX2M86TP","3YO4AH2FPD6XG0OGOBTVFFK58DY0QT","","null","<img src=""img/land2.png"" style=""width:200px;border:14px solid red;"">","null","","","","","","","","","",""
"","image-keyboard-response","42","58179","0.0-42.0","3OF2M9AATHAAT2U562RSEB76YAAKZE","AKJLAFX2M86TP","3YO4AH2FPD6XG0OGOBTVFFK58DY0QT","","","img/land2.png","","1502","-1","0","2","2","1,0.7,0.7,0.7,1,0.7,0.7,0.7,1","1,0.7,0.7,0.7,1,0.7,0.7,0.7,1","","",""
"","html-keyboard-response","43","58482","0.0-43.0","3OF2M9AATHAAT2U562RSEB76YAAKZE","AKJLAFX2M86TP","3YO4AH2FPD6XG0OGOBTVFFK58DY0QT","","null","<img src=""img/land2.png"" style=""width:200px;border:14px solid red;"">","null","","","","","","","","","",""
"","image-keyboard-response","44","59986","0.0-44.0","3OF2M9AATHAAT2U562RSEB76YAAKZE","AKJLAFX2M86TP","3YO4AH2FPD6XG0OGOBTVFFK58DY0QT","","","img/land1.png","","1503","-1","0","1","2","1,0.7,0.7,0.7,1,0.7,0.7,0.7,1","1,0.7,0.7,0.7,1,0.7,0.7,0.7,1","","",""
"","html-keyboard-response","45","60287","0.0-45.0","3OF2M9AATHAAT2U562RSEB76YAAKZE","AKJLAFX2M86TP","3YO4AH2FPD6XG0OGOBTVFFK58DY0QT","","null","<img src=""img/land1.png"" style=""width:200px;border:14px solid red;"">","null","","","","","","","","","",""
"","image-keyboard-response","46","61790","0.0-46.0","3OF2M9AATHAAT2U562RSEB76YAAKZE","AKJLAFX2M86TP","3YO4AH2FPD6XG0OGOBTVFFK58DY0QT","","","img/land2.png","","1502","-1","0","2","2","1,0.7,0.7,0.7,1,0.7,0.7,0.7,1","1,0.7,0.7,0.7,1,0.7,0.7,0.7,1","","",""
"","html-keyboard-response","47","62092","0.0-47.0","3OF2M9AATHAAT2U562RSEB76YAAKZE","AKJLAFX2M86TP","3YO4AH2FPD6XG0OGOBTVFFK58DY0QT","","null","<img src=""img/land2.png"" style=""width:200px;border:14px solid red;"">","null","","","","","","","","","",""
"","image-keyboard-response","48","63593","0.0-48.0","3OF2M9AATHAAT2U562RSEB76YAAKZE","AKJLAFX2M86TP","3YO4AH2FPD6XG0OGOBTVFFK58DY0QT","","","img/land1.png","","1500","-1","0","1","2","1,0.7,0.7,0.7,1,0.7,0.7,0.7,1","1,0.7,0.7,0.7,1,0.7,0.7,0.7,1","","",""
"","html-keyboard-response","49","63897","0.0-49.0","3OF2M9AATHAAT2U562RSEB76YAAKZE","AKJLAFX2M86TP","3YO4AH2FPD6XG0OGOBTVFFK58DY0QT","","null","<img src=""img/land1.png"" style=""width:200px;border:14px solid red;"">","null","","","","","","","","","",""
"","image-keyboard-response","50","65399","0.0-50.0","3OF2M9AATHAAT2U562RSEB76YAAKZE","AKJLAFX2M86TP","3YO4AH2FPD6XG0OGOBTVFFK58DY0QT","","","img/land3.png","","1502","-1","0","3","2","1,0.7,0.7,0.7,1,0.7,0.7,0.7,1","1,0.7,0.7,0.7,1,0.7,0.7,0.7,1","","",""
"","html-keyboard-response","51","65702","0.0-51.0","3OF2M9AATHAAT2U562RSEB76YAAKZE","AKJLAFX2M86TP","3YO4AH2FPD6XG0OGOBTVFFK58DY0QT","","null","<img src=""img/land3.png"" style=""width:200px;border:14px solid red;"">","null","","","","","","","","","",""
"","image-keyboard-response","52","67206","0.0-52.0","3OF2M9AATHAAT2U562RSEB76YAAKZE","AKJLAFX2M86TP","3YO4AH2FPD6XG0OGOBTVFFK58DY0QT","","","img/land2.png","","1504","-1","0","2","2","1,0.7,0.7,0.7,1,0.7,0.7,0.7,1","1,0.7,0.7,0.7,1,0.7,0.7,0.7,1","","",""
"","html-keyboard-response","53","67508","0.0-53.0","3OF2M9AATHAAT2U562RSEB76YAAKZE","AKJLAFX2M86TP","3YO4AH2FPD6XG0OGOBTVFFK58DY0QT","","null","<img src=""img/land2.png"" style=""width:200px;border:14px solid red;"">","null","","","","","","","","","",""
"","image-keyboard-response","54","69011","0.0-54.0","3OF2M9AATHAAT2U562RSEB76YAAKZE","AKJLAFX2M86TP","3YO4AH2FPD6XG0OGOBTVFFK58DY0QT","","","img/land2.png","","1502","-1","0","2","2","1,0.7,0.7,0.7,1,0.7,0.7,0.7,1","1,0.7,0.7,0.7,1,0.7,0.7,0.7,1","","",""
"","html-keyboard-response","55","69312","0.0-55.0","3OF2M9AATHAAT2U562RSEB76YAAKZE","AKJLAFX2M86TP","3YO4AH2FPD6XG0OGOBTVFFK58DY0QT","","null","<img src=""img/land2.png"" style=""width:200px;border:14px solid red;"">","null","","","","","","","","","",""
"","image-keyboard-response","56","70816","0.0-56.0","3OF2M9AATHAAT2U562RSEB76YAAKZE","AKJLAFX2M86TP","3YO4AH2FPD6XG0OGOBTVFFK58DY0QT","","","img/land3.png","","1503","-1","0","3","2","1,0.7,0.7,0.7,1,0.7,0.7,0.7,1","1,0.7,0.7,0.7,1,0.7,0.7,0.7,1","","",""
"","html-keyboard-response","57","71118","0.0-57.0","3OF2M9AATHAAT2U562RSEB76YAAKZE","AKJLAFX2M86TP","3YO4AH2FPD6XG0OGOBTVFFK58DY0QT","","null","<img src=""img/land3.png"" style=""width:200px;border:14px solid red;"">","null","","","","","","","","","",""
"","image-keyboard-response","58","72623","0.0-58.0","3OF2M9AATHAAT2U562RSEB76YAAKZE","AKJLAFX2M86TP","3YO4AH2FPD6XG0OGOBTVFFK58DY0QT","","","img/land2.png","","1503","-1","0","2","2","1,0.7,0.7,0.7,1,0.7,0.7,0.7,1","1,0.7,0.7,0.7,1,0.7,0.7,0.7,1","","",""
"","html-keyboard-response","59","72925","0.0-59.0","3OF2M9AATHAAT2U562RSEB76YAAKZE","AKJLAFX2M86TP","3YO4AH2FPD6XG0OGOBTVFFK58DY0QT","","null","<img src=""img/land2.png"" style=""width:200px;border:14px solid red;"">","null","","","","","","","","","",""
"","image-keyboard-response","60","74429","0.0-60.0","3OF2M9AATHAAT2U562RSEB76YAAKZE","AKJLAFX2M86TP","3YO4AH2FPD6XG0OGOBTVFFK58DY0QT","","","img/land3.png","","1502","-1","0","3","2","1,0.7,0.7,0.7,1,0.7,0.7,0.7,1","1,0.7,0.7,0.7,1,0.7,0.7,0.7,1","","",""
"","html-keyboard-response","61","74732","0.0-61.0","3OF2M9AATHAAT2U562RSEB76YAAKZE","AKJLAFX2M86TP","3YO4AH2FPD6XG0OGOBTVFFK58DY0QT","","null","<img src=""img/land3.png"" style=""width:200px;border:14px solid red;"">","null","","","","","","","","","",""
"","image-keyboard-response","62","76235","0.0-62.0","3OF2M9AATHAAT2U562RSEB76YAAKZE","AKJLAFX2M86TP","3YO4AH2FPD6XG0OGOBTVFFK58DY0QT","","","img/land2.png","","1502","-1","0","2","2","1,0.7,0.7,0.7,1,0.7,0.7,0.7,1","1,0.7,0.7,0.7,1,0.7,0.7,0.7,1","","",""
"","html-keyboard-response","63","76537","0.0-63.0","3OF2M9AATHAAT2U562RSEB76YAAKZE","AKJLAFX2M86TP","3YO4AH2FPD6XG0OGOBTVFFK58DY0QT","","null","<img src=""img/land2.png"" style=""width:200px;border:14px solid red;"">","null","","","","","","","","","",""
"","image-keyboard-response","64","78039","0.0-64.0","3OF2M9AATHAAT2U562RSEB76YAAKZE","AKJLAFX2M86TP","3YO4AH2FPD6XG0OGOBTVFFK58DY0QT","","","img/land3.png","","1501","-1","0","3","2","1,0.7,0.7,0.7,1,0.7,0.7,0.7,1","1,0.7,0.7,0.7,1,0.7,0.7,0.7,1","","",""
"","html-keyboard-response","65","78343","0.0-65.0","3OF2M9AATHAAT2U562RSEB76YAAKZE","AKJLAFX2M86TP","3YO4AH2FPD6XG0OGOBTVFFK58DY0QT","","null","<img src=""img/land3.png"" style=""width:200px;border:14px solid red;"">","null","","","","","","","","","",""
"","image-keyboard-response","66","79846","0.0-66.0","3OF2M9AATHAAT2U562RSEB76YAAKZE","AKJLAFX2M86TP","3YO4AH2FPD6XG0OGOBTVFFK58DY0QT","","","img/land1.png","","1503","-1","0","1","2","1,0.7,0.7,0.7,1,0.7,0.7,0.7,1","1,0.7,0.7,0.7,1,0.7,0.7,0.7,1","","",""
"","html-keyboard-response","67","80148","0.0-67.0","3OF2M9AATHAAT2U562RSEB76YAAKZE","AKJLAFX2M86TP","3YO4AH2FPD6XG0OGOBTVFFK58DY0QT","","null","<img src=""img/land1.png"" style=""width:200px;border:14px solid red;"">","null","","","","","","","","","",""
"","image-keyboard-response","68","81651","0.0-68.0","3OF2M9AATHAAT2U562RSEB76YAAKZE","AKJLAFX2M86TP","3YO4AH2FPD6XG0OGOBTVFFK58DY0QT","","","img/land2.png","","1502","-1","0","2","2","1,0.7,0.7,0.7,1,0.7,0.7,0.7,1","1,0.7,0.7,0.7,1,0.7,0.7,0.7,1","","",""
"","html-keyboard-response","69","81953","0.0-69.0","3OF2M9AATHAAT2U562RSEB76YAAKZE","AKJLAFX2M86TP","3YO4AH2FPD6XG0OGOBTVFFK58DY0QT","","null","<img src=""img/land2.png"" style=""width:200px;border:14px solid red;"">","null","","","","","","","","","",""
"","image-keyboard-response","70","83456","0.0-70.0","3OF2M9AATHAAT2U562RSEB76YAAKZE","AKJLAFX2M86TP","3YO4AH2FPD6XG0OGOBTVFFK58DY0QT","","","img/land2.png","","1502","-1","0","2","2","1,0.7,0.7,0.7,1,0.7,0.7,0.7,1","1,0.7,0.7,0.7,1,0.7,0.7,0.7,1","","",""
"","html-keyboard-response","71","83759","0.0-71.0","3OF2M9AATHAAT2U562RSEB76YAAKZE","AKJLAFX2M86TP","3YO4AH2FPD6XG0OGOBTVFFK58DY0QT","","null","<img src=""img/land2.png"" style=""width:200px;border:14px solid red;"">","null","","","","","","","","","",""
"","image-keyboard-response","72","85262","0.0-72.0","3OF2M9AATHAAT2U562RSEB76YAAKZE","AKJLAFX2M86TP","3YO4AH2FPD6XG0OGOBTVFFK58DY0QT","","","img/land2.png","","1503","-1","0","2","2","1,0.7,0.7,0.7,1,0.7,0.7,0.7,1","1,0.7,0.7,0.7,1,0.7,0.7,0.7,1","","",""
"","html-keyboard-response","73","85566","0.0-73.0","3OF2M9AATHAAT2U562RSEB76YAAKZE","AKJLAFX2M86TP","3YO4AH2FPD6XG0OGOBTVFFK58DY0QT","","null","<img src=""img/land2.png"" style=""width:200px;border:14px solid red;"">","null","","","","","","","","","",""
"","image-keyboard-response","74","87068","0.0-74.0","3OF2M9AATHAAT2U562RSEB76YAAKZE","AKJLAFX2M86TP","3YO4AH2FPD6XG0OGOBTVFFK58DY0QT","","","img/land2.png","","1502","-1","0","2","2","1,0.7,0.7,0.7,1,0.7,0.7,0.7,1","1,0.7,0.7,0.7,1,0.7,0.7,0.7,1","","",""
"","html-keyboard-response","75","87551","0.0-75.0","3OF2M9AATHAAT2U562RSEB76YAAKZE","AKJLAFX2M86TP","3YO4AH2FPD6XG0OGOBTVFFK58DY0QT","","null","<img src=""img/land2.png"" style=""width:200px;border:14px solid red;"">","null","","","","","","","","","",""
"","image-keyboard-response","76","89054","0.0-76.0","3OF2M9AATHAAT2U562RSEB76YAAKZE","AKJLAFX2M86TP","3YO4AH2FPD6XG0OGOBTVFFK58DY0QT","","","img/land2.png","","1502","-1","0","2","2","1,0.7,0.7,0.7,1,0.7,0.7,0.7,1","1,0.7,0.7,0.7,1,0.7,0.7,0.7,1","","",""
"","html-keyboard-response","77","89356","0.0-77.0","3OF2M9AATHAAT2U562RSEB76YAAKZE","AKJLAFX2M86TP","3YO4AH2FPD6XG0OGOBTVFFK58DY0QT","","null","<img src=""img/land2.png"" style=""width:200px;border:14px solid red;"">","null","","","","","","","","","",""
"","image-keyboard-response","78","90858","0.0-78.0","3OF2M9AATHAAT2U562RSEB76YAAKZE","AKJLAFX2M86TP","3YO4AH2FPD6XG0OGOBTVFFK58DY0QT","","","img/land2.png","","1502","-1","0","2","2","1,0.7,0.7,0.7,1,0.7,0.7,0.7,1","1,0.7,0.7,0.7,1,0.7,0.7,0.7,1","","",""
"","html-keyboard-response","79","91161","0.0-79.0","3OF2M9AATHAAT2U562RSEB76YAAKZE","AKJLAFX2M86TP","3YO4AH2FPD6XG0OGOBTVFFK58DY0QT","","null","<img src=""img/land2.png"" style=""width:200px;border:14px solid red;"">","null","","","","","","","","","",""
"","image-keyboard-response","80","92664","0.0-80.0","3OF2M9AATHAAT2U562RSEB76YAAKZE","AKJLAFX2M86TP","3YO4AH2FPD6XG0OGOBTVFFK58DY0QT","","","img/land2.png","","1503","-1","0","2","2","1,0.7,0.7,0.7,1,0.7,0.7,0.7,1","1,0.7,0.7,0.7,1,0.7,0.7,0.7,1","","",""
"","html-keyboard-response","81","92965","0.0-81.0","3OF2M9AATHAAT2U562RSEB76YAAKZE","AKJLAFX2M86TP","3YO4AH2FPD6XG0OGOBTVFFK58DY0QT","","null","<img src=""img/land2.png"" style=""width:200px;border:14px solid red;"">","null","","","","","","","","","",""
"","image-keyboard-response","82","94466","0.0-82.0","3OF2M9AATHAAT2U562RSEB76YAAKZE","AKJLAFX2M86TP","3YO4AH2FPD6XG0OGOBTVFFK58DY0QT","","","img/land3.png","","1500","-1","0","3","2","1,0.7,0.7,0.7,1,0.7,0.7,0.7,1","1,0.7,0.7,0.7,1,0.7,0.7,0.7,1","","",""
"","html-keyboard-response","83","94768","0.0-83.0","3OF2M9AATHAAT2U562RSEB76YAAKZE","AKJLAFX2M86TP","3YO4AH2FPD6XG0OGOBTVFFK58DY0QT","","null","<img src=""img/land3.png"" style=""width:200px;border:14px solid red;"">","null","","","","","","","","","",""
"","image-keyboard-response","84","96270","0.0-84.0","3OF2M9AATHAAT2U562RSEB76YAAKZE","AKJLAFX2M86TP","3YO4AH2FPD6XG0OGOBTVFFK58DY0QT","","","img/land1.png","","1501","-1","0","1","2","1,0.7,0.7,0.7,1,0.7,0.7,0.7,1","1,0.7,0.7,0.7,1,0.7,0.7,0.7,1","","",""
"","html-keyboard-response","85","96571","0.0-85.0","3OF2M9AATHAAT2U562RSEB76YAAKZE","AKJLAFX2M86TP","3YO4AH2FPD6XG0OGOBTVFFK58DY0QT","","null","<img src=""img/land1.png"" style=""width:200px;border:14px solid red;"">","null","","","","","","","","","",""
"","image-keyboard-response","86","98072","0.0-86.0","3OF2M9AATHAAT2U562RSEB76YAAKZE","AKJLAFX2M86TP","3YO4AH2FPD6XG0OGOBTVFFK58DY0QT","","","img/land1.png","","1502","-1","0","1","2","1,0.7,0.7,0.7,1,0.7,0.7,0.7,1","1,0.7,0.7,0.7,1,0.7,0.7,0.7,1","","",""
"","html-keyboard-response","87","98374","0.0-87.0","3OF2M9AATHAAT2U562RSEB76YAAKZE","AKJLAFX2M86TP","3YO4AH2FPD6XG0OGOBTVFFK58DY0QT","","null","<img src=""img/land1.png"" style=""width:200px;border:14px solid red;"">","null","","","","","","","","","",""
"","image-keyboard-response","88","99876","0.0-88.0","3OF2M9AATHAAT2U562RSEB76YAAKZE","AKJLAFX2M86TP","3YO4AH2FPD6XG0OGOBTVFFK58DY0QT","","","img/land2.png","","1502","-1","0","2","2","1,0.7,0.7,0.7,1,0.7,0.7,0.7,1","1,0.7,0.7,0.7,1,0.7,0.7,0.7,1","","",""
"","html-keyboard-response","89","100179","0.0-89.0","3OF2M9AATHAAT2U562RSEB76YAAKZE","AKJLAFX2M86TP","3YO4AH2FPD6XG0OGOBTVFFK58DY0QT","","null","<img src=""img/land2.png"" style=""width:200px;border:14px solid red;"">","null","","","","","","","","","",""
"","image-keyboard-response","90","101682","0.0-90.0","3OF2M9AATHAAT2U562RSEB76YAAKZE","AKJLAFX2M86TP","3YO4AH2FPD6XG0OGOBTVFFK58DY0QT","","","img/land2.png","","1503","-1","0","2","2","1,0.7,0.7,0.7,1,0.7,0.7,0.7,1","1,0.7,0.7,0.7,1,0.7,0.7,0.7,1","","",""
"","html-keyboard-response","91","101985","0.0-91.0","3OF2M9AATHAAT2U562RSEB76YAAKZE","AKJLAFX2M86TP","3YO4AH2FPD6XG0OGOBTVFFK58DY0QT","","null","<img src=""img/land2.png"" style=""width:200px;border:14px solid red;"">","null","","","","","","","","","",""
"","image-keyboard-response","92","103487","0.0-92.0","3OF2M9AATHAAT2U562RSEB76YAAKZE","AKJLAFX2M86TP","3YO4AH2FPD6XG0OGOBTVFFK58DY0QT","","","img/land2.png","","1501","-1","0","2","2","1,0.7,0.7,0.7,1,0.7,0.7,0.7,1","1,0.7,0.7,0.7,1,0.7,0.7,0.7,1","","",""
"","html-keyboard-response","93","103790","0.0-93.0","3OF2M9AATHAAT2U562RSEB76YAAKZE","AKJLAFX2M86TP","3YO4AH2FPD6XG0OGOBTVFFK58DY0QT","","null","<img src=""img/land2.png"" style=""width:200px;border:14px solid red;"">","null","","","","","","","","","",""
"","image-keyboard-response","94","105296","0.0-94.0","3OF2M9AATHAAT2U562RSEB76YAAKZE","AKJLAFX2M86TP","3YO4AH2FPD6XG0OGOBTVFFK58DY0QT","","","img/land2.png","","1506","-1","0","2","2","1,0.7,0.7,0.7,1,0.7,0.7,0.7,1","1,0.7,0.7,0.7,1,0.7,0.7,0.7,1","","",""
"","html-keyboard-response","95","105600","0.0-95.0","3OF2M9AATHAAT2U562RSEB76YAAKZE","AKJLAFX2M86TP","3YO4AH2FPD6XG0OGOBTVFFK58DY0QT","","null","<img src=""img/land2.png"" style=""width:200px;border:14px solid red;"">","null","","","","","","","","","",""
"","image-keyboard-response","96","107101","0.0-96.0","3OF2M9AATHAAT2U562RSEB76YAAKZE","AKJLAFX2M86TP","3YO4AH2FPD6XG0OGOBTVFFK58DY0QT","","","img/land1.png","","1500","-1","0","1","2","1,0.7,0.7,0.7,1,0.7,0.7,0.7,1","1,0.7,0.7,0.7,1,0.7,0.7,0.7,1","","",""
"","html-keyboard-response","97","107404","0.0-97.0","3OF2M9AATHAAT2U562RSEB76YAAKZE","AKJLAFX2M86TP","3YO4AH2FPD6XG0OGOBTVFFK58DY0QT","","null","<img src=""img/land1.png"" style=""width:200px;border:14px solid red;"">","null","","","","","","","","","",""
"","image-keyboard-response","98","108907","0.0-98.0","3OF2M9AATHAAT2U562RSEB76YAAKZE","AKJLAFX2M86TP","3YO4AH2FPD6XG0OGOBTVFFK58DY0QT","","","img/land2.png","","1503","-1","0","2","2","1,0.7,0.7,0.7,1,0.7,0.7,0.7,1","1,0.7,0.7,0.7,1,0.7,0.7,0.7,1","","",""
"","html-keyboard-response","99","109212","0.0-99.0","3OF2M9AATHAAT2U562RSEB76YAAKZE","AKJLAFX2M86TP","3YO4AH2FPD6XG0OGOBTVFFK58DY0QT","","null","<img src=""img/land2.png"" style=""width:200px;border:14px solid red;"">","null","","","","","","","","","",""
"","image-keyboard-response","100","110716","0.0-100.0","3OF2M9AATHAAT2U562RSEB76YAAKZE","AKJLAFX2M86TP","3YO4AH2FPD6XG0OGOBTVFFK58DY0QT","","","img/land2.png","","1503","-1","0","2","2","1,0.7,0.7,0.7,1,0.7,0.7,0.7,1","1,0.7,0.7,0.7,1,0.7,0.7,0.7,1","","",""
"","html-keyboard-response","101","111019","0.0-101.0","3OF2M9AATHAAT2U562RSEB76YAAKZE","AKJLAFX2M86TP","3YO4AH2FPD6XG0OGOBTVFFK58DY0QT","","null","<img src=""img/land2.png"" style=""width:200px;border:14px solid red;"">","null","","","","","","","","","",""
"","image-keyboard-response","102","112522","0.0-102.0","3OF2M9AATHAAT2U562RSEB76YAAKZE","AKJLAFX2M86TP","3YO4AH2FPD6XG0OGOBTVFFK58DY0QT","","","img/land2.png","","1502","-1","0","2","2","1,0.7,0.7,0.7,1,0.7,0.7,0.7,1","1,0.7,0.7,0.7,1,0.7,0.7,0.7,1","","",""
"","html-keyboard-response","103","112826","0.0-103.0","3OF2M9AATHAAT2U562RSEB76YAAKZE","AKJLAFX2M86TP","3YO4AH2FPD6XG0OGOBTVFFK58DY0QT","","null","<img src=""img/land2.png"" style=""width:200px;border:14px solid red;"">","null","","","","","","","","","",""
"","image-keyboard-response","104","114329","0.0-104.0","3OF2M9AATHAAT2U562RSEB76YAAKZE","AKJLAFX2M86TP","3YO4AH2FPD6XG0OGOBTVFFK58DY0QT","","","img/land2.png","","1502","-1","0","2","2","1,0.7,0.7,0.7,1,0.7,0.7,0.7,1","1,0.7,0.7,0.7,1,0.7,0.7,0.7,1","","",""
"","html-keyboard-response","105","114631","0.0-105.0","3OF2M9AATHAAT2U562RSEB76YAAKZE","AKJLAFX2M86TP","3YO4AH2FPD6XG0OGOBTVFFK58DY0QT","","null","<img src=""img/land2.png"" style=""width:200px;border:14px solid red;"">","null","","","","","","","","","",""
"","image-keyboard-response","106","116133","0.0-106.0","3OF2M9AATHAAT2U562RSEB76YAAKZE","AKJLAFX2M86TP","3YO4AH2FPD6XG0OGOBTVFFK58DY0QT","","","img/land2.png","","1502","-1","0","2","2","1,0.7,0.7,0.7,1,0.7,0.7,0.7,1","1,0.7,0.7,0.7,1,0.7,0.7,0.7,1","","",""
"","html-keyboard-response","107","116436","0.0-107.0","3OF2M9AATHAAT2U562RSEB76YAAKZE","AKJLAFX2M86TP","3YO4AH2FPD6XG0OGOBTVFFK58DY0QT","","null","<img src=""img/land2.png"" style=""width:200px;border:14px solid red;"">","null","","","","","","","","","",""
"","image-keyboard-response","108","117938","0.0-108.0","3OF2M9AATHAAT2U562RSEB76YAAKZE","AKJLAFX2M86TP","3YO4AH2FPD6XG0OGOBTVFFK58DY0QT","","","img/land2.png","","1501","-1","0","2","2","1,0.7,0.7,0.7,1,0.7,0.7,0.7,1","1,0.7,0.7,0.7,1,0.7,0.7,0.7,1","","",""
"","html-keyboard-response","109","118241","0.0-109.0","3OF2M9AATHAAT2U562RSEB76YAAKZE","AKJLAFX2M86TP","3YO4AH2FPD6XG0OGOBTVFFK58DY0QT","","null","<img src=""img/land2.png"" style=""width:200px;border:14px solid red;"">","null","","","","","","","","","",""
"","image-keyboard-response","110","119742","0.0-110.0","3OF2M9AATHAAT2U562RSEB76YAAKZE","AKJLAFX2M86TP","3YO4AH2FPD6XG0OGOBTVFFK58DY0QT","","","img/land2.png","","1501","-1","0","2","2","1,0.7,0.7,0.7,1,0.7,0.7,0.7,1","1,0.7,0.7,0.7,1,0.7,0.7,0.7,1","","",""
"","html-keyboard-response","111","120043","0.0-111.0","3OF2M9AATHAAT2U562RSEB76YAAKZE","AKJLAFX2M86TP","3YO4AH2FPD6XG0OGOBTVFFK58DY0QT","","null","<img src=""img/land2.png"" style=""width:200px;border:14px solid red;"">","null","","","","","","","","","",""
"","image-keyboard-response","112","121544","0.0-112.0","3OF2M9AATHAAT2U562RSEB76YAAKZE","AKJLAFX2M86TP","3YO4AH2FPD6XG0OGOBTVFFK58DY0QT","","","img/land1.png","","1500","-1","0","1","2","1,0.7,0.7,0.7,1,0.7,0.7,0.7,1","1,0.7,0.7,0.7,1,0.7,0.7,0.7,1","","",""
"","html-keyboard-response","113","121848","0.0-113.0","3OF2M9AATHAAT2U562RSEB76YAAKZE","AKJLAFX2M86TP","3YO4AH2FPD6XG0OGOBTVFFK58DY0QT","","null","<img src=""img/land1.png"" style=""width:200px;border:14px solid red;"">","null","","","","","","","","","",""
"","image-keyboard-response","114","123352","0.0-114.0","3OF2M9AATHAAT2U562RSEB76YAAKZE","AKJLAFX2M86TP","3YO4AH2FPD6XG0OGOBTVFFK58DY0QT","","","img/land1.png","","1504","-1","0","1","2","1,0.7,0.7,0.7,1,0.7,0.7,0.7,1","1,0.7,0.7,0.7,1,0.7,0.7,0.7,1","","",""
"","html-keyboard-response","115","123654","0.0-115.0","3OF2M9AATHAAT2U562RSEB76YAAKZE","AKJLAFX2M86TP","3YO4AH2FPD6XG0OGOBTVFFK58DY0QT","","null","<img src=""img/land1.png"" style=""width:200px;border:14px solid red;"">","null","","","","","","","","","",""
"","image-keyboard-response","116","125157","0.0-116.0","3OF2M9AATHAAT2U562RSEB76YAAKZE","AKJLAFX2M86TP","3YO4AH2FPD6XG0OGOBTVFFK58DY0QT","","","img/land2.png","","1503","-1","0","2","2","1,0.7,0.7,0.7,1,0.7,0.7,0.7,1","1,0.7,0.7,0.7,1,0.7,0.7,0.7,1","","",""
"","html-keyboard-response","117","125460","0.0-117.0","3OF2M9AATHAAT2U562RSEB76YAAKZE","AKJLAFX2M86TP","3YO4AH2FPD6XG0OGOBTVFFK58DY0QT","","null","<img src=""img/land2.png"" style=""width:200px;border:14px solid red;"">","null","","","","","","","","","",""
"","image-keyboard-response","118","126963","0.0-118.0","3OF2M9AATHAAT2U562RSEB76YAAKZE","AKJLAFX2M86TP","3YO4AH2FPD6XG0OGOBTVFFK58DY0QT","","","img/land3.png","","1503","-1","0","3","2","1,0.7,0.7,0.7,1,0.7,0.7,0.7,1","1,0.7,0.7,0.7,1,0.7,0.7,0.7,1","","",""
"","html-keyboard-response","119","127265","0.0-119.0","3OF2M9AATHAAT2U562RSEB76YAAKZE","AKJLAFX2M86TP","3YO4AH2FPD6XG0OGOBTVFFK58DY0QT","","null","<img src=""img/land3.png"" style=""width:200px;border:14px solid red;"">","null","","","","","","","","","",""
"","image-keyboard-response","120","128766","0.0-120.0","3OF2M9AATHAAT2U562RSEB76YAAKZE","AKJLAFX2M86TP","3YO4AH2FPD6XG0OGOBTVFFK58DY0QT","","","img/land3.png","","1500","-1","0","3","2","1,0.7,0.7,0.7,1,0.7,0.7,0.7,1","1,0.7,0.7,0.7,1,0.7,0.7,0.7,1","","",""
"","html-keyboard-response","121","129069","0.0-121.0","3OF2M9AATHAAT2U562RSEB76YAAKZE","AKJLAFX2M86TP","3YO4AH2FPD6XG0OGOBTVFFK58DY0QT","","null","<img src=""img/land3.png"" style=""width:200px;border:14px solid red;"">","null","","","","","","","","","",""
"","image-keyboard-response","122","130572","0.0-122.0","3OF2M9AATHAAT2U562RSEB76YAAKZE","AKJLAFX2M86TP","3YO4AH2FPD6XG0OGOBTVFFK58DY0QT","","","img/land3.png","","1502","-1","0","3","2","1,0.7,0.7,0.7,1,0.7,0.7,0.7,1","1,0.7,0.7,0.7,1,0.7,0.7,0.7,1","","",""
"","html-keyboard-response","123","130876","0.0-123.0","3OF2M9AATHAAT2U562RSEB76YAAKZE","AKJLAFX2M86TP","3YO4AH2FPD6XG0OGOBTVFFK58DY0QT","","null","<img src=""img/land3.png"" style=""width:200px;border:14px solid red;"">","null","","","","","","","","","",""
"","image-keyboard-response","124","132381","0.0-124.0","3OF2M9AATHAAT2U562RSEB76YAAKZE","AKJLAFX2M86TP","3YO4AH2FPD6XG0OGOBTVFFK58DY0QT","","","img/land2.png","","1504","-1","0","2","2","1,0.7,0.7,0.7,1,0.7,0.7,0.7,1","1,0.7,0.7,0.7,1,0.7,0.7,0.7,1","","",""
"","html-keyboard-response","125","132683","0.0-125.0","3OF2M9AATHAAT2U562RSEB76YAAKZE","AKJLAFX2M86TP","3YO4AH2FPD6XG0OGOBTVFFK58DY0QT","","null","<img src=""img/land2.png"" style=""width:200px;border:14px solid red;"">","null","","","","","","","","","",""
"","image-keyboard-response","126","134186","0.0-126.0","3OF2M9AATHAAT2U562RSEB76YAAKZE","AKJLAFX2M86TP","3YO4AH2FPD6XG0OGOBTVFFK58DY0QT","","","img/land3.png","","1502","-1","0","3","2","1,0.7,0.7,0.7,1,0.7,0.7,0.7,1","1,0.7,0.7,0.7,1,0.7,0.7,0.7,1","","",""
"","html-keyboard-response","127","134488","0.0-127.0","3OF2M9AATHAAT2U562RSEB76YAAKZE","AKJLAFX2M86TP","3YO4AH2FPD6XG0OGOBTVFFK58DY0QT","","null","<img src=""img/land3.png"" style=""width:200px;border:14px solid red;"">","null","","","","","","","","","",""
"","image-keyboard-response","128","135991","0.0-128.0","3OF2M9AATHAAT2U562RSEB76YAAKZE","AKJLAFX2M86TP","3YO4AH2FPD6XG0OGOBTVFFK58DY0QT","","","img/land1.png","","1501","-1","0","1","2","1,0.7,0.7,0.7,1,0.7,0.7,0.7,1","1,0.7,0.7,0.7,1,0.7,0.7,0.7,1","","",""
"","html-keyboard-response","129","136292","0.0-129.0","3OF2M9AATHAAT2U562RSEB76YAAKZE","AKJLAFX2M86TP","3YO4AH2FPD6XG0OGOBTVFFK58DY0QT","","null","<img src=""img/land1.png"" style=""width:200px;border:14px solid red;"">","null","","","","","","","","","",""
"","image-keyboard-response","130","137794","0.0-130.0","3OF2M9AATHAAT2U562RSEB76YAAKZE","AKJLAFX2M86TP","3YO4AH2FPD6XG0OGOBTVFFK58DY0QT","","","img/land2.png","","1502","-1","0","2","2","1,0.7,0.7,0.7,1,0.7,0.7,0.7,1","1,0.7,0.7,0.7,1,0.7,0.7,0.7,1","","",""
"","html-keyboard-response","131","138098","0.0-131.0","3OF2M9AATHAAT2U562RSEB76YAAKZE","AKJLAFX2M86TP","3YO4AH2FPD6XG0OGOBTVFFK58DY0QT","","null","<img src=""img/land2.png"" style=""width:200px;border:14px solid red;"">","null","","","","","","","","","",""
"","image-keyboard-response","132","139600","0.0-132.0","3OF2M9AATHAAT2U562RSEB76YAAKZE","AKJLAFX2M86TP","3YO4AH2FPD6XG0OGOBTVFFK58DY0QT","","","img/land2.png","","1502","-1","0","2","2","1,0.7,0.7,0.7,1,0.7,0.7,0.7,1","1,0.7,0.7,0.7,1,0.7,0.7,0.7,1","","",""
"","html-keyboard-response","133","139902","0.0-133.0","3OF2M9AATHAAT2U562RSEB76YAAKZE","AKJLAFX2M86TP","3YO4AH2FPD6XG0OGOBTVFFK58DY0QT","","null","<img src=""img/land2.png"" style=""width:200px;border:14px solid red;"">","null","","","","","","","","","",""
"","image-keyboard-response","134","141404","0.0-134.0","3OF2M9AATHAAT2U562RSEB76YAAKZE","AKJLAFX2M86TP","3YO4AH2FPD6XG0OGOBTVFFK58DY0QT","","","img/land3.png","","1501","-1","0","3","2","1,0.7,0.7,0.7,1,0.7,0.7,0.7,1","1,0.7,0.7,0.7,1,0.7,0.7,0.7,1","","",""
"","html-keyboard-response","135","141707","0.0-135.0","3OF2M9AATHAAT2U562RSEB76YAAKZE","AKJLAFX2M86TP","3YO4AH2FPD6XG0OGOBTVFFK58DY0QT","","null","<img src=""img/land3.png"" style=""width:200px;border:14px solid red;"">","null","","","","","","","","","",""
"","image-keyboard-response","136","143216","0.0-136.0","3OF2M9AATHAAT2U562RSEB76YAAKZE","AKJLAFX2M86TP","3YO4AH2FPD6XG0OGOBTVFFK58DY0QT","","","img/land3.png","","1508","-1","0","3","2","1,0.7,0.7,0.7,1,0.7,0.7,0.7,1","1,0.7,0.7,0.7,1,0.7,0.7,0.7,1","","",""
"","html-keyboard-response","137","143517","0.0-137.0","3OF2M9AATHAAT2U562RSEB76YAAKZE","AKJLAFX2M86TP","3YO4AH2FPD6XG0OGOBTVFFK58DY0QT","","null","<img src=""img/land3.png"" style=""width:200px;border:14px solid red;"">","null","","","","","","","","","",""
"","image-keyboard-response","138","145019","0.0-138.0","3OF2M9AATHAAT2U562RSEB76YAAKZE","AKJLAFX2M86TP","3YO4AH2FPD6XG0OGOBTVFFK58DY0QT","","","img/land2.png","","1502","-1","0","2","2","1,0.7,0.7,0.7,1,0.7,0.7,0.7,1","1,0.7,0.7,0.7,1,0.7,0.7,0.7,1","","",""
"","html-keyboard-response","139","145322","0.0-139.0","3OF2M9AATHAAT2U562RSEB76YAAKZE","AKJLAFX2M86TP","3YO4AH2FPD6XG0OGOBTVFFK58DY0QT","","null","<img src=""img/land2.png"" style=""width:200px;border:14px solid red;"">","null","","","","","","","","","",""
"","image-keyboard-response","140","146824","0.0-140.0","3OF2M9AATHAAT2U562RSEB76YAAKZE","AKJLAFX2M86TP","3YO4AH2FPD6XG0OGOBTVFFK58DY0QT","","","img/land2.png","","1501","-1","0","2","2","1,0.7,0.7,0.7,1,0.7,0.7,0.7,1","1,0.7,0.7,0.7,1,0.7,0.7,0.7,1","","",""
"","html-keyboard-response","141","147131","0.0-141.0","3OF2M9AATHAAT2U562RSEB76YAAKZE","AKJLAFX2M86TP","3YO4AH2FPD6XG0OGOBTVFFK58DY0QT","","null","<img src=""img/land2.png"" style=""width:200px;border:14px solid red;"">","null","","","","","","","","","",""
"","image-keyboard-response","142","148634","0.0-142.0","3OF2M9AATHAAT2U562RSEB76YAAKZE","AKJLAFX2M86TP","3YO4AH2FPD6XG0OGOBTVFFK58DY0QT","","","img/land3.png","","1503","-1","0","3","2","1,0.7,0.7,0.7,1,0.7,0.7,0.7,1","1,0.7,0.7,0.7,1,0.7,0.7,0.7,1","","",""
"","html-keyboard-response","143","148939","0.0-143.0","3OF2M9AATHAAT2U562RSEB76YAAKZE","AKJLAFX2M86TP","3YO4AH2FPD6XG0OGOBTVFFK58DY0QT","","null","<img src=""img/land3.png"" style=""width:200px;border:14px solid red;"">","null","","","","","","","","","",""
"","image-keyboard-response","144","150442","0.0-144.0","3OF2M9AATHAAT2U562RSEB76YAAKZE","AKJLAFX2M86TP","3YO4AH2FPD6XG0OGOBTVFFK58DY0QT","","","img/land2.png","","1502","-1","0","2","2","1,0.7,0.7,0.7,1,0.7,0.7,0.7,1","1,0.7,0.7,0.7,1,0.7,0.7,0.7,1","","",""
"","html-keyboard-response","145","150744","0.0-145.0","3OF2M9AATHAAT2U562RSEB76YAAKZE","AKJLAFX2M86TP","3YO4AH2FPD6XG0OGOBTVFFK58DY0QT","","null","<img src=""img/land2.png"" style=""width:200px;border:14px solid red;"">","null","","","","","","","","","",""
"","image-keyboard-response","146","152245","0.0-146.0","3OF2M9AATHAAT2U562RSEB76YAAKZE","AKJLAFX2M86TP","3YO4AH2FPD6XG0OGOBTVFFK58DY0QT","","","img/land1.png","","1500","-1","0","1","2","1,0.7,0.7,0.7,1,0.7,0.7,0.7,1","1,0.7,0.7,0.7,1,0.7,0.7,0.7,1","","",""
"","html-keyboard-response","147","152547","0.0-147.0","3OF2M9AATHAAT2U562RSEB76YAAKZE","AKJLAFX2M86TP","3YO4AH2FPD6XG0OGOBTVFFK58DY0QT","","null","<img src=""img/land1.png"" style=""width:200px;border:14px solid red;"">","null","","","","","","","","","",""
"","image-keyboard-response","148","154052","0.0-148.0","3OF2M9AATHAAT2U562RSEB76YAAKZE","AKJLAFX2M86TP","3YO4AH2FPD6XG0OGOBTVFFK58DY0QT","","","img/land2.png","","1504","-1","0","2","2","1,0.7,0.7,0.7,1,0.7,0.7,0.7,1","1,0.7,0.7,0.7,1,0.7,0.7,0.7,1","","",""
"","html-keyboard-response","149","154354","0.0-149.0","3OF2M9AATHAAT2U562RSEB76YAAKZE","AKJLAFX2M86TP","3YO4AH2FPD6XG0OGOBTVFFK58DY0QT","","null","<img src=""img/land2.png"" style=""width:200px;border:14px solid red;"">","null","","","","","","","","","",""
"","image-keyboard-response","150","155859","0.0-150.0","3OF2M9AATHAAT2U562RSEB76YAAKZE","AKJLAFX2M86TP","3YO4AH2FPD6XG0OGOBTVFFK58DY0QT","","","img/land2.png","","1504","-1","0","2","2","1,0.7,0.7,0.7,1,0.7,0.7,0.7,1","1,0.7,0.7,0.7,1,0.7,0.7,0.7,1","","",""
"","html-keyboard-response","151","156162","0.0-151.0","3OF2M9AATHAAT2U562RSEB76YAAKZE","AKJLAFX2M86TP","3YO4AH2FPD6XG0OGOBTVFFK58DY0QT","","null","<img src=""img/land2.png"" style=""width:200px;border:14px solid red;"">","null","","","","","","","","","",""
"","image-keyboard-response","152","157666","0.0-152.0","3OF2M9AATHAAT2U562RSEB76YAAKZE","AKJLAFX2M86TP","3YO4AH2FPD6XG0OGOBTVFFK58DY0QT","","","img/land3.png","","1502","-1","0","3","2","1,0.7,0.7,0.7,1,0.7,0.7,0.7,1","1,0.7,0.7,0.7,1,0.7,0.7,0.7,1","","",""
"","html-keyboard-response","153","157969","0.0-153.0","3OF2M9AATHAAT2U562RSEB76YAAKZE","AKJLAFX2M86TP","3YO4AH2FPD6XG0OGOBTVFFK58DY0QT","","null","<img src=""img/land3.png"" style=""width:200px;border:14px solid red;"">","null","","","","","","","","","",""
"","image-keyboard-response","154","159471","0.0-154.0","3OF2M9AATHAAT2U562RSEB76YAAKZE","AKJLAFX2M86TP","3YO4AH2FPD6XG0OGOBTVFFK58DY0QT","","","img/land2.png","","1501","-1","0","2","2","1,0.7,0.7,0.7,1,0.7,0.7,0.7,1","1,0.7,0.7,0.7,1,0.7,0.7,0.7,1","","",""
"","html-keyboard-response","155","159773","0.0-155.0","3OF2M9AATHAAT2U562RSEB76YAAKZE","AKJLAFX2M86TP","3YO4AH2FPD6XG0OGOBTVFFK58DY0QT","","null","<img src=""img/land2.png"" style=""width:200px;border:14px solid red;"">","null","","","","","","","","","",""
"","image-keyboard-response","156","161279","0.0-156.0","3OF2M9AATHAAT2U562RSEB76YAAKZE","AKJLAFX2M86TP","3YO4AH2FPD6XG0OGOBTVFFK58DY0QT","","","img/land2.png","","1505","-1","0","2","2","1,0.7,0.7,0.7,1,0.7,0.7,0.7,1","1,0.7,0.7,0.7,1,0.7,0.7,0.7,1","","",""
"","html-keyboard-response","157","161586","0.0-157.0","3OF2M9AATHAAT2U562RSEB76YAAKZE","AKJLAFX2M86TP","3YO4AH2FPD6XG0OGOBTVFFK58DY0QT","","null","<img src=""img/land2.png"" style=""width:200px;border:14px solid red;"">","null","","","","","","","","","",""
"","image-keyboard-response","158","163088","0.0-158.0","3OF2M9AATHAAT2U562RSEB76YAAKZE","AKJLAFX2M86TP","3YO4AH2FPD6XG0OGOBTVFFK58DY0QT","","","img/land2.png","","1501","-1","0","2","2","1,0.7,0.7,0.7,1,0.7,0.7,0.7,1","1,0.7,0.7,0.7,1,0.7,0.7,0.7,1","","",""
"","html-keyboard-response","159","163389","0.0-159.0","3OF2M9AATHAAT2U562RSEB76YAAKZE","AKJLAFX2M86TP","3YO4AH2FPD6XG0OGOBTVFFK58DY0QT","","null","<img src=""img/land2.png"" style=""width:200px;border:14px solid red;"">","null","","","","","","","","","",""
"","image-keyboard-response","160","164891","0.0-160.0","3OF2M9AATHAAT2U562RSEB76YAAKZE","AKJLAFX2M86TP","3YO4AH2FPD6XG0OGOBTVFFK58DY0QT","","","img/land2.png","","1501","-1","0","2","2","1,0.7,0.7,0.7,1,0.7,0.7,0.7,1","1,0.7,0.7,0.7,1,0.7,0.7,0.7,1","","",""
"","html-keyboard-response","161","165193","0.0-161.0","3OF2M9AATHAAT2U562RSEB76YAAKZE","AKJLAFX2M86TP","3YO4AH2FPD6XG0OGOBTVFFK58DY0QT","","null","<img src=""img/land2.png"" style=""width:200px;border:14px solid red;"">","null","","","","","","","","","",""
"","image-keyboard-response","162","166696","0.0-162.0","3OF2M9AATHAAT2U562RSEB76YAAKZE","AKJLAFX2M86TP","3YO4AH2FPD6XG0OGOBTVFFK58DY0QT","","","img/land2.png","","1502","-1","0","2","2","1,0.7,0.7,0.7,1,0.7,0.7,0.7,1","1,0.7,0.7,0.7,1,0.7,0.7,0.7,1","","",""
"","html-keyboard-response","163","167000","0.0-163.0","3OF2M9AATHAAT2U562RSEB76YAAKZE","AKJLAFX2M86TP","3YO4AH2FPD6XG0OGOBTVFFK58DY0QT","","null","<img src=""img/land2.png"" style=""width:200px;border:14px solid red;"">","null","","","","","","","","","",""
"","image-keyboard-response","164","168501","0.0-164.0","3OF2M9AATHAAT2U562RSEB76YAAKZE","AKJLAFX2M86TP","3YO4AH2FPD6XG0OGOBTVFFK58DY0QT","","","img/land2.png","","1501","-1","0","2","2","1,0.7,0.7,0.7,1,0.7,0.7,0.7,1","1,0.7,0.7,0.7,1,0.7,0.7,0.7,1","","",""
"","html-keyboard-response","165","168803","0.0-165.0","3OF2M9AATHAAT2U562RSEB76YAAKZE","AKJLAFX2M86TP","3YO4AH2FPD6XG0OGOBTVFFK58DY0QT","","null","<img src=""img/land2.png"" style=""width:200px;border:14px solid red;"">","null","","","","","","","","","",""
"","image-keyboard-response","166","170305","0.0-166.0","3OF2M9AATHAAT2U562RSEB76YAAKZE","AKJLAFX2M86TP","3YO4AH2FPD6XG0OGOBTVFFK58DY0QT","","","img/land1.png","","1501","-1","0","1","2","1,0.7,0.7,0.7,1,0.7,0.7,0.7,1","1,0.7,0.7,0.7,1,0.7,0.7,0.7,1","","",""
"","html-keyboard-response","167","170607","0.0-167.0","3OF2M9AATHAAT2U562RSEB76YAAKZE","AKJLAFX2M86TP","3YO4AH2FPD6XG0OGOBTVFFK58DY0QT","","null","<img src=""img/land1.png"" style=""width:200px;border:14px solid red;"">","null","","","","","","","","","",""
"","image-keyboard-response","168","172108","0.0-168.0","3OF2M9AATHAAT2U562RSEB76YAAKZE","AKJLAFX2M86TP","3YO4AH2FPD6XG0OGOBTVFFK58DY0QT","","","img/land2.png","","1501","-1","0","2","2","1,0.7,0.7,0.7,1,0.7,0.7,0.7,1","1,0.7,0.7,0.7,1,0.7,0.7,0.7,1","","",""
"","html-keyboard-response","169","172411","0.0-169.0","3OF2M9AATHAAT2U562RSEB76YAAKZE","AKJLAFX2M86TP","3YO4AH2FPD6XG0OGOBTVFFK58DY0QT","","null","<img src=""img/land2.png"" style=""width:200px;border:14px solid red;"">","null","","","","","","","","","",""
"","image-keyboard-response","170","173915","0.0-170.0","3OF2M9AATHAAT2U562RSEB76YAAKZE","AKJLAFX2M86TP","3YO4AH2FPD6XG0OGOBTVFFK58DY0QT","","","img/land1.png","","1503","-1","0","1","2","1,0.7,0.7,0.7,1,0.7,0.7,0.7,1","1,0.7,0.7,0.7,1,0.7,0.7,0.7,1","","",""
"","html-keyboard-response","171","174221","0.0-171.0","3OF2M9AATHAAT2U562RSEB76YAAKZE","AKJLAFX2M86TP","3YO4AH2FPD6XG0OGOBTVFFK58DY0QT","","null","<img src=""img/land1.png"" style=""width:200px;border:14px solid red;"">","null","","","","","","","","","",""
"","image-keyboard-response","172","175726","0.0-172.0","3OF2M9AATHAAT2U562RSEB76YAAKZE","AKJLAFX2M86TP","3YO4AH2FPD6XG0OGOBTVFFK58DY0QT","","","img/land2.png","","1504","-1","0","2","2","1,0.7,0.7,0.7,1,0.7,0.7,0.7,1","1,0.7,0.7,0.7,1,0.7,0.7,0.7,1","","",""
"","html-keyboard-response","173","176029","0.0-173.0","3OF2M9AATHAAT2U562RSEB76YAAKZE","AKJLAFX2M86TP","3YO4AH2FPD6XG0OGOBTVFFK58DY0QT","","null","<img src=""img/land2.png"" style=""width:200px;border:14px solid red;"">","null","","","","","","","","","",""
"","image-keyboard-response","174","177531","0.0-174.0","3OF2M9AATHAAT2U562RSEB76YAAKZE","AKJLAFX2M86TP","3YO4AH2FPD6XG0OGOBTVFFK58DY0QT","","","img/land2.png","","1502","-1","0","2","2","1,0.7,0.7,0.7,1,0.7,0.7,0.7,1","1,0.7,0.7,0.7,1,0.7,0.7,0.7,1","","",""
"","html-keyboard-response","175","177834","0.0-175.0","3OF2M9AATHAAT2U562RSEB76YAAKZE","AKJLAFX2M86TP","3YO4AH2FPD6XG0OGOBTVFFK58DY0QT","","null","<img src=""img/land2.png"" style=""width:200px;border:14px solid red;"">","null","","","","","","","","","",""
"","image-keyboard-response","176","179337","0.0-176.0","3OF2M9AATHAAT2U562RSEB76YAAKZE","AKJLAFX2M86TP","3YO4AH2FPD6XG0OGOBTVFFK58DY0QT","","","img/land2.png","","1502","-1","0","2","2","1,0.7,0.7,0.7,1,0.7,0.7,0.7,1","1,0.7,0.7,0.7,1,0.7,0.7,0.7,1","","",""
"","html-keyboard-response","177","179639","0.0-177.0","3OF2M9AATHAAT2U562RSEB76YAAKZE","AKJLAFX2M86TP","3YO4AH2FPD6XG0OGOBTVFFK58DY0QT","","null","<img src=""img/land2.png"" style=""width:200px;border:14px solid red;"">","null","","","","","","","","","",""
"","image-keyboard-response","178","181141","0.0-178.0","3OF2M9AATHAAT2U562RSEB76YAAKZE","AKJLAFX2M86TP","3YO4AH2FPD6XG0OGOBTVFFK58DY0QT","","","img/land2.png","","1502","-1","0","2","2","1,0.7,0.7,0.7,1,0.7,0.7,0.7,1","1,0.7,0.7,0.7,1,0.7,0.7,0.7,1","","",""
"","html-keyboard-response","179","181444","0.0-179.0","3OF2M9AATHAAT2U562RSEB76YAAKZE","AKJLAFX2M86TP","3YO4AH2FPD6XG0OGOBTVFFK58DY0QT","","null","<img src=""img/land2.png"" style=""width:200px;border:14px solid red;"">","null","","","","","","","","","",""
"","image-keyboard-response","180","182946","0.0-180.0","3OF2M9AATHAAT2U562RSEB76YAAKZE","AKJLAFX2M86TP","3YO4AH2FPD6XG0OGOBTVFFK58DY0QT","","","img/land2.png","","1501","-1","0","2","2","1,0.7,0.7,0.7,1,0.7,0.7,0.7,1","1,0.7,0.7,0.7,1,0.7,0.7,0.7,1","","",""
"","html-keyboard-response","181","183258","0.0-181.0","3OF2M9AATHAAT2U562RSEB76YAAKZE","AKJLAFX2M86TP","3YO4AH2FPD6XG0OGOBTVFFK58DY0QT","","null","<img src=""img/land2.png"" style=""width:200px;border:14px solid red;"">","null","","","","","","","","","",""
"","image-keyboard-response","182","184762","0.0-182.0","3OF2M9AATHAAT2U562RSEB76YAAKZE","AKJLAFX2M86TP","3YO4AH2FPD6XG0OGOBTVFFK58DY0QT","","","img/land2.png","","1504","-1","0","2","2","1,0.7,0.7,0.7,1,0.7,0.7,0.7,1","1,0.7,0.7,0.7,1,0.7,0.7,0.7,1","","",""
"","html-keyboard-response","183","185068","0.0-183.0","3OF2M9AATHAAT2U562RSEB76YAAKZE","AKJLAFX2M86TP","3YO4AH2FPD6XG0OGOBTVFFK58DY0QT","","null","<img src=""img/land2.png"" style=""width:200px;border:14px solid red;"">","null","","","","","","","","","",""
"","image-keyboard-response","184","186570","0.0-184.0","3OF2M9AATHAAT2U562RSEB76YAAKZE","AKJLAFX2M86TP","3YO4AH2FPD6XG0OGOBTVFFK58DY0QT","","","img/land2.png","","1501","-1","0","2","2","1,0.7,0.7,0.7,1,0.7,0.7,0.7,1","1,0.7,0.7,0.7,1,0.7,0.7,0.7,1","","",""
"","html-keyboard-response","185","186873","0.0-185.0","3OF2M9AATHAAT2U562RSEB76YAAKZE","AKJLAFX2M86TP","3YO4AH2FPD6XG0OGOBTVFFK58DY0QT","","null","<img src=""img/land2.png"" style=""width:200px;border:14px solid red;"">","null","","","","","","","","","",""
"","image-keyboard-response","186","188375","0.0-186.0","3OF2M9AATHAAT2U562RSEB76YAAKZE","AKJLAFX2M86TP","3YO4AH2FPD6XG0OGOBTVFFK58DY0QT","","","img/land1.png","","1501","-1","0","1","2","1,0.7,0.7,0.7,1,0.7,0.7,0.7,1","1,0.7,0.7,0.7,1,0.7,0.7,0.7,1","","",""
"","html-keyboard-response","187","188678","0.0-187.0","3OF2M9AATHAAT2U562RSEB76YAAKZE","AKJLAFX2M86TP","3YO4AH2FPD6XG0OGOBTVFFK58DY0QT","","null","<img src=""img/land1.png"" style=""width:200px;border:14px solid red;"">","null","","","","","","","","","",""
"","image-keyboard-response","188","190182","0.0-188.0","3OF2M9AATHAAT2U562RSEB76YAAKZE","AKJLAFX2M86TP","3YO4AH2FPD6XG0OGOBTVFFK58DY0QT","","","img/land3.png","","1504","-1","0","3","2","1,0.7,0.7,0.7,1,0.7,0.7,0.7,1","1,0.7,0.7,0.7,1,0.7,0.7,0.7,1","","",""
"","html-keyboard-response","189","190487","0.0-189.0","3OF2M9AATHAAT2U562RSEB76YAAKZE","AKJLAFX2M86TP","3YO4AH2FPD6XG0OGOBTVFFK58DY0QT","","null","<img src=""img/land3.png"" style=""width:200px;border:14px solid red;"">","null","","","","","","","","","",""
"","image-keyboard-response","190","191995","0.0-190.0","3OF2M9AATHAAT2U562RSEB76YAAKZE","AKJLAFX2M86TP","3YO4AH2FPD6XG0OGOBTVFFK58DY0QT","","","img/land2.png","","1507","-1","0","2","2","1,0.7,0.7,0.7,1,0.7,0.7,0.7,1","1,0.7,0.7,0.7,1,0.7,0.7,0.7,1","","",""
"","html-keyboard-response","191","192296","0.0-191.0","3OF2M9AATHAAT2U562RSEB76YAAKZE","AKJLAFX2M86TP","3YO4AH2FPD6XG0OGOBTVFFK58DY0QT","","null","<img src=""img/land2.png"" style=""width:200px;border:14px solid red;"">","null","","","","","","","","","",""
"","image-keyboard-response","192","193801","0.0-192.0","3OF2M9AATHAAT2U562RSEB76YAAKZE","AKJLAFX2M86TP","3YO4AH2FPD6XG0OGOBTVFFK58DY0QT","","","img/land1.png","","1504","-1","0","1","2","1,0.7,0.7,0.7,1,0.7,0.7,0.7,1","1,0.7,0.7,0.7,1,0.7,0.7,0.7,1","","",""
"","html-keyboard-response","193","194104","0.0-193.0","3OF2M9AATHAAT2U562RSEB76YAAKZE","AKJLAFX2M86TP","3YO4AH2FPD6XG0OGOBTVFFK58DY0QT","","null","<img src=""img/land1.png"" style=""width:200px;border:14px solid red;"">","null","","","","","","","","","",""
"","image-keyboard-response","194","195608","0.0-194.0","3OF2M9AATHAAT2U562RSEB76YAAKZE","AKJLAFX2M86TP","3YO4AH2FPD6XG0OGOBTVFFK58DY0QT","","","img/land3.png","","1503","-1","0","3","2","1,0.7,0.7,0.7,1,0.7,0.7,0.7,1","1,0.7,0.7,0.7,1,0.7,0.7,0.7,1","","",""
"","html-keyboard-response","195","195912","0.0-195.0","3OF2M9AATHAAT2U562RSEB76YAAKZE","AKJLAFX2M86TP","3YO4AH2FPD6XG0OGOBTVFFK58DY0QT","","null","<img src=""img/land3.png"" style=""width:200px;border:14px solid red;"">","null","","","","","","","","","",""
"","image-keyboard-response","196","197415","0.0-196.0","3OF2M9AATHAAT2U562RSEB76YAAKZE","AKJLAFX2M86TP","3YO4AH2FPD6XG0OGOBTVFFK58DY0QT","","","img/land3.png","","1503","-1","0","3","2","1,0.7,0.7,0.7,1,0.7,0.7,0.7,1","1,0.7,0.7,0.7,1,0.7,0.7,0.7,1","","",""
"","html-keyboard-response","197","197718","0.0-197.0","3OF2M9AATHAAT2U562RSEB76YAAKZE","AKJLAFX2M86TP","3YO4AH2FPD6XG0OGOBTVFFK58DY0QT","","null","<img src=""img/land3.png"" style=""width:200px;border:14px solid red;"">","null","","","","","","","","","",""
"","image-keyboard-response","198","199221","0.0-198.0","3OF2M9AATHAAT2U562RSEB76YAAKZE","AKJLAFX2M86TP","3YO4AH2FPD6XG0OGOBTVFFK58DY0QT","","","img/land2.png","","1503","-1","0","2","2","1,0.7,0.7,0.7,1,0.7,0.7,0.7,1","1,0.7,0.7,0.7,1,0.7,0.7,0.7,1","","",""
"","html-keyboard-response","199","199524","0.0-199.0","3OF2M9AATHAAT2U562RSEB76YAAKZE","AKJLAFX2M86TP","3YO4AH2FPD6XG0OGOBTVFFK58DY0QT","","null","<img src=""img/land2.png"" style=""width:200px;border:14px solid red;"">","null","","","","","","","","","",""
"","image-keyboard-response","200","201026","0.0-200.0","3OF2M9AATHAAT2U562RSEB76YAAKZE","AKJLAFX2M86TP","3YO4AH2FPD6XG0OGOBTVFFK58DY0QT","","","img/land2.png","","1502","-1","0","2","2","1,0.7,0.7,0.7,1,0.7,0.7,0.7,1","1,0.7,0.7,0.7,1,0.7,0.7,0.7,1","","",""
"","html-keyboard-response","201","201328","0.0-201.0","3OF2M9AATHAAT2U562RSEB76YAAKZE","AKJLAFX2M86TP","3YO4AH2FPD6XG0OGOBTVFFK58DY0QT","","null","<img src=""img/land2.png"" style=""width:200px;border:14px solid red;"">","null","","","","","","","","","",""
"","image-keyboard-response","202","202831","0.0-202.0","3OF2M9AATHAAT2U562RSEB76YAAKZE","AKJLAFX2M86TP","3YO4AH2FPD6XG0OGOBTVFFK58DY0QT","","","img/land1.png","","1502","-1","0","1","2","1,0.7,0.7,0.7,1,0.7,0.7,0.7,1","1,0.7,0.7,0.7,1,0.7,0.7,0.7,1","","",""
"","html-keyboard-response","203","203133","0.0-203.0","3OF2M9AATHAAT2U562RSEB76YAAKZE","AKJLAFX2M86TP","3YO4AH2FPD6XG0OGOBTVFFK58DY0QT","","null","<img src=""img/land1.png"" style=""width:200px;border:14px solid red;"">","null","","","","","","","","","",""
"","image-keyboard-response","204","204635","0.0-204.0","3OF2M9AATHAAT2U562RSEB76YAAKZE","AKJLAFX2M86TP","3YO4AH2FPD6XG0OGOBTVFFK58DY0QT","","","img/land1.png","","1501","-1","0","1","2","1,0.7,0.7,0.7,1,0.7,0.7,0.7,1","1,0.7,0.7,0.7,1,0.7,0.7,0.7,1","","",""
"","html-keyboard-response","205","204936","0.0-205.0","3OF2M9AATHAAT2U562RSEB76YAAKZE","AKJLAFX2M86TP","3YO4AH2FPD6XG0OGOBTVFFK58DY0QT","","null","<img src=""img/land1.png"" style=""width:200px;border:14px solid red;"">","null","","","","","","","","","",""
"","image-keyboard-response","206","206438","0.0-206.0","3OF2M9AATHAAT2U562RSEB76YAAKZE","AKJLAFX2M86TP","3YO4AH2FPD6XG0OGOBTVFFK58DY0QT","","","img/land3.png","","1501","-1","0","3","2","1,0.7,0.7,0.7,1,0.7,0.7,0.7,1","1,0.7,0.7,0.7,1,0.7,0.7,0.7,1","","",""
"","html-keyboard-response","207","206740","0.0-207.0","3OF2M9AATHAAT2U562RSEB76YAAKZE","AKJLAFX2M86TP","3YO4AH2FPD6XG0OGOBTVFFK58DY0QT","","null","<img src=""img/land3.png"" style=""width:200px;border:14px solid red;"">","null","","","","","","","","","",""
"","image-keyboard-response","208","208242","0.0-208.0","3OF2M9AATHAAT2U562RSEB76YAAKZE","AKJLAFX2M86TP","3YO4AH2FPD6XG0OGOBTVFFK58DY0QT","","","img/land2.png","","1501","-1","0","2","2","1,0.7,0.7,0.7,1,0.7,0.7,0.7,1","1,0.7,0.7,0.7,1,0.7,0.7,0.7,1","","",""
"","html-keyboard-response","209","208544","0.0-209.0","3OF2M9AATHAAT2U562RSEB76YAAKZE","AKJLAFX2M86TP","3YO4AH2FPD6XG0OGOBTVFFK58DY0QT","","null","<img src=""img/land2.png"" style=""width:200px;border:14px solid red;"">","null","","","","","","","","","",""
"","image-keyboard-response","210","210047","0.0-210.0","3OF2M9AATHAAT2U562RSEB76YAAKZE","AKJLAFX2M86TP","3YO4AH2FPD6XG0OGOBTVFFK58DY0QT","","","img/land2.png","","1503","-1","0","2","2","1,0.7,0.7,0.7,1,0.7,0.7,0.7,1","1,0.7,0.7,0.7,1,0.7,0.7,0.7,1","","",""
"","html-keyboard-response","211","210350","0.0-211.0","3OF2M9AATHAAT2U562RSEB76YAAKZE","AKJLAFX2M86TP","3YO4AH2FPD6XG0OGOBTVFFK58DY0QT","","null","<img src=""img/land2.png"" style=""width:200px;border:14px solid red;"">","null","","","","","","","","","",""
"","image-keyboard-response","212","211853","0.0-212.0","3OF2M9AATHAAT2U562RSEB76YAAKZE","AKJLAFX2M86TP","3YO4AH2FPD6XG0OGOBTVFFK58DY0QT","","","img/land2.png","","1502","-1","0","2","2","1,0.7,0.7,0.7,1,0.7,0.7,0.7,1","1,0.7,0.7,0.7,1,0.7,0.7,0.7,1","","",""
"","html-keyboard-response","213","212156","0.0-213.0","3OF2M9AATHAAT2U562RSEB76YAAKZE","AKJLAFX2M86TP","3YO4AH2FPD6XG0OGOBTVFFK58DY0QT","","null","<img src=""img/land2.png"" style=""width:200px;border:14px solid red;"">","null","","","","","","","","","",""
"","image-keyboard-response","214","213658","0.0-214.0","3OF2M9AATHAAT2U562RSEB76YAAKZE","AKJLAFX2M86TP","3YO4AH2FPD6XG0OGOBTVFFK58DY0QT","","","img/land2.png","","1503","-1","0","2","2","1,0.7,0.7,0.7,1,0.7,0.7,0.7,1","1,0.7,0.7,0.7,1,0.7,0.7,0.7,1","","",""
"","html-keyboard-response","215","213962","0.0-215.0","3OF2M9AATHAAT2U562RSEB76YAAKZE","AKJLAFX2M86TP","3YO4AH2FPD6XG0OGOBTVFFK58DY0QT","","null","<img src=""img/land2.png"" style=""width:200px;border:14px solid red;"">","null","","","","","","","","","",""
"","image-keyboard-response","216","215467","0.0-216.0","3OF2M9AATHAAT2U562RSEB76YAAKZE","AKJLAFX2M86TP","3YO4AH2FPD6XG0OGOBTVFFK58DY0QT","","","img/land3.png","","1508","-1","0","3","2","1,0.7,0.7,0.7,1,0.7,0.7,0.7,1","1,0.7,0.7,0.7,1,0.7,0.7,0.7,1","","",""
"","html-keyboard-response","217","215773","0.0-217.0","3OF2M9AATHAAT2U562RSEB76YAAKZE","AKJLAFX2M86TP","3YO4AH2FPD6XG0OGOBTVFFK58DY0QT","","null","<img src=""img/land3.png"" style=""width:200px;border:14px solid red;"">","null","","","","","","","","","",""
"","image-keyboard-response","218","217276","0.0-218.0","3OF2M9AATHAAT2U562RSEB76YAAKZE","AKJLAFX2M86TP","3YO4AH2FPD6XG0OGOBTVFFK58DY0QT","","","img/land3.png","","1502","-1","0","3","2","1,0.7,0.7,0.7,1,0.7,0.7,0.7,1","1,0.7,0.7,0.7,1,0.7,0.7,0.7,1","","",""
"","html-keyboard-response","219","217577","0.0-219.0","3OF2M9AATHAAT2U562RSEB76YAAKZE","AKJLAFX2M86TP","3YO4AH2FPD6XG0OGOBTVFFK58DY0QT","","null","<img src=""img/land3.png"" style=""width:200px;border:14px solid red;"">","null","","","","","","","","","",""
"","image-keyboard-response","220","219100","0.0-220.0","3OF2M9AATHAAT2U562RSEB76YAAKZE","AKJLAFX2M86TP","3YO4AH2FPD6XG0OGOBTVFFK58DY0QT","","","img/land2.png","","1522","-1","0","2","2","1,0.7,0.7,0.7,1,0.7,0.7,0.7,1","1,0.7,0.7,0.7,1,0.7,0.7,0.7,1","","",""
"","html-keyboard-response","221","219401","0.0-221.0","3OF2M9AATHAAT2U562RSEB76YAAKZE","AKJLAFX2M86TP","3YO4AH2FPD6XG0OGOBTVFFK58DY0QT","","null","<img src=""img/land2.png"" style=""width:200px;border:14px solid red;"">","null","","","","","","","","","",""
"","image-keyboard-response","222","220904","0.0-222.0","3OF2M9AATHAAT2U562RSEB76YAAKZE","AKJLAFX2M86TP","3YO4AH2FPD6XG0OGOBTVFFK58DY0QT","","","img/land1.png","","1502","-1","0","1","2","1,0.7,0.7,0.7,1,0.7,0.7,0.7,1","1,0.7,0.7,0.7,1,0.7,0.7,0.7,1","","",""
"","html-keyboard-response","223","221207","0.0-223.0","3OF2M9AATHAAT2U562RSEB76YAAKZE","AKJLAFX2M86TP","3YO4AH2FPD6XG0OGOBTVFFK58DY0QT","","null","<img src=""img/land1.png"" style=""width:200px;border:14px solid red;"">","null","","","","","","","","","",""
"","image-keyboard-response","224","222712","0.0-224.0","3OF2M9AATHAAT2U562RSEB76YAAKZE","AKJLAFX2M86TP","3YO4AH2FPD6XG0OGOBTVFFK58DY0QT","","","img/land3.png","","1505","-1","0","3","2","1,0.7,0.7,0.7,1,0.7,0.7,0.7,1","1,0.7,0.7,0.7,1,0.7,0.7,0.7,1","","",""
"","html-keyboard-response","225","223017","0.0-225.0","3OF2M9AATHAAT2U562RSEB76YAAKZE","AKJLAFX2M86TP","3YO4AH2FPD6XG0OGOBTVFFK58DY0QT","","null","<img src=""img/land3.png"" style=""width:200px;border:14px solid red;"">","null","","","","","","","","","",""
"","image-keyboard-response","226","224518","0.0-226.0","3OF2M9AATHAAT2U562RSEB76YAAKZE","AKJLAFX2M86TP","3YO4AH2FPD6XG0OGOBTVFFK58DY0QT","","","img/land3.png","","1501","-1","0","3","2","1,0.7,0.7,0.7,1,0.7,0.7,0.7,1","1,0.7,0.7,0.7,1,0.7,0.7,0.7,1","","",""
"","html-keyboard-response","227","224822","0.0-227.0","3OF2M9AATHAAT2U562RSEB76YAAKZE","AKJLAFX2M86TP","3YO4AH2FPD6XG0OGOBTVFFK58DY0QT","","null","<img src=""img/land3.png"" style=""width:200px;border:14px solid red;"">","null","","","","","","","","","",""
"","image-keyboard-response","228","226323","0.0-228.0","3OF2M9AATHAAT2U562RSEB76YAAKZE","AKJLAFX2M86TP","3YO4AH2FPD6XG0OGOBTVFFK58DY0QT","","","img/land2.png","","1501","-1","0","2","2","1,0.7,0.7,0.7,1,0.7,0.7,0.7,1","1,0.7,0.7,0.7,1,0.7,0.7,0.7,1","","",""
"","html-keyboard-response","229","226626","0.0-229.0","3OF2M9AATHAAT2U562RSEB76YAAKZE","AKJLAFX2M86TP","3YO4AH2FPD6XG0OGOBTVFFK58DY0QT","","null","<img src=""img/land2.png"" style=""width:200px;border:14px solid red;"">","null","","","","","","","","","",""
"","image-keyboard-response","230","228128","0.0-230.0","3OF2M9AATHAAT2U562RSEB76YAAKZE","AKJLAFX2M86TP","3YO4AH2FPD6XG0OGOBTVFFK58DY0QT","","","img/land2.png","","1501","-1","0","2","2","1,0.7,0.7,0.7,1,0.7,0.7,0.7,1","1,0.7,0.7,0.7,1,0.7,0.7,0.7,1","","",""
"","html-keyboard-response","231","228429","0.0-231.0","3OF2M9AATHAAT2U562RSEB76YAAKZE","AKJLAFX2M86TP","3YO4AH2FPD6XG0OGOBTVFFK58DY0QT","","null","<img src=""img/land2.png"" style=""width:200px;border:14px solid red;"">","null","","","","","","","","","",""
"","image-keyboard-response","232","229931","0.0-232.0","3OF2M9AATHAAT2U562RSEB76YAAKZE","AKJLAFX2M86TP","3YO4AH2FPD6XG0OGOBTVFFK58DY0QT","","","img/land3.png","","1501","-1","0","3","2","1,0.7,0.7,0.7,1,0.7,0.7,0.7,1","1,0.7,0.7,0.7,1,0.7,0.7,0.7,1","","",""
"","html-keyboard-response","233","230233","0.0-233.0","3OF2M9AATHAAT2U562RSEB76YAAKZE","AKJLAFX2M86TP","3YO4AH2FPD6XG0OGOBTVFFK58DY0QT","","null","<img src=""img/land3.png"" style=""width:200px;border:14px solid red;"">","null","","","","","","","","","",""
"","image-keyboard-response","234","231737","0.0-234.0","3OF2M9AATHAAT2U562RSEB76YAAKZE","AKJLAFX2M86TP","3YO4AH2FPD6XG0OGOBTVFFK58DY0QT","","","img/land3.png","","1503","-1","0","3","2","1,0.7,0.7,0.7,1,0.7,0.7,0.7,1","1,0.7,0.7,0.7,1,0.7,0.7,0.7,1","","",""
"","html-keyboard-response","235","232040","0.0-235.0","3OF2M9AATHAAT2U562RSEB76YAAKZE","AKJLAFX2M86TP","3YO4AH2FPD6XG0OGOBTVFFK58DY0QT","","null","<img src=""img/land3.png"" style=""width:200px;border:14px solid red;"">","null","","","","","","","","","",""
"","image-keyboard-response","236","233541","0.0-236.0","3OF2M9AATHAAT2U562RSEB76YAAKZE","AKJLAFX2M86TP","3YO4AH2FPD6XG0OGOBTVFFK58DY0QT","","","img/land2.png","","1501","-1","0","2","2","1,0.7,0.7,0.7,1,0.7,0.7,0.7,1","1,0.7,0.7,0.7,1,0.7,0.7,0.7,1","","",""
"","html-keyboard-response","237","233843","0.0-237.0","3OF2M9AATHAAT2U562RSEB76YAAKZE","AKJLAFX2M86TP","3YO4AH2FPD6XG0OGOBTVFFK58DY0QT","","null","<img src=""img/land2.png"" style=""width:200px;border:14px solid red;"">","null","","","","","","","","","",""
"","image-keyboard-response","238","235345","0.0-238.0","3OF2M9AATHAAT2U562RSEB76YAAKZE","AKJLAFX2M86TP","3YO4AH2FPD6XG0OGOBTVFFK58DY0QT","","","img/land2.png","","1502","-1","0","2","2","1,0.7,0.7,0.7,1,0.7,0.7,0.7,1","1,0.7,0.7,0.7,1,0.7,0.7,0.7,1","","",""
"","html-keyboard-response","239","235647","0.0-239.0","3OF2M9AATHAAT2U562RSEB76YAAKZE","AKJLAFX2M86TP","3YO4AH2FPD6XG0OGOBTVFFK58DY0QT","","null","<img src=""img/land2.png"" style=""width:200px;border:14px solid red;"">","null","","","","","","","","","",""
"","image-keyboard-response","240","237149","0.0-240.0","3OF2M9AATHAAT2U562RSEB76YAAKZE","AKJLAFX2M86TP","3YO4AH2FPD6XG0OGOBTVFFK58DY0QT","","","img/land2.png","","1501","-1","0","2","2","1,0.7,0.7,0.7,1,0.7,0.7,0.7,1","1,0.7,0.7,0.7,1,0.7,0.7,0.7,1","","",""
"","html-keyboard-response","241","237451","0.0-241.0","3OF2M9AATHAAT2U562RSEB76YAAKZE","AKJLAFX2M86TP","3YO4AH2FPD6XG0OGOBTVFFK58DY0QT","","null","<img src=""img/land2.png"" style=""width:200px;border:14px solid red;"">","null","","","","","","","","","",""
"","image-keyboard-response","242","238954","0.0-242.0","3OF2M9AATHAAT2U562RSEB76YAAKZE","AKJLAFX2M86TP","3YO4AH2FPD6XG0OGOBTVFFK58DY0QT","","","img/land1.png","","1501","-1","0","1","2","1,0.7,0.7,0.7,1,0.7,0.7,0.7,1","1,0.7,0.7,0.7,1,0.7,0.7,0.7,1","","",""
"","html-keyboard-response","243","239257","0.0-243.0","3OF2M9AATHAAT2U562RSEB76YAAKZE","AKJLAFX2M86TP","3YO4AH2FPD6XG0OGOBTVFFK58DY0QT","","null","<img src=""img/land1.png"" style=""width:200px;border:14px solid red;"">","null","","","","","","","","","",""
"","image-keyboard-response","244","240760","0.0-244.0","3OF2M9AATHAAT2U562RSEB76YAAKZE","AKJLAFX2M86TP","3YO4AH2FPD6XG0OGOBTVFFK58DY0QT","","","img/land3.png","","1502","-1","0","3","2","1,0.7,0.7,0.7,1,0.7,0.7,0.7,1","1,0.7,0.7,0.7,1,0.7,0.7,0.7,1","","",""
"","html-keyboard-response","245","241064","0.0-245.0","3OF2M9AATHAAT2U562RSEB76YAAKZE","AKJLAFX2M86TP","3YO4AH2FPD6XG0OGOBTVFFK58DY0QT","","null","<img src=""img/land3.png"" style=""width:200px;border:14px solid red;"">","null","","","","","","","","","",""
"","image-keyboard-response","246","242567","0.0-246.0","3OF2M9AATHAAT2U562RSEB76YAAKZE","AKJLAFX2M86TP","3YO4AH2FPD6XG0OGOBTVFFK58DY0QT","","","img/land2.png","","1502","-1","0","2","2","1,0.7,0.7,0.7,1,0.7,0.7,0.7,1","1,0.7,0.7,0.7,1,0.7,0.7,0.7,1","","",""
"","html-keyboard-response","247","242870","0.0-247.0","3OF2M9AATHAAT2U562RSEB76YAAKZE","AKJLAFX2M86TP","3YO4AH2FPD6XG0OGOBTVFFK58DY0QT","","null","<img src=""img/land2.png"" style=""width:200px;border:14px solid red;"">","null","","","","","","","","","",""
"","image-keyboard-response","248","244373","0.0-248.0","3OF2M9AATHAAT2U562RSEB76YAAKZE","AKJLAFX2M86TP","3YO4AH2FPD6XG0OGOBTVFFK58DY0QT","","","img/land2.png","","1502","-1","0","2","2","1,0.7,0.7,0.7,1,0.7,0.7,0.7,1","1,0.7,0.7,0.7,1,0.7,0.7,0.7,1","","",""
"","html-keyboard-response","249","244676","0.0-249.0","3OF2M9AATHAAT2U562RSEB76YAAKZE","AKJLAFX2M86TP","3YO4AH2FPD6XG0OGOBTVFFK58DY0QT","","null","<img src=""img/land2.png"" style=""width:200px;border:14px solid red;"">","null","","","","","","","","","",""
"","image-keyboard-response","250","246226","0.0-250.0","3OF2M9AATHAAT2U562RSEB76YAAKZE","AKJLAFX2M86TP","3YO4AH2FPD6XG0OGOBTVFFK58DY0QT","","","img/land1.png","","1549","-1","0","1","2","1,0.7,0.7,0.7,1,0.7,0.7,0.7,1","1,0.7,0.7,0.7,1,0.7,0.7,0.7,1","","",""
"","html-keyboard-response","251","246528","0.0-251.0","3OF2M9AATHAAT2U562RSEB76YAAKZE","AKJLAFX2M86TP","3YO4AH2FPD6XG0OGOBTVFFK58DY0QT","","null","<img src=""img/land1.png"" style=""width:200px;border:14px solid red;"">","null","","","","","","","","","",""
"","image-keyboard-response","252","248032","0.0-252.0","3OF2M9AATHAAT2U562RSEB76YAAKZE","AKJLAFX2M86TP","3YO4AH2FPD6XG0OGOBTVFFK58DY0QT","","","img/land2.png","","1503","-1","0","2","2","1,0.7,0.7,0.7,1,0.7,0.7,0.7,1","1,0.7,0.7,0.7,1,0.7,0.7,0.7,1","","",""
"","html-keyboard-response","253","248346","0.0-253.0","3OF2M9AATHAAT2U562RSEB76YAAKZE","AKJLAFX2M86TP","3YO4AH2FPD6XG0OGOBTVFFK58DY0QT","","null","<img src=""img/land2.png"" style=""width:200px;border:14px solid red;"">","null","","","","","","","","","",""
"","image-keyboard-response","254","249850","0.0-254.0","3OF2M9AATHAAT2U562RSEB76YAAKZE","AKJLAFX2M86TP","3YO4AH2FPD6XG0OGOBTVFFK58DY0QT","","","img/land1.png","","1503","-1","0","1","2","1,0.7,0.7,0.7,1,0.7,0.7,0.7,1","1,0.7,0.7,0.7,1,0.7,0.7,0.7,1","","",""
"","html-keyboard-response","255","250151","0.0-255.0","3OF2M9AATHAAT2U562RSEB76YAAKZE","AKJLAFX2M86TP","3YO4AH2FPD6XG0OGOBTVFFK58DY0QT","","null","<img src=""img/land1.png"" style=""width:200px;border:14px solid red;"">","null","","","","","","","","","",""
"","image-keyboard-response","256","251652","0.0-256.0","3OF2M9AATHAAT2U562RSEB76YAAKZE","AKJLAFX2M86TP","3YO4AH2FPD6XG0OGOBTVFFK58DY0QT","","","img/land2.png","","1501","-1","0","2","2","1,0.7,0.7,0.7,1,0.7,0.7,0.7,1","1,0.7,0.7,0.7,1,0.7,0.7,0.7,1","","",""
"","html-keyboard-response","257","251956","0.0-257.0","3OF2M9AATHAAT2U562RSEB76YAAKZE","AKJLAFX2M86TP","3YO4AH2FPD6XG0OGOBTVFFK58DY0QT","","null","<img src=""img/land2.png"" style=""width:200px;border:14px solid red;"">","null","","","","","","","","","",""
"","image-keyboard-response","258","253458","0.0-258.0","3OF2M9AATHAAT2U562RSEB76YAAKZE","AKJLAFX2M86TP","3YO4AH2FPD6XG0OGOBTVFFK58DY0QT","","","img/land2.png","","1502","-1","0","2","2","1,0.7,0.7,0.7,1,0.7,0.7,0.7,1","1,0.7,0.7,0.7,1,0.7,0.7,0.7,1","","",""
"","html-keyboard-response","259","253761","0.0-259.0","3OF2M9AATHAAT2U562RSEB76YAAKZE","AKJLAFX2M86TP","3YO4AH2FPD6XG0OGOBTVFFK58DY0QT","","null","<img src=""img/land2.png"" style=""width:200px;border:14px solid red;"">","null","","","","","","","","","",""
"","image-keyboard-response","260","255264","0.0-260.0","3OF2M9AATHAAT2U562RSEB76YAAKZE","AKJLAFX2M86TP","3YO4AH2FPD6XG0OGOBTVFFK58DY0QT","","","img/land1.png","","1502","-1","0","1","2","1,0.7,0.7,0.7,1,0.7,0.7,0.7,1","1,0.7,0.7,0.7,1,0.7,0.7,0.7,1","","",""
"","html-keyboard-response","261","255566","0.0-261.0","3OF2M9AATHAAT2U562RSEB76YAAKZE","AKJLAFX2M86TP","3YO4AH2FPD6XG0OGOBTVFFK58DY0QT","","null","<img src=""img/land1.png"" style=""width:200px;border:14px solid red;"">","null","","","","","","","","","",""
"","image-keyboard-response","262","257067","0.0-262.0","3OF2M9AATHAAT2U562RSEB76YAAKZE","AKJLAFX2M86TP","3YO4AH2FPD6XG0OGOBTVFFK58DY0QT","","","img/land2.png","","1500","-1","0","2","2","1,0.7,0.7,0.7,1,0.7,0.7,0.7,1","1,0.7,0.7,0.7,1,0.7,0.7,0.7,1","","",""
"","html-keyboard-response","263","257371","0.0-263.0","3OF2M9AATHAAT2U562RSEB76YAAKZE","AKJLAFX2M86TP","3YO4AH2FPD6XG0OGOBTVFFK58DY0QT","","null","<img src=""img/land2.png"" style=""width:200px;border:14px solid red;"">","null","","","","","","","","","",""
"","image-keyboard-response","264","258874","0.0-264.0","3OF2M9AATHAAT2U562RSEB76YAAKZE","AKJLAFX2M86TP","3YO4AH2FPD6XG0OGOBTVFFK58DY0QT","","","img/land1.png","","1502","-1","0","1","2","1,0.7,0.7,0.7,1,0.7,0.7,0.7,1","1,0.7,0.7,0.7,1,0.7,0.7,0.7,1","","",""
"","html-keyboard-response","265","259177","0.0-265.0","3OF2M9AATHAAT2U562RSEB76YAAKZE","AKJLAFX2M86TP","3YO4AH2FPD6XG0OGOBTVFFK58DY0QT","","null","<img src=""img/land1.png"" style=""width:200px;border:14px solid red;"">","null","","","","","","","","","",""
"","image-keyboard-response","266","260683","0.0-266.0","3OF2M9AATHAAT2U562RSEB76YAAKZE","AKJLAFX2M86TP","3YO4AH2FPD6XG0OGOBTVFFK58DY0QT","","","img/land2.png","","1505","-1","0","2","2","1,0.7,0.7,0.7,1,0.7,0.7,0.7,1","1,0.7,0.7,0.7,1,0.7,0.7,0.7,1","","",""
"","html-keyboard-response","267","260987","0.0-267.0","3OF2M9AATHAAT2U562RSEB76YAAKZE","AKJLAFX2M86TP","3YO4AH2FPD6XG0OGOBTVFFK58DY0QT","","null","<img src=""img/land2.png"" style=""width:200px;border:14px solid red;"">","null","","","","","","","","","",""
"","image-keyboard-response","268","262491","0.0-268.0","3OF2M9AATHAAT2U562RSEB76YAAKZE","AKJLAFX2M86TP","3YO4AH2FPD6XG0OGOBTVFFK58DY0QT","","","img/land2.png","","1504","-1","0","2","2","1,0.7,0.7,0.7,1,0.7,0.7,0.7,1","1,0.7,0.7,0.7,1,0.7,0.7,0.7,1","","",""
"","html-keyboard-response","269","262793","0.0-269.0","3OF2M9AATHAAT2U562RSEB76YAAKZE","AKJLAFX2M86TP","3YO4AH2FPD6XG0OGOBTVFFK58DY0QT","","null","<img src=""img/land2.png"" style=""width:200px;border:14px solid red;"">","null","","","","","","","","","",""
"","image-keyboard-response","270","264297","0.0-270.0","3OF2M9AATHAAT2U562RSEB76YAAKZE","AKJLAFX2M86TP","3YO4AH2FPD6XG0OGOBTVFFK58DY0QT","","","img/land2.png","","1503","-1","0","2","2","1,0.7,0.7,0.7,1,0.7,0.7,0.7,1","1,0.7,0.7,0.7,1,0.7,0.7,0.7,1","","",""
"","html-keyboard-response","271","264607","0.0-271.0","3OF2M9AATHAAT2U562RSEB76YAAKZE","AKJLAFX2M86TP","3YO4AH2FPD6XG0OGOBTVFFK58DY0QT","","null","<img src=""img/land2.png"" style=""width:200px;border:14px solid red;"">","null","","","","","","","","","",""
"","image-keyboard-response","272","266109","0.0-272.0","3OF2M9AATHAAT2U562RSEB76YAAKZE","AKJLAFX2M86TP","3YO4AH2FPD6XG0OGOBTVFFK58DY0QT","","","img/land2.png","","1502","-1","0","2","2","1,0.7,0.7,0.7,1,0.7,0.7,0.7,1","1,0.7,0.7,0.7,1,0.7,0.7,0.7,1","","",""
"","html-keyboard-response","273","266413","0.0-273.0","3OF2M9AATHAAT2U562RSEB76YAAKZE","AKJLAFX2M86TP","3YO4AH2FPD6XG0OGOBTVFFK58DY0QT","","null","<img src=""img/land2.png"" style=""width:200px;border:14px solid red;"">","null","","","","","","","","","",""
"","image-keyboard-response","274","267918","0.0-274.0","3OF2M9AATHAAT2U562RSEB76YAAKZE","AKJLAFX2M86TP","3YO4AH2FPD6XG0OGOBTVFFK58DY0QT","","","img/land1.png","","1504","-1","0","1","2","1,0.7,0.7,0.7,1,0.7,0.7,0.7,1","1,0.7,0.7,0.7,1,0.7,0.7,0.7,1","","",""
"","html-keyboard-response","275","268222","0.0-275.0","3OF2M9AATHAAT2U562RSEB76YAAKZE","AKJLAFX2M86TP","3YO4AH2FPD6XG0OGOBTVFFK58DY0QT","","null","<img src=""img/land1.png"" style=""width:200px;border:14px solid red;"">","null","","","","","","","","","",""
"","image-keyboard-response","276","269726","0.0-276.0","3OF2M9AATHAAT2U562RSEB76YAAKZE","AKJLAFX2M86TP","3YO4AH2FPD6XG0OGOBTVFFK58DY0QT","","","img/land1.png","","1504","-1","0","1","2","1,0.7,0.7,0.7,1,0.7,0.7,0.7,1","1,0.7,0.7,0.7,1,0.7,0.7,0.7,1","","",""
"","html-keyboard-response","277","270028","0.0-277.0","3OF2M9AATHAAT2U562RSEB76YAAKZE","AKJLAFX2M86TP","3YO4AH2FPD6XG0OGOBTVFFK58DY0QT","","null","<img src=""img/land1.png"" style=""width:200px;border:14px solid red;"">","null","","","","","","","","","",""
"","image-keyboard-response","278","271531","0.0-278.0","3OF2M9AATHAAT2U562RSEB76YAAKZE","AKJLAFX2M86TP","3YO4AH2FPD6XG0OGOBTVFFK58DY0QT","","","img/land1.png","","1502","-1","0","1","2","1,0.7,0.7,0.7,1,0.7,0.7,0.7,1","1,0.7,0.7,0.7,1,0.7,0.7,0.7,1","","",""
"","html-keyboard-response","279","271836","0.0-279.0","3OF2M9AATHAAT2U562RSEB76YAAKZE","AKJLAFX2M86TP","3YO4AH2FPD6XG0OGOBTVFFK58DY0QT","","null","<img src=""img/land1.png"" style=""width:200px;border:14px solid red;"">","null","","","","","","","","","",""
"","image-keyboard-response","280","273338","0.0-280.0","3OF2M9AATHAAT2U562RSEB76YAAKZE","AKJLAFX2M86TP","3YO4AH2FPD6XG0OGOBTVFFK58DY0QT","","","img/land2.png","","1503","-1","0","2","2","1,0.7,0.7,0.7,1,0.7,0.7,0.7,1","1,0.7,0.7,0.7,1,0.7,0.7,0.7,1","","",""
"","html-keyboard-response","281","273642","0.0-281.0","3OF2M9AATHAAT2U562RSEB76YAAKZE","AKJLAFX2M86TP","3YO4AH2FPD6XG0OGOBTVFFK58DY0QT","","null","<img src=""img/land2.png"" style=""width:200px;border:14px solid red;"">","null","","","","","","","","","",""
"","image-keyboard-response","282","275145","0.0-282.0","3OF2M9AATHAAT2U562RSEB76YAAKZE","AKJLAFX2M86TP","3YO4AH2FPD6XG0OGOBTVFFK58DY0QT","","","img/land2.png","","1504","-1","0","2","2","1,0.7,0.7,0.7,1,0.7,0.7,0.7,1","1,0.7,0.7,0.7,1,0.7,0.7,0.7,1","","",""
"","html-keyboard-response","283","275448","0.0-283.0","3OF2M9AATHAAT2U562RSEB76YAAKZE","AKJLAFX2M86TP","3YO4AH2FPD6XG0OGOBTVFFK58DY0QT","","null","<img src=""img/land2.png"" style=""width:200px;border:14px solid red;"">","null","","","","","","","","","",""
"","image-keyboard-response","284","276954","0.0-284.0","3OF2M9AATHAAT2U562RSEB76YAAKZE","AKJLAFX2M86TP","3YO4AH2FPD6XG0OGOBTVFFK58DY0QT","","","img/land2.png","","1506","-1","0","2","2","1,0.7,0.7,0.7,1,0.7,0.7,0.7,1","1,0.7,0.7,0.7,1,0.7,0.7,0.7,1","","",""
"","html-keyboard-response","285","277263","0.0-285.0","3OF2M9AATHAAT2U562RSEB76YAAKZE","AKJLAFX2M86TP","3YO4AH2FPD6XG0OGOBTVFFK58DY0QT","","null","<img src=""img/land2.png"" style=""width:200px;border:14px solid red;"">","null","","","","","","","","","",""
"","image-keyboard-response","286","278768","0.0-286.0","3OF2M9AATHAAT2U562RSEB76YAAKZE","AKJLAFX2M86TP","3YO4AH2FPD6XG0OGOBTVFFK58DY0QT","","","img/land2.png","","1503","-1","0","2","2","1,0.7,0.7,0.7,1,0.7,0.7,0.7,1","1,0.7,0.7,0.7,1,0.7,0.7,0.7,1","","",""
"","html-keyboard-response","287","279072","0.0-287.0","3OF2M9AATHAAT2U562RSEB76YAAKZE","AKJLAFX2M86TP","3YO4AH2FPD6XG0OGOBTVFFK58DY0QT","","null","<img src=""img/land2.png"" style=""width:200px;border:14px solid red;"">","null","","","","","","","","","",""
"","image-keyboard-response","288","280577","0.0-288.0","3OF2M9AATHAAT2U562RSEB76YAAKZE","AKJLAFX2M86TP","3YO4AH2FPD6XG0OGOBTVFFK58DY0QT","","","img/land2.png","","1506","-1","0","2","2","1,0.7,0.7,0.7,1,0.7,0.7,0.7,1","1,0.7,0.7,0.7,1,0.7,0.7,0.7,1","","",""
"","html-keyboard-response","289","280882","0.0-289.0","3OF2M9AATHAAT2U562RSEB76YAAKZE","AKJLAFX2M86TP","3YO4AH2FPD6XG0OGOBTVFFK58DY0QT","","null","<img src=""img/land2.png"" style=""width:200px;border:14px solid red;"">","null","","","","","","","","","",""
"","image-keyboard-response","290","282383","0.0-290.0","3OF2M9AATHAAT2U562RSEB76YAAKZE","AKJLAFX2M86TP","3YO4AH2FPD6XG0OGOBTVFFK58DY0QT","","","img/land3.png","","1501","-1","0","3","2","1,0.7,0.7,0.7,1,0.7,0.7,0.7,1","1,0.7,0.7,0.7,1,0.7,0.7,0.7,1","","",""
"","html-keyboard-response","291","282686","0.0-291.0","3OF2M9AATHAAT2U562RSEB76YAAKZE","AKJLAFX2M86TP","3YO4AH2FPD6XG0OGOBTVFFK58DY0QT","","null","<img src=""img/land3.png"" style=""width:200px;border:14px solid red;"">","null","","","","","","","","","",""
"","image-keyboard-response","292","284189","0.0-292.0","3OF2M9AATHAAT2U562RSEB76YAAKZE","AKJLAFX2M86TP","3YO4AH2FPD6XG0OGOBTVFFK58DY0QT","","","img/land2.png","","1502","-1","0","2","2","1,0.7,0.7,0.7,1,0.7,0.7,0.7,1","1,0.7,0.7,0.7,1,0.7,0.7,0.7,1","","",""
"","html-keyboard-response","293","284491","0.0-293.0","3OF2M9AATHAAT2U562RSEB76YAAKZE","AKJLAFX2M86TP","3YO4AH2FPD6XG0OGOBTVFFK58DY0QT","","null","<img src=""img/land2.png"" style=""width:200px;border:14px solid red;"">","null","","","","","","","","","",""
"","image-keyboard-response","294","285994","0.0-294.0","3OF2M9AATHAAT2U562RSEB76YAAKZE","AKJLAFX2M86TP","3YO4AH2FPD6XG0OGOBTVFFK58DY0QT","","","img/land3.png","","1503","-1","0","3","2","1,0.7,0.7,0.7,1,0.7,0.7,0.7,1","1,0.7,0.7,0.7,1,0.7,0.7,0.7,1","","",""
"","html-keyboard-response","295","286298","0.0-295.0","3OF2M9AATHAAT2U562RSEB76YAAKZE","AKJLAFX2M86TP","3YO4AH2FPD6XG0OGOBTVFFK58DY0QT","","null","<img src=""img/land3.png"" style=""width:200px;border:14px solid red;"">","null","","","","","","","","","",""
"","image-keyboard-response","296","287801","0.0-296.0","3OF2M9AATHAAT2U562RSEB76YAAKZE","AKJLAFX2M86TP","3YO4AH2FPD6XG0OGOBTVFFK58DY0QT","","","img/land1.png","","1502","-1","0","1","2","1,0.7,0.7,0.7,1,0.7,0.7,0.7,1","1,0.7,0.7,0.7,1,0.7,0.7,0.7,1","","",""
"","html-keyboard-response","297","288107","0.0-297.0","3OF2M9AATHAAT2U562RSEB76YAAKZE","AKJLAFX2M86TP","3YO4AH2FPD6XG0OGOBTVFFK58DY0QT","","null","<img src=""img/land1.png"" style=""width:200px;border:14px solid red;"">","null","","","","","","","","","",""
"","image-keyboard-response","298","289610","0.0-298.0","3OF2M9AATHAAT2U562RSEB76YAAKZE","AKJLAFX2M86TP","3YO4AH2FPD6XG0OGOBTVFFK58DY0QT","","","img/land2.png","","1503","-1","0","2","2","1,0.7,0.7,0.7,1,0.7,0.7,0.7,1","1,0.7,0.7,0.7,1,0.7,0.7,0.7,1","","",""
"","html-keyboard-response","299","289913","0.0-299.0","3OF2M9AATHAAT2U562RSEB76YAAKZE","AKJLAFX2M86TP","3YO4AH2FPD6XG0OGOBTVFFK58DY0QT","","null","<img src=""img/land2.png"" style=""width:200px;border:14px solid red;"">","null","","","","","","","","","",""
"","image-keyboard-response","300","291416","0.0-300.0","3OF2M9AATHAAT2U562RSEB76YAAKZE","AKJLAFX2M86TP","3YO4AH2FPD6XG0OGOBTVFFK58DY0QT","","","img/land3.png","","1502","-1","0","3","2","1,0.7,0.7,0.7,1,0.7,0.7,0.7,1","1,0.7,0.7,0.7,1,0.7,0.7,0.7,1","","",""
"","html-keyboard-response","301","291718","0.0-301.0","3OF2M9AATHAAT2U562RSEB76YAAKZE","AKJLAFX2M86TP","3YO4AH2FPD6XG0OGOBTVFFK58DY0QT","","null","<img src=""img/land3.png"" style=""width:200px;border:14px solid red;"">","null","","","","","","","","","",""
"","html-keyboard-response","302","312316","0.0-302.0","3OF2M9AATHAAT2U562RSEB76YAAKZE","AKJLAFX2M86TP","3YO4AH2FPD6XG0OGOBTVFFK58DY0QT","","","","","","","","","","","","","",""
"","image-keyboard-response","303","313820","0.0-303.0","3OF2M9AATHAAT2U562RSEB76YAAKZE","AKJLAFX2M86TP","3YO4AH2FPD6XG0OGOBTVFFK58DY0QT","","","img/land6.png","","1502","-1","0","3","2","1,0.7,0.7,0.7,1,0.7,0.7,0.7,1","1,0.7,0.7,0.7,1,0.7,0.7,0.7,1","","",""
"","html-keyboard-response","304","314121","0.0-304.0","3OF2M9AATHAAT2U562RSEB76YAAKZE","AKJLAFX2M86TP","3YO4AH2FPD6XG0OGOBTVFFK58DY0QT","","null","<img src=""img/land6.png"" style=""width:200px;border:14px solid red;"">","null","","","","","","","","","",""
"","image-keyboard-response","305","315622","0.0-305.0","3OF2M9AATHAAT2U562RSEB76YAAKZE","AKJLAFX2M86TP","3YO4AH2FPD6XG0OGOBTVFFK58DY0QT","","","img/land5.png","","1501","-1","0","2","2","1,0.7,0.7,0.7,1,0.7,0.7,0.7,1","1,0.7,0.7,0.7,1,0.7,0.7,0.7,1","","",""
"","html-keyboard-response","306","315925","0.0-306.0","3OF2M9AATHAAT2U562RSEB76YAAKZE","AKJLAFX2M86TP","3YO4AH2FPD6XG0OGOBTVFFK58DY0QT","","null","<img src=""img/land5.png"" style=""width:200px;border:14px solid red;"">","null","","","","","","","","","",""
"","image-keyboard-response","307","317427","0.0-307.0","3OF2M9AATHAAT2U562RSEB76YAAKZE","AKJLAFX2M86TP","3YO4AH2FPD6XG0OGOBTVFFK58DY0QT","","","img/land5.png","","1503","-1","0","2","2","1,0.7,0.7,0.7,1,0.7,0.7,0.7,1","1,0.7,0.7,0.7,1,0.7,0.7,0.7,1","","",""
"","html-keyboard-response","308","317729","0.0-308.0","3OF2M9AATHAAT2U562RSEB76YAAKZE","AKJLAFX2M86TP","3YO4AH2FPD6XG0OGOBTVFFK58DY0QT","","null","<img src=""img/land5.png"" style=""width:200px;border:14px solid red;"">","null","","","","","","","","","",""
"","image-keyboard-response","309","319233","0.0-309.0","3OF2M9AATHAAT2U562RSEB76YAAKZE","AKJLAFX2M86TP","3YO4AH2FPD6XG0OGOBTVFFK58DY0QT","","","img/land5.png","","1503","-1","0","2","2","1,0.7,0.7,0.7,1,0.7,0.7,0.7,1","1,0.7,0.7,0.7,1,0.7,0.7,0.7,1","","",""
"","html-keyboard-response","310","319536","0.0-310.0","3OF2M9AATHAAT2U562RSEB76YAAKZE","AKJLAFX2M86TP","3YO4AH2FPD6XG0OGOBTVFFK58DY0QT","","null","<img src=""img/land5.png"" style=""width:200px;border:14px solid red;"">","null","","","","","","","","","",""
"","image-keyboard-response","311","321038","0.0-311.0","3OF2M9AATHAAT2U562RSEB76YAAKZE","AKJLAFX2M86TP","3YO4AH2FPD6XG0OGOBTVFFK58DY0QT","","","img/land4.png","","1502","-1","0","1","2","1,0.7,0.7,0.7,1,0.7,0.7,0.7,1","1,0.7,0.7,0.7,1,0.7,0.7,0.7,1","","",""
"","html-keyboard-response","312","321343","0.0-312.0","3OF2M9AATHAAT2U562RSEB76YAAKZE","AKJLAFX2M86TP","3YO4AH2FPD6XG0OGOBTVFFK58DY0QT","","null","<img src=""img/land4.png"" style=""width:200px;border:14px solid red;"">","null","","","","","","","","","",""
"","image-keyboard-response","313","322846","0.0-313.0","3OF2M9AATHAAT2U562RSEB76YAAKZE","AKJLAFX2M86TP","3YO4AH2FPD6XG0OGOBTVFFK58DY0QT","","","img/land5.png","","1504","-1","0","2","2","1,0.7,0.7,0.7,1,0.7,0.7,0.7,1","1,0.7,0.7,0.7,1,0.7,0.7,0.7,1","","",""
"","html-keyboard-response","314","323152","0.0-314.0","3OF2M9AATHAAT2U562RSEB76YAAKZE","AKJLAFX2M86TP","3YO4AH2FPD6XG0OGOBTVFFK58DY0QT","","null","<img src=""img/land5.png"" style=""width:200px;border:14px solid red;"">","null","","","","","","","","","",""
"","image-keyboard-response","315","324655","0.0-315.0","3OF2M9AATHAAT2U562RSEB76YAAKZE","AKJLAFX2M86TP","3YO4AH2FPD6XG0OGOBTVFFK58DY0QT","","","img/land4.png","","1502","-1","0","1","2","1,0.7,0.7,0.7,1,0.7,0.7,0.7,1","1,0.7,0.7,0.7,1,0.7,0.7,0.7,1","","",""
"","html-keyboard-response","316","324959","0.0-316.0","3OF2M9AATHAAT2U562RSEB76YAAKZE","AKJLAFX2M86TP","3YO4AH2FPD6XG0OGOBTVFFK58DY0QT","","null","<img src=""img/land4.png"" style=""width:200px;border:14px solid red;"">","null","","","","","","","","","",""
"","image-keyboard-response","317","326462","0.0-317.0","3OF2M9AATHAAT2U562RSEB76YAAKZE","AKJLAFX2M86TP","3YO4AH2FPD6XG0OGOBTVFFK58DY0QT","","","img/land5.png","","1503","-1","0","2","2","1,0.7,0.7,0.7,1,0.7,0.7,0.7,1","1,0.7,0.7,0.7,1,0.7,0.7,0.7,1","","",""
"","html-keyboard-response","318","326764","0.0-318.0","3OF2M9AATHAAT2U562RSEB76YAAKZE","AKJLAFX2M86TP","3YO4AH2FPD6XG0OGOBTVFFK58DY0QT","","null","<img src=""img/land5.png"" style=""width:200px;border:14px solid red;"">","null","","","","","","","","","",""
"","image-keyboard-response","319","328279","0.0-319.0","3OF2M9AATHAAT2U562RSEB76YAAKZE","AKJLAFX2M86TP","3YO4AH2FPD6XG0OGOBTVFFK58DY0QT","","","img/land6.png","","1511","-1","0","3","2","1,0.7,0.7,0.7,1,0.7,0.7,0.7,1","1,0.7,0.7,0.7,1,0.7,0.7,0.7,1","","",""
"","html-keyboard-response","320","328584","0.0-320.0","3OF2M9AATHAAT2U562RSEB76YAAKZE","AKJLAFX2M86TP","3YO4AH2FPD6XG0OGOBTVFFK58DY0QT","","null","<img src=""img/land6.png"" style=""width:200px;border:14px solid red;"">","null","","","","","","","","","",""
"","image-keyboard-response","321","330086","0.0-321.0","3OF2M9AATHAAT2U562RSEB76YAAKZE","AKJLAFX2M86TP","3YO4AH2FPD6XG0OGOBTVFFK58DY0QT","","","img/land5.png","","1502","-1","0","2","2","1,0.7,0.7,0.7,1,0.7,0.7,0.7,1","1,0.7,0.7,0.7,1,0.7,0.7,0.7,1","","",""
"","html-keyboard-response","322","330389","0.0-322.0","3OF2M9AATHAAT2U562RSEB76YAAKZE","AKJLAFX2M86TP","3YO4AH2FPD6XG0OGOBTVFFK58DY0QT","","null","<img src=""img/land5.png"" style=""width:200px;border:14px solid red;"">","null","","","","","","","","","",""
"","image-keyboard-response","323","331895","0.0-323.0","3OF2M9AATHAAT2U562RSEB76YAAKZE","AKJLAFX2M86TP","3YO4AH2FPD6XG0OGOBTVFFK58DY0QT","","","img/land5.png","","1505","-1","0","2","2","1,0.7,0.7,0.7,1,0.7,0.7,0.7,1","1,0.7,0.7,0.7,1,0.7,0.7,0.7,1","","",""
"","html-keyboard-response","324","332264","0.0-324.0","3OF2M9AATHAAT2U562RSEB76YAAKZE","AKJLAFX2M86TP","3YO4AH2FPD6XG0OGOBTVFFK58DY0QT","","null","<img src=""img/land5.png"" style=""width:200px;border:14px solid red;"">","null","","","","","","","","","",""
"","image-keyboard-response","325","333768","0.0-325.0","3OF2M9AATHAAT2U562RSEB76YAAKZE","AKJLAFX2M86TP","3YO4AH2FPD6XG0OGOBTVFFK58DY0QT","","","img/land4.png","","1504","-1","0","1","2","1,0.7,0.7,0.7,1,0.7,0.7,0.7,1","1,0.7,0.7,0.7,1,0.7,0.7,0.7,1","","",""
"","html-keyboard-response","326","334072","0.0-326.0","3OF2M9AATHAAT2U562RSEB76YAAKZE","AKJLAFX2M86TP","3YO4AH2FPD6XG0OGOBTVFFK58DY0QT","","null","<img src=""img/land4.png"" style=""width:200px;border:14px solid red;"">","null","","","","","","","","","",""
"","image-keyboard-response","327","335575","0.0-327.0","3OF2M9AATHAAT2U562RSEB76YAAKZE","AKJLAFX2M86TP","3YO4AH2FPD6XG0OGOBTVFFK58DY0QT","","","img/land5.png","","1502","-1","0","2","2","1,0.7,0.7,0.7,1,0.7,0.7,0.7,1","1,0.7,0.7,0.7,1,0.7,0.7,0.7,1","","",""
"","html-keyboard-response","328","335878","0.0-328.0","3OF2M9AATHAAT2U562RSEB76YAAKZE","AKJLAFX2M86TP","3YO4AH2FPD6XG0OGOBTVFFK58DY0QT","","null","<img src=""img/land5.png"" style=""width:200px;border:14px solid red;"">","null","","","","","","","","","",""
"","image-keyboard-response","329","337381","0.0-329.0","3OF2M9AATHAAT2U562RSEB76YAAKZE","AKJLAFX2M86TP","3YO4AH2FPD6XG0OGOBTVFFK58DY0QT","","","img/land4.png","","1502","-1","0","1","2","1,0.7,0.7,0.7,1,0.7,0.7,0.7,1","1,0.7,0.7,0.7,1,0.7,0.7,0.7,1","","",""
"","html-keyboard-response","330","337685","0.0-330.0","3OF2M9AATHAAT2U562RSEB76YAAKZE","AKJLAFX2M86TP","3YO4AH2FPD6XG0OGOBTVFFK58DY0QT","","null","<img src=""img/land4.png"" style=""width:200px;border:14px solid red;"">","null","","","","","","","","","",""
"","image-keyboard-response","331","339188","0.0-331.0","3OF2M9AATHAAT2U562RSEB76YAAKZE","AKJLAFX2M86TP","3YO4AH2FPD6XG0OGOBTVFFK58DY0QT","","","img/land4.png","","1502","-1","0","1","2","1,0.7,0.7,0.7,1,0.7,0.7,0.7,1","1,0.7,0.7,0.7,1,0.7,0.7,0.7,1","","",""
"","html-keyboard-response","332","339490","0.0-332.0","3OF2M9AATHAAT2U562RSEB76YAAKZE","AKJLAFX2M86TP","3YO4AH2FPD6XG0OGOBTVFFK58DY0QT","","null","<img src=""img/land4.png"" style=""width:200px;border:14px solid red;"">","null","","","","","","","","","",""
"","image-keyboard-response","333","340991","0.0-333.0","3OF2M9AATHAAT2U562RSEB76YAAKZE","AKJLAFX2M86TP","3YO4AH2FPD6XG0OGOBTVFFK58DY0QT","","","img/land4.png","","1501","-1","0","1","2","1,0.7,0.7,0.7,1,0.7,0.7,0.7,1","1,0.7,0.7,0.7,1,0.7,0.7,0.7,1","","",""
"","html-keyboard-response","334","341293","0.0-334.0","3OF2M9AATHAAT2U562RSEB76YAAKZE","AKJLAFX2M86TP","3YO4AH2FPD6XG0OGOBTVFFK58DY0QT","","null","<img src=""img/land4.png"" style=""width:200px;border:14px solid red;"">","null","","","","","","","","","",""
"","image-keyboard-response","335","342794","0.0-335.0","3OF2M9AATHAAT2U562RSEB76YAAKZE","AKJLAFX2M86TP","3YO4AH2FPD6XG0OGOBTVFFK58DY0QT","","","img/land6.png","","1501","-1","0","3","2","1,0.7,0.7,0.7,1,0.7,0.7,0.7,1","1,0.7,0.7,0.7,1,0.7,0.7,0.7,1","","",""
"","html-keyboard-response","336","343096","0.0-336.0","3OF2M9AATHAAT2U562RSEB76YAAKZE","AKJLAFX2M86TP","3YO4AH2FPD6XG0OGOBTVFFK58DY0QT","","null","<img src=""img/land6.png"" style=""width:200px;border:14px solid red;"">","null","","","","","","","","","",""
"","image-keyboard-response","337","344599","0.0-337.0","3OF2M9AATHAAT2U562RSEB76YAAKZE","AKJLAFX2M86TP","3YO4AH2FPD6XG0OGOBTVFFK58DY0QT","","","img/land4.png","","1503","-1","0","1","2","1,0.7,0.7,0.7,1,0.7,0.7,0.7,1","1,0.7,0.7,0.7,1,0.7,0.7,0.7,1","","",""
"","html-keyboard-response","338","344904","0.0-338.0","3OF2M9AATHAAT2U562RSEB76YAAKZE","AKJLAFX2M86TP","3YO4AH2FPD6XG0OGOBTVFFK58DY0QT","","null","<img src=""img/land4.png"" style=""width:200px;border:14px solid red;"">","null","","","","","","","","","",""
"","image-keyboard-response","339","346406","0.0-339.0","3OF2M9AATHAAT2U562RSEB76YAAKZE","AKJLAFX2M86TP","3YO4AH2FPD6XG0OGOBTVFFK58DY0QT","","","img/land4.png","","1501","-1","0","1","2","1,0.7,0.7,0.7,1,0.7,0.7,0.7,1","1,0.7,0.7,0.7,1,0.7,0.7,0.7,1","","",""
"","html-keyboard-response","340","346710","0.0-340.0","3OF2M9AATHAAT2U562RSEB76YAAKZE","AKJLAFX2M86TP","3YO4AH2FPD6XG0OGOBTVFFK58DY0QT","","null","<img src=""img/land4.png"" style=""width:200px;border:14px solid red;"">","null","","","","","","","","","",""
"","image-keyboard-response","341","348247","0.0-341.0","3OF2M9AATHAAT2U562RSEB76YAAKZE","AKJLAFX2M86TP","3YO4AH2FPD6XG0OGOBTVFFK58DY0QT","","","img/land6.png","","1538","-1","0","3","2","1,0.7,0.7,0.7,1,0.7,0.7,0.7,1","1,0.7,0.7,0.7,1,0.7,0.7,0.7,1","","",""
"","html-keyboard-response","342","348550","0.0-342.0","3OF2M9AATHAAT2U562RSEB76YAAKZE","AKJLAFX2M86TP","3YO4AH2FPD6XG0OGOBTVFFK58DY0QT","","null","<img src=""img/land6.png"" style=""width:200px;border:14px solid red;"">","null","","","","","","","","","",""
"","image-keyboard-response","343","350053","0.0-343.0","3OF2M9AATHAAT2U562RSEB76YAAKZE","AKJLAFX2M86TP","3YO4AH2FPD6XG0OGOBTVFFK58DY0QT","","","img/land4.png","","1502","-1","0","1","2","1,0.7,0.7,0.7,1,0.7,0.7,0.7,1","1,0.7,0.7,0.7,1,0.7,0.7,0.7,1","","",""
"","html-keyboard-response","344","350355","0.0-344.0","3OF2M9AATHAAT2U562RSEB76YAAKZE","AKJLAFX2M86TP","3YO4AH2FPD6XG0OGOBTVFFK58DY0QT","","null","<img src=""img/land4.png"" style=""width:200px;border:14px solid red;"">","null","","","","","","","","","",""
"","image-keyboard-response","345","351858","0.0-345.0","3OF2M9AATHAAT2U562RSEB76YAAKZE","AKJLAFX2M86TP","3YO4AH2FPD6XG0OGOBTVFFK58DY0QT","","","img/land5.png","","1501","-1","0","2","2","1,0.7,0.7,0.7,1,0.7,0.7,0.7,1","1,0.7,0.7,0.7,1,0.7,0.7,0.7,1","","",""
"","html-keyboard-response","346","352161","0.0-346.0","3OF2M9AATHAAT2U562RSEB76YAAKZE","AKJLAFX2M86TP","3YO4AH2FPD6XG0OGOBTVFFK58DY0QT","","null","<img src=""img/land5.png"" style=""width:200px;border:14px solid red;"">","null","","","","","","","","","",""
"","image-keyboard-response","347","353663","0.0-347.0","3OF2M9AATHAAT2U562RSEB76YAAKZE","AKJLAFX2M86TP","3YO4AH2FPD6XG0OGOBTVFFK58DY0QT","","","img/land4.png","","1502","-1","0","1","2","1,0.7,0.7,0.7,1,0.7,0.7,0.7,1","1,0.7,0.7,0.7,1,0.7,0.7,0.7,1","","",""
"","html-keyboard-response","348","353964","0.0-348.0","3OF2M9AATHAAT2U562RSEB76YAAKZE","AKJLAFX2M86TP","3YO4AH2FPD6XG0OGOBTVFFK58DY0QT","","null","<img src=""img/land4.png"" style=""width:200px;border:14px solid red;"">","null","","","","","","","","","",""
"","image-keyboard-response","349","355465","0.0-349.0","3OF2M9AATHAAT2U562RSEB76YAAKZE","AKJLAFX2M86TP","3YO4AH2FPD6XG0OGOBTVFFK58DY0QT","","","img/land5.png","","1500","-1","0","2","2","1,0.7,0.7,0.7,1,0.7,0.7,0.7,1","1,0.7,0.7,0.7,1,0.7,0.7,0.7,1","","",""
"","html-keyboard-response","350","355768","0.0-350.0","3OF2M9AATHAAT2U562RSEB76YAAKZE","AKJLAFX2M86TP","3YO4AH2FPD6XG0OGOBTVFFK58DY0QT","","null","<img src=""img/land5.png"" style=""width:200px;border:14px solid red;"">","null","","","","","","","","","",""
"","image-keyboard-response","351","357270","0.0-351.0","3OF2M9AATHAAT2U562RSEB76YAAKZE","AKJLAFX2M86TP","3YO4AH2FPD6XG0OGOBTVFFK58DY0QT","","","img/land6.png","","1501","-1","0","3","2","1,0.7,0.7,0.7,1,0.7,0.7,0.7,1","1,0.7,0.7,0.7,1,0.7,0.7,0.7,1","","",""
"","html-keyboard-response","352","357574","0.0-352.0","3OF2M9AATHAAT2U562RSEB76YAAKZE","AKJLAFX2M86TP","3YO4AH2FPD6XG0OGOBTVFFK58DY0QT","","null","<img src=""img/land6.png"" style=""width:200px;border:14px solid red;"">","null","","","","","","","","","",""
"","image-keyboard-response","353","359075","0.0-353.0","3OF2M9AATHAAT2U562RSEB76YAAKZE","AKJLAFX2M86TP","3YO4AH2FPD6XG0OGOBTVFFK58DY0QT","","","img/land6.png","","1500","-1","0","3","2","1,0.7,0.7,0.7,1,0.7,0.7,0.7,1","1,0.7,0.7,0.7,1,0.7,0.7,0.7,1","","",""
"","html-keyboard-response","354","359378","0.0-354.0","3OF2M9AATHAAT2U562RSEB76YAAKZE","AKJLAFX2M86TP","3YO4AH2FPD6XG0OGOBTVFFK58DY0QT","","null","<img src=""img/land6.png"" style=""width:200px;border:14px solid red;"">","null","","","","","","","","","",""
"","image-keyboard-response","355","360880","0.0-355.0","3OF2M9AATHAAT2U562RSEB76YAAKZE","AKJLAFX2M86TP","3YO4AH2FPD6XG0OGOBTVFFK58DY0QT","","","img/land4.png","","1501","-1","0","1","2","1,0.7,0.7,0.7,1,0.7,0.7,0.7,1","1,0.7,0.7,0.7,1,0.7,0.7,0.7,1","","",""
"","html-keyboard-response","356","361181","0.0-356.0","3OF2M9AATHAAT2U562RSEB76YAAKZE","AKJLAFX2M86TP","3YO4AH2FPD6XG0OGOBTVFFK58DY0QT","","null","<img src=""img/land4.png"" style=""width:200px;border:14px solid red;"">","null","","","","","","","","","",""
"","image-keyboard-response","357","362682","0.0-357.0","3OF2M9AATHAAT2U562RSEB76YAAKZE","AKJLAFX2M86TP","3YO4AH2FPD6XG0OGOBTVFFK58DY0QT","","","img/land5.png","","1501","-1","0","2","2","1,0.7,0.7,0.7,1,0.7,0.7,0.7,1","1,0.7,0.7,0.7,1,0.7,0.7,0.7,1","","",""
"","html-keyboard-response","358","362985","0.0-358.0","3OF2M9AATHAAT2U562RSEB76YAAKZE","AKJLAFX2M86TP","3YO4AH2FPD6XG0OGOBTVFFK58DY0QT","","null","<img src=""img/land5.png"" style=""width:200px;border:14px solid red;"">","null","","","","","","","","","",""
"","image-keyboard-response","359","364487","0.0-359.0","3OF2M9AATHAAT2U562RSEB76YAAKZE","AKJLAFX2M86TP","3YO4AH2FPD6XG0OGOBTVFFK58DY0QT","","","img/land6.png","","1502","-1","0","3","2","1,0.7,0.7,0.7,1,0.7,0.7,0.7,1","1,0.7,0.7,0.7,1,0.7,0.7,0.7,1","","",""
"","html-keyboard-response","360","364788","0.0-360.0","3OF2M9AATHAAT2U562RSEB76YAAKZE","AKJLAFX2M86TP","3YO4AH2FPD6XG0OGOBTVFFK58DY0QT","","null","<img src=""img/land6.png"" style=""width:200px;border:14px solid red;"">","null","","","","","","","","","",""
"","image-keyboard-response","361","366289","0.0-361.0","3OF2M9AATHAAT2U562RSEB76YAAKZE","AKJLAFX2M86TP","3YO4AH2FPD6XG0OGOBTVFFK58DY0QT","","","img/land4.png","","1501","-1","0","1","2","1,0.7,0.7,0.7,1,0.7,0.7,0.7,1","1,0.7,0.7,0.7,1,0.7,0.7,0.7,1","","",""
"","html-keyboard-response","362","366592","0.0-362.0","3OF2M9AATHAAT2U562RSEB76YAAKZE","AKJLAFX2M86TP","3YO4AH2FPD6XG0OGOBTVFFK58DY0QT","","null","<img src=""img/land4.png"" style=""width:200px;border:14px solid red;"">","null","","","","","","","","","",""
"","image-keyboard-response","363","368094","0.0-363.0","3OF2M9AATHAAT2U562RSEB76YAAKZE","AKJLAFX2M86TP","3YO4AH2FPD6XG0OGOBTVFFK58DY0QT","","","img/land5.png","","1502","-1","0","2","2","1,0.7,0.7,0.7,1,0.7,0.7,0.7,1","1,0.7,0.7,0.7,1,0.7,0.7,0.7,1","","",""
"","html-keyboard-response","364","368399","0.0-364.0","3OF2M9AATHAAT2U562RSEB76YAAKZE","AKJLAFX2M86TP","3YO4AH2FPD6XG0OGOBTVFFK58DY0QT","","null","<img src=""img/land5.png"" style=""width:200px;border:14px solid red;"">","null","","","","","","","","","",""
"","image-keyboard-response","365","369902","0.0-365.0","3OF2M9AATHAAT2U562RSEB76YAAKZE","AKJLAFX2M86TP","3YO4AH2FPD6XG0OGOBTVFFK58DY0QT","","","img/land4.png","","1502","-1","0","1","2","1,0.7,0.7,0.7,1,0.7,0.7,0.7,1","1,0.7,0.7,0.7,1,0.7,0.7,0.7,1","","",""
"","html-keyboard-response","366","370204","0.0-366.0","3OF2M9AATHAAT2U562RSEB76YAAKZE","AKJLAFX2M86TP","3YO4AH2FPD6XG0OGOBTVFFK58DY0QT","","null","<img src=""img/land4.png"" style=""width:200px;border:14px solid red;"">","null","","","","","","","","","",""
"","image-keyboard-response","367","371708","0.0-367.0","3OF2M9AATHAAT2U562RSEB76YAAKZE","AKJLAFX2M86TP","3YO4AH2FPD6XG0OGOBTVFFK58DY0QT","","","img/land5.png","","1502","-1","0","2","2","1,0.7,0.7,0.7,1,0.7,0.7,0.7,1","1,0.7,0.7,0.7,1,0.7,0.7,0.7,1","","",""
"","html-keyboard-response","368","372010","0.0-368.0","3OF2M9AATHAAT2U562RSEB76YAAKZE","AKJLAFX2M86TP","3YO4AH2FPD6XG0OGOBTVFFK58DY0QT","","null","<img src=""img/land5.png"" style=""width:200px;border:14px solid red;"">","null","","","","","","","","","",""
"","image-keyboard-response","369","373514","0.0-369.0","3OF2M9AATHAAT2U562RSEB76YAAKZE","AKJLAFX2M86TP","3YO4AH2FPD6XG0OGOBTVFFK58DY0QT","","","img/land4.png","","1503","-1","0","1","2","1,0.7,0.7,0.7,1,0.7,0.7,0.7,1","1,0.7,0.7,0.7,1,0.7,0.7,0.7,1","","",""
"","html-keyboard-response","370","373818","0.0-370.0","3OF2M9AATHAAT2U562RSEB76YAAKZE","AKJLAFX2M86TP","3YO4AH2FPD6XG0OGOBTVFFK58DY0QT","","null","<img src=""img/land4.png"" style=""width:200px;border:14px solid red;"">","null","","","","","","","","","",""
"","image-keyboard-response","371","375321","0.0-371.0","3OF2M9AATHAAT2U562RSEB76YAAKZE","AKJLAFX2M86TP","3YO4AH2FPD6XG0OGOBTVFFK58DY0QT","","","img/land5.png","","1503","-1","0","2","2","1,0.7,0.7,0.7,1,0.7,0.7,0.7,1","1,0.7,0.7,0.7,1,0.7,0.7,0.7,1","","",""
"","html-keyboard-response","372","375623","0.0-372.0","3OF2M9AATHAAT2U562RSEB76YAAKZE","AKJLAFX2M86TP","3YO4AH2FPD6XG0OGOBTVFFK58DY0QT","","null","<img src=""img/land5.png"" style=""width:200px;border:14px solid red;"">","null","","","","","","","","","",""
"","image-keyboard-response","373","377126","0.0-373.0","3OF2M9AATHAAT2U562RSEB76YAAKZE","AKJLAFX2M86TP","3YO4AH2FPD6XG0OGOBTVFFK58DY0QT","","","img/land5.png","","1502","-1","0","2","2","1,0.7,0.7,0.7,1,0.7,0.7,0.7,1","1,0.7,0.7,0.7,1,0.7,0.7,0.7,1","","",""
"","html-keyboard-response","374","377428","0.0-374.0","3OF2M9AATHAAT2U562RSEB76YAAKZE","AKJLAFX2M86TP","3YO4AH2FPD6XG0OGOBTVFFK58DY0QT","","null","<img src=""img/land5.png"" style=""width:200px;border:14px solid red;"">","null","","","","","","","","","",""
"","image-keyboard-response","375","378933","0.0-375.0","3OF2M9AATHAAT2U562RSEB76YAAKZE","AKJLAFX2M86TP","3YO4AH2FPD6XG0OGOBTVFFK58DY0QT","","","img/land4.png","","1504","-1","0","1","2","1,0.7,0.7,0.7,1,0.7,0.7,0.7,1","1,0.7,0.7,0.7,1,0.7,0.7,0.7,1","","",""
"","html-keyboard-response","376","379236","0.0-376.0","3OF2M9AATHAAT2U562RSEB76YAAKZE","AKJLAFX2M86TP","3YO4AH2FPD6XG0OGOBTVFFK58DY0QT","","null","<img src=""img/land4.png"" style=""width:200px;border:14px solid red;"">","null","","","","","","","","","",""
"","image-keyboard-response","377","380737","0.0-377.0","3OF2M9AATHAAT2U562RSEB76YAAKZE","AKJLAFX2M86TP","3YO4AH2FPD6XG0OGOBTVFFK58DY0QT","","","img/land6.png","","1501","-1","0","3","2","1,0.7,0.7,0.7,1,0.7,0.7,0.7,1","1,0.7,0.7,0.7,1,0.7,0.7,0.7,1","","",""
"","html-keyboard-response","378","381041","0.0-378.0","3OF2M9AATHAAT2U562RSEB76YAAKZE","AKJLAFX2M86TP","3YO4AH2FPD6XG0OGOBTVFFK58DY0QT","","null","<img src=""img/land6.png"" style=""width:200px;border:14px solid red;"">","null","","","","","","","","","",""
"","image-keyboard-response","379","382543","0.0-379.0","3OF2M9AATHAAT2U562RSEB76YAAKZE","AKJLAFX2M86TP","3YO4AH2FPD6XG0OGOBTVFFK58DY0QT","","","img/land6.png","","1503","-1","0","3","2","1,0.7,0.7,0.7,1,0.7,0.7,0.7,1","1,0.7,0.7,0.7,1,0.7,0.7,0.7,1","","",""
"","html-keyboard-response","380","382846","0.0-380.0","3OF2M9AATHAAT2U562RSEB76YAAKZE","AKJLAFX2M86TP","3YO4AH2FPD6XG0OGOBTVFFK58DY0QT","","null","<img src=""img/land6.png"" style=""width:200px;border:14px solid red;"">","null","","","","","","","","","",""
"","image-keyboard-response","381","384349","0.0-381.0","3OF2M9AATHAAT2U562RSEB76YAAKZE","AKJLAFX2M86TP","3YO4AH2FPD6XG0OGOBTVFFK58DY0QT","","","img/land4.png","","1502","-1","0","1","2","1,0.7,0.7,0.7,1,0.7,0.7,0.7,1","1,0.7,0.7,0.7,1,0.7,0.7,0.7,1","","",""
"","html-keyboard-response","382","384651","0.0-382.0","3OF2M9AATHAAT2U562RSEB76YAAKZE","AKJLAFX2M86TP","3YO4AH2FPD6XG0OGOBTVFFK58DY0QT","","null","<img src=""img/land4.png"" style=""width:200px;border:14px solid red;"">","null","","","","","","","","","",""
"","image-keyboard-response","383","386153","0.0-383.0","3OF2M9AATHAAT2U562RSEB76YAAKZE","AKJLAFX2M86TP","3YO4AH2FPD6XG0OGOBTVFFK58DY0QT","","","img/land6.png","","1502","-1","0","3","2","1,0.7,0.7,0.7,1,0.7,0.7,0.7,1","1,0.7,0.7,0.7,1,0.7,0.7,0.7,1","","",""
"","html-keyboard-response","384","386456","0.0-384.0","3OF2M9AATHAAT2U562RSEB76YAAKZE","AKJLAFX2M86TP","3YO4AH2FPD6XG0OGOBTVFFK58DY0QT","","null","<img src=""img/land6.png"" style=""width:200px;border:14px solid red;"">","null","","","","","","","","","",""
