"success","trial_type","trial_index","time_elapsed","internal_node_id","assignmentID","mturkID","hitID","view_history","rt","stimulus","key_press","reactionTime","a","r","s","cond","reward_cond","reward_cond_actual","reward_matrix_idx","responses","question_order"
"true","fullscreen","0","7791","0.0-0.0","3M68NM076ITUSWNPUH3EIP0PO9UR6W","A106QH27FETZ88","38DCH97KHHO4I6P2AJ31XKZ17OGJQZ","","","","","","","","","","","","","",""
"","instructions","1","21722","0.0-1.0","3M68NM076ITUSWNPUH3EIP0PO9UR6W","A106QH27FETZ88","38DCH97KHHO4I6P2AJ31XKZ17OGJQZ","[{""page_index"":0,""viewing_time"":2328},{""page_index"":1,""viewing_time"":1336},{""page_index"":2,""viewing_time"":2120},{""page_index"":3,""viewing_time"":1770},{""page_index"":4,""viewing_time"":3245},{""page_index"":5,""viewing_time"":1383},{""page_index"":6,""viewing_time"":1744}]","13927","","","","","","","","","","","",""
"","image-keyboard-response","2","23729","0.0-2.0","3M68NM076ITUSWNPUH3EIP0PO9UR6W","A106QH27FETZ88","38DCH97KHHO4I6P2AJ31XKZ17OGJQZ","","","img/land1.png","","2007","-1","0","2","1","1,0.5,0.5,0.5,1,0.5,0.5,0.5,1","1,0.5,0.5,0.5,1,0.5,0.5,0.5,1","1","",""
"","html-keyboard-response","3","24033","0.0-3.0","3M68NM076ITUSWNPUH3EIP0PO9UR6W","A106QH27FETZ88","38DCH97KHHO4I6P2AJ31XKZ17OGJQZ","","null","<img src=""img/land1.png"" style=""width:200px;border:14px solid red;"">","null","","","","","","","","","",""
"","image-keyboard-response","4","24071","0.0-4.0","3M68NM076ITUSWNPUH3EIP0PO9UR6W","A106QH27FETZ88","38DCH97KHHO4I6P2AJ31XKZ17OGJQZ","","36","img/land5.png","74","37","1","1","3","1","1,0.5,0.5,0.5,1,0.5,0.5,0.5,1","1,0.5,0.5,0.5,1,0.5,0.5,0.5,1","1","",""
"","html-keyboard-response","5","24373","0.0-5.0","3M68NM076ITUSWNPUH3EIP0PO9UR6W","A106QH27FETZ88","38DCH97KHHO4I6P2AJ31XKZ17OGJQZ","","null","<img src=""img/land5.png"" style=""width:200px; border:14px solid green;"">","null","","","","","","","","","",""
"","image-keyboard-response","6","24397","0.0-6.0","3M68NM076ITUSWNPUH3EIP0PO9UR6W","A106QH27FETZ88","38DCH97KHHO4I6P2AJ31XKZ17OGJQZ","","21","img/land1.png","75","23","2","1","2","1","1,0.5,0.5,0.5,1,0.5,0.5,0.5,1","1,0.5,0.5,0.5,1,0.5,0.5,0.5,1","1","",""
"","html-keyboard-response","7","24703","0.0-7.0","3M68NM076ITUSWNPUH3EIP0PO9UR6W","A106QH27FETZ88","38DCH97KHHO4I6P2AJ31XKZ17OGJQZ","","null","<img src=""img/land1.png"" style=""width:200px; border:14px solid green;"">","null","","","","","","","","","",""
"","image-keyboard-response","8","24730","0.0-8.0","3M68NM076ITUSWNPUH3EIP0PO9UR6W","A106QH27FETZ88","38DCH97KHHO4I6P2AJ31XKZ17OGJQZ","","19","img/land2.png","75","25","2","1","1","1","1,0.5,0.5,0.5,1,0.5,0.5,0.5,1","1,0.5,0.5,0.5,1,0.5,0.5,0.5,1","1","",""
"","html-keyboard-response","9","25032","0.0-9.0","3M68NM076ITUSWNPUH3EIP0PO9UR6W","A106QH27FETZ88","38DCH97KHHO4I6P2AJ31XKZ17OGJQZ","","null","<img src=""img/land2.png"" style=""width:200px; border:14px solid green;"">","null","","","","","","","","","",""
"","image-keyboard-response","10","25047","0.0-10.0","3M68NM076ITUSWNPUH3EIP0PO9UR6W","A106QH27FETZ88","38DCH97KHHO4I6P2AJ31XKZ17OGJQZ","","13","img/land5.png","76","14","3","1","3","1","1,0.5,0.5,0.5,1,0.5,0.5,0.5,1","1,0.5,0.5,0.5,1,0.5,0.5,0.5,1","1","",""
"","html-keyboard-response","11","25349","0.0-11.0","3M68NM076ITUSWNPUH3EIP0PO9UR6W","A106QH27FETZ88","38DCH97KHHO4I6P2AJ31XKZ17OGJQZ","","null","<img src=""img/land5.png"" style=""width:200px; border:14px solid green;"">","null","","","","","","","","","",""
"","image-keyboard-response","12","25384","0.0-12.0","3M68NM076ITUSWNPUH3EIP0PO9UR6W","A106QH27FETZ88","38DCH97KHHO4I6P2AJ31XKZ17OGJQZ","","31","img/land1.png","74","33","1","1","2","1","1,0.5,0.5,0.5,1,0.5,0.5,0.5,1","1,0.5,0.5,0.5,1,0.5,0.5,0.5,1","1","",""
"","html-keyboard-response","13","25696","0.0-13.0","3M68NM076ITUSWNPUH3EIP0PO9UR6W","A106QH27FETZ88","38DCH97KHHO4I6P2AJ31XKZ17OGJQZ","","null","<img src=""img/land1.png"" style=""width:200px; border:14px solid green;"">","null","","","","","","","","","",""
"","image-keyboard-response","14","25766","0.0-14.0","3M68NM076ITUSWNPUH3EIP0PO9UR6W","A106QH27FETZ88","38DCH97KHHO4I6P2AJ31XKZ17OGJQZ","","68","img/land1.png","75","69","2","1","2","1","1,0.5,0.5,0.5,1,0.5,0.5,0.5,1","1,0.5,0.5,0.5,1,0.5,0.5,0.5,1","1","",""
"","html-keyboard-response","15","26068","0.0-15.0","3M68NM076ITUSWNPUH3EIP0PO9UR6W","A106QH27FETZ88","38DCH97KHHO4I6P2AJ31XKZ17OGJQZ","","null","<img src=""img/land1.png"" style=""width:200px; border:14px solid green;"">","null","","","","","","","","","",""
"","image-keyboard-response","16","26139","0.0-16.0","3M68NM076ITUSWNPUH3EIP0PO9UR6W","A106QH27FETZ88","38DCH97KHHO4I6P2AJ31XKZ17OGJQZ","","69","img/land2.png","76","70","3","0","1","1","1,0.5,0.5,0.5,1,0.5,0.5,0.5,1","1,0.5,0.5,0.5,1,0.5,0.5,0.5,1","1","",""
"","html-keyboard-response","17","26444","0.0-17.0","3M68NM076ITUSWNPUH3EIP0PO9UR6W","A106QH27FETZ88","38DCH97KHHO4I6P2AJ31XKZ17OGJQZ","","null","<img src=""img/land2.png"" style=""width:200px;border:14px solid red;"">","null","","","","","","","","","",""
"","image-keyboard-response","18","26563","0.0-18.0","3M68NM076ITUSWNPUH3EIP0PO9UR6W","A106QH27FETZ88","38DCH97KHHO4I6P2AJ31XKZ17OGJQZ","","111","img/land1.png","74","117","1","1","2","1","1,0.5,0.5,0.5,1,0.5,0.5,0.5,1","1,0.5,0.5,0.5,1,0.5,0.5,0.5,1","1","",""
"","html-keyboard-response","19","26867","0.0-19.0","3M68NM076ITUSWNPUH3EIP0PO9UR6W","A106QH27FETZ88","38DCH97KHHO4I6P2AJ31XKZ17OGJQZ","","null","<img src=""img/land1.png"" style=""width:200px; border:14px solid green;"">","null","","","","","","","","","",""
"","image-keyboard-response","20","26936","0.0-20.0","3M68NM076ITUSWNPUH3EIP0PO9UR6W","A106QH27FETZ88","38DCH97KHHO4I6P2AJ31XKZ17OGJQZ","","65","img/land1.png","76","67","3","0","2","1","1,0.5,0.5,0.5,1,0.5,0.5,0.5,1","1,0.5,0.5,0.5,1,0.5,0.5,0.5,1","1","",""
"","html-keyboard-response","21","27238","0.0-21.0","3M68NM076ITUSWNPUH3EIP0PO9UR6W","A106QH27FETZ88","38DCH97KHHO4I6P2AJ31XKZ17OGJQZ","","null","<img src=""img/land1.png"" style=""width:200px;border:14px solid red;"">","null","","","","","","","","","",""
"","image-keyboard-response","22","27352","0.0-22.0","3M68NM076ITUSWNPUH3EIP0PO9UR6W","A106QH27FETZ88","38DCH97KHHO4I6P2AJ31XKZ17OGJQZ","","111","img/land5.png","74","113","1","0","3","1","1,0.5,0.5,0.5,1,0.5,0.5,0.5,1","1,0.5,0.5,0.5,1,0.5,0.5,0.5,1","1","",""
"","html-keyboard-response","23","27657","0.0-23.0","3M68NM076ITUSWNPUH3EIP0PO9UR6W","A106QH27FETZ88","38DCH97KHHO4I6P2AJ31XKZ17OGJQZ","","null","<img src=""img/land5.png"" style=""width:200px;border:14px solid red;"">","null","","","","","","","","","",""
"","image-keyboard-response","24","27676","0.0-24.0","3M68NM076ITUSWNPUH3EIP0PO9UR6W","A106QH27FETZ88","38DCH97KHHO4I6P2AJ31XKZ17OGJQZ","","16","img/land5.png","75","18","2","0","3","1","1,0.5,0.5,0.5,1,0.5,0.5,0.5,1","1,0.5,0.5,0.5,1,0.5,0.5,0.5,1","1","",""
"","html-keyboard-response","25","27978","0.0-25.0","3M68NM076ITUSWNPUH3EIP0PO9UR6W","A106QH27FETZ88","38DCH97KHHO4I6P2AJ31XKZ17OGJQZ","","null","<img src=""img/land5.png"" style=""width:200px;border:14px solid red;"">","null","","","","","","","","","",""
"","image-keyboard-response","26","28055","0.0-26.0","3M68NM076ITUSWNPUH3EIP0PO9UR6W","A106QH27FETZ88","38DCH97KHHO4I6P2AJ31XKZ17OGJQZ","","72","img/land5.png","76","74","3","1","3","1","1,0.5,0.5,0.5,1,0.5,0.5,0.5,1","1,0.5,0.5,0.5,1,0.5,0.5,0.5,1","1","",""
"","html-keyboard-response","27","28357","0.0-27.0","3M68NM076ITUSWNPUH3EIP0PO9UR6W","A106QH27FETZ88","38DCH97KHHO4I6P2AJ31XKZ17OGJQZ","","null","<img src=""img/land5.png"" style=""width:200px; border:14px solid green;"">","null","","","","","","","","","",""
"","image-keyboard-response","28","28471","0.0-28.0","3M68NM076ITUSWNPUH3EIP0PO9UR6W","A106QH27FETZ88","38DCH97KHHO4I6P2AJ31XKZ17OGJQZ","","110","img/land2.png","74","112","1","1","1","1","1,0.5,0.5,0.5,1,0.5,0.5,0.5,1","1,0.5,0.5,0.5,1,0.5,0.5,0.5,1","1","",""
"","html-keyboard-response","29","28771","0.0-29.0","3M68NM076ITUSWNPUH3EIP0PO9UR6W","A106QH27FETZ88","38DCH97KHHO4I6P2AJ31XKZ17OGJQZ","","null","<img src=""img/land2.png"" style=""width:200px; border:14px solid green;"">","null","","","","","","","","","",""
"","image-keyboard-response","30","28889","0.0-30.0","3M68NM076ITUSWNPUH3EIP0PO9UR6W","A106QH27FETZ88","38DCH97KHHO4I6P2AJ31XKZ17OGJQZ","","115","img/land5.png","74","116","1","1","3","1","1,0.5,0.5,0.5,1,0.5,0.5,0.5,1","1,0.5,0.5,0.5,1,0.5,0.5,0.5,1","1","",""
"","html-keyboard-response","31","29191","0.0-31.0","3M68NM076ITUSWNPUH3EIP0PO9UR6W","A106QH27FETZ88","38DCH97KHHO4I6P2AJ31XKZ17OGJQZ","","null","<img src=""img/land5.png"" style=""width:200px; border:14px solid green;"">","null","","","","","","","","","",""
"","image-keyboard-response","32","29233","0.0-32.0","3M68NM076ITUSWNPUH3EIP0PO9UR6W","A106QH27FETZ88","38DCH97KHHO4I6P2AJ31XKZ17OGJQZ","","37","img/land5.png","75","39","2","0","3","1","1,0.5,0.5,0.5,1,0.5,0.5,0.5,1","1,0.5,0.5,0.5,1,0.5,0.5,0.5,1","1","",""
"","html-keyboard-response","33","29536","0.0-33.0","3M68NM076ITUSWNPUH3EIP0PO9UR6W","A106QH27FETZ88","38DCH97KHHO4I6P2AJ31XKZ17OGJQZ","","null","<img src=""img/land5.png"" style=""width:200px;border:14px solid red;"">","null","","","","","","","","","",""
"","image-keyboard-response","34","29661","0.0-34.0","3M68NM076ITUSWNPUH3EIP0PO9UR6W","A106QH27FETZ88","38DCH97KHHO4I6P2AJ31XKZ17OGJQZ","","122","img/land1.png","74","124","1","0","2","1","1,0.5,0.5,0.5,1,0.5,0.5,0.5,1","1,0.5,0.5,0.5,1,0.5,0.5,0.5,1","1","",""
"","html-keyboard-response","35","29964","0.0-35.0","3M68NM076ITUSWNPUH3EIP0PO9UR6W","A106QH27FETZ88","38DCH97KHHO4I6P2AJ31XKZ17OGJQZ","","null","<img src=""img/land1.png"" style=""width:200px;border:14px solid red;"">","null","","","","","","","","","",""
"","image-keyboard-response","36","30040","0.0-36.0","3M68NM076ITUSWNPUH3EIP0PO9UR6W","A106QH27FETZ88","38DCH97KHHO4I6P2AJ31XKZ17OGJQZ","","73","img/land2.png","74","74","1","1","1","1","1,0.5,0.5,0.5,1,0.5,0.5,0.5,1","1,0.5,0.5,0.5,1,0.5,0.5,0.5,1","1","",""
"","html-keyboard-response","37","30342","0.0-37.0","3M68NM076ITUSWNPUH3EIP0PO9UR6W","A106QH27FETZ88","38DCH97KHHO4I6P2AJ31XKZ17OGJQZ","","null","<img src=""img/land2.png"" style=""width:200px; border:14px solid green;"">","null","","","","","","","","","",""
"","image-keyboard-response","38","30433","0.0-38.0","3M68NM076ITUSWNPUH3EIP0PO9UR6W","A106QH27FETZ88","38DCH97KHHO4I6P2AJ31XKZ17OGJQZ","","88","img/land5.png","74","89","1","1","3","1","1,0.5,0.5,0.5,1,0.5,0.5,0.5,1","1,0.5,0.5,0.5,1,0.5,0.5,0.5,1","1","",""
"","html-keyboard-response","39","30736","0.0-39.0","3M68NM076ITUSWNPUH3EIP0PO9UR6W","A106QH27FETZ88","38DCH97KHHO4I6P2AJ31XKZ17OGJQZ","","null","<img src=""img/land5.png"" style=""width:200px; border:14px solid green;"">","null","","","","","","","","","",""
"","image-keyboard-response","40","30798","0.0-40.0","3M68NM076ITUSWNPUH3EIP0PO9UR6W","A106QH27FETZ88","38DCH97KHHO4I6P2AJ31XKZ17OGJQZ","","59","img/land1.png","76","60","3","0","2","1","1,0.5,0.5,0.5,1,0.5,0.5,0.5,1","1,0.5,0.5,0.5,1,0.5,0.5,0.5,1","1","",""
"","html-keyboard-response","41","31099","0.0-41.0","3M68NM076ITUSWNPUH3EIP0PO9UR6W","A106QH27FETZ88","38DCH97KHHO4I6P2AJ31XKZ17OGJQZ","","null","<img src=""img/land1.png"" style=""width:200px;border:14px solid red;"">","null","","","","","","","","","",""
"","image-keyboard-response","42","31119","0.0-42.0","3M68NM076ITUSWNPUH3EIP0PO9UR6W","A106QH27FETZ88","38DCH97KHHO4I6P2AJ31XKZ17OGJQZ","","16","img/land2.png","76","18","3","0","1","1","1,0.5,0.5,0.5,1,0.5,0.5,0.5,1","1,0.5,0.5,0.5,1,0.5,0.5,0.5,1","1","",""
"","html-keyboard-response","43","31421","0.0-43.0","3M68NM076ITUSWNPUH3EIP0PO9UR6W","A106QH27FETZ88","38DCH97KHHO4I6P2AJ31XKZ17OGJQZ","","null","<img src=""img/land2.png"" style=""width:200px;border:14px solid red;"">","null","","","","","","","","","",""
"","image-keyboard-response","44","31438","0.0-44.0","3M68NM076ITUSWNPUH3EIP0PO9UR6W","A106QH27FETZ88","38DCH97KHHO4I6P2AJ31XKZ17OGJQZ","","14","img/land5.png","74","16","1","1","3","1","1,0.5,0.5,0.5,1,0.5,0.5,0.5,1","1,0.5,0.5,0.5,1,0.5,0.5,0.5,1","1","",""
"","html-keyboard-response","45","31740","0.0-45.0","3M68NM076ITUSWNPUH3EIP0PO9UR6W","A106QH27FETZ88","38DCH97KHHO4I6P2AJ31XKZ17OGJQZ","","null","<img src=""img/land5.png"" style=""width:200px; border:14px solid green;"">","null","","","","","","","","","",""
"","image-keyboard-response","46","31865","0.0-46.0","3M68NM076ITUSWNPUH3EIP0PO9UR6W","A106QH27FETZ88","38DCH97KHHO4I6P2AJ31XKZ17OGJQZ","","119","img/land5.png","75","122","2","0","3","1","1,0.5,0.5,0.5,1,0.5,0.5,0.5,1","1,0.5,0.5,0.5,1,0.5,0.5,0.5,1","1","",""
"","html-keyboard-response","47","32167","0.0-47.0","3M68NM076ITUSWNPUH3EIP0PO9UR6W","A106QH27FETZ88","38DCH97KHHO4I6P2AJ31XKZ17OGJQZ","","null","<img src=""img/land5.png"" style=""width:200px;border:14px solid red;"">","null","","","","","","","","","",""
"","image-keyboard-response","48","32183","0.0-48.0","3M68NM076ITUSWNPUH3EIP0PO9UR6W","A106QH27FETZ88","38DCH97KHHO4I6P2AJ31XKZ17OGJQZ","","12","img/land1.png","74","14","1","0","2","1","1,0.5,0.5,0.5,1,0.5,0.5,0.5,1","1,0.5,0.5,0.5,1,0.5,0.5,0.5,1","1","",""
"","html-keyboard-response","49","32485","0.0-49.0","3M68NM076ITUSWNPUH3EIP0PO9UR6W","A106QH27FETZ88","38DCH97KHHO4I6P2AJ31XKZ17OGJQZ","","null","<img src=""img/land1.png"" style=""width:200px;border:14px solid red;"">","null","","","","","","","","","",""
"","image-keyboard-response","50","32585","0.0-50.0","3M68NM076ITUSWNPUH3EIP0PO9UR6W","A106QH27FETZ88","38DCH97KHHO4I6P2AJ31XKZ17OGJQZ","","96","img/land1.png","75","99","2","1","2","1","1,0.5,0.5,0.5,1,0.5,0.5,0.5,1","1,0.5,0.5,0.5,1,0.5,0.5,0.5,1","1","",""
"","html-keyboard-response","51","32888","0.0-51.0","3M68NM076ITUSWNPUH3EIP0PO9UR6W","A106QH27FETZ88","38DCH97KHHO4I6P2AJ31XKZ17OGJQZ","","null","<img src=""img/land1.png"" style=""width:200px; border:14px solid green;"">","null","","","","","","","","","",""
"","image-keyboard-response","52","32928","0.0-52.0","3M68NM076ITUSWNPUH3EIP0PO9UR6W","A106QH27FETZ88","38DCH97KHHO4I6P2AJ31XKZ17OGJQZ","","38","img/land2.png","75","39","2","0","1","1","1,0.5,0.5,0.5,1,0.5,0.5,0.5,1","1,0.5,0.5,0.5,1,0.5,0.5,0.5,1","1","",""
"","html-keyboard-response","53","33229","0.0-53.0","3M68NM076ITUSWNPUH3EIP0PO9UR6W","A106QH27FETZ88","38DCH97KHHO4I6P2AJ31XKZ17OGJQZ","","null","<img src=""img/land2.png"" style=""width:200px;border:14px solid red;"">","null","","","","","","","","","",""
"","image-keyboard-response","54","33262","0.0-54.0","3M68NM076ITUSWNPUH3EIP0PO9UR6W","A106QH27FETZ88","38DCH97KHHO4I6P2AJ31XKZ17OGJQZ","","31","img/land5.png","74","32","1","1","3","1","1,0.5,0.5,0.5,1,0.5,0.5,0.5,1","1,0.5,0.5,0.5,1,0.5,0.5,0.5,1","1","",""
"","html-keyboard-response","55","33565","0.0-55.0","3M68NM076ITUSWNPUH3EIP0PO9UR6W","A106QH27FETZ88","38DCH97KHHO4I6P2AJ31XKZ17OGJQZ","","null","<img src=""img/land5.png"" style=""width:200px; border:14px solid green;"">","null","","","","","","","","","",""
"","image-keyboard-response","56","33696","0.0-56.0","3M68NM076ITUSWNPUH3EIP0PO9UR6W","A106QH27FETZ88","38DCH97KHHO4I6P2AJ31XKZ17OGJQZ","","130","img/land5.png","75","131","2","0","3","1","1,0.5,0.5,0.5,1,0.5,0.5,0.5,1","1,0.5,0.5,0.5,1,0.5,0.5,0.5,1","1","",""
"","html-keyboard-response","57","33998","0.0-57.0","3M68NM076ITUSWNPUH3EIP0PO9UR6W","A106QH27FETZ88","38DCH97KHHO4I6P2AJ31XKZ17OGJQZ","","null","<img src=""img/land5.png"" style=""width:200px;border:14px solid red;"">","null","","","","","","","","","",""
"","image-keyboard-response","58","34130","0.0-58.0","3M68NM076ITUSWNPUH3EIP0PO9UR6W","A106QH27FETZ88","38DCH97KHHO4I6P2AJ31XKZ17OGJQZ","","131","img/land2.png","76","131","3","0","1","1","1,0.5,0.5,0.5,1,0.5,0.5,0.5,1","1,0.5,0.5,0.5,1,0.5,0.5,0.5,1","1","",""
"","html-keyboard-response","59","34434","0.0-59.0","3M68NM076ITUSWNPUH3EIP0PO9UR6W","A106QH27FETZ88","38DCH97KHHO4I6P2AJ31XKZ17OGJQZ","","null","<img src=""img/land2.png"" style=""width:200px;border:14px solid red;"">","null","","","","","","","","","",""
"","image-keyboard-response","60","34565","0.0-60.0","3M68NM076ITUSWNPUH3EIP0PO9UR6W","A106QH27FETZ88","38DCH97KHHO4I6P2AJ31XKZ17OGJQZ","","128","img/land1.png","74","130","1","0","2","1","1,0.5,0.5,0.5,1,0.5,0.5,0.5,1","1,0.5,0.5,0.5,1,0.5,0.5,0.5,1","1","",""
"","html-keyboard-response","61","34868","0.0-61.0","3M68NM076ITUSWNPUH3EIP0PO9UR6W","A106QH27FETZ88","38DCH97KHHO4I6P2AJ31XKZ17OGJQZ","","null","<img src=""img/land1.png"" style=""width:200px;border:14px solid red;"">","null","","","","","","","","","",""
"","image-keyboard-response","62","34910","0.0-62.0","3M68NM076ITUSWNPUH3EIP0PO9UR6W","A106QH27FETZ88","38DCH97KHHO4I6P2AJ31XKZ17OGJQZ","","38","img/land1.png","74","40","1","1","2","1","1,0.5,0.5,0.5,1,0.5,0.5,0.5,1","1,0.5,0.5,0.5,1,0.5,0.5,0.5,1","1","",""
"","html-keyboard-response","63","35213","0.0-63.0","3M68NM076ITUSWNPUH3EIP0PO9UR6W","A106QH27FETZ88","38DCH97KHHO4I6P2AJ31XKZ17OGJQZ","","null","<img src=""img/land1.png"" style=""width:200px; border:14px solid green;"">","null","","","","","","","","","",""
"","image-keyboard-response","64","35328","0.0-64.0","3M68NM076ITUSWNPUH3EIP0PO9UR6W","A106QH27FETZ88","38DCH97KHHO4I6P2AJ31XKZ17OGJQZ","","113","img/land1.png","75","114","2","1","2","1","1,0.5,0.5,0.5,1,0.5,0.5,0.5,1","1,0.5,0.5,0.5,1,0.5,0.5,0.5,1","1","",""
"","html-keyboard-response","65","35631","0.0-65.0","3M68NM076ITUSWNPUH3EIP0PO9UR6W","A106QH27FETZ88","38DCH97KHHO4I6P2AJ31XKZ17OGJQZ","","null","<img src=""img/land1.png"" style=""width:200px; border:14px solid green;"">","null","","","","","","","","","",""
"","image-keyboard-response","66","35826","0.0-66.0","3M68NM076ITUSWNPUH3EIP0PO9UR6W","A106QH27FETZ88","38DCH97KHHO4I6P2AJ31XKZ17OGJQZ","","192","img/land5.png","75","194","2","0","3","1","1,0.5,0.5,0.5,1,0.5,0.5,0.5,1","1,0.5,0.5,0.5,1,0.5,0.5,0.5,1","1","",""
"","html-keyboard-response","67","36128","0.0-67.0","3M68NM076ITUSWNPUH3EIP0PO9UR6W","A106QH27FETZ88","38DCH97KHHO4I6P2AJ31XKZ17OGJQZ","","null","<img src=""img/land5.png"" style=""width:200px;border:14px solid red;"">","null","","","","","","","","","",""
"","image-keyboard-response","68","36198","0.0-68.0","3M68NM076ITUSWNPUH3EIP0PO9UR6W","A106QH27FETZ88","38DCH97KHHO4I6P2AJ31XKZ17OGJQZ","","65","img/land2.png","75","70","2","1","1","1","1,0.5,0.5,0.5,1,0.5,0.5,0.5,1","1,0.5,0.5,0.5,1,0.5,0.5,0.5,1","1","",""
"","html-keyboard-response","69","36501","0.0-69.0","3M68NM076ITUSWNPUH3EIP0PO9UR6W","A106QH27FETZ88","38DCH97KHHO4I6P2AJ31XKZ17OGJQZ","","null","<img src=""img/land2.png"" style=""width:200px; border:14px solid green;"">","null","","","","","","","","","",""
"","image-keyboard-response","70","36516","0.0-70.0","3M68NM076ITUSWNPUH3EIP0PO9UR6W","A106QH27FETZ88","38DCH97KHHO4I6P2AJ31XKZ17OGJQZ","","12","img/land2.png","76","14","3","0","1","1","1,0.5,0.5,0.5,1,0.5,0.5,0.5,1","1,0.5,0.5,0.5,1,0.5,0.5,0.5,1","1","",""
"","html-keyboard-response","71","36817","0.0-71.0","3M68NM076ITUSWNPUH3EIP0PO9UR6W","A106QH27FETZ88","38DCH97KHHO4I6P2AJ31XKZ17OGJQZ","","null","<img src=""img/land2.png"" style=""width:200px;border:14px solid red;"">","null","","","","","","","","","",""
"","image-keyboard-response","72","36953","0.0-72.0","3M68NM076ITUSWNPUH3EIP0PO9UR6W","A106QH27FETZ88","38DCH97KHHO4I6P2AJ31XKZ17OGJQZ","","132","img/land2.png","75","134","2","1","1","1","1,0.5,0.5,0.5,1,0.5,0.5,0.5,1","1,0.5,0.5,0.5,1,0.5,0.5,0.5,1","1","",""
"","html-keyboard-response","73","37256","0.0-73.0","3M68NM076ITUSWNPUH3EIP0PO9UR6W","A106QH27FETZ88","38DCH97KHHO4I6P2AJ31XKZ17OGJQZ","","null","<img src=""img/land2.png"" style=""width:200px; border:14px solid green;"">","null","","","","","","","","","",""
"","image-keyboard-response","74","37621","0.0-74.0","3M68NM076ITUSWNPUH3EIP0PO9UR6W","A106QH27FETZ88","38DCH97KHHO4I6P2AJ31XKZ17OGJQZ","","362","img/land2.png","75","364","2","1","1","1","1,0.5,0.5,0.5,1,0.5,0.5,0.5,1","1,0.5,0.5,0.5,1,0.5,0.5,0.5,1","1","",""
"","html-keyboard-response","75","37922","0.0-75.0","3M68NM076ITUSWNPUH3EIP0PO9UR6W","A106QH27FETZ88","38DCH97KHHO4I6P2AJ31XKZ17OGJQZ","","null","<img src=""img/land2.png"" style=""width:200px; border:14px solid green;"">","null","","","","","","","","","",""
"","image-keyboard-response","76","38047","0.0-76.0","3M68NM076ITUSWNPUH3EIP0PO9UR6W","A106QH27FETZ88","38DCH97KHHO4I6P2AJ31XKZ17OGJQZ","","120","img/land1.png","74","123","1","1","2","1","1,0.5,0.5,0.5,1,0.5,0.5,0.5,1","1,0.5,0.5,0.5,1,0.5,0.5,0.5,1","1","",""
"","html-keyboard-response","77","38348","0.0-77.0","3M68NM076ITUSWNPUH3EIP0PO9UR6W","A106QH27FETZ88","38DCH97KHHO4I6P2AJ31XKZ17OGJQZ","","null","<img src=""img/land1.png"" style=""width:200px; border:14px solid green;"">","null","","","","","","","","","",""
"","image-keyboard-response","78","38468","0.0-78.0","3M68NM076ITUSWNPUH3EIP0PO9UR6W","A106QH27FETZ88","38DCH97KHHO4I6P2AJ31XKZ17OGJQZ","","116","img/land1.png","74","117","1","1","2","1","1,0.5,0.5,0.5,1,0.5,0.5,0.5,1","1,0.5,0.5,0.5,1,0.5,0.5,0.5,1","1","",""
"","html-keyboard-response","79","38771","0.0-79.0","3M68NM076ITUSWNPUH3EIP0PO9UR6W","A106QH27FETZ88","38DCH97KHHO4I6P2AJ31XKZ17OGJQZ","","null","<img src=""img/land1.png"" style=""width:200px; border:14px solid green;"">","null","","","","","","","","","",""
"","image-keyboard-response","80","38802","0.0-80.0","3M68NM076ITUSWNPUH3EIP0PO9UR6W","A106QH27FETZ88","38DCH97KHHO4I6P2AJ31XKZ17OGJQZ","","29","img/land2.png","76","30","3","0","1","1","1,0.5,0.5,0.5,1,0.5,0.5,0.5,1","1,0.5,0.5,0.5,1,0.5,0.5,0.5,1","1","",""
"","html-keyboard-response","81","39103","0.0-81.0","3M68NM076ITUSWNPUH3EIP0PO9UR6W","A106QH27FETZ88","38DCH97KHHO4I6P2AJ31XKZ17OGJQZ","","null","<img src=""img/land2.png"" style=""width:200px;border:14px solid red;"">","null","","","","","","","","","",""
"","image-keyboard-response","82","39150","0.0-82.0","3M68NM076ITUSWNPUH3EIP0PO9UR6W","A106QH27FETZ88","38DCH97KHHO4I6P2AJ31XKZ17OGJQZ","","46","img/land2.png","74","46","1","1","1","1","1,0.5,0.5,0.5,1,0.5,0.5,0.5,1","1,0.5,0.5,0.5,1,0.5,0.5,0.5,1","1","",""
"","html-keyboard-response","83","39453","0.0-83.0","3M68NM076ITUSWNPUH3EIP0PO9UR6W","A106QH27FETZ88","38DCH97KHHO4I6P2AJ31XKZ17OGJQZ","","null","<img src=""img/land2.png"" style=""width:200px; border:14px solid green;"">","null","","","","","","","","","",""
"","image-keyboard-response","84","39577","0.0-84.0","3M68NM076ITUSWNPUH3EIP0PO9UR6W","A106QH27FETZ88","38DCH97KHHO4I6P2AJ31XKZ17OGJQZ","","121","img/land1.png","75","123","2","1","2","1","1,0.5,0.5,0.5,1,0.5,0.5,0.5,1","1,0.5,0.5,0.5,1,0.5,0.5,0.5,1","1","",""
"","html-keyboard-response","85","39878","0.0-85.0","3M68NM076ITUSWNPUH3EIP0PO9UR6W","A106QH27FETZ88","38DCH97KHHO4I6P2AJ31XKZ17OGJQZ","","null","<img src=""img/land1.png"" style=""width:200px; border:14px solid green;"">","null","","","","","","","","","",""
"","image-keyboard-response","86","39888","0.0-86.0","3M68NM076ITUSWNPUH3EIP0PO9UR6W","A106QH27FETZ88","38DCH97KHHO4I6P2AJ31XKZ17OGJQZ","","8","img/land1.png","75","9","2","1","2","1","1,0.5,0.5,0.5,1,0.5,0.5,0.5,1","1,0.5,0.5,0.5,1,0.5,0.5,0.5,1","1","",""
"","html-keyboard-response","87","40189","0.0-87.0","3M68NM076ITUSWNPUH3EIP0PO9UR6W","A106QH27FETZ88","38DCH97KHHO4I6P2AJ31XKZ17OGJQZ","","null","<img src=""img/land1.png"" style=""width:200px; border:14px solid green;"">","null","","","","","","","","","",""
"","image-keyboard-response","88","40295","0.0-88.0","3M68NM076ITUSWNPUH3EIP0PO9UR6W","A106QH27FETZ88","38DCH97KHHO4I6P2AJ31XKZ17OGJQZ","","104","img/land2.png","74","105","1","1","1","1","1,0.5,0.5,0.5,1,0.5,0.5,0.5,1","1,0.5,0.5,0.5,1,0.5,0.5,0.5,1","1","",""
"","html-keyboard-response","89","40596","0.0-89.0","3M68NM076ITUSWNPUH3EIP0PO9UR6W","A106QH27FETZ88","38DCH97KHHO4I6P2AJ31XKZ17OGJQZ","","null","<img src=""img/land2.png"" style=""width:200px; border:14px solid green;"">","null","","","","","","","","","",""
"","image-keyboard-response","90","40661","0.0-90.0","3M68NM076ITUSWNPUH3EIP0PO9UR6W","A106QH27FETZ88","38DCH97KHHO4I6P2AJ31XKZ17OGJQZ","","63","img/land1.png","75","64","2","1","2","1","1,0.5,0.5,0.5,1,0.5,0.5,0.5,1","1,0.5,0.5,0.5,1,0.5,0.5,0.5,1","1","",""
"","html-keyboard-response","91","40963","0.0-91.0","3M68NM076ITUSWNPUH3EIP0PO9UR6W","A106QH27FETZ88","38DCH97KHHO4I6P2AJ31XKZ17OGJQZ","","null","<img src=""img/land1.png"" style=""width:200px; border:14px solid green;"">","null","","","","","","","","","",""
"","image-keyboard-response","92","41048","0.0-92.0","3M68NM076ITUSWNPUH3EIP0PO9UR6W","A106QH27FETZ88","38DCH97KHHO4I6P2AJ31XKZ17OGJQZ","","83","img/land5.png","74","84","1","1","3","1","1,0.5,0.5,0.5,1,0.5,0.5,0.5,1","1,0.5,0.5,0.5,1,0.5,0.5,0.5,1","1","",""
"","html-keyboard-response","93","41352","0.0-93.0","3M68NM076ITUSWNPUH3EIP0PO9UR6W","A106QH27FETZ88","38DCH97KHHO4I6P2AJ31XKZ17OGJQZ","","null","<img src=""img/land5.png"" style=""width:200px; border:14px solid green;"">","null","","","","","","","","","",""
"","image-keyboard-response","94","41376","0.0-94.0","3M68NM076ITUSWNPUH3EIP0PO9UR6W","A106QH27FETZ88","38DCH97KHHO4I6P2AJ31XKZ17OGJQZ","","20","img/land2.png","75","23","2","0","1","1","1,0.5,0.5,0.5,1,0.5,0.5,0.5,1","1,0.5,0.5,0.5,1,0.5,0.5,0.5,1","1","",""
"","html-keyboard-response","95","41681","0.0-95.0","3M68NM076ITUSWNPUH3EIP0PO9UR6W","A106QH27FETZ88","38DCH97KHHO4I6P2AJ31XKZ17OGJQZ","","null","<img src=""img/land2.png"" style=""width:200px;border:14px solid red;"">","null","","","","","","","","","",""
"","image-keyboard-response","96","41786","0.0-96.0","3M68NM076ITUSWNPUH3EIP0PO9UR6W","A106QH27FETZ88","38DCH97KHHO4I6P2AJ31XKZ17OGJQZ","","104","img/land1.png","74","105","1","1","2","1","1,0.5,0.5,0.5,1,0.5,0.5,0.5,1","1,0.5,0.5,0.5,1,0.5,0.5,0.5,1","1","",""
"","html-keyboard-response","97","42089","0.0-97.0","3M68NM076ITUSWNPUH3EIP0PO9UR6W","A106QH27FETZ88","38DCH97KHHO4I6P2AJ31XKZ17OGJQZ","","null","<img src=""img/land1.png"" style=""width:200px; border:14px solid green;"">","null","","","","","","","","","",""
"","image-keyboard-response","98","42120","0.0-98.0","3M68NM076ITUSWNPUH3EIP0PO9UR6W","A106QH27FETZ88","38DCH97KHHO4I6P2AJ31XKZ17OGJQZ","","30","img/land2.png","75","31","2","1","1","1","1,0.5,0.5,0.5,1,0.5,0.5,0.5,1","1,0.5,0.5,0.5,1,0.5,0.5,0.5,1","1","",""
"","html-keyboard-response","99","42422","0.0-99.0","3M68NM076ITUSWNPUH3EIP0PO9UR6W","A106QH27FETZ88","38DCH97KHHO4I6P2AJ31XKZ17OGJQZ","","null","<img src=""img/land2.png"" style=""width:200px; border:14px solid green;"">","null","","","","","","","","","",""
"","image-keyboard-response","100","42455","0.0-100.0","3M68NM076ITUSWNPUH3EIP0PO9UR6W","A106QH27FETZ88","38DCH97KHHO4I6P2AJ31XKZ17OGJQZ","","32","img/land5.png","75","33","2","0","3","1","1,0.5,0.5,0.5,1,0.5,0.5,0.5,1","1,0.5,0.5,0.5,1,0.5,0.5,0.5,1","1","",""
"","html-keyboard-response","101","42758","0.0-101.0","3M68NM076ITUSWNPUH3EIP0PO9UR6W","A106QH27FETZ88","38DCH97KHHO4I6P2AJ31XKZ17OGJQZ","","null","<img src=""img/land5.png"" style=""width:200px;border:14px solid red;"">","null","","","","","","","","","",""
"","image-keyboard-response","102","42768","0.0-102.0","3M68NM076ITUSWNPUH3EIP0PO9UR6W","A106QH27FETZ88","38DCH97KHHO4I6P2AJ31XKZ17OGJQZ","","7","img/land5.png","76","9","3","1","3","1","1,0.5,0.5,0.5,1,0.5,0.5,0.5,1","1,0.5,0.5,0.5,1,0.5,0.5,0.5,1","1","",""
"","html-keyboard-response","103","43069","0.0-103.0","3M68NM076ITUSWNPUH3EIP0PO9UR6W","A106QH27FETZ88","38DCH97KHHO4I6P2AJ31XKZ17OGJQZ","","null","<img src=""img/land5.png"" style=""width:200px; border:14px solid green;"">","null","","","","","","","","","",""
"","image-keyboard-response","104","43096","0.0-104.0","3M68NM076ITUSWNPUH3EIP0PO9UR6W","A106QH27FETZ88","38DCH97KHHO4I6P2AJ31XKZ17OGJQZ","","24","img/land5.png","74","26","1","0","3","1","1,0.5,0.5,0.5,1,0.5,0.5,0.5,1","1,0.5,0.5,0.5,1,0.5,0.5,0.5,1","1","",""
"","html-keyboard-response","105","43400","0.0-105.0","3M68NM076ITUSWNPUH3EIP0PO9UR6W","A106QH27FETZ88","38DCH97KHHO4I6P2AJ31XKZ17OGJQZ","","null","<img src=""img/land5.png"" style=""width:200px;border:14px solid red;"">","null","","","","","","","","","",""
"","image-keyboard-response","106","43490","0.0-106.0","3M68NM076ITUSWNPUH3EIP0PO9UR6W","A106QH27FETZ88","38DCH97KHHO4I6P2AJ31XKZ17OGJQZ","","89","img/land2.png","76","89","3","1","1","1","1,0.5,0.5,0.5,1,0.5,0.5,0.5,1","1,0.5,0.5,0.5,1,0.5,0.5,0.5,1","1","",""
"","html-keyboard-response","107","43794","0.0-107.0","3M68NM076ITUSWNPUH3EIP0PO9UR6W","A106QH27FETZ88","38DCH97KHHO4I6P2AJ31XKZ17OGJQZ","","null","<img src=""img/land2.png"" style=""width:200px; border:14px solid green;"">","null","","","","","","","","","",""
"","image-keyboard-response","108","43875","0.0-108.0","3M68NM076ITUSWNPUH3EIP0PO9UR6W","A106QH27FETZ88","38DCH97KHHO4I6P2AJ31XKZ17OGJQZ","","79","img/land2.png","75","80","2","1","1","1","1,0.5,0.5,0.5,1,0.5,0.5,0.5,1","1,0.5,0.5,0.5,1,0.5,0.5,0.5,1","1","",""
"","html-keyboard-response","109","44181","0.0-109.0","3M68NM076ITUSWNPUH3EIP0PO9UR6W","A106QH27FETZ88","38DCH97KHHO4I6P2AJ31XKZ17OGJQZ","","null","<img src=""img/land2.png"" style=""width:200px; border:14px solid green;"">","null","","","","","","","","","",""
"","image-keyboard-response","110","44241","0.0-110.0","3M68NM076ITUSWNPUH3EIP0PO9UR6W","A106QH27FETZ88","38DCH97KHHO4I6P2AJ31XKZ17OGJQZ","","57","img/land5.png","74","59","1","0","3","1","1,0.5,0.5,0.5,1,0.5,0.5,0.5,1","1,0.5,0.5,0.5,1,0.5,0.5,0.5,1","1","",""
"","html-keyboard-response","111","44555","0.0-111.0","3M68NM076ITUSWNPUH3EIP0PO9UR6W","A106QH27FETZ88","38DCH97KHHO4I6P2AJ31XKZ17OGJQZ","","null","<img src=""img/land5.png"" style=""width:200px;border:14px solid red;"">","null","","","","","","","","","",""
"","image-keyboard-response","112","44565","0.0-112.0","3M68NM076ITUSWNPUH3EIP0PO9UR6W","A106QH27FETZ88","38DCH97KHHO4I6P2AJ31XKZ17OGJQZ","","9","img/land1.png","74","9","1","0","2","1","1,0.5,0.5,0.5,1,0.5,0.5,0.5,1","1,0.5,0.5,0.5,1,0.5,0.5,0.5,1","1","",""
"","html-keyboard-response","113","44866","0.0-113.0","3M68NM076ITUSWNPUH3EIP0PO9UR6W","A106QH27FETZ88","38DCH97KHHO4I6P2AJ31XKZ17OGJQZ","","null","<img src=""img/land1.png"" style=""width:200px;border:14px solid red;"">","null","","","","","","","","","",""
"","image-keyboard-response","114","44911","0.0-114.0","3M68NM076ITUSWNPUH3EIP0PO9UR6W","A106QH27FETZ88","38DCH97KHHO4I6P2AJ31XKZ17OGJQZ","","41","img/land2.png","76","43","3","0","1","1","1,0.5,0.5,0.5,1,0.5,0.5,0.5,1","1,0.5,0.5,0.5,1,0.5,0.5,0.5,1","1","",""
"","html-keyboard-response","115","45213","0.0-115.0","3M68NM076ITUSWNPUH3EIP0PO9UR6W","A106QH27FETZ88","38DCH97KHHO4I6P2AJ31XKZ17OGJQZ","","null","<img src=""img/land2.png"" style=""width:200px;border:14px solid red;"">","null","","","","","","","","","",""
"","image-keyboard-response","116","45241","0.0-116.0","3M68NM076ITUSWNPUH3EIP0PO9UR6W","A106QH27FETZ88","38DCH97KHHO4I6P2AJ31XKZ17OGJQZ","","26","img/land5.png","76","27","3","1","3","1","1,0.5,0.5,0.5,1,0.5,0.5,0.5,1","1,0.5,0.5,0.5,1,0.5,0.5,0.5,1","1","",""
"","html-keyboard-response","117","45544","0.0-117.0","3M68NM076ITUSWNPUH3EIP0PO9UR6W","A106QH27FETZ88","38DCH97KHHO4I6P2AJ31XKZ17OGJQZ","","null","<img src=""img/land5.png"" style=""width:200px; border:14px solid green;"">","null","","","","","","","","","",""
"","image-keyboard-response","118","45548","0.0-118.0","3M68NM076ITUSWNPUH3EIP0PO9UR6W","A106QH27FETZ88","38DCH97KHHO4I6P2AJ31XKZ17OGJQZ","","1","img/land1.png","74","7","1","0","2","1","1,0.5,0.5,0.5,1,0.5,0.5,0.5,1","1,0.5,0.5,0.5,1,0.5,0.5,0.5,1","1","",""
"","html-keyboard-response","119","45857","0.0-119.0","3M68NM076ITUSWNPUH3EIP0PO9UR6W","A106QH27FETZ88","38DCH97KHHO4I6P2AJ31XKZ17OGJQZ","","null","<img src=""img/land1.png"" style=""width:200px;border:14px solid red;"">","null","","","","","","","","","",""
"","image-keyboard-response","120","45985","0.0-120.0","3M68NM076ITUSWNPUH3EIP0PO9UR6W","A106QH27FETZ88","38DCH97KHHO4I6P2AJ31XKZ17OGJQZ","","126","img/land1.png","76","127","3","1","2","1","1,0.5,0.5,0.5,1,0.5,0.5,0.5,1","1,0.5,0.5,0.5,1,0.5,0.5,0.5,1","1","",""
"","html-keyboard-response","121","46289","0.0-121.0","3M68NM076ITUSWNPUH3EIP0PO9UR6W","A106QH27FETZ88","38DCH97KHHO4I6P2AJ31XKZ17OGJQZ","","null","<img src=""img/land1.png"" style=""width:200px; border:14px solid green;"">","null","","","","","","","","","",""
"","image-keyboard-response","122","46377","0.0-122.0","3M68NM076ITUSWNPUH3EIP0PO9UR6W","A106QH27FETZ88","38DCH97KHHO4I6P2AJ31XKZ17OGJQZ","","80","img/land2.png","76","83","3","0","1","1","1,0.5,0.5,0.5,1,0.5,0.5,0.5,1","1,0.5,0.5,0.5,1,0.5,0.5,0.5,1","1","",""
"","html-keyboard-response","123","46679","0.0-123.0","3M68NM076ITUSWNPUH3EIP0PO9UR6W","A106QH27FETZ88","38DCH97KHHO4I6P2AJ31XKZ17OGJQZ","","null","<img src=""img/land2.png"" style=""width:200px;border:14px solid red;"">","null","","","","","","","","","",""
"","image-keyboard-response","124","46689","0.0-124.0","3M68NM076ITUSWNPUH3EIP0PO9UR6W","A106QH27FETZ88","38DCH97KHHO4I6P2AJ31XKZ17OGJQZ","","7","img/land1.png","74","10","1","1","2","1","1,0.5,0.5,0.5,1,0.5,0.5,0.5,1","1,0.5,0.5,0.5,1,0.5,0.5,0.5,1","1","",""
"","html-keyboard-response","125","46990","0.0-125.0","3M68NM076ITUSWNPUH3EIP0PO9UR6W","A106QH27FETZ88","38DCH97KHHO4I6P2AJ31XKZ17OGJQZ","","null","<img src=""img/land1.png"" style=""width:200px; border:14px solid green;"">","null","","","","","","","","","",""
"","image-keyboard-response","126","47072","0.0-126.0","3M68NM076ITUSWNPUH3EIP0PO9UR6W","A106QH27FETZ88","38DCH97KHHO4I6P2AJ31XKZ17OGJQZ","","80","img/land2.png","75","81","2","0","1","1","1,0.5,0.5,0.5,1,0.5,0.5,0.5,1","1,0.5,0.5,0.5,1,0.5,0.5,0.5,1","1","",""
"","html-keyboard-response","127","47375","0.0-127.0","3M68NM076ITUSWNPUH3EIP0PO9UR6W","A106QH27FETZ88","38DCH97KHHO4I6P2AJ31XKZ17OGJQZ","","null","<img src=""img/land2.png"" style=""width:200px;border:14px solid red;"">","null","","","","","","","","","",""
"","image-keyboard-response","128","47378","0.0-128.0","3M68NM076ITUSWNPUH3EIP0PO9UR6W","A106QH27FETZ88","38DCH97KHHO4I6P2AJ31XKZ17OGJQZ","","0","img/land2.png","74","3","1","1","1","1","1,0.5,0.5,0.5,1,0.5,0.5,0.5,1","1,0.5,0.5,0.5,1,0.5,0.5,0.5,1","1","",""
"","html-keyboard-response","129","47681","0.0-129.0","3M68NM076ITUSWNPUH3EIP0PO9UR6W","A106QH27FETZ88","38DCH97KHHO4I6P2AJ31XKZ17OGJQZ","","null","<img src=""img/land2.png"" style=""width:200px; border:14px solid green;"">","null","","","","","","","","","",""
"","image-keyboard-response","130","47693","0.0-130.0","3M68NM076ITUSWNPUH3EIP0PO9UR6W","A106QH27FETZ88","38DCH97KHHO4I6P2AJ31XKZ17OGJQZ","","11","img/land1.png","74","11","1","1","2","1","1,0.5,0.5,0.5,1,0.5,0.5,0.5,1","1,0.5,0.5,0.5,1,0.5,0.5,0.5,1","1","",""
"","html-keyboard-response","131","47995","0.0-131.0","3M68NM076ITUSWNPUH3EIP0PO9UR6W","A106QH27FETZ88","38DCH97KHHO4I6P2AJ31XKZ17OGJQZ","","null","<img src=""img/land1.png"" style=""width:200px; border:14px solid green;"">","null","","","","","","","","","",""
"","image-keyboard-response","132","48073","0.0-132.0","3M68NM076ITUSWNPUH3EIP0PO9UR6W","A106QH27FETZ88","38DCH97KHHO4I6P2AJ31XKZ17OGJQZ","","74","img/land5.png","75","76","2","0","3","1","1,0.5,0.5,0.5,1,0.5,0.5,0.5,1","1,0.5,0.5,0.5,1,0.5,0.5,0.5,1","1","",""
"","html-keyboard-response","133","48375","0.0-133.0","3M68NM076ITUSWNPUH3EIP0PO9UR6W","A106QH27FETZ88","38DCH97KHHO4I6P2AJ31XKZ17OGJQZ","","null","<img src=""img/land5.png"" style=""width:200px;border:14px solid red;"">","null","","","","","","","","","",""
"","image-keyboard-response","134","48440","0.0-134.0","3M68NM076ITUSWNPUH3EIP0PO9UR6W","A106QH27FETZ88","38DCH97KHHO4I6P2AJ31XKZ17OGJQZ","","63","img/land2.png","75","63","2","0","1","1","1,0.5,0.5,0.5,1,0.5,0.5,0.5,1","1,0.5,0.5,0.5,1,0.5,0.5,0.5,1","1","",""
"","html-keyboard-response","135","48742","0.0-135.0","3M68NM076ITUSWNPUH3EIP0PO9UR6W","A106QH27FETZ88","38DCH97KHHO4I6P2AJ31XKZ17OGJQZ","","null","<img src=""img/land2.png"" style=""width:200px;border:14px solid red;"">","null","","","","","","","","","",""
"","image-keyboard-response","136","48761","0.0-136.0","3M68NM076ITUSWNPUH3EIP0PO9UR6W","A106QH27FETZ88","38DCH97KHHO4I6P2AJ31XKZ17OGJQZ","","17","img/land2.png","75","18","2","0","1","1","1,0.5,0.5,0.5,1,0.5,0.5,0.5,1","1,0.5,0.5,0.5,1,0.5,0.5,0.5,1","1","",""
"","html-keyboard-response","137","49063","0.0-137.0","3M68NM076ITUSWNPUH3EIP0PO9UR6W","A106QH27FETZ88","38DCH97KHHO4I6P2AJ31XKZ17OGJQZ","","null","<img src=""img/land2.png"" style=""width:200px;border:14px solid red;"">","null","","","","","","","","","",""
"","image-keyboard-response","138","49116","0.0-138.0","3M68NM076ITUSWNPUH3EIP0PO9UR6W","A106QH27FETZ88","38DCH97KHHO4I6P2AJ31XKZ17OGJQZ","","49","img/land5.png","76","51","3","1","3","1","1,0.5,0.5,0.5,1,0.5,0.5,0.5,1","1,0.5,0.5,0.5,1,0.5,0.5,0.5,1","1","",""
"","html-keyboard-response","139","49419","0.0-139.0","3M68NM076ITUSWNPUH3EIP0PO9UR6W","A106QH27FETZ88","38DCH97KHHO4I6P2AJ31XKZ17OGJQZ","","null","<img src=""img/land5.png"" style=""width:200px; border:14px solid green;"">","null","","","","","","","","","",""
"","image-keyboard-response","140","49520","0.0-140.0","3M68NM076ITUSWNPUH3EIP0PO9UR6W","A106QH27FETZ88","38DCH97KHHO4I6P2AJ31XKZ17OGJQZ","","99","img/land1.png","75","100","2","1","2","1","1,0.5,0.5,0.5,1,0.5,0.5,0.5,1","1,0.5,0.5,0.5,1,0.5,0.5,0.5,1","1","",""
"","html-keyboard-response","141","49822","0.0-141.0","3M68NM076ITUSWNPUH3EIP0PO9UR6W","A106QH27FETZ88","38DCH97KHHO4I6P2AJ31XKZ17OGJQZ","","null","<img src=""img/land1.png"" style=""width:200px; border:14px solid green;"">","null","","","","","","","","","",""
"","image-keyboard-response","142","49915","0.0-142.0","3M68NM076ITUSWNPUH3EIP0PO9UR6W","A106QH27FETZ88","38DCH97KHHO4I6P2AJ31XKZ17OGJQZ","","91","img/land1.png","74","92","1","0","2","1","1,0.5,0.5,0.5,1,0.5,0.5,0.5,1","1,0.5,0.5,0.5,1,0.5,0.5,0.5,1","1","",""
"","html-keyboard-response","143","50217","0.0-143.0","3M68NM076ITUSWNPUH3EIP0PO9UR6W","A106QH27FETZ88","38DCH97KHHO4I6P2AJ31XKZ17OGJQZ","","null","<img src=""img/land1.png"" style=""width:200px;border:14px solid red;"">","null","","","","","","","","","",""
"","image-keyboard-response","144","50280","0.0-144.0","3M68NM076ITUSWNPUH3EIP0PO9UR6W","A106QH27FETZ88","38DCH97KHHO4I6P2AJ31XKZ17OGJQZ","","61","img/land2.png","75","62","2","0","1","1","1,0.5,0.5,0.5,1,0.5,0.5,0.5,1","1,0.5,0.5,0.5,1,0.5,0.5,0.5,1","1","",""
"","html-keyboard-response","145","50583","0.0-145.0","3M68NM076ITUSWNPUH3EIP0PO9UR6W","A106QH27FETZ88","38DCH97KHHO4I6P2AJ31XKZ17OGJQZ","","null","<img src=""img/land2.png"" style=""width:200px;border:14px solid red;"">","null","","","","","","","","","",""
"","image-keyboard-response","146","50902","0.0-146.0","3M68NM076ITUSWNPUH3EIP0PO9UR6W","A106QH27FETZ88","38DCH97KHHO4I6P2AJ31XKZ17OGJQZ","","318","img/land2.png","75","318","2","0","1","1","1,0.5,0.5,0.5,1,0.5,0.5,0.5,1","1,0.5,0.5,0.5,1,0.5,0.5,0.5,1","1","",""
"","html-keyboard-response","147","51205","0.0-147.0","3M68NM076ITUSWNPUH3EIP0PO9UR6W","A106QH27FETZ88","38DCH97KHHO4I6P2AJ31XKZ17OGJQZ","","null","<img src=""img/land2.png"" style=""width:200px;border:14px solid red;"">","null","","","","","","","","","",""
"","image-keyboard-response","148","51335","0.0-148.0","3M68NM076ITUSWNPUH3EIP0PO9UR6W","A106QH27FETZ88","38DCH97KHHO4I6P2AJ31XKZ17OGJQZ","","128","img/land5.png","74","129","1","1","3","1","1,0.5,0.5,0.5,1,0.5,0.5,0.5,1","1,0.5,0.5,0.5,1,0.5,0.5,0.5,1","1","",""
"","html-keyboard-response","149","51636","0.0-149.0","3M68NM076ITUSWNPUH3EIP0PO9UR6W","A106QH27FETZ88","38DCH97KHHO4I6P2AJ31XKZ17OGJQZ","","null","<img src=""img/land5.png"" style=""width:200px; border:14px solid green;"">","null","","","","","","","","","",""
"","image-keyboard-response","150","51770","0.0-150.0","3M68NM076ITUSWNPUH3EIP0PO9UR6W","A106QH27FETZ88","38DCH97KHHO4I6P2AJ31XKZ17OGJQZ","","131","img/land1.png","74","132","1","0","2","1","1,0.5,0.5,0.5,1,0.5,0.5,0.5,1","1,0.5,0.5,0.5,1,0.5,0.5,0.5,1","1","",""
"","html-keyboard-response","151","52074","0.0-151.0","3M68NM076ITUSWNPUH3EIP0PO9UR6W","A106QH27FETZ88","38DCH97KHHO4I6P2AJ31XKZ17OGJQZ","","null","<img src=""img/land1.png"" style=""width:200px;border:14px solid red;"">","null","","","","","","","","","",""
"","image-keyboard-response","152","52309","0.0-152.0","3M68NM076ITUSWNPUH3EIP0PO9UR6W","A106QH27FETZ88","38DCH97KHHO4I6P2AJ31XKZ17OGJQZ","","231","img/land5.png","75","234","2","1","3","1","1,0.5,0.5,0.5,1,0.5,0.5,0.5,1","1,0.5,0.5,0.5,1,0.5,0.5,0.5,1","1","",""
"","html-keyboard-response","153","52612","0.0-153.0","3M68NM076ITUSWNPUH3EIP0PO9UR6W","A106QH27FETZ88","38DCH97KHHO4I6P2AJ31XKZ17OGJQZ","","null","<img src=""img/land5.png"" style=""width:200px; border:14px solid green;"">","null","","","","","","","","","",""
"","image-keyboard-response","154","52743","0.0-154.0","3M68NM076ITUSWNPUH3EIP0PO9UR6W","A106QH27FETZ88","38DCH97KHHO4I6P2AJ31XKZ17OGJQZ","","127","img/land2.png","76","129","3","0","1","1","1,0.5,0.5,0.5,1,0.5,0.5,0.5,1","1,0.5,0.5,0.5,1,0.5,0.5,0.5,1","1","",""
"","html-keyboard-response","155","53046","0.0-155.0","3M68NM076ITUSWNPUH3EIP0PO9UR6W","A106QH27FETZ88","38DCH97KHHO4I6P2AJ31XKZ17OGJQZ","","null","<img src=""img/land2.png"" style=""width:200px;border:14px solid red;"">","null","","","","","","","","","",""
"","image-keyboard-response","156","53182","0.0-156.0","3M68NM076ITUSWNPUH3EIP0PO9UR6W","A106QH27FETZ88","38DCH97KHHO4I6P2AJ31XKZ17OGJQZ","","133","img/land5.png","75","135","2","1","3","1","1,0.5,0.5,0.5,1,0.5,0.5,0.5,1","1,0.5,0.5,0.5,1,0.5,0.5,0.5,1","1","",""
"","html-keyboard-response","157","53486","0.0-157.0","3M68NM076ITUSWNPUH3EIP0PO9UR6W","A106QH27FETZ88","38DCH97KHHO4I6P2AJ31XKZ17OGJQZ","","null","<img src=""img/land5.png"" style=""width:200px; border:14px solid green;"">","null","","","","","","","","","",""
"","image-keyboard-response","158","53615","0.0-158.0","3M68NM076ITUSWNPUH3EIP0PO9UR6W","A106QH27FETZ88","38DCH97KHHO4I6P2AJ31XKZ17OGJQZ","","126","img/land1.png","76","128","3","0","2","1","1,0.5,0.5,0.5,1,0.5,0.5,0.5,1","1,0.5,0.5,0.5,1,0.5,0.5,0.5,1","1","",""
"","html-keyboard-response","159","53917","0.0-159.0","3M68NM076ITUSWNPUH3EIP0PO9UR6W","A106QH27FETZ88","38DCH97KHHO4I6P2AJ31XKZ17OGJQZ","","null","<img src=""img/land1.png"" style=""width:200px;border:14px solid red;"">","null","","","","","","","","","",""
"","image-keyboard-response","160","53986","0.0-160.0","3M68NM076ITUSWNPUH3EIP0PO9UR6W","A106QH27FETZ88","38DCH97KHHO4I6P2AJ31XKZ17OGJQZ","","65","img/land2.png","74","66","1","1","1","1","1,0.5,0.5,0.5,1,0.5,0.5,0.5,1","1,0.5,0.5,0.5,1,0.5,0.5,0.5,1","1","",""
"","html-keyboard-response","161","54288","0.0-161.0","3M68NM076ITUSWNPUH3EIP0PO9UR6W","A106QH27FETZ88","38DCH97KHHO4I6P2AJ31XKZ17OGJQZ","","null","<img src=""img/land2.png"" style=""width:200px; border:14px solid green;"">","null","","","","","","","","","",""
"","image-keyboard-response","162","54431","0.0-162.0","3M68NM076ITUSWNPUH3EIP0PO9UR6W","A106QH27FETZ88","38DCH97KHHO4I6P2AJ31XKZ17OGJQZ","","141","img/land5.png","75","143","2","0","3","1","1,0.5,0.5,0.5,1,0.5,0.5,0.5,1","1,0.5,0.5,0.5,1,0.5,0.5,0.5,1","1","",""
"","html-keyboard-response","163","54734","0.0-163.0","3M68NM076ITUSWNPUH3EIP0PO9UR6W","A106QH27FETZ88","38DCH97KHHO4I6P2AJ31XKZ17OGJQZ","","null","<img src=""img/land5.png"" style=""width:200px;border:14px solid red;"">","null","","","","","","","","","",""
"","image-keyboard-response","164","54861","0.0-164.0","3M68NM076ITUSWNPUH3EIP0PO9UR6W","A106QH27FETZ88","38DCH97KHHO4I6P2AJ31XKZ17OGJQZ","","125","img/land1.png","76","126","3","1","2","1","1,0.5,0.5,0.5,1,0.5,0.5,0.5,1","1,0.5,0.5,0.5,1,0.5,0.5,0.5,1","1","",""
"","html-keyboard-response","165","55167","0.0-165.0","3M68NM076ITUSWNPUH3EIP0PO9UR6W","A106QH27FETZ88","38DCH97KHHO4I6P2AJ31XKZ17OGJQZ","","null","<img src=""img/land1.png"" style=""width:200px; border:14px solid green;"">","null","","","","","","","","","",""
"","image-keyboard-response","166","55244","0.0-166.0","3M68NM076ITUSWNPUH3EIP0PO9UR6W","A106QH27FETZ88","38DCH97KHHO4I6P2AJ31XKZ17OGJQZ","","74","img/land5.png","75","75","2","1","3","1","1,0.5,0.5,0.5,1,0.5,0.5,0.5,1","1,0.5,0.5,0.5,1,0.5,0.5,0.5,1","1","",""
"","html-keyboard-response","167","55550","0.0-167.0","3M68NM076ITUSWNPUH3EIP0PO9UR6W","A106QH27FETZ88","38DCH97KHHO4I6P2AJ31XKZ17OGJQZ","","null","<img src=""img/land5.png"" style=""width:200px; border:14px solid green;"">","null","","","","","","","","","",""
"","image-keyboard-response","168","55599","0.0-168.0","3M68NM076ITUSWNPUH3EIP0PO9UR6W","A106QH27FETZ88","38DCH97KHHO4I6P2AJ31XKZ17OGJQZ","","42","img/land5.png","75","48","2","1","3","1","1,0.5,0.5,0.5,1,0.5,0.5,0.5,1","1,0.5,0.5,0.5,1,0.5,0.5,0.5,1","1","",""
"","html-keyboard-response","169","55902","0.0-169.0","3M68NM076ITUSWNPUH3EIP0PO9UR6W","A106QH27FETZ88","38DCH97KHHO4I6P2AJ31XKZ17OGJQZ","","null","<img src=""img/land5.png"" style=""width:200px; border:14px solid green;"">","null","","","","","","","","","",""
"","image-keyboard-response","170","55992","0.0-170.0","3M68NM076ITUSWNPUH3EIP0PO9UR6W","A106QH27FETZ88","38DCH97KHHO4I6P2AJ31XKZ17OGJQZ","","89","img/land2.png","75","89","2","1","1","1","1,0.5,0.5,0.5,1,0.5,0.5,0.5,1","1,0.5,0.5,0.5,1,0.5,0.5,0.5,1","1","",""
"","html-keyboard-response","171","56297","0.0-171.0","3M68NM076ITUSWNPUH3EIP0PO9UR6W","A106QH27FETZ88","38DCH97KHHO4I6P2AJ31XKZ17OGJQZ","","null","<img src=""img/land2.png"" style=""width:200px; border:14px solid green;"">","null","","","","","","","","","",""
"","image-keyboard-response","172","56298","0.0-172.0","3M68NM076ITUSWNPUH3EIP0PO9UR6W","A106QH27FETZ88","38DCH97KHHO4I6P2AJ31XKZ17OGJQZ","","0","img/land5.png","75","1","2","0","3","1","1,0.5,0.5,0.5,1,0.5,0.5,0.5,1","1,0.5,0.5,0.5,1,0.5,0.5,0.5,1","1","",""
"","html-keyboard-response","173","56600","0.0-173.0","3M68NM076ITUSWNPUH3EIP0PO9UR6W","A106QH27FETZ88","38DCH97KHHO4I6P2AJ31XKZ17OGJQZ","","null","<img src=""img/land5.png"" style=""width:200px;border:14px solid red;"">","null","","","","","","","","","",""
"","image-keyboard-response","174","56688","0.0-174.0","3M68NM076ITUSWNPUH3EIP0PO9UR6W","A106QH27FETZ88","38DCH97KHHO4I6P2AJ31XKZ17OGJQZ","","88","img/land1.png","76","88","3","1","2","1","1,0.5,0.5,0.5,1,0.5,0.5,0.5,1","1,0.5,0.5,0.5,1,0.5,0.5,0.5,1","1","",""
"","html-keyboard-response","175","56992","0.0-175.0","3M68NM076ITUSWNPUH3EIP0PO9UR6W","A106QH27FETZ88","38DCH97KHHO4I6P2AJ31XKZ17OGJQZ","","null","<img src=""img/land1.png"" style=""width:200px; border:14px solid green;"">","null","","","","","","","","","",""
"","image-keyboard-response","176","57097","0.0-176.0","3M68NM076ITUSWNPUH3EIP0PO9UR6W","A106QH27FETZ88","38DCH97KHHO4I6P2AJ31XKZ17OGJQZ","","102","img/land2.png","75","104","2","1","1","1","1,0.5,0.5,0.5,1,0.5,0.5,0.5,1","1,0.5,0.5,0.5,1,0.5,0.5,0.5,1","1","",""
"","html-keyboard-response","177","57401","0.0-177.0","3M68NM076ITUSWNPUH3EIP0PO9UR6W","A106QH27FETZ88","38DCH97KHHO4I6P2AJ31XKZ17OGJQZ","","null","<img src=""img/land2.png"" style=""width:200px; border:14px solid green;"">","null","","","","","","","","","",""
"","image-keyboard-response","178","57544","0.0-178.0","3M68NM076ITUSWNPUH3EIP0PO9UR6W","A106QH27FETZ88","38DCH97KHHO4I6P2AJ31XKZ17OGJQZ","","141","img/land5.png","76","142","3","1","3","1","1,0.5,0.5,0.5,1,0.5,0.5,0.5,1","1,0.5,0.5,0.5,1,0.5,0.5,0.5,1","1","",""
"","html-keyboard-response","179","57845","0.0-179.0","3M68NM076ITUSWNPUH3EIP0PO9UR6W","A106QH27FETZ88","38DCH97KHHO4I6P2AJ31XKZ17OGJQZ","","null","<img src=""img/land5.png"" style=""width:200px; border:14px solid green;"">","null","","","","","","","","","",""
"","image-keyboard-response","180","57853","0.0-180.0","3M68NM076ITUSWNPUH3EIP0PO9UR6W","A106QH27FETZ88","38DCH97KHHO4I6P2AJ31XKZ17OGJQZ","","4","img/land5.png","74","5","1","0","3","1","1,0.5,0.5,0.5,1,0.5,0.5,0.5,1","1,0.5,0.5,0.5,1,0.5,0.5,0.5,1","1","",""
"","html-keyboard-response","181","58155","0.0-181.0","3M68NM076ITUSWNPUH3EIP0PO9UR6W","A106QH27FETZ88","38DCH97KHHO4I6P2AJ31XKZ17OGJQZ","","null","<img src=""img/land5.png"" style=""width:200px;border:14px solid red;"">","null","","","","","","","","","",""
"","html-keyboard-response","182","75464","0.0-182.0","3M68NM076ITUSWNPUH3EIP0PO9UR6W","A106QH27FETZ88","38DCH97KHHO4I6P2AJ31XKZ17OGJQZ","","","","","","","","","","","","","",""
"","image-keyboard-response","183","77208","0.0-183.0","3M68NM076ITUSWNPUH3EIP0PO9UR6W","A106QH27FETZ88","38DCH97KHHO4I6P2AJ31XKZ17OGJQZ","","1737","img/land4.png","75","1741","2","0","1","2","1,0.5,0.5,0.5,1,0.5,0.5,0.5,1","1,0.5,0.5,0.5,1,0.5,0.5,0.5,1","1","",""
"","html-keyboard-response","184","77513","0.0-184.0","3M68NM076ITUSWNPUH3EIP0PO9UR6W","A106QH27FETZ88","38DCH97KHHO4I6P2AJ31XKZ17OGJQZ","","null","<img src=""img/land4.png"" style=""width:200px;border:14px solid red;"">","null","","","","","","","","","",""
"","image-keyboard-response","185","77554","0.0-185.0","3M68NM076ITUSWNPUH3EIP0PO9UR6W","A106QH27FETZ88","38DCH97KHHO4I6P2AJ31XKZ17OGJQZ","","40","img/land3.png","76","42","3","1","3","2","1,0.5,0.5,0.5,1,0.5,0.5,0.5,1","1,0.5,0.5,0.5,1,0.5,0.5,0.5,1","1","",""
"","html-keyboard-response","186","77857","0.0-186.0","3M68NM076ITUSWNPUH3EIP0PO9UR6W","A106QH27FETZ88","38DCH97KHHO4I6P2AJ31XKZ17OGJQZ","","null","<img src=""img/land3.png"" style=""width:200px; border:14px solid green;"">","null","","","","","","","","","",""
"","image-keyboard-response","187","77896","0.0-187.0","3M68NM076ITUSWNPUH3EIP0PO9UR6W","A106QH27FETZ88","38DCH97KHHO4I6P2AJ31XKZ17OGJQZ","","37","img/land3.png","74","37","1","1","3","2","1,0.5,0.5,0.5,1,0.5,0.5,0.5,1","1,0.5,0.5,0.5,1,0.5,0.5,0.5,1","1","",""
"","html-keyboard-response","188","78197","0.0-188.0","3M68NM076ITUSWNPUH3EIP0PO9UR6W","A106QH27FETZ88","38DCH97KHHO4I6P2AJ31XKZ17OGJQZ","","null","<img src=""img/land3.png"" style=""width:200px; border:14px solid green;"">","null","","","","","","","","","",""
"","image-keyboard-response","189","78283","0.0-189.0","3M68NM076ITUSWNPUH3EIP0PO9UR6W","A106QH27FETZ88","38DCH97KHHO4I6P2AJ31XKZ17OGJQZ","","82","img/land6.png","76","84","3","0","2","2","1,0.5,0.5,0.5,1,0.5,0.5,0.5,1","1,0.5,0.5,0.5,1,0.5,0.5,0.5,1","1","",""
"","html-keyboard-response","190","78586","0.0-190.0","3M68NM076ITUSWNPUH3EIP0PO9UR6W","A106QH27FETZ88","38DCH97KHHO4I6P2AJ31XKZ17OGJQZ","","null","<img src=""img/land6.png"" style=""width:200px;border:14px solid red;"">","null","","","","","","","","","",""
"","image-keyboard-response","191","78593","0.0-191.0","3M68NM076ITUSWNPUH3EIP0PO9UR6W","A106QH27FETZ88","38DCH97KHHO4I6P2AJ31XKZ17OGJQZ","","5","img/land4.png","74","7","1","1","1","2","1,0.5,0.5,0.5,1,0.5,0.5,0.5,1","1,0.5,0.5,0.5,1,0.5,0.5,0.5,1","1","",""
"","html-keyboard-response","192","78897","0.0-192.0","3M68NM076ITUSWNPUH3EIP0PO9UR6W","A106QH27FETZ88","38DCH97KHHO4I6P2AJ31XKZ17OGJQZ","","null","<img src=""img/land4.png"" style=""width:200px; border:14px solid green;"">","null","","","","","","","","","",""
"","image-keyboard-response","193","78973","0.0-193.0","3M68NM076ITUSWNPUH3EIP0PO9UR6W","A106QH27FETZ88","38DCH97KHHO4I6P2AJ31XKZ17OGJQZ","","72","img/land3.png","75","75","2","0","3","2","1,0.5,0.5,0.5,1,0.5,0.5,0.5,1","1,0.5,0.5,0.5,1,0.5,0.5,0.5,1","1","",""
"","html-keyboard-response","194","79275","0.0-194.0","3M68NM076ITUSWNPUH3EIP0PO9UR6W","A106QH27FETZ88","38DCH97KHHO4I6P2AJ31XKZ17OGJQZ","","null","<img src=""img/land3.png"" style=""width:200px;border:14px solid red;"">","null","","","","","","","","","",""
"","image-keyboard-response","195","79332","0.0-195.0","3M68NM076ITUSWNPUH3EIP0PO9UR6W","A106QH27FETZ88","38DCH97KHHO4I6P2AJ31XKZ17OGJQZ","","55","img/land3.png","76","57","3","1","3","2","1,0.5,0.5,0.5,1,0.5,0.5,0.5,1","1,0.5,0.5,0.5,1,0.5,0.5,0.5,1","1","",""
"","html-keyboard-response","196","79637","0.0-196.0","3M68NM076ITUSWNPUH3EIP0PO9UR6W","A106QH27FETZ88","38DCH97KHHO4I6P2AJ31XKZ17OGJQZ","","null","<img src=""img/land3.png"" style=""width:200px; border:14px solid green;"">","null","","","","","","","","","",""
"","image-keyboard-response","197","79777","0.0-197.0","3M68NM076ITUSWNPUH3EIP0PO9UR6W","A106QH27FETZ88","38DCH97KHHO4I6P2AJ31XKZ17OGJQZ","","137","img/land4.png","75","138","2","1","1","2","1,0.5,0.5,0.5,1,0.5,0.5,0.5,1","1,0.5,0.5,0.5,1,0.5,0.5,0.5,1","1","",""
"","html-keyboard-response","198","80078","0.0-198.0","3M68NM076ITUSWNPUH3EIP0PO9UR6W","A106QH27FETZ88","38DCH97KHHO4I6P2AJ31XKZ17OGJQZ","","null","<img src=""img/land4.png"" style=""width:200px; border:14px solid green;"">","null","","","","","","","","","",""
"","image-keyboard-response","199","80163","0.0-199.0","3M68NM076ITUSWNPUH3EIP0PO9UR6W","A106QH27FETZ88","38DCH97KHHO4I6P2AJ31XKZ17OGJQZ","","82","img/land4.png","76","84","3","1","1","2","1,0.5,0.5,0.5,1,0.5,0.5,0.5,1","1,0.5,0.5,0.5,1,0.5,0.5,0.5,1","1","",""
"","html-keyboard-response","200","80466","0.0-200.0","3M68NM076ITUSWNPUH3EIP0PO9UR6W","A106QH27FETZ88","38DCH97KHHO4I6P2AJ31XKZ17OGJQZ","","null","<img src=""img/land4.png"" style=""width:200px; border:14px solid green;"">","null","","","","","","","","","",""
"","image-keyboard-response","201","80556","0.0-201.0","3M68NM076ITUSWNPUH3EIP0PO9UR6W","A106QH27FETZ88","38DCH97KHHO4I6P2AJ31XKZ17OGJQZ","","86","img/land6.png","75","88","2","1","2","2","1,0.5,0.5,0.5,1,0.5,0.5,0.5,1","1,0.5,0.5,0.5,1,0.5,0.5,0.5,1","1","",""
"","html-keyboard-response","202","80857","0.0-202.0","3M68NM076ITUSWNPUH3EIP0PO9UR6W","A106QH27FETZ88","38DCH97KHHO4I6P2AJ31XKZ17OGJQZ","","null","<img src=""img/land6.png"" style=""width:200px; border:14px solid green;"">","null","","","","","","","","","",""
"","image-keyboard-response","203","80877","0.0-203.0","3M68NM076ITUSWNPUH3EIP0PO9UR6W","A106QH27FETZ88","38DCH97KHHO4I6P2AJ31XKZ17OGJQZ","","17","img/land4.png","74","19","1","1","1","2","1,0.5,0.5,0.5,1,0.5,0.5,0.5,1","1,0.5,0.5,0.5,1,0.5,0.5,0.5,1","1","",""
"","html-keyboard-response","204","81179","0.0-204.0","3M68NM076ITUSWNPUH3EIP0PO9UR6W","A106QH27FETZ88","38DCH97KHHO4I6P2AJ31XKZ17OGJQZ","","null","<img src=""img/land4.png"" style=""width:200px; border:14px solid green;"">","null","","","","","","","","","",""
"","image-keyboard-response","205","81248","0.0-205.0","3M68NM076ITUSWNPUH3EIP0PO9UR6W","A106QH27FETZ88","38DCH97KHHO4I6P2AJ31XKZ17OGJQZ","","66","img/land3.png","76","68","3","1","3","2","1,0.5,0.5,0.5,1,0.5,0.5,0.5,1","1,0.5,0.5,0.5,1,0.5,0.5,0.5,1","1","",""
"","html-keyboard-response","206","81550","0.0-206.0","3M68NM076ITUSWNPUH3EIP0PO9UR6W","A106QH27FETZ88","38DCH97KHHO4I6P2AJ31XKZ17OGJQZ","","null","<img src=""img/land3.png"" style=""width:200px; border:14px solid green;"">","null","","","","","","","","","",""
"","image-keyboard-response","207","81620","0.0-207.0","3M68NM076ITUSWNPUH3EIP0PO9UR6W","A106QH27FETZ88","38DCH97KHHO4I6P2AJ31XKZ17OGJQZ","","68","img/land4.png","75","70","2","1","1","2","1,0.5,0.5,0.5,1,0.5,0.5,0.5,1","1,0.5,0.5,0.5,1,0.5,0.5,0.5,1","1","",""
"","html-keyboard-response","208","81923","0.0-208.0","3M68NM076ITUSWNPUH3EIP0PO9UR6W","A106QH27FETZ88","38DCH97KHHO4I6P2AJ31XKZ17OGJQZ","","null","<img src=""img/land4.png"" style=""width:200px; border:14px solid green;"">","null","","","","","","","","","",""
"","image-keyboard-response","209","82062","0.0-209.0","3M68NM076ITUSWNPUH3EIP0PO9UR6W","A106QH27FETZ88","38DCH97KHHO4I6P2AJ31XKZ17OGJQZ","","138","img/land6.png","74","139","1","0","2","2","1,0.5,0.5,0.5,1,0.5,0.5,0.5,1","1,0.5,0.5,0.5,1,0.5,0.5,0.5,1","1","",""
"","html-keyboard-response","210","82368","0.0-210.0","3M68NM076ITUSWNPUH3EIP0PO9UR6W","A106QH27FETZ88","38DCH97KHHO4I6P2AJ31XKZ17OGJQZ","","null","<img src=""img/land6.png"" style=""width:200px;border:14px solid red;"">","null","","","","","","","","","",""
"","image-keyboard-response","211","82496","0.0-211.0","3M68NM076ITUSWNPUH3EIP0PO9UR6W","A106QH27FETZ88","38DCH97KHHO4I6P2AJ31XKZ17OGJQZ","","126","img/land3.png","75","128","2","0","3","2","1,0.5,0.5,0.5,1,0.5,0.5,0.5,1","1,0.5,0.5,0.5,1,0.5,0.5,0.5,1","1","",""
"","html-keyboard-response","212","82802","0.0-212.0","3M68NM076ITUSWNPUH3EIP0PO9UR6W","A106QH27FETZ88","38DCH97KHHO4I6P2AJ31XKZ17OGJQZ","","null","<img src=""img/land3.png"" style=""width:200px;border:14px solid red;"">","null","","","","","","","","","",""
"","image-keyboard-response","213","82826","0.0-213.0","3M68NM076ITUSWNPUH3EIP0PO9UR6W","A106QH27FETZ88","38DCH97KHHO4I6P2AJ31XKZ17OGJQZ","","17","img/land3.png","76","19","3","1","3","2","1,0.5,0.5,0.5,1,0.5,0.5,0.5,1","1,0.5,0.5,0.5,1,0.5,0.5,0.5,1","1","",""
"","html-keyboard-response","214","83128","0.0-214.0","3M68NM076ITUSWNPUH3EIP0PO9UR6W","A106QH27FETZ88","38DCH97KHHO4I6P2AJ31XKZ17OGJQZ","","null","<img src=""img/land3.png"" style=""width:200px; border:14px solid green;"">","null","","","","","","","","","",""
"","image-keyboard-response","215","83262","0.0-215.0","3M68NM076ITUSWNPUH3EIP0PO9UR6W","A106QH27FETZ88","38DCH97KHHO4I6P2AJ31XKZ17OGJQZ","","130","img/land4.png","75","132","2","1","1","2","1,0.5,0.5,0.5,1,0.5,0.5,0.5,1","1,0.5,0.5,0.5,1,0.5,0.5,0.5,1","1","",""
"","html-keyboard-response","216","83565","0.0-216.0","3M68NM076ITUSWNPUH3EIP0PO9UR6W","A106QH27FETZ88","38DCH97KHHO4I6P2AJ31XKZ17OGJQZ","","null","<img src=""img/land4.png"" style=""width:200px; border:14px solid green;"">","null","","","","","","","","","",""
"","image-keyboard-response","217","83692","0.0-217.0","3M68NM076ITUSWNPUH3EIP0PO9UR6W","A106QH27FETZ88","38DCH97KHHO4I6P2AJ31XKZ17OGJQZ","","124","img/land4.png","76","125","3","0","1","2","1,0.5,0.5,0.5,1,0.5,0.5,0.5,1","1,0.5,0.5,0.5,1,0.5,0.5,0.5,1","1","",""
"","html-keyboard-response","218","83995","0.0-218.0","3M68NM076ITUSWNPUH3EIP0PO9UR6W","A106QH27FETZ88","38DCH97KHHO4I6P2AJ31XKZ17OGJQZ","","null","<img src=""img/land4.png"" style=""width:200px;border:14px solid red;"">","null","","","","","","","","","",""
"","image-keyboard-response","219","84130","0.0-219.0","3M68NM076ITUSWNPUH3EIP0PO9UR6W","A106QH27FETZ88","38DCH97KHHO4I6P2AJ31XKZ17OGJQZ","","132","img/land4.png","76","133","3","1","1","2","1,0.5,0.5,0.5,1,0.5,0.5,0.5,1","1,0.5,0.5,0.5,1,0.5,0.5,0.5,1","1","",""
"","html-keyboard-response","220","84433","0.0-220.0","3M68NM076ITUSWNPUH3EIP0PO9UR6W","A106QH27FETZ88","38DCH97KHHO4I6P2AJ31XKZ17OGJQZ","","null","<img src=""img/land4.png"" style=""width:200px; border:14px solid green;"">","null","","","","","","","","","",""
"","image-keyboard-response","221","84491","0.0-221.0","3M68NM076ITUSWNPUH3EIP0PO9UR6W","A106QH27FETZ88","38DCH97KHHO4I6P2AJ31XKZ17OGJQZ","","56","img/land4.png","75","58","2","0","1","2","1,0.5,0.5,0.5,1,0.5,0.5,0.5,1","1,0.5,0.5,0.5,1,0.5,0.5,0.5,1","1","",""
"","html-keyboard-response","222","84794","0.0-222.0","3M68NM076ITUSWNPUH3EIP0PO9UR6W","A106QH27FETZ88","38DCH97KHHO4I6P2AJ31XKZ17OGJQZ","","null","<img src=""img/land4.png"" style=""width:200px;border:14px solid red;"">","null","","","","","","","","","",""
"","image-keyboard-response","223","84886","0.0-223.0","3M68NM076ITUSWNPUH3EIP0PO9UR6W","A106QH27FETZ88","38DCH97KHHO4I6P2AJ31XKZ17OGJQZ","","90","img/land4.png","74","91","1","1","1","2","1,0.5,0.5,0.5,1,0.5,0.5,0.5,1","1,0.5,0.5,0.5,1,0.5,0.5,0.5,1","1","",""
"","html-keyboard-response","224","85188","0.0-224.0","3M68NM076ITUSWNPUH3EIP0PO9UR6W","A106QH27FETZ88","38DCH97KHHO4I6P2AJ31XKZ17OGJQZ","","null","<img src=""img/land4.png"" style=""width:200px; border:14px solid green;"">","null","","","","","","","","","",""
"","image-keyboard-response","225","85321","0.0-225.0","3M68NM076ITUSWNPUH3EIP0PO9UR6W","A106QH27FETZ88","38DCH97KHHO4I6P2AJ31XKZ17OGJQZ","","131","img/land3.png","75","132","2","0","3","2","1,0.5,0.5,0.5,1,0.5,0.5,0.5,1","1,0.5,0.5,0.5,1,0.5,0.5,0.5,1","1","",""
"","html-keyboard-response","226","85625","0.0-226.0","3M68NM076ITUSWNPUH3EIP0PO9UR6W","A106QH27FETZ88","38DCH97KHHO4I6P2AJ31XKZ17OGJQZ","","null","<img src=""img/land3.png"" style=""width:200px;border:14px solid red;"">","null","","","","","","","","","",""
"","image-keyboard-response","227","85752","0.0-227.0","3M68NM076ITUSWNPUH3EIP0PO9UR6W","A106QH27FETZ88","38DCH97KHHO4I6P2AJ31XKZ17OGJQZ","","125","img/land4.png","76","126","3","0","1","2","1,0.5,0.5,0.5,1,0.5,0.5,0.5,1","1,0.5,0.5,0.5,1,0.5,0.5,0.5,1","1","",""
"","html-keyboard-response","228","86055","0.0-228.0","3M68NM076ITUSWNPUH3EIP0PO9UR6W","A106QH27FETZ88","38DCH97KHHO4I6P2AJ31XKZ17OGJQZ","","null","<img src=""img/land4.png"" style=""width:200px;border:14px solid red;"">","null","","","","","","","","","",""
"","image-keyboard-response","229","86189","0.0-229.0","3M68NM076ITUSWNPUH3EIP0PO9UR6W","A106QH27FETZ88","38DCH97KHHO4I6P2AJ31XKZ17OGJQZ","","133","img/land3.png","75","134","2","1","3","2","1,0.5,0.5,0.5,1,0.5,0.5,0.5,1","1,0.5,0.5,0.5,1,0.5,0.5,0.5,1","1","",""
"","html-keyboard-response","230","86492","0.0-230.0","3M68NM076ITUSWNPUH3EIP0PO9UR6W","A106QH27FETZ88","38DCH97KHHO4I6P2AJ31XKZ17OGJQZ","","null","<img src=""img/land3.png"" style=""width:200px; border:14px solid green;"">","null","","","","","","","","","",""
"","image-keyboard-response","231","86513","0.0-231.0","3M68NM076ITUSWNPUH3EIP0PO9UR6W","A106QH27FETZ88","38DCH97KHHO4I6P2AJ31XKZ17OGJQZ","","18","img/land4.png","75","20","2","1","1","2","1,0.5,0.5,0.5,1,0.5,0.5,0.5,1","1,0.5,0.5,0.5,1,0.5,0.5,0.5,1","1","",""
"","html-keyboard-response","232","86814","0.0-232.0","3M68NM076ITUSWNPUH3EIP0PO9UR6W","A106QH27FETZ88","38DCH97KHHO4I6P2AJ31XKZ17OGJQZ","","null","<img src=""img/land4.png"" style=""width:200px; border:14px solid green;"">","null","","","","","","","","","",""
"","image-keyboard-response","233","86949","0.0-233.0","3M68NM076ITUSWNPUH3EIP0PO9UR6W","A106QH27FETZ88","38DCH97KHHO4I6P2AJ31XKZ17OGJQZ","","132","img/land4.png","74","134","1","1","1","2","1,0.5,0.5,0.5,1,0.5,0.5,0.5,1","1,0.5,0.5,0.5,1,0.5,0.5,0.5,1","1","",""
"","html-keyboard-response","234","87250","0.0-234.0","3M68NM076ITUSWNPUH3EIP0PO9UR6W","A106QH27FETZ88","38DCH97KHHO4I6P2AJ31XKZ17OGJQZ","","null","<img src=""img/land4.png"" style=""width:200px; border:14px solid green;"">","null","","","","","","","","","",""
"","image-keyboard-response","235","87410","0.0-235.0","3M68NM076ITUSWNPUH3EIP0PO9UR6W","A106QH27FETZ88","38DCH97KHHO4I6P2AJ31XKZ17OGJQZ","","155","img/land4.png","74","158","1","1","1","2","1,0.5,0.5,0.5,1,0.5,0.5,0.5,1","1,0.5,0.5,0.5,1,0.5,0.5,0.5,1","1","",""
"","html-keyboard-response","236","87712","0.0-236.0","3M68NM076ITUSWNPUH3EIP0PO9UR6W","A106QH27FETZ88","38DCH97KHHO4I6P2AJ31XKZ17OGJQZ","","null","<img src=""img/land4.png"" style=""width:200px; border:14px solid green;"">","null","","","","","","","","","",""
"","image-keyboard-response","237","87848","0.0-237.0","3M68NM076ITUSWNPUH3EIP0PO9UR6W","A106QH27FETZ88","38DCH97KHHO4I6P2AJ31XKZ17OGJQZ","","134","img/land6.png","74","136","1","1","2","2","1,0.5,0.5,0.5,1,0.5,0.5,0.5,1","1,0.5,0.5,0.5,1,0.5,0.5,0.5,1","1","",""
"","html-keyboard-response","238","88150","0.0-238.0","3M68NM076ITUSWNPUH3EIP0PO9UR6W","A106QH27FETZ88","38DCH97KHHO4I6P2AJ31XKZ17OGJQZ","","null","<img src=""img/land6.png"" style=""width:200px; border:14px solid green;"">","null","","","","","","","","","",""
"","image-keyboard-response","239","88167","0.0-239.0","3M68NM076ITUSWNPUH3EIP0PO9UR6W","A106QH27FETZ88","38DCH97KHHO4I6P2AJ31XKZ17OGJQZ","","14","img/land4.png","74","15","1","1","1","2","1,0.5,0.5,0.5,1,0.5,0.5,0.5,1","1,0.5,0.5,0.5,1,0.5,0.5,0.5,1","1","",""
"","html-keyboard-response","240","88469","0.0-240.0","3M68NM076ITUSWNPUH3EIP0PO9UR6W","A106QH27FETZ88","38DCH97KHHO4I6P2AJ31XKZ17OGJQZ","","null","<img src=""img/land4.png"" style=""width:200px; border:14px solid green;"">","null","","","","","","","","","",""
"","image-keyboard-response","241","88494","0.0-241.0","3M68NM076ITUSWNPUH3EIP0PO9UR6W","A106QH27FETZ88","38DCH97KHHO4I6P2AJ31XKZ17OGJQZ","","23","img/land4.png","76","24","3","1","1","2","1,0.5,0.5,0.5,1,0.5,0.5,0.5,1","1,0.5,0.5,0.5,1,0.5,0.5,0.5,1","1","",""
"","html-keyboard-response","242","88795","0.0-242.0","3M68NM076ITUSWNPUH3EIP0PO9UR6W","A106QH27FETZ88","38DCH97KHHO4I6P2AJ31XKZ17OGJQZ","","null","<img src=""img/land4.png"" style=""width:200px; border:14px solid green;"">","null","","","","","","","","","",""
"","image-keyboard-response","243","88802","0.0-243.0","3M68NM076ITUSWNPUH3EIP0PO9UR6W","A106QH27FETZ88","38DCH97KHHO4I6P2AJ31XKZ17OGJQZ","","2","img/land6.png","74","5","1","1","2","2","1,0.5,0.5,0.5,1,0.5,0.5,0.5,1","1,0.5,0.5,0.5,1,0.5,0.5,0.5,1","1","",""
"","html-keyboard-response","244","89102","0.0-244.0","3M68NM076ITUSWNPUH3EIP0PO9UR6W","A106QH27FETZ88","38DCH97KHHO4I6P2AJ31XKZ17OGJQZ","","null","<img src=""img/land6.png"" style=""width:200px; border:14px solid green;"">","null","","","","","","","","","",""
"","image-keyboard-response","245","89230","0.0-245.0","3M68NM076ITUSWNPUH3EIP0PO9UR6W","A106QH27FETZ88","38DCH97KHHO4I6P2AJ31XKZ17OGJQZ","","123","img/land4.png","75","126","2","1","1","2","1,0.5,0.5,0.5,1,0.5,0.5,0.5,1","1,0.5,0.5,0.5,1,0.5,0.5,0.5,1","1","",""
"","html-keyboard-response","246","89534","0.0-246.0","3M68NM076ITUSWNPUH3EIP0PO9UR6W","A106QH27FETZ88","38DCH97KHHO4I6P2AJ31XKZ17OGJQZ","","null","<img src=""img/land4.png"" style=""width:200px; border:14px solid green;"">","null","","","","","","","","","",""
"","image-keyboard-response","247","89567","0.0-247.0","3M68NM076ITUSWNPUH3EIP0PO9UR6W","A106QH27FETZ88","38DCH97KHHO4I6P2AJ31XKZ17OGJQZ","","31","img/land6.png","74","31","1","0","2","2","1,0.5,0.5,0.5,1,0.5,0.5,0.5,1","1,0.5,0.5,0.5,1,0.5,0.5,0.5,1","1","",""
"","html-keyboard-response","248","89870","0.0-248.0","3M68NM076ITUSWNPUH3EIP0PO9UR6W","A106QH27FETZ88","38DCH97KHHO4I6P2AJ31XKZ17OGJQZ","","null","<img src=""img/land6.png"" style=""width:200px;border:14px solid red;"">","null","","","","","","","","","",""
"","image-keyboard-response","249","90003","0.0-249.0","3M68NM076ITUSWNPUH3EIP0PO9UR6W","A106QH27FETZ88","38DCH97KHHO4I6P2AJ31XKZ17OGJQZ","","133","img/land6.png","75","133","2","1","2","2","1,0.5,0.5,0.5,1,0.5,0.5,0.5,1","1,0.5,0.5,0.5,1,0.5,0.5,0.5,1","1","",""
"","html-keyboard-response","250","90311","0.0-250.0","3M68NM076ITUSWNPUH3EIP0PO9UR6W","A106QH27FETZ88","38DCH97KHHO4I6P2AJ31XKZ17OGJQZ","","null","<img src=""img/land6.png"" style=""width:200px; border:14px solid green;"">","null","","","","","","","","","",""
"","image-keyboard-response","251","90494","0.0-251.0","3M68NM076ITUSWNPUH3EIP0PO9UR6W","A106QH27FETZ88","38DCH97KHHO4I6P2AJ31XKZ17OGJQZ","","176","img/land6.png","75","183","2","1","2","2","1,0.5,0.5,0.5,1,0.5,0.5,0.5,1","1,0.5,0.5,0.5,1,0.5,0.5,0.5,1","1","",""
"","html-keyboard-response","252","90796","0.0-252.0","3M68NM076ITUSWNPUH3EIP0PO9UR6W","A106QH27FETZ88","38DCH97KHHO4I6P2AJ31XKZ17OGJQZ","","null","<img src=""img/land6.png"" style=""width:200px; border:14px solid green;"">","null","","","","","","","","","",""
"","image-keyboard-response","253","90817","0.0-253.0","3M68NM076ITUSWNPUH3EIP0PO9UR6W","A106QH27FETZ88","38DCH97KHHO4I6P2AJ31XKZ17OGJQZ","","18","img/land3.png","74","19","1","0","3","2","1,0.5,0.5,0.5,1,0.5,0.5,0.5,1","1,0.5,0.5,0.5,1,0.5,0.5,0.5,1","1","",""
"","html-keyboard-response","254","91119","0.0-254.0","3M68NM076ITUSWNPUH3EIP0PO9UR6W","A106QH27FETZ88","38DCH97KHHO4I6P2AJ31XKZ17OGJQZ","","null","<img src=""img/land3.png"" style=""width:200px;border:14px solid red;"">","null","","","","","","","","","",""
"","image-keyboard-response","255","91271","0.0-255.0","3M68NM076ITUSWNPUH3EIP0PO9UR6W","A106QH27FETZ88","38DCH97KHHO4I6P2AJ31XKZ17OGJQZ","","150","img/land4.png","75","152","2","1","1","2","1,0.5,0.5,0.5,1,0.5,0.5,0.5,1","1,0.5,0.5,0.5,1,0.5,0.5,0.5,1","1","",""
"","html-keyboard-response","256","91579","0.0-256.0","3M68NM076ITUSWNPUH3EIP0PO9UR6W","A106QH27FETZ88","38DCH97KHHO4I6P2AJ31XKZ17OGJQZ","","null","<img src=""img/land4.png"" style=""width:200px; border:14px solid green;"">","null","","","","","","","","","",""
"","image-keyboard-response","257","91676","0.0-257.0","3M68NM076ITUSWNPUH3EIP0PO9UR6W","A106QH27FETZ88","38DCH97KHHO4I6P2AJ31XKZ17OGJQZ","","89","img/land3.png","76","92","3","1","3","2","1,0.5,0.5,0.5,1,0.5,0.5,0.5,1","1,0.5,0.5,0.5,1,0.5,0.5,0.5,1","1","",""
"","html-keyboard-response","258","91978","0.0-258.0","3M68NM076ITUSWNPUH3EIP0PO9UR6W","A106QH27FETZ88","38DCH97KHHO4I6P2AJ31XKZ17OGJQZ","","null","<img src=""img/land3.png"" style=""width:200px; border:14px solid green;"">","null","","","","","","","","","",""
"","image-keyboard-response","259","91989","0.0-259.0","3M68NM076ITUSWNPUH3EIP0PO9UR6W","A106QH27FETZ88","38DCH97KHHO4I6P2AJ31XKZ17OGJQZ","","9","img/land4.png","74","10","1","1","1","2","1,0.5,0.5,0.5,1,0.5,0.5,0.5,1","1,0.5,0.5,0.5,1,0.5,0.5,0.5,1","1","",""
"","html-keyboard-response","260","92292","0.0-260.0","3M68NM076ITUSWNPUH3EIP0PO9UR6W","A106QH27FETZ88","38DCH97KHHO4I6P2AJ31XKZ17OGJQZ","","null","<img src=""img/land4.png"" style=""width:200px; border:14px solid green;"">","null","","","","","","","","","",""
"","image-keyboard-response","261","92410","0.0-261.0","3M68NM076ITUSWNPUH3EIP0PO9UR6W","A106QH27FETZ88","38DCH97KHHO4I6P2AJ31XKZ17OGJQZ","","114","img/land3.png","76","117","3","1","3","2","1,0.5,0.5,0.5,1,0.5,0.5,0.5,1","1,0.5,0.5,0.5,1,0.5,0.5,0.5,1","1","",""
"","html-keyboard-response","262","92713","0.0-262.0","3M68NM076ITUSWNPUH3EIP0PO9UR6W","A106QH27FETZ88","38DCH97KHHO4I6P2AJ31XKZ17OGJQZ","","null","<img src=""img/land3.png"" style=""width:200px; border:14px solid green;"">","null","","","","","","","","","",""
"","image-keyboard-response","263","92732","0.0-263.0","3M68NM076ITUSWNPUH3EIP0PO9UR6W","A106QH27FETZ88","38DCH97KHHO4I6P2AJ31XKZ17OGJQZ","","16","img/land4.png","74","18","1","1","1","2","1,0.5,0.5,0.5,1,0.5,0.5,0.5,1","1,0.5,0.5,0.5,1,0.5,0.5,0.5,1","1","",""
"","html-keyboard-response","264","93034","0.0-264.0","3M68NM076ITUSWNPUH3EIP0PO9UR6W","A106QH27FETZ88","38DCH97KHHO4I6P2AJ31XKZ17OGJQZ","","null","<img src=""img/land4.png"" style=""width:200px; border:14px solid green;"">","null","","","","","","","","","",""
"","image-keyboard-response","265","93154","0.0-265.0","3M68NM076ITUSWNPUH3EIP0PO9UR6W","A106QH27FETZ88","38DCH97KHHO4I6P2AJ31XKZ17OGJQZ","","116","img/land4.png","75","118","2","1","1","2","1,0.5,0.5,0.5,1,0.5,0.5,0.5,1","1,0.5,0.5,0.5,1,0.5,0.5,0.5,1","1","",""
"","html-keyboard-response","266","93458","0.0-266.0","3M68NM076ITUSWNPUH3EIP0PO9UR6W","A106QH27FETZ88","38DCH97KHHO4I6P2AJ31XKZ17OGJQZ","","null","<img src=""img/land4.png"" style=""width:200px; border:14px solid green;"">","null","","","","","","","","","",""
"","image-keyboard-response","267","93460","0.0-267.0","3M68NM076ITUSWNPUH3EIP0PO9UR6W","A106QH27FETZ88","38DCH97KHHO4I6P2AJ31XKZ17OGJQZ","","0","img/land4.png","74","2","1","1","1","2","1,0.5,0.5,0.5,1,0.5,0.5,0.5,1","1,0.5,0.5,0.5,1,0.5,0.5,0.5,1","1","",""
"","html-keyboard-response","268","93761","0.0-268.0","3M68NM076ITUSWNPUH3EIP0PO9UR6W","A106QH27FETZ88","38DCH97KHHO4I6P2AJ31XKZ17OGJQZ","","null","<img src=""img/land4.png"" style=""width:200px; border:14px solid green;"">","null","","","","","","","","","",""
"","image-keyboard-response","269","93794","0.0-269.0","3M68NM076ITUSWNPUH3EIP0PO9UR6W","A106QH27FETZ88","38DCH97KHHO4I6P2AJ31XKZ17OGJQZ","","30","img/land6.png","74","32","1","0","2","2","1,0.5,0.5,0.5,1,0.5,0.5,0.5,1","1,0.5,0.5,0.5,1,0.5,0.5,0.5,1","1","",""
"","html-keyboard-response","270","94097","0.0-270.0","3M68NM076ITUSWNPUH3EIP0PO9UR6W","A106QH27FETZ88","38DCH97KHHO4I6P2AJ31XKZ17OGJQZ","","null","<img src=""img/land6.png"" style=""width:200px;border:14px solid red;"">","null","","","","","","","","","",""
"","image-keyboard-response","271","94115","0.0-271.0","3M68NM076ITUSWNPUH3EIP0PO9UR6W","A106QH27FETZ88","38DCH97KHHO4I6P2AJ31XKZ17OGJQZ","","15","img/land6.png","75","16","2","1","2","2","1,0.5,0.5,0.5,1,0.5,0.5,0.5,1","1,0.5,0.5,0.5,1,0.5,0.5,0.5,1","1","",""
"","html-keyboard-response","272","94418","0.0-272.0","3M68NM076ITUSWNPUH3EIP0PO9UR6W","A106QH27FETZ88","38DCH97KHHO4I6P2AJ31XKZ17OGJQZ","","null","<img src=""img/land6.png"" style=""width:200px; border:14px solid green;"">","null","","","","","","","","","",""
"","image-keyboard-response","273","94530","0.0-273.0","3M68NM076ITUSWNPUH3EIP0PO9UR6W","A106QH27FETZ88","38DCH97KHHO4I6P2AJ31XKZ17OGJQZ","","109","img/land4.png","74","110","1","1","1","2","1,0.5,0.5,0.5,1,0.5,0.5,0.5,1","1,0.5,0.5,0.5,1,0.5,0.5,0.5,1","1","",""
"","html-keyboard-response","274","94834","0.0-274.0","3M68NM076ITUSWNPUH3EIP0PO9UR6W","A106QH27FETZ88","38DCH97KHHO4I6P2AJ31XKZ17OGJQZ","","null","<img src=""img/land4.png"" style=""width:200px; border:14px solid green;"">","null","","","","","","","","","",""
"","image-keyboard-response","275","95053","0.0-275.0","3M68NM076ITUSWNPUH3EIP0PO9UR6W","A106QH27FETZ88","38DCH97KHHO4I6P2AJ31XKZ17OGJQZ","","218","img/land4.png","74","218","1","1","1","2","1,0.5,0.5,0.5,1,0.5,0.5,0.5,1","1,0.5,0.5,0.5,1,0.5,0.5,0.5,1","1","",""
"","html-keyboard-response","276","95354","0.0-276.0","3M68NM076ITUSWNPUH3EIP0PO9UR6W","A106QH27FETZ88","38DCH97KHHO4I6P2AJ31XKZ17OGJQZ","","null","<img src=""img/land4.png"" style=""width:200px; border:14px solid green;"">","null","","","","","","","","","",""
"","image-keyboard-response","277","95452","0.0-277.0","3M68NM076ITUSWNPUH3EIP0PO9UR6W","A106QH27FETZ88","38DCH97KHHO4I6P2AJ31XKZ17OGJQZ","","96","img/land4.png","75","98","2","0","1","2","1,0.5,0.5,0.5,1,0.5,0.5,0.5,1","1,0.5,0.5,0.5,1,0.5,0.5,0.5,1","1","",""
"","html-keyboard-response","278","95755","0.0-278.0","3M68NM076ITUSWNPUH3EIP0PO9UR6W","A106QH27FETZ88","38DCH97KHHO4I6P2AJ31XKZ17OGJQZ","","null","<img src=""img/land4.png"" style=""width:200px;border:14px solid red;"">","null","","","","","","","","","",""
"","image-keyboard-response","279","95818","0.0-279.0","3M68NM076ITUSWNPUH3EIP0PO9UR6W","A106QH27FETZ88","38DCH97KHHO4I6P2AJ31XKZ17OGJQZ","","62","img/land4.png","74","62","1","1","1","2","1,0.5,0.5,0.5,1,0.5,0.5,0.5,1","1,0.5,0.5,0.5,1,0.5,0.5,0.5,1","1","",""
"","html-keyboard-response","280","96122","0.0-280.0","3M68NM076ITUSWNPUH3EIP0PO9UR6W","A106QH27FETZ88","38DCH97KHHO4I6P2AJ31XKZ17OGJQZ","","null","<img src=""img/land4.png"" style=""width:200px; border:14px solid green;"">","null","","","","","","","","","",""
"","image-keyboard-response","281","96139","0.0-281.0","3M68NM076ITUSWNPUH3EIP0PO9UR6W","A106QH27FETZ88","38DCH97KHHO4I6P2AJ31XKZ17OGJQZ","","12","img/land4.png","76","17","3","0","1","2","1,0.5,0.5,0.5,1,0.5,0.5,0.5,1","1,0.5,0.5,0.5,1,0.5,0.5,0.5,1","1","",""
"","html-keyboard-response","282","96443","0.0-282.0","3M68NM076ITUSWNPUH3EIP0PO9UR6W","A106QH27FETZ88","38DCH97KHHO4I6P2AJ31XKZ17OGJQZ","","null","<img src=""img/land4.png"" style=""width:200px;border:14px solid red;"">","null","","","","","","","","","",""
"","image-keyboard-response","283","96562","0.0-283.0","3M68NM076ITUSWNPUH3EIP0PO9UR6W","A106QH27FETZ88","38DCH97KHHO4I6P2AJ31XKZ17OGJQZ","","117","img/land4.png","76","118","3","0","1","2","1,0.5,0.5,0.5,1,0.5,0.5,0.5,1","1,0.5,0.5,0.5,1,0.5,0.5,0.5,1","1","",""
"","html-keyboard-response","284","96865","0.0-284.0","3M68NM076ITUSWNPUH3EIP0PO9UR6W","A106QH27FETZ88","38DCH97KHHO4I6P2AJ31XKZ17OGJQZ","","null","<img src=""img/land4.png"" style=""width:200px;border:14px solid red;"">","null","","","","","","","","","",""
"","image-keyboard-response","285","96924","0.0-285.0","3M68NM076ITUSWNPUH3EIP0PO9UR6W","A106QH27FETZ88","38DCH97KHHO4I6P2AJ31XKZ17OGJQZ","","56","img/land4.png","74","58","1","1","1","2","1,0.5,0.5,0.5,1,0.5,0.5,0.5,1","1,0.5,0.5,0.5,1,0.5,0.5,0.5,1","1","",""
"","html-keyboard-response","286","97227","0.0-286.0","3M68NM076ITUSWNPUH3EIP0PO9UR6W","A106QH27FETZ88","38DCH97KHHO4I6P2AJ31XKZ17OGJQZ","","null","<img src=""img/land4.png"" style=""width:200px; border:14px solid green;"">","null","","","","","","","","","",""
"","image-keyboard-response","287","97238","0.0-287.0","3M68NM076ITUSWNPUH3EIP0PO9UR6W","A106QH27FETZ88","38DCH97KHHO4I6P2AJ31XKZ17OGJQZ","","8","img/land4.png","76","10","3","0","1","2","1,0.5,0.5,0.5,1,0.5,0.5,0.5,1","1,0.5,0.5,0.5,1,0.5,0.5,0.5,1","1","",""
"","html-keyboard-response","288","97541","0.0-288.0","3M68NM076ITUSWNPUH3EIP0PO9UR6W","A106QH27FETZ88","38DCH97KHHO4I6P2AJ31XKZ17OGJQZ","","null","<img src=""img/land4.png"" style=""width:200px;border:14px solid red;"">","null","","","","","","","","","",""
"","image-keyboard-response","289","97715","0.0-289.0","3M68NM076ITUSWNPUH3EIP0PO9UR6W","A106QH27FETZ88","38DCH97KHHO4I6P2AJ31XKZ17OGJQZ","","172","img/land4.png","74","173","1","1","1","2","1,0.5,0.5,0.5,1,0.5,0.5,0.5,1","1,0.5,0.5,0.5,1,0.5,0.5,0.5,1","1","",""
"","html-keyboard-response","290","98017","0.0-290.0","3M68NM076ITUSWNPUH3EIP0PO9UR6W","A106QH27FETZ88","38DCH97KHHO4I6P2AJ31XKZ17OGJQZ","","null","<img src=""img/land4.png"" style=""width:200px; border:14px solid green;"">","null","","","","","","","","","",""
"","image-keyboard-response","291","98177","0.0-291.0","3M68NM076ITUSWNPUH3EIP0PO9UR6W","A106QH27FETZ88","38DCH97KHHO4I6P2AJ31XKZ17OGJQZ","","158","img/land4.png","75","159","2","0","1","2","1,0.5,0.5,0.5,1,0.5,0.5,0.5,1","1,0.5,0.5,0.5,1,0.5,0.5,0.5,1","1","",""
"","html-keyboard-response","292","98479","0.0-292.0","3M68NM076ITUSWNPUH3EIP0PO9UR6W","A106QH27FETZ88","38DCH97KHHO4I6P2AJ31XKZ17OGJQZ","","null","<img src=""img/land4.png"" style=""width:200px;border:14px solid red;"">","null","","","","","","","","","",""
"","image-keyboard-response","293","98640","0.0-293.0","3M68NM076ITUSWNPUH3EIP0PO9UR6W","A106QH27FETZ88","38DCH97KHHO4I6P2AJ31XKZ17OGJQZ","","157","img/land4.png","74","158","1","1","1","2","1,0.5,0.5,0.5,1,0.5,0.5,0.5,1","1,0.5,0.5,0.5,1,0.5,0.5,0.5,1","1","",""
"","html-keyboard-response","294","98943","0.0-294.0","3M68NM076ITUSWNPUH3EIP0PO9UR6W","A106QH27FETZ88","38DCH97KHHO4I6P2AJ31XKZ17OGJQZ","","null","<img src=""img/land4.png"" style=""width:200px; border:14px solid green;"">","null","","","","","","","","","",""
"","image-keyboard-response","295","99074","0.0-295.0","3M68NM076ITUSWNPUH3EIP0PO9UR6W","A106QH27FETZ88","38DCH97KHHO4I6P2AJ31XKZ17OGJQZ","","129","img/land6.png","75","130","2","1","2","2","1,0.5,0.5,0.5,1,0.5,0.5,0.5,1","1,0.5,0.5,0.5,1,0.5,0.5,0.5,1","1","",""
"","html-keyboard-response","296","99377","0.0-296.0","3M68NM076ITUSWNPUH3EIP0PO9UR6W","A106QH27FETZ88","38DCH97KHHO4I6P2AJ31XKZ17OGJQZ","","null","<img src=""img/land6.png"" style=""width:200px; border:14px solid green;"">","null","","","","","","","","","",""
"","image-keyboard-response","297","99443","0.0-297.0","3M68NM076ITUSWNPUH3EIP0PO9UR6W","A106QH27FETZ88","38DCH97KHHO4I6P2AJ31XKZ17OGJQZ","","63","img/land4.png","74","66","1","1","1","2","1,0.5,0.5,0.5,1,0.5,0.5,0.5,1","1,0.5,0.5,0.5,1,0.5,0.5,0.5,1","1","",""
"","html-keyboard-response","298","99746","0.0-298.0","3M68NM076ITUSWNPUH3EIP0PO9UR6W","A106QH27FETZ88","38DCH97KHHO4I6P2AJ31XKZ17OGJQZ","","null","<img src=""img/land4.png"" style=""width:200px; border:14px solid green;"">","null","","","","","","","","","",""
"","image-keyboard-response","299","99840","0.0-299.0","3M68NM076ITUSWNPUH3EIP0PO9UR6W","A106QH27FETZ88","38DCH97KHHO4I6P2AJ31XKZ17OGJQZ","","93","img/land6.png","74","93","1","1","2","2","1,0.5,0.5,0.5,1,0.5,0.5,0.5,1","1,0.5,0.5,0.5,1,0.5,0.5,0.5,1","1","",""
"","html-keyboard-response","300","100146","0.0-300.0","3M68NM076ITUSWNPUH3EIP0PO9UR6W","A106QH27FETZ88","38DCH97KHHO4I6P2AJ31XKZ17OGJQZ","","null","<img src=""img/land6.png"" style=""width:200px; border:14px solid green;"">","null","","","","","","","","","",""
"","image-keyboard-response","301","100271","0.0-301.0","3M68NM076ITUSWNPUH3EIP0PO9UR6W","A106QH27FETZ88","38DCH97KHHO4I6P2AJ31XKZ17OGJQZ","","122","img/land6.png","76","123","3","0","2","2","1,0.5,0.5,0.5,1,0.5,0.5,0.5,1","1,0.5,0.5,0.5,1,0.5,0.5,0.5,1","1","",""
"","html-keyboard-response","302","100575","0.0-302.0","3M68NM076ITUSWNPUH3EIP0PO9UR6W","A106QH27FETZ88","38DCH97KHHO4I6P2AJ31XKZ17OGJQZ","","null","<img src=""img/land6.png"" style=""width:200px;border:14px solid red;"">","null","","","","","","","","","",""
"","image-keyboard-response","303","100921","0.0-303.0","3M68NM076ITUSWNPUH3EIP0PO9UR6W","A106QH27FETZ88","38DCH97KHHO4I6P2AJ31XKZ17OGJQZ","","342","img/land4.png","74","344","1","1","1","2","1,0.5,0.5,0.5,1,0.5,0.5,0.5,1","1,0.5,0.5,0.5,1,0.5,0.5,0.5,1","1","",""
"","html-keyboard-response","304","101222","0.0-304.0","3M68NM076ITUSWNPUH3EIP0PO9UR6W","A106QH27FETZ88","38DCH97KHHO4I6P2AJ31XKZ17OGJQZ","","null","<img src=""img/land4.png"" style=""width:200px; border:14px solid green;"">","null","","","","","","","","","",""
"","image-keyboard-response","305","101229","0.0-305.0","3M68NM076ITUSWNPUH3EIP0PO9UR6W","A106QH27FETZ88","38DCH97KHHO4I6P2AJ31XKZ17OGJQZ","","3","img/land6.png","75","6","2","1","2","2","1,0.5,0.5,0.5,1,0.5,0.5,0.5,1","1,0.5,0.5,0.5,1,0.5,0.5,0.5,1","1","",""
"","html-keyboard-response","306","101530","0.0-306.0","3M68NM076ITUSWNPUH3EIP0PO9UR6W","A106QH27FETZ88","38DCH97KHHO4I6P2AJ31XKZ17OGJQZ","","null","<img src=""img/land6.png"" style=""width:200px; border:14px solid green;"">","null","","","","","","","","","",""
"","image-keyboard-response","307","101681","0.0-307.0","3M68NM076ITUSWNPUH3EIP0PO9UR6W","A106QH27FETZ88","38DCH97KHHO4I6P2AJ31XKZ17OGJQZ","","147","img/land4.png","74","151","1","1","1","2","1,0.5,0.5,0.5,1,0.5,0.5,0.5,1","1,0.5,0.5,0.5,1,0.5,0.5,0.5,1","1","",""
"","html-keyboard-response","308","101986","0.0-308.0","3M68NM076ITUSWNPUH3EIP0PO9UR6W","A106QH27FETZ88","38DCH97KHHO4I6P2AJ31XKZ17OGJQZ","","null","<img src=""img/land4.png"" style=""width:200px; border:14px solid green;"">","null","","","","","","","","","",""
"","image-keyboard-response","309","102119","0.0-309.0","3M68NM076ITUSWNPUH3EIP0PO9UR6W","A106QH27FETZ88","38DCH97KHHO4I6P2AJ31XKZ17OGJQZ","","131","img/land4.png","76","133","3","1","1","2","1,0.5,0.5,0.5,1,0.5,0.5,0.5,1","1,0.5,0.5,0.5,1,0.5,0.5,0.5,1","1","",""
"","html-keyboard-response","310","102422","0.0-310.0","3M68NM076ITUSWNPUH3EIP0PO9UR6W","A106QH27FETZ88","38DCH97KHHO4I6P2AJ31XKZ17OGJQZ","","null","<img src=""img/land4.png"" style=""width:200px; border:14px solid green;"">","null","","","","","","","","","",""
"","image-keyboard-response","311","102550","0.0-311.0","3M68NM076ITUSWNPUH3EIP0PO9UR6W","A106QH27FETZ88","38DCH97KHHO4I6P2AJ31XKZ17OGJQZ","","123","img/land4.png","75","127","2","0","1","2","1,0.5,0.5,0.5,1,0.5,0.5,0.5,1","1,0.5,0.5,0.5,1,0.5,0.5,0.5,1","1","",""
"","html-keyboard-response","312","102851","0.0-312.0","3M68NM076ITUSWNPUH3EIP0PO9UR6W","A106QH27FETZ88","38DCH97KHHO4I6P2AJ31XKZ17OGJQZ","","null","<img src=""img/land4.png"" style=""width:200px;border:14px solid red;"">","null","","","","","","","","","",""
"","image-keyboard-response","313","102979","0.0-313.0","3M68NM076ITUSWNPUH3EIP0PO9UR6W","A106QH27FETZ88","38DCH97KHHO4I6P2AJ31XKZ17OGJQZ","","126","img/land4.png","74","127","1","1","1","2","1,0.5,0.5,0.5,1,0.5,0.5,0.5,1","1,0.5,0.5,0.5,1,0.5,0.5,0.5,1","1","",""
"","html-keyboard-response","314","103279","0.0-314.0","3M68NM076ITUSWNPUH3EIP0PO9UR6W","A106QH27FETZ88","38DCH97KHHO4I6P2AJ31XKZ17OGJQZ","","null","<img src=""img/land4.png"" style=""width:200px; border:14px solid green;"">","null","","","","","","","","","",""
"","image-keyboard-response","315","103329","0.0-315.0","3M68NM076ITUSWNPUH3EIP0PO9UR6W","A106QH27FETZ88","38DCH97KHHO4I6P2AJ31XKZ17OGJQZ","","48","img/land4.png","76","49","3","1","1","2","1,0.5,0.5,0.5,1,0.5,0.5,0.5,1","1,0.5,0.5,0.5,1,0.5,0.5,0.5,1","1","",""
"","html-keyboard-response","316","103632","0.0-316.0","3M68NM076ITUSWNPUH3EIP0PO9UR6W","A106QH27FETZ88","38DCH97KHHO4I6P2AJ31XKZ17OGJQZ","","null","<img src=""img/land4.png"" style=""width:200px; border:14px solid green;"">","null","","","","","","","","","",""
"","image-keyboard-response","317","103772","0.0-317.0","3M68NM076ITUSWNPUH3EIP0PO9UR6W","A106QH27FETZ88","38DCH97KHHO4I6P2AJ31XKZ17OGJQZ","","136","img/land6.png","75","138","2","1","2","2","1,0.5,0.5,0.5,1,0.5,0.5,0.5,1","1,0.5,0.5,0.5,1,0.5,0.5,0.5,1","1","",""
"","html-keyboard-response","318","104075","0.0-318.0","3M68NM076ITUSWNPUH3EIP0PO9UR6W","A106QH27FETZ88","38DCH97KHHO4I6P2AJ31XKZ17OGJQZ","","null","<img src=""img/land6.png"" style=""width:200px; border:14px solid green;"">","null","","","","","","","","","",""
"","image-keyboard-response","319","104194","0.0-319.0","3M68NM076ITUSWNPUH3EIP0PO9UR6W","A106QH27FETZ88","38DCH97KHHO4I6P2AJ31XKZ17OGJQZ","","117","img/land4.png","75","119","2","0","1","2","1,0.5,0.5,0.5,1,0.5,0.5,0.5,1","1,0.5,0.5,0.5,1,0.5,0.5,0.5,1","1","",""
"","html-keyboard-response","320","104496","0.0-320.0","3M68NM076ITUSWNPUH3EIP0PO9UR6W","A106QH27FETZ88","38DCH97KHHO4I6P2AJ31XKZ17OGJQZ","","null","<img src=""img/land4.png"" style=""width:200px;border:14px solid red;"">","null","","","","","","","","","",""
"","image-keyboard-response","321","104616","0.0-321.0","3M68NM076ITUSWNPUH3EIP0PO9UR6W","A106QH27FETZ88","38DCH97KHHO4I6P2AJ31XKZ17OGJQZ","","109","img/land3.png","74","118","1","1","3","2","1,0.5,0.5,0.5,1,0.5,0.5,0.5,1","1,0.5,0.5,0.5,1,0.5,0.5,0.5,1","1","",""
"","html-keyboard-response","322","104918","0.0-322.0","3M68NM076ITUSWNPUH3EIP0PO9UR6W","A106QH27FETZ88","38DCH97KHHO4I6P2AJ31XKZ17OGJQZ","","null","<img src=""img/land3.png"" style=""width:200px; border:14px solid green;"">","null","","","","","","","","","",""
"","image-keyboard-response","323","104956","0.0-323.0","3M68NM076ITUSWNPUH3EIP0PO9UR6W","A106QH27FETZ88","38DCH97KHHO4I6P2AJ31XKZ17OGJQZ","","35","img/land3.png","74","37","1","0","3","2","1,0.5,0.5,0.5,1,0.5,0.5,0.5,1","1,0.5,0.5,0.5,1,0.5,0.5,0.5,1","1","",""
"","html-keyboard-response","324","105256","0.0-324.0","3M68NM076ITUSWNPUH3EIP0PO9UR6W","A106QH27FETZ88","38DCH97KHHO4I6P2AJ31XKZ17OGJQZ","","null","<img src=""img/land3.png"" style=""width:200px;border:14px solid red;"">","null","","","","","","","","","",""
"","image-keyboard-response","325","105332","0.0-325.0","3M68NM076ITUSWNPUH3EIP0PO9UR6W","A106QH27FETZ88","38DCH97KHHO4I6P2AJ31XKZ17OGJQZ","","70","img/land4.png","75","73","2","0","1","2","1,0.5,0.5,0.5,1,0.5,0.5,0.5,1","1,0.5,0.5,0.5,1,0.5,0.5,0.5,1","1","",""
"","html-keyboard-response","326","105633","0.0-326.0","3M68NM076ITUSWNPUH3EIP0PO9UR6W","A106QH27FETZ88","38DCH97KHHO4I6P2AJ31XKZ17OGJQZ","","null","<img src=""img/land4.png"" style=""width:200px;border:14px solid red;"">","null","","","","","","","","","",""
"","image-keyboard-response","327","105741","0.0-327.0","3M68NM076ITUSWNPUH3EIP0PO9UR6W","A106QH27FETZ88","38DCH97KHHO4I6P2AJ31XKZ17OGJQZ","","105","img/land4.png","74","107","1","1","1","2","1,0.5,0.5,0.5,1,0.5,0.5,0.5,1","1,0.5,0.5,0.5,1,0.5,0.5,0.5,1","1","",""
"","html-keyboard-response","328","106045","0.0-328.0","3M68NM076ITUSWNPUH3EIP0PO9UR6W","A106QH27FETZ88","38DCH97KHHO4I6P2AJ31XKZ17OGJQZ","","null","<img src=""img/land4.png"" style=""width:200px; border:14px solid green;"">","null","","","","","","","","","",""
"","image-keyboard-response","329","106173","0.0-329.0","3M68NM076ITUSWNPUH3EIP0PO9UR6W","A106QH27FETZ88","38DCH97KHHO4I6P2AJ31XKZ17OGJQZ","","124","img/land4.png","75","127","2","0","1","2","1,0.5,0.5,0.5,1,0.5,0.5,0.5,1","1,0.5,0.5,0.5,1,0.5,0.5,0.5,1","1","",""
"","html-keyboard-response","330","106475","0.0-330.0","3M68NM076ITUSWNPUH3EIP0PO9UR6W","A106QH27FETZ88","38DCH97KHHO4I6P2AJ31XKZ17OGJQZ","","null","<img src=""img/land4.png"" style=""width:200px;border:14px solid red;"">","null","","","","","","","","","",""
"","image-keyboard-response","331","106483","0.0-331.0","3M68NM076ITUSWNPUH3EIP0PO9UR6W","A106QH27FETZ88","38DCH97KHHO4I6P2AJ31XKZ17OGJQZ","","5","img/land4.png","75","7","2","1","1","2","1,0.5,0.5,0.5,1,0.5,0.5,0.5,1","1,0.5,0.5,0.5,1,0.5,0.5,0.5,1","1","",""
"","html-keyboard-response","332","106785","0.0-332.0","3M68NM076ITUSWNPUH3EIP0PO9UR6W","A106QH27FETZ88","38DCH97KHHO4I6P2AJ31XKZ17OGJQZ","","null","<img src=""img/land4.png"" style=""width:200px; border:14px solid green;"">","null","","","","","","","","","",""
"","image-keyboard-response","333","106908","0.0-333.0","3M68NM076ITUSWNPUH3EIP0PO9UR6W","A106QH27FETZ88","38DCH97KHHO4I6P2AJ31XKZ17OGJQZ","","118","img/land4.png","74","121","1","1","1","2","1,0.5,0.5,0.5,1,0.5,0.5,0.5,1","1,0.5,0.5,0.5,1,0.5,0.5,0.5,1","1","",""
"","html-keyboard-response","334","107211","0.0-334.0","3M68NM076ITUSWNPUH3EIP0PO9UR6W","A106QH27FETZ88","38DCH97KHHO4I6P2AJ31XKZ17OGJQZ","","null","<img src=""img/land4.png"" style=""width:200px; border:14px solid green;"">","null","","","","","","","","","",""
"","image-keyboard-response","335","107331","0.0-335.0","3M68NM076ITUSWNPUH3EIP0PO9UR6W","A106QH27FETZ88","38DCH97KHHO4I6P2AJ31XKZ17OGJQZ","","117","img/land4.png","75","118","2","0","1","2","1,0.5,0.5,0.5,1,0.5,0.5,0.5,1","1,0.5,0.5,0.5,1,0.5,0.5,0.5,1","1","",""
"","html-keyboard-response","336","107633","0.0-336.0","3M68NM076ITUSWNPUH3EIP0PO9UR6W","A106QH27FETZ88","38DCH97KHHO4I6P2AJ31XKZ17OGJQZ","","null","<img src=""img/land4.png"" style=""width:200px;border:14px solid red;"">","null","","","","","","","","","",""
"","image-keyboard-response","337","107661","0.0-337.0","3M68NM076ITUSWNPUH3EIP0PO9UR6W","A106QH27FETZ88","38DCH97KHHO4I6P2AJ31XKZ17OGJQZ","","26","img/land4.png","75","28","2","0","1","2","1,0.5,0.5,0.5,1,0.5,0.5,0.5,1","1,0.5,0.5,0.5,1,0.5,0.5,0.5,1","1","",""
"","html-keyboard-response","338","107964","0.0-338.0","3M68NM076ITUSWNPUH3EIP0PO9UR6W","A106QH27FETZ88","38DCH97KHHO4I6P2AJ31XKZ17OGJQZ","","null","<img src=""img/land4.png"" style=""width:200px;border:14px solid red;"">","null","","","","","","","","","",""
"","image-keyboard-response","339","108001","0.0-339.0","3M68NM076ITUSWNPUH3EIP0PO9UR6W","A106QH27FETZ88","38DCH97KHHO4I6P2AJ31XKZ17OGJQZ","","34","img/land4.png","76","36","3","1","1","2","1,0.5,0.5,0.5,1,0.5,0.5,0.5,1","1,0.5,0.5,0.5,1,0.5,0.5,0.5,1","1","",""
"","html-keyboard-response","340","108305","0.0-340.0","3M68NM076ITUSWNPUH3EIP0PO9UR6W","A106QH27FETZ88","38DCH97KHHO4I6P2AJ31XKZ17OGJQZ","","null","<img src=""img/land4.png"" style=""width:200px; border:14px solid green;"">","null","","","","","","","","","",""
"","image-keyboard-response","341","108357","0.0-341.0","3M68NM076ITUSWNPUH3EIP0PO9UR6W","A106QH27FETZ88","38DCH97KHHO4I6P2AJ31XKZ17OGJQZ","","49","img/land4.png","74","51","1","1","1","2","1,0.5,0.5,0.5,1,0.5,0.5,0.5,1","1,0.5,0.5,0.5,1,0.5,0.5,0.5,1","1","",""
"","html-keyboard-response","342","108660","0.0-342.0","3M68NM076ITUSWNPUH3EIP0PO9UR6W","A106QH27FETZ88","38DCH97KHHO4I6P2AJ31XKZ17OGJQZ","","null","<img src=""img/land4.png"" style=""width:200px; border:14px solid green;"">","null","","","","","","","","","",""
"","image-keyboard-response","343","108708","0.0-343.0","3M68NM076ITUSWNPUH3EIP0PO9UR6W","A106QH27FETZ88","38DCH97KHHO4I6P2AJ31XKZ17OGJQZ","","45","img/land4.png","76","47","3","0","1","2","1,0.5,0.5,0.5,1,0.5,0.5,0.5,1","1,0.5,0.5,0.5,1,0.5,0.5,0.5,1","1","",""
"","html-keyboard-response","344","109010","0.0-344.0","3M68NM076ITUSWNPUH3EIP0PO9UR6W","A106QH27FETZ88","38DCH97KHHO4I6P2AJ31XKZ17OGJQZ","","null","<img src=""img/land4.png"" style=""width:200px;border:14px solid red;"">","null","","","","","","","","","",""
"","image-keyboard-response","345","109204","0.0-345.0","3M68NM076ITUSWNPUH3EIP0PO9UR6W","A106QH27FETZ88","38DCH97KHHO4I6P2AJ31XKZ17OGJQZ","","191","img/land4.png","74","194","1","1","1","2","1,0.5,0.5,0.5,1,0.5,0.5,0.5,1","1,0.5,0.5,0.5,1,0.5,0.5,0.5,1","1","",""
"","html-keyboard-response","346","109507","0.0-346.0","3M68NM076ITUSWNPUH3EIP0PO9UR6W","A106QH27FETZ88","38DCH97KHHO4I6P2AJ31XKZ17OGJQZ","","null","<img src=""img/land4.png"" style=""width:200px; border:14px solid green;"">","null","","","","","","","","","",""
"","image-keyboard-response","347","109581","0.0-347.0","3M68NM076ITUSWNPUH3EIP0PO9UR6W","A106QH27FETZ88","38DCH97KHHO4I6P2AJ31XKZ17OGJQZ","","72","img/land3.png","75","73","2","0","3","2","1,0.5,0.5,0.5,1,0.5,0.5,0.5,1","1,0.5,0.5,0.5,1,0.5,0.5,0.5,1","1","",""
"","html-keyboard-response","348","109883","0.0-348.0","3M68NM076ITUSWNPUH3EIP0PO9UR6W","A106QH27FETZ88","38DCH97KHHO4I6P2AJ31XKZ17OGJQZ","","null","<img src=""img/land3.png"" style=""width:200px;border:14px solid red;"">","null","","","","","","","","","",""
"","image-keyboard-response","349","109907","0.0-349.0","3M68NM076ITUSWNPUH3EIP0PO9UR6W","A106QH27FETZ88","38DCH97KHHO4I6P2AJ31XKZ17OGJQZ","","19","img/land4.png","75","22","2","1","1","2","1,0.5,0.5,0.5,1,0.5,0.5,0.5,1","1,0.5,0.5,0.5,1,0.5,0.5,0.5,1","1","",""
"","html-keyboard-response","350","110210","0.0-350.0","3M68NM076ITUSWNPUH3EIP0PO9UR6W","A106QH27FETZ88","38DCH97KHHO4I6P2AJ31XKZ17OGJQZ","","null","<img src=""img/land4.png"" style=""width:200px; border:14px solid green;"">","null","","","","","","","","","",""
"","image-keyboard-response","351","110292","0.0-351.0","3M68NM076ITUSWNPUH3EIP0PO9UR6W","A106QH27FETZ88","38DCH97KHHO4I6P2AJ31XKZ17OGJQZ","","80","img/land6.png","76","82","3","0","2","2","1,0.5,0.5,0.5,1,0.5,0.5,0.5,1","1,0.5,0.5,0.5,1,0.5,0.5,0.5,1","1","",""
"","html-keyboard-response","352","110598","0.0-352.0","3M68NM076ITUSWNPUH3EIP0PO9UR6W","A106QH27FETZ88","38DCH97KHHO4I6P2AJ31XKZ17OGJQZ","","null","<img src=""img/land6.png"" style=""width:200px;border:14px solid red;"">","null","","","","","","","","","",""
"","image-keyboard-response","353","110607","0.0-353.0","3M68NM076ITUSWNPUH3EIP0PO9UR6W","A106QH27FETZ88","38DCH97KHHO4I6P2AJ31XKZ17OGJQZ","","6","img/land6.png","74","8","1","0","2","2","1,0.5,0.5,0.5,1,0.5,0.5,0.5,1","1,0.5,0.5,0.5,1,0.5,0.5,0.5,1","1","",""
"","html-keyboard-response","354","110910","0.0-354.0","3M68NM076ITUSWNPUH3EIP0PO9UR6W","A106QH27FETZ88","38DCH97KHHO4I6P2AJ31XKZ17OGJQZ","","null","<img src=""img/land6.png"" style=""width:200px;border:14px solid red;"">","null","","","","","","","","","",""
"","image-keyboard-response","355","111020","0.0-355.0","3M68NM076ITUSWNPUH3EIP0PO9UR6W","A106QH27FETZ88","38DCH97KHHO4I6P2AJ31XKZ17OGJQZ","","107","img/land6.png","75","110","2","1","2","2","1,0.5,0.5,0.5,1,0.5,0.5,0.5,1","1,0.5,0.5,0.5,1,0.5,0.5,0.5,1","1","",""
"","html-keyboard-response","356","111325","0.0-356.0","3M68NM076ITUSWNPUH3EIP0PO9UR6W","A106QH27FETZ88","38DCH97KHHO4I6P2AJ31XKZ17OGJQZ","","null","<img src=""img/land6.png"" style=""width:200px; border:14px solid green;"">","null","","","","","","","","","",""
"","image-keyboard-response","357","111403","0.0-357.0","3M68NM076ITUSWNPUH3EIP0PO9UR6W","A106QH27FETZ88","38DCH97KHHO4I6P2AJ31XKZ17OGJQZ","","75","img/land4.png","74","77","1","1","1","2","1,0.5,0.5,0.5,1,0.5,0.5,0.5,1","1,0.5,0.5,0.5,1,0.5,0.5,0.5,1","1","",""
"","html-keyboard-response","358","111705","0.0-358.0","3M68NM076ITUSWNPUH3EIP0PO9UR6W","A106QH27FETZ88","38DCH97KHHO4I6P2AJ31XKZ17OGJQZ","","null","<img src=""img/land4.png"" style=""width:200px; border:14px solid green;"">","null","","","","","","","","","",""
"","image-keyboard-response","359","111900","0.0-359.0","3M68NM076ITUSWNPUH3EIP0PO9UR6W","A106QH27FETZ88","38DCH97KHHO4I6P2AJ31XKZ17OGJQZ","","194","img/land4.png","75","194","2","0","1","2","1,0.5,0.5,0.5,1,0.5,0.5,0.5,1","1,0.5,0.5,0.5,1,0.5,0.5,0.5,1","1","",""
"","html-keyboard-response","360","112203","0.0-360.0","3M68NM076ITUSWNPUH3EIP0PO9UR6W","A106QH27FETZ88","38DCH97KHHO4I6P2AJ31XKZ17OGJQZ","","null","<img src=""img/land4.png"" style=""width:200px;border:14px solid red;"">","null","","","","","","","","","",""
"","image-keyboard-response","361","112315","0.0-361.0","3M68NM076ITUSWNPUH3EIP0PO9UR6W","A106QH27FETZ88","38DCH97KHHO4I6P2AJ31XKZ17OGJQZ","","110","img/land4.png","74","112","1","1","1","2","1,0.5,0.5,0.5,1,0.5,0.5,0.5,1","1,0.5,0.5,0.5,1,0.5,0.5,0.5,1","1","",""
"","html-keyboard-response","362","112617","0.0-362.0","3M68NM076ITUSWNPUH3EIP0PO9UR6W","A106QH27FETZ88","38DCH97KHHO4I6P2AJ31XKZ17OGJQZ","","null","<img src=""img/land4.png"" style=""width:200px; border:14px solid green;"">","null","","","","","","","","","",""
"","image-keyboard-response","363","112746","0.0-363.0","3M68NM076ITUSWNPUH3EIP0PO9UR6W","A106QH27FETZ88","38DCH97KHHO4I6P2AJ31XKZ17OGJQZ","","126","img/land6.png","76","129","3","1","2","2","1,0.5,0.5,0.5,1,0.5,0.5,0.5,1","1,0.5,0.5,0.5,1,0.5,0.5,0.5,1","1","",""
"","html-keyboard-response","364","113051","0.0-364.0","3M68NM076ITUSWNPUH3EIP0PO9UR6W","A106QH27FETZ88","38DCH97KHHO4I6P2AJ31XKZ17OGJQZ","","null","<img src=""img/land6.png"" style=""width:200px; border:14px solid green;"">","null","","","","","","","","","",""
"","image-keyboard-response","365","113067","0.0-365.0","3M68NM076ITUSWNPUH3EIP0PO9UR6W","A106QH27FETZ88","38DCH97KHHO4I6P2AJ31XKZ17OGJQZ","","15","img/land4.png","75","16","2","1","1","2","1,0.5,0.5,0.5,1,0.5,0.5,0.5,1","1,0.5,0.5,0.5,1,0.5,0.5,0.5,1","1","",""
"","html-keyboard-response","366","113370","0.0-366.0","3M68NM076ITUSWNPUH3EIP0PO9UR6W","A106QH27FETZ88","38DCH97KHHO4I6P2AJ31XKZ17OGJQZ","","null","<img src=""img/land4.png"" style=""width:200px; border:14px solid green;"">","null","","","","","","","","","",""
"","image-keyboard-response","367","113427","0.0-367.0","3M68NM076ITUSWNPUH3EIP0PO9UR6W","A106QH27FETZ88","38DCH97KHHO4I6P2AJ31XKZ17OGJQZ","","55","img/land3.png","74","57","1","0","3","2","1,0.5,0.5,0.5,1,0.5,0.5,0.5,1","1,0.5,0.5,0.5,1,0.5,0.5,0.5,1","1","",""
"","html-keyboard-response","368","113731","0.0-368.0","3M68NM076ITUSWNPUH3EIP0PO9UR6W","A106QH27FETZ88","38DCH97KHHO4I6P2AJ31XKZ17OGJQZ","","null","<img src=""img/land3.png"" style=""width:200px;border:14px solid red;"">","null","","","","","","","","","",""
"","image-keyboard-response","369","113940","0.0-369.0","3M68NM076ITUSWNPUH3EIP0PO9UR6W","A106QH27FETZ88","38DCH97KHHO4I6P2AJ31XKZ17OGJQZ","","208","img/land4.png","75","208","2","0","1","2","1,0.5,0.5,0.5,1,0.5,0.5,0.5,1","1,0.5,0.5,0.5,1,0.5,0.5,0.5,1","1","",""
"","html-keyboard-response","370","114243","0.0-370.0","3M68NM076ITUSWNPUH3EIP0PO9UR6W","A106QH27FETZ88","38DCH97KHHO4I6P2AJ31XKZ17OGJQZ","","null","<img src=""img/land4.png"" style=""width:200px;border:14px solid red;"">","null","","","","","","","","","",""
"","image-keyboard-response","371","114331","0.0-371.0","3M68NM076ITUSWNPUH3EIP0PO9UR6W","A106QH27FETZ88","38DCH97KHHO4I6P2AJ31XKZ17OGJQZ","","87","img/land4.png","74","89","1","1","1","2","1,0.5,0.5,0.5,1,0.5,0.5,0.5,1","1,0.5,0.5,0.5,1,0.5,0.5,0.5,1","1","",""
"","html-keyboard-response","372","114635","0.0-372.0","3M68NM076ITUSWNPUH3EIP0PO9UR6W","A106QH27FETZ88","38DCH97KHHO4I6P2AJ31XKZ17OGJQZ","","null","<img src=""img/land4.png"" style=""width:200px; border:14px solid green;"">","null","","","","","","","","","",""
"","image-keyboard-response","373","114659","0.0-373.0","3M68NM076ITUSWNPUH3EIP0PO9UR6W","A106QH27FETZ88","38DCH97KHHO4I6P2AJ31XKZ17OGJQZ","","19","img/land3.png","74","23","1","0","3","2","1,0.5,0.5,0.5,1,0.5,0.5,0.5,1","1,0.5,0.5,0.5,1,0.5,0.5,0.5,1","1","",""
"","html-keyboard-response","374","114961","0.0-374.0","3M68NM076ITUSWNPUH3EIP0PO9UR6W","A106QH27FETZ88","38DCH97KHHO4I6P2AJ31XKZ17OGJQZ","","null","<img src=""img/land3.png"" style=""width:200px;border:14px solid red;"">","null","","","","","","","","","",""
"","image-keyboard-response","375","115410","0.0-375.0","3M68NM076ITUSWNPUH3EIP0PO9UR6W","A106QH27FETZ88","38DCH97KHHO4I6P2AJ31XKZ17OGJQZ","","445","img/land4.png","76","446","3","0","1","2","1,0.5,0.5,0.5,1,0.5,0.5,0.5,1","1,0.5,0.5,0.5,1,0.5,0.5,0.5,1","1","",""
"","html-keyboard-response","376","115711","0.0-376.0","3M68NM076ITUSWNPUH3EIP0PO9UR6W","A106QH27FETZ88","38DCH97KHHO4I6P2AJ31XKZ17OGJQZ","","null","<img src=""img/land4.png"" style=""width:200px;border:14px solid red;"">","null","","","","","","","","","",""
"","image-keyboard-response","377","115845","0.0-377.0","3M68NM076ITUSWNPUH3EIP0PO9UR6W","A106QH27FETZ88","38DCH97KHHO4I6P2AJ31XKZ17OGJQZ","","132","img/land6.png","74","133","1","0","2","2","1,0.5,0.5,0.5,1,0.5,0.5,0.5,1","1,0.5,0.5,0.5,1,0.5,0.5,0.5,1","1","",""
"","html-keyboard-response","378","116147","0.0-378.0","3M68NM076ITUSWNPUH3EIP0PO9UR6W","A106QH27FETZ88","38DCH97KHHO4I6P2AJ31XKZ17OGJQZ","","null","<img src=""img/land6.png"" style=""width:200px;border:14px solid red;"">","null","","","","","","","","","",""
"","image-keyboard-response","379","116301","0.0-379.0","3M68NM076ITUSWNPUH3EIP0PO9UR6W","A106QH27FETZ88","38DCH97KHHO4I6P2AJ31XKZ17OGJQZ","","152","img/land4.png","75","154","2","0","1","2","1,0.5,0.5,0.5,1,0.5,0.5,0.5,1","1,0.5,0.5,0.5,1,0.5,0.5,0.5,1","1","",""
"","html-keyboard-response","380","116606","0.0-380.0","3M68NM076ITUSWNPUH3EIP0PO9UR6W","A106QH27FETZ88","38DCH97KHHO4I6P2AJ31XKZ17OGJQZ","","null","<img src=""img/land4.png"" style=""width:200px;border:14px solid red;"">","null","","","","","","","","","",""
