"success","trial_type","trial_index","time_elapsed","internal_node_id","assignmentID","mturkID","hitID","view_history","rt","stimulus","key_press","reactionTime","a","r","s","cond","reward_cond","reward_cond_actual","reward_matrix_idx","responses","question_order"
"true","fullscreen","0","11522","0.0-0.0","3MHW492WW1ZOA6PYQHF58IME0QYMVT","A10HW8JXM17XLD","3HUR21WDDUBEMSLDIXZW1FAIHW8YX3","","","","","","","","","","","","","",""
"","instructions","1","42773","0.0-1.0","3MHW492WW1ZOA6PYQHF58IME0QYMVT","A10HW8JXM17XLD","3HUR21WDDUBEMSLDIXZW1FAIHW8YX3","[{""page_index"":0,""viewing_time"":4063.5999999046326},{""page_index"":1,""viewing_time"":2095.800000190735},{""page_index"":2,""viewing_time"":3023.9000000953674},{""page_index"":3,""viewing_time"":7207.799999713898},{""page_index"":4,""viewing_time"":4848.200000286102},{""page_index"":5,""viewing_time"":3463.9000000953674},{""page_index"":6,""viewing_time"":6544}]","31248.5","","","","","","","","","","","",""
"","image-keyboard-response","2","43550","0.0-2.0","3MHW492WW1ZOA6PYQHF58IME0QYMVT","A10HW8JXM17XLD","3HUR21WDDUBEMSLDIXZW1FAIHW8YX3","","773.5","img/land4.png","74","776.3000001907349","1","1","2","2","0.8,0.2,0.2,0.2,0.8,0.2,0.2,0.2,0.8","0.2,0.2,0.8,0.8,0.2,0.2,0.2,0.8,0.2","2","",""
"","html-keyboard-response","3","43858","0.0-3.0","3MHW492WW1ZOA6PYQHF58IME0QYMVT","A10HW8JXM17XLD","3HUR21WDDUBEMSLDIXZW1FAIHW8YX3","","null","<img src=""img/land4.png"" style=""width:200px; border:14px solid green;"">","null","","","","","","","","","",""
"","image-keyboard-response","4","44524","0.0-4.0","3MHW492WW1ZOA6PYQHF58IME0QYMVT","A10HW8JXM17XLD","3HUR21WDDUBEMSLDIXZW1FAIHW8YX3","","662.6999998092651","img/land1.png","74","664.9000000953674","1","0","1","2","0.8,0.2,0.2,0.2,0.8,0.2,0.2,0.2,0.8","0.2,0.2,0.8,0.8,0.2,0.2,0.2,0.8,0.2","2","",""
"","html-keyboard-response","5","44834","0.0-5.0","3MHW492WW1ZOA6PYQHF58IME0QYMVT","A10HW8JXM17XLD","3HUR21WDDUBEMSLDIXZW1FAIHW8YX3","","null","<img src=""img/land1.png"" style=""width:200px;border:14px solid red;"">","null","","","","","","","","","",""
"","image-keyboard-response","6","45692","0.0-6.0","3MHW492WW1ZOA6PYQHF58IME0QYMVT","A10HW8JXM17XLD","3HUR21WDDUBEMSLDIXZW1FAIHW8YX3","","855.2000002861023","img/land1.png","75","857.4000000953674","2","0","1","2","0.8,0.2,0.2,0.2,0.8,0.2,0.2,0.2,0.8","0.2,0.2,0.8,0.8,0.2,0.2,0.2,0.8,0.2","2","",""
"","html-keyboard-response","7","46002","0.0-7.0","3MHW492WW1ZOA6PYQHF58IME0QYMVT","A10HW8JXM17XLD","3HUR21WDDUBEMSLDIXZW1FAIHW8YX3","","null","<img src=""img/land1.png"" style=""width:200px;border:14px solid red;"">","null","","","","","","","","","",""
"","image-keyboard-response","8","46524","0.0-8.0","3MHW492WW1ZOA6PYQHF58IME0QYMVT","A10HW8JXM17XLD","3HUR21WDDUBEMSLDIXZW1FAIHW8YX3","","518.9000000953674","img/land1.png","76","521.0999999046326","3","1","1","2","0.8,0.2,0.2,0.2,0.8,0.2,0.2,0.2,0.8","0.2,0.2,0.8,0.8,0.2,0.2,0.2,0.8,0.2","2","",""
"","html-keyboard-response","9","46834","0.0-9.0","3MHW492WW1ZOA6PYQHF58IME0QYMVT","A10HW8JXM17XLD","3HUR21WDDUBEMSLDIXZW1FAIHW8YX3","","null","<img src=""img/land1.png"" style=""width:200px; border:14px solid green;"">","null","","","","","","","","","",""
"","image-keyboard-response","10","47996","0.0-10.0","3MHW492WW1ZOA6PYQHF58IME0QYMVT","A10HW8JXM17XLD","3HUR21WDDUBEMSLDIXZW1FAIHW8YX3","","1159.3000001907349","img/land5.png","75","1161.4000000953674","2","1","3","2","0.8,0.2,0.2,0.2,0.8,0.2,0.2,0.2,0.8","0.2,0.2,0.8,0.8,0.2,0.2,0.2,0.8,0.2","2","",""
"","html-keyboard-response","11","48306","0.0-11.0","3MHW492WW1ZOA6PYQHF58IME0QYMVT","A10HW8JXM17XLD","3HUR21WDDUBEMSLDIXZW1FAIHW8YX3","","null","<img src=""img/land5.png"" style=""width:200px; border:14px solid green;"">","null","","","","","","","","","",""
"","image-keyboard-response","12","49844","0.0-12.0","3MHW492WW1ZOA6PYQHF58IME0QYMVT","A10HW8JXM17XLD","3HUR21WDDUBEMSLDIXZW1FAIHW8YX3","","1535.5999999046326","img/land4.png","75","1537.7999997138977","2","0","2","2","0.8,0.2,0.2,0.2,0.8,0.2,0.2,0.2,0.8","0.2,0.2,0.8,0.8,0.2,0.2,0.2,0.8,0.2","2","",""
"","html-keyboard-response","13","50154","0.0-13.0","3MHW492WW1ZOA6PYQHF58IME0QYMVT","A10HW8JXM17XLD","3HUR21WDDUBEMSLDIXZW1FAIHW8YX3","","null","<img src=""img/land4.png"" style=""width:200px;border:14px solid red;"">","null","","","","","","","","","",""
"","image-keyboard-response","14","51532","0.0-14.0","3MHW492WW1ZOA6PYQHF58IME0QYMVT","A10HW8JXM17XLD","3HUR21WDDUBEMSLDIXZW1FAIHW8YX3","","1375.5999999046326","img/land5.png","75","1377.7000002861023","2","1","3","2","0.8,0.2,0.2,0.2,0.8,0.2,0.2,0.2,0.8","0.2,0.2,0.8,0.8,0.2,0.2,0.2,0.8,0.2","2","",""
"","html-keyboard-response","15","51842","0.0-15.0","3MHW492WW1ZOA6PYQHF58IME0QYMVT","A10HW8JXM17XLD","3HUR21WDDUBEMSLDIXZW1FAIHW8YX3","","null","<img src=""img/land5.png"" style=""width:200px; border:14px solid green;"">","null","","","","","","","","","",""
"","image-keyboard-response","16","52933","0.0-16.0","3MHW492WW1ZOA6PYQHF58IME0QYMVT","A10HW8JXM17XLD","3HUR21WDDUBEMSLDIXZW1FAIHW8YX3","","1088.2999997138977","img/land1.png","74","1090.5999999046326","1","0","1","2","0.8,0.2,0.2,0.2,0.8,0.2,0.2,0.2,0.8","0.2,0.2,0.8,0.8,0.2,0.2,0.2,0.8,0.2","2","",""
"","html-keyboard-response","17","53242","0.0-17.0","3MHW492WW1ZOA6PYQHF58IME0QYMVT","A10HW8JXM17XLD","3HUR21WDDUBEMSLDIXZW1FAIHW8YX3","","null","<img src=""img/land1.png"" style=""width:200px;border:14px solid red;"">","null","","","","","","","","","",""
"","image-keyboard-response","18","53828","0.0-18.0","3MHW492WW1ZOA6PYQHF58IME0QYMVT","A10HW8JXM17XLD","3HUR21WDDUBEMSLDIXZW1FAIHW8YX3","","583.5","img/land1.png","76","585.5","3","1","1","2","0.8,0.2,0.2,0.2,0.8,0.2,0.2,0.2,0.8","0.2,0.2,0.8,0.8,0.2,0.2,0.2,0.8,0.2","2","",""
"","html-keyboard-response","19","54137","0.0-19.0","3MHW492WW1ZOA6PYQHF58IME0QYMVT","A10HW8JXM17XLD","3HUR21WDDUBEMSLDIXZW1FAIHW8YX3","","null","<img src=""img/land1.png"" style=""width:200px; border:14px solid green;"">","null","","","","","","","","","",""
"","image-keyboard-response","20","54812","0.0-20.0","3MHW492WW1ZOA6PYQHF58IME0QYMVT","A10HW8JXM17XLD","3HUR21WDDUBEMSLDIXZW1FAIHW8YX3","","672.2000002861023","img/land1.png","76","674.2999997138977","3","1","1","2","0.8,0.2,0.2,0.2,0.8,0.2,0.2,0.2,0.8","0.2,0.2,0.8,0.8,0.2,0.2,0.2,0.8,0.2","2","",""
"","html-keyboard-response","21","55122","0.0-21.0","3MHW492WW1ZOA6PYQHF58IME0QYMVT","A10HW8JXM17XLD","3HUR21WDDUBEMSLDIXZW1FAIHW8YX3","","null","<img src=""img/land1.png"" style=""width:200px; border:14px solid green;"">","null","","","","","","","","","",""
"","image-keyboard-response","22","56308","0.0-22.0","3MHW492WW1ZOA6PYQHF58IME0QYMVT","A10HW8JXM17XLD","3HUR21WDDUBEMSLDIXZW1FAIHW8YX3","","1183.3999996185303","img/land5.png","75","1185.4000000953674","2","1","3","2","0.8,0.2,0.2,0.2,0.8,0.2,0.2,0.2,0.8","0.2,0.2,0.8,0.8,0.2,0.2,0.2,0.8,0.2","2","",""
"","html-keyboard-response","23","56618","0.0-23.0","3MHW492WW1ZOA6PYQHF58IME0QYMVT","A10HW8JXM17XLD","3HUR21WDDUBEMSLDIXZW1FAIHW8YX3","","null","<img src=""img/land5.png"" style=""width:200px; border:14px solid green;"">","null","","","","","","","","","",""
"","image-keyboard-response","24","57380","0.0-24.0","3MHW492WW1ZOA6PYQHF58IME0QYMVT","A10HW8JXM17XLD","3HUR21WDDUBEMSLDIXZW1FAIHW8YX3","","760","img/land1.png","76","761.9000000953674","3","1","1","2","0.8,0.2,0.2,0.2,0.8,0.2,0.2,0.2,0.8","0.2,0.2,0.8,0.8,0.2,0.2,0.2,0.8,0.2","2","",""
"","html-keyboard-response","25","57690","0.0-25.0","3MHW492WW1ZOA6PYQHF58IME0QYMVT","A10HW8JXM17XLD","3HUR21WDDUBEMSLDIXZW1FAIHW8YX3","","null","<img src=""img/land1.png"" style=""width:200px; border:14px solid green;"">","null","","","","","","","","","",""
"","image-keyboard-response","26","58292","0.0-26.0","3MHW492WW1ZOA6PYQHF58IME0QYMVT","A10HW8JXM17XLD","3HUR21WDDUBEMSLDIXZW1FAIHW8YX3","","599.0999999046326","img/land1.png","76","600.9000000953674","3","1","1","2","0.8,0.2,0.2,0.2,0.8,0.2,0.2,0.2,0.8","0.2,0.2,0.8,0.8,0.2,0.2,0.2,0.8,0.2","2","",""
"","html-keyboard-response","27","58602","0.0-27.0","3MHW492WW1ZOA6PYQHF58IME0QYMVT","A10HW8JXM17XLD","3HUR21WDDUBEMSLDIXZW1FAIHW8YX3","","null","<img src=""img/land1.png"" style=""width:200px; border:14px solid green;"">","null","","","","","","","","","",""
"","image-keyboard-response","28","59228","0.0-28.0","3MHW492WW1ZOA6PYQHF58IME0QYMVT","A10HW8JXM17XLD","3HUR21WDDUBEMSLDIXZW1FAIHW8YX3","","623.5999999046326","img/land1.png","76","625.5999999046326","3","1","1","2","0.8,0.2,0.2,0.2,0.8,0.2,0.2,0.2,0.8","0.2,0.2,0.8,0.8,0.2,0.2,0.2,0.8,0.2","2","",""
"","html-keyboard-response","29","59538","0.0-29.0","3MHW492WW1ZOA6PYQHF58IME0QYMVT","A10HW8JXM17XLD","3HUR21WDDUBEMSLDIXZW1FAIHW8YX3","","null","<img src=""img/land1.png"" style=""width:200px; border:14px solid green;"">","null","","","","","","","","","",""
"","image-keyboard-response","30","60180","0.0-30.0","3MHW492WW1ZOA6PYQHF58IME0QYMVT","A10HW8JXM17XLD","3HUR21WDDUBEMSLDIXZW1FAIHW8YX3","","639.4000000953674","img/land5.png","75","641.8000001907349","2","1","3","2","0.8,0.2,0.2,0.2,0.8,0.2,0.2,0.2,0.8","0.2,0.2,0.8,0.8,0.2,0.2,0.2,0.8,0.2","2","",""
"","html-keyboard-response","31","60490","0.0-31.0","3MHW492WW1ZOA6PYQHF58IME0QYMVT","A10HW8JXM17XLD","3HUR21WDDUBEMSLDIXZW1FAIHW8YX3","","null","<img src=""img/land5.png"" style=""width:200px; border:14px solid green;"">","null","","","","","","","","","",""
"","image-keyboard-response","32","61107","0.0-32.0","3MHW492WW1ZOA6PYQHF58IME0QYMVT","A10HW8JXM17XLD","3HUR21WDDUBEMSLDIXZW1FAIHW8YX3","","615.5","img/land1.png","76","617.2000002861023","3","1","1","2","0.8,0.2,0.2,0.2,0.8,0.2,0.2,0.2,0.8","0.2,0.2,0.8,0.8,0.2,0.2,0.2,0.8,0.2","2","",""
"","html-keyboard-response","33","61410","0.0-33.0","3MHW492WW1ZOA6PYQHF58IME0QYMVT","A10HW8JXM17XLD","3HUR21WDDUBEMSLDIXZW1FAIHW8YX3","","null","<img src=""img/land1.png"" style=""width:200px; border:14px solid green;"">","null","","","","","","","","","",""
"","image-keyboard-response","34","62316","0.0-34.0","3MHW492WW1ZOA6PYQHF58IME0QYMVT","A10HW8JXM17XLD","3HUR21WDDUBEMSLDIXZW1FAIHW8YX3","","903.0999999046326","img/land4.png","74","905.4000000953674","1","1","2","2","0.8,0.2,0.2,0.2,0.8,0.2,0.2,0.2,0.8","0.2,0.2,0.8,0.8,0.2,0.2,0.2,0.8,0.2","2","",""
"","html-keyboard-response","35","62625","0.0-35.0","3MHW492WW1ZOA6PYQHF58IME0QYMVT","A10HW8JXM17XLD","3HUR21WDDUBEMSLDIXZW1FAIHW8YX3","","null","<img src=""img/land4.png"" style=""width:200px; border:14px solid green;"">","null","","","","","","","","","",""
"","image-keyboard-response","36","63124","0.0-36.0","3MHW492WW1ZOA6PYQHF58IME0QYMVT","A10HW8JXM17XLD","3HUR21WDDUBEMSLDIXZW1FAIHW8YX3","","496.59999990463257","img/land4.png","74","498.5","1","1","2","2","0.8,0.2,0.2,0.2,0.8,0.2,0.2,0.2,0.8","0.2,0.2,0.8,0.8,0.2,0.2,0.2,0.8,0.2","2","",""
"","html-keyboard-response","37","63426","0.0-37.0","3MHW492WW1ZOA6PYQHF58IME0QYMVT","A10HW8JXM17XLD","3HUR21WDDUBEMSLDIXZW1FAIHW8YX3","","null","<img src=""img/land4.png"" style=""width:200px; border:14px solid green;"">","null","","","","","","","","","",""
"","image-keyboard-response","38","64092","0.0-38.0","3MHW492WW1ZOA6PYQHF58IME0QYMVT","A10HW8JXM17XLD","3HUR21WDDUBEMSLDIXZW1FAIHW8YX3","","662.7999997138977","img/land4.png","74","665","1","1","2","2","0.8,0.2,0.2,0.2,0.8,0.2,0.2,0.2,0.8","0.2,0.2,0.8,0.8,0.2,0.2,0.2,0.8,0.2","2","",""
"","html-keyboard-response","39","64401","0.0-39.0","3MHW492WW1ZOA6PYQHF58IME0QYMVT","A10HW8JXM17XLD","3HUR21WDDUBEMSLDIXZW1FAIHW8YX3","","null","<img src=""img/land4.png"" style=""width:200px; border:14px solid green;"">","null","","","","","","","","","",""
"","image-keyboard-response","40","65300","0.0-40.0","3MHW492WW1ZOA6PYQHF58IME0QYMVT","A10HW8JXM17XLD","3HUR21WDDUBEMSLDIXZW1FAIHW8YX3","","895.8999996185303","img/land1.png","76","898","3","1","1","2","0.8,0.2,0.2,0.2,0.8,0.2,0.2,0.2,0.8","0.2,0.2,0.8,0.8,0.2,0.2,0.2,0.8,0.2","2","",""
"","html-keyboard-response","41","65609","0.0-41.0","3MHW492WW1ZOA6PYQHF58IME0QYMVT","A10HW8JXM17XLD","3HUR21WDDUBEMSLDIXZW1FAIHW8YX3","","null","<img src=""img/land1.png"" style=""width:200px; border:14px solid green;"">","null","","","","","","","","","",""
"","image-keyboard-response","42","66076","0.0-42.0","3MHW492WW1ZOA6PYQHF58IME0QYMVT","A10HW8JXM17XLD","3HUR21WDDUBEMSLDIXZW1FAIHW8YX3","","464.19999980926514","img/land1.png","76","465.80000019073486","3","1","1","2","0.8,0.2,0.2,0.2,0.8,0.2,0.2,0.2,0.8","0.2,0.2,0.8,0.8,0.2,0.2,0.2,0.8,0.2","2","",""
"","html-keyboard-response","43","66385","0.0-43.0","3MHW492WW1ZOA6PYQHF58IME0QYMVT","A10HW8JXM17XLD","3HUR21WDDUBEMSLDIXZW1FAIHW8YX3","","null","<img src=""img/land1.png"" style=""width:200px; border:14px solid green;"">","null","","","","","","","","","",""
"","image-keyboard-response","44","66900","0.0-44.0","3MHW492WW1ZOA6PYQHF58IME0QYMVT","A10HW8JXM17XLD","3HUR21WDDUBEMSLDIXZW1FAIHW8YX3","","512","img/land1.png","76","514.0999999046326","3","1","1","2","0.8,0.2,0.2,0.2,0.8,0.2,0.2,0.2,0.8","0.2,0.2,0.8,0.8,0.2,0.2,0.2,0.8,0.2","2","",""
"","html-keyboard-response","45","67210","0.0-45.0","3MHW492WW1ZOA6PYQHF58IME0QYMVT","A10HW8JXM17XLD","3HUR21WDDUBEMSLDIXZW1FAIHW8YX3","","null","<img src=""img/land1.png"" style=""width:200px; border:14px solid green;"">","null","","","","","","","","","",""
"","image-keyboard-response","46","67876","0.0-46.0","3MHW492WW1ZOA6PYQHF58IME0QYMVT","A10HW8JXM17XLD","3HUR21WDDUBEMSLDIXZW1FAIHW8YX3","","663.5","img/land5.png","75","665.5999999046326","2","0","3","2","0.8,0.2,0.2,0.2,0.8,0.2,0.2,0.2,0.8","0.2,0.2,0.8,0.8,0.2,0.2,0.2,0.8,0.2","2","",""
"","html-keyboard-response","47","68185","0.0-47.0","3MHW492WW1ZOA6PYQHF58IME0QYMVT","A10HW8JXM17XLD","3HUR21WDDUBEMSLDIXZW1FAIHW8YX3","","null","<img src=""img/land5.png"" style=""width:200px;border:14px solid red;"">","null","","","","","","","","","",""
"","image-keyboard-response","48","69788","0.0-48.0","3MHW492WW1ZOA6PYQHF58IME0QYMVT","A10HW8JXM17XLD","3HUR21WDDUBEMSLDIXZW1FAIHW8YX3","","1599.3000001907349","img/land4.png","74","1601.8000001907349","1","0","2","2","0.8,0.2,0.2,0.2,0.8,0.2,0.2,0.2,0.8","0.2,0.2,0.8,0.8,0.2,0.2,0.2,0.8,0.2","2","",""
"","html-keyboard-response","49","70098","0.0-49.0","3MHW492WW1ZOA6PYQHF58IME0QYMVT","A10HW8JXM17XLD","3HUR21WDDUBEMSLDIXZW1FAIHW8YX3","","null","<img src=""img/land4.png"" style=""width:200px;border:14px solid red;"">","null","","","","","","","","","",""
"","image-keyboard-response","50","71060","0.0-50.0","3MHW492WW1ZOA6PYQHF58IME0QYMVT","A10HW8JXM17XLD","3HUR21WDDUBEMSLDIXZW1FAIHW8YX3","","959.2999997138977","img/land1.png","76","961.4000000953674","3","1","1","2","0.8,0.2,0.2,0.2,0.8,0.2,0.2,0.2,0.8","0.2,0.2,0.8,0.8,0.2,0.2,0.2,0.8,0.2","2","",""
"","html-keyboard-response","51","71370","0.0-51.0","3MHW492WW1ZOA6PYQHF58IME0QYMVT","A10HW8JXM17XLD","3HUR21WDDUBEMSLDIXZW1FAIHW8YX3","","null","<img src=""img/land1.png"" style=""width:200px; border:14px solid green;"">","null","","","","","","","","","",""
"","image-keyboard-response","52","71795","0.0-52.0","3MHW492WW1ZOA6PYQHF58IME0QYMVT","A10HW8JXM17XLD","3HUR21WDDUBEMSLDIXZW1FAIHW8YX3","","423","img/land1.png","76","424.7999997138977","3","1","1","2","0.8,0.2,0.2,0.2,0.8,0.2,0.2,0.2,0.8","0.2,0.2,0.8,0.8,0.2,0.2,0.2,0.8,0.2","2","",""
"","html-keyboard-response","53","72106","0.0-53.0","3MHW492WW1ZOA6PYQHF58IME0QYMVT","A10HW8JXM17XLD","3HUR21WDDUBEMSLDIXZW1FAIHW8YX3","","null","<img src=""img/land1.png"" style=""width:200px; border:14px solid green;"">","null","","","","","","","","","",""
"","image-keyboard-response","54","72540","0.0-54.0","3MHW492WW1ZOA6PYQHF58IME0QYMVT","A10HW8JXM17XLD","3HUR21WDDUBEMSLDIXZW1FAIHW8YX3","","431.3999996185303","img/land1.png","76","433.59999990463257","3","1","1","2","0.8,0.2,0.2,0.2,0.8,0.2,0.2,0.2,0.8","0.2,0.2,0.8,0.8,0.2,0.2,0.2,0.8,0.2","2","",""
"","html-keyboard-response","55","72849","0.0-55.0","3MHW492WW1ZOA6PYQHF58IME0QYMVT","A10HW8JXM17XLD","3HUR21WDDUBEMSLDIXZW1FAIHW8YX3","","null","<img src=""img/land1.png"" style=""width:200px; border:14px solid green;"">","null","","","","","","","","","",""
"","image-keyboard-response","56","74197","0.0-56.0","3MHW492WW1ZOA6PYQHF58IME0QYMVT","A10HW8JXM17XLD","3HUR21WDDUBEMSLDIXZW1FAIHW8YX3","","1344.6999998092651","img/land4.png","75","1347.2000002861023","2","1","2","2","0.8,0.2,0.2,0.2,0.8,0.2,0.2,0.2,0.8","0.2,0.2,0.8,0.8,0.2,0.2,0.2,0.8,0.2","2","",""
"","html-keyboard-response","57","74506","0.0-57.0","3MHW492WW1ZOA6PYQHF58IME0QYMVT","A10HW8JXM17XLD","3HUR21WDDUBEMSLDIXZW1FAIHW8YX3","","null","<img src=""img/land4.png"" style=""width:200px; border:14px solid green;"">","null","","","","","","","","","",""
"","image-keyboard-response","58","75236","0.0-58.0","3MHW492WW1ZOA6PYQHF58IME0QYMVT","A10HW8JXM17XLD","3HUR21WDDUBEMSLDIXZW1FAIHW8YX3","","727.5","img/land1.png","76","729.4000000953674","3","1","1","2","0.8,0.2,0.2,0.2,0.8,0.2,0.2,0.2,0.8","0.2,0.2,0.8,0.8,0.2,0.2,0.2,0.8,0.2","2","",""
"","html-keyboard-response","59","75546","0.0-59.0","3MHW492WW1ZOA6PYQHF58IME0QYMVT","A10HW8JXM17XLD","3HUR21WDDUBEMSLDIXZW1FAIHW8YX3","","null","<img src=""img/land1.png"" style=""width:200px; border:14px solid green;"">","null","","","","","","","","","",""
"","image-keyboard-response","60","76148","0.0-60.0","3MHW492WW1ZOA6PYQHF58IME0QYMVT","A10HW8JXM17XLD","3HUR21WDDUBEMSLDIXZW1FAIHW8YX3","","599.6999998092651","img/land4.png","75","601.6000003814697","2","0","2","2","0.8,0.2,0.2,0.2,0.8,0.2,0.2,0.2,0.8","0.2,0.2,0.8,0.8,0.2,0.2,0.2,0.8,0.2","2","",""
"","html-keyboard-response","61","76458","0.0-61.0","3MHW492WW1ZOA6PYQHF58IME0QYMVT","A10HW8JXM17XLD","3HUR21WDDUBEMSLDIXZW1FAIHW8YX3","","null","<img src=""img/land4.png"" style=""width:200px;border:14px solid red;"">","null","","","","","","","","","",""
"","image-keyboard-response","62","77196","0.0-62.0","3MHW492WW1ZOA6PYQHF58IME0QYMVT","A10HW8JXM17XLD","3HUR21WDDUBEMSLDIXZW1FAIHW8YX3","","734.9000000953674","img/land1.png","76","737","3","1","1","2","0.8,0.2,0.2,0.2,0.8,0.2,0.2,0.2,0.8","0.2,0.2,0.8,0.8,0.2,0.2,0.2,0.8,0.2","2","",""
"","html-keyboard-response","63","77506","0.0-63.0","3MHW492WW1ZOA6PYQHF58IME0QYMVT","A10HW8JXM17XLD","3HUR21WDDUBEMSLDIXZW1FAIHW8YX3","","null","<img src=""img/land1.png"" style=""width:200px; border:14px solid green;"">","null","","","","","","","","","",""
"","image-keyboard-response","64","78100","0.0-64.0","3MHW492WW1ZOA6PYQHF58IME0QYMVT","A10HW8JXM17XLD","3HUR21WDDUBEMSLDIXZW1FAIHW8YX3","","591.1999998092651","img/land1.png","76","593.1999998092651","3","1","1","2","0.8,0.2,0.2,0.2,0.8,0.2,0.2,0.2,0.8","0.2,0.2,0.8,0.8,0.2,0.2,0.2,0.8,0.2","2","",""
"","html-keyboard-response","65","78409","0.0-65.0","3MHW492WW1ZOA6PYQHF58IME0QYMVT","A10HW8JXM17XLD","3HUR21WDDUBEMSLDIXZW1FAIHW8YX3","","null","<img src=""img/land1.png"" style=""width:200px; border:14px solid green;"">","null","","","","","","","","","",""
"","image-keyboard-response","66","78916","0.0-66.0","3MHW492WW1ZOA6PYQHF58IME0QYMVT","A10HW8JXM17XLD","3HUR21WDDUBEMSLDIXZW1FAIHW8YX3","","504.90000009536743","img/land1.png","76","506.5","3","1","1","2","0.8,0.2,0.2,0.2,0.8,0.2,0.2,0.2,0.8","0.2,0.2,0.8,0.8,0.2,0.2,0.2,0.8,0.2","2","",""
"","html-keyboard-response","67","79225","0.0-67.0","3MHW492WW1ZOA6PYQHF58IME0QYMVT","A10HW8JXM17XLD","3HUR21WDDUBEMSLDIXZW1FAIHW8YX3","","null","<img src=""img/land1.png"" style=""width:200px; border:14px solid green;"">","null","","","","","","","","","",""
"","image-keyboard-response","68","79884","0.0-68.0","3MHW492WW1ZOA6PYQHF58IME0QYMVT","A10HW8JXM17XLD","3HUR21WDDUBEMSLDIXZW1FAIHW8YX3","","655.6999998092651","img/land1.png","76","657.5999999046326","3","1","1","2","0.8,0.2,0.2,0.2,0.8,0.2,0.2,0.2,0.8","0.2,0.2,0.8,0.8,0.2,0.2,0.2,0.8,0.2","2","",""
"","html-keyboard-response","69","80193","0.0-69.0","3MHW492WW1ZOA6PYQHF58IME0QYMVT","A10HW8JXM17XLD","3HUR21WDDUBEMSLDIXZW1FAIHW8YX3","","null","<img src=""img/land1.png"" style=""width:200px; border:14px solid green;"">","null","","","","","","","","","",""
"","image-keyboard-response","70","80860","0.0-70.0","3MHW492WW1ZOA6PYQHF58IME0QYMVT","A10HW8JXM17XLD","3HUR21WDDUBEMSLDIXZW1FAIHW8YX3","","663.7999997138977","img/land4.png","75","665.9000000953674","2","0","2","2","0.8,0.2,0.2,0.2,0.8,0.2,0.2,0.2,0.8","0.2,0.2,0.8,0.8,0.2,0.2,0.2,0.8,0.2","2","",""
"","html-keyboard-response","71","81170","0.0-71.0","3MHW492WW1ZOA6PYQHF58IME0QYMVT","A10HW8JXM17XLD","3HUR21WDDUBEMSLDIXZW1FAIHW8YX3","","null","<img src=""img/land4.png"" style=""width:200px;border:14px solid red;"">","null","","","","","","","","","",""
"","image-keyboard-response","72","81852","0.0-72.0","3MHW492WW1ZOA6PYQHF58IME0QYMVT","A10HW8JXM17XLD","3HUR21WDDUBEMSLDIXZW1FAIHW8YX3","","679.2999997138977","img/land1.png","76","681.1999998092651","3","1","1","2","0.8,0.2,0.2,0.2,0.8,0.2,0.2,0.2,0.8","0.2,0.2,0.8,0.8,0.2,0.2,0.2,0.8,0.2","2","",""
"","html-keyboard-response","73","82162","0.0-73.0","3MHW492WW1ZOA6PYQHF58IME0QYMVT","A10HW8JXM17XLD","3HUR21WDDUBEMSLDIXZW1FAIHW8YX3","","null","<img src=""img/land1.png"" style=""width:200px; border:14px solid green;"">","null","","","","","","","","","",""
"","image-keyboard-response","74","83012","0.0-74.0","3MHW492WW1ZOA6PYQHF58IME0QYMVT","A10HW8JXM17XLD","3HUR21WDDUBEMSLDIXZW1FAIHW8YX3","","846.6999998092651","img/land5.png","75","849.0999999046326","2","1","3","2","0.8,0.2,0.2,0.2,0.8,0.2,0.2,0.2,0.8","0.2,0.2,0.8,0.8,0.2,0.2,0.2,0.8,0.2","2","",""
"","html-keyboard-response","75","83322","0.0-75.0","3MHW492WW1ZOA6PYQHF58IME0QYMVT","A10HW8JXM17XLD","3HUR21WDDUBEMSLDIXZW1FAIHW8YX3","","null","<img src=""img/land5.png"" style=""width:200px; border:14px solid green;"">","null","","","","","","","","","",""
"","image-keyboard-response","76","84020","0.0-76.0","3MHW492WW1ZOA6PYQHF58IME0QYMVT","A10HW8JXM17XLD","3HUR21WDDUBEMSLDIXZW1FAIHW8YX3","","695.1999998092651","img/land1.png","76","697.0999999046326","3","1","1","2","0.8,0.2,0.2,0.2,0.8,0.2,0.2,0.2,0.8","0.2,0.2,0.8,0.8,0.2,0.2,0.2,0.8,0.2","2","",""
"","html-keyboard-response","77","84330","0.0-77.0","3MHW492WW1ZOA6PYQHF58IME0QYMVT","A10HW8JXM17XLD","3HUR21WDDUBEMSLDIXZW1FAIHW8YX3","","null","<img src=""img/land1.png"" style=""width:200px; border:14px solid green;"">","null","","","","","","","","","",""
"","image-keyboard-response","78","85084","0.0-78.0","3MHW492WW1ZOA6PYQHF58IME0QYMVT","A10HW8JXM17XLD","3HUR21WDDUBEMSLDIXZW1FAIHW8YX3","","752.0999999046326","img/land5.png","75","753.9000000953674","2","1","3","2","0.8,0.2,0.2,0.2,0.8,0.2,0.2,0.2,0.8","0.2,0.2,0.8,0.8,0.2,0.2,0.2,0.8,0.2","2","",""
"","html-keyboard-response","79","85394","0.0-79.0","3MHW492WW1ZOA6PYQHF58IME0QYMVT","A10HW8JXM17XLD","3HUR21WDDUBEMSLDIXZW1FAIHW8YX3","","null","<img src=""img/land5.png"" style=""width:200px; border:14px solid green;"">","null","","","","","","","","","",""
"","image-keyboard-response","80","86012","0.0-80.0","3MHW492WW1ZOA6PYQHF58IME0QYMVT","A10HW8JXM17XLD","3HUR21WDDUBEMSLDIXZW1FAIHW8YX3","","615.2000002861023","img/land1.png","76","617.5999999046326","3","0","1","2","0.8,0.2,0.2,0.2,0.8,0.2,0.2,0.2,0.8","0.2,0.2,0.8,0.8,0.2,0.2,0.2,0.8,0.2","2","",""
"","html-keyboard-response","81","86322","0.0-81.0","3MHW492WW1ZOA6PYQHF58IME0QYMVT","A10HW8JXM17XLD","3HUR21WDDUBEMSLDIXZW1FAIHW8YX3","","null","<img src=""img/land1.png"" style=""width:200px;border:14px solid red;"">","null","","","","","","","","","",""
"","image-keyboard-response","82","86964","0.0-82.0","3MHW492WW1ZOA6PYQHF58IME0QYMVT","A10HW8JXM17XLD","3HUR21WDDUBEMSLDIXZW1FAIHW8YX3","","639.5999999046326","img/land1.png","76","641.5","3","1","1","2","0.8,0.2,0.2,0.2,0.8,0.2,0.2,0.2,0.8","0.2,0.2,0.8,0.8,0.2,0.2,0.2,0.8,0.2","2","",""
"","html-keyboard-response","83","87274","0.0-83.0","3MHW492WW1ZOA6PYQHF58IME0QYMVT","A10HW8JXM17XLD","3HUR21WDDUBEMSLDIXZW1FAIHW8YX3","","null","<img src=""img/land1.png"" style=""width:200px; border:14px solid green;"">","null","","","","","","","","","",""
"","image-keyboard-response","84","88227","0.0-84.0","3MHW492WW1ZOA6PYQHF58IME0QYMVT","A10HW8JXM17XLD","3HUR21WDDUBEMSLDIXZW1FAIHW8YX3","","951.1999998092651","img/land4.png","74","953","1","1","2","2","0.8,0.2,0.2,0.2,0.8,0.2,0.2,0.2,0.8","0.2,0.2,0.8,0.8,0.2,0.2,0.2,0.8,0.2","2","",""
"","html-keyboard-response","85","88539","0.0-85.0","3MHW492WW1ZOA6PYQHF58IME0QYMVT","A10HW8JXM17XLD","3HUR21WDDUBEMSLDIXZW1FAIHW8YX3","","null","<img src=""img/land4.png"" style=""width:200px; border:14px solid green;"">","null","","","","","","","","","",""
"","image-keyboard-response","86","89428","0.0-86.0","3MHW492WW1ZOA6PYQHF58IME0QYMVT","A10HW8JXM17XLD","3HUR21WDDUBEMSLDIXZW1FAIHW8YX3","","886.0999999046326","img/land1.png","76","888.4000000953674","3","1","1","2","0.8,0.2,0.2,0.2,0.8,0.2,0.2,0.2,0.8","0.2,0.2,0.8,0.8,0.2,0.2,0.2,0.8,0.2","2","",""
"","html-keyboard-response","87","89737","0.0-87.0","3MHW492WW1ZOA6PYQHF58IME0QYMVT","A10HW8JXM17XLD","3HUR21WDDUBEMSLDIXZW1FAIHW8YX3","","null","<img src=""img/land1.png"" style=""width:200px; border:14px solid green;"">","null","","","","","","","","","",""
"","image-keyboard-response","88","90452","0.0-88.0","3MHW492WW1ZOA6PYQHF58IME0QYMVT","A10HW8JXM17XLD","3HUR21WDDUBEMSLDIXZW1FAIHW8YX3","","711.6999998092651","img/land4.png","74","713.6999998092651","1","1","2","2","0.8,0.2,0.2,0.2,0.8,0.2,0.2,0.2,0.8","0.2,0.2,0.8,0.8,0.2,0.2,0.2,0.8,0.2","2","",""
"","html-keyboard-response","89","90762","0.0-89.0","3MHW492WW1ZOA6PYQHF58IME0QYMVT","A10HW8JXM17XLD","3HUR21WDDUBEMSLDIXZW1FAIHW8YX3","","null","<img src=""img/land4.png"" style=""width:200px; border:14px solid green;"">","null","","","","","","","","","",""
"","image-keyboard-response","90","91468","0.0-90.0","3MHW492WW1ZOA6PYQHF58IME0QYMVT","A10HW8JXM17XLD","3HUR21WDDUBEMSLDIXZW1FAIHW8YX3","","703","img/land5.png","75","705.0999999046326","2","1","3","2","0.8,0.2,0.2,0.2,0.8,0.2,0.2,0.2,0.8","0.2,0.2,0.8,0.8,0.2,0.2,0.2,0.8,0.2","2","",""
"","html-keyboard-response","91","91778","0.0-91.0","3MHW492WW1ZOA6PYQHF58IME0QYMVT","A10HW8JXM17XLD","3HUR21WDDUBEMSLDIXZW1FAIHW8YX3","","null","<img src=""img/land5.png"" style=""width:200px; border:14px solid green;"">","null","","","","","","","","","",""
"","image-keyboard-response","92","92868","0.0-92.0","3MHW492WW1ZOA6PYQHF58IME0QYMVT","A10HW8JXM17XLD","3HUR21WDDUBEMSLDIXZW1FAIHW8YX3","","1086.9000000953674","img/land4.png","74","1088.7999997138977","1","1","2","2","0.8,0.2,0.2,0.2,0.8,0.2,0.2,0.2,0.8","0.2,0.2,0.8,0.8,0.2,0.2,0.2,0.8,0.2","2","",""
"","html-keyboard-response","93","93178","0.0-93.0","3MHW492WW1ZOA6PYQHF58IME0QYMVT","A10HW8JXM17XLD","3HUR21WDDUBEMSLDIXZW1FAIHW8YX3","","null","<img src=""img/land4.png"" style=""width:200px; border:14px solid green;"">","null","","","","","","","","","",""
"","image-keyboard-response","94","93732","0.0-94.0","3MHW492WW1ZOA6PYQHF58IME0QYMVT","A10HW8JXM17XLD","3HUR21WDDUBEMSLDIXZW1FAIHW8YX3","","551.1999998092651","img/land4.png","74","553.0999999046326","1","0","2","2","0.8,0.2,0.2,0.2,0.8,0.2,0.2,0.2,0.8","0.2,0.2,0.8,0.8,0.2,0.2,0.2,0.8,0.2","2","",""
"","html-keyboard-response","95","94042","0.0-95.0","3MHW492WW1ZOA6PYQHF58IME0QYMVT","A10HW8JXM17XLD","3HUR21WDDUBEMSLDIXZW1FAIHW8YX3","","null","<img src=""img/land4.png"" style=""width:200px;border:14px solid red;"">","null","","","","","","","","","",""
"","image-keyboard-response","96","94700","0.0-96.0","3MHW492WW1ZOA6PYQHF58IME0QYMVT","A10HW8JXM17XLD","3HUR21WDDUBEMSLDIXZW1FAIHW8YX3","","655.3000001907349","img/land4.png","74","657.4000000953674","1","1","2","2","0.8,0.2,0.2,0.2,0.8,0.2,0.2,0.2,0.8","0.2,0.2,0.8,0.8,0.2,0.2,0.2,0.8,0.2","2","",""
"","html-keyboard-response","97","95010","0.0-97.0","3MHW492WW1ZOA6PYQHF58IME0QYMVT","A10HW8JXM17XLD","3HUR21WDDUBEMSLDIXZW1FAIHW8YX3","","null","<img src=""img/land4.png"" style=""width:200px; border:14px solid green;"">","null","","","","","","","","","",""
"","image-keyboard-response","98","95852","0.0-98.0","3MHW492WW1ZOA6PYQHF58IME0QYMVT","A10HW8JXM17XLD","3HUR21WDDUBEMSLDIXZW1FAIHW8YX3","","839.5999999046326","img/land1.png","76","841.6999998092651","3","1","1","2","0.8,0.2,0.2,0.2,0.8,0.2,0.2,0.2,0.8","0.2,0.2,0.8,0.8,0.2,0.2,0.2,0.8,0.2","2","",""
"","html-keyboard-response","99","96161","0.0-99.0","3MHW492WW1ZOA6PYQHF58IME0QYMVT","A10HW8JXM17XLD","3HUR21WDDUBEMSLDIXZW1FAIHW8YX3","","null","<img src=""img/land1.png"" style=""width:200px; border:14px solid green;"">","null","","","","","","","","","",""
"","image-keyboard-response","100","96652","0.0-100.0","3MHW492WW1ZOA6PYQHF58IME0QYMVT","A10HW8JXM17XLD","3HUR21WDDUBEMSLDIXZW1FAIHW8YX3","","486.59999990463257","img/land1.png","76","489.2999997138977","3","0","1","2","0.8,0.2,0.2,0.2,0.8,0.2,0.2,0.2,0.8","0.2,0.2,0.8,0.8,0.2,0.2,0.2,0.8,0.2","2","",""
"","html-keyboard-response","101","96962","0.0-101.0","3MHW492WW1ZOA6PYQHF58IME0QYMVT","A10HW8JXM17XLD","3HUR21WDDUBEMSLDIXZW1FAIHW8YX3","","null","<img src=""img/land1.png"" style=""width:200px;border:14px solid red;"">","null","","","","","","","","","",""
"","image-keyboard-response","102","97556","0.0-102.0","3MHW492WW1ZOA6PYQHF58IME0QYMVT","A10HW8JXM17XLD","3HUR21WDDUBEMSLDIXZW1FAIHW8YX3","","591","img/land1.png","76","592.9000000953674","3","1","1","2","0.8,0.2,0.2,0.2,0.8,0.2,0.2,0.2,0.8","0.2,0.2,0.8,0.8,0.2,0.2,0.2,0.8,0.2","2","",""
"","html-keyboard-response","103","97865","0.0-103.0","3MHW492WW1ZOA6PYQHF58IME0QYMVT","A10HW8JXM17XLD","3HUR21WDDUBEMSLDIXZW1FAIHW8YX3","","null","<img src=""img/land1.png"" style=""width:200px; border:14px solid green;"">","null","","","","","","","","","",""
"","image-keyboard-response","104","98292","0.0-104.0","3MHW492WW1ZOA6PYQHF58IME0QYMVT","A10HW8JXM17XLD","3HUR21WDDUBEMSLDIXZW1FAIHW8YX3","","423.90000009536743","img/land1.png","76","425.8999996185303","3","1","1","2","0.8,0.2,0.2,0.2,0.8,0.2,0.2,0.2,0.8","0.2,0.2,0.8,0.8,0.2,0.2,0.2,0.8,0.2","2","",""
"","html-keyboard-response","105","98601","0.0-105.0","3MHW492WW1ZOA6PYQHF58IME0QYMVT","A10HW8JXM17XLD","3HUR21WDDUBEMSLDIXZW1FAIHW8YX3","","null","<img src=""img/land1.png"" style=""width:200px; border:14px solid green;"">","null","","","","","","","","","",""
"","image-keyboard-response","106","99772","0.0-106.0","3MHW492WW1ZOA6PYQHF58IME0QYMVT","A10HW8JXM17XLD","3HUR21WDDUBEMSLDIXZW1FAIHW8YX3","","1167.9000000953674","img/land4.png","74","1169.9000000953674","1","1","2","2","0.8,0.2,0.2,0.2,0.8,0.2,0.2,0.2,0.8","0.2,0.2,0.8,0.8,0.2,0.2,0.2,0.8,0.2","2","",""
"","html-keyboard-response","107","100081","0.0-107.0","3MHW492WW1ZOA6PYQHF58IME0QYMVT","A10HW8JXM17XLD","3HUR21WDDUBEMSLDIXZW1FAIHW8YX3","","null","<img src=""img/land4.png"" style=""width:200px; border:14px solid green;"">","null","","","","","","","","","",""
"","image-keyboard-response","108","100564","0.0-108.0","3MHW492WW1ZOA6PYQHF58IME0QYMVT","A10HW8JXM17XLD","3HUR21WDDUBEMSLDIXZW1FAIHW8YX3","","480.19999980926514","img/land4.png","74","482.1000003814697","1","1","2","2","0.8,0.2,0.2,0.2,0.8,0.2,0.2,0.2,0.8","0.2,0.2,0.8,0.8,0.2,0.2,0.2,0.8,0.2","2","",""
"","html-keyboard-response","109","100866","0.0-109.0","3MHW492WW1ZOA6PYQHF58IME0QYMVT","A10HW8JXM17XLD","3HUR21WDDUBEMSLDIXZW1FAIHW8YX3","","null","<img src=""img/land4.png"" style=""width:200px; border:14px solid green;"">","null","","","","","","","","","",""
"","image-keyboard-response","110","101435","0.0-110.0","3MHW492WW1ZOA6PYQHF58IME0QYMVT","A10HW8JXM17XLD","3HUR21WDDUBEMSLDIXZW1FAIHW8YX3","","566.4000000953674","img/land4.png","74","568.7999997138977","1","1","2","2","0.8,0.2,0.2,0.2,0.8,0.2,0.2,0.2,0.8","0.2,0.2,0.8,0.8,0.2,0.2,0.2,0.8,0.2","2","",""
"","html-keyboard-response","111","101746","0.0-111.0","3MHW492WW1ZOA6PYQHF58IME0QYMVT","A10HW8JXM17XLD","3HUR21WDDUBEMSLDIXZW1FAIHW8YX3","","null","<img src=""img/land4.png"" style=""width:200px; border:14px solid green;"">","null","","","","","","","","","",""
"","image-keyboard-response","112","102451","0.0-112.0","3MHW492WW1ZOA6PYQHF58IME0QYMVT","A10HW8JXM17XLD","3HUR21WDDUBEMSLDIXZW1FAIHW8YX3","","703.4000000953674","img/land1.png","76","705.4000000953674","3","1","1","2","0.8,0.2,0.2,0.2,0.8,0.2,0.2,0.2,0.8","0.2,0.2,0.8,0.8,0.2,0.2,0.2,0.8,0.2","2","",""
"","html-keyboard-response","113","102762","0.0-113.0","3MHW492WW1ZOA6PYQHF58IME0QYMVT","A10HW8JXM17XLD","3HUR21WDDUBEMSLDIXZW1FAIHW8YX3","","null","<img src=""img/land1.png"" style=""width:200px; border:14px solid green;"">","null","","","","","","","","","",""
"","image-keyboard-response","114","103635","0.0-114.0","3MHW492WW1ZOA6PYQHF58IME0QYMVT","A10HW8JXM17XLD","3HUR21WDDUBEMSLDIXZW1FAIHW8YX3","","870.9000000953674","img/land4.png","74","872.9000000953674","1","1","2","2","0.8,0.2,0.2,0.2,0.8,0.2,0.2,0.2,0.8","0.2,0.2,0.8,0.8,0.2,0.2,0.2,0.8,0.2","2","",""
"","html-keyboard-response","115","103945","0.0-115.0","3MHW492WW1ZOA6PYQHF58IME0QYMVT","A10HW8JXM17XLD","3HUR21WDDUBEMSLDIXZW1FAIHW8YX3","","null","<img src=""img/land4.png"" style=""width:200px; border:14px solid green;"">","null","","","","","","","","","",""
"","image-keyboard-response","116","104467","0.0-116.0","3MHW492WW1ZOA6PYQHF58IME0QYMVT","A10HW8JXM17XLD","3HUR21WDDUBEMSLDIXZW1FAIHW8YX3","","519.1999998092651","img/land1.png","76","520.8000001907349","3","1","1","2","0.8,0.2,0.2,0.2,0.8,0.2,0.2,0.2,0.8","0.2,0.2,0.8,0.8,0.2,0.2,0.2,0.8,0.2","2","",""
"","html-keyboard-response","117","104770","0.0-117.0","3MHW492WW1ZOA6PYQHF58IME0QYMVT","A10HW8JXM17XLD","3HUR21WDDUBEMSLDIXZW1FAIHW8YX3","","null","<img src=""img/land1.png"" style=""width:200px; border:14px solid green;"">","null","","","","","","","","","",""
"","image-keyboard-response","118","105316","0.0-118.0","3MHW492WW1ZOA6PYQHF58IME0QYMVT","A10HW8JXM17XLD","3HUR21WDDUBEMSLDIXZW1FAIHW8YX3","","543.3000001907349","img/land1.png","76","545.2999997138977","3","1","1","2","0.8,0.2,0.2,0.2,0.8,0.2,0.2,0.2,0.8","0.2,0.2,0.8,0.8,0.2,0.2,0.2,0.8,0.2","2","",""
"","html-keyboard-response","119","105625","0.0-119.0","3MHW492WW1ZOA6PYQHF58IME0QYMVT","A10HW8JXM17XLD","3HUR21WDDUBEMSLDIXZW1FAIHW8YX3","","null","<img src=""img/land1.png"" style=""width:200px; border:14px solid green;"">","null","","","","","","","","","",""
"","image-keyboard-response","120","106341","0.0-120.0","3MHW492WW1ZOA6PYQHF58IME0QYMVT","A10HW8JXM17XLD","3HUR21WDDUBEMSLDIXZW1FAIHW8YX3","","712.6999998092651","img/land5.png","75","714.6999998092651","2","1","3","2","0.8,0.2,0.2,0.2,0.8,0.2,0.2,0.2,0.8","0.2,0.2,0.8,0.8,0.2,0.2,0.2,0.8,0.2","2","",""
"","html-keyboard-response","121","106650","0.0-121.0","3MHW492WW1ZOA6PYQHF58IME0QYMVT","A10HW8JXM17XLD","3HUR21WDDUBEMSLDIXZW1FAIHW8YX3","","null","<img src=""img/land5.png"" style=""width:200px; border:14px solid green;"">","null","","","","","","","","","",""
"","image-keyboard-response","122","107547","0.0-122.0","3MHW492WW1ZOA6PYQHF58IME0QYMVT","A10HW8JXM17XLD","3HUR21WDDUBEMSLDIXZW1FAIHW8YX3","","896","img/land1.png","76","897.5","3","1","1","2","0.8,0.2,0.2,0.2,0.8,0.2,0.2,0.2,0.8","0.2,0.2,0.8,0.8,0.2,0.2,0.2,0.8,0.2","2","",""
"","html-keyboard-response","123","107859","0.0-123.0","3MHW492WW1ZOA6PYQHF58IME0QYMVT","A10HW8JXM17XLD","3HUR21WDDUBEMSLDIXZW1FAIHW8YX3","","null","<img src=""img/land1.png"" style=""width:200px; border:14px solid green;"">","null","","","","","","","","","",""
"","image-keyboard-response","124","108243","0.0-124.0","3MHW492WW1ZOA6PYQHF58IME0QYMVT","A10HW8JXM17XLD","3HUR21WDDUBEMSLDIXZW1FAIHW8YX3","","382.2000002861023","img/land1.png","76","384.5","3","1","1","2","0.8,0.2,0.2,0.2,0.8,0.2,0.2,0.2,0.8","0.2,0.2,0.8,0.8,0.2,0.2,0.2,0.8,0.2","2","",""
"","html-keyboard-response","125","108554","0.0-125.0","3MHW492WW1ZOA6PYQHF58IME0QYMVT","A10HW8JXM17XLD","3HUR21WDDUBEMSLDIXZW1FAIHW8YX3","","null","<img src=""img/land1.png"" style=""width:200px; border:14px solid green;"">","null","","","","","","","","","",""
"","image-keyboard-response","126","109315","0.0-126.0","3MHW492WW1ZOA6PYQHF58IME0QYMVT","A10HW8JXM17XLD","3HUR21WDDUBEMSLDIXZW1FAIHW8YX3","","758.6000003814697","img/land5.png","75","760.2999997138977","2","0","3","2","0.8,0.2,0.2,0.2,0.8,0.2,0.2,0.2,0.8","0.2,0.2,0.8,0.8,0.2,0.2,0.2,0.8,0.2","2","",""
"","html-keyboard-response","127","109618","0.0-127.0","3MHW492WW1ZOA6PYQHF58IME0QYMVT","A10HW8JXM17XLD","3HUR21WDDUBEMSLDIXZW1FAIHW8YX3","","null","<img src=""img/land5.png"" style=""width:200px;border:14px solid red;"">","null","","","","","","","","","",""
"","image-keyboard-response","128","110340","0.0-128.0","3MHW492WW1ZOA6PYQHF58IME0QYMVT","A10HW8JXM17XLD","3HUR21WDDUBEMSLDIXZW1FAIHW8YX3","","718.9000000953674","img/land1.png","76","721.1000003814697","3","1","1","2","0.8,0.2,0.2,0.2,0.8,0.2,0.2,0.2,0.8","0.2,0.2,0.8,0.8,0.2,0.2,0.2,0.8,0.2","2","",""
"","html-keyboard-response","129","110649","0.0-129.0","3MHW492WW1ZOA6PYQHF58IME0QYMVT","A10HW8JXM17XLD","3HUR21WDDUBEMSLDIXZW1FAIHW8YX3","","null","<img src=""img/land1.png"" style=""width:200px; border:14px solid green;"">","null","","","","","","","","","",""
"","image-keyboard-response","130","111147","0.0-130.0","3MHW492WW1ZOA6PYQHF58IME0QYMVT","A10HW8JXM17XLD","3HUR21WDDUBEMSLDIXZW1FAIHW8YX3","","496.59999990463257","img/land1.png","76","497.90000009536743","3","1","1","2","0.8,0.2,0.2,0.2,0.8,0.2,0.2,0.2,0.8","0.2,0.2,0.8,0.8,0.2,0.2,0.2,0.8,0.2","2","",""
"","html-keyboard-response","131","111450","0.0-131.0","3MHW492WW1ZOA6PYQHF58IME0QYMVT","A10HW8JXM17XLD","3HUR21WDDUBEMSLDIXZW1FAIHW8YX3","","null","<img src=""img/land1.png"" style=""width:200px; border:14px solid green;"">","null","","","","","","","","","",""
"","image-keyboard-response","132","112028","0.0-132.0","3MHW492WW1ZOA6PYQHF58IME0QYMVT","A10HW8JXM17XLD","3HUR21WDDUBEMSLDIXZW1FAIHW8YX3","","575.2999997138977","img/land5.png","75","577.3000001907349","2","1","3","2","0.8,0.2,0.2,0.2,0.8,0.2,0.2,0.2,0.8","0.2,0.2,0.8,0.8,0.2,0.2,0.2,0.8,0.2","2","",""
"","html-keyboard-response","133","112338","0.0-133.0","3MHW492WW1ZOA6PYQHF58IME0QYMVT","A10HW8JXM17XLD","3HUR21WDDUBEMSLDIXZW1FAIHW8YX3","","null","<img src=""img/land5.png"" style=""width:200px; border:14px solid green;"">","null","","","","","","","","","",""
"","image-keyboard-response","134","112923","0.0-134.0","3MHW492WW1ZOA6PYQHF58IME0QYMVT","A10HW8JXM17XLD","3HUR21WDDUBEMSLDIXZW1FAIHW8YX3","","583","img/land1.png","76","585.0999999046326","3","1","1","2","0.8,0.2,0.2,0.2,0.8,0.2,0.2,0.2,0.8","0.2,0.2,0.8,0.8,0.2,0.2,0.2,0.8,0.2","2","",""
"","html-keyboard-response","135","113234","0.0-135.0","3MHW492WW1ZOA6PYQHF58IME0QYMVT","A10HW8JXM17XLD","3HUR21WDDUBEMSLDIXZW1FAIHW8YX3","","null","<img src=""img/land1.png"" style=""width:200px; border:14px solid green;"">","null","","","","","","","","","",""
"","image-keyboard-response","136","113699","0.0-136.0","3MHW492WW1ZOA6PYQHF58IME0QYMVT","A10HW8JXM17XLD","3HUR21WDDUBEMSLDIXZW1FAIHW8YX3","","462.80000019073486","img/land1.png","76","464.7000002861023","3","1","1","2","0.8,0.2,0.2,0.2,0.8,0.2,0.2,0.2,0.8","0.2,0.2,0.8,0.8,0.2,0.2,0.2,0.8,0.2","2","",""
"","html-keyboard-response","137","114010","0.0-137.0","3MHW492WW1ZOA6PYQHF58IME0QYMVT","A10HW8JXM17XLD","3HUR21WDDUBEMSLDIXZW1FAIHW8YX3","","null","<img src=""img/land1.png"" style=""width:200px; border:14px solid green;"">","null","","","","","","","","","",""
"","image-keyboard-response","138","114659","0.0-138.0","3MHW492WW1ZOA6PYQHF58IME0QYMVT","A10HW8JXM17XLD","3HUR21WDDUBEMSLDIXZW1FAIHW8YX3","","647.4000000953674","img/land1.png","76","649.4000000953674","3","1","1","2","0.8,0.2,0.2,0.2,0.8,0.2,0.2,0.2,0.8","0.2,0.2,0.8,0.8,0.2,0.2,0.2,0.8,0.2","2","",""
"","html-keyboard-response","139","114970","0.0-139.0","3MHW492WW1ZOA6PYQHF58IME0QYMVT","A10HW8JXM17XLD","3HUR21WDDUBEMSLDIXZW1FAIHW8YX3","","null","<img src=""img/land1.png"" style=""width:200px; border:14px solid green;"">","null","","","","","","","","","",""
"","image-keyboard-response","140","115843","0.0-140.0","3MHW492WW1ZOA6PYQHF58IME0QYMVT","A10HW8JXM17XLD","3HUR21WDDUBEMSLDIXZW1FAIHW8YX3","","871.2000002861023","img/land4.png","74","873.2999997138977","1","1","2","2","0.8,0.2,0.2,0.2,0.8,0.2,0.2,0.2,0.8","0.2,0.2,0.8,0.8,0.2,0.2,0.2,0.8,0.2","2","",""
"","html-keyboard-response","141","116153","0.0-141.0","3MHW492WW1ZOA6PYQHF58IME0QYMVT","A10HW8JXM17XLD","3HUR21WDDUBEMSLDIXZW1FAIHW8YX3","","null","<img src=""img/land4.png"" style=""width:200px; border:14px solid green;"">","null","","","","","","","","","",""
"","image-keyboard-response","142","116947","0.0-142.0","3MHW492WW1ZOA6PYQHF58IME0QYMVT","A10HW8JXM17XLD","3HUR21WDDUBEMSLDIXZW1FAIHW8YX3","","792.2000002861023","img/land1.png","76","794.0999999046326","3","1","1","2","0.8,0.2,0.2,0.2,0.8,0.2,0.2,0.2,0.8","0.2,0.2,0.8,0.8,0.2,0.2,0.2,0.8,0.2","2","",""
"","html-keyboard-response","143","117257","0.0-143.0","3MHW492WW1ZOA6PYQHF58IME0QYMVT","A10HW8JXM17XLD","3HUR21WDDUBEMSLDIXZW1FAIHW8YX3","","null","<img src=""img/land1.png"" style=""width:200px; border:14px solid green;"">","null","","","","","","","","","",""
"","image-keyboard-response","144","117675","0.0-144.0","3MHW492WW1ZOA6PYQHF58IME0QYMVT","A10HW8JXM17XLD","3HUR21WDDUBEMSLDIXZW1FAIHW8YX3","","415.59999990463257","img/land1.png","76","417.59999990463257","3","1","1","2","0.8,0.2,0.2,0.2,0.8,0.2,0.2,0.2,0.8","0.2,0.2,0.8,0.8,0.2,0.2,0.2,0.8,0.2","2","",""
"","html-keyboard-response","145","117985","0.0-145.0","3MHW492WW1ZOA6PYQHF58IME0QYMVT","A10HW8JXM17XLD","3HUR21WDDUBEMSLDIXZW1FAIHW8YX3","","null","<img src=""img/land1.png"" style=""width:200px; border:14px solid green;"">","null","","","","","","","","","",""
"","image-keyboard-response","146","118491","0.0-146.0","3MHW492WW1ZOA6PYQHF58IME0QYMVT","A10HW8JXM17XLD","3HUR21WDDUBEMSLDIXZW1FAIHW8YX3","","504.09999990463257","img/land1.png","76","505.59999990463257","3","1","1","2","0.8,0.2,0.2,0.2,0.8,0.2,0.2,0.2,0.8","0.2,0.2,0.8,0.8,0.2,0.2,0.2,0.8,0.2","2","",""
"","html-keyboard-response","147","118802","0.0-147.0","3MHW492WW1ZOA6PYQHF58IME0QYMVT","A10HW8JXM17XLD","3HUR21WDDUBEMSLDIXZW1FAIHW8YX3","","null","<img src=""img/land1.png"" style=""width:200px; border:14px solid green;"">","null","","","","","","","","","",""
"","image-keyboard-response","148","119291","0.0-148.0","3MHW492WW1ZOA6PYQHF58IME0QYMVT","A10HW8JXM17XLD","3HUR21WDDUBEMSLDIXZW1FAIHW8YX3","","487.3999996185303","img/land1.png","76","489.19999980926514","3","1","1","2","0.8,0.2,0.2,0.2,0.8,0.2,0.2,0.2,0.8","0.2,0.2,0.8,0.8,0.2,0.2,0.2,0.8,0.2","2","",""
"","html-keyboard-response","149","119601","0.0-149.0","3MHW492WW1ZOA6PYQHF58IME0QYMVT","A10HW8JXM17XLD","3HUR21WDDUBEMSLDIXZW1FAIHW8YX3","","null","<img src=""img/land1.png"" style=""width:200px; border:14px solid green;"">","null","","","","","","","","","",""
"","image-keyboard-response","150","120075","0.0-150.0","3MHW492WW1ZOA6PYQHF58IME0QYMVT","A10HW8JXM17XLD","3HUR21WDDUBEMSLDIXZW1FAIHW8YX3","","471.2000002861023","img/land1.png","76","473","3","1","1","2","0.8,0.2,0.2,0.2,0.8,0.2,0.2,0.2,0.8","0.2,0.2,0.8,0.8,0.2,0.2,0.2,0.8,0.2","2","",""
"","html-keyboard-response","151","120385","0.0-151.0","3MHW492WW1ZOA6PYQHF58IME0QYMVT","A10HW8JXM17XLD","3HUR21WDDUBEMSLDIXZW1FAIHW8YX3","","null","<img src=""img/land1.png"" style=""width:200px; border:14px solid green;"">","null","","","","","","","","","",""
"","image-keyboard-response","152","121315","0.0-152.0","3MHW492WW1ZOA6PYQHF58IME0QYMVT","A10HW8JXM17XLD","3HUR21WDDUBEMSLDIXZW1FAIHW8YX3","","927.8000001907349","img/land4.png","74","929.7000002861023","1","1","2","2","0.8,0.2,0.2,0.2,0.8,0.2,0.2,0.2,0.8","0.2,0.2,0.8,0.8,0.2,0.2,0.2,0.8,0.2","2","",""
"","html-keyboard-response","153","121625","0.0-153.0","3MHW492WW1ZOA6PYQHF58IME0QYMVT","A10HW8JXM17XLD","3HUR21WDDUBEMSLDIXZW1FAIHW8YX3","","null","<img src=""img/land4.png"" style=""width:200px; border:14px solid green;"">","null","","","","","","","","","",""
"","image-keyboard-response","154","122283","0.0-154.0","3MHW492WW1ZOA6PYQHF58IME0QYMVT","A10HW8JXM17XLD","3HUR21WDDUBEMSLDIXZW1FAIHW8YX3","","656.0999999046326","img/land1.png","76","657.4000000953674","3","1","1","2","0.8,0.2,0.2,0.2,0.8,0.2,0.2,0.2,0.8","0.2,0.2,0.8,0.8,0.2,0.2,0.2,0.8,0.2","2","",""
"","html-keyboard-response","155","122593","0.0-155.0","3MHW492WW1ZOA6PYQHF58IME0QYMVT","A10HW8JXM17XLD","3HUR21WDDUBEMSLDIXZW1FAIHW8YX3","","null","<img src=""img/land1.png"" style=""width:200px; border:14px solid green;"">","null","","","","","","","","","",""
"","image-keyboard-response","156","123299","0.0-156.0","3MHW492WW1ZOA6PYQHF58IME0QYMVT","A10HW8JXM17XLD","3HUR21WDDUBEMSLDIXZW1FAIHW8YX3","","702.7000002861023","img/land5.png","75","705.0999999046326","2","0","3","2","0.8,0.2,0.2,0.2,0.8,0.2,0.2,0.2,0.8","0.2,0.2,0.8,0.8,0.2,0.2,0.2,0.8,0.2","2","",""
"","html-keyboard-response","157","123609","0.0-157.0","3MHW492WW1ZOA6PYQHF58IME0QYMVT","A10HW8JXM17XLD","3HUR21WDDUBEMSLDIXZW1FAIHW8YX3","","null","<img src=""img/land5.png"" style=""width:200px;border:14px solid red;"">","null","","","","","","","","","",""
"","image-keyboard-response","158","124099","0.0-158.0","3MHW492WW1ZOA6PYQHF58IME0QYMVT","A10HW8JXM17XLD","3HUR21WDDUBEMSLDIXZW1FAIHW8YX3","","487.7000002861023","img/land5.png","75","489.69999980926514","2","1","3","2","0.8,0.2,0.2,0.2,0.8,0.2,0.2,0.2,0.8","0.2,0.2,0.8,0.8,0.2,0.2,0.2,0.8,0.2","2","",""
"","html-keyboard-response","159","124409","0.0-159.0","3MHW492WW1ZOA6PYQHF58IME0QYMVT","A10HW8JXM17XLD","3HUR21WDDUBEMSLDIXZW1FAIHW8YX3","","null","<img src=""img/land5.png"" style=""width:200px; border:14px solid green;"">","null","","","","","","","","","",""
"","image-keyboard-response","160","125267","0.0-160.0","3MHW492WW1ZOA6PYQHF58IME0QYMVT","A10HW8JXM17XLD","3HUR21WDDUBEMSLDIXZW1FAIHW8YX3","","855.6000003814697","img/land4.png","74","857.8000001907349","1","1","2","2","0.8,0.2,0.2,0.2,0.8,0.2,0.2,0.2,0.8","0.2,0.2,0.8,0.8,0.2,0.2,0.2,0.8,0.2","2","",""
"","html-keyboard-response","161","125577","0.0-161.0","3MHW492WW1ZOA6PYQHF58IME0QYMVT","A10HW8JXM17XLD","3HUR21WDDUBEMSLDIXZW1FAIHW8YX3","","null","<img src=""img/land4.png"" style=""width:200px; border:14px solid green;"">","null","","","","","","","","","",""
"","image-keyboard-response","162","126228","0.0-162.0","3MHW492WW1ZOA6PYQHF58IME0QYMVT","A10HW8JXM17XLD","3HUR21WDDUBEMSLDIXZW1FAIHW8YX3","","648.1000003814697","img/land1.png","76","650.2999997138977","3","0","1","2","0.8,0.2,0.2,0.2,0.8,0.2,0.2,0.2,0.8","0.2,0.2,0.8,0.8,0.2,0.2,0.2,0.8,0.2","2","",""
"","html-keyboard-response","163","126538","0.0-163.0","3MHW492WW1ZOA6PYQHF58IME0QYMVT","A10HW8JXM17XLD","3HUR21WDDUBEMSLDIXZW1FAIHW8YX3","","null","<img src=""img/land1.png"" style=""width:200px;border:14px solid red;"">","null","","","","","","","","","",""
"","image-keyboard-response","164","126939","0.0-164.0","3MHW492WW1ZOA6PYQHF58IME0QYMVT","A10HW8JXM17XLD","3HUR21WDDUBEMSLDIXZW1FAIHW8YX3","","398.59999990463257","img/land1.png","76","400.7000002861023","3","0","1","2","0.8,0.2,0.2,0.2,0.8,0.2,0.2,0.2,0.8","0.2,0.2,0.8,0.8,0.2,0.2,0.2,0.8,0.2","2","",""
"","html-keyboard-response","165","127249","0.0-165.0","3MHW492WW1ZOA6PYQHF58IME0QYMVT","A10HW8JXM17XLD","3HUR21WDDUBEMSLDIXZW1FAIHW8YX3","","null","<img src=""img/land1.png"" style=""width:200px;border:14px solid red;"">","null","","","","","","","","","",""
"","image-keyboard-response","166","128586","0.0-166.0","3MHW492WW1ZOA6PYQHF58IME0QYMVT","A10HW8JXM17XLD","3HUR21WDDUBEMSLDIXZW1FAIHW8YX3","","1335.8000001907349","img/land4.png","74","1336.7999997138977","1","1","2","2","0.8,0.2,0.2,0.2,0.8,0.2,0.2,0.2,0.8","0.2,0.2,0.8,0.8,0.2,0.2,0.2,0.8,0.2","2","",""
"","html-keyboard-response","167","128889","0.0-167.0","3MHW492WW1ZOA6PYQHF58IME0QYMVT","A10HW8JXM17XLD","3HUR21WDDUBEMSLDIXZW1FAIHW8YX3","","null","<img src=""img/land4.png"" style=""width:200px; border:14px solid green;"">","null","","","","","","","","","",""
"","image-keyboard-response","168","129667","0.0-168.0","3MHW492WW1ZOA6PYQHF58IME0QYMVT","A10HW8JXM17XLD","3HUR21WDDUBEMSLDIXZW1FAIHW8YX3","","776.2000002861023","img/land1.png","76","777.5999999046326","3","1","1","2","0.8,0.2,0.2,0.2,0.8,0.2,0.2,0.2,0.8","0.2,0.2,0.8,0.8,0.2,0.2,0.2,0.8,0.2","2","",""
"","html-keyboard-response","169","129977","0.0-169.0","3MHW492WW1ZOA6PYQHF58IME0QYMVT","A10HW8JXM17XLD","3HUR21WDDUBEMSLDIXZW1FAIHW8YX3","","null","<img src=""img/land1.png"" style=""width:200px; border:14px solid green;"">","null","","","","","","","","","",""
"","image-keyboard-response","170","130443","0.0-170.0","3MHW492WW1ZOA6PYQHF58IME0QYMVT","A10HW8JXM17XLD","3HUR21WDDUBEMSLDIXZW1FAIHW8YX3","","463.5","img/land1.png","76","465.90000009536743","3","1","1","2","0.8,0.2,0.2,0.2,0.8,0.2,0.2,0.2,0.8","0.2,0.2,0.8,0.8,0.2,0.2,0.2,0.8,0.2","2","",""
"","html-keyboard-response","171","130746","0.0-171.0","3MHW492WW1ZOA6PYQHF58IME0QYMVT","A10HW8JXM17XLD","3HUR21WDDUBEMSLDIXZW1FAIHW8YX3","","null","<img src=""img/land1.png"" style=""width:200px; border:14px solid green;"">","null","","","","","","","","","",""
"","image-keyboard-response","172","131227","0.0-172.0","3MHW492WW1ZOA6PYQHF58IME0QYMVT","A10HW8JXM17XLD","3HUR21WDDUBEMSLDIXZW1FAIHW8YX3","","478.7000002861023","img/land1.png","76","480.69999980926514","3","1","1","2","0.8,0.2,0.2,0.2,0.8,0.2,0.2,0.2,0.8","0.2,0.2,0.8,0.8,0.2,0.2,0.2,0.8,0.2","2","",""
"","html-keyboard-response","173","131537","0.0-173.0","3MHW492WW1ZOA6PYQHF58IME0QYMVT","A10HW8JXM17XLD","3HUR21WDDUBEMSLDIXZW1FAIHW8YX3","","null","<img src=""img/land1.png"" style=""width:200px; border:14px solid green;"">","null","","","","","","","","","",""
"","image-keyboard-response","174","131963","0.0-174.0","3MHW492WW1ZOA6PYQHF58IME0QYMVT","A10HW8JXM17XLD","3HUR21WDDUBEMSLDIXZW1FAIHW8YX3","","423.5","img/land1.png","76","425.5","3","1","1","2","0.8,0.2,0.2,0.2,0.8,0.2,0.2,0.2,0.8","0.2,0.2,0.8,0.8,0.2,0.2,0.2,0.8,0.2","2","",""
"","html-keyboard-response","175","132265","0.0-175.0","3MHW492WW1ZOA6PYQHF58IME0QYMVT","A10HW8JXM17XLD","3HUR21WDDUBEMSLDIXZW1FAIHW8YX3","","null","<img src=""img/land1.png"" style=""width:200px; border:14px solid green;"">","null","","","","","","","","","",""
"","image-keyboard-response","176","133019","0.0-176.0","3MHW492WW1ZOA6PYQHF58IME0QYMVT","A10HW8JXM17XLD","3HUR21WDDUBEMSLDIXZW1FAIHW8YX3","","751","img/land4.png","74","752.9000000953674","1","0","2","2","0.8,0.2,0.2,0.2,0.8,0.2,0.2,0.2,0.8","0.2,0.2,0.8,0.8,0.2,0.2,0.2,0.8,0.2","2","",""
"","html-keyboard-response","177","133329","0.0-177.0","3MHW492WW1ZOA6PYQHF58IME0QYMVT","A10HW8JXM17XLD","3HUR21WDDUBEMSLDIXZW1FAIHW8YX3","","null","<img src=""img/land4.png"" style=""width:200px;border:14px solid red;"">","null","","","","","","","","","",""
"","image-keyboard-response","178","134131","0.0-178.0","3MHW492WW1ZOA6PYQHF58IME0QYMVT","A10HW8JXM17XLD","3HUR21WDDUBEMSLDIXZW1FAIHW8YX3","","799.2999997138977","img/land1.png","76","801.4000000953674","3","0","1","2","0.8,0.2,0.2,0.2,0.8,0.2,0.2,0.2,0.8","0.2,0.2,0.8,0.8,0.2,0.2,0.2,0.8,0.2","2","",""
"","html-keyboard-response","179","134441","0.0-179.0","3MHW492WW1ZOA6PYQHF58IME0QYMVT","A10HW8JXM17XLD","3HUR21WDDUBEMSLDIXZW1FAIHW8YX3","","null","<img src=""img/land1.png"" style=""width:200px;border:14px solid red;"">","null","","","","","","","","","",""
"","image-keyboard-response","180","134875","0.0-180.0","3MHW492WW1ZOA6PYQHF58IME0QYMVT","A10HW8JXM17XLD","3HUR21WDDUBEMSLDIXZW1FAIHW8YX3","","430.59999990463257","img/land1.png","76","432.90000009536743","3","1","1","2","0.8,0.2,0.2,0.2,0.8,0.2,0.2,0.2,0.8","0.2,0.2,0.8,0.8,0.2,0.2,0.2,0.8,0.2","2","",""
"","html-keyboard-response","181","135185","0.0-181.0","3MHW492WW1ZOA6PYQHF58IME0QYMVT","A10HW8JXM17XLD","3HUR21WDDUBEMSLDIXZW1FAIHW8YX3","","null","<img src=""img/land1.png"" style=""width:200px; border:14px solid green;"">","null","","","","","","","","","",""
"","image-keyboard-response","182","135819","0.0-182.0","3MHW492WW1ZOA6PYQHF58IME0QYMVT","A10HW8JXM17XLD","3HUR21WDDUBEMSLDIXZW1FAIHW8YX3","","632.2999997138977","img/land5.png","75","633.8000001907349","2","1","3","2","0.8,0.2,0.2,0.2,0.8,0.2,0.2,0.2,0.8","0.2,0.2,0.8,0.8,0.2,0.2,0.2,0.8,0.2","2","",""
"","html-keyboard-response","183","136129","0.0-183.0","3MHW492WW1ZOA6PYQHF58IME0QYMVT","A10HW8JXM17XLD","3HUR21WDDUBEMSLDIXZW1FAIHW8YX3","","null","<img src=""img/land5.png"" style=""width:200px; border:14px solid green;"">","null","","","","","","","","","",""
"","image-keyboard-response","184","136947","0.0-184.0","3MHW492WW1ZOA6PYQHF58IME0QYMVT","A10HW8JXM17XLD","3HUR21WDDUBEMSLDIXZW1FAIHW8YX3","","815.5999999046326","img/land1.png","76","817.5999999046326","3","1","1","2","0.8,0.2,0.2,0.2,0.8,0.2,0.2,0.2,0.8","0.2,0.2,0.8,0.8,0.2,0.2,0.2,0.8,0.2","2","",""
"","html-keyboard-response","185","137258","0.0-185.0","3MHW492WW1ZOA6PYQHF58IME0QYMVT","A10HW8JXM17XLD","3HUR21WDDUBEMSLDIXZW1FAIHW8YX3","","null","<img src=""img/land1.png"" style=""width:200px; border:14px solid green;"">","null","","","","","","","","","",""
"","image-keyboard-response","186","137747","0.0-186.0","3MHW492WW1ZOA6PYQHF58IME0QYMVT","A10HW8JXM17XLD","3HUR21WDDUBEMSLDIXZW1FAIHW8YX3","","486.19999980926514","img/land1.png","76","488.7000002861023","3","1","1","2","0.8,0.2,0.2,0.2,0.8,0.2,0.2,0.2,0.8","0.2,0.2,0.8,0.8,0.2,0.2,0.2,0.8,0.2","2","",""
"","html-keyboard-response","187","138050","0.0-187.0","3MHW492WW1ZOA6PYQHF58IME0QYMVT","A10HW8JXM17XLD","3HUR21WDDUBEMSLDIXZW1FAIHW8YX3","","null","<img src=""img/land1.png"" style=""width:200px; border:14px solid green;"">","null","","","","","","","","","",""
"","image-keyboard-response","188","138587","0.0-188.0","3MHW492WW1ZOA6PYQHF58IME0QYMVT","A10HW8JXM17XLD","3HUR21WDDUBEMSLDIXZW1FAIHW8YX3","","535.5999999046326","img/land1.png","76","537.5","3","1","1","2","0.8,0.2,0.2,0.2,0.8,0.2,0.2,0.2,0.8","0.2,0.2,0.8,0.8,0.2,0.2,0.2,0.8,0.2","2","",""
"","html-keyboard-response","189","138897","0.0-189.0","3MHW492WW1ZOA6PYQHF58IME0QYMVT","A10HW8JXM17XLD","3HUR21WDDUBEMSLDIXZW1FAIHW8YX3","","null","<img src=""img/land1.png"" style=""width:200px; border:14px solid green;"">","null","","","","","","","","","",""
"","image-keyboard-response","190","139555","0.0-190.0","3MHW492WW1ZOA6PYQHF58IME0QYMVT","A10HW8JXM17XLD","3HUR21WDDUBEMSLDIXZW1FAIHW8YX3","","655.1999998092651","img/land5.png","75","657","2","1","3","2","0.8,0.2,0.2,0.2,0.8,0.2,0.2,0.2,0.8","0.2,0.2,0.8,0.8,0.2,0.2,0.2,0.8,0.2","2","",""
"","html-keyboard-response","191","139857","0.0-191.0","3MHW492WW1ZOA6PYQHF58IME0QYMVT","A10HW8JXM17XLD","3HUR21WDDUBEMSLDIXZW1FAIHW8YX3","","null","<img src=""img/land5.png"" style=""width:200px; border:14px solid green;"">","null","","","","","","","","","",""
"","image-keyboard-response","192","140323","0.0-192.0","3MHW492WW1ZOA6PYQHF58IME0QYMVT","A10HW8JXM17XLD","3HUR21WDDUBEMSLDIXZW1FAIHW8YX3","","463.2999997138977","img/land5.png","75","465.40000009536743","2","1","3","2","0.8,0.2,0.2,0.2,0.8,0.2,0.2,0.2,0.8","0.2,0.2,0.8,0.8,0.2,0.2,0.2,0.8,0.2","2","",""
"","html-keyboard-response","193","140634","0.0-193.0","3MHW492WW1ZOA6PYQHF58IME0QYMVT","A10HW8JXM17XLD","3HUR21WDDUBEMSLDIXZW1FAIHW8YX3","","null","<img src=""img/land5.png"" style=""width:200px; border:14px solid green;"">","null","","","","","","","","","",""
"","image-keyboard-response","194","141259","0.0-194.0","3MHW492WW1ZOA6PYQHF58IME0QYMVT","A10HW8JXM17XLD","3HUR21WDDUBEMSLDIXZW1FAIHW8YX3","","622.1999998092651","img/land1.png","76","624.2000002861023","3","1","1","2","0.8,0.2,0.2,0.2,0.8,0.2,0.2,0.2,0.8","0.2,0.2,0.8,0.8,0.2,0.2,0.2,0.8,0.2","2","",""
"","html-keyboard-response","195","141569","0.0-195.0","3MHW492WW1ZOA6PYQHF58IME0QYMVT","A10HW8JXM17XLD","3HUR21WDDUBEMSLDIXZW1FAIHW8YX3","","null","<img src=""img/land1.png"" style=""width:200px; border:14px solid green;"">","null","","","","","","","","","",""
"","image-keyboard-response","196","142003","0.0-196.0","3MHW492WW1ZOA6PYQHF58IME0QYMVT","A10HW8JXM17XLD","3HUR21WDDUBEMSLDIXZW1FAIHW8YX3","","431.19999980926514","img/land1.png","76","433.2000002861023","3","1","1","2","0.8,0.2,0.2,0.2,0.8,0.2,0.2,0.2,0.8","0.2,0.2,0.8,0.8,0.2,0.2,0.2,0.8,0.2","2","",""
"","html-keyboard-response","197","142313","0.0-197.0","3MHW492WW1ZOA6PYQHF58IME0QYMVT","A10HW8JXM17XLD","3HUR21WDDUBEMSLDIXZW1FAIHW8YX3","","null","<img src=""img/land1.png"" style=""width:200px; border:14px solid green;"">","null","","","","","","","","","",""
"","image-keyboard-response","198","143019","0.0-198.0","3MHW492WW1ZOA6PYQHF58IME0QYMVT","A10HW8JXM17XLD","3HUR21WDDUBEMSLDIXZW1FAIHW8YX3","","703.0999999046326","img/land5.png","75","705.4000000953674","2","1","3","2","0.8,0.2,0.2,0.2,0.8,0.2,0.2,0.2,0.8","0.2,0.2,0.8,0.8,0.2,0.2,0.2,0.8,0.2","2","",""
"","html-keyboard-response","199","143329","0.0-199.0","3MHW492WW1ZOA6PYQHF58IME0QYMVT","A10HW8JXM17XLD","3HUR21WDDUBEMSLDIXZW1FAIHW8YX3","","null","<img src=""img/land5.png"" style=""width:200px; border:14px solid green;"">","null","","","","","","","","","",""
"","image-keyboard-response","200","143739","0.0-200.0","3MHW492WW1ZOA6PYQHF58IME0QYMVT","A10HW8JXM17XLD","3HUR21WDDUBEMSLDIXZW1FAIHW8YX3","","406.5","img/land5.png","75","408.7999997138977","2","1","3","2","0.8,0.2,0.2,0.2,0.8,0.2,0.2,0.2,0.8","0.2,0.2,0.8,0.8,0.2,0.2,0.2,0.8,0.2","2","",""
"","html-keyboard-response","201","144049","0.0-201.0","3MHW492WW1ZOA6PYQHF58IME0QYMVT","A10HW8JXM17XLD","3HUR21WDDUBEMSLDIXZW1FAIHW8YX3","","null","<img src=""img/land5.png"" style=""width:200px; border:14px solid green;"">","null","","","","","","","","","",""
"","image-keyboard-response","202","144699","0.0-202.0","3MHW492WW1ZOA6PYQHF58IME0QYMVT","A10HW8JXM17XLD","3HUR21WDDUBEMSLDIXZW1FAIHW8YX3","","647.1999998092651","img/land1.png","76","649.3000001907349","3","1","1","2","0.8,0.2,0.2,0.2,0.8,0.2,0.2,0.2,0.8","0.2,0.2,0.8,0.8,0.2,0.2,0.2,0.8,0.2","2","",""
"","html-keyboard-response","203","145009","0.0-203.0","3MHW492WW1ZOA6PYQHF58IME0QYMVT","A10HW8JXM17XLD","3HUR21WDDUBEMSLDIXZW1FAIHW8YX3","","null","<img src=""img/land1.png"" style=""width:200px; border:14px solid green;"">","null","","","","","","","","","",""
"","image-keyboard-response","204","145483","0.0-204.0","3MHW492WW1ZOA6PYQHF58IME0QYMVT","A10HW8JXM17XLD","3HUR21WDDUBEMSLDIXZW1FAIHW8YX3","","471.3999996185303","img/land1.png","76","473.2000002861023","3","0","1","2","0.8,0.2,0.2,0.2,0.8,0.2,0.2,0.2,0.8","0.2,0.2,0.8,0.8,0.2,0.2,0.2,0.8,0.2","2","",""
"","html-keyboard-response","205","145794","0.0-205.0","3MHW492WW1ZOA6PYQHF58IME0QYMVT","A10HW8JXM17XLD","3HUR21WDDUBEMSLDIXZW1FAIHW8YX3","","null","<img src=""img/land1.png"" style=""width:200px;border:14px solid red;"">","null","","","","","","","","","",""
"","image-keyboard-response","206","146244","0.0-206.0","3MHW492WW1ZOA6PYQHF58IME0QYMVT","A10HW8JXM17XLD","3HUR21WDDUBEMSLDIXZW1FAIHW8YX3","","447.40000009536743","img/land1.png","76","449.40000009536743","3","1","1","2","0.8,0.2,0.2,0.2,0.8,0.2,0.2,0.2,0.8","0.2,0.2,0.8,0.8,0.2,0.2,0.2,0.8,0.2","2","",""
"","html-keyboard-response","207","146553","0.0-207.0","3MHW492WW1ZOA6PYQHF58IME0QYMVT","A10HW8JXM17XLD","3HUR21WDDUBEMSLDIXZW1FAIHW8YX3","","null","<img src=""img/land1.png"" style=""width:200px; border:14px solid green;"">","null","","","","","","","","","",""
"","image-keyboard-response","208","147059","0.0-208.0","3MHW492WW1ZOA6PYQHF58IME0QYMVT","A10HW8JXM17XLD","3HUR21WDDUBEMSLDIXZW1FAIHW8YX3","","503.5","img/land1.png","76","505.5","3","1","1","2","0.8,0.2,0.2,0.2,0.8,0.2,0.2,0.2,0.8","0.2,0.2,0.8,0.8,0.2,0.2,0.2,0.8,0.2","2","",""
"","html-keyboard-response","209","147362","0.0-209.0","3MHW492WW1ZOA6PYQHF58IME0QYMVT","A10HW8JXM17XLD","3HUR21WDDUBEMSLDIXZW1FAIHW8YX3","","null","<img src=""img/land1.png"" style=""width:200px; border:14px solid green;"">","null","","","","","","","","","",""
"","image-keyboard-response","210","148155","0.0-210.0","3MHW492WW1ZOA6PYQHF58IME0QYMVT","A10HW8JXM17XLD","3HUR21WDDUBEMSLDIXZW1FAIHW8YX3","","790.3999996185303","img/land5.png","75","792.4000000953674","2","1","3","2","0.8,0.2,0.2,0.2,0.8,0.2,0.2,0.2,0.8","0.2,0.2,0.8,0.8,0.2,0.2,0.2,0.8,0.2","2","",""
"","html-keyboard-response","211","148465","0.0-211.0","3MHW492WW1ZOA6PYQHF58IME0QYMVT","A10HW8JXM17XLD","3HUR21WDDUBEMSLDIXZW1FAIHW8YX3","","null","<img src=""img/land5.png"" style=""width:200px; border:14px solid green;"">","null","","","","","","","","","",""
"","image-keyboard-response","212","149219","0.0-212.0","3MHW492WW1ZOA6PYQHF58IME0QYMVT","A10HW8JXM17XLD","3HUR21WDDUBEMSLDIXZW1FAIHW8YX3","","751.5","img/land1.png","76","753.3999996185303","3","1","1","2","0.8,0.2,0.2,0.2,0.8,0.2,0.2,0.2,0.8","0.2,0.2,0.8,0.8,0.2,0.2,0.2,0.8,0.2","2","",""
"","html-keyboard-response","213","149529","0.0-213.0","3MHW492WW1ZOA6PYQHF58IME0QYMVT","A10HW8JXM17XLD","3HUR21WDDUBEMSLDIXZW1FAIHW8YX3","","null","<img src=""img/land1.png"" style=""width:200px; border:14px solid green;"">","null","","","","","","","","","",""
"","image-keyboard-response","214","150147","0.0-214.0","3MHW492WW1ZOA6PYQHF58IME0QYMVT","A10HW8JXM17XLD","3HUR21WDDUBEMSLDIXZW1FAIHW8YX3","","616.1999998092651","img/land5.png","75","617.6999998092651","2","1","3","2","0.8,0.2,0.2,0.2,0.8,0.2,0.2,0.2,0.8","0.2,0.2,0.8,0.8,0.2,0.2,0.2,0.8,0.2","2","",""
"","html-keyboard-response","215","150458","0.0-215.0","3MHW492WW1ZOA6PYQHF58IME0QYMVT","A10HW8JXM17XLD","3HUR21WDDUBEMSLDIXZW1FAIHW8YX3","","null","<img src=""img/land5.png"" style=""width:200px; border:14px solid green;"">","null","","","","","","","","","",""
"","image-keyboard-response","216","150971","0.0-216.0","3MHW492WW1ZOA6PYQHF58IME0QYMVT","A10HW8JXM17XLD","3HUR21WDDUBEMSLDIXZW1FAIHW8YX3","","510.40000009536743","img/land5.png","75","512.5999999046326","2","1","3","2","0.8,0.2,0.2,0.2,0.8,0.2,0.2,0.2,0.8","0.2,0.2,0.8,0.8,0.2,0.2,0.2,0.8,0.2","2","",""
"","html-keyboard-response","217","151282","0.0-217.0","3MHW492WW1ZOA6PYQHF58IME0QYMVT","A10HW8JXM17XLD","3HUR21WDDUBEMSLDIXZW1FAIHW8YX3","","null","<img src=""img/land5.png"" style=""width:200px; border:14px solid green;"">","null","","","","","","","","","",""
"","image-keyboard-response","218","151835","0.0-218.0","3MHW492WW1ZOA6PYQHF58IME0QYMVT","A10HW8JXM17XLD","3HUR21WDDUBEMSLDIXZW1FAIHW8YX3","","550.1999998092651","img/land1.png","76","552.2000002861023","3","1","1","2","0.8,0.2,0.2,0.2,0.8,0.2,0.2,0.2,0.8","0.2,0.2,0.8,0.8,0.2,0.2,0.2,0.8,0.2","2","",""
"","html-keyboard-response","219","152137","0.0-219.0","3MHW492WW1ZOA6PYQHF58IME0QYMVT","A10HW8JXM17XLD","3HUR21WDDUBEMSLDIXZW1FAIHW8YX3","","null","<img src=""img/land1.png"" style=""width:200px; border:14px solid green;"">","null","","","","","","","","","",""
"","image-keyboard-response","220","152587","0.0-220.0","3MHW492WW1ZOA6PYQHF58IME0QYMVT","A10HW8JXM17XLD","3HUR21WDDUBEMSLDIXZW1FAIHW8YX3","","447","img/land1.png","76","449","3","1","1","2","0.8,0.2,0.2,0.2,0.8,0.2,0.2,0.2,0.8","0.2,0.2,0.8,0.8,0.2,0.2,0.2,0.8,0.2","2","",""
"","html-keyboard-response","221","152890","0.0-221.0","3MHW492WW1ZOA6PYQHF58IME0QYMVT","A10HW8JXM17XLD","3HUR21WDDUBEMSLDIXZW1FAIHW8YX3","","null","<img src=""img/land1.png"" style=""width:200px; border:14px solid green;"">","null","","","","","","","","","",""
"","image-keyboard-response","222","153523","0.0-222.0","3MHW492WW1ZOA6PYQHF58IME0QYMVT","A10HW8JXM17XLD","3HUR21WDDUBEMSLDIXZW1FAIHW8YX3","","630.5999999046326","img/land5.png","75","632.7000002861023","2","1","3","2","0.8,0.2,0.2,0.2,0.8,0.2,0.2,0.2,0.8","0.2,0.2,0.8,0.8,0.2,0.2,0.2,0.8,0.2","2","",""
"","html-keyboard-response","223","153834","0.0-223.0","3MHW492WW1ZOA6PYQHF58IME0QYMVT","A10HW8JXM17XLD","3HUR21WDDUBEMSLDIXZW1FAIHW8YX3","","null","<img src=""img/land5.png"" style=""width:200px; border:14px solid green;"">","null","","","","","","","","","",""
"","image-keyboard-response","224","154323","0.0-224.0","3MHW492WW1ZOA6PYQHF58IME0QYMVT","A10HW8JXM17XLD","3HUR21WDDUBEMSLDIXZW1FAIHW8YX3","","486.69999980926514","img/land5.png","75","488.7000002861023","2","1","3","2","0.8,0.2,0.2,0.2,0.8,0.2,0.2,0.2,0.8","0.2,0.2,0.8,0.8,0.2,0.2,0.2,0.8,0.2","2","",""
"","html-keyboard-response","225","154633","0.0-225.0","3MHW492WW1ZOA6PYQHF58IME0QYMVT","A10HW8JXM17XLD","3HUR21WDDUBEMSLDIXZW1FAIHW8YX3","","null","<img src=""img/land5.png"" style=""width:200px; border:14px solid green;"">","null","","","","","","","","","",""
"","image-keyboard-response","226","155155","0.0-226.0","3MHW492WW1ZOA6PYQHF58IME0QYMVT","A10HW8JXM17XLD","3HUR21WDDUBEMSLDIXZW1FAIHW8YX3","","519.5","img/land1.png","76","521.5","3","1","1","2","0.8,0.2,0.2,0.2,0.8,0.2,0.2,0.2,0.8","0.2,0.2,0.8,0.8,0.2,0.2,0.2,0.8,0.2","2","",""
"","html-keyboard-response","227","155458","0.0-227.0","3MHW492WW1ZOA6PYQHF58IME0QYMVT","A10HW8JXM17XLD","3HUR21WDDUBEMSLDIXZW1FAIHW8YX3","","null","<img src=""img/land1.png"" style=""width:200px; border:14px solid green;"">","null","","","","","","","","","",""
"","image-keyboard-response","228","156267","0.0-228.0","3MHW492WW1ZOA6PYQHF58IME0QYMVT","A10HW8JXM17XLD","3HUR21WDDUBEMSLDIXZW1FAIHW8YX3","","806","img/land4.png","74","808.5999999046326","1","1","2","2","0.8,0.2,0.2,0.2,0.8,0.2,0.2,0.2,0.8","0.2,0.2,0.8,0.8,0.2,0.2,0.2,0.8,0.2","2","",""
"","html-keyboard-response","229","156578","0.0-229.0","3MHW492WW1ZOA6PYQHF58IME0QYMVT","A10HW8JXM17XLD","3HUR21WDDUBEMSLDIXZW1FAIHW8YX3","","null","<img src=""img/land4.png"" style=""width:200px; border:14px solid green;"">","null","","","","","","","","","",""
"","image-keyboard-response","230","156995","0.0-230.0","3MHW492WW1ZOA6PYQHF58IME0QYMVT","A10HW8JXM17XLD","3HUR21WDDUBEMSLDIXZW1FAIHW8YX3","","414.7999997138977","img/land4.png","74","416.80000019073486","1","1","2","2","0.8,0.2,0.2,0.2,0.8,0.2,0.2,0.2,0.8","0.2,0.2,0.8,0.8,0.2,0.2,0.2,0.8,0.2","2","",""
"","html-keyboard-response","231","157298","0.0-231.0","3MHW492WW1ZOA6PYQHF58IME0QYMVT","A10HW8JXM17XLD","3HUR21WDDUBEMSLDIXZW1FAIHW8YX3","","null","<img src=""img/land4.png"" style=""width:200px; border:14px solid green;"">","null","","","","","","","","","",""
"","image-keyboard-response","232","158075","0.0-232.0","3MHW492WW1ZOA6PYQHF58IME0QYMVT","A10HW8JXM17XLD","3HUR21WDDUBEMSLDIXZW1FAIHW8YX3","","774.0999999046326","img/land1.png","76","776.0999999046326","3","1","1","2","0.8,0.2,0.2,0.2,0.8,0.2,0.2,0.2,0.8","0.2,0.2,0.8,0.8,0.2,0.2,0.2,0.8,0.2","2","",""
"","html-keyboard-response","233","158385","0.0-233.0","3MHW492WW1ZOA6PYQHF58IME0QYMVT","A10HW8JXM17XLD","3HUR21WDDUBEMSLDIXZW1FAIHW8YX3","","null","<img src=""img/land1.png"" style=""width:200px; border:14px solid green;"">","null","","","","","","","","","",""
"","image-keyboard-response","234","159307","0.0-234.0","3MHW492WW1ZOA6PYQHF58IME0QYMVT","A10HW8JXM17XLD","3HUR21WDDUBEMSLDIXZW1FAIHW8YX3","","919.4000000953674","img/land4.png","74","921.6999998092651","1","1","2","2","0.8,0.2,0.2,0.2,0.8,0.2,0.2,0.2,0.8","0.2,0.2,0.8,0.8,0.2,0.2,0.2,0.8,0.2","2","",""
"","html-keyboard-response","235","159617","0.0-235.0","3MHW492WW1ZOA6PYQHF58IME0QYMVT","A10HW8JXM17XLD","3HUR21WDDUBEMSLDIXZW1FAIHW8YX3","","null","<img src=""img/land4.png"" style=""width:200px; border:14px solid green;"">","null","","","","","","","","","",""
"","image-keyboard-response","236","160379","0.0-236.0","3MHW492WW1ZOA6PYQHF58IME0QYMVT","A10HW8JXM17XLD","3HUR21WDDUBEMSLDIXZW1FAIHW8YX3","","759.5","img/land1.png","76","761.5","3","1","1","2","0.8,0.2,0.2,0.2,0.8,0.2,0.2,0.2,0.8","0.2,0.2,0.8,0.8,0.2,0.2,0.2,0.8,0.2","2","",""
"","html-keyboard-response","237","160689","0.0-237.0","3MHW492WW1ZOA6PYQHF58IME0QYMVT","A10HW8JXM17XLD","3HUR21WDDUBEMSLDIXZW1FAIHW8YX3","","null","<img src=""img/land1.png"" style=""width:200px; border:14px solid green;"">","null","","","","","","","","","",""
"","image-keyboard-response","238","161195","0.0-238.0","3MHW492WW1ZOA6PYQHF58IME0QYMVT","A10HW8JXM17XLD","3HUR21WDDUBEMSLDIXZW1FAIHW8YX3","","502.90000009536743","img/land1.png","76","505","3","1","1","2","0.8,0.2,0.2,0.2,0.8,0.2,0.2,0.2,0.8","0.2,0.2,0.8,0.8,0.2,0.2,0.2,0.8,0.2","2","",""
"","html-keyboard-response","239","161505","0.0-239.0","3MHW492WW1ZOA6PYQHF58IME0QYMVT","A10HW8JXM17XLD","3HUR21WDDUBEMSLDIXZW1FAIHW8YX3","","null","<img src=""img/land1.png"" style=""width:200px; border:14px solid green;"">","null","","","","","","","","","",""
"","image-keyboard-response","240","162163","0.0-240.0","3MHW492WW1ZOA6PYQHF58IME0QYMVT","A10HW8JXM17XLD","3HUR21WDDUBEMSLDIXZW1FAIHW8YX3","","655.3999996185303","img/land5.png","75","657.5","2","1","3","2","0.8,0.2,0.2,0.2,0.8,0.2,0.2,0.2,0.8","0.2,0.2,0.8,0.8,0.2,0.2,0.2,0.8,0.2","2","",""
"","html-keyboard-response","241","162473","0.0-241.0","3MHW492WW1ZOA6PYQHF58IME0QYMVT","A10HW8JXM17XLD","3HUR21WDDUBEMSLDIXZW1FAIHW8YX3","","null","<img src=""img/land5.png"" style=""width:200px; border:14px solid green;"">","null","","","","","","","","","",""
"","image-keyboard-response","242","163146","0.0-242.0","3MHW492WW1ZOA6PYQHF58IME0QYMVT","A10HW8JXM17XLD","3HUR21WDDUBEMSLDIXZW1FAIHW8YX3","","670.1999998092651","img/land1.png","76","672","3","1","1","2","0.8,0.2,0.2,0.2,0.8,0.2,0.2,0.2,0.8","0.2,0.2,0.8,0.8,0.2,0.2,0.2,0.8,0.2","2","",""
"","html-keyboard-response","243","163450","0.0-243.0","3MHW492WW1ZOA6PYQHF58IME0QYMVT","A10HW8JXM17XLD","3HUR21WDDUBEMSLDIXZW1FAIHW8YX3","","null","<img src=""img/land1.png"" style=""width:200px; border:14px solid green;"">","null","","","","","","","","","",""
"","image-keyboard-response","244","163850","0.0-244.0","3MHW492WW1ZOA6PYQHF58IME0QYMVT","A10HW8JXM17XLD","3HUR21WDDUBEMSLDIXZW1FAIHW8YX3","","398.19999980926514","img/land1.png","76","400","3","1","1","2","0.8,0.2,0.2,0.2,0.8,0.2,0.2,0.2,0.8","0.2,0.2,0.8,0.8,0.2,0.2,0.2,0.8,0.2","2","",""
"","html-keyboard-response","245","164153","0.0-245.0","3MHW492WW1ZOA6PYQHF58IME0QYMVT","A10HW8JXM17XLD","3HUR21WDDUBEMSLDIXZW1FAIHW8YX3","","null","<img src=""img/land1.png"" style=""width:200px; border:14px solid green;"">","null","","","","","","","","","",""
"","image-keyboard-response","246","164579","0.0-246.0","3MHW492WW1ZOA6PYQHF58IME0QYMVT","A10HW8JXM17XLD","3HUR21WDDUBEMSLDIXZW1FAIHW8YX3","","422.90000009536743","img/land1.png","76","424.69999980926514","3","0","1","2","0.8,0.2,0.2,0.2,0.8,0.2,0.2,0.2,0.8","0.2,0.2,0.8,0.8,0.2,0.2,0.2,0.8,0.2","2","",""
"","html-keyboard-response","247","164882","0.0-247.0","3MHW492WW1ZOA6PYQHF58IME0QYMVT","A10HW8JXM17XLD","3HUR21WDDUBEMSLDIXZW1FAIHW8YX3","","null","<img src=""img/land1.png"" style=""width:200px;border:14px solid red;"">","null","","","","","","","","","",""
"","image-keyboard-response","248","165419","0.0-248.0","3MHW492WW1ZOA6PYQHF58IME0QYMVT","A10HW8JXM17XLD","3HUR21WDDUBEMSLDIXZW1FAIHW8YX3","","534.3000001907349","img/land1.png","76","536.3999996185303","3","1","1","2","0.8,0.2,0.2,0.2,0.8,0.2,0.2,0.2,0.8","0.2,0.2,0.8,0.8,0.2,0.2,0.2,0.8,0.2","2","",""
"","html-keyboard-response","249","165729","0.0-249.0","3MHW492WW1ZOA6PYQHF58IME0QYMVT","A10HW8JXM17XLD","3HUR21WDDUBEMSLDIXZW1FAIHW8YX3","","null","<img src=""img/land1.png"" style=""width:200px; border:14px solid green;"">","null","","","","","","","","","",""
"","image-keyboard-response","250","166179","0.0-250.0","3MHW492WW1ZOA6PYQHF58IME0QYMVT","A10HW8JXM17XLD","3HUR21WDDUBEMSLDIXZW1FAIHW8YX3","","447.09999990463257","img/land1.png","76","449","3","1","1","2","0.8,0.2,0.2,0.2,0.8,0.2,0.2,0.2,0.8","0.2,0.2,0.8,0.8,0.2,0.2,0.2,0.8,0.2","2","",""
"","html-keyboard-response","251","166489","0.0-251.0","3MHW492WW1ZOA6PYQHF58IME0QYMVT","A10HW8JXM17XLD","3HUR21WDDUBEMSLDIXZW1FAIHW8YX3","","null","<img src=""img/land1.png"" style=""width:200px; border:14px solid green;"">","null","","","","","","","","","",""
"","image-keyboard-response","252","166883","0.0-252.0","3MHW492WW1ZOA6PYQHF58IME0QYMVT","A10HW8JXM17XLD","3HUR21WDDUBEMSLDIXZW1FAIHW8YX3","","390.80000019073486","img/land1.png","76","392.90000009536743","3","1","1","2","0.8,0.2,0.2,0.2,0.8,0.2,0.2,0.2,0.8","0.2,0.2,0.8,0.8,0.2,0.2,0.2,0.8,0.2","2","",""
"","html-keyboard-response","253","167193","0.0-253.0","3MHW492WW1ZOA6PYQHF58IME0QYMVT","A10HW8JXM17XLD","3HUR21WDDUBEMSLDIXZW1FAIHW8YX3","","null","<img src=""img/land1.png"" style=""width:200px; border:14px solid green;"">","null","","","","","","","","","",""
"","image-keyboard-response","254","167611","0.0-254.0","3MHW492WW1ZOA6PYQHF58IME0QYMVT","A10HW8JXM17XLD","3HUR21WDDUBEMSLDIXZW1FAIHW8YX3","","415.19999980926514","img/land1.png","76","417.2000002861023","3","1","1","2","0.8,0.2,0.2,0.2,0.8,0.2,0.2,0.2,0.8","0.2,0.2,0.8,0.8,0.2,0.2,0.2,0.8,0.2","2","",""
"","html-keyboard-response","255","167921","0.0-255.0","3MHW492WW1ZOA6PYQHF58IME0QYMVT","A10HW8JXM17XLD","3HUR21WDDUBEMSLDIXZW1FAIHW8YX3","","null","<img src=""img/land1.png"" style=""width:200px; border:14px solid green;"">","null","","","","","","","","","",""
"","image-keyboard-response","256","168330","0.0-256.0","3MHW492WW1ZOA6PYQHF58IME0QYMVT","A10HW8JXM17XLD","3HUR21WDDUBEMSLDIXZW1FAIHW8YX3","","408.09999990463257","img/land1.png","76","409.19999980926514","3","0","1","2","0.8,0.2,0.2,0.2,0.8,0.2,0.2,0.2,0.8","0.2,0.2,0.8,0.8,0.2,0.2,0.2,0.8,0.2","2","",""
"","html-keyboard-response","257","168633","0.0-257.0","3MHW492WW1ZOA6PYQHF58IME0QYMVT","A10HW8JXM17XLD","3HUR21WDDUBEMSLDIXZW1FAIHW8YX3","","null","<img src=""img/land1.png"" style=""width:200px;border:14px solid red;"">","null","","","","","","","","","",""
"","image-keyboard-response","258","169347","0.0-258.0","3MHW492WW1ZOA6PYQHF58IME0QYMVT","A10HW8JXM17XLD","3HUR21WDDUBEMSLDIXZW1FAIHW8YX3","","710.5999999046326","img/land1.png","76","712.6999998092651","3","1","1","2","0.8,0.2,0.2,0.2,0.8,0.2,0.2,0.2,0.8","0.2,0.2,0.8,0.8,0.2,0.2,0.2,0.8,0.2","2","",""
"","html-keyboard-response","259","169657","0.0-259.0","3MHW492WW1ZOA6PYQHF58IME0QYMVT","A10HW8JXM17XLD","3HUR21WDDUBEMSLDIXZW1FAIHW8YX3","","null","<img src=""img/land1.png"" style=""width:200px; border:14px solid green;"">","null","","","","","","","","","",""
"","image-keyboard-response","260","170587","0.0-260.0","3MHW492WW1ZOA6PYQHF58IME0QYMVT","A10HW8JXM17XLD","3HUR21WDDUBEMSLDIXZW1FAIHW8YX3","","927.3000001907349","img/land5.png","75","929.5999999046326","2","1","3","2","0.8,0.2,0.2,0.2,0.8,0.2,0.2,0.2,0.8","0.2,0.2,0.8,0.8,0.2,0.2,0.2,0.8,0.2","2","",""
"","html-keyboard-response","261","170898","0.0-261.0","3MHW492WW1ZOA6PYQHF58IME0QYMVT","A10HW8JXM17XLD","3HUR21WDDUBEMSLDIXZW1FAIHW8YX3","","null","<img src=""img/land5.png"" style=""width:200px; border:14px solid green;"">","null","","","","","","","","","",""
"","image-keyboard-response","262","171275","0.0-262.0","3MHW492WW1ZOA6PYQHF58IME0QYMVT","A10HW8JXM17XLD","3HUR21WDDUBEMSLDIXZW1FAIHW8YX3","","374.5","img/land5.png","75","376.90000009536743","2","1","3","2","0.8,0.2,0.2,0.2,0.8,0.2,0.2,0.2,0.8","0.2,0.2,0.8,0.8,0.2,0.2,0.2,0.8,0.2","2","",""
"","html-keyboard-response","263","171586","0.0-263.0","3MHW492WW1ZOA6PYQHF58IME0QYMVT","A10HW8JXM17XLD","3HUR21WDDUBEMSLDIXZW1FAIHW8YX3","","null","<img src=""img/land5.png"" style=""width:200px; border:14px solid green;"">","null","","","","","","","","","",""
"","image-keyboard-response","264","172315","0.0-264.0","3MHW492WW1ZOA6PYQHF58IME0QYMVT","A10HW8JXM17XLD","3HUR21WDDUBEMSLDIXZW1FAIHW8YX3","","726.5999999046326","img/land4.png","74","728.2999997138977","1","1","2","2","0.8,0.2,0.2,0.2,0.8,0.2,0.2,0.2,0.8","0.2,0.2,0.8,0.8,0.2,0.2,0.2,0.8,0.2","2","",""
"","html-keyboard-response","265","172626","0.0-265.0","3MHW492WW1ZOA6PYQHF58IME0QYMVT","A10HW8JXM17XLD","3HUR21WDDUBEMSLDIXZW1FAIHW8YX3","","null","<img src=""img/land4.png"" style=""width:200px; border:14px solid green;"">","null","","","","","","","","","",""
"","image-keyboard-response","266","173075","0.0-266.0","3MHW492WW1ZOA6PYQHF58IME0QYMVT","A10HW8JXM17XLD","3HUR21WDDUBEMSLDIXZW1FAIHW8YX3","","446.5","img/land4.png","74","448.7000002861023","1","0","2","2","0.8,0.2,0.2,0.2,0.8,0.2,0.2,0.2,0.8","0.2,0.2,0.8,0.8,0.2,0.2,0.2,0.8,0.2","2","",""
"","html-keyboard-response","267","173386","0.0-267.0","3MHW492WW1ZOA6PYQHF58IME0QYMVT","A10HW8JXM17XLD","3HUR21WDDUBEMSLDIXZW1FAIHW8YX3","","null","<img src=""img/land4.png"" style=""width:200px;border:14px solid red;"">","null","","","","","","","","","",""
"","image-keyboard-response","268","174179","0.0-268.0","3MHW492WW1ZOA6PYQHF58IME0QYMVT","A10HW8JXM17XLD","3HUR21WDDUBEMSLDIXZW1FAIHW8YX3","","790.4000000953674","img/land5.png","75","792.4000000953674","2","1","3","2","0.8,0.2,0.2,0.2,0.8,0.2,0.2,0.2,0.8","0.2,0.2,0.8,0.8,0.2,0.2,0.2,0.8,0.2","2","",""
"","html-keyboard-response","269","174489","0.0-269.0","3MHW492WW1ZOA6PYQHF58IME0QYMVT","A10HW8JXM17XLD","3HUR21WDDUBEMSLDIXZW1FAIHW8YX3","","null","<img src=""img/land5.png"" style=""width:200px; border:14px solid green;"">","null","","","","","","","","","",""
"","image-keyboard-response","270","175179","0.0-270.0","3MHW492WW1ZOA6PYQHF58IME0QYMVT","A10HW8JXM17XLD","3HUR21WDDUBEMSLDIXZW1FAIHW8YX3","","686.4000000953674","img/land1.png","76","688.7999997138977","3","1","1","2","0.8,0.2,0.2,0.2,0.8,0.2,0.2,0.2,0.8","0.2,0.2,0.8,0.8,0.2,0.2,0.2,0.8,0.2","2","",""
"","html-keyboard-response","271","175489","0.0-271.0","3MHW492WW1ZOA6PYQHF58IME0QYMVT","A10HW8JXM17XLD","3HUR21WDDUBEMSLDIXZW1FAIHW8YX3","","null","<img src=""img/land1.png"" style=""width:200px; border:14px solid green;"">","null","","","","","","","","","",""
"","image-keyboard-response","272","175835","0.0-272.0","3MHW492WW1ZOA6PYQHF58IME0QYMVT","A10HW8JXM17XLD","3HUR21WDDUBEMSLDIXZW1FAIHW8YX3","","342.30000019073486","img/land1.png","76","344.80000019073486","3","1","1","2","0.8,0.2,0.2,0.2,0.8,0.2,0.2,0.2,0.8","0.2,0.2,0.8,0.8,0.2,0.2,0.2,0.8,0.2","2","",""
"","html-keyboard-response","273","176146","0.0-273.0","3MHW492WW1ZOA6PYQHF58IME0QYMVT","A10HW8JXM17XLD","3HUR21WDDUBEMSLDIXZW1FAIHW8YX3","","null","<img src=""img/land1.png"" style=""width:200px; border:14px solid green;"">","null","","","","","","","","","",""
"","image-keyboard-response","274","177315","0.0-274.0","3MHW492WW1ZOA6PYQHF58IME0QYMVT","A10HW8JXM17XLD","3HUR21WDDUBEMSLDIXZW1FAIHW8YX3","","1166.3000001907349","img/land4.png","74","1168.2999997138977","1","0","2","2","0.8,0.2,0.2,0.2,0.8,0.2,0.2,0.2,0.8","0.2,0.2,0.8,0.8,0.2,0.2,0.2,0.8,0.2","2","",""
"","html-keyboard-response","275","177627","0.0-275.0","3MHW492WW1ZOA6PYQHF58IME0QYMVT","A10HW8JXM17XLD","3HUR21WDDUBEMSLDIXZW1FAIHW8YX3","","null","<img src=""img/land4.png"" style=""width:200px;border:14px solid red;"">","null","","","","","","","","","",""
"","image-keyboard-response","276","178371","0.0-276.0","3MHW492WW1ZOA6PYQHF58IME0QYMVT","A10HW8JXM17XLD","3HUR21WDDUBEMSLDIXZW1FAIHW8YX3","","742.4000000953674","img/land5.png","75","744.2999997138977","2","1","3","2","0.8,0.2,0.2,0.2,0.8,0.2,0.2,0.2,0.8","0.2,0.2,0.8,0.8,0.2,0.2,0.2,0.8,0.2","2","",""
"","html-keyboard-response","277","178682","0.0-277.0","3MHW492WW1ZOA6PYQHF58IME0QYMVT","A10HW8JXM17XLD","3HUR21WDDUBEMSLDIXZW1FAIHW8YX3","","null","<img src=""img/land5.png"" style=""width:200px; border:14px solid green;"">","null","","","","","","","","","",""
"","image-keyboard-response","278","179227","0.0-278.0","3MHW492WW1ZOA6PYQHF58IME0QYMVT","A10HW8JXM17XLD","3HUR21WDDUBEMSLDIXZW1FAIHW8YX3","","542.7000002861023","img/land1.png","76","544.6999998092651","3","1","1","2","0.8,0.2,0.2,0.2,0.8,0.2,0.2,0.2,0.8","0.2,0.2,0.8,0.8,0.2,0.2,0.2,0.8,0.2","2","",""
"","html-keyboard-response","279","179538","0.0-279.0","3MHW492WW1ZOA6PYQHF58IME0QYMVT","A10HW8JXM17XLD","3HUR21WDDUBEMSLDIXZW1FAIHW8YX3","","null","<img src=""img/land1.png"" style=""width:200px; border:14px solid green;"">","null","","","","","","","","","",""
"","image-keyboard-response","280","180451","0.0-280.0","3MHW492WW1ZOA6PYQHF58IME0QYMVT","A10HW8JXM17XLD","3HUR21WDDUBEMSLDIXZW1FAIHW8YX3","","910.7000002861023","img/land5.png","75","912.5999999046326","2","1","3","2","0.8,0.2,0.2,0.2,0.8,0.2,0.2,0.2,0.8","0.2,0.2,0.8,0.8,0.2,0.2,0.2,0.8,0.2","2","",""
"","html-keyboard-response","281","180762","0.0-281.0","3MHW492WW1ZOA6PYQHF58IME0QYMVT","A10HW8JXM17XLD","3HUR21WDDUBEMSLDIXZW1FAIHW8YX3","","null","<img src=""img/land5.png"" style=""width:200px; border:14px solid green;"">","null","","","","","","","","","",""
"","image-keyboard-response","282","181436","0.0-282.0","3MHW492WW1ZOA6PYQHF58IME0QYMVT","A10HW8JXM17XLD","3HUR21WDDUBEMSLDIXZW1FAIHW8YX3","","670.9000000953674","img/land1.png","76","672.6999998092651","3","1","1","2","0.8,0.2,0.2,0.2,0.8,0.2,0.2,0.2,0.8","0.2,0.2,0.8,0.8,0.2,0.2,0.2,0.8,0.2","2","",""
"","html-keyboard-response","283","181746","0.0-283.0","3MHW492WW1ZOA6PYQHF58IME0QYMVT","A10HW8JXM17XLD","3HUR21WDDUBEMSLDIXZW1FAIHW8YX3","","null","<img src=""img/land1.png"" style=""width:200px; border:14px solid green;"">","null","","","","","","","","","",""
"","image-keyboard-response","284","182267","0.0-284.0","3MHW492WW1ZOA6PYQHF58IME0QYMVT","A10HW8JXM17XLD","3HUR21WDDUBEMSLDIXZW1FAIHW8YX3","","518.7000002861023","img/land1.png","76","520.5","3","1","1","2","0.8,0.2,0.2,0.2,0.8,0.2,0.2,0.2,0.8","0.2,0.2,0.8,0.8,0.2,0.2,0.2,0.8,0.2","2","",""
"","html-keyboard-response","285","182578","0.0-285.0","3MHW492WW1ZOA6PYQHF58IME0QYMVT","A10HW8JXM17XLD","3HUR21WDDUBEMSLDIXZW1FAIHW8YX3","","null","<img src=""img/land1.png"" style=""width:200px; border:14px solid green;"">","null","","","","","","","","","",""
"","image-keyboard-response","286","183019","0.0-286.0","3MHW492WW1ZOA6PYQHF58IME0QYMVT","A10HW8JXM17XLD","3HUR21WDDUBEMSLDIXZW1FAIHW8YX3","","438.09999990463257","img/land1.png","76","440.2000002861023","3","1","1","2","0.8,0.2,0.2,0.2,0.8,0.2,0.2,0.2,0.8","0.2,0.2,0.8,0.8,0.2,0.2,0.2,0.8,0.2","2","",""
"","html-keyboard-response","287","183330","0.0-287.0","3MHW492WW1ZOA6PYQHF58IME0QYMVT","A10HW8JXM17XLD","3HUR21WDDUBEMSLDIXZW1FAIHW8YX3","","null","<img src=""img/land1.png"" style=""width:200px; border:14px solid green;"">","null","","","","","","","","","",""
"","image-keyboard-response","288","183747","0.0-288.0","3MHW492WW1ZOA6PYQHF58IME0QYMVT","A10HW8JXM17XLD","3HUR21WDDUBEMSLDIXZW1FAIHW8YX3","","414.7000002861023","img/land1.png","76","416.69999980926514","3","1","1","2","0.8,0.2,0.2,0.2,0.8,0.2,0.2,0.2,0.8","0.2,0.2,0.8,0.8,0.2,0.2,0.2,0.8,0.2","2","",""
"","html-keyboard-response","289","184058","0.0-289.0","3MHW492WW1ZOA6PYQHF58IME0QYMVT","A10HW8JXM17XLD","3HUR21WDDUBEMSLDIXZW1FAIHW8YX3","","null","<img src=""img/land1.png"" style=""width:200px; border:14px solid green;"">","null","","","","","","","","","",""
"","image-keyboard-response","290","184435","0.0-290.0","3MHW492WW1ZOA6PYQHF58IME0QYMVT","A10HW8JXM17XLD","3HUR21WDDUBEMSLDIXZW1FAIHW8YX3","","374.5","img/land1.png","76","376.90000009536743","3","1","1","2","0.8,0.2,0.2,0.2,0.8,0.2,0.2,0.2,0.8","0.2,0.2,0.8,0.8,0.2,0.2,0.2,0.8,0.2","2","",""
"","html-keyboard-response","291","184746","0.0-291.0","3MHW492WW1ZOA6PYQHF58IME0QYMVT","A10HW8JXM17XLD","3HUR21WDDUBEMSLDIXZW1FAIHW8YX3","","null","<img src=""img/land1.png"" style=""width:200px; border:14px solid green;"">","null","","","","","","","","","",""
"","image-keyboard-response","292","185187","0.0-292.0","3MHW492WW1ZOA6PYQHF58IME0QYMVT","A10HW8JXM17XLD","3HUR21WDDUBEMSLDIXZW1FAIHW8YX3","","438.80000019073486","img/land1.png","76","440.80000019073486","3","1","1","2","0.8,0.2,0.2,0.2,0.8,0.2,0.2,0.2,0.8","0.2,0.2,0.8,0.8,0.2,0.2,0.2,0.8,0.2","2","",""
"","html-keyboard-response","293","185498","0.0-293.0","3MHW492WW1ZOA6PYQHF58IME0QYMVT","A10HW8JXM17XLD","3HUR21WDDUBEMSLDIXZW1FAIHW8YX3","","null","<img src=""img/land1.png"" style=""width:200px; border:14px solid green;"">","null","","","","","","","","","",""
"","image-keyboard-response","294","186371","0.0-294.0","3MHW492WW1ZOA6PYQHF58IME0QYMVT","A10HW8JXM17XLD","3HUR21WDDUBEMSLDIXZW1FAIHW8YX3","","871","img/land4.png","74","873","1","1","2","2","0.8,0.2,0.2,0.2,0.8,0.2,0.2,0.2,0.8","0.2,0.2,0.8,0.8,0.2,0.2,0.2,0.8,0.2","2","",""
"","html-keyboard-response","295","186681","0.0-295.0","3MHW492WW1ZOA6PYQHF58IME0QYMVT","A10HW8JXM17XLD","3HUR21WDDUBEMSLDIXZW1FAIHW8YX3","","null","<img src=""img/land4.png"" style=""width:200px; border:14px solid green;"">","null","","","","","","","","","",""
"","image-keyboard-response","296","187395","0.0-296.0","3MHW492WW1ZOA6PYQHF58IME0QYMVT","A10HW8JXM17XLD","3HUR21WDDUBEMSLDIXZW1FAIHW8YX3","","711.2000002861023","img/land5.png","75","713.1999998092651","2","1","3","2","0.8,0.2,0.2,0.2,0.8,0.2,0.2,0.2,0.8","0.2,0.2,0.8,0.8,0.2,0.2,0.2,0.8,0.2","2","",""
"","html-keyboard-response","297","187706","0.0-297.0","3MHW492WW1ZOA6PYQHF58IME0QYMVT","A10HW8JXM17XLD","3HUR21WDDUBEMSLDIXZW1FAIHW8YX3","","null","<img src=""img/land5.png"" style=""width:200px; border:14px solid green;"">","null","","","","","","","","","",""
"","image-keyboard-response","298","188323","0.0-298.0","3MHW492WW1ZOA6PYQHF58IME0QYMVT","A10HW8JXM17XLD","3HUR21WDDUBEMSLDIXZW1FAIHW8YX3","","615","img/land1.png","76","617.2000002861023","3","1","1","2","0.8,0.2,0.2,0.2,0.8,0.2,0.2,0.2,0.8","0.2,0.2,0.8,0.8,0.2,0.2,0.2,0.8,0.2","2","",""
"","html-keyboard-response","299","188634","0.0-299.0","3MHW492WW1ZOA6PYQHF58IME0QYMVT","A10HW8JXM17XLD","3HUR21WDDUBEMSLDIXZW1FAIHW8YX3","","null","<img src=""img/land1.png"" style=""width:200px; border:14px solid green;"">","null","","","","","","","","","",""
"","image-keyboard-response","300","189027","0.0-300.0","3MHW492WW1ZOA6PYQHF58IME0QYMVT","A10HW8JXM17XLD","3HUR21WDDUBEMSLDIXZW1FAIHW8YX3","","390.59999990463257","img/land1.png","76","392.5","3","1","1","2","0.8,0.2,0.2,0.2,0.8,0.2,0.2,0.2,0.8","0.2,0.2,0.8,0.8,0.2,0.2,0.2,0.8,0.2","2","",""
"","html-keyboard-response","301","189338","0.0-301.0","3MHW492WW1ZOA6PYQHF58IME0QYMVT","A10HW8JXM17XLD","3HUR21WDDUBEMSLDIXZW1FAIHW8YX3","","null","<img src=""img/land1.png"" style=""width:200px; border:14px solid green;"">","null","","","","","","","","","",""
"","image-keyboard-response","302","190611","0.0-302.0","3MHW492WW1ZOA6PYQHF58IME0QYMVT","A10HW8JXM17XLD","3HUR21WDDUBEMSLDIXZW1FAIHW8YX3","","1271.2999997138977","img/land3.png","74","1273.0999999046326","1","0","1","1","0.8,0.2,0.2,0.2,0.8,0.2,0.2,0.2,0.8","0.8,0.2,0.2,0.2,0.8,0.2,0.2,0.2,0.8","1","",""
"","html-keyboard-response","303","190922","0.0-303.0","3MHW492WW1ZOA6PYQHF58IME0QYMVT","A10HW8JXM17XLD","3HUR21WDDUBEMSLDIXZW1FAIHW8YX3","","null","<img src=""img/land3.png"" style=""width:200px;border:14px solid red;"">","null","","","","","","","","","",""
"","image-keyboard-response","304","191451","0.0-304.0","3MHW492WW1ZOA6PYQHF58IME0QYMVT","A10HW8JXM17XLD","3HUR21WDDUBEMSLDIXZW1FAIHW8YX3","","527.1999998092651","img/land3.png","75","529.1000003814697","2","1","1","1","0.8,0.2,0.2,0.2,0.8,0.2,0.2,0.2,0.8","0.8,0.2,0.2,0.2,0.8,0.2,0.2,0.2,0.8","1","",""
"","html-keyboard-response","305","191755","0.0-305.0","3MHW492WW1ZOA6PYQHF58IME0QYMVT","A10HW8JXM17XLD","3HUR21WDDUBEMSLDIXZW1FAIHW8YX3","","null","<img src=""img/land3.png"" style=""width:200px; border:14px solid green;"">","null","","","","","","","","","",""
"","image-keyboard-response","306","193315","0.0-306.0","3MHW492WW1ZOA6PYQHF58IME0QYMVT","A10HW8JXM17XLD","3HUR21WDDUBEMSLDIXZW1FAIHW8YX3","","1558","img/land6.png","76","1560","3","1","3","1","0.8,0.2,0.2,0.2,0.8,0.2,0.2,0.2,0.8","0.8,0.2,0.2,0.2,0.8,0.2,0.2,0.2,0.8","1","",""
"","html-keyboard-response","307","193626","0.0-307.0","3MHW492WW1ZOA6PYQHF58IME0QYMVT","A10HW8JXM17XLD","3HUR21WDDUBEMSLDIXZW1FAIHW8YX3","","null","<img src=""img/land6.png"" style=""width:200px; border:14px solid green;"">","null","","","","","","","","","",""
"","image-keyboard-response","308","194451","0.0-308.0","3MHW492WW1ZOA6PYQHF58IME0QYMVT","A10HW8JXM17XLD","3HUR21WDDUBEMSLDIXZW1FAIHW8YX3","","822.0999999046326","img/land6.png","76","824.5","3","1","3","1","0.8,0.2,0.2,0.2,0.8,0.2,0.2,0.2,0.8","0.8,0.2,0.2,0.2,0.8,0.2,0.2,0.2,0.8","1","",""
"","html-keyboard-response","309","194763","0.0-309.0","3MHW492WW1ZOA6PYQHF58IME0QYMVT","A10HW8JXM17XLD","3HUR21WDDUBEMSLDIXZW1FAIHW8YX3","","null","<img src=""img/land6.png"" style=""width:200px; border:14px solid green;"">","null","","","","","","","","","",""
"","image-keyboard-response","310","195739","0.0-310.0","3MHW492WW1ZOA6PYQHF58IME0QYMVT","A10HW8JXM17XLD","3HUR21WDDUBEMSLDIXZW1FAIHW8YX3","","974.0999999046326","img/land2.png","74","975.9000000953674","1","0","2","1","0.8,0.2,0.2,0.2,0.8,0.2,0.2,0.2,0.8","0.8,0.2,0.2,0.2,0.8,0.2,0.2,0.2,0.8","1","",""
"","html-keyboard-response","311","196042","0.0-311.0","3MHW492WW1ZOA6PYQHF58IME0QYMVT","A10HW8JXM17XLD","3HUR21WDDUBEMSLDIXZW1FAIHW8YX3","","null","<img src=""img/land2.png"" style=""width:200px;border:14px solid red;"">","null","","","","","","","","","",""
"","image-keyboard-response","312","196435","0.0-312.0","3MHW492WW1ZOA6PYQHF58IME0QYMVT","A10HW8JXM17XLD","3HUR21WDDUBEMSLDIXZW1FAIHW8YX3","","390.30000019073486","img/land2.png","74","392.3999996185303","1","1","2","1","0.8,0.2,0.2,0.2,0.8,0.2,0.2,0.2,0.8","0.8,0.2,0.2,0.2,0.8,0.2,0.2,0.2,0.8","1","",""
"","html-keyboard-response","313","196746","0.0-313.0","3MHW492WW1ZOA6PYQHF58IME0QYMVT","A10HW8JXM17XLD","3HUR21WDDUBEMSLDIXZW1FAIHW8YX3","","null","<img src=""img/land2.png"" style=""width:200px; border:14px solid green;"">","null","","","","","","","","","",""
"","image-keyboard-response","314","197427","0.0-314.0","3MHW492WW1ZOA6PYQHF58IME0QYMVT","A10HW8JXM17XLD","3HUR21WDDUBEMSLDIXZW1FAIHW8YX3","","678.6999998092651","img/land6.png","75","680.8000001907349","2","1","3","1","0.8,0.2,0.2,0.2,0.8,0.2,0.2,0.2,0.8","0.8,0.2,0.2,0.2,0.8,0.2,0.2,0.2,0.8","1","",""
"","html-keyboard-response","315","197738","0.0-315.0","3MHW492WW1ZOA6PYQHF58IME0QYMVT","A10HW8JXM17XLD","3HUR21WDDUBEMSLDIXZW1FAIHW8YX3","","null","<img src=""img/land6.png"" style=""width:200px; border:14px solid green;"">","null","","","","","","","","","",""
"","image-keyboard-response","316","198643","0.0-316.0","3MHW492WW1ZOA6PYQHF58IME0QYMVT","A10HW8JXM17XLD","3HUR21WDDUBEMSLDIXZW1FAIHW8YX3","","902.4000000953674","img/land6.png","75","904.5999999046326","2","0","3","1","0.8,0.2,0.2,0.2,0.8,0.2,0.2,0.2,0.8","0.8,0.2,0.2,0.2,0.8,0.2,0.2,0.2,0.8","1","",""
"","html-keyboard-response","317","198954","0.0-317.0","3MHW492WW1ZOA6PYQHF58IME0QYMVT","A10HW8JXM17XLD","3HUR21WDDUBEMSLDIXZW1FAIHW8YX3","","null","<img src=""img/land6.png"" style=""width:200px;border:14px solid red;"">","null","","","","","","","","","",""
"","image-keyboard-response","318","199611","0.0-318.0","3MHW492WW1ZOA6PYQHF58IME0QYMVT","A10HW8JXM17XLD","3HUR21WDDUBEMSLDIXZW1FAIHW8YX3","","654.3999996185303","img/land2.png","76","656.2000002861023","3","0","2","1","0.8,0.2,0.2,0.2,0.8,0.2,0.2,0.2,0.8","0.8,0.2,0.2,0.2,0.8,0.2,0.2,0.2,0.8","1","",""
"","html-keyboard-response","319","199922","0.0-319.0","3MHW492WW1ZOA6PYQHF58IME0QYMVT","A10HW8JXM17XLD","3HUR21WDDUBEMSLDIXZW1FAIHW8YX3","","null","<img src=""img/land2.png"" style=""width:200px;border:14px solid red;"">","null","","","","","","","","","",""
"","image-keyboard-response","320","201930","0.0-320.0","3MHW492WW1ZOA6PYQHF58IME0QYMVT","A10HW8JXM17XLD","3HUR21WDDUBEMSLDIXZW1FAIHW8YX3","","","img/land6.png","","2007.9000000953674","-1","0","3","1","0.8,0.2,0.2,0.2,0.8,0.2,0.2,0.2,0.8","0.8,0.2,0.2,0.2,0.8,0.2,0.2,0.2,0.8","1","",""
"","html-keyboard-response","321","202234","0.0-321.0","3MHW492WW1ZOA6PYQHF58IME0QYMVT","A10HW8JXM17XLD","3HUR21WDDUBEMSLDIXZW1FAIHW8YX3","","null","<img src=""img/land6.png"" style=""width:200px;border:14px solid red;"">","null","","","","","","","","","",""
"","image-keyboard-response","322","202755","0.0-322.0","3MHW492WW1ZOA6PYQHF58IME0QYMVT","A10HW8JXM17XLD","3HUR21WDDUBEMSLDIXZW1FAIHW8YX3","","518.6999998092651","img/land6.png","76","520.8000001907349","3","1","3","1","0.8,0.2,0.2,0.2,0.8,0.2,0.2,0.2,0.8","0.8,0.2,0.2,0.2,0.8,0.2,0.2,0.2,0.8","1","",""
"","html-keyboard-response","323","203066","0.0-323.0","3MHW492WW1ZOA6PYQHF58IME0QYMVT","A10HW8JXM17XLD","3HUR21WDDUBEMSLDIXZW1FAIHW8YX3","","null","<img src=""img/land6.png"" style=""width:200px; border:14px solid green;"">","null","","","","","","","","","",""
"","image-keyboard-response","324","204067","0.0-324.0","3MHW492WW1ZOA6PYQHF58IME0QYMVT","A10HW8JXM17XLD","3HUR21WDDUBEMSLDIXZW1FAIHW8YX3","","998.1000003814697","img/land3.png","75","1000.1999998092651","2","1","1","1","0.8,0.2,0.2,0.2,0.8,0.2,0.2,0.2,0.8","0.8,0.2,0.2,0.2,0.8,0.2,0.2,0.2,0.8","1","",""
"","html-keyboard-response","325","204370","0.0-325.0","3MHW492WW1ZOA6PYQHF58IME0QYMVT","A10HW8JXM17XLD","3HUR21WDDUBEMSLDIXZW1FAIHW8YX3","","null","<img src=""img/land3.png"" style=""width:200px; border:14px solid green;"">","null","","","","","","","","","",""
"","image-keyboard-response","326","204915","0.0-326.0","3MHW492WW1ZOA6PYQHF58IME0QYMVT","A10HW8JXM17XLD","3HUR21WDDUBEMSLDIXZW1FAIHW8YX3","","542.5999999046326","img/land3.png","75","544.5","2","0","1","1","0.8,0.2,0.2,0.2,0.8,0.2,0.2,0.2,0.8","0.8,0.2,0.2,0.2,0.8,0.2,0.2,0.2,0.8","1","",""
"","html-keyboard-response","327","205218","0.0-327.0","3MHW492WW1ZOA6PYQHF58IME0QYMVT","A10HW8JXM17XLD","3HUR21WDDUBEMSLDIXZW1FAIHW8YX3","","null","<img src=""img/land3.png"" style=""width:200px;border:14px solid red;"">","null","","","","","","","","","",""
"","image-keyboard-response","328","206875","0.0-328.0","3MHW492WW1ZOA6PYQHF58IME0QYMVT","A10HW8JXM17XLD","3HUR21WDDUBEMSLDIXZW1FAIHW8YX3","","1654.6999998092651","img/land2.png","74","1656.8000001907349","1","0","2","1","0.8,0.2,0.2,0.2,0.8,0.2,0.2,0.2,0.8","0.8,0.2,0.2,0.2,0.8,0.2,0.2,0.2,0.8","1","",""
"","html-keyboard-response","329","207178","0.0-329.0","3MHW492WW1ZOA6PYQHF58IME0QYMVT","A10HW8JXM17XLD","3HUR21WDDUBEMSLDIXZW1FAIHW8YX3","","null","<img src=""img/land2.png"" style=""width:200px;border:14px solid red;"">","null","","","","","","","","","",""
"","image-keyboard-response","330","208235","0.0-330.0","3MHW492WW1ZOA6PYQHF58IME0QYMVT","A10HW8JXM17XLD","3HUR21WDDUBEMSLDIXZW1FAIHW8YX3","","1054.3000001907349","img/land3.png","75","1056.1999998092651","2","0","1","1","0.8,0.2,0.2,0.2,0.8,0.2,0.2,0.2,0.8","0.8,0.2,0.2,0.2,0.8,0.2,0.2,0.2,0.8","1","",""
"","html-keyboard-response","331","208546","0.0-331.0","3MHW492WW1ZOA6PYQHF58IME0QYMVT","A10HW8JXM17XLD","3HUR21WDDUBEMSLDIXZW1FAIHW8YX3","","null","<img src=""img/land3.png"" style=""width:200px;border:14px solid red;"">","null","","","","","","","","","",""
"","image-keyboard-response","332","209923","0.0-332.0","3MHW492WW1ZOA6PYQHF58IME0QYMVT","A10HW8JXM17XLD","3HUR21WDDUBEMSLDIXZW1FAIHW8YX3","","1374.8999996185303","img/land2.png","76","1376.9000000953674","3","1","2","1","0.8,0.2,0.2,0.2,0.8,0.2,0.2,0.2,0.8","0.8,0.2,0.2,0.2,0.8,0.2,0.2,0.2,0.8","1","",""
"","html-keyboard-response","333","210234","0.0-333.0","3MHW492WW1ZOA6PYQHF58IME0QYMVT","A10HW8JXM17XLD","3HUR21WDDUBEMSLDIXZW1FAIHW8YX3","","null","<img src=""img/land2.png"" style=""width:200px; border:14px solid green;"">","null","","","","","","","","","",""
"","image-keyboard-response","334","211475","0.0-334.0","3MHW492WW1ZOA6PYQHF58IME0QYMVT","A10HW8JXM17XLD","3HUR21WDDUBEMSLDIXZW1FAIHW8YX3","","1238.2999997138977","img/land6.png","75","1240.2000002861023","2","0","3","1","0.8,0.2,0.2,0.2,0.8,0.2,0.2,0.2,0.8","0.8,0.2,0.2,0.2,0.8,0.2,0.2,0.2,0.8","1","",""
"","html-keyboard-response","335","211786","0.0-335.0","3MHW492WW1ZOA6PYQHF58IME0QYMVT","A10HW8JXM17XLD","3HUR21WDDUBEMSLDIXZW1FAIHW8YX3","","null","<img src=""img/land6.png"" style=""width:200px;border:14px solid red;"">","null","","","","","","","","","",""
"","image-keyboard-response","336","212924","0.0-336.0","3MHW492WW1ZOA6PYQHF58IME0QYMVT","A10HW8JXM17XLD","3HUR21WDDUBEMSLDIXZW1FAIHW8YX3","","1135","img/land2.png","76","1137.0999999046326","3","0","2","1","0.8,0.2,0.2,0.2,0.8,0.2,0.2,0.2,0.8","0.8,0.2,0.2,0.2,0.8,0.2,0.2,0.2,0.8","1","",""
"","html-keyboard-response","337","213234","0.0-337.0","3MHW492WW1ZOA6PYQHF58IME0QYMVT","A10HW8JXM17XLD","3HUR21WDDUBEMSLDIXZW1FAIHW8YX3","","null","<img src=""img/land2.png"" style=""width:200px;border:14px solid red;"">","null","","","","","","","","","",""
"","image-keyboard-response","338","214491","0.0-338.0","3MHW492WW1ZOA6PYQHF58IME0QYMVT","A10HW8JXM17XLD","3HUR21WDDUBEMSLDIXZW1FAIHW8YX3","","1255.1000003814697","img/land6.png","74","1257.1999998092651","1","0","3","1","0.8,0.2,0.2,0.2,0.8,0.2,0.2,0.2,0.8","0.8,0.2,0.2,0.2,0.8,0.2,0.2,0.2,0.8","1","",""
"","html-keyboard-response","339","214795","0.0-339.0","3MHW492WW1ZOA6PYQHF58IME0QYMVT","A10HW8JXM17XLD","3HUR21WDDUBEMSLDIXZW1FAIHW8YX3","","null","<img src=""img/land6.png"" style=""width:200px;border:14px solid red;"">","null","","","","","","","","","",""
"","image-keyboard-response","340","216419","0.0-340.0","3MHW492WW1ZOA6PYQHF58IME0QYMVT","A10HW8JXM17XLD","3HUR21WDDUBEMSLDIXZW1FAIHW8YX3","","1622.5","img/land3.png","76","1624.3999996185303","3","0","1","1","0.8,0.2,0.2,0.2,0.8,0.2,0.2,0.2,0.8","0.8,0.2,0.2,0.2,0.8,0.2,0.2,0.2,0.8","1","",""
"","html-keyboard-response","341","216729","0.0-341.0","3MHW492WW1ZOA6PYQHF58IME0QYMVT","A10HW8JXM17XLD","3HUR21WDDUBEMSLDIXZW1FAIHW8YX3","","null","<img src=""img/land3.png"" style=""width:200px;border:14px solid red;"">","null","","","","","","","","","",""
"","image-keyboard-response","342","218539","0.0-342.0","3MHW492WW1ZOA6PYQHF58IME0QYMVT","A10HW8JXM17XLD","3HUR21WDDUBEMSLDIXZW1FAIHW8YX3","","1806.9000000953674","img/land2.png","74","1808.9000000953674","1","0","2","1","0.8,0.2,0.2,0.2,0.8,0.2,0.2,0.2,0.8","0.8,0.2,0.2,0.2,0.8,0.2,0.2,0.2,0.8","1","",""
"","html-keyboard-response","343","218850","0.0-343.0","3MHW492WW1ZOA6PYQHF58IME0QYMVT","A10HW8JXM17XLD","3HUR21WDDUBEMSLDIXZW1FAIHW8YX3","","null","<img src=""img/land2.png"" style=""width:200px;border:14px solid red;"">","null","","","","","","","","","",""
"","image-keyboard-response","344","220219","0.0-344.0","3MHW492WW1ZOA6PYQHF58IME0QYMVT","A10HW8JXM17XLD","3HUR21WDDUBEMSLDIXZW1FAIHW8YX3","","1366.4000000953674","img/land6.png","75","1368.3999996185303","2","1","3","1","0.8,0.2,0.2,0.2,0.8,0.2,0.2,0.2,0.8","0.8,0.2,0.2,0.2,0.8,0.2,0.2,0.2,0.8","1","",""
"","html-keyboard-response","345","220530","0.0-345.0","3MHW492WW1ZOA6PYQHF58IME0QYMVT","A10HW8JXM17XLD","3HUR21WDDUBEMSLDIXZW1FAIHW8YX3","","null","<img src=""img/land6.png"" style=""width:200px; border:14px solid green;"">","null","","","","","","","","","",""
"","image-keyboard-response","346","221915","0.0-346.0","3MHW492WW1ZOA6PYQHF58IME0QYMVT","A10HW8JXM17XLD","3HUR21WDDUBEMSLDIXZW1FAIHW8YX3","","1382.2999997138977","img/land3.png","75","1384.3000001907349","2","0","1","1","0.8,0.2,0.2,0.2,0.8,0.2,0.2,0.2,0.8","0.8,0.2,0.2,0.2,0.8,0.2,0.2,0.2,0.8","1","",""
"","html-keyboard-response","347","222226","0.0-347.0","3MHW492WW1ZOA6PYQHF58IME0QYMVT","A10HW8JXM17XLD","3HUR21WDDUBEMSLDIXZW1FAIHW8YX3","","null","<img src=""img/land3.png"" style=""width:200px;border:14px solid red;"">","null","","","","","","","","","",""
"","image-keyboard-response","348","222971","0.0-348.0","3MHW492WW1ZOA6PYQHF58IME0QYMVT","A10HW8JXM17XLD","3HUR21WDDUBEMSLDIXZW1FAIHW8YX3","","743.2000002861023","img/land6.png","75","745.0999999046326","2","0","3","1","0.8,0.2,0.2,0.2,0.8,0.2,0.2,0.2,0.8","0.8,0.2,0.2,0.2,0.8,0.2,0.2,0.2,0.8","1","",""
"","html-keyboard-response","349","223282","0.0-349.0","3MHW492WW1ZOA6PYQHF58IME0QYMVT","A10HW8JXM17XLD","3HUR21WDDUBEMSLDIXZW1FAIHW8YX3","","null","<img src=""img/land6.png"" style=""width:200px;border:14px solid red;"">","null","","","","","","","","","",""
"","image-keyboard-response","350","224011","0.0-350.0","3MHW492WW1ZOA6PYQHF58IME0QYMVT","A10HW8JXM17XLD","3HUR21WDDUBEMSLDIXZW1FAIHW8YX3","","726.7999997138977","img/land3.png","76","728.8000001907349","3","0","1","1","0.8,0.2,0.2,0.2,0.8,0.2,0.2,0.2,0.8","0.8,0.2,0.2,0.2,0.8,0.2,0.2,0.2,0.8","1","",""
"","html-keyboard-response","351","224314","0.0-351.0","3MHW492WW1ZOA6PYQHF58IME0QYMVT","A10HW8JXM17XLD","3HUR21WDDUBEMSLDIXZW1FAIHW8YX3","","null","<img src=""img/land3.png"" style=""width:200px;border:14px solid red;"">","null","","","","","","","","","",""
"","image-keyboard-response","352","225019","0.0-352.0","3MHW492WW1ZOA6PYQHF58IME0QYMVT","A10HW8JXM17XLD","3HUR21WDDUBEMSLDIXZW1FAIHW8YX3","","702.6999998092651","img/land6.png","75","704.8000001907349","2","1","3","1","0.8,0.2,0.2,0.2,0.8,0.2,0.2,0.2,0.8","0.8,0.2,0.2,0.2,0.8,0.2,0.2,0.2,0.8","1","",""
"","html-keyboard-response","353","225322","0.0-353.0","3MHW492WW1ZOA6PYQHF58IME0QYMVT","A10HW8JXM17XLD","3HUR21WDDUBEMSLDIXZW1FAIHW8YX3","","null","<img src=""img/land6.png"" style=""width:200px; border:14px solid green;"">","null","","","","","","","","","",""
