"success","trial_type","trial_index","time_elapsed","internal_node_id","assignmentID","mturkID","hitID","view_history","rt","stimulus","key_press","reactionTime","a","r","s","cond","reward_cond","reward_cond_actual","reward_matrix_idx","responses","question_order"
"true","fullscreen","0","3610","0.0-0.0","3YGXWBAF713C77USTWK4WWHPTWKC4K","A11JGMLOFFPV65","3UUIU9GZC5R93N292LT21FRJ9VS5TN","","","","","","","","","","","","","",""
"","instructions","1","26358","0.0-1.0","3YGXWBAF713C77USTWK4WWHPTWKC4K","A11JGMLOFFPV65","3UUIU9GZC5R93N292LT21FRJ9VS5TN","[{""page_index"":0,""viewing_time"":1960.300000011921},{""page_index"":1,""viewing_time"":1811.8999999761581},{""page_index"":2,""viewing_time"":1143.2000000178814},{""page_index"":3,""viewing_time"":11106.09999999404},{""page_index"":4,""viewing_time"":4187.9000000059605},{""page_index"":5,""viewing_time"":1370.2999999821186},{""page_index"":6,""viewing_time"":1165.5}]","22745.69999998808","","","","","","","","","","","",""
"","image-keyboard-response","2","28363","0.0-2.0","3YGXWBAF713C77USTWK4WWHPTWKC4K","A11JGMLOFFPV65","3UUIU9GZC5R93N292LT21FRJ9VS5TN","","","img/land3.png","","2003.699999988079","-1","0","3","1","0.8,0.2,0.2,0.2,0.8,0.2,0.2,0.2,0.8","0.8,0.2,0.2,0.2,0.8,0.2,0.2,0.2,0.8","1","",""
"","html-keyboard-response","3","28665","0.0-3.0","3YGXWBAF713C77USTWK4WWHPTWKC4K","A11JGMLOFFPV65","3UUIU9GZC5R93N292LT21FRJ9VS5TN","","null","<img src=""img/land3.png"" style=""width:200px;border:14px solid red;"">","null","","","","","","","","","",""
"","image-keyboard-response","4","29607","0.0-4.0","3YGXWBAF713C77USTWK4WWHPTWKC4K","A11JGMLOFFPV65","3UUIU9GZC5R93N292LT21FRJ9VS5TN","","940.4000000059605","img/land3.png","75","941.8000000119209","2","1","3","1","0.8,0.2,0.2,0.2,0.8,0.2,0.2,0.2,0.8","0.8,0.2,0.2,0.2,0.8,0.2,0.2,0.2,0.8","1","",""
"","html-keyboard-response","5","29910","0.0-5.0","3YGXWBAF713C77USTWK4WWHPTWKC4K","A11JGMLOFFPV65","3UUIU9GZC5R93N292LT21FRJ9VS5TN","","null","<img src=""img/land3.png"" style=""width:200px; border:14px solid green;"">","null","","","","","","","","","",""
"","image-keyboard-response","6","31422","0.0-6.0","3YGXWBAF713C77USTWK4WWHPTWKC4K","A11JGMLOFFPV65","3UUIU9GZC5R93N292LT21FRJ9VS5TN","","1510.199999988079","img/land3.png","75","1511.3999999761581","2","0","3","1","0.8,0.2,0.2,0.2,0.8,0.2,0.2,0.2,0.8","0.8,0.2,0.2,0.2,0.8,0.2,0.2,0.2,0.8","1","",""
"","html-keyboard-response","7","31725","0.0-7.0","3YGXWBAF713C77USTWK4WWHPTWKC4K","A11JGMLOFFPV65","3UUIU9GZC5R93N292LT21FRJ9VS5TN","","null","<img src=""img/land3.png"" style=""width:200px;border:14px solid red;"">","null","","","","","","","","","",""
"","image-keyboard-response","8","32322","0.0-8.0","3YGXWBAF713C77USTWK4WWHPTWKC4K","A11JGMLOFFPV65","3UUIU9GZC5R93N292LT21FRJ9VS5TN","","596.1000000238419","img/land6.png","76","597.0999999940395","3","1","2","1","0.8,0.2,0.2,0.2,0.8,0.2,0.2,0.2,0.8","0.8,0.2,0.2,0.2,0.8,0.2,0.2,0.2,0.8","1","",""
"","html-keyboard-response","9","32624","0.0-9.0","3YGXWBAF713C77USTWK4WWHPTWKC4K","A11JGMLOFFPV65","3UUIU9GZC5R93N292LT21FRJ9VS5TN","","null","<img src=""img/land6.png"" style=""width:200px; border:14px solid green;"">","null","","","","","","","","","",""
"","image-keyboard-response","10","33642","0.0-10.0","3YGXWBAF713C77USTWK4WWHPTWKC4K","A11JGMLOFFPV65","3UUIU9GZC5R93N292LT21FRJ9VS5TN","","1016.5","img/land6.png","74","1017.5","1","0","2","1","0.8,0.2,0.2,0.2,0.8,0.2,0.2,0.2,0.8","0.8,0.2,0.2,0.2,0.8,0.2,0.2,0.2,0.8","1","",""
"","html-keyboard-response","11","33945","0.0-11.0","3YGXWBAF713C77USTWK4WWHPTWKC4K","A11JGMLOFFPV65","3UUIU9GZC5R93N292LT21FRJ9VS5TN","","null","<img src=""img/land6.png"" style=""width:200px;border:14px solid red;"">","null","","","","","","","","","",""
"","image-keyboard-response","12","34457","0.0-12.0","3YGXWBAF713C77USTWK4WWHPTWKC4K","A11JGMLOFFPV65","3UUIU9GZC5R93N292LT21FRJ9VS5TN","","510.7999999821186","img/land4.png","75","511.89999997615814","2","0","1","1","0.8,0.2,0.2,0.2,0.8,0.2,0.2,0.2,0.8","0.8,0.2,0.2,0.2,0.8,0.2,0.2,0.2,0.8","1","",""
"","html-keyboard-response","13","34760","0.0-13.0","3YGXWBAF713C77USTWK4WWHPTWKC4K","A11JGMLOFFPV65","3UUIU9GZC5R93N292LT21FRJ9VS5TN","","null","<img src=""img/land4.png"" style=""width:200px;border:14px solid red;"">","null","","","","","","","","","",""
"","image-keyboard-response","14","35167","0.0-14.0","3YGXWBAF713C77USTWK4WWHPTWKC4K","A11JGMLOFFPV65","3UUIU9GZC5R93N292LT21FRJ9VS5TN","","406","img/land3.png","76","406.90000000596046","3","1","3","1","0.8,0.2,0.2,0.2,0.8,0.2,0.2,0.2,0.8","0.8,0.2,0.2,0.2,0.8,0.2,0.2,0.2,0.8","1","",""
"","html-keyboard-response","15","35470","0.0-15.0","3YGXWBAF713C77USTWK4WWHPTWKC4K","A11JGMLOFFPV65","3UUIU9GZC5R93N292LT21FRJ9VS5TN","","null","<img src=""img/land3.png"" style=""width:200px; border:14px solid green;"">","null","","","","","","","","","",""
"","image-keyboard-response","16","36062","0.0-16.0","3YGXWBAF713C77USTWK4WWHPTWKC4K","A11JGMLOFFPV65","3UUIU9GZC5R93N292LT21FRJ9VS5TN","","590.7999999821186","img/land4.png","75","591.9000000059605","2","0","1","1","0.8,0.2,0.2,0.2,0.8,0.2,0.2,0.2,0.8","0.8,0.2,0.2,0.2,0.8,0.2,0.2,0.2,0.8","1","",""
"","html-keyboard-response","17","36364","0.0-17.0","3YGXWBAF713C77USTWK4WWHPTWKC4K","A11JGMLOFFPV65","3UUIU9GZC5R93N292LT21FRJ9VS5TN","","null","<img src=""img/land4.png"" style=""width:200px;border:14px solid red;"">","null","","","","","","","","","",""
"","image-keyboard-response","18","36747","0.0-18.0","3YGXWBAF713C77USTWK4WWHPTWKC4K","A11JGMLOFFPV65","3UUIU9GZC5R93N292LT21FRJ9VS5TN","","381.2000000178814","img/land4.png","76","382.19999998807907","3","0","1","1","0.8,0.2,0.2,0.2,0.8,0.2,0.2,0.2,0.8","0.8,0.2,0.2,0.2,0.8,0.2,0.2,0.2,0.8","1","",""
"","html-keyboard-response","19","37049","0.0-19.0","3YGXWBAF713C77USTWK4WWHPTWKC4K","A11JGMLOFFPV65","3UUIU9GZC5R93N292LT21FRJ9VS5TN","","null","<img src=""img/land4.png"" style=""width:200px;border:14px solid red;"">","null","","","","","","","","","",""
"","image-keyboard-response","20","37682","0.0-20.0","3YGXWBAF713C77USTWK4WWHPTWKC4K","A11JGMLOFFPV65","3UUIU9GZC5R93N292LT21FRJ9VS5TN","","630.9000000059605","img/land3.png","74","632.2000000178814","1","0","3","1","0.8,0.2,0.2,0.2,0.8,0.2,0.2,0.2,0.8","0.8,0.2,0.2,0.2,0.8,0.2,0.2,0.2,0.8","1","",""
"","html-keyboard-response","21","37984","0.0-21.0","3YGXWBAF713C77USTWK4WWHPTWKC4K","A11JGMLOFFPV65","3UUIU9GZC5R93N292LT21FRJ9VS5TN","","null","<img src=""img/land3.png"" style=""width:200px;border:14px solid red;"">","null","","","","","","","","","",""
"","image-keyboard-response","22","38491","0.0-22.0","3YGXWBAF713C77USTWK4WWHPTWKC4K","A11JGMLOFFPV65","3UUIU9GZC5R93N292LT21FRJ9VS5TN","","506.40000000596046","img/land4.png","75","507.40000000596046","2","0","1","1","0.8,0.2,0.2,0.2,0.8,0.2,0.2,0.2,0.8","0.8,0.2,0.2,0.2,0.8,0.2,0.2,0.2,0.8","1","",""
"","html-keyboard-response","23","38793","0.0-23.0","3YGXWBAF713C77USTWK4WWHPTWKC4K","A11JGMLOFFPV65","3UUIU9GZC5R93N292LT21FRJ9VS5TN","","null","<img src=""img/land4.png"" style=""width:200px;border:14px solid red;"">","null","","","","","","","","","",""
"","image-keyboard-response","24","39227","0.0-24.0","3YGXWBAF713C77USTWK4WWHPTWKC4K","A11JGMLOFFPV65","3UUIU9GZC5R93N292LT21FRJ9VS5TN","","432.2999999821186","img/land4.png","76","433.19999998807907","3","0","1","1","0.8,0.2,0.2,0.2,0.8,0.2,0.2,0.2,0.8","0.8,0.2,0.2,0.2,0.8,0.2,0.2,0.2,0.8","1","",""
"","html-keyboard-response","25","39529","0.0-25.0","3YGXWBAF713C77USTWK4WWHPTWKC4K","A11JGMLOFFPV65","3UUIU9GZC5R93N292LT21FRJ9VS5TN","","null","<img src=""img/land4.png"" style=""width:200px;border:14px solid red;"">","null","","","","","","","","","",""
"","image-keyboard-response","26","40263","0.0-26.0","3YGXWBAF713C77USTWK4WWHPTWKC4K","A11JGMLOFFPV65","3UUIU9GZC5R93N292LT21FRJ9VS5TN","","732.0999999940395","img/land6.png","75","733","2","1","2","1","0.8,0.2,0.2,0.2,0.8,0.2,0.2,0.2,0.8","0.8,0.2,0.2,0.2,0.8,0.2,0.2,0.2,0.8","1","",""
"","html-keyboard-response","27","40565","0.0-27.0","3YGXWBAF713C77USTWK4WWHPTWKC4K","A11JGMLOFFPV65","3UUIU9GZC5R93N292LT21FRJ9VS5TN","","null","<img src=""img/land6.png"" style=""width:200px; border:14px solid green;"">","null","","","","","","","","","",""
"","image-keyboard-response","28","41427","0.0-28.0","3YGXWBAF713C77USTWK4WWHPTWKC4K","A11JGMLOFFPV65","3UUIU9GZC5R93N292LT21FRJ9VS5TN","","860.5999999940395","img/land6.png","76","861.7000000178814","3","0","2","1","0.8,0.2,0.2,0.2,0.8,0.2,0.2,0.2,0.8","0.8,0.2,0.2,0.2,0.8,0.2,0.2,0.2,0.8","1","",""
"","html-keyboard-response","29","41730","0.0-29.0","3YGXWBAF713C77USTWK4WWHPTWKC4K","A11JGMLOFFPV65","3UUIU9GZC5R93N292LT21FRJ9VS5TN","","null","<img src=""img/land6.png"" style=""width:200px;border:14px solid red;"">","null","","","","","","","","","",""
"","image-keyboard-response","30","42317","0.0-30.0","3YGXWBAF713C77USTWK4WWHPTWKC4K","A11JGMLOFFPV65","3UUIU9GZC5R93N292LT21FRJ9VS5TN","","586.5999999940395","img/land3.png","74","587.5","1","0","3","1","0.8,0.2,0.2,0.2,0.8,0.2,0.2,0.2,0.8","0.8,0.2,0.2,0.2,0.8,0.2,0.2,0.2,0.8","1","",""
"","html-keyboard-response","31","42619","0.0-31.0","3YGXWBAF713C77USTWK4WWHPTWKC4K","A11JGMLOFFPV65","3UUIU9GZC5R93N292LT21FRJ9VS5TN","","null","<img src=""img/land3.png"" style=""width:200px;border:14px solid red;"">","null","","","","","","","","","",""
"","image-keyboard-response","32","43172","0.0-32.0","3YGXWBAF713C77USTWK4WWHPTWKC4K","A11JGMLOFFPV65","3UUIU9GZC5R93N292LT21FRJ9VS5TN","","551.9000000059605","img/land4.png","75","552.7000000178814","2","0","1","1","0.8,0.2,0.2,0.2,0.8,0.2,0.2,0.2,0.8","0.8,0.2,0.2,0.2,0.8,0.2,0.2,0.2,0.8","1","",""
"","html-keyboard-response","33","43475","0.0-33.0","3YGXWBAF713C77USTWK4WWHPTWKC4K","A11JGMLOFFPV65","3UUIU9GZC5R93N292LT21FRJ9VS5TN","","null","<img src=""img/land4.png"" style=""width:200px;border:14px solid red;"">","null","","","","","","","","","",""
"","image-keyboard-response","34","44262","0.0-34.0","3YGXWBAF713C77USTWK4WWHPTWKC4K","A11JGMLOFFPV65","3UUIU9GZC5R93N292LT21FRJ9VS5TN","","785.3000000119209","img/land6.png","74","786.3999999761581","1","0","2","1","0.8,0.2,0.2,0.2,0.8,0.2,0.2,0.2,0.8","0.8,0.2,0.2,0.2,0.8,0.2,0.2,0.2,0.8","1","",""
"","html-keyboard-response","35","44564","0.0-35.0","3YGXWBAF713C77USTWK4WWHPTWKC4K","A11JGMLOFFPV65","3UUIU9GZC5R93N292LT21FRJ9VS5TN","","null","<img src=""img/land6.png"" style=""width:200px;border:14px solid red;"">","null","","","","","","","","","",""
"","image-keyboard-response","36","45032","0.0-36.0","3YGXWBAF713C77USTWK4WWHPTWKC4K","A11JGMLOFFPV65","3UUIU9GZC5R93N292LT21FRJ9VS5TN","","467.40000000596046","img/land6.png","76","468.5","3","0","2","1","0.8,0.2,0.2,0.2,0.8,0.2,0.2,0.2,0.8","0.8,0.2,0.2,0.2,0.8,0.2,0.2,0.2,0.8","1","",""
"","html-keyboard-response","37","45334","0.0-37.0","3YGXWBAF713C77USTWK4WWHPTWKC4K","A11JGMLOFFPV65","3UUIU9GZC5R93N292LT21FRJ9VS5TN","","null","<img src=""img/land6.png"" style=""width:200px;border:14px solid red;"">","null","","","","","","","","","",""
"","image-keyboard-response","38","46187","0.0-38.0","3YGXWBAF713C77USTWK4WWHPTWKC4K","A11JGMLOFFPV65","3UUIU9GZC5R93N292LT21FRJ9VS5TN","","851.0999999940395","img/land4.png","75","852.0999999940395","2","0","1","1","0.8,0.2,0.2,0.2,0.8,0.2,0.2,0.2,0.8","0.8,0.2,0.2,0.2,0.8,0.2,0.2,0.2,0.8","1","",""
"","html-keyboard-response","39","46489","0.0-39.0","3YGXWBAF713C77USTWK4WWHPTWKC4K","A11JGMLOFFPV65","3UUIU9GZC5R93N292LT21FRJ9VS5TN","","null","<img src=""img/land4.png"" style=""width:200px;border:14px solid red;"">","null","","","","","","","","","",""
"","image-keyboard-response","40","47357","0.0-40.0","3YGXWBAF713C77USTWK4WWHPTWKC4K","A11JGMLOFFPV65","3UUIU9GZC5R93N292LT21FRJ9VS5TN","","866.6999999880791","img/land3.png","74","867.5","1","0","3","1","0.8,0.2,0.2,0.2,0.8,0.2,0.2,0.2,0.8","0.8,0.2,0.2,0.2,0.8,0.2,0.2,0.2,0.8","1","",""
"","html-keyboard-response","41","47659","0.0-41.0","3YGXWBAF713C77USTWK4WWHPTWKC4K","A11JGMLOFFPV65","3UUIU9GZC5R93N292LT21FRJ9VS5TN","","null","<img src=""img/land3.png"" style=""width:200px;border:14px solid red;"">","null","","","","","","","","","",""
"","image-keyboard-response","42","48362","0.0-42.0","3YGXWBAF713C77USTWK4WWHPTWKC4K","A11JGMLOFFPV65","3UUIU9GZC5R93N292LT21FRJ9VS5TN","","702","img/land3.png","74","703.0999999940395","1","0","3","1","0.8,0.2,0.2,0.2,0.8,0.2,0.2,0.2,0.8","0.8,0.2,0.2,0.2,0.8,0.2,0.2,0.2,0.8","1","",""
"","html-keyboard-response","43","48664","0.0-43.0","3YGXWBAF713C77USTWK4WWHPTWKC4K","A11JGMLOFFPV65","3UUIU9GZC5R93N292LT21FRJ9VS5TN","","null","<img src=""img/land3.png"" style=""width:200px;border:14px solid red;"">","null","","","","","","","","","",""
"","image-keyboard-response","44","49171","0.0-44.0","3YGXWBAF713C77USTWK4WWHPTWKC4K","A11JGMLOFFPV65","3UUIU9GZC5R93N292LT21FRJ9VS5TN","","505.7000000178814","img/land6.png","76","506.80000001192093","3","0","2","1","0.8,0.2,0.2,0.2,0.8,0.2,0.2,0.2,0.8","0.8,0.2,0.2,0.2,0.8,0.2,0.2,0.2,0.8","1","",""
"","html-keyboard-response","45","49474","0.0-45.0","3YGXWBAF713C77USTWK4WWHPTWKC4K","A11JGMLOFFPV65","3UUIU9GZC5R93N292LT21FRJ9VS5TN","","null","<img src=""img/land6.png"" style=""width:200px;border:14px solid red;"">","null","","","","","","","","","",""
"","image-keyboard-response","46","50277","0.0-46.0","3YGXWBAF713C77USTWK4WWHPTWKC4K","A11JGMLOFFPV65","3UUIU9GZC5R93N292LT21FRJ9VS5TN","","802.1999999880791","img/land4.png","75","803.1000000238419","2","1","1","1","0.8,0.2,0.2,0.2,0.8,0.2,0.2,0.2,0.8","0.8,0.2,0.2,0.2,0.8,0.2,0.2,0.2,0.8","1","",""
"","html-keyboard-response","47","50580","0.0-47.0","3YGXWBAF713C77USTWK4WWHPTWKC4K","A11JGMLOFFPV65","3UUIU9GZC5R93N292LT21FRJ9VS5TN","","null","<img src=""img/land4.png"" style=""width:200px; border:14px solid green;"">","null","","","","","","","","","",""
"","image-keyboard-response","48","51747","0.0-48.0","3YGXWBAF713C77USTWK4WWHPTWKC4K","A11JGMLOFFPV65","3UUIU9GZC5R93N292LT21FRJ9VS5TN","","1166.300000011921","img/land6.png","74","1167.300000011921","1","0","2","1","0.8,0.2,0.2,0.2,0.8,0.2,0.2,0.2,0.8","0.8,0.2,0.2,0.2,0.8,0.2,0.2,0.2,0.8","1","",""
"","html-keyboard-response","49","52049","0.0-49.0","3YGXWBAF713C77USTWK4WWHPTWKC4K","A11JGMLOFFPV65","3UUIU9GZC5R93N292LT21FRJ9VS5TN","","null","<img src=""img/land6.png"" style=""width:200px;border:14px solid red;"">","null","","","","","","","","","",""
"","image-keyboard-response","50","53311","0.0-50.0","3YGXWBAF713C77USTWK4WWHPTWKC4K","A11JGMLOFFPV65","3UUIU9GZC5R93N292LT21FRJ9VS5TN","","1260.699999988079","img/land6.png","74","1261.5999999940395","1","0","2","1","0.8,0.2,0.2,0.2,0.8,0.2,0.2,0.2,0.8","0.8,0.2,0.2,0.2,0.8,0.2,0.2,0.2,0.8","1","",""
"","html-keyboard-response","51","53614","0.0-51.0","3YGXWBAF713C77USTWK4WWHPTWKC4K","A11JGMLOFFPV65","3UUIU9GZC5R93N292LT21FRJ9VS5TN","","null","<img src=""img/land6.png"" style=""width:200px;border:14px solid red;"">","null","","","","","","","","","",""
"","image-keyboard-response","52","54977","0.0-52.0","3YGXWBAF713C77USTWK4WWHPTWKC4K","A11JGMLOFFPV65","3UUIU9GZC5R93N292LT21FRJ9VS5TN","","1361.5999999940395","img/land6.png","75","1362.5999999940395","2","1","2","1","0.8,0.2,0.2,0.2,0.8,0.2,0.2,0.2,0.8","0.8,0.2,0.2,0.2,0.8,0.2,0.2,0.2,0.8","1","",""
"","html-keyboard-response","53","55279","0.0-53.0","3YGXWBAF713C77USTWK4WWHPTWKC4K","A11JGMLOFFPV65","3UUIU9GZC5R93N292LT21FRJ9VS5TN","","null","<img src=""img/land6.png"" style=""width:200px; border:14px solid green;"">","null","","","","","","","","","",""
"","image-keyboard-response","54","55481","0.0-54.0","3YGXWBAF713C77USTWK4WWHPTWKC4K","A11JGMLOFFPV65","3UUIU9GZC5R93N292LT21FRJ9VS5TN","","200.5","img/land6.png","75","201.59999999403954","2","1","2","1","0.8,0.2,0.2,0.2,0.8,0.2,0.2,0.2,0.8","0.8,0.2,0.2,0.2,0.8,0.2,0.2,0.2,0.8","1","",""
"","html-keyboard-response","55","55783","0.0-55.0","3YGXWBAF713C77USTWK4WWHPTWKC4K","A11JGMLOFFPV65","3UUIU9GZC5R93N292LT21FRJ9VS5TN","","null","<img src=""img/land6.png"" style=""width:200px; border:14px solid green;"">","null","","","","","","","","","",""
"","image-keyboard-response","56","56751","0.0-56.0","3YGXWBAF713C77USTWK4WWHPTWKC4K","A11JGMLOFFPV65","3UUIU9GZC5R93N292LT21FRJ9VS5TN","","967","img/land6.png","75","967.8999999761581","2","0","2","1","0.8,0.2,0.2,0.2,0.8,0.2,0.2,0.2,0.8","0.8,0.2,0.2,0.2,0.8,0.2,0.2,0.2,0.8","1","",""
"","html-keyboard-response","57","57054","0.0-57.0","3YGXWBAF713C77USTWK4WWHPTWKC4K","A11JGMLOFFPV65","3UUIU9GZC5R93N292LT21FRJ9VS5TN","","null","<img src=""img/land6.png"" style=""width:200px;border:14px solid red;"">","null","","","","","","","","","",""
"","image-keyboard-response","58","58082","0.0-58.0","3YGXWBAF713C77USTWK4WWHPTWKC4K","A11JGMLOFFPV65","3UUIU9GZC5R93N292LT21FRJ9VS5TN","","1027.4000000059605","img/land6.png","76","1028.0999999940395","3","0","2","1","0.8,0.2,0.2,0.2,0.8,0.2,0.2,0.2,0.8","0.8,0.2,0.2,0.2,0.8,0.2,0.2,0.2,0.8","1","",""
"","html-keyboard-response","59","58384","0.0-59.0","3YGXWBAF713C77USTWK4WWHPTWKC4K","A11JGMLOFFPV65","3UUIU9GZC5R93N292LT21FRJ9VS5TN","","null","<img src=""img/land6.png"" style=""width:200px;border:14px solid red;"">","null","","","","","","","","","",""
"","image-keyboard-response","60","60388","0.0-60.0","3YGXWBAF713C77USTWK4WWHPTWKC4K","A11JGMLOFFPV65","3UUIU9GZC5R93N292LT21FRJ9VS5TN","","","img/land6.png","","2002.300000011921","-1","0","2","1","0.8,0.2,0.2,0.2,0.8,0.2,0.2,0.2,0.8","0.8,0.2,0.2,0.2,0.8,0.2,0.2,0.2,0.8","1","",""
"","html-keyboard-response","61","60691","0.0-61.0","3YGXWBAF713C77USTWK4WWHPTWKC4K","A11JGMLOFFPV65","3UUIU9GZC5R93N292LT21FRJ9VS5TN","","null","<img src=""img/land6.png"" style=""width:200px;border:14px solid red;"">","null","","","","","","","","","",""
"","image-keyboard-response","62","60723","0.0-62.0","3YGXWBAF713C77USTWK4WWHPTWKC4K","A11JGMLOFFPV65","3UUIU9GZC5R93N292LT21FRJ9VS5TN","","30.599999994039536","img/land6.png","75","31.69999998807907","2","1","2","1","0.8,0.2,0.2,0.2,0.8,0.2,0.2,0.2,0.8","0.8,0.2,0.2,0.2,0.8,0.2,0.2,0.2,0.8","1","",""
"","html-keyboard-response","63","61025","0.0-63.0","3YGXWBAF713C77USTWK4WWHPTWKC4K","A11JGMLOFFPV65","3UUIU9GZC5R93N292LT21FRJ9VS5TN","","null","<img src=""img/land6.png"" style=""width:200px; border:14px solid green;"">","null","","","","","","","","","",""
"","image-keyboard-response","64","62258","0.0-64.0","3YGXWBAF713C77USTWK4WWHPTWKC4K","A11JGMLOFFPV65","3UUIU9GZC5R93N292LT21FRJ9VS5TN","","1231.5999999940395","img/land3.png","74","1232.4000000059605","1","0","3","1","0.8,0.2,0.2,0.2,0.8,0.2,0.2,0.2,0.8","0.8,0.2,0.2,0.2,0.8,0.2,0.2,0.2,0.8","1","",""
"","html-keyboard-response","65","62561","0.0-65.0","3YGXWBAF713C77USTWK4WWHPTWKC4K","A11JGMLOFFPV65","3UUIU9GZC5R93N292LT21FRJ9VS5TN","","null","<img src=""img/land3.png"" style=""width:200px;border:14px solid red;"">","null","","","","","","","","","",""
"","image-keyboard-response","66","64123","0.0-66.0","3YGXWBAF713C77USTWK4WWHPTWKC4K","A11JGMLOFFPV65","3UUIU9GZC5R93N292LT21FRJ9VS5TN","","1560.800000011921","img/land4.png","74","1561.7000000178814","1","1","1","1","0.8,0.2,0.2,0.2,0.8,0.2,0.2,0.2,0.8","0.8,0.2,0.2,0.2,0.8,0.2,0.2,0.2,0.8","1","",""
"","html-keyboard-response","67","64425","0.0-67.0","3YGXWBAF713C77USTWK4WWHPTWKC4K","A11JGMLOFFPV65","3UUIU9GZC5R93N292LT21FRJ9VS5TN","","null","<img src=""img/land4.png"" style=""width:200px; border:14px solid green;"">","null","","","","","","","","","",""
"","image-keyboard-response","68","65663","0.0-68.0","3YGXWBAF713C77USTWK4WWHPTWKC4K","A11JGMLOFFPV65","3UUIU9GZC5R93N292LT21FRJ9VS5TN","","1236.5","img/land6.png","74","1237.4000000059605","1","0","2","1","0.8,0.2,0.2,0.2,0.8,0.2,0.2,0.2,0.8","0.8,0.2,0.2,0.2,0.8,0.2,0.2,0.2,0.8","1","",""
"","html-keyboard-response","69","65965","0.0-69.0","3YGXWBAF713C77USTWK4WWHPTWKC4K","A11JGMLOFFPV65","3UUIU9GZC5R93N292LT21FRJ9VS5TN","","null","<img src=""img/land6.png"" style=""width:200px;border:14px solid red;"">","null","","","","","","","","","",""
"","image-keyboard-response","70","66402","0.0-70.0","3YGXWBAF713C77USTWK4WWHPTWKC4K","A11JGMLOFFPV65","3UUIU9GZC5R93N292LT21FRJ9VS5TN","","436.5","img/land3.png","75","437.30000001192093","2","0","3","1","0.8,0.2,0.2,0.2,0.8,0.2,0.2,0.2,0.8","0.8,0.2,0.2,0.2,0.8,0.2,0.2,0.2,0.8","1","",""
"","html-keyboard-response","71","66705","0.0-71.0","3YGXWBAF713C77USTWK4WWHPTWKC4K","A11JGMLOFFPV65","3UUIU9GZC5R93N292LT21FRJ9VS5TN","","null","<img src=""img/land3.png"" style=""width:200px;border:14px solid red;"">","null","","","","","","","","","",""
"","image-keyboard-response","72","67342","0.0-72.0","3YGXWBAF713C77USTWK4WWHPTWKC4K","A11JGMLOFFPV65","3UUIU9GZC5R93N292LT21FRJ9VS5TN","","636.2999999821186","img/land3.png","76","637.2999999821186","3","1","3","1","0.8,0.2,0.2,0.2,0.8,0.2,0.2,0.2,0.8","0.8,0.2,0.2,0.2,0.8,0.2,0.2,0.2,0.8","1","",""
"","html-keyboard-response","73","67644","0.0-73.0","3YGXWBAF713C77USTWK4WWHPTWKC4K","A11JGMLOFFPV65","3UUIU9GZC5R93N292LT21FRJ9VS5TN","","null","<img src=""img/land3.png"" style=""width:200px; border:14px solid green;"">","null","","","","","","","","","",""
"","image-keyboard-response","74","68843","0.0-74.0","3YGXWBAF713C77USTWK4WWHPTWKC4K","A11JGMLOFFPV65","3UUIU9GZC5R93N292LT21FRJ9VS5TN","","1197.5","img/land4.png","74","1198.199999988079","1","1","1","1","0.8,0.2,0.2,0.2,0.8,0.2,0.2,0.2,0.8","0.8,0.2,0.2,0.2,0.8,0.2,0.2,0.2,0.8","1","",""
"","html-keyboard-response","75","69145","0.0-75.0","3YGXWBAF713C77USTWK4WWHPTWKC4K","A11JGMLOFFPV65","3UUIU9GZC5R93N292LT21FRJ9VS5TN","","null","<img src=""img/land4.png"" style=""width:200px; border:14px solid green;"">","null","","","","","","","","","",""
"","image-keyboard-response","76","70187","0.0-76.0","3YGXWBAF713C77USTWK4WWHPTWKC4K","A11JGMLOFFPV65","3UUIU9GZC5R93N292LT21FRJ9VS5TN","","1041","img/land3.png","76","1041.699999988079","3","0","3","1","0.8,0.2,0.2,0.2,0.8,0.2,0.2,0.2,0.8","0.8,0.2,0.2,0.2,0.8,0.2,0.2,0.2,0.8","1","",""
"","html-keyboard-response","77","70489","0.0-77.0","3YGXWBAF713C77USTWK4WWHPTWKC4K","A11JGMLOFFPV65","3UUIU9GZC5R93N292LT21FRJ9VS5TN","","null","<img src=""img/land3.png"" style=""width:200px;border:14px solid red;"">","null","","","","","","","","","",""
"","image-keyboard-response","78","71512","0.0-78.0","3YGXWBAF713C77USTWK4WWHPTWKC4K","A11JGMLOFFPV65","3UUIU9GZC5R93N292LT21FRJ9VS5TN","","1021.7000000178814","img/land3.png","76","1022.7000000178814","3","1","3","1","0.8,0.2,0.2,0.2,0.8,0.2,0.2,0.2,0.8","0.8,0.2,0.2,0.2,0.8,0.2,0.2,0.2,0.8","1","",""
"","html-keyboard-response","79","71815","0.0-79.0","3YGXWBAF713C77USTWK4WWHPTWKC4K","A11JGMLOFFPV65","3UUIU9GZC5R93N292LT21FRJ9VS5TN","","null","<img src=""img/land3.png"" style=""width:200px; border:14px solid green;"">","null","","","","","","","","","",""
"","image-keyboard-response","80","73375","0.0-80.0","3YGXWBAF713C77USTWK4WWHPTWKC4K","A11JGMLOFFPV65","3UUIU9GZC5R93N292LT21FRJ9VS5TN","","1558.800000011921","img/land4.png","74","1559.800000011921","1","0","1","1","0.8,0.2,0.2,0.2,0.8,0.2,0.2,0.2,0.8","0.8,0.2,0.2,0.2,0.8,0.2,0.2,0.2,0.8","1","",""
"","html-keyboard-response","81","73677","0.0-81.0","3YGXWBAF713C77USTWK4WWHPTWKC4K","A11JGMLOFFPV65","3UUIU9GZC5R93N292LT21FRJ9VS5TN","","null","<img src=""img/land4.png"" style=""width:200px;border:14px solid red;"">","null","","","","","","","","","",""
"","image-keyboard-response","82","74537","0.0-82.0","3YGXWBAF713C77USTWK4WWHPTWKC4K","A11JGMLOFFPV65","3UUIU9GZC5R93N292LT21FRJ9VS5TN","","858.5","img/land6.png","75","859.4000000059605","2","1","2","1","0.8,0.2,0.2,0.2,0.8,0.2,0.2,0.2,0.8","0.8,0.2,0.2,0.2,0.8,0.2,0.2,0.2,0.8","1","",""
"","html-keyboard-response","83","74839","0.0-83.0","3YGXWBAF713C77USTWK4WWHPTWKC4K","A11JGMLOFFPV65","3UUIU9GZC5R93N292LT21FRJ9VS5TN","","null","<img src=""img/land6.png"" style=""width:200px; border:14px solid green;"">","null","","","","","","","","","",""
"","image-keyboard-response","84","76188","0.0-84.0","3YGXWBAF713C77USTWK4WWHPTWKC4K","A11JGMLOFFPV65","3UUIU9GZC5R93N292LT21FRJ9VS5TN","","1347.5","img/land4.png","74","1348.5","1","1","1","1","0.8,0.2,0.2,0.2,0.8,0.2,0.2,0.2,0.8","0.8,0.2,0.2,0.2,0.8,0.2,0.2,0.2,0.8","1","",""
"","html-keyboard-response","85","76490","0.0-85.0","3YGXWBAF713C77USTWK4WWHPTWKC4K","A11JGMLOFFPV65","3UUIU9GZC5R93N292LT21FRJ9VS5TN","","null","<img src=""img/land4.png"" style=""width:200px; border:14px solid green;"">","null","","","","","","","","","",""
"","image-keyboard-response","86","77833","0.0-86.0","3YGXWBAF713C77USTWK4WWHPTWKC4K","A11JGMLOFFPV65","3UUIU9GZC5R93N292LT21FRJ9VS5TN","","1341.2999999821186","img/land4.png","74","1342.300000011921","1","1","1","1","0.8,0.2,0.2,0.2,0.8,0.2,0.2,0.2,0.8","0.8,0.2,0.2,0.2,0.8,0.2,0.2,0.2,0.8","1","",""
"","html-keyboard-response","87","78135","0.0-87.0","3YGXWBAF713C77USTWK4WWHPTWKC4K","A11JGMLOFFPV65","3UUIU9GZC5R93N292LT21FRJ9VS5TN","","null","<img src=""img/land4.png"" style=""width:200px; border:14px solid green;"">","null","","","","","","","","","",""
"","image-keyboard-response","88","79362","0.0-88.0","3YGXWBAF713C77USTWK4WWHPTWKC4K","A11JGMLOFFPV65","3UUIU9GZC5R93N292LT21FRJ9VS5TN","","1225.5","img/land4.png","74","1226.5","1","0","1","1","0.8,0.2,0.2,0.2,0.8,0.2,0.2,0.2,0.8","0.8,0.2,0.2,0.2,0.8,0.2,0.2,0.2,0.8","1","",""
"","html-keyboard-response","89","79665","0.0-89.0","3YGXWBAF713C77USTWK4WWHPTWKC4K","A11JGMLOFFPV65","3UUIU9GZC5R93N292LT21FRJ9VS5TN","","null","<img src=""img/land4.png"" style=""width:200px;border:14px solid red;"">","null","","","","","","","","","",""
"","image-keyboard-response","90","80402","0.0-90.0","3YGXWBAF713C77USTWK4WWHPTWKC4K","A11JGMLOFFPV65","3UUIU9GZC5R93N292LT21FRJ9VS5TN","","736.1999999880791","img/land3.png","75","737.3000000119209","2","0","3","1","0.8,0.2,0.2,0.2,0.8,0.2,0.2,0.2,0.8","0.8,0.2,0.2,0.2,0.8,0.2,0.2,0.2,0.8","1","",""
"","html-keyboard-response","91","80704","0.0-91.0","3YGXWBAF713C77USTWK4WWHPTWKC4K","A11JGMLOFFPV65","3UUIU9GZC5R93N292LT21FRJ9VS5TN","","null","<img src=""img/land3.png"" style=""width:200px;border:14px solid red;"">","null","","","","","","","","","",""
"","image-keyboard-response","92","80772","0.0-92.0","3YGXWBAF713C77USTWK4WWHPTWKC4K","A11JGMLOFFPV65","3UUIU9GZC5R93N292LT21FRJ9VS5TN","","66.90000000596046","img/land4.png","76","67.89999997615814","3","0","1","1","0.8,0.2,0.2,0.2,0.8,0.2,0.2,0.2,0.8","0.8,0.2,0.2,0.2,0.8,0.2,0.2,0.2,0.8","1","",""
"","html-keyboard-response","93","81075","0.0-93.0","3YGXWBAF713C77USTWK4WWHPTWKC4K","A11JGMLOFFPV65","3UUIU9GZC5R93N292LT21FRJ9VS5TN","","null","<img src=""img/land4.png"" style=""width:200px;border:14px solid red;"">","null","","","","","","","","","",""
"","image-keyboard-response","94","82232","0.0-94.0","3YGXWBAF713C77USTWK4WWHPTWKC4K","A11JGMLOFFPV65","3UUIU9GZC5R93N292LT21FRJ9VS5TN","","1156.5","img/land3.png","76","1157.300000011921","3","1","3","1","0.8,0.2,0.2,0.2,0.8,0.2,0.2,0.2,0.8","0.8,0.2,0.2,0.2,0.8,0.2,0.2,0.2,0.8","1","",""
"","html-keyboard-response","95","82535","0.0-95.0","3YGXWBAF713C77USTWK4WWHPTWKC4K","A11JGMLOFFPV65","3UUIU9GZC5R93N292LT21FRJ9VS5TN","","null","<img src=""img/land3.png"" style=""width:200px; border:14px solid green;"">","null","","","","","","","","","",""
"","image-keyboard-response","96","84418","0.0-96.0","3YGXWBAF713C77USTWK4WWHPTWKC4K","A11JGMLOFFPV65","3UUIU9GZC5R93N292LT21FRJ9VS5TN","","1882.800000011921","img/land4.png","74","1883.800000011921","1","1","1","1","0.8,0.2,0.2,0.2,0.8,0.2,0.2,0.2,0.8","0.8,0.2,0.2,0.2,0.8,0.2,0.2,0.2,0.8","1","",""
"","html-keyboard-response","97","84721","0.0-97.0","3YGXWBAF713C77USTWK4WWHPTWKC4K","A11JGMLOFFPV65","3UUIU9GZC5R93N292LT21FRJ9VS5TN","","null","<img src=""img/land4.png"" style=""width:200px; border:14px solid green;"">","null","","","","","","","","","",""
"","image-keyboard-response","98","86723","0.0-98.0","3YGXWBAF713C77USTWK4WWHPTWKC4K","A11JGMLOFFPV65","3UUIU9GZC5R93N292LT21FRJ9VS5TN","","","img/land4.png","","2002.300000011921","-1","0","1","1","0.8,0.2,0.2,0.2,0.8,0.2,0.2,0.2,0.8","0.8,0.2,0.2,0.2,0.8,0.2,0.2,0.2,0.8","1","",""
"","html-keyboard-response","99","87026","0.0-99.0","3YGXWBAF713C77USTWK4WWHPTWKC4K","A11JGMLOFFPV65","3UUIU9GZC5R93N292LT21FRJ9VS5TN","","null","<img src=""img/land4.png"" style=""width:200px;border:14px solid red;"">","null","","","","","","","","","",""
"","image-keyboard-response","100","87237","0.0-100.0","3YGXWBAF713C77USTWK4WWHPTWKC4K","A11JGMLOFFPV65","3UUIU9GZC5R93N292LT21FRJ9VS5TN","","209.5","img/land4.png","74","210.5","1","1","1","1","0.8,0.2,0.2,0.2,0.8,0.2,0.2,0.2,0.8","0.8,0.2,0.2,0.2,0.8,0.2,0.2,0.2,0.8","1","",""
"","html-keyboard-response","101","87539","0.0-101.0","3YGXWBAF713C77USTWK4WWHPTWKC4K","A11JGMLOFFPV65","3UUIU9GZC5R93N292LT21FRJ9VS5TN","","null","<img src=""img/land4.png"" style=""width:200px; border:14px solid green;"">","null","","","","","","","","","",""
"","image-keyboard-response","102","88682","0.0-102.0","3YGXWBAF713C77USTWK4WWHPTWKC4K","A11JGMLOFFPV65","3UUIU9GZC5R93N292LT21FRJ9VS5TN","","1141.5","img/land6.png","75","1142.5999999940395","2","1","2","1","0.8,0.2,0.2,0.2,0.8,0.2,0.2,0.2,0.8","0.8,0.2,0.2,0.2,0.8,0.2,0.2,0.2,0.8","1","",""
"","html-keyboard-response","103","88984","0.0-103.0","3YGXWBAF713C77USTWK4WWHPTWKC4K","A11JGMLOFFPV65","3UUIU9GZC5R93N292LT21FRJ9VS5TN","","null","<img src=""img/land6.png"" style=""width:200px; border:14px solid green;"">","null","","","","","","","","","",""
"","image-keyboard-response","104","90222","0.0-104.0","3YGXWBAF713C77USTWK4WWHPTWKC4K","A11JGMLOFFPV65","3UUIU9GZC5R93N292LT21FRJ9VS5TN","","1236.6000000238419","img/land3.png","76","1237.4000000059605","3","1","3","1","0.8,0.2,0.2,0.2,0.8,0.2,0.2,0.2,0.8","0.8,0.2,0.2,0.2,0.8,0.2,0.2,0.2,0.8","1","",""
"","html-keyboard-response","105","90524","0.0-105.0","3YGXWBAF713C77USTWK4WWHPTWKC4K","A11JGMLOFFPV65","3UUIU9GZC5R93N292LT21FRJ9VS5TN","","null","<img src=""img/land3.png"" style=""width:200px; border:14px solid green;"">","null","","","","","","","","","",""
"","image-keyboard-response","106","91602","0.0-106.0","3YGXWBAF713C77USTWK4WWHPTWKC4K","A11JGMLOFFPV65","3UUIU9GZC5R93N292LT21FRJ9VS5TN","","1076.7999999821186","img/land3.png","76","1077.800000011921","3","1","3","1","0.8,0.2,0.2,0.2,0.8,0.2,0.2,0.2,0.8","0.8,0.2,0.2,0.2,0.8,0.2,0.2,0.2,0.8","1","",""
"","html-keyboard-response","107","91905","0.0-107.0","3YGXWBAF713C77USTWK4WWHPTWKC4K","A11JGMLOFFPV65","3UUIU9GZC5R93N292LT21FRJ9VS5TN","","null","<img src=""img/land3.png"" style=""width:200px; border:14px solid green;"">","null","","","","","","","","","",""
"","image-keyboard-response","108","93721","0.0-108.0","3YGXWBAF713C77USTWK4WWHPTWKC4K","A11JGMLOFFPV65","3UUIU9GZC5R93N292LT21FRJ9VS5TN","","1815.699999988079","img/land3.png","76","1816.5","3","1","3","1","0.8,0.2,0.2,0.2,0.8,0.2,0.2,0.2,0.8","0.8,0.2,0.2,0.2,0.8,0.2,0.2,0.2,0.8","1","",""
"","html-keyboard-response","109","94024","0.0-109.0","3YGXWBAF713C77USTWK4WWHPTWKC4K","A11JGMLOFFPV65","3UUIU9GZC5R93N292LT21FRJ9VS5TN","","null","<img src=""img/land3.png"" style=""width:200px; border:14px solid green;"">","null","","","","","","","","","",""
"","image-keyboard-response","110","95137","0.0-110.0","3YGXWBAF713C77USTWK4WWHPTWKC4K","A11JGMLOFFPV65","3UUIU9GZC5R93N292LT21FRJ9VS5TN","","1112.300000011921","img/land4.png","74","1113.0999999940395","1","1","1","1","0.8,0.2,0.2,0.2,0.8,0.2,0.2,0.2,0.8","0.8,0.2,0.2,0.2,0.8,0.2,0.2,0.2,0.8","1","",""
"","html-keyboard-response","111","95439","0.0-111.0","3YGXWBAF713C77USTWK4WWHPTWKC4K","A11JGMLOFFPV65","3UUIU9GZC5R93N292LT21FRJ9VS5TN","","null","<img src=""img/land4.png"" style=""width:200px; border:14px solid green;"">","null","","","","","","","","","",""
"","image-keyboard-response","112","96522","0.0-112.0","3YGXWBAF713C77USTWK4WWHPTWKC4K","A11JGMLOFFPV65","3UUIU9GZC5R93N292LT21FRJ9VS5TN","","1081.2000000178814","img/land6.png","75","1082.2000000178814","2","1","2","1","0.8,0.2,0.2,0.2,0.8,0.2,0.2,0.2,0.8","0.8,0.2,0.2,0.2,0.8,0.2,0.2,0.2,0.8","1","",""
"","html-keyboard-response","113","96824","0.0-113.0","3YGXWBAF713C77USTWK4WWHPTWKC4K","A11JGMLOFFPV65","3UUIU9GZC5R93N292LT21FRJ9VS5TN","","null","<img src=""img/land6.png"" style=""width:200px; border:14px solid green;"">","null","","","","","","","","","",""
"","image-keyboard-response","114","97951","0.0-114.0","3YGXWBAF713C77USTWK4WWHPTWKC4K","A11JGMLOFFPV65","3UUIU9GZC5R93N292LT21FRJ9VS5TN","","1126.3999999761581","img/land3.png","76","1127.4000000059605","3","1","3","1","0.8,0.2,0.2,0.2,0.8,0.2,0.2,0.2,0.8","0.8,0.2,0.2,0.2,0.8,0.2,0.2,0.2,0.8","1","",""
"","html-keyboard-response","115","98253","0.0-115.0","3YGXWBAF713C77USTWK4WWHPTWKC4K","A11JGMLOFFPV65","3UUIU9GZC5R93N292LT21FRJ9VS5TN","","null","<img src=""img/land3.png"" style=""width:200px; border:14px solid green;"">","null","","","","","","","","","",""
"","image-keyboard-response","116","99647","0.0-116.0","3YGXWBAF713C77USTWK4WWHPTWKC4K","A11JGMLOFFPV65","3UUIU9GZC5R93N292LT21FRJ9VS5TN","","1392.4000000059605","img/land6.png","75","1393.2000000178814","2","1","2","1","0.8,0.2,0.2,0.2,0.8,0.2,0.2,0.2,0.8","0.8,0.2,0.2,0.2,0.8,0.2,0.2,0.2,0.8","1","",""
"","html-keyboard-response","117","99949","0.0-117.0","3YGXWBAF713C77USTWK4WWHPTWKC4K","A11JGMLOFFPV65","3UUIU9GZC5R93N292LT21FRJ9VS5TN","","null","<img src=""img/land6.png"" style=""width:200px; border:14px solid green;"">","null","","","","","","","","","",""
"","image-keyboard-response","118","101946","0.0-118.0","3YGXWBAF713C77USTWK4WWHPTWKC4K","A11JGMLOFFPV65","3UUIU9GZC5R93N292LT21FRJ9VS5TN","","1996.300000011921","img/land6.png","75","1997.300000011921","2","1","2","1","0.8,0.2,0.2,0.2,0.8,0.2,0.2,0.2,0.8","0.8,0.2,0.2,0.2,0.8,0.2,0.2,0.2,0.8","1","",""
"","html-keyboard-response","119","102249","0.0-119.0","3YGXWBAF713C77USTWK4WWHPTWKC4K","A11JGMLOFFPV65","3UUIU9GZC5R93N292LT21FRJ9VS5TN","","null","<img src=""img/land6.png"" style=""width:200px; border:14px solid green;"">","null","","","","","","","","","",""
"","image-keyboard-response","120","104252","0.0-120.0","3YGXWBAF713C77USTWK4WWHPTWKC4K","A11JGMLOFFPV65","3UUIU9GZC5R93N292LT21FRJ9VS5TN","","","img/land4.png","","2002.199999988079","-1","0","1","1","0.8,0.2,0.2,0.2,0.8,0.2,0.2,0.2,0.8","0.8,0.2,0.2,0.2,0.8,0.2,0.2,0.2,0.8","1","",""
"","html-keyboard-response","121","104554","0.0-121.0","3YGXWBAF713C77USTWK4WWHPTWKC4K","A11JGMLOFFPV65","3UUIU9GZC5R93N292LT21FRJ9VS5TN","","null","<img src=""img/land4.png"" style=""width:200px;border:14px solid red;"">","null","","","","","","","","","",""
"","image-keyboard-response","122","105511","0.0-122.0","3YGXWBAF713C77USTWK4WWHPTWKC4K","A11JGMLOFFPV65","3UUIU9GZC5R93N292LT21FRJ9VS5TN","","955.8000000119209","img/land4.png","74","956.5","1","1","1","1","0.8,0.2,0.2,0.2,0.8,0.2,0.2,0.2,0.8","0.8,0.2,0.2,0.2,0.8,0.2,0.2,0.2,0.8","1","",""
"","html-keyboard-response","123","105814","0.0-123.0","3YGXWBAF713C77USTWK4WWHPTWKC4K","A11JGMLOFFPV65","3UUIU9GZC5R93N292LT21FRJ9VS5TN","","null","<img src=""img/land4.png"" style=""width:200px; border:14px solid green;"">","null","","","","","","","","","",""
"","image-keyboard-response","124","106856","0.0-124.0","3YGXWBAF713C77USTWK4WWHPTWKC4K","A11JGMLOFFPV65","3UUIU9GZC5R93N292LT21FRJ9VS5TN","","1040.5999999940395","img/land3.png","76","1041.5999999940395","3","1","3","1","0.8,0.2,0.2,0.2,0.8,0.2,0.2,0.2,0.8","0.8,0.2,0.2,0.2,0.8,0.2,0.2,0.2,0.8","1","",""
"","html-keyboard-response","125","107159","0.0-125.0","3YGXWBAF713C77USTWK4WWHPTWKC4K","A11JGMLOFFPV65","3UUIU9GZC5R93N292LT21FRJ9VS5TN","","null","<img src=""img/land3.png"" style=""width:200px; border:14px solid green;"">","null","","","","","","","","","",""
"","image-keyboard-response","126","108231","0.0-126.0","3YGXWBAF713C77USTWK4WWHPTWKC4K","A11JGMLOFFPV65","3UUIU9GZC5R93N292LT21FRJ9VS5TN","","1071.5999999940395","img/land6.png","75","1072.2999999821186","2","1","2","1","0.8,0.2,0.2,0.2,0.8,0.2,0.2,0.2,0.8","0.8,0.2,0.2,0.2,0.8,0.2,0.2,0.2,0.8","1","",""
"","html-keyboard-response","127","108533","0.0-127.0","3YGXWBAF713C77USTWK4WWHPTWKC4K","A11JGMLOFFPV65","3UUIU9GZC5R93N292LT21FRJ9VS5TN","","null","<img src=""img/land6.png"" style=""width:200px; border:14px solid green;"">","null","","","","","","","","","",""
"","image-keyboard-response","128","110531","0.0-128.0","3YGXWBAF713C77USTWK4WWHPTWKC4K","A11JGMLOFFPV65","3UUIU9GZC5R93N292LT21FRJ9VS5TN","","1996.800000011921","img/land3.png","76","1997.9000000059605","3","1","3","1","0.8,0.2,0.2,0.2,0.8,0.2,0.2,0.2,0.8","0.8,0.2,0.2,0.2,0.8,0.2,0.2,0.2,0.8","1","",""
"","html-keyboard-response","129","110833","0.0-129.0","3YGXWBAF713C77USTWK4WWHPTWKC4K","A11JGMLOFFPV65","3UUIU9GZC5R93N292LT21FRJ9VS5TN","","null","<img src=""img/land3.png"" style=""width:200px; border:14px solid green;"">","null","","","","","","","","","",""
"","image-keyboard-response","130","112151","0.0-130.0","3YGXWBAF713C77USTWK4WWHPTWKC4K","A11JGMLOFFPV65","3UUIU9GZC5R93N292LT21FRJ9VS5TN","","1316.2999999821186","img/land6.png","75","1317.2000000178814","2","1","2","1","0.8,0.2,0.2,0.2,0.8,0.2,0.2,0.2,0.8","0.8,0.2,0.2,0.2,0.8,0.2,0.2,0.2,0.8","1","",""
"","html-keyboard-response","131","112453","0.0-131.0","3YGXWBAF713C77USTWK4WWHPTWKC4K","A11JGMLOFFPV65","3UUIU9GZC5R93N292LT21FRJ9VS5TN","","null","<img src=""img/land6.png"" style=""width:200px; border:14px solid green;"">","null","","","","","","","","","",""
"","image-keyboard-response","132","114191","0.0-132.0","3YGXWBAF713C77USTWK4WWHPTWKC4K","A11JGMLOFFPV65","3UUIU9GZC5R93N292LT21FRJ9VS5TN","","1737","img/land4.png","74","1738.0999999940395","1","1","1","1","0.8,0.2,0.2,0.2,0.8,0.2,0.2,0.2,0.8","0.8,0.2,0.2,0.2,0.8,0.2,0.2,0.2,0.8","1","",""
"","html-keyboard-response","133","114493","0.0-133.0","3YGXWBAF713C77USTWK4WWHPTWKC4K","A11JGMLOFFPV65","3UUIU9GZC5R93N292LT21FRJ9VS5TN","","null","<img src=""img/land4.png"" style=""width:200px; border:14px solid green;"">","null","","","","","","","","","",""
"","image-keyboard-response","134","115542","0.0-134.0","3YGXWBAF713C77USTWK4WWHPTWKC4K","A11JGMLOFFPV65","3UUIU9GZC5R93N292LT21FRJ9VS5TN","","1047.4000000059605","img/land3.png","76","1048.5","3","1","3","1","0.8,0.2,0.2,0.2,0.8,0.2,0.2,0.2,0.8","0.8,0.2,0.2,0.2,0.8,0.2,0.2,0.2,0.8","1","",""
"","html-keyboard-response","135","115845","0.0-135.0","3YGXWBAF713C77USTWK4WWHPTWKC4K","A11JGMLOFFPV65","3UUIU9GZC5R93N292LT21FRJ9VS5TN","","null","<img src=""img/land3.png"" style=""width:200px; border:14px solid green;"">","null","","","","","","","","","",""
"","image-keyboard-response","136","117847","0.0-136.0","3YGXWBAF713C77USTWK4WWHPTWKC4K","A11JGMLOFFPV65","3UUIU9GZC5R93N292LT21FRJ9VS5TN","","","img/land3.png","","2002.300000011921","-1","0","3","1","0.8,0.2,0.2,0.2,0.8,0.2,0.2,0.2,0.8","0.8,0.2,0.2,0.2,0.8,0.2,0.2,0.2,0.8","1","",""
"","html-keyboard-response","137","118149","0.0-137.0","3YGXWBAF713C77USTWK4WWHPTWKC4K","A11JGMLOFFPV65","3UUIU9GZC5R93N292LT21FRJ9VS5TN","","null","<img src=""img/land3.png"" style=""width:200px;border:14px solid red;"">","null","","","","","","","","","",""
"","image-keyboard-response","138","119062","0.0-138.0","3YGXWBAF713C77USTWK4WWHPTWKC4K","A11JGMLOFFPV65","3UUIU9GZC5R93N292LT21FRJ9VS5TN","","911.5","img/land3.png","76","912.5","3","0","3","1","0.8,0.2,0.2,0.2,0.8,0.2,0.2,0.2,0.8","0.8,0.2,0.2,0.2,0.8,0.2,0.2,0.2,0.8","1","",""
"","html-keyboard-response","139","119365","0.0-139.0","3YGXWBAF713C77USTWK4WWHPTWKC4K","A11JGMLOFFPV65","3UUIU9GZC5R93N292LT21FRJ9VS5TN","","null","<img src=""img/land3.png"" style=""width:200px;border:14px solid red;"">","null","","","","","","","","","",""
"","image-keyboard-response","140","120361","0.0-140.0","3YGXWBAF713C77USTWK4WWHPTWKC4K","A11JGMLOFFPV65","3UUIU9GZC5R93N292LT21FRJ9VS5TN","","994.8000000119209","img/land3.png","76","995.6999999880791","3","1","3","1","0.8,0.2,0.2,0.2,0.8,0.2,0.2,0.2,0.8","0.8,0.2,0.2,0.2,0.8,0.2,0.2,0.2,0.8","1","",""
"","html-keyboard-response","141","120665","0.0-141.0","3YGXWBAF713C77USTWK4WWHPTWKC4K","A11JGMLOFFPV65","3UUIU9GZC5R93N292LT21FRJ9VS5TN","","null","<img src=""img/land3.png"" style=""width:200px; border:14px solid green;"">","null","","","","","","","","","",""
"","image-keyboard-response","142","122667","0.0-142.0","3YGXWBAF713C77USTWK4WWHPTWKC4K","A11JGMLOFFPV65","3UUIU9GZC5R93N292LT21FRJ9VS5TN","","","img/land3.png","","2002.2999999821186","-1","0","3","1","0.8,0.2,0.2,0.2,0.8,0.2,0.2,0.2,0.8","0.8,0.2,0.2,0.2,0.8,0.2,0.2,0.2,0.8","1","",""
"","html-keyboard-response","143","122969","0.0-143.0","3YGXWBAF713C77USTWK4WWHPTWKC4K","A11JGMLOFFPV65","3UUIU9GZC5R93N292LT21FRJ9VS5TN","","null","<img src=""img/land3.png"" style=""width:200px;border:14px solid red;"">","null","","","","","","","","","",""
"","image-keyboard-response","144","123772","0.0-144.0","3YGXWBAF713C77USTWK4WWHPTWKC4K","A11JGMLOFFPV65","3UUIU9GZC5R93N292LT21FRJ9VS5TN","","802.3999999761581","img/land3.png","76","803.2000000178814","3","1","3","1","0.8,0.2,0.2,0.2,0.8,0.2,0.2,0.2,0.8","0.8,0.2,0.2,0.2,0.8,0.2,0.2,0.2,0.8","1","",""
"","html-keyboard-response","145","124075","0.0-145.0","3YGXWBAF713C77USTWK4WWHPTWKC4K","A11JGMLOFFPV65","3UUIU9GZC5R93N292LT21FRJ9VS5TN","","null","<img src=""img/land3.png"" style=""width:200px; border:14px solid green;"">","null","","","","","","","","","",""
"","image-keyboard-response","146","125373","0.0-146.0","3YGXWBAF713C77USTWK4WWHPTWKC4K","A11JGMLOFFPV65","3UUIU9GZC5R93N292LT21FRJ9VS5TN","","1296.9000000059605","img/land4.png","74","1297.7999999821186","1","1","1","1","0.8,0.2,0.2,0.2,0.8,0.2,0.2,0.2,0.8","0.8,0.2,0.2,0.2,0.8,0.2,0.2,0.2,0.8","1","",""
"","html-keyboard-response","147","125675","0.0-147.0","3YGXWBAF713C77USTWK4WWHPTWKC4K","A11JGMLOFFPV65","3UUIU9GZC5R93N292LT21FRJ9VS5TN","","null","<img src=""img/land4.png"" style=""width:200px; border:14px solid green;"">","null","","","","","","","","","",""
"","image-keyboard-response","148","127147","0.0-148.0","3YGXWBAF713C77USTWK4WWHPTWKC4K","A11JGMLOFFPV65","3UUIU9GZC5R93N292LT21FRJ9VS5TN","","1470.800000011921","img/land4.png","74","1471.7999999821186","1","1","1","1","0.8,0.2,0.2,0.2,0.8,0.2,0.2,0.2,0.8","0.8,0.2,0.2,0.2,0.8,0.2,0.2,0.2,0.8","1","",""
"","html-keyboard-response","149","127450","0.0-149.0","3YGXWBAF713C77USTWK4WWHPTWKC4K","A11JGMLOFFPV65","3UUIU9GZC5R93N292LT21FRJ9VS5TN","","null","<img src=""img/land4.png"" style=""width:200px; border:14px solid green;"">","null","","","","","","","","","",""
"","image-keyboard-response","150","128482","0.0-150.0","3YGXWBAF713C77USTWK4WWHPTWKC4K","A11JGMLOFFPV65","3UUIU9GZC5R93N292LT21FRJ9VS5TN","","1031.800000011921","img/land3.png","76","1032.5999999940395","3","1","3","1","0.8,0.2,0.2,0.2,0.8,0.2,0.2,0.2,0.8","0.8,0.2,0.2,0.2,0.8,0.2,0.2,0.2,0.8","1","",""
"","html-keyboard-response","151","128785","0.0-151.0","3YGXWBAF713C77USTWK4WWHPTWKC4K","A11JGMLOFFPV65","3UUIU9GZC5R93N292LT21FRJ9VS5TN","","null","<img src=""img/land3.png"" style=""width:200px; border:14px solid green;"">","null","","","","","","","","","",""
"","image-keyboard-response","152","130463","0.0-152.0","3YGXWBAF713C77USTWK4WWHPTWKC4K","A11JGMLOFFPV65","3UUIU9GZC5R93N292LT21FRJ9VS5TN","","1676.5999999940395","img/land6.png","75","1677.5999999940395","2","1","2","1","0.8,0.2,0.2,0.2,0.8,0.2,0.2,0.2,0.8","0.8,0.2,0.2,0.2,0.8,0.2,0.2,0.2,0.8","1","",""
"","html-keyboard-response","153","130765","0.0-153.0","3YGXWBAF713C77USTWK4WWHPTWKC4K","A11JGMLOFFPV65","3UUIU9GZC5R93N292LT21FRJ9VS5TN","","null","<img src=""img/land6.png"" style=""width:200px; border:14px solid green;"">","null","","","","","","","","","",""
"","image-keyboard-response","154","132742","0.0-154.0","3YGXWBAF713C77USTWK4WWHPTWKC4K","A11JGMLOFFPV65","3UUIU9GZC5R93N292LT21FRJ9VS5TN","","1976.4000000059605","img/land4.png","74","1977.199999988079","1","1","1","1","0.8,0.2,0.2,0.2,0.8,0.2,0.2,0.2,0.8","0.8,0.2,0.2,0.2,0.8,0.2,0.2,0.2,0.8","1","",""
"","html-keyboard-response","155","133045","0.0-155.0","3YGXWBAF713C77USTWK4WWHPTWKC4K","A11JGMLOFFPV65","3UUIU9GZC5R93N292LT21FRJ9VS5TN","","null","<img src=""img/land4.png"" style=""width:200px; border:14px solid green;"">","null","","","","","","","","","",""
"","image-keyboard-response","156","135048","0.0-156.0","3YGXWBAF713C77USTWK4WWHPTWKC4K","A11JGMLOFFPV65","3UUIU9GZC5R93N292LT21FRJ9VS5TN","","","img/land4.png","","2002.5","-1","0","1","1","0.8,0.2,0.2,0.2,0.8,0.2,0.2,0.2,0.8","0.8,0.2,0.2,0.2,0.8,0.2,0.2,0.2,0.8","1","",""
"","html-keyboard-response","157","135351","0.0-157.0","3YGXWBAF713C77USTWK4WWHPTWKC4K","A11JGMLOFFPV65","3UUIU9GZC5R93N292LT21FRJ9VS5TN","","null","<img src=""img/land4.png"" style=""width:200px;border:14px solid red;"">","null","","","","","","","","","",""
"","image-keyboard-response","158","136362","0.0-158.0","3YGXWBAF713C77USTWK4WWHPTWKC4K","A11JGMLOFFPV65","3UUIU9GZC5R93N292LT21FRJ9VS5TN","","1010.6999999880791","img/land6.png","75","1011.5999999940395","2","1","2","1","0.8,0.2,0.2,0.2,0.8,0.2,0.2,0.2,0.8","0.8,0.2,0.2,0.2,0.8,0.2,0.2,0.2,0.8","1","",""
"","html-keyboard-response","159","136665","0.0-159.0","3YGXWBAF713C77USTWK4WWHPTWKC4K","A11JGMLOFFPV65","3UUIU9GZC5R93N292LT21FRJ9VS5TN","","null","<img src=""img/land6.png"" style=""width:200px; border:14px solid green;"">","null","","","","","","","","","",""
"","image-keyboard-response","160","138483","0.0-160.0","3YGXWBAF713C77USTWK4WWHPTWKC4K","A11JGMLOFFPV65","3UUIU9GZC5R93N292LT21FRJ9VS5TN","","1816.6000000238419","img/land3.png","76","1817.699999988079","3","1","3","1","0.8,0.2,0.2,0.2,0.8,0.2,0.2,0.2,0.8","0.8,0.2,0.2,0.2,0.8,0.2,0.2,0.2,0.8","1","",""
"","html-keyboard-response","161","138786","0.0-161.0","3YGXWBAF713C77USTWK4WWHPTWKC4K","A11JGMLOFFPV65","3UUIU9GZC5R93N292LT21FRJ9VS5TN","","null","<img src=""img/land3.png"" style=""width:200px; border:14px solid green;"">","null","","","","","","","","","",""
"","image-keyboard-response","162","140408","0.0-162.0","3YGXWBAF713C77USTWK4WWHPTWKC4K","A11JGMLOFFPV65","3UUIU9GZC5R93N292LT21FRJ9VS5TN","","1620.8999999761581","img/land4.png","74","1621.7999999821186","1","1","1","1","0.8,0.2,0.2,0.2,0.8,0.2,0.2,0.2,0.8","0.8,0.2,0.2,0.2,0.8,0.2,0.2,0.2,0.8","1","",""
"","html-keyboard-response","163","140710","0.0-163.0","3YGXWBAF713C77USTWK4WWHPTWKC4K","A11JGMLOFFPV65","3UUIU9GZC5R93N292LT21FRJ9VS5TN","","null","<img src=""img/land4.png"" style=""width:200px; border:14px solid green;"">","null","","","","","","","","","",""
"","image-keyboard-response","164","142712","0.0-164.0","3YGXWBAF713C77USTWK4WWHPTWKC4K","A11JGMLOFFPV65","3UUIU9GZC5R93N292LT21FRJ9VS5TN","","","img/land4.png","","2002.199999988079","-1","0","1","1","0.8,0.2,0.2,0.2,0.8,0.2,0.2,0.2,0.8","0.8,0.2,0.2,0.2,0.8,0.2,0.2,0.2,0.8","1","",""
"","html-keyboard-response","165","143015","0.0-165.0","3YGXWBAF713C77USTWK4WWHPTWKC4K","A11JGMLOFFPV65","3UUIU9GZC5R93N292LT21FRJ9VS5TN","","null","<img src=""img/land4.png"" style=""width:200px;border:14px solid red;"">","null","","","","","","","","","",""
"","image-keyboard-response","166","144572","0.0-166.0","3YGXWBAF713C77USTWK4WWHPTWKC4K","A11JGMLOFFPV65","3UUIU9GZC5R93N292LT21FRJ9VS5TN","","1555.7999999821186","img/land6.png","74","1556.699999988079","1","0","2","1","0.8,0.2,0.2,0.2,0.8,0.2,0.2,0.2,0.8","0.8,0.2,0.2,0.2,0.8,0.2,0.2,0.2,0.8","1","",""
"","html-keyboard-response","167","144875","0.0-167.0","3YGXWBAF713C77USTWK4WWHPTWKC4K","A11JGMLOFFPV65","3UUIU9GZC5R93N292LT21FRJ9VS5TN","","null","<img src=""img/land6.png"" style=""width:200px;border:14px solid red;"">","null","","","","","","","","","",""
"","image-keyboard-response","168","144887","0.0-168.0","3YGXWBAF713C77USTWK4WWHPTWKC4K","A11JGMLOFFPV65","3UUIU9GZC5R93N292LT21FRJ9VS5TN","","11","img/land6.png","75","11.899999976158142","2","0","2","1","0.8,0.2,0.2,0.2,0.8,0.2,0.2,0.2,0.8","0.8,0.2,0.2,0.2,0.8,0.2,0.2,0.2,0.8","1","",""
"","html-keyboard-response","169","145189","0.0-169.0","3YGXWBAF713C77USTWK4WWHPTWKC4K","A11JGMLOFFPV65","3UUIU9GZC5R93N292LT21FRJ9VS5TN","","null","<img src=""img/land6.png"" style=""width:200px;border:14px solid red;"">","null","","","","","","","","","",""
"","image-keyboard-response","170","147191","0.0-170.0","3YGXWBAF713C77USTWK4WWHPTWKC4K","A11JGMLOFFPV65","3UUIU9GZC5R93N292LT21FRJ9VS5TN","","","img/land4.png","","2002.5","-1","0","1","1","0.8,0.2,0.2,0.2,0.8,0.2,0.2,0.2,0.8","0.8,0.2,0.2,0.2,0.8,0.2,0.2,0.2,0.8","1","",""
"","html-keyboard-response","171","147494","0.0-171.0","3YGXWBAF713C77USTWK4WWHPTWKC4K","A11JGMLOFFPV65","3UUIU9GZC5R93N292LT21FRJ9VS5TN","","null","<img src=""img/land4.png"" style=""width:200px;border:14px solid red;"">","null","","","","","","","","","",""
"","image-keyboard-response","172","147552","0.0-172.0","3YGXWBAF713C77USTWK4WWHPTWKC4K","A11JGMLOFFPV65","3UUIU9GZC5R93N292LT21FRJ9VS5TN","","57.099999994039536","img/land4.png","75","58","2","1","1","1","0.8,0.2,0.2,0.2,0.8,0.2,0.2,0.2,0.8","0.8,0.2,0.2,0.2,0.8,0.2,0.2,0.2,0.8","1","",""
"","html-keyboard-response","173","147855","0.0-173.0","3YGXWBAF713C77USTWK4WWHPTWKC4K","A11JGMLOFFPV65","3UUIU9GZC5R93N292LT21FRJ9VS5TN","","null","<img src=""img/land4.png"" style=""width:200px; border:14px solid green;"">","null","","","","","","","","","",""
"","image-keyboard-response","174","149857","0.0-174.0","3YGXWBAF713C77USTWK4WWHPTWKC4K","A11JGMLOFFPV65","3UUIU9GZC5R93N292LT21FRJ9VS5TN","","","img/land6.png","","2002.2999999821186","-1","0","2","1","0.8,0.2,0.2,0.2,0.8,0.2,0.2,0.2,0.8","0.8,0.2,0.2,0.2,0.8,0.2,0.2,0.2,0.8","1","",""
"","html-keyboard-response","175","150160","0.0-175.0","3YGXWBAF713C77USTWK4WWHPTWKC4K","A11JGMLOFFPV65","3UUIU9GZC5R93N292LT21FRJ9VS5TN","","null","<img src=""img/land6.png"" style=""width:200px;border:14px solid red;"">","null","","","","","","","","","",""
"","image-keyboard-response","176","152162","0.0-176.0","3YGXWBAF713C77USTWK4WWHPTWKC4K","A11JGMLOFFPV65","3UUIU9GZC5R93N292LT21FRJ9VS5TN","","","img/land6.png","","2002.4000000059605","-1","0","2","1","0.8,0.2,0.2,0.2,0.8,0.2,0.2,0.2,0.8","0.8,0.2,0.2,0.2,0.8,0.2,0.2,0.2,0.8","1","",""
"","html-keyboard-response","177","152465","0.0-177.0","3YGXWBAF713C77USTWK4WWHPTWKC4K","A11JGMLOFFPV65","3UUIU9GZC5R93N292LT21FRJ9VS5TN","","null","<img src=""img/land6.png"" style=""width:200px;border:14px solid red;"">","null","","","","","","","","","",""
"","image-keyboard-response","178","154117","0.0-178.0","3YGXWBAF713C77USTWK4WWHPTWKC4K","A11JGMLOFFPV65","3UUIU9GZC5R93N292LT21FRJ9VS5TN","","1650.4000000059605","img/land6.png","75","1651.4000000059605","2","0","2","1","0.8,0.2,0.2,0.2,0.8,0.2,0.2,0.2,0.8","0.8,0.2,0.2,0.2,0.8,0.2,0.2,0.2,0.8","1","",""
"","html-keyboard-response","179","154419","0.0-179.0","3YGXWBAF713C77USTWK4WWHPTWKC4K","A11JGMLOFFPV65","3UUIU9GZC5R93N292LT21FRJ9VS5TN","","null","<img src=""img/land6.png"" style=""width:200px;border:14px solid red;"">","null","","","","","","","","","",""
"","image-keyboard-response","180","155372","0.0-180.0","3YGXWBAF713C77USTWK4WWHPTWKC4K","A11JGMLOFFPV65","3UUIU9GZC5R93N292LT21FRJ9VS5TN","","951.5999999940395","img/land3.png","76","952.5999999940395","3","0","3","1","0.8,0.2,0.2,0.2,0.8,0.2,0.2,0.2,0.8","0.8,0.2,0.2,0.2,0.8,0.2,0.2,0.2,0.8","1","",""
"","html-keyboard-response","181","155675","0.0-181.0","3YGXWBAF713C77USTWK4WWHPTWKC4K","A11JGMLOFFPV65","3UUIU9GZC5R93N292LT21FRJ9VS5TN","","null","<img src=""img/land3.png"" style=""width:200px;border:14px solid red;"">","null","","","","","","","","","",""
"","html-keyboard-response","182","159002","0.0-182.0","3YGXWBAF713C77USTWK4WWHPTWKC4K","A11JGMLOFFPV65","3UUIU9GZC5R93N292LT21FRJ9VS5TN","","","","","","","","","","","","","",""
"","image-keyboard-response","183","161005","0.0-183.0","3YGXWBAF713C77USTWK4WWHPTWKC4K","A11JGMLOFFPV65","3UUIU9GZC5R93N292LT21FRJ9VS5TN","","","img/land5.png","","2002.4000000059605","-1","0","1","2","0.8,0.2,0.2,0.2,0.8,0.2,0.2,0.2,0.8","0.2,0.2,0.8,0.8,0.2,0.2,0.2,0.8,0.2","2","",""
"","html-keyboard-response","184","161308","0.0-184.0","3YGXWBAF713C77USTWK4WWHPTWKC4K","A11JGMLOFFPV65","3UUIU9GZC5R93N292LT21FRJ9VS5TN","","null","<img src=""img/land5.png"" style=""width:200px;border:14px solid red;"">","null","","","","","","","","","",""
"","image-keyboard-response","185","161339","0.0-185.0","3YGXWBAF713C77USTWK4WWHPTWKC4K","A11JGMLOFFPV65","3UUIU9GZC5R93N292LT21FRJ9VS5TN","","29.400000005960464","img/land5.png","75","30.700000017881393","2","0","1","2","0.8,0.2,0.2,0.2,0.8,0.2,0.2,0.2,0.8","0.2,0.2,0.8,0.8,0.2,0.2,0.2,0.8,0.2","2","",""
"","html-keyboard-response","186","161641","0.0-186.0","3YGXWBAF713C77USTWK4WWHPTWKC4K","A11JGMLOFFPV65","3UUIU9GZC5R93N292LT21FRJ9VS5TN","","null","<img src=""img/land5.png"" style=""width:200px;border:14px solid red;"">","null","","","","","","","","","",""
"","image-keyboard-response","187","162092","0.0-187.0","3YGXWBAF713C77USTWK4WWHPTWKC4K","A11JGMLOFFPV65","3UUIU9GZC5R93N292LT21FRJ9VS5TN","","450","img/land2.png","74","450.80000001192093","1","0","3","2","0.8,0.2,0.2,0.2,0.8,0.2,0.2,0.2,0.8","0.2,0.2,0.8,0.8,0.2,0.2,0.2,0.8,0.2","2","",""
"","html-keyboard-response","188","162394","0.0-188.0","3YGXWBAF713C77USTWK4WWHPTWKC4K","A11JGMLOFFPV65","3UUIU9GZC5R93N292LT21FRJ9VS5TN","","null","<img src=""img/land2.png"" style=""width:200px;border:14px solid red;"">","null","","","","","","","","","",""
"","image-keyboard-response","189","163267","0.0-189.0","3YGXWBAF713C77USTWK4WWHPTWKC4K","A11JGMLOFFPV65","3UUIU9GZC5R93N292LT21FRJ9VS5TN","","871.9000000059605","img/land1.png","75","872.8999999761581","2","1","2","2","0.8,0.2,0.2,0.2,0.8,0.2,0.2,0.2,0.8","0.2,0.2,0.8,0.8,0.2,0.2,0.2,0.8,0.2","2","",""
"","html-keyboard-response","190","163568","0.0-190.0","3YGXWBAF713C77USTWK4WWHPTWKC4K","A11JGMLOFFPV65","3UUIU9GZC5R93N292LT21FRJ9VS5TN","","null","<img src=""img/land1.png"" style=""width:200px; border:14px solid green;"">","null","","","","","","","","","",""
"","image-keyboard-response","191","164582","0.0-191.0","3YGXWBAF713C77USTWK4WWHPTWKC4K","A11JGMLOFFPV65","3UUIU9GZC5R93N292LT21FRJ9VS5TN","","1012.7999999821186","img/land5.png","75","1013.8999999761581","2","0","1","2","0.8,0.2,0.2,0.2,0.8,0.2,0.2,0.2,0.8","0.2,0.2,0.8,0.8,0.2,0.2,0.2,0.8,0.2","2","",""
"","html-keyboard-response","192","164885","0.0-192.0","3YGXWBAF713C77USTWK4WWHPTWKC4K","A11JGMLOFFPV65","3UUIU9GZC5R93N292LT21FRJ9VS5TN","","null","<img src=""img/land5.png"" style=""width:200px;border:14px solid red;"">","null","","","","","","","","","",""
"","image-keyboard-response","193","165652","0.0-193.0","3YGXWBAF713C77USTWK4WWHPTWKC4K","A11JGMLOFFPV65","3UUIU9GZC5R93N292LT21FRJ9VS5TN","","766.1999999880791","img/land1.png","74","767.0999999940395","1","1","2","2","0.8,0.2,0.2,0.2,0.8,0.2,0.2,0.2,0.8","0.2,0.2,0.8,0.8,0.2,0.2,0.2,0.8,0.2","2","",""
"","html-keyboard-response","194","165954","0.0-194.0","3YGXWBAF713C77USTWK4WWHPTWKC4K","A11JGMLOFFPV65","3UUIU9GZC5R93N292LT21FRJ9VS5TN","","null","<img src=""img/land1.png"" style=""width:200px; border:14px solid green;"">","null","","","","","","","","","",""
"","image-keyboard-response","195","166896","0.0-195.0","3YGXWBAF713C77USTWK4WWHPTWKC4K","A11JGMLOFFPV65","3UUIU9GZC5R93N292LT21FRJ9VS5TN","","940.7000000178814","img/land5.png","76","941.7000000178814","3","1","1","2","0.8,0.2,0.2,0.2,0.8,0.2,0.2,0.2,0.8","0.2,0.2,0.8,0.8,0.2,0.2,0.2,0.8,0.2","2","",""
"","html-keyboard-response","196","167199","0.0-196.0","3YGXWBAF713C77USTWK4WWHPTWKC4K","A11JGMLOFFPV65","3UUIU9GZC5R93N292LT21FRJ9VS5TN","","null","<img src=""img/land5.png"" style=""width:200px; border:14px solid green;"">","null","","","","","","","","","",""
"","image-keyboard-response","197","168322","0.0-197.0","3YGXWBAF713C77USTWK4WWHPTWKC4K","A11JGMLOFFPV65","3UUIU9GZC5R93N292LT21FRJ9VS5TN","","1121.199999988079","img/land5.png","76","1122.5","3","0","1","2","0.8,0.2,0.2,0.2,0.8,0.2,0.2,0.2,0.8","0.2,0.2,0.8,0.8,0.2,0.2,0.2,0.8,0.2","2","",""
"","html-keyboard-response","198","168625","0.0-198.0","3YGXWBAF713C77USTWK4WWHPTWKC4K","A11JGMLOFFPV65","3UUIU9GZC5R93N292LT21FRJ9VS5TN","","null","<img src=""img/land5.png"" style=""width:200px;border:14px solid red;"">","null","","","","","","","","","",""
"","image-keyboard-response","199","169746","0.0-199.0","3YGXWBAF713C77USTWK4WWHPTWKC4K","A11JGMLOFFPV65","3UUIU9GZC5R93N292LT21FRJ9VS5TN","","1120.1000000238419","img/land1.png","76","1121.0999999940395","3","0","2","2","0.8,0.2,0.2,0.2,0.8,0.2,0.2,0.2,0.8","0.2,0.2,0.8,0.8,0.2,0.2,0.2,0.8,0.2","2","",""
"","html-keyboard-response","200","170048","0.0-200.0","3YGXWBAF713C77USTWK4WWHPTWKC4K","A11JGMLOFFPV65","3UUIU9GZC5R93N292LT21FRJ9VS5TN","","null","<img src=""img/land1.png"" style=""width:200px;border:14px solid red;"">","null","","","","","","","","","",""
"","image-keyboard-response","201","170912","0.0-201.0","3YGXWBAF713C77USTWK4WWHPTWKC4K","A11JGMLOFFPV65","3UUIU9GZC5R93N292LT21FRJ9VS5TN","","863","img/land2.png","74","863.7000000178814","1","0","3","2","0.8,0.2,0.2,0.2,0.8,0.2,0.2,0.2,0.8","0.2,0.2,0.8,0.8,0.2,0.2,0.2,0.8,0.2","2","",""
"","html-keyboard-response","202","171215","0.0-202.0","3YGXWBAF713C77USTWK4WWHPTWKC4K","A11JGMLOFFPV65","3UUIU9GZC5R93N292LT21FRJ9VS5TN","","null","<img src=""img/land2.png"" style=""width:200px;border:14px solid red;"">","null","","","","","","","","","",""
"","image-keyboard-response","203","171997","0.0-203.0","3YGXWBAF713C77USTWK4WWHPTWKC4K","A11JGMLOFFPV65","3UUIU9GZC5R93N292LT21FRJ9VS5TN","","780.5","img/land5.png","75","781.7000000178814","2","0","1","2","0.8,0.2,0.2,0.2,0.8,0.2,0.2,0.2,0.8","0.2,0.2,0.8,0.8,0.2,0.2,0.2,0.8,0.2","2","",""
"","html-keyboard-response","204","172299","0.0-204.0","3YGXWBAF713C77USTWK4WWHPTWKC4K","A11JGMLOFFPV65","3UUIU9GZC5R93N292LT21FRJ9VS5TN","","null","<img src=""img/land5.png"" style=""width:200px;border:14px solid red;"">","null","","","","","","","","","",""
"","image-keyboard-response","205","173047","0.0-205.0","3YGXWBAF713C77USTWK4WWHPTWKC4K","A11JGMLOFFPV65","3UUIU9GZC5R93N292LT21FRJ9VS5TN","","746.1999999880791","img/land2.png","76","747.2000000178814","3","0","3","2","0.8,0.2,0.2,0.2,0.8,0.2,0.2,0.2,0.8","0.2,0.2,0.8,0.8,0.2,0.2,0.2,0.8,0.2","2","",""
"","html-keyboard-response","206","173349","0.0-206.0","3YGXWBAF713C77USTWK4WWHPTWKC4K","A11JGMLOFFPV65","3UUIU9GZC5R93N292LT21FRJ9VS5TN","","null","<img src=""img/land2.png"" style=""width:200px;border:14px solid red;"">","null","","","","","","","","","",""
"","image-keyboard-response","207","174302","0.0-207.0","3YGXWBAF713C77USTWK4WWHPTWKC4K","A11JGMLOFFPV65","3UUIU9GZC5R93N292LT21FRJ9VS5TN","","951.3000000119209","img/land5.png","74","952.4000000059605","1","1","1","2","0.8,0.2,0.2,0.2,0.8,0.2,0.2,0.2,0.8","0.2,0.2,0.8,0.8,0.2,0.2,0.2,0.8,0.2","2","",""
"","html-keyboard-response","208","174605","0.0-208.0","3YGXWBAF713C77USTWK4WWHPTWKC4K","A11JGMLOFFPV65","3UUIU9GZC5R93N292LT21FRJ9VS5TN","","null","<img src=""img/land5.png"" style=""width:200px; border:14px solid green;"">","null","","","","","","","","","",""
"","image-keyboard-response","209","175552","0.0-209.0","3YGXWBAF713C77USTWK4WWHPTWKC4K","A11JGMLOFFPV65","3UUIU9GZC5R93N292LT21FRJ9VS5TN","","945.6999999880791","img/land5.png","75","946.6999999880791","2","0","1","2","0.8,0.2,0.2,0.2,0.8,0.2,0.2,0.2,0.8","0.2,0.2,0.8,0.8,0.2,0.2,0.2,0.8,0.2","2","",""
"","html-keyboard-response","210","175854","0.0-210.0","3YGXWBAF713C77USTWK4WWHPTWKC4K","A11JGMLOFFPV65","3UUIU9GZC5R93N292LT21FRJ9VS5TN","","null","<img src=""img/land5.png"" style=""width:200px;border:14px solid red;"">","null","","","","","","","","","",""
"","image-keyboard-response","211","176721","0.0-211.0","3YGXWBAF713C77USTWK4WWHPTWKC4K","A11JGMLOFFPV65","3UUIU9GZC5R93N292LT21FRJ9VS5TN","","865.9000000059605","img/land5.png","74","866.9000000059605","1","0","1","2","0.8,0.2,0.2,0.2,0.8,0.2,0.2,0.2,0.8","0.2,0.2,0.8,0.8,0.2,0.2,0.2,0.8,0.2","2","",""
"","html-keyboard-response","212","177024","0.0-212.0","3YGXWBAF713C77USTWK4WWHPTWKC4K","A11JGMLOFFPV65","3UUIU9GZC5R93N292LT21FRJ9VS5TN","","null","<img src=""img/land5.png"" style=""width:200px;border:14px solid red;"">","null","","","","","","","","","",""
"","image-keyboard-response","213","177726","0.0-213.0","3YGXWBAF713C77USTWK4WWHPTWKC4K","A11JGMLOFFPV65","3UUIU9GZC5R93N292LT21FRJ9VS5TN","","701.3000000119209","img/land1.png","76","702.0999999940395","3","0","2","2","0.8,0.2,0.2,0.2,0.8,0.2,0.2,0.2,0.8","0.2,0.2,0.8,0.8,0.2,0.2,0.2,0.8,0.2","2","",""
"","html-keyboard-response","214","178029","0.0-214.0","3YGXWBAF713C77USTWK4WWHPTWKC4K","A11JGMLOFFPV65","3UUIU9GZC5R93N292LT21FRJ9VS5TN","","null","<img src=""img/land1.png"" style=""width:200px;border:14px solid red;"">","null","","","","","","","","","",""
"","image-keyboard-response","215","178931","0.0-215.0","3YGXWBAF713C77USTWK4WWHPTWKC4K","A11JGMLOFFPV65","3UUIU9GZC5R93N292LT21FRJ9VS5TN","","901.6999999880791","img/land2.png","74","902.8000000119209","1","0","3","2","0.8,0.2,0.2,0.2,0.8,0.2,0.2,0.2,0.8","0.2,0.2,0.8,0.8,0.2,0.2,0.2,0.8,0.2","2","",""
"","html-keyboard-response","216","179234","0.0-216.0","3YGXWBAF713C77USTWK4WWHPTWKC4K","A11JGMLOFFPV65","3UUIU9GZC5R93N292LT21FRJ9VS5TN","","null","<img src=""img/land2.png"" style=""width:200px;border:14px solid red;"">","null","","","","","","","","","",""
"","image-keyboard-response","217","179947","0.0-217.0","3YGXWBAF713C77USTWK4WWHPTWKC4K","A11JGMLOFFPV65","3UUIU9GZC5R93N292LT21FRJ9VS5TN","","711.1999999880791","img/land5.png","75","712.3999999761581","2","1","1","2","0.8,0.2,0.2,0.2,0.8,0.2,0.2,0.2,0.8","0.2,0.2,0.8,0.8,0.2,0.2,0.2,0.8,0.2","2","",""
"","html-keyboard-response","218","180250","0.0-218.0","3YGXWBAF713C77USTWK4WWHPTWKC4K","A11JGMLOFFPV65","3UUIU9GZC5R93N292LT21FRJ9VS5TN","","null","<img src=""img/land5.png"" style=""width:200px; border:14px solid green;"">","null","","","","","","","","","",""
"","image-keyboard-response","219","181547","0.0-219.0","3YGXWBAF713C77USTWK4WWHPTWKC4K","A11JGMLOFFPV65","3UUIU9GZC5R93N292LT21FRJ9VS5TN","","1294.699999988079","img/land5.png","76","1295.800000011921","3","1","1","2","0.8,0.2,0.2,0.2,0.8,0.2,0.2,0.2,0.8","0.2,0.2,0.8,0.8,0.2,0.2,0.2,0.8,0.2","2","",""
"","html-keyboard-response","220","181849","0.0-220.0","3YGXWBAF713C77USTWK4WWHPTWKC4K","A11JGMLOFFPV65","3UUIU9GZC5R93N292LT21FRJ9VS5TN","","null","<img src=""img/land5.png"" style=""width:200px; border:14px solid green;"">","null","","","","","","","","","",""
"","image-keyboard-response","221","183442","0.0-221.0","3YGXWBAF713C77USTWK4WWHPTWKC4K","A11JGMLOFFPV65","3UUIU9GZC5R93N292LT21FRJ9VS5TN","","1591.800000011921","img/land2.png","75","1592.5999999940395","2","0","3","2","0.8,0.2,0.2,0.2,0.8,0.2,0.2,0.2,0.8","0.2,0.2,0.8,0.8,0.2,0.2,0.2,0.8,0.2","2","",""
"","html-keyboard-response","222","183746","0.0-222.0","3YGXWBAF713C77USTWK4WWHPTWKC4K","A11JGMLOFFPV65","3UUIU9GZC5R93N292LT21FRJ9VS5TN","","null","<img src=""img/land2.png"" style=""width:200px;border:14px solid red;"">","null","","","","","","","","","",""
"","image-keyboard-response","223","184448","0.0-223.0","3YGXWBAF713C77USTWK4WWHPTWKC4K","A11JGMLOFFPV65","3UUIU9GZC5R93N292LT21FRJ9VS5TN","","700.5","img/land5.png","74","701.5999999940395","1","1","1","2","0.8,0.2,0.2,0.2,0.8,0.2,0.2,0.2,0.8","0.2,0.2,0.8,0.8,0.2,0.2,0.2,0.8,0.2","2","",""
"","html-keyboard-response","224","184750","0.0-224.0","3YGXWBAF713C77USTWK4WWHPTWKC4K","A11JGMLOFFPV65","3UUIU9GZC5R93N292LT21FRJ9VS5TN","","null","<img src=""img/land5.png"" style=""width:200px; border:14px solid green;"">","null","","","","","","","","","",""
"","image-keyboard-response","225","185782","0.0-225.0","3YGXWBAF713C77USTWK4WWHPTWKC4K","A11JGMLOFFPV65","3UUIU9GZC5R93N292LT21FRJ9VS5TN","","1030.5","img/land5.png","76","1031.5","3","1","1","2","0.8,0.2,0.2,0.2,0.8,0.2,0.2,0.2,0.8","0.2,0.2,0.8,0.8,0.2,0.2,0.2,0.8,0.2","2","",""
"","html-keyboard-response","226","186085","0.0-226.0","3YGXWBAF713C77USTWK4WWHPTWKC4K","A11JGMLOFFPV65","3UUIU9GZC5R93N292LT21FRJ9VS5TN","","null","<img src=""img/land5.png"" style=""width:200px; border:14px solid green;"">","null","","","","","","","","","",""
"","image-keyboard-response","227","187202","0.0-227.0","3YGXWBAF713C77USTWK4WWHPTWKC4K","A11JGMLOFFPV65","3UUIU9GZC5R93N292LT21FRJ9VS5TN","","1116.199999988079","img/land2.png","74","1117.2000000178814","1","0","3","2","0.8,0.2,0.2,0.2,0.8,0.2,0.2,0.2,0.8","0.2,0.2,0.8,0.8,0.2,0.2,0.2,0.8,0.2","2","",""
"","html-keyboard-response","228","187504","0.0-228.0","3YGXWBAF713C77USTWK4WWHPTWKC4K","A11JGMLOFFPV65","3UUIU9GZC5R93N292LT21FRJ9VS5TN","","null","<img src=""img/land2.png"" style=""width:200px;border:14px solid red;"">","null","","","","","","","","","",""
"","image-keyboard-response","229","188147","0.0-229.0","3YGXWBAF713C77USTWK4WWHPTWKC4K","A11JGMLOFFPV65","3UUIU9GZC5R93N292LT21FRJ9VS5TN","","642.3999999761581","img/land5.png","75","643.5","2","0","1","2","0.8,0.2,0.2,0.2,0.8,0.2,0.2,0.2,0.8","0.2,0.2,0.8,0.8,0.2,0.2,0.2,0.8,0.2","2","",""
"","html-keyboard-response","230","188449","0.0-230.0","3YGXWBAF713C77USTWK4WWHPTWKC4K","A11JGMLOFFPV65","3UUIU9GZC5R93N292LT21FRJ9VS5TN","","null","<img src=""img/land5.png"" style=""width:200px;border:14px solid red;"">","null","","","","","","","","","",""
"","image-keyboard-response","231","189092","0.0-231.0","3YGXWBAF713C77USTWK4WWHPTWKC4K","A11JGMLOFFPV65","3UUIU9GZC5R93N292LT21FRJ9VS5TN","","641.4000000059605","img/land1.png","76","642.4000000059605","3","1","2","2","0.8,0.2,0.2,0.2,0.8,0.2,0.2,0.2,0.8","0.2,0.2,0.8,0.8,0.2,0.2,0.2,0.8,0.2","2","",""
"","html-keyboard-response","232","189394","0.0-232.0","3YGXWBAF713C77USTWK4WWHPTWKC4K","A11JGMLOFFPV65","3UUIU9GZC5R93N292LT21FRJ9VS5TN","","null","<img src=""img/land1.png"" style=""width:200px; border:14px solid green;"">","null","","","","","","","","","",""
"","image-keyboard-response","233","190232","0.0-233.0","3YGXWBAF713C77USTWK4WWHPTWKC4K","A11JGMLOFFPV65","3UUIU9GZC5R93N292LT21FRJ9VS5TN","","837","img/land5.png","75","837.8000000119209","2","0","1","2","0.8,0.2,0.2,0.2,0.8,0.2,0.2,0.2,0.8","0.2,0.2,0.8,0.8,0.2,0.2,0.2,0.8,0.2","2","",""
"","html-keyboard-response","234","190535","0.0-234.0","3YGXWBAF713C77USTWK4WWHPTWKC4K","A11JGMLOFFPV65","3UUIU9GZC5R93N292LT21FRJ9VS5TN","","null","<img src=""img/land5.png"" style=""width:200px;border:14px solid red;"">","null","","","","","","","","","",""
"","image-keyboard-response","235","191202","0.0-235.0","3YGXWBAF713C77USTWK4WWHPTWKC4K","A11JGMLOFFPV65","3UUIU9GZC5R93N292LT21FRJ9VS5TN","","665.1000000238419","img/land1.png","76","666.6999999880791","3","0","2","2","0.8,0.2,0.2,0.2,0.8,0.2,0.2,0.2,0.8","0.2,0.2,0.8,0.8,0.2,0.2,0.2,0.8,0.2","2","",""
"","html-keyboard-response","236","191504","0.0-236.0","3YGXWBAF713C77USTWK4WWHPTWKC4K","A11JGMLOFFPV65","3UUIU9GZC5R93N292LT21FRJ9VS5TN","","null","<img src=""img/land1.png"" style=""width:200px;border:14px solid red;"">","null","","","","","","","","","",""
"","image-keyboard-response","237","192182","0.0-237.0","3YGXWBAF713C77USTWK4WWHPTWKC4K","A11JGMLOFFPV65","3UUIU9GZC5R93N292LT21FRJ9VS5TN","","675.8000000119209","img/land5.png","76","677.0999999940395","3","0","1","2","0.8,0.2,0.2,0.2,0.8,0.2,0.2,0.2,0.8","0.2,0.2,0.8,0.8,0.2,0.2,0.2,0.8,0.2","2","",""
"","html-keyboard-response","238","192484","0.0-238.0","3YGXWBAF713C77USTWK4WWHPTWKC4K","A11JGMLOFFPV65","3UUIU9GZC5R93N292LT21FRJ9VS5TN","","null","<img src=""img/land5.png"" style=""width:200px;border:14px solid red;"">","null","","","","","","","","","",""
"","image-keyboard-response","239","193152","0.0-239.0","3YGXWBAF713C77USTWK4WWHPTWKC4K","A11JGMLOFFPV65","3UUIU9GZC5R93N292LT21FRJ9VS5TN","","666.9000000059605","img/land5.png","76","667.6999999880791","3","1","1","2","0.8,0.2,0.2,0.2,0.8,0.2,0.2,0.2,0.8","0.2,0.2,0.8,0.8,0.2,0.2,0.2,0.8,0.2","2","",""
"","html-keyboard-response","240","193455","0.0-240.0","3YGXWBAF713C77USTWK4WWHPTWKC4K","A11JGMLOFFPV65","3UUIU9GZC5R93N292LT21FRJ9VS5TN","","null","<img src=""img/land5.png"" style=""width:200px; border:14px solid green;"">","null","","","","","","","","","",""
"","image-keyboard-response","241","194634","0.0-241.0","3YGXWBAF713C77USTWK4WWHPTWKC4K","A11JGMLOFFPV65","3UUIU9GZC5R93N292LT21FRJ9VS5TN","","1177.8999999761581","img/land5.png","76","1179","3","1","1","2","0.8,0.2,0.2,0.2,0.8,0.2,0.2,0.2,0.8","0.2,0.2,0.8,0.8,0.2,0.2,0.2,0.8,0.2","2","",""
"","html-keyboard-response","242","194936","0.0-242.0","3YGXWBAF713C77USTWK4WWHPTWKC4K","A11JGMLOFFPV65","3UUIU9GZC5R93N292LT21FRJ9VS5TN","","null","<img src=""img/land5.png"" style=""width:200px; border:14px solid green;"">","null","","","","","","","","","",""
"","image-keyboard-response","243","195701","0.0-243.0","3YGXWBAF713C77USTWK4WWHPTWKC4K","A11JGMLOFFPV65","3UUIU9GZC5R93N292LT21FRJ9VS5TN","","764.5","img/land5.png","76","765.2000000178814","3","1","1","2","0.8,0.2,0.2,0.2,0.8,0.2,0.2,0.2,0.8","0.2,0.2,0.8,0.8,0.2,0.2,0.2,0.8,0.2","2","",""
"","html-keyboard-response","244","196004","0.0-244.0","3YGXWBAF713C77USTWK4WWHPTWKC4K","A11JGMLOFFPV65","3UUIU9GZC5R93N292LT21FRJ9VS5TN","","null","<img src=""img/land5.png"" style=""width:200px; border:14px solid green;"">","null","","","","","","","","","",""
"","image-keyboard-response","245","197122","0.0-245.0","3YGXWBAF713C77USTWK4WWHPTWKC4K","A11JGMLOFFPV65","3UUIU9GZC5R93N292LT21FRJ9VS5TN","","1117.199999988079","img/land2.png","76","1118.199999988079","3","0","3","2","0.8,0.2,0.2,0.2,0.8,0.2,0.2,0.2,0.8","0.2,0.2,0.8,0.8,0.2,0.2,0.2,0.8,0.2","2","",""
"","html-keyboard-response","246","197424","0.0-246.0","3YGXWBAF713C77USTWK4WWHPTWKC4K","A11JGMLOFFPV65","3UUIU9GZC5R93N292LT21FRJ9VS5TN","","null","<img src=""img/land2.png"" style=""width:200px;border:14px solid red;"">","null","","","","","","","","","",""
"","image-keyboard-response","247","198052","0.0-247.0","3YGXWBAF713C77USTWK4WWHPTWKC4K","A11JGMLOFFPV65","3UUIU9GZC5R93N292LT21FRJ9VS5TN","","626.5","img/land5.png","74","627.5","1","0","1","2","0.8,0.2,0.2,0.2,0.8,0.2,0.2,0.2,0.8","0.2,0.2,0.8,0.8,0.2,0.2,0.2,0.8,0.2","2","",""
"","html-keyboard-response","248","198355","0.0-248.0","3YGXWBAF713C77USTWK4WWHPTWKC4K","A11JGMLOFFPV65","3UUIU9GZC5R93N292LT21FRJ9VS5TN","","null","<img src=""img/land5.png"" style=""width:200px;border:14px solid red;"">","null","","","","","","","","","",""
"","image-keyboard-response","249","198963","0.0-249.0","3YGXWBAF713C77USTWK4WWHPTWKC4K","A11JGMLOFFPV65","3UUIU9GZC5R93N292LT21FRJ9VS5TN","","606.5999999940395","img/land5.png","75","607.3999999761581","2","0","1","2","0.8,0.2,0.2,0.2,0.8,0.2,0.2,0.2,0.8","0.2,0.2,0.8,0.8,0.2,0.2,0.2,0.8,0.2","2","",""
"","html-keyboard-response","250","199265","0.0-250.0","3YGXWBAF713C77USTWK4WWHPTWKC4K","A11JGMLOFFPV65","3UUIU9GZC5R93N292LT21FRJ9VS5TN","","null","<img src=""img/land5.png"" style=""width:200px;border:14px solid red;"">","null","","","","","","","","","",""
"","image-keyboard-response","251","199602","0.0-251.0","3YGXWBAF713C77USTWK4WWHPTWKC4K","A11JGMLOFFPV65","3UUIU9GZC5R93N292LT21FRJ9VS5TN","","336.09999999403954","img/land5.png","76","337","3","1","1","2","0.8,0.2,0.2,0.2,0.8,0.2,0.2,0.2,0.8","0.2,0.2,0.8,0.8,0.2,0.2,0.2,0.8,0.2","2","",""
"","html-keyboard-response","252","199904","0.0-252.0","3YGXWBAF713C77USTWK4WWHPTWKC4K","A11JGMLOFFPV65","3UUIU9GZC5R93N292LT21FRJ9VS5TN","","null","<img src=""img/land5.png"" style=""width:200px; border:14px solid green;"">","null","","","","","","","","","",""
"","image-keyboard-response","253","199931","0.0-253.0","3YGXWBAF713C77USTWK4WWHPTWKC4K","A11JGMLOFFPV65","3UUIU9GZC5R93N292LT21FRJ9VS5TN","","25.900000005960464","img/land5.png","76","26.700000017881393","3","1","1","2","0.8,0.2,0.2,0.2,0.8,0.2,0.2,0.2,0.8","0.2,0.2,0.8,0.8,0.2,0.2,0.2,0.8,0.2","2","",""
"","html-keyboard-response","254","200233","0.0-254.0","3YGXWBAF713C77USTWK4WWHPTWKC4K","A11JGMLOFFPV65","3UUIU9GZC5R93N292LT21FRJ9VS5TN","","null","<img src=""img/land5.png"" style=""width:200px; border:14px solid green;"">","null","","","","","","","","","",""
"","image-keyboard-response","255","200412","0.0-255.0","3YGXWBAF713C77USTWK4WWHPTWKC4K","A11JGMLOFFPV65","3UUIU9GZC5R93N292LT21FRJ9VS5TN","","177.10000002384186","img/land5.png","75","178.09999999403954","2","0","1","2","0.8,0.2,0.2,0.2,0.8,0.2,0.2,0.2,0.8","0.2,0.2,0.8,0.8,0.2,0.2,0.2,0.8,0.2","2","",""
"","html-keyboard-response","256","200714","0.0-256.0","3YGXWBAF713C77USTWK4WWHPTWKC4K","A11JGMLOFFPV65","3UUIU9GZC5R93N292LT21FRJ9VS5TN","","null","<img src=""img/land5.png"" style=""width:200px;border:14px solid red;"">","null","","","","","","","","","",""
"","image-keyboard-response","257","200816","0.0-257.0","3YGXWBAF713C77USTWK4WWHPTWKC4K","A11JGMLOFFPV65","3UUIU9GZC5R93N292LT21FRJ9VS5TN","","100.90000000596046","img/land5.png","76","101.80000001192093","3","0","1","2","0.8,0.2,0.2,0.2,0.8,0.2,0.2,0.2,0.8","0.2,0.2,0.8,0.8,0.2,0.2,0.2,0.8,0.2","2","",""
"","html-keyboard-response","258","201119","0.0-258.0","3YGXWBAF713C77USTWK4WWHPTWKC4K","A11JGMLOFFPV65","3UUIU9GZC5R93N292LT21FRJ9VS5TN","","null","<img src=""img/land5.png"" style=""width:200px;border:14px solid red;"">","null","","","","","","","","","",""
"","image-keyboard-response","259","201191","0.0-259.0","3YGXWBAF713C77USTWK4WWHPTWKC4K","A11JGMLOFFPV65","3UUIU9GZC5R93N292LT21FRJ9VS5TN","","70.90000000596046","img/land5.png","76","72","3","1","1","2","0.8,0.2,0.2,0.2,0.8,0.2,0.2,0.2,0.8","0.2,0.2,0.8,0.8,0.2,0.2,0.2,0.8,0.2","2","",""
"","html-keyboard-response","260","201494","0.0-260.0","3YGXWBAF713C77USTWK4WWHPTWKC4K","A11JGMLOFFPV65","3UUIU9GZC5R93N292LT21FRJ9VS5TN","","null","<img src=""img/land5.png"" style=""width:200px; border:14px solid green;"">","null","","","","","","","","","",""
"","image-keyboard-response","261","202301","0.0-261.0","3YGXWBAF713C77USTWK4WWHPTWKC4K","A11JGMLOFFPV65","3UUIU9GZC5R93N292LT21FRJ9VS5TN","","806.1999999880791","img/land5.png","74","807.2999999821186","1","0","1","2","0.8,0.2,0.2,0.2,0.8,0.2,0.2,0.2,0.8","0.2,0.2,0.8,0.8,0.2,0.2,0.2,0.8,0.2","2","",""
"","html-keyboard-response","262","202605","0.0-262.0","3YGXWBAF713C77USTWK4WWHPTWKC4K","A11JGMLOFFPV65","3UUIU9GZC5R93N292LT21FRJ9VS5TN","","null","<img src=""img/land5.png"" style=""width:200px;border:14px solid red;"">","null","","","","","","","","","",""
"","image-keyboard-response","263","203018","0.0-263.0","3YGXWBAF713C77USTWK4WWHPTWKC4K","A11JGMLOFFPV65","3UUIU9GZC5R93N292LT21FRJ9VS5TN","","411.80000001192093","img/land2.png","76","412.59999999403954","3","0","3","2","0.8,0.2,0.2,0.2,0.8,0.2,0.2,0.2,0.8","0.2,0.2,0.8,0.8,0.2,0.2,0.2,0.8,0.2","2","",""
"","html-keyboard-response","264","203320","0.0-264.0","3YGXWBAF713C77USTWK4WWHPTWKC4K","A11JGMLOFFPV65","3UUIU9GZC5R93N292LT21FRJ9VS5TN","","null","<img src=""img/land2.png"" style=""width:200px;border:14px solid red;"">","null","","","","","","","","","",""
"","image-keyboard-response","265","203961","0.0-265.0","3YGXWBAF713C77USTWK4WWHPTWKC4K","A11JGMLOFFPV65","3UUIU9GZC5R93N292LT21FRJ9VS5TN","","640.5","img/land2.png","75","641.4000000059605","2","1","3","2","0.8,0.2,0.2,0.2,0.8,0.2,0.2,0.2,0.8","0.2,0.2,0.8,0.8,0.2,0.2,0.2,0.8,0.2","2","",""
"","html-keyboard-response","266","204264","0.0-266.0","3YGXWBAF713C77USTWK4WWHPTWKC4K","A11JGMLOFFPV65","3UUIU9GZC5R93N292LT21FRJ9VS5TN","","null","<img src=""img/land2.png"" style=""width:200px; border:14px solid green;"">","null","","","","","","","","","",""
"","image-keyboard-response","267","205101","0.0-267.0","3YGXWBAF713C77USTWK4WWHPTWKC4K","A11JGMLOFFPV65","3UUIU9GZC5R93N292LT21FRJ9VS5TN","","836.7000000178814","img/land5.png","75","837.3999999761581","2","0","1","2","0.8,0.2,0.2,0.2,0.8,0.2,0.2,0.2,0.8","0.2,0.2,0.8,0.8,0.2,0.2,0.2,0.8,0.2","2","",""
"","html-keyboard-response","268","205404","0.0-268.0","3YGXWBAF713C77USTWK4WWHPTWKC4K","A11JGMLOFFPV65","3UUIU9GZC5R93N292LT21FRJ9VS5TN","","null","<img src=""img/land5.png"" style=""width:200px;border:14px solid red;"">","null","","","","","","","","","",""
"","image-keyboard-response","269","206251","0.0-269.0","3YGXWBAF713C77USTWK4WWHPTWKC4K","A11JGMLOFFPV65","3UUIU9GZC5R93N292LT21FRJ9VS5TN","","846.0999999940395","img/land2.png","76","847.1999999880791","3","0","3","2","0.8,0.2,0.2,0.2,0.8,0.2,0.2,0.2,0.8","0.2,0.2,0.8,0.8,0.2,0.2,0.2,0.8,0.2","2","",""
"","html-keyboard-response","270","206554","0.0-270.0","3YGXWBAF713C77USTWK4WWHPTWKC4K","A11JGMLOFFPV65","3UUIU9GZC5R93N292LT21FRJ9VS5TN","","null","<img src=""img/land2.png"" style=""width:200px;border:14px solid red;"">","null","","","","","","","","","",""
"","image-keyboard-response","271","207342","0.0-271.0","3YGXWBAF713C77USTWK4WWHPTWKC4K","A11JGMLOFFPV65","3UUIU9GZC5R93N292LT21FRJ9VS5TN","","786.5","img/land5.png","75","787.4000000059605","2","0","1","2","0.8,0.2,0.2,0.2,0.8,0.2,0.2,0.2,0.8","0.2,0.2,0.8,0.8,0.2,0.2,0.2,0.8,0.2","2","",""
"","html-keyboard-response","272","207645","0.0-272.0","3YGXWBAF713C77USTWK4WWHPTWKC4K","A11JGMLOFFPV65","3UUIU9GZC5R93N292LT21FRJ9VS5TN","","null","<img src=""img/land5.png"" style=""width:200px;border:14px solid red;"">","null","","","","","","","","","",""
"","image-keyboard-response","273","208357","0.0-273.0","3YGXWBAF713C77USTWK4WWHPTWKC4K","A11JGMLOFFPV65","3UUIU9GZC5R93N292LT21FRJ9VS5TN","","710.5999999940395","img/land5.png","76","711.6000000238419","3","1","1","2","0.8,0.2,0.2,0.2,0.8,0.2,0.2,0.2,0.8","0.2,0.2,0.8,0.8,0.2,0.2,0.2,0.8,0.2","2","",""
"","html-keyboard-response","274","208660","0.0-274.0","3YGXWBAF713C77USTWK4WWHPTWKC4K","A11JGMLOFFPV65","3UUIU9GZC5R93N292LT21FRJ9VS5TN","","null","<img src=""img/land5.png"" style=""width:200px; border:14px solid green;"">","null","","","","","","","","","",""
"","image-keyboard-response","275","209682","0.0-275.0","3YGXWBAF713C77USTWK4WWHPTWKC4K","A11JGMLOFFPV65","3UUIU9GZC5R93N292LT21FRJ9VS5TN","","1021.5","img/land5.png","76","1022.1999999880791","3","1","1","2","0.8,0.2,0.2,0.2,0.8,0.2,0.2,0.2,0.8","0.2,0.2,0.8,0.8,0.2,0.2,0.2,0.8,0.2","2","",""
"","html-keyboard-response","276","209984","0.0-276.0","3YGXWBAF713C77USTWK4WWHPTWKC4K","A11JGMLOFFPV65","3UUIU9GZC5R93N292LT21FRJ9VS5TN","","null","<img src=""img/land5.png"" style=""width:200px; border:14px solid green;"">","null","","","","","","","","","",""
"","image-keyboard-response","277","210821","0.0-277.0","3YGXWBAF713C77USTWK4WWHPTWKC4K","A11JGMLOFFPV65","3UUIU9GZC5R93N292LT21FRJ9VS5TN","","836","img/land5.png","76","836.6999999880791","3","1","1","2","0.8,0.2,0.2,0.2,0.8,0.2,0.2,0.2,0.8","0.2,0.2,0.8,0.8,0.2,0.2,0.2,0.8,0.2","2","",""
"","html-keyboard-response","278","211124","0.0-278.0","3YGXWBAF713C77USTWK4WWHPTWKC4K","A11JGMLOFFPV65","3UUIU9GZC5R93N292LT21FRJ9VS5TN","","null","<img src=""img/land5.png"" style=""width:200px; border:14px solid green;"">","null","","","","","","","","","",""
"","image-keyboard-response","279","212416","0.0-279.0","3YGXWBAF713C77USTWK4WWHPTWKC4K","A11JGMLOFFPV65","3UUIU9GZC5R93N292LT21FRJ9VS5TN","","1291","img/land1.png","74","1291.800000011921","1","1","2","2","0.8,0.2,0.2,0.2,0.8,0.2,0.2,0.2,0.8","0.2,0.2,0.8,0.8,0.2,0.2,0.2,0.8,0.2","2","",""
"","html-keyboard-response","280","212718","0.0-280.0","3YGXWBAF713C77USTWK4WWHPTWKC4K","A11JGMLOFFPV65","3UUIU9GZC5R93N292LT21FRJ9VS5TN","","null","<img src=""img/land1.png"" style=""width:200px; border:14px solid green;"">","null","","","","","","","","","",""
"","image-keyboard-response","281","213746","0.0-281.0","3YGXWBAF713C77USTWK4WWHPTWKC4K","A11JGMLOFFPV65","3UUIU9GZC5R93N292LT21FRJ9VS5TN","","1026.9000000059605","img/land5.png","74","1027.800000011921","1","0","1","2","0.8,0.2,0.2,0.2,0.8,0.2,0.2,0.2,0.8","0.2,0.2,0.8,0.8,0.2,0.2,0.2,0.8,0.2","2","",""
"","html-keyboard-response","282","214049","0.0-282.0","3YGXWBAF713C77USTWK4WWHPTWKC4K","A11JGMLOFFPV65","3UUIU9GZC5R93N292LT21FRJ9VS5TN","","null","<img src=""img/land5.png"" style=""width:200px;border:14px solid red;"">","null","","","","","","","","","",""
"","image-keyboard-response","283","214921","0.0-283.0","3YGXWBAF713C77USTWK4WWHPTWKC4K","A11JGMLOFFPV65","3UUIU9GZC5R93N292LT21FRJ9VS5TN","","870.9000000059605","img/land5.png","76","871.8000000119209","3","1","1","2","0.8,0.2,0.2,0.2,0.8,0.2,0.2,0.2,0.8","0.2,0.2,0.8,0.8,0.2,0.2,0.2,0.8,0.2","2","",""
"","html-keyboard-response","284","215224","0.0-284.0","3YGXWBAF713C77USTWK4WWHPTWKC4K","A11JGMLOFFPV65","3UUIU9GZC5R93N292LT21FRJ9VS5TN","","null","<img src=""img/land5.png"" style=""width:200px; border:14px solid green;"">","null","","","","","","","","","",""
"","image-keyboard-response","285","216057","0.0-285.0","3YGXWBAF713C77USTWK4WWHPTWKC4K","A11JGMLOFFPV65","3UUIU9GZC5R93N292LT21FRJ9VS5TN","","831.9000000059605","img/land5.png","76","832.8999999761581","3","1","1","2","0.8,0.2,0.2,0.2,0.8,0.2,0.2,0.2,0.8","0.2,0.2,0.8,0.8,0.2,0.2,0.2,0.8,0.2","2","",""
"","html-keyboard-response","286","216359","0.0-286.0","3YGXWBAF713C77USTWK4WWHPTWKC4K","A11JGMLOFFPV65","3UUIU9GZC5R93N292LT21FRJ9VS5TN","","null","<img src=""img/land5.png"" style=""width:200px; border:14px solid green;"">","null","","","","","","","","","",""
"","image-keyboard-response","287","217201","0.0-287.0","3YGXWBAF713C77USTWK4WWHPTWKC4K","A11JGMLOFFPV65","3UUIU9GZC5R93N292LT21FRJ9VS5TN","","840.6999999880791","img/land5.png","76","841.5999999940395","3","1","1","2","0.8,0.2,0.2,0.2,0.8,0.2,0.2,0.2,0.8","0.2,0.2,0.8,0.8,0.2,0.2,0.2,0.8,0.2","2","",""
"","html-keyboard-response","288","217504","0.0-288.0","3YGXWBAF713C77USTWK4WWHPTWKC4K","A11JGMLOFFPV65","3UUIU9GZC5R93N292LT21FRJ9VS5TN","","null","<img src=""img/land5.png"" style=""width:200px; border:14px solid green;"">","null","","","","","","","","","",""
"","image-keyboard-response","289","218291","0.0-289.0","3YGXWBAF713C77USTWK4WWHPTWKC4K","A11JGMLOFFPV65","3UUIU9GZC5R93N292LT21FRJ9VS5TN","","785.7999999821186","img/land5.png","76","786.7000000178814","3","1","1","2","0.8,0.2,0.2,0.2,0.8,0.2,0.2,0.2,0.8","0.2,0.2,0.8,0.8,0.2,0.2,0.2,0.8,0.2","2","",""
"","html-keyboard-response","290","218594","0.0-290.0","3YGXWBAF713C77USTWK4WWHPTWKC4K","A11JGMLOFFPV65","3UUIU9GZC5R93N292LT21FRJ9VS5TN","","null","<img src=""img/land5.png"" style=""width:200px; border:14px solid green;"">","null","","","","","","","","","",""
"","image-keyboard-response","291","219881","0.0-291.0","3YGXWBAF713C77USTWK4WWHPTWKC4K","A11JGMLOFFPV65","3UUIU9GZC5R93N292LT21FRJ9VS5TN","","1286.4000000059605","img/land1.png","74","1287.5","1","1","2","2","0.8,0.2,0.2,0.2,0.8,0.2,0.2,0.2,0.8","0.2,0.2,0.8,0.8,0.2,0.2,0.2,0.8,0.2","2","",""
"","html-keyboard-response","292","220184","0.0-292.0","3YGXWBAF713C77USTWK4WWHPTWKC4K","A11JGMLOFFPV65","3UUIU9GZC5R93N292LT21FRJ9VS5TN","","null","<img src=""img/land1.png"" style=""width:200px; border:14px solid green;"">","null","","","","","","","","","",""
"","image-keyboard-response","293","221251","0.0-293.0","3YGXWBAF713C77USTWK4WWHPTWKC4K","A11JGMLOFFPV65","3UUIU9GZC5R93N292LT21FRJ9VS5TN","","1065.8999999761581","img/land5.png","76","1066.800000011921","3","1","1","2","0.8,0.2,0.2,0.2,0.8,0.2,0.2,0.2,0.8","0.2,0.2,0.8,0.8,0.2,0.2,0.2,0.8,0.2","2","",""
"","html-keyboard-response","294","221554","0.0-294.0","3YGXWBAF713C77USTWK4WWHPTWKC4K","A11JGMLOFFPV65","3UUIU9GZC5R93N292LT21FRJ9VS5TN","","null","<img src=""img/land5.png"" style=""width:200px; border:14px solid green;"">","null","","","","","","","","","",""
"","image-keyboard-response","295","222688","0.0-295.0","3YGXWBAF713C77USTWK4WWHPTWKC4K","A11JGMLOFFPV65","3UUIU9GZC5R93N292LT21FRJ9VS5TN","","1133.5","img/land2.png","75","1134.2999999821186","2","1","3","2","0.8,0.2,0.2,0.2,0.8,0.2,0.2,0.2,0.8","0.2,0.2,0.8,0.8,0.2,0.2,0.2,0.8,0.2","2","",""
"","html-keyboard-response","296","222990","0.0-296.0","3YGXWBAF713C77USTWK4WWHPTWKC4K","A11JGMLOFFPV65","3UUIU9GZC5R93N292LT21FRJ9VS5TN","","null","<img src=""img/land2.png"" style=""width:200px; border:14px solid green;"">","null","","","","","","","","","",""
"","image-keyboard-response","297","224646","0.0-297.0","3YGXWBAF713C77USTWK4WWHPTWKC4K","A11JGMLOFFPV65","3UUIU9GZC5R93N292LT21FRJ9VS5TN","","1654.7999999821186","img/land5.png","76","1655.699999988079","3","1","1","2","0.8,0.2,0.2,0.2,0.8,0.2,0.2,0.2,0.8","0.2,0.2,0.8,0.8,0.2,0.2,0.2,0.8,0.2","2","",""
"","html-keyboard-response","298","224948","0.0-298.0","3YGXWBAF713C77USTWK4WWHPTWKC4K","A11JGMLOFFPV65","3UUIU9GZC5R93N292LT21FRJ9VS5TN","","null","<img src=""img/land5.png"" style=""width:200px; border:14px solid green;"">","null","","","","","","","","","",""
"","image-keyboard-response","299","226861","0.0-299.0","3YGXWBAF713C77USTWK4WWHPTWKC4K","A11JGMLOFFPV65","3UUIU9GZC5R93N292LT21FRJ9VS5TN","","1911.199999988079","img/land5.png","76","1912.300000011921","3","1","1","2","0.8,0.2,0.2,0.2,0.8,0.2,0.2,0.2,0.8","0.2,0.2,0.8,0.8,0.2,0.2,0.2,0.8,0.2","2","",""
"","html-keyboard-response","300","227164","0.0-300.0","3YGXWBAF713C77USTWK4WWHPTWKC4K","A11JGMLOFFPV65","3UUIU9GZC5R93N292LT21FRJ9VS5TN","","null","<img src=""img/land5.png"" style=""width:200px; border:14px solid green;"">","null","","","","","","","","","",""
"","image-keyboard-response","301","228486","0.0-301.0","3YGXWBAF713C77USTWK4WWHPTWKC4K","A11JGMLOFFPV65","3UUIU9GZC5R93N292LT21FRJ9VS5TN","","1321.0999999940395","img/land5.png","76","1322","3","1","1","2","0.8,0.2,0.2,0.2,0.8,0.2,0.2,0.2,0.8","0.2,0.2,0.8,0.8,0.2,0.2,0.2,0.8,0.2","2","",""
"","html-keyboard-response","302","228788","0.0-302.0","3YGXWBAF713C77USTWK4WWHPTWKC4K","A11JGMLOFFPV65","3UUIU9GZC5R93N292LT21FRJ9VS5TN","","null","<img src=""img/land5.png"" style=""width:200px; border:14px solid green;"">","null","","","","","","","","","",""
"","image-keyboard-response","303","230791","0.0-303.0","3YGXWBAF713C77USTWK4WWHPTWKC4K","A11JGMLOFFPV65","3UUIU9GZC5R93N292LT21FRJ9VS5TN","","","img/land5.png","","2002.5","-1","0","1","2","0.8,0.2,0.2,0.2,0.8,0.2,0.2,0.2,0.8","0.2,0.2,0.8,0.8,0.2,0.2,0.2,0.8,0.2","2","",""
"","html-keyboard-response","304","231093","0.0-304.0","3YGXWBAF713C77USTWK4WWHPTWKC4K","A11JGMLOFFPV65","3UUIU9GZC5R93N292LT21FRJ9VS5TN","","null","<img src=""img/land5.png"" style=""width:200px;border:14px solid red;"">","null","","","","","","","","","",""
"","image-keyboard-response","305","232051","0.0-305.0","3YGXWBAF713C77USTWK4WWHPTWKC4K","A11JGMLOFFPV65","3UUIU9GZC5R93N292LT21FRJ9VS5TN","","956.7000000178814","img/land2.png","75","957.6000000238419","2","1","3","2","0.8,0.2,0.2,0.2,0.8,0.2,0.2,0.2,0.8","0.2,0.2,0.8,0.8,0.2,0.2,0.2,0.8,0.2","2","",""
"","html-keyboard-response","306","232354","0.0-306.0","3YGXWBAF713C77USTWK4WWHPTWKC4K","A11JGMLOFFPV65","3UUIU9GZC5R93N292LT21FRJ9VS5TN","","null","<img src=""img/land2.png"" style=""width:200px; border:14px solid green;"">","null","","","","","","","","","",""
"","image-keyboard-response","307","234357","0.0-307.0","3YGXWBAF713C77USTWK4WWHPTWKC4K","A11JGMLOFFPV65","3UUIU9GZC5R93N292LT21FRJ9VS5TN","","","img/land1.png","","2002.199999988079","-1","0","2","2","0.8,0.2,0.2,0.2,0.8,0.2,0.2,0.2,0.8","0.2,0.2,0.8,0.8,0.2,0.2,0.2,0.8,0.2","2","",""
"","html-keyboard-response","308","234659","0.0-308.0","3YGXWBAF713C77USTWK4WWHPTWKC4K","A11JGMLOFFPV65","3UUIU9GZC5R93N292LT21FRJ9VS5TN","","null","<img src=""img/land1.png"" style=""width:200px;border:14px solid red;"">","null","","","","","","","","","",""
"","image-keyboard-response","309","234706","0.0-309.0","3YGXWBAF713C77USTWK4WWHPTWKC4K","A11JGMLOFFPV65","3UUIU9GZC5R93N292LT21FRJ9VS5TN","","45.400000005960464","img/land2.png","74","46.30000001192093","1","1","3","2","0.8,0.2,0.2,0.2,0.8,0.2,0.2,0.2,0.8","0.2,0.2,0.8,0.8,0.2,0.2,0.2,0.8,0.2","2","",""
"","html-keyboard-response","310","235008","0.0-310.0","3YGXWBAF713C77USTWK4WWHPTWKC4K","A11JGMLOFFPV65","3UUIU9GZC5R93N292LT21FRJ9VS5TN","","null","<img src=""img/land2.png"" style=""width:200px; border:14px solid green;"">","null","","","","","","","","","",""
"","image-keyboard-response","311","236786","0.0-311.0","3YGXWBAF713C77USTWK4WWHPTWKC4K","A11JGMLOFFPV65","3UUIU9GZC5R93N292LT21FRJ9VS5TN","","1776","img/land2.png","74","1777.5999999940395","1","0","3","2","0.8,0.2,0.2,0.2,0.8,0.2,0.2,0.2,0.8","0.2,0.2,0.8,0.8,0.2,0.2,0.2,0.8,0.2","2","",""
"","html-keyboard-response","312","237089","0.0-312.0","3YGXWBAF713C77USTWK4WWHPTWKC4K","A11JGMLOFFPV65","3UUIU9GZC5R93N292LT21FRJ9VS5TN","","null","<img src=""img/land2.png"" style=""width:200px;border:14px solid red;"">","null","","","","","","","","","",""
"","image-keyboard-response","313","238631","0.0-313.0","3YGXWBAF713C77USTWK4WWHPTWKC4K","A11JGMLOFFPV65","3UUIU9GZC5R93N292LT21FRJ9VS5TN","","1541","img/land2.png","75","1541.8999999761581","2","1","3","2","0.8,0.2,0.2,0.2,0.8,0.2,0.2,0.2,0.8","0.2,0.2,0.8,0.8,0.2,0.2,0.2,0.8,0.2","2","",""
"","html-keyboard-response","314","238933","0.0-314.0","3YGXWBAF713C77USTWK4WWHPTWKC4K","A11JGMLOFFPV65","3UUIU9GZC5R93N292LT21FRJ9VS5TN","","null","<img src=""img/land2.png"" style=""width:200px; border:14px solid green;"">","null","","","","","","","","","",""
"","image-keyboard-response","315","240521","0.0-315.0","3YGXWBAF713C77USTWK4WWHPTWKC4K","A11JGMLOFFPV65","3UUIU9GZC5R93N292LT21FRJ9VS5TN","","1586.800000011921","img/land1.png","76","1587.7000000178814","3","0","2","2","0.8,0.2,0.2,0.2,0.8,0.2,0.2,0.2,0.8","0.2,0.2,0.8,0.8,0.2,0.2,0.2,0.8,0.2","2","",""
"","html-keyboard-response","316","240823","0.0-316.0","3YGXWBAF713C77USTWK4WWHPTWKC4K","A11JGMLOFFPV65","3UUIU9GZC5R93N292LT21FRJ9VS5TN","","null","<img src=""img/land1.png"" style=""width:200px;border:14px solid red;"">","null","","","","","","","","","",""
"","image-keyboard-response","317","241743","0.0-317.0","3YGXWBAF713C77USTWK4WWHPTWKC4K","A11JGMLOFFPV65","3UUIU9GZC5R93N292LT21FRJ9VS5TN","","916.5","img/land5.png","74","917.5","1","0","1","2","0.8,0.2,0.2,0.2,0.8,0.2,0.2,0.2,0.8","0.2,0.2,0.8,0.8,0.2,0.2,0.2,0.8,0.2","2","",""
"","html-keyboard-response","318","242045","0.0-318.0","3YGXWBAF713C77USTWK4WWHPTWKC4K","A11JGMLOFFPV65","3UUIU9GZC5R93N292LT21FRJ9VS5TN","","null","<img src=""img/land5.png"" style=""width:200px;border:14px solid red;"">","null","","","","","","","","","",""
"","image-keyboard-response","319","242803","0.0-319.0","3YGXWBAF713C77USTWK4WWHPTWKC4K","A11JGMLOFFPV65","3UUIU9GZC5R93N292LT21FRJ9VS5TN","","756.7000000178814","img/land5.png","76","757.6000000238419","3","1","1","2","0.8,0.2,0.2,0.2,0.8,0.2,0.2,0.2,0.8","0.2,0.2,0.8,0.8,0.2,0.2,0.2,0.8,0.2","2","",""
"","html-keyboard-response","320","243105","0.0-320.0","3YGXWBAF713C77USTWK4WWHPTWKC4K","A11JGMLOFFPV65","3UUIU9GZC5R93N292LT21FRJ9VS5TN","","null","<img src=""img/land5.png"" style=""width:200px; border:14px solid green;"">","null","","","","","","","","","",""
"","image-keyboard-response","321","244493","0.0-321.0","3YGXWBAF713C77USTWK4WWHPTWKC4K","A11JGMLOFFPV65","3UUIU9GZC5R93N292LT21FRJ9VS5TN","","1386.2999999821186","img/land1.png","76","1387.2999999821186","3","0","2","2","0.8,0.2,0.2,0.2,0.8,0.2,0.2,0.2,0.8","0.2,0.2,0.8,0.8,0.2,0.2,0.2,0.8,0.2","2","",""
"","html-keyboard-response","322","244796","0.0-322.0","3YGXWBAF713C77USTWK4WWHPTWKC4K","A11JGMLOFFPV65","3UUIU9GZC5R93N292LT21FRJ9VS5TN","","null","<img src=""img/land1.png"" style=""width:200px;border:14px solid red;"">","null","","","","","","","","","",""
"","image-keyboard-response","323","245592","0.0-323.0","3YGXWBAF713C77USTWK4WWHPTWKC4K","A11JGMLOFFPV65","3UUIU9GZC5R93N292LT21FRJ9VS5TN","","795.5","img/land5.png","75","796.5","2","0","1","2","0.8,0.2,0.2,0.2,0.8,0.2,0.2,0.2,0.8","0.2,0.2,0.8,0.8,0.2,0.2,0.2,0.8,0.2","2","",""
"","html-keyboard-response","324","245895","0.0-324.0","3YGXWBAF713C77USTWK4WWHPTWKC4K","A11JGMLOFFPV65","3UUIU9GZC5R93N292LT21FRJ9VS5TN","","null","<img src=""img/land5.png"" style=""width:200px;border:14px solid red;"">","null","","","","","","","","","",""
"","image-keyboard-response","325","246742","0.0-325.0","3YGXWBAF713C77USTWK4WWHPTWKC4K","A11JGMLOFFPV65","3UUIU9GZC5R93N292LT21FRJ9VS5TN","","846.7999999821186","img/land5.png","74","847.6999999880791","1","1","1","2","0.8,0.2,0.2,0.2,0.8,0.2,0.2,0.2,0.8","0.2,0.2,0.8,0.8,0.2,0.2,0.2,0.8,0.2","2","",""
"","html-keyboard-response","326","247044","0.0-326.0","3YGXWBAF713C77USTWK4WWHPTWKC4K","A11JGMLOFFPV65","3UUIU9GZC5R93N292LT21FRJ9VS5TN","","null","<img src=""img/land5.png"" style=""width:200px; border:14px solid green;"">","null","","","","","","","","","",""
"","image-keyboard-response","327","247928","0.0-327.0","3YGXWBAF713C77USTWK4WWHPTWKC4K","A11JGMLOFFPV65","3UUIU9GZC5R93N292LT21FRJ9VS5TN","","882.8000000119209","img/land5.png","74","883.5999999940395","1","0","1","2","0.8,0.2,0.2,0.2,0.8,0.2,0.2,0.2,0.8","0.2,0.2,0.8,0.8,0.2,0.2,0.2,0.8,0.2","2","",""
"","html-keyboard-response","328","248230","0.0-328.0","3YGXWBAF713C77USTWK4WWHPTWKC4K","A11JGMLOFFPV65","3UUIU9GZC5R93N292LT21FRJ9VS5TN","","null","<img src=""img/land5.png"" style=""width:200px;border:14px solid red;"">","null","","","","","","","","","",""
"","image-keyboard-response","329","249382","0.0-329.0","3YGXWBAF713C77USTWK4WWHPTWKC4K","A11JGMLOFFPV65","3UUIU9GZC5R93N292LT21FRJ9VS5TN","","1151.5","img/land5.png","76","1152.4000000059605","3","1","1","2","0.8,0.2,0.2,0.2,0.8,0.2,0.2,0.2,0.8","0.2,0.2,0.8,0.8,0.2,0.2,0.2,0.8,0.2","2","",""
"","html-keyboard-response","330","249685","0.0-330.0","3YGXWBAF713C77USTWK4WWHPTWKC4K","A11JGMLOFFPV65","3UUIU9GZC5R93N292LT21FRJ9VS5TN","","null","<img src=""img/land5.png"" style=""width:200px; border:14px solid green;"">","null","","","","","","","","","",""
"","image-keyboard-response","331","251688","0.0-331.0","3YGXWBAF713C77USTWK4WWHPTWKC4K","A11JGMLOFFPV65","3UUIU9GZC5R93N292LT21FRJ9VS5TN","","","img/land1.png","","2002.199999988079","-1","0","2","2","0.8,0.2,0.2,0.2,0.8,0.2,0.2,0.2,0.8","0.2,0.2,0.8,0.8,0.2,0.2,0.2,0.8,0.2","2","",""
"","html-keyboard-response","332","251991","0.0-332.0","3YGXWBAF713C77USTWK4WWHPTWKC4K","A11JGMLOFFPV65","3UUIU9GZC5R93N292LT21FRJ9VS5TN","","null","<img src=""img/land1.png"" style=""width:200px;border:14px solid red;"">","null","","","","","","","","","",""
"","image-keyboard-response","333","253062","0.0-333.0","3YGXWBAF713C77USTWK4WWHPTWKC4K","A11JGMLOFFPV65","3UUIU9GZC5R93N292LT21FRJ9VS5TN","","1070.2000000178814","img/land2.png","75","1071","2","1","3","2","0.8,0.2,0.2,0.2,0.8,0.2,0.2,0.2,0.8","0.2,0.2,0.8,0.8,0.2,0.2,0.2,0.8,0.2","2","",""
"","html-keyboard-response","334","253364","0.0-334.0","3YGXWBAF713C77USTWK4WWHPTWKC4K","A11JGMLOFFPV65","3UUIU9GZC5R93N292LT21FRJ9VS5TN","","null","<img src=""img/land2.png"" style=""width:200px; border:14px solid green;"">","null","","","","","","","","","",""
"","image-keyboard-response","335","254643","0.0-335.0","3YGXWBAF713C77USTWK4WWHPTWKC4K","A11JGMLOFFPV65","3UUIU9GZC5R93N292LT21FRJ9VS5TN","","1277.2000000178814","img/land5.png","76","1278.2000000178814","3","1","1","2","0.8,0.2,0.2,0.2,0.8,0.2,0.2,0.2,0.8","0.2,0.2,0.8,0.8,0.2,0.2,0.2,0.8,0.2","2","",""
"","html-keyboard-response","336","254945","0.0-336.0","3YGXWBAF713C77USTWK4WWHPTWKC4K","A11JGMLOFFPV65","3UUIU9GZC5R93N292LT21FRJ9VS5TN","","null","<img src=""img/land5.png"" style=""width:200px; border:14px solid green;"">","null","","","","","","","","","",""
"","image-keyboard-response","337","256947","0.0-337.0","3YGXWBAF713C77USTWK4WWHPTWKC4K","A11JGMLOFFPV65","3UUIU9GZC5R93N292LT21FRJ9VS5TN","","","img/land1.png","","2002.300000011921","-1","0","2","2","0.8,0.2,0.2,0.2,0.8,0.2,0.2,0.2,0.8","0.2,0.2,0.8,0.8,0.2,0.2,0.2,0.8,0.2","2","",""
"","html-keyboard-response","338","257250","0.0-338.0","3YGXWBAF713C77USTWK4WWHPTWKC4K","A11JGMLOFFPV65","3UUIU9GZC5R93N292LT21FRJ9VS5TN","","null","<img src=""img/land1.png"" style=""width:200px;border:14px solid red;"">","null","","","","","","","","","",""
"","image-keyboard-response","339","258577","0.0-339.0","3YGXWBAF713C77USTWK4WWHPTWKC4K","A11JGMLOFFPV65","3UUIU9GZC5R93N292LT21FRJ9VS5TN","","1326.0999999940395","img/land5.png","76","1327.0999999940395","3","0","1","2","0.8,0.2,0.2,0.2,0.8,0.2,0.2,0.2,0.8","0.2,0.2,0.8,0.8,0.2,0.2,0.2,0.8,0.2","2","",""
"","html-keyboard-response","340","258879","0.0-340.0","3YGXWBAF713C77USTWK4WWHPTWKC4K","A11JGMLOFFPV65","3UUIU9GZC5R93N292LT21FRJ9VS5TN","","null","<img src=""img/land5.png"" style=""width:200px;border:14px solid red;"">","null","","","","","","","","","",""
"","image-keyboard-response","341","259772","0.0-341.0","3YGXWBAF713C77USTWK4WWHPTWKC4K","A11JGMLOFFPV65","3UUIU9GZC5R93N292LT21FRJ9VS5TN","","891.5","img/land2.png","76","892.5999999940395","3","1","3","2","0.8,0.2,0.2,0.2,0.8,0.2,0.2,0.2,0.8","0.2,0.2,0.8,0.8,0.2,0.2,0.2,0.8,0.2","2","",""
"","html-keyboard-response","342","260075","0.0-342.0","3YGXWBAF713C77USTWK4WWHPTWKC4K","A11JGMLOFFPV65","3UUIU9GZC5R93N292LT21FRJ9VS5TN","","null","<img src=""img/land2.png"" style=""width:200px; border:14px solid green;"">","null","","","","","","","","","",""
"","image-keyboard-response","343","261342","0.0-343.0","3YGXWBAF713C77USTWK4WWHPTWKC4K","A11JGMLOFFPV65","3UUIU9GZC5R93N292LT21FRJ9VS5TN","","1266.300000011921","img/land5.png","75","1267.2999999821186","2","0","1","2","0.8,0.2,0.2,0.2,0.8,0.2,0.2,0.2,0.8","0.2,0.2,0.8,0.8,0.2,0.2,0.2,0.8,0.2","2","",""
"","html-keyboard-response","344","261646","0.0-344.0","3YGXWBAF713C77USTWK4WWHPTWKC4K","A11JGMLOFFPV65","3UUIU9GZC5R93N292LT21FRJ9VS5TN","","null","<img src=""img/land5.png"" style=""width:200px;border:14px solid red;"">","null","","","","","","","","","",""
"","image-keyboard-response","345","262253","0.0-345.0","3YGXWBAF713C77USTWK4WWHPTWKC4K","A11JGMLOFFPV65","3UUIU9GZC5R93N292LT21FRJ9VS5TN","","606.0999999940395","img/land5.png","76","607.0999999940395","3","1","1","2","0.8,0.2,0.2,0.2,0.8,0.2,0.2,0.2,0.8","0.2,0.2,0.8,0.8,0.2,0.2,0.2,0.8,0.2","2","",""
"","html-keyboard-response","346","262555","0.0-346.0","3YGXWBAF713C77USTWK4WWHPTWKC4K","A11JGMLOFFPV65","3UUIU9GZC5R93N292LT21FRJ9VS5TN","","null","<img src=""img/land5.png"" style=""width:200px; border:14px solid green;"">","null","","","","","","","","","",""
"","image-keyboard-response","347","263252","0.0-347.0","3YGXWBAF713C77USTWK4WWHPTWKC4K","A11JGMLOFFPV65","3UUIU9GZC5R93N292LT21FRJ9VS5TN","","695.3999999761581","img/land2.png","76","696.5","3","0","3","2","0.8,0.2,0.2,0.2,0.8,0.2,0.2,0.2,0.8","0.2,0.2,0.8,0.8,0.2,0.2,0.2,0.8,0.2","2","",""
"","html-keyboard-response","348","263554","0.0-348.0","3YGXWBAF713C77USTWK4WWHPTWKC4K","A11JGMLOFFPV65","3UUIU9GZC5R93N292LT21FRJ9VS5TN","","null","<img src=""img/land2.png"" style=""width:200px;border:14px solid red;"">","null","","","","","","","","","",""
"","image-keyboard-response","349","264043","0.0-349.0","3YGXWBAF713C77USTWK4WWHPTWKC4K","A11JGMLOFFPV65","3UUIU9GZC5R93N292LT21FRJ9VS5TN","","488.2999999821186","img/land5.png","75","489.09999999403954","2","1","1","2","0.8,0.2,0.2,0.2,0.8,0.2,0.2,0.2,0.8","0.2,0.2,0.8,0.8,0.2,0.2,0.2,0.8,0.2","2","",""
"","html-keyboard-response","350","264346","0.0-350.0","3YGXWBAF713C77USTWK4WWHPTWKC4K","A11JGMLOFFPV65","3UUIU9GZC5R93N292LT21FRJ9VS5TN","","null","<img src=""img/land5.png"" style=""width:200px; border:14px solid green;"">","null","","","","","","","","","",""
"","image-keyboard-response","351","264902","0.0-351.0","3YGXWBAF713C77USTWK4WWHPTWKC4K","A11JGMLOFFPV65","3UUIU9GZC5R93N292LT21FRJ9VS5TN","","555","img/land1.png","76","556.2000000178814","3","0","2","2","0.8,0.2,0.2,0.2,0.8,0.2,0.2,0.2,0.8","0.2,0.2,0.8,0.8,0.2,0.2,0.2,0.8,0.2","2","",""
"","html-keyboard-response","352","265204","0.0-352.0","3YGXWBAF713C77USTWK4WWHPTWKC4K","A11JGMLOFFPV65","3UUIU9GZC5R93N292LT21FRJ9VS5TN","","null","<img src=""img/land1.png"" style=""width:200px;border:14px solid red;"">","null","","","","","","","","","",""
"","image-keyboard-response","353","265837","0.0-353.0","3YGXWBAF713C77USTWK4WWHPTWKC4K","A11JGMLOFFPV65","3UUIU9GZC5R93N292LT21FRJ9VS5TN","","632.0999999940395","img/land2.png","75","633","2","0","3","2","0.8,0.2,0.2,0.2,0.8,0.2,0.2,0.2,0.8","0.2,0.2,0.8,0.8,0.2,0.2,0.2,0.8,0.2","2","",""
"","html-keyboard-response","354","266140","0.0-354.0","3YGXWBAF713C77USTWK4WWHPTWKC4K","A11JGMLOFFPV65","3UUIU9GZC5R93N292LT21FRJ9VS5TN","","null","<img src=""img/land2.png"" style=""width:200px;border:14px solid red;"">","null","","","","","","","","","",""
"","image-keyboard-response","355","266782","0.0-355.0","3YGXWBAF713C77USTWK4WWHPTWKC4K","A11JGMLOFFPV65","3UUIU9GZC5R93N292LT21FRJ9VS5TN","","641.5999999940395","img/land1.png","76","642.4000000059605","3","0","2","2","0.8,0.2,0.2,0.2,0.8,0.2,0.2,0.2,0.8","0.2,0.2,0.8,0.8,0.2,0.2,0.2,0.8,0.2","2","",""
