"success","trial_type","trial_index","time_elapsed","internal_node_id","assignmentID","mturkID","hitID","view_history","rt","stimulus","key_press","reactionTime","a","r","s","cond","reward_cond","reward_cond_actual","reward_matrix_idx","responses","question_order"
"true","fullscreen","0","4321","0.0-0.0","384PI804XTNBF01N7HN2ZYVUYME0S8","A11SDQ8ZAJ8D24","3P520RYKCHSO30HY2QJC6BDLS9Z5UE","","","","","","","","","","","","","",""
"","instructions","1","146633","0.0-1.0","384PI804XTNBF01N7HN2ZYVUYME0S8","A11SDQ8ZAJ8D24","3P520RYKCHSO30HY2QJC6BDLS9Z5UE","[{""page_index"":0,""viewing_time"":16058.199999999953},{""page_index"":1,""viewing_time"":31712},{""page_index"":2,""viewing_time"":19346.5},{""page_index"":3,""viewing_time"":15117.200000000186},{""page_index"":4,""viewing_time"":19774.59999999986},{""page_index"":5,""viewing_time"":32072.300000000047},{""page_index"":6,""viewing_time"":8223.699999999953}]","142306.5","","","","","","","","","","","",""
"","image-keyboard-response","2","148638","0.0-2.0","384PI804XTNBF01N7HN2ZYVUYME0S8","A11SDQ8ZAJ8D24","3P520RYKCHSO30HY2QJC6BDLS9Z5UE","","","img/land6.png","","2004.2999999998137","-1","0","1","1","0.8,0.2,0.2,0.2,0.8,0.2,0.2,0.2,0.8","0.8,0.2,0.2,0.2,0.8,0.2,0.2,0.2,0.8","1","",""
"","html-keyboard-response","3","148942","0.0-3.0","384PI804XTNBF01N7HN2ZYVUYME0S8","A11SDQ8ZAJ8D24","3P520RYKCHSO30HY2QJC6BDLS9Z5UE","","null","<img src=""img/land6.png"" style=""width:200px;border:14px solid red;"">","null","","","","","","","","","",""
"","image-keyboard-response","4","150945","0.0-4.0","384PI804XTNBF01N7HN2ZYVUYME0S8","A11SDQ8ZAJ8D24","3P520RYKCHSO30HY2QJC6BDLS9Z5UE","","","img/land3.png","","2002.4000000001397","-1","0","3","1","0.8,0.2,0.2,0.2,0.8,0.2,0.2,0.2,0.8","0.8,0.2,0.2,0.2,0.8,0.2,0.2,0.2,0.8","1","",""
"","html-keyboard-response","5","151248","0.0-5.0","384PI804XTNBF01N7HN2ZYVUYME0S8","A11SDQ8ZAJ8D24","3P520RYKCHSO30HY2QJC6BDLS9Z5UE","","null","<img src=""img/land3.png"" style=""width:200px;border:14px solid red;"">","null","","","","","","","","","",""
"","image-keyboard-response","6","152406","0.0-6.0","384PI804XTNBF01N7HN2ZYVUYME0S8","A11SDQ8ZAJ8D24","3P520RYKCHSO30HY2QJC6BDLS9Z5UE","","1155.7999999998137","img/land6.png","74","1157.5","1","1","1","1","0.8,0.2,0.2,0.2,0.8,0.2,0.2,0.2,0.8","0.8,0.2,0.2,0.2,0.8,0.2,0.2,0.2,0.8","1","",""
"","html-keyboard-response","7","152710","0.0-7.0","384PI804XTNBF01N7HN2ZYVUYME0S8","A11SDQ8ZAJ8D24","3P520RYKCHSO30HY2QJC6BDLS9Z5UE","","null","<img src=""img/land6.png"" style=""width:200px; border:14px solid green;"">","null","","","","","","","","","",""
"","image-keyboard-response","8","154725","0.0-8.0","384PI804XTNBF01N7HN2ZYVUYME0S8","A11SDQ8ZAJ8D24","3P520RYKCHSO30HY2QJC6BDLS9Z5UE","","","img/land3.png","","2014","-1","0","3","1","0.8,0.2,0.2,0.2,0.8,0.2,0.2,0.2,0.8","0.8,0.2,0.2,0.2,0.8,0.2,0.2,0.2,0.8","1","",""
"","html-keyboard-response","9","155029","0.0-9.0","384PI804XTNBF01N7HN2ZYVUYME0S8","A11SDQ8ZAJ8D24","3P520RYKCHSO30HY2QJC6BDLS9Z5UE","","null","<img src=""img/land3.png"" style=""width:200px;border:14px solid red;"">","null","","","","","","","","","",""
"","image-keyboard-response","10","155175","0.0-10.0","384PI804XTNBF01N7HN2ZYVUYME0S8","A11SDQ8ZAJ8D24","3P520RYKCHSO30HY2QJC6BDLS9Z5UE","","144.30000000004657","img/land6.png","74","145.79999999981374","1","1","1","1","0.8,0.2,0.2,0.2,0.8,0.2,0.2,0.2,0.8","0.8,0.2,0.2,0.2,0.8,0.2,0.2,0.2,0.8","1","",""
"","html-keyboard-response","11","155478","0.0-11.0","384PI804XTNBF01N7HN2ZYVUYME0S8","A11SDQ8ZAJ8D24","3P520RYKCHSO30HY2QJC6BDLS9Z5UE","","null","<img src=""img/land6.png"" style=""width:200px; border:14px solid green;"">","null","","","","","","","","","",""
"","image-keyboard-response","12","157491","0.0-12.0","384PI804XTNBF01N7HN2ZYVUYME0S8","A11SDQ8ZAJ8D24","3P520RYKCHSO30HY2QJC6BDLS9Z5UE","","","img/land5.png","","2012.8999999999069","-1","0","2","1","0.8,0.2,0.2,0.2,0.8,0.2,0.2,0.2,0.8","0.8,0.2,0.2,0.2,0.8,0.2,0.2,0.2,0.8","1","",""
"","html-keyboard-response","13","157795","0.0-13.0","384PI804XTNBF01N7HN2ZYVUYME0S8","A11SDQ8ZAJ8D24","3P520RYKCHSO30HY2QJC6BDLS9Z5UE","","null","<img src=""img/land5.png"" style=""width:200px;border:14px solid red;"">","null","","","","","","","","","",""
"","image-keyboard-response","14","157845","0.0-14.0","384PI804XTNBF01N7HN2ZYVUYME0S8","A11SDQ8ZAJ8D24","3P520RYKCHSO30HY2QJC6BDLS9Z5UE","","48.10000000009313","img/land6.png","74","50","1","0","1","1","0.8,0.2,0.2,0.2,0.8,0.2,0.2,0.2,0.8","0.8,0.2,0.2,0.2,0.8,0.2,0.2,0.2,0.8","1","",""
"","html-keyboard-response","15","158148","0.0-15.0","384PI804XTNBF01N7HN2ZYVUYME0S8","A11SDQ8ZAJ8D24","3P520RYKCHSO30HY2QJC6BDLS9Z5UE","","null","<img src=""img/land6.png"" style=""width:200px;border:14px solid red;"">","null","","","","","","","","","",""
"","image-keyboard-response","16","159433","0.0-16.0","384PI804XTNBF01N7HN2ZYVUYME0S8","A11SDQ8ZAJ8D24","3P520RYKCHSO30HY2QJC6BDLS9Z5UE","","1282.5","img/land6.png","74","1284.3000000000466","1","1","1","1","0.8,0.2,0.2,0.2,0.8,0.2,0.2,0.2,0.8","0.8,0.2,0.2,0.2,0.8,0.2,0.2,0.2,0.8","1","",""
"","html-keyboard-response","17","159735","0.0-17.0","384PI804XTNBF01N7HN2ZYVUYME0S8","A11SDQ8ZAJ8D24","3P520RYKCHSO30HY2QJC6BDLS9Z5UE","","null","<img src=""img/land6.png"" style=""width:200px; border:14px solid green;"">","null","","","","","","","","","",""
"","image-keyboard-response","18","161738","0.0-18.0","384PI804XTNBF01N7HN2ZYVUYME0S8","A11SDQ8ZAJ8D24","3P520RYKCHSO30HY2QJC6BDLS9Z5UE","","","img/land6.png","","2002.5","-1","0","1","1","0.8,0.2,0.2,0.2,0.8,0.2,0.2,0.2,0.8","0.8,0.2,0.2,0.2,0.8,0.2,0.2,0.2,0.8","1","",""
"","html-keyboard-response","19","162041","0.0-19.0","384PI804XTNBF01N7HN2ZYVUYME0S8","A11SDQ8ZAJ8D24","3P520RYKCHSO30HY2QJC6BDLS9Z5UE","","null","<img src=""img/land6.png"" style=""width:200px;border:14px solid red;"">","null","","","","","","","","","",""
"","image-keyboard-response","20","162188","0.0-20.0","384PI804XTNBF01N7HN2ZYVUYME0S8","A11SDQ8ZAJ8D24","3P520RYKCHSO30HY2QJC6BDLS9Z5UE","","144.39999999990687","img/land5.png","74","146.80000000004657","1","0","2","1","0.8,0.2,0.2,0.2,0.8,0.2,0.2,0.2,0.8","0.8,0.2,0.2,0.2,0.8,0.2,0.2,0.2,0.8","1","",""
"","html-keyboard-response","21","162492","0.0-21.0","384PI804XTNBF01N7HN2ZYVUYME0S8","A11SDQ8ZAJ8D24","3P520RYKCHSO30HY2QJC6BDLS9Z5UE","","null","<img src=""img/land5.png"" style=""width:200px;border:14px solid red;"">","null","","","","","","","","","",""
"","image-keyboard-response","22","163395","0.0-22.0","384PI804XTNBF01N7HN2ZYVUYME0S8","A11SDQ8ZAJ8D24","3P520RYKCHSO30HY2QJC6BDLS9Z5UE","","901","img/land6.png","74","902.8999999999069","1","0","1","1","0.8,0.2,0.2,0.2,0.8,0.2,0.2,0.2,0.8","0.8,0.2,0.2,0.2,0.8,0.2,0.2,0.2,0.8","1","",""
"","html-keyboard-response","23","163697","0.0-23.0","384PI804XTNBF01N7HN2ZYVUYME0S8","A11SDQ8ZAJ8D24","3P520RYKCHSO30HY2QJC6BDLS9Z5UE","","null","<img src=""img/land6.png"" style=""width:200px;border:14px solid red;"">","null","","","","","","","","","",""
"","image-keyboard-response","24","164513","0.0-24.0","384PI804XTNBF01N7HN2ZYVUYME0S8","A11SDQ8ZAJ8D24","3P520RYKCHSO30HY2QJC6BDLS9Z5UE","","814.0999999998603","img/land5.png","74","815.6999999999534","1","0","2","1","0.8,0.2,0.2,0.2,0.8,0.2,0.2,0.2,0.8","0.8,0.2,0.2,0.2,0.8,0.2,0.2,0.2,0.8","1","",""
"","html-keyboard-response","25","164815","0.0-25.0","384PI804XTNBF01N7HN2ZYVUYME0S8","A11SDQ8ZAJ8D24","3P520RYKCHSO30HY2QJC6BDLS9Z5UE","","null","<img src=""img/land5.png"" style=""width:200px;border:14px solid red;"">","null","","","","","","","","","",""
"","image-keyboard-response","26","165460","0.0-26.0","384PI804XTNBF01N7HN2ZYVUYME0S8","A11SDQ8ZAJ8D24","3P520RYKCHSO30HY2QJC6BDLS9Z5UE","","642.9000000001397","img/land5.png","75","644.3000000000466","2","1","2","1","0.8,0.2,0.2,0.2,0.8,0.2,0.2,0.2,0.8","0.8,0.2,0.2,0.2,0.8,0.2,0.2,0.2,0.8","1","",""
"","html-keyboard-response","27","165763","0.0-27.0","384PI804XTNBF01N7HN2ZYVUYME0S8","A11SDQ8ZAJ8D24","3P520RYKCHSO30HY2QJC6BDLS9Z5UE","","null","<img src=""img/land5.png"" style=""width:200px; border:14px solid green;"">","null","","","","","","","","","",""
"","image-keyboard-response","28","167670","0.0-28.0","384PI804XTNBF01N7HN2ZYVUYME0S8","A11SDQ8ZAJ8D24","3P520RYKCHSO30HY2QJC6BDLS9Z5UE","","1905.3000000000466","img/land5.png","75","1906.9000000001397","2","1","2","1","0.8,0.2,0.2,0.2,0.8,0.2,0.2,0.2,0.8","0.8,0.2,0.2,0.2,0.8,0.2,0.2,0.2,0.8","1","",""
"","html-keyboard-response","29","167975","0.0-29.0","384PI804XTNBF01N7HN2ZYVUYME0S8","A11SDQ8ZAJ8D24","3P520RYKCHSO30HY2QJC6BDLS9Z5UE","","null","<img src=""img/land5.png"" style=""width:200px; border:14px solid green;"">","null","","","","","","","","","",""
"","image-keyboard-response","30","169132","0.0-30.0","384PI804XTNBF01N7HN2ZYVUYME0S8","A11SDQ8ZAJ8D24","3P520RYKCHSO30HY2QJC6BDLS9Z5UE","","1155.3999999999069","img/land5.png","75","1157.1999999999534","2","1","2","1","0.8,0.2,0.2,0.2,0.8,0.2,0.2,0.2,0.8","0.8,0.2,0.2,0.2,0.8,0.2,0.2,0.2,0.8","1","",""
"","html-keyboard-response","31","169435","0.0-31.0","384PI804XTNBF01N7HN2ZYVUYME0S8","A11SDQ8ZAJ8D24","3P520RYKCHSO30HY2QJC6BDLS9Z5UE","","null","<img src=""img/land5.png"" style=""width:200px; border:14px solid green;"">","null","","","","","","","","","",""
"","image-keyboard-response","32","170498","0.0-32.0","384PI804XTNBF01N7HN2ZYVUYME0S8","A11SDQ8ZAJ8D24","3P520RYKCHSO30HY2QJC6BDLS9Z5UE","","1060.2000000001863","img/land3.png","74","1061.9000000001397","1","0","3","1","0.8,0.2,0.2,0.2,0.8,0.2,0.2,0.2,0.8","0.8,0.2,0.2,0.2,0.8,0.2,0.2,0.2,0.8","1","",""
"","html-keyboard-response","33","170802","0.0-33.0","384PI804XTNBF01N7HN2ZYVUYME0S8","A11SDQ8ZAJ8D24","3P520RYKCHSO30HY2QJC6BDLS9Z5UE","","null","<img src=""img/land3.png"" style=""width:200px;border:14px solid red;"">","null","","","","","","","","","",""
"","image-keyboard-response","34","171447","0.0-34.0","384PI804XTNBF01N7HN2ZYVUYME0S8","A11SDQ8ZAJ8D24","3P520RYKCHSO30HY2QJC6BDLS9Z5UE","","643","img/land6.png","75","644.8000000000466","2","0","1","1","0.8,0.2,0.2,0.2,0.8,0.2,0.2,0.2,0.8","0.8,0.2,0.2,0.2,0.8,0.2,0.2,0.2,0.8","1","",""
"","html-keyboard-response","35","171751","0.0-35.0","384PI804XTNBF01N7HN2ZYVUYME0S8","A11SDQ8ZAJ8D24","3P520RYKCHSO30HY2QJC6BDLS9Z5UE","","null","<img src=""img/land6.png"" style=""width:200px;border:14px solid red;"">","null","","","","","","","","","",""
"","image-keyboard-response","36","172409","0.0-36.0","384PI804XTNBF01N7HN2ZYVUYME0S8","A11SDQ8ZAJ8D24","3P520RYKCHSO30HY2QJC6BDLS9Z5UE","","656.6999999999534","img/land5.png","74","658","1","0","2","1","0.8,0.2,0.2,0.2,0.8,0.2,0.2,0.2,0.8","0.8,0.2,0.2,0.2,0.8,0.2,0.2,0.2,0.8","1","",""
"","html-keyboard-response","37","172712","0.0-37.0","384PI804XTNBF01N7HN2ZYVUYME0S8","A11SDQ8ZAJ8D24","3P520RYKCHSO30HY2QJC6BDLS9Z5UE","","null","<img src=""img/land5.png"" style=""width:200px;border:14px solid red;"">","null","","","","","","","","","",""
"","image-keyboard-response","38","173381","0.0-38.0","384PI804XTNBF01N7HN2ZYVUYME0S8","A11SDQ8ZAJ8D24","3P520RYKCHSO30HY2QJC6BDLS9Z5UE","","667.0999999998603","img/land5.png","75","669","2","1","2","1","0.8,0.2,0.2,0.2,0.8,0.2,0.2,0.2,0.8","0.8,0.2,0.2,0.2,0.8,0.2,0.2,0.2,0.8","1","",""
"","html-keyboard-response","39","173684","0.0-39.0","384PI804XTNBF01N7HN2ZYVUYME0S8","A11SDQ8ZAJ8D24","3P520RYKCHSO30HY2QJC6BDLS9Z5UE","","null","<img src=""img/land5.png"" style=""width:200px; border:14px solid green;"">","null","","","","","","","","","",""
"","image-keyboard-response","40","174640","0.0-40.0","384PI804XTNBF01N7HN2ZYVUYME0S8","A11SDQ8ZAJ8D24","3P520RYKCHSO30HY2QJC6BDLS9Z5UE","","954","img/land5.png","75","955.7000000001863","2","0","2","1","0.8,0.2,0.2,0.2,0.8,0.2,0.2,0.2,0.8","0.8,0.2,0.2,0.2,0.8,0.2,0.2,0.2,0.8","1","",""
"","html-keyboard-response","41","174943","0.0-41.0","384PI804XTNBF01N7HN2ZYVUYME0S8","A11SDQ8ZAJ8D24","3P520RYKCHSO30HY2QJC6BDLS9Z5UE","","null","<img src=""img/land5.png"" style=""width:200px;border:14px solid red;"">","null","","","","","","","","","",""
"","image-keyboard-response","42","175637","0.0-42.0","384PI804XTNBF01N7HN2ZYVUYME0S8","A11SDQ8ZAJ8D24","3P520RYKCHSO30HY2QJC6BDLS9Z5UE","","691.6000000000931","img/land5.png","74","693.6999999999534","1","0","2","1","0.8,0.2,0.2,0.2,0.8,0.2,0.2,0.2,0.8","0.8,0.2,0.2,0.2,0.8,0.2,0.2,0.2,0.8","1","",""
"","html-keyboard-response","43","175940","0.0-43.0","384PI804XTNBF01N7HN2ZYVUYME0S8","A11SDQ8ZAJ8D24","3P520RYKCHSO30HY2QJC6BDLS9Z5UE","","null","<img src=""img/land5.png"" style=""width:200px;border:14px solid red;"">","null","","","","","","","","","",""
"","image-keyboard-response","44","176628","0.0-44.0","384PI804XTNBF01N7HN2ZYVUYME0S8","A11SDQ8ZAJ8D24","3P520RYKCHSO30HY2QJC6BDLS9Z5UE","","685.8000000000466","img/land5.png","75","687.3000000000466","2","0","2","1","0.8,0.2,0.2,0.2,0.8,0.2,0.2,0.2,0.8","0.8,0.2,0.2,0.2,0.8,0.2,0.2,0.2,0.8","1","",""
"","html-keyboard-response","45","176931","0.0-45.0","384PI804XTNBF01N7HN2ZYVUYME0S8","A11SDQ8ZAJ8D24","3P520RYKCHSO30HY2QJC6BDLS9Z5UE","","null","<img src=""img/land5.png"" style=""width:200px;border:14px solid red;"">","null","","","","","","","","","",""
"","image-keyboard-response","46","177988","0.0-46.0","384PI804XTNBF01N7HN2ZYVUYME0S8","A11SDQ8ZAJ8D24","3P520RYKCHSO30HY2QJC6BDLS9Z5UE","","1055.0999999998603","img/land5.png","74","1056.8000000000466","1","0","2","1","0.8,0.2,0.2,0.2,0.8,0.2,0.2,0.2,0.8","0.8,0.2,0.2,0.2,0.8,0.2,0.2,0.2,0.8","1","",""
"","html-keyboard-response","47","178290","0.0-47.0","384PI804XTNBF01N7HN2ZYVUYME0S8","A11SDQ8ZAJ8D24","3P520RYKCHSO30HY2QJC6BDLS9Z5UE","","null","<img src=""img/land5.png"" style=""width:200px;border:14px solid red;"">","null","","","","","","","","","",""
"","image-keyboard-response","48","179444","0.0-48.0","384PI804XTNBF01N7HN2ZYVUYME0S8","A11SDQ8ZAJ8D24","3P520RYKCHSO30HY2QJC6BDLS9Z5UE","","1151.8000000000466","img/land3.png","75","1153.5","2","0","3","1","0.8,0.2,0.2,0.2,0.8,0.2,0.2,0.2,0.8","0.8,0.2,0.2,0.2,0.8,0.2,0.2,0.2,0.8","1","",""
"","html-keyboard-response","49","179747","0.0-49.0","384PI804XTNBF01N7HN2ZYVUYME0S8","A11SDQ8ZAJ8D24","3P520RYKCHSO30HY2QJC6BDLS9Z5UE","","null","<img src=""img/land3.png"" style=""width:200px;border:14px solid red;"">","null","","","","","","","","","",""
"","image-keyboard-response","50","180677","0.0-50.0","384PI804XTNBF01N7HN2ZYVUYME0S8","A11SDQ8ZAJ8D24","3P520RYKCHSO30HY2QJC6BDLS9Z5UE","","928.5","img/land6.png","75","930.0999999998603","2","0","1","1","0.8,0.2,0.2,0.2,0.8,0.2,0.2,0.2,0.8","0.8,0.2,0.2,0.2,0.8,0.2,0.2,0.2,0.8","1","",""
"","html-keyboard-response","51","180980","0.0-51.0","384PI804XTNBF01N7HN2ZYVUYME0S8","A11SDQ8ZAJ8D24","3P520RYKCHSO30HY2QJC6BDLS9Z5UE","","null","<img src=""img/land6.png"" style=""width:200px;border:14px solid red;"">","null","","","","","","","","","",""
"","image-keyboard-response","52","181864","0.0-52.0","384PI804XTNBF01N7HN2ZYVUYME0S8","A11SDQ8ZAJ8D24","3P520RYKCHSO30HY2QJC6BDLS9Z5UE","","881.9000000001397","img/land3.png","74","883.8000000000466","1","0","3","1","0.8,0.2,0.2,0.2,0.8,0.2,0.2,0.2,0.8","0.8,0.2,0.2,0.2,0.8,0.2,0.2,0.2,0.8","1","",""
"","html-keyboard-response","53","182168","0.0-53.0","384PI804XTNBF01N7HN2ZYVUYME0S8","A11SDQ8ZAJ8D24","3P520RYKCHSO30HY2QJC6BDLS9Z5UE","","null","<img src=""img/land3.png"" style=""width:200px;border:14px solid red;"">","null","","","","","","","","","",""
"","image-keyboard-response","54","183224","0.0-54.0","384PI804XTNBF01N7HN2ZYVUYME0S8","A11SDQ8ZAJ8D24","3P520RYKCHSO30HY2QJC6BDLS9Z5UE","","1054.4000000001397","img/land6.png","74","1055.8999999999069","1","1","1","1","0.8,0.2,0.2,0.2,0.8,0.2,0.2,0.2,0.8","0.8,0.2,0.2,0.2,0.8,0.2,0.2,0.2,0.8","1","",""
"","html-keyboard-response","55","183528","0.0-55.0","384PI804XTNBF01N7HN2ZYVUYME0S8","A11SDQ8ZAJ8D24","3P520RYKCHSO30HY2QJC6BDLS9Z5UE","","null","<img src=""img/land6.png"" style=""width:200px; border:14px solid green;"">","null","","","","","","","","","",""
"","image-keyboard-response","56","184861","0.0-56.0","384PI804XTNBF01N7HN2ZYVUYME0S8","A11SDQ8ZAJ8D24","3P520RYKCHSO30HY2QJC6BDLS9Z5UE","","1331.3000000000466","img/land3.png","74","1333.1000000000931","1","0","3","1","0.8,0.2,0.2,0.2,0.8,0.2,0.2,0.2,0.8","0.8,0.2,0.2,0.2,0.8,0.2,0.2,0.2,0.8","1","",""
"","html-keyboard-response","57","185164","0.0-57.0","384PI804XTNBF01N7HN2ZYVUYME0S8","A11SDQ8ZAJ8D24","3P520RYKCHSO30HY2QJC6BDLS9Z5UE","","null","<img src=""img/land3.png"" style=""width:200px;border:14px solid red;"">","null","","","","","","","","","",""
"","image-keyboard-response","58","185817","0.0-58.0","384PI804XTNBF01N7HN2ZYVUYME0S8","A11SDQ8ZAJ8D24","3P520RYKCHSO30HY2QJC6BDLS9Z5UE","","650.7999999998137","img/land3.png","74","652.2999999998137","1","0","3","1","0.8,0.2,0.2,0.2,0.8,0.2,0.2,0.2,0.8","0.8,0.2,0.2,0.2,0.8,0.2,0.2,0.2,0.8","1","",""
"","html-keyboard-response","59","186120","0.0-59.0","384PI804XTNBF01N7HN2ZYVUYME0S8","A11SDQ8ZAJ8D24","3P520RYKCHSO30HY2QJC6BDLS9Z5UE","","null","<img src=""img/land3.png"" style=""width:200px;border:14px solid red;"">","null","","","","","","","","","",""
"","image-keyboard-response","60","186626","0.0-60.0","384PI804XTNBF01N7HN2ZYVUYME0S8","A11SDQ8ZAJ8D24","3P520RYKCHSO30HY2QJC6BDLS9Z5UE","","503.89999999990687","img/land3.png","75","505.60000000009313","2","0","3","1","0.8,0.2,0.2,0.2,0.8,0.2,0.2,0.2,0.8","0.8,0.2,0.2,0.2,0.8,0.2,0.2,0.2,0.8","1","",""
"","html-keyboard-response","61","186929","0.0-61.0","384PI804XTNBF01N7HN2ZYVUYME0S8","A11SDQ8ZAJ8D24","3P520RYKCHSO30HY2QJC6BDLS9Z5UE","","null","<img src=""img/land3.png"" style=""width:200px;border:14px solid red;"">","null","","","","","","","","","",""
"","image-keyboard-response","62","187763","0.0-62.0","384PI804XTNBF01N7HN2ZYVUYME0S8","A11SDQ8ZAJ8D24","3P520RYKCHSO30HY2QJC6BDLS9Z5UE","","832.6000000000931","img/land3.png","74","834.1999999999534","1","0","3","1","0.8,0.2,0.2,0.2,0.8,0.2,0.2,0.2,0.8","0.8,0.2,0.2,0.2,0.8,0.2,0.2,0.2,0.8","1","",""
"","html-keyboard-response","63","188066","0.0-63.0","384PI804XTNBF01N7HN2ZYVUYME0S8","A11SDQ8ZAJ8D24","3P520RYKCHSO30HY2QJC6BDLS9Z5UE","","null","<img src=""img/land3.png"" style=""width:200px;border:14px solid red;"">","null","","","","","","","","","",""
"","image-keyboard-response","64","189690","0.0-64.0","384PI804XTNBF01N7HN2ZYVUYME0S8","A11SDQ8ZAJ8D24","3P520RYKCHSO30HY2QJC6BDLS9Z5UE","","1621.5999999998603","img/land3.png","74","1623.2999999998137","1","0","3","1","0.8,0.2,0.2,0.2,0.8,0.2,0.2,0.2,0.8","0.8,0.2,0.2,0.2,0.8,0.2,0.2,0.2,0.8","1","",""
"","html-keyboard-response","65","189993","0.0-65.0","384PI804XTNBF01N7HN2ZYVUYME0S8","A11SDQ8ZAJ8D24","3P520RYKCHSO30HY2QJC6BDLS9Z5UE","","null","<img src=""img/land3.png"" style=""width:200px;border:14px solid red;"">","null","","","","","","","","","",""
"","image-keyboard-response","66","190572","0.0-66.0","384PI804XTNBF01N7HN2ZYVUYME0S8","A11SDQ8ZAJ8D24","3P520RYKCHSO30HY2QJC6BDLS9Z5UE","","577.8000000000466","img/land3.png","75","579","2","0","3","1","0.8,0.2,0.2,0.2,0.8,0.2,0.2,0.2,0.8","0.8,0.2,0.2,0.2,0.8,0.2,0.2,0.2,0.8","1","",""
"","html-keyboard-response","67","190874","0.0-67.0","384PI804XTNBF01N7HN2ZYVUYME0S8","A11SDQ8ZAJ8D24","3P520RYKCHSO30HY2QJC6BDLS9Z5UE","","null","<img src=""img/land3.png"" style=""width:200px;border:14px solid red;"">","null","","","","","","","","","",""
"","image-keyboard-response","68","191732","0.0-68.0","384PI804XTNBF01N7HN2ZYVUYME0S8","A11SDQ8ZAJ8D24","3P520RYKCHSO30HY2QJC6BDLS9Z5UE","","856","img/land5.png","75","857.5","2","1","2","1","0.8,0.2,0.2,0.2,0.8,0.2,0.2,0.2,0.8","0.8,0.2,0.2,0.2,0.8,0.2,0.2,0.2,0.8","1","",""
"","html-keyboard-response","69","192034","0.0-69.0","384PI804XTNBF01N7HN2ZYVUYME0S8","A11SDQ8ZAJ8D24","3P520RYKCHSO30HY2QJC6BDLS9Z5UE","","null","<img src=""img/land5.png"" style=""width:200px; border:14px solid green;"">","null","","","","","","","","","",""
"","image-keyboard-response","70","192827","0.0-70.0","384PI804XTNBF01N7HN2ZYVUYME0S8","A11SDQ8ZAJ8D24","3P520RYKCHSO30HY2QJC6BDLS9Z5UE","","790.8999999999069","img/land5.png","75","792.1999999999534","2","1","2","1","0.8,0.2,0.2,0.2,0.8,0.2,0.2,0.2,0.8","0.8,0.2,0.2,0.2,0.8,0.2,0.2,0.2,0.8","1","",""
"","html-keyboard-response","71","193130","0.0-71.0","384PI804XTNBF01N7HN2ZYVUYME0S8","A11SDQ8ZAJ8D24","3P520RYKCHSO30HY2QJC6BDLS9Z5UE","","null","<img src=""img/land5.png"" style=""width:200px; border:14px solid green;"">","null","","","","","","","","","",""
"","image-keyboard-response","72","193850","0.0-72.0","384PI804XTNBF01N7HN2ZYVUYME0S8","A11SDQ8ZAJ8D24","3P520RYKCHSO30HY2QJC6BDLS9Z5UE","","718.8000000000466","img/land5.png","75","720.0999999998603","2","1","2","1","0.8,0.2,0.2,0.2,0.8,0.2,0.2,0.2,0.8","0.8,0.2,0.2,0.2,0.8,0.2,0.2,0.2,0.8","1","",""
"","html-keyboard-response","73","194152","0.0-73.0","384PI804XTNBF01N7HN2ZYVUYME0S8","A11SDQ8ZAJ8D24","3P520RYKCHSO30HY2QJC6BDLS9Z5UE","","null","<img src=""img/land5.png"" style=""width:200px; border:14px solid green;"">","null","","","","","","","","","",""
"","image-keyboard-response","74","194810","0.0-74.0","384PI804XTNBF01N7HN2ZYVUYME0S8","A11SDQ8ZAJ8D24","3P520RYKCHSO30HY2QJC6BDLS9Z5UE","","655.1999999999534","img/land5.png","75","656.6000000000931","2","1","2","1","0.8,0.2,0.2,0.2,0.8,0.2,0.2,0.2,0.8","0.8,0.2,0.2,0.2,0.8,0.2,0.2,0.2,0.8","1","",""
"","html-keyboard-response","75","195112","0.0-75.0","384PI804XTNBF01N7HN2ZYVUYME0S8","A11SDQ8ZAJ8D24","3P520RYKCHSO30HY2QJC6BDLS9Z5UE","","null","<img src=""img/land5.png"" style=""width:200px; border:14px solid green;"">","null","","","","","","","","","",""
"","image-keyboard-response","76","196087","0.0-76.0","384PI804XTNBF01N7HN2ZYVUYME0S8","A11SDQ8ZAJ8D24","3P520RYKCHSO30HY2QJC6BDLS9Z5UE","","972.5","img/land3.png","75","974.3999999999069","2","0","3","1","0.8,0.2,0.2,0.2,0.8,0.2,0.2,0.2,0.8","0.8,0.2,0.2,0.2,0.8,0.2,0.2,0.2,0.8","1","",""
"","html-keyboard-response","77","196390","0.0-77.0","384PI804XTNBF01N7HN2ZYVUYME0S8","A11SDQ8ZAJ8D24","3P520RYKCHSO30HY2QJC6BDLS9Z5UE","","null","<img src=""img/land3.png"" style=""width:200px;border:14px solid red;"">","null","","","","","","","","","",""
"","image-keyboard-response","78","198227","0.0-78.0","384PI804XTNBF01N7HN2ZYVUYME0S8","A11SDQ8ZAJ8D24","3P520RYKCHSO30HY2QJC6BDLS9Z5UE","","1835.3000000000466","img/land3.png","74","1836.7999999998137","1","0","3","1","0.8,0.2,0.2,0.2,0.8,0.2,0.2,0.2,0.8","0.8,0.2,0.2,0.2,0.8,0.2,0.2,0.2,0.8","1","",""
"","html-keyboard-response","79","198529","0.0-79.0","384PI804XTNBF01N7HN2ZYVUYME0S8","A11SDQ8ZAJ8D24","3P520RYKCHSO30HY2QJC6BDLS9Z5UE","","null","<img src=""img/land3.png"" style=""width:200px;border:14px solid red;"">","null","","","","","","","","","",""
"","image-keyboard-response","80","199429","0.0-80.0","384PI804XTNBF01N7HN2ZYVUYME0S8","A11SDQ8ZAJ8D24","3P520RYKCHSO30HY2QJC6BDLS9Z5UE","","898.5999999998603","img/land3.png","74","899.7999999998137","1","0","3","1","0.8,0.2,0.2,0.2,0.8,0.2,0.2,0.2,0.8","0.8,0.2,0.2,0.2,0.8,0.2,0.2,0.2,0.8","1","",""
"","html-keyboard-response","81","199732","0.0-81.0","384PI804XTNBF01N7HN2ZYVUYME0S8","A11SDQ8ZAJ8D24","3P520RYKCHSO30HY2QJC6BDLS9Z5UE","","null","<img src=""img/land3.png"" style=""width:200px;border:14px solid red;"">","null","","","","","","","","","",""
"","image-keyboard-response","82","200403","0.0-82.0","384PI804XTNBF01N7HN2ZYVUYME0S8","A11SDQ8ZAJ8D24","3P520RYKCHSO30HY2QJC6BDLS9Z5UE","","668.1000000000931","img/land3.png","74","670.0999999998603","1","1","3","1","0.8,0.2,0.2,0.2,0.8,0.2,0.2,0.2,0.8","0.8,0.2,0.2,0.2,0.8,0.2,0.2,0.2,0.8","1","",""
"","html-keyboard-response","83","200705","0.0-83.0","384PI804XTNBF01N7HN2ZYVUYME0S8","A11SDQ8ZAJ8D24","3P520RYKCHSO30HY2QJC6BDLS9Z5UE","","null","<img src=""img/land3.png"" style=""width:200px; border:14px solid green;"">","null","","","","","","","","","",""
"","image-keyboard-response","84","202205","0.0-84.0","384PI804XTNBF01N7HN2ZYVUYME0S8","A11SDQ8ZAJ8D24","3P520RYKCHSO30HY2QJC6BDLS9Z5UE","","1498.3999999999069","img/land6.png","75","1499.8000000000466","2","0","1","1","0.8,0.2,0.2,0.2,0.8,0.2,0.2,0.2,0.8","0.8,0.2,0.2,0.2,0.8,0.2,0.2,0.2,0.8","1","",""
"","html-keyboard-response","85","202508","0.0-85.0","384PI804XTNBF01N7HN2ZYVUYME0S8","A11SDQ8ZAJ8D24","3P520RYKCHSO30HY2QJC6BDLS9Z5UE","","null","<img src=""img/land6.png"" style=""width:200px;border:14px solid red;"">","null","","","","","","","","","",""
"","image-keyboard-response","86","202955","0.0-86.0","384PI804XTNBF01N7HN2ZYVUYME0S8","A11SDQ8ZAJ8D24","3P520RYKCHSO30HY2QJC6BDLS9Z5UE","","444.4000000001397","img/land6.png","74","446.5","1","1","1","1","0.8,0.2,0.2,0.2,0.8,0.2,0.2,0.2,0.8","0.8,0.2,0.2,0.2,0.8,0.2,0.2,0.2,0.8","1","",""
"","html-keyboard-response","87","203257","0.0-87.0","384PI804XTNBF01N7HN2ZYVUYME0S8","A11SDQ8ZAJ8D24","3P520RYKCHSO30HY2QJC6BDLS9Z5UE","","null","<img src=""img/land6.png"" style=""width:200px; border:14px solid green;"">","null","","","","","","","","","",""
"","image-keyboard-response","88","204240","0.0-88.0","384PI804XTNBF01N7HN2ZYVUYME0S8","A11SDQ8ZAJ8D24","3P520RYKCHSO30HY2QJC6BDLS9Z5UE","","980.6999999999534","img/land3.png","74","982.6999999999534","1","1","3","1","0.8,0.2,0.2,0.2,0.8,0.2,0.2,0.2,0.8","0.8,0.2,0.2,0.2,0.8,0.2,0.2,0.2,0.8","1","",""
"","html-keyboard-response","89","204543","0.0-89.0","384PI804XTNBF01N7HN2ZYVUYME0S8","A11SDQ8ZAJ8D24","3P520RYKCHSO30HY2QJC6BDLS9Z5UE","","null","<img src=""img/land3.png"" style=""width:200px; border:14px solid green;"">","null","","","","","","","","","",""
"","image-keyboard-response","90","205338","0.0-90.0","384PI804XTNBF01N7HN2ZYVUYME0S8","A11SDQ8ZAJ8D24","3P520RYKCHSO30HY2QJC6BDLS9Z5UE","","792.4000000001397","img/land3.png","74","794.6000000000931","1","0","3","1","0.8,0.2,0.2,0.2,0.8,0.2,0.2,0.2,0.8","0.8,0.2,0.2,0.2,0.8,0.2,0.2,0.2,0.8","1","",""
"","html-keyboard-response","91","205641","0.0-91.0","384PI804XTNBF01N7HN2ZYVUYME0S8","A11SDQ8ZAJ8D24","3P520RYKCHSO30HY2QJC6BDLS9Z5UE","","null","<img src=""img/land3.png"" style=""width:200px;border:14px solid red;"">","null","","","","","","","","","",""
"","image-keyboard-response","92","206148","0.0-92.0","384PI804XTNBF01N7HN2ZYVUYME0S8","A11SDQ8ZAJ8D24","3P520RYKCHSO30HY2QJC6BDLS9Z5UE","","505.10000000009313","img/land3.png","75","506.69999999995343","2","0","3","1","0.8,0.2,0.2,0.2,0.8,0.2,0.2,0.2,0.8","0.8,0.2,0.2,0.2,0.8,0.2,0.2,0.2,0.8","1","",""
"","html-keyboard-response","93","206450","0.0-93.0","384PI804XTNBF01N7HN2ZYVUYME0S8","A11SDQ8ZAJ8D24","3P520RYKCHSO30HY2QJC6BDLS9Z5UE","","null","<img src=""img/land3.png"" style=""width:200px;border:14px solid red;"">","null","","","","","","","","","",""
"","image-keyboard-response","94","206938","0.0-94.0","384PI804XTNBF01N7HN2ZYVUYME0S8","A11SDQ8ZAJ8D24","3P520RYKCHSO30HY2QJC6BDLS9Z5UE","","485.80000000004657","img/land6.png","76","487.69999999995343","3","0","1","1","0.8,0.2,0.2,0.2,0.8,0.2,0.2,0.2,0.8","0.8,0.2,0.2,0.2,0.8,0.2,0.2,0.2,0.8","1","",""
"","html-keyboard-response","95","207241","0.0-95.0","384PI804XTNBF01N7HN2ZYVUYME0S8","A11SDQ8ZAJ8D24","3P520RYKCHSO30HY2QJC6BDLS9Z5UE","","null","<img src=""img/land6.png"" style=""width:200px;border:14px solid red;"">","null","","","","","","","","","",""
"","image-keyboard-response","96","207705","0.0-96.0","384PI804XTNBF01N7HN2ZYVUYME0S8","A11SDQ8ZAJ8D24","3P520RYKCHSO30HY2QJC6BDLS9Z5UE","","461.89999999990687","img/land5.png","74","463.60000000009313","1","1","2","1","0.8,0.2,0.2,0.2,0.8,0.2,0.2,0.2,0.8","0.8,0.2,0.2,0.2,0.8,0.2,0.2,0.2,0.8","1","",""
"","html-keyboard-response","97","208008","0.0-97.0","384PI804XTNBF01N7HN2ZYVUYME0S8","A11SDQ8ZAJ8D24","3P520RYKCHSO30HY2QJC6BDLS9Z5UE","","null","<img src=""img/land5.png"" style=""width:200px; border:14px solid green;"">","null","","","","","","","","","",""
"","image-keyboard-response","98","208776","0.0-98.0","384PI804XTNBF01N7HN2ZYVUYME0S8","A11SDQ8ZAJ8D24","3P520RYKCHSO30HY2QJC6BDLS9Z5UE","","765.6000000000931","img/land6.png","74","767.3999999999069","1","1","1","1","0.8,0.2,0.2,0.2,0.8,0.2,0.2,0.2,0.8","0.8,0.2,0.2,0.2,0.8,0.2,0.2,0.2,0.8","1","",""
"","html-keyboard-response","99","209078","0.0-99.0","384PI804XTNBF01N7HN2ZYVUYME0S8","A11SDQ8ZAJ8D24","3P520RYKCHSO30HY2QJC6BDLS9Z5UE","","null","<img src=""img/land6.png"" style=""width:200px; border:14px solid green;"">","null","","","","","","","","","",""
"","image-keyboard-response","100","210238","0.0-100.0","384PI804XTNBF01N7HN2ZYVUYME0S8","A11SDQ8ZAJ8D24","3P520RYKCHSO30HY2QJC6BDLS9Z5UE","","1157.4000000001397","img/land3.png","74","1159.3999999999069","1","0","3","1","0.8,0.2,0.2,0.2,0.8,0.2,0.2,0.2,0.8","0.8,0.2,0.2,0.2,0.8,0.2,0.2,0.2,0.8","1","",""
"","html-keyboard-response","101","210541","0.0-101.0","384PI804XTNBF01N7HN2ZYVUYME0S8","A11SDQ8ZAJ8D24","3P520RYKCHSO30HY2QJC6BDLS9Z5UE","","null","<img src=""img/land3.png"" style=""width:200px;border:14px solid red;"">","null","","","","","","","","","",""
"","image-keyboard-response","102","211043","0.0-102.0","384PI804XTNBF01N7HN2ZYVUYME0S8","A11SDQ8ZAJ8D24","3P520RYKCHSO30HY2QJC6BDLS9Z5UE","","500.30000000004657","img/land3.png","76","501.79999999981374","3","1","3","1","0.8,0.2,0.2,0.2,0.8,0.2,0.2,0.2,0.8","0.8,0.2,0.2,0.2,0.8,0.2,0.2,0.2,0.8","1","",""
"","html-keyboard-response","103","211346","0.0-103.0","384PI804XTNBF01N7HN2ZYVUYME0S8","A11SDQ8ZAJ8D24","3P520RYKCHSO30HY2QJC6BDLS9Z5UE","","null","<img src=""img/land3.png"" style=""width:200px; border:14px solid green;"">","null","","","","","","","","","",""
"","image-keyboard-response","104","212220","0.0-104.0","384PI804XTNBF01N7HN2ZYVUYME0S8","A11SDQ8ZAJ8D24","3P520RYKCHSO30HY2QJC6BDLS9Z5UE","","872","img/land3.png","76","873.6999999999534","3","0","3","1","0.8,0.2,0.2,0.2,0.8,0.2,0.2,0.2,0.8","0.8,0.2,0.2,0.2,0.8,0.2,0.2,0.2,0.8","1","",""
"","html-keyboard-response","105","212523","0.0-105.0","384PI804XTNBF01N7HN2ZYVUYME0S8","A11SDQ8ZAJ8D24","3P520RYKCHSO30HY2QJC6BDLS9Z5UE","","null","<img src=""img/land3.png"" style=""width:200px;border:14px solid red;"">","null","","","","","","","","","",""
"","image-keyboard-response","106","212965","0.0-106.0","384PI804XTNBF01N7HN2ZYVUYME0S8","A11SDQ8ZAJ8D24","3P520RYKCHSO30HY2QJC6BDLS9Z5UE","","439.79999999981374","img/land6.png","74","441.39999999990687","1","1","1","1","0.8,0.2,0.2,0.2,0.8,0.2,0.2,0.2,0.8","0.8,0.2,0.2,0.2,0.8,0.2,0.2,0.2,0.8","1","",""
"","html-keyboard-response","107","213267","0.0-107.0","384PI804XTNBF01N7HN2ZYVUYME0S8","A11SDQ8ZAJ8D24","3P520RYKCHSO30HY2QJC6BDLS9Z5UE","","null","<img src=""img/land6.png"" style=""width:200px; border:14px solid green;"">","null","","","","","","","","","",""
"","image-keyboard-response","108","213871","0.0-108.0","384PI804XTNBF01N7HN2ZYVUYME0S8","A11SDQ8ZAJ8D24","3P520RYKCHSO30HY2QJC6BDLS9Z5UE","","601.6999999999534","img/land6.png","74","603.5","1","1","1","1","0.8,0.2,0.2,0.2,0.8,0.2,0.2,0.2,0.8","0.8,0.2,0.2,0.2,0.8,0.2,0.2,0.2,0.8","1","",""
"","html-keyboard-response","109","214173","0.0-109.0","384PI804XTNBF01N7HN2ZYVUYME0S8","A11SDQ8ZAJ8D24","3P520RYKCHSO30HY2QJC6BDLS9Z5UE","","null","<img src=""img/land6.png"" style=""width:200px; border:14px solid green;"">","null","","","","","","","","","",""
"","image-keyboard-response","110","215055","0.0-110.0","384PI804XTNBF01N7HN2ZYVUYME0S8","A11SDQ8ZAJ8D24","3P520RYKCHSO30HY2QJC6BDLS9Z5UE","","879.6999999999534","img/land3.png","74","881.4000000001397","1","0","3","1","0.8,0.2,0.2,0.2,0.8,0.2,0.2,0.2,0.8","0.8,0.2,0.2,0.2,0.8,0.2,0.2,0.2,0.8","1","",""
"","html-keyboard-response","111","215358","0.0-111.0","384PI804XTNBF01N7HN2ZYVUYME0S8","A11SDQ8ZAJ8D24","3P520RYKCHSO30HY2QJC6BDLS9Z5UE","","null","<img src=""img/land3.png"" style=""width:200px;border:14px solid red;"">","null","","","","","","","","","",""
"","image-keyboard-response","112","215642","0.0-112.0","384PI804XTNBF01N7HN2ZYVUYME0S8","A11SDQ8ZAJ8D24","3P520RYKCHSO30HY2QJC6BDLS9Z5UE","","282.10000000009313","img/land5.png","76","283.60000000009313","3","0","2","1","0.8,0.2,0.2,0.2,0.8,0.2,0.2,0.2,0.8","0.8,0.2,0.2,0.2,0.8,0.2,0.2,0.2,0.8","1","",""
"","html-keyboard-response","113","215945","0.0-113.0","384PI804XTNBF01N7HN2ZYVUYME0S8","A11SDQ8ZAJ8D24","3P520RYKCHSO30HY2QJC6BDLS9Z5UE","","null","<img src=""img/land5.png"" style=""width:200px;border:14px solid red;"">","null","","","","","","","","","",""
"","image-keyboard-response","114","217131","0.0-114.0","384PI804XTNBF01N7HN2ZYVUYME0S8","A11SDQ8ZAJ8D24","3P520RYKCHSO30HY2QJC6BDLS9Z5UE","","1183.8999999999069","img/land3.png","76","1185.9000000001397","3","1","3","1","0.8,0.2,0.2,0.2,0.8,0.2,0.2,0.2,0.8","0.8,0.2,0.2,0.2,0.8,0.2,0.2,0.2,0.8","1","",""
"","html-keyboard-response","115","217434","0.0-115.0","384PI804XTNBF01N7HN2ZYVUYME0S8","A11SDQ8ZAJ8D24","3P520RYKCHSO30HY2QJC6BDLS9Z5UE","","null","<img src=""img/land3.png"" style=""width:200px; border:14px solid green;"">","null","","","","","","","","","",""
"","image-keyboard-response","116","217983","0.0-116.0","384PI804XTNBF01N7HN2ZYVUYME0S8","A11SDQ8ZAJ8D24","3P520RYKCHSO30HY2QJC6BDLS9Z5UE","","547.8000000000466","img/land5.png","76","549.3000000000466","3","1","2","1","0.8,0.2,0.2,0.2,0.8,0.2,0.2,0.2,0.8","0.8,0.2,0.2,0.2,0.8,0.2,0.2,0.2,0.8","1","",""
"","html-keyboard-response","117","218286","0.0-117.0","384PI804XTNBF01N7HN2ZYVUYME0S8","A11SDQ8ZAJ8D24","3P520RYKCHSO30HY2QJC6BDLS9Z5UE","","null","<img src=""img/land5.png"" style=""width:200px; border:14px solid green;"">","null","","","","","","","","","",""
"","image-keyboard-response","118","219416","0.0-118.0","384PI804XTNBF01N7HN2ZYVUYME0S8","A11SDQ8ZAJ8D24","3P520RYKCHSO30HY2QJC6BDLS9Z5UE","","1128.3000000000466","img/land3.png","76","1130","3","1","3","1","0.8,0.2,0.2,0.2,0.8,0.2,0.2,0.2,0.8","0.8,0.2,0.2,0.2,0.8,0.2,0.2,0.2,0.8","1","",""
"","html-keyboard-response","119","219720","0.0-119.0","384PI804XTNBF01N7HN2ZYVUYME0S8","A11SDQ8ZAJ8D24","3P520RYKCHSO30HY2QJC6BDLS9Z5UE","","null","<img src=""img/land3.png"" style=""width:200px; border:14px solid green;"">","null","","","","","","","","","",""
"","image-keyboard-response","120","220604","0.0-120.0","384PI804XTNBF01N7HN2ZYVUYME0S8","A11SDQ8ZAJ8D24","3P520RYKCHSO30HY2QJC6BDLS9Z5UE","","882.3000000000466","img/land3.png","76","883.8000000000466","3","1","3","1","0.8,0.2,0.2,0.2,0.8,0.2,0.2,0.2,0.8","0.8,0.2,0.2,0.2,0.8,0.2,0.2,0.2,0.8","1","",""
"","html-keyboard-response","121","220908","0.0-121.0","384PI804XTNBF01N7HN2ZYVUYME0S8","A11SDQ8ZAJ8D24","3P520RYKCHSO30HY2QJC6BDLS9Z5UE","","null","<img src=""img/land3.png"" style=""width:200px; border:14px solid green;"">","null","","","","","","","","","",""
"","image-keyboard-response","122","221799","0.0-122.0","384PI804XTNBF01N7HN2ZYVUYME0S8","A11SDQ8ZAJ8D24","3P520RYKCHSO30HY2QJC6BDLS9Z5UE","","889.1000000000931","img/land6.png","76","890.8999999999069","3","0","1","1","0.8,0.2,0.2,0.2,0.8,0.2,0.2,0.2,0.8","0.8,0.2,0.2,0.2,0.8,0.2,0.2,0.2,0.8","1","",""
"","html-keyboard-response","123","222101","0.0-123.0","384PI804XTNBF01N7HN2ZYVUYME0S8","A11SDQ8ZAJ8D24","3P520RYKCHSO30HY2QJC6BDLS9Z5UE","","null","<img src=""img/land6.png"" style=""width:200px;border:14px solid red;"">","null","","","","","","","","","",""
"","image-keyboard-response","124","222582","0.0-124.0","384PI804XTNBF01N7HN2ZYVUYME0S8","A11SDQ8ZAJ8D24","3P520RYKCHSO30HY2QJC6BDLS9Z5UE","","479.20000000018626","img/land5.png","74","480.89999999990687","1","0","2","1","0.8,0.2,0.2,0.2,0.8,0.2,0.2,0.2,0.8","0.8,0.2,0.2,0.2,0.8,0.2,0.2,0.2,0.8","1","",""
"","html-keyboard-response","125","222885","0.0-125.0","384PI804XTNBF01N7HN2ZYVUYME0S8","A11SDQ8ZAJ8D24","3P520RYKCHSO30HY2QJC6BDLS9Z5UE","","null","<img src=""img/land5.png"" style=""width:200px;border:14px solid red;"">","null","","","","","","","","","",""
"","image-keyboard-response","126","223464","0.0-126.0","384PI804XTNBF01N7HN2ZYVUYME0S8","A11SDQ8ZAJ8D24","3P520RYKCHSO30HY2QJC6BDLS9Z5UE","","576.8000000000466","img/land6.png","74","578.4000000001397","1","1","1","1","0.8,0.2,0.2,0.2,0.8,0.2,0.2,0.2,0.8","0.8,0.2,0.2,0.2,0.8,0.2,0.2,0.2,0.8","1","",""
"","html-keyboard-response","127","223766","0.0-127.0","384PI804XTNBF01N7HN2ZYVUYME0S8","A11SDQ8ZAJ8D24","3P520RYKCHSO30HY2QJC6BDLS9Z5UE","","null","<img src=""img/land6.png"" style=""width:200px; border:14px solid green;"">","null","","","","","","","","","",""
"","image-keyboard-response","128","224374","0.0-128.0","384PI804XTNBF01N7HN2ZYVUYME0S8","A11SDQ8ZAJ8D24","3P520RYKCHSO30HY2QJC6BDLS9Z5UE","","606.1999999999534","img/land6.png","74","608.1999999999534","1","1","1","1","0.8,0.2,0.2,0.2,0.8,0.2,0.2,0.2,0.8","0.8,0.2,0.2,0.2,0.8,0.2,0.2,0.2,0.8","1","",""
"","html-keyboard-response","129","224678","0.0-129.0","384PI804XTNBF01N7HN2ZYVUYME0S8","A11SDQ8ZAJ8D24","3P520RYKCHSO30HY2QJC6BDLS9Z5UE","","null","<img src=""img/land6.png"" style=""width:200px; border:14px solid green;"">","null","","","","","","","","","",""
"","image-keyboard-response","130","225259","0.0-130.0","384PI804XTNBF01N7HN2ZYVUYME0S8","A11SDQ8ZAJ8D24","3P520RYKCHSO30HY2QJC6BDLS9Z5UE","","579","img/land6.png","74","580.6999999999534","1","0","1","1","0.8,0.2,0.2,0.2,0.8,0.2,0.2,0.2,0.8","0.8,0.2,0.2,0.2,0.8,0.2,0.2,0.2,0.8","1","",""
"","html-keyboard-response","131","225561","0.0-131.0","384PI804XTNBF01N7HN2ZYVUYME0S8","A11SDQ8ZAJ8D24","3P520RYKCHSO30HY2QJC6BDLS9Z5UE","","null","<img src=""img/land6.png"" style=""width:200px;border:14px solid red;"">","null","","","","","","","","","",""
"","image-keyboard-response","132","226076","0.0-132.0","384PI804XTNBF01N7HN2ZYVUYME0S8","A11SDQ8ZAJ8D24","3P520RYKCHSO30HY2QJC6BDLS9Z5UE","","512.5","img/land6.png","75","514.3999999999069","2","1","1","1","0.8,0.2,0.2,0.2,0.8,0.2,0.2,0.2,0.8","0.8,0.2,0.2,0.2,0.8,0.2,0.2,0.2,0.8","1","",""
"","html-keyboard-response","133","226379","0.0-133.0","384PI804XTNBF01N7HN2ZYVUYME0S8","A11SDQ8ZAJ8D24","3P520RYKCHSO30HY2QJC6BDLS9Z5UE","","null","<img src=""img/land6.png"" style=""width:200px; border:14px solid green;"">","null","","","","","","","","","",""
"","image-keyboard-response","134","227001","0.0-134.0","384PI804XTNBF01N7HN2ZYVUYME0S8","A11SDQ8ZAJ8D24","3P520RYKCHSO30HY2QJC6BDLS9Z5UE","","618.7000000001863","img/land5.png","75","620.5","2","1","2","1","0.8,0.2,0.2,0.2,0.8,0.2,0.2,0.2,0.8","0.8,0.2,0.2,0.2,0.8,0.2,0.2,0.2,0.8","1","",""
"","html-keyboard-response","135","227304","0.0-135.0","384PI804XTNBF01N7HN2ZYVUYME0S8","A11SDQ8ZAJ8D24","3P520RYKCHSO30HY2QJC6BDLS9Z5UE","","null","<img src=""img/land5.png"" style=""width:200px; border:14px solid green;"">","null","","","","","","","","","",""
"","image-keyboard-response","136","227904","0.0-136.0","384PI804XTNBF01N7HN2ZYVUYME0S8","A11SDQ8ZAJ8D24","3P520RYKCHSO30HY2QJC6BDLS9Z5UE","","598","img/land5.png","75","599.6999999999534","2","0","2","1","0.8,0.2,0.2,0.2,0.8,0.2,0.2,0.2,0.8","0.8,0.2,0.2,0.2,0.8,0.2,0.2,0.2,0.8","1","",""
"","html-keyboard-response","137","228207","0.0-137.0","384PI804XTNBF01N7HN2ZYVUYME0S8","A11SDQ8ZAJ8D24","3P520RYKCHSO30HY2QJC6BDLS9Z5UE","","null","<img src=""img/land5.png"" style=""width:200px;border:14px solid red;"">","null","","","","","","","","","",""
"","image-keyboard-response","138","228454","0.0-138.0","384PI804XTNBF01N7HN2ZYVUYME0S8","A11SDQ8ZAJ8D24","3P520RYKCHSO30HY2QJC6BDLS9Z5UE","","245","img/land3.png","74","246.39999999990687","1","0","3","1","0.8,0.2,0.2,0.2,0.8,0.2,0.2,0.2,0.8","0.8,0.2,0.2,0.2,0.8,0.2,0.2,0.2,0.8","1","",""
"","html-keyboard-response","139","228756","0.0-139.0","384PI804XTNBF01N7HN2ZYVUYME0S8","A11SDQ8ZAJ8D24","3P520RYKCHSO30HY2QJC6BDLS9Z5UE","","null","<img src=""img/land3.png"" style=""width:200px;border:14px solid red;"">","null","","","","","","","","","",""
"","image-keyboard-response","140","229351","0.0-140.0","384PI804XTNBF01N7HN2ZYVUYME0S8","A11SDQ8ZAJ8D24","3P520RYKCHSO30HY2QJC6BDLS9Z5UE","","593.3000000000466","img/land5.png","74","594.6000000000931","1","0","2","1","0.8,0.2,0.2,0.2,0.8,0.2,0.2,0.2,0.8","0.8,0.2,0.2,0.2,0.8,0.2,0.2,0.2,0.8","1","",""
"","html-keyboard-response","141","229653","0.0-141.0","384PI804XTNBF01N7HN2ZYVUYME0S8","A11SDQ8ZAJ8D24","3P520RYKCHSO30HY2QJC6BDLS9Z5UE","","null","<img src=""img/land5.png"" style=""width:200px;border:14px solid red;"">","null","","","","","","","","","",""
"","image-keyboard-response","142","230106","0.0-142.0","384PI804XTNBF01N7HN2ZYVUYME0S8","A11SDQ8ZAJ8D24","3P520RYKCHSO30HY2QJC6BDLS9Z5UE","","451.5999999998603","img/land5.png","75","452.79999999981374","2","0","2","1","0.8,0.2,0.2,0.2,0.8,0.2,0.2,0.2,0.8","0.8,0.2,0.2,0.2,0.8,0.2,0.2,0.2,0.8","1","",""
"","html-keyboard-response","143","230409","0.0-143.0","384PI804XTNBF01N7HN2ZYVUYME0S8","A11SDQ8ZAJ8D24","3P520RYKCHSO30HY2QJC6BDLS9Z5UE","","null","<img src=""img/land5.png"" style=""width:200px;border:14px solid red;"">","null","","","","","","","","","",""
"","image-keyboard-response","144","230844","0.0-144.0","384PI804XTNBF01N7HN2ZYVUYME0S8","A11SDQ8ZAJ8D24","3P520RYKCHSO30HY2QJC6BDLS9Z5UE","","433.30000000004657","img/land5.png","76","434.30000000004657","3","0","2","1","0.8,0.2,0.2,0.2,0.8,0.2,0.2,0.2,0.8","0.8,0.2,0.2,0.2,0.8,0.2,0.2,0.2,0.8","1","",""
"","html-keyboard-response","145","231146","0.0-145.0","384PI804XTNBF01N7HN2ZYVUYME0S8","A11SDQ8ZAJ8D24","3P520RYKCHSO30HY2QJC6BDLS9Z5UE","","null","<img src=""img/land5.png"" style=""width:200px;border:14px solid red;"">","null","","","","","","","","","",""
"","image-keyboard-response","146","231244","0.0-146.0","384PI804XTNBF01N7HN2ZYVUYME0S8","A11SDQ8ZAJ8D24","3P520RYKCHSO30HY2QJC6BDLS9Z5UE","","96.30000000004657","img/land6.png","74","97.5","1","0","1","1","0.8,0.2,0.2,0.2,0.8,0.2,0.2,0.2,0.8","0.8,0.2,0.2,0.2,0.8,0.2,0.2,0.2,0.8","1","",""
"","html-keyboard-response","147","231556","0.0-147.0","384PI804XTNBF01N7HN2ZYVUYME0S8","A11SDQ8ZAJ8D24","3P520RYKCHSO30HY2QJC6BDLS9Z5UE","","null","<img src=""img/land6.png"" style=""width:200px;border:14px solid red;"">","null","","","","","","","","","",""
"","image-keyboard-response","148","231786","0.0-148.0","384PI804XTNBF01N7HN2ZYVUYME0S8","A11SDQ8ZAJ8D24","3P520RYKCHSO30HY2QJC6BDLS9Z5UE","","228","img/land5.png","74","229.5","1","0","2","1","0.8,0.2,0.2,0.2,0.8,0.2,0.2,0.2,0.8","0.8,0.2,0.2,0.2,0.8,0.2,0.2,0.2,0.8","1","",""
"","html-keyboard-response","149","232087","0.0-149.0","384PI804XTNBF01N7HN2ZYVUYME0S8","A11SDQ8ZAJ8D24","3P520RYKCHSO30HY2QJC6BDLS9Z5UE","","null","<img src=""img/land5.png"" style=""width:200px;border:14px solid red;"">","null","","","","","","","","","",""
"","image-keyboard-response","150","232695","0.0-150.0","384PI804XTNBF01N7HN2ZYVUYME0S8","A11SDQ8ZAJ8D24","3P520RYKCHSO30HY2QJC6BDLS9Z5UE","","605.6999999999534","img/land5.png","75","607.5","2","1","2","1","0.8,0.2,0.2,0.2,0.8,0.2,0.2,0.2,0.8","0.8,0.2,0.2,0.2,0.8,0.2,0.2,0.2,0.8","1","",""
"","html-keyboard-response","151","232999","0.0-151.0","384PI804XTNBF01N7HN2ZYVUYME0S8","A11SDQ8ZAJ8D24","3P520RYKCHSO30HY2QJC6BDLS9Z5UE","","null","<img src=""img/land5.png"" style=""width:200px; border:14px solid green;"">","null","","","","","","","","","",""
"","image-keyboard-response","152","233446","0.0-152.0","384PI804XTNBF01N7HN2ZYVUYME0S8","A11SDQ8ZAJ8D24","3P520RYKCHSO30HY2QJC6BDLS9Z5UE","","444.89999999990687","img/land3.png","76","446.69999999995343","3","1","3","1","0.8,0.2,0.2,0.2,0.8,0.2,0.2,0.2,0.8","0.8,0.2,0.2,0.2,0.8,0.2,0.2,0.2,0.8","1","",""
"","html-keyboard-response","153","233749","0.0-153.0","384PI804XTNBF01N7HN2ZYVUYME0S8","A11SDQ8ZAJ8D24","3P520RYKCHSO30HY2QJC6BDLS9Z5UE","","null","<img src=""img/land3.png"" style=""width:200px; border:14px solid green;"">","null","","","","","","","","","",""
"","image-keyboard-response","154","234256","0.0-154.0","384PI804XTNBF01N7HN2ZYVUYME0S8","A11SDQ8ZAJ8D24","3P520RYKCHSO30HY2QJC6BDLS9Z5UE","","504.89999999990687","img/land6.png","76","506.4000000001397","3","0","1","1","0.8,0.2,0.2,0.2,0.8,0.2,0.2,0.2,0.8","0.8,0.2,0.2,0.2,0.8,0.2,0.2,0.2,0.8","1","",""
"","html-keyboard-response","155","234558","0.0-155.0","384PI804XTNBF01N7HN2ZYVUYME0S8","A11SDQ8ZAJ8D24","3P520RYKCHSO30HY2QJC6BDLS9Z5UE","","null","<img src=""img/land6.png"" style=""width:200px;border:14px solid red;"">","null","","","","","","","","","",""
"","image-keyboard-response","156","234848","0.0-156.0","384PI804XTNBF01N7HN2ZYVUYME0S8","A11SDQ8ZAJ8D24","3P520RYKCHSO30HY2QJC6BDLS9Z5UE","","288","img/land5.png","74","289.39999999990687","1","0","2","1","0.8,0.2,0.2,0.2,0.8,0.2,0.2,0.2,0.8","0.8,0.2,0.2,0.2,0.8,0.2,0.2,0.2,0.8","1","",""
"","html-keyboard-response","157","235150","0.0-157.0","384PI804XTNBF01N7HN2ZYVUYME0S8","A11SDQ8ZAJ8D24","3P520RYKCHSO30HY2QJC6BDLS9Z5UE","","null","<img src=""img/land5.png"" style=""width:200px;border:14px solid red;"">","null","","","","","","","","","",""
"","image-keyboard-response","158","235759","0.0-158.0","384PI804XTNBF01N7HN2ZYVUYME0S8","A11SDQ8ZAJ8D24","3P520RYKCHSO30HY2QJC6BDLS9Z5UE","","606.6999999999534","img/land6.png","74","608.5999999998603","1","1","1","1","0.8,0.2,0.2,0.2,0.8,0.2,0.2,0.2,0.8","0.8,0.2,0.2,0.2,0.8,0.2,0.2,0.2,0.8","1","",""
"","html-keyboard-response","159","236061","0.0-159.0","384PI804XTNBF01N7HN2ZYVUYME0S8","A11SDQ8ZAJ8D24","3P520RYKCHSO30HY2QJC6BDLS9Z5UE","","null","<img src=""img/land6.png"" style=""width:200px; border:14px solid green;"">","null","","","","","","","","","",""
"","image-keyboard-response","160","236626","0.0-160.0","384PI804XTNBF01N7HN2ZYVUYME0S8","A11SDQ8ZAJ8D24","3P520RYKCHSO30HY2QJC6BDLS9Z5UE","","563","img/land3.png","74","564.9000000001397","1","1","3","1","0.8,0.2,0.2,0.2,0.8,0.2,0.2,0.2,0.8","0.8,0.2,0.2,0.2,0.8,0.2,0.2,0.2,0.8","1","",""
"","html-keyboard-response","161","236928","0.0-161.0","384PI804XTNBF01N7HN2ZYVUYME0S8","A11SDQ8ZAJ8D24","3P520RYKCHSO30HY2QJC6BDLS9Z5UE","","null","<img src=""img/land3.png"" style=""width:200px; border:14px solid green;"">","null","","","","","","","","","",""
"","image-keyboard-response","162","237581","0.0-162.0","384PI804XTNBF01N7HN2ZYVUYME0S8","A11SDQ8ZAJ8D24","3P520RYKCHSO30HY2QJC6BDLS9Z5UE","","650.8000000000466","img/land6.png","74","652.3999999999069","1","1","1","1","0.8,0.2,0.2,0.2,0.8,0.2,0.2,0.2,0.8","0.8,0.2,0.2,0.2,0.8,0.2,0.2,0.2,0.8","1","",""
"","html-keyboard-response","163","237884","0.0-163.0","384PI804XTNBF01N7HN2ZYVUYME0S8","A11SDQ8ZAJ8D24","3P520RYKCHSO30HY2QJC6BDLS9Z5UE","","null","<img src=""img/land6.png"" style=""width:200px; border:14px solid green;"">","null","","","","","","","","","",""
"","image-keyboard-response","164","238521","0.0-164.0","384PI804XTNBF01N7HN2ZYVUYME0S8","A11SDQ8ZAJ8D24","3P520RYKCHSO30HY2QJC6BDLS9Z5UE","","634.8000000000466","img/land5.png","74","636.6000000000931","1","0","2","1","0.8,0.2,0.2,0.2,0.8,0.2,0.2,0.2,0.8","0.8,0.2,0.2,0.2,0.8,0.2,0.2,0.2,0.8","1","",""
"","html-keyboard-response","165","238823","0.0-165.0","384PI804XTNBF01N7HN2ZYVUYME0S8","A11SDQ8ZAJ8D24","3P520RYKCHSO30HY2QJC6BDLS9Z5UE","","null","<img src=""img/land5.png"" style=""width:200px;border:14px solid red;"">","null","","","","","","","","","",""
"","image-keyboard-response","166","239109","0.0-166.0","384PI804XTNBF01N7HN2ZYVUYME0S8","A11SDQ8ZAJ8D24","3P520RYKCHSO30HY2QJC6BDLS9Z5UE","","283.60000000009313","img/land6.png","76","285.19999999995343","3","0","1","1","0.8,0.2,0.2,0.2,0.8,0.2,0.2,0.2,0.8","0.8,0.2,0.2,0.2,0.8,0.2,0.2,0.2,0.8","1","",""
"","html-keyboard-response","167","239412","0.0-167.0","384PI804XTNBF01N7HN2ZYVUYME0S8","A11SDQ8ZAJ8D24","3P520RYKCHSO30HY2QJC6BDLS9Z5UE","","null","<img src=""img/land6.png"" style=""width:200px;border:14px solid red;"">","null","","","","","","","","","",""
"","image-keyboard-response","168","240438","0.0-168.0","384PI804XTNBF01N7HN2ZYVUYME0S8","A11SDQ8ZAJ8D24","3P520RYKCHSO30HY2QJC6BDLS9Z5UE","","1023.8999999999069","img/land6.png","76","1025.6000000000931","3","0","1","1","0.8,0.2,0.2,0.2,0.8,0.2,0.2,0.2,0.8","0.8,0.2,0.2,0.2,0.8,0.2,0.2,0.2,0.8","1","",""
"","html-keyboard-response","169","240748","0.0-169.0","384PI804XTNBF01N7HN2ZYVUYME0S8","A11SDQ8ZAJ8D24","3P520RYKCHSO30HY2QJC6BDLS9Z5UE","","null","<img src=""img/land6.png"" style=""width:200px;border:14px solid red;"">","null","","","","","","","","","",""
"","image-keyboard-response","170","241100","0.0-170.0","384PI804XTNBF01N7HN2ZYVUYME0S8","A11SDQ8ZAJ8D24","3P520RYKCHSO30HY2QJC6BDLS9Z5UE","","350.5","img/land6.png","76","351.80000000004657","3","0","1","1","0.8,0.2,0.2,0.2,0.8,0.2,0.2,0.2,0.8","0.8,0.2,0.2,0.2,0.8,0.2,0.2,0.2,0.8","1","",""
"","html-keyboard-response","171","241403","0.0-171.0","384PI804XTNBF01N7HN2ZYVUYME0S8","A11SDQ8ZAJ8D24","3P520RYKCHSO30HY2QJC6BDLS9Z5UE","","null","<img src=""img/land6.png"" style=""width:200px;border:14px solid red;"">","null","","","","","","","","","",""
"","image-keyboard-response","172","243406","0.0-172.0","384PI804XTNBF01N7HN2ZYVUYME0S8","A11SDQ8ZAJ8D24","3P520RYKCHSO30HY2QJC6BDLS9Z5UE","","","img/land5.png","","2002.6000000000931","-1","0","2","1","0.8,0.2,0.2,0.2,0.8,0.2,0.2,0.2,0.8","0.8,0.2,0.2,0.2,0.8,0.2,0.2,0.2,0.8","1","",""
"","html-keyboard-response","173","243710","0.0-173.0","384PI804XTNBF01N7HN2ZYVUYME0S8","A11SDQ8ZAJ8D24","3P520RYKCHSO30HY2QJC6BDLS9Z5UE","","null","<img src=""img/land5.png"" style=""width:200px;border:14px solid red;"">","null","","","","","","","","","",""
"","image-keyboard-response","174","243751","0.0-174.0","384PI804XTNBF01N7HN2ZYVUYME0S8","A11SDQ8ZAJ8D24","3P520RYKCHSO30HY2QJC6BDLS9Z5UE","","39.10000000009313","img/land6.png","76","40.800000000046566","3","0","1","1","0.8,0.2,0.2,0.2,0.8,0.2,0.2,0.2,0.8","0.8,0.2,0.2,0.2,0.8,0.2,0.2,0.2,0.8","1","",""
"","html-keyboard-response","175","244053","0.0-175.0","384PI804XTNBF01N7HN2ZYVUYME0S8","A11SDQ8ZAJ8D24","3P520RYKCHSO30HY2QJC6BDLS9Z5UE","","null","<img src=""img/land6.png"" style=""width:200px;border:14px solid red;"">","null","","","","","","","","","",""
"","image-keyboard-response","176","245007","0.0-176.0","384PI804XTNBF01N7HN2ZYVUYME0S8","A11SDQ8ZAJ8D24","3P520RYKCHSO30HY2QJC6BDLS9Z5UE","","952.0999999998603","img/land3.png","74","953.6999999999534","1","0","3","1","0.8,0.2,0.2,0.2,0.8,0.2,0.2,0.2,0.8","0.8,0.2,0.2,0.2,0.8,0.2,0.2,0.2,0.8","1","",""
"","html-keyboard-response","177","245310","0.0-177.0","384PI804XTNBF01N7HN2ZYVUYME0S8","A11SDQ8ZAJ8D24","3P520RYKCHSO30HY2QJC6BDLS9Z5UE","","null","<img src=""img/land3.png"" style=""width:200px;border:14px solid red;"">","null","","","","","","","","","",""
"","image-keyboard-response","178","246035","0.0-178.0","384PI804XTNBF01N7HN2ZYVUYME0S8","A11SDQ8ZAJ8D24","3P520RYKCHSO30HY2QJC6BDLS9Z5UE","","722.7999999998137","img/land3.png","74","724.6000000000931","1","0","3","1","0.8,0.2,0.2,0.2,0.8,0.2,0.2,0.2,0.8","0.8,0.2,0.2,0.2,0.8,0.2,0.2,0.2,0.8","1","",""
"","html-keyboard-response","179","246339","0.0-179.0","384PI804XTNBF01N7HN2ZYVUYME0S8","A11SDQ8ZAJ8D24","3P520RYKCHSO30HY2QJC6BDLS9Z5UE","","null","<img src=""img/land3.png"" style=""width:200px;border:14px solid red;"">","null","","","","","","","","","",""
"","image-keyboard-response","180","247679","0.0-180.0","384PI804XTNBF01N7HN2ZYVUYME0S8","A11SDQ8ZAJ8D24","3P520RYKCHSO30HY2QJC6BDLS9Z5UE","","1338.5","img/land6.png","75","1340.0999999998603","2","1","1","1","0.8,0.2,0.2,0.2,0.8,0.2,0.2,0.2,0.8","0.8,0.2,0.2,0.2,0.8,0.2,0.2,0.2,0.8","1","",""
"","html-keyboard-response","181","247982","0.0-181.0","384PI804XTNBF01N7HN2ZYVUYME0S8","A11SDQ8ZAJ8D24","3P520RYKCHSO30HY2QJC6BDLS9Z5UE","","null","<img src=""img/land6.png"" style=""width:200px; border:14px solid green;"">","null","","","","","","","","","",""
"","html-keyboard-response","182","256460","0.0-182.0","384PI804XTNBF01N7HN2ZYVUYME0S8","A11SDQ8ZAJ8D24","3P520RYKCHSO30HY2QJC6BDLS9Z5UE","","","","","","","","","","","","","",""
"","image-keyboard-response","183","258462","0.0-183.0","384PI804XTNBF01N7HN2ZYVUYME0S8","A11SDQ8ZAJ8D24","3P520RYKCHSO30HY2QJC6BDLS9Z5UE","","","img/land1.png","","2002.6999999999534","-1","0","2","2","0.8,0.2,0.2,0.2,0.8,0.2,0.2,0.2,0.8","0.2,0.2,0.8,0.8,0.2,0.2,0.2,0.8,0.2","2","",""
"","html-keyboard-response","184","258766","0.0-184.0","384PI804XTNBF01N7HN2ZYVUYME0S8","A11SDQ8ZAJ8D24","3P520RYKCHSO30HY2QJC6BDLS9Z5UE","","null","<img src=""img/land1.png"" style=""width:200px;border:14px solid red;"">","null","","","","","","","","","",""
"","image-keyboard-response","185","259636","0.0-185.0","384PI804XTNBF01N7HN2ZYVUYME0S8","A11SDQ8ZAJ8D24","3P520RYKCHSO30HY2QJC6BDLS9Z5UE","","867.5999999998603","img/land4.png","74","869.5","1","0","1","2","0.8,0.2,0.2,0.2,0.8,0.2,0.2,0.2,0.8","0.2,0.2,0.8,0.8,0.2,0.2,0.2,0.8,0.2","2","",""
"","html-keyboard-response","186","259940","0.0-186.0","384PI804XTNBF01N7HN2ZYVUYME0S8","A11SDQ8ZAJ8D24","3P520RYKCHSO30HY2QJC6BDLS9Z5UE","","null","<img src=""img/land4.png"" style=""width:200px;border:14px solid red;"">","null","","","","","","","","","",""
"","image-keyboard-response","187","260364","0.0-187.0","384PI804XTNBF01N7HN2ZYVUYME0S8","A11SDQ8ZAJ8D24","3P520RYKCHSO30HY2QJC6BDLS9Z5UE","","421.60000000009313","img/land2.png","75","423.30000000004657","2","1","3","2","0.8,0.2,0.2,0.2,0.8,0.2,0.2,0.2,0.8","0.2,0.2,0.8,0.8,0.2,0.2,0.2,0.8,0.2","2","",""
"","html-keyboard-response","188","260666","0.0-188.0","384PI804XTNBF01N7HN2ZYVUYME0S8","A11SDQ8ZAJ8D24","3P520RYKCHSO30HY2QJC6BDLS9Z5UE","","null","<img src=""img/land2.png"" style=""width:200px; border:14px solid green;"">","null","","","","","","","","","",""
"","image-keyboard-response","189","261173","0.0-189.0","384PI804XTNBF01N7HN2ZYVUYME0S8","A11SDQ8ZAJ8D24","3P520RYKCHSO30HY2QJC6BDLS9Z5UE","","504.4000000001397","img/land2.png","75","505.9000000001397","2","1","3","2","0.8,0.2,0.2,0.2,0.8,0.2,0.2,0.2,0.8","0.2,0.2,0.8,0.8,0.2,0.2,0.2,0.8,0.2","2","",""
"","html-keyboard-response","190","261475","0.0-190.0","384PI804XTNBF01N7HN2ZYVUYME0S8","A11SDQ8ZAJ8D24","3P520RYKCHSO30HY2QJC6BDLS9Z5UE","","null","<img src=""img/land2.png"" style=""width:200px; border:14px solid green;"">","null","","","","","","","","","",""
"","image-keyboard-response","191","262268","0.0-191.0","384PI804XTNBF01N7HN2ZYVUYME0S8","A11SDQ8ZAJ8D24","3P520RYKCHSO30HY2QJC6BDLS9Z5UE","","791","img/land4.png","75","792.8000000000466","2","1","1","2","0.8,0.2,0.2,0.2,0.8,0.2,0.2,0.2,0.8","0.2,0.2,0.8,0.8,0.2,0.2,0.2,0.8,0.2","2","",""
"","html-keyboard-response","192","262571","0.0-192.0","384PI804XTNBF01N7HN2ZYVUYME0S8","A11SDQ8ZAJ8D24","3P520RYKCHSO30HY2QJC6BDLS9Z5UE","","null","<img src=""img/land4.png"" style=""width:200px; border:14px solid green;"">","null","","","","","","","","","",""
"","image-keyboard-response","193","263185","0.0-193.0","384PI804XTNBF01N7HN2ZYVUYME0S8","A11SDQ8ZAJ8D24","3P520RYKCHSO30HY2QJC6BDLS9Z5UE","","611.5","img/land4.png","75","613.3999999999069","2","0","1","2","0.8,0.2,0.2,0.2,0.8,0.2,0.2,0.2,0.8","0.2,0.2,0.8,0.8,0.2,0.2,0.2,0.8,0.2","2","",""
"","html-keyboard-response","194","263487","0.0-194.0","384PI804XTNBF01N7HN2ZYVUYME0S8","A11SDQ8ZAJ8D24","3P520RYKCHSO30HY2QJC6BDLS9Z5UE","","null","<img src=""img/land4.png"" style=""width:200px;border:14px solid red;"">","null","","","","","","","","","",""
"","image-keyboard-response","195","263685","0.0-195.0","384PI804XTNBF01N7HN2ZYVUYME0S8","A11SDQ8ZAJ8D24","3P520RYKCHSO30HY2QJC6BDLS9Z5UE","","195.19999999995343","img/land4.png","74","197","1","0","1","2","0.8,0.2,0.2,0.2,0.8,0.2,0.2,0.2,0.8","0.2,0.2,0.8,0.8,0.2,0.2,0.2,0.8,0.2","2","",""
"","html-keyboard-response","196","263989","0.0-196.0","384PI804XTNBF01N7HN2ZYVUYME0S8","A11SDQ8ZAJ8D24","3P520RYKCHSO30HY2QJC6BDLS9Z5UE","","null","<img src=""img/land4.png"" style=""width:200px;border:14px solid red;"">","null","","","","","","","","","",""
"","image-keyboard-response","197","264533","0.0-197.0","384PI804XTNBF01N7HN2ZYVUYME0S8","A11SDQ8ZAJ8D24","3P520RYKCHSO30HY2QJC6BDLS9Z5UE","","542","img/land1.png","74","543.5","1","1","2","2","0.8,0.2,0.2,0.2,0.8,0.2,0.2,0.2,0.8","0.2,0.2,0.8,0.8,0.2,0.2,0.2,0.8,0.2","2","",""
"","html-keyboard-response","198","264836","0.0-198.0","384PI804XTNBF01N7HN2ZYVUYME0S8","A11SDQ8ZAJ8D24","3P520RYKCHSO30HY2QJC6BDLS9Z5UE","","null","<img src=""img/land1.png"" style=""width:200px; border:14px solid green;"">","null","","","","","","","","","",""
"","image-keyboard-response","199","265517","0.0-199.0","384PI804XTNBF01N7HN2ZYVUYME0S8","A11SDQ8ZAJ8D24","3P520RYKCHSO30HY2QJC6BDLS9Z5UE","","678.8000000000466","img/land4.png","74","680.5999999998603","1","0","1","2","0.8,0.2,0.2,0.2,0.8,0.2,0.2,0.2,0.8","0.2,0.2,0.8,0.8,0.2,0.2,0.2,0.8,0.2","2","",""
"","html-keyboard-response","200","265831","0.0-200.0","384PI804XTNBF01N7HN2ZYVUYME0S8","A11SDQ8ZAJ8D24","3P520RYKCHSO30HY2QJC6BDLS9Z5UE","","null","<img src=""img/land4.png"" style=""width:200px;border:14px solid red;"">","null","","","","","","","","","",""
"","image-keyboard-response","201","266394","0.0-201.0","384PI804XTNBF01N7HN2ZYVUYME0S8","A11SDQ8ZAJ8D24","3P520RYKCHSO30HY2QJC6BDLS9Z5UE","","561.8999999999069","img/land4.png","75","563.1999999999534","2","0","1","2","0.8,0.2,0.2,0.2,0.8,0.2,0.2,0.2,0.8","0.2,0.2,0.8,0.8,0.2,0.2,0.2,0.8,0.2","2","",""
"","html-keyboard-response","202","266696","0.0-202.0","384PI804XTNBF01N7HN2ZYVUYME0S8","A11SDQ8ZAJ8D24","3P520RYKCHSO30HY2QJC6BDLS9Z5UE","","null","<img src=""img/land4.png"" style=""width:200px;border:14px solid red;"">","null","","","","","","","","","",""
"","image-keyboard-response","203","267069","0.0-203.0","384PI804XTNBF01N7HN2ZYVUYME0S8","A11SDQ8ZAJ8D24","3P520RYKCHSO30HY2QJC6BDLS9Z5UE","","370.0999999998603","img/land4.png","74","372.4000000001397","1","0","1","2","0.8,0.2,0.2,0.2,0.8,0.2,0.2,0.2,0.8","0.2,0.2,0.8,0.8,0.2,0.2,0.2,0.8,0.2","2","",""
"","html-keyboard-response","204","267373","0.0-204.0","384PI804XTNBF01N7HN2ZYVUYME0S8","A11SDQ8ZAJ8D24","3P520RYKCHSO30HY2QJC6BDLS9Z5UE","","null","<img src=""img/land4.png"" style=""width:200px;border:14px solid red;"">","null","","","","","","","","","",""
"","image-keyboard-response","205","267907","0.0-205.0","384PI804XTNBF01N7HN2ZYVUYME0S8","A11SDQ8ZAJ8D24","3P520RYKCHSO30HY2QJC6BDLS9Z5UE","","531.8000000000466","img/land4.png","74","533.9000000001397","1","0","1","2","0.8,0.2,0.2,0.2,0.8,0.2,0.2,0.2,0.8","0.2,0.2,0.8,0.8,0.2,0.2,0.2,0.8,0.2","2","",""
"","html-keyboard-response","206","268211","0.0-206.0","384PI804XTNBF01N7HN2ZYVUYME0S8","A11SDQ8ZAJ8D24","3P520RYKCHSO30HY2QJC6BDLS9Z5UE","","null","<img src=""img/land4.png"" style=""width:200px;border:14px solid red;"">","null","","","","","","","","","",""
"","image-keyboard-response","207","268745","0.0-207.0","384PI804XTNBF01N7HN2ZYVUYME0S8","A11SDQ8ZAJ8D24","3P520RYKCHSO30HY2QJC6BDLS9Z5UE","","532.2000000001863","img/land2.png","75","534.0999999998603","2","1","3","2","0.8,0.2,0.2,0.2,0.8,0.2,0.2,0.2,0.8","0.2,0.2,0.8,0.8,0.2,0.2,0.2,0.8,0.2","2","",""
"","html-keyboard-response","208","269048","0.0-208.0","384PI804XTNBF01N7HN2ZYVUYME0S8","A11SDQ8ZAJ8D24","3P520RYKCHSO30HY2QJC6BDLS9Z5UE","","null","<img src=""img/land2.png"" style=""width:200px; border:14px solid green;"">","null","","","","","","","","","",""
"","image-keyboard-response","209","269548","0.0-209.0","384PI804XTNBF01N7HN2ZYVUYME0S8","A11SDQ8ZAJ8D24","3P520RYKCHSO30HY2QJC6BDLS9Z5UE","","497.5","img/land4.png","75","499.80000000004657","2","0","1","2","0.8,0.2,0.2,0.2,0.8,0.2,0.2,0.2,0.8","0.2,0.2,0.8,0.8,0.2,0.2,0.2,0.8,0.2","2","",""
"","html-keyboard-response","210","269852","0.0-210.0","384PI804XTNBF01N7HN2ZYVUYME0S8","A11SDQ8ZAJ8D24","3P520RYKCHSO30HY2QJC6BDLS9Z5UE","","null","<img src=""img/land4.png"" style=""width:200px;border:14px solid red;"">","null","","","","","","","","","",""
"","image-keyboard-response","211","270084","0.0-211.0","384PI804XTNBF01N7HN2ZYVUYME0S8","A11SDQ8ZAJ8D24","3P520RYKCHSO30HY2QJC6BDLS9Z5UE","","230.10000000009313","img/land4.png","74","231.89999999990687","1","0","1","2","0.8,0.2,0.2,0.2,0.8,0.2,0.2,0.2,0.8","0.2,0.2,0.8,0.8,0.2,0.2,0.2,0.8,0.2","2","",""
"","html-keyboard-response","212","270393","0.0-212.0","384PI804XTNBF01N7HN2ZYVUYME0S8","A11SDQ8ZAJ8D24","3P520RYKCHSO30HY2QJC6BDLS9Z5UE","","null","<img src=""img/land4.png"" style=""width:200px;border:14px solid red;"">","null","","","","","","","","","",""
"","image-keyboard-response","213","270655","0.0-213.0","384PI804XTNBF01N7HN2ZYVUYME0S8","A11SDQ8ZAJ8D24","3P520RYKCHSO30HY2QJC6BDLS9Z5UE","","260.39999999990687","img/land4.png","74","262.20000000018626","1","0","1","2","0.8,0.2,0.2,0.2,0.8,0.2,0.2,0.2,0.8","0.2,0.2,0.8,0.8,0.2,0.2,0.2,0.8,0.2","2","",""
"","html-keyboard-response","214","270958","0.0-214.0","384PI804XTNBF01N7HN2ZYVUYME0S8","A11SDQ8ZAJ8D24","3P520RYKCHSO30HY2QJC6BDLS9Z5UE","","null","<img src=""img/land4.png"" style=""width:200px;border:14px solid red;"">","null","","","","","","","","","",""
"","image-keyboard-response","215","271457","0.0-215.0","384PI804XTNBF01N7HN2ZYVUYME0S8","A11SDQ8ZAJ8D24","3P520RYKCHSO30HY2QJC6BDLS9Z5UE","","497.4000000001397","img/land1.png","75","499.19999999995343","2","0","2","2","0.8,0.2,0.2,0.2,0.8,0.2,0.2,0.2,0.8","0.2,0.2,0.8,0.8,0.2,0.2,0.2,0.8,0.2","2","",""
"","html-keyboard-response","216","271761","0.0-216.0","384PI804XTNBF01N7HN2ZYVUYME0S8","A11SDQ8ZAJ8D24","3P520RYKCHSO30HY2QJC6BDLS9Z5UE","","null","<img src=""img/land1.png"" style=""width:200px;border:14px solid red;"">","null","","","","","","","","","",""
"","image-keyboard-response","217","272331","0.0-217.0","384PI804XTNBF01N7HN2ZYVUYME0S8","A11SDQ8ZAJ8D24","3P520RYKCHSO30HY2QJC6BDLS9Z5UE","","568.6000000000931","img/land4.png","75","570.1999999999534","2","0","1","2","0.8,0.2,0.2,0.2,0.8,0.2,0.2,0.2,0.8","0.2,0.2,0.8,0.8,0.2,0.2,0.2,0.8,0.2","2","",""
"","html-keyboard-response","218","272635","0.0-218.0","384PI804XTNBF01N7HN2ZYVUYME0S8","A11SDQ8ZAJ8D24","3P520RYKCHSO30HY2QJC6BDLS9Z5UE","","null","<img src=""img/land4.png"" style=""width:200px;border:14px solid red;"">","null","","","","","","","","","",""
"","image-keyboard-response","219","273260","0.0-219.0","384PI804XTNBF01N7HN2ZYVUYME0S8","A11SDQ8ZAJ8D24","3P520RYKCHSO30HY2QJC6BDLS9Z5UE","","623.1999999999534","img/land4.png","74","624.8999999999069","1","0","1","2","0.8,0.2,0.2,0.2,0.8,0.2,0.2,0.2,0.8","0.2,0.2,0.8,0.8,0.2,0.2,0.2,0.8,0.2","2","",""
"","html-keyboard-response","220","273563","0.0-220.0","384PI804XTNBF01N7HN2ZYVUYME0S8","A11SDQ8ZAJ8D24","3P520RYKCHSO30HY2QJC6BDLS9Z5UE","","null","<img src=""img/land4.png"" style=""width:200px;border:14px solid red;"">","null","","","","","","","","","",""
"","image-keyboard-response","221","274050","0.0-221.0","384PI804XTNBF01N7HN2ZYVUYME0S8","A11SDQ8ZAJ8D24","3P520RYKCHSO30HY2QJC6BDLS9Z5UE","","484.80000000004657","img/land4.png","74","486.5999999998603","1","0","1","2","0.8,0.2,0.2,0.2,0.8,0.2,0.2,0.2,0.8","0.2,0.2,0.8,0.8,0.2,0.2,0.2,0.8,0.2","2","",""
"","html-keyboard-response","222","274354","0.0-222.0","384PI804XTNBF01N7HN2ZYVUYME0S8","A11SDQ8ZAJ8D24","3P520RYKCHSO30HY2QJC6BDLS9Z5UE","","null","<img src=""img/land4.png"" style=""width:200px;border:14px solid red;"">","null","","","","","","","","","",""
"","image-keyboard-response","223","274997","0.0-223.0","384PI804XTNBF01N7HN2ZYVUYME0S8","A11SDQ8ZAJ8D24","3P520RYKCHSO30HY2QJC6BDLS9Z5UE","","641.1000000000931","img/land1.png","75","642.5","2","0","2","2","0.8,0.2,0.2,0.2,0.8,0.2,0.2,0.2,0.8","0.2,0.2,0.8,0.8,0.2,0.2,0.2,0.8,0.2","2","",""
"","html-keyboard-response","224","275300","0.0-224.0","384PI804XTNBF01N7HN2ZYVUYME0S8","A11SDQ8ZAJ8D24","3P520RYKCHSO30HY2QJC6BDLS9Z5UE","","null","<img src=""img/land1.png"" style=""width:200px;border:14px solid red;"">","null","","","","","","","","","",""
"","image-keyboard-response","225","276084","0.0-225.0","384PI804XTNBF01N7HN2ZYVUYME0S8","A11SDQ8ZAJ8D24","3P520RYKCHSO30HY2QJC6BDLS9Z5UE","","782.3000000000466","img/land4.png","75","783.8999999999069","2","1","1","2","0.8,0.2,0.2,0.2,0.8,0.2,0.2,0.2,0.8","0.2,0.2,0.8,0.8,0.2,0.2,0.2,0.8,0.2","2","",""
"","html-keyboard-response","226","276386","0.0-226.0","384PI804XTNBF01N7HN2ZYVUYME0S8","A11SDQ8ZAJ8D24","3P520RYKCHSO30HY2QJC6BDLS9Z5UE","","null","<img src=""img/land4.png"" style=""width:200px; border:14px solid green;"">","null","","","","","","","","","",""
"","image-keyboard-response","227","277270","0.0-227.0","384PI804XTNBF01N7HN2ZYVUYME0S8","A11SDQ8ZAJ8D24","3P520RYKCHSO30HY2QJC6BDLS9Z5UE","","882.1000000000931","img/land4.png","75","883.9000000001397","2","1","1","2","0.8,0.2,0.2,0.2,0.8,0.2,0.2,0.2,0.8","0.2,0.2,0.8,0.8,0.2,0.2,0.2,0.8,0.2","2","",""
"","html-keyboard-response","228","277574","0.0-228.0","384PI804XTNBF01N7HN2ZYVUYME0S8","A11SDQ8ZAJ8D24","3P520RYKCHSO30HY2QJC6BDLS9Z5UE","","null","<img src=""img/land4.png"" style=""width:200px; border:14px solid green;"">","null","","","","","","","","","",""
"","image-keyboard-response","229","278641","0.0-229.0","384PI804XTNBF01N7HN2ZYVUYME0S8","A11SDQ8ZAJ8D24","3P520RYKCHSO30HY2QJC6BDLS9Z5UE","","1064.8000000000466","img/land2.png","74","1066.6999999999534","1","0","3","2","0.8,0.2,0.2,0.2,0.8,0.2,0.2,0.2,0.8","0.2,0.2,0.8,0.8,0.2,0.2,0.2,0.8,0.2","2","",""
"","html-keyboard-response","230","278943","0.0-230.0","384PI804XTNBF01N7HN2ZYVUYME0S8","A11SDQ8ZAJ8D24","3P520RYKCHSO30HY2QJC6BDLS9Z5UE","","null","<img src=""img/land2.png"" style=""width:200px;border:14px solid red;"">","null","","","","","","","","","",""
"","image-keyboard-response","231","279425","0.0-231.0","384PI804XTNBF01N7HN2ZYVUYME0S8","A11SDQ8ZAJ8D24","3P520RYKCHSO30HY2QJC6BDLS9Z5UE","","479.9000000001397","img/land2.png","76","481.80000000004657","3","0","3","2","0.8,0.2,0.2,0.2,0.8,0.2,0.2,0.2,0.8","0.2,0.2,0.8,0.8,0.2,0.2,0.2,0.8,0.2","2","",""
"","html-keyboard-response","232","279728","0.0-232.0","384PI804XTNBF01N7HN2ZYVUYME0S8","A11SDQ8ZAJ8D24","3P520RYKCHSO30HY2QJC6BDLS9Z5UE","","null","<img src=""img/land2.png"" style=""width:200px;border:14px solid red;"">","null","","","","","","","","","",""
"","image-keyboard-response","233","280424","0.0-233.0","384PI804XTNBF01N7HN2ZYVUYME0S8","A11SDQ8ZAJ8D24","3P520RYKCHSO30HY2QJC6BDLS9Z5UE","","692.8999999999069","img/land2.png","74","694.9000000001397","1","0","3","2","0.8,0.2,0.2,0.2,0.8,0.2,0.2,0.2,0.8","0.2,0.2,0.8,0.8,0.2,0.2,0.2,0.8,0.2","2","",""
"","html-keyboard-response","234","280726","0.0-234.0","384PI804XTNBF01N7HN2ZYVUYME0S8","A11SDQ8ZAJ8D24","3P520RYKCHSO30HY2QJC6BDLS9Z5UE","","null","<img src=""img/land2.png"" style=""width:200px;border:14px solid red;"">","null","","","","","","","","","",""
"","image-keyboard-response","235","281935","0.0-235.0","384PI804XTNBF01N7HN2ZYVUYME0S8","A11SDQ8ZAJ8D24","3P520RYKCHSO30HY2QJC6BDLS9Z5UE","","1206.8000000000466","img/land2.png","75","1208.8000000000466","2","1","3","2","0.8,0.2,0.2,0.2,0.8,0.2,0.2,0.2,0.8","0.2,0.2,0.8,0.8,0.2,0.2,0.2,0.8,0.2","2","",""
"","html-keyboard-response","236","282237","0.0-236.0","384PI804XTNBF01N7HN2ZYVUYME0S8","A11SDQ8ZAJ8D24","3P520RYKCHSO30HY2QJC6BDLS9Z5UE","","null","<img src=""img/land2.png"" style=""width:200px; border:14px solid green;"">","null","","","","","","","","","",""
"","image-keyboard-response","237","283511","0.0-237.0","384PI804XTNBF01N7HN2ZYVUYME0S8","A11SDQ8ZAJ8D24","3P520RYKCHSO30HY2QJC6BDLS9Z5UE","","1271.3999999999069","img/land4.png","75","1273.1000000000931","2","1","1","2","0.8,0.2,0.2,0.2,0.8,0.2,0.2,0.2,0.8","0.2,0.2,0.8,0.8,0.2,0.2,0.2,0.8,0.2","2","",""
"","html-keyboard-response","238","283814","0.0-238.0","384PI804XTNBF01N7HN2ZYVUYME0S8","A11SDQ8ZAJ8D24","3P520RYKCHSO30HY2QJC6BDLS9Z5UE","","null","<img src=""img/land4.png"" style=""width:200px; border:14px solid green;"">","null","","","","","","","","","",""
"","image-keyboard-response","239","285030","0.0-239.0","384PI804XTNBF01N7HN2ZYVUYME0S8","A11SDQ8ZAJ8D24","3P520RYKCHSO30HY2QJC6BDLS9Z5UE","","1213.3999999999069","img/land4.png","75","1215.1999999999534","2","0","1","2","0.8,0.2,0.2,0.2,0.8,0.2,0.2,0.2,0.8","0.2,0.2,0.8,0.8,0.2,0.2,0.2,0.8,0.2","2","",""
"","html-keyboard-response","240","285332","0.0-240.0","384PI804XTNBF01N7HN2ZYVUYME0S8","A11SDQ8ZAJ8D24","3P520RYKCHSO30HY2QJC6BDLS9Z5UE","","null","<img src=""img/land4.png"" style=""width:200px;border:14px solid red;"">","null","","","","","","","","","",""
"","image-keyboard-response","241","285749","0.0-241.0","384PI804XTNBF01N7HN2ZYVUYME0S8","A11SDQ8ZAJ8D24","3P520RYKCHSO30HY2QJC6BDLS9Z5UE","","414.5","img/land4.png","74","415.9000000001397","1","0","1","2","0.8,0.2,0.2,0.2,0.8,0.2,0.2,0.2,0.8","0.2,0.2,0.8,0.8,0.2,0.2,0.2,0.8,0.2","2","",""
"","html-keyboard-response","242","286050","0.0-242.0","384PI804XTNBF01N7HN2ZYVUYME0S8","A11SDQ8ZAJ8D24","3P520RYKCHSO30HY2QJC6BDLS9Z5UE","","null","<img src=""img/land4.png"" style=""width:200px;border:14px solid red;"">","null","","","","","","","","","",""
"","image-keyboard-response","243","286631","0.0-243.0","384PI804XTNBF01N7HN2ZYVUYME0S8","A11SDQ8ZAJ8D24","3P520RYKCHSO30HY2QJC6BDLS9Z5UE","","578.4000000001397","img/land4.png","76","580","3","1","1","2","0.8,0.2,0.2,0.2,0.8,0.2,0.2,0.2,0.8","0.2,0.2,0.8,0.8,0.2,0.2,0.2,0.8,0.2","2","",""
"","html-keyboard-response","244","286934","0.0-244.0","384PI804XTNBF01N7HN2ZYVUYME0S8","A11SDQ8ZAJ8D24","3P520RYKCHSO30HY2QJC6BDLS9Z5UE","","null","<img src=""img/land4.png"" style=""width:200px; border:14px solid green;"">","null","","","","","","","","","",""
"","image-keyboard-response","245","288185","0.0-245.0","384PI804XTNBF01N7HN2ZYVUYME0S8","A11SDQ8ZAJ8D24","3P520RYKCHSO30HY2QJC6BDLS9Z5UE","","1249.1000000000931","img/land1.png","76","1250.5999999998603","3","0","2","2","0.8,0.2,0.2,0.2,0.8,0.2,0.2,0.2,0.8","0.2,0.2,0.8,0.8,0.2,0.2,0.2,0.8,0.2","2","",""
"","html-keyboard-response","246","288488","0.0-246.0","384PI804XTNBF01N7HN2ZYVUYME0S8","A11SDQ8ZAJ8D24","3P520RYKCHSO30HY2QJC6BDLS9Z5UE","","null","<img src=""img/land1.png"" style=""width:200px;border:14px solid red;"">","null","","","","","","","","","",""
"","image-keyboard-response","247","289028","0.0-247.0","384PI804XTNBF01N7HN2ZYVUYME0S8","A11SDQ8ZAJ8D24","3P520RYKCHSO30HY2QJC6BDLS9Z5UE","","537.3999999999069","img/land4.png","74","539.1000000000931","1","0","1","2","0.8,0.2,0.2,0.2,0.8,0.2,0.2,0.2,0.8","0.2,0.2,0.8,0.8,0.2,0.2,0.2,0.8,0.2","2","",""
"","html-keyboard-response","248","289331","0.0-248.0","384PI804XTNBF01N7HN2ZYVUYME0S8","A11SDQ8ZAJ8D24","3P520RYKCHSO30HY2QJC6BDLS9Z5UE","","null","<img src=""img/land4.png"" style=""width:200px;border:14px solid red;"">","null","","","","","","","","","",""
"","image-keyboard-response","249","290803","0.0-249.0","384PI804XTNBF01N7HN2ZYVUYME0S8","A11SDQ8ZAJ8D24","3P520RYKCHSO30HY2QJC6BDLS9Z5UE","","1470.1999999999534","img/land2.png","76","1472.1999999999534","3","0","3","2","0.8,0.2,0.2,0.2,0.8,0.2,0.2,0.2,0.8","0.2,0.2,0.8,0.8,0.2,0.2,0.2,0.8,0.2","2","",""
"","html-keyboard-response","250","291106","0.0-250.0","384PI804XTNBF01N7HN2ZYVUYME0S8","A11SDQ8ZAJ8D24","3P520RYKCHSO30HY2QJC6BDLS9Z5UE","","null","<img src=""img/land2.png"" style=""width:200px;border:14px solid red;"">","null","","","","","","","","","",""
"","image-keyboard-response","251","291660","0.0-251.0","384PI804XTNBF01N7HN2ZYVUYME0S8","A11SDQ8ZAJ8D24","3P520RYKCHSO30HY2QJC6BDLS9Z5UE","","551.9000000001397","img/land4.png","74","553.8000000000466","1","0","1","2","0.8,0.2,0.2,0.2,0.8,0.2,0.2,0.2,0.8","0.2,0.2,0.8,0.8,0.2,0.2,0.2,0.8,0.2","2","",""
"","html-keyboard-response","252","291964","0.0-252.0","384PI804XTNBF01N7HN2ZYVUYME0S8","A11SDQ8ZAJ8D24","3P520RYKCHSO30HY2QJC6BDLS9Z5UE","","null","<img src=""img/land4.png"" style=""width:200px;border:14px solid red;"">","null","","","","","","","","","",""
"","image-keyboard-response","253","292504","0.0-253.0","384PI804XTNBF01N7HN2ZYVUYME0S8","A11SDQ8ZAJ8D24","3P520RYKCHSO30HY2QJC6BDLS9Z5UE","","537.8000000000466","img/land1.png","76","539.4000000001397","3","0","2","2","0.8,0.2,0.2,0.2,0.8,0.2,0.2,0.2,0.8","0.2,0.2,0.8,0.8,0.2,0.2,0.2,0.8,0.2","2","",""
"","html-keyboard-response","254","292808","0.0-254.0","384PI804XTNBF01N7HN2ZYVUYME0S8","A11SDQ8ZAJ8D24","3P520RYKCHSO30HY2QJC6BDLS9Z5UE","","null","<img src=""img/land1.png"" style=""width:200px;border:14px solid red;"">","null","","","","","","","","","",""
"","image-keyboard-response","255","293215","0.0-255.0","384PI804XTNBF01N7HN2ZYVUYME0S8","A11SDQ8ZAJ8D24","3P520RYKCHSO30HY2QJC6BDLS9Z5UE","","405.30000000004657","img/land4.png","74","407","1","0","1","2","0.8,0.2,0.2,0.2,0.8,0.2,0.2,0.2,0.8","0.2,0.2,0.8,0.8,0.2,0.2,0.2,0.8,0.2","2","",""
"","html-keyboard-response","256","293518","0.0-256.0","384PI804XTNBF01N7HN2ZYVUYME0S8","A11SDQ8ZAJ8D24","3P520RYKCHSO30HY2QJC6BDLS9Z5UE","","null","<img src=""img/land4.png"" style=""width:200px;border:14px solid red;"">","null","","","","","","","","","",""
"","image-keyboard-response","257","293895","0.0-257.0","384PI804XTNBF01N7HN2ZYVUYME0S8","A11SDQ8ZAJ8D24","3P520RYKCHSO30HY2QJC6BDLS9Z5UE","","375.30000000004657","img/land2.png","75","377.10000000009313","2","1","3","2","0.8,0.2,0.2,0.2,0.8,0.2,0.2,0.2,0.8","0.2,0.2,0.8,0.8,0.2,0.2,0.2,0.8,0.2","2","",""
"","html-keyboard-response","258","294198","0.0-258.0","384PI804XTNBF01N7HN2ZYVUYME0S8","A11SDQ8ZAJ8D24","3P520RYKCHSO30HY2QJC6BDLS9Z5UE","","null","<img src=""img/land2.png"" style=""width:200px; border:14px solid green;"">","null","","","","","","","","","",""
"","image-keyboard-response","259","295003","0.0-259.0","384PI804XTNBF01N7HN2ZYVUYME0S8","A11SDQ8ZAJ8D24","3P520RYKCHSO30HY2QJC6BDLS9Z5UE","","803","img/land4.png","75","804.8000000000466","2","1","1","2","0.8,0.2,0.2,0.2,0.8,0.2,0.2,0.2,0.8","0.2,0.2,0.8,0.8,0.2,0.2,0.2,0.8,0.2","2","",""
"","html-keyboard-response","260","295306","0.0-260.0","384PI804XTNBF01N7HN2ZYVUYME0S8","A11SDQ8ZAJ8D24","3P520RYKCHSO30HY2QJC6BDLS9Z5UE","","null","<img src=""img/land4.png"" style=""width:200px; border:14px solid green;"">","null","","","","","","","","","",""
"","image-keyboard-response","261","296217","0.0-261.0","384PI804XTNBF01N7HN2ZYVUYME0S8","A11SDQ8ZAJ8D24","3P520RYKCHSO30HY2QJC6BDLS9Z5UE","","908.3999999999069","img/land4.png","75","910.3000000000466","2","0","1","2","0.8,0.2,0.2,0.2,0.8,0.2,0.2,0.2,0.8","0.2,0.2,0.8,0.8,0.2,0.2,0.2,0.8,0.2","2","",""
"","html-keyboard-response","262","296519","0.0-262.0","384PI804XTNBF01N7HN2ZYVUYME0S8","A11SDQ8ZAJ8D24","3P520RYKCHSO30HY2QJC6BDLS9Z5UE","","null","<img src=""img/land4.png"" style=""width:200px;border:14px solid red;"">","null","","","","","","","","","",""
"","image-keyboard-response","263","296944","0.0-263.0","384PI804XTNBF01N7HN2ZYVUYME0S8","A11SDQ8ZAJ8D24","3P520RYKCHSO30HY2QJC6BDLS9Z5UE","","422.30000000004657","img/land1.png","74","423.80000000004657","1","0","2","2","0.8,0.2,0.2,0.2,0.8,0.2,0.2,0.2,0.8","0.2,0.2,0.8,0.8,0.2,0.2,0.2,0.8,0.2","2","",""
"","html-keyboard-response","264","297245","0.0-264.0","384PI804XTNBF01N7HN2ZYVUYME0S8","A11SDQ8ZAJ8D24","3P520RYKCHSO30HY2QJC6BDLS9Z5UE","","null","<img src=""img/land1.png"" style=""width:200px;border:14px solid red;"">","null","","","","","","","","","",""
"","image-keyboard-response","265","297988","0.0-265.0","384PI804XTNBF01N7HN2ZYVUYME0S8","A11SDQ8ZAJ8D24","3P520RYKCHSO30HY2QJC6BDLS9Z5UE","","740.7999999998137","img/land4.png","76","742.3999999999069","3","1","1","2","0.8,0.2,0.2,0.2,0.8,0.2,0.2,0.2,0.8","0.2,0.2,0.8,0.8,0.2,0.2,0.2,0.8,0.2","2","",""
"","html-keyboard-response","266","298290","0.0-266.0","384PI804XTNBF01N7HN2ZYVUYME0S8","A11SDQ8ZAJ8D24","3P520RYKCHSO30HY2QJC6BDLS9Z5UE","","null","<img src=""img/land4.png"" style=""width:200px; border:14px solid green;"">","null","","","","","","","","","",""
"","image-keyboard-response","267","299264","0.0-267.0","384PI804XTNBF01N7HN2ZYVUYME0S8","A11SDQ8ZAJ8D24","3P520RYKCHSO30HY2QJC6BDLS9Z5UE","","971.6000000000931","img/land2.png","74","973.1999999999534","1","0","3","2","0.8,0.2,0.2,0.2,0.8,0.2,0.2,0.2,0.8","0.2,0.2,0.8,0.8,0.2,0.2,0.2,0.8,0.2","2","",""
"","html-keyboard-response","268","299566","0.0-268.0","384PI804XTNBF01N7HN2ZYVUYME0S8","A11SDQ8ZAJ8D24","3P520RYKCHSO30HY2QJC6BDLS9Z5UE","","null","<img src=""img/land2.png"" style=""width:200px;border:14px solid red;"">","null","","","","","","","","","",""
"","image-keyboard-response","269","300039","0.0-269.0","384PI804XTNBF01N7HN2ZYVUYME0S8","A11SDQ8ZAJ8D24","3P520RYKCHSO30HY2QJC6BDLS9Z5UE","","471","img/land2.png","75","472.4000000001397","2","1","3","2","0.8,0.2,0.2,0.2,0.8,0.2,0.2,0.2,0.8","0.2,0.2,0.8,0.8,0.2,0.2,0.2,0.8,0.2","2","",""
"","html-keyboard-response","270","300342","0.0-270.0","384PI804XTNBF01N7HN2ZYVUYME0S8","A11SDQ8ZAJ8D24","3P520RYKCHSO30HY2QJC6BDLS9Z5UE","","null","<img src=""img/land2.png"" style=""width:200px; border:14px solid green;"">","null","","","","","","","","","",""
"","image-keyboard-response","271","301518","0.0-271.0","384PI804XTNBF01N7HN2ZYVUYME0S8","A11SDQ8ZAJ8D24","3P520RYKCHSO30HY2QJC6BDLS9Z5UE","","1174.1999999999534","img/land2.png","75","1175.8000000000466","2","1","3","2","0.8,0.2,0.2,0.2,0.8,0.2,0.2,0.2,0.8","0.2,0.2,0.8,0.8,0.2,0.2,0.2,0.8,0.2","2","",""
"","html-keyboard-response","272","301821","0.0-272.0","384PI804XTNBF01N7HN2ZYVUYME0S8","A11SDQ8ZAJ8D24","3P520RYKCHSO30HY2QJC6BDLS9Z5UE","","null","<img src=""img/land2.png"" style=""width:200px; border:14px solid green;"">","null","","","","","","","","","",""
"","image-keyboard-response","273","302638","0.0-273.0","384PI804XTNBF01N7HN2ZYVUYME0S8","A11SDQ8ZAJ8D24","3P520RYKCHSO30HY2QJC6BDLS9Z5UE","","814.6000000000931","img/land4.png","76","816.2999999998137","3","1","1","2","0.8,0.2,0.2,0.2,0.8,0.2,0.2,0.2,0.8","0.2,0.2,0.8,0.8,0.2,0.2,0.2,0.8,0.2","2","",""
"","html-keyboard-response","274","302940","0.0-274.0","384PI804XTNBF01N7HN2ZYVUYME0S8","A11SDQ8ZAJ8D24","3P520RYKCHSO30HY2QJC6BDLS9Z5UE","","null","<img src=""img/land4.png"" style=""width:200px; border:14px solid green;"">","null","","","","","","","","","",""
"","image-keyboard-response","275","303875","0.0-275.0","384PI804XTNBF01N7HN2ZYVUYME0S8","A11SDQ8ZAJ8D24","3P520RYKCHSO30HY2QJC6BDLS9Z5UE","","932.1999999999534","img/land1.png","75","933.8999999999069","2","0","2","2","0.8,0.2,0.2,0.2,0.8,0.2,0.2,0.2,0.8","0.2,0.2,0.8,0.8,0.2,0.2,0.2,0.8,0.2","2","",""
"","html-keyboard-response","276","304177","0.0-276.0","384PI804XTNBF01N7HN2ZYVUYME0S8","A11SDQ8ZAJ8D24","3P520RYKCHSO30HY2QJC6BDLS9Z5UE","","null","<img src=""img/land1.png"" style=""width:200px;border:14px solid red;"">","null","","","","","","","","","",""
"","image-keyboard-response","277","304672","0.0-277.0","384PI804XTNBF01N7HN2ZYVUYME0S8","A11SDQ8ZAJ8D24","3P520RYKCHSO30HY2QJC6BDLS9Z5UE","","493.39999999990687","img/land1.png","74","495","1","1","2","2","0.8,0.2,0.2,0.2,0.8,0.2,0.2,0.2,0.8","0.2,0.2,0.8,0.8,0.2,0.2,0.2,0.8,0.2","2","",""
"","html-keyboard-response","278","304975","0.0-278.0","384PI804XTNBF01N7HN2ZYVUYME0S8","A11SDQ8ZAJ8D24","3P520RYKCHSO30HY2QJC6BDLS9Z5UE","","null","<img src=""img/land1.png"" style=""width:200px; border:14px solid green;"">","null","","","","","","","","","",""
"","image-keyboard-response","279","305699","0.0-279.0","384PI804XTNBF01N7HN2ZYVUYME0S8","A11SDQ8ZAJ8D24","3P520RYKCHSO30HY2QJC6BDLS9Z5UE","","722.1999999999534","img/land4.png","74","723.7999999998137","1","0","1","2","0.8,0.2,0.2,0.2,0.8,0.2,0.2,0.2,0.8","0.2,0.2,0.8,0.8,0.2,0.2,0.2,0.8,0.2","2","",""
"","html-keyboard-response","280","306002","0.0-280.0","384PI804XTNBF01N7HN2ZYVUYME0S8","A11SDQ8ZAJ8D24","3P520RYKCHSO30HY2QJC6BDLS9Z5UE","","null","<img src=""img/land4.png"" style=""width:200px;border:14px solid red;"">","null","","","","","","","","","",""
"","image-keyboard-response","281","306884","0.0-281.0","384PI804XTNBF01N7HN2ZYVUYME0S8","A11SDQ8ZAJ8D24","3P520RYKCHSO30HY2QJC6BDLS9Z5UE","","880.5","img/land4.png","76","882.0999999998603","3","1","1","2","0.8,0.2,0.2,0.2,0.8,0.2,0.2,0.2,0.8","0.2,0.2,0.8,0.8,0.2,0.2,0.2,0.8,0.2","2","",""
"","html-keyboard-response","282","307187","0.0-282.0","384PI804XTNBF01N7HN2ZYVUYME0S8","A11SDQ8ZAJ8D24","3P520RYKCHSO30HY2QJC6BDLS9Z5UE","","null","<img src=""img/land4.png"" style=""width:200px; border:14px solid green;"">","null","","","","","","","","","",""
"","image-keyboard-response","283","308146","0.0-283.0","384PI804XTNBF01N7HN2ZYVUYME0S8","A11SDQ8ZAJ8D24","3P520RYKCHSO30HY2QJC6BDLS9Z5UE","","957.1999999999534","img/land4.png","76","958.6999999999534","3","0","1","2","0.8,0.2,0.2,0.2,0.8,0.2,0.2,0.2,0.8","0.2,0.2,0.8,0.8,0.2,0.2,0.2,0.8,0.2","2","",""
"","html-keyboard-response","284","308449","0.0-284.0","384PI804XTNBF01N7HN2ZYVUYME0S8","A11SDQ8ZAJ8D24","3P520RYKCHSO30HY2QJC6BDLS9Z5UE","","null","<img src=""img/land4.png"" style=""width:200px;border:14px solid red;"">","null","","","","","","","","","",""
"","image-keyboard-response","285","308715","0.0-285.0","384PI804XTNBF01N7HN2ZYVUYME0S8","A11SDQ8ZAJ8D24","3P520RYKCHSO30HY2QJC6BDLS9Z5UE","","262.80000000004657","img/land1.png","74","264.5","1","1","2","2","0.8,0.2,0.2,0.2,0.8,0.2,0.2,0.2,0.8","0.2,0.2,0.8,0.8,0.2,0.2,0.2,0.8,0.2","2","",""
"","html-keyboard-response","286","309017","0.0-286.0","384PI804XTNBF01N7HN2ZYVUYME0S8","A11SDQ8ZAJ8D24","3P520RYKCHSO30HY2QJC6BDLS9Z5UE","","null","<img src=""img/land1.png"" style=""width:200px; border:14px solid green;"">","null","","","","","","","","","",""
"","image-keyboard-response","287","310237","0.0-287.0","384PI804XTNBF01N7HN2ZYVUYME0S8","A11SDQ8ZAJ8D24","3P520RYKCHSO30HY2QJC6BDLS9Z5UE","","1218.1000000000931","img/land1.png","75","1219.7999999998137","2","0","2","2","0.8,0.2,0.2,0.2,0.8,0.2,0.2,0.2,0.8","0.2,0.2,0.8,0.8,0.2,0.2,0.2,0.8,0.2","2","",""
"","html-keyboard-response","288","310541","0.0-288.0","384PI804XTNBF01N7HN2ZYVUYME0S8","A11SDQ8ZAJ8D24","3P520RYKCHSO30HY2QJC6BDLS9Z5UE","","null","<img src=""img/land1.png"" style=""width:200px;border:14px solid red;"">","null","","","","","","","","","",""
"","image-keyboard-response","289","311493","0.0-289.0","384PI804XTNBF01N7HN2ZYVUYME0S8","A11SDQ8ZAJ8D24","3P520RYKCHSO30HY2QJC6BDLS9Z5UE","","950.5","img/land2.png","74","952.1999999999534","1","0","3","2","0.8,0.2,0.2,0.2,0.8,0.2,0.2,0.2,0.8","0.2,0.2,0.8,0.8,0.2,0.2,0.2,0.8,0.2","2","",""
"","html-keyboard-response","290","311796","0.0-290.0","384PI804XTNBF01N7HN2ZYVUYME0S8","A11SDQ8ZAJ8D24","3P520RYKCHSO30HY2QJC6BDLS9Z5UE","","null","<img src=""img/land2.png"" style=""width:200px;border:14px solid red;"">","null","","","","","","","","","",""
"","image-keyboard-response","291","312600","0.0-291.0","384PI804XTNBF01N7HN2ZYVUYME0S8","A11SDQ8ZAJ8D24","3P520RYKCHSO30HY2QJC6BDLS9Z5UE","","801.2000000001863","img/land4.png","76","802.8999999999069","3","1","1","2","0.8,0.2,0.2,0.2,0.8,0.2,0.2,0.2,0.8","0.2,0.2,0.8,0.8,0.2,0.2,0.2,0.8,0.2","2","",""
"","html-keyboard-response","292","312902","0.0-292.0","384PI804XTNBF01N7HN2ZYVUYME0S8","A11SDQ8ZAJ8D24","3P520RYKCHSO30HY2QJC6BDLS9Z5UE","","null","<img src=""img/land4.png"" style=""width:200px; border:14px solid green;"">","null","","","","","","","","","",""
"","image-keyboard-response","293","313485","0.0-293.0","384PI804XTNBF01N7HN2ZYVUYME0S8","A11SDQ8ZAJ8D24","3P520RYKCHSO30HY2QJC6BDLS9Z5UE","","581.1999999999534","img/land4.png","76","583","3","1","1","2","0.8,0.2,0.2,0.2,0.8,0.2,0.2,0.2,0.8","0.2,0.2,0.8,0.8,0.2,0.2,0.2,0.8,0.2","2","",""
"","html-keyboard-response","294","313799","0.0-294.0","384PI804XTNBF01N7HN2ZYVUYME0S8","A11SDQ8ZAJ8D24","3P520RYKCHSO30HY2QJC6BDLS9Z5UE","","null","<img src=""img/land4.png"" style=""width:200px; border:14px solid green;"">","null","","","","","","","","","",""
"","image-keyboard-response","295","314840","0.0-295.0","384PI804XTNBF01N7HN2ZYVUYME0S8","A11SDQ8ZAJ8D24","3P520RYKCHSO30HY2QJC6BDLS9Z5UE","","1038.8999999999069","img/land4.png","76","1040.5","3","1","1","2","0.8,0.2,0.2,0.2,0.8,0.2,0.2,0.2,0.8","0.2,0.2,0.8,0.8,0.2,0.2,0.2,0.8,0.2","2","",""
"","html-keyboard-response","296","315143","0.0-296.0","384PI804XTNBF01N7HN2ZYVUYME0S8","A11SDQ8ZAJ8D24","3P520RYKCHSO30HY2QJC6BDLS9Z5UE","","null","<img src=""img/land4.png"" style=""width:200px; border:14px solid green;"">","null","","","","","","","","","",""
"","image-keyboard-response","297","315860","0.0-297.0","384PI804XTNBF01N7HN2ZYVUYME0S8","A11SDQ8ZAJ8D24","3P520RYKCHSO30HY2QJC6BDLS9Z5UE","","714.1999999999534","img/land4.png","76","715.6999999999534","3","1","1","2","0.8,0.2,0.2,0.2,0.8,0.2,0.2,0.2,0.8","0.2,0.2,0.8,0.8,0.2,0.2,0.2,0.8,0.2","2","",""
"","html-keyboard-response","298","316162","0.0-298.0","384PI804XTNBF01N7HN2ZYVUYME0S8","A11SDQ8ZAJ8D24","3P520RYKCHSO30HY2QJC6BDLS9Z5UE","","null","<img src=""img/land4.png"" style=""width:200px; border:14px solid green;"">","null","","","","","","","","","",""
"","image-keyboard-response","299","316795","0.0-299.0","384PI804XTNBF01N7HN2ZYVUYME0S8","A11SDQ8ZAJ8D24","3P520RYKCHSO30HY2QJC6BDLS9Z5UE","","630.5","img/land4.png","76","632.0999999998603","3","1","1","2","0.8,0.2,0.2,0.2,0.8,0.2,0.2,0.2,0.8","0.2,0.2,0.8,0.8,0.2,0.2,0.2,0.8,0.2","2","",""
"","html-keyboard-response","300","317098","0.0-300.0","384PI804XTNBF01N7HN2ZYVUYME0S8","A11SDQ8ZAJ8D24","3P520RYKCHSO30HY2QJC6BDLS9Z5UE","","null","<img src=""img/land4.png"" style=""width:200px; border:14px solid green;"">","null","","","","","","","","","",""
"","image-keyboard-response","301","317684","0.0-301.0","384PI804XTNBF01N7HN2ZYVUYME0S8","A11SDQ8ZAJ8D24","3P520RYKCHSO30HY2QJC6BDLS9Z5UE","","584","img/land4.png","76","585.9000000001397","3","1","1","2","0.8,0.2,0.2,0.2,0.8,0.2,0.2,0.2,0.8","0.2,0.2,0.8,0.8,0.2,0.2,0.2,0.8,0.2","2","",""
"","html-keyboard-response","302","317988","0.0-302.0","384PI804XTNBF01N7HN2ZYVUYME0S8","A11SDQ8ZAJ8D24","3P520RYKCHSO30HY2QJC6BDLS9Z5UE","","null","<img src=""img/land4.png"" style=""width:200px; border:14px solid green;"">","null","","","","","","","","","",""
"","image-keyboard-response","303","318958","0.0-303.0","384PI804XTNBF01N7HN2ZYVUYME0S8","A11SDQ8ZAJ8D24","3P520RYKCHSO30HY2QJC6BDLS9Z5UE","","968.0999999998603","img/land1.png","76","969.8000000000466","3","0","2","2","0.8,0.2,0.2,0.2,0.8,0.2,0.2,0.2,0.8","0.2,0.2,0.8,0.8,0.2,0.2,0.2,0.8,0.2","2","",""
"","html-keyboard-response","304","319261","0.0-304.0","384PI804XTNBF01N7HN2ZYVUYME0S8","A11SDQ8ZAJ8D24","3P520RYKCHSO30HY2QJC6BDLS9Z5UE","","null","<img src=""img/land1.png"" style=""width:200px;border:14px solid red;"">","null","","","","","","","","","",""
"","image-keyboard-response","305","319770","0.0-305.0","384PI804XTNBF01N7HN2ZYVUYME0S8","A11SDQ8ZAJ8D24","3P520RYKCHSO30HY2QJC6BDLS9Z5UE","","506.80000000004657","img/land2.png","74","508.5","1","0","3","2","0.8,0.2,0.2,0.2,0.8,0.2,0.2,0.2,0.8","0.2,0.2,0.8,0.8,0.2,0.2,0.2,0.8,0.2","2","",""
"","html-keyboard-response","306","320072","0.0-306.0","384PI804XTNBF01N7HN2ZYVUYME0S8","A11SDQ8ZAJ8D24","3P520RYKCHSO30HY2QJC6BDLS9Z5UE","","null","<img src=""img/land2.png"" style=""width:200px;border:14px solid red;"">","null","","","","","","","","","",""
"","image-keyboard-response","307","320780","0.0-307.0","384PI804XTNBF01N7HN2ZYVUYME0S8","A11SDQ8ZAJ8D24","3P520RYKCHSO30HY2QJC6BDLS9Z5UE","","705.3999999999069","img/land1.png","75","707.3000000000466","2","1","2","2","0.8,0.2,0.2,0.2,0.8,0.2,0.2,0.2,0.8","0.2,0.2,0.8,0.8,0.2,0.2,0.2,0.8,0.2","2","",""
"","html-keyboard-response","308","321084","0.0-308.0","384PI804XTNBF01N7HN2ZYVUYME0S8","A11SDQ8ZAJ8D24","3P520RYKCHSO30HY2QJC6BDLS9Z5UE","","null","<img src=""img/land1.png"" style=""width:200px; border:14px solid green;"">","null","","","","","","","","","",""
"","image-keyboard-response","309","321866","0.0-309.0","384PI804XTNBF01N7HN2ZYVUYME0S8","A11SDQ8ZAJ8D24","3P520RYKCHSO30HY2QJC6BDLS9Z5UE","","779.9000000001397","img/land4.png","75","781.5999999998603","2","0","1","2","0.8,0.2,0.2,0.2,0.8,0.2,0.2,0.2,0.8","0.2,0.2,0.8,0.8,0.2,0.2,0.2,0.8,0.2","2","",""
"","html-keyboard-response","310","322168","0.0-310.0","384PI804XTNBF01N7HN2ZYVUYME0S8","A11SDQ8ZAJ8D24","3P520RYKCHSO30HY2QJC6BDLS9Z5UE","","null","<img src=""img/land4.png"" style=""width:200px;border:14px solid red;"">","null","","","","","","","","","",""
"","image-keyboard-response","311","322392","0.0-311.0","384PI804XTNBF01N7HN2ZYVUYME0S8","A11SDQ8ZAJ8D24","3P520RYKCHSO30HY2QJC6BDLS9Z5UE","","221.80000000004657","img/land4.png","74","223.5999999998603","1","0","1","2","0.8,0.2,0.2,0.2,0.8,0.2,0.2,0.2,0.8","0.2,0.2,0.8,0.8,0.2,0.2,0.2,0.8,0.2","2","",""
"","html-keyboard-response","312","322695","0.0-312.0","384PI804XTNBF01N7HN2ZYVUYME0S8","A11SDQ8ZAJ8D24","3P520RYKCHSO30HY2QJC6BDLS9Z5UE","","null","<img src=""img/land4.png"" style=""width:200px;border:14px solid red;"">","null","","","","","","","","","",""
"","image-keyboard-response","313","323202","0.0-313.0","384PI804XTNBF01N7HN2ZYVUYME0S8","A11SDQ8ZAJ8D24","3P520RYKCHSO30HY2QJC6BDLS9Z5UE","","504.5","img/land4.png","76","506","3","1","1","2","0.8,0.2,0.2,0.2,0.8,0.2,0.2,0.2,0.8","0.2,0.2,0.8,0.8,0.2,0.2,0.2,0.8,0.2","2","",""
"","html-keyboard-response","314","323506","0.0-314.0","384PI804XTNBF01N7HN2ZYVUYME0S8","A11SDQ8ZAJ8D24","3P520RYKCHSO30HY2QJC6BDLS9Z5UE","","null","<img src=""img/land4.png"" style=""width:200px; border:14px solid green;"">","null","","","","","","","","","",""
"","image-keyboard-response","315","324122","0.0-315.0","384PI804XTNBF01N7HN2ZYVUYME0S8","A11SDQ8ZAJ8D24","3P520RYKCHSO30HY2QJC6BDLS9Z5UE","","613.3000000000466","img/land4.png","76","615.3000000000466","3","1","1","2","0.8,0.2,0.2,0.2,0.8,0.2,0.2,0.2,0.8","0.2,0.2,0.8,0.8,0.2,0.2,0.2,0.8,0.2","2","",""
"","html-keyboard-response","316","324425","0.0-316.0","384PI804XTNBF01N7HN2ZYVUYME0S8","A11SDQ8ZAJ8D24","3P520RYKCHSO30HY2QJC6BDLS9Z5UE","","null","<img src=""img/land4.png"" style=""width:200px; border:14px solid green;"">","null","","","","","","","","","",""
"","image-keyboard-response","317","325137","0.0-317.0","384PI804XTNBF01N7HN2ZYVUYME0S8","A11SDQ8ZAJ8D24","3P520RYKCHSO30HY2QJC6BDLS9Z5UE","","710","img/land4.png","76","711.8000000000466","3","1","1","2","0.8,0.2,0.2,0.2,0.8,0.2,0.2,0.2,0.8","0.2,0.2,0.8,0.8,0.2,0.2,0.2,0.8,0.2","2","",""
"","html-keyboard-response","318","325439","0.0-318.0","384PI804XTNBF01N7HN2ZYVUYME0S8","A11SDQ8ZAJ8D24","3P520RYKCHSO30HY2QJC6BDLS9Z5UE","","null","<img src=""img/land4.png"" style=""width:200px; border:14px solid green;"">","null","","","","","","","","","",""
"","image-keyboard-response","319","326459","0.0-319.0","384PI804XTNBF01N7HN2ZYVUYME0S8","A11SDQ8ZAJ8D24","3P520RYKCHSO30HY2QJC6BDLS9Z5UE","","1018","img/land4.png","76","1019.5999999998603","3","0","1","2","0.8,0.2,0.2,0.2,0.8,0.2,0.2,0.2,0.8","0.2,0.2,0.8,0.8,0.2,0.2,0.2,0.8,0.2","2","",""
"","html-keyboard-response","320","326762","0.0-320.0","384PI804XTNBF01N7HN2ZYVUYME0S8","A11SDQ8ZAJ8D24","3P520RYKCHSO30HY2QJC6BDLS9Z5UE","","null","<img src=""img/land4.png"" style=""width:200px;border:14px solid red;"">","null","","","","","","","","","",""
"","image-keyboard-response","321","327158","0.0-321.0","384PI804XTNBF01N7HN2ZYVUYME0S8","A11SDQ8ZAJ8D24","3P520RYKCHSO30HY2QJC6BDLS9Z5UE","","394","img/land1.png","74","395.69999999995343","1","1","2","2","0.8,0.2,0.2,0.2,0.8,0.2,0.2,0.2,0.8","0.2,0.2,0.8,0.8,0.2,0.2,0.2,0.8,0.2","2","",""
"","html-keyboard-response","322","327461","0.0-322.0","384PI804XTNBF01N7HN2ZYVUYME0S8","A11SDQ8ZAJ8D24","3P520RYKCHSO30HY2QJC6BDLS9Z5UE","","null","<img src=""img/land1.png"" style=""width:200px; border:14px solid green;"">","null","","","","","","","","","",""
"","image-keyboard-response","323","328297","0.0-323.0","384PI804XTNBF01N7HN2ZYVUYME0S8","A11SDQ8ZAJ8D24","3P520RYKCHSO30HY2QJC6BDLS9Z5UE","","833.3999999999069","img/land1.png","74","835.1999999999534","1","1","2","2","0.8,0.2,0.2,0.2,0.8,0.2,0.2,0.2,0.8","0.2,0.2,0.8,0.8,0.2,0.2,0.2,0.8,0.2","2","",""
"","html-keyboard-response","324","328600","0.0-324.0","384PI804XTNBF01N7HN2ZYVUYME0S8","A11SDQ8ZAJ8D24","3P520RYKCHSO30HY2QJC6BDLS9Z5UE","","null","<img src=""img/land1.png"" style=""width:200px; border:14px solid green;"">","null","","","","","","","","","",""
"","image-keyboard-response","325","329107","0.0-325.0","384PI804XTNBF01N7HN2ZYVUYME0S8","A11SDQ8ZAJ8D24","3P520RYKCHSO30HY2QJC6BDLS9Z5UE","","504.5","img/land1.png","74","506.60000000009313","1","1","2","2","0.8,0.2,0.2,0.2,0.8,0.2,0.2,0.2,0.8","0.2,0.2,0.8,0.8,0.2,0.2,0.2,0.8,0.2","2","",""
"","html-keyboard-response","326","329409","0.0-326.0","384PI804XTNBF01N7HN2ZYVUYME0S8","A11SDQ8ZAJ8D24","3P520RYKCHSO30HY2QJC6BDLS9Z5UE","","null","<img src=""img/land1.png"" style=""width:200px; border:14px solid green;"">","null","","","","","","","","","",""
"","image-keyboard-response","327","330048","0.0-327.0","384PI804XTNBF01N7HN2ZYVUYME0S8","A11SDQ8ZAJ8D24","3P520RYKCHSO30HY2QJC6BDLS9Z5UE","","636.1999999999534","img/land1.png","76","637.7999999998137","3","0","2","2","0.8,0.2,0.2,0.2,0.8,0.2,0.2,0.2,0.8","0.2,0.2,0.8,0.8,0.2,0.2,0.2,0.8,0.2","2","",""
"","html-keyboard-response","328","330351","0.0-328.0","384PI804XTNBF01N7HN2ZYVUYME0S8","A11SDQ8ZAJ8D24","3P520RYKCHSO30HY2QJC6BDLS9Z5UE","","null","<img src=""img/land1.png"" style=""width:200px;border:14px solid red;"">","null","","","","","","","","","",""
"","image-keyboard-response","329","330679","0.0-329.0","384PI804XTNBF01N7HN2ZYVUYME0S8","A11SDQ8ZAJ8D24","3P520RYKCHSO30HY2QJC6BDLS9Z5UE","","326.79999999981374","img/land2.png","74","328.60000000009313","1","0","3","2","0.8,0.2,0.2,0.2,0.8,0.2,0.2,0.2,0.8","0.2,0.2,0.8,0.8,0.2,0.2,0.2,0.8,0.2","2","",""
"","html-keyboard-response","330","330983","0.0-330.0","384PI804XTNBF01N7HN2ZYVUYME0S8","A11SDQ8ZAJ8D24","3P520RYKCHSO30HY2QJC6BDLS9Z5UE","","null","<img src=""img/land2.png"" style=""width:200px;border:14px solid red;"">","null","","","","","","","","","",""
"","image-keyboard-response","331","331560","0.0-331.0","384PI804XTNBF01N7HN2ZYVUYME0S8","A11SDQ8ZAJ8D24","3P520RYKCHSO30HY2QJC6BDLS9Z5UE","","575.9000000001397","img/land4.png","75","577.5","2","0","1","2","0.8,0.2,0.2,0.2,0.8,0.2,0.2,0.2,0.8","0.2,0.2,0.8,0.8,0.2,0.2,0.2,0.8,0.2","2","",""
"","html-keyboard-response","332","331865","0.0-332.0","384PI804XTNBF01N7HN2ZYVUYME0S8","A11SDQ8ZAJ8D24","3P520RYKCHSO30HY2QJC6BDLS9Z5UE","","null","<img src=""img/land4.png"" style=""width:200px;border:14px solid red;"">","null","","","","","","","","","",""
"","image-keyboard-response","333","332679","0.0-333.0","384PI804XTNBF01N7HN2ZYVUYME0S8","A11SDQ8ZAJ8D24","3P520RYKCHSO30HY2QJC6BDLS9Z5UE","","811.9000000001397","img/land1.png","75","813.6999999999534","2","0","2","2","0.8,0.2,0.2,0.2,0.8,0.2,0.2,0.2,0.8","0.2,0.2,0.8,0.8,0.2,0.2,0.2,0.8,0.2","2","",""
"","html-keyboard-response","334","332982","0.0-334.0","384PI804XTNBF01N7HN2ZYVUYME0S8","A11SDQ8ZAJ8D24","3P520RYKCHSO30HY2QJC6BDLS9Z5UE","","null","<img src=""img/land1.png"" style=""width:200px;border:14px solid red;"">","null","","","","","","","","","",""
"","image-keyboard-response","335","333215","0.0-335.0","384PI804XTNBF01N7HN2ZYVUYME0S8","A11SDQ8ZAJ8D24","3P520RYKCHSO30HY2QJC6BDLS9Z5UE","","231.79999999981374","img/land4.png","74","233.60000000009313","1","0","1","2","0.8,0.2,0.2,0.2,0.8,0.2,0.2,0.2,0.8","0.2,0.2,0.8,0.8,0.2,0.2,0.2,0.8,0.2","2","",""
"","html-keyboard-response","336","333518","0.0-336.0","384PI804XTNBF01N7HN2ZYVUYME0S8","A11SDQ8ZAJ8D24","3P520RYKCHSO30HY2QJC6BDLS9Z5UE","","null","<img src=""img/land4.png"" style=""width:200px;border:14px solid red;"">","null","","","","","","","","","",""
"","image-keyboard-response","337","333999","0.0-337.0","384PI804XTNBF01N7HN2ZYVUYME0S8","A11SDQ8ZAJ8D24","3P520RYKCHSO30HY2QJC6BDLS9Z5UE","","479.20000000018626","img/land2.png","76","481.0999999998603","3","0","3","2","0.8,0.2,0.2,0.2,0.8,0.2,0.2,0.2,0.8","0.2,0.2,0.8,0.8,0.2,0.2,0.2,0.8,0.2","2","",""
"","html-keyboard-response","338","334302","0.0-338.0","384PI804XTNBF01N7HN2ZYVUYME0S8","A11SDQ8ZAJ8D24","3P520RYKCHSO30HY2QJC6BDLS9Z5UE","","null","<img src=""img/land2.png"" style=""width:200px;border:14px solid red;"">","null","","","","","","","","","",""
"","image-keyboard-response","339","335045","0.0-339.0","384PI804XTNBF01N7HN2ZYVUYME0S8","A11SDQ8ZAJ8D24","3P520RYKCHSO30HY2QJC6BDLS9Z5UE","","740.6999999999534","img/land4.png","74","742.5","1","1","1","2","0.8,0.2,0.2,0.2,0.8,0.2,0.2,0.2,0.8","0.2,0.2,0.8,0.8,0.2,0.2,0.2,0.8,0.2","2","",""
"","html-keyboard-response","340","335348","0.0-340.0","384PI804XTNBF01N7HN2ZYVUYME0S8","A11SDQ8ZAJ8D24","3P520RYKCHSO30HY2QJC6BDLS9Z5UE","","null","<img src=""img/land4.png"" style=""width:200px; border:14px solid green;"">","null","","","","","","","","","",""
"","image-keyboard-response","341","335510","0.0-341.0","384PI804XTNBF01N7HN2ZYVUYME0S8","A11SDQ8ZAJ8D24","3P520RYKCHSO30HY2QJC6BDLS9Z5UE","","160.0999999998603","img/land1.png","75","161.89999999990687","2","0","2","2","0.8,0.2,0.2,0.2,0.8,0.2,0.2,0.2,0.8","0.2,0.2,0.8,0.8,0.2,0.2,0.2,0.8,0.2","2","",""
"","html-keyboard-response","342","335814","0.0-342.0","384PI804XTNBF01N7HN2ZYVUYME0S8","A11SDQ8ZAJ8D24","3P520RYKCHSO30HY2QJC6BDLS9Z5UE","","null","<img src=""img/land1.png"" style=""width:200px;border:14px solid red;"">","null","","","","","","","","","",""
"","image-keyboard-response","343","336709","0.0-343.0","384PI804XTNBF01N7HN2ZYVUYME0S8","A11SDQ8ZAJ8D24","3P520RYKCHSO30HY2QJC6BDLS9Z5UE","","893.5","img/land4.png","74","895.1000000000931","1","0","1","2","0.8,0.2,0.2,0.2,0.8,0.2,0.2,0.2,0.8","0.2,0.2,0.8,0.8,0.2,0.2,0.2,0.8,0.2","2","",""
"","html-keyboard-response","344","337012","0.0-344.0","384PI804XTNBF01N7HN2ZYVUYME0S8","A11SDQ8ZAJ8D24","3P520RYKCHSO30HY2QJC6BDLS9Z5UE","","null","<img src=""img/land4.png"" style=""width:200px;border:14px solid red;"">","null","","","","","","","","","",""
"","image-keyboard-response","345","337519","0.0-345.0","384PI804XTNBF01N7HN2ZYVUYME0S8","A11SDQ8ZAJ8D24","3P520RYKCHSO30HY2QJC6BDLS9Z5UE","","505.4000000001397","img/land4.png","76","507.10000000009313","3","1","1","2","0.8,0.2,0.2,0.2,0.8,0.2,0.2,0.2,0.8","0.2,0.2,0.8,0.8,0.2,0.2,0.2,0.8,0.2","2","",""
"","html-keyboard-response","346","337822","0.0-346.0","384PI804XTNBF01N7HN2ZYVUYME0S8","A11SDQ8ZAJ8D24","3P520RYKCHSO30HY2QJC6BDLS9Z5UE","","null","<img src=""img/land4.png"" style=""width:200px; border:14px solid green;"">","null","","","","","","","","","",""
"","image-keyboard-response","347","338328","0.0-347.0","384PI804XTNBF01N7HN2ZYVUYME0S8","A11SDQ8ZAJ8D24","3P520RYKCHSO30HY2QJC6BDLS9Z5UE","","504.60000000009313","img/land2.png","76","506.19999999995343","3","0","3","2","0.8,0.2,0.2,0.2,0.8,0.2,0.2,0.2,0.8","0.2,0.2,0.8,0.8,0.2,0.2,0.2,0.8,0.2","2","",""
"","html-keyboard-response","348","338631","0.0-348.0","384PI804XTNBF01N7HN2ZYVUYME0S8","A11SDQ8ZAJ8D24","3P520RYKCHSO30HY2QJC6BDLS9Z5UE","","null","<img src=""img/land2.png"" style=""width:200px;border:14px solid red;"">","null","","","","","","","","","",""
"","image-keyboard-response","349","338962","0.0-349.0","384PI804XTNBF01N7HN2ZYVUYME0S8","A11SDQ8ZAJ8D24","3P520RYKCHSO30HY2QJC6BDLS9Z5UE","","329.39999999990687","img/land1.png","74","331.19999999995343","1","1","2","2","0.8,0.2,0.2,0.2,0.8,0.2,0.2,0.2,0.8","0.2,0.2,0.8,0.8,0.2,0.2,0.2,0.8,0.2","2","",""
"","html-keyboard-response","350","339265","0.0-350.0","384PI804XTNBF01N7HN2ZYVUYME0S8","A11SDQ8ZAJ8D24","3P520RYKCHSO30HY2QJC6BDLS9Z5UE","","null","<img src=""img/land1.png"" style=""width:200px; border:14px solid green;"">","null","","","","","","","","","",""
"","image-keyboard-response","351","339833","0.0-351.0","384PI804XTNBF01N7HN2ZYVUYME0S8","A11SDQ8ZAJ8D24","3P520RYKCHSO30HY2QJC6BDLS9Z5UE","","565.6999999999534","img/land4.png","74","567.5","1","0","1","2","0.8,0.2,0.2,0.2,0.8,0.2,0.2,0.2,0.8","0.2,0.2,0.8,0.8,0.2,0.2,0.2,0.8,0.2","2","",""
"","html-keyboard-response","352","340136","0.0-352.0","384PI804XTNBF01N7HN2ZYVUYME0S8","A11SDQ8ZAJ8D24","3P520RYKCHSO30HY2QJC6BDLS9Z5UE","","null","<img src=""img/land4.png"" style=""width:200px;border:14px solid red;"">","null","","","","","","","","","",""
"","image-keyboard-response","353","340420","0.0-353.0","384PI804XTNBF01N7HN2ZYVUYME0S8","A11SDQ8ZAJ8D24","3P520RYKCHSO30HY2QJC6BDLS9Z5UE","","282.30000000004657","img/land4.png","75","284","2","0","1","2","0.8,0.2,0.2,0.2,0.8,0.2,0.2,0.2,0.8","0.2,0.2,0.8,0.8,0.2,0.2,0.2,0.8,0.2","2","",""
"","html-keyboard-response","354","340723","0.0-354.0","384PI804XTNBF01N7HN2ZYVUYME0S8","A11SDQ8ZAJ8D24","3P520RYKCHSO30HY2QJC6BDLS9Z5UE","","null","<img src=""img/land4.png"" style=""width:200px;border:14px solid red;"">","null","","","","","","","","","",""
