"success","trial_type","trial_index","time_elapsed","internal_node_id","assignmentID","mturkID","hitID","view_history","rt","stimulus","key_press","reactionTime","a","r","s","cond","reward_cond","reward_cond_actual","reward_matrix_idx","responses","question_order"
"true","fullscreen","0","9876","0.0-0.0","39K0FND3AI14IIM0FMO9CV81FD2AMF","A12Q4BP1S02YWS","3JUDR1D0D6D4CARU3YX9Y3DK5DJ2QK","","","","","","","","","","","","","",""
"","instructions","1","52660","0.0-1.0","39K0FND3AI14IIM0FMO9CV81FD2AMF","A12Q4BP1S02YWS","3JUDR1D0D6D4CARU3YX9Y3DK5DJ2QK","[{""page_index"":0,""viewing_time"":3806},{""page_index"":1,""viewing_time"":1380},{""page_index"":2,""viewing_time"":1602},{""page_index"":3,""viewing_time"":17884},{""page_index"":4,""viewing_time"":12614},{""page_index"":5,""viewing_time"":3437},{""page_index"":6,""viewing_time"":2051}]","42776","","","","","","","","","","","",""
"","image-keyboard-response","2","54668","0.0-2.0","39K0FND3AI14IIM0FMO9CV81FD2AMF","A12Q4BP1S02YWS","3JUDR1D0D6D4CARU3YX9Y3DK5DJ2QK","","","img/land6.png","","2005","-1","0","1","2","0.8,0.2,0.2,0.2,0.8,0.2,0.2,0.2,0.8","0.8,0.2,0.2,0.2,0.8,0.2,0.2,0.2,0.8","1","",""
"","html-keyboard-response","3","54971","0.0-3.0","39K0FND3AI14IIM0FMO9CV81FD2AMF","A12Q4BP1S02YWS","3JUDR1D0D6D4CARU3YX9Y3DK5DJ2QK","","null","<img src=""img/land6.png"" style=""width:200px;border:14px solid red;"">","null","","","","","","","","","",""
"","image-keyboard-response","4","55108","0.0-4.0","39K0FND3AI14IIM0FMO9CV81FD2AMF","A12Q4BP1S02YWS","3JUDR1D0D6D4CARU3YX9Y3DK5DJ2QK","","135","img/land1.png","75","136","2","1","2","2","0.8,0.2,0.2,0.2,0.8,0.2,0.2,0.2,0.8","0.8,0.2,0.2,0.2,0.8,0.2,0.2,0.2,0.8","1","",""
"","html-keyboard-response","5","55411","0.0-5.0","39K0FND3AI14IIM0FMO9CV81FD2AMF","A12Q4BP1S02YWS","3JUDR1D0D6D4CARU3YX9Y3DK5DJ2QK","","null","<img src=""img/land1.png"" style=""width:200px; border:14px solid green;"">","null","","","","","","","","","",""
"","image-keyboard-response","6","57420","0.0-6.0","39K0FND3AI14IIM0FMO9CV81FD2AMF","A12Q4BP1S02YWS","3JUDR1D0D6D4CARU3YX9Y3DK5DJ2QK","","","img/land6.png","","2009","-1","0","1","2","0.8,0.2,0.2,0.2,0.8,0.2,0.2,0.2,0.8","0.8,0.2,0.2,0.2,0.8,0.2,0.2,0.2,0.8","1","",""
"","html-keyboard-response","7","57727","0.0-7.0","39K0FND3AI14IIM0FMO9CV81FD2AMF","A12Q4BP1S02YWS","3JUDR1D0D6D4CARU3YX9Y3DK5DJ2QK","","null","<img src=""img/land6.png"" style=""width:200px;border:14px solid red;"">","null","","","","","","","","","",""
"","image-keyboard-response","8","58393","0.0-8.0","39K0FND3AI14IIM0FMO9CV81FD2AMF","A12Q4BP1S02YWS","3JUDR1D0D6D4CARU3YX9Y3DK5DJ2QK","","660","img/land6.png","74","661","1","1","1","2","0.8,0.2,0.2,0.2,0.8,0.2,0.2,0.2,0.8","0.8,0.2,0.2,0.2,0.8,0.2,0.2,0.2,0.8","1","",""
"","html-keyboard-response","9","58696","0.0-9.0","39K0FND3AI14IIM0FMO9CV81FD2AMF","A12Q4BP1S02YWS","3JUDR1D0D6D4CARU3YX9Y3DK5DJ2QK","","null","<img src=""img/land6.png"" style=""width:200px; border:14px solid green;"">","null","","","","","","","","","",""
"","image-keyboard-response","10","60701","0.0-10.0","39K0FND3AI14IIM0FMO9CV81FD2AMF","A12Q4BP1S02YWS","3JUDR1D0D6D4CARU3YX9Y3DK5DJ2QK","","","img/land1.png","","2004","-1","0","2","2","0.8,0.2,0.2,0.2,0.8,0.2,0.2,0.2,0.8","0.8,0.2,0.2,0.2,0.8,0.2,0.2,0.2,0.8","1","",""
"","html-keyboard-response","11","61003","0.0-11.0","39K0FND3AI14IIM0FMO9CV81FD2AMF","A12Q4BP1S02YWS","3JUDR1D0D6D4CARU3YX9Y3DK5DJ2QK","","null","<img src=""img/land1.png"" style=""width:200px;border:14px solid red;"">","null","","","","","","","","","",""
"","image-keyboard-response","12","62894","0.0-12.0","39K0FND3AI14IIM0FMO9CV81FD2AMF","A12Q4BP1S02YWS","3JUDR1D0D6D4CARU3YX9Y3DK5DJ2QK","","1890","img/land6.png","75","1890","2","0","1","2","0.8,0.2,0.2,0.2,0.8,0.2,0.2,0.2,0.8","0.8,0.2,0.2,0.2,0.8,0.2,0.2,0.2,0.8","1","",""
"","html-keyboard-response","13","63195","0.0-13.0","39K0FND3AI14IIM0FMO9CV81FD2AMF","A12Q4BP1S02YWS","3JUDR1D0D6D4CARU3YX9Y3DK5DJ2QK","","null","<img src=""img/land6.png"" style=""width:200px;border:14px solid red;"">","null","","","","","","","","","",""
"","image-keyboard-response","14","64599","0.0-14.0","39K0FND3AI14IIM0FMO9CV81FD2AMF","A12Q4BP1S02YWS","3JUDR1D0D6D4CARU3YX9Y3DK5DJ2QK","","1402","img/land1.png","74","1403","1","0","2","2","0.8,0.2,0.2,0.2,0.8,0.2,0.2,0.2,0.8","0.8,0.2,0.2,0.2,0.8,0.2,0.2,0.2,0.8","1","",""
"","html-keyboard-response","15","64902","0.0-15.0","39K0FND3AI14IIM0FMO9CV81FD2AMF","A12Q4BP1S02YWS","3JUDR1D0D6D4CARU3YX9Y3DK5DJ2QK","","null","<img src=""img/land1.png"" style=""width:200px;border:14px solid red;"">","null","","","","","","","","","",""
"","image-keyboard-response","16","66916","0.0-16.0","39K0FND3AI14IIM0FMO9CV81FD2AMF","A12Q4BP1S02YWS","3JUDR1D0D6D4CARU3YX9Y3DK5DJ2QK","","","img/land2.png","","2014","-1","0","3","2","0.8,0.2,0.2,0.2,0.8,0.2,0.2,0.2,0.8","0.8,0.2,0.2,0.2,0.8,0.2,0.2,0.2,0.8","1","",""
"","html-keyboard-response","17","67221","0.0-17.0","39K0FND3AI14IIM0FMO9CV81FD2AMF","A12Q4BP1S02YWS","3JUDR1D0D6D4CARU3YX9Y3DK5DJ2QK","","null","<img src=""img/land2.png"" style=""width:200px;border:14px solid red;"">","null","","","","","","","","","",""
"","image-keyboard-response","18","67292","0.0-18.0","39K0FND3AI14IIM0FMO9CV81FD2AMF","A12Q4BP1S02YWS","3JUDR1D0D6D4CARU3YX9Y3DK5DJ2QK","","68","img/land6.png","75","69","2","0","1","2","0.8,0.2,0.2,0.2,0.8,0.2,0.2,0.2,0.8","0.8,0.2,0.2,0.2,0.8,0.2,0.2,0.2,0.8","1","",""
"","html-keyboard-response","19","67595","0.0-19.0","39K0FND3AI14IIM0FMO9CV81FD2AMF","A12Q4BP1S02YWS","3JUDR1D0D6D4CARU3YX9Y3DK5DJ2QK","","null","<img src=""img/land6.png"" style=""width:200px;border:14px solid red;"">","null","","","","","","","","","",""
"","image-keyboard-response","20","69601","0.0-20.0","39K0FND3AI14IIM0FMO9CV81FD2AMF","A12Q4BP1S02YWS","3JUDR1D0D6D4CARU3YX9Y3DK5DJ2QK","","","img/land6.png","","2006","-1","0","1","2","0.8,0.2,0.2,0.2,0.8,0.2,0.2,0.2,0.8","0.8,0.2,0.2,0.2,0.8,0.2,0.2,0.2,0.8","1","",""
"","html-keyboard-response","21","69906","0.0-21.0","39K0FND3AI14IIM0FMO9CV81FD2AMF","A12Q4BP1S02YWS","3JUDR1D0D6D4CARU3YX9Y3DK5DJ2QK","","null","<img src=""img/land6.png"" style=""width:200px;border:14px solid red;"">","null","","","","","","","","","",""
"","image-keyboard-response","22","71909","0.0-22.0","39K0FND3AI14IIM0FMO9CV81FD2AMF","A12Q4BP1S02YWS","3JUDR1D0D6D4CARU3YX9Y3DK5DJ2QK","","","img/land6.png","","2004","-1","0","1","2","0.8,0.2,0.2,0.2,0.8,0.2,0.2,0.2,0.8","0.8,0.2,0.2,0.2,0.8,0.2,0.2,0.2,0.8","1","",""
"","html-keyboard-response","23","72214","0.0-23.0","39K0FND3AI14IIM0FMO9CV81FD2AMF","A12Q4BP1S02YWS","3JUDR1D0D6D4CARU3YX9Y3DK5DJ2QK","","null","<img src=""img/land6.png"" style=""width:200px;border:14px solid red;"">","null","","","","","","","","","",""
"","image-keyboard-response","24","73057","0.0-24.0","39K0FND3AI14IIM0FMO9CV81FD2AMF","A12Q4BP1S02YWS","3JUDR1D0D6D4CARU3YX9Y3DK5DJ2QK","","840","img/land2.png","74","842","1","1","3","2","0.8,0.2,0.2,0.2,0.8,0.2,0.2,0.2,0.8","0.8,0.2,0.2,0.2,0.8,0.2,0.2,0.2,0.8","1","",""
"","html-keyboard-response","25","73361","0.0-25.0","39K0FND3AI14IIM0FMO9CV81FD2AMF","A12Q4BP1S02YWS","3JUDR1D0D6D4CARU3YX9Y3DK5DJ2QK","","null","<img src=""img/land2.png"" style=""width:200px; border:14px solid green;"">","null","","","","","","","","","",""
"","image-keyboard-response","26","75365","0.0-26.0","39K0FND3AI14IIM0FMO9CV81FD2AMF","A12Q4BP1S02YWS","3JUDR1D0D6D4CARU3YX9Y3DK5DJ2QK","","","img/land1.png","","2004","-1","0","2","2","0.8,0.2,0.2,0.2,0.8,0.2,0.2,0.2,0.8","0.8,0.2,0.2,0.2,0.8,0.2,0.2,0.2,0.8","1","",""
"","html-keyboard-response","27","75668","0.0-27.0","39K0FND3AI14IIM0FMO9CV81FD2AMF","A12Q4BP1S02YWS","3JUDR1D0D6D4CARU3YX9Y3DK5DJ2QK","","null","<img src=""img/land1.png"" style=""width:200px;border:14px solid red;"">","null","","","","","","","","","",""
"","image-keyboard-response","28","77254","0.0-28.0","39K0FND3AI14IIM0FMO9CV81FD2AMF","A12Q4BP1S02YWS","3JUDR1D0D6D4CARU3YX9Y3DK5DJ2QK","","1583","img/land6.png","74","1585","1","1","1","2","0.8,0.2,0.2,0.2,0.8,0.2,0.2,0.2,0.8","0.8,0.2,0.2,0.2,0.8,0.2,0.2,0.2,0.8","1","",""
"","html-keyboard-response","29","77567","0.0-29.0","39K0FND3AI14IIM0FMO9CV81FD2AMF","A12Q4BP1S02YWS","3JUDR1D0D6D4CARU3YX9Y3DK5DJ2QK","","null","<img src=""img/land6.png"" style=""width:200px; border:14px solid green;"">","null","","","","","","","","","",""
"","image-keyboard-response","30","79569","0.0-30.0","39K0FND3AI14IIM0FMO9CV81FD2AMF","A12Q4BP1S02YWS","3JUDR1D0D6D4CARU3YX9Y3DK5DJ2QK","","","img/land6.png","","2003","-1","0","1","2","0.8,0.2,0.2,0.2,0.8,0.2,0.2,0.2,0.8","0.8,0.2,0.2,0.2,0.8,0.2,0.2,0.2,0.8","1","",""
"","html-keyboard-response","31","79872","0.0-31.0","39K0FND3AI14IIM0FMO9CV81FD2AMF","A12Q4BP1S02YWS","3JUDR1D0D6D4CARU3YX9Y3DK5DJ2QK","","null","<img src=""img/land6.png"" style=""width:200px;border:14px solid red;"">","null","","","","","","","","","",""
"","image-keyboard-response","32","80077","0.0-32.0","39K0FND3AI14IIM0FMO9CV81FD2AMF","A12Q4BP1S02YWS","3JUDR1D0D6D4CARU3YX9Y3DK5DJ2QK","","203","img/land6.png","74","205","1","1","1","2","0.8,0.2,0.2,0.2,0.8,0.2,0.2,0.2,0.8","0.8,0.2,0.2,0.2,0.8,0.2,0.2,0.2,0.8","1","",""
"","html-keyboard-response","33","80439","0.0-33.0","39K0FND3AI14IIM0FMO9CV81FD2AMF","A12Q4BP1S02YWS","3JUDR1D0D6D4CARU3YX9Y3DK5DJ2QK","","null","<img src=""img/land6.png"" style=""width:200px; border:14px solid green;"">","null","","","","","","","","","",""
"","image-keyboard-response","34","82442","0.0-34.0","39K0FND3AI14IIM0FMO9CV81FD2AMF","A12Q4BP1S02YWS","3JUDR1D0D6D4CARU3YX9Y3DK5DJ2QK","","","img/land6.png","","2004","-1","0","1","2","0.8,0.2,0.2,0.2,0.8,0.2,0.2,0.2,0.8","0.8,0.2,0.2,0.2,0.8,0.2,0.2,0.2,0.8","1","",""
"","html-keyboard-response","35","82746","0.0-35.0","39K0FND3AI14IIM0FMO9CV81FD2AMF","A12Q4BP1S02YWS","3JUDR1D0D6D4CARU3YX9Y3DK5DJ2QK","","null","<img src=""img/land6.png"" style=""width:200px;border:14px solid red;"">","null","","","","","","","","","",""
"","image-keyboard-response","36","82967","0.0-36.0","39K0FND3AI14IIM0FMO9CV81FD2AMF","A12Q4BP1S02YWS","3JUDR1D0D6D4CARU3YX9Y3DK5DJ2QK","","218","img/land6.png","74","220","1","1","1","2","0.8,0.2,0.2,0.2,0.8,0.2,0.2,0.2,0.8","0.8,0.2,0.2,0.2,0.8,0.2,0.2,0.2,0.8","1","",""
"","html-keyboard-response","37","83270","0.0-37.0","39K0FND3AI14IIM0FMO9CV81FD2AMF","A12Q4BP1S02YWS","3JUDR1D0D6D4CARU3YX9Y3DK5DJ2QK","","null","<img src=""img/land6.png"" style=""width:200px; border:14px solid green;"">","null","","","","","","","","","",""
"","image-keyboard-response","38","85274","0.0-38.0","39K0FND3AI14IIM0FMO9CV81FD2AMF","A12Q4BP1S02YWS","3JUDR1D0D6D4CARU3YX9Y3DK5DJ2QK","","","img/land1.png","","2001","-1","0","2","2","0.8,0.2,0.2,0.2,0.8,0.2,0.2,0.2,0.8","0.8,0.2,0.2,0.2,0.8,0.2,0.2,0.2,0.8","1","",""
"","html-keyboard-response","39","85579","0.0-39.0","39K0FND3AI14IIM0FMO9CV81FD2AMF","A12Q4BP1S02YWS","3JUDR1D0D6D4CARU3YX9Y3DK5DJ2QK","","null","<img src=""img/land1.png"" style=""width:200px;border:14px solid red;"">","null","","","","","","","","","",""
"","image-keyboard-response","40","85726","0.0-40.0","39K0FND3AI14IIM0FMO9CV81FD2AMF","A12Q4BP1S02YWS","3JUDR1D0D6D4CARU3YX9Y3DK5DJ2QK","","143","img/land2.png","75","145","2","1","3","2","0.8,0.2,0.2,0.2,0.8,0.2,0.2,0.2,0.8","0.8,0.2,0.2,0.2,0.8,0.2,0.2,0.2,0.8","1","",""
"","html-keyboard-response","41","86028","0.0-41.0","39K0FND3AI14IIM0FMO9CV81FD2AMF","A12Q4BP1S02YWS","3JUDR1D0D6D4CARU3YX9Y3DK5DJ2QK","","null","<img src=""img/land2.png"" style=""width:200px; border:14px solid green;"">","null","","","","","","","","","",""
"","image-keyboard-response","42","88032","0.0-42.0","39K0FND3AI14IIM0FMO9CV81FD2AMF","A12Q4BP1S02YWS","3JUDR1D0D6D4CARU3YX9Y3DK5DJ2QK","","","img/land6.png","","2003","-1","0","1","2","0.8,0.2,0.2,0.2,0.8,0.2,0.2,0.2,0.8","0.8,0.2,0.2,0.2,0.8,0.2,0.2,0.2,0.8","1","",""
"","html-keyboard-response","43","88334","0.0-43.0","39K0FND3AI14IIM0FMO9CV81FD2AMF","A12Q4BP1S02YWS","3JUDR1D0D6D4CARU3YX9Y3DK5DJ2QK","","null","<img src=""img/land6.png"" style=""width:200px;border:14px solid red;"">","null","","","","","","","","","",""
"","image-keyboard-response","44","88424","0.0-44.0","39K0FND3AI14IIM0FMO9CV81FD2AMF","A12Q4BP1S02YWS","3JUDR1D0D6D4CARU3YX9Y3DK5DJ2QK","","87","img/land1.png","76","89","3","0","2","2","0.8,0.2,0.2,0.2,0.8,0.2,0.2,0.2,0.8","0.8,0.2,0.2,0.2,0.8,0.2,0.2,0.2,0.8","1","",""
"","html-keyboard-response","45","88728","0.0-45.0","39K0FND3AI14IIM0FMO9CV81FD2AMF","A12Q4BP1S02YWS","3JUDR1D0D6D4CARU3YX9Y3DK5DJ2QK","","null","<img src=""img/land1.png"" style=""width:200px;border:14px solid red;"">","null","","","","","","","","","",""
"","image-keyboard-response","46","90736","0.0-46.0","39K0FND3AI14IIM0FMO9CV81FD2AMF","A12Q4BP1S02YWS","3JUDR1D0D6D4CARU3YX9Y3DK5DJ2QK","","","img/land6.png","","2008","-1","0","1","2","0.8,0.2,0.2,0.2,0.8,0.2,0.2,0.2,0.8","0.8,0.2,0.2,0.2,0.8,0.2,0.2,0.2,0.8","1","",""
"","html-keyboard-response","47","91037","0.0-47.0","39K0FND3AI14IIM0FMO9CV81FD2AMF","A12Q4BP1S02YWS","3JUDR1D0D6D4CARU3YX9Y3DK5DJ2QK","","null","<img src=""img/land6.png"" style=""width:200px;border:14px solid red;"">","null","","","","","","","","","",""
"","image-keyboard-response","48","91200","0.0-48.0","39K0FND3AI14IIM0FMO9CV81FD2AMF","A12Q4BP1S02YWS","3JUDR1D0D6D4CARU3YX9Y3DK5DJ2QK","","160","img/land6.png","75","161","2","0","1","2","0.8,0.2,0.2,0.2,0.8,0.2,0.2,0.2,0.8","0.8,0.2,0.2,0.2,0.8,0.2,0.2,0.2,0.8","1","",""
"","html-keyboard-response","49","91502","0.0-49.0","39K0FND3AI14IIM0FMO9CV81FD2AMF","A12Q4BP1S02YWS","3JUDR1D0D6D4CARU3YX9Y3DK5DJ2QK","","null","<img src=""img/land6.png"" style=""width:200px;border:14px solid red;"">","null","","","","","","","","","",""
"","image-keyboard-response","50","91899","0.0-50.0","39K0FND3AI14IIM0FMO9CV81FD2AMF","A12Q4BP1S02YWS","3JUDR1D0D6D4CARU3YX9Y3DK5DJ2QK","","394","img/land2.png","74","396","1","0","3","2","0.8,0.2,0.2,0.2,0.8,0.2,0.2,0.2,0.8","0.8,0.2,0.2,0.2,0.8,0.2,0.2,0.2,0.8","1","",""
"","html-keyboard-response","51","92200","0.0-51.0","39K0FND3AI14IIM0FMO9CV81FD2AMF","A12Q4BP1S02YWS","3JUDR1D0D6D4CARU3YX9Y3DK5DJ2QK","","null","<img src=""img/land2.png"" style=""width:200px;border:14px solid red;"">","null","","","","","","","","","",""
"","image-keyboard-response","52","94205","0.0-52.0","39K0FND3AI14IIM0FMO9CV81FD2AMF","A12Q4BP1S02YWS","3JUDR1D0D6D4CARU3YX9Y3DK5DJ2QK","","","img/land6.png","","2004","-1","0","1","2","0.8,0.2,0.2,0.2,0.8,0.2,0.2,0.2,0.8","0.8,0.2,0.2,0.2,0.8,0.2,0.2,0.2,0.8","1","",""
"","html-keyboard-response","53","94508","0.0-53.0","39K0FND3AI14IIM0FMO9CV81FD2AMF","A12Q4BP1S02YWS","3JUDR1D0D6D4CARU3YX9Y3DK5DJ2QK","","null","<img src=""img/land6.png"" style=""width:200px;border:14px solid red;"">","null","","","","","","","","","",""
"","image-keyboard-response","54","96511","0.0-54.0","39K0FND3AI14IIM0FMO9CV81FD2AMF","A12Q4BP1S02YWS","3JUDR1D0D6D4CARU3YX9Y3DK5DJ2QK","","","img/land6.png","","2002","-1","0","1","2","0.8,0.2,0.2,0.2,0.8,0.2,0.2,0.2,0.8","0.8,0.2,0.2,0.2,0.8,0.2,0.2,0.2,0.8","1","",""
"","html-keyboard-response","55","96818","0.0-55.0","39K0FND3AI14IIM0FMO9CV81FD2AMF","A12Q4BP1S02YWS","3JUDR1D0D6D4CARU3YX9Y3DK5DJ2QK","","null","<img src=""img/land6.png"" style=""width:200px;border:14px solid red;"">","null","","","","","","","","","",""
"","image-keyboard-response","56","96981","0.0-56.0","39K0FND3AI14IIM0FMO9CV81FD2AMF","A12Q4BP1S02YWS","3JUDR1D0D6D4CARU3YX9Y3DK5DJ2QK","","156","img/land6.png","75","161","2","0","1","2","0.8,0.2,0.2,0.2,0.8,0.2,0.2,0.2,0.8","0.8,0.2,0.2,0.2,0.8,0.2,0.2,0.2,0.8","1","",""
"","html-keyboard-response","57","97283","0.0-57.0","39K0FND3AI14IIM0FMO9CV81FD2AMF","A12Q4BP1S02YWS","3JUDR1D0D6D4CARU3YX9Y3DK5DJ2QK","","null","<img src=""img/land6.png"" style=""width:200px;border:14px solid red;"">","null","","","","","","","","","",""
"","image-keyboard-response","58","99286","0.0-58.0","39K0FND3AI14IIM0FMO9CV81FD2AMF","A12Q4BP1S02YWS","3JUDR1D0D6D4CARU3YX9Y3DK5DJ2QK","","","img/land6.png","","2002","-1","0","1","2","0.8,0.2,0.2,0.2,0.8,0.2,0.2,0.2,0.8","0.8,0.2,0.2,0.2,0.8,0.2,0.2,0.2,0.8","1","",""
"","html-keyboard-response","59","99632","0.0-59.0","39K0FND3AI14IIM0FMO9CV81FD2AMF","A12Q4BP1S02YWS","3JUDR1D0D6D4CARU3YX9Y3DK5DJ2QK","","null","<img src=""img/land6.png"" style=""width:200px;border:14px solid red;"">","null","","","","","","","","","",""
"","image-keyboard-response","60","100251","0.0-60.0","39K0FND3AI14IIM0FMO9CV81FD2AMF","A12Q4BP1S02YWS","3JUDR1D0D6D4CARU3YX9Y3DK5DJ2QK","","616","img/land6.png","76","618","3","1","1","2","0.8,0.2,0.2,0.2,0.8,0.2,0.2,0.2,0.8","0.8,0.2,0.2,0.2,0.8,0.2,0.2,0.2,0.8","1","",""
"","html-keyboard-response","61","100553","0.0-61.0","39K0FND3AI14IIM0FMO9CV81FD2AMF","A12Q4BP1S02YWS","3JUDR1D0D6D4CARU3YX9Y3DK5DJ2QK","","null","<img src=""img/land6.png"" style=""width:200px; border:14px solid green;"">","null","","","","","","","","","",""
"","image-keyboard-response","62","102555","0.0-62.0","39K0FND3AI14IIM0FMO9CV81FD2AMF","A12Q4BP1S02YWS","3JUDR1D0D6D4CARU3YX9Y3DK5DJ2QK","","","img/land2.png","","2001","-1","0","3","2","0.8,0.2,0.2,0.2,0.8,0.2,0.2,0.2,0.8","0.8,0.2,0.2,0.2,0.8,0.2,0.2,0.2,0.8","1","",""
"","html-keyboard-response","63","102857","0.0-63.0","39K0FND3AI14IIM0FMO9CV81FD2AMF","A12Q4BP1S02YWS","3JUDR1D0D6D4CARU3YX9Y3DK5DJ2QK","","null","<img src=""img/land2.png"" style=""width:200px;border:14px solid red;"">","null","","","","","","","","","",""
"","image-keyboard-response","64","103086","0.0-64.0","39K0FND3AI14IIM0FMO9CV81FD2AMF","A12Q4BP1S02YWS","3JUDR1D0D6D4CARU3YX9Y3DK5DJ2QK","","223","img/land1.png","75","227","2","0","2","2","0.8,0.2,0.2,0.2,0.8,0.2,0.2,0.2,0.8","0.8,0.2,0.2,0.2,0.8,0.2,0.2,0.2,0.8","1","",""
"","html-keyboard-response","65","103389","0.0-65.0","39K0FND3AI14IIM0FMO9CV81FD2AMF","A12Q4BP1S02YWS","3JUDR1D0D6D4CARU3YX9Y3DK5DJ2QK","","null","<img src=""img/land1.png"" style=""width:200px;border:14px solid red;"">","null","","","","","","","","","",""
"","image-keyboard-response","66","105393","0.0-66.0","39K0FND3AI14IIM0FMO9CV81FD2AMF","A12Q4BP1S02YWS","3JUDR1D0D6D4CARU3YX9Y3DK5DJ2QK","","","img/land6.png","","2003","-1","0","1","2","0.8,0.2,0.2,0.2,0.8,0.2,0.2,0.2,0.8","0.8,0.2,0.2,0.2,0.8,0.2,0.2,0.2,0.8","1","",""
"","html-keyboard-response","67","105706","0.0-67.0","39K0FND3AI14IIM0FMO9CV81FD2AMF","A12Q4BP1S02YWS","3JUDR1D0D6D4CARU3YX9Y3DK5DJ2QK","","null","<img src=""img/land6.png"" style=""width:200px;border:14px solid red;"">","null","","","","","","","","","",""
"","image-keyboard-response","68","106145","0.0-68.0","39K0FND3AI14IIM0FMO9CV81FD2AMF","A12Q4BP1S02YWS","3JUDR1D0D6D4CARU3YX9Y3DK5DJ2QK","","435","img/land1.png","74","438","1","1","2","2","0.8,0.2,0.2,0.2,0.8,0.2,0.2,0.2,0.8","0.8,0.2,0.2,0.2,0.8,0.2,0.2,0.2,0.8","1","",""
"","html-keyboard-response","69","106447","0.0-69.0","39K0FND3AI14IIM0FMO9CV81FD2AMF","A12Q4BP1S02YWS","3JUDR1D0D6D4CARU3YX9Y3DK5DJ2QK","","null","<img src=""img/land1.png"" style=""width:200px; border:14px solid green;"">","null","","","","","","","","","",""
"","image-keyboard-response","70","108503","0.0-70.0","39K0FND3AI14IIM0FMO9CV81FD2AMF","A12Q4BP1S02YWS","3JUDR1D0D6D4CARU3YX9Y3DK5DJ2QK","","","img/land6.png","","2054","-1","0","1","2","0.8,0.2,0.2,0.2,0.8,0.2,0.2,0.2,0.8","0.8,0.2,0.2,0.2,0.8,0.2,0.2,0.2,0.8","1","",""
"","html-keyboard-response","71","108807","0.0-71.0","39K0FND3AI14IIM0FMO9CV81FD2AMF","A12Q4BP1S02YWS","3JUDR1D0D6D4CARU3YX9Y3DK5DJ2QK","","null","<img src=""img/land6.png"" style=""width:200px;border:14px solid red;"">","null","","","","","","","","","",""
"","image-keyboard-response","72","110810","0.0-72.0","39K0FND3AI14IIM0FMO9CV81FD2AMF","A12Q4BP1S02YWS","3JUDR1D0D6D4CARU3YX9Y3DK5DJ2QK","","","img/land6.png","","2003","-1","0","1","2","0.8,0.2,0.2,0.2,0.8,0.2,0.2,0.2,0.8","0.8,0.2,0.2,0.2,0.8,0.2,0.2,0.2,0.8","1","",""
"","html-keyboard-response","73","111114","0.0-73.0","39K0FND3AI14IIM0FMO9CV81FD2AMF","A12Q4BP1S02YWS","3JUDR1D0D6D4CARU3YX9Y3DK5DJ2QK","","null","<img src=""img/land6.png"" style=""width:200px;border:14px solid red;"">","null","","","","","","","","","",""
"","image-keyboard-response","74","112199","0.0-74.0","39K0FND3AI14IIM0FMO9CV81FD2AMF","A12Q4BP1S02YWS","3JUDR1D0D6D4CARU3YX9Y3DK5DJ2QK","","1082","img/land2.png","75","1084","2","0","3","2","0.8,0.2,0.2,0.2,0.8,0.2,0.2,0.2,0.8","0.8,0.2,0.2,0.2,0.8,0.2,0.2,0.2,0.8","1","",""
"","html-keyboard-response","75","112501","0.0-75.0","39K0FND3AI14IIM0FMO9CV81FD2AMF","A12Q4BP1S02YWS","3JUDR1D0D6D4CARU3YX9Y3DK5DJ2QK","","null","<img src=""img/land2.png"" style=""width:200px;border:14px solid red;"">","null","","","","","","","","","",""
"","image-keyboard-response","76","114507","0.0-76.0","39K0FND3AI14IIM0FMO9CV81FD2AMF","A12Q4BP1S02YWS","3JUDR1D0D6D4CARU3YX9Y3DK5DJ2QK","","","img/land6.png","","2005","-1","0","1","2","0.8,0.2,0.2,0.2,0.8,0.2,0.2,0.2,0.8","0.8,0.2,0.2,0.2,0.8,0.2,0.2,0.2,0.8","1","",""
"","html-keyboard-response","77","114812","0.0-77.0","39K0FND3AI14IIM0FMO9CV81FD2AMF","A12Q4BP1S02YWS","3JUDR1D0D6D4CARU3YX9Y3DK5DJ2QK","","null","<img src=""img/land6.png"" style=""width:200px;border:14px solid red;"">","null","","","","","","","","","",""
"","image-keyboard-response","78","115092","0.0-78.0","39K0FND3AI14IIM0FMO9CV81FD2AMF","A12Q4BP1S02YWS","3JUDR1D0D6D4CARU3YX9Y3DK5DJ2QK","","277","img/land2.png","74","279","1","0","3","2","0.8,0.2,0.2,0.2,0.8,0.2,0.2,0.2,0.8","0.8,0.2,0.2,0.2,0.8,0.2,0.2,0.2,0.8","1","",""
"","html-keyboard-response","79","115393","0.0-79.0","39K0FND3AI14IIM0FMO9CV81FD2AMF","A12Q4BP1S02YWS","3JUDR1D0D6D4CARU3YX9Y3DK5DJ2QK","","null","<img src=""img/land2.png"" style=""width:200px;border:14px solid red;"">","null","","","","","","","","","",""
"","image-keyboard-response","80","117397","0.0-80.0","39K0FND3AI14IIM0FMO9CV81FD2AMF","A12Q4BP1S02YWS","3JUDR1D0D6D4CARU3YX9Y3DK5DJ2QK","","","img/land6.png","","2002","-1","0","1","2","0.8,0.2,0.2,0.2,0.8,0.2,0.2,0.2,0.8","0.8,0.2,0.2,0.2,0.8,0.2,0.2,0.2,0.8","1","",""
"","html-keyboard-response","81","117790","0.0-81.0","39K0FND3AI14IIM0FMO9CV81FD2AMF","A12Q4BP1S02YWS","3JUDR1D0D6D4CARU3YX9Y3DK5DJ2QK","","null","<img src=""img/land6.png"" style=""width:200px;border:14px solid red;"">","null","","","","","","","","","",""
"","image-keyboard-response","82","117984","0.0-82.0","39K0FND3AI14IIM0FMO9CV81FD2AMF","A12Q4BP1S02YWS","3JUDR1D0D6D4CARU3YX9Y3DK5DJ2QK","","193","img/land6.png","74","195","1","1","1","2","0.8,0.2,0.2,0.2,0.8,0.2,0.2,0.2,0.8","0.8,0.2,0.2,0.2,0.8,0.2,0.2,0.2,0.8","1","",""
"","html-keyboard-response","83","118286","0.0-83.0","39K0FND3AI14IIM0FMO9CV81FD2AMF","A12Q4BP1S02YWS","3JUDR1D0D6D4CARU3YX9Y3DK5DJ2QK","","null","<img src=""img/land6.png"" style=""width:200px; border:14px solid green;"">","null","","","","","","","","","",""
"","image-keyboard-response","84","120287","0.0-84.0","39K0FND3AI14IIM0FMO9CV81FD2AMF","A12Q4BP1S02YWS","3JUDR1D0D6D4CARU3YX9Y3DK5DJ2QK","","","img/land1.png","","2001","-1","0","2","2","0.8,0.2,0.2,0.2,0.8,0.2,0.2,0.2,0.8","0.8,0.2,0.2,0.2,0.8,0.2,0.2,0.2,0.8","1","",""
"","html-keyboard-response","85","120591","0.0-85.0","39K0FND3AI14IIM0FMO9CV81FD2AMF","A12Q4BP1S02YWS","3JUDR1D0D6D4CARU3YX9Y3DK5DJ2QK","","null","<img src=""img/land1.png"" style=""width:200px;border:14px solid red;"">","null","","","","","","","","","",""
"","image-keyboard-response","86","120838","0.0-86.0","39K0FND3AI14IIM0FMO9CV81FD2AMF","A12Q4BP1S02YWS","3JUDR1D0D6D4CARU3YX9Y3DK5DJ2QK","","245","img/land6.png","75","246","2","0","1","2","0.8,0.2,0.2,0.2,0.8,0.2,0.2,0.2,0.8","0.8,0.2,0.2,0.2,0.8,0.2,0.2,0.2,0.8","1","",""
"","html-keyboard-response","87","121151","0.0-87.0","39K0FND3AI14IIM0FMO9CV81FD2AMF","A12Q4BP1S02YWS","3JUDR1D0D6D4CARU3YX9Y3DK5DJ2QK","","null","<img src=""img/land6.png"" style=""width:200px;border:14px solid red;"">","null","","","","","","","","","",""
"","image-keyboard-response","88","123166","0.0-88.0","39K0FND3AI14IIM0FMO9CV81FD2AMF","A12Q4BP1S02YWS","3JUDR1D0D6D4CARU3YX9Y3DK5DJ2QK","","","img/land6.png","","2014","-1","0","1","2","0.8,0.2,0.2,0.2,0.8,0.2,0.2,0.2,0.8","0.8,0.2,0.2,0.2,0.8,0.2,0.2,0.2,0.8","1","",""
"","html-keyboard-response","89","123468","0.0-89.0","39K0FND3AI14IIM0FMO9CV81FD2AMF","A12Q4BP1S02YWS","3JUDR1D0D6D4CARU3YX9Y3DK5DJ2QK","","null","<img src=""img/land6.png"" style=""width:200px;border:14px solid red;"">","null","","","","","","","","","",""
"","image-keyboard-response","90","125471","0.0-90.0","39K0FND3AI14IIM0FMO9CV81FD2AMF","A12Q4BP1S02YWS","3JUDR1D0D6D4CARU3YX9Y3DK5DJ2QK","","","img/land6.png","","2004","-1","0","1","2","0.8,0.2,0.2,0.2,0.8,0.2,0.2,0.2,0.8","0.8,0.2,0.2,0.2,0.8,0.2,0.2,0.2,0.8","1","",""
"","html-keyboard-response","91","125781","0.0-91.0","39K0FND3AI14IIM0FMO9CV81FD2AMF","A12Q4BP1S02YWS","3JUDR1D0D6D4CARU3YX9Y3DK5DJ2QK","","null","<img src=""img/land6.png"" style=""width:200px;border:14px solid red;"">","null","","","","","","","","","",""
"","image-keyboard-response","92","125993","0.0-92.0","39K0FND3AI14IIM0FMO9CV81FD2AMF","A12Q4BP1S02YWS","3JUDR1D0D6D4CARU3YX9Y3DK5DJ2QK","","210","img/land1.png","75","211","2","1","2","2","0.8,0.2,0.2,0.2,0.8,0.2,0.2,0.2,0.8","0.8,0.2,0.2,0.2,0.8,0.2,0.2,0.2,0.8","1","",""
"","html-keyboard-response","93","126300","0.0-93.0","39K0FND3AI14IIM0FMO9CV81FD2AMF","A12Q4BP1S02YWS","3JUDR1D0D6D4CARU3YX9Y3DK5DJ2QK","","null","<img src=""img/land1.png"" style=""width:200px; border:14px solid green;"">","null","","","","","","","","","",""
"","image-keyboard-response","94","128303","0.0-94.0","39K0FND3AI14IIM0FMO9CV81FD2AMF","A12Q4BP1S02YWS","3JUDR1D0D6D4CARU3YX9Y3DK5DJ2QK","","","img/land2.png","","2003","-1","0","3","2","0.8,0.2,0.2,0.2,0.8,0.2,0.2,0.2,0.8","0.8,0.2,0.2,0.2,0.8,0.2,0.2,0.2,0.8","1","",""
"","html-keyboard-response","95","128607","0.0-95.0","39K0FND3AI14IIM0FMO9CV81FD2AMF","A12Q4BP1S02YWS","3JUDR1D0D6D4CARU3YX9Y3DK5DJ2QK","","null","<img src=""img/land2.png"" style=""width:200px;border:14px solid red;"">","null","","","","","","","","","",""
"","image-keyboard-response","96","128928","0.0-96.0","39K0FND3AI14IIM0FMO9CV81FD2AMF","A12Q4BP1S02YWS","3JUDR1D0D6D4CARU3YX9Y3DK5DJ2QK","","319","img/land1.png","74","321","1","0","2","2","0.8,0.2,0.2,0.2,0.8,0.2,0.2,0.2,0.8","0.8,0.2,0.2,0.2,0.8,0.2,0.2,0.2,0.8","1","",""
"","html-keyboard-response","97","129232","0.0-97.0","39K0FND3AI14IIM0FMO9CV81FD2AMF","A12Q4BP1S02YWS","3JUDR1D0D6D4CARU3YX9Y3DK5DJ2QK","","null","<img src=""img/land1.png"" style=""width:200px;border:14px solid red;"">","null","","","","","","","","","",""
"","image-keyboard-response","98","131234","0.0-98.0","39K0FND3AI14IIM0FMO9CV81FD2AMF","A12Q4BP1S02YWS","3JUDR1D0D6D4CARU3YX9Y3DK5DJ2QK","","","img/land1.png","","2002","-1","0","2","2","0.8,0.2,0.2,0.2,0.8,0.2,0.2,0.2,0.8","0.8,0.2,0.2,0.2,0.8,0.2,0.2,0.2,0.8","1","",""
"","html-keyboard-response","99","131538","0.0-99.0","39K0FND3AI14IIM0FMO9CV81FD2AMF","A12Q4BP1S02YWS","3JUDR1D0D6D4CARU3YX9Y3DK5DJ2QK","","null","<img src=""img/land1.png"" style=""width:200px;border:14px solid red;"">","null","","","","","","","","","",""
"","image-keyboard-response","100","132228","0.0-100.0","39K0FND3AI14IIM0FMO9CV81FD2AMF","A12Q4BP1S02YWS","3JUDR1D0D6D4CARU3YX9Y3DK5DJ2QK","","688","img/land1.png","75","689","2","1","2","2","0.8,0.2,0.2,0.2,0.8,0.2,0.2,0.2,0.8","0.8,0.2,0.2,0.2,0.8,0.2,0.2,0.2,0.8","1","",""
"","html-keyboard-response","101","132530","0.0-101.0","39K0FND3AI14IIM0FMO9CV81FD2AMF","A12Q4BP1S02YWS","3JUDR1D0D6D4CARU3YX9Y3DK5DJ2QK","","null","<img src=""img/land1.png"" style=""width:200px; border:14px solid green;"">","null","","","","","","","","","",""
"","image-keyboard-response","102","134533","0.0-102.0","39K0FND3AI14IIM0FMO9CV81FD2AMF","A12Q4BP1S02YWS","3JUDR1D0D6D4CARU3YX9Y3DK5DJ2QK","","","img/land6.png","","2002","-1","0","1","2","0.8,0.2,0.2,0.2,0.8,0.2,0.2,0.2,0.8","0.8,0.2,0.2,0.2,0.8,0.2,0.2,0.2,0.8","1","",""
"","html-keyboard-response","103","134834","0.0-103.0","39K0FND3AI14IIM0FMO9CV81FD2AMF","A12Q4BP1S02YWS","3JUDR1D0D6D4CARU3YX9Y3DK5DJ2QK","","null","<img src=""img/land6.png"" style=""width:200px;border:14px solid red;"">","null","","","","","","","","","",""
"","image-keyboard-response","104","135060","0.0-104.0","39K0FND3AI14IIM0FMO9CV81FD2AMF","A12Q4BP1S02YWS","3JUDR1D0D6D4CARU3YX9Y3DK5DJ2QK","","223","img/land6.png","74","223","1","1","1","2","0.8,0.2,0.2,0.2,0.8,0.2,0.2,0.2,0.8","0.8,0.2,0.2,0.2,0.8,0.2,0.2,0.2,0.8","1","",""
"","html-keyboard-response","105","135363","0.0-105.0","39K0FND3AI14IIM0FMO9CV81FD2AMF","A12Q4BP1S02YWS","3JUDR1D0D6D4CARU3YX9Y3DK5DJ2QK","","null","<img src=""img/land6.png"" style=""width:200px; border:14px solid green;"">","null","","","","","","","","","",""
"","image-keyboard-response","106","137378","0.0-106.0","39K0FND3AI14IIM0FMO9CV81FD2AMF","A12Q4BP1S02YWS","3JUDR1D0D6D4CARU3YX9Y3DK5DJ2QK","","","img/land6.png","","2011","-1","0","1","2","0.8,0.2,0.2,0.2,0.8,0.2,0.2,0.2,0.8","0.8,0.2,0.2,0.2,0.8,0.2,0.2,0.2,0.8","1","",""
"","html-keyboard-response","107","137697","0.0-107.0","39K0FND3AI14IIM0FMO9CV81FD2AMF","A12Q4BP1S02YWS","3JUDR1D0D6D4CARU3YX9Y3DK5DJ2QK","","null","<img src=""img/land6.png"" style=""width:200px;border:14px solid red;"">","null","","","","","","","","","",""
"","image-keyboard-response","108","138001","0.0-108.0","39K0FND3AI14IIM0FMO9CV81FD2AMF","A12Q4BP1S02YWS","3JUDR1D0D6D4CARU3YX9Y3DK5DJ2QK","","302","img/land6.png","74","304","1","0","1","2","0.8,0.2,0.2,0.2,0.8,0.2,0.2,0.2,0.8","0.8,0.2,0.2,0.2,0.8,0.2,0.2,0.2,0.8","1","",""
"","html-keyboard-response","109","138302","0.0-109.0","39K0FND3AI14IIM0FMO9CV81FD2AMF","A12Q4BP1S02YWS","3JUDR1D0D6D4CARU3YX9Y3DK5DJ2QK","","null","<img src=""img/land6.png"" style=""width:200px;border:14px solid red;"">","null","","","","","","","","","",""
"","image-keyboard-response","110","140307","0.0-110.0","39K0FND3AI14IIM0FMO9CV81FD2AMF","A12Q4BP1S02YWS","3JUDR1D0D6D4CARU3YX9Y3DK5DJ2QK","","","img/land1.png","","2004","-1","0","2","2","0.8,0.2,0.2,0.2,0.8,0.2,0.2,0.2,0.8","0.8,0.2,0.2,0.2,0.8,0.2,0.2,0.2,0.8","1","",""
"","html-keyboard-response","111","140630","0.0-111.0","39K0FND3AI14IIM0FMO9CV81FD2AMF","A12Q4BP1S02YWS","3JUDR1D0D6D4CARU3YX9Y3DK5DJ2QK","","null","<img src=""img/land1.png"" style=""width:200px;border:14px solid red;"">","null","","","","","","","","","",""
"","image-keyboard-response","112","140875","0.0-112.0","39K0FND3AI14IIM0FMO9CV81FD2AMF","A12Q4BP1S02YWS","3JUDR1D0D6D4CARU3YX9Y3DK5DJ2QK","","240","img/land6.png","74","242","1","1","1","2","0.8,0.2,0.2,0.2,0.8,0.2,0.2,0.2,0.8","0.8,0.2,0.2,0.2,0.8,0.2,0.2,0.2,0.8","1","",""
"","html-keyboard-response","113","141180","0.0-113.0","39K0FND3AI14IIM0FMO9CV81FD2AMF","A12Q4BP1S02YWS","3JUDR1D0D6D4CARU3YX9Y3DK5DJ2QK","","null","<img src=""img/land6.png"" style=""width:200px; border:14px solid green;"">","null","","","","","","","","","",""
"","image-keyboard-response","114","143187","0.0-114.0","39K0FND3AI14IIM0FMO9CV81FD2AMF","A12Q4BP1S02YWS","3JUDR1D0D6D4CARU3YX9Y3DK5DJ2QK","","","img/land6.png","","2005","-1","0","1","2","0.8,0.2,0.2,0.2,0.8,0.2,0.2,0.2,0.8","0.8,0.2,0.2,0.2,0.8,0.2,0.2,0.2,0.8","1","",""
"","html-keyboard-response","115","143491","0.0-115.0","39K0FND3AI14IIM0FMO9CV81FD2AMF","A12Q4BP1S02YWS","3JUDR1D0D6D4CARU3YX9Y3DK5DJ2QK","","null","<img src=""img/land6.png"" style=""width:200px;border:14px solid red;"">","null","","","","","","","","","",""
"","image-keyboard-response","116","143784","0.0-116.0","39K0FND3AI14IIM0FMO9CV81FD2AMF","A12Q4BP1S02YWS","3JUDR1D0D6D4CARU3YX9Y3DK5DJ2QK","","291","img/land6.png","75","292","2","0","1","2","0.8,0.2,0.2,0.2,0.8,0.2,0.2,0.2,0.8","0.8,0.2,0.2,0.2,0.8,0.2,0.2,0.2,0.8","1","",""
"","html-keyboard-response","117","144088","0.0-117.0","39K0FND3AI14IIM0FMO9CV81FD2AMF","A12Q4BP1S02YWS","3JUDR1D0D6D4CARU3YX9Y3DK5DJ2QK","","null","<img src=""img/land6.png"" style=""width:200px;border:14px solid red;"">","null","","","","","","","","","",""
"","image-keyboard-response","118","146091","0.0-118.0","39K0FND3AI14IIM0FMO9CV81FD2AMF","A12Q4BP1S02YWS","3JUDR1D0D6D4CARU3YX9Y3DK5DJ2QK","","","img/land2.png","","2002","-1","0","3","2","0.8,0.2,0.2,0.2,0.8,0.2,0.2,0.2,0.8","0.8,0.2,0.2,0.2,0.8,0.2,0.2,0.2,0.8","1","",""
"","html-keyboard-response","119","146392","0.0-119.0","39K0FND3AI14IIM0FMO9CV81FD2AMF","A12Q4BP1S02YWS","3JUDR1D0D6D4CARU3YX9Y3DK5DJ2QK","","null","<img src=""img/land2.png"" style=""width:200px;border:14px solid red;"">","null","","","","","","","","","",""
"","image-keyboard-response","120","146757","0.0-120.0","39K0FND3AI14IIM0FMO9CV81FD2AMF","A12Q4BP1S02YWS","3JUDR1D0D6D4CARU3YX9Y3DK5DJ2QK","","364","img/land6.png","75","364","2","0","1","2","0.8,0.2,0.2,0.2,0.8,0.2,0.2,0.2,0.8","0.8,0.2,0.2,0.2,0.8,0.2,0.2,0.2,0.8","1","",""
"","html-keyboard-response","121","147063","0.0-121.0","39K0FND3AI14IIM0FMO9CV81FD2AMF","A12Q4BP1S02YWS","3JUDR1D0D6D4CARU3YX9Y3DK5DJ2QK","","null","<img src=""img/land6.png"" style=""width:200px;border:14px solid red;"">","null","","","","","","","","","",""
"","image-keyboard-response","122","149069","0.0-122.0","39K0FND3AI14IIM0FMO9CV81FD2AMF","A12Q4BP1S02YWS","3JUDR1D0D6D4CARU3YX9Y3DK5DJ2QK","","","img/land6.png","","2006","-1","0","1","2","0.8,0.2,0.2,0.2,0.8,0.2,0.2,0.2,0.8","0.8,0.2,0.2,0.2,0.8,0.2,0.2,0.2,0.8","1","",""
"","html-keyboard-response","123","149476","0.0-123.0","39K0FND3AI14IIM0FMO9CV81FD2AMF","A12Q4BP1S02YWS","3JUDR1D0D6D4CARU3YX9Y3DK5DJ2QK","","null","<img src=""img/land6.png"" style=""width:200px;border:14px solid red;"">","null","","","","","","","","","",""
"","image-keyboard-response","124","150038","0.0-124.0","39K0FND3AI14IIM0FMO9CV81FD2AMF","A12Q4BP1S02YWS","3JUDR1D0D6D4CARU3YX9Y3DK5DJ2QK","","561","img/land1.png","75","563","2","0","2","2","0.8,0.2,0.2,0.2,0.8,0.2,0.2,0.2,0.8","0.8,0.2,0.2,0.2,0.8,0.2,0.2,0.2,0.8","1","",""
"","html-keyboard-response","125","150341","0.0-125.0","39K0FND3AI14IIM0FMO9CV81FD2AMF","A12Q4BP1S02YWS","3JUDR1D0D6D4CARU3YX9Y3DK5DJ2QK","","null","<img src=""img/land1.png"" style=""width:200px;border:14px solid red;"">","null","","","","","","","","","",""
"","image-keyboard-response","126","152343","0.0-126.0","39K0FND3AI14IIM0FMO9CV81FD2AMF","A12Q4BP1S02YWS","3JUDR1D0D6D4CARU3YX9Y3DK5DJ2QK","","","img/land1.png","","2002","-1","0","2","2","0.8,0.2,0.2,0.2,0.8,0.2,0.2,0.2,0.8","0.8,0.2,0.2,0.2,0.8,0.2,0.2,0.2,0.8","1","",""
"","html-keyboard-response","127","152646","0.0-127.0","39K0FND3AI14IIM0FMO9CV81FD2AMF","A12Q4BP1S02YWS","3JUDR1D0D6D4CARU3YX9Y3DK5DJ2QK","","null","<img src=""img/land1.png"" style=""width:200px;border:14px solid red;"">","null","","","","","","","","","",""
"","image-keyboard-response","128","153315","0.0-128.0","39K0FND3AI14IIM0FMO9CV81FD2AMF","A12Q4BP1S02YWS","3JUDR1D0D6D4CARU3YX9Y3DK5DJ2QK","","667","img/land1.png","74","668","1","0","2","2","0.8,0.2,0.2,0.2,0.8,0.2,0.2,0.2,0.8","0.8,0.2,0.2,0.2,0.8,0.2,0.2,0.2,0.8","1","",""
"","html-keyboard-response","129","153632","0.0-129.0","39K0FND3AI14IIM0FMO9CV81FD2AMF","A12Q4BP1S02YWS","3JUDR1D0D6D4CARU3YX9Y3DK5DJ2QK","","null","<img src=""img/land1.png"" style=""width:200px;border:14px solid red;"">","null","","","","","","","","","",""
"","image-keyboard-response","130","155636","0.0-130.0","39K0FND3AI14IIM0FMO9CV81FD2AMF","A12Q4BP1S02YWS","3JUDR1D0D6D4CARU3YX9Y3DK5DJ2QK","","","img/land6.png","","2001","-1","0","1","2","0.8,0.2,0.2,0.2,0.8,0.2,0.2,0.2,0.8","0.8,0.2,0.2,0.2,0.8,0.2,0.2,0.2,0.8","1","",""
"","html-keyboard-response","131","155938","0.0-131.0","39K0FND3AI14IIM0FMO9CV81FD2AMF","A12Q4BP1S02YWS","3JUDR1D0D6D4CARU3YX9Y3DK5DJ2QK","","null","<img src=""img/land6.png"" style=""width:200px;border:14px solid red;"">","null","","","","","","","","","",""
"","image-keyboard-response","132","156267","0.0-132.0","39K0FND3AI14IIM0FMO9CV81FD2AMF","A12Q4BP1S02YWS","3JUDR1D0D6D4CARU3YX9Y3DK5DJ2QK","","327","img/land6.png","75","329","2","0","1","2","0.8,0.2,0.2,0.2,0.8,0.2,0.2,0.2,0.8","0.8,0.2,0.2,0.2,0.8,0.2,0.2,0.2,0.8","1","",""
"","html-keyboard-response","133","156569","0.0-133.0","39K0FND3AI14IIM0FMO9CV81FD2AMF","A12Q4BP1S02YWS","3JUDR1D0D6D4CARU3YX9Y3DK5DJ2QK","","null","<img src=""img/land6.png"" style=""width:200px;border:14px solid red;"">","null","","","","","","","","","",""
"","image-keyboard-response","134","157745","0.0-134.0","39K0FND3AI14IIM0FMO9CV81FD2AMF","A12Q4BP1S02YWS","3JUDR1D0D6D4CARU3YX9Y3DK5DJ2QK","","1172","img/land2.png","75","1175","2","0","3","2","0.8,0.2,0.2,0.2,0.8,0.2,0.2,0.2,0.8","0.8,0.2,0.2,0.2,0.8,0.2,0.2,0.2,0.8","1","",""
"","html-keyboard-response","135","158048","0.0-135.0","39K0FND3AI14IIM0FMO9CV81FD2AMF","A12Q4BP1S02YWS","3JUDR1D0D6D4CARU3YX9Y3DK5DJ2QK","","null","<img src=""img/land2.png"" style=""width:200px;border:14px solid red;"">","null","","","","","","","","","",""
"","image-keyboard-response","136","158532","0.0-136.0","39K0FND3AI14IIM0FMO9CV81FD2AMF","A12Q4BP1S02YWS","3JUDR1D0D6D4CARU3YX9Y3DK5DJ2QK","","482","img/land1.png","75","483","2","0","2","2","0.8,0.2,0.2,0.2,0.8,0.2,0.2,0.2,0.8","0.8,0.2,0.2,0.2,0.8,0.2,0.2,0.2,0.8","1","",""
"","html-keyboard-response","137","158838","0.0-137.0","39K0FND3AI14IIM0FMO9CV81FD2AMF","A12Q4BP1S02YWS","3JUDR1D0D6D4CARU3YX9Y3DK5DJ2QK","","null","<img src=""img/land1.png"" style=""width:200px;border:14px solid red;"">","null","","","","","","","","","",""
"","image-keyboard-response","138","160843","0.0-138.0","39K0FND3AI14IIM0FMO9CV81FD2AMF","A12Q4BP1S02YWS","3JUDR1D0D6D4CARU3YX9Y3DK5DJ2QK","","","img/land6.png","","2006","-1","0","1","2","0.8,0.2,0.2,0.2,0.8,0.2,0.2,0.2,0.8","0.8,0.2,0.2,0.2,0.8,0.2,0.2,0.2,0.8","1","",""
"","html-keyboard-response","139","161150","0.0-139.0","39K0FND3AI14IIM0FMO9CV81FD2AMF","A12Q4BP1S02YWS","3JUDR1D0D6D4CARU3YX9Y3DK5DJ2QK","","null","<img src=""img/land6.png"" style=""width:200px;border:14px solid red;"">","null","","","","","","","","","",""
"","image-keyboard-response","140","161384","0.0-140.0","39K0FND3AI14IIM0FMO9CV81FD2AMF","A12Q4BP1S02YWS","3JUDR1D0D6D4CARU3YX9Y3DK5DJ2QK","","233","img/land6.png","74","234","1","1","1","2","0.8,0.2,0.2,0.2,0.8,0.2,0.2,0.2,0.8","0.8,0.2,0.2,0.2,0.8,0.2,0.2,0.2,0.8","1","",""
"","html-keyboard-response","141","161685","0.0-141.0","39K0FND3AI14IIM0FMO9CV81FD2AMF","A12Q4BP1S02YWS","3JUDR1D0D6D4CARU3YX9Y3DK5DJ2QK","","null","<img src=""img/land6.png"" style=""width:200px; border:14px solid green;"">","null","","","","","","","","","",""
"","image-keyboard-response","142","161756","0.0-142.0","39K0FND3AI14IIM0FMO9CV81FD2AMF","A12Q4BP1S02YWS","3JUDR1D0D6D4CARU3YX9Y3DK5DJ2QK","","70","img/land2.png","74","70","1","0","3","2","0.8,0.2,0.2,0.2,0.8,0.2,0.2,0.2,0.8","0.8,0.2,0.2,0.2,0.8,0.2,0.2,0.2,0.8","1","",""
"","html-keyboard-response","143","162058","0.0-143.0","39K0FND3AI14IIM0FMO9CV81FD2AMF","A12Q4BP1S02YWS","3JUDR1D0D6D4CARU3YX9Y3DK5DJ2QK","","null","<img src=""img/land2.png"" style=""width:200px;border:14px solid red;"">","null","","","","","","","","","",""
"","image-keyboard-response","144","164060","0.0-144.0","39K0FND3AI14IIM0FMO9CV81FD2AMF","A12Q4BP1S02YWS","3JUDR1D0D6D4CARU3YX9Y3DK5DJ2QK","","","img/land2.png","","2001","-1","0","3","2","0.8,0.2,0.2,0.2,0.8,0.2,0.2,0.2,0.8","0.8,0.2,0.2,0.2,0.8,0.2,0.2,0.2,0.8","1","",""
"","html-keyboard-response","145","164363","0.0-145.0","39K0FND3AI14IIM0FMO9CV81FD2AMF","A12Q4BP1S02YWS","3JUDR1D0D6D4CARU3YX9Y3DK5DJ2QK","","null","<img src=""img/land2.png"" style=""width:200px;border:14px solid red;"">","null","","","","","","","","","",""
"","image-keyboard-response","146","164683","0.0-146.0","39K0FND3AI14IIM0FMO9CV81FD2AMF","A12Q4BP1S02YWS","3JUDR1D0D6D4CARU3YX9Y3DK5DJ2QK","","319","img/land6.png","75","320","2","1","1","2","0.8,0.2,0.2,0.2,0.8,0.2,0.2,0.2,0.8","0.8,0.2,0.2,0.2,0.8,0.2,0.2,0.2,0.8","1","",""
"","html-keyboard-response","147","164984","0.0-147.0","39K0FND3AI14IIM0FMO9CV81FD2AMF","A12Q4BP1S02YWS","3JUDR1D0D6D4CARU3YX9Y3DK5DJ2QK","","null","<img src=""img/land6.png"" style=""width:200px; border:14px solid green;"">","null","","","","","","","","","",""
"","image-keyboard-response","148","166989","0.0-148.0","39K0FND3AI14IIM0FMO9CV81FD2AMF","A12Q4BP1S02YWS","3JUDR1D0D6D4CARU3YX9Y3DK5DJ2QK","","","img/land2.png","","2004","-1","0","3","2","0.8,0.2,0.2,0.2,0.8,0.2,0.2,0.2,0.8","0.8,0.2,0.2,0.2,0.8,0.2,0.2,0.2,0.8","1","",""
"","html-keyboard-response","149","167292","0.0-149.0","39K0FND3AI14IIM0FMO9CV81FD2AMF","A12Q4BP1S02YWS","3JUDR1D0D6D4CARU3YX9Y3DK5DJ2QK","","null","<img src=""img/land2.png"" style=""width:200px;border:14px solid red;"">","null","","","","","","","","","",""
"","image-keyboard-response","150","167621","0.0-150.0","39K0FND3AI14IIM0FMO9CV81FD2AMF","A12Q4BP1S02YWS","3JUDR1D0D6D4CARU3YX9Y3DK5DJ2QK","","328","img/land6.png","74","329","1","1","1","2","0.8,0.2,0.2,0.2,0.8,0.2,0.2,0.2,0.8","0.8,0.2,0.2,0.2,0.8,0.2,0.2,0.2,0.8","1","",""
"","html-keyboard-response","151","167923","0.0-151.0","39K0FND3AI14IIM0FMO9CV81FD2AMF","A12Q4BP1S02YWS","3JUDR1D0D6D4CARU3YX9Y3DK5DJ2QK","","null","<img src=""img/land6.png"" style=""width:200px; border:14px solid green;"">","null","","","","","","","","","",""
"","image-keyboard-response","152","168136","0.0-152.0","39K0FND3AI14IIM0FMO9CV81FD2AMF","A12Q4BP1S02YWS","3JUDR1D0D6D4CARU3YX9Y3DK5DJ2QK","","210","img/land6.png","74","213","1","1","1","2","0.8,0.2,0.2,0.2,0.8,0.2,0.2,0.2,0.8","0.8,0.2,0.2,0.2,0.8,0.2,0.2,0.2,0.8","1","",""
"","html-keyboard-response","153","168439","0.0-153.0","39K0FND3AI14IIM0FMO9CV81FD2AMF","A12Q4BP1S02YWS","3JUDR1D0D6D4CARU3YX9Y3DK5DJ2QK","","null","<img src=""img/land6.png"" style=""width:200px; border:14px solid green;"">","null","","","","","","","","","",""
"","image-keyboard-response","154","170441","0.0-154.0","39K0FND3AI14IIM0FMO9CV81FD2AMF","A12Q4BP1S02YWS","3JUDR1D0D6D4CARU3YX9Y3DK5DJ2QK","","","img/land2.png","","2001","-1","0","3","2","0.8,0.2,0.2,0.2,0.8,0.2,0.2,0.2,0.8","0.8,0.2,0.2,0.2,0.8,0.2,0.2,0.2,0.8","1","",""
"","html-keyboard-response","155","170744","0.0-155.0","39K0FND3AI14IIM0FMO9CV81FD2AMF","A12Q4BP1S02YWS","3JUDR1D0D6D4CARU3YX9Y3DK5DJ2QK","","null","<img src=""img/land2.png"" style=""width:200px;border:14px solid red;"">","null","","","","","","","","","",""
"","image-keyboard-response","156","170961","0.0-156.0","39K0FND3AI14IIM0FMO9CV81FD2AMF","A12Q4BP1S02YWS","3JUDR1D0D6D4CARU3YX9Y3DK5DJ2QK","","214","img/land2.png","74","216","1","0","3","2","0.8,0.2,0.2,0.2,0.8,0.2,0.2,0.2,0.8","0.8,0.2,0.2,0.2,0.8,0.2,0.2,0.2,0.8","1","",""
"","html-keyboard-response","157","171263","0.0-157.0","39K0FND3AI14IIM0FMO9CV81FD2AMF","A12Q4BP1S02YWS","3JUDR1D0D6D4CARU3YX9Y3DK5DJ2QK","","null","<img src=""img/land2.png"" style=""width:200px;border:14px solid red;"">","null","","","","","","","","","",""
"","image-keyboard-response","158","171739","0.0-158.0","39K0FND3AI14IIM0FMO9CV81FD2AMF","A12Q4BP1S02YWS","3JUDR1D0D6D4CARU3YX9Y3DK5DJ2QK","","475","img/land2.png","74","476","1","0","3","2","0.8,0.2,0.2,0.2,0.8,0.2,0.2,0.2,0.8","0.8,0.2,0.2,0.2,0.8,0.2,0.2,0.2,0.8","1","",""
"","html-keyboard-response","159","172040","0.0-159.0","39K0FND3AI14IIM0FMO9CV81FD2AMF","A12Q4BP1S02YWS","3JUDR1D0D6D4CARU3YX9Y3DK5DJ2QK","","null","<img src=""img/land2.png"" style=""width:200px;border:14px solid red;"">","null","","","","","","","","","",""
"","image-keyboard-response","160","174044","0.0-160.0","39K0FND3AI14IIM0FMO9CV81FD2AMF","A12Q4BP1S02YWS","3JUDR1D0D6D4CARU3YX9Y3DK5DJ2QK","","","img/land6.png","","2003","-1","0","1","2","0.8,0.2,0.2,0.2,0.8,0.2,0.2,0.2,0.8","0.8,0.2,0.2,0.2,0.8,0.2,0.2,0.2,0.8","1","",""
"","html-keyboard-response","161","174348","0.0-161.0","39K0FND3AI14IIM0FMO9CV81FD2AMF","A12Q4BP1S02YWS","3JUDR1D0D6D4CARU3YX9Y3DK5DJ2QK","","null","<img src=""img/land6.png"" style=""width:200px;border:14px solid red;"">","null","","","","","","","","","",""
"","image-keyboard-response","162","174462","0.0-162.0","39K0FND3AI14IIM0FMO9CV81FD2AMF","A12Q4BP1S02YWS","3JUDR1D0D6D4CARU3YX9Y3DK5DJ2QK","","110","img/land6.png","75","113","2","0","1","2","0.8,0.2,0.2,0.2,0.8,0.2,0.2,0.2,0.8","0.8,0.2,0.2,0.2,0.8,0.2,0.2,0.2,0.8","1","",""
"","html-keyboard-response","163","174764","0.0-163.0","39K0FND3AI14IIM0FMO9CV81FD2AMF","A12Q4BP1S02YWS","3JUDR1D0D6D4CARU3YX9Y3DK5DJ2QK","","null","<img src=""img/land6.png"" style=""width:200px;border:14px solid red;"">","null","","","","","","","","","",""
"","image-keyboard-response","164","174931","0.0-164.0","39K0FND3AI14IIM0FMO9CV81FD2AMF","A12Q4BP1S02YWS","3JUDR1D0D6D4CARU3YX9Y3DK5DJ2QK","","165","img/land1.png","75","166","2","1","2","2","0.8,0.2,0.2,0.2,0.8,0.2,0.2,0.2,0.8","0.8,0.2,0.2,0.2,0.8,0.2,0.2,0.2,0.8","1","",""
"","html-keyboard-response","165","175232","0.0-165.0","39K0FND3AI14IIM0FMO9CV81FD2AMF","A12Q4BP1S02YWS","3JUDR1D0D6D4CARU3YX9Y3DK5DJ2QK","","null","<img src=""img/land1.png"" style=""width:200px; border:14px solid green;"">","null","","","","","","","","","",""
"","image-keyboard-response","166","175735","0.0-166.0","39K0FND3AI14IIM0FMO9CV81FD2AMF","A12Q4BP1S02YWS","3JUDR1D0D6D4CARU3YX9Y3DK5DJ2QK","","501","img/land6.png","75","502","2","1","1","2","0.8,0.2,0.2,0.2,0.8,0.2,0.2,0.2,0.8","0.8,0.2,0.2,0.2,0.8,0.2,0.2,0.2,0.8","1","",""
"","html-keyboard-response","167","176037","0.0-167.0","39K0FND3AI14IIM0FMO9CV81FD2AMF","A12Q4BP1S02YWS","3JUDR1D0D6D4CARU3YX9Y3DK5DJ2QK","","null","<img src=""img/land6.png"" style=""width:200px; border:14px solid green;"">","null","","","","","","","","","",""
"","image-keyboard-response","168","176634","0.0-168.0","39K0FND3AI14IIM0FMO9CV81FD2AMF","A12Q4BP1S02YWS","3JUDR1D0D6D4CARU3YX9Y3DK5DJ2QK","","596","img/land1.png","75","596","2","1","2","2","0.8,0.2,0.2,0.2,0.8,0.2,0.2,0.2,0.8","0.8,0.2,0.2,0.2,0.8,0.2,0.2,0.2,0.8","1","",""
"","html-keyboard-response","169","176935","0.0-169.0","39K0FND3AI14IIM0FMO9CV81FD2AMF","A12Q4BP1S02YWS","3JUDR1D0D6D4CARU3YX9Y3DK5DJ2QK","","null","<img src=""img/land1.png"" style=""width:200px; border:14px solid green;"">","null","","","","","","","","","",""
"","image-keyboard-response","170","177182","0.0-170.0","39K0FND3AI14IIM0FMO9CV81FD2AMF","A12Q4BP1S02YWS","3JUDR1D0D6D4CARU3YX9Y3DK5DJ2QK","","245","img/land6.png","75","246","2","1","1","2","0.8,0.2,0.2,0.2,0.8,0.2,0.2,0.2,0.8","0.8,0.2,0.2,0.2,0.8,0.2,0.2,0.2,0.8","1","",""
"","html-keyboard-response","171","177485","0.0-171.0","39K0FND3AI14IIM0FMO9CV81FD2AMF","A12Q4BP1S02YWS","3JUDR1D0D6D4CARU3YX9Y3DK5DJ2QK","","null","<img src=""img/land6.png"" style=""width:200px; border:14px solid green;"">","null","","","","","","","","","",""
"","image-keyboard-response","172","177888","0.0-172.0","39K0FND3AI14IIM0FMO9CV81FD2AMF","A12Q4BP1S02YWS","3JUDR1D0D6D4CARU3YX9Y3DK5DJ2QK","","401","img/land6.png","75","403","2","0","1","2","0.8,0.2,0.2,0.2,0.8,0.2,0.2,0.2,0.8","0.8,0.2,0.2,0.2,0.8,0.2,0.2,0.2,0.8","1","",""
"","html-keyboard-response","173","178191","0.0-173.0","39K0FND3AI14IIM0FMO9CV81FD2AMF","A12Q4BP1S02YWS","3JUDR1D0D6D4CARU3YX9Y3DK5DJ2QK","","null","<img src=""img/land6.png"" style=""width:200px;border:14px solid red;"">","null","","","","","","","","","",""
"","image-keyboard-response","174","178826","0.0-174.0","39K0FND3AI14IIM0FMO9CV81FD2AMF","A12Q4BP1S02YWS","3JUDR1D0D6D4CARU3YX9Y3DK5DJ2QK","","633","img/land6.png","74","634","1","1","1","2","0.8,0.2,0.2,0.2,0.8,0.2,0.2,0.2,0.8","0.8,0.2,0.2,0.2,0.8,0.2,0.2,0.2,0.8","1","",""
"","html-keyboard-response","175","179132","0.0-175.0","39K0FND3AI14IIM0FMO9CV81FD2AMF","A12Q4BP1S02YWS","3JUDR1D0D6D4CARU3YX9Y3DK5DJ2QK","","null","<img src=""img/land6.png"" style=""width:200px; border:14px solid green;"">","null","","","","","","","","","",""
"","image-keyboard-response","176","179757","0.0-176.0","39K0FND3AI14IIM0FMO9CV81FD2AMF","A12Q4BP1S02YWS","3JUDR1D0D6D4CARU3YX9Y3DK5DJ2QK","","623","img/land6.png","75","625","2","0","1","2","0.8,0.2,0.2,0.2,0.8,0.2,0.2,0.2,0.8","0.8,0.2,0.2,0.2,0.8,0.2,0.2,0.2,0.8","1","",""
"","html-keyboard-response","177","180060","0.0-177.0","39K0FND3AI14IIM0FMO9CV81FD2AMF","A12Q4BP1S02YWS","3JUDR1D0D6D4CARU3YX9Y3DK5DJ2QK","","null","<img src=""img/land6.png"" style=""width:200px;border:14px solid red;"">","null","","","","","","","","","",""
"","image-keyboard-response","178","180373","0.0-178.0","39K0FND3AI14IIM0FMO9CV81FD2AMF","A12Q4BP1S02YWS","3JUDR1D0D6D4CARU3YX9Y3DK5DJ2QK","","310","img/land2.png","76","312","3","1","3","2","0.8,0.2,0.2,0.2,0.8,0.2,0.2,0.2,0.8","0.8,0.2,0.2,0.2,0.8,0.2,0.2,0.2,0.8","1","",""
"","html-keyboard-response","179","180676","0.0-179.0","39K0FND3AI14IIM0FMO9CV81FD2AMF","A12Q4BP1S02YWS","3JUDR1D0D6D4CARU3YX9Y3DK5DJ2QK","","null","<img src=""img/land2.png"" style=""width:200px; border:14px solid green;"">","null","","","","","","","","","",""
"","image-keyboard-response","180","181216","0.0-180.0","39K0FND3AI14IIM0FMO9CV81FD2AMF","A12Q4BP1S02YWS","3JUDR1D0D6D4CARU3YX9Y3DK5DJ2QK","","537","img/land6.png","75","538","2","0","1","2","0.8,0.2,0.2,0.2,0.8,0.2,0.2,0.2,0.8","0.8,0.2,0.2,0.2,0.8,0.2,0.2,0.2,0.8","1","",""
"","html-keyboard-response","181","181520","0.0-181.0","39K0FND3AI14IIM0FMO9CV81FD2AMF","A12Q4BP1S02YWS","3JUDR1D0D6D4CARU3YX9Y3DK5DJ2QK","","null","<img src=""img/land6.png"" style=""width:200px;border:14px solid red;"">","null","","","","","","","","","",""
"","image-keyboard-response","182","182016","0.0-182.0","39K0FND3AI14IIM0FMO9CV81FD2AMF","A12Q4BP1S02YWS","3JUDR1D0D6D4CARU3YX9Y3DK5DJ2QK","","494","img/land6.png","74","496","1","1","1","2","0.8,0.2,0.2,0.2,0.8,0.2,0.2,0.2,0.8","0.8,0.2,0.2,0.2,0.8,0.2,0.2,0.2,0.8","1","",""
"","html-keyboard-response","183","182318","0.0-183.0","39K0FND3AI14IIM0FMO9CV81FD2AMF","A12Q4BP1S02YWS","3JUDR1D0D6D4CARU3YX9Y3DK5DJ2QK","","null","<img src=""img/land6.png"" style=""width:200px; border:14px solid green;"">","null","","","","","","","","","",""
"","image-keyboard-response","184","183003","0.0-184.0","39K0FND3AI14IIM0FMO9CV81FD2AMF","A12Q4BP1S02YWS","3JUDR1D0D6D4CARU3YX9Y3DK5DJ2QK","","684","img/land6.png","75","684","2","0","1","2","0.8,0.2,0.2,0.2,0.8,0.2,0.2,0.2,0.8","0.8,0.2,0.2,0.2,0.8,0.2,0.2,0.2,0.8","1","",""
"","html-keyboard-response","185","183306","0.0-185.0","39K0FND3AI14IIM0FMO9CV81FD2AMF","A12Q4BP1S02YWS","3JUDR1D0D6D4CARU3YX9Y3DK5DJ2QK","","null","<img src=""img/land6.png"" style=""width:200px;border:14px solid red;"">","null","","","","","","","","","",""
"","image-keyboard-response","186","183448","0.0-186.0","39K0FND3AI14IIM0FMO9CV81FD2AMF","A12Q4BP1S02YWS","3JUDR1D0D6D4CARU3YX9Y3DK5DJ2QK","","139","img/land2.png","76","141","3","0","3","2","0.8,0.2,0.2,0.2,0.8,0.2,0.2,0.2,0.8","0.8,0.2,0.2,0.2,0.8,0.2,0.2,0.2,0.8","1","",""
"","html-keyboard-response","187","183765","0.0-187.0","39K0FND3AI14IIM0FMO9CV81FD2AMF","A12Q4BP1S02YWS","3JUDR1D0D6D4CARU3YX9Y3DK5DJ2QK","","null","<img src=""img/land2.png"" style=""width:200px;border:14px solid red;"">","null","","","","","","","","","",""
"","image-keyboard-response","188","184260","0.0-188.0","39K0FND3AI14IIM0FMO9CV81FD2AMF","A12Q4BP1S02YWS","3JUDR1D0D6D4CARU3YX9Y3DK5DJ2QK","","494","img/land6.png","76","495","3","1","1","2","0.8,0.2,0.2,0.2,0.8,0.2,0.2,0.2,0.8","0.8,0.2,0.2,0.2,0.8,0.2,0.2,0.2,0.8","1","",""
"","html-keyboard-response","189","184561","0.0-189.0","39K0FND3AI14IIM0FMO9CV81FD2AMF","A12Q4BP1S02YWS","3JUDR1D0D6D4CARU3YX9Y3DK5DJ2QK","","null","<img src=""img/land6.png"" style=""width:200px; border:14px solid green;"">","null","","","","","","","","","",""
"","image-keyboard-response","190","184776","0.0-190.0","39K0FND3AI14IIM0FMO9CV81FD2AMF","A12Q4BP1S02YWS","3JUDR1D0D6D4CARU3YX9Y3DK5DJ2QK","","213","img/land1.png","75","214","2","0","2","2","0.8,0.2,0.2,0.2,0.8,0.2,0.2,0.2,0.8","0.8,0.2,0.2,0.2,0.8,0.2,0.2,0.2,0.8","1","",""
"","html-keyboard-response","191","185080","0.0-191.0","39K0FND3AI14IIM0FMO9CV81FD2AMF","A12Q4BP1S02YWS","3JUDR1D0D6D4CARU3YX9Y3DK5DJ2QK","","null","<img src=""img/land1.png"" style=""width:200px;border:14px solid red;"">","null","","","","","","","","","",""
"","image-keyboard-response","192","185959","0.0-192.0","39K0FND3AI14IIM0FMO9CV81FD2AMF","A12Q4BP1S02YWS","3JUDR1D0D6D4CARU3YX9Y3DK5DJ2QK","","877","img/land2.png","76","879","3","1","3","2","0.8,0.2,0.2,0.2,0.8,0.2,0.2,0.2,0.8","0.8,0.2,0.2,0.2,0.8,0.2,0.2,0.2,0.8","1","",""
"","html-keyboard-response","193","186261","0.0-193.0","39K0FND3AI14IIM0FMO9CV81FD2AMF","A12Q4BP1S02YWS","3JUDR1D0D6D4CARU3YX9Y3DK5DJ2QK","","null","<img src=""img/land2.png"" style=""width:200px; border:14px solid green;"">","null","","","","","","","","","",""
"","image-keyboard-response","194","186831","0.0-194.0","39K0FND3AI14IIM0FMO9CV81FD2AMF","A12Q4BP1S02YWS","3JUDR1D0D6D4CARU3YX9Y3DK5DJ2QK","","569","img/land2.png","76","570","3","1","3","2","0.8,0.2,0.2,0.2,0.8,0.2,0.2,0.2,0.8","0.8,0.2,0.2,0.2,0.8,0.2,0.2,0.2,0.8","1","",""
"","html-keyboard-response","195","187133","0.0-195.0","39K0FND3AI14IIM0FMO9CV81FD2AMF","A12Q4BP1S02YWS","3JUDR1D0D6D4CARU3YX9Y3DK5DJ2QK","","null","<img src=""img/land2.png"" style=""width:200px; border:14px solid green;"">","null","","","","","","","","","",""
"","image-keyboard-response","196","187708","0.0-196.0","39K0FND3AI14IIM0FMO9CV81FD2AMF","A12Q4BP1S02YWS","3JUDR1D0D6D4CARU3YX9Y3DK5DJ2QK","","573","img/land6.png","75","575","2","1","1","2","0.8,0.2,0.2,0.2,0.8,0.2,0.2,0.2,0.8","0.8,0.2,0.2,0.2,0.8,0.2,0.2,0.2,0.8","1","",""
"","html-keyboard-response","197","188012","0.0-197.0","39K0FND3AI14IIM0FMO9CV81FD2AMF","A12Q4BP1S02YWS","3JUDR1D0D6D4CARU3YX9Y3DK5DJ2QK","","null","<img src=""img/land6.png"" style=""width:200px; border:14px solid green;"">","null","","","","","","","","","",""
"","image-keyboard-response","198","188590","0.0-198.0","39K0FND3AI14IIM0FMO9CV81FD2AMF","A12Q4BP1S02YWS","3JUDR1D0D6D4CARU3YX9Y3DK5DJ2QK","","577","img/land6.png","74","578","1","1","1","2","0.8,0.2,0.2,0.2,0.8,0.2,0.2,0.2,0.8","0.8,0.2,0.2,0.2,0.8,0.2,0.2,0.2,0.8","1","",""
"","html-keyboard-response","199","188893","0.0-199.0","39K0FND3AI14IIM0FMO9CV81FD2AMF","A12Q4BP1S02YWS","3JUDR1D0D6D4CARU3YX9Y3DK5DJ2QK","","null","<img src=""img/land6.png"" style=""width:200px; border:14px solid green;"">","null","","","","","","","","","",""
"","image-keyboard-response","200","189547","0.0-200.0","39K0FND3AI14IIM0FMO9CV81FD2AMF","A12Q4BP1S02YWS","3JUDR1D0D6D4CARU3YX9Y3DK5DJ2QK","","653","img/land6.png","75","653","2","0","1","2","0.8,0.2,0.2,0.2,0.8,0.2,0.2,0.2,0.8","0.8,0.2,0.2,0.2,0.8,0.2,0.2,0.2,0.8","1","",""
"","html-keyboard-response","201","189917","0.0-201.0","39K0FND3AI14IIM0FMO9CV81FD2AMF","A12Q4BP1S02YWS","3JUDR1D0D6D4CARU3YX9Y3DK5DJ2QK","","null","<img src=""img/land6.png"" style=""width:200px;border:14px solid red;"">","null","","","","","","","","","",""
"","image-keyboard-response","202","190362","0.0-202.0","39K0FND3AI14IIM0FMO9CV81FD2AMF","A12Q4BP1S02YWS","3JUDR1D0D6D4CARU3YX9Y3DK5DJ2QK","","444","img/land6.png","74","445","1","1","1","2","0.8,0.2,0.2,0.2,0.8,0.2,0.2,0.2,0.8","0.8,0.2,0.2,0.2,0.8,0.2,0.2,0.2,0.8","1","",""
"","html-keyboard-response","203","190664","0.0-203.0","39K0FND3AI14IIM0FMO9CV81FD2AMF","A12Q4BP1S02YWS","3JUDR1D0D6D4CARU3YX9Y3DK5DJ2QK","","null","<img src=""img/land6.png"" style=""width:200px; border:14px solid green;"">","null","","","","","","","","","",""
"","image-keyboard-response","204","191332","0.0-204.0","39K0FND3AI14IIM0FMO9CV81FD2AMF","A12Q4BP1S02YWS","3JUDR1D0D6D4CARU3YX9Y3DK5DJ2QK","","665","img/land6.png","74","666","1","1","1","2","0.8,0.2,0.2,0.2,0.8,0.2,0.2,0.2,0.8","0.8,0.2,0.2,0.2,0.8,0.2,0.2,0.2,0.8","1","",""
"","html-keyboard-response","205","191634","0.0-205.0","39K0FND3AI14IIM0FMO9CV81FD2AMF","A12Q4BP1S02YWS","3JUDR1D0D6D4CARU3YX9Y3DK5DJ2QK","","null","<img src=""img/land6.png"" style=""width:200px; border:14px solid green;"">","null","","","","","","","","","",""
"","image-keyboard-response","206","192160","0.0-206.0","39K0FND3AI14IIM0FMO9CV81FD2AMF","A12Q4BP1S02YWS","3JUDR1D0D6D4CARU3YX9Y3DK5DJ2QK","","521","img/land6.png","74","524","1","1","1","2","0.8,0.2,0.2,0.2,0.8,0.2,0.2,0.2,0.8","0.8,0.2,0.2,0.2,0.8,0.2,0.2,0.2,0.8","1","",""
"","html-keyboard-response","207","192463","0.0-207.0","39K0FND3AI14IIM0FMO9CV81FD2AMF","A12Q4BP1S02YWS","3JUDR1D0D6D4CARU3YX9Y3DK5DJ2QK","","null","<img src=""img/land6.png"" style=""width:200px; border:14px solid green;"">","null","","","","","","","","","",""
"","image-keyboard-response","208","192837","0.0-208.0","39K0FND3AI14IIM0FMO9CV81FD2AMF","A12Q4BP1S02YWS","3JUDR1D0D6D4CARU3YX9Y3DK5DJ2QK","","368","img/land2.png","74","373","1","0","3","2","0.8,0.2,0.2,0.2,0.8,0.2,0.2,0.2,0.8","0.8,0.2,0.2,0.2,0.8,0.2,0.2,0.2,0.8","1","",""
"","html-keyboard-response","209","193149","0.0-209.0","39K0FND3AI14IIM0FMO9CV81FD2AMF","A12Q4BP1S02YWS","3JUDR1D0D6D4CARU3YX9Y3DK5DJ2QK","","null","<img src=""img/land2.png"" style=""width:200px;border:14px solid red;"">","null","","","","","","","","","",""
"","image-keyboard-response","210","194035","0.0-210.0","39K0FND3AI14IIM0FMO9CV81FD2AMF","A12Q4BP1S02YWS","3JUDR1D0D6D4CARU3YX9Y3DK5DJ2QK","","885","img/land1.png","76","886","3","0","2","2","0.8,0.2,0.2,0.2,0.8,0.2,0.2,0.2,0.8","0.8,0.2,0.2,0.2,0.8,0.2,0.2,0.2,0.8","1","",""
"","html-keyboard-response","211","194337","0.0-211.0","39K0FND3AI14IIM0FMO9CV81FD2AMF","A12Q4BP1S02YWS","3JUDR1D0D6D4CARU3YX9Y3DK5DJ2QK","","null","<img src=""img/land1.png"" style=""width:200px;border:14px solid red;"">","null","","","","","","","","","",""
"","image-keyboard-response","212","194770","0.0-212.0","39K0FND3AI14IIM0FMO9CV81FD2AMF","A12Q4BP1S02YWS","3JUDR1D0D6D4CARU3YX9Y3DK5DJ2QK","","432","img/land2.png","75","433","2","1","3","2","0.8,0.2,0.2,0.2,0.8,0.2,0.2,0.2,0.8","0.8,0.2,0.2,0.2,0.8,0.2,0.2,0.2,0.8","1","",""
"","html-keyboard-response","213","195073","0.0-213.0","39K0FND3AI14IIM0FMO9CV81FD2AMF","A12Q4BP1S02YWS","3JUDR1D0D6D4CARU3YX9Y3DK5DJ2QK","","null","<img src=""img/land2.png"" style=""width:200px; border:14px solid green;"">","null","","","","","","","","","",""
"","image-keyboard-response","214","195630","0.0-214.0","39K0FND3AI14IIM0FMO9CV81FD2AMF","A12Q4BP1S02YWS","3JUDR1D0D6D4CARU3YX9Y3DK5DJ2QK","","554","img/land1.png","75","555","2","1","2","2","0.8,0.2,0.2,0.2,0.8,0.2,0.2,0.2,0.8","0.8,0.2,0.2,0.2,0.8,0.2,0.2,0.2,0.8","1","",""
"","html-keyboard-response","215","195933","0.0-215.0","39K0FND3AI14IIM0FMO9CV81FD2AMF","A12Q4BP1S02YWS","3JUDR1D0D6D4CARU3YX9Y3DK5DJ2QK","","null","<img src=""img/land1.png"" style=""width:200px; border:14px solid green;"">","null","","","","","","","","","",""
"","image-keyboard-response","216","196248","0.0-216.0","39K0FND3AI14IIM0FMO9CV81FD2AMF","A12Q4BP1S02YWS","3JUDR1D0D6D4CARU3YX9Y3DK5DJ2QK","","314","img/land6.png","74","316","1","1","1","2","0.8,0.2,0.2,0.2,0.8,0.2,0.2,0.2,0.8","0.8,0.2,0.2,0.2,0.8,0.2,0.2,0.2,0.8","1","",""
"","html-keyboard-response","217","196552","0.0-217.0","39K0FND3AI14IIM0FMO9CV81FD2AMF","A12Q4BP1S02YWS","3JUDR1D0D6D4CARU3YX9Y3DK5DJ2QK","","null","<img src=""img/land6.png"" style=""width:200px; border:14px solid green;"">","null","","","","","","","","","",""
"","image-keyboard-response","218","197154","0.0-218.0","39K0FND3AI14IIM0FMO9CV81FD2AMF","A12Q4BP1S02YWS","3JUDR1D0D6D4CARU3YX9Y3DK5DJ2QK","","600","img/land1.png","75","601","2","1","2","2","0.8,0.2,0.2,0.2,0.8,0.2,0.2,0.2,0.8","0.8,0.2,0.2,0.2,0.8,0.2,0.2,0.2,0.8","1","",""
"","html-keyboard-response","219","197456","0.0-219.0","39K0FND3AI14IIM0FMO9CV81FD2AMF","A12Q4BP1S02YWS","3JUDR1D0D6D4CARU3YX9Y3DK5DJ2QK","","null","<img src=""img/land1.png"" style=""width:200px; border:14px solid green;"">","null","","","","","","","","","",""
"","image-keyboard-response","220","198022","0.0-220.0","39K0FND3AI14IIM0FMO9CV81FD2AMF","A12Q4BP1S02YWS","3JUDR1D0D6D4CARU3YX9Y3DK5DJ2QK","","563","img/land2.png","74","565","1","1","3","2","0.8,0.2,0.2,0.2,0.8,0.2,0.2,0.2,0.8","0.8,0.2,0.2,0.2,0.8,0.2,0.2,0.2,0.8","1","",""
"","html-keyboard-response","221","198324","0.0-221.0","39K0FND3AI14IIM0FMO9CV81FD2AMF","A12Q4BP1S02YWS","3JUDR1D0D6D4CARU3YX9Y3DK5DJ2QK","","null","<img src=""img/land2.png"" style=""width:200px; border:14px solid green;"">","null","","","","","","","","","",""
"","image-keyboard-response","222","199118","0.0-222.0","39K0FND3AI14IIM0FMO9CV81FD2AMF","A12Q4BP1S02YWS","3JUDR1D0D6D4CARU3YX9Y3DK5DJ2QK","","793","img/land6.png","75","795","2","0","1","2","0.8,0.2,0.2,0.2,0.8,0.2,0.2,0.2,0.8","0.8,0.2,0.2,0.2,0.8,0.2,0.2,0.2,0.8","1","",""
"","html-keyboard-response","223","199423","0.0-223.0","39K0FND3AI14IIM0FMO9CV81FD2AMF","A12Q4BP1S02YWS","3JUDR1D0D6D4CARU3YX9Y3DK5DJ2QK","","null","<img src=""img/land6.png"" style=""width:200px;border:14px solid red;"">","null","","","","","","","","","",""
"","image-keyboard-response","224","200593","0.0-224.0","39K0FND3AI14IIM0FMO9CV81FD2AMF","A12Q4BP1S02YWS","3JUDR1D0D6D4CARU3YX9Y3DK5DJ2QK","","1169","img/land6.png","75","1170","2","0","1","2","0.8,0.2,0.2,0.2,0.8,0.2,0.2,0.2,0.8","0.8,0.2,0.2,0.2,0.8,0.2,0.2,0.2,0.8","1","",""
"","html-keyboard-response","225","200895","0.0-225.0","39K0FND3AI14IIM0FMO9CV81FD2AMF","A12Q4BP1S02YWS","3JUDR1D0D6D4CARU3YX9Y3DK5DJ2QK","","null","<img src=""img/land6.png"" style=""width:200px;border:14px solid red;"">","null","","","","","","","","","",""
"","image-keyboard-response","226","201219","0.0-226.0","39K0FND3AI14IIM0FMO9CV81FD2AMF","A12Q4BP1S02YWS","3JUDR1D0D6D4CARU3YX9Y3DK5DJ2QK","","322","img/land6.png","74","324","1","0","1","2","0.8,0.2,0.2,0.2,0.8,0.2,0.2,0.2,0.8","0.8,0.2,0.2,0.2,0.8,0.2,0.2,0.2,0.8","1","",""
"","html-keyboard-response","227","201525","0.0-227.0","39K0FND3AI14IIM0FMO9CV81FD2AMF","A12Q4BP1S02YWS","3JUDR1D0D6D4CARU3YX9Y3DK5DJ2QK","","null","<img src=""img/land6.png"" style=""width:200px;border:14px solid red;"">","null","","","","","","","","","",""
"","image-keyboard-response","228","202322","0.0-228.0","39K0FND3AI14IIM0FMO9CV81FD2AMF","A12Q4BP1S02YWS","3JUDR1D0D6D4CARU3YX9Y3DK5DJ2QK","","795","img/land6.png","76","797","3","0","1","2","0.8,0.2,0.2,0.2,0.8,0.2,0.2,0.2,0.8","0.8,0.2,0.2,0.2,0.8,0.2,0.2,0.2,0.8","1","",""
"","html-keyboard-response","229","202625","0.0-229.0","39K0FND3AI14IIM0FMO9CV81FD2AMF","A12Q4BP1S02YWS","3JUDR1D0D6D4CARU3YX9Y3DK5DJ2QK","","null","<img src=""img/land6.png"" style=""width:200px;border:14px solid red;"">","null","","","","","","","","","",""
"","image-keyboard-response","230","203164","0.0-230.0","39K0FND3AI14IIM0FMO9CV81FD2AMF","A12Q4BP1S02YWS","3JUDR1D0D6D4CARU3YX9Y3DK5DJ2QK","","536","img/land6.png","75","537","2","1","1","2","0.8,0.2,0.2,0.2,0.8,0.2,0.2,0.2,0.8","0.8,0.2,0.2,0.2,0.8,0.2,0.2,0.2,0.8","1","",""
"","html-keyboard-response","231","203465","0.0-231.0","39K0FND3AI14IIM0FMO9CV81FD2AMF","A12Q4BP1S02YWS","3JUDR1D0D6D4CARU3YX9Y3DK5DJ2QK","","null","<img src=""img/land6.png"" style=""width:200px; border:14px solid green;"">","null","","","","","","","","","",""
"","image-keyboard-response","232","203597","0.0-232.0","39K0FND3AI14IIM0FMO9CV81FD2AMF","A12Q4BP1S02YWS","3JUDR1D0D6D4CARU3YX9Y3DK5DJ2QK","","130","img/land6.png","74","131","1","0","1","2","0.8,0.2,0.2,0.2,0.8,0.2,0.2,0.2,0.8","0.8,0.2,0.2,0.2,0.8,0.2,0.2,0.2,0.8","1","",""
"","html-keyboard-response","233","203902","0.0-233.0","39K0FND3AI14IIM0FMO9CV81FD2AMF","A12Q4BP1S02YWS","3JUDR1D0D6D4CARU3YX9Y3DK5DJ2QK","","null","<img src=""img/land6.png"" style=""width:200px;border:14px solid red;"">","null","","","","","","","","","",""
"","image-keyboard-response","234","204301","0.0-234.0","39K0FND3AI14IIM0FMO9CV81FD2AMF","A12Q4BP1S02YWS","3JUDR1D0D6D4CARU3YX9Y3DK5DJ2QK","","395","img/land6.png","75","397","2","1","1","2","0.8,0.2,0.2,0.2,0.8,0.2,0.2,0.2,0.8","0.8,0.2,0.2,0.2,0.8,0.2,0.2,0.2,0.8","1","",""
"","html-keyboard-response","235","204621","0.0-235.0","39K0FND3AI14IIM0FMO9CV81FD2AMF","A12Q4BP1S02YWS","3JUDR1D0D6D4CARU3YX9Y3DK5DJ2QK","","null","<img src=""img/land6.png"" style=""width:200px; border:14px solid green;"">","null","","","","","","","","","",""
"","image-keyboard-response","236","204850","0.0-236.0","39K0FND3AI14IIM0FMO9CV81FD2AMF","A12Q4BP1S02YWS","3JUDR1D0D6D4CARU3YX9Y3DK5DJ2QK","","228","img/land6.png","75","228","2","0","1","2","0.8,0.2,0.2,0.2,0.8,0.2,0.2,0.2,0.8","0.8,0.2,0.2,0.2,0.8,0.2,0.2,0.2,0.8","1","",""
"","html-keyboard-response","237","205153","0.0-237.0","39K0FND3AI14IIM0FMO9CV81FD2AMF","A12Q4BP1S02YWS","3JUDR1D0D6D4CARU3YX9Y3DK5DJ2QK","","null","<img src=""img/land6.png"" style=""width:200px;border:14px solid red;"">","null","","","","","","","","","",""
"","image-keyboard-response","238","205773","0.0-238.0","39K0FND3AI14IIM0FMO9CV81FD2AMF","A12Q4BP1S02YWS","3JUDR1D0D6D4CARU3YX9Y3DK5DJ2QK","","618","img/land6.png","74","619","1","1","1","2","0.8,0.2,0.2,0.2,0.8,0.2,0.2,0.2,0.8","0.8,0.2,0.2,0.2,0.8,0.2,0.2,0.2,0.8","1","",""
"","html-keyboard-response","239","206075","0.0-239.0","39K0FND3AI14IIM0FMO9CV81FD2AMF","A12Q4BP1S02YWS","3JUDR1D0D6D4CARU3YX9Y3DK5DJ2QK","","null","<img src=""img/land6.png"" style=""width:200px; border:14px solid green;"">","null","","","","","","","","","",""
"","image-keyboard-response","240","207130","0.0-240.0","39K0FND3AI14IIM0FMO9CV81FD2AMF","A12Q4BP1S02YWS","3JUDR1D0D6D4CARU3YX9Y3DK5DJ2QK","","1054","img/land2.png","75","1054","2","0","3","2","0.8,0.2,0.2,0.2,0.8,0.2,0.2,0.2,0.8","0.8,0.2,0.2,0.2,0.8,0.2,0.2,0.2,0.8","1","",""
"","html-keyboard-response","241","207432","0.0-241.0","39K0FND3AI14IIM0FMO9CV81FD2AMF","A12Q4BP1S02YWS","3JUDR1D0D6D4CARU3YX9Y3DK5DJ2QK","","null","<img src=""img/land2.png"" style=""width:200px;border:14px solid red;"">","null","","","","","","","","","",""
"","image-keyboard-response","242","208120","0.0-242.0","39K0FND3AI14IIM0FMO9CV81FD2AMF","A12Q4BP1S02YWS","3JUDR1D0D6D4CARU3YX9Y3DK5DJ2QK","","687","img/land6.png","76","689","3","0","1","2","0.8,0.2,0.2,0.2,0.8,0.2,0.2,0.2,0.8","0.8,0.2,0.2,0.2,0.8,0.2,0.2,0.2,0.8","1","",""
"","html-keyboard-response","243","208423","0.0-243.0","39K0FND3AI14IIM0FMO9CV81FD2AMF","A12Q4BP1S02YWS","3JUDR1D0D6D4CARU3YX9Y3DK5DJ2QK","","null","<img src=""img/land6.png"" style=""width:200px;border:14px solid red;"">","null","","","","","","","","","",""
"","image-keyboard-response","244","208753","0.0-244.0","39K0FND3AI14IIM0FMO9CV81FD2AMF","A12Q4BP1S02YWS","3JUDR1D0D6D4CARU3YX9Y3DK5DJ2QK","","328","img/land1.png","75","330","2","1","2","2","0.8,0.2,0.2,0.2,0.8,0.2,0.2,0.2,0.8","0.8,0.2,0.2,0.2,0.8,0.2,0.2,0.2,0.8","1","",""
"","html-keyboard-response","245","209056","0.0-245.0","39K0FND3AI14IIM0FMO9CV81FD2AMF","A12Q4BP1S02YWS","3JUDR1D0D6D4CARU3YX9Y3DK5DJ2QK","","null","<img src=""img/land1.png"" style=""width:200px; border:14px solid green;"">","null","","","","","","","","","",""
"","image-keyboard-response","246","210028","0.0-246.0","39K0FND3AI14IIM0FMO9CV81FD2AMF","A12Q4BP1S02YWS","3JUDR1D0D6D4CARU3YX9Y3DK5DJ2QK","","966","img/land2.png","74","969","1","0","3","2","0.8,0.2,0.2,0.2,0.8,0.2,0.2,0.2,0.8","0.8,0.2,0.2,0.2,0.8,0.2,0.2,0.2,0.8","1","",""
"","html-keyboard-response","247","210353","0.0-247.0","39K0FND3AI14IIM0FMO9CV81FD2AMF","A12Q4BP1S02YWS","3JUDR1D0D6D4CARU3YX9Y3DK5DJ2QK","","null","<img src=""img/land2.png"" style=""width:200px;border:14px solid red;"">","null","","","","","","","","","",""
"","image-keyboard-response","248","211317","0.0-248.0","39K0FND3AI14IIM0FMO9CV81FD2AMF","A12Q4BP1S02YWS","3JUDR1D0D6D4CARU3YX9Y3DK5DJ2QK","","964","img/land6.png","75","964","2","0","1","2","0.8,0.2,0.2,0.2,0.8,0.2,0.2,0.2,0.8","0.8,0.2,0.2,0.2,0.8,0.2,0.2,0.2,0.8","1","",""
"","html-keyboard-response","249","211620","0.0-249.0","39K0FND3AI14IIM0FMO9CV81FD2AMF","A12Q4BP1S02YWS","3JUDR1D0D6D4CARU3YX9Y3DK5DJ2QK","","null","<img src=""img/land6.png"" style=""width:200px;border:14px solid red;"">","null","","","","","","","","","",""
"","image-keyboard-response","250","213081","0.0-250.0","39K0FND3AI14IIM0FMO9CV81FD2AMF","A12Q4BP1S02YWS","3JUDR1D0D6D4CARU3YX9Y3DK5DJ2QK","","1459","img/land6.png","76","1460","3","0","1","2","0.8,0.2,0.2,0.2,0.8,0.2,0.2,0.2,0.8","0.8,0.2,0.2,0.2,0.8,0.2,0.2,0.2,0.8","1","",""
"","html-keyboard-response","251","213385","0.0-251.0","39K0FND3AI14IIM0FMO9CV81FD2AMF","A12Q4BP1S02YWS","3JUDR1D0D6D4CARU3YX9Y3DK5DJ2QK","","null","<img src=""img/land6.png"" style=""width:200px;border:14px solid red;"">","null","","","","","","","","","",""
"","image-keyboard-response","252","213901","0.0-252.0","39K0FND3AI14IIM0FMO9CV81FD2AMF","A12Q4BP1S02YWS","3JUDR1D0D6D4CARU3YX9Y3DK5DJ2QK","","515","img/land6.png","75","516","2","1","1","2","0.8,0.2,0.2,0.2,0.8,0.2,0.2,0.2,0.8","0.8,0.2,0.2,0.2,0.8,0.2,0.2,0.2,0.8","1","",""
"","html-keyboard-response","253","214252","0.0-253.0","39K0FND3AI14IIM0FMO9CV81FD2AMF","A12Q4BP1S02YWS","3JUDR1D0D6D4CARU3YX9Y3DK5DJ2QK","","null","<img src=""img/land6.png"" style=""width:200px; border:14px solid green;"">","null","","","","","","","","","",""
"","image-keyboard-response","254","215443","0.0-254.0","39K0FND3AI14IIM0FMO9CV81FD2AMF","A12Q4BP1S02YWS","3JUDR1D0D6D4CARU3YX9Y3DK5DJ2QK","","1182","img/land2.png","75","1191","2","0","3","2","0.8,0.2,0.2,0.2,0.8,0.2,0.2,0.2,0.8","0.8,0.2,0.2,0.2,0.8,0.2,0.2,0.2,0.8","1","",""
"","html-keyboard-response","255","215746","0.0-255.0","39K0FND3AI14IIM0FMO9CV81FD2AMF","A12Q4BP1S02YWS","3JUDR1D0D6D4CARU3YX9Y3DK5DJ2QK","","null","<img src=""img/land2.png"" style=""width:200px;border:14px solid red;"">","null","","","","","","","","","",""
"","image-keyboard-response","256","216250","0.0-256.0","39K0FND3AI14IIM0FMO9CV81FD2AMF","A12Q4BP1S02YWS","3JUDR1D0D6D4CARU3YX9Y3DK5DJ2QK","","502","img/land6.png","75","503","2","1","1","2","0.8,0.2,0.2,0.2,0.8,0.2,0.2,0.2,0.8","0.8,0.2,0.2,0.2,0.8,0.2,0.2,0.2,0.8","1","",""
"","html-keyboard-response","257","216554","0.0-257.0","39K0FND3AI14IIM0FMO9CV81FD2AMF","A12Q4BP1S02YWS","3JUDR1D0D6D4CARU3YX9Y3DK5DJ2QK","","null","<img src=""img/land6.png"" style=""width:200px; border:14px solid green;"">","null","","","","","","","","","",""
"","image-keyboard-response","258","217630","0.0-258.0","39K0FND3AI14IIM0FMO9CV81FD2AMF","A12Q4BP1S02YWS","3JUDR1D0D6D4CARU3YX9Y3DK5DJ2QK","","1074","img/land6.png","75","1076","2","0","1","2","0.8,0.2,0.2,0.2,0.8,0.2,0.2,0.2,0.8","0.8,0.2,0.2,0.2,0.8,0.2,0.2,0.2,0.8","1","",""
"","html-keyboard-response","259","217932","0.0-259.0","39K0FND3AI14IIM0FMO9CV81FD2AMF","A12Q4BP1S02YWS","3JUDR1D0D6D4CARU3YX9Y3DK5DJ2QK","","null","<img src=""img/land6.png"" style=""width:200px;border:14px solid red;"">","null","","","","","","","","","",""
"","image-keyboard-response","260","218522","0.0-260.0","39K0FND3AI14IIM0FMO9CV81FD2AMF","A12Q4BP1S02YWS","3JUDR1D0D6D4CARU3YX9Y3DK5DJ2QK","","588","img/land1.png","74","589","1","0","2","2","0.8,0.2,0.2,0.2,0.8,0.2,0.2,0.2,0.8","0.8,0.2,0.2,0.2,0.8,0.2,0.2,0.2,0.8","1","",""
"","html-keyboard-response","261","218825","0.0-261.0","39K0FND3AI14IIM0FMO9CV81FD2AMF","A12Q4BP1S02YWS","3JUDR1D0D6D4CARU3YX9Y3DK5DJ2QK","","null","<img src=""img/land1.png"" style=""width:200px;border:14px solid red;"">","null","","","","","","","","","",""
"","image-keyboard-response","262","219224","0.0-262.0","39K0FND3AI14IIM0FMO9CV81FD2AMF","A12Q4BP1S02YWS","3JUDR1D0D6D4CARU3YX9Y3DK5DJ2QK","","398","img/land6.png","75","398","2","0","1","2","0.8,0.2,0.2,0.2,0.8,0.2,0.2,0.2,0.8","0.8,0.2,0.2,0.2,0.8,0.2,0.2,0.2,0.8","1","",""
"","html-keyboard-response","263","219525","0.0-263.0","39K0FND3AI14IIM0FMO9CV81FD2AMF","A12Q4BP1S02YWS","3JUDR1D0D6D4CARU3YX9Y3DK5DJ2QK","","null","<img src=""img/land6.png"" style=""width:200px;border:14px solid red;"">","null","","","","","","","","","",""
"","image-keyboard-response","264","219950","0.0-264.0","39K0FND3AI14IIM0FMO9CV81FD2AMF","A12Q4BP1S02YWS","3JUDR1D0D6D4CARU3YX9Y3DK5DJ2QK","","422","img/land6.png","75","424","2","0","1","2","0.8,0.2,0.2,0.2,0.8,0.2,0.2,0.2,0.8","0.8,0.2,0.2,0.2,0.8,0.2,0.2,0.2,0.8","1","",""
"","html-keyboard-response","265","220255","0.0-265.0","39K0FND3AI14IIM0FMO9CV81FD2AMF","A12Q4BP1S02YWS","3JUDR1D0D6D4CARU3YX9Y3DK5DJ2QK","","null","<img src=""img/land6.png"" style=""width:200px;border:14px solid red;"">","null","","","","","","","","","",""
"","image-keyboard-response","266","220540","0.0-266.0","39K0FND3AI14IIM0FMO9CV81FD2AMF","A12Q4BP1S02YWS","3JUDR1D0D6D4CARU3YX9Y3DK5DJ2QK","","283","img/land6.png","76","284","3","0","1","2","0.8,0.2,0.2,0.2,0.8,0.2,0.2,0.2,0.8","0.8,0.2,0.2,0.2,0.8,0.2,0.2,0.2,0.8","1","",""
"","html-keyboard-response","267","220841","0.0-267.0","39K0FND3AI14IIM0FMO9CV81FD2AMF","A12Q4BP1S02YWS","3JUDR1D0D6D4CARU3YX9Y3DK5DJ2QK","","null","<img src=""img/land6.png"" style=""width:200px;border:14px solid red;"">","null","","","","","","","","","",""
"","image-keyboard-response","268","221099","0.0-268.0","39K0FND3AI14IIM0FMO9CV81FD2AMF","A12Q4BP1S02YWS","3JUDR1D0D6D4CARU3YX9Y3DK5DJ2QK","","256","img/land2.png","75","258","2","0","3","2","0.8,0.2,0.2,0.2,0.8,0.2,0.2,0.2,0.8","0.8,0.2,0.2,0.2,0.8,0.2,0.2,0.2,0.8","1","",""
"","html-keyboard-response","269","221406","0.0-269.0","39K0FND3AI14IIM0FMO9CV81FD2AMF","A12Q4BP1S02YWS","3JUDR1D0D6D4CARU3YX9Y3DK5DJ2QK","","null","<img src=""img/land2.png"" style=""width:200px;border:14px solid red;"">","null","","","","","","","","","",""
"","image-keyboard-response","270","221711","0.0-270.0","39K0FND3AI14IIM0FMO9CV81FD2AMF","A12Q4BP1S02YWS","3JUDR1D0D6D4CARU3YX9Y3DK5DJ2QK","","302","img/land1.png","74","304","1","0","2","2","0.8,0.2,0.2,0.2,0.8,0.2,0.2,0.2,0.8","0.8,0.2,0.2,0.2,0.8,0.2,0.2,0.2,0.8","1","",""
"","html-keyboard-response","271","222014","0.0-271.0","39K0FND3AI14IIM0FMO9CV81FD2AMF","A12Q4BP1S02YWS","3JUDR1D0D6D4CARU3YX9Y3DK5DJ2QK","","null","<img src=""img/land1.png"" style=""width:200px;border:14px solid red;"">","null","","","","","","","","","",""
"","image-keyboard-response","272","222642","0.0-272.0","39K0FND3AI14IIM0FMO9CV81FD2AMF","A12Q4BP1S02YWS","3JUDR1D0D6D4CARU3YX9Y3DK5DJ2QK","","626","img/land6.png","75","628","2","0","1","2","0.8,0.2,0.2,0.2,0.8,0.2,0.2,0.2,0.8","0.8,0.2,0.2,0.2,0.8,0.2,0.2,0.2,0.8","1","",""
"","html-keyboard-response","273","222966","0.0-273.0","39K0FND3AI14IIM0FMO9CV81FD2AMF","A12Q4BP1S02YWS","3JUDR1D0D6D4CARU3YX9Y3DK5DJ2QK","","null","<img src=""img/land6.png"" style=""width:200px;border:14px solid red;"">","null","","","","","","","","","",""
"","image-keyboard-response","274","223362","0.0-274.0","39K0FND3AI14IIM0FMO9CV81FD2AMF","A12Q4BP1S02YWS","3JUDR1D0D6D4CARU3YX9Y3DK5DJ2QK","","395","img/land1.png","75","396","2","1","2","2","0.8,0.2,0.2,0.2,0.8,0.2,0.2,0.2,0.8","0.8,0.2,0.2,0.2,0.8,0.2,0.2,0.2,0.8","1","",""
"","html-keyboard-response","275","223749","0.0-275.0","39K0FND3AI14IIM0FMO9CV81FD2AMF","A12Q4BP1S02YWS","3JUDR1D0D6D4CARU3YX9Y3DK5DJ2QK","","null","<img src=""img/land1.png"" style=""width:200px; border:14px solid green;"">","null","","","","","","","","","",""
"","image-keyboard-response","276","224225","0.0-276.0","39K0FND3AI14IIM0FMO9CV81FD2AMF","A12Q4BP1S02YWS","3JUDR1D0D6D4CARU3YX9Y3DK5DJ2QK","","475","img/land1.png","76","476","3","0","2","2","0.8,0.2,0.2,0.2,0.8,0.2,0.2,0.2,0.8","0.8,0.2,0.2,0.2,0.8,0.2,0.2,0.2,0.8","1","",""
"","html-keyboard-response","277","224530","0.0-277.0","39K0FND3AI14IIM0FMO9CV81FD2AMF","A12Q4BP1S02YWS","3JUDR1D0D6D4CARU3YX9Y3DK5DJ2QK","","null","<img src=""img/land1.png"" style=""width:200px;border:14px solid red;"">","null","","","","","","","","","",""
"","image-keyboard-response","278","224887","0.0-278.0","39K0FND3AI14IIM0FMO9CV81FD2AMF","A12Q4BP1S02YWS","3JUDR1D0D6D4CARU3YX9Y3DK5DJ2QK","","353","img/land1.png","75","356","2","1","2","2","0.8,0.2,0.2,0.2,0.8,0.2,0.2,0.2,0.8","0.8,0.2,0.2,0.2,0.8,0.2,0.2,0.2,0.8","1","",""
"","html-keyboard-response","279","225190","0.0-279.0","39K0FND3AI14IIM0FMO9CV81FD2AMF","A12Q4BP1S02YWS","3JUDR1D0D6D4CARU3YX9Y3DK5DJ2QK","","null","<img src=""img/land1.png"" style=""width:200px; border:14px solid green;"">","null","","","","","","","","","",""
"","image-keyboard-response","280","226203","0.0-280.0","39K0FND3AI14IIM0FMO9CV81FD2AMF","A12Q4BP1S02YWS","3JUDR1D0D6D4CARU3YX9Y3DK5DJ2QK","","1007","img/land6.png","74","1012","1","1","1","2","0.8,0.2,0.2,0.2,0.8,0.2,0.2,0.2,0.8","0.8,0.2,0.2,0.2,0.8,0.2,0.2,0.2,0.8","1","",""
"","html-keyboard-response","281","226506","0.0-281.0","39K0FND3AI14IIM0FMO9CV81FD2AMF","A12Q4BP1S02YWS","3JUDR1D0D6D4CARU3YX9Y3DK5DJ2QK","","null","<img src=""img/land6.png"" style=""width:200px; border:14px solid green;"">","null","","","","","","","","","",""
"","image-keyboard-response","282","227899","0.0-282.0","39K0FND3AI14IIM0FMO9CV81FD2AMF","A12Q4BP1S02YWS","3JUDR1D0D6D4CARU3YX9Y3DK5DJ2QK","","1384","img/land6.png","74","1389","1","1","1","2","0.8,0.2,0.2,0.2,0.8,0.2,0.2,0.2,0.8","0.8,0.2,0.2,0.2,0.8,0.2,0.2,0.2,0.8","1","",""
"","html-keyboard-response","283","228202","0.0-283.0","39K0FND3AI14IIM0FMO9CV81FD2AMF","A12Q4BP1S02YWS","3JUDR1D0D6D4CARU3YX9Y3DK5DJ2QK","","null","<img src=""img/land6.png"" style=""width:200px; border:14px solid green;"">","null","","","","","","","","","",""
"","image-keyboard-response","284","228989","0.0-284.0","39K0FND3AI14IIM0FMO9CV81FD2AMF","A12Q4BP1S02YWS","3JUDR1D0D6D4CARU3YX9Y3DK5DJ2QK","","784","img/land2.png","75","784","2","0","3","2","0.8,0.2,0.2,0.2,0.8,0.2,0.2,0.2,0.8","0.8,0.2,0.2,0.2,0.8,0.2,0.2,0.2,0.8","1","",""
"","html-keyboard-response","285","229293","0.0-285.0","39K0FND3AI14IIM0FMO9CV81FD2AMF","A12Q4BP1S02YWS","3JUDR1D0D6D4CARU3YX9Y3DK5DJ2QK","","null","<img src=""img/land2.png"" style=""width:200px;border:14px solid red;"">","null","","","","","","","","","",""
"","image-keyboard-response","286","230408","0.0-286.0","39K0FND3AI14IIM0FMO9CV81FD2AMF","A12Q4BP1S02YWS","3JUDR1D0D6D4CARU3YX9Y3DK5DJ2QK","","1112","img/land6.png","74","1115","1","1","1","2","0.8,0.2,0.2,0.2,0.8,0.2,0.2,0.2,0.8","0.8,0.2,0.2,0.2,0.8,0.2,0.2,0.2,0.8","1","",""
"","html-keyboard-response","287","230712","0.0-287.0","39K0FND3AI14IIM0FMO9CV81FD2AMF","A12Q4BP1S02YWS","3JUDR1D0D6D4CARU3YX9Y3DK5DJ2QK","","null","<img src=""img/land6.png"" style=""width:200px; border:14px solid green;"">","null","","","","","","","","","",""
"","image-keyboard-response","288","231739","0.0-288.0","39K0FND3AI14IIM0FMO9CV81FD2AMF","A12Q4BP1S02YWS","3JUDR1D0D6D4CARU3YX9Y3DK5DJ2QK","","1026","img/land6.png","74","1027","1","0","1","2","0.8,0.2,0.2,0.2,0.8,0.2,0.2,0.2,0.8","0.8,0.2,0.2,0.2,0.8,0.2,0.2,0.2,0.8","1","",""
"","html-keyboard-response","289","232042","0.0-289.0","39K0FND3AI14IIM0FMO9CV81FD2AMF","A12Q4BP1S02YWS","3JUDR1D0D6D4CARU3YX9Y3DK5DJ2QK","","null","<img src=""img/land6.png"" style=""width:200px;border:14px solid red;"">","null","","","","","","","","","",""
"","image-keyboard-response","290","232590","0.0-290.0","39K0FND3AI14IIM0FMO9CV81FD2AMF","A12Q4BP1S02YWS","3JUDR1D0D6D4CARU3YX9Y3DK5DJ2QK","","543","img/land2.png","75","547","2","0","3","2","0.8,0.2,0.2,0.2,0.8,0.2,0.2,0.2,0.8","0.8,0.2,0.2,0.2,0.8,0.2,0.2,0.2,0.8","1","",""
"","html-keyboard-response","291","232892","0.0-291.0","39K0FND3AI14IIM0FMO9CV81FD2AMF","A12Q4BP1S02YWS","3JUDR1D0D6D4CARU3YX9Y3DK5DJ2QK","","null","<img src=""img/land2.png"" style=""width:200px;border:14px solid red;"">","null","","","","","","","","","",""
"","image-keyboard-response","292","233516","0.0-292.0","39K0FND3AI14IIM0FMO9CV81FD2AMF","A12Q4BP1S02YWS","3JUDR1D0D6D4CARU3YX9Y3DK5DJ2QK","","622","img/land6.png","75","623","2","0","1","2","0.8,0.2,0.2,0.2,0.8,0.2,0.2,0.2,0.8","0.8,0.2,0.2,0.2,0.8,0.2,0.2,0.2,0.8","1","",""
"","html-keyboard-response","293","233818","0.0-293.0","39K0FND3AI14IIM0FMO9CV81FD2AMF","A12Q4BP1S02YWS","3JUDR1D0D6D4CARU3YX9Y3DK5DJ2QK","","null","<img src=""img/land6.png"" style=""width:200px;border:14px solid red;"">","null","","","","","","","","","",""
"","image-keyboard-response","294","234499","0.0-294.0","39K0FND3AI14IIM0FMO9CV81FD2AMF","A12Q4BP1S02YWS","3JUDR1D0D6D4CARU3YX9Y3DK5DJ2QK","","679","img/land6.png","76","681","3","1","1","2","0.8,0.2,0.2,0.2,0.8,0.2,0.2,0.2,0.8","0.8,0.2,0.2,0.2,0.8,0.2,0.2,0.2,0.8","1","",""
"","html-keyboard-response","295","234802","0.0-295.0","39K0FND3AI14IIM0FMO9CV81FD2AMF","A12Q4BP1S02YWS","3JUDR1D0D6D4CARU3YX9Y3DK5DJ2QK","","null","<img src=""img/land6.png"" style=""width:200px; border:14px solid green;"">","null","","","","","","","","","",""
"","image-keyboard-response","296","235593","0.0-296.0","39K0FND3AI14IIM0FMO9CV81FD2AMF","A12Q4BP1S02YWS","3JUDR1D0D6D4CARU3YX9Y3DK5DJ2QK","","789","img/land2.png","75","791","2","1","3","2","0.8,0.2,0.2,0.2,0.8,0.2,0.2,0.2,0.8","0.8,0.2,0.2,0.2,0.8,0.2,0.2,0.2,0.8","1","",""
"","html-keyboard-response","297","235898","0.0-297.0","39K0FND3AI14IIM0FMO9CV81FD2AMF","A12Q4BP1S02YWS","3JUDR1D0D6D4CARU3YX9Y3DK5DJ2QK","","null","<img src=""img/land2.png"" style=""width:200px; border:14px solid green;"">","null","","","","","","","","","",""
"","image-keyboard-response","298","236522","0.0-298.0","39K0FND3AI14IIM0FMO9CV81FD2AMF","A12Q4BP1S02YWS","3JUDR1D0D6D4CARU3YX9Y3DK5DJ2QK","","621","img/land6.png","74","623","1","1","1","2","0.8,0.2,0.2,0.2,0.8,0.2,0.2,0.2,0.8","0.8,0.2,0.2,0.2,0.8,0.2,0.2,0.2,0.8","1","",""
"","html-keyboard-response","299","236823","0.0-299.0","39K0FND3AI14IIM0FMO9CV81FD2AMF","A12Q4BP1S02YWS","3JUDR1D0D6D4CARU3YX9Y3DK5DJ2QK","","null","<img src=""img/land6.png"" style=""width:200px; border:14px solid green;"">","null","","","","","","","","","",""
"","image-keyboard-response","300","237289","0.0-300.0","39K0FND3AI14IIM0FMO9CV81FD2AMF","A12Q4BP1S02YWS","3JUDR1D0D6D4CARU3YX9Y3DK5DJ2QK","","464","img/land6.png","75","465","2","0","1","2","0.8,0.2,0.2,0.2,0.8,0.2,0.2,0.2,0.8","0.8,0.2,0.2,0.2,0.8,0.2,0.2,0.2,0.8","1","",""
"","html-keyboard-response","301","237590","0.0-301.0","39K0FND3AI14IIM0FMO9CV81FD2AMF","A12Q4BP1S02YWS","3JUDR1D0D6D4CARU3YX9Y3DK5DJ2QK","","null","<img src=""img/land6.png"" style=""width:200px;border:14px solid red;"">","null","","","","","","","","","",""
"","image-keyboard-response","302","238092","0.0-302.0","39K0FND3AI14IIM0FMO9CV81FD2AMF","A12Q4BP1S02YWS","3JUDR1D0D6D4CARU3YX9Y3DK5DJ2QK","","499","img/land4.png","76","500","3","0","1","1","0.8,0.2,0.2,0.2,0.8,0.2,0.2,0.2,0.8","0.8,0.2,0.2,0.2,0.8,0.2,0.2,0.2,0.8","1","",""
"","html-keyboard-response","303","238395","0.0-303.0","39K0FND3AI14IIM0FMO9CV81FD2AMF","A12Q4BP1S02YWS","3JUDR1D0D6D4CARU3YX9Y3DK5DJ2QK","","null","<img src=""img/land4.png"" style=""width:200px;border:14px solid red;"">","null","","","","","","","","","",""
"","image-keyboard-response","304","238626","0.0-304.0","39K0FND3AI14IIM0FMO9CV81FD2AMF","A12Q4BP1S02YWS","3JUDR1D0D6D4CARU3YX9Y3DK5DJ2QK","","228","img/land5.png","75","231","2","1","2","1","0.8,0.2,0.2,0.2,0.8,0.2,0.2,0.2,0.8","0.8,0.2,0.2,0.2,0.8,0.2,0.2,0.2,0.8","1","",""
"","html-keyboard-response","305","238929","0.0-305.0","39K0FND3AI14IIM0FMO9CV81FD2AMF","A12Q4BP1S02YWS","3JUDR1D0D6D4CARU3YX9Y3DK5DJ2QK","","null","<img src=""img/land5.png"" style=""width:200px; border:14px solid green;"">","null","","","","","","","","","",""
"","image-keyboard-response","306","239485","0.0-306.0","39K0FND3AI14IIM0FMO9CV81FD2AMF","A12Q4BP1S02YWS","3JUDR1D0D6D4CARU3YX9Y3DK5DJ2QK","","554","img/land5.png","74","556","1","0","2","1","0.8,0.2,0.2,0.2,0.8,0.2,0.2,0.2,0.8","0.8,0.2,0.2,0.2,0.8,0.2,0.2,0.2,0.8","1","",""
"","html-keyboard-response","307","239788","0.0-307.0","39K0FND3AI14IIM0FMO9CV81FD2AMF","A12Q4BP1S02YWS","3JUDR1D0D6D4CARU3YX9Y3DK5DJ2QK","","null","<img src=""img/land5.png"" style=""width:200px;border:14px solid red;"">","null","","","","","","","","","",""
"","image-keyboard-response","308","240703","0.0-308.0","39K0FND3AI14IIM0FMO9CV81FD2AMF","A12Q4BP1S02YWS","3JUDR1D0D6D4CARU3YX9Y3DK5DJ2QK","","912","img/land5.png","74","915","1","0","2","1","0.8,0.2,0.2,0.2,0.8,0.2,0.2,0.2,0.8","0.8,0.2,0.2,0.2,0.8,0.2,0.2,0.2,0.8","1","",""
"","html-keyboard-response","309","241006","0.0-309.0","39K0FND3AI14IIM0FMO9CV81FD2AMF","A12Q4BP1S02YWS","3JUDR1D0D6D4CARU3YX9Y3DK5DJ2QK","","null","<img src=""img/land5.png"" style=""width:200px;border:14px solid red;"">","null","","","","","","","","","",""
"","image-keyboard-response","310","241224","0.0-310.0","39K0FND3AI14IIM0FMO9CV81FD2AMF","A12Q4BP1S02YWS","3JUDR1D0D6D4CARU3YX9Y3DK5DJ2QK","","217","img/land5.png","75","218","2","1","2","1","0.8,0.2,0.2,0.2,0.8,0.2,0.2,0.2,0.8","0.8,0.2,0.2,0.2,0.8,0.2,0.2,0.2,0.8","1","",""
"","html-keyboard-response","311","241527","0.0-311.0","39K0FND3AI14IIM0FMO9CV81FD2AMF","A12Q4BP1S02YWS","3JUDR1D0D6D4CARU3YX9Y3DK5DJ2QK","","null","<img src=""img/land5.png"" style=""width:200px; border:14px solid green;"">","null","","","","","","","","","",""
"","image-keyboard-response","312","242208","0.0-312.0","39K0FND3AI14IIM0FMO9CV81FD2AMF","A12Q4BP1S02YWS","3JUDR1D0D6D4CARU3YX9Y3DK5DJ2QK","","679","img/land5.png","75","680","2","0","2","1","0.8,0.2,0.2,0.2,0.8,0.2,0.2,0.2,0.8","0.8,0.2,0.2,0.2,0.8,0.2,0.2,0.2,0.8","1","",""
"","html-keyboard-response","313","242510","0.0-313.0","39K0FND3AI14IIM0FMO9CV81FD2AMF","A12Q4BP1S02YWS","3JUDR1D0D6D4CARU3YX9Y3DK5DJ2QK","","null","<img src=""img/land5.png"" style=""width:200px;border:14px solid red;"">","null","","","","","","","","","",""
"","image-keyboard-response","314","243289","0.0-314.0","39K0FND3AI14IIM0FMO9CV81FD2AMF","A12Q4BP1S02YWS","3JUDR1D0D6D4CARU3YX9Y3DK5DJ2QK","","777","img/land5.png","74","778","1","1","2","1","0.8,0.2,0.2,0.2,0.8,0.2,0.2,0.2,0.8","0.8,0.2,0.2,0.2,0.8,0.2,0.2,0.2,0.8","1","",""
"","html-keyboard-response","315","243592","0.0-315.0","39K0FND3AI14IIM0FMO9CV81FD2AMF","A12Q4BP1S02YWS","3JUDR1D0D6D4CARU3YX9Y3DK5DJ2QK","","null","<img src=""img/land5.png"" style=""width:200px; border:14px solid green;"">","null","","","","","","","","","",""
"","image-keyboard-response","316","243855","0.0-316.0","39K0FND3AI14IIM0FMO9CV81FD2AMF","A12Q4BP1S02YWS","3JUDR1D0D6D4CARU3YX9Y3DK5DJ2QK","","260","img/land3.png","75","262","2","0","3","1","0.8,0.2,0.2,0.2,0.8,0.2,0.2,0.2,0.8","0.8,0.2,0.2,0.2,0.8,0.2,0.2,0.2,0.8","1","",""
"","html-keyboard-response","317","244156","0.0-317.0","39K0FND3AI14IIM0FMO9CV81FD2AMF","A12Q4BP1S02YWS","3JUDR1D0D6D4CARU3YX9Y3DK5DJ2QK","","null","<img src=""img/land3.png"" style=""width:200px;border:14px solid red;"">","null","","","","","","","","","",""
"","image-keyboard-response","318","244677","0.0-318.0","39K0FND3AI14IIM0FMO9CV81FD2AMF","A12Q4BP1S02YWS","3JUDR1D0D6D4CARU3YX9Y3DK5DJ2QK","","519","img/land3.png","76","520","3","1","3","1","0.8,0.2,0.2,0.2,0.8,0.2,0.2,0.2,0.8","0.8,0.2,0.2,0.2,0.8,0.2,0.2,0.2,0.8","1","",""
"","html-keyboard-response","319","244978","0.0-319.0","39K0FND3AI14IIM0FMO9CV81FD2AMF","A12Q4BP1S02YWS","3JUDR1D0D6D4CARU3YX9Y3DK5DJ2QK","","null","<img src=""img/land3.png"" style=""width:200px; border:14px solid green;"">","null","","","","","","","","","",""
"","image-keyboard-response","320","245539","0.0-320.0","39K0FND3AI14IIM0FMO9CV81FD2AMF","A12Q4BP1S02YWS","3JUDR1D0D6D4CARU3YX9Y3DK5DJ2QK","","557","img/land5.png","76","560","3","0","2","1","0.8,0.2,0.2,0.2,0.8,0.2,0.2,0.2,0.8","0.8,0.2,0.2,0.2,0.8,0.2,0.2,0.2,0.8","1","",""
"","html-keyboard-response","321","245840","0.0-321.0","39K0FND3AI14IIM0FMO9CV81FD2AMF","A12Q4BP1S02YWS","3JUDR1D0D6D4CARU3YX9Y3DK5DJ2QK","","null","<img src=""img/land5.png"" style=""width:200px;border:14px solid red;"">","null","","","","","","","","","",""
"","image-keyboard-response","322","246331","0.0-322.0","39K0FND3AI14IIM0FMO9CV81FD2AMF","A12Q4BP1S02YWS","3JUDR1D0D6D4CARU3YX9Y3DK5DJ2QK","","489","img/land3.png","75","491","2","0","3","1","0.8,0.2,0.2,0.2,0.8,0.2,0.2,0.2,0.8","0.8,0.2,0.2,0.2,0.8,0.2,0.2,0.2,0.8","1","",""
"","html-keyboard-response","323","246811","0.0-323.0","39K0FND3AI14IIM0FMO9CV81FD2AMF","A12Q4BP1S02YWS","3JUDR1D0D6D4CARU3YX9Y3DK5DJ2QK","","null","<img src=""img/land3.png"" style=""width:200px;border:14px solid red;"">","null","","","","","","","","","",""
"","image-keyboard-response","324","247259","0.0-324.0","39K0FND3AI14IIM0FMO9CV81FD2AMF","A12Q4BP1S02YWS","3JUDR1D0D6D4CARU3YX9Y3DK5DJ2QK","","445","img/land4.png","76","447","3","0","1","1","0.8,0.2,0.2,0.2,0.8,0.2,0.2,0.2,0.8","0.8,0.2,0.2,0.2,0.8,0.2,0.2,0.2,0.8","1","",""
"","html-keyboard-response","325","247564","0.0-325.0","39K0FND3AI14IIM0FMO9CV81FD2AMF","A12Q4BP1S02YWS","3JUDR1D0D6D4CARU3YX9Y3DK5DJ2QK","","null","<img src=""img/land4.png"" style=""width:200px;border:14px solid red;"">","null","","","","","","","","","",""
"","image-keyboard-response","326","249447","0.0-326.0","39K0FND3AI14IIM0FMO9CV81FD2AMF","A12Q4BP1S02YWS","3JUDR1D0D6D4CARU3YX9Y3DK5DJ2QK","","1880","img/land5.png","75","1883","2","1","2","1","0.8,0.2,0.2,0.2,0.8,0.2,0.2,0.2,0.8","0.8,0.2,0.2,0.2,0.8,0.2,0.2,0.2,0.8","1","",""
"","html-keyboard-response","327","249750","0.0-327.0","39K0FND3AI14IIM0FMO9CV81FD2AMF","A12Q4BP1S02YWS","3JUDR1D0D6D4CARU3YX9Y3DK5DJ2QK","","null","<img src=""img/land5.png"" style=""width:200px; border:14px solid green;"">","null","","","","","","","","","",""
"","image-keyboard-response","328","250447","0.0-328.0","39K0FND3AI14IIM0FMO9CV81FD2AMF","A12Q4BP1S02YWS","3JUDR1D0D6D4CARU3YX9Y3DK5DJ2QK","","695","img/land3.png","76","696","3","0","3","1","0.8,0.2,0.2,0.2,0.8,0.2,0.2,0.2,0.8","0.8,0.2,0.2,0.2,0.8,0.2,0.2,0.2,0.8","1","",""
"","html-keyboard-response","329","250757","0.0-329.0","39K0FND3AI14IIM0FMO9CV81FD2AMF","A12Q4BP1S02YWS","3JUDR1D0D6D4CARU3YX9Y3DK5DJ2QK","","null","<img src=""img/land3.png"" style=""width:200px;border:14px solid red;"">","null","","","","","","","","","",""
"","image-keyboard-response","330","252354","0.0-330.0","39K0FND3AI14IIM0FMO9CV81FD2AMF","A12Q4BP1S02YWS","3JUDR1D0D6D4CARU3YX9Y3DK5DJ2QK","","1593","img/land4.png","75","1595","2","0","1","1","0.8,0.2,0.2,0.2,0.8,0.2,0.2,0.2,0.8","0.8,0.2,0.2,0.2,0.8,0.2,0.2,0.2,0.8","1","",""
"","html-keyboard-response","331","252656","0.0-331.0","39K0FND3AI14IIM0FMO9CV81FD2AMF","A12Q4BP1S02YWS","3JUDR1D0D6D4CARU3YX9Y3DK5DJ2QK","","null","<img src=""img/land4.png"" style=""width:200px;border:14px solid red;"">","null","","","","","","","","","",""
"","image-keyboard-response","332","253673","0.0-332.0","39K0FND3AI14IIM0FMO9CV81FD2AMF","A12Q4BP1S02YWS","3JUDR1D0D6D4CARU3YX9Y3DK5DJ2QK","","1014","img/land5.png","76","1016","3","0","2","1","0.8,0.2,0.2,0.2,0.8,0.2,0.2,0.2,0.8","0.8,0.2,0.2,0.2,0.8,0.2,0.2,0.2,0.8","1","",""
"","html-keyboard-response","333","253975","0.0-333.0","39K0FND3AI14IIM0FMO9CV81FD2AMF","A12Q4BP1S02YWS","3JUDR1D0D6D4CARU3YX9Y3DK5DJ2QK","","null","<img src=""img/land5.png"" style=""width:200px;border:14px solid red;"">","null","","","","","","","","","",""
"","image-keyboard-response","334","254290","0.0-334.0","39K0FND3AI14IIM0FMO9CV81FD2AMF","A12Q4BP1S02YWS","3JUDR1D0D6D4CARU3YX9Y3DK5DJ2QK","","312","img/land5.png","75","314","2","1","2","1","0.8,0.2,0.2,0.2,0.8,0.2,0.2,0.2,0.8","0.8,0.2,0.2,0.2,0.8,0.2,0.2,0.2,0.8","1","",""
"","html-keyboard-response","335","254593","0.0-335.0","39K0FND3AI14IIM0FMO9CV81FD2AMF","A12Q4BP1S02YWS","3JUDR1D0D6D4CARU3YX9Y3DK5DJ2QK","","null","<img src=""img/land5.png"" style=""width:200px; border:14px solid green;"">","null","","","","","","","","","",""
"","image-keyboard-response","336","255554","0.0-336.0","39K0FND3AI14IIM0FMO9CV81FD2AMF","A12Q4BP1S02YWS","3JUDR1D0D6D4CARU3YX9Y3DK5DJ2QK","","958","img/land3.png","76","961","3","1","3","1","0.8,0.2,0.2,0.2,0.8,0.2,0.2,0.2,0.8","0.8,0.2,0.2,0.2,0.8,0.2,0.2,0.2,0.8","1","",""
"","html-keyboard-response","337","255856","0.0-337.0","39K0FND3AI14IIM0FMO9CV81FD2AMF","A12Q4BP1S02YWS","3JUDR1D0D6D4CARU3YX9Y3DK5DJ2QK","","null","<img src=""img/land3.png"" style=""width:200px; border:14px solid green;"">","null","","","","","","","","","",""
"","image-keyboard-response","338","257024","0.0-338.0","39K0FND3AI14IIM0FMO9CV81FD2AMF","A12Q4BP1S02YWS","3JUDR1D0D6D4CARU3YX9Y3DK5DJ2QK","","1159","img/land5.png","75","1163","2","1","2","1","0.8,0.2,0.2,0.2,0.8,0.2,0.2,0.2,0.8","0.8,0.2,0.2,0.2,0.8,0.2,0.2,0.2,0.8","1","",""
"","html-keyboard-response","339","257335","0.0-339.0","39K0FND3AI14IIM0FMO9CV81FD2AMF","A12Q4BP1S02YWS","3JUDR1D0D6D4CARU3YX9Y3DK5DJ2QK","","null","<img src=""img/land5.png"" style=""width:200px; border:14px solid green;"">","null","","","","","","","","","",""
"","image-keyboard-response","340","258572","0.0-340.0","39K0FND3AI14IIM0FMO9CV81FD2AMF","A12Q4BP1S02YWS","3JUDR1D0D6D4CARU3YX9Y3DK5DJ2QK","","1229","img/land5.png","75","1236","2","1","2","1","0.8,0.2,0.2,0.2,0.8,0.2,0.2,0.2,0.8","0.8,0.2,0.2,0.2,0.8,0.2,0.2,0.2,0.8","1","",""
"","html-keyboard-response","341","258874","0.0-341.0","39K0FND3AI14IIM0FMO9CV81FD2AMF","A12Q4BP1S02YWS","3JUDR1D0D6D4CARU3YX9Y3DK5DJ2QK","","null","<img src=""img/land5.png"" style=""width:200px; border:14px solid green;"">","null","","","","","","","","","",""
"","image-keyboard-response","342","259693","0.0-342.0","39K0FND3AI14IIM0FMO9CV81FD2AMF","A12Q4BP1S02YWS","3JUDR1D0D6D4CARU3YX9Y3DK5DJ2QK","","816","img/land3.png","76","818","3","1","3","1","0.8,0.2,0.2,0.2,0.8,0.2,0.2,0.2,0.8","0.8,0.2,0.2,0.2,0.8,0.2,0.2,0.2,0.8","1","",""
"","html-keyboard-response","343","259994","0.0-343.0","39K0FND3AI14IIM0FMO9CV81FD2AMF","A12Q4BP1S02YWS","3JUDR1D0D6D4CARU3YX9Y3DK5DJ2QK","","null","<img src=""img/land3.png"" style=""width:200px; border:14px solid green;"">","null","","","","","","","","","",""
"","image-keyboard-response","344","260955","0.0-344.0","39K0FND3AI14IIM0FMO9CV81FD2AMF","A12Q4BP1S02YWS","3JUDR1D0D6D4CARU3YX9Y3DK5DJ2QK","","959","img/land4.png","75","960","2","0","1","1","0.8,0.2,0.2,0.2,0.8,0.2,0.2,0.2,0.8","0.8,0.2,0.2,0.2,0.8,0.2,0.2,0.2,0.8","1","",""
"","html-keyboard-response","345","261258","0.0-345.0","39K0FND3AI14IIM0FMO9CV81FD2AMF","A12Q4BP1S02YWS","3JUDR1D0D6D4CARU3YX9Y3DK5DJ2QK","","null","<img src=""img/land4.png"" style=""width:200px;border:14px solid red;"">","null","","","","","","","","","",""
"","image-keyboard-response","346","261720","0.0-346.0","39K0FND3AI14IIM0FMO9CV81FD2AMF","A12Q4BP1S02YWS","3JUDR1D0D6D4CARU3YX9Y3DK5DJ2QK","","459","img/land3.png","74","461","1","0","3","1","0.8,0.2,0.2,0.2,0.8,0.2,0.2,0.2,0.8","0.8,0.2,0.2,0.2,0.8,0.2,0.2,0.2,0.8","1","",""
"","html-keyboard-response","347","262022","0.0-347.0","39K0FND3AI14IIM0FMO9CV81FD2AMF","A12Q4BP1S02YWS","3JUDR1D0D6D4CARU3YX9Y3DK5DJ2QK","","null","<img src=""img/land3.png"" style=""width:200px;border:14px solid red;"">","null","","","","","","","","","",""
"","image-keyboard-response","348","262610","0.0-348.0","39K0FND3AI14IIM0FMO9CV81FD2AMF","A12Q4BP1S02YWS","3JUDR1D0D6D4CARU3YX9Y3DK5DJ2QK","","585","img/land5.png","76","586","3","1","2","1","0.8,0.2,0.2,0.2,0.8,0.2,0.2,0.2,0.8","0.8,0.2,0.2,0.2,0.8,0.2,0.2,0.2,0.8","1","",""
"","html-keyboard-response","349","262913","0.0-349.0","39K0FND3AI14IIM0FMO9CV81FD2AMF","A12Q4BP1S02YWS","3JUDR1D0D6D4CARU3YX9Y3DK5DJ2QK","","null","<img src=""img/land5.png"" style=""width:200px; border:14px solid green;"">","null","","","","","","","","","",""
"","image-keyboard-response","350","264106","0.0-350.0","39K0FND3AI14IIM0FMO9CV81FD2AMF","A12Q4BP1S02YWS","3JUDR1D0D6D4CARU3YX9Y3DK5DJ2QK","","1187","img/land3.png","75","1189","2","0","3","1","0.8,0.2,0.2,0.2,0.8,0.2,0.2,0.2,0.8","0.8,0.2,0.2,0.2,0.8,0.2,0.2,0.2,0.8","1","",""
"","html-keyboard-response","351","264407","0.0-351.0","39K0FND3AI14IIM0FMO9CV81FD2AMF","A12Q4BP1S02YWS","3JUDR1D0D6D4CARU3YX9Y3DK5DJ2QK","","null","<img src=""img/land3.png"" style=""width:200px;border:14px solid red;"">","null","","","","","","","","","",""
"","image-keyboard-response","352","264678","0.0-352.0","39K0FND3AI14IIM0FMO9CV81FD2AMF","A12Q4BP1S02YWS","3JUDR1D0D6D4CARU3YX9Y3DK5DJ2QK","","263","img/land5.png","76","270","3","0","2","1","0.8,0.2,0.2,0.2,0.8,0.2,0.2,0.2,0.8","0.8,0.2,0.2,0.2,0.8,0.2,0.2,0.2,0.8","1","",""
"","html-keyboard-response","353","264984","0.0-353.0","39K0FND3AI14IIM0FMO9CV81FD2AMF","A12Q4BP1S02YWS","3JUDR1D0D6D4CARU3YX9Y3DK5DJ2QK","","null","<img src=""img/land5.png"" style=""width:200px;border:14px solid red;"">","null","","","","","","","","","",""
"","image-keyboard-response","354","266015","0.0-354.0","39K0FND3AI14IIM0FMO9CV81FD2AMF","A12Q4BP1S02YWS","3JUDR1D0D6D4CARU3YX9Y3DK5DJ2QK","","1028","img/land5.png","75","1033","2","1","2","1","0.8,0.2,0.2,0.2,0.8,0.2,0.2,0.2,0.8","0.8,0.2,0.2,0.2,0.8,0.2,0.2,0.2,0.8","1","",""
"","html-keyboard-response","355","266321","0.0-355.0","39K0FND3AI14IIM0FMO9CV81FD2AMF","A12Q4BP1S02YWS","3JUDR1D0D6D4CARU3YX9Y3DK5DJ2QK","","null","<img src=""img/land5.png"" style=""width:200px; border:14px solid green;"">","null","","","","","","","","","",""
"","image-keyboard-response","356","267110","0.0-356.0","39K0FND3AI14IIM0FMO9CV81FD2AMF","A12Q4BP1S02YWS","3JUDR1D0D6D4CARU3YX9Y3DK5DJ2QK","","782","img/land3.png","76","788","3","1","3","1","0.8,0.2,0.2,0.2,0.8,0.2,0.2,0.2,0.8","0.8,0.2,0.2,0.2,0.8,0.2,0.2,0.2,0.8","1","",""
"","html-keyboard-response","357","267418","0.0-357.0","39K0FND3AI14IIM0FMO9CV81FD2AMF","A12Q4BP1S02YWS","3JUDR1D0D6D4CARU3YX9Y3DK5DJ2QK","","null","<img src=""img/land3.png"" style=""width:200px; border:14px solid green;"">","null","","","","","","","","","",""
"","image-keyboard-response","358","268245","0.0-358.0","39K0FND3AI14IIM0FMO9CV81FD2AMF","A12Q4BP1S02YWS","3JUDR1D0D6D4CARU3YX9Y3DK5DJ2QK","","825","img/land3.png","76","827","3","1","3","1","0.8,0.2,0.2,0.2,0.8,0.2,0.2,0.2,0.8","0.8,0.2,0.2,0.2,0.8,0.2,0.2,0.2,0.8","1","",""
"","html-keyboard-response","359","268547","0.0-359.0","39K0FND3AI14IIM0FMO9CV81FD2AMF","A12Q4BP1S02YWS","3JUDR1D0D6D4CARU3YX9Y3DK5DJ2QK","","null","<img src=""img/land3.png"" style=""width:200px; border:14px solid green;"">","null","","","","","","","","","",""
"","image-keyboard-response","360","269926","0.0-360.0","39K0FND3AI14IIM0FMO9CV81FD2AMF","A12Q4BP1S02YWS","3JUDR1D0D6D4CARU3YX9Y3DK5DJ2QK","","1376","img/land5.png","75","1378","2","1","2","1","0.8,0.2,0.2,0.2,0.8,0.2,0.2,0.2,0.8","0.8,0.2,0.2,0.2,0.8,0.2,0.2,0.2,0.8","1","",""
"","html-keyboard-response","361","270227","0.0-361.0","39K0FND3AI14IIM0FMO9CV81FD2AMF","A12Q4BP1S02YWS","3JUDR1D0D6D4CARU3YX9Y3DK5DJ2QK","","null","<img src=""img/land5.png"" style=""width:200px; border:14px solid green;"">","null","","","","","","","","","",""
"","image-keyboard-response","362","271046","0.0-362.0","39K0FND3AI14IIM0FMO9CV81FD2AMF","A12Q4BP1S02YWS","3JUDR1D0D6D4CARU3YX9Y3DK5DJ2QK","","816","img/land3.png","76","818","3","0","3","1","0.8,0.2,0.2,0.2,0.8,0.2,0.2,0.2,0.8","0.8,0.2,0.2,0.2,0.8,0.2,0.2,0.2,0.8","1","",""
"","html-keyboard-response","363","271348","0.0-363.0","39K0FND3AI14IIM0FMO9CV81FD2AMF","A12Q4BP1S02YWS","3JUDR1D0D6D4CARU3YX9Y3DK5DJ2QK","","null","<img src=""img/land3.png"" style=""width:200px;border:14px solid red;"">","null","","","","","","","","","",""
"","image-keyboard-response","364","272240","0.0-364.0","39K0FND3AI14IIM0FMO9CV81FD2AMF","A12Q4BP1S02YWS","3JUDR1D0D6D4CARU3YX9Y3DK5DJ2QK","","889","img/land3.png","76","890","3","1","3","1","0.8,0.2,0.2,0.2,0.8,0.2,0.2,0.2,0.8","0.8,0.2,0.2,0.2,0.8,0.2,0.2,0.2,0.8","1","",""
"","html-keyboard-response","365","272544","0.0-365.0","39K0FND3AI14IIM0FMO9CV81FD2AMF","A12Q4BP1S02YWS","3JUDR1D0D6D4CARU3YX9Y3DK5DJ2QK","","null","<img src=""img/land3.png"" style=""width:200px; border:14px solid green;"">","null","","","","","","","","","",""
"","image-keyboard-response","366","273652","0.0-366.0","39K0FND3AI14IIM0FMO9CV81FD2AMF","A12Q4BP1S02YWS","3JUDR1D0D6D4CARU3YX9Y3DK5DJ2QK","","1105","img/land4.png","75","1107","2","1","1","1","0.8,0.2,0.2,0.2,0.8,0.2,0.2,0.2,0.8","0.8,0.2,0.2,0.2,0.8,0.2,0.2,0.2,0.8","1","",""
"","html-keyboard-response","367","273954","0.0-367.0","39K0FND3AI14IIM0FMO9CV81FD2AMF","A12Q4BP1S02YWS","3JUDR1D0D6D4CARU3YX9Y3DK5DJ2QK","","null","<img src=""img/land4.png"" style=""width:200px; border:14px solid green;"">","null","","","","","","","","","",""
"","image-keyboard-response","368","274844","0.0-368.0","39K0FND3AI14IIM0FMO9CV81FD2AMF","A12Q4BP1S02YWS","3JUDR1D0D6D4CARU3YX9Y3DK5DJ2QK","","886","img/land3.png","76","889","3","0","3","1","0.8,0.2,0.2,0.2,0.8,0.2,0.2,0.2,0.8","0.8,0.2,0.2,0.2,0.8,0.2,0.2,0.2,0.8","1","",""
"","html-keyboard-response","369","275147","0.0-369.0","39K0FND3AI14IIM0FMO9CV81FD2AMF","A12Q4BP1S02YWS","3JUDR1D0D6D4CARU3YX9Y3DK5DJ2QK","","null","<img src=""img/land3.png"" style=""width:200px;border:14px solid red;"">","null","","","","","","","","","",""
"","image-keyboard-response","370","275496","0.0-370.0","39K0FND3AI14IIM0FMO9CV81FD2AMF","A12Q4BP1S02YWS","3JUDR1D0D6D4CARU3YX9Y3DK5DJ2QK","","346","img/land4.png","76","349","3","0","1","1","0.8,0.2,0.2,0.2,0.8,0.2,0.2,0.2,0.8","0.8,0.2,0.2,0.2,0.8,0.2,0.2,0.2,0.8","1","",""
