"success","trial_type","trial_index","time_elapsed","internal_node_id","assignmentID","mturkID","hitID","view_history","rt","stimulus","key_press","reactionTime","a","r","s","cond","reward_cond","reward_cond_actual","reward_matrix_idx","responses","question_order"
"true","fullscreen","0","3112","0.0-0.0","3IJXV6UZ1Y5ALGIQWIC3FSQUYF1RIX","A132GRVDGXPJGY","3WRBLBQ2GRU63BU2LFOJL1G32T90GO","","","","","","","","","","","","","",""
"","instructions","1","60129","0.0-1.0","3IJXV6UZ1Y5ALGIQWIC3FSQUYF1RIX","A132GRVDGXPJGY","3WRBLBQ2GRU63BU2LFOJL1G32T90GO","[{""page_index"":0,""viewing_time"":7118.9000000059605},{""page_index"":1,""viewing_time"":4047.2000000029802},{""page_index"":2,""viewing_time"":5787.899999991059},{""page_index"":3,""viewing_time"":7695.300000011921},{""page_index"":4,""viewing_time"":13108.699999988079},{""page_index"":5,""viewing_time"":11334.5},{""page_index"":6,""viewing_time"":7921.9000000059605}]","57014.70000000298","","","","","","","","","","","",""
"","image-keyboard-response","2","60867","0.0-2.0","3IJXV6UZ1Y5ALGIQWIC3FSQUYF1RIX","A132GRVDGXPJGY","3WRBLBQ2GRU63BU2LFOJL1G32T90GO","","735.5","img/land4.png","74","737.7000000029802","1","1","1","2","0.8,0.2,0.2,0.2,0.8,0.2,0.2,0.2,0.8","0.8,0.2,0.2,0.2,0.8,0.2,0.2,0.2,0.8","1","",""
"","html-keyboard-response","3","61171","0.0-3.0","3IJXV6UZ1Y5ALGIQWIC3FSQUYF1RIX","A132GRVDGXPJGY","3WRBLBQ2GRU63BU2LFOJL1G32T90GO","","null","<img src=""img/land4.png"" style=""width:200px; border:14px solid green;"">","null","","","","","","","","","",""
"","image-keyboard-response","4","62100","0.0-4.0","3IJXV6UZ1Y5ALGIQWIC3FSQUYF1RIX","A132GRVDGXPJGY","3WRBLBQ2GRU63BU2LFOJL1G32T90GO","","926.1999999880791","img/land6.png","75","927.6000000089407","2","1","2","2","0.8,0.2,0.2,0.2,0.8,0.2,0.2,0.2,0.8","0.8,0.2,0.2,0.2,0.8,0.2,0.2,0.2,0.8","1","",""
"","html-keyboard-response","5","62401","0.0-5.0","3IJXV6UZ1Y5ALGIQWIC3FSQUYF1RIX","A132GRVDGXPJGY","3WRBLBQ2GRU63BU2LFOJL1G32T90GO","","null","<img src=""img/land6.png"" style=""width:200px; border:14px solid green;"">","null","","","","","","","","","",""
"","image-keyboard-response","6","63977","0.0-6.0","3IJXV6UZ1Y5ALGIQWIC3FSQUYF1RIX","A132GRVDGXPJGY","3WRBLBQ2GRU63BU2LFOJL1G32T90GO","","1572.8999999910593","img/land6.png","76","1575.199999988079","3","0","2","2","0.8,0.2,0.2,0.2,0.8,0.2,0.2,0.2,0.8","0.8,0.2,0.2,0.2,0.8,0.2,0.2,0.2,0.8","1","",""
"","html-keyboard-response","7","64281","0.0-7.0","3IJXV6UZ1Y5ALGIQWIC3FSQUYF1RIX","A132GRVDGXPJGY","3WRBLBQ2GRU63BU2LFOJL1G32T90GO","","null","<img src=""img/land6.png"" style=""width:200px;border:14px solid red;"">","null","","","","","","","","","",""
"","image-keyboard-response","8","65314","0.0-8.0","3IJXV6UZ1Y5ALGIQWIC3FSQUYF1RIX","A132GRVDGXPJGY","3WRBLBQ2GRU63BU2LFOJL1G32T90GO","","1030.7000000029802","img/land4.png","76","1032.7999999970198","3","0","1","2","0.8,0.2,0.2,0.2,0.8,0.2,0.2,0.2,0.8","0.8,0.2,0.2,0.2,0.8,0.2,0.2,0.2,0.8","1","",""
"","html-keyboard-response","9","65617","0.0-9.0","3IJXV6UZ1Y5ALGIQWIC3FSQUYF1RIX","A132GRVDGXPJGY","3WRBLBQ2GRU63BU2LFOJL1G32T90GO","","null","<img src=""img/land4.png"" style=""width:200px;border:14px solid red;"">","null","","","","","","","","","",""
"","image-keyboard-response","10","66262","0.0-10.0","3IJXV6UZ1Y5ALGIQWIC3FSQUYF1RIX","A132GRVDGXPJGY","3WRBLBQ2GRU63BU2LFOJL1G32T90GO","","641.4000000059605","img/land4.png","74","643.6000000089407","1","0","1","2","0.8,0.2,0.2,0.2,0.8,0.2,0.2,0.2,0.8","0.8,0.2,0.2,0.2,0.8,0.2,0.2,0.2,0.8","1","",""
"","html-keyboard-response","11","66572","0.0-11.0","3IJXV6UZ1Y5ALGIQWIC3FSQUYF1RIX","A132GRVDGXPJGY","3WRBLBQ2GRU63BU2LFOJL1G32T90GO","","null","<img src=""img/land4.png"" style=""width:200px;border:14px solid red;"">","null","","","","","","","","","",""
"","image-keyboard-response","12","67163","0.0-12.0","3IJXV6UZ1Y5ALGIQWIC3FSQUYF1RIX","A132GRVDGXPJGY","3WRBLBQ2GRU63BU2LFOJL1G32T90GO","","589.2000000029802","img/land4.png","75","591","2","0","1","2","0.8,0.2,0.2,0.2,0.8,0.2,0.2,0.2,0.8","0.8,0.2,0.2,0.2,0.8,0.2,0.2,0.2,0.8","1","",""
"","html-keyboard-response","13","67466","0.0-13.0","3IJXV6UZ1Y5ALGIQWIC3FSQUYF1RIX","A132GRVDGXPJGY","3WRBLBQ2GRU63BU2LFOJL1G32T90GO","","null","<img src=""img/land4.png"" style=""width:200px;border:14px solid red;"">","null","","","","","","","","","",""
"","image-keyboard-response","14","69477","0.0-14.0","3IJXV6UZ1Y5ALGIQWIC3FSQUYF1RIX","A132GRVDGXPJGY","3WRBLBQ2GRU63BU2LFOJL1G32T90GO","","","img/land4.png","","2011.2000000029802","-1","0","1","2","0.8,0.2,0.2,0.2,0.8,0.2,0.2,0.2,0.8","0.8,0.2,0.2,0.2,0.8,0.2,0.2,0.2,0.8","1","",""
"","html-keyboard-response","15","69780","0.0-15.0","3IJXV6UZ1Y5ALGIQWIC3FSQUYF1RIX","A132GRVDGXPJGY","3WRBLBQ2GRU63BU2LFOJL1G32T90GO","","null","<img src=""img/land4.png"" style=""width:200px;border:14px solid red;"">","null","","","","","","","","","",""
"","image-keyboard-response","16","70729","0.0-16.0","3IJXV6UZ1Y5ALGIQWIC3FSQUYF1RIX","A132GRVDGXPJGY","3WRBLBQ2GRU63BU2LFOJL1G32T90GO","","945.8999999910593","img/land6.png","74","947.9000000059605","1","1","2","2","0.8,0.2,0.2,0.2,0.8,0.2,0.2,0.2,0.8","0.8,0.2,0.2,0.2,0.8,0.2,0.2,0.2,0.8","1","",""
"","html-keyboard-response","17","71032","0.0-17.0","3IJXV6UZ1Y5ALGIQWIC3FSQUYF1RIX","A132GRVDGXPJGY","3WRBLBQ2GRU63BU2LFOJL1G32T90GO","","null","<img src=""img/land6.png"" style=""width:200px; border:14px solid green;"">","null","","","","","","","","","",""
"","image-keyboard-response","18","72422","0.0-18.0","3IJXV6UZ1Y5ALGIQWIC3FSQUYF1RIX","A132GRVDGXPJGY","3WRBLBQ2GRU63BU2LFOJL1G32T90GO","","1387.3999999910593","img/land4.png","76","1388.7999999970198","3","1","1","2","0.8,0.2,0.2,0.2,0.8,0.2,0.2,0.2,0.8","0.8,0.2,0.2,0.2,0.8,0.2,0.2,0.2,0.8","1","",""
"","html-keyboard-response","19","72724","0.0-19.0","3IJXV6UZ1Y5ALGIQWIC3FSQUYF1RIX","A132GRVDGXPJGY","3WRBLBQ2GRU63BU2LFOJL1G32T90GO","","null","<img src=""img/land4.png"" style=""width:200px; border:14px solid green;"">","null","","","","","","","","","",""
"","image-keyboard-response","20","74535","0.0-20.0","3IJXV6UZ1Y5ALGIQWIC3FSQUYF1RIX","A132GRVDGXPJGY","3WRBLBQ2GRU63BU2LFOJL1G32T90GO","","1808.8999999910593","img/land6.png","74","1810.9000000059605","1","0","2","2","0.8,0.2,0.2,0.2,0.8,0.2,0.2,0.2,0.8","0.8,0.2,0.2,0.2,0.8,0.2,0.2,0.2,0.8","1","",""
"","html-keyboard-response","21","74838","0.0-21.0","3IJXV6UZ1Y5ALGIQWIC3FSQUYF1RIX","A132GRVDGXPJGY","3WRBLBQ2GRU63BU2LFOJL1G32T90GO","","null","<img src=""img/land6.png"" style=""width:200px;border:14px solid red;"">","null","","","","","","","","","",""
"","image-keyboard-response","22","76149","0.0-22.0","3IJXV6UZ1Y5ALGIQWIC3FSQUYF1RIX","A132GRVDGXPJGY","3WRBLBQ2GRU63BU2LFOJL1G32T90GO","","1309.9000000059605","img/land4.png","76","1310.4000000059605","3","0","1","2","0.8,0.2,0.2,0.2,0.8,0.2,0.2,0.2,0.8","0.8,0.2,0.2,0.2,0.8,0.2,0.2,0.2,0.8","1","",""
"","html-keyboard-response","23","76450","0.0-23.0","3IJXV6UZ1Y5ALGIQWIC3FSQUYF1RIX","A132GRVDGXPJGY","3WRBLBQ2GRU63BU2LFOJL1G32T90GO","","null","<img src=""img/land4.png"" style=""width:200px;border:14px solid red;"">","null","","","","","","","","","",""
"","image-keyboard-response","24","78150","0.0-24.0","3IJXV6UZ1Y5ALGIQWIC3FSQUYF1RIX","A132GRVDGXPJGY","3WRBLBQ2GRU63BU2LFOJL1G32T90GO","","1699","img/land4.png","75","1699.9000000059605","2","0","1","2","0.8,0.2,0.2,0.2,0.8,0.2,0.2,0.2,0.8","0.8,0.2,0.2,0.2,0.8,0.2,0.2,0.2,0.8","1","",""
"","html-keyboard-response","25","78453","0.0-25.0","3IJXV6UZ1Y5ALGIQWIC3FSQUYF1RIX","A132GRVDGXPJGY","3WRBLBQ2GRU63BU2LFOJL1G32T90GO","","null","<img src=""img/land4.png"" style=""width:200px;border:14px solid red;"">","null","","","","","","","","","",""
"","image-keyboard-response","26","79445","0.0-26.0","3IJXV6UZ1Y5ALGIQWIC3FSQUYF1RIX","A132GRVDGXPJGY","3WRBLBQ2GRU63BU2LFOJL1G32T90GO","","990.2000000029802","img/land6.png","74","992.0999999940395","1","0","2","2","0.8,0.2,0.2,0.2,0.8,0.2,0.2,0.2,0.8","0.8,0.2,0.2,0.2,0.8,0.2,0.2,0.2,0.8","1","",""
"","html-keyboard-response","27","79750","0.0-27.0","3IJXV6UZ1Y5ALGIQWIC3FSQUYF1RIX","A132GRVDGXPJGY","3WRBLBQ2GRU63BU2LFOJL1G32T90GO","","null","<img src=""img/land6.png"" style=""width:200px;border:14px solid red;"">","null","","","","","","","","","",""
"","image-keyboard-response","28","80894","0.0-28.0","3IJXV6UZ1Y5ALGIQWIC3FSQUYF1RIX","A132GRVDGXPJGY","3WRBLBQ2GRU63BU2LFOJL1G32T90GO","","1141.5999999940395","img/land2.png","74","1143.4000000059605","1","0","3","2","0.8,0.2,0.2,0.2,0.8,0.2,0.2,0.2,0.8","0.8,0.2,0.2,0.2,0.8,0.2,0.2,0.2,0.8","1","",""
"","html-keyboard-response","29","81203","0.0-29.0","3IJXV6UZ1Y5ALGIQWIC3FSQUYF1RIX","A132GRVDGXPJGY","3WRBLBQ2GRU63BU2LFOJL1G32T90GO","","null","<img src=""img/land2.png"" style=""width:200px;border:14px solid red;"">","null","","","","","","","","","",""
"","image-keyboard-response","30","81832","0.0-30.0","3IJXV6UZ1Y5ALGIQWIC3FSQUYF1RIX","A132GRVDGXPJGY","3WRBLBQ2GRU63BU2LFOJL1G32T90GO","","626.3999999910593","img/land4.png","75","628.2999999970198","2","0","1","2","0.8,0.2,0.2,0.2,0.8,0.2,0.2,0.2,0.8","0.8,0.2,0.2,0.2,0.8,0.2,0.2,0.2,0.8","1","",""
"","html-keyboard-response","31","82145","0.0-31.0","3IJXV6UZ1Y5ALGIQWIC3FSQUYF1RIX","A132GRVDGXPJGY","3WRBLBQ2GRU63BU2LFOJL1G32T90GO","","null","<img src=""img/land4.png"" style=""width:200px;border:14px solid red;"">","null","","","","","","","","","",""
"","image-keyboard-response","32","83332","0.0-32.0","3IJXV6UZ1Y5ALGIQWIC3FSQUYF1RIX","A132GRVDGXPJGY","3WRBLBQ2GRU63BU2LFOJL1G32T90GO","","1185.2999999970198","img/land2.png","76","1186.7000000029802","3","1","3","2","0.8,0.2,0.2,0.2,0.8,0.2,0.2,0.2,0.8","0.8,0.2,0.2,0.2,0.8,0.2,0.2,0.2,0.8","1","",""
"","html-keyboard-response","33","83633","0.0-33.0","3IJXV6UZ1Y5ALGIQWIC3FSQUYF1RIX","A132GRVDGXPJGY","3WRBLBQ2GRU63BU2LFOJL1G32T90GO","","null","<img src=""img/land2.png"" style=""width:200px; border:14px solid green;"">","null","","","","","","","","","",""
"","image-keyboard-response","34","85247","0.0-34.0","3IJXV6UZ1Y5ALGIQWIC3FSQUYF1RIX","A132GRVDGXPJGY","3WRBLBQ2GRU63BU2LFOJL1G32T90GO","","1612","img/land4.png","75","1613.7999999970198","2","0","1","2","0.8,0.2,0.2,0.2,0.8,0.2,0.2,0.2,0.8","0.8,0.2,0.2,0.2,0.8,0.2,0.2,0.2,0.8","1","",""
"","html-keyboard-response","35","85550","0.0-35.0","3IJXV6UZ1Y5ALGIQWIC3FSQUYF1RIX","A132GRVDGXPJGY","3WRBLBQ2GRU63BU2LFOJL1G32T90GO","","null","<img src=""img/land4.png"" style=""width:200px;border:14px solid red;"">","null","","","","","","","","","",""
"","image-keyboard-response","36","86242","0.0-36.0","3IJXV6UZ1Y5ALGIQWIC3FSQUYF1RIX","A132GRVDGXPJGY","3WRBLBQ2GRU63BU2LFOJL1G32T90GO","","689.2000000029802","img/land6.png","74","691","1","0","2","2","0.8,0.2,0.2,0.2,0.8,0.2,0.2,0.2,0.8","0.8,0.2,0.2,0.2,0.8,0.2,0.2,0.2,0.8","1","",""
"","html-keyboard-response","37","86545","0.0-37.0","3IJXV6UZ1Y5ALGIQWIC3FSQUYF1RIX","A132GRVDGXPJGY","3WRBLBQ2GRU63BU2LFOJL1G32T90GO","","null","<img src=""img/land6.png"" style=""width:200px;border:14px solid red;"">","null","","","","","","","","","",""
"","image-keyboard-response","38","87365","0.0-38.0","3IJXV6UZ1Y5ALGIQWIC3FSQUYF1RIX","A132GRVDGXPJGY","3WRBLBQ2GRU63BU2LFOJL1G32T90GO","","819.5999999940395","img/land6.png","76","820.5999999940395","3","0","2","2","0.8,0.2,0.2,0.2,0.8,0.2,0.2,0.2,0.8","0.8,0.2,0.2,0.2,0.8,0.2,0.2,0.2,0.8","1","",""
"","html-keyboard-response","39","87672","0.0-39.0","3IJXV6UZ1Y5ALGIQWIC3FSQUYF1RIX","A132GRVDGXPJGY","3WRBLBQ2GRU63BU2LFOJL1G32T90GO","","null","<img src=""img/land6.png"" style=""width:200px;border:14px solid red;"">","null","","","","","","","","","",""
"","image-keyboard-response","40","88614","0.0-40.0","3IJXV6UZ1Y5ALGIQWIC3FSQUYF1RIX","A132GRVDGXPJGY","3WRBLBQ2GRU63BU2LFOJL1G32T90GO","","940.1999999880791","img/land4.png","75","942","2","0","1","2","0.8,0.2,0.2,0.2,0.8,0.2,0.2,0.2,0.8","0.8,0.2,0.2,0.2,0.8,0.2,0.2,0.2,0.8","1","",""
"","html-keyboard-response","41","88917","0.0-41.0","3IJXV6UZ1Y5ALGIQWIC3FSQUYF1RIX","A132GRVDGXPJGY","3WRBLBQ2GRU63BU2LFOJL1G32T90GO","","null","<img src=""img/land4.png"" style=""width:200px;border:14px solid red;"">","null","","","","","","","","","",""
"","image-keyboard-response","42","89281","0.0-42.0","3IJXV6UZ1Y5ALGIQWIC3FSQUYF1RIX","A132GRVDGXPJGY","3WRBLBQ2GRU63BU2LFOJL1G32T90GO","","360.70000000298023","img/land4.png","76","362.69999998807907","3","1","1","2","0.8,0.2,0.2,0.2,0.8,0.2,0.2,0.2,0.8","0.8,0.2,0.2,0.2,0.8,0.2,0.2,0.2,0.8","1","",""
"","html-keyboard-response","43","89598","0.0-43.0","3IJXV6UZ1Y5ALGIQWIC3FSQUYF1RIX","A132GRVDGXPJGY","3WRBLBQ2GRU63BU2LFOJL1G32T90GO","","null","<img src=""img/land4.png"" style=""width:200px; border:14px solid green;"">","null","","","","","","","","","",""
"","image-keyboard-response","44","91602","0.0-44.0","3IJXV6UZ1Y5ALGIQWIC3FSQUYF1RIX","A132GRVDGXPJGY","3WRBLBQ2GRU63BU2LFOJL1G32T90GO","","","img/land4.png","","2003.2999999970198","-1","0","1","2","0.8,0.2,0.2,0.2,0.8,0.2,0.2,0.2,0.8","0.8,0.2,0.2,0.2,0.8,0.2,0.2,0.2,0.8","1","",""
"","html-keyboard-response","45","91905","0.0-45.0","3IJXV6UZ1Y5ALGIQWIC3FSQUYF1RIX","A132GRVDGXPJGY","3WRBLBQ2GRU63BU2LFOJL1G32T90GO","","null","<img src=""img/land4.png"" style=""width:200px;border:14px solid red;"">","null","","","","","","","","","",""
"","image-keyboard-response","46","92589","0.0-46.0","3IJXV6UZ1Y5ALGIQWIC3FSQUYF1RIX","A132GRVDGXPJGY","3WRBLBQ2GRU63BU2LFOJL1G32T90GO","","681.7000000029802","img/land4.png","74","683.2999999970198","1","1","1","2","0.8,0.2,0.2,0.2,0.8,0.2,0.2,0.2,0.8","0.8,0.2,0.2,0.2,0.8,0.2,0.2,0.2,0.8","1","",""
"","html-keyboard-response","47","92892","0.0-47.0","3IJXV6UZ1Y5ALGIQWIC3FSQUYF1RIX","A132GRVDGXPJGY","3WRBLBQ2GRU63BU2LFOJL1G32T90GO","","null","<img src=""img/land4.png"" style=""width:200px; border:14px solid green;"">","null","","","","","","","","","",""
"","image-keyboard-response","48","94905","0.0-48.0","3IJXV6UZ1Y5ALGIQWIC3FSQUYF1RIX","A132GRVDGXPJGY","3WRBLBQ2GRU63BU2LFOJL1G32T90GO","","","img/land4.png","","2012","-1","0","1","2","0.8,0.2,0.2,0.2,0.8,0.2,0.2,0.2,0.8","0.8,0.2,0.2,0.2,0.8,0.2,0.2,0.2,0.8","1","",""
"","html-keyboard-response","49","95206","0.0-49.0","3IJXV6UZ1Y5ALGIQWIC3FSQUYF1RIX","A132GRVDGXPJGY","3WRBLBQ2GRU63BU2LFOJL1G32T90GO","","null","<img src=""img/land4.png"" style=""width:200px;border:14px solid red;"">","null","","","","","","","","","",""
"","image-keyboard-response","50","95813","0.0-50.0","3IJXV6UZ1Y5ALGIQWIC3FSQUYF1RIX","A132GRVDGXPJGY","3WRBLBQ2GRU63BU2LFOJL1G32T90GO","","604.5","img/land4.png","76","605.9000000059605","3","0","1","2","0.8,0.2,0.2,0.2,0.8,0.2,0.2,0.2,0.8","0.8,0.2,0.2,0.2,0.8,0.2,0.2,0.2,0.8","1","",""
"","html-keyboard-response","51","96115","0.0-51.0","3IJXV6UZ1Y5ALGIQWIC3FSQUYF1RIX","A132GRVDGXPJGY","3WRBLBQ2GRU63BU2LFOJL1G32T90GO","","null","<img src=""img/land4.png"" style=""width:200px;border:14px solid red;"">","null","","","","","","","","","",""
"","image-keyboard-response","52","97201","0.0-52.0","3IJXV6UZ1Y5ALGIQWIC3FSQUYF1RIX","A132GRVDGXPJGY","3WRBLBQ2GRU63BU2LFOJL1G32T90GO","","1084.2000000029802","img/land6.png","76","1086.300000011921","3","0","2","2","0.8,0.2,0.2,0.2,0.8,0.2,0.2,0.2,0.8","0.8,0.2,0.2,0.2,0.8,0.2,0.2,0.2,0.8","1","",""
"","html-keyboard-response","53","97518","0.0-53.0","3IJXV6UZ1Y5ALGIQWIC3FSQUYF1RIX","A132GRVDGXPJGY","3WRBLBQ2GRU63BU2LFOJL1G32T90GO","","null","<img src=""img/land6.png"" style=""width:200px;border:14px solid red;"">","null","","","","","","","","","",""
"","image-keyboard-response","54","98307","0.0-54.0","3IJXV6UZ1Y5ALGIQWIC3FSQUYF1RIX","A132GRVDGXPJGY","3WRBLBQ2GRU63BU2LFOJL1G32T90GO","","787.7999999970198","img/land4.png","74","789.1000000089407","1","1","1","2","0.8,0.2,0.2,0.2,0.8,0.2,0.2,0.2,0.8","0.8,0.2,0.2,0.2,0.8,0.2,0.2,0.2,0.8","1","",""
"","html-keyboard-response","55","98610","0.0-55.0","3IJXV6UZ1Y5ALGIQWIC3FSQUYF1RIX","A132GRVDGXPJGY","3WRBLBQ2GRU63BU2LFOJL1G32T90GO","","null","<img src=""img/land4.png"" style=""width:200px; border:14px solid green;"">","null","","","","","","","","","",""
"","image-keyboard-response","56","99753","0.0-56.0","3IJXV6UZ1Y5ALGIQWIC3FSQUYF1RIX","A132GRVDGXPJGY","3WRBLBQ2GRU63BU2LFOJL1G32T90GO","","1140.800000011921","img/land6.png","75","1142.5999999940395","2","1","2","2","0.8,0.2,0.2,0.2,0.8,0.2,0.2,0.2,0.8","0.8,0.2,0.2,0.2,0.8,0.2,0.2,0.2,0.8","1","",""
"","html-keyboard-response","57","100056","0.0-57.0","3IJXV6UZ1Y5ALGIQWIC3FSQUYF1RIX","A132GRVDGXPJGY","3WRBLBQ2GRU63BU2LFOJL1G32T90GO","","null","<img src=""img/land6.png"" style=""width:200px; border:14px solid green;"">","null","","","","","","","","","",""
"","image-keyboard-response","58","102059","0.0-58.0","3IJXV6UZ1Y5ALGIQWIC3FSQUYF1RIX","A132GRVDGXPJGY","3WRBLBQ2GRU63BU2LFOJL1G32T90GO","","","img/land4.png","","2002.2000000029802","-1","0","1","2","0.8,0.2,0.2,0.2,0.8,0.2,0.2,0.2,0.8","0.8,0.2,0.2,0.2,0.8,0.2,0.2,0.2,0.8","1","",""
"","html-keyboard-response","59","102362","0.0-59.0","3IJXV6UZ1Y5ALGIQWIC3FSQUYF1RIX","A132GRVDGXPJGY","3WRBLBQ2GRU63BU2LFOJL1G32T90GO","","null","<img src=""img/land4.png"" style=""width:200px;border:14px solid red;"">","null","","","","","","","","","",""
"","image-keyboard-response","60","103496","0.0-60.0","3IJXV6UZ1Y5ALGIQWIC3FSQUYF1RIX","A132GRVDGXPJGY","3WRBLBQ2GRU63BU2LFOJL1G32T90GO","","1132","img/land2.png","76","1133.8999999910593","3","0","3","2","0.8,0.2,0.2,0.2,0.8,0.2,0.2,0.2,0.8","0.8,0.2,0.2,0.2,0.8,0.2,0.2,0.2,0.8","1","",""
"","html-keyboard-response","61","103799","0.0-61.0","3IJXV6UZ1Y5ALGIQWIC3FSQUYF1RIX","A132GRVDGXPJGY","3WRBLBQ2GRU63BU2LFOJL1G32T90GO","","null","<img src=""img/land2.png"" style=""width:200px;border:14px solid red;"">","null","","","","","","","","","",""
"","image-keyboard-response","62","105255","0.0-62.0","3IJXV6UZ1Y5ALGIQWIC3FSQUYF1RIX","A132GRVDGXPJGY","3WRBLBQ2GRU63BU2LFOJL1G32T90GO","","1454.3999999910593","img/land4.png","74","1456.2000000029802","1","0","1","2","0.8,0.2,0.2,0.2,0.8,0.2,0.2,0.2,0.8","0.8,0.2,0.2,0.2,0.8,0.2,0.2,0.2,0.8","1","",""
"","html-keyboard-response","63","105558","0.0-63.0","3IJXV6UZ1Y5ALGIQWIC3FSQUYF1RIX","A132GRVDGXPJGY","3WRBLBQ2GRU63BU2LFOJL1G32T90GO","","null","<img src=""img/land4.png"" style=""width:200px;border:14px solid red;"">","null","","","","","","","","","",""
"","image-keyboard-response","64","106622","0.0-64.0","3IJXV6UZ1Y5ALGIQWIC3FSQUYF1RIX","A132GRVDGXPJGY","3WRBLBQ2GRU63BU2LFOJL1G32T90GO","","1061.7999999970198","img/land2.png","76","1063.2999999970198","3","1","3","2","0.8,0.2,0.2,0.2,0.8,0.2,0.2,0.2,0.8","0.8,0.2,0.2,0.2,0.8,0.2,0.2,0.2,0.8","1","",""
"","html-keyboard-response","65","106923","0.0-65.0","3IJXV6UZ1Y5ALGIQWIC3FSQUYF1RIX","A132GRVDGXPJGY","3WRBLBQ2GRU63BU2LFOJL1G32T90GO","","null","<img src=""img/land2.png"" style=""width:200px; border:14px solid green;"">","null","","","","","","","","","",""
"","image-keyboard-response","66","108016","0.0-66.0","3IJXV6UZ1Y5ALGIQWIC3FSQUYF1RIX","A132GRVDGXPJGY","3WRBLBQ2GRU63BU2LFOJL1G32T90GO","","1090.699999988079","img/land6.png","75","1092.4000000059605","2","1","2","2","0.8,0.2,0.2,0.2,0.8,0.2,0.2,0.2,0.8","0.8,0.2,0.2,0.2,0.8,0.2,0.2,0.2,0.8","1","",""
"","html-keyboard-response","67","108320","0.0-67.0","3IJXV6UZ1Y5ALGIQWIC3FSQUYF1RIX","A132GRVDGXPJGY","3WRBLBQ2GRU63BU2LFOJL1G32T90GO","","null","<img src=""img/land6.png"" style=""width:200px; border:14px solid green;"">","null","","","","","","","","","",""
"","image-keyboard-response","68","110323","0.0-68.0","3IJXV6UZ1Y5ALGIQWIC3FSQUYF1RIX","A132GRVDGXPJGY","3WRBLBQ2GRU63BU2LFOJL1G32T90GO","","","img/land6.png","","2002.2000000029802","-1","0","2","2","0.8,0.2,0.2,0.2,0.8,0.2,0.2,0.2,0.8","0.8,0.2,0.2,0.2,0.8,0.2,0.2,0.2,0.8","1","",""
"","html-keyboard-response","69","110629","0.0-69.0","3IJXV6UZ1Y5ALGIQWIC3FSQUYF1RIX","A132GRVDGXPJGY","3WRBLBQ2GRU63BU2LFOJL1G32T90GO","","null","<img src=""img/land6.png"" style=""width:200px;border:14px solid red;"">","null","","","","","","","","","",""
"","image-keyboard-response","70","111826","0.0-70.0","3IJXV6UZ1Y5ALGIQWIC3FSQUYF1RIX","A132GRVDGXPJGY","3WRBLBQ2GRU63BU2LFOJL1G32T90GO","","1195.5","img/land4.png","76","1197.0999999940395","3","1","1","2","0.8,0.2,0.2,0.2,0.8,0.2,0.2,0.2,0.8","0.8,0.2,0.2,0.2,0.8,0.2,0.2,0.2,0.8","1","",""
"","html-keyboard-response","71","112129","0.0-71.0","3IJXV6UZ1Y5ALGIQWIC3FSQUYF1RIX","A132GRVDGXPJGY","3WRBLBQ2GRU63BU2LFOJL1G32T90GO","","null","<img src=""img/land4.png"" style=""width:200px; border:14px solid green;"">","null","","","","","","","","","",""
"","image-keyboard-response","72","114132","0.0-72.0","3IJXV6UZ1Y5ALGIQWIC3FSQUYF1RIX","A132GRVDGXPJGY","3WRBLBQ2GRU63BU2LFOJL1G32T90GO","","","img/land4.png","","2002.2999999970198","-1","0","1","2","0.8,0.2,0.2,0.2,0.8,0.2,0.2,0.2,0.8","0.8,0.2,0.2,0.2,0.8,0.2,0.2,0.2,0.8","1","",""
"","html-keyboard-response","73","114435","0.0-73.0","3IJXV6UZ1Y5ALGIQWIC3FSQUYF1RIX","A132GRVDGXPJGY","3WRBLBQ2GRU63BU2LFOJL1G32T90GO","","null","<img src=""img/land4.png"" style=""width:200px;border:14px solid red;"">","null","","","","","","","","","",""
"","image-keyboard-response","74","115215","0.0-74.0","3IJXV6UZ1Y5ALGIQWIC3FSQUYF1RIX","A132GRVDGXPJGY","3WRBLBQ2GRU63BU2LFOJL1G32T90GO","","777","img/land2.png","74","779","1","0","3","2","0.8,0.2,0.2,0.2,0.8,0.2,0.2,0.2,0.8","0.8,0.2,0.2,0.2,0.8,0.2,0.2,0.2,0.8","1","",""
"","html-keyboard-response","75","115518","0.0-75.0","3IJXV6UZ1Y5ALGIQWIC3FSQUYF1RIX","A132GRVDGXPJGY","3WRBLBQ2GRU63BU2LFOJL1G32T90GO","","null","<img src=""img/land2.png"" style=""width:200px;border:14px solid red;"">","null","","","","","","","","","",""
"","image-keyboard-response","76","116701","0.0-76.0","3IJXV6UZ1Y5ALGIQWIC3FSQUYF1RIX","A132GRVDGXPJGY","3WRBLBQ2GRU63BU2LFOJL1G32T90GO","","1180.7999999970198","img/land4.png","76","1182.300000011921","3","0","1","2","0.8,0.2,0.2,0.2,0.8,0.2,0.2,0.2,0.8","0.8,0.2,0.2,0.2,0.8,0.2,0.2,0.2,0.8","1","",""
"","html-keyboard-response","77","117003","0.0-77.0","3IJXV6UZ1Y5ALGIQWIC3FSQUYF1RIX","A132GRVDGXPJGY","3WRBLBQ2GRU63BU2LFOJL1G32T90GO","","null","<img src=""img/land4.png"" style=""width:200px;border:14px solid red;"">","null","","","","","","","","","",""
"","image-keyboard-response","78","119016","0.0-78.0","3IJXV6UZ1Y5ALGIQWIC3FSQUYF1RIX","A132GRVDGXPJGY","3WRBLBQ2GRU63BU2LFOJL1G32T90GO","","","img/land4.png","","2012.2000000029802","-1","0","1","2","0.8,0.2,0.2,0.2,0.8,0.2,0.2,0.2,0.8","0.8,0.2,0.2,0.2,0.8,0.2,0.2,0.2,0.8","1","",""
"","html-keyboard-response","79","119319","0.0-79.0","3IJXV6UZ1Y5ALGIQWIC3FSQUYF1RIX","A132GRVDGXPJGY","3WRBLBQ2GRU63BU2LFOJL1G32T90GO","","null","<img src=""img/land4.png"" style=""width:200px;border:14px solid red;"">","null","","","","","","","","","",""
"","image-keyboard-response","80","120040","0.0-80.0","3IJXV6UZ1Y5ALGIQWIC3FSQUYF1RIX","A132GRVDGXPJGY","3WRBLBQ2GRU63BU2LFOJL1G32T90GO","","718.0999999940395","img/land6.png","75","720.2000000029802","2","1","2","2","0.8,0.2,0.2,0.2,0.8,0.2,0.2,0.2,0.8","0.8,0.2,0.2,0.2,0.8,0.2,0.2,0.2,0.8","1","",""
"","html-keyboard-response","81","120343","0.0-81.0","3IJXV6UZ1Y5ALGIQWIC3FSQUYF1RIX","A132GRVDGXPJGY","3WRBLBQ2GRU63BU2LFOJL1G32T90GO","","null","<img src=""img/land6.png"" style=""width:200px; border:14px solid green;"">","null","","","","","","","","","",""
"","image-keyboard-response","82","122360","0.0-82.0","3IJXV6UZ1Y5ALGIQWIC3FSQUYF1RIX","A132GRVDGXPJGY","3WRBLBQ2GRU63BU2LFOJL1G32T90GO","","","img/land6.png","","2017.199999988079","-1","0","2","2","0.8,0.2,0.2,0.2,0.8,0.2,0.2,0.2,0.8","0.8,0.2,0.2,0.2,0.8,0.2,0.2,0.2,0.8","1","",""
"","html-keyboard-response","83","122663","0.0-83.0","3IJXV6UZ1Y5ALGIQWIC3FSQUYF1RIX","A132GRVDGXPJGY","3WRBLBQ2GRU63BU2LFOJL1G32T90GO","","null","<img src=""img/land6.png"" style=""width:200px;border:14px solid red;"">","null","","","","","","","","","",""
"","image-keyboard-response","84","123534","0.0-84.0","3IJXV6UZ1Y5ALGIQWIC3FSQUYF1RIX","A132GRVDGXPJGY","3WRBLBQ2GRU63BU2LFOJL1G32T90GO","","869.5","img/land4.png","74","870.5","1","1","1","2","0.8,0.2,0.2,0.2,0.8,0.2,0.2,0.2,0.8","0.8,0.2,0.2,0.2,0.8,0.2,0.2,0.2,0.8","1","",""
"","html-keyboard-response","85","123837","0.0-85.0","3IJXV6UZ1Y5ALGIQWIC3FSQUYF1RIX","A132GRVDGXPJGY","3WRBLBQ2GRU63BU2LFOJL1G32T90GO","","null","<img src=""img/land4.png"" style=""width:200px; border:14px solid green;"">","null","","","","","","","","","",""
"","image-keyboard-response","86","125840","0.0-86.0","3IJXV6UZ1Y5ALGIQWIC3FSQUYF1RIX","A132GRVDGXPJGY","3WRBLBQ2GRU63BU2LFOJL1G32T90GO","","","img/land2.png","","2002.8999999910593","-1","0","3","2","0.8,0.2,0.2,0.2,0.8,0.2,0.2,0.2,0.8","0.8,0.2,0.2,0.2,0.8,0.2,0.2,0.2,0.8","1","",""
"","html-keyboard-response","87","126144","0.0-87.0","3IJXV6UZ1Y5ALGIQWIC3FSQUYF1RIX","A132GRVDGXPJGY","3WRBLBQ2GRU63BU2LFOJL1G32T90GO","","null","<img src=""img/land2.png"" style=""width:200px;border:14px solid red;"">","null","","","","","","","","","",""
"","image-keyboard-response","88","126780","0.0-88.0","3IJXV6UZ1Y5ALGIQWIC3FSQUYF1RIX","A132GRVDGXPJGY","3WRBLBQ2GRU63BU2LFOJL1G32T90GO","","633.5","img/land4.png","74","635.0999999940395","1","1","1","2","0.8,0.2,0.2,0.2,0.8,0.2,0.2,0.2,0.8","0.8,0.2,0.2,0.2,0.8,0.2,0.2,0.2,0.8","1","",""
"","html-keyboard-response","89","127087","0.0-89.0","3IJXV6UZ1Y5ALGIQWIC3FSQUYF1RIX","A132GRVDGXPJGY","3WRBLBQ2GRU63BU2LFOJL1G32T90GO","","null","<img src=""img/land4.png"" style=""width:200px; border:14px solid green;"">","null","","","","","","","","","",""
"","image-keyboard-response","90","129089","0.0-90.0","3IJXV6UZ1Y5ALGIQWIC3FSQUYF1RIX","A132GRVDGXPJGY","3WRBLBQ2GRU63BU2LFOJL1G32T90GO","","","img/land4.png","","2002","-1","0","1","2","0.8,0.2,0.2,0.2,0.8,0.2,0.2,0.2,0.8","0.8,0.2,0.2,0.2,0.8,0.2,0.2,0.2,0.8","1","",""
"","html-keyboard-response","91","129391","0.0-91.0","3IJXV6UZ1Y5ALGIQWIC3FSQUYF1RIX","A132GRVDGXPJGY","3WRBLBQ2GRU63BU2LFOJL1G32T90GO","","null","<img src=""img/land4.png"" style=""width:200px;border:14px solid red;"">","null","","","","","","","","","",""
"","image-keyboard-response","92","131392","0.0-92.0","3IJXV6UZ1Y5ALGIQWIC3FSQUYF1RIX","A132GRVDGXPJGY","3WRBLBQ2GRU63BU2LFOJL1G32T90GO","","","img/land4.png","","2001.199999988079","-1","0","1","2","0.8,0.2,0.2,0.2,0.8,0.2,0.2,0.2,0.8","0.8,0.2,0.2,0.2,0.8,0.2,0.2,0.2,0.8","1","",""
"","html-keyboard-response","93","131696","0.0-93.0","3IJXV6UZ1Y5ALGIQWIC3FSQUYF1RIX","A132GRVDGXPJGY","3WRBLBQ2GRU63BU2LFOJL1G32T90GO","","null","<img src=""img/land4.png"" style=""width:200px;border:14px solid red;"">","null","","","","","","","","","",""
"","image-keyboard-response","94","132613","0.0-94.0","3IJXV6UZ1Y5ALGIQWIC3FSQUYF1RIX","A132GRVDGXPJGY","3WRBLBQ2GRU63BU2LFOJL1G32T90GO","","915.7999999970198","img/land2.png","76","916.7000000029802","3","1","3","2","0.8,0.2,0.2,0.2,0.8,0.2,0.2,0.2,0.8","0.8,0.2,0.2,0.2,0.8,0.2,0.2,0.2,0.8","1","",""
"","html-keyboard-response","95","132915","0.0-95.0","3IJXV6UZ1Y5ALGIQWIC3FSQUYF1RIX","A132GRVDGXPJGY","3WRBLBQ2GRU63BU2LFOJL1G32T90GO","","null","<img src=""img/land2.png"" style=""width:200px; border:14px solid green;"">","null","","","","","","","","","",""
"","image-keyboard-response","96","133907","0.0-96.0","3IJXV6UZ1Y5ALGIQWIC3FSQUYF1RIX","A132GRVDGXPJGY","3WRBLBQ2GRU63BU2LFOJL1G32T90GO","","989.5","img/land6.png","75","991.2999999970198","2","1","2","2","0.8,0.2,0.2,0.2,0.8,0.2,0.2,0.2,0.8","0.8,0.2,0.2,0.2,0.8,0.2,0.2,0.2,0.8","1","",""
"","html-keyboard-response","97","134210","0.0-97.0","3IJXV6UZ1Y5ALGIQWIC3FSQUYF1RIX","A132GRVDGXPJGY","3WRBLBQ2GRU63BU2LFOJL1G32T90GO","","null","<img src=""img/land6.png"" style=""width:200px; border:14px solid green;"">","null","","","","","","","","","",""
"","image-keyboard-response","98","135249","0.0-98.0","3IJXV6UZ1Y5ALGIQWIC3FSQUYF1RIX","A132GRVDGXPJGY","3WRBLBQ2GRU63BU2LFOJL1G32T90GO","","1036.1000000089407","img/land4.png","74","1038.0999999940395","1","1","1","2","0.8,0.2,0.2,0.2,0.8,0.2,0.2,0.2,0.8","0.8,0.2,0.2,0.2,0.8,0.2,0.2,0.2,0.8","1","",""
"","html-keyboard-response","99","135552","0.0-99.0","3IJXV6UZ1Y5ALGIQWIC3FSQUYF1RIX","A132GRVDGXPJGY","3WRBLBQ2GRU63BU2LFOJL1G32T90GO","","null","<img src=""img/land4.png"" style=""width:200px; border:14px solid green;"">","null","","","","","","","","","",""
"","image-keyboard-response","100","137557","0.0-100.0","3IJXV6UZ1Y5ALGIQWIC3FSQUYF1RIX","A132GRVDGXPJGY","3WRBLBQ2GRU63BU2LFOJL1G32T90GO","","","img/land4.png","","2004.5","-1","0","1","2","0.8,0.2,0.2,0.2,0.8,0.2,0.2,0.2,0.8","0.8,0.2,0.2,0.2,0.8,0.2,0.2,0.2,0.8","1","",""
"","html-keyboard-response","101","137870","0.0-101.0","3IJXV6UZ1Y5ALGIQWIC3FSQUYF1RIX","A132GRVDGXPJGY","3WRBLBQ2GRU63BU2LFOJL1G32T90GO","","null","<img src=""img/land4.png"" style=""width:200px;border:14px solid red;"">","null","","","","","","","","","",""
"","image-keyboard-response","102","139873","0.0-102.0","3IJXV6UZ1Y5ALGIQWIC3FSQUYF1RIX","A132GRVDGXPJGY","3WRBLBQ2GRU63BU2LFOJL1G32T90GO","","","img/land4.png","","2002.2000000029802","-1","0","1","2","0.8,0.2,0.2,0.2,0.8,0.2,0.2,0.2,0.8","0.8,0.2,0.2,0.2,0.8,0.2,0.2,0.2,0.8","1","",""
"","html-keyboard-response","103","140182","0.0-103.0","3IJXV6UZ1Y5ALGIQWIC3FSQUYF1RIX","A132GRVDGXPJGY","3WRBLBQ2GRU63BU2LFOJL1G32T90GO","","null","<img src=""img/land4.png"" style=""width:200px;border:14px solid red;"">","null","","","","","","","","","",""
"","image-keyboard-response","104","142185","0.0-104.0","3IJXV6UZ1Y5ALGIQWIC3FSQUYF1RIX","A132GRVDGXPJGY","3WRBLBQ2GRU63BU2LFOJL1G32T90GO","","","img/land4.png","","2002.7000000029802","-1","0","1","2","0.8,0.2,0.2,0.2,0.8,0.2,0.2,0.2,0.8","0.8,0.2,0.2,0.2,0.8,0.2,0.2,0.2,0.8","1","",""
"","html-keyboard-response","105","142489","0.0-105.0","3IJXV6UZ1Y5ALGIQWIC3FSQUYF1RIX","A132GRVDGXPJGY","3WRBLBQ2GRU63BU2LFOJL1G32T90GO","","null","<img src=""img/land4.png"" style=""width:200px;border:14px solid red;"">","null","","","","","","","","","",""
"","image-keyboard-response","106","142725","0.0-106.0","3IJXV6UZ1Y5ALGIQWIC3FSQUYF1RIX","A132GRVDGXPJGY","3WRBLBQ2GRU63BU2LFOJL1G32T90GO","","234.1000000089407","img/land2.png","74","235.70000000298023","1","0","3","2","0.8,0.2,0.2,0.2,0.8,0.2,0.2,0.2,0.8","0.8,0.2,0.2,0.2,0.8,0.2,0.2,0.2,0.8","1","",""
"","html-keyboard-response","107","143027","0.0-107.0","3IJXV6UZ1Y5ALGIQWIC3FSQUYF1RIX","A132GRVDGXPJGY","3WRBLBQ2GRU63BU2LFOJL1G32T90GO","","null","<img src=""img/land2.png"" style=""width:200px;border:14px solid red;"">","null","","","","","","","","","",""
"","image-keyboard-response","108","144559","0.0-108.0","3IJXV6UZ1Y5ALGIQWIC3FSQUYF1RIX","A132GRVDGXPJGY","3WRBLBQ2GRU63BU2LFOJL1G32T90GO","","1529","img/land4.png","75","1530.6000000089407","2","0","1","2","0.8,0.2,0.2,0.2,0.8,0.2,0.2,0.2,0.8","0.8,0.2,0.2,0.2,0.8,0.2,0.2,0.2,0.8","1","",""
"","html-keyboard-response","109","144864","0.0-109.0","3IJXV6UZ1Y5ALGIQWIC3FSQUYF1RIX","A132GRVDGXPJGY","3WRBLBQ2GRU63BU2LFOJL1G32T90GO","","null","<img src=""img/land4.png"" style=""width:200px;border:14px solid red;"">","null","","","","","","","","","",""
"","image-keyboard-response","110","145121","0.0-110.0","3IJXV6UZ1Y5ALGIQWIC3FSQUYF1RIX","A132GRVDGXPJGY","3WRBLBQ2GRU63BU2LFOJL1G32T90GO","","254.59999999403954","img/land4.png","74","256.5","1","1","1","2","0.8,0.2,0.2,0.2,0.8,0.2,0.2,0.2,0.8","0.8,0.2,0.2,0.2,0.8,0.2,0.2,0.2,0.8","1","",""
"","html-keyboard-response","111","145424","0.0-111.0","3IJXV6UZ1Y5ALGIQWIC3FSQUYF1RIX","A132GRVDGXPJGY","3WRBLBQ2GRU63BU2LFOJL1G32T90GO","","null","<img src=""img/land4.png"" style=""width:200px; border:14px solid green;"">","null","","","","","","","","","",""
"","image-keyboard-response","112","146411","0.0-112.0","3IJXV6UZ1Y5ALGIQWIC3FSQUYF1RIX","A132GRVDGXPJGY","3WRBLBQ2GRU63BU2LFOJL1G32T90GO","","984.1000000089407","img/land2.png","74","986","1","0","3","2","0.8,0.2,0.2,0.2,0.8,0.2,0.2,0.2,0.8","0.8,0.2,0.2,0.2,0.8,0.2,0.2,0.2,0.8","1","",""
"","html-keyboard-response","113","146714","0.0-113.0","3IJXV6UZ1Y5ALGIQWIC3FSQUYF1RIX","A132GRVDGXPJGY","3WRBLBQ2GRU63BU2LFOJL1G32T90GO","","null","<img src=""img/land2.png"" style=""width:200px;border:14px solid red;"">","null","","","","","","","","","",""
"","image-keyboard-response","114","147697","0.0-114.0","3IJXV6UZ1Y5ALGIQWIC3FSQUYF1RIX","A132GRVDGXPJGY","3WRBLBQ2GRU63BU2LFOJL1G32T90GO","","981.2999999970198","img/land6.png","75","982.7999999970198","2","1","2","2","0.8,0.2,0.2,0.2,0.8,0.2,0.2,0.2,0.8","0.8,0.2,0.2,0.2,0.8,0.2,0.2,0.2,0.8","1","",""
"","html-keyboard-response","115","147999","0.0-115.0","3IJXV6UZ1Y5ALGIQWIC3FSQUYF1RIX","A132GRVDGXPJGY","3WRBLBQ2GRU63BU2LFOJL1G32T90GO","","null","<img src=""img/land6.png"" style=""width:200px; border:14px solid green;"">","null","","","","","","","","","",""
"","image-keyboard-response","116","149099","0.0-116.0","3IJXV6UZ1Y5ALGIQWIC3FSQUYF1RIX","A132GRVDGXPJGY","3WRBLBQ2GRU63BU2LFOJL1G32T90GO","","1098.4000000059605","img/land4.png","75","1100.2000000029802","2","0","1","2","0.8,0.2,0.2,0.2,0.8,0.2,0.2,0.2,0.8","0.8,0.2,0.2,0.2,0.8,0.2,0.2,0.2,0.8","1","",""
"","html-keyboard-response","117","149402","0.0-117.0","3IJXV6UZ1Y5ALGIQWIC3FSQUYF1RIX","A132GRVDGXPJGY","3WRBLBQ2GRU63BU2LFOJL1G32T90GO","","null","<img src=""img/land4.png"" style=""width:200px;border:14px solid red;"">","null","","","","","","","","","",""
"","image-keyboard-response","118","149720","0.0-118.0","3IJXV6UZ1Y5ALGIQWIC3FSQUYF1RIX","A132GRVDGXPJGY","3WRBLBQ2GRU63BU2LFOJL1G32T90GO","","314.8999999910593","img/land6.png","74","316.6000000089407","1","0","2","2","0.8,0.2,0.2,0.2,0.8,0.2,0.2,0.2,0.8","0.8,0.2,0.2,0.2,0.8,0.2,0.2,0.2,0.8","1","",""
"","html-keyboard-response","119","150022","0.0-119.0","3IJXV6UZ1Y5ALGIQWIC3FSQUYF1RIX","A132GRVDGXPJGY","3WRBLBQ2GRU63BU2LFOJL1G32T90GO","","null","<img src=""img/land6.png"" style=""width:200px;border:14px solid red;"">","null","","","","","","","","","",""
"","image-keyboard-response","120","152036","0.0-120.0","3IJXV6UZ1Y5ALGIQWIC3FSQUYF1RIX","A132GRVDGXPJGY","3WRBLBQ2GRU63BU2LFOJL1G32T90GO","","","img/land4.png","","2013.4000000059605","-1","0","1","2","0.8,0.2,0.2,0.2,0.8,0.2,0.2,0.2,0.8","0.8,0.2,0.2,0.2,0.8,0.2,0.2,0.2,0.8","1","",""
"","html-keyboard-response","121","152339","0.0-121.0","3IJXV6UZ1Y5ALGIQWIC3FSQUYF1RIX","A132GRVDGXPJGY","3WRBLBQ2GRU63BU2LFOJL1G32T90GO","","null","<img src=""img/land4.png"" style=""width:200px;border:14px solid red;"">","null","","","","","","","","","",""
"","image-keyboard-response","122","153465","0.0-122.0","3IJXV6UZ1Y5ALGIQWIC3FSQUYF1RIX","A132GRVDGXPJGY","3WRBLBQ2GRU63BU2LFOJL1G32T90GO","","1123.300000011921","img/land2.png","76","1124.7999999970198","3","1","3","2","0.8,0.2,0.2,0.2,0.8,0.2,0.2,0.2,0.8","0.8,0.2,0.2,0.2,0.8,0.2,0.2,0.2,0.8","1","",""
"","html-keyboard-response","123","153781","0.0-123.0","3IJXV6UZ1Y5ALGIQWIC3FSQUYF1RIX","A132GRVDGXPJGY","3WRBLBQ2GRU63BU2LFOJL1G32T90GO","","null","<img src=""img/land2.png"" style=""width:200px; border:14px solid green;"">","null","","","","","","","","","",""
"","image-keyboard-response","124","155784","0.0-124.0","3IJXV6UZ1Y5ALGIQWIC3FSQUYF1RIX","A132GRVDGXPJGY","3WRBLBQ2GRU63BU2LFOJL1G32T90GO","","","img/land2.png","","2002.7999999970198","-1","0","3","2","0.8,0.2,0.2,0.2,0.8,0.2,0.2,0.2,0.8","0.8,0.2,0.2,0.2,0.8,0.2,0.2,0.2,0.8","1","",""
"","html-keyboard-response","125","156088","0.0-125.0","3IJXV6UZ1Y5ALGIQWIC3FSQUYF1RIX","A132GRVDGXPJGY","3WRBLBQ2GRU63BU2LFOJL1G32T90GO","","null","<img src=""img/land2.png"" style=""width:200px;border:14px solid red;"">","null","","","","","","","","","",""
"","image-keyboard-response","126","158099","0.0-126.0","3IJXV6UZ1Y5ALGIQWIC3FSQUYF1RIX","A132GRVDGXPJGY","3WRBLBQ2GRU63BU2LFOJL1G32T90GO","","","img/land2.png","","2014","-1","0","3","2","0.8,0.2,0.2,0.2,0.8,0.2,0.2,0.2,0.8","0.8,0.2,0.2,0.2,0.8,0.2,0.2,0.2,0.8","1","",""
"","html-keyboard-response","127","158404","0.0-127.0","3IJXV6UZ1Y5ALGIQWIC3FSQUYF1RIX","A132GRVDGXPJGY","3WRBLBQ2GRU63BU2LFOJL1G32T90GO","","null","<img src=""img/land2.png"" style=""width:200px;border:14px solid red;"">","null","","","","","","","","","",""
"","image-keyboard-response","128","159020","0.0-128.0","3IJXV6UZ1Y5ALGIQWIC3FSQUYF1RIX","A132GRVDGXPJGY","3WRBLBQ2GRU63BU2LFOJL1G32T90GO","","613.7999999970198","img/land2.png","76","615.5999999940395","3","1","3","2","0.8,0.2,0.2,0.2,0.8,0.2,0.2,0.2,0.8","0.8,0.2,0.2,0.2,0.8,0.2,0.2,0.2,0.8","1","",""
"","html-keyboard-response","129","159324","0.0-129.0","3IJXV6UZ1Y5ALGIQWIC3FSQUYF1RIX","A132GRVDGXPJGY","3WRBLBQ2GRU63BU2LFOJL1G32T90GO","","null","<img src=""img/land2.png"" style=""width:200px; border:14px solid green;"">","null","","","","","","","","","",""
"","image-keyboard-response","130","160482","0.0-130.0","3IJXV6UZ1Y5ALGIQWIC3FSQUYF1RIX","A132GRVDGXPJGY","3WRBLBQ2GRU63BU2LFOJL1G32T90GO","","1155","img/land4.png","74","1157","1","1","1","2","0.8,0.2,0.2,0.2,0.8,0.2,0.2,0.2,0.8","0.8,0.2,0.2,0.2,0.8,0.2,0.2,0.2,0.8","1","",""
"","html-keyboard-response","131","160789","0.0-131.0","3IJXV6UZ1Y5ALGIQWIC3FSQUYF1RIX","A132GRVDGXPJGY","3WRBLBQ2GRU63BU2LFOJL1G32T90GO","","null","<img src=""img/land4.png"" style=""width:200px; border:14px solid green;"">","null","","","","","","","","","",""
"","image-keyboard-response","132","162792","0.0-132.0","3IJXV6UZ1Y5ALGIQWIC3FSQUYF1RIX","A132GRVDGXPJGY","3WRBLBQ2GRU63BU2LFOJL1G32T90GO","","","img/land4.png","","2003.1000000089407","-1","0","1","2","0.8,0.2,0.2,0.2,0.8,0.2,0.2,0.2,0.8","0.8,0.2,0.2,0.2,0.8,0.2,0.2,0.2,0.8","1","",""
"","html-keyboard-response","133","163095","0.0-133.0","3IJXV6UZ1Y5ALGIQWIC3FSQUYF1RIX","A132GRVDGXPJGY","3WRBLBQ2GRU63BU2LFOJL1G32T90GO","","null","<img src=""img/land4.png"" style=""width:200px;border:14px solid red;"">","null","","","","","","","","","",""
"","image-keyboard-response","134","163908","0.0-134.0","3IJXV6UZ1Y5ALGIQWIC3FSQUYF1RIX","A132GRVDGXPJGY","3WRBLBQ2GRU63BU2LFOJL1G32T90GO","","810.3000000119209","img/land4.png","74","812","1","1","1","2","0.8,0.2,0.2,0.2,0.8,0.2,0.2,0.2,0.8","0.8,0.2,0.2,0.2,0.8,0.2,0.2,0.2,0.8","1","",""
"","html-keyboard-response","135","164210","0.0-135.0","3IJXV6UZ1Y5ALGIQWIC3FSQUYF1RIX","A132GRVDGXPJGY","3WRBLBQ2GRU63BU2LFOJL1G32T90GO","","null","<img src=""img/land4.png"" style=""width:200px; border:14px solid green;"">","null","","","","","","","","","",""
"","image-keyboard-response","136","165337","0.0-136.0","3IJXV6UZ1Y5ALGIQWIC3FSQUYF1RIX","A132GRVDGXPJGY","3WRBLBQ2GRU63BU2LFOJL1G32T90GO","","1125.2000000029802","img/land2.png","76","1127.0999999940395","3","1","3","2","0.8,0.2,0.2,0.2,0.8,0.2,0.2,0.2,0.8","0.8,0.2,0.2,0.2,0.8,0.2,0.2,0.2,0.8","1","",""
"","html-keyboard-response","137","165641","0.0-137.0","3IJXV6UZ1Y5ALGIQWIC3FSQUYF1RIX","A132GRVDGXPJGY","3WRBLBQ2GRU63BU2LFOJL1G32T90GO","","null","<img src=""img/land2.png"" style=""width:200px; border:14px solid green;"">","null","","","","","","","","","",""
"","image-keyboard-response","138","166691","0.0-138.0","3IJXV6UZ1Y5ALGIQWIC3FSQUYF1RIX","A132GRVDGXPJGY","3WRBLBQ2GRU63BU2LFOJL1G32T90GO","","1048","img/land6.png","75","1049.7999999970198","2","1","2","2","0.8,0.2,0.2,0.2,0.8,0.2,0.2,0.2,0.8","0.8,0.2,0.2,0.2,0.8,0.2,0.2,0.2,0.8","1","",""
"","html-keyboard-response","139","166994","0.0-139.0","3IJXV6UZ1Y5ALGIQWIC3FSQUYF1RIX","A132GRVDGXPJGY","3WRBLBQ2GRU63BU2LFOJL1G32T90GO","","null","<img src=""img/land6.png"" style=""width:200px; border:14px solid green;"">","null","","","","","","","","","",""
"","image-keyboard-response","140","168172","0.0-140.0","3IJXV6UZ1Y5ALGIQWIC3FSQUYF1RIX","A132GRVDGXPJGY","3WRBLBQ2GRU63BU2LFOJL1G32T90GO","","1175.5999999940395","img/land2.png","76","1177.5","3","0","3","2","0.8,0.2,0.2,0.2,0.8,0.2,0.2,0.2,0.8","0.8,0.2,0.2,0.2,0.8,0.2,0.2,0.2,0.8","1","",""
"","html-keyboard-response","141","168475","0.0-141.0","3IJXV6UZ1Y5ALGIQWIC3FSQUYF1RIX","A132GRVDGXPJGY","3WRBLBQ2GRU63BU2LFOJL1G32T90GO","","null","<img src=""img/land2.png"" style=""width:200px;border:14px solid red;"">","null","","","","","","","","","",""
"","image-keyboard-response","142","169885","0.0-142.0","3IJXV6UZ1Y5ALGIQWIC3FSQUYF1RIX","A132GRVDGXPJGY","3WRBLBQ2GRU63BU2LFOJL1G32T90GO","","1407.7000000029802","img/land4.png","74","1409.2000000029802","1","1","1","2","0.8,0.2,0.2,0.2,0.8,0.2,0.2,0.2,0.8","0.8,0.2,0.2,0.2,0.8,0.2,0.2,0.2,0.8","1","",""
"","html-keyboard-response","143","170200","0.0-143.0","3IJXV6UZ1Y5ALGIQWIC3FSQUYF1RIX","A132GRVDGXPJGY","3WRBLBQ2GRU63BU2LFOJL1G32T90GO","","null","<img src=""img/land4.png"" style=""width:200px; border:14px solid green;"">","null","","","","","","","","","",""
"","image-keyboard-response","144","171069","0.0-144.0","3IJXV6UZ1Y5ALGIQWIC3FSQUYF1RIX","A132GRVDGXPJGY","3WRBLBQ2GRU63BU2LFOJL1G32T90GO","","866.5","img/land2.png","76","867.9000000059605","3","1","3","2","0.8,0.2,0.2,0.2,0.8,0.2,0.2,0.2,0.8","0.8,0.2,0.2,0.2,0.8,0.2,0.2,0.2,0.8","1","",""
"","html-keyboard-response","145","171371","0.0-145.0","3IJXV6UZ1Y5ALGIQWIC3FSQUYF1RIX","A132GRVDGXPJGY","3WRBLBQ2GRU63BU2LFOJL1G32T90GO","","null","<img src=""img/land2.png"" style=""width:200px; border:14px solid green;"">","null","","","","","","","","","",""
"","image-keyboard-response","146","172390","0.0-146.0","3IJXV6UZ1Y5ALGIQWIC3FSQUYF1RIX","A132GRVDGXPJGY","3WRBLBQ2GRU63BU2LFOJL1G32T90GO","","1016","img/land4.png","74","1018","1","1","1","2","0.8,0.2,0.2,0.2,0.8,0.2,0.2,0.2,0.8","0.8,0.2,0.2,0.2,0.8,0.2,0.2,0.2,0.8","1","",""
"","html-keyboard-response","147","172693","0.0-147.0","3IJXV6UZ1Y5ALGIQWIC3FSQUYF1RIX","A132GRVDGXPJGY","3WRBLBQ2GRU63BU2LFOJL1G32T90GO","","null","<img src=""img/land4.png"" style=""width:200px; border:14px solid green;"">","null","","","","","","","","","",""
"","image-keyboard-response","148","173521","0.0-148.0","3IJXV6UZ1Y5ALGIQWIC3FSQUYF1RIX","A132GRVDGXPJGY","3WRBLBQ2GRU63BU2LFOJL1G32T90GO","","825.8999999910593","img/land6.png","75","827.8000000119209","2","1","2","2","0.8,0.2,0.2,0.2,0.8,0.2,0.2,0.2,0.8","0.8,0.2,0.2,0.2,0.8,0.2,0.2,0.2,0.8","1","",""
"","html-keyboard-response","149","173823","0.0-149.0","3IJXV6UZ1Y5ALGIQWIC3FSQUYF1RIX","A132GRVDGXPJGY","3WRBLBQ2GRU63BU2LFOJL1G32T90GO","","null","<img src=""img/land6.png"" style=""width:200px; border:14px solid green;"">","null","","","","","","","","","",""
"","image-keyboard-response","150","175827","0.0-150.0","3IJXV6UZ1Y5ALGIQWIC3FSQUYF1RIX","A132GRVDGXPJGY","3WRBLBQ2GRU63BU2LFOJL1G32T90GO","","","img/land6.png","","2002.7000000029802","-1","0","2","2","0.8,0.2,0.2,0.2,0.8,0.2,0.2,0.2,0.8","0.8,0.2,0.2,0.2,0.8,0.2,0.2,0.2,0.8","1","",""
"","html-keyboard-response","151","176130","0.0-151.0","3IJXV6UZ1Y5ALGIQWIC3FSQUYF1RIX","A132GRVDGXPJGY","3WRBLBQ2GRU63BU2LFOJL1G32T90GO","","null","<img src=""img/land6.png"" style=""width:200px;border:14px solid red;"">","null","","","","","","","","","",""
"","image-keyboard-response","152","177072","0.0-152.0","3IJXV6UZ1Y5ALGIQWIC3FSQUYF1RIX","A132GRVDGXPJGY","3WRBLBQ2GRU63BU2LFOJL1G32T90GO","","939.7999999970198","img/land4.png","74","941.2000000029802","1","1","1","2","0.8,0.2,0.2,0.2,0.8,0.2,0.2,0.2,0.8","0.8,0.2,0.2,0.2,0.8,0.2,0.2,0.2,0.8","1","",""
"","html-keyboard-response","153","177387","0.0-153.0","3IJXV6UZ1Y5ALGIQWIC3FSQUYF1RIX","A132GRVDGXPJGY","3WRBLBQ2GRU63BU2LFOJL1G32T90GO","","null","<img src=""img/land4.png"" style=""width:200px; border:14px solid green;"">","null","","","","","","","","","",""
"","image-keyboard-response","154","179390","0.0-154.0","3IJXV6UZ1Y5ALGIQWIC3FSQUYF1RIX","A132GRVDGXPJGY","3WRBLBQ2GRU63BU2LFOJL1G32T90GO","","","img/land4.png","","2002.2999999970198","-1","0","1","2","0.8,0.2,0.2,0.2,0.8,0.2,0.2,0.2,0.8","0.8,0.2,0.2,0.2,0.8,0.2,0.2,0.2,0.8","1","",""
"","html-keyboard-response","155","179693","0.0-155.0","3IJXV6UZ1Y5ALGIQWIC3FSQUYF1RIX","A132GRVDGXPJGY","3WRBLBQ2GRU63BU2LFOJL1G32T90GO","","null","<img src=""img/land4.png"" style=""width:200px;border:14px solid red;"">","null","","","","","","","","","",""
"","image-keyboard-response","156","180793","0.0-156.0","3IJXV6UZ1Y5ALGIQWIC3FSQUYF1RIX","A132GRVDGXPJGY","3WRBLBQ2GRU63BU2LFOJL1G32T90GO","","1097.5999999940395","img/land4.png","74","1099.5","1","1","1","2","0.8,0.2,0.2,0.2,0.8,0.2,0.2,0.2,0.8","0.8,0.2,0.2,0.2,0.8,0.2,0.2,0.2,0.8","1","",""
"","html-keyboard-response","157","181096","0.0-157.0","3IJXV6UZ1Y5ALGIQWIC3FSQUYF1RIX","A132GRVDGXPJGY","3WRBLBQ2GRU63BU2LFOJL1G32T90GO","","null","<img src=""img/land4.png"" style=""width:200px; border:14px solid green;"">","null","","","","","","","","","",""
"","image-keyboard-response","158","182770","0.0-158.0","3IJXV6UZ1Y5ALGIQWIC3FSQUYF1RIX","A132GRVDGXPJGY","3WRBLBQ2GRU63BU2LFOJL1G32T90GO","","1670.7999999970198","img/land4.png","74","1672.699999988079","1","1","1","2","0.8,0.2,0.2,0.2,0.8,0.2,0.2,0.2,0.8","0.8,0.2,0.2,0.2,0.8,0.2,0.2,0.2,0.8","1","",""
"","html-keyboard-response","159","183072","0.0-159.0","3IJXV6UZ1Y5ALGIQWIC3FSQUYF1RIX","A132GRVDGXPJGY","3WRBLBQ2GRU63BU2LFOJL1G32T90GO","","null","<img src=""img/land4.png"" style=""width:200px; border:14px solid green;"">","null","","","","","","","","","",""
"","image-keyboard-response","160","183810","0.0-160.0","3IJXV6UZ1Y5ALGIQWIC3FSQUYF1RIX","A132GRVDGXPJGY","3WRBLBQ2GRU63BU2LFOJL1G32T90GO","","735.5","img/land4.png","74","737.5","1","1","1","2","0.8,0.2,0.2,0.2,0.8,0.2,0.2,0.2,0.8","0.8,0.2,0.2,0.2,0.8,0.2,0.2,0.2,0.8","1","",""
"","html-keyboard-response","161","184113","0.0-161.0","3IJXV6UZ1Y5ALGIQWIC3FSQUYF1RIX","A132GRVDGXPJGY","3WRBLBQ2GRU63BU2LFOJL1G32T90GO","","null","<img src=""img/land4.png"" style=""width:200px; border:14px solid green;"">","null","","","","","","","","","",""
"","image-keyboard-response","162","184686","0.0-162.0","3IJXV6UZ1Y5ALGIQWIC3FSQUYF1RIX","A132GRVDGXPJGY","3WRBLBQ2GRU63BU2LFOJL1G32T90GO","","570.4000000059605","img/land4.png","74","572.2000000029802","1","1","1","2","0.8,0.2,0.2,0.2,0.8,0.2,0.2,0.2,0.8","0.8,0.2,0.2,0.2,0.8,0.2,0.2,0.2,0.8","1","",""
"","html-keyboard-response","163","184988","0.0-163.0","3IJXV6UZ1Y5ALGIQWIC3FSQUYF1RIX","A132GRVDGXPJGY","3WRBLBQ2GRU63BU2LFOJL1G32T90GO","","null","<img src=""img/land4.png"" style=""width:200px; border:14px solid green;"">","null","","","","","","","","","",""
"","image-keyboard-response","164","185556","0.0-164.0","3IJXV6UZ1Y5ALGIQWIC3FSQUYF1RIX","A132GRVDGXPJGY","3WRBLBQ2GRU63BU2LFOJL1G32T90GO","","565.7000000029802","img/land4.png","74","567.5","1","1","1","2","0.8,0.2,0.2,0.2,0.8,0.2,0.2,0.2,0.8","0.8,0.2,0.2,0.2,0.8,0.2,0.2,0.2,0.8","1","",""
"","html-keyboard-response","165","185859","0.0-165.0","3IJXV6UZ1Y5ALGIQWIC3FSQUYF1RIX","A132GRVDGXPJGY","3WRBLBQ2GRU63BU2LFOJL1G32T90GO","","null","<img src=""img/land4.png"" style=""width:200px; border:14px solid green;"">","null","","","","","","","","","",""
"","image-keyboard-response","166","186627","0.0-166.0","3IJXV6UZ1Y5ALGIQWIC3FSQUYF1RIX","A132GRVDGXPJGY","3WRBLBQ2GRU63BU2LFOJL1G32T90GO","","765.6000000089407","img/land6.png","75","767.5","2","1","2","2","0.8,0.2,0.2,0.2,0.8,0.2,0.2,0.2,0.8","0.8,0.2,0.2,0.2,0.8,0.2,0.2,0.2,0.8","1","",""
"","html-keyboard-response","167","186930","0.0-167.0","3IJXV6UZ1Y5ALGIQWIC3FSQUYF1RIX","A132GRVDGXPJGY","3WRBLBQ2GRU63BU2LFOJL1G32T90GO","","null","<img src=""img/land6.png"" style=""width:200px; border:14px solid green;"">","null","","","","","","","","","",""
"","image-keyboard-response","168","187968","0.0-168.0","3IJXV6UZ1Y5ALGIQWIC3FSQUYF1RIX","A132GRVDGXPJGY","3WRBLBQ2GRU63BU2LFOJL1G32T90GO","","1036.9000000059605","img/land2.png","76","1038.2999999970198","3","1","3","2","0.8,0.2,0.2,0.2,0.8,0.2,0.2,0.2,0.8","0.8,0.2,0.2,0.2,0.8,0.2,0.2,0.2,0.8","1","",""
"","html-keyboard-response","169","188270","0.0-169.0","3IJXV6UZ1Y5ALGIQWIC3FSQUYF1RIX","A132GRVDGXPJGY","3WRBLBQ2GRU63BU2LFOJL1G32T90GO","","null","<img src=""img/land2.png"" style=""width:200px; border:14px solid green;"">","null","","","","","","","","","",""
"","image-keyboard-response","170","189042","0.0-170.0","3IJXV6UZ1Y5ALGIQWIC3FSQUYF1RIX","A132GRVDGXPJGY","3WRBLBQ2GRU63BU2LFOJL1G32T90GO","","770.5","img/land6.png","75","771.7000000029802","2","0","2","2","0.8,0.2,0.2,0.2,0.8,0.2,0.2,0.2,0.8","0.8,0.2,0.2,0.2,0.8,0.2,0.2,0.2,0.8","1","",""
"","html-keyboard-response","171","189345","0.0-171.0","3IJXV6UZ1Y5ALGIQWIC3FSQUYF1RIX","A132GRVDGXPJGY","3WRBLBQ2GRU63BU2LFOJL1G32T90GO","","null","<img src=""img/land6.png"" style=""width:200px;border:14px solid red;"">","null","","","","","","","","","",""
"","image-keyboard-response","172","190620","0.0-172.0","3IJXV6UZ1Y5ALGIQWIC3FSQUYF1RIX","A132GRVDGXPJGY","3WRBLBQ2GRU63BU2LFOJL1G32T90GO","","1272.7000000029802","img/land4.png","76","1274.6000000089407","3","0","1","2","0.8,0.2,0.2,0.2,0.8,0.2,0.2,0.2,0.8","0.8,0.2,0.2,0.2,0.8,0.2,0.2,0.2,0.8","1","",""
"","html-keyboard-response","173","190923","0.0-173.0","3IJXV6UZ1Y5ALGIQWIC3FSQUYF1RIX","A132GRVDGXPJGY","3WRBLBQ2GRU63BU2LFOJL1G32T90GO","","null","<img src=""img/land4.png"" style=""width:200px;border:14px solid red;"">","null","","","","","","","","","",""
"","image-keyboard-response","174","191408","0.0-174.0","3IJXV6UZ1Y5ALGIQWIC3FSQUYF1RIX","A132GRVDGXPJGY","3WRBLBQ2GRU63BU2LFOJL1G32T90GO","","483.19999998807907","img/land4.png","74","485.20000000298023","1","1","1","2","0.8,0.2,0.2,0.2,0.8,0.2,0.2,0.2,0.8","0.8,0.2,0.2,0.2,0.8,0.2,0.2,0.2,0.8","1","",""
"","html-keyboard-response","175","191711","0.0-175.0","3IJXV6UZ1Y5ALGIQWIC3FSQUYF1RIX","A132GRVDGXPJGY","3WRBLBQ2GRU63BU2LFOJL1G32T90GO","","null","<img src=""img/land4.png"" style=""width:200px; border:14px solid green;"">","null","","","","","","","","","",""
"","image-keyboard-response","176","192636","0.0-176.0","3IJXV6UZ1Y5ALGIQWIC3FSQUYF1RIX","A132GRVDGXPJGY","3WRBLBQ2GRU63BU2LFOJL1G32T90GO","","921.9000000059605","img/land2.png","76","924","3","1","3","2","0.8,0.2,0.2,0.2,0.8,0.2,0.2,0.2,0.8","0.8,0.2,0.2,0.2,0.8,0.2,0.2,0.2,0.8","1","",""
"","html-keyboard-response","177","192939","0.0-177.0","3IJXV6UZ1Y5ALGIQWIC3FSQUYF1RIX","A132GRVDGXPJGY","3WRBLBQ2GRU63BU2LFOJL1G32T90GO","","null","<img src=""img/land2.png"" style=""width:200px; border:14px solid green;"">","null","","","","","","","","","",""
"","image-keyboard-response","178","193527","0.0-178.0","3IJXV6UZ1Y5ALGIQWIC3FSQUYF1RIX","A132GRVDGXPJGY","3WRBLBQ2GRU63BU2LFOJL1G32T90GO","","586.1000000089407","img/land2.png","76","588.0999999940395","3","1","3","2","0.8,0.2,0.2,0.2,0.8,0.2,0.2,0.2,0.8","0.8,0.2,0.2,0.2,0.8,0.2,0.2,0.2,0.8","1","",""
"","html-keyboard-response","179","193831","0.0-179.0","3IJXV6UZ1Y5ALGIQWIC3FSQUYF1RIX","A132GRVDGXPJGY","3WRBLBQ2GRU63BU2LFOJL1G32T90GO","","null","<img src=""img/land2.png"" style=""width:200px; border:14px solid green;"">","null","","","","","","","","","",""
"","image-keyboard-response","180","194645","0.0-180.0","3IJXV6UZ1Y5ALGIQWIC3FSQUYF1RIX","A132GRVDGXPJGY","3WRBLBQ2GRU63BU2LFOJL1G32T90GO","","811.7000000029802","img/land6.png","75","813.6999999880791","2","1","2","2","0.8,0.2,0.2,0.2,0.8,0.2,0.2,0.2,0.8","0.8,0.2,0.2,0.2,0.8,0.2,0.2,0.2,0.8","1","",""
"","html-keyboard-response","181","194949","0.0-181.0","3IJXV6UZ1Y5ALGIQWIC3FSQUYF1RIX","A132GRVDGXPJGY","3WRBLBQ2GRU63BU2LFOJL1G32T90GO","","null","<img src=""img/land6.png"" style=""width:200px; border:14px solid green;"">","null","","","","","","","","","",""
"","image-keyboard-response","182","196509","0.0-182.0","3IJXV6UZ1Y5ALGIQWIC3FSQUYF1RIX","A132GRVDGXPJGY","3WRBLBQ2GRU63BU2LFOJL1G32T90GO","","1558.4000000059605","img/land6.png","75","1560.1000000089407","2","1","2","2","0.8,0.2,0.2,0.2,0.8,0.2,0.2,0.2,0.8","0.8,0.2,0.2,0.2,0.8,0.2,0.2,0.2,0.8","1","",""
"","html-keyboard-response","183","196813","0.0-183.0","3IJXV6UZ1Y5ALGIQWIC3FSQUYF1RIX","A132GRVDGXPJGY","3WRBLBQ2GRU63BU2LFOJL1G32T90GO","","null","<img src=""img/land6.png"" style=""width:200px; border:14px solid green;"">","null","","","","","","","","","",""
"","image-keyboard-response","184","197711","0.0-184.0","3IJXV6UZ1Y5ALGIQWIC3FSQUYF1RIX","A132GRVDGXPJGY","3WRBLBQ2GRU63BU2LFOJL1G32T90GO","","896.0999999940395","img/land2.png","76","898.1000000089407","3","1","3","2","0.8,0.2,0.2,0.2,0.8,0.2,0.2,0.2,0.8","0.8,0.2,0.2,0.2,0.8,0.2,0.2,0.2,0.8","1","",""
"","html-keyboard-response","185","198026","0.0-185.0","3IJXV6UZ1Y5ALGIQWIC3FSQUYF1RIX","A132GRVDGXPJGY","3WRBLBQ2GRU63BU2LFOJL1G32T90GO","","null","<img src=""img/land2.png"" style=""width:200px; border:14px solid green;"">","null","","","","","","","","","",""
"","image-keyboard-response","186","199014","0.0-186.0","3IJXV6UZ1Y5ALGIQWIC3FSQUYF1RIX","A132GRVDGXPJGY","3WRBLBQ2GRU63BU2LFOJL1G32T90GO","","986.7999999970198","img/land4.png","74","987.7000000029802","1","1","1","2","0.8,0.2,0.2,0.2,0.8,0.2,0.2,0.2,0.8","0.8,0.2,0.2,0.2,0.8,0.2,0.2,0.2,0.8","1","",""
"","html-keyboard-response","187","199316","0.0-187.0","3IJXV6UZ1Y5ALGIQWIC3FSQUYF1RIX","A132GRVDGXPJGY","3WRBLBQ2GRU63BU2LFOJL1G32T90GO","","null","<img src=""img/land4.png"" style=""width:200px; border:14px solid green;"">","null","","","","","","","","","",""
"","image-keyboard-response","188","200147","0.0-188.0","3IJXV6UZ1Y5ALGIQWIC3FSQUYF1RIX","A132GRVDGXPJGY","3WRBLBQ2GRU63BU2LFOJL1G32T90GO","","828.5","img/land2.png","76","830.2000000029802","3","1","3","2","0.8,0.2,0.2,0.2,0.8,0.2,0.2,0.2,0.8","0.8,0.2,0.2,0.2,0.8,0.2,0.2,0.2,0.8","1","",""
"","html-keyboard-response","189","200464","0.0-189.0","3IJXV6UZ1Y5ALGIQWIC3FSQUYF1RIX","A132GRVDGXPJGY","3WRBLBQ2GRU63BU2LFOJL1G32T90GO","","null","<img src=""img/land2.png"" style=""width:200px; border:14px solid green;"">","null","","","","","","","","","",""
"","image-keyboard-response","190","201418","0.0-190.0","3IJXV6UZ1Y5ALGIQWIC3FSQUYF1RIX","A132GRVDGXPJGY","3WRBLBQ2GRU63BU2LFOJL1G32T90GO","","951.2999999970198","img/land4.png","74","953.4000000059605","1","1","1","2","0.8,0.2,0.2,0.2,0.8,0.2,0.2,0.2,0.8","0.8,0.2,0.2,0.2,0.8,0.2,0.2,0.2,0.8","1","",""
"","html-keyboard-response","191","201721","0.0-191.0","3IJXV6UZ1Y5ALGIQWIC3FSQUYF1RIX","A132GRVDGXPJGY","3WRBLBQ2GRU63BU2LFOJL1G32T90GO","","null","<img src=""img/land4.png"" style=""width:200px; border:14px solid green;"">","null","","","","","","","","","",""
"","image-keyboard-response","192","203723","0.0-192.0","3IJXV6UZ1Y5ALGIQWIC3FSQUYF1RIX","A132GRVDGXPJGY","3WRBLBQ2GRU63BU2LFOJL1G32T90GO","","","img/land4.png","","2002.4000000059605","-1","0","1","2","0.8,0.2,0.2,0.2,0.8,0.2,0.2,0.2,0.8","0.8,0.2,0.2,0.2,0.8,0.2,0.2,0.2,0.8","1","",""
"","html-keyboard-response","193","204026","0.0-193.0","3IJXV6UZ1Y5ALGIQWIC3FSQUYF1RIX","A132GRVDGXPJGY","3WRBLBQ2GRU63BU2LFOJL1G32T90GO","","null","<img src=""img/land4.png"" style=""width:200px;border:14px solid red;"">","null","","","","","","","","","",""
"","image-keyboard-response","194","204807","0.0-194.0","3IJXV6UZ1Y5ALGIQWIC3FSQUYF1RIX","A132GRVDGXPJGY","3WRBLBQ2GRU63BU2LFOJL1G32T90GO","","778.2000000029802","img/land6.png","75","780.1000000089407","2","1","2","2","0.8,0.2,0.2,0.2,0.8,0.2,0.2,0.2,0.8","0.8,0.2,0.2,0.2,0.8,0.2,0.2,0.2,0.8","1","",""
"","html-keyboard-response","195","205110","0.0-195.0","3IJXV6UZ1Y5ALGIQWIC3FSQUYF1RIX","A132GRVDGXPJGY","3WRBLBQ2GRU63BU2LFOJL1G32T90GO","","null","<img src=""img/land6.png"" style=""width:200px; border:14px solid green;"">","null","","","","","","","","","",""
"","image-keyboard-response","196","206040","0.0-196.0","3IJXV6UZ1Y5ALGIQWIC3FSQUYF1RIX","A132GRVDGXPJGY","3WRBLBQ2GRU63BU2LFOJL1G32T90GO","","927.1000000089407","img/land4.png","74","929.0999999940395","1","1","1","2","0.8,0.2,0.2,0.2,0.8,0.2,0.2,0.2,0.8","0.8,0.2,0.2,0.2,0.8,0.2,0.2,0.2,0.8","1","",""
"","html-keyboard-response","197","206342","0.0-197.0","3IJXV6UZ1Y5ALGIQWIC3FSQUYF1RIX","A132GRVDGXPJGY","3WRBLBQ2GRU63BU2LFOJL1G32T90GO","","null","<img src=""img/land4.png"" style=""width:200px; border:14px solid green;"">","null","","","","","","","","","",""
"","image-keyboard-response","198","206931","0.0-198.0","3IJXV6UZ1Y5ALGIQWIC3FSQUYF1RIX","A132GRVDGXPJGY","3WRBLBQ2GRU63BU2LFOJL1G32T90GO","","585.7999999970198","img/land4.png","74","587.6999999880791","1","1","1","2","0.8,0.2,0.2,0.2,0.8,0.2,0.2,0.2,0.8","0.8,0.2,0.2,0.2,0.8,0.2,0.2,0.2,0.8","1","",""
"","html-keyboard-response","199","207234","0.0-199.0","3IJXV6UZ1Y5ALGIQWIC3FSQUYF1RIX","A132GRVDGXPJGY","3WRBLBQ2GRU63BU2LFOJL1G32T90GO","","null","<img src=""img/land4.png"" style=""width:200px; border:14px solid green;"">","null","","","","","","","","","",""
"","image-keyboard-response","200","208018","0.0-200.0","3IJXV6UZ1Y5ALGIQWIC3FSQUYF1RIX","A132GRVDGXPJGY","3WRBLBQ2GRU63BU2LFOJL1G32T90GO","","783.4000000059605","img/land6.png","75","784.2999999970198","2","1","2","2","0.8,0.2,0.2,0.2,0.8,0.2,0.2,0.2,0.8","0.8,0.2,0.2,0.2,0.8,0.2,0.2,0.2,0.8","1","",""
"","html-keyboard-response","201","208322","0.0-201.0","3IJXV6UZ1Y5ALGIQWIC3FSQUYF1RIX","A132GRVDGXPJGY","3WRBLBQ2GRU63BU2LFOJL1G32T90GO","","null","<img src=""img/land6.png"" style=""width:200px; border:14px solid green;"">","null","","","","","","","","","",""
"","image-keyboard-response","202","209205","0.0-202.0","3IJXV6UZ1Y5ALGIQWIC3FSQUYF1RIX","A132GRVDGXPJGY","3WRBLBQ2GRU63BU2LFOJL1G32T90GO","","878.9000000059605","img/land2.png","76","880.4000000059605","3","1","3","2","0.8,0.2,0.2,0.2,0.8,0.2,0.2,0.2,0.8","0.8,0.2,0.2,0.2,0.8,0.2,0.2,0.2,0.8","1","",""
"","html-keyboard-response","203","209507","0.0-203.0","3IJXV6UZ1Y5ALGIQWIC3FSQUYF1RIX","A132GRVDGXPJGY","3WRBLBQ2GRU63BU2LFOJL1G32T90GO","","null","<img src=""img/land2.png"" style=""width:200px; border:14px solid green;"">","null","","","","","","","","","",""
"","image-keyboard-response","204","210203","0.0-204.0","3IJXV6UZ1Y5ALGIQWIC3FSQUYF1RIX","A132GRVDGXPJGY","3WRBLBQ2GRU63BU2LFOJL1G32T90GO","","693.6000000089407","img/land2.png","76","695.0999999940395","3","1","3","2","0.8,0.2,0.2,0.2,0.8,0.2,0.2,0.2,0.8","0.8,0.2,0.2,0.2,0.8,0.2,0.2,0.2,0.8","1","",""
"","html-keyboard-response","205","210505","0.0-205.0","3IJXV6UZ1Y5ALGIQWIC3FSQUYF1RIX","A132GRVDGXPJGY","3WRBLBQ2GRU63BU2LFOJL1G32T90GO","","null","<img src=""img/land2.png"" style=""width:200px; border:14px solid green;"">","null","","","","","","","","","",""
"","image-keyboard-response","206","211248","0.0-206.0","3IJXV6UZ1Y5ALGIQWIC3FSQUYF1RIX","A132GRVDGXPJGY","3WRBLBQ2GRU63BU2LFOJL1G32T90GO","","740.7000000029802","img/land4.png","74","742.7999999970198","1","1","1","2","0.8,0.2,0.2,0.2,0.8,0.2,0.2,0.2,0.8","0.8,0.2,0.2,0.2,0.8,0.2,0.2,0.2,0.8","1","",""
"","html-keyboard-response","207","211551","0.0-207.0","3IJXV6UZ1Y5ALGIQWIC3FSQUYF1RIX","A132GRVDGXPJGY","3WRBLBQ2GRU63BU2LFOJL1G32T90GO","","null","<img src=""img/land4.png"" style=""width:200px; border:14px solid green;"">","null","","","","","","","","","",""
"","image-keyboard-response","208","212133","0.0-208.0","3IJXV6UZ1Y5ALGIQWIC3FSQUYF1RIX","A132GRVDGXPJGY","3WRBLBQ2GRU63BU2LFOJL1G32T90GO","","578.6999999880791","img/land4.png","74","580.5999999940395","1","1","1","2","0.8,0.2,0.2,0.2,0.8,0.2,0.2,0.2,0.8","0.8,0.2,0.2,0.2,0.8,0.2,0.2,0.2,0.8","1","",""
"","html-keyboard-response","209","212435","0.0-209.0","3IJXV6UZ1Y5ALGIQWIC3FSQUYF1RIX","A132GRVDGXPJGY","3WRBLBQ2GRU63BU2LFOJL1G32T90GO","","null","<img src=""img/land4.png"" style=""width:200px; border:14px solid green;"">","null","","","","","","","","","",""
"","image-keyboard-response","210","213192","0.0-210.0","3IJXV6UZ1Y5ALGIQWIC3FSQUYF1RIX","A132GRVDGXPJGY","3WRBLBQ2GRU63BU2LFOJL1G32T90GO","","755.9000000059605","img/land6.png","75","756.8999999910593","2","1","2","2","0.8,0.2,0.2,0.2,0.8,0.2,0.2,0.2,0.8","0.8,0.2,0.2,0.2,0.8,0.2,0.2,0.2,0.8","1","",""
"","html-keyboard-response","211","213495","0.0-211.0","3IJXV6UZ1Y5ALGIQWIC3FSQUYF1RIX","A132GRVDGXPJGY","3WRBLBQ2GRU63BU2LFOJL1G32T90GO","","null","<img src=""img/land6.png"" style=""width:200px; border:14px solid green;"">","null","","","","","","","","","",""
"","image-keyboard-response","212","214361","0.0-212.0","3IJXV6UZ1Y5ALGIQWIC3FSQUYF1RIX","A132GRVDGXPJGY","3WRBLBQ2GRU63BU2LFOJL1G32T90GO","","863","img/land2.png","76","865","3","0","3","2","0.8,0.2,0.2,0.2,0.8,0.2,0.2,0.2,0.8","0.8,0.2,0.2,0.2,0.8,0.2,0.2,0.2,0.8","1","",""
"","html-keyboard-response","213","214664","0.0-213.0","3IJXV6UZ1Y5ALGIQWIC3FSQUYF1RIX","A132GRVDGXPJGY","3WRBLBQ2GRU63BU2LFOJL1G32T90GO","","null","<img src=""img/land2.png"" style=""width:200px;border:14px solid red;"">","null","","","","","","","","","",""
"","image-keyboard-response","214","215586","0.0-214.0","3IJXV6UZ1Y5ALGIQWIC3FSQUYF1RIX","A132GRVDGXPJGY","3WRBLBQ2GRU63BU2LFOJL1G32T90GO","","919.4000000059605","img/land4.png","74","921.4000000059605","1","1","1","2","0.8,0.2,0.2,0.2,0.8,0.2,0.2,0.2,0.8","0.8,0.2,0.2,0.2,0.8,0.2,0.2,0.2,0.8","1","",""
"","html-keyboard-response","215","215890","0.0-215.0","3IJXV6UZ1Y5ALGIQWIC3FSQUYF1RIX","A132GRVDGXPJGY","3WRBLBQ2GRU63BU2LFOJL1G32T90GO","","null","<img src=""img/land4.png"" style=""width:200px; border:14px solid green;"">","null","","","","","","","","","",""
"","image-keyboard-response","216","216729","0.0-216.0","3IJXV6UZ1Y5ALGIQWIC3FSQUYF1RIX","A132GRVDGXPJGY","3WRBLBQ2GRU63BU2LFOJL1G32T90GO","","836.8999999910593","img/land2.png","76","838.6999999880791","3","0","3","2","0.8,0.2,0.2,0.2,0.8,0.2,0.2,0.2,0.8","0.8,0.2,0.2,0.2,0.8,0.2,0.2,0.2,0.8","1","",""
"","html-keyboard-response","217","217032","0.0-217.0","3IJXV6UZ1Y5ALGIQWIC3FSQUYF1RIX","A132GRVDGXPJGY","3WRBLBQ2GRU63BU2LFOJL1G32T90GO","","null","<img src=""img/land2.png"" style=""width:200px;border:14px solid red;"">","null","","","","","","","","","",""
"","image-keyboard-response","218","217911","0.0-218.0","3IJXV6UZ1Y5ALGIQWIC3FSQUYF1RIX","A132GRVDGXPJGY","3WRBLBQ2GRU63BU2LFOJL1G32T90GO","","877.2999999970198","img/land4.png","74","879","1","0","1","2","0.8,0.2,0.2,0.2,0.8,0.2,0.2,0.2,0.8","0.8,0.2,0.2,0.2,0.8,0.2,0.2,0.2,0.8","1","",""
"","html-keyboard-response","219","218215","0.0-219.0","3IJXV6UZ1Y5ALGIQWIC3FSQUYF1RIX","A132GRVDGXPJGY","3WRBLBQ2GRU63BU2LFOJL1G32T90GO","","null","<img src=""img/land4.png"" style=""width:200px;border:14px solid red;"">","null","","","","","","","","","",""
"","image-keyboard-response","220","218853","0.0-220.0","3IJXV6UZ1Y5ALGIQWIC3FSQUYF1RIX","A132GRVDGXPJGY","3WRBLBQ2GRU63BU2LFOJL1G32T90GO","","635.9000000059605","img/land4.png","74","637.9000000059605","1","1","1","2","0.8,0.2,0.2,0.2,0.8,0.2,0.2,0.2,0.8","0.8,0.2,0.2,0.2,0.8,0.2,0.2,0.2,0.8","1","",""
"","html-keyboard-response","221","219156","0.0-221.0","3IJXV6UZ1Y5ALGIQWIC3FSQUYF1RIX","A132GRVDGXPJGY","3WRBLBQ2GRU63BU2LFOJL1G32T90GO","","null","<img src=""img/land4.png"" style=""width:200px; border:14px solid green;"">","null","","","","","","","","","",""
"","image-keyboard-response","222","219791","0.0-222.0","3IJXV6UZ1Y5ALGIQWIC3FSQUYF1RIX","A132GRVDGXPJGY","3WRBLBQ2GRU63BU2LFOJL1G32T90GO","","632.6000000089407","img/land4.png","74","634","1","1","1","2","0.8,0.2,0.2,0.2,0.8,0.2,0.2,0.2,0.8","0.8,0.2,0.2,0.2,0.8,0.2,0.2,0.2,0.8","1","",""
"","html-keyboard-response","223","220097","0.0-223.0","3IJXV6UZ1Y5ALGIQWIC3FSQUYF1RIX","A132GRVDGXPJGY","3WRBLBQ2GRU63BU2LFOJL1G32T90GO","","null","<img src=""img/land4.png"" style=""width:200px; border:14px solid green;"">","null","","","","","","","","","",""
"","image-keyboard-response","224","220904","0.0-224.0","3IJXV6UZ1Y5ALGIQWIC3FSQUYF1RIX","A132GRVDGXPJGY","3WRBLBQ2GRU63BU2LFOJL1G32T90GO","","804.5999999940395","img/land4.png","74","806.3999999910593","1","1","1","2","0.8,0.2,0.2,0.2,0.8,0.2,0.2,0.2,0.8","0.8,0.2,0.2,0.2,0.8,0.2,0.2,0.2,0.8","1","",""
"","html-keyboard-response","225","221207","0.0-225.0","3IJXV6UZ1Y5ALGIQWIC3FSQUYF1RIX","A132GRVDGXPJGY","3WRBLBQ2GRU63BU2LFOJL1G32T90GO","","null","<img src=""img/land4.png"" style=""width:200px; border:14px solid green;"">","null","","","","","","","","","",""
"","image-keyboard-response","226","221827","0.0-226.0","3IJXV6UZ1Y5ALGIQWIC3FSQUYF1RIX","A132GRVDGXPJGY","3WRBLBQ2GRU63BU2LFOJL1G32T90GO","","618.6000000089407","img/land4.png","74","619.7000000029802","1","1","1","2","0.8,0.2,0.2,0.2,0.8,0.2,0.2,0.2,0.8","0.8,0.2,0.2,0.2,0.8,0.2,0.2,0.2,0.8","1","",""
"","html-keyboard-response","227","222129","0.0-227.0","3IJXV6UZ1Y5ALGIQWIC3FSQUYF1RIX","A132GRVDGXPJGY","3WRBLBQ2GRU63BU2LFOJL1G32T90GO","","null","<img src=""img/land4.png"" style=""width:200px; border:14px solid green;"">","null","","","","","","","","","",""
"","image-keyboard-response","228","222871","0.0-228.0","3IJXV6UZ1Y5ALGIQWIC3FSQUYF1RIX","A132GRVDGXPJGY","3WRBLBQ2GRU63BU2LFOJL1G32T90GO","","738.7999999970198","img/land4.png","74","740.9000000059605","1","1","1","2","0.8,0.2,0.2,0.2,0.8,0.2,0.2,0.2,0.8","0.8,0.2,0.2,0.2,0.8,0.2,0.2,0.2,0.8","1","",""
"","html-keyboard-response","229","223178","0.0-229.0","3IJXV6UZ1Y5ALGIQWIC3FSQUYF1RIX","A132GRVDGXPJGY","3WRBLBQ2GRU63BU2LFOJL1G32T90GO","","null","<img src=""img/land4.png"" style=""width:200px; border:14px solid green;"">","null","","","","","","","","","",""
"","image-keyboard-response","230","223896","0.0-230.0","3IJXV6UZ1Y5ALGIQWIC3FSQUYF1RIX","A132GRVDGXPJGY","3WRBLBQ2GRU63BU2LFOJL1G32T90GO","","717","img/land4.png","74","718","1","1","1","2","0.8,0.2,0.2,0.2,0.8,0.2,0.2,0.2,0.8","0.8,0.2,0.2,0.2,0.8,0.2,0.2,0.2,0.8","1","",""
"","html-keyboard-response","231","224199","0.0-231.0","3IJXV6UZ1Y5ALGIQWIC3FSQUYF1RIX","A132GRVDGXPJGY","3WRBLBQ2GRU63BU2LFOJL1G32T90GO","","null","<img src=""img/land4.png"" style=""width:200px; border:14px solid green;"">","null","","","","","","","","","",""
"","image-keyboard-response","232","224872","0.0-232.0","3IJXV6UZ1Y5ALGIQWIC3FSQUYF1RIX","A132GRVDGXPJGY","3WRBLBQ2GRU63BU2LFOJL1G32T90GO","","670.0999999940395","img/land4.png","74","672.2000000029802","1","1","1","2","0.8,0.2,0.2,0.2,0.8,0.2,0.2,0.2,0.8","0.8,0.2,0.2,0.2,0.8,0.2,0.2,0.2,0.8","1","",""
"","html-keyboard-response","233","225175","0.0-233.0","3IJXV6UZ1Y5ALGIQWIC3FSQUYF1RIX","A132GRVDGXPJGY","3WRBLBQ2GRU63BU2LFOJL1G32T90GO","","null","<img src=""img/land4.png"" style=""width:200px; border:14px solid green;"">","null","","","","","","","","","",""
"","image-keyboard-response","234","225845","0.0-234.0","3IJXV6UZ1Y5ALGIQWIC3FSQUYF1RIX","A132GRVDGXPJGY","3WRBLBQ2GRU63BU2LFOJL1G32T90GO","","667.2999999970198","img/land4.png","74","668.9000000059605","1","0","1","2","0.8,0.2,0.2,0.2,0.8,0.2,0.2,0.2,0.8","0.8,0.2,0.2,0.2,0.8,0.2,0.2,0.2,0.8","1","",""
"","html-keyboard-response","235","226147","0.0-235.0","3IJXV6UZ1Y5ALGIQWIC3FSQUYF1RIX","A132GRVDGXPJGY","3WRBLBQ2GRU63BU2LFOJL1G32T90GO","","null","<img src=""img/land4.png"" style=""width:200px;border:14px solid red;"">","null","","","","","","","","","",""
"","image-keyboard-response","236","226765","0.0-236.0","3IJXV6UZ1Y5ALGIQWIC3FSQUYF1RIX","A132GRVDGXPJGY","3WRBLBQ2GRU63BU2LFOJL1G32T90GO","","616","img/land4.png","74","618","1","1","1","2","0.8,0.2,0.2,0.2,0.8,0.2,0.2,0.2,0.8","0.8,0.2,0.2,0.2,0.8,0.2,0.2,0.2,0.8","1","",""
"","html-keyboard-response","237","227068","0.0-237.0","3IJXV6UZ1Y5ALGIQWIC3FSQUYF1RIX","A132GRVDGXPJGY","3WRBLBQ2GRU63BU2LFOJL1G32T90GO","","null","<img src=""img/land4.png"" style=""width:200px; border:14px solid green;"">","null","","","","","","","","","",""
"","image-keyboard-response","238","227709","0.0-238.0","3IJXV6UZ1Y5ALGIQWIC3FSQUYF1RIX","A132GRVDGXPJGY","3WRBLBQ2GRU63BU2LFOJL1G32T90GO","","639.2000000029802","img/land4.png","74","640.7999999970198","1","1","1","2","0.8,0.2,0.2,0.2,0.8,0.2,0.2,0.2,0.8","0.8,0.2,0.2,0.2,0.8,0.2,0.2,0.2,0.8","1","",""
"","html-keyboard-response","239","228011","0.0-239.0","3IJXV6UZ1Y5ALGIQWIC3FSQUYF1RIX","A132GRVDGXPJGY","3WRBLBQ2GRU63BU2LFOJL1G32T90GO","","null","<img src=""img/land4.png"" style=""width:200px; border:14px solid green;"">","null","","","","","","","","","",""
"","image-keyboard-response","240","228746","0.0-240.0","3IJXV6UZ1Y5ALGIQWIC3FSQUYF1RIX","A132GRVDGXPJGY","3WRBLBQ2GRU63BU2LFOJL1G32T90GO","","732.5999999940395","img/land6.png","75","734.5999999940395","2","0","2","2","0.8,0.2,0.2,0.2,0.8,0.2,0.2,0.2,0.8","0.8,0.2,0.2,0.2,0.8,0.2,0.2,0.2,0.8","1","",""
"","html-keyboard-response","241","229049","0.0-241.0","3IJXV6UZ1Y5ALGIQWIC3FSQUYF1RIX","A132GRVDGXPJGY","3WRBLBQ2GRU63BU2LFOJL1G32T90GO","","null","<img src=""img/land6.png"" style=""width:200px;border:14px solid red;"">","null","","","","","","","","","",""
"","image-keyboard-response","242","229555","0.0-242.0","3IJXV6UZ1Y5ALGIQWIC3FSQUYF1RIX","A132GRVDGXPJGY","3WRBLBQ2GRU63BU2LFOJL1G32T90GO","","503.5","img/land6.png","75","505.3999999910593","2","1","2","2","0.8,0.2,0.2,0.2,0.8,0.2,0.2,0.2,0.8","0.8,0.2,0.2,0.2,0.8,0.2,0.2,0.2,0.8","1","",""
"","html-keyboard-response","243","229860","0.0-243.0","3IJXV6UZ1Y5ALGIQWIC3FSQUYF1RIX","A132GRVDGXPJGY","3WRBLBQ2GRU63BU2LFOJL1G32T90GO","","null","<img src=""img/land6.png"" style=""width:200px; border:14px solid green;"">","null","","","","","","","","","",""
"","image-keyboard-response","244","230774","0.0-244.0","3IJXV6UZ1Y5ALGIQWIC3FSQUYF1RIX","A132GRVDGXPJGY","3WRBLBQ2GRU63BU2LFOJL1G32T90GO","","912.5","img/land4.png","74","913.9000000059605","1","0","1","2","0.8,0.2,0.2,0.2,0.8,0.2,0.2,0.2,0.8","0.8,0.2,0.2,0.2,0.8,0.2,0.2,0.2,0.8","1","",""
"","html-keyboard-response","245","231076","0.0-245.0","3IJXV6UZ1Y5ALGIQWIC3FSQUYF1RIX","A132GRVDGXPJGY","3WRBLBQ2GRU63BU2LFOJL1G32T90GO","","null","<img src=""img/land4.png"" style=""width:200px;border:14px solid red;"">","null","","","","","","","","","",""
"","image-keyboard-response","246","231566","0.0-246.0","3IJXV6UZ1Y5ALGIQWIC3FSQUYF1RIX","A132GRVDGXPJGY","3WRBLBQ2GRU63BU2LFOJL1G32T90GO","","487.80000001192093","img/land4.png","74","489.70000000298023","1","1","1","2","0.8,0.2,0.2,0.2,0.8,0.2,0.2,0.2,0.8","0.8,0.2,0.2,0.2,0.8,0.2,0.2,0.2,0.8","1","",""
"","html-keyboard-response","247","231879","0.0-247.0","3IJXV6UZ1Y5ALGIQWIC3FSQUYF1RIX","A132GRVDGXPJGY","3WRBLBQ2GRU63BU2LFOJL1G32T90GO","","null","<img src=""img/land4.png"" style=""width:200px; border:14px solid green;"">","null","","","","","","","","","",""
"","image-keyboard-response","248","232518","0.0-248.0","3IJXV6UZ1Y5ALGIQWIC3FSQUYF1RIX","A132GRVDGXPJGY","3WRBLBQ2GRU63BU2LFOJL1G32T90GO","","636.0999999940395","img/land4.png","74","637.6000000089407","1","1","1","2","0.8,0.2,0.2,0.2,0.8,0.2,0.2,0.2,0.8","0.8,0.2,0.2,0.2,0.8,0.2,0.2,0.2,0.8","1","",""
"","html-keyboard-response","249","232819","0.0-249.0","3IJXV6UZ1Y5ALGIQWIC3FSQUYF1RIX","A132GRVDGXPJGY","3WRBLBQ2GRU63BU2LFOJL1G32T90GO","","null","<img src=""img/land4.png"" style=""width:200px; border:14px solid green;"">","null","","","","","","","","","",""
"","image-keyboard-response","250","233373","0.0-250.0","3IJXV6UZ1Y5ALGIQWIC3FSQUYF1RIX","A132GRVDGXPJGY","3WRBLBQ2GRU63BU2LFOJL1G32T90GO","","551.2999999970198","img/land4.png","74","553.3000000119209","1","0","1","2","0.8,0.2,0.2,0.2,0.8,0.2,0.2,0.2,0.8","0.8,0.2,0.2,0.2,0.8,0.2,0.2,0.2,0.8","1","",""
"","html-keyboard-response","251","233677","0.0-251.0","3IJXV6UZ1Y5ALGIQWIC3FSQUYF1RIX","A132GRVDGXPJGY","3WRBLBQ2GRU63BU2LFOJL1G32T90GO","","null","<img src=""img/land4.png"" style=""width:200px;border:14px solid red;"">","null","","","","","","","","","",""
"","image-keyboard-response","252","234221","0.0-252.0","3IJXV6UZ1Y5ALGIQWIC3FSQUYF1RIX","A132GRVDGXPJGY","3WRBLBQ2GRU63BU2LFOJL1G32T90GO","","541.3000000119209","img/land4.png","74","543.2999999970198","1","0","1","2","0.8,0.2,0.2,0.2,0.8,0.2,0.2,0.2,0.8","0.8,0.2,0.2,0.2,0.8,0.2,0.2,0.2,0.8","1","",""
"","html-keyboard-response","253","234539","0.0-253.0","3IJXV6UZ1Y5ALGIQWIC3FSQUYF1RIX","A132GRVDGXPJGY","3WRBLBQ2GRU63BU2LFOJL1G32T90GO","","null","<img src=""img/land4.png"" style=""width:200px;border:14px solid red;"">","null","","","","","","","","","",""
"","image-keyboard-response","254","235055","0.0-254.0","3IJXV6UZ1Y5ALGIQWIC3FSQUYF1RIX","A132GRVDGXPJGY","3WRBLBQ2GRU63BU2LFOJL1G32T90GO","","514.9000000059605","img/land4.png","74","515.6999999880791","1","0","1","2","0.8,0.2,0.2,0.2,0.8,0.2,0.2,0.2,0.8","0.8,0.2,0.2,0.2,0.8,0.2,0.2,0.2,0.8","1","",""
"","html-keyboard-response","255","235358","0.0-255.0","3IJXV6UZ1Y5ALGIQWIC3FSQUYF1RIX","A132GRVDGXPJGY","3WRBLBQ2GRU63BU2LFOJL1G32T90GO","","null","<img src=""img/land4.png"" style=""width:200px;border:14px solid red;"">","null","","","","","","","","","",""
"","image-keyboard-response","256","235997","0.0-256.0","3IJXV6UZ1Y5ALGIQWIC3FSQUYF1RIX","A132GRVDGXPJGY","3WRBLBQ2GRU63BU2LFOJL1G32T90GO","","637.2000000029802","img/land4.png","74","638.6000000089407","1","1","1","2","0.8,0.2,0.2,0.2,0.8,0.2,0.2,0.2,0.8","0.8,0.2,0.2,0.2,0.8,0.2,0.2,0.2,0.8","1","",""
"","html-keyboard-response","257","236299","0.0-257.0","3IJXV6UZ1Y5ALGIQWIC3FSQUYF1RIX","A132GRVDGXPJGY","3WRBLBQ2GRU63BU2LFOJL1G32T90GO","","null","<img src=""img/land4.png"" style=""width:200px; border:14px solid green;"">","null","","","","","","","","","",""
"","image-keyboard-response","258","236767","0.0-258.0","3IJXV6UZ1Y5ALGIQWIC3FSQUYF1RIX","A132GRVDGXPJGY","3WRBLBQ2GRU63BU2LFOJL1G32T90GO","","466.40000000596046","img/land4.png","74","467.70000000298023","1","1","1","2","0.8,0.2,0.2,0.2,0.8,0.2,0.2,0.2,0.8","0.8,0.2,0.2,0.2,0.8,0.2,0.2,0.2,0.8","1","",""
"","html-keyboard-response","259","237070","0.0-259.0","3IJXV6UZ1Y5ALGIQWIC3FSQUYF1RIX","A132GRVDGXPJGY","3WRBLBQ2GRU63BU2LFOJL1G32T90GO","","null","<img src=""img/land4.png"" style=""width:200px; border:14px solid green;"">","null","","","","","","","","","",""
"","image-keyboard-response","260","237792","0.0-260.0","3IJXV6UZ1Y5ALGIQWIC3FSQUYF1RIX","A132GRVDGXPJGY","3WRBLBQ2GRU63BU2LFOJL1G32T90GO","","719","img/land6.png","75","721","2","1","2","2","0.8,0.2,0.2,0.2,0.8,0.2,0.2,0.2,0.8","0.8,0.2,0.2,0.2,0.8,0.2,0.2,0.2,0.8","1","",""
"","html-keyboard-response","261","238095","0.0-261.0","3IJXV6UZ1Y5ALGIQWIC3FSQUYF1RIX","A132GRVDGXPJGY","3WRBLBQ2GRU63BU2LFOJL1G32T90GO","","null","<img src=""img/land6.png"" style=""width:200px; border:14px solid green;"">","null","","","","","","","","","",""
"","image-keyboard-response","262","238859","0.0-262.0","3IJXV6UZ1Y5ALGIQWIC3FSQUYF1RIX","A132GRVDGXPJGY","3WRBLBQ2GRU63BU2LFOJL1G32T90GO","","761.5999999940395","img/land4.png","74","763.5","1","1","1","2","0.8,0.2,0.2,0.2,0.8,0.2,0.2,0.2,0.8","0.8,0.2,0.2,0.2,0.8,0.2,0.2,0.2,0.8","1","",""
"","html-keyboard-response","263","239163","0.0-263.0","3IJXV6UZ1Y5ALGIQWIC3FSQUYF1RIX","A132GRVDGXPJGY","3WRBLBQ2GRU63BU2LFOJL1G32T90GO","","null","<img src=""img/land4.png"" style=""width:200px; border:14px solid green;"">","null","","","","","","","","","",""
"","image-keyboard-response","264","240011","0.0-264.0","3IJXV6UZ1Y5ALGIQWIC3FSQUYF1RIX","A132GRVDGXPJGY","3WRBLBQ2GRU63BU2LFOJL1G32T90GO","","845.9000000059605","img/land2.png","76","847.7999999970198","3","1","3","2","0.8,0.2,0.2,0.2,0.8,0.2,0.2,0.2,0.8","0.8,0.2,0.2,0.2,0.8,0.2,0.2,0.2,0.8","1","",""
"","html-keyboard-response","265","240314","0.0-265.0","3IJXV6UZ1Y5ALGIQWIC3FSQUYF1RIX","A132GRVDGXPJGY","3WRBLBQ2GRU63BU2LFOJL1G32T90GO","","null","<img src=""img/land2.png"" style=""width:200px; border:14px solid green;"">","null","","","","","","","","","",""
"","image-keyboard-response","266","241176","0.0-266.0","3IJXV6UZ1Y5ALGIQWIC3FSQUYF1RIX","A132GRVDGXPJGY","3WRBLBQ2GRU63BU2LFOJL1G32T90GO","","861.2999999970198","img/land4.png","74","861.7999999970198","1","1","1","2","0.8,0.2,0.2,0.2,0.8,0.2,0.2,0.2,0.8","0.8,0.2,0.2,0.2,0.8,0.2,0.2,0.2,0.8","1","",""
"","html-keyboard-response","267","241477","0.0-267.0","3IJXV6UZ1Y5ALGIQWIC3FSQUYF1RIX","A132GRVDGXPJGY","3WRBLBQ2GRU63BU2LFOJL1G32T90GO","","null","<img src=""img/land4.png"" style=""width:200px; border:14px solid green;"">","null","","","","","","","","","",""
"","image-keyboard-response","268","242285","0.0-268.0","3IJXV6UZ1Y5ALGIQWIC3FSQUYF1RIX","A132GRVDGXPJGY","3WRBLBQ2GRU63BU2LFOJL1G32T90GO","","804.9000000059605","img/land2.png","76","806.8999999910593","3","1","3","2","0.8,0.2,0.2,0.2,0.8,0.2,0.2,0.2,0.8","0.8,0.2,0.2,0.2,0.8,0.2,0.2,0.2,0.8","1","",""
"","html-keyboard-response","269","242588","0.0-269.0","3IJXV6UZ1Y5ALGIQWIC3FSQUYF1RIX","A132GRVDGXPJGY","3WRBLBQ2GRU63BU2LFOJL1G32T90GO","","null","<img src=""img/land2.png"" style=""width:200px; border:14px solid green;"">","null","","","","","","","","","",""
"","image-keyboard-response","270","243199","0.0-270.0","3IJXV6UZ1Y5ALGIQWIC3FSQUYF1RIX","A132GRVDGXPJGY","3WRBLBQ2GRU63BU2LFOJL1G32T90GO","","607.7999999970198","img/land2.png","76","609.7000000029802","3","0","3","2","0.8,0.2,0.2,0.2,0.8,0.2,0.2,0.2,0.8","0.8,0.2,0.2,0.2,0.8,0.2,0.2,0.2,0.8","1","",""
"","html-keyboard-response","271","243501","0.0-271.0","3IJXV6UZ1Y5ALGIQWIC3FSQUYF1RIX","A132GRVDGXPJGY","3WRBLBQ2GRU63BU2LFOJL1G32T90GO","","null","<img src=""img/land2.png"" style=""width:200px;border:14px solid red;"">","null","","","","","","","","","",""
"","image-keyboard-response","272","244140","0.0-272.0","3IJXV6UZ1Y5ALGIQWIC3FSQUYF1RIX","A132GRVDGXPJGY","3WRBLBQ2GRU63BU2LFOJL1G32T90GO","","636","img/land4.png","74","637.9000000059605","1","1","1","2","0.8,0.2,0.2,0.2,0.8,0.2,0.2,0.2,0.8","0.8,0.2,0.2,0.2,0.8,0.2,0.2,0.2,0.8","1","",""
"","html-keyboard-response","273","244443","0.0-273.0","3IJXV6UZ1Y5ALGIQWIC3FSQUYF1RIX","A132GRVDGXPJGY","3WRBLBQ2GRU63BU2LFOJL1G32T90GO","","null","<img src=""img/land4.png"" style=""width:200px; border:14px solid green;"">","null","","","","","","","","","",""
"","image-keyboard-response","274","244927","0.0-274.0","3IJXV6UZ1Y5ALGIQWIC3FSQUYF1RIX","A132GRVDGXPJGY","3WRBLBQ2GRU63BU2LFOJL1G32T90GO","","481.1000000089407","img/land4.png","74","482.90000000596046","1","0","1","2","0.8,0.2,0.2,0.2,0.8,0.2,0.2,0.2,0.8","0.8,0.2,0.2,0.2,0.8,0.2,0.2,0.2,0.8","1","",""
"","html-keyboard-response","275","245230","0.0-275.0","3IJXV6UZ1Y5ALGIQWIC3FSQUYF1RIX","A132GRVDGXPJGY","3WRBLBQ2GRU63BU2LFOJL1G32T90GO","","null","<img src=""img/land4.png"" style=""width:200px;border:14px solid red;"">","null","","","","","","","","","",""
"","image-keyboard-response","276","245729","0.0-276.0","3IJXV6UZ1Y5ALGIQWIC3FSQUYF1RIX","A132GRVDGXPJGY","3WRBLBQ2GRU63BU2LFOJL1G32T90GO","","497.20000000298023","img/land4.png","74","498.5","1","1","1","2","0.8,0.2,0.2,0.2,0.8,0.2,0.2,0.2,0.8","0.8,0.2,0.2,0.2,0.8,0.2,0.2,0.2,0.8","1","",""
"","html-keyboard-response","277","246031","0.0-277.0","3IJXV6UZ1Y5ALGIQWIC3FSQUYF1RIX","A132GRVDGXPJGY","3WRBLBQ2GRU63BU2LFOJL1G32T90GO","","null","<img src=""img/land4.png"" style=""width:200px; border:14px solid green;"">","null","","","","","","","","","",""
"","image-keyboard-response","278","246473","0.0-278.0","3IJXV6UZ1Y5ALGIQWIC3FSQUYF1RIX","A132GRVDGXPJGY","3WRBLBQ2GRU63BU2LFOJL1G32T90GO","","439.59999999403954","img/land4.png","74","441.6000000089407","1","1","1","2","0.8,0.2,0.2,0.2,0.8,0.2,0.2,0.2,0.8","0.8,0.2,0.2,0.2,0.8,0.2,0.2,0.2,0.8","1","",""
"","html-keyboard-response","279","246790","0.0-279.0","3IJXV6UZ1Y5ALGIQWIC3FSQUYF1RIX","A132GRVDGXPJGY","3WRBLBQ2GRU63BU2LFOJL1G32T90GO","","null","<img src=""img/land4.png"" style=""width:200px; border:14px solid green;"">","null","","","","","","","","","",""
"","image-keyboard-response","280","247487","0.0-280.0","3IJXV6UZ1Y5ALGIQWIC3FSQUYF1RIX","A132GRVDGXPJGY","3WRBLBQ2GRU63BU2LFOJL1G32T90GO","","694.8999999910593","img/land6.png","75","697","2","1","2","2","0.8,0.2,0.2,0.2,0.8,0.2,0.2,0.2,0.8","0.8,0.2,0.2,0.2,0.8,0.2,0.2,0.2,0.8","1","",""
"","html-keyboard-response","281","247791","0.0-281.0","3IJXV6UZ1Y5ALGIQWIC3FSQUYF1RIX","A132GRVDGXPJGY","3WRBLBQ2GRU63BU2LFOJL1G32T90GO","","null","<img src=""img/land6.png"" style=""width:200px; border:14px solid green;"">","null","","","","","","","","","",""
"","image-keyboard-response","282","248872","0.0-282.0","3IJXV6UZ1Y5ALGIQWIC3FSQUYF1RIX","A132GRVDGXPJGY","3WRBLBQ2GRU63BU2LFOJL1G32T90GO","","1078.2999999970198","img/land4.png","74","1080.2000000029802","1","1","1","2","0.8,0.2,0.2,0.2,0.8,0.2,0.2,0.2,0.8","0.8,0.2,0.2,0.2,0.8,0.2,0.2,0.2,0.8","1","",""
"","html-keyboard-response","283","249175","0.0-283.0","3IJXV6UZ1Y5ALGIQWIC3FSQUYF1RIX","A132GRVDGXPJGY","3WRBLBQ2GRU63BU2LFOJL1G32T90GO","","null","<img src=""img/land4.png"" style=""width:200px; border:14px solid green;"">","null","","","","","","","","","",""
"","image-keyboard-response","284","250044","0.0-284.0","3IJXV6UZ1Y5ALGIQWIC3FSQUYF1RIX","A132GRVDGXPJGY","3WRBLBQ2GRU63BU2LFOJL1G32T90GO","","867.0999999940395","img/land2.png","76","869.0999999940395","3","1","3","2","0.8,0.2,0.2,0.2,0.8,0.2,0.2,0.2,0.8","0.8,0.2,0.2,0.2,0.8,0.2,0.2,0.2,0.8","1","",""
"","html-keyboard-response","285","250347","0.0-285.0","3IJXV6UZ1Y5ALGIQWIC3FSQUYF1RIX","A132GRVDGXPJGY","3WRBLBQ2GRU63BU2LFOJL1G32T90GO","","null","<img src=""img/land2.png"" style=""width:200px; border:14px solid green;"">","null","","","","","","","","","",""
"","image-keyboard-response","286","251043","0.0-286.0","3IJXV6UZ1Y5ALGIQWIC3FSQUYF1RIX","A132GRVDGXPJGY","3WRBLBQ2GRU63BU2LFOJL1G32T90GO","","694.8999999910593","img/land4.png","74","695.8999999910593","1","1","1","2","0.8,0.2,0.2,0.2,0.8,0.2,0.2,0.2,0.8","0.8,0.2,0.2,0.2,0.8,0.2,0.2,0.2,0.8","1","",""
"","html-keyboard-response","287","251346","0.0-287.0","3IJXV6UZ1Y5ALGIQWIC3FSQUYF1RIX","A132GRVDGXPJGY","3WRBLBQ2GRU63BU2LFOJL1G32T90GO","","null","<img src=""img/land4.png"" style=""width:200px; border:14px solid green;"">","null","","","","","","","","","",""
"","image-keyboard-response","288","251827","0.0-288.0","3IJXV6UZ1Y5ALGIQWIC3FSQUYF1RIX","A132GRVDGXPJGY","3WRBLBQ2GRU63BU2LFOJL1G32T90GO","","479.29999999701977","img/land4.png","74","480.79999999701977","1","1","1","2","0.8,0.2,0.2,0.2,0.8,0.2,0.2,0.2,0.8","0.8,0.2,0.2,0.2,0.8,0.2,0.2,0.2,0.8","1","",""
"","html-keyboard-response","289","252130","0.0-289.0","3IJXV6UZ1Y5ALGIQWIC3FSQUYF1RIX","A132GRVDGXPJGY","3WRBLBQ2GRU63BU2LFOJL1G32T90GO","","null","<img src=""img/land4.png"" style=""width:200px; border:14px solid green;"">","null","","","","","","","","","",""
"","image-keyboard-response","290","252527","0.0-290.0","3IJXV6UZ1Y5ALGIQWIC3FSQUYF1RIX","A132GRVDGXPJGY","3WRBLBQ2GRU63BU2LFOJL1G32T90GO","","396","img/land4.png","74","396.6000000089407","1","1","1","2","0.8,0.2,0.2,0.2,0.8,0.2,0.2,0.2,0.8","0.8,0.2,0.2,0.2,0.8,0.2,0.2,0.2,0.8","1","",""
"","html-keyboard-response","291","252828","0.0-291.0","3IJXV6UZ1Y5ALGIQWIC3FSQUYF1RIX","A132GRVDGXPJGY","3WRBLBQ2GRU63BU2LFOJL1G32T90GO","","null","<img src=""img/land4.png"" style=""width:200px; border:14px solid green;"">","null","","","","","","","","","",""
"","image-keyboard-response","292","253253","0.0-292.0","3IJXV6UZ1Y5ALGIQWIC3FSQUYF1RIX","A132GRVDGXPJGY","3WRBLBQ2GRU63BU2LFOJL1G32T90GO","","423.29999999701977","img/land4.png","74","425.09999999403954","1","1","1","2","0.8,0.2,0.2,0.2,0.8,0.2,0.2,0.2,0.8","0.8,0.2,0.2,0.2,0.8,0.2,0.2,0.2,0.8","1","",""
"","html-keyboard-response","293","253557","0.0-293.0","3IJXV6UZ1Y5ALGIQWIC3FSQUYF1RIX","A132GRVDGXPJGY","3WRBLBQ2GRU63BU2LFOJL1G32T90GO","","null","<img src=""img/land4.png"" style=""width:200px; border:14px solid green;"">","null","","","","","","","","","",""
"","image-keyboard-response","294","254306","0.0-294.0","3IJXV6UZ1Y5ALGIQWIC3FSQUYF1RIX","A132GRVDGXPJGY","3WRBLBQ2GRU63BU2LFOJL1G32T90GO","","747.9000000059605","img/land2.png","76","748.7999999970198","3","1","3","2","0.8,0.2,0.2,0.2,0.8,0.2,0.2,0.2,0.8","0.8,0.2,0.2,0.2,0.8,0.2,0.2,0.2,0.8","1","",""
"","html-keyboard-response","295","254612","0.0-295.0","3IJXV6UZ1Y5ALGIQWIC3FSQUYF1RIX","A132GRVDGXPJGY","3WRBLBQ2GRU63BU2LFOJL1G32T90GO","","null","<img src=""img/land2.png"" style=""width:200px; border:14px solid green;"">","null","","","","","","","","","",""
"","image-keyboard-response","296","255212","0.0-296.0","3IJXV6UZ1Y5ALGIQWIC3FSQUYF1RIX","A132GRVDGXPJGY","3WRBLBQ2GRU63BU2LFOJL1G32T90GO","","596.7999999970198","img/land4.png","74","598.7999999970198","1","1","1","2","0.8,0.2,0.2,0.2,0.8,0.2,0.2,0.2,0.8","0.8,0.2,0.2,0.2,0.8,0.2,0.2,0.2,0.8","1","",""
"","html-keyboard-response","297","255514","0.0-297.0","3IJXV6UZ1Y5ALGIQWIC3FSQUYF1RIX","A132GRVDGXPJGY","3WRBLBQ2GRU63BU2LFOJL1G32T90GO","","null","<img src=""img/land4.png"" style=""width:200px; border:14px solid green;"">","null","","","","","","","","","",""
"","image-keyboard-response","298","256044","0.0-298.0","3IJXV6UZ1Y5ALGIQWIC3FSQUYF1RIX","A132GRVDGXPJGY","3WRBLBQ2GRU63BU2LFOJL1G32T90GO","","527.1999999880791","img/land4.png","74","529.1000000089407","1","1","1","2","0.8,0.2,0.2,0.2,0.8,0.2,0.2,0.2,0.8","0.8,0.2,0.2,0.2,0.8,0.2,0.2,0.2,0.8","1","",""
"","html-keyboard-response","299","256354","0.0-299.0","3IJXV6UZ1Y5ALGIQWIC3FSQUYF1RIX","A132GRVDGXPJGY","3WRBLBQ2GRU63BU2LFOJL1G32T90GO","","null","<img src=""img/land4.png"" style=""width:200px; border:14px solid green;"">","null","","","","","","","","","",""
"","image-keyboard-response","300","256761","0.0-300.0","3IJXV6UZ1Y5ALGIQWIC3FSQUYF1RIX","A132GRVDGXPJGY","3WRBLBQ2GRU63BU2LFOJL1G32T90GO","","405.20000000298023","img/land4.png","74","407","1","1","1","2","0.8,0.2,0.2,0.2,0.8,0.2,0.2,0.2,0.8","0.8,0.2,0.2,0.2,0.8,0.2,0.2,0.2,0.8","1","",""
"","html-keyboard-response","301","257072","0.0-301.0","3IJXV6UZ1Y5ALGIQWIC3FSQUYF1RIX","A132GRVDGXPJGY","3WRBLBQ2GRU63BU2LFOJL1G32T90GO","","null","<img src=""img/land4.png"" style=""width:200px; border:14px solid green;"">","null","","","","","","","","","",""
"","image-keyboard-response","302","258541","0.0-302.0","3IJXV6UZ1Y5ALGIQWIC3FSQUYF1RIX","A132GRVDGXPJGY","3WRBLBQ2GRU63BU2LFOJL1G32T90GO","","1466.9000000059605","img/land3.png","76","1468.8999999910593","3","1","3","1","0.8,0.2,0.2,0.2,0.8,0.2,0.2,0.2,0.8","0.8,0.2,0.2,0.2,0.8,0.2,0.2,0.2,0.8","1","",""
"","html-keyboard-response","303","258844","0.0-303.0","3IJXV6UZ1Y5ALGIQWIC3FSQUYF1RIX","A132GRVDGXPJGY","3WRBLBQ2GRU63BU2LFOJL1G32T90GO","","null","<img src=""img/land3.png"" style=""width:200px; border:14px solid green;"">","null","","","","","","","","","",""
"","image-keyboard-response","304","260290","0.0-304.0","3IJXV6UZ1Y5ALGIQWIC3FSQUYF1RIX","A132GRVDGXPJGY","3WRBLBQ2GRU63BU2LFOJL1G32T90GO","","1444.9000000059605","img/land3.png","76","1446","3","1","3","1","0.8,0.2,0.2,0.2,0.8,0.2,0.2,0.2,0.8","0.8,0.2,0.2,0.2,0.8,0.2,0.2,0.2,0.8","1","",""
"","html-keyboard-response","305","260594","0.0-305.0","3IJXV6UZ1Y5ALGIQWIC3FSQUYF1RIX","A132GRVDGXPJGY","3WRBLBQ2GRU63BU2LFOJL1G32T90GO","","null","<img src=""img/land3.png"" style=""width:200px; border:14px solid green;"">","null","","","","","","","","","",""
"","image-keyboard-response","306","261070","0.0-306.0","3IJXV6UZ1Y5ALGIQWIC3FSQUYF1RIX","A132GRVDGXPJGY","3WRBLBQ2GRU63BU2LFOJL1G32T90GO","","474.29999999701977","img/land3.png","76","476.09999999403954","3","1","3","1","0.8,0.2,0.2,0.2,0.8,0.2,0.2,0.2,0.8","0.8,0.2,0.2,0.2,0.8,0.2,0.2,0.2,0.8","1","",""
"","html-keyboard-response","307","261374","0.0-307.0","3IJXV6UZ1Y5ALGIQWIC3FSQUYF1RIX","A132GRVDGXPJGY","3WRBLBQ2GRU63BU2LFOJL1G32T90GO","","null","<img src=""img/land3.png"" style=""width:200px; border:14px solid green;"">","null","","","","","","","","","",""
"","image-keyboard-response","308","262669","0.0-308.0","3IJXV6UZ1Y5ALGIQWIC3FSQUYF1RIX","A132GRVDGXPJGY","3WRBLBQ2GRU63BU2LFOJL1G32T90GO","","1292.9000000059605","img/land1.png","75","1294.4000000059605","2","0","1","1","0.8,0.2,0.2,0.2,0.8,0.2,0.2,0.2,0.8","0.8,0.2,0.2,0.2,0.8,0.2,0.2,0.2,0.8","1","",""
"","html-keyboard-response","309","262970","0.0-309.0","3IJXV6UZ1Y5ALGIQWIC3FSQUYF1RIX","A132GRVDGXPJGY","3WRBLBQ2GRU63BU2LFOJL1G32T90GO","","null","<img src=""img/land1.png"" style=""width:200px;border:14px solid red;"">","null","","","","","","","","","",""
"","image-keyboard-response","310","263510","0.0-310.0","3IJXV6UZ1Y5ALGIQWIC3FSQUYF1RIX","A132GRVDGXPJGY","3WRBLBQ2GRU63BU2LFOJL1G32T90GO","","537.5","img/land1.png","76","539.3000000119209","3","0","1","1","0.8,0.2,0.2,0.2,0.8,0.2,0.2,0.2,0.8","0.8,0.2,0.2,0.2,0.8,0.2,0.2,0.2,0.8","1","",""
"","html-keyboard-response","311","263813","0.0-311.0","3IJXV6UZ1Y5ALGIQWIC3FSQUYF1RIX","A132GRVDGXPJGY","3WRBLBQ2GRU63BU2LFOJL1G32T90GO","","null","<img src=""img/land1.png"" style=""width:200px;border:14px solid red;"">","null","","","","","","","","","",""
"","image-keyboard-response","312","263946","0.0-312.0","3IJXV6UZ1Y5ALGIQWIC3FSQUYF1RIX","A132GRVDGXPJGY","3WRBLBQ2GRU63BU2LFOJL1G32T90GO","","131.5","img/land3.png","74","133.3999999910593","1","0","3","1","0.8,0.2,0.2,0.2,0.8,0.2,0.2,0.2,0.8","0.8,0.2,0.2,0.2,0.8,0.2,0.2,0.2,0.8","1","",""
"","html-keyboard-response","313","264250","0.0-313.0","3IJXV6UZ1Y5ALGIQWIC3FSQUYF1RIX","A132GRVDGXPJGY","3WRBLBQ2GRU63BU2LFOJL1G32T90GO","","null","<img src=""img/land3.png"" style=""width:200px;border:14px solid red;"">","null","","","","","","","","","",""
"","image-keyboard-response","314","264989","0.0-314.0","3IJXV6UZ1Y5ALGIQWIC3FSQUYF1RIX","A132GRVDGXPJGY","3WRBLBQ2GRU63BU2LFOJL1G32T90GO","","736.7999999970198","img/land3.png","76","738.7000000029802","3","1","3","1","0.8,0.2,0.2,0.2,0.8,0.2,0.2,0.2,0.8","0.8,0.2,0.2,0.2,0.8,0.2,0.2,0.2,0.8","1","",""
"","html-keyboard-response","315","265293","0.0-315.0","3IJXV6UZ1Y5ALGIQWIC3FSQUYF1RIX","A132GRVDGXPJGY","3WRBLBQ2GRU63BU2LFOJL1G32T90GO","","null","<img src=""img/land3.png"" style=""width:200px; border:14px solid green;"">","null","","","","","","","","","",""
"","image-keyboard-response","316","266599","0.0-316.0","3IJXV6UZ1Y5ALGIQWIC3FSQUYF1RIX","A132GRVDGXPJGY","3WRBLBQ2GRU63BU2LFOJL1G32T90GO","","1303.3999999910593","img/land5.png","74","1305.4000000059605","1","0","2","1","0.8,0.2,0.2,0.2,0.8,0.2,0.2,0.2,0.8","0.8,0.2,0.2,0.2,0.8,0.2,0.2,0.2,0.8","1","",""
"","html-keyboard-response","317","266902","0.0-317.0","3IJXV6UZ1Y5ALGIQWIC3FSQUYF1RIX","A132GRVDGXPJGY","3WRBLBQ2GRU63BU2LFOJL1G32T90GO","","null","<img src=""img/land5.png"" style=""width:200px;border:14px solid red;"">","null","","","","","","","","","",""
"","image-keyboard-response","318","267751","0.0-318.0","3IJXV6UZ1Y5ALGIQWIC3FSQUYF1RIX","A132GRVDGXPJGY","3WRBLBQ2GRU63BU2LFOJL1G32T90GO","","846.9000000059605","img/land3.png","76","848.6999999880791","3","0","3","1","0.8,0.2,0.2,0.2,0.8,0.2,0.2,0.2,0.8","0.8,0.2,0.2,0.2,0.8,0.2,0.2,0.2,0.8","1","",""
"","html-keyboard-response","319","268055","0.0-319.0","3IJXV6UZ1Y5ALGIQWIC3FSQUYF1RIX","A132GRVDGXPJGY","3WRBLBQ2GRU63BU2LFOJL1G32T90GO","","null","<img src=""img/land3.png"" style=""width:200px;border:14px solid red;"">","null","","","","","","","","","",""
"","image-keyboard-response","320","268618","0.0-320.0","3IJXV6UZ1Y5ALGIQWIC3FSQUYF1RIX","A132GRVDGXPJGY","3WRBLBQ2GRU63BU2LFOJL1G32T90GO","","560.7999999970198","img/land3.png","76","562.5999999940395","3","1","3","1","0.8,0.2,0.2,0.2,0.8,0.2,0.2,0.2,0.8","0.8,0.2,0.2,0.2,0.8,0.2,0.2,0.2,0.8","1","",""
"","html-keyboard-response","321","268922","0.0-321.0","3IJXV6UZ1Y5ALGIQWIC3FSQUYF1RIX","A132GRVDGXPJGY","3WRBLBQ2GRU63BU2LFOJL1G32T90GO","","null","<img src=""img/land3.png"" style=""width:200px; border:14px solid green;"">","null","","","","","","","","","",""
"","image-keyboard-response","322","269604","0.0-322.0","3IJXV6UZ1Y5ALGIQWIC3FSQUYF1RIX","A132GRVDGXPJGY","3WRBLBQ2GRU63BU2LFOJL1G32T90GO","","680.5","img/land3.png","76","682.4000000059605","3","1","3","1","0.8,0.2,0.2,0.2,0.8,0.2,0.2,0.2,0.8","0.8,0.2,0.2,0.2,0.8,0.2,0.2,0.2,0.8","1","",""
"","html-keyboard-response","323","269907","0.0-323.0","3IJXV6UZ1Y5ALGIQWIC3FSQUYF1RIX","A132GRVDGXPJGY","3WRBLBQ2GRU63BU2LFOJL1G32T90GO","","null","<img src=""img/land3.png"" style=""width:200px; border:14px solid green;"">","null","","","","","","","","","",""
"","image-keyboard-response","324","270920","0.0-324.0","3IJXV6UZ1Y5ALGIQWIC3FSQUYF1RIX","A132GRVDGXPJGY","3WRBLBQ2GRU63BU2LFOJL1G32T90GO","","1009.7999999970198","img/land1.png","75","1011.7000000029802","2","0","1","1","0.8,0.2,0.2,0.2,0.8,0.2,0.2,0.2,0.8","0.8,0.2,0.2,0.2,0.8,0.2,0.2,0.2,0.8","1","",""
"","html-keyboard-response","325","271224","0.0-325.0","3IJXV6UZ1Y5ALGIQWIC3FSQUYF1RIX","A132GRVDGXPJGY","3WRBLBQ2GRU63BU2LFOJL1G32T90GO","","null","<img src=""img/land1.png"" style=""width:200px;border:14px solid red;"">","null","","","","","","","","","",""
"","image-keyboard-response","326","271494","0.0-326.0","3IJXV6UZ1Y5ALGIQWIC3FSQUYF1RIX","A132GRVDGXPJGY","3WRBLBQ2GRU63BU2LFOJL1G32T90GO","","268","img/land5.png","74","270","1","0","2","1","0.8,0.2,0.2,0.2,0.8,0.2,0.2,0.2,0.8","0.8,0.2,0.2,0.2,0.8,0.2,0.2,0.2,0.8","1","",""
"","html-keyboard-response","327","271797","0.0-327.0","3IJXV6UZ1Y5ALGIQWIC3FSQUYF1RIX","A132GRVDGXPJGY","3WRBLBQ2GRU63BU2LFOJL1G32T90GO","","null","<img src=""img/land5.png"" style=""width:200px;border:14px solid red;"">","null","","","","","","","","","",""
"","image-keyboard-response","328","272436","0.0-328.0","3IJXV6UZ1Y5ALGIQWIC3FSQUYF1RIX","A132GRVDGXPJGY","3WRBLBQ2GRU63BU2LFOJL1G32T90GO","","636","img/land5.png","74","637.7999999970198","1","0","2","1","0.8,0.2,0.2,0.2,0.8,0.2,0.2,0.2,0.8","0.8,0.2,0.2,0.2,0.8,0.2,0.2,0.2,0.8","1","",""
"","html-keyboard-response","329","272739","0.0-329.0","3IJXV6UZ1Y5ALGIQWIC3FSQUYF1RIX","A132GRVDGXPJGY","3WRBLBQ2GRU63BU2LFOJL1G32T90GO","","null","<img src=""img/land5.png"" style=""width:200px;border:14px solid red;"">","null","","","","","","","","","",""
"","image-keyboard-response","330","273732","0.0-330.0","3IJXV6UZ1Y5ALGIQWIC3FSQUYF1RIX","A132GRVDGXPJGY","3WRBLBQ2GRU63BU2LFOJL1G32T90GO","","990.5","img/land1.png","75","992.7000000029802","2","0","1","1","0.8,0.2,0.2,0.2,0.8,0.2,0.2,0.2,0.8","0.8,0.2,0.2,0.2,0.8,0.2,0.2,0.2,0.8","1","",""
"","html-keyboard-response","331","274035","0.0-331.0","3IJXV6UZ1Y5ALGIQWIC3FSQUYF1RIX","A132GRVDGXPJGY","3WRBLBQ2GRU63BU2LFOJL1G32T90GO","","null","<img src=""img/land1.png"" style=""width:200px;border:14px solid red;"">","null","","","","","","","","","",""
"","image-keyboard-response","332","274147","0.0-332.0","3IJXV6UZ1Y5ALGIQWIC3FSQUYF1RIX","A132GRVDGXPJGY","3WRBLBQ2GRU63BU2LFOJL1G32T90GO","","110","img/land1.png","76","112.1000000089407","3","0","1","1","0.8,0.2,0.2,0.2,0.8,0.2,0.2,0.2,0.8","0.8,0.2,0.2,0.2,0.8,0.2,0.2,0.2,0.8","1","",""
"","html-keyboard-response","333","274462","0.0-333.0","3IJXV6UZ1Y5ALGIQWIC3FSQUYF1RIX","A132GRVDGXPJGY","3WRBLBQ2GRU63BU2LFOJL1G32T90GO","","null","<img src=""img/land1.png"" style=""width:200px;border:14px solid red;"">","null","","","","","","","","","",""
"","image-keyboard-response","334","274680","0.0-334.0","3IJXV6UZ1Y5ALGIQWIC3FSQUYF1RIX","A132GRVDGXPJGY","3WRBLBQ2GRU63BU2LFOJL1G32T90GO","","215.59999999403954","img/land3.png","74","217.5","1","0","3","1","0.8,0.2,0.2,0.2,0.8,0.2,0.2,0.2,0.8","0.8,0.2,0.2,0.2,0.8,0.2,0.2,0.2,0.8","1","",""
"","html-keyboard-response","335","274984","0.0-335.0","3IJXV6UZ1Y5ALGIQWIC3FSQUYF1RIX","A132GRVDGXPJGY","3WRBLBQ2GRU63BU2LFOJL1G32T90GO","","null","<img src=""img/land3.png"" style=""width:200px;border:14px solid red;"">","null","","","","","","","","","",""
"","image-keyboard-response","336","275497","0.0-336.0","3IJXV6UZ1Y5ALGIQWIC3FSQUYF1RIX","A132GRVDGXPJGY","3WRBLBQ2GRU63BU2LFOJL1G32T90GO","","511.1000000089407","img/land3.png","76","513.0999999940395","3","1","3","1","0.8,0.2,0.2,0.2,0.8,0.2,0.2,0.2,0.8","0.8,0.2,0.2,0.2,0.8,0.2,0.2,0.2,0.8","1","",""
"","html-keyboard-response","337","275801","0.0-337.0","3IJXV6UZ1Y5ALGIQWIC3FSQUYF1RIX","A132GRVDGXPJGY","3WRBLBQ2GRU63BU2LFOJL1G32T90GO","","null","<img src=""img/land3.png"" style=""width:200px; border:14px solid green;"">","null","","","","","","","","","",""
"","image-keyboard-response","338","276771","0.0-338.0","3IJXV6UZ1Y5ALGIQWIC3FSQUYF1RIX","A132GRVDGXPJGY","3WRBLBQ2GRU63BU2LFOJL1G32T90GO","","968.5","img/land5.png","74","970.3999999910593","1","0","2","1","0.8,0.2,0.2,0.2,0.8,0.2,0.2,0.2,0.8","0.8,0.2,0.2,0.2,0.8,0.2,0.2,0.2,0.8","1","",""
"","html-keyboard-response","339","277075","0.0-339.0","3IJXV6UZ1Y5ALGIQWIC3FSQUYF1RIX","A132GRVDGXPJGY","3WRBLBQ2GRU63BU2LFOJL1G32T90GO","","null","<img src=""img/land5.png"" style=""width:200px;border:14px solid red;"">","null","","","","","","","","","",""
"","image-keyboard-response","340","278266","0.0-340.0","3IJXV6UZ1Y5ALGIQWIC3FSQUYF1RIX","A132GRVDGXPJGY","3WRBLBQ2GRU63BU2LFOJL1G32T90GO","","1188.5","img/land1.png","74","1190.6000000089407","1","0","1","1","0.8,0.2,0.2,0.2,0.8,0.2,0.2,0.2,0.8","0.8,0.2,0.2,0.2,0.8,0.2,0.2,0.2,0.8","1","",""
"","html-keyboard-response","341","278577","0.0-341.0","3IJXV6UZ1Y5ALGIQWIC3FSQUYF1RIX","A132GRVDGXPJGY","3WRBLBQ2GRU63BU2LFOJL1G32T90GO","","null","<img src=""img/land1.png"" style=""width:200px;border:14px solid red;"">","null","","","","","","","","","",""
"","image-keyboard-response","342","279654","0.0-342.0","3IJXV6UZ1Y5ALGIQWIC3FSQUYF1RIX","A132GRVDGXPJGY","3WRBLBQ2GRU63BU2LFOJL1G32T90GO","","1074.699999988079","img/land5.png","75","1076.7000000029802","2","1","2","1","0.8,0.2,0.2,0.2,0.8,0.2,0.2,0.2,0.8","0.8,0.2,0.2,0.2,0.8,0.2,0.2,0.2,0.8","1","",""
"","html-keyboard-response","343","279957","0.0-343.0","3IJXV6UZ1Y5ALGIQWIC3FSQUYF1RIX","A132GRVDGXPJGY","3WRBLBQ2GRU63BU2LFOJL1G32T90GO","","null","<img src=""img/land5.png"" style=""width:200px; border:14px solid green;"">","null","","","","","","","","","",""
"","image-keyboard-response","344","280522","0.0-344.0","3IJXV6UZ1Y5ALGIQWIC3FSQUYF1RIX","A132GRVDGXPJGY","3WRBLBQ2GRU63BU2LFOJL1G32T90GO","","562.8999999910593","img/land5.png","75","564.7000000029802","2","1","2","1","0.8,0.2,0.2,0.2,0.8,0.2,0.2,0.2,0.8","0.8,0.2,0.2,0.2,0.8,0.2,0.2,0.2,0.8","1","",""
"","html-keyboard-response","345","280828","0.0-345.0","3IJXV6UZ1Y5ALGIQWIC3FSQUYF1RIX","A132GRVDGXPJGY","3WRBLBQ2GRU63BU2LFOJL1G32T90GO","","null","<img src=""img/land5.png"" style=""width:200px; border:14px solid green;"">","null","","","","","","","","","",""
"","image-keyboard-response","346","281923","0.0-346.0","3IJXV6UZ1Y5ALGIQWIC3FSQUYF1RIX","A132GRVDGXPJGY","3WRBLBQ2GRU63BU2LFOJL1G32T90GO","","1092.5","img/land1.png","74","1094.2999999970198","1","1","1","1","0.8,0.2,0.2,0.2,0.8,0.2,0.2,0.2,0.8","0.8,0.2,0.2,0.2,0.8,0.2,0.2,0.2,0.8","1","",""
"","html-keyboard-response","347","282227","0.0-347.0","3IJXV6UZ1Y5ALGIQWIC3FSQUYF1RIX","A132GRVDGXPJGY","3WRBLBQ2GRU63BU2LFOJL1G32T90GO","","null","<img src=""img/land1.png"" style=""width:200px; border:14px solid green;"">","null","","","","","","","","","",""
"","image-keyboard-response","348","283167","0.0-348.0","3IJXV6UZ1Y5ALGIQWIC3FSQUYF1RIX","A132GRVDGXPJGY","3WRBLBQ2GRU63BU2LFOJL1G32T90GO","","937.5999999940395","img/land3.png","76","939.4000000059605","3","1","3","1","0.8,0.2,0.2,0.2,0.8,0.2,0.2,0.2,0.8","0.8,0.2,0.2,0.2,0.8,0.2,0.2,0.2,0.8","1","",""
"","html-keyboard-response","349","283470","0.0-349.0","3IJXV6UZ1Y5ALGIQWIC3FSQUYF1RIX","A132GRVDGXPJGY","3WRBLBQ2GRU63BU2LFOJL1G32T90GO","","null","<img src=""img/land3.png"" style=""width:200px; border:14px solid green;"">","null","","","","","","","","","",""
"","image-keyboard-response","350","284126","0.0-350.0","3IJXV6UZ1Y5ALGIQWIC3FSQUYF1RIX","A132GRVDGXPJGY","3WRBLBQ2GRU63BU2LFOJL1G32T90GO","","654.4000000059605","img/land3.png","76","655.7999999970198","3","1","3","1","0.8,0.2,0.2,0.2,0.8,0.2,0.2,0.2,0.8","0.8,0.2,0.2,0.2,0.8,0.2,0.2,0.2,0.8","1","",""
"","html-keyboard-response","351","284427","0.0-351.0","3IJXV6UZ1Y5ALGIQWIC3FSQUYF1RIX","A132GRVDGXPJGY","3WRBLBQ2GRU63BU2LFOJL1G32T90GO","","null","<img src=""img/land3.png"" style=""width:200px; border:14px solid green;"">","null","","","","","","","","","",""
"","image-keyboard-response","352","286436","0.0-352.0","3IJXV6UZ1Y5ALGIQWIC3FSQUYF1RIX","A132GRVDGXPJGY","3WRBLBQ2GRU63BU2LFOJL1G32T90GO","","","img/land1.png","","2007.7999999970198","-1","0","1","1","0.8,0.2,0.2,0.2,0.8,0.2,0.2,0.2,0.8","0.8,0.2,0.2,0.2,0.8,0.2,0.2,0.2,0.8","1","",""
"","html-keyboard-response","353","286739","0.0-353.0","3IJXV6UZ1Y5ALGIQWIC3FSQUYF1RIX","A132GRVDGXPJGY","3WRBLBQ2GRU63BU2LFOJL1G32T90GO","","null","<img src=""img/land1.png"" style=""width:200px;border:14px solid red;"">","null","","","","","","","","","",""
"","image-keyboard-response","354","287478","0.0-354.0","3IJXV6UZ1Y5ALGIQWIC3FSQUYF1RIX","A132GRVDGXPJGY","3WRBLBQ2GRU63BU2LFOJL1G32T90GO","","737.2999999970198","img/land5.png","74","738.7999999970198","1","0","2","1","0.8,0.2,0.2,0.2,0.8,0.2,0.2,0.2,0.8","0.8,0.2,0.2,0.2,0.8,0.2,0.2,0.2,0.8","1","",""
"","html-keyboard-response","355","287779","0.0-355.0","3IJXV6UZ1Y5ALGIQWIC3FSQUYF1RIX","A132GRVDGXPJGY","3WRBLBQ2GRU63BU2LFOJL1G32T90GO","","null","<img src=""img/land5.png"" style=""width:200px;border:14px solid red;"">","null","","","","","","","","","",""
