"success","trial_type","trial_index","time_elapsed","internal_node_id","assignmentID","mturkID","hitID","view_history","rt","stimulus","key_press","reactionTime","a","r","s","cond","reward_cond","reward_cond_actual","reward_matrix_idx","responses","question_order"
"true","fullscreen","0","3210753","0.0-0.0","3Z2R0DQ0JI0H1RZJL97BT5KUUSKE2Y","A13FUEPWBCLBUY","3PEG1BH7AEDCPKTV9M6N3A4F0EHKBR","","","","","","","","","","","","","",""
"","instructions","1","3233889","0.0-1.0","3Z2R0DQ0JI0H1RZJL97BT5KUUSKE2Y","A13FUEPWBCLBUY","3PEG1BH7AEDCPKTV9M6N3A4F0EHKBR","[{""page_index"":0,""viewing_time"":5798.899999976158},{""page_index"":1,""viewing_time"":1414.3999999761581},{""page_index"":2,""viewing_time"":1864.300000011921},{""page_index"":3,""viewing_time"":1693.9000000357628},{""page_index"":4,""viewing_time"":5198},{""page_index"":5,""viewing_time"":3439.099999964237},{""page_index"":6,""viewing_time"":3725.699999988079}]","23134.799999952316","","","","","","","","","","","",""
"","image-keyboard-response","2","3234380","0.0-2.0","3Z2R0DQ0JI0H1RZJL97BT5KUUSKE2Y","A13FUEPWBCLBUY","3PEG1BH7AEDCPKTV9M6N3A4F0EHKBR","","490.89999997615814","img/land2.png","74","491.60000002384186","1","0","3","2","0.8,0.2,0.2,0.2,0.8,0.2,0.2,0.2,0.8","0.8,0.2,0.2,0.2,0.8,0.2,0.2,0.2,0.8","1","",""
"","html-keyboard-response","3","3234682","0.0-3.0","3Z2R0DQ0JI0H1RZJL97BT5KUUSKE2Y","A13FUEPWBCLBUY","3PEG1BH7AEDCPKTV9M6N3A4F0EHKBR","","null","<img src=""img/land2.png"" style=""width:200px;border:14px solid red;"">","null","","","","","","","","","",""
"","image-keyboard-response","4","3235500","0.0-4.0","3Z2R0DQ0JI0H1RZJL97BT5KUUSKE2Y","A13FUEPWBCLBUY","3PEG1BH7AEDCPKTV9M6N3A4F0EHKBR","","816.8999999761581","img/land6.png","75","817.3000000119209","2","0","1","2","0.8,0.2,0.2,0.2,0.8,0.2,0.2,0.2,0.8","0.8,0.2,0.2,0.2,0.8,0.2,0.2,0.2,0.8","1","",""
"","html-keyboard-response","5","3235801","0.0-5.0","3Z2R0DQ0JI0H1RZJL97BT5KUUSKE2Y","A13FUEPWBCLBUY","3PEG1BH7AEDCPKTV9M6N3A4F0EHKBR","","null","<img src=""img/land6.png"" style=""width:200px;border:14px solid red;"">","null","","","","","","","","","",""
"","image-keyboard-response","6","3236509","0.0-6.0","3Z2R0DQ0JI0H1RZJL97BT5KUUSKE2Y","A13FUEPWBCLBUY","3PEG1BH7AEDCPKTV9M6N3A4F0EHKBR","","707.0999999642372","img/land6.png","75","707.5","2","1","1","2","0.8,0.2,0.2,0.2,0.8,0.2,0.2,0.2,0.8","0.8,0.2,0.2,0.2,0.8,0.2,0.2,0.2,0.8","1","",""
"","html-keyboard-response","7","3236810","0.0-7.0","3Z2R0DQ0JI0H1RZJL97BT5KUUSKE2Y","A13FUEPWBCLBUY","3PEG1BH7AEDCPKTV9M6N3A4F0EHKBR","","null","<img src=""img/land6.png"" style=""width:200px; border:14px solid green;"">","null","","","","","","","","","",""
"","image-keyboard-response","8","3237466","0.0-8.0","3Z2R0DQ0JI0H1RZJL97BT5KUUSKE2Y","A13FUEPWBCLBUY","3PEG1BH7AEDCPKTV9M6N3A4F0EHKBR","","655","img/land1.png","74","655.5","1","0","2","2","0.8,0.2,0.2,0.2,0.8,0.2,0.2,0.2,0.8","0.8,0.2,0.2,0.2,0.8,0.2,0.2,0.2,0.8","1","",""
"","html-keyboard-response","9","3237768","0.0-9.0","3Z2R0DQ0JI0H1RZJL97BT5KUUSKE2Y","A13FUEPWBCLBUY","3PEG1BH7AEDCPKTV9M6N3A4F0EHKBR","","null","<img src=""img/land1.png"" style=""width:200px;border:14px solid red;"">","null","","","","","","","","","",""
"","image-keyboard-response","10","3238386","0.0-10.0","3Z2R0DQ0JI0H1RZJL97BT5KUUSKE2Y","A13FUEPWBCLBUY","3PEG1BH7AEDCPKTV9M6N3A4F0EHKBR","","618.0999999642372","img/land6.png","75","618.8000000119209","2","1","1","2","0.8,0.2,0.2,0.2,0.8,0.2,0.2,0.2,0.8","0.8,0.2,0.2,0.2,0.8,0.2,0.2,0.2,0.8","1","",""
"","html-keyboard-response","11","3238687","0.0-11.0","3Z2R0DQ0JI0H1RZJL97BT5KUUSKE2Y","A13FUEPWBCLBUY","3PEG1BH7AEDCPKTV9M6N3A4F0EHKBR","","null","<img src=""img/land6.png"" style=""width:200px; border:14px solid green;"">","null","","","","","","","","","",""
"","image-keyboard-response","12","3239247","0.0-12.0","3Z2R0DQ0JI0H1RZJL97BT5KUUSKE2Y","A13FUEPWBCLBUY","3PEG1BH7AEDCPKTV9M6N3A4F0EHKBR","","559.1000000238419","img/land2.png","76","559.4000000357628","3","1","3","2","0.8,0.2,0.2,0.2,0.8,0.2,0.2,0.2,0.8","0.8,0.2,0.2,0.2,0.8,0.2,0.2,0.2,0.8","1","",""
"","html-keyboard-response","13","3239549","0.0-13.0","3Z2R0DQ0JI0H1RZJL97BT5KUUSKE2Y","A13FUEPWBCLBUY","3PEG1BH7AEDCPKTV9M6N3A4F0EHKBR","","null","<img src=""img/land2.png"" style=""width:200px; border:14px solid green;"">","null","","","","","","","","","",""
"","image-keyboard-response","14","3240027","0.0-14.0","3Z2R0DQ0JI0H1RZJL97BT5KUUSKE2Y","A13FUEPWBCLBUY","3PEG1BH7AEDCPKTV9M6N3A4F0EHKBR","","478","img/land6.png","75","478.39999997615814","2","0","1","2","0.8,0.2,0.2,0.2,0.8,0.2,0.2,0.2,0.8","0.8,0.2,0.2,0.2,0.8,0.2,0.2,0.2,0.8","1","",""
"","html-keyboard-response","15","3240328","0.0-15.0","3Z2R0DQ0JI0H1RZJL97BT5KUUSKE2Y","A13FUEPWBCLBUY","3PEG1BH7AEDCPKTV9M6N3A4F0EHKBR","","null","<img src=""img/land6.png"" style=""width:200px;border:14px solid red;"">","null","","","","","","","","","",""
"","image-keyboard-response","16","3241020","0.0-16.0","3Z2R0DQ0JI0H1RZJL97BT5KUUSKE2Y","A13FUEPWBCLBUY","3PEG1BH7AEDCPKTV9M6N3A4F0EHKBR","","691.0999999642372","img/land6.png","75","691.6000000238419","2","0","1","2","0.8,0.2,0.2,0.2,0.8,0.2,0.2,0.2,0.8","0.8,0.2,0.2,0.2,0.8,0.2,0.2,0.2,0.8","1","",""
"","html-keyboard-response","17","3241322","0.0-17.0","3Z2R0DQ0JI0H1RZJL97BT5KUUSKE2Y","A13FUEPWBCLBUY","3PEG1BH7AEDCPKTV9M6N3A4F0EHKBR","","null","<img src=""img/land6.png"" style=""width:200px;border:14px solid red;"">","null","","","","","","","","","",""
"","image-keyboard-response","18","3241893","0.0-18.0","3Z2R0DQ0JI0H1RZJL97BT5KUUSKE2Y","A13FUEPWBCLBUY","3PEG1BH7AEDCPKTV9M6N3A4F0EHKBR","","570.3000000119209","img/land6.png","74","570.8000000119209","1","1","1","2","0.8,0.2,0.2,0.2,0.8,0.2,0.2,0.2,0.8","0.8,0.2,0.2,0.2,0.8,0.2,0.2,0.2,0.8","1","",""
"","html-keyboard-response","19","3242195","0.0-19.0","3Z2R0DQ0JI0H1RZJL97BT5KUUSKE2Y","A13FUEPWBCLBUY","3PEG1BH7AEDCPKTV9M6N3A4F0EHKBR","","null","<img src=""img/land6.png"" style=""width:200px; border:14px solid green;"">","null","","","","","","","","","",""
"","image-keyboard-response","20","3242726","0.0-20.0","3Z2R0DQ0JI0H1RZJL97BT5KUUSKE2Y","A13FUEPWBCLBUY","3PEG1BH7AEDCPKTV9M6N3A4F0EHKBR","","530.3000000119209","img/land6.png","74","531","1","1","1","2","0.8,0.2,0.2,0.2,0.8,0.2,0.2,0.2,0.8","0.8,0.2,0.2,0.2,0.8,0.2,0.2,0.2,0.8","1","",""
"","html-keyboard-response","21","3243028","0.0-21.0","3Z2R0DQ0JI0H1RZJL97BT5KUUSKE2Y","A13FUEPWBCLBUY","3PEG1BH7AEDCPKTV9M6N3A4F0EHKBR","","null","<img src=""img/land6.png"" style=""width:200px; border:14px solid green;"">","null","","","","","","","","","",""
"","image-keyboard-response","22","3243455","0.0-22.0","3Z2R0DQ0JI0H1RZJL97BT5KUUSKE2Y","A13FUEPWBCLBUY","3PEG1BH7AEDCPKTV9M6N3A4F0EHKBR","","426.5","img/land6.png","74","427","1","1","1","2","0.8,0.2,0.2,0.2,0.8,0.2,0.2,0.2,0.8","0.8,0.2,0.2,0.2,0.8,0.2,0.2,0.2,0.8","1","",""
"","html-keyboard-response","23","3243756","0.0-23.0","3Z2R0DQ0JI0H1RZJL97BT5KUUSKE2Y","A13FUEPWBCLBUY","3PEG1BH7AEDCPKTV9M6N3A4F0EHKBR","","null","<img src=""img/land6.png"" style=""width:200px; border:14px solid green;"">","null","","","","","","","","","",""
"","image-keyboard-response","24","3244328","0.0-24.0","3Z2R0DQ0JI0H1RZJL97BT5KUUSKE2Y","A13FUEPWBCLBUY","3PEG1BH7AEDCPKTV9M6N3A4F0EHKBR","","571.3000000119209","img/land1.png","75","571.8000000119209","2","0","2","2","0.8,0.2,0.2,0.2,0.8,0.2,0.2,0.2,0.8","0.8,0.2,0.2,0.2,0.8,0.2,0.2,0.2,0.8","1","",""
"","html-keyboard-response","25","3244630","0.0-25.0","3Z2R0DQ0JI0H1RZJL97BT5KUUSKE2Y","A13FUEPWBCLBUY","3PEG1BH7AEDCPKTV9M6N3A4F0EHKBR","","null","<img src=""img/land1.png"" style=""width:200px;border:14px solid red;"">","null","","","","","","","","","",""
"","image-keyboard-response","26","3245263","0.0-26.0","3Z2R0DQ0JI0H1RZJL97BT5KUUSKE2Y","A13FUEPWBCLBUY","3PEG1BH7AEDCPKTV9M6N3A4F0EHKBR","","632.4000000357628","img/land1.png","76","632.9000000357628","3","0","2","2","0.8,0.2,0.2,0.2,0.8,0.2,0.2,0.2,0.8","0.8,0.2,0.2,0.2,0.8,0.2,0.2,0.2,0.8","1","",""
"","html-keyboard-response","27","3245564","0.0-27.0","3Z2R0DQ0JI0H1RZJL97BT5KUUSKE2Y","A13FUEPWBCLBUY","3PEG1BH7AEDCPKTV9M6N3A4F0EHKBR","","null","<img src=""img/land1.png"" style=""width:200px;border:14px solid red;"">","null","","","","","","","","","",""
"","image-keyboard-response","28","3246484","0.0-28.0","3Z2R0DQ0JI0H1RZJL97BT5KUUSKE2Y","A13FUEPWBCLBUY","3PEG1BH7AEDCPKTV9M6N3A4F0EHKBR","","918.8000000119209","img/land6.png","74","919.2000000476837","1","1","1","2","0.8,0.2,0.2,0.2,0.8,0.2,0.2,0.2,0.8","0.8,0.2,0.2,0.2,0.8,0.2,0.2,0.2,0.8","1","",""
"","html-keyboard-response","29","3246785","0.0-29.0","3Z2R0DQ0JI0H1RZJL97BT5KUUSKE2Y","A13FUEPWBCLBUY","3PEG1BH7AEDCPKTV9M6N3A4F0EHKBR","","null","<img src=""img/land6.png"" style=""width:200px; border:14px solid green;"">","null","","","","","","","","","",""
"","image-keyboard-response","30","3247193","0.0-30.0","3Z2R0DQ0JI0H1RZJL97BT5KUUSKE2Y","A13FUEPWBCLBUY","3PEG1BH7AEDCPKTV9M6N3A4F0EHKBR","","407","img/land6.png","74","407.5","1","1","1","2","0.8,0.2,0.2,0.2,0.8,0.2,0.2,0.2,0.8","0.8,0.2,0.2,0.2,0.8,0.2,0.2,0.2,0.8","1","",""
"","html-keyboard-response","31","3247495","0.0-31.0","3Z2R0DQ0JI0H1RZJL97BT5KUUSKE2Y","A13FUEPWBCLBUY","3PEG1BH7AEDCPKTV9M6N3A4F0EHKBR","","null","<img src=""img/land6.png"" style=""width:200px; border:14px solid green;"">","null","","","","","","","","","",""
"","image-keyboard-response","32","3247921","0.0-32.0","3Z2R0DQ0JI0H1RZJL97BT5KUUSKE2Y","A13FUEPWBCLBUY","3PEG1BH7AEDCPKTV9M6N3A4F0EHKBR","","425.5","img/land6.png","74","426","1","1","1","2","0.8,0.2,0.2,0.2,0.8,0.2,0.2,0.2,0.8","0.8,0.2,0.2,0.2,0.8,0.2,0.2,0.2,0.8","1","",""
"","html-keyboard-response","33","3248222","0.0-33.0","3Z2R0DQ0JI0H1RZJL97BT5KUUSKE2Y","A13FUEPWBCLBUY","3PEG1BH7AEDCPKTV9M6N3A4F0EHKBR","","null","<img src=""img/land6.png"" style=""width:200px; border:14px solid green;"">","null","","","","","","","","","",""
"","image-keyboard-response","34","3248705","0.0-34.0","3Z2R0DQ0JI0H1RZJL97BT5KUUSKE2Y","A13FUEPWBCLBUY","3PEG1BH7AEDCPKTV9M6N3A4F0EHKBR","","482","img/land6.png","74","482.5","1","0","1","2","0.8,0.2,0.2,0.2,0.8,0.2,0.2,0.2,0.8","0.8,0.2,0.2,0.2,0.8,0.2,0.2,0.2,0.8","1","",""
"","html-keyboard-response","35","3249006","0.0-35.0","3Z2R0DQ0JI0H1RZJL97BT5KUUSKE2Y","A13FUEPWBCLBUY","3PEG1BH7AEDCPKTV9M6N3A4F0EHKBR","","null","<img src=""img/land6.png"" style=""width:200px;border:14px solid red;"">","null","","","","","","","","","",""
"","image-keyboard-response","36","3249870","0.0-36.0","3Z2R0DQ0JI0H1RZJL97BT5KUUSKE2Y","A13FUEPWBCLBUY","3PEG1BH7AEDCPKTV9M6N3A4F0EHKBR","","863","img/land1.png","75","863.4000000357628","2","1","2","2","0.8,0.2,0.2,0.2,0.8,0.2,0.2,0.2,0.8","0.8,0.2,0.2,0.2,0.8,0.2,0.2,0.2,0.8","1","",""
"","html-keyboard-response","37","3250172","0.0-37.0","3Z2R0DQ0JI0H1RZJL97BT5KUUSKE2Y","A13FUEPWBCLBUY","3PEG1BH7AEDCPKTV9M6N3A4F0EHKBR","","null","<img src=""img/land1.png"" style=""width:200px; border:14px solid green;"">","null","","","","","","","","","",""
"","image-keyboard-response","38","3250838","0.0-38.0","3Z2R0DQ0JI0H1RZJL97BT5KUUSKE2Y","A13FUEPWBCLBUY","3PEG1BH7AEDCPKTV9M6N3A4F0EHKBR","","665.2999999523163","img/land6.png","74","665.8000000119209","1","1","1","2","0.8,0.2,0.2,0.2,0.8,0.2,0.2,0.2,0.8","0.8,0.2,0.2,0.2,0.8,0.2,0.2,0.2,0.8","1","",""
"","html-keyboard-response","39","3251140","0.0-39.0","3Z2R0DQ0JI0H1RZJL97BT5KUUSKE2Y","A13FUEPWBCLBUY","3PEG1BH7AEDCPKTV9M6N3A4F0EHKBR","","null","<img src=""img/land6.png"" style=""width:200px; border:14px solid green;"">","null","","","","","","","","","",""
"","image-keyboard-response","40","3251523","0.0-40.0","3Z2R0DQ0JI0H1RZJL97BT5KUUSKE2Y","A13FUEPWBCLBUY","3PEG1BH7AEDCPKTV9M6N3A4F0EHKBR","","382","img/land1.png","75","382.60000002384186","2","1","2","2","0.8,0.2,0.2,0.2,0.8,0.2,0.2,0.2,0.8","0.8,0.2,0.2,0.2,0.8,0.2,0.2,0.2,0.8","1","",""
"","html-keyboard-response","41","3251833","0.0-41.0","3Z2R0DQ0JI0H1RZJL97BT5KUUSKE2Y","A13FUEPWBCLBUY","3PEG1BH7AEDCPKTV9M6N3A4F0EHKBR","","null","<img src=""img/land1.png"" style=""width:200px; border:14px solid green;"">","null","","","","","","","","","",""
"","image-keyboard-response","42","3252288","0.0-42.0","3Z2R0DQ0JI0H1RZJL97BT5KUUSKE2Y","A13FUEPWBCLBUY","3PEG1BH7AEDCPKTV9M6N3A4F0EHKBR","","454.19999998807907","img/land1.png","75","454.80000001192093","2","0","2","2","0.8,0.2,0.2,0.2,0.8,0.2,0.2,0.2,0.8","0.8,0.2,0.2,0.2,0.8,0.2,0.2,0.2,0.8","1","",""
"","html-keyboard-response","43","3252589","0.0-43.0","3Z2R0DQ0JI0H1RZJL97BT5KUUSKE2Y","A13FUEPWBCLBUY","3PEG1BH7AEDCPKTV9M6N3A4F0EHKBR","","null","<img src=""img/land1.png"" style=""width:200px;border:14px solid red;"">","null","","","","","","","","","",""
"","image-keyboard-response","44","3253292","0.0-44.0","3Z2R0DQ0JI0H1RZJL97BT5KUUSKE2Y","A13FUEPWBCLBUY","3PEG1BH7AEDCPKTV9M6N3A4F0EHKBR","","702.3000000119209","img/land6.png","74","702.8000000119209","1","1","1","2","0.8,0.2,0.2,0.2,0.8,0.2,0.2,0.2,0.8","0.8,0.2,0.2,0.2,0.8,0.2,0.2,0.2,0.8","1","",""
"","html-keyboard-response","45","3253594","0.0-45.0","3Z2R0DQ0JI0H1RZJL97BT5KUUSKE2Y","A13FUEPWBCLBUY","3PEG1BH7AEDCPKTV9M6N3A4F0EHKBR","","null","<img src=""img/land6.png"" style=""width:200px; border:14px solid green;"">","null","","","","","","","","","",""
"","image-keyboard-response","46","3254283","0.0-46.0","3Z2R0DQ0JI0H1RZJL97BT5KUUSKE2Y","A13FUEPWBCLBUY","3PEG1BH7AEDCPKTV9M6N3A4F0EHKBR","","688.1999999880791","img/land2.png","76","688.5999999642372","3","1","3","2","0.8,0.2,0.2,0.2,0.8,0.2,0.2,0.2,0.8","0.8,0.2,0.2,0.2,0.8,0.2,0.2,0.2,0.8","1","",""
"","html-keyboard-response","47","3254584","0.0-47.0","3Z2R0DQ0JI0H1RZJL97BT5KUUSKE2Y","A13FUEPWBCLBUY","3PEG1BH7AEDCPKTV9M6N3A4F0EHKBR","","null","<img src=""img/land2.png"" style=""width:200px; border:14px solid green;"">","null","","","","","","","","","",""
"","image-keyboard-response","48","3255429","0.0-48.0","3Z2R0DQ0JI0H1RZJL97BT5KUUSKE2Y","A13FUEPWBCLBUY","3PEG1BH7AEDCPKTV9M6N3A4F0EHKBR","","844.3000000119209","img/land6.png","74","844.8999999761581","1","1","1","2","0.8,0.2,0.2,0.2,0.8,0.2,0.2,0.2,0.8","0.8,0.2,0.2,0.2,0.8,0.2,0.2,0.2,0.8","1","",""
"","html-keyboard-response","49","3255730","0.0-49.0","3Z2R0DQ0JI0H1RZJL97BT5KUUSKE2Y","A13FUEPWBCLBUY","3PEG1BH7AEDCPKTV9M6N3A4F0EHKBR","","null","<img src=""img/land6.png"" style=""width:200px; border:14px solid green;"">","null","","","","","","","","","",""
"","image-keyboard-response","50","3256231","0.0-50.0","3Z2R0DQ0JI0H1RZJL97BT5KUUSKE2Y","A13FUEPWBCLBUY","3PEG1BH7AEDCPKTV9M6N3A4F0EHKBR","","500","img/land6.png","74","500.7000000476837","1","1","1","2","0.8,0.2,0.2,0.2,0.8,0.2,0.2,0.2,0.8","0.8,0.2,0.2,0.2,0.8,0.2,0.2,0.2,0.8","1","",""
"","html-keyboard-response","51","3256532","0.0-51.0","3Z2R0DQ0JI0H1RZJL97BT5KUUSKE2Y","A13FUEPWBCLBUY","3PEG1BH7AEDCPKTV9M6N3A4F0EHKBR","","null","<img src=""img/land6.png"" style=""width:200px; border:14px solid green;"">","null","","","","","","","","","",""
"","image-keyboard-response","52","3256903","0.0-52.0","3Z2R0DQ0JI0H1RZJL97BT5KUUSKE2Y","A13FUEPWBCLBUY","3PEG1BH7AEDCPKTV9M6N3A4F0EHKBR","","370.2999999523163","img/land6.png","74","370.69999998807907","1","0","1","2","0.8,0.2,0.2,0.2,0.8,0.2,0.2,0.2,0.8","0.8,0.2,0.2,0.2,0.8,0.2,0.2,0.2,0.8","1","",""
"","html-keyboard-response","53","3257205","0.0-53.0","3Z2R0DQ0JI0H1RZJL97BT5KUUSKE2Y","A13FUEPWBCLBUY","3PEG1BH7AEDCPKTV9M6N3A4F0EHKBR","","null","<img src=""img/land6.png"" style=""width:200px;border:14px solid red;"">","null","","","","","","","","","",""
"","image-keyboard-response","54","3257933","0.0-54.0","3Z2R0DQ0JI0H1RZJL97BT5KUUSKE2Y","A13FUEPWBCLBUY","3PEG1BH7AEDCPKTV9M6N3A4F0EHKBR","","727.2999999523163","img/land1.png","75","727.8000000119209","2","1","2","2","0.8,0.2,0.2,0.2,0.8,0.2,0.2,0.2,0.8","0.8,0.2,0.2,0.2,0.8,0.2,0.2,0.2,0.8","1","",""
"","html-keyboard-response","55","3258234","0.0-55.0","3Z2R0DQ0JI0H1RZJL97BT5KUUSKE2Y","A13FUEPWBCLBUY","3PEG1BH7AEDCPKTV9M6N3A4F0EHKBR","","null","<img src=""img/land1.png"" style=""width:200px; border:14px solid green;"">","null","","","","","","","","","",""
"","image-keyboard-response","56","3258627","0.0-56.0","3Z2R0DQ0JI0H1RZJL97BT5KUUSKE2Y","A13FUEPWBCLBUY","3PEG1BH7AEDCPKTV9M6N3A4F0EHKBR","","392.10000002384186","img/land1.png","75","392.5","2","1","2","2","0.8,0.2,0.2,0.2,0.8,0.2,0.2,0.2,0.8","0.8,0.2,0.2,0.2,0.8,0.2,0.2,0.2,0.8","1","",""
"","html-keyboard-response","57","3258929","0.0-57.0","3Z2R0DQ0JI0H1RZJL97BT5KUUSKE2Y","A13FUEPWBCLBUY","3PEG1BH7AEDCPKTV9M6N3A4F0EHKBR","","null","<img src=""img/land1.png"" style=""width:200px; border:14px solid green;"">","null","","","","","","","","","",""
"","image-keyboard-response","58","3259728","0.0-58.0","3Z2R0DQ0JI0H1RZJL97BT5KUUSKE2Y","A13FUEPWBCLBUY","3PEG1BH7AEDCPKTV9M6N3A4F0EHKBR","","798.8000000119209","img/land6.png","74","799.3999999761581","1","0","1","2","0.8,0.2,0.2,0.2,0.8,0.2,0.2,0.2,0.8","0.8,0.2,0.2,0.2,0.8,0.2,0.2,0.2,0.8","1","",""
"","html-keyboard-response","59","3260030","0.0-59.0","3Z2R0DQ0JI0H1RZJL97BT5KUUSKE2Y","A13FUEPWBCLBUY","3PEG1BH7AEDCPKTV9M6N3A4F0EHKBR","","null","<img src=""img/land6.png"" style=""width:200px;border:14px solid red;"">","null","","","","","","","","","",""
"","image-keyboard-response","60","3261024","0.0-60.0","3Z2R0DQ0JI0H1RZJL97BT5KUUSKE2Y","A13FUEPWBCLBUY","3PEG1BH7AEDCPKTV9M6N3A4F0EHKBR","","993.1999999880791","img/land6.png","74","993.7000000476837","1","1","1","2","0.8,0.2,0.2,0.2,0.8,0.2,0.2,0.2,0.8","0.8,0.2,0.2,0.2,0.8,0.2,0.2,0.2,0.8","1","",""
"","html-keyboard-response","61","3261326","0.0-61.0","3Z2R0DQ0JI0H1RZJL97BT5KUUSKE2Y","A13FUEPWBCLBUY","3PEG1BH7AEDCPKTV9M6N3A4F0EHKBR","","null","<img src=""img/land6.png"" style=""width:200px; border:14px solid green;"">","null","","","","","","","","","",""
"","image-keyboard-response","62","3261796","0.0-62.0","3Z2R0DQ0JI0H1RZJL97BT5KUUSKE2Y","A13FUEPWBCLBUY","3PEG1BH7AEDCPKTV9M6N3A4F0EHKBR","","469.30000001192093","img/land6.png","74","469.7999999523163","1","1","1","2","0.8,0.2,0.2,0.2,0.8,0.2,0.2,0.2,0.8","0.8,0.2,0.2,0.2,0.8,0.2,0.2,0.2,0.8","1","",""
"","html-keyboard-response","63","3262097","0.0-63.0","3Z2R0DQ0JI0H1RZJL97BT5KUUSKE2Y","A13FUEPWBCLBUY","3PEG1BH7AEDCPKTV9M6N3A4F0EHKBR","","null","<img src=""img/land6.png"" style=""width:200px; border:14px solid green;"">","null","","","","","","","","","",""
"","image-keyboard-response","64","3262659","0.0-64.0","3Z2R0DQ0JI0H1RZJL97BT5KUUSKE2Y","A13FUEPWBCLBUY","3PEG1BH7AEDCPKTV9M6N3A4F0EHKBR","","561.1999999880791","img/land1.png","75","561.6000000238419","2","1","2","2","0.8,0.2,0.2,0.2,0.8,0.2,0.2,0.2,0.8","0.8,0.2,0.2,0.2,0.8,0.2,0.2,0.2,0.8","1","",""
"","html-keyboard-response","65","3262960","0.0-65.0","3Z2R0DQ0JI0H1RZJL97BT5KUUSKE2Y","A13FUEPWBCLBUY","3PEG1BH7AEDCPKTV9M6N3A4F0EHKBR","","null","<img src=""img/land1.png"" style=""width:200px; border:14px solid green;"">","null","","","","","","","","","",""
"","image-keyboard-response","66","3263274","0.0-66.0","3Z2R0DQ0JI0H1RZJL97BT5KUUSKE2Y","A13FUEPWBCLBUY","3PEG1BH7AEDCPKTV9M6N3A4F0EHKBR","","313.10000002384186","img/land1.png","75","313.60000002384186","2","0","2","2","0.8,0.2,0.2,0.2,0.8,0.2,0.2,0.2,0.8","0.8,0.2,0.2,0.2,0.8,0.2,0.2,0.2,0.8","1","",""
"","html-keyboard-response","67","3263576","0.0-67.0","3Z2R0DQ0JI0H1RZJL97BT5KUUSKE2Y","A13FUEPWBCLBUY","3PEG1BH7AEDCPKTV9M6N3A4F0EHKBR","","null","<img src=""img/land1.png"" style=""width:200px;border:14px solid red;"">","null","","","","","","","","","",""
"","image-keyboard-response","68","3263977","0.0-68.0","3Z2R0DQ0JI0H1RZJL97BT5KUUSKE2Y","A13FUEPWBCLBUY","3PEG1BH7AEDCPKTV9M6N3A4F0EHKBR","","400.2999999523163","img/land6.png","76","400.5999999642372","3","1","1","2","0.8,0.2,0.2,0.2,0.8,0.2,0.2,0.2,0.8","0.8,0.2,0.2,0.2,0.8,0.2,0.2,0.2,0.8","1","",""
"","html-keyboard-response","69","3264278","0.0-69.0","3Z2R0DQ0JI0H1RZJL97BT5KUUSKE2Y","A13FUEPWBCLBUY","3PEG1BH7AEDCPKTV9M6N3A4F0EHKBR","","null","<img src=""img/land6.png"" style=""width:200px; border:14px solid green;"">","null","","","","","","","","","",""
"","image-keyboard-response","70","3265282","0.0-70.0","3Z2R0DQ0JI0H1RZJL97BT5KUUSKE2Y","A13FUEPWBCLBUY","3PEG1BH7AEDCPKTV9M6N3A4F0EHKBR","","1002.8999999761581","img/land1.png","75","1003.3999999761581","2","1","2","2","0.8,0.2,0.2,0.2,0.8,0.2,0.2,0.2,0.8","0.8,0.2,0.2,0.2,0.8,0.2,0.2,0.2,0.8","1","",""
"","html-keyboard-response","71","3265593","0.0-71.0","3Z2R0DQ0JI0H1RZJL97BT5KUUSKE2Y","A13FUEPWBCLBUY","3PEG1BH7AEDCPKTV9M6N3A4F0EHKBR","","null","<img src=""img/land1.png"" style=""width:200px; border:14px solid green;"">","null","","","","","","","","","",""
"","image-keyboard-response","72","3266272","0.0-72.0","3Z2R0DQ0JI0H1RZJL97BT5KUUSKE2Y","A13FUEPWBCLBUY","3PEG1BH7AEDCPKTV9M6N3A4F0EHKBR","","678.3000000119209","img/land6.png","76","678.8000000119209","3","1","1","2","0.8,0.2,0.2,0.2,0.8,0.2,0.2,0.2,0.8","0.8,0.2,0.2,0.2,0.8,0.2,0.2,0.2,0.8","1","",""
"","html-keyboard-response","73","3266573","0.0-73.0","3Z2R0DQ0JI0H1RZJL97BT5KUUSKE2Y","A13FUEPWBCLBUY","3PEG1BH7AEDCPKTV9M6N3A4F0EHKBR","","null","<img src=""img/land6.png"" style=""width:200px; border:14px solid green;"">","null","","","","","","","","","",""
"","image-keyboard-response","74","3267424","0.0-74.0","3Z2R0DQ0JI0H1RZJL97BT5KUUSKE2Y","A13FUEPWBCLBUY","3PEG1BH7AEDCPKTV9M6N3A4F0EHKBR","","850.0999999642372","img/land2.png","74","850.8000000119209","1","1","3","2","0.8,0.2,0.2,0.2,0.8,0.2,0.2,0.2,0.8","0.8,0.2,0.2,0.2,0.8,0.2,0.2,0.2,0.8","1","",""
"","html-keyboard-response","75","3267725","0.0-75.0","3Z2R0DQ0JI0H1RZJL97BT5KUUSKE2Y","A13FUEPWBCLBUY","3PEG1BH7AEDCPKTV9M6N3A4F0EHKBR","","null","<img src=""img/land2.png"" style=""width:200px; border:14px solid green;"">","null","","","","","","","","","",""
"","image-keyboard-response","76","3268398","0.0-76.0","3Z2R0DQ0JI0H1RZJL97BT5KUUSKE2Y","A13FUEPWBCLBUY","3PEG1BH7AEDCPKTV9M6N3A4F0EHKBR","","672.3000000119209","img/land1.png","75","673","2","1","2","2","0.8,0.2,0.2,0.2,0.8,0.2,0.2,0.2,0.8","0.8,0.2,0.2,0.2,0.8,0.2,0.2,0.2,0.8","1","",""
"","html-keyboard-response","77","3268700","0.0-77.0","3Z2R0DQ0JI0H1RZJL97BT5KUUSKE2Y","A13FUEPWBCLBUY","3PEG1BH7AEDCPKTV9M6N3A4F0EHKBR","","null","<img src=""img/land1.png"" style=""width:200px; border:14px solid green;"">","null","","","","","","","","","",""
"","image-keyboard-response","78","3269576","0.0-78.0","3Z2R0DQ0JI0H1RZJL97BT5KUUSKE2Y","A13FUEPWBCLBUY","3PEG1BH7AEDCPKTV9M6N3A4F0EHKBR","","874.8999999761581","img/land6.png","76","875.6000000238419","3","1","1","2","0.8,0.2,0.2,0.2,0.8,0.2,0.2,0.2,0.8","0.8,0.2,0.2,0.2,0.8,0.2,0.2,0.2,0.8","1","",""
"","html-keyboard-response","79","3269878","0.0-79.0","3Z2R0DQ0JI0H1RZJL97BT5KUUSKE2Y","A13FUEPWBCLBUY","3PEG1BH7AEDCPKTV9M6N3A4F0EHKBR","","null","<img src=""img/land6.png"" style=""width:200px; border:14px solid green;"">","null","","","","","","","","","",""
"","image-keyboard-response","80","3270275","0.0-80.0","3Z2R0DQ0JI0H1RZJL97BT5KUUSKE2Y","A13FUEPWBCLBUY","3PEG1BH7AEDCPKTV9M6N3A4F0EHKBR","","396.69999998807907","img/land6.png","76","397.10000002384186","3","0","1","2","0.8,0.2,0.2,0.2,0.8,0.2,0.2,0.2,0.8","0.8,0.2,0.2,0.2,0.8,0.2,0.2,0.2,0.8","1","",""
"","html-keyboard-response","81","3270580","0.0-81.0","3Z2R0DQ0JI0H1RZJL97BT5KUUSKE2Y","A13FUEPWBCLBUY","3PEG1BH7AEDCPKTV9M6N3A4F0EHKBR","","null","<img src=""img/land6.png"" style=""width:200px;border:14px solid red;"">","null","","","","","","","","","",""
"","image-keyboard-response","82","3271185","0.0-82.0","3Z2R0DQ0JI0H1RZJL97BT5KUUSKE2Y","A13FUEPWBCLBUY","3PEG1BH7AEDCPKTV9M6N3A4F0EHKBR","","605","img/land6.png","74","605.5","1","0","1","2","0.8,0.2,0.2,0.2,0.8,0.2,0.2,0.2,0.8","0.8,0.2,0.2,0.2,0.8,0.2,0.2,0.2,0.8","1","",""
"","html-keyboard-response","83","3271487","0.0-83.0","3Z2R0DQ0JI0H1RZJL97BT5KUUSKE2Y","A13FUEPWBCLBUY","3PEG1BH7AEDCPKTV9M6N3A4F0EHKBR","","null","<img src=""img/land6.png"" style=""width:200px;border:14px solid red;"">","null","","","","","","","","","",""
"","image-keyboard-response","84","3272643","0.0-84.0","3Z2R0DQ0JI0H1RZJL97BT5KUUSKE2Y","A13FUEPWBCLBUY","3PEG1BH7AEDCPKTV9M6N3A4F0EHKBR","","1155.199999988079","img/land2.png","76","1155.800000011921","3","0","3","2","0.8,0.2,0.2,0.2,0.8,0.2,0.2,0.2,0.8","0.8,0.2,0.2,0.2,0.8,0.2,0.2,0.2,0.8","1","",""
"","html-keyboard-response","85","3272945","0.0-85.0","3Z2R0DQ0JI0H1RZJL97BT5KUUSKE2Y","A13FUEPWBCLBUY","3PEG1BH7AEDCPKTV9M6N3A4F0EHKBR","","null","<img src=""img/land2.png"" style=""width:200px;border:14px solid red;"">","null","","","","","","","","","",""
"","image-keyboard-response","86","3273571","0.0-86.0","3Z2R0DQ0JI0H1RZJL97BT5KUUSKE2Y","A13FUEPWBCLBUY","3PEG1BH7AEDCPKTV9M6N3A4F0EHKBR","","624.8000000119209","img/land1.png","75","625.6000000238419","2","1","2","2","0.8,0.2,0.2,0.2,0.8,0.2,0.2,0.2,0.8","0.8,0.2,0.2,0.2,0.8,0.2,0.2,0.2,0.8","1","",""
"","html-keyboard-response","87","3273873","0.0-87.0","3Z2R0DQ0JI0H1RZJL97BT5KUUSKE2Y","A13FUEPWBCLBUY","3PEG1BH7AEDCPKTV9M6N3A4F0EHKBR","","null","<img src=""img/land1.png"" style=""width:200px; border:14px solid green;"">","null","","","","","","","","","",""
"","image-keyboard-response","88","3274737","0.0-88.0","3Z2R0DQ0JI0H1RZJL97BT5KUUSKE2Y","A13FUEPWBCLBUY","3PEG1BH7AEDCPKTV9M6N3A4F0EHKBR","","863.8999999761581","img/land2.png","74","864.3999999761581","1","0","3","2","0.8,0.2,0.2,0.2,0.8,0.2,0.2,0.2,0.8","0.8,0.2,0.2,0.2,0.8,0.2,0.2,0.2,0.8","1","",""
"","html-keyboard-response","89","3275038","0.0-89.0","3Z2R0DQ0JI0H1RZJL97BT5KUUSKE2Y","A13FUEPWBCLBUY","3PEG1BH7AEDCPKTV9M6N3A4F0EHKBR","","null","<img src=""img/land2.png"" style=""width:200px;border:14px solid red;"">","null","","","","","","","","","",""
"","image-keyboard-response","90","3275815","0.0-90.0","3Z2R0DQ0JI0H1RZJL97BT5KUUSKE2Y","A13FUEPWBCLBUY","3PEG1BH7AEDCPKTV9M6N3A4F0EHKBR","","776.1999999880791","img/land6.png","74","776.7000000476837","1","1","1","2","0.8,0.2,0.2,0.2,0.8,0.2,0.2,0.2,0.8","0.8,0.2,0.2,0.2,0.8,0.2,0.2,0.2,0.8","1","",""
"","html-keyboard-response","91","3276117","0.0-91.0","3Z2R0DQ0JI0H1RZJL97BT5KUUSKE2Y","A13FUEPWBCLBUY","3PEG1BH7AEDCPKTV9M6N3A4F0EHKBR","","null","<img src=""img/land6.png"" style=""width:200px; border:14px solid green;"">","null","","","","","","","","","",""
"","image-keyboard-response","92","3276837","0.0-92.0","3Z2R0DQ0JI0H1RZJL97BT5KUUSKE2Y","A13FUEPWBCLBUY","3PEG1BH7AEDCPKTV9M6N3A4F0EHKBR","","719.1999999880791","img/land2.png","75","719.8000000119209","2","0","3","2","0.8,0.2,0.2,0.2,0.8,0.2,0.2,0.2,0.8","0.8,0.2,0.2,0.2,0.8,0.2,0.2,0.2,0.8","1","",""
"","html-keyboard-response","93","3277138","0.0-93.0","3Z2R0DQ0JI0H1RZJL97BT5KUUSKE2Y","A13FUEPWBCLBUY","3PEG1BH7AEDCPKTV9M6N3A4F0EHKBR","","null","<img src=""img/land2.png"" style=""width:200px;border:14px solid red;"">","null","","","","","","","","","",""
"","image-keyboard-response","94","3277882","0.0-94.0","3Z2R0DQ0JI0H1RZJL97BT5KUUSKE2Y","A13FUEPWBCLBUY","3PEG1BH7AEDCPKTV9M6N3A4F0EHKBR","","743.0999999642372","img/land6.png","74","743.6000000238419","1","1","1","2","0.8,0.2,0.2,0.2,0.8,0.2,0.2,0.2,0.8","0.8,0.2,0.2,0.2,0.8,0.2,0.2,0.2,0.8","1","",""
"","html-keyboard-response","95","3278184","0.0-95.0","3Z2R0DQ0JI0H1RZJL97BT5KUUSKE2Y","A13FUEPWBCLBUY","3PEG1BH7AEDCPKTV9M6N3A4F0EHKBR","","null","<img src=""img/land6.png"" style=""width:200px; border:14px solid green;"">","null","","","","","","","","","",""
"","image-keyboard-response","96","3279008","0.0-96.0","3Z2R0DQ0JI0H1RZJL97BT5KUUSKE2Y","A13FUEPWBCLBUY","3PEG1BH7AEDCPKTV9M6N3A4F0EHKBR","","824.1000000238419","img/land2.png","74","824.6999999880791","1","1","3","2","0.8,0.2,0.2,0.2,0.8,0.2,0.2,0.2,0.8","0.8,0.2,0.2,0.2,0.8,0.2,0.2,0.2,0.8","1","",""
"","html-keyboard-response","97","3279310","0.0-97.0","3Z2R0DQ0JI0H1RZJL97BT5KUUSKE2Y","A13FUEPWBCLBUY","3PEG1BH7AEDCPKTV9M6N3A4F0EHKBR","","null","<img src=""img/land2.png"" style=""width:200px; border:14px solid green;"">","null","","","","","","","","","",""
"","image-keyboard-response","98","3279882","0.0-98.0","3Z2R0DQ0JI0H1RZJL97BT5KUUSKE2Y","A13FUEPWBCLBUY","3PEG1BH7AEDCPKTV9M6N3A4F0EHKBR","","571.1999999880791","img/land6.png","74","571.6000000238419","1","1","1","2","0.8,0.2,0.2,0.2,0.8,0.2,0.2,0.2,0.8","0.8,0.2,0.2,0.2,0.8,0.2,0.2,0.2,0.8","1","",""
"","html-keyboard-response","99","3280184","0.0-99.0","3Z2R0DQ0JI0H1RZJL97BT5KUUSKE2Y","A13FUEPWBCLBUY","3PEG1BH7AEDCPKTV9M6N3A4F0EHKBR","","null","<img src=""img/land6.png"" style=""width:200px; border:14px solid green;"">","null","","","","","","","","","",""
"","image-keyboard-response","100","3280519","0.0-100.0","3Z2R0DQ0JI0H1RZJL97BT5KUUSKE2Y","A13FUEPWBCLBUY","3PEG1BH7AEDCPKTV9M6N3A4F0EHKBR","","334.19999998807907","img/land6.png","74","334.60000002384186","1","1","1","2","0.8,0.2,0.2,0.2,0.8,0.2,0.2,0.2,0.8","0.8,0.2,0.2,0.2,0.8,0.2,0.2,0.2,0.8","1","",""
"","html-keyboard-response","101","3280820","0.0-101.0","3Z2R0DQ0JI0H1RZJL97BT5KUUSKE2Y","A13FUEPWBCLBUY","3PEG1BH7AEDCPKTV9M6N3A4F0EHKBR","","null","<img src=""img/land6.png"" style=""width:200px; border:14px solid green;"">","null","","","","","","","","","",""
"","image-keyboard-response","102","3281659","0.0-102.0","3Z2R0DQ0JI0H1RZJL97BT5KUUSKE2Y","A13FUEPWBCLBUY","3PEG1BH7AEDCPKTV9M6N3A4F0EHKBR","","839","img/land1.png","75","839.4000000357628","2","1","2","2","0.8,0.2,0.2,0.2,0.8,0.2,0.2,0.2,0.8","0.8,0.2,0.2,0.2,0.8,0.2,0.2,0.2,0.8","1","",""
"","html-keyboard-response","103","3281960","0.0-103.0","3Z2R0DQ0JI0H1RZJL97BT5KUUSKE2Y","A13FUEPWBCLBUY","3PEG1BH7AEDCPKTV9M6N3A4F0EHKBR","","null","<img src=""img/land1.png"" style=""width:200px; border:14px solid green;"">","null","","","","","","","","","",""
"","image-keyboard-response","104","3282605","0.0-104.0","3Z2R0DQ0JI0H1RZJL97BT5KUUSKE2Y","A13FUEPWBCLBUY","3PEG1BH7AEDCPKTV9M6N3A4F0EHKBR","","644.3000000119209","img/land6.png","74","644.7999999523163","1","1","1","2","0.8,0.2,0.2,0.2,0.8,0.2,0.2,0.2,0.8","0.8,0.2,0.2,0.2,0.8,0.2,0.2,0.2,0.8","1","",""
"","html-keyboard-response","105","3282906","0.0-105.0","3Z2R0DQ0JI0H1RZJL97BT5KUUSKE2Y","A13FUEPWBCLBUY","3PEG1BH7AEDCPKTV9M6N3A4F0EHKBR","","null","<img src=""img/land6.png"" style=""width:200px; border:14px solid green;"">","null","","","","","","","","","",""
"","image-keyboard-response","106","3283494","0.0-106.0","3Z2R0DQ0JI0H1RZJL97BT5KUUSKE2Y","A13FUEPWBCLBUY","3PEG1BH7AEDCPKTV9M6N3A4F0EHKBR","","587","img/land2.png","75","587.6000000238419","2","1","3","2","0.8,0.2,0.2,0.2,0.8,0.2,0.2,0.2,0.8","0.8,0.2,0.2,0.2,0.8,0.2,0.2,0.2,0.8","1","",""
"","html-keyboard-response","107","3283796","0.0-107.0","3Z2R0DQ0JI0H1RZJL97BT5KUUSKE2Y","A13FUEPWBCLBUY","3PEG1BH7AEDCPKTV9M6N3A4F0EHKBR","","null","<img src=""img/land2.png"" style=""width:200px; border:14px solid green;"">","null","","","","","","","","","",""
"","image-keyboard-response","108","3284317","0.0-108.0","3Z2R0DQ0JI0H1RZJL97BT5KUUSKE2Y","A13FUEPWBCLBUY","3PEG1BH7AEDCPKTV9M6N3A4F0EHKBR","","520.8999999761581","img/land6.png","74","521.3000000119209","1","1","1","2","0.8,0.2,0.2,0.2,0.8,0.2,0.2,0.2,0.8","0.8,0.2,0.2,0.2,0.8,0.2,0.2,0.2,0.8","1","",""
"","html-keyboard-response","109","3284619","0.0-109.0","3Z2R0DQ0JI0H1RZJL97BT5KUUSKE2Y","A13FUEPWBCLBUY","3PEG1BH7AEDCPKTV9M6N3A4F0EHKBR","","null","<img src=""img/land6.png"" style=""width:200px; border:14px solid green;"">","null","","","","","","","","","",""
"","image-keyboard-response","110","3285029","0.0-110.0","3Z2R0DQ0JI0H1RZJL97BT5KUUSKE2Y","A13FUEPWBCLBUY","3PEG1BH7AEDCPKTV9M6N3A4F0EHKBR","","409","img/land6.png","74","409.5","1","0","1","2","0.8,0.2,0.2,0.2,0.8,0.2,0.2,0.2,0.8","0.8,0.2,0.2,0.2,0.8,0.2,0.2,0.2,0.8","1","",""
"","html-keyboard-response","111","3285331","0.0-111.0","3Z2R0DQ0JI0H1RZJL97BT5KUUSKE2Y","A13FUEPWBCLBUY","3PEG1BH7AEDCPKTV9M6N3A4F0EHKBR","","null","<img src=""img/land6.png"" style=""width:200px;border:14px solid red;"">","null","","","","","","","","","",""
"","image-keyboard-response","112","3285911","0.0-112.0","3Z2R0DQ0JI0H1RZJL97BT5KUUSKE2Y","A13FUEPWBCLBUY","3PEG1BH7AEDCPKTV9M6N3A4F0EHKBR","","579.0999999642372","img/land6.png","76","579.6000000238419","3","0","1","2","0.8,0.2,0.2,0.2,0.8,0.2,0.2,0.2,0.8","0.8,0.2,0.2,0.2,0.8,0.2,0.2,0.2,0.8","1","",""
"","html-keyboard-response","113","3286213","0.0-113.0","3Z2R0DQ0JI0H1RZJL97BT5KUUSKE2Y","A13FUEPWBCLBUY","3PEG1BH7AEDCPKTV9M6N3A4F0EHKBR","","null","<img src=""img/land6.png"" style=""width:200px;border:14px solid red;"">","null","","","","","","","","","",""
"","image-keyboard-response","114","3286559","0.0-114.0","3Z2R0DQ0JI0H1RZJL97BT5KUUSKE2Y","A13FUEPWBCLBUY","3PEG1BH7AEDCPKTV9M6N3A4F0EHKBR","","345.39999997615814","img/land6.png","74","345.80000001192093","1","1","1","2","0.8,0.2,0.2,0.2,0.8,0.2,0.2,0.2,0.8","0.8,0.2,0.2,0.2,0.8,0.2,0.2,0.2,0.8","1","",""
"","html-keyboard-response","115","3286861","0.0-115.0","3Z2R0DQ0JI0H1RZJL97BT5KUUSKE2Y","A13FUEPWBCLBUY","3PEG1BH7AEDCPKTV9M6N3A4F0EHKBR","","null","<img src=""img/land6.png"" style=""width:200px; border:14px solid green;"">","null","","","","","","","","","",""
"","image-keyboard-response","116","3287352","0.0-116.0","3Z2R0DQ0JI0H1RZJL97BT5KUUSKE2Y","A13FUEPWBCLBUY","3PEG1BH7AEDCPKTV9M6N3A4F0EHKBR","","490.0999999642372","img/land6.png","74","490.5","1","1","1","2","0.8,0.2,0.2,0.2,0.8,0.2,0.2,0.2,0.8","0.8,0.2,0.2,0.2,0.8,0.2,0.2,0.2,0.8","1","",""
"","html-keyboard-response","117","3287653","0.0-117.0","3Z2R0DQ0JI0H1RZJL97BT5KUUSKE2Y","A13FUEPWBCLBUY","3PEG1BH7AEDCPKTV9M6N3A4F0EHKBR","","null","<img src=""img/land6.png"" style=""width:200px; border:14px solid green;"">","null","","","","","","","","","",""
"","image-keyboard-response","118","3288201","0.0-118.0","3Z2R0DQ0JI0H1RZJL97BT5KUUSKE2Y","A13FUEPWBCLBUY","3PEG1BH7AEDCPKTV9M6N3A4F0EHKBR","","547.1999999880791","img/land1.png","75","547.6999999880791","2","1","2","2","0.8,0.2,0.2,0.2,0.8,0.2,0.2,0.2,0.8","0.8,0.2,0.2,0.2,0.8,0.2,0.2,0.2,0.8","1","",""
"","html-keyboard-response","119","3288502","0.0-119.0","3Z2R0DQ0JI0H1RZJL97BT5KUUSKE2Y","A13FUEPWBCLBUY","3PEG1BH7AEDCPKTV9M6N3A4F0EHKBR","","null","<img src=""img/land1.png"" style=""width:200px; border:14px solid green;"">","null","","","","","","","","","",""
"","image-keyboard-response","120","3289208","0.0-120.0","3Z2R0DQ0JI0H1RZJL97BT5KUUSKE2Y","A13FUEPWBCLBUY","3PEG1BH7AEDCPKTV9M6N3A4F0EHKBR","","705.0999999642372","img/land6.png","74","705.7000000476837","1","1","1","2","0.8,0.2,0.2,0.2,0.8,0.2,0.2,0.2,0.8","0.8,0.2,0.2,0.2,0.8,0.2,0.2,0.2,0.8","1","",""
"","html-keyboard-response","121","3289510","0.0-121.0","3Z2R0DQ0JI0H1RZJL97BT5KUUSKE2Y","A13FUEPWBCLBUY","3PEG1BH7AEDCPKTV9M6N3A4F0EHKBR","","null","<img src=""img/land6.png"" style=""width:200px; border:14px solid green;"">","null","","","","","","","","","",""
"","image-keyboard-response","122","3290133","0.0-122.0","3Z2R0DQ0JI0H1RZJL97BT5KUUSKE2Y","A13FUEPWBCLBUY","3PEG1BH7AEDCPKTV9M6N3A4F0EHKBR","","621.6999999880791","img/land2.png","75","622.1999999880791","2","0","3","2","0.8,0.2,0.2,0.2,0.8,0.2,0.2,0.2,0.8","0.8,0.2,0.2,0.2,0.8,0.2,0.2,0.2,0.8","1","",""
"","html-keyboard-response","123","3290435","0.0-123.0","3Z2R0DQ0JI0H1RZJL97BT5KUUSKE2Y","A13FUEPWBCLBUY","3PEG1BH7AEDCPKTV9M6N3A4F0EHKBR","","null","<img src=""img/land2.png"" style=""width:200px;border:14px solid red;"">","null","","","","","","","","","",""
"","image-keyboard-response","124","3291083","0.0-124.0","3Z2R0DQ0JI0H1RZJL97BT5KUUSKE2Y","A13FUEPWBCLBUY","3PEG1BH7AEDCPKTV9M6N3A4F0EHKBR","","647.0999999642372","img/land2.png","75","647.6999999880791","2","0","3","2","0.8,0.2,0.2,0.2,0.8,0.2,0.2,0.2,0.8","0.8,0.2,0.2,0.2,0.8,0.2,0.2,0.2,0.8","1","",""
"","html-keyboard-response","125","3291384","0.0-125.0","3Z2R0DQ0JI0H1RZJL97BT5KUUSKE2Y","A13FUEPWBCLBUY","3PEG1BH7AEDCPKTV9M6N3A4F0EHKBR","","null","<img src=""img/land2.png"" style=""width:200px;border:14px solid red;"">","null","","","","","","","","","",""
"","image-keyboard-response","126","3292102","0.0-126.0","3Z2R0DQ0JI0H1RZJL97BT5KUUSKE2Y","A13FUEPWBCLBUY","3PEG1BH7AEDCPKTV9M6N3A4F0EHKBR","","716.9000000357628","img/land1.png","75","717.5","2","1","2","2","0.8,0.2,0.2,0.2,0.8,0.2,0.2,0.2,0.8","0.8,0.2,0.2,0.2,0.8,0.2,0.2,0.2,0.8","1","",""
"","html-keyboard-response","127","3292403","0.0-127.0","3Z2R0DQ0JI0H1RZJL97BT5KUUSKE2Y","A13FUEPWBCLBUY","3PEG1BH7AEDCPKTV9M6N3A4F0EHKBR","","null","<img src=""img/land1.png"" style=""width:200px; border:14px solid green;"">","null","","","","","","","","","",""
"","image-keyboard-response","128","3292786","0.0-128.0","3Z2R0DQ0JI0H1RZJL97BT5KUUSKE2Y","A13FUEPWBCLBUY","3PEG1BH7AEDCPKTV9M6N3A4F0EHKBR","","382.2999999523163","img/land6.png","74","382.69999998807907","1","1","1","2","0.8,0.2,0.2,0.2,0.8,0.2,0.2,0.2,0.8","0.8,0.2,0.2,0.2,0.8,0.2,0.2,0.2,0.8","1","",""
"","html-keyboard-response","129","3293087","0.0-129.0","3Z2R0DQ0JI0H1RZJL97BT5KUUSKE2Y","A13FUEPWBCLBUY","3PEG1BH7AEDCPKTV9M6N3A4F0EHKBR","","null","<img src=""img/land6.png"" style=""width:200px; border:14px solid green;"">","null","","","","","","","","","",""
"","image-keyboard-response","130","3293400","0.0-130.0","3Z2R0DQ0JI0H1RZJL97BT5KUUSKE2Y","A13FUEPWBCLBUY","3PEG1BH7AEDCPKTV9M6N3A4F0EHKBR","","312.19999998807907","img/land6.png","74","312.7000000476837","1","1","1","2","0.8,0.2,0.2,0.2,0.8,0.2,0.2,0.2,0.8","0.8,0.2,0.2,0.2,0.8,0.2,0.2,0.2,0.8","1","",""
"","html-keyboard-response","131","3293702","0.0-131.0","3Z2R0DQ0JI0H1RZJL97BT5KUUSKE2Y","A13FUEPWBCLBUY","3PEG1BH7AEDCPKTV9M6N3A4F0EHKBR","","null","<img src=""img/land6.png"" style=""width:200px; border:14px solid green;"">","null","","","","","","","","","",""
"","image-keyboard-response","132","3294039","0.0-132.0","3Z2R0DQ0JI0H1RZJL97BT5KUUSKE2Y","A13FUEPWBCLBUY","3PEG1BH7AEDCPKTV9M6N3A4F0EHKBR","","336.19999998807907","img/land6.png","74","336.5","1","1","1","2","0.8,0.2,0.2,0.2,0.8,0.2,0.2,0.2,0.8","0.8,0.2,0.2,0.2,0.8,0.2,0.2,0.2,0.8","1","",""
"","html-keyboard-response","133","3294340","0.0-133.0","3Z2R0DQ0JI0H1RZJL97BT5KUUSKE2Y","A13FUEPWBCLBUY","3PEG1BH7AEDCPKTV9M6N3A4F0EHKBR","","null","<img src=""img/land6.png"" style=""width:200px; border:14px solid green;"">","null","","","","","","","","","",""
"","image-keyboard-response","134","3295108","0.0-134.0","3Z2R0DQ0JI0H1RZJL97BT5KUUSKE2Y","A13FUEPWBCLBUY","3PEG1BH7AEDCPKTV9M6N3A4F0EHKBR","","767.6999999880791","img/land2.png","74","768.0999999642372","1","0","3","2","0.8,0.2,0.2,0.2,0.8,0.2,0.2,0.2,0.8","0.8,0.2,0.2,0.2,0.8,0.2,0.2,0.2,0.8","1","",""
"","html-keyboard-response","135","3295409","0.0-135.0","3Z2R0DQ0JI0H1RZJL97BT5KUUSKE2Y","A13FUEPWBCLBUY","3PEG1BH7AEDCPKTV9M6N3A4F0EHKBR","","null","<img src=""img/land2.png"" style=""width:200px;border:14px solid red;"">","null","","","","","","","","","",""
"","image-keyboard-response","136","3296000","0.0-136.0","3Z2R0DQ0JI0H1RZJL97BT5KUUSKE2Y","A13FUEPWBCLBUY","3PEG1BH7AEDCPKTV9M6N3A4F0EHKBR","","590","img/land1.png","75","590.3999999761581","2","1","2","2","0.8,0.2,0.2,0.2,0.8,0.2,0.2,0.2,0.8","0.8,0.2,0.2,0.2,0.8,0.2,0.2,0.2,0.8","1","",""
"","html-keyboard-response","137","3296301","0.0-137.0","3Z2R0DQ0JI0H1RZJL97BT5KUUSKE2Y","A13FUEPWBCLBUY","3PEG1BH7AEDCPKTV9M6N3A4F0EHKBR","","null","<img src=""img/land1.png"" style=""width:200px; border:14px solid green;"">","null","","","","","","","","","",""
"","image-keyboard-response","138","3296743","0.0-138.0","3Z2R0DQ0JI0H1RZJL97BT5KUUSKE2Y","A13FUEPWBCLBUY","3PEG1BH7AEDCPKTV9M6N3A4F0EHKBR","","441.0999999642372","img/land6.png","74","441.7000000476837","1","1","1","2","0.8,0.2,0.2,0.2,0.8,0.2,0.2,0.2,0.8","0.8,0.2,0.2,0.2,0.8,0.2,0.2,0.2,0.8","1","",""
"","html-keyboard-response","139","3297044","0.0-139.0","3Z2R0DQ0JI0H1RZJL97BT5KUUSKE2Y","A13FUEPWBCLBUY","3PEG1BH7AEDCPKTV9M6N3A4F0EHKBR","","null","<img src=""img/land6.png"" style=""width:200px; border:14px solid green;"">","null","","","","","","","","","",""
"","image-keyboard-response","140","3297342","0.0-140.0","3Z2R0DQ0JI0H1RZJL97BT5KUUSKE2Y","A13FUEPWBCLBUY","3PEG1BH7AEDCPKTV9M6N3A4F0EHKBR","","297.0999999642372","img/land6.png","74","297.60000002384186","1","1","1","2","0.8,0.2,0.2,0.2,0.8,0.2,0.2,0.2,0.8","0.8,0.2,0.2,0.2,0.8,0.2,0.2,0.2,0.8","1","",""
"","html-keyboard-response","141","3297643","0.0-141.0","3Z2R0DQ0JI0H1RZJL97BT5KUUSKE2Y","A13FUEPWBCLBUY","3PEG1BH7AEDCPKTV9M6N3A4F0EHKBR","","null","<img src=""img/land6.png"" style=""width:200px; border:14px solid green;"">","null","","","","","","","","","",""
"","image-keyboard-response","142","3298801","0.0-142.0","3Z2R0DQ0JI0H1RZJL97BT5KUUSKE2Y","A13FUEPWBCLBUY","3PEG1BH7AEDCPKTV9M6N3A4F0EHKBR","","1157.199999988079","img/land2.png","74","1157.6000000238419","1","0","3","2","0.8,0.2,0.2,0.2,0.8,0.2,0.2,0.2,0.8","0.8,0.2,0.2,0.2,0.8,0.2,0.2,0.2,0.8","1","",""
"","html-keyboard-response","143","3299102","0.0-143.0","3Z2R0DQ0JI0H1RZJL97BT5KUUSKE2Y","A13FUEPWBCLBUY","3PEG1BH7AEDCPKTV9M6N3A4F0EHKBR","","null","<img src=""img/land2.png"" style=""width:200px;border:14px solid red;"">","null","","","","","","","","","",""
"","image-keyboard-response","144","3299613","0.0-144.0","3Z2R0DQ0JI0H1RZJL97BT5KUUSKE2Y","A13FUEPWBCLBUY","3PEG1BH7AEDCPKTV9M6N3A4F0EHKBR","","510","img/land2.png","76","510.5","3","1","3","2","0.8,0.2,0.2,0.2,0.8,0.2,0.2,0.2,0.8","0.8,0.2,0.2,0.2,0.8,0.2,0.2,0.2,0.8","1","",""
"","html-keyboard-response","145","3299915","0.0-145.0","3Z2R0DQ0JI0H1RZJL97BT5KUUSKE2Y","A13FUEPWBCLBUY","3PEG1BH7AEDCPKTV9M6N3A4F0EHKBR","","null","<img src=""img/land2.png"" style=""width:200px; border:14px solid green;"">","null","","","","","","","","","",""
"","image-keyboard-response","146","3300504","0.0-146.0","3Z2R0DQ0JI0H1RZJL97BT5KUUSKE2Y","A13FUEPWBCLBUY","3PEG1BH7AEDCPKTV9M6N3A4F0EHKBR","","588.5999999642372","img/land6.png","74","589.0999999642372","1","1","1","2","0.8,0.2,0.2,0.2,0.8,0.2,0.2,0.2,0.8","0.8,0.2,0.2,0.2,0.8,0.2,0.2,0.2,0.8","1","",""
"","html-keyboard-response","147","3300805","0.0-147.0","3Z2R0DQ0JI0H1RZJL97BT5KUUSKE2Y","A13FUEPWBCLBUY","3PEG1BH7AEDCPKTV9M6N3A4F0EHKBR","","null","<img src=""img/land6.png"" style=""width:200px; border:14px solid green;"">","null","","","","","","","","","",""
"","image-keyboard-response","148","3301132","0.0-148.0","3Z2R0DQ0JI0H1RZJL97BT5KUUSKE2Y","A13FUEPWBCLBUY","3PEG1BH7AEDCPKTV9M6N3A4F0EHKBR","","326.30000001192093","img/land6.png","74","326.89999997615814","1","1","1","2","0.8,0.2,0.2,0.2,0.8,0.2,0.2,0.2,0.8","0.8,0.2,0.2,0.2,0.8,0.2,0.2,0.2,0.8","1","",""
"","html-keyboard-response","149","3301434","0.0-149.0","3Z2R0DQ0JI0H1RZJL97BT5KUUSKE2Y","A13FUEPWBCLBUY","3PEG1BH7AEDCPKTV9M6N3A4F0EHKBR","","null","<img src=""img/land6.png"" style=""width:200px; border:14px solid green;"">","null","","","","","","","","","",""
"","image-keyboard-response","150","3301732","0.0-150.0","3Z2R0DQ0JI0H1RZJL97BT5KUUSKE2Y","A13FUEPWBCLBUY","3PEG1BH7AEDCPKTV9M6N3A4F0EHKBR","","297.2999999523163","img/land6.png","74","297.69999998807907","1","1","1","2","0.8,0.2,0.2,0.2,0.8,0.2,0.2,0.2,0.8","0.8,0.2,0.2,0.2,0.8,0.2,0.2,0.2,0.8","1","",""
"","html-keyboard-response","151","3302034","0.0-151.0","3Z2R0DQ0JI0H1RZJL97BT5KUUSKE2Y","A13FUEPWBCLBUY","3PEG1BH7AEDCPKTV9M6N3A4F0EHKBR","","null","<img src=""img/land6.png"" style=""width:200px; border:14px solid green;"">","null","","","","","","","","","",""
"","image-keyboard-response","152","3302309","0.0-152.0","3Z2R0DQ0JI0H1RZJL97BT5KUUSKE2Y","A13FUEPWBCLBUY","3PEG1BH7AEDCPKTV9M6N3A4F0EHKBR","","274.7000000476837","img/land6.png","74","275.30000001192093","1","0","1","2","0.8,0.2,0.2,0.2,0.8,0.2,0.2,0.2,0.8","0.8,0.2,0.2,0.2,0.8,0.2,0.2,0.2,0.8","1","",""
"","html-keyboard-response","153","3302611","0.0-153.0","3Z2R0DQ0JI0H1RZJL97BT5KUUSKE2Y","A13FUEPWBCLBUY","3PEG1BH7AEDCPKTV9M6N3A4F0EHKBR","","null","<img src=""img/land6.png"" style=""width:200px;border:14px solid red;"">","null","","","","","","","","","",""
"","image-keyboard-response","154","3303263","0.0-154.0","3Z2R0DQ0JI0H1RZJL97BT5KUUSKE2Y","A13FUEPWBCLBUY","3PEG1BH7AEDCPKTV9M6N3A4F0EHKBR","","650.8999999761581","img/land1.png","75","651.3999999761581","2","1","2","2","0.8,0.2,0.2,0.2,0.8,0.2,0.2,0.2,0.8","0.8,0.2,0.2,0.2,0.8,0.2,0.2,0.2,0.8","1","",""
"","html-keyboard-response","155","3303564","0.0-155.0","3Z2R0DQ0JI0H1RZJL97BT5KUUSKE2Y","A13FUEPWBCLBUY","3PEG1BH7AEDCPKTV9M6N3A4F0EHKBR","","null","<img src=""img/land1.png"" style=""width:200px; border:14px solid green;"">","null","","","","","","","","","",""
"","image-keyboard-response","156","3304247","0.0-156.0","3Z2R0DQ0JI0H1RZJL97BT5KUUSKE2Y","A13FUEPWBCLBUY","3PEG1BH7AEDCPKTV9M6N3A4F0EHKBR","","682.9000000357628","img/land2.png","76","683.3000000119209","3","0","3","2","0.8,0.2,0.2,0.2,0.8,0.2,0.2,0.2,0.8","0.8,0.2,0.2,0.2,0.8,0.2,0.2,0.2,0.8","1","",""
"","html-keyboard-response","157","3304548","0.0-157.0","3Z2R0DQ0JI0H1RZJL97BT5KUUSKE2Y","A13FUEPWBCLBUY","3PEG1BH7AEDCPKTV9M6N3A4F0EHKBR","","null","<img src=""img/land2.png"" style=""width:200px;border:14px solid red;"">","null","","","","","","","","","",""
"","image-keyboard-response","158","3305155","0.0-158.0","3Z2R0DQ0JI0H1RZJL97BT5KUUSKE2Y","A13FUEPWBCLBUY","3PEG1BH7AEDCPKTV9M6N3A4F0EHKBR","","606.0999999642372","img/land2.png","74","606.5999999642372","1","0","3","2","0.8,0.2,0.2,0.2,0.8,0.2,0.2,0.2,0.8","0.8,0.2,0.2,0.2,0.8,0.2,0.2,0.2,0.8","1","",""
"","html-keyboard-response","159","3305457","0.0-159.0","3Z2R0DQ0JI0H1RZJL97BT5KUUSKE2Y","A13FUEPWBCLBUY","3PEG1BH7AEDCPKTV9M6N3A4F0EHKBR","","null","<img src=""img/land2.png"" style=""width:200px;border:14px solid red;"">","null","","","","","","","","","",""
"","image-keyboard-response","160","3306122","0.0-160.0","3Z2R0DQ0JI0H1RZJL97BT5KUUSKE2Y","A13FUEPWBCLBUY","3PEG1BH7AEDCPKTV9M6N3A4F0EHKBR","","664.8000000119209","img/land1.png","75","665.3999999761581","2","0","2","2","0.8,0.2,0.2,0.2,0.8,0.2,0.2,0.2,0.8","0.8,0.2,0.2,0.2,0.8,0.2,0.2,0.2,0.8","1","",""
"","html-keyboard-response","161","3306423","0.0-161.0","3Z2R0DQ0JI0H1RZJL97BT5KUUSKE2Y","A13FUEPWBCLBUY","3PEG1BH7AEDCPKTV9M6N3A4F0EHKBR","","null","<img src=""img/land1.png"" style=""width:200px;border:14px solid red;"">","null","","","","","","","","","",""
"","image-keyboard-response","162","3306771","0.0-162.0","3Z2R0DQ0JI0H1RZJL97BT5KUUSKE2Y","A13FUEPWBCLBUY","3PEG1BH7AEDCPKTV9M6N3A4F0EHKBR","","347","img/land1.png","75","347.60000002384186","2","1","2","2","0.8,0.2,0.2,0.2,0.8,0.2,0.2,0.2,0.8","0.8,0.2,0.2,0.2,0.8,0.2,0.2,0.2,0.8","1","",""
"","html-keyboard-response","163","3307086","0.0-163.0","3Z2R0DQ0JI0H1RZJL97BT5KUUSKE2Y","A13FUEPWBCLBUY","3PEG1BH7AEDCPKTV9M6N3A4F0EHKBR","","null","<img src=""img/land1.png"" style=""width:200px; border:14px solid green;"">","null","","","","","","","","","",""
"","image-keyboard-response","164","3307649","0.0-164.0","3Z2R0DQ0JI0H1RZJL97BT5KUUSKE2Y","A13FUEPWBCLBUY","3PEG1BH7AEDCPKTV9M6N3A4F0EHKBR","","562","img/land6.png","74","562.6000000238419","1","1","1","2","0.8,0.2,0.2,0.2,0.8,0.2,0.2,0.2,0.8","0.8,0.2,0.2,0.2,0.8,0.2,0.2,0.2,0.8","1","",""
"","html-keyboard-response","165","3307950","0.0-165.0","3Z2R0DQ0JI0H1RZJL97BT5KUUSKE2Y","A13FUEPWBCLBUY","3PEG1BH7AEDCPKTV9M6N3A4F0EHKBR","","null","<img src=""img/land6.png"" style=""width:200px; border:14px solid green;"">","null","","","","","","","","","",""
"","image-keyboard-response","166","3308586","0.0-166.0","3Z2R0DQ0JI0H1RZJL97BT5KUUSKE2Y","A13FUEPWBCLBUY","3PEG1BH7AEDCPKTV9M6N3A4F0EHKBR","","635.1000000238419","img/land2.png","75","635.6999999880791","2","0","3","2","0.8,0.2,0.2,0.2,0.8,0.2,0.2,0.2,0.8","0.8,0.2,0.2,0.2,0.8,0.2,0.2,0.2,0.8","1","",""
"","html-keyboard-response","167","3308888","0.0-167.0","3Z2R0DQ0JI0H1RZJL97BT5KUUSKE2Y","A13FUEPWBCLBUY","3PEG1BH7AEDCPKTV9M6N3A4F0EHKBR","","null","<img src=""img/land2.png"" style=""width:200px;border:14px solid red;"">","null","","","","","","","","","",""
"","image-keyboard-response","168","3309625","0.0-168.0","3Z2R0DQ0JI0H1RZJL97BT5KUUSKE2Y","A13FUEPWBCLBUY","3PEG1BH7AEDCPKTV9M6N3A4F0EHKBR","","737","img/land6.png","74","737.4000000357628","1","1","1","2","0.8,0.2,0.2,0.2,0.8,0.2,0.2,0.2,0.8","0.8,0.2,0.2,0.2,0.8,0.2,0.2,0.2,0.8","1","",""
"","html-keyboard-response","169","3309927","0.0-169.0","3Z2R0DQ0JI0H1RZJL97BT5KUUSKE2Y","A13FUEPWBCLBUY","3PEG1BH7AEDCPKTV9M6N3A4F0EHKBR","","null","<img src=""img/land6.png"" style=""width:200px; border:14px solid green;"">","null","","","","","","","","","",""
"","image-keyboard-response","170","3310299","0.0-170.0","3Z2R0DQ0JI0H1RZJL97BT5KUUSKE2Y","A13FUEPWBCLBUY","3PEG1BH7AEDCPKTV9M6N3A4F0EHKBR","","371.5","img/land6.png","74","372","1","1","1","2","0.8,0.2,0.2,0.2,0.8,0.2,0.2,0.2,0.8","0.8,0.2,0.2,0.2,0.8,0.2,0.2,0.2,0.8","1","",""
"","html-keyboard-response","171","3310601","0.0-171.0","3Z2R0DQ0JI0H1RZJL97BT5KUUSKE2Y","A13FUEPWBCLBUY","3PEG1BH7AEDCPKTV9M6N3A4F0EHKBR","","null","<img src=""img/land6.png"" style=""width:200px; border:14px solid green;"">","null","","","","","","","","","",""
"","image-keyboard-response","172","3310910","0.0-172.0","3Z2R0DQ0JI0H1RZJL97BT5KUUSKE2Y","A13FUEPWBCLBUY","3PEG1BH7AEDCPKTV9M6N3A4F0EHKBR","","308.19999998807907","img/land6.png","74","308.80000001192093","1","1","1","2","0.8,0.2,0.2,0.2,0.8,0.2,0.2,0.2,0.8","0.8,0.2,0.2,0.2,0.8,0.2,0.2,0.2,0.8","1","",""
"","html-keyboard-response","173","3311212","0.0-173.0","3Z2R0DQ0JI0H1RZJL97BT5KUUSKE2Y","A13FUEPWBCLBUY","3PEG1BH7AEDCPKTV9M6N3A4F0EHKBR","","null","<img src=""img/land6.png"" style=""width:200px; border:14px solid green;"">","null","","","","","","","","","",""
"","image-keyboard-response","174","3311509","0.0-174.0","3Z2R0DQ0JI0H1RZJL97BT5KUUSKE2Y","A13FUEPWBCLBUY","3PEG1BH7AEDCPKTV9M6N3A4F0EHKBR","","296.5999999642372","img/land6.png","74","297","1","0","1","2","0.8,0.2,0.2,0.2,0.8,0.2,0.2,0.2,0.8","0.8,0.2,0.2,0.2,0.8,0.2,0.2,0.2,0.8","1","",""
"","html-keyboard-response","175","3311811","0.0-175.0","3Z2R0DQ0JI0H1RZJL97BT5KUUSKE2Y","A13FUEPWBCLBUY","3PEG1BH7AEDCPKTV9M6N3A4F0EHKBR","","null","<img src=""img/land6.png"" style=""width:200px;border:14px solid red;"">","null","","","","","","","","","",""
"","image-keyboard-response","176","3312436","0.0-176.0","3Z2R0DQ0JI0H1RZJL97BT5KUUSKE2Y","A13FUEPWBCLBUY","3PEG1BH7AEDCPKTV9M6N3A4F0EHKBR","","623.8000000119209","img/land6.png","74","624.3999999761581","1","0","1","2","0.8,0.2,0.2,0.2,0.8,0.2,0.2,0.2,0.8","0.8,0.2,0.2,0.2,0.8,0.2,0.2,0.2,0.8","1","",""
"","html-keyboard-response","177","3312737","0.0-177.0","3Z2R0DQ0JI0H1RZJL97BT5KUUSKE2Y","A13FUEPWBCLBUY","3PEG1BH7AEDCPKTV9M6N3A4F0EHKBR","","null","<img src=""img/land6.png"" style=""width:200px;border:14px solid red;"">","null","","","","","","","","","",""
"","image-keyboard-response","178","3313739","0.0-178.0","3Z2R0DQ0JI0H1RZJL97BT5KUUSKE2Y","A13FUEPWBCLBUY","3PEG1BH7AEDCPKTV9M6N3A4F0EHKBR","","1001","img/land6.png","76","1001.6999999880791","3","1","1","2","0.8,0.2,0.2,0.2,0.8,0.2,0.2,0.2,0.8","0.8,0.2,0.2,0.2,0.8,0.2,0.2,0.2,0.8","1","",""
"","html-keyboard-response","179","3314040","0.0-179.0","3Z2R0DQ0JI0H1RZJL97BT5KUUSKE2Y","A13FUEPWBCLBUY","3PEG1BH7AEDCPKTV9M6N3A4F0EHKBR","","null","<img src=""img/land6.png"" style=""width:200px; border:14px solid green;"">","null","","","","","","","","","",""
"","image-keyboard-response","180","3314378","0.0-180.0","3Z2R0DQ0JI0H1RZJL97BT5KUUSKE2Y","A13FUEPWBCLBUY","3PEG1BH7AEDCPKTV9M6N3A4F0EHKBR","","337.69999998807907","img/land6.png","76","338.19999998807907","3","0","1","2","0.8,0.2,0.2,0.2,0.8,0.2,0.2,0.2,0.8","0.8,0.2,0.2,0.2,0.8,0.2,0.2,0.2,0.8","1","",""
"","html-keyboard-response","181","3314680","0.0-181.0","3Z2R0DQ0JI0H1RZJL97BT5KUUSKE2Y","A13FUEPWBCLBUY","3PEG1BH7AEDCPKTV9M6N3A4F0EHKBR","","null","<img src=""img/land6.png"" style=""width:200px;border:14px solid red;"">","null","","","","","","","","","",""
"","image-keyboard-response","182","3315036","0.0-182.0","3Z2R0DQ0JI0H1RZJL97BT5KUUSKE2Y","A13FUEPWBCLBUY","3PEG1BH7AEDCPKTV9M6N3A4F0EHKBR","","355.4000000357628","img/land6.png","74","356","1","0","1","2","0.8,0.2,0.2,0.2,0.8,0.2,0.2,0.2,0.8","0.8,0.2,0.2,0.2,0.8,0.2,0.2,0.2,0.8","1","",""
"","html-keyboard-response","183","3315345","0.0-183.0","3Z2R0DQ0JI0H1RZJL97BT5KUUSKE2Y","A13FUEPWBCLBUY","3PEG1BH7AEDCPKTV9M6N3A4F0EHKBR","","null","<img src=""img/land6.png"" style=""width:200px;border:14px solid red;"">","null","","","","","","","","","",""
"","image-keyboard-response","184","3315995","0.0-184.0","3Z2R0DQ0JI0H1RZJL97BT5KUUSKE2Y","A13FUEPWBCLBUY","3PEG1BH7AEDCPKTV9M6N3A4F0EHKBR","","649.1999999880791","img/land6.png","75","649.8000000119209","2","0","1","2","0.8,0.2,0.2,0.2,0.8,0.2,0.2,0.2,0.8","0.8,0.2,0.2,0.2,0.8,0.2,0.2,0.2,0.8","1","",""
"","html-keyboard-response","185","3316296","0.0-185.0","3Z2R0DQ0JI0H1RZJL97BT5KUUSKE2Y","A13FUEPWBCLBUY","3PEG1BH7AEDCPKTV9M6N3A4F0EHKBR","","null","<img src=""img/land6.png"" style=""width:200px;border:14px solid red;"">","null","","","","","","","","","",""
"","image-keyboard-response","186","3316644","0.0-186.0","3Z2R0DQ0JI0H1RZJL97BT5KUUSKE2Y","A13FUEPWBCLBUY","3PEG1BH7AEDCPKTV9M6N3A4F0EHKBR","","346.69999998807907","img/land6.png","74","347.2999999523163","1","0","1","2","0.8,0.2,0.2,0.2,0.8,0.2,0.2,0.2,0.8","0.8,0.2,0.2,0.2,0.8,0.2,0.2,0.2,0.8","1","",""
"","html-keyboard-response","187","3316946","0.0-187.0","3Z2R0DQ0JI0H1RZJL97BT5KUUSKE2Y","A13FUEPWBCLBUY","3PEG1BH7AEDCPKTV9M6N3A4F0EHKBR","","null","<img src=""img/land6.png"" style=""width:200px;border:14px solid red;"">","null","","","","","","","","","",""
"","image-keyboard-response","188","3317627","0.0-188.0","3Z2R0DQ0JI0H1RZJL97BT5KUUSKE2Y","A13FUEPWBCLBUY","3PEG1BH7AEDCPKTV9M6N3A4F0EHKBR","","681.0999999642372","img/land2.png","75","681.5999999642372","2","0","3","2","0.8,0.2,0.2,0.2,0.8,0.2,0.2,0.2,0.8","0.8,0.2,0.2,0.2,0.8,0.2,0.2,0.2,0.8","1","",""
"","html-keyboard-response","189","3317929","0.0-189.0","3Z2R0DQ0JI0H1RZJL97BT5KUUSKE2Y","A13FUEPWBCLBUY","3PEG1BH7AEDCPKTV9M6N3A4F0EHKBR","","null","<img src=""img/land2.png"" style=""width:200px;border:14px solid red;"">","null","","","","","","","","","",""
"","image-keyboard-response","190","3318521","0.0-190.0","3Z2R0DQ0JI0H1RZJL97BT5KUUSKE2Y","A13FUEPWBCLBUY","3PEG1BH7AEDCPKTV9M6N3A4F0EHKBR","","591.3999999761581","img/land6.png","74","591.6999999880791","1","1","1","2","0.8,0.2,0.2,0.2,0.8,0.2,0.2,0.2,0.8","0.8,0.2,0.2,0.2,0.8,0.2,0.2,0.2,0.8","1","",""
"","html-keyboard-response","191","3318834","0.0-191.0","3Z2R0DQ0JI0H1RZJL97BT5KUUSKE2Y","A13FUEPWBCLBUY","3PEG1BH7AEDCPKTV9M6N3A4F0EHKBR","","null","<img src=""img/land6.png"" style=""width:200px; border:14px solid green;"">","null","","","","","","","","","",""
"","image-keyboard-response","192","3319246","0.0-192.0","3Z2R0DQ0JI0H1RZJL97BT5KUUSKE2Y","A13FUEPWBCLBUY","3PEG1BH7AEDCPKTV9M6N3A4F0EHKBR","","411.0999999642372","img/land6.png","74","411.5","1","0","1","2","0.8,0.2,0.2,0.2,0.8,0.2,0.2,0.2,0.8","0.8,0.2,0.2,0.2,0.8,0.2,0.2,0.2,0.8","1","",""
"","html-keyboard-response","193","3319548","0.0-193.0","3Z2R0DQ0JI0H1RZJL97BT5KUUSKE2Y","A13FUEPWBCLBUY","3PEG1BH7AEDCPKTV9M6N3A4F0EHKBR","","null","<img src=""img/land6.png"" style=""width:200px;border:14px solid red;"">","null","","","","","","","","","",""
"","image-keyboard-response","194","3320114","0.0-194.0","3Z2R0DQ0JI0H1RZJL97BT5KUUSKE2Y","A13FUEPWBCLBUY","3PEG1BH7AEDCPKTV9M6N3A4F0EHKBR","","565.6000000238419","img/land6.png","76","566.0999999642372","3","0","1","2","0.8,0.2,0.2,0.2,0.8,0.2,0.2,0.2,0.8","0.8,0.2,0.2,0.2,0.8,0.2,0.2,0.2,0.8","1","",""
"","html-keyboard-response","195","3320416","0.0-195.0","3Z2R0DQ0JI0H1RZJL97BT5KUUSKE2Y","A13FUEPWBCLBUY","3PEG1BH7AEDCPKTV9M6N3A4F0EHKBR","","null","<img src=""img/land6.png"" style=""width:200px;border:14px solid red;"">","null","","","","","","","","","",""
"","image-keyboard-response","196","3320782","0.0-196.0","3Z2R0DQ0JI0H1RZJL97BT5KUUSKE2Y","A13FUEPWBCLBUY","3PEG1BH7AEDCPKTV9M6N3A4F0EHKBR","","365.5999999642372","img/land6.png","74","366.19999998807907","1","1","1","2","0.8,0.2,0.2,0.2,0.8,0.2,0.2,0.2,0.8","0.8,0.2,0.2,0.2,0.8,0.2,0.2,0.2,0.8","1","",""
"","html-keyboard-response","197","3321084","0.0-197.0","3Z2R0DQ0JI0H1RZJL97BT5KUUSKE2Y","A13FUEPWBCLBUY","3PEG1BH7AEDCPKTV9M6N3A4F0EHKBR","","null","<img src=""img/land6.png"" style=""width:200px; border:14px solid green;"">","null","","","","","","","","","",""
"","image-keyboard-response","198","3321940","0.0-198.0","3Z2R0DQ0JI0H1RZJL97BT5KUUSKE2Y","A13FUEPWBCLBUY","3PEG1BH7AEDCPKTV9M6N3A4F0EHKBR","","855.1999999880791","img/land6.png","76","855.6000000238419","3","0","1","2","0.8,0.2,0.2,0.2,0.8,0.2,0.2,0.2,0.8","0.8,0.2,0.2,0.2,0.8,0.2,0.2,0.2,0.8","1","",""
"","html-keyboard-response","199","3322242","0.0-199.0","3Z2R0DQ0JI0H1RZJL97BT5KUUSKE2Y","A13FUEPWBCLBUY","3PEG1BH7AEDCPKTV9M6N3A4F0EHKBR","","null","<img src=""img/land6.png"" style=""width:200px;border:14px solid red;"">","null","","","","","","","","","",""
"","image-keyboard-response","200","3322487","0.0-200.0","3Z2R0DQ0JI0H1RZJL97BT5KUUSKE2Y","A13FUEPWBCLBUY","3PEG1BH7AEDCPKTV9M6N3A4F0EHKBR","","244.79999995231628","img/land6.png","74","245.19999998807907","1","0","1","2","0.8,0.2,0.2,0.2,0.8,0.2,0.2,0.2,0.8","0.8,0.2,0.2,0.2,0.8,0.2,0.2,0.2,0.8","1","",""
"","html-keyboard-response","201","3322789","0.0-201.0","3Z2R0DQ0JI0H1RZJL97BT5KUUSKE2Y","A13FUEPWBCLBUY","3PEG1BH7AEDCPKTV9M6N3A4F0EHKBR","","null","<img src=""img/land6.png"" style=""width:200px;border:14px solid red;"">","null","","","","","","","","","",""
"","image-keyboard-response","202","3323053","0.0-202.0","3Z2R0DQ0JI0H1RZJL97BT5KUUSKE2Y","A13FUEPWBCLBUY","3PEG1BH7AEDCPKTV9M6N3A4F0EHKBR","","263.10000002384186","img/land6.png","74","263.69999998807907","1","0","1","2","0.8,0.2,0.2,0.2,0.8,0.2,0.2,0.2,0.8","0.8,0.2,0.2,0.2,0.8,0.2,0.2,0.2,0.8","1","",""
"","html-keyboard-response","203","3323354","0.0-203.0","3Z2R0DQ0JI0H1RZJL97BT5KUUSKE2Y","A13FUEPWBCLBUY","3PEG1BH7AEDCPKTV9M6N3A4F0EHKBR","","null","<img src=""img/land6.png"" style=""width:200px;border:14px solid red;"">","null","","","","","","","","","",""
"","image-keyboard-response","204","3323989","0.0-204.0","3Z2R0DQ0JI0H1RZJL97BT5KUUSKE2Y","A13FUEPWBCLBUY","3PEG1BH7AEDCPKTV9M6N3A4F0EHKBR","","634.1999999880791","img/land1.png","75","634.6999999880791","2","1","2","2","0.8,0.2,0.2,0.2,0.8,0.2,0.2,0.2,0.8","0.8,0.2,0.2,0.2,0.8,0.2,0.2,0.2,0.8","1","",""
"","html-keyboard-response","205","3324290","0.0-205.0","3Z2R0DQ0JI0H1RZJL97BT5KUUSKE2Y","A13FUEPWBCLBUY","3PEG1BH7AEDCPKTV9M6N3A4F0EHKBR","","null","<img src=""img/land1.png"" style=""width:200px; border:14px solid green;"">","null","","","","","","","","","",""
"","image-keyboard-response","206","3324894","0.0-206.0","3Z2R0DQ0JI0H1RZJL97BT5KUUSKE2Y","A13FUEPWBCLBUY","3PEG1BH7AEDCPKTV9M6N3A4F0EHKBR","","602.7999999523163","img/land6.png","74","603.8999999761581","1","1","1","2","0.8,0.2,0.2,0.2,0.8,0.2,0.2,0.2,0.8","0.8,0.2,0.2,0.2,0.8,0.2,0.2,0.2,0.8","1","",""
"","html-keyboard-response","207","3325195","0.0-207.0","3Z2R0DQ0JI0H1RZJL97BT5KUUSKE2Y","A13FUEPWBCLBUY","3PEG1BH7AEDCPKTV9M6N3A4F0EHKBR","","null","<img src=""img/land6.png"" style=""width:200px; border:14px solid green;"">","null","","","","","","","","","",""
"","image-keyboard-response","208","3325852","0.0-208.0","3Z2R0DQ0JI0H1RZJL97BT5KUUSKE2Y","A13FUEPWBCLBUY","3PEG1BH7AEDCPKTV9M6N3A4F0EHKBR","","656.3000000119209","img/land1.png","75","656.5999999642372","2","1","2","2","0.8,0.2,0.2,0.2,0.8,0.2,0.2,0.2,0.8","0.8,0.2,0.2,0.2,0.8,0.2,0.2,0.2,0.8","1","",""
"","html-keyboard-response","209","3326153","0.0-209.0","3Z2R0DQ0JI0H1RZJL97BT5KUUSKE2Y","A13FUEPWBCLBUY","3PEG1BH7AEDCPKTV9M6N3A4F0EHKBR","","null","<img src=""img/land1.png"" style=""width:200px; border:14px solid green;"">","null","","","","","","","","","",""
"","image-keyboard-response","210","3326868","0.0-210.0","3Z2R0DQ0JI0H1RZJL97BT5KUUSKE2Y","A13FUEPWBCLBUY","3PEG1BH7AEDCPKTV9M6N3A4F0EHKBR","","714.1999999880791","img/land6.png","74","714.6000000238419","1","1","1","2","0.8,0.2,0.2,0.2,0.8,0.2,0.2,0.2,0.8","0.8,0.2,0.2,0.2,0.8,0.2,0.2,0.2,0.8","1","",""
"","html-keyboard-response","211","3327169","0.0-211.0","3Z2R0DQ0JI0H1RZJL97BT5KUUSKE2Y","A13FUEPWBCLBUY","3PEG1BH7AEDCPKTV9M6N3A4F0EHKBR","","null","<img src=""img/land6.png"" style=""width:200px; border:14px solid green;"">","null","","","","","","","","","",""
"","image-keyboard-response","212","3327565","0.0-212.0","3Z2R0DQ0JI0H1RZJL97BT5KUUSKE2Y","A13FUEPWBCLBUY","3PEG1BH7AEDCPKTV9M6N3A4F0EHKBR","","395.2000000476837","img/land6.png","74","395.60000002384186","1","1","1","2","0.8,0.2,0.2,0.2,0.8,0.2,0.2,0.2,0.8","0.8,0.2,0.2,0.2,0.8,0.2,0.2,0.2,0.8","1","",""
"","html-keyboard-response","213","3327867","0.0-213.0","3Z2R0DQ0JI0H1RZJL97BT5KUUSKE2Y","A13FUEPWBCLBUY","3PEG1BH7AEDCPKTV9M6N3A4F0EHKBR","","null","<img src=""img/land6.png"" style=""width:200px; border:14px solid green;"">","null","","","","","","","","","",""
"","image-keyboard-response","214","3328704","0.0-214.0","3Z2R0DQ0JI0H1RZJL97BT5KUUSKE2Y","A13FUEPWBCLBUY","3PEG1BH7AEDCPKTV9M6N3A4F0EHKBR","","836.1999999880791","img/land2.png","74","836.8000000119209","1","0","3","2","0.8,0.2,0.2,0.2,0.8,0.2,0.2,0.2,0.8","0.8,0.2,0.2,0.2,0.8,0.2,0.2,0.2,0.8","1","",""
"","html-keyboard-response","215","3329005","0.0-215.0","3Z2R0DQ0JI0H1RZJL97BT5KUUSKE2Y","A13FUEPWBCLBUY","3PEG1BH7AEDCPKTV9M6N3A4F0EHKBR","","null","<img src=""img/land2.png"" style=""width:200px;border:14px solid red;"">","null","","","","","","","","","",""
"","image-keyboard-response","216","3329614","0.0-216.0","3Z2R0DQ0JI0H1RZJL97BT5KUUSKE2Y","A13FUEPWBCLBUY","3PEG1BH7AEDCPKTV9M6N3A4F0EHKBR","","608.8999999761581","img/land2.png","76","609.3000000119209","3","1","3","2","0.8,0.2,0.2,0.2,0.8,0.2,0.2,0.2,0.8","0.8,0.2,0.2,0.2,0.8,0.2,0.2,0.2,0.8","1","",""
"","html-keyboard-response","217","3329930","0.0-217.0","3Z2R0DQ0JI0H1RZJL97BT5KUUSKE2Y","A13FUEPWBCLBUY","3PEG1BH7AEDCPKTV9M6N3A4F0EHKBR","","null","<img src=""img/land2.png"" style=""width:200px; border:14px solid green;"">","null","","","","","","","","","",""
"","image-keyboard-response","218","3330539","0.0-218.0","3Z2R0DQ0JI0H1RZJL97BT5KUUSKE2Y","A13FUEPWBCLBUY","3PEG1BH7AEDCPKTV9M6N3A4F0EHKBR","","608.4000000357628","img/land1.png","75","609","2","1","2","2","0.8,0.2,0.2,0.2,0.8,0.2,0.2,0.2,0.8","0.8,0.2,0.2,0.2,0.8,0.2,0.2,0.2,0.8","1","",""
"","html-keyboard-response","219","3330841","0.0-219.0","3Z2R0DQ0JI0H1RZJL97BT5KUUSKE2Y","A13FUEPWBCLBUY","3PEG1BH7AEDCPKTV9M6N3A4F0EHKBR","","null","<img src=""img/land1.png"" style=""width:200px; border:14px solid green;"">","null","","","","","","","","","",""
"","image-keyboard-response","220","3331415","0.0-220.0","3Z2R0DQ0JI0H1RZJL97BT5KUUSKE2Y","A13FUEPWBCLBUY","3PEG1BH7AEDCPKTV9M6N3A4F0EHKBR","","573.1999999880791","img/land6.png","74","573.6000000238419","1","1","1","2","0.8,0.2,0.2,0.2,0.8,0.2,0.2,0.2,0.8","0.8,0.2,0.2,0.2,0.8,0.2,0.2,0.2,0.8","1","",""
"","html-keyboard-response","221","3331717","0.0-221.0","3Z2R0DQ0JI0H1RZJL97BT5KUUSKE2Y","A13FUEPWBCLBUY","3PEG1BH7AEDCPKTV9M6N3A4F0EHKBR","","null","<img src=""img/land6.png"" style=""width:200px; border:14px solid green;"">","null","","","","","","","","","",""
"","image-keyboard-response","222","3332030","0.0-222.0","3Z2R0DQ0JI0H1RZJL97BT5KUUSKE2Y","A13FUEPWBCLBUY","3PEG1BH7AEDCPKTV9M6N3A4F0EHKBR","","312.19999998807907","img/land6.png","74","312.89999997615814","1","1","1","2","0.8,0.2,0.2,0.2,0.8,0.2,0.2,0.2,0.8","0.8,0.2,0.2,0.2,0.8,0.2,0.2,0.2,0.8","1","",""
"","html-keyboard-response","223","3332331","0.0-223.0","3Z2R0DQ0JI0H1RZJL97BT5KUUSKE2Y","A13FUEPWBCLBUY","3PEG1BH7AEDCPKTV9M6N3A4F0EHKBR","","null","<img src=""img/land6.png"" style=""width:200px; border:14px solid green;"">","null","","","","","","","","","",""
"","image-keyboard-response","224","3333111","0.0-224.0","3Z2R0DQ0JI0H1RZJL97BT5KUUSKE2Y","A13FUEPWBCLBUY","3PEG1BH7AEDCPKTV9M6N3A4F0EHKBR","","779.1999999880791","img/land1.png","75","779.7000000476837","2","1","2","2","0.8,0.2,0.2,0.2,0.8,0.2,0.2,0.2,0.8","0.8,0.2,0.2,0.2,0.8,0.2,0.2,0.2,0.8","1","",""
"","html-keyboard-response","225","3333412","0.0-225.0","3Z2R0DQ0JI0H1RZJL97BT5KUUSKE2Y","A13FUEPWBCLBUY","3PEG1BH7AEDCPKTV9M6N3A4F0EHKBR","","null","<img src=""img/land1.png"" style=""width:200px; border:14px solid green;"">","null","","","","","","","","","",""
"","image-keyboard-response","226","3333992","0.0-226.0","3Z2R0DQ0JI0H1RZJL97BT5KUUSKE2Y","A13FUEPWBCLBUY","3PEG1BH7AEDCPKTV9M6N3A4F0EHKBR","","579.1999999880791","img/land6.png","74","579.5999999642372","1","1","1","2","0.8,0.2,0.2,0.2,0.8,0.2,0.2,0.2,0.8","0.8,0.2,0.2,0.2,0.8,0.2,0.2,0.2,0.8","1","",""
"","html-keyboard-response","227","3334293","0.0-227.0","3Z2R0DQ0JI0H1RZJL97BT5KUUSKE2Y","A13FUEPWBCLBUY","3PEG1BH7AEDCPKTV9M6N3A4F0EHKBR","","null","<img src=""img/land6.png"" style=""width:200px; border:14px solid green;"">","null","","","","","","","","","",""
"","image-keyboard-response","228","3334766","0.0-228.0","3Z2R0DQ0JI0H1RZJL97BT5KUUSKE2Y","A13FUEPWBCLBUY","3PEG1BH7AEDCPKTV9M6N3A4F0EHKBR","","472.19999998807907","img/land6.png","74","472.5","1","0","1","2","0.8,0.2,0.2,0.2,0.8,0.2,0.2,0.2,0.8","0.8,0.2,0.2,0.2,0.8,0.2,0.2,0.2,0.8","1","",""
"","html-keyboard-response","229","3335067","0.0-229.0","3Z2R0DQ0JI0H1RZJL97BT5KUUSKE2Y","A13FUEPWBCLBUY","3PEG1BH7AEDCPKTV9M6N3A4F0EHKBR","","null","<img src=""img/land6.png"" style=""width:200px;border:14px solid red;"">","null","","","","","","","","","",""
"","image-keyboard-response","230","3335448","0.0-230.0","3Z2R0DQ0JI0H1RZJL97BT5KUUSKE2Y","A13FUEPWBCLBUY","3PEG1BH7AEDCPKTV9M6N3A4F0EHKBR","","379.69999998807907","img/land6.png","74","380.2999999523163","1","1","1","2","0.8,0.2,0.2,0.2,0.8,0.2,0.2,0.2,0.8","0.8,0.2,0.2,0.2,0.8,0.2,0.2,0.2,0.8","1","",""
"","html-keyboard-response","231","3335750","0.0-231.0","3Z2R0DQ0JI0H1RZJL97BT5KUUSKE2Y","A13FUEPWBCLBUY","3PEG1BH7AEDCPKTV9M6N3A4F0EHKBR","","null","<img src=""img/land6.png"" style=""width:200px; border:14px solid green;"">","null","","","","","","","","","",""
"","image-keyboard-response","232","3336079","0.0-232.0","3Z2R0DQ0JI0H1RZJL97BT5KUUSKE2Y","A13FUEPWBCLBUY","3PEG1BH7AEDCPKTV9M6N3A4F0EHKBR","","328.30000001192093","img/land6.png","74","328.7999999523163","1","0","1","2","0.8,0.2,0.2,0.2,0.8,0.2,0.2,0.2,0.8","0.8,0.2,0.2,0.2,0.8,0.2,0.2,0.2,0.8","1","",""
"","html-keyboard-response","233","3336380","0.0-233.0","3Z2R0DQ0JI0H1RZJL97BT5KUUSKE2Y","A13FUEPWBCLBUY","3PEG1BH7AEDCPKTV9M6N3A4F0EHKBR","","null","<img src=""img/land6.png"" style=""width:200px;border:14px solid red;"">","null","","","","","","","","","",""
"","image-keyboard-response","234","3337273","0.0-234.0","3Z2R0DQ0JI0H1RZJL97BT5KUUSKE2Y","A13FUEPWBCLBUY","3PEG1BH7AEDCPKTV9M6N3A4F0EHKBR","","892.5","img/land2.png","74","892.8000000119209","1","0","3","2","0.8,0.2,0.2,0.2,0.8,0.2,0.2,0.2,0.8","0.8,0.2,0.2,0.2,0.8,0.2,0.2,0.2,0.8","1","",""
"","html-keyboard-response","235","3337573","0.0-235.0","3Z2R0DQ0JI0H1RZJL97BT5KUUSKE2Y","A13FUEPWBCLBUY","3PEG1BH7AEDCPKTV9M6N3A4F0EHKBR","","null","<img src=""img/land2.png"" style=""width:200px;border:14px solid red;"">","null","","","","","","","","","",""
"","image-keyboard-response","236","3338056","0.0-236.0","3Z2R0DQ0JI0H1RZJL97BT5KUUSKE2Y","A13FUEPWBCLBUY","3PEG1BH7AEDCPKTV9M6N3A4F0EHKBR","","481.60000002384186","img/land1.png","75","482.0999999642372","2","0","2","2","0.8,0.2,0.2,0.2,0.8,0.2,0.2,0.2,0.8","0.8,0.2,0.2,0.2,0.8,0.2,0.2,0.2,0.8","1","",""
"","html-keyboard-response","237","3338366","0.0-237.0","3Z2R0DQ0JI0H1RZJL97BT5KUUSKE2Y","A13FUEPWBCLBUY","3PEG1BH7AEDCPKTV9M6N3A4F0EHKBR","","null","<img src=""img/land1.png"" style=""width:200px;border:14px solid red;"">","null","","","","","","","","","",""
"","image-keyboard-response","238","3339106","0.0-238.0","3Z2R0DQ0JI0H1RZJL97BT5KUUSKE2Y","A13FUEPWBCLBUY","3PEG1BH7AEDCPKTV9M6N3A4F0EHKBR","","739","img/land6.png","74","739.5","1","0","1","2","0.8,0.2,0.2,0.2,0.8,0.2,0.2,0.2,0.8","0.8,0.2,0.2,0.2,0.8,0.2,0.2,0.2,0.8","1","",""
"","html-keyboard-response","239","3339407","0.0-239.0","3Z2R0DQ0JI0H1RZJL97BT5KUUSKE2Y","A13FUEPWBCLBUY","3PEG1BH7AEDCPKTV9M6N3A4F0EHKBR","","null","<img src=""img/land6.png"" style=""width:200px;border:14px solid red;"">","null","","","","","","","","","",""
"","image-keyboard-response","240","3339775","0.0-240.0","3Z2R0DQ0JI0H1RZJL97BT5KUUSKE2Y","A13FUEPWBCLBUY","3PEG1BH7AEDCPKTV9M6N3A4F0EHKBR","","366.9000000357628","img/land6.png","76","367.5","3","0","1","2","0.8,0.2,0.2,0.2,0.8,0.2,0.2,0.2,0.8","0.8,0.2,0.2,0.2,0.8,0.2,0.2,0.2,0.8","1","",""
"","html-keyboard-response","241","3340077","0.0-241.0","3Z2R0DQ0JI0H1RZJL97BT5KUUSKE2Y","A13FUEPWBCLBUY","3PEG1BH7AEDCPKTV9M6N3A4F0EHKBR","","null","<img src=""img/land6.png"" style=""width:200px;border:14px solid red;"">","null","","","","","","","","","",""
"","image-keyboard-response","242","3340778","0.0-242.0","3Z2R0DQ0JI0H1RZJL97BT5KUUSKE2Y","A13FUEPWBCLBUY","3PEG1BH7AEDCPKTV9M6N3A4F0EHKBR","","701.0999999642372","img/land1.png","75","701.5","2","1","2","2","0.8,0.2,0.2,0.2,0.8,0.2,0.2,0.2,0.8","0.8,0.2,0.2,0.2,0.8,0.2,0.2,0.2,0.8","1","",""
"","html-keyboard-response","243","3341090","0.0-243.0","3Z2R0DQ0JI0H1RZJL97BT5KUUSKE2Y","A13FUEPWBCLBUY","3PEG1BH7AEDCPKTV9M6N3A4F0EHKBR","","null","<img src=""img/land1.png"" style=""width:200px; border:14px solid green;"">","null","","","","","","","","","",""
"","image-keyboard-response","244","3341591","0.0-244.0","3Z2R0DQ0JI0H1RZJL97BT5KUUSKE2Y","A13FUEPWBCLBUY","3PEG1BH7AEDCPKTV9M6N3A4F0EHKBR","","500.19999998807907","img/land6.png","76","500.69999998807907","3","1","1","2","0.8,0.2,0.2,0.2,0.8,0.2,0.2,0.2,0.8","0.8,0.2,0.2,0.2,0.8,0.2,0.2,0.2,0.8","1","",""
"","html-keyboard-response","245","3341892","0.0-245.0","3Z2R0DQ0JI0H1RZJL97BT5KUUSKE2Y","A13FUEPWBCLBUY","3PEG1BH7AEDCPKTV9M6N3A4F0EHKBR","","null","<img src=""img/land6.png"" style=""width:200px; border:14px solid green;"">","null","","","","","","","","","",""
"","image-keyboard-response","246","3342577","0.0-246.0","3Z2R0DQ0JI0H1RZJL97BT5KUUSKE2Y","A13FUEPWBCLBUY","3PEG1BH7AEDCPKTV9M6N3A4F0EHKBR","","684.6999999880791","img/land1.png","75","685.3000000119209","2","1","2","2","0.8,0.2,0.2,0.2,0.8,0.2,0.2,0.2,0.8","0.8,0.2,0.2,0.2,0.8,0.2,0.2,0.2,0.8","1","",""
"","html-keyboard-response","247","3342879","0.0-247.0","3Z2R0DQ0JI0H1RZJL97BT5KUUSKE2Y","A13FUEPWBCLBUY","3PEG1BH7AEDCPKTV9M6N3A4F0EHKBR","","null","<img src=""img/land1.png"" style=""width:200px; border:14px solid green;"">","null","","","","","","","","","",""
"","image-keyboard-response","248","3343303","0.0-248.0","3Z2R0DQ0JI0H1RZJL97BT5KUUSKE2Y","A13FUEPWBCLBUY","3PEG1BH7AEDCPKTV9M6N3A4F0EHKBR","","423.10000002384186","img/land6.png","76","423.69999998807907","3","0","1","2","0.8,0.2,0.2,0.2,0.8,0.2,0.2,0.2,0.8","0.8,0.2,0.2,0.2,0.8,0.2,0.2,0.2,0.8","1","",""
"","html-keyboard-response","249","3343617","0.0-249.0","3Z2R0DQ0JI0H1RZJL97BT5KUUSKE2Y","A13FUEPWBCLBUY","3PEG1BH7AEDCPKTV9M6N3A4F0EHKBR","","null","<img src=""img/land6.png"" style=""width:200px;border:14px solid red;"">","null","","","","","","","","","",""
"","image-keyboard-response","250","3344091","0.0-250.0","3Z2R0DQ0JI0H1RZJL97BT5KUUSKE2Y","A13FUEPWBCLBUY","3PEG1BH7AEDCPKTV9M6N3A4F0EHKBR","","473","img/land6.png","74","473.69999998807907","1","1","1","2","0.8,0.2,0.2,0.2,0.8,0.2,0.2,0.2,0.8","0.8,0.2,0.2,0.2,0.8,0.2,0.2,0.2,0.8","1","",""
"","html-keyboard-response","251","3344393","0.0-251.0","3Z2R0DQ0JI0H1RZJL97BT5KUUSKE2Y","A13FUEPWBCLBUY","3PEG1BH7AEDCPKTV9M6N3A4F0EHKBR","","null","<img src=""img/land6.png"" style=""width:200px; border:14px solid green;"">","null","","","","","","","","","",""
"","image-keyboard-response","252","3345200","0.0-252.0","3Z2R0DQ0JI0H1RZJL97BT5KUUSKE2Y","A13FUEPWBCLBUY","3PEG1BH7AEDCPKTV9M6N3A4F0EHKBR","","806","img/land2.png","74","806.6000000238419","1","0","3","2","0.8,0.2,0.2,0.2,0.8,0.2,0.2,0.2,0.8","0.8,0.2,0.2,0.2,0.8,0.2,0.2,0.2,0.8","1","",""
"","html-keyboard-response","253","3345501","0.0-253.0","3Z2R0DQ0JI0H1RZJL97BT5KUUSKE2Y","A13FUEPWBCLBUY","3PEG1BH7AEDCPKTV9M6N3A4F0EHKBR","","null","<img src=""img/land2.png"" style=""width:200px;border:14px solid red;"">","null","","","","","","","","","",""
"","image-keyboard-response","254","3345972","0.0-254.0","3Z2R0DQ0JI0H1RZJL97BT5KUUSKE2Y","A13FUEPWBCLBUY","3PEG1BH7AEDCPKTV9M6N3A4F0EHKBR","","469.89999997615814","img/land2.png","76","470.5","3","1","3","2","0.8,0.2,0.2,0.2,0.8,0.2,0.2,0.2,0.8","0.8,0.2,0.2,0.2,0.8,0.2,0.2,0.2,0.8","1","",""
"","html-keyboard-response","255","3346273","0.0-255.0","3Z2R0DQ0JI0H1RZJL97BT5KUUSKE2Y","A13FUEPWBCLBUY","3PEG1BH7AEDCPKTV9M6N3A4F0EHKBR","","null","<img src=""img/land2.png"" style=""width:200px; border:14px solid green;"">","null","","","","","","","","","",""
"","image-keyboard-response","256","3346646","0.0-256.0","3Z2R0DQ0JI0H1RZJL97BT5KUUSKE2Y","A13FUEPWBCLBUY","3PEG1BH7AEDCPKTV9M6N3A4F0EHKBR","","372.30000001192093","img/land2.png","76","372.7999999523163","3","1","3","2","0.8,0.2,0.2,0.2,0.8,0.2,0.2,0.2,0.8","0.8,0.2,0.2,0.2,0.8,0.2,0.2,0.2,0.8","1","",""
"","html-keyboard-response","257","3346948","0.0-257.0","3Z2R0DQ0JI0H1RZJL97BT5KUUSKE2Y","A13FUEPWBCLBUY","3PEG1BH7AEDCPKTV9M6N3A4F0EHKBR","","null","<img src=""img/land2.png"" style=""width:200px; border:14px solid green;"">","null","","","","","","","","","",""
"","image-keyboard-response","258","3347659","0.0-258.0","3Z2R0DQ0JI0H1RZJL97BT5KUUSKE2Y","A13FUEPWBCLBUY","3PEG1BH7AEDCPKTV9M6N3A4F0EHKBR","","710.1000000238419","img/land6.png","74","710.6000000238419","1","0","1","2","0.8,0.2,0.2,0.2,0.8,0.2,0.2,0.2,0.8","0.8,0.2,0.2,0.2,0.8,0.2,0.2,0.2,0.8","1","",""
"","html-keyboard-response","259","3347961","0.0-259.0","3Z2R0DQ0JI0H1RZJL97BT5KUUSKE2Y","A13FUEPWBCLBUY","3PEG1BH7AEDCPKTV9M6N3A4F0EHKBR","","null","<img src=""img/land6.png"" style=""width:200px;border:14px solid red;"">","null","","","","","","","","","",""
"","image-keyboard-response","260","3348500","0.0-260.0","3Z2R0DQ0JI0H1RZJL97BT5KUUSKE2Y","A13FUEPWBCLBUY","3PEG1BH7AEDCPKTV9M6N3A4F0EHKBR","","538.3999999761581","img/land6.png","76","539","3","0","1","2","0.8,0.2,0.2,0.2,0.8,0.2,0.2,0.2,0.8","0.8,0.2,0.2,0.2,0.8,0.2,0.2,0.2,0.8","1","",""
"","html-keyboard-response","261","3348801","0.0-261.0","3Z2R0DQ0JI0H1RZJL97BT5KUUSKE2Y","A13FUEPWBCLBUY","3PEG1BH7AEDCPKTV9M6N3A4F0EHKBR","","null","<img src=""img/land6.png"" style=""width:200px;border:14px solid red;"">","null","","","","","","","","","",""
"","image-keyboard-response","262","3349860","0.0-262.0","3Z2R0DQ0JI0H1RZJL97BT5KUUSKE2Y","A13FUEPWBCLBUY","3PEG1BH7AEDCPKTV9M6N3A4F0EHKBR","","1058.199999988079","img/land2.png","76","1058.800000011921","3","1","3","2","0.8,0.2,0.2,0.2,0.8,0.2,0.2,0.2,0.8","0.8,0.2,0.2,0.2,0.8,0.2,0.2,0.2,0.8","1","",""
"","html-keyboard-response","263","3350161","0.0-263.0","3Z2R0DQ0JI0H1RZJL97BT5KUUSKE2Y","A13FUEPWBCLBUY","3PEG1BH7AEDCPKTV9M6N3A4F0EHKBR","","null","<img src=""img/land2.png"" style=""width:200px; border:14px solid green;"">","null","","","","","","","","","",""
"","image-keyboard-response","264","3350509","0.0-264.0","3Z2R0DQ0JI0H1RZJL97BT5KUUSKE2Y","A13FUEPWBCLBUY","3PEG1BH7AEDCPKTV9M6N3A4F0EHKBR","","347.60000002384186","img/land2.png","76","348.10000002384186","3","1","3","2","0.8,0.2,0.2,0.2,0.8,0.2,0.2,0.2,0.8","0.8,0.2,0.2,0.2,0.8,0.2,0.2,0.2,0.8","1","",""
"","html-keyboard-response","265","3350811","0.0-265.0","3Z2R0DQ0JI0H1RZJL97BT5KUUSKE2Y","A13FUEPWBCLBUY","3PEG1BH7AEDCPKTV9M6N3A4F0EHKBR","","null","<img src=""img/land2.png"" style=""width:200px; border:14px solid green;"">","null","","","","","","","","","",""
"","image-keyboard-response","266","3351405","0.0-266.0","3Z2R0DQ0JI0H1RZJL97BT5KUUSKE2Y","A13FUEPWBCLBUY","3PEG1BH7AEDCPKTV9M6N3A4F0EHKBR","","593.1000000238419","img/land6.png","74","593.5","1","1","1","2","0.8,0.2,0.2,0.2,0.8,0.2,0.2,0.2,0.8","0.8,0.2,0.2,0.2,0.8,0.2,0.2,0.2,0.8","1","",""
"","html-keyboard-response","267","3351706","0.0-267.0","3Z2R0DQ0JI0H1RZJL97BT5KUUSKE2Y","A13FUEPWBCLBUY","3PEG1BH7AEDCPKTV9M6N3A4F0EHKBR","","null","<img src=""img/land6.png"" style=""width:200px; border:14px solid green;"">","null","","","","","","","","","",""
"","image-keyboard-response","268","3352568","0.0-268.0","3Z2R0DQ0JI0H1RZJL97BT5KUUSKE2Y","A13FUEPWBCLBUY","3PEG1BH7AEDCPKTV9M6N3A4F0EHKBR","","861","img/land2.png","76","861.5","3","1","3","2","0.8,0.2,0.2,0.2,0.8,0.2,0.2,0.2,0.8","0.8,0.2,0.2,0.2,0.8,0.2,0.2,0.2,0.8","1","",""
"","html-keyboard-response","269","3352870","0.0-269.0","3Z2R0DQ0JI0H1RZJL97BT5KUUSKE2Y","A13FUEPWBCLBUY","3PEG1BH7AEDCPKTV9M6N3A4F0EHKBR","","null","<img src=""img/land2.png"" style=""width:200px; border:14px solid green;"">","null","","","","","","","","","",""
"","image-keyboard-response","270","3353517","0.0-270.0","3Z2R0DQ0JI0H1RZJL97BT5KUUSKE2Y","A13FUEPWBCLBUY","3PEG1BH7AEDCPKTV9M6N3A4F0EHKBR","","646.1999999880791","img/land6.png","74","646.8000000119209","1","1","1","2","0.8,0.2,0.2,0.2,0.8,0.2,0.2,0.2,0.8","0.8,0.2,0.2,0.2,0.8,0.2,0.2,0.2,0.8","1","",""
"","html-keyboard-response","271","3353818","0.0-271.0","3Z2R0DQ0JI0H1RZJL97BT5KUUSKE2Y","A13FUEPWBCLBUY","3PEG1BH7AEDCPKTV9M6N3A4F0EHKBR","","null","<img src=""img/land6.png"" style=""width:200px; border:14px solid green;"">","null","","","","","","","","","",""
"","image-keyboard-response","272","3354183","0.0-272.0","3Z2R0DQ0JI0H1RZJL97BT5KUUSKE2Y","A13FUEPWBCLBUY","3PEG1BH7AEDCPKTV9M6N3A4F0EHKBR","","364","img/land6.png","74","364.5999999642372","1","1","1","2","0.8,0.2,0.2,0.2,0.8,0.2,0.2,0.2,0.8","0.8,0.2,0.2,0.2,0.8,0.2,0.2,0.2,0.8","1","",""
"","html-keyboard-response","273","3354484","0.0-273.0","3Z2R0DQ0JI0H1RZJL97BT5KUUSKE2Y","A13FUEPWBCLBUY","3PEG1BH7AEDCPKTV9M6N3A4F0EHKBR","","null","<img src=""img/land6.png"" style=""width:200px; border:14px solid green;"">","null","","","","","","","","","",""
"","image-keyboard-response","274","3355144","0.0-274.0","3Z2R0DQ0JI0H1RZJL97BT5KUUSKE2Y","A13FUEPWBCLBUY","3PEG1BH7AEDCPKTV9M6N3A4F0EHKBR","","658.6999999880791","img/land1.png","75","659.1999999880791","2","1","2","2","0.8,0.2,0.2,0.2,0.8,0.2,0.2,0.2,0.8","0.8,0.2,0.2,0.2,0.8,0.2,0.2,0.2,0.8","1","",""
"","html-keyboard-response","275","3355445","0.0-275.0","3Z2R0DQ0JI0H1RZJL97BT5KUUSKE2Y","A13FUEPWBCLBUY","3PEG1BH7AEDCPKTV9M6N3A4F0EHKBR","","null","<img src=""img/land1.png"" style=""width:200px; border:14px solid green;"">","null","","","","","","","","","",""
"","image-keyboard-response","276","3356091","0.0-276.0","3Z2R0DQ0JI0H1RZJL97BT5KUUSKE2Y","A13FUEPWBCLBUY","3PEG1BH7AEDCPKTV9M6N3A4F0EHKBR","","644.8999999761581","img/land6.png","74","645.5","1","1","1","2","0.8,0.2,0.2,0.2,0.8,0.2,0.2,0.2,0.8","0.8,0.2,0.2,0.2,0.8,0.2,0.2,0.2,0.8","1","",""
"","html-keyboard-response","277","3356392","0.0-277.0","3Z2R0DQ0JI0H1RZJL97BT5KUUSKE2Y","A13FUEPWBCLBUY","3PEG1BH7AEDCPKTV9M6N3A4F0EHKBR","","null","<img src=""img/land6.png"" style=""width:200px; border:14px solid green;"">","null","","","","","","","","","",""
"","image-keyboard-response","278","3357303","0.0-278.0","3Z2R0DQ0JI0H1RZJL97BT5KUUSKE2Y","A13FUEPWBCLBUY","3PEG1BH7AEDCPKTV9M6N3A4F0EHKBR","","910.4000000357628","img/land1.png","75","910.8000000119209","2","1","2","2","0.8,0.2,0.2,0.2,0.8,0.2,0.2,0.2,0.8","0.8,0.2,0.2,0.2,0.8,0.2,0.2,0.2,0.8","1","",""
"","html-keyboard-response","279","3357604","0.0-279.0","3Z2R0DQ0JI0H1RZJL97BT5KUUSKE2Y","A13FUEPWBCLBUY","3PEG1BH7AEDCPKTV9M6N3A4F0EHKBR","","null","<img src=""img/land1.png"" style=""width:200px; border:14px solid green;"">","null","","","","","","","","","",""
"","image-keyboard-response","280","3358309","0.0-280.0","3Z2R0DQ0JI0H1RZJL97BT5KUUSKE2Y","A13FUEPWBCLBUY","3PEG1BH7AEDCPKTV9M6N3A4F0EHKBR","","704.0999999642372","img/land6.png","74","704.8000000119209","1","1","1","2","0.8,0.2,0.2,0.2,0.8,0.2,0.2,0.2,0.8","0.8,0.2,0.2,0.2,0.8,0.2,0.2,0.2,0.8","1","",""
"","html-keyboard-response","281","3358611","0.0-281.0","3Z2R0DQ0JI0H1RZJL97BT5KUUSKE2Y","A13FUEPWBCLBUY","3PEG1BH7AEDCPKTV9M6N3A4F0EHKBR","","null","<img src=""img/land6.png"" style=""width:200px; border:14px solid green;"">","null","","","","","","","","","",""
"","image-keyboard-response","282","3358919","0.0-282.0","3Z2R0DQ0JI0H1RZJL97BT5KUUSKE2Y","A13FUEPWBCLBUY","3PEG1BH7AEDCPKTV9M6N3A4F0EHKBR","","307.10000002384186","img/land6.png","74","307.5","1","1","1","2","0.8,0.2,0.2,0.2,0.8,0.2,0.2,0.2,0.8","0.8,0.2,0.2,0.2,0.8,0.2,0.2,0.2,0.8","1","",""
"","html-keyboard-response","283","3359220","0.0-283.0","3Z2R0DQ0JI0H1RZJL97BT5KUUSKE2Y","A13FUEPWBCLBUY","3PEG1BH7AEDCPKTV9M6N3A4F0EHKBR","","null","<img src=""img/land6.png"" style=""width:200px; border:14px solid green;"">","null","","","","","","","","","",""
"","image-keyboard-response","284","3359483","0.0-284.0","3Z2R0DQ0JI0H1RZJL97BT5KUUSKE2Y","A13FUEPWBCLBUY","3PEG1BH7AEDCPKTV9M6N3A4F0EHKBR","","261.5999999642372","img/land6.png","74","262.19999998807907","1","1","1","2","0.8,0.2,0.2,0.2,0.8,0.2,0.2,0.2,0.8","0.8,0.2,0.2,0.2,0.8,0.2,0.2,0.2,0.8","1","",""
"","html-keyboard-response","285","3359784","0.0-285.0","3Z2R0DQ0JI0H1RZJL97BT5KUUSKE2Y","A13FUEPWBCLBUY","3PEG1BH7AEDCPKTV9M6N3A4F0EHKBR","","null","<img src=""img/land6.png"" style=""width:200px; border:14px solid green;"">","null","","","","","","","","","",""
"","image-keyboard-response","286","3360628","0.0-286.0","3Z2R0DQ0JI0H1RZJL97BT5KUUSKE2Y","A13FUEPWBCLBUY","3PEG1BH7AEDCPKTV9M6N3A4F0EHKBR","","843.2999999523163","img/land2.png","76","843.8000000119209","3","1","3","2","0.8,0.2,0.2,0.2,0.8,0.2,0.2,0.2,0.8","0.8,0.2,0.2,0.2,0.8,0.2,0.2,0.2,0.8","1","",""
"","html-keyboard-response","287","3360929","0.0-287.0","3Z2R0DQ0JI0H1RZJL97BT5KUUSKE2Y","A13FUEPWBCLBUY","3PEG1BH7AEDCPKTV9M6N3A4F0EHKBR","","null","<img src=""img/land2.png"" style=""width:200px; border:14px solid green;"">","null","","","","","","","","","",""
"","image-keyboard-response","288","3361511","0.0-288.0","3Z2R0DQ0JI0H1RZJL97BT5KUUSKE2Y","A13FUEPWBCLBUY","3PEG1BH7AEDCPKTV9M6N3A4F0EHKBR","","581.3000000119209","img/land6.png","74","581.8000000119209","1","1","1","2","0.8,0.2,0.2,0.2,0.8,0.2,0.2,0.2,0.8","0.8,0.2,0.2,0.2,0.8,0.2,0.2,0.2,0.8","1","",""
"","html-keyboard-response","289","3361812","0.0-289.0","3Z2R0DQ0JI0H1RZJL97BT5KUUSKE2Y","A13FUEPWBCLBUY","3PEG1BH7AEDCPKTV9M6N3A4F0EHKBR","","null","<img src=""img/land6.png"" style=""width:200px; border:14px solid green;"">","null","","","","","","","","","",""
"","image-keyboard-response","290","3362374","0.0-290.0","3Z2R0DQ0JI0H1RZJL97BT5KUUSKE2Y","A13FUEPWBCLBUY","3PEG1BH7AEDCPKTV9M6N3A4F0EHKBR","","561.1000000238419","img/land1.png","75","561.6000000238419","2","0","2","2","0.8,0.2,0.2,0.2,0.8,0.2,0.2,0.2,0.8","0.8,0.2,0.2,0.2,0.8,0.2,0.2,0.2,0.8","1","",""
"","html-keyboard-response","291","3362675","0.0-291.0","3Z2R0DQ0JI0H1RZJL97BT5KUUSKE2Y","A13FUEPWBCLBUY","3PEG1BH7AEDCPKTV9M6N3A4F0EHKBR","","null","<img src=""img/land1.png"" style=""width:200px;border:14px solid red;"">","null","","","","","","","","","",""
"","image-keyboard-response","292","3363298","0.0-292.0","3Z2R0DQ0JI0H1RZJL97BT5KUUSKE2Y","A13FUEPWBCLBUY","3PEG1BH7AEDCPKTV9M6N3A4F0EHKBR","","622.1999999880791","img/land6.png","74","622.9000000357628","1","1","1","2","0.8,0.2,0.2,0.2,0.8,0.2,0.2,0.2,0.8","0.8,0.2,0.2,0.2,0.8,0.2,0.2,0.2,0.8","1","",""
"","html-keyboard-response","293","3363600","0.0-293.0","3Z2R0DQ0JI0H1RZJL97BT5KUUSKE2Y","A13FUEPWBCLBUY","3PEG1BH7AEDCPKTV9M6N3A4F0EHKBR","","null","<img src=""img/land6.png"" style=""width:200px; border:14px solid green;"">","null","","","","","","","","","",""
"","image-keyboard-response","294","3363921","0.0-294.0","3Z2R0DQ0JI0H1RZJL97BT5KUUSKE2Y","A13FUEPWBCLBUY","3PEG1BH7AEDCPKTV9M6N3A4F0EHKBR","","319.80000001192093","img/land6.png","74","320.39999997615814","1","1","1","2","0.8,0.2,0.2,0.2,0.8,0.2,0.2,0.2,0.8","0.8,0.2,0.2,0.2,0.8,0.2,0.2,0.2,0.8","1","",""
"","html-keyboard-response","295","3364222","0.0-295.0","3Z2R0DQ0JI0H1RZJL97BT5KUUSKE2Y","A13FUEPWBCLBUY","3PEG1BH7AEDCPKTV9M6N3A4F0EHKBR","","null","<img src=""img/land6.png"" style=""width:200px; border:14px solid green;"">","null","","","","","","","","","",""
"","image-keyboard-response","296","3364888","0.0-296.0","3Z2R0DQ0JI0H1RZJL97BT5KUUSKE2Y","A13FUEPWBCLBUY","3PEG1BH7AEDCPKTV9M6N3A4F0EHKBR","","665.3999999761581","img/land2.png","76","665.9000000357628","3","0","3","2","0.8,0.2,0.2,0.2,0.8,0.2,0.2,0.2,0.8","0.8,0.2,0.2,0.2,0.8,0.2,0.2,0.2,0.8","1","",""
"","html-keyboard-response","297","3365190","0.0-297.0","3Z2R0DQ0JI0H1RZJL97BT5KUUSKE2Y","A13FUEPWBCLBUY","3PEG1BH7AEDCPKTV9M6N3A4F0EHKBR","","null","<img src=""img/land2.png"" style=""width:200px;border:14px solid red;"">","null","","","","","","","","","",""
"","image-keyboard-response","298","3365600","0.0-298.0","3Z2R0DQ0JI0H1RZJL97BT5KUUSKE2Y","A13FUEPWBCLBUY","3PEG1BH7AEDCPKTV9M6N3A4F0EHKBR","","409.19999998807907","img/land2.png","74","409.7999999523163","1","0","3","2","0.8,0.2,0.2,0.2,0.8,0.2,0.2,0.2,0.8","0.8,0.2,0.2,0.2,0.8,0.2,0.2,0.2,0.8","1","",""
"","html-keyboard-response","299","3365901","0.0-299.0","3Z2R0DQ0JI0H1RZJL97BT5KUUSKE2Y","A13FUEPWBCLBUY","3PEG1BH7AEDCPKTV9M6N3A4F0EHKBR","","null","<img src=""img/land2.png"" style=""width:200px;border:14px solid red;"">","null","","","","","","","","","",""
"","image-keyboard-response","300","3366624","0.0-300.0","3Z2R0DQ0JI0H1RZJL97BT5KUUSKE2Y","A13FUEPWBCLBUY","3PEG1BH7AEDCPKTV9M6N3A4F0EHKBR","","722","img/land6.png","74","722.6000000238419","1","0","1","2","0.8,0.2,0.2,0.2,0.8,0.2,0.2,0.2,0.8","0.8,0.2,0.2,0.2,0.8,0.2,0.2,0.2,0.8","1","",""
"","html-keyboard-response","301","3366925","0.0-301.0","3Z2R0DQ0JI0H1RZJL97BT5KUUSKE2Y","A13FUEPWBCLBUY","3PEG1BH7AEDCPKTV9M6N3A4F0EHKBR","","null","<img src=""img/land6.png"" style=""width:200px;border:14px solid red;"">","null","","","","","","","","","",""
"","image-keyboard-response","302","3368030","0.0-302.0","3Z2R0DQ0JI0H1RZJL97BT5KUUSKE2Y","A13FUEPWBCLBUY","3PEG1BH7AEDCPKTV9M6N3A4F0EHKBR","","1103.8999999761581","img/land3.png","74","1104.0999999642372","1","1","1","1","0.8,0.2,0.2,0.2,0.8,0.2,0.2,0.2,0.8","0.8,0.2,0.2,0.2,0.8,0.2,0.2,0.2,0.8","1","",""
"","html-keyboard-response","303","3368331","0.0-303.0","3Z2R0DQ0JI0H1RZJL97BT5KUUSKE2Y","A13FUEPWBCLBUY","3PEG1BH7AEDCPKTV9M6N3A4F0EHKBR","","null","<img src=""img/land3.png"" style=""width:200px; border:14px solid green;"">","null","","","","","","","","","",""
"","image-keyboard-response","304","3369071","0.0-304.0","3Z2R0DQ0JI0H1RZJL97BT5KUUSKE2Y","A13FUEPWBCLBUY","3PEG1BH7AEDCPKTV9M6N3A4F0EHKBR","","739.5","img/land4.png","75","739.8000000119209","2","1","3","1","0.8,0.2,0.2,0.2,0.8,0.2,0.2,0.2,0.8","0.8,0.2,0.2,0.2,0.8,0.2,0.2,0.2,0.8","1","",""
"","html-keyboard-response","305","3369372","0.0-305.0","3Z2R0DQ0JI0H1RZJL97BT5KUUSKE2Y","A13FUEPWBCLBUY","3PEG1BH7AEDCPKTV9M6N3A4F0EHKBR","","null","<img src=""img/land4.png"" style=""width:200px; border:14px solid green;"">","null","","","","","","","","","",""
"","image-keyboard-response","306","3370134","0.0-306.0","3Z2R0DQ0JI0H1RZJL97BT5KUUSKE2Y","A13FUEPWBCLBUY","3PEG1BH7AEDCPKTV9M6N3A4F0EHKBR","","760.8000000119209","img/land3.png","74","761.3000000119209","1","1","1","1","0.8,0.2,0.2,0.2,0.8,0.2,0.2,0.2,0.8","0.8,0.2,0.2,0.2,0.8,0.2,0.2,0.2,0.8","1","",""
"","html-keyboard-response","307","3370435","0.0-307.0","3Z2R0DQ0JI0H1RZJL97BT5KUUSKE2Y","A13FUEPWBCLBUY","3PEG1BH7AEDCPKTV9M6N3A4F0EHKBR","","null","<img src=""img/land3.png"" style=""width:200px; border:14px solid green;"">","null","","","","","","","","","",""
"","image-keyboard-response","308","3371185","0.0-308.0","3Z2R0DQ0JI0H1RZJL97BT5KUUSKE2Y","A13FUEPWBCLBUY","3PEG1BH7AEDCPKTV9M6N3A4F0EHKBR","","749.4000000357628","img/land5.png","76","749.8000000119209","3","0","2","1","0.8,0.2,0.2,0.2,0.8,0.2,0.2,0.2,0.8","0.8,0.2,0.2,0.2,0.8,0.2,0.2,0.2,0.8","1","",""
"","html-keyboard-response","309","3371486","0.0-309.0","3Z2R0DQ0JI0H1RZJL97BT5KUUSKE2Y","A13FUEPWBCLBUY","3PEG1BH7AEDCPKTV9M6N3A4F0EHKBR","","null","<img src=""img/land5.png"" style=""width:200px;border:14px solid red;"">","null","","","","","","","","","",""
"","image-keyboard-response","310","3372188","0.0-310.0","3Z2R0DQ0JI0H1RZJL97BT5KUUSKE2Y","A13FUEPWBCLBUY","3PEG1BH7AEDCPKTV9M6N3A4F0EHKBR","","701.8000000119209","img/land3.png","74","702.2000000476837","1","1","1","1","0.8,0.2,0.2,0.2,0.8,0.2,0.2,0.2,0.8","0.8,0.2,0.2,0.2,0.8,0.2,0.2,0.2,0.8","1","",""
"","html-keyboard-response","311","3372490","0.0-311.0","3Z2R0DQ0JI0H1RZJL97BT5KUUSKE2Y","A13FUEPWBCLBUY","3PEG1BH7AEDCPKTV9M6N3A4F0EHKBR","","null","<img src=""img/land3.png"" style=""width:200px; border:14px solid green;"">","null","","","","","","","","","",""
"","image-keyboard-response","312","3373150","0.0-312.0","3Z2R0DQ0JI0H1RZJL97BT5KUUSKE2Y","A13FUEPWBCLBUY","3PEG1BH7AEDCPKTV9M6N3A4F0EHKBR","","659.5","img/land5.png","75","659.8999999761581","2","0","2","1","0.8,0.2,0.2,0.2,0.8,0.2,0.2,0.2,0.8","0.8,0.2,0.2,0.2,0.8,0.2,0.2,0.2,0.8","1","",""
"","html-keyboard-response","313","3373451","0.0-313.0","3Z2R0DQ0JI0H1RZJL97BT5KUUSKE2Y","A13FUEPWBCLBUY","3PEG1BH7AEDCPKTV9M6N3A4F0EHKBR","","null","<img src=""img/land5.png"" style=""width:200px;border:14px solid red;"">","null","","","","","","","","","",""
"","image-keyboard-response","314","3374599","0.0-314.0","3Z2R0DQ0JI0H1RZJL97BT5KUUSKE2Y","A13FUEPWBCLBUY","3PEG1BH7AEDCPKTV9M6N3A4F0EHKBR","","1146.9000000357628","img/land4.png","74","1147.3999999761581","1","0","3","1","0.8,0.2,0.2,0.2,0.8,0.2,0.2,0.2,0.8","0.8,0.2,0.2,0.2,0.8,0.2,0.2,0.2,0.8","1","",""
"","html-keyboard-response","315","3374900","0.0-315.0","3Z2R0DQ0JI0H1RZJL97BT5KUUSKE2Y","A13FUEPWBCLBUY","3PEG1BH7AEDCPKTV9M6N3A4F0EHKBR","","null","<img src=""img/land4.png"" style=""width:200px;border:14px solid red;"">","null","","","","","","","","","",""
"","image-keyboard-response","316","3375668","0.0-316.0","3Z2R0DQ0JI0H1RZJL97BT5KUUSKE2Y","A13FUEPWBCLBUY","3PEG1BH7AEDCPKTV9M6N3A4F0EHKBR","","767.5","img/land4.png","75","767.7999999523163","2","0","3","1","0.8,0.2,0.2,0.2,0.8,0.2,0.2,0.2,0.8","0.8,0.2,0.2,0.2,0.8,0.2,0.2,0.2,0.8","1","",""
"","html-keyboard-response","317","3375969","0.0-317.0","3Z2R0DQ0JI0H1RZJL97BT5KUUSKE2Y","A13FUEPWBCLBUY","3PEG1BH7AEDCPKTV9M6N3A4F0EHKBR","","null","<img src=""img/land4.png"" style=""width:200px;border:14px solid red;"">","null","","","","","","","","","",""
"","image-keyboard-response","318","3376866","0.0-318.0","3Z2R0DQ0JI0H1RZJL97BT5KUUSKE2Y","A13FUEPWBCLBUY","3PEG1BH7AEDCPKTV9M6N3A4F0EHKBR","","895.8999999761581","img/land5.png","74","896.4000000357628","1","0","2","1","0.8,0.2,0.2,0.2,0.8,0.2,0.2,0.2,0.8","0.8,0.2,0.2,0.2,0.8,0.2,0.2,0.2,0.8","1","",""
"","html-keyboard-response","319","3377167","0.0-319.0","3Z2R0DQ0JI0H1RZJL97BT5KUUSKE2Y","A13FUEPWBCLBUY","3PEG1BH7AEDCPKTV9M6N3A4F0EHKBR","","null","<img src=""img/land5.png"" style=""width:200px;border:14px solid red;"">","null","","","","","","","","","",""
"","image-keyboard-response","320","3377658","0.0-320.0","3Z2R0DQ0JI0H1RZJL97BT5KUUSKE2Y","A13FUEPWBCLBUY","3PEG1BH7AEDCPKTV9M6N3A4F0EHKBR","","490.10000002384186","img/land3.png","74","490.5","1","1","1","1","0.8,0.2,0.2,0.2,0.8,0.2,0.2,0.2,0.8","0.8,0.2,0.2,0.2,0.8,0.2,0.2,0.2,0.8","1","",""
"","html-keyboard-response","321","3377960","0.0-321.0","3Z2R0DQ0JI0H1RZJL97BT5KUUSKE2Y","A13FUEPWBCLBUY","3PEG1BH7AEDCPKTV9M6N3A4F0EHKBR","","null","<img src=""img/land3.png"" style=""width:200px; border:14px solid green;"">","null","","","","","","","","","",""
"","image-keyboard-response","322","3378921","0.0-322.0","3Z2R0DQ0JI0H1RZJL97BT5KUUSKE2Y","A13FUEPWBCLBUY","3PEG1BH7AEDCPKTV9M6N3A4F0EHKBR","","960.3000000119209","img/land5.png","76","960.6999999880791","3","0","2","1","0.8,0.2,0.2,0.2,0.8,0.2,0.2,0.2,0.8","0.8,0.2,0.2,0.2,0.8,0.2,0.2,0.2,0.8","1","",""
"","html-keyboard-response","323","3379221","0.0-323.0","3Z2R0DQ0JI0H1RZJL97BT5KUUSKE2Y","A13FUEPWBCLBUY","3PEG1BH7AEDCPKTV9M6N3A4F0EHKBR","","null","<img src=""img/land5.png"" style=""width:200px;border:14px solid red;"">","null","","","","","","","","","",""
"","image-keyboard-response","324","3380085","0.0-324.0","3Z2R0DQ0JI0H1RZJL97BT5KUUSKE2Y","A13FUEPWBCLBUY","3PEG1BH7AEDCPKTV9M6N3A4F0EHKBR","","862.3999999761581","img/land3.png","74","863","1","1","1","1","0.8,0.2,0.2,0.2,0.8,0.2,0.2,0.2,0.8","0.8,0.2,0.2,0.2,0.8,0.2,0.2,0.2,0.8","1","",""
"","html-keyboard-response","325","3380398","0.0-325.0","3Z2R0DQ0JI0H1RZJL97BT5KUUSKE2Y","A13FUEPWBCLBUY","3PEG1BH7AEDCPKTV9M6N3A4F0EHKBR","","null","<img src=""img/land3.png"" style=""width:200px; border:14px solid green;"">","null","","","","","","","","","",""
"","image-keyboard-response","326","3381116","0.0-326.0","3Z2R0DQ0JI0H1RZJL97BT5KUUSKE2Y","A13FUEPWBCLBUY","3PEG1BH7AEDCPKTV9M6N3A4F0EHKBR","","717","img/land5.png","75","717.7000000476837","2","0","2","1","0.8,0.2,0.2,0.2,0.8,0.2,0.2,0.2,0.8","0.8,0.2,0.2,0.2,0.8,0.2,0.2,0.2,0.8","1","",""
"","html-keyboard-response","327","3381417","0.0-327.0","3Z2R0DQ0JI0H1RZJL97BT5KUUSKE2Y","A13FUEPWBCLBUY","3PEG1BH7AEDCPKTV9M6N3A4F0EHKBR","","null","<img src=""img/land5.png"" style=""width:200px;border:14px solid red;"">","null","","","","","","","","","",""
"","image-keyboard-response","328","3382321","0.0-328.0","3Z2R0DQ0JI0H1RZJL97BT5KUUSKE2Y","A13FUEPWBCLBUY","3PEG1BH7AEDCPKTV9M6N3A4F0EHKBR","","903.1999999880791","img/land4.png","74","903.8000000119209","1","0","3","1","0.8,0.2,0.2,0.2,0.8,0.2,0.2,0.2,0.8","0.8,0.2,0.2,0.2,0.8,0.2,0.2,0.2,0.8","1","",""
"","html-keyboard-response","329","3382623","0.0-329.0","3Z2R0DQ0JI0H1RZJL97BT5KUUSKE2Y","A13FUEPWBCLBUY","3PEG1BH7AEDCPKTV9M6N3A4F0EHKBR","","null","<img src=""img/land4.png"" style=""width:200px;border:14px solid red;"">","null","","","","","","","","","",""
"","image-keyboard-response","330","3383552","0.0-330.0","3Z2R0DQ0JI0H1RZJL97BT5KUUSKE2Y","A13FUEPWBCLBUY","3PEG1BH7AEDCPKTV9M6N3A4F0EHKBR","","928.3000000119209","img/land5.png","74","928.7999999523163","1","0","2","1","0.8,0.2,0.2,0.2,0.8,0.2,0.2,0.2,0.8","0.8,0.2,0.2,0.2,0.8,0.2,0.2,0.2,0.8","1","",""
"","html-keyboard-response","331","3383853","0.0-331.0","3Z2R0DQ0JI0H1RZJL97BT5KUUSKE2Y","A13FUEPWBCLBUY","3PEG1BH7AEDCPKTV9M6N3A4F0EHKBR","","null","<img src=""img/land5.png"" style=""width:200px;border:14px solid red;"">","null","","","","","","","","","",""
"","image-keyboard-response","332","3384598","0.0-332.0","3Z2R0DQ0JI0H1RZJL97BT5KUUSKE2Y","A13FUEPWBCLBUY","3PEG1BH7AEDCPKTV9M6N3A4F0EHKBR","","744.1000000238419","img/land5.png","76","744.6999999880791","3","1","2","1","0.8,0.2,0.2,0.2,0.8,0.2,0.2,0.2,0.8","0.8,0.2,0.2,0.2,0.8,0.2,0.2,0.2,0.8","1","",""
"","html-keyboard-response","333","3384900","0.0-333.0","3Z2R0DQ0JI0H1RZJL97BT5KUUSKE2Y","A13FUEPWBCLBUY","3PEG1BH7AEDCPKTV9M6N3A4F0EHKBR","","null","<img src=""img/land5.png"" style=""width:200px; border:14px solid green;"">","null","","","","","","","","","",""
"","image-keyboard-response","334","3385591","0.0-334.0","3Z2R0DQ0JI0H1RZJL97BT5KUUSKE2Y","A13FUEPWBCLBUY","3PEG1BH7AEDCPKTV9M6N3A4F0EHKBR","","690.4000000357628","img/land3.png","74","691.1000000238419","1","1","1","1","0.8,0.2,0.2,0.2,0.8,0.2,0.2,0.2,0.8","0.8,0.2,0.2,0.2,0.8,0.2,0.2,0.2,0.8","1","",""
"","html-keyboard-response","335","3385892","0.0-335.0","3Z2R0DQ0JI0H1RZJL97BT5KUUSKE2Y","A13FUEPWBCLBUY","3PEG1BH7AEDCPKTV9M6N3A4F0EHKBR","","null","<img src=""img/land3.png"" style=""width:200px; border:14px solid green;"">","null","","","","","","","","","",""
"","image-keyboard-response","336","3386511","0.0-336.0","3Z2R0DQ0JI0H1RZJL97BT5KUUSKE2Y","A13FUEPWBCLBUY","3PEG1BH7AEDCPKTV9M6N3A4F0EHKBR","","618.8000000119209","img/land4.png","75","619.1999999880791","2","0","3","1","0.8,0.2,0.2,0.2,0.8,0.2,0.2,0.2,0.8","0.8,0.2,0.2,0.2,0.8,0.2,0.2,0.2,0.8","1","",""
"","html-keyboard-response","337","3386813","0.0-337.0","3Z2R0DQ0JI0H1RZJL97BT5KUUSKE2Y","A13FUEPWBCLBUY","3PEG1BH7AEDCPKTV9M6N3A4F0EHKBR","","null","<img src=""img/land4.png"" style=""width:200px;border:14px solid red;"">","null","","","","","","","","","",""
"","image-keyboard-response","338","3387475","0.0-338.0","3Z2R0DQ0JI0H1RZJL97BT5KUUSKE2Y","A13FUEPWBCLBUY","3PEG1BH7AEDCPKTV9M6N3A4F0EHKBR","","662.1999999880791","img/land5.png","74","662.6000000238419","1","0","2","1","0.8,0.2,0.2,0.2,0.8,0.2,0.2,0.2,0.8","0.8,0.2,0.2,0.2,0.8,0.2,0.2,0.2,0.8","1","",""
"","html-keyboard-response","339","3387777","0.0-339.0","3Z2R0DQ0JI0H1RZJL97BT5KUUSKE2Y","A13FUEPWBCLBUY","3PEG1BH7AEDCPKTV9M6N3A4F0EHKBR","","null","<img src=""img/land5.png"" style=""width:200px;border:14px solid red;"">","null","","","","","","","","","",""
"","image-keyboard-response","340","3388240","0.0-340.0","3Z2R0DQ0JI0H1RZJL97BT5KUUSKE2Y","A13FUEPWBCLBUY","3PEG1BH7AEDCPKTV9M6N3A4F0EHKBR","","462.10000002384186","img/land3.png","74","462.5999999642372","1","0","1","1","0.8,0.2,0.2,0.2,0.8,0.2,0.2,0.2,0.8","0.8,0.2,0.2,0.2,0.8,0.2,0.2,0.2,0.8","1","",""
"","html-keyboard-response","341","3388544","0.0-341.0","3Z2R0DQ0JI0H1RZJL97BT5KUUSKE2Y","A13FUEPWBCLBUY","3PEG1BH7AEDCPKTV9M6N3A4F0EHKBR","","null","<img src=""img/land3.png"" style=""width:200px;border:14px solid red;"">","null","","","","","","","","","",""
"","image-keyboard-response","342","3388894","0.0-342.0","3Z2R0DQ0JI0H1RZJL97BT5KUUSKE2Y","A13FUEPWBCLBUY","3PEG1BH7AEDCPKTV9M6N3A4F0EHKBR","","349.5999999642372","img/land3.png","74","350.10000002384186","1","1","1","1","0.8,0.2,0.2,0.2,0.8,0.2,0.2,0.2,0.8","0.8,0.2,0.2,0.2,0.8,0.2,0.2,0.2,0.8","1","",""
"","html-keyboard-response","343","3389196","0.0-343.0","3Z2R0DQ0JI0H1RZJL97BT5KUUSKE2Y","A13FUEPWBCLBUY","3PEG1BH7AEDCPKTV9M6N3A4F0EHKBR","","null","<img src=""img/land3.png"" style=""width:200px; border:14px solid green;"">","null","","","","","","","","","",""
"","image-keyboard-response","344","3389638","0.0-344.0","3Z2R0DQ0JI0H1RZJL97BT5KUUSKE2Y","A13FUEPWBCLBUY","3PEG1BH7AEDCPKTV9M6N3A4F0EHKBR","","441.39999997615814","img/land3.png","74","441.89999997615814","1","0","1","1","0.8,0.2,0.2,0.2,0.8,0.2,0.2,0.2,0.8","0.8,0.2,0.2,0.2,0.8,0.2,0.2,0.2,0.8","1","",""
"","html-keyboard-response","345","3389939","0.0-345.0","3Z2R0DQ0JI0H1RZJL97BT5KUUSKE2Y","A13FUEPWBCLBUY","3PEG1BH7AEDCPKTV9M6N3A4F0EHKBR","","null","<img src=""img/land3.png"" style=""width:200px;border:14px solid red;"">","null","","","","","","","","","",""
"","image-keyboard-response","346","3390562","0.0-346.0","3Z2R0DQ0JI0H1RZJL97BT5KUUSKE2Y","A13FUEPWBCLBUY","3PEG1BH7AEDCPKTV9M6N3A4F0EHKBR","","622.1999999880791","img/land5.png","76","622.8000000119209","3","0","2","1","0.8,0.2,0.2,0.2,0.8,0.2,0.2,0.2,0.8","0.8,0.2,0.2,0.2,0.8,0.2,0.2,0.2,0.8","1","",""
"","html-keyboard-response","347","3390864","0.0-347.0","3Z2R0DQ0JI0H1RZJL97BT5KUUSKE2Y","A13FUEPWBCLBUY","3PEG1BH7AEDCPKTV9M6N3A4F0EHKBR","","null","<img src=""img/land5.png"" style=""width:200px;border:14px solid red;"">","null","","","","","","","","","",""
"","image-keyboard-response","348","3391556","0.0-348.0","3Z2R0DQ0JI0H1RZJL97BT5KUUSKE2Y","A13FUEPWBCLBUY","3PEG1BH7AEDCPKTV9M6N3A4F0EHKBR","","691.5","img/land3.png","74","692.1000000238419","1","0","1","1","0.8,0.2,0.2,0.2,0.8,0.2,0.2,0.2,0.8","0.8,0.2,0.2,0.2,0.8,0.2,0.2,0.2,0.8","1","",""
"","html-keyboard-response","349","3391858","0.0-349.0","3Z2R0DQ0JI0H1RZJL97BT5KUUSKE2Y","A13FUEPWBCLBUY","3PEG1BH7AEDCPKTV9M6N3A4F0EHKBR","","null","<img src=""img/land3.png"" style=""width:200px;border:14px solid red;"">","null","","","","","","","","","",""
"","image-keyboard-response","350","3392678","0.0-350.0","3Z2R0DQ0JI0H1RZJL97BT5KUUSKE2Y","A13FUEPWBCLBUY","3PEG1BH7AEDCPKTV9M6N3A4F0EHKBR","","819.8999999761581","img/land5.png","75","820.3000000119209","2","0","2","1","0.8,0.2,0.2,0.2,0.8,0.2,0.2,0.2,0.8","0.8,0.2,0.2,0.2,0.8,0.2,0.2,0.2,0.8","1","",""
"","html-keyboard-response","351","3392980","0.0-351.0","3Z2R0DQ0JI0H1RZJL97BT5KUUSKE2Y","A13FUEPWBCLBUY","3PEG1BH7AEDCPKTV9M6N3A4F0EHKBR","","null","<img src=""img/land5.png"" style=""width:200px;border:14px solid red;"">","null","","","","","","","","","",""
"","image-keyboard-response","352","3393743","0.0-352.0","3Z2R0DQ0JI0H1RZJL97BT5KUUSKE2Y","A13FUEPWBCLBUY","3PEG1BH7AEDCPKTV9M6N3A4F0EHKBR","","762.1999999880791","img/land5.png","76","762.6999999880791","3","0","2","1","0.8,0.2,0.2,0.2,0.8,0.2,0.2,0.2,0.8","0.8,0.2,0.2,0.2,0.8,0.2,0.2,0.2,0.8","1","",""
