"success","trial_type","trial_index","time_elapsed","internal_node_id","assignmentID","mturkID","hitID","view_history","rt","stimulus","key_press","reactionTime","a","r","s","reward_cond","responses","question_order"
"true","fullscreen","0","2581","0.0-0.0","3ERMJ6L4DZEMZGO28JCP246BCVG7MJ","A13MAWPV4T44I2","3T5ZXGO9DEAUILU6S56NLENRQJRQZJ","","","","","","","","","","",""
"","instructions","1","13076","0.0-1.0","3ERMJ6L4DZEMZGO28JCP246BCVG7MJ","A13MAWPV4T44I2","3T5ZXGO9DEAUILU6S56NLENRQJRQZJ","[{""page_index"":0,""viewing_time"":1277.7000000476837},{""page_index"":1,""viewing_time"":1333.9000000953674},{""page_index"":2,""viewing_time"":839.5999999046326},{""page_index"":3,""viewing_time"":1369.0999999046326},{""page_index"":4,""viewing_time"":2694.600000143051},{""page_index"":5,""viewing_time"":1704.7999999523163},{""page_index"":6,""viewing_time"":1272}]","10493.100000143051","","","","","","","","",""
"","image-keyboard-response","2","14506","0.0-2.0","3ERMJ6L4DZEMZGO28JCP246BCVG7MJ","A13MAWPV4T44I2","3T5ZXGO9DEAUILU6S56NLENRQJRQZJ","","1427.5","img/land2.png","74","1429.3999998569489","1","1","2","1,0.5,0.5,0.5,1,0.5,0.5,0.5,1","",""
"","html-keyboard-response","3","14809","0.0-3.0","3ERMJ6L4DZEMZGO28JCP246BCVG7MJ","A13MAWPV4T44I2","3T5ZXGO9DEAUILU6S56NLENRQJRQZJ","","null","<img src=""img/land2.png"" style=""width:200px; border:14px solid green;"">","null","","","","","","",""
"","image-keyboard-response","4","15425","0.0-4.0","3ERMJ6L4DZEMZGO28JCP246BCVG7MJ","A13MAWPV4T44I2","3T5ZXGO9DEAUILU6S56NLENRQJRQZJ","","613.5999999046326","img/land3.png","74","615.1000001430511","1","0","3","1,0.5,0.5,0.5,1,0.5,0.5,0.5,1","",""
"","html-keyboard-response","5","15727","0.0-5.0","3ERMJ6L4DZEMZGO28JCP246BCVG7MJ","A13MAWPV4T44I2","3T5ZXGO9DEAUILU6S56NLENRQJRQZJ","","null","<img src=""img/land3.png"" style=""width:200px;border:14px solid red;"">","null","","","","","","",""
"","image-keyboard-response","6","16734","0.0-6.0","3ERMJ6L4DZEMZGO28JCP246BCVG7MJ","A13MAWPV4T44I2","3T5ZXGO9DEAUILU6S56NLENRQJRQZJ","","1005","img/land3.png","75","1006.3999998569489","2","0","3","1,0.5,0.5,0.5,1,0.5,0.5,0.5,1","",""
"","html-keyboard-response","7","17037","0.0-7.0","3ERMJ6L4DZEMZGO28JCP246BCVG7MJ","A13MAWPV4T44I2","3T5ZXGO9DEAUILU6S56NLENRQJRQZJ","","null","<img src=""img/land3.png"" style=""width:200px;border:14px solid red;"">","null","","","","","","",""
"","image-keyboard-response","8","17818","0.0-8.0","3ERMJ6L4DZEMZGO28JCP246BCVG7MJ","A13MAWPV4T44I2","3T5ZXGO9DEAUILU6S56NLENRQJRQZJ","","778.7999999523163","img/land3.png","76","780.0999999046326","3","1","3","1,0.5,0.5,0.5,1,0.5,0.5,0.5,1","",""
"","html-keyboard-response","9","18121","0.0-9.0","3ERMJ6L4DZEMZGO28JCP246BCVG7MJ","A13MAWPV4T44I2","3T5ZXGO9DEAUILU6S56NLENRQJRQZJ","","null","<img src=""img/land3.png"" style=""width:200px; border:14px solid green;"">","null","","","","","","",""
"","image-keyboard-response","10","18811","0.0-10.0","3ERMJ6L4DZEMZGO28JCP246BCVG7MJ","A13MAWPV4T44I2","3T5ZXGO9DEAUILU6S56NLENRQJRQZJ","","687.9000000953674","img/land1.png","76","689.5999999046326","3","1","1","1,0.5,0.5,0.5,1,0.5,0.5,0.5,1","",""
"","html-keyboard-response","11","19114","0.0-11.0","3ERMJ6L4DZEMZGO28JCP246BCVG7MJ","A13MAWPV4T44I2","3T5ZXGO9DEAUILU6S56NLENRQJRQZJ","","null","<img src=""img/land1.png"" style=""width:200px; border:14px solid green;"">","null","","","","","","",""
"","image-keyboard-response","12","20178","0.0-12.0","3ERMJ6L4DZEMZGO28JCP246BCVG7MJ","A13MAWPV4T44I2","3T5ZXGO9DEAUILU6S56NLENRQJRQZJ","","1061.9000000953674","img/land1.png","76","1063.0999999046326","3","1","1","1,0.5,0.5,0.5,1,0.5,0.5,0.5,1","",""
"","html-keyboard-response","13","20480","0.0-13.0","3ERMJ6L4DZEMZGO28JCP246BCVG7MJ","A13MAWPV4T44I2","3T5ZXGO9DEAUILU6S56NLENRQJRQZJ","","null","<img src=""img/land1.png"" style=""width:200px; border:14px solid green;"">","null","","","","","","",""
"","image-keyboard-response","14","21561","0.0-14.0","3ERMJ6L4DZEMZGO28JCP246BCVG7MJ","A13MAWPV4T44I2","3T5ZXGO9DEAUILU6S56NLENRQJRQZJ","","1080","img/land3.png","76","1081","3","1","3","1,0.5,0.5,0.5,1,0.5,0.5,0.5,1","",""
"","html-keyboard-response","15","21864","0.0-15.0","3ERMJ6L4DZEMZGO28JCP246BCVG7MJ","A13MAWPV4T44I2","3T5ZXGO9DEAUILU6S56NLENRQJRQZJ","","null","<img src=""img/land3.png"" style=""width:200px; border:14px solid green;"">","null","","","","","","",""
"","image-keyboard-response","16","23074","0.0-16.0","3ERMJ6L4DZEMZGO28JCP246BCVG7MJ","A13MAWPV4T44I2","3T5ZXGO9DEAUILU6S56NLENRQJRQZJ","","1208.7000000476837","img/land2.png","74","1210.1000001430511","1","1","2","1,0.5,0.5,0.5,1,0.5,0.5,0.5,1","",""
"","html-keyboard-response","17","23377","0.0-17.0","3ERMJ6L4DZEMZGO28JCP246BCVG7MJ","A13MAWPV4T44I2","3T5ZXGO9DEAUILU6S56NLENRQJRQZJ","","null","<img src=""img/land2.png"" style=""width:200px; border:14px solid green;"">","null","","","","","","",""
"","image-keyboard-response","18","24338","0.0-18.0","3ERMJ6L4DZEMZGO28JCP246BCVG7MJ","A13MAWPV4T44I2","3T5ZXGO9DEAUILU6S56NLENRQJRQZJ","","959.8999998569489","img/land2.png","74","960.7999999523163","1","1","2","1,0.5,0.5,0.5,1,0.5,0.5,0.5,1","",""
"","html-keyboard-response","19","24640","0.0-19.0","3ERMJ6L4DZEMZGO28JCP246BCVG7MJ","A13MAWPV4T44I2","3T5ZXGO9DEAUILU6S56NLENRQJRQZJ","","null","<img src=""img/land2.png"" style=""width:200px; border:14px solid green;"">","null","","","","","","",""
"","image-keyboard-response","20","26089","0.0-20.0","3ERMJ6L4DZEMZGO28JCP246BCVG7MJ","A13MAWPV4T44I2","3T5ZXGO9DEAUILU6S56NLENRQJRQZJ","","1447.7999999523163","img/land1.png","75","1448.7000000476837","2","0","1","1,0.5,0.5,0.5,1,0.5,0.5,0.5,1","",""
"","html-keyboard-response","21","26392","0.0-21.0","3ERMJ6L4DZEMZGO28JCP246BCVG7MJ","A13MAWPV4T44I2","3T5ZXGO9DEAUILU6S56NLENRQJRQZJ","","null","<img src=""img/land1.png"" style=""width:200px;border:14px solid red;"">","null","","","","","","",""
"","image-keyboard-response","22","27715","0.0-22.0","3ERMJ6L4DZEMZGO28JCP246BCVG7MJ","A13MAWPV4T44I2","3T5ZXGO9DEAUILU6S56NLENRQJRQZJ","","1321.5","img/land3.png","76","1322.5999999046326","3","1","3","1,0.5,0.5,0.5,1,0.5,0.5,0.5,1","",""
"","html-keyboard-response","23","28018","0.0-23.0","3ERMJ6L4DZEMZGO28JCP246BCVG7MJ","A13MAWPV4T44I2","3T5ZXGO9DEAUILU6S56NLENRQJRQZJ","","null","<img src=""img/land3.png"" style=""width:200px; border:14px solid green;"">","null","","","","","","",""
"","image-keyboard-response","24","29098","0.0-24.0","3ERMJ6L4DZEMZGO28JCP246BCVG7MJ","A13MAWPV4T44I2","3T5ZXGO9DEAUILU6S56NLENRQJRQZJ","","1078.9000000953674","img/land1.png","74","1080","1","1","1","1,0.5,0.5,0.5,1,0.5,0.5,0.5,1","",""
"","html-keyboard-response","25","29402","0.0-25.0","3ERMJ6L4DZEMZGO28JCP246BCVG7MJ","A13MAWPV4T44I2","3T5ZXGO9DEAUILU6S56NLENRQJRQZJ","","null","<img src=""img/land1.png"" style=""width:200px; border:14px solid green;"">","null","","","","","","",""
"","image-keyboard-response","26","30530","0.0-26.0","3ERMJ6L4DZEMZGO28JCP246BCVG7MJ","A13MAWPV4T44I2","3T5ZXGO9DEAUILU6S56NLENRQJRQZJ","","1127.1000001430511","img/land2.png","74","1128.7999999523163","1","0","2","1,0.5,0.5,0.5,1,0.5,0.5,0.5,1","",""
"","html-keyboard-response","27","30834","0.0-27.0","3ERMJ6L4DZEMZGO28JCP246BCVG7MJ","A13MAWPV4T44I2","3T5ZXGO9DEAUILU6S56NLENRQJRQZJ","","null","<img src=""img/land2.png"" style=""width:200px;border:14px solid red;"">","null","","","","","","",""
"","image-keyboard-response","28","32988","0.0-28.0","3ERMJ6L4DZEMZGO28JCP246BCVG7MJ","A13MAWPV4T44I2","3T5ZXGO9DEAUILU6S56NLENRQJRQZJ","","2152.5","img/land2.png","76","2154","3","0","2","1,0.5,0.5,0.5,1,0.5,0.5,0.5,1","",""
"","html-keyboard-response","29","33293","0.0-29.0","3ERMJ6L4DZEMZGO28JCP246BCVG7MJ","A13MAWPV4T44I2","3T5ZXGO9DEAUILU6S56NLENRQJRQZJ","","null","<img src=""img/land2.png"" style=""width:200px;border:14px solid red;"">","null","","","","","","",""
"","image-keyboard-response","30","34595","0.0-30.0","3ERMJ6L4DZEMZGO28JCP246BCVG7MJ","A13MAWPV4T44I2","3T5ZXGO9DEAUILU6S56NLENRQJRQZJ","","1299.3999998569489","img/land3.png","76","1301.3000001907349","3","1","3","1,0.5,0.5,0.5,1,0.5,0.5,0.5,1","",""
"","html-keyboard-response","31","34899","0.0-31.0","3ERMJ6L4DZEMZGO28JCP246BCVG7MJ","A13MAWPV4T44I2","3T5ZXGO9DEAUILU6S56NLENRQJRQZJ","","null","<img src=""img/land3.png"" style=""width:200px; border:14px solid green;"">","null","","","","","","",""
"","image-keyboard-response","32","35732","0.0-32.0","3ERMJ6L4DZEMZGO28JCP246BCVG7MJ","A13MAWPV4T44I2","3T5ZXGO9DEAUILU6S56NLENRQJRQZJ","","831.5","img/land3.png","76","832.8999998569489","3","1","3","1,0.5,0.5,0.5,1,0.5,0.5,0.5,1","",""
"","html-keyboard-response","33","36035","0.0-33.0","3ERMJ6L4DZEMZGO28JCP246BCVG7MJ","A13MAWPV4T44I2","3T5ZXGO9DEAUILU6S56NLENRQJRQZJ","","null","<img src=""img/land3.png"" style=""width:200px; border:14px solid green;"">","null","","","","","","",""
"","image-keyboard-response","34","37404","0.0-34.0","3ERMJ6L4DZEMZGO28JCP246BCVG7MJ","A13MAWPV4T44I2","3T5ZXGO9DEAUILU6S56NLENRQJRQZJ","","1366.2999999523163","img/land2.png","76","1368.0999999046326","3","0","2","1,0.5,0.5,0.5,1,0.5,0.5,0.5,1","",""
"","html-keyboard-response","35","37707","0.0-35.0","3ERMJ6L4DZEMZGO28JCP246BCVG7MJ","A13MAWPV4T44I2","3T5ZXGO9DEAUILU6S56NLENRQJRQZJ","","null","<img src=""img/land2.png"" style=""width:200px;border:14px solid red;"">","null","","","","","","",""
"","image-keyboard-response","36","38748","0.0-36.0","3ERMJ6L4DZEMZGO28JCP246BCVG7MJ","A13MAWPV4T44I2","3T5ZXGO9DEAUILU6S56NLENRQJRQZJ","","1038.7999999523163","img/land1.png","75","1040.5","2","1","1","1,0.5,0.5,0.5,1,0.5,0.5,0.5,1","",""
"","html-keyboard-response","37","39051","0.0-37.0","3ERMJ6L4DZEMZGO28JCP246BCVG7MJ","A13MAWPV4T44I2","3T5ZXGO9DEAUILU6S56NLENRQJRQZJ","","null","<img src=""img/land1.png"" style=""width:200px; border:14px solid green;"">","null","","","","","","",""
"","image-keyboard-response","38","40132","0.0-38.0","3ERMJ6L4DZEMZGO28JCP246BCVG7MJ","A13MAWPV4T44I2","3T5ZXGO9DEAUILU6S56NLENRQJRQZJ","","1079.2999999523163","img/land3.png","76","1080.5","3","1","3","1,0.5,0.5,0.5,1,0.5,0.5,0.5,1","",""
"","html-keyboard-response","39","40435","0.0-39.0","3ERMJ6L4DZEMZGO28JCP246BCVG7MJ","A13MAWPV4T44I2","3T5ZXGO9DEAUILU6S56NLENRQJRQZJ","","null","<img src=""img/land3.png"" style=""width:200px; border:14px solid green;"">","null","","","","","","",""
"","image-keyboard-response","40","41203","0.0-40.0","3ERMJ6L4DZEMZGO28JCP246BCVG7MJ","A13MAWPV4T44I2","3T5ZXGO9DEAUILU6S56NLENRQJRQZJ","","767.8999998569489","img/land3.png","76","768.6000001430511","3","1","3","1,0.5,0.5,0.5,1,0.5,0.5,0.5,1","",""
"","html-keyboard-response","41","41506","0.0-41.0","3ERMJ6L4DZEMZGO28JCP246BCVG7MJ","A13MAWPV4T44I2","3T5ZXGO9DEAUILU6S56NLENRQJRQZJ","","null","<img src=""img/land3.png"" style=""width:200px; border:14px solid green;"">","null","","","","","","",""
"","image-keyboard-response","42","42267","0.0-42.0","3ERMJ6L4DZEMZGO28JCP246BCVG7MJ","A13MAWPV4T44I2","3T5ZXGO9DEAUILU6S56NLENRQJRQZJ","","759.2000000476837","img/land3.png","76","760.2000000476837","3","1","3","1,0.5,0.5,0.5,1,0.5,0.5,0.5,1","",""
"","html-keyboard-response","43","42570","0.0-43.0","3ERMJ6L4DZEMZGO28JCP246BCVG7MJ","A13MAWPV4T44I2","3T5ZXGO9DEAUILU6S56NLENRQJRQZJ","","null","<img src=""img/land3.png"" style=""width:200px; border:14px solid green;"">","null","","","","","","",""
"","image-keyboard-response","44","43307","0.0-44.0","3ERMJ6L4DZEMZGO28JCP246BCVG7MJ","A13MAWPV4T44I2","3T5ZXGO9DEAUILU6S56NLENRQJRQZJ","","735.2999999523163","img/land3.png","76","736","3","1","3","1,0.5,0.5,0.5,1,0.5,0.5,0.5,1","",""
"","html-keyboard-response","45","43609","0.0-45.0","3ERMJ6L4DZEMZGO28JCP246BCVG7MJ","A13MAWPV4T44I2","3T5ZXGO9DEAUILU6S56NLENRQJRQZJ","","null","<img src=""img/land3.png"" style=""width:200px; border:14px solid green;"">","null","","","","","","",""
"","image-keyboard-response","46","44291","0.0-46.0","3ERMJ6L4DZEMZGO28JCP246BCVG7MJ","A13MAWPV4T44I2","3T5ZXGO9DEAUILU6S56NLENRQJRQZJ","","680.5","img/land3.png","76","681.5","3","1","3","1,0.5,0.5,0.5,1,0.5,0.5,0.5,1","",""
"","html-keyboard-response","47","44593","0.0-47.0","3ERMJ6L4DZEMZGO28JCP246BCVG7MJ","A13MAWPV4T44I2","3T5ZXGO9DEAUILU6S56NLENRQJRQZJ","","null","<img src=""img/land3.png"" style=""width:200px; border:14px solid green;"">","null","","","","","","",""
"","image-keyboard-response","48","45340","0.0-48.0","3ERMJ6L4DZEMZGO28JCP246BCVG7MJ","A13MAWPV4T44I2","3T5ZXGO9DEAUILU6S56NLENRQJRQZJ","","744.7000000476837","img/land3.png","76","746.2000000476837","3","1","3","1,0.5,0.5,0.5,1,0.5,0.5,0.5,1","",""
"","html-keyboard-response","49","45641","0.0-49.0","3ERMJ6L4DZEMZGO28JCP246BCVG7MJ","A13MAWPV4T44I2","3T5ZXGO9DEAUILU6S56NLENRQJRQZJ","","null","<img src=""img/land3.png"" style=""width:200px; border:14px solid green;"">","null","","","","","","",""
"","image-keyboard-response","50","46971","0.0-50.0","3ERMJ6L4DZEMZGO28JCP246BCVG7MJ","A13MAWPV4T44I2","3T5ZXGO9DEAUILU6S56NLENRQJRQZJ","","1328.9000000953674","img/land1.png","75","1330","2","1","1","1,0.5,0.5,0.5,1,0.5,0.5,0.5,1","",""
"","html-keyboard-response","51","47275","0.0-51.0","3ERMJ6L4DZEMZGO28JCP246BCVG7MJ","A13MAWPV4T44I2","3T5ZXGO9DEAUILU6S56NLENRQJRQZJ","","null","<img src=""img/land1.png"" style=""width:200px; border:14px solid green;"">","null","","","","","","",""
"","image-keyboard-response","52","48139","0.0-52.0","3ERMJ6L4DZEMZGO28JCP246BCVG7MJ","A13MAWPV4T44I2","3T5ZXGO9DEAUILU6S56NLENRQJRQZJ","","863.7999999523163","img/land1.png","75","864.7000000476837","2","1","1","1,0.5,0.5,0.5,1,0.5,0.5,0.5,1","",""
"","html-keyboard-response","53","48442","0.0-53.0","3ERMJ6L4DZEMZGO28JCP246BCVG7MJ","A13MAWPV4T44I2","3T5ZXGO9DEAUILU6S56NLENRQJRQZJ","","null","<img src=""img/land1.png"" style=""width:200px; border:14px solid green;"">","null","","","","","","",""
"","image-keyboard-response","54","50363","0.0-54.0","3ERMJ6L4DZEMZGO28JCP246BCVG7MJ","A13MAWPV4T44I2","3T5ZXGO9DEAUILU6S56NLENRQJRQZJ","","1919.5","img/land2.png","75","1920.6999998092651","2","1","2","1,0.5,0.5,0.5,1,0.5,0.5,0.5,1","",""
"","html-keyboard-response","55","50665","0.0-55.0","3ERMJ6L4DZEMZGO28JCP246BCVG7MJ","A13MAWPV4T44I2","3T5ZXGO9DEAUILU6S56NLENRQJRQZJ","","null","<img src=""img/land2.png"" style=""width:200px; border:14px solid green;"">","null","","","","","","",""
"","image-keyboard-response","56","51403","0.0-56.0","3ERMJ6L4DZEMZGO28JCP246BCVG7MJ","A13MAWPV4T44I2","3T5ZXGO9DEAUILU6S56NLENRQJRQZJ","","735.7999999523163","img/land2.png","75","736.9000000953674","2","1","2","1,0.5,0.5,0.5,1,0.5,0.5,0.5,1","",""
"","html-keyboard-response","57","51705","0.0-57.0","3ERMJ6L4DZEMZGO28JCP246BCVG7MJ","A13MAWPV4T44I2","3T5ZXGO9DEAUILU6S56NLENRQJRQZJ","","null","<img src=""img/land2.png"" style=""width:200px; border:14px solid green;"">","null","","","","","","",""
"","image-keyboard-response","58","52708","0.0-58.0","3ERMJ6L4DZEMZGO28JCP246BCVG7MJ","A13MAWPV4T44I2","3T5ZXGO9DEAUILU6S56NLENRQJRQZJ","","1001.7000000476837","img/land3.png","76","1002.8999998569489","3","1","3","1,0.5,0.5,0.5,1,0.5,0.5,0.5,1","",""
"","html-keyboard-response","59","53012","0.0-59.0","3ERMJ6L4DZEMZGO28JCP246BCVG7MJ","A13MAWPV4T44I2","3T5ZXGO9DEAUILU6S56NLENRQJRQZJ","","null","<img src=""img/land3.png"" style=""width:200px; border:14px solid green;"">","null","","","","","","",""
"","image-keyboard-response","60","53828","0.0-60.0","3ERMJ6L4DZEMZGO28JCP246BCVG7MJ","A13MAWPV4T44I2","3T5ZXGO9DEAUILU6S56NLENRQJRQZJ","","814.7000000476837","img/land3.png","76","815.9000000953674","3","1","3","1,0.5,0.5,0.5,1,0.5,0.5,0.5,1","",""
"","html-keyboard-response","61","54131","0.0-61.0","3ERMJ6L4DZEMZGO28JCP246BCVG7MJ","A13MAWPV4T44I2","3T5ZXGO9DEAUILU6S56NLENRQJRQZJ","","null","<img src=""img/land3.png"" style=""width:200px; border:14px solid green;"">","null","","","","","","",""
"","image-keyboard-response","62","54827","0.0-62.0","3ERMJ6L4DZEMZGO28JCP246BCVG7MJ","A13MAWPV4T44I2","3T5ZXGO9DEAUILU6S56NLENRQJRQZJ","","694","img/land3.png","76","695.7000000476837","3","1","3","1,0.5,0.5,0.5,1,0.5,0.5,0.5,1","",""
"","html-keyboard-response","63","55131","0.0-63.0","3ERMJ6L4DZEMZGO28JCP246BCVG7MJ","A13MAWPV4T44I2","3T5ZXGO9DEAUILU6S56NLENRQJRQZJ","","null","<img src=""img/land3.png"" style=""width:200px; border:14px solid green;"">","null","","","","","","",""
"","image-keyboard-response","64","55827","0.0-64.0","3ERMJ6L4DZEMZGO28JCP246BCVG7MJ","A13MAWPV4T44I2","3T5ZXGO9DEAUILU6S56NLENRQJRQZJ","","694.7000000476837","img/land3.png","76","696.0999999046326","3","1","3","1,0.5,0.5,0.5,1,0.5,0.5,0.5,1","",""
"","html-keyboard-response","65","56131","0.0-65.0","3ERMJ6L4DZEMZGO28JCP246BCVG7MJ","A13MAWPV4T44I2","3T5ZXGO9DEAUILU6S56NLENRQJRQZJ","","null","<img src=""img/land3.png"" style=""width:200px; border:14px solid green;"">","null","","","","","","",""
"","image-keyboard-response","66","57147","0.0-66.0","3ERMJ6L4DZEMZGO28JCP246BCVG7MJ","A13MAWPV4T44I2","3T5ZXGO9DEAUILU6S56NLENRQJRQZJ","","1014.7999999523163","img/land1.png","75","1015.9000000953674","2","0","1","1,0.5,0.5,0.5,1,0.5,0.5,0.5,1","",""
"","html-keyboard-response","67","57449","0.0-67.0","3ERMJ6L4DZEMZGO28JCP246BCVG7MJ","A13MAWPV4T44I2","3T5ZXGO9DEAUILU6S56NLENRQJRQZJ","","null","<img src=""img/land1.png"" style=""width:200px;border:14px solid red;"">","null","","","","","","",""
"","image-keyboard-response","68","58636","0.0-68.0","3ERMJ6L4DZEMZGO28JCP246BCVG7MJ","A13MAWPV4T44I2","3T5ZXGO9DEAUILU6S56NLENRQJRQZJ","","1185.4000000953674","img/land2.png","75","1186.3999998569489","2","1","2","1,0.5,0.5,0.5,1,0.5,0.5,0.5,1","",""
"","html-keyboard-response","69","58939","0.0-69.0","3ERMJ6L4DZEMZGO28JCP246BCVG7MJ","A13MAWPV4T44I2","3T5ZXGO9DEAUILU6S56NLENRQJRQZJ","","null","<img src=""img/land2.png"" style=""width:200px; border:14px solid green;"">","null","","","","","","",""
"","image-keyboard-response","70","59836","0.0-70.0","3ERMJ6L4DZEMZGO28JCP246BCVG7MJ","A13MAWPV4T44I2","3T5ZXGO9DEAUILU6S56NLENRQJRQZJ","","895.6000001430511","img/land1.png","75","896.9000000953674","2","0","1","1,0.5,0.5,0.5,1,0.5,0.5,0.5,1","",""
"","html-keyboard-response","71","60138","0.0-71.0","3ERMJ6L4DZEMZGO28JCP246BCVG7MJ","A13MAWPV4T44I2","3T5ZXGO9DEAUILU6S56NLENRQJRQZJ","","null","<img src=""img/land1.png"" style=""width:200px;border:14px solid red;"">","null","","","","","","",""
"","image-keyboard-response","72","61267","0.0-72.0","3ERMJ6L4DZEMZGO28JCP246BCVG7MJ","A13MAWPV4T44I2","3T5ZXGO9DEAUILU6S56NLENRQJRQZJ","","1127.2999999523163","img/land3.png","76","1128.1999998092651","3","1","3","1,0.5,0.5,0.5,1,0.5,0.5,0.5,1","",""
"","html-keyboard-response","73","61569","0.0-73.0","3ERMJ6L4DZEMZGO28JCP246BCVG7MJ","A13MAWPV4T44I2","3T5ZXGO9DEAUILU6S56NLENRQJRQZJ","","null","<img src=""img/land3.png"" style=""width:200px; border:14px solid green;"">","null","","","","","","",""
"","image-keyboard-response","74","63067","0.0-74.0","3ERMJ6L4DZEMZGO28JCP246BCVG7MJ","A13MAWPV4T44I2","3T5ZXGO9DEAUILU6S56NLENRQJRQZJ","","1496.7999999523163","img/land2.png","75","1497.7999999523163","2","1","2","1,0.5,0.5,0.5,1,0.5,0.5,0.5,1","",""
"","html-keyboard-response","75","63369","0.0-75.0","3ERMJ6L4DZEMZGO28JCP246BCVG7MJ","A13MAWPV4T44I2","3T5ZXGO9DEAUILU6S56NLENRQJRQZJ","","null","<img src=""img/land2.png"" style=""width:200px; border:14px solid green;"">","null","","","","","","",""
"","image-keyboard-response","76","64331","0.0-76.0","3ERMJ6L4DZEMZGO28JCP246BCVG7MJ","A13MAWPV4T44I2","3T5ZXGO9DEAUILU6S56NLENRQJRQZJ","","960.3000001907349","img/land3.png","76","961.2000000476837","3","1","3","1,0.5,0.5,0.5,1,0.5,0.5,0.5,1","",""
"","html-keyboard-response","77","64633","0.0-77.0","3ERMJ6L4DZEMZGO28JCP246BCVG7MJ","A13MAWPV4T44I2","3T5ZXGO9DEAUILU6S56NLENRQJRQZJ","","null","<img src=""img/land3.png"" style=""width:200px; border:14px solid green;"">","null","","","","","","",""
"","image-keyboard-response","78","66147","0.0-78.0","3ERMJ6L4DZEMZGO28JCP246BCVG7MJ","A13MAWPV4T44I2","3T5ZXGO9DEAUILU6S56NLENRQJRQZJ","","1513.0999999046326","img/land1.png","74","1514.2000000476837","1","1","1","1,0.5,0.5,0.5,1,0.5,0.5,0.5,1","",""
"","html-keyboard-response","79","66450","0.0-79.0","3ERMJ6L4DZEMZGO28JCP246BCVG7MJ","A13MAWPV4T44I2","3T5ZXGO9DEAUILU6S56NLENRQJRQZJ","","null","<img src=""img/land1.png"" style=""width:200px; border:14px solid green;"">","null","","","","","","",""
"","image-keyboard-response","80","67507","0.0-80.0","3ERMJ6L4DZEMZGO28JCP246BCVG7MJ","A13MAWPV4T44I2","3T5ZXGO9DEAUILU6S56NLENRQJRQZJ","","1056","img/land3.png","76","1056.7000000476837","3","1","3","1,0.5,0.5,0.5,1,0.5,0.5,0.5,1","",""
"","html-keyboard-response","81","67811","0.0-81.0","3ERMJ6L4DZEMZGO28JCP246BCVG7MJ","A13MAWPV4T44I2","3T5ZXGO9DEAUILU6S56NLENRQJRQZJ","","null","<img src=""img/land3.png"" style=""width:200px; border:14px solid green;"">","null","","","","","","",""
"","image-keyboard-response","82","69700","0.0-82.0","3ERMJ6L4DZEMZGO28JCP246BCVG7MJ","A13MAWPV4T44I2","3T5ZXGO9DEAUILU6S56NLENRQJRQZJ","","1887.0999999046326","img/land2.png","75","1888.5","2","1","2","1,0.5,0.5,0.5,1,0.5,0.5,0.5,1","",""
"","html-keyboard-response","83","70002","0.0-83.0","3ERMJ6L4DZEMZGO28JCP246BCVG7MJ","A13MAWPV4T44I2","3T5ZXGO9DEAUILU6S56NLENRQJRQZJ","","null","<img src=""img/land2.png"" style=""width:200px; border:14px solid green;"">","null","","","","","","",""
"","image-keyboard-response","84","70885","0.0-84.0","3ERMJ6L4DZEMZGO28JCP246BCVG7MJ","A13MAWPV4T44I2","3T5ZXGO9DEAUILU6S56NLENRQJRQZJ","","881.1000001430511","img/land2.png","75","882.1999998092651","2","1","2","1,0.5,0.5,0.5,1,0.5,0.5,0.5,1","",""
"","html-keyboard-response","85","71188","0.0-85.0","3ERMJ6L4DZEMZGO28JCP246BCVG7MJ","A13MAWPV4T44I2","3T5ZXGO9DEAUILU6S56NLENRQJRQZJ","","null","<img src=""img/land2.png"" style=""width:200px; border:14px solid green;"">","null","","","","","","",""
"","image-keyboard-response","86","72171","0.0-86.0","3ERMJ6L4DZEMZGO28JCP246BCVG7MJ","A13MAWPV4T44I2","3T5ZXGO9DEAUILU6S56NLENRQJRQZJ","","982.3999998569489","img/land1.png","74","983.2999999523163","1","1","1","1,0.5,0.5,0.5,1,0.5,0.5,0.5,1","",""
"","html-keyboard-response","87","72474","0.0-87.0","3ERMJ6L4DZEMZGO28JCP246BCVG7MJ","A13MAWPV4T44I2","3T5ZXGO9DEAUILU6S56NLENRQJRQZJ","","null","<img src=""img/land1.png"" style=""width:200px; border:14px solid green;"">","null","","","","","","",""
"","image-keyboard-response","88","73507","0.0-88.0","3ERMJ6L4DZEMZGO28JCP246BCVG7MJ","A13MAWPV4T44I2","3T5ZXGO9DEAUILU6S56NLENRQJRQZJ","","1031.1999998092651","img/land2.png","75","1033","2","1","2","1,0.5,0.5,0.5,1,0.5,0.5,0.5,1","",""
"","html-keyboard-response","89","73810","0.0-89.0","3ERMJ6L4DZEMZGO28JCP246BCVG7MJ","A13MAWPV4T44I2","3T5ZXGO9DEAUILU6S56NLENRQJRQZJ","","null","<img src=""img/land2.png"" style=""width:200px; border:14px solid green;"">","null","","","","","","",""
"","image-keyboard-response","90","74828","0.0-90.0","3ERMJ6L4DZEMZGO28JCP246BCVG7MJ","A13MAWPV4T44I2","3T5ZXGO9DEAUILU6S56NLENRQJRQZJ","","1016.3999998569489","img/land1.png","74","1017.7999999523163","1","1","1","1,0.5,0.5,0.5,1,0.5,0.5,0.5,1","",""
"","html-keyboard-response","91","75131","0.0-91.0","3ERMJ6L4DZEMZGO28JCP246BCVG7MJ","A13MAWPV4T44I2","3T5ZXGO9DEAUILU6S56NLENRQJRQZJ","","null","<img src=""img/land1.png"" style=""width:200px; border:14px solid green;"">","null","","","","","","",""
"","image-keyboard-response","92","75987","0.0-92.0","3ERMJ6L4DZEMZGO28JCP246BCVG7MJ","A13MAWPV4T44I2","3T5ZXGO9DEAUILU6S56NLENRQJRQZJ","","855.6000001430511","img/land1.png","75","856.5","2","0","1","1,0.5,0.5,0.5,1,0.5,0.5,0.5,1","",""
"","html-keyboard-response","93","76290","0.0-93.0","3ERMJ6L4DZEMZGO28JCP246BCVG7MJ","A13MAWPV4T44I2","3T5ZXGO9DEAUILU6S56NLENRQJRQZJ","","null","<img src=""img/land1.png"" style=""width:200px;border:14px solid red;"">","null","","","","","","",""
"","image-keyboard-response","94","76804","0.0-94.0","3ERMJ6L4DZEMZGO28JCP246BCVG7MJ","A13MAWPV4T44I2","3T5ZXGO9DEAUILU6S56NLENRQJRQZJ","","512.9000000953674","img/land3.png","74","514.2999999523163","1","0","3","1,0.5,0.5,0.5,1,0.5,0.5,0.5,1","",""
"","html-keyboard-response","95","77108","0.0-95.0","3ERMJ6L4DZEMZGO28JCP246BCVG7MJ","A13MAWPV4T44I2","3T5ZXGO9DEAUILU6S56NLENRQJRQZJ","","null","<img src=""img/land3.png"" style=""width:200px;border:14px solid red;"">","null","","","","","","",""
"","image-keyboard-response","96","77499","0.0-96.0","3ERMJ6L4DZEMZGO28JCP246BCVG7MJ","A13MAWPV4T44I2","3T5ZXGO9DEAUILU6S56NLENRQJRQZJ","","390.59999990463257","img/land1.png","76","391.7000000476837","3","0","1","1,0.5,0.5,0.5,1,0.5,0.5,0.5,1","",""
"","html-keyboard-response","97","77802","0.0-97.0","3ERMJ6L4DZEMZGO28JCP246BCVG7MJ","A13MAWPV4T44I2","3T5ZXGO9DEAUILU6S56NLENRQJRQZJ","","null","<img src=""img/land1.png"" style=""width:200px;border:14px solid red;"">","null","","","","","","",""
"","image-keyboard-response","98","79677","0.0-98.0","3ERMJ6L4DZEMZGO28JCP246BCVG7MJ","A13MAWPV4T44I2","3T5ZXGO9DEAUILU6S56NLENRQJRQZJ","","1872.5999999046326","img/land2.png","75","1874","2","1","2","1,0.5,0.5,0.5,1,0.5,0.5,0.5,1","",""
"","html-keyboard-response","99","79980","0.0-99.0","3ERMJ6L4DZEMZGO28JCP246BCVG7MJ","A13MAWPV4T44I2","3T5ZXGO9DEAUILU6S56NLENRQJRQZJ","","null","<img src=""img/land2.png"" style=""width:200px; border:14px solid green;"">","null","","","","","","",""
"","image-keyboard-response","100","80812","0.0-100.0","3ERMJ6L4DZEMZGO28JCP246BCVG7MJ","A13MAWPV4T44I2","3T5ZXGO9DEAUILU6S56NLENRQJRQZJ","","830.4000000953674","img/land2.png","75","831.8999998569489","2","1","2","1,0.5,0.5,0.5,1,0.5,0.5,0.5,1","",""
"","html-keyboard-response","101","81115","0.0-101.0","3ERMJ6L4DZEMZGO28JCP246BCVG7MJ","A13MAWPV4T44I2","3T5ZXGO9DEAUILU6S56NLENRQJRQZJ","","null","<img src=""img/land2.png"" style=""width:200px; border:14px solid green;"">","null","","","","","","",""
"","image-keyboard-response","102","81884","0.0-102.0","3ERMJ6L4DZEMZGO28JCP246BCVG7MJ","A13MAWPV4T44I2","3T5ZXGO9DEAUILU6S56NLENRQJRQZJ","","767.6000001430511","img/land2.png","75","768.5","2","1","2","1,0.5,0.5,0.5,1,0.5,0.5,0.5,1","",""
"","html-keyboard-response","103","82187","0.0-103.0","3ERMJ6L4DZEMZGO28JCP246BCVG7MJ","A13MAWPV4T44I2","3T5ZXGO9DEAUILU6S56NLENRQJRQZJ","","null","<img src=""img/land2.png"" style=""width:200px; border:14px solid green;"">","null","","","","","","",""
"","image-keyboard-response","104","83363","0.0-104.0","3ERMJ6L4DZEMZGO28JCP246BCVG7MJ","A13MAWPV4T44I2","3T5ZXGO9DEAUILU6S56NLENRQJRQZJ","","1174.5999999046326","img/land1.png","74","1175.7000000476837","1","1","1","1,0.5,0.5,0.5,1,0.5,0.5,0.5,1","",""
"","html-keyboard-response","105","83666","0.0-105.0","3ERMJ6L4DZEMZGO28JCP246BCVG7MJ","A13MAWPV4T44I2","3T5ZXGO9DEAUILU6S56NLENRQJRQZJ","","null","<img src=""img/land1.png"" style=""width:200px; border:14px solid green;"">","null","","","","","","",""
"","image-keyboard-response","106","84627","0.0-106.0","3ERMJ6L4DZEMZGO28JCP246BCVG7MJ","A13MAWPV4T44I2","3T5ZXGO9DEAUILU6S56NLENRQJRQZJ","","960.3999998569489","img/land1.png","74","961.4000000953674","1","1","1","1,0.5,0.5,0.5,1,0.5,0.5,0.5,1","",""
"","html-keyboard-response","107","84929","0.0-107.0","3ERMJ6L4DZEMZGO28JCP246BCVG7MJ","A13MAWPV4T44I2","3T5ZXGO9DEAUILU6S56NLENRQJRQZJ","","null","<img src=""img/land1.png"" style=""width:200px; border:14px solid green;"">","null","","","","","","",""
"","image-keyboard-response","108","88052","0.0-108.0","3ERMJ6L4DZEMZGO28JCP246BCVG7MJ","A13MAWPV4T44I2","3T5ZXGO9DEAUILU6S56NLENRQJRQZJ","","3121.2000000476837","img/land3.png","76","3122.199999809265","3","1","3","1,0.5,0.5,0.5,1,0.5,0.5,0.5,1","",""
"","html-keyboard-response","109","88355","0.0-109.0","3ERMJ6L4DZEMZGO28JCP246BCVG7MJ","A13MAWPV4T44I2","3T5ZXGO9DEAUILU6S56NLENRQJRQZJ","","null","<img src=""img/land3.png"" style=""width:200px; border:14px solid green;"">","null","","","","","","",""
"","image-keyboard-response","110","90844","0.0-110.0","3ERMJ6L4DZEMZGO28JCP246BCVG7MJ","A13MAWPV4T44I2","3T5ZXGO9DEAUILU6S56NLENRQJRQZJ","","2486.7999999523163","img/land2.png","74","2488.399999856949","1","0","2","1,0.5,0.5,0.5,1,0.5,0.5,0.5,1","",""
"","html-keyboard-response","111","91147","0.0-111.0","3ERMJ6L4DZEMZGO28JCP246BCVG7MJ","A13MAWPV4T44I2","3T5ZXGO9DEAUILU6S56NLENRQJRQZJ","","null","<img src=""img/land2.png"" style=""width:200px;border:14px solid red;"">","null","","","","","","",""
"","image-keyboard-response","112","92355","0.0-112.0","3ERMJ6L4DZEMZGO28JCP246BCVG7MJ","A13MAWPV4T44I2","3T5ZXGO9DEAUILU6S56NLENRQJRQZJ","","1207.2999999523163","img/land1.png","74","1208","1","1","1","1,0.5,0.5,0.5,1,0.5,0.5,0.5,1","",""
"","html-keyboard-response","113","92658","0.0-113.0","3ERMJ6L4DZEMZGO28JCP246BCVG7MJ","A13MAWPV4T44I2","3T5ZXGO9DEAUILU6S56NLENRQJRQZJ","","null","<img src=""img/land1.png"" style=""width:200px; border:14px solid green;"">","null","","","","","","",""
"","image-keyboard-response","114","93886","0.0-114.0","3ERMJ6L4DZEMZGO28JCP246BCVG7MJ","A13MAWPV4T44I2","3T5ZXGO9DEAUILU6S56NLENRQJRQZJ","","1225.4000000953674","img/land2.png","75","1226.6000001430511","2","1","2","1,0.5,0.5,0.5,1,0.5,0.5,0.5,1","",""
"","html-keyboard-response","115","94188","0.0-115.0","3ERMJ6L4DZEMZGO28JCP246BCVG7MJ","A13MAWPV4T44I2","3T5ZXGO9DEAUILU6S56NLENRQJRQZJ","","null","<img src=""img/land2.png"" style=""width:200px; border:14px solid green;"">","null","","","","","","",""
"","image-keyboard-response","116","95157","0.0-116.0","3ERMJ6L4DZEMZGO28JCP246BCVG7MJ","A13MAWPV4T44I2","3T5ZXGO9DEAUILU6S56NLENRQJRQZJ","","967.1999998092651","img/land3.png","76","968.2999999523163","3","1","3","1,0.5,0.5,0.5,1,0.5,0.5,0.5,1","",""
"","html-keyboard-response","117","95460","0.0-117.0","3ERMJ6L4DZEMZGO28JCP246BCVG7MJ","A13MAWPV4T44I2","3T5ZXGO9DEAUILU6S56NLENRQJRQZJ","","null","<img src=""img/land3.png"" style=""width:200px; border:14px solid green;"">","null","","","","","","",""
"","image-keyboard-response","118","96789","0.0-118.0","3ERMJ6L4DZEMZGO28JCP246BCVG7MJ","A13MAWPV4T44I2","3T5ZXGO9DEAUILU6S56NLENRQJRQZJ","","1327.5","img/land1.png","74","1328.7999999523163","1","1","1","1,0.5,0.5,0.5,1,0.5,0.5,0.5,1","",""
"","html-keyboard-response","119","97091","0.0-119.0","3ERMJ6L4DZEMZGO28JCP246BCVG7MJ","A13MAWPV4T44I2","3T5ZXGO9DEAUILU6S56NLENRQJRQZJ","","null","<img src=""img/land1.png"" style=""width:200px; border:14px solid green;"">","null","","","","","","",""
"","image-keyboard-response","120","98268","0.0-120.0","3ERMJ6L4DZEMZGO28JCP246BCVG7MJ","A13MAWPV4T44I2","3T5ZXGO9DEAUILU6S56NLENRQJRQZJ","","1176","img/land2.png","75","1177","2","1","2","1,0.5,0.5,0.5,1,0.5,0.5,0.5,1","",""
"","html-keyboard-response","121","98571","0.0-121.0","3ERMJ6L4DZEMZGO28JCP246BCVG7MJ","A13MAWPV4T44I2","3T5ZXGO9DEAUILU6S56NLENRQJRQZJ","","null","<img src=""img/land2.png"" style=""width:200px; border:14px solid green;"">","null","","","","","","",""
"","image-keyboard-response","122","99453","0.0-122.0","3ERMJ6L4DZEMZGO28JCP246BCVG7MJ","A13MAWPV4T44I2","3T5ZXGO9DEAUILU6S56NLENRQJRQZJ","","880.6000001430511","img/land1.png","76","881.5","3","0","1","1,0.5,0.5,0.5,1,0.5,0.5,0.5,1","",""
"","html-keyboard-response","123","99756","0.0-123.0","3ERMJ6L4DZEMZGO28JCP246BCVG7MJ","A13MAWPV4T44I2","3T5ZXGO9DEAUILU6S56NLENRQJRQZJ","","null","<img src=""img/land1.png"" style=""width:200px;border:14px solid red;"">","null","","","","","","",""
"","image-keyboard-response","124","99829","0.0-124.0","3ERMJ6L4DZEMZGO28JCP246BCVG7MJ","A13MAWPV4T44I2","3T5ZXGO9DEAUILU6S56NLENRQJRQZJ","","72","img/land2.png","74","73.39999985694885","1","0","2","1,0.5,0.5,0.5,1,0.5,0.5,0.5,1","",""
"","html-keyboard-response","125","100133","0.0-125.0","3ERMJ6L4DZEMZGO28JCP246BCVG7MJ","A13MAWPV4T44I2","3T5ZXGO9DEAUILU6S56NLENRQJRQZJ","","null","<img src=""img/land2.png"" style=""width:200px;border:14px solid red;"">","null","","","","","","",""
"","image-keyboard-response","126","101140","0.0-126.0","3ERMJ6L4DZEMZGO28JCP246BCVG7MJ","A13MAWPV4T44I2","3T5ZXGO9DEAUILU6S56NLENRQJRQZJ","","1006.2000000476837","img/land2.png","75","1007.3999998569489","2","1","2","1,0.5,0.5,0.5,1,0.5,0.5,0.5,1","",""
"","html-keyboard-response","127","101443","0.0-127.0","3ERMJ6L4DZEMZGO28JCP246BCVG7MJ","A13MAWPV4T44I2","3T5ZXGO9DEAUILU6S56NLENRQJRQZJ","","null","<img src=""img/land2.png"" style=""width:200px; border:14px solid green;"">","null","","","","","","",""
"","image-keyboard-response","128","102372","0.0-128.0","3ERMJ6L4DZEMZGO28JCP246BCVG7MJ","A13MAWPV4T44I2","3T5ZXGO9DEAUILU6S56NLENRQJRQZJ","","928.5999999046326","img/land2.png","75","929.4000000953674","2","1","2","1,0.5,0.5,0.5,1,0.5,0.5,0.5,1","",""
"","html-keyboard-response","129","102676","0.0-129.0","3ERMJ6L4DZEMZGO28JCP246BCVG7MJ","A13MAWPV4T44I2","3T5ZXGO9DEAUILU6S56NLENRQJRQZJ","","null","<img src=""img/land2.png"" style=""width:200px; border:14px solid green;"">","null","","","","","","",""
"","image-keyboard-response","130","103430","0.0-130.0","3ERMJ6L4DZEMZGO28JCP246BCVG7MJ","A13MAWPV4T44I2","3T5ZXGO9DEAUILU6S56NLENRQJRQZJ","","751.5","img/land2.png","75","753.3000001907349","2","1","2","1,0.5,0.5,0.5,1,0.5,0.5,0.5,1","",""
"","html-keyboard-response","131","103732","0.0-131.0","3ERMJ6L4DZEMZGO28JCP246BCVG7MJ","A13MAWPV4T44I2","3T5ZXGO9DEAUILU6S56NLENRQJRQZJ","","null","<img src=""img/land2.png"" style=""width:200px; border:14px solid green;"">","null","","","","","","",""
"","image-keyboard-response","132","104653","0.0-132.0","3ERMJ6L4DZEMZGO28JCP246BCVG7MJ","A13MAWPV4T44I2","3T5ZXGO9DEAUILU6S56NLENRQJRQZJ","","919.3999998569489","img/land3.png","76","920.5","3","1","3","1,0.5,0.5,0.5,1,0.5,0.5,0.5,1","",""
"","html-keyboard-response","133","104956","0.0-133.0","3ERMJ6L4DZEMZGO28JCP246BCVG7MJ","A13MAWPV4T44I2","3T5ZXGO9DEAUILU6S56NLENRQJRQZJ","","null","<img src=""img/land3.png"" style=""width:200px; border:14px solid green;"">","null","","","","","","",""
"","image-keyboard-response","134","106276","0.0-134.0","3ERMJ6L4DZEMZGO28JCP246BCVG7MJ","A13MAWPV4T44I2","3T5ZXGO9DEAUILU6S56NLENRQJRQZJ","","1318.8999998569489","img/land1.png","74","1320.2999999523163","1","1","1","1,0.5,0.5,0.5,1,0.5,0.5,0.5,1","",""
"","html-keyboard-response","135","106579","0.0-135.0","3ERMJ6L4DZEMZGO28JCP246BCVG7MJ","A13MAWPV4T44I2","3T5ZXGO9DEAUILU6S56NLENRQJRQZJ","","null","<img src=""img/land1.png"" style=""width:200px; border:14px solid green;"">","null","","","","","","",""
"","image-keyboard-response","136","107484","0.0-136.0","3ERMJ6L4DZEMZGO28JCP246BCVG7MJ","A13MAWPV4T44I2","3T5ZXGO9DEAUILU6S56NLENRQJRQZJ","","903.7000000476837","img/land1.png","74","904.5999999046326","1","1","1","1,0.5,0.5,0.5,1,0.5,0.5,0.5,1","",""
"","html-keyboard-response","137","107787","0.0-137.0","3ERMJ6L4DZEMZGO28JCP246BCVG7MJ","A13MAWPV4T44I2","3T5ZXGO9DEAUILU6S56NLENRQJRQZJ","","null","<img src=""img/land1.png"" style=""width:200px; border:14px solid green;"">","null","","","","","","",""
"","image-keyboard-response","138","108540","0.0-138.0","3ERMJ6L4DZEMZGO28JCP246BCVG7MJ","A13MAWPV4T44I2","3T5ZXGO9DEAUILU6S56NLENRQJRQZJ","","751.7999999523163","img/land1.png","74","752.8999998569489","1","1","1","1,0.5,0.5,0.5,1,0.5,0.5,0.5,1","",""
"","html-keyboard-response","139","108843","0.0-139.0","3ERMJ6L4DZEMZGO28JCP246BCVG7MJ","A13MAWPV4T44I2","3T5ZXGO9DEAUILU6S56NLENRQJRQZJ","","null","<img src=""img/land1.png"" style=""width:200px; border:14px solid green;"">","null","","","","","","",""
"","image-keyboard-response","140","109765","0.0-140.0","3ERMJ6L4DZEMZGO28JCP246BCVG7MJ","A13MAWPV4T44I2","3T5ZXGO9DEAUILU6S56NLENRQJRQZJ","","920.5999999046326","img/land2.png","75","921.9000000953674","2","1","2","1,0.5,0.5,0.5,1,0.5,0.5,0.5,1","",""
"","html-keyboard-response","141","110068","0.0-141.0","3ERMJ6L4DZEMZGO28JCP246BCVG7MJ","A13MAWPV4T44I2","3T5ZXGO9DEAUILU6S56NLENRQJRQZJ","","null","<img src=""img/land2.png"" style=""width:200px; border:14px solid green;"">","null","","","","","","",""
"","image-keyboard-response","142","111069","0.0-142.0","3ERMJ6L4DZEMZGO28JCP246BCVG7MJ","A13MAWPV4T44I2","3T5ZXGO9DEAUILU6S56NLENRQJRQZJ","","999.4000000953674","img/land3.png","76","1000.2999999523163","3","1","3","1,0.5,0.5,0.5,1,0.5,0.5,0.5,1","",""
"","html-keyboard-response","143","111371","0.0-143.0","3ERMJ6L4DZEMZGO28JCP246BCVG7MJ","A13MAWPV4T44I2","3T5ZXGO9DEAUILU6S56NLENRQJRQZJ","","null","<img src=""img/land3.png"" style=""width:200px; border:14px solid green;"">","null","","","","","","",""
"","image-keyboard-response","144","111957","0.0-144.0","3ERMJ6L4DZEMZGO28JCP246BCVG7MJ","A13MAWPV4T44I2","3T5ZXGO9DEAUILU6S56NLENRQJRQZJ","","585.0999999046326","img/land2.png","76","586.1999998092651","3","1","2","1,0.5,0.5,0.5,1,0.5,0.5,0.5,1","",""
"","html-keyboard-response","145","112261","0.0-145.0","3ERMJ6L4DZEMZGO28JCP246BCVG7MJ","A13MAWPV4T44I2","3T5ZXGO9DEAUILU6S56NLENRQJRQZJ","","null","<img src=""img/land2.png"" style=""width:200px; border:14px solid green;"">","null","","","","","","",""
"","image-keyboard-response","146","112524","0.0-146.0","3ERMJ6L4DZEMZGO28JCP246BCVG7MJ","A13MAWPV4T44I2","3T5ZXGO9DEAUILU6S56NLENRQJRQZJ","","262.59999990463257","img/land1.png","74","263.2000000476837","1","1","1","1,0.5,0.5,0.5,1,0.5,0.5,0.5,1","",""
"","html-keyboard-response","147","112827","0.0-147.0","3ERMJ6L4DZEMZGO28JCP246BCVG7MJ","A13MAWPV4T44I2","3T5ZXGO9DEAUILU6S56NLENRQJRQZJ","","null","<img src=""img/land1.png"" style=""width:200px; border:14px solid green;"">","null","","","","","","",""
"","image-keyboard-response","148","113973","0.0-148.0","3ERMJ6L4DZEMZGO28JCP246BCVG7MJ","A13MAWPV4T44I2","3T5ZXGO9DEAUILU6S56NLENRQJRQZJ","","1144.2000000476837","img/land3.png","76","1145.7999999523163","3","1","3","1,0.5,0.5,0.5,1,0.5,0.5,0.5,1","",""
"","html-keyboard-response","149","114276","0.0-149.0","3ERMJ6L4DZEMZGO28JCP246BCVG7MJ","A13MAWPV4T44I2","3T5ZXGO9DEAUILU6S56NLENRQJRQZJ","","null","<img src=""img/land3.png"" style=""width:200px; border:14px solid green;"">","null","","","","","","",""
"","image-keyboard-response","150","116437","0.0-150.0","3ERMJ6L4DZEMZGO28JCP246BCVG7MJ","A13MAWPV4T44I2","3T5ZXGO9DEAUILU6S56NLENRQJRQZJ","","2159.600000143051","img/land2.png","75","2160.9000000953674","2","1","2","1,0.5,0.5,0.5,1,0.5,0.5,0.5,1","",""
"","html-keyboard-response","151","116739","0.0-151.0","3ERMJ6L4DZEMZGO28JCP246BCVG7MJ","A13MAWPV4T44I2","3T5ZXGO9DEAUILU6S56NLENRQJRQZJ","","null","<img src=""img/land2.png"" style=""width:200px; border:14px solid green;"">","null","","","","","","",""
"","image-keyboard-response","152","117572","0.0-152.0","3ERMJ6L4DZEMZGO28JCP246BCVG7MJ","A13MAWPV4T44I2","3T5ZXGO9DEAUILU6S56NLENRQJRQZJ","","831.3999998569489","img/land2.png","75","832.5","2","1","2","1,0.5,0.5,0.5,1,0.5,0.5,0.5,1","",""
"","html-keyboard-response","153","117875","0.0-153.0","3ERMJ6L4DZEMZGO28JCP246BCVG7MJ","A13MAWPV4T44I2","3T5ZXGO9DEAUILU6S56NLENRQJRQZJ","","null","<img src=""img/land2.png"" style=""width:200px; border:14px solid green;"">","null","","","","","","",""
"","image-keyboard-response","154","118749","0.0-154.0","3ERMJ6L4DZEMZGO28JCP246BCVG7MJ","A13MAWPV4T44I2","3T5ZXGO9DEAUILU6S56NLENRQJRQZJ","","872.1000001430511","img/land2.png","75","874.1999998092651","2","1","2","1,0.5,0.5,0.5,1,0.5,0.5,0.5,1","",""
"","html-keyboard-response","155","119052","0.0-155.0","3ERMJ6L4DZEMZGO28JCP246BCVG7MJ","A13MAWPV4T44I2","3T5ZXGO9DEAUILU6S56NLENRQJRQZJ","","null","<img src=""img/land2.png"" style=""width:200px; border:14px solid green;"">","null","","","","","","",""
"","image-keyboard-response","156","120140","0.0-156.0","3ERMJ6L4DZEMZGO28JCP246BCVG7MJ","A13MAWPV4T44I2","3T5ZXGO9DEAUILU6S56NLENRQJRQZJ","","1086.6000001430511","img/land1.png","74","1087.6000001430511","1","1","1","1,0.5,0.5,0.5,1,0.5,0.5,0.5,1","",""
"","html-keyboard-response","157","120443","0.0-157.0","3ERMJ6L4DZEMZGO28JCP246BCVG7MJ","A13MAWPV4T44I2","3T5ZXGO9DEAUILU6S56NLENRQJRQZJ","","null","<img src=""img/land1.png"" style=""width:200px; border:14px solid green;"">","null","","","","","","",""
"","image-keyboard-response","158","121253","0.0-158.0","3ERMJ6L4DZEMZGO28JCP246BCVG7MJ","A13MAWPV4T44I2","3T5ZXGO9DEAUILU6S56NLENRQJRQZJ","","807.7000000476837","img/land1.png","74","809.4000000953674","1","1","1","1,0.5,0.5,0.5,1,0.5,0.5,0.5,1","",""
"","html-keyboard-response","159","121556","0.0-159.0","3ERMJ6L4DZEMZGO28JCP246BCVG7MJ","A13MAWPV4T44I2","3T5ZXGO9DEAUILU6S56NLENRQJRQZJ","","null","<img src=""img/land1.png"" style=""width:200px; border:14px solid green;"">","null","","","","","","",""
"","image-keyboard-response","160","122293","0.0-160.0","3ERMJ6L4DZEMZGO28JCP246BCVG7MJ","A13MAWPV4T44I2","3T5ZXGO9DEAUILU6S56NLENRQJRQZJ","","736.1000001430511","img/land1.png","74","736.9000000953674","1","1","1","1,0.5,0.5,0.5,1,0.5,0.5,0.5,1","",""
"","html-keyboard-response","161","122595","0.0-161.0","3ERMJ6L4DZEMZGO28JCP246BCVG7MJ","A13MAWPV4T44I2","3T5ZXGO9DEAUILU6S56NLENRQJRQZJ","","null","<img src=""img/land1.png"" style=""width:200px; border:14px solid green;"">","null","","","","","","",""
"","image-keyboard-response","162","123645","0.0-162.0","3ERMJ6L4DZEMZGO28JCP246BCVG7MJ","A13MAWPV4T44I2","3T5ZXGO9DEAUILU6S56NLENRQJRQZJ","","1048.7999999523163","img/land1.png","74","1049.7999999523163","1","1","1","1,0.5,0.5,0.5,1,0.5,0.5,0.5,1","",""
"","html-keyboard-response","163","123948","0.0-163.0","3ERMJ6L4DZEMZGO28JCP246BCVG7MJ","A13MAWPV4T44I2","3T5ZXGO9DEAUILU6S56NLENRQJRQZJ","","null","<img src=""img/land1.png"" style=""width:200px; border:14px solid green;"">","null","","","","","","",""
"","image-keyboard-response","164","124918","0.0-164.0","3ERMJ6L4DZEMZGO28JCP246BCVG7MJ","A13MAWPV4T44I2","3T5ZXGO9DEAUILU6S56NLENRQJRQZJ","","969.2000000476837","img/land3.png","75","970.2000000476837","2","1","3","1,0.5,0.5,0.5,1,0.5,0.5,0.5,1","",""
"","html-keyboard-response","165","125221","0.0-165.0","3ERMJ6L4DZEMZGO28JCP246BCVG7MJ","A13MAWPV4T44I2","3T5ZXGO9DEAUILU6S56NLENRQJRQZJ","","null","<img src=""img/land3.png"" style=""width:200px; border:14px solid green;"">","null","","","","","","",""
"","image-keyboard-response","166","125373","0.0-166.0","3ERMJ6L4DZEMZGO28JCP246BCVG7MJ","A13MAWPV4T44I2","3T5ZXGO9DEAUILU6S56NLENRQJRQZJ","","149.70000004768372","img/land1.png","76","151.10000014305115","3","0","1","1,0.5,0.5,0.5,1,0.5,0.5,0.5,1","",""
"","html-keyboard-response","167","125676","0.0-167.0","3ERMJ6L4DZEMZGO28JCP246BCVG7MJ","A13MAWPV4T44I2","3T5ZXGO9DEAUILU6S56NLENRQJRQZJ","","null","<img src=""img/land1.png"" style=""width:200px;border:14px solid red;"">","null","","","","","","",""
"","image-keyboard-response","168","126791","0.0-168.0","3ERMJ6L4DZEMZGO28JCP246BCVG7MJ","A13MAWPV4T44I2","3T5ZXGO9DEAUILU6S56NLENRQJRQZJ","","1112.7999999523163","img/land3.png","76","1114","3","1","3","1,0.5,0.5,0.5,1,0.5,0.5,0.5,1","",""
"","html-keyboard-response","169","127094","0.0-169.0","3ERMJ6L4DZEMZGO28JCP246BCVG7MJ","A13MAWPV4T44I2","3T5ZXGO9DEAUILU6S56NLENRQJRQZJ","","null","<img src=""img/land3.png"" style=""width:200px; border:14px solid green;"">","null","","","","","","",""
"","html-keyboard-response","170","129525","0.0-170.0","3ERMJ6L4DZEMZGO28JCP246BCVG7MJ","A13MAWPV4T44I2","3T5ZXGO9DEAUILU6S56NLENRQJRQZJ","","","","","","","","","","",""
"","image-keyboard-response","171","131780","0.0-171.0","3ERMJ6L4DZEMZGO28JCP246BCVG7MJ","A13MAWPV4T44I2","3T5ZXGO9DEAUILU6S56NLENRQJRQZJ","","2253.2999999523163","img/land4.png","74","2254.7000000476837","1","1","1","1,0.5,0.5,0.5,1,0.5,0.5,0.5,1","",""
"","html-keyboard-response","172","132082","0.0-172.0","3ERMJ6L4DZEMZGO28JCP246BCVG7MJ","A13MAWPV4T44I2","3T5ZXGO9DEAUILU6S56NLENRQJRQZJ","","null","<img src=""img/land4.png"" style=""width:200px; border:14px solid green;"">","null","","","","","","",""
"","image-keyboard-response","173","133741","0.0-173.0","3ERMJ6L4DZEMZGO28JCP246BCVG7MJ","A13MAWPV4T44I2","3T5ZXGO9DEAUILU6S56NLENRQJRQZJ","","1657.2000000476837","img/land5.png","76","1658.2999999523163","3","0","2","1,0.5,0.5,0.5,1,0.5,0.5,0.5,1","",""
"","html-keyboard-response","174","134044","0.0-174.0","3ERMJ6L4DZEMZGO28JCP246BCVG7MJ","A13MAWPV4T44I2","3T5ZXGO9DEAUILU6S56NLENRQJRQZJ","","null","<img src=""img/land5.png"" style=""width:200px;border:14px solid red;"">","null","","","","","","",""
"","image-keyboard-response","175","135541","0.0-175.0","3ERMJ6L4DZEMZGO28JCP246BCVG7MJ","A13MAWPV4T44I2","3T5ZXGO9DEAUILU6S56NLENRQJRQZJ","","1495.9000000953674","img/land6.png","75","1496.8999998569489","2","0","3","1,0.5,0.5,0.5,1,0.5,0.5,0.5,1","",""
"","html-keyboard-response","176","135843","0.0-176.0","3ERMJ6L4DZEMZGO28JCP246BCVG7MJ","A13MAWPV4T44I2","3T5ZXGO9DEAUILU6S56NLENRQJRQZJ","","null","<img src=""img/land6.png"" style=""width:200px;border:14px solid red;"">","null","","","","","","",""
"","image-keyboard-response","177","137654","0.0-177.0","3ERMJ6L4DZEMZGO28JCP246BCVG7MJ","A13MAWPV4T44I2","3T5ZXGO9DEAUILU6S56NLENRQJRQZJ","","1809.2000000476837","img/land5.png","74","1810.5999999046326","1","1","2","1,0.5,0.5,0.5,1,0.5,0.5,0.5,1","",""
"","html-keyboard-response","178","137957","0.0-178.0","3ERMJ6L4DZEMZGO28JCP246BCVG7MJ","A13MAWPV4T44I2","3T5ZXGO9DEAUILU6S56NLENRQJRQZJ","","null","<img src=""img/land5.png"" style=""width:200px; border:14px solid green;"">","null","","","","","","",""
"","image-keyboard-response","179","139317","0.0-179.0","3ERMJ6L4DZEMZGO28JCP246BCVG7MJ","A13MAWPV4T44I2","3T5ZXGO9DEAUILU6S56NLENRQJRQZJ","","1358","img/land4.png","74","1359","1","1","1","1,0.5,0.5,0.5,1,0.5,0.5,0.5,1","",""
"","html-keyboard-response","180","139620","0.0-180.0","3ERMJ6L4DZEMZGO28JCP246BCVG7MJ","A13MAWPV4T44I2","3T5ZXGO9DEAUILU6S56NLENRQJRQZJ","","null","<img src=""img/land4.png"" style=""width:200px; border:14px solid green;"">","null","","","","","","",""
"","image-keyboard-response","181","140749","0.0-181.0","3ERMJ6L4DZEMZGO28JCP246BCVG7MJ","A13MAWPV4T44I2","3T5ZXGO9DEAUILU6S56NLENRQJRQZJ","","1128","img/land6.png","74","1128.9000000953674","1","0","3","1,0.5,0.5,0.5,1,0.5,0.5,0.5,1","",""
"","html-keyboard-response","182","141051","0.0-182.0","3ERMJ6L4DZEMZGO28JCP246BCVG7MJ","A13MAWPV4T44I2","3T5ZXGO9DEAUILU6S56NLENRQJRQZJ","","null","<img src=""img/land6.png"" style=""width:200px;border:14px solid red;"">","null","","","","","","",""
"","image-keyboard-response","183","141997","0.0-183.0","3ERMJ6L4DZEMZGO28JCP246BCVG7MJ","A13MAWPV4T44I2","3T5ZXGO9DEAUILU6S56NLENRQJRQZJ","","944.5","img/land6.png","75","945.9000000953674","2","0","3","1,0.5,0.5,0.5,1,0.5,0.5,0.5,1","",""
"","html-keyboard-response","184","142301","0.0-184.0","3ERMJ6L4DZEMZGO28JCP246BCVG7MJ","A13MAWPV4T44I2","3T5ZXGO9DEAUILU6S56NLENRQJRQZJ","","null","<img src=""img/land6.png"" style=""width:200px;border:14px solid red;"">","null","","","","","","",""
"","image-keyboard-response","185","143436","0.0-185.0","3ERMJ6L4DZEMZGO28JCP246BCVG7MJ","A13MAWPV4T44I2","3T5ZXGO9DEAUILU6S56NLENRQJRQZJ","","1134.5","img/land5.png","76","1135.1999998092651","3","0","2","1,0.5,0.5,0.5,1,0.5,0.5,0.5,1","",""
"","html-keyboard-response","186","143739","0.0-186.0","3ERMJ6L4DZEMZGO28JCP246BCVG7MJ","A13MAWPV4T44I2","3T5ZXGO9DEAUILU6S56NLENRQJRQZJ","","null","<img src=""img/land5.png"" style=""width:200px;border:14px solid red;"">","null","","","","","","",""
"","image-keyboard-response","187","144661","0.0-187.0","3ERMJ6L4DZEMZGO28JCP246BCVG7MJ","A13MAWPV4T44I2","3T5ZXGO9DEAUILU6S56NLENRQJRQZJ","","920.5999999046326","img/land4.png","74","921.7000000476837","1","1","1","1,0.5,0.5,0.5,1,0.5,0.5,0.5,1","",""
"","html-keyboard-response","188","144963","0.0-188.0","3ERMJ6L4DZEMZGO28JCP246BCVG7MJ","A13MAWPV4T44I2","3T5ZXGO9DEAUILU6S56NLENRQJRQZJ","","null","<img src=""img/land4.png"" style=""width:200px; border:14px solid green;"">","null","","","","","","",""
"","image-keyboard-response","189","145702","0.0-189.0","3ERMJ6L4DZEMZGO28JCP246BCVG7MJ","A13MAWPV4T44I2","3T5ZXGO9DEAUILU6S56NLENRQJRQZJ","","737.3999998569489","img/land4.png","74","738.6000001430511","1","1","1","1,0.5,0.5,0.5,1,0.5,0.5,0.5,1","",""
"","html-keyboard-response","190","146005","0.0-190.0","3ERMJ6L4DZEMZGO28JCP246BCVG7MJ","A13MAWPV4T44I2","3T5ZXGO9DEAUILU6S56NLENRQJRQZJ","","null","<img src=""img/land4.png"" style=""width:200px; border:14px solid green;"">","null","","","","","","",""
"","image-keyboard-response","191","146837","0.0-191.0","3ERMJ6L4DZEMZGO28JCP246BCVG7MJ","A13MAWPV4T44I2","3T5ZXGO9DEAUILU6S56NLENRQJRQZJ","","831.1000001430511","img/land4.png","74","832.4000000953674","1","1","1","1,0.5,0.5,0.5,1,0.5,0.5,0.5,1","",""
"","html-keyboard-response","192","147140","0.0-192.0","3ERMJ6L4DZEMZGO28JCP246BCVG7MJ","A13MAWPV4T44I2","3T5ZXGO9DEAUILU6S56NLENRQJRQZJ","","null","<img src=""img/land4.png"" style=""width:200px; border:14px solid green;"">","null","","","","","","",""
"","image-keyboard-response","193","149293","0.0-193.0","3ERMJ6L4DZEMZGO28JCP246BCVG7MJ","A13MAWPV4T44I2","3T5ZXGO9DEAUILU6S56NLENRQJRQZJ","","2151.0999999046326","img/land5.png","76","2152.300000190735","3","0","2","1,0.5,0.5,0.5,1,0.5,0.5,0.5,1","",""
"","html-keyboard-response","194","149596","0.0-194.0","3ERMJ6L4DZEMZGO28JCP246BCVG7MJ","A13MAWPV4T44I2","3T5ZXGO9DEAUILU6S56NLENRQJRQZJ","","null","<img src=""img/land5.png"" style=""width:200px;border:14px solid red;"">","null","","","","","","",""
"","image-keyboard-response","195","150573","0.0-195.0","3ERMJ6L4DZEMZGO28JCP246BCVG7MJ","A13MAWPV4T44I2","3T5ZXGO9DEAUILU6S56NLENRQJRQZJ","","976","img/land5.png","74","977","1","0","2","1,0.5,0.5,0.5,1,0.5,0.5,0.5,1","",""
"","html-keyboard-response","196","150875","0.0-196.0","3ERMJ6L4DZEMZGO28JCP246BCVG7MJ","A13MAWPV4T44I2","3T5ZXGO9DEAUILU6S56NLENRQJRQZJ","","null","<img src=""img/land5.png"" style=""width:200px;border:14px solid red;"">","null","","","","","","",""
"","image-keyboard-response","197","151894","0.0-197.0","3ERMJ6L4DZEMZGO28JCP246BCVG7MJ","A13MAWPV4T44I2","3T5ZXGO9DEAUILU6S56NLENRQJRQZJ","","1016.7000000476837","img/land4.png","75","1017.9000000953674","2","0","1","1,0.5,0.5,0.5,1,0.5,0.5,0.5,1","",""
"","html-keyboard-response","198","152197","0.0-198.0","3ERMJ6L4DZEMZGO28JCP246BCVG7MJ","A13MAWPV4T44I2","3T5ZXGO9DEAUILU6S56NLENRQJRQZJ","","null","<img src=""img/land4.png"" style=""width:200px;border:14px solid red;"">","null","","","","","","",""
"","image-keyboard-response","199","153093","0.0-199.0","3ERMJ6L4DZEMZGO28JCP246BCVG7MJ","A13MAWPV4T44I2","3T5ZXGO9DEAUILU6S56NLENRQJRQZJ","","895","img/land4.png","74","895.7000000476837","1","1","1","1,0.5,0.5,0.5,1,0.5,0.5,0.5,1","",""
"","html-keyboard-response","200","153395","0.0-200.0","3ERMJ6L4DZEMZGO28JCP246BCVG7MJ","A13MAWPV4T44I2","3T5ZXGO9DEAUILU6S56NLENRQJRQZJ","","null","<img src=""img/land4.png"" style=""width:200px; border:14px solid green;"">","null","","","","","","",""
"","image-keyboard-response","201","154157","0.0-201.0","3ERMJ6L4DZEMZGO28JCP246BCVG7MJ","A13MAWPV4T44I2","3T5ZXGO9DEAUILU6S56NLENRQJRQZJ","","760.2999999523163","img/land4.png","74","761.2999999523163","1","1","1","1,0.5,0.5,0.5,1,0.5,0.5,0.5,1","",""
"","html-keyboard-response","202","154460","0.0-202.0","3ERMJ6L4DZEMZGO28JCP246BCVG7MJ","A13MAWPV4T44I2","3T5ZXGO9DEAUILU6S56NLENRQJRQZJ","","null","<img src=""img/land4.png"" style=""width:200px; border:14px solid green;"">","null","","","","","","",""
"","image-keyboard-response","203","155974","0.0-203.0","3ERMJ6L4DZEMZGO28JCP246BCVG7MJ","A13MAWPV4T44I2","3T5ZXGO9DEAUILU6S56NLENRQJRQZJ","","1512.7999999523163","img/land6.png","75","1513.8000001907349","2","0","3","1,0.5,0.5,0.5,1,0.5,0.5,0.5,1","",""
"","html-keyboard-response","204","156277","0.0-204.0","3ERMJ6L4DZEMZGO28JCP246BCVG7MJ","A13MAWPV4T44I2","3T5ZXGO9DEAUILU6S56NLENRQJRQZJ","","null","<img src=""img/land6.png"" style=""width:200px;border:14px solid red;"">","null","","","","","","",""
"","image-keyboard-response","205","157396","0.0-205.0","3ERMJ6L4DZEMZGO28JCP246BCVG7MJ","A13MAWPV4T44I2","3T5ZXGO9DEAUILU6S56NLENRQJRQZJ","","1118.0999999046326","img/land4.png","74","1119.1999998092651","1","1","1","1,0.5,0.5,0.5,1,0.5,0.5,0.5,1","",""
"","html-keyboard-response","206","157699","0.0-206.0","3ERMJ6L4DZEMZGO28JCP246BCVG7MJ","A13MAWPV4T44I2","3T5ZXGO9DEAUILU6S56NLENRQJRQZJ","","null","<img src=""img/land4.png"" style=""width:200px; border:14px solid green;"">","null","","","","","","",""
"","image-keyboard-response","207","159357","0.0-207.0","3ERMJ6L4DZEMZGO28JCP246BCVG7MJ","A13MAWPV4T44I2","3T5ZXGO9DEAUILU6S56NLENRQJRQZJ","","1657.2000000476837","img/land6.png","74","1658.2000000476837","1","0","3","1,0.5,0.5,0.5,1,0.5,0.5,0.5,1","",""
"","html-keyboard-response","208","159660","0.0-208.0","3ERMJ6L4DZEMZGO28JCP246BCVG7MJ","A13MAWPV4T44I2","3T5ZXGO9DEAUILU6S56NLENRQJRQZJ","","null","<img src=""img/land6.png"" style=""width:200px;border:14px solid red;"">","null","","","","","","",""
"","image-keyboard-response","209","160701","0.0-209.0","3ERMJ6L4DZEMZGO28JCP246BCVG7MJ","A13MAWPV4T44I2","3T5ZXGO9DEAUILU6S56NLENRQJRQZJ","","1039.0999999046326","img/land4.png","74","1040.6000001430511","1","1","1","1,0.5,0.5,0.5,1,0.5,0.5,0.5,1","",""
"","html-keyboard-response","210","161003","0.0-210.0","3ERMJ6L4DZEMZGO28JCP246BCVG7MJ","A13MAWPV4T44I2","3T5ZXGO9DEAUILU6S56NLENRQJRQZJ","","null","<img src=""img/land4.png"" style=""width:200px; border:14px solid green;"">","null","","","","","","",""
"","image-keyboard-response","211","161750","0.0-211.0","3ERMJ6L4DZEMZGO28JCP246BCVG7MJ","A13MAWPV4T44I2","3T5ZXGO9DEAUILU6S56NLENRQJRQZJ","","745.2000000476837","img/land4.png","74","746.5","1","1","1","1,0.5,0.5,0.5,1,0.5,0.5,0.5,1","",""
"","html-keyboard-response","212","162053","0.0-212.0","3ERMJ6L4DZEMZGO28JCP246BCVG7MJ","A13MAWPV4T44I2","3T5ZXGO9DEAUILU6S56NLENRQJRQZJ","","null","<img src=""img/land4.png"" style=""width:200px; border:14px solid green;"">","null","","","","","","",""
"","image-keyboard-response","213","164116","0.0-213.0","3ERMJ6L4DZEMZGO28JCP246BCVG7MJ","A13MAWPV4T44I2","3T5ZXGO9DEAUILU6S56NLENRQJRQZJ","","2061.2999999523163","img/land5.png","74","2063","1","1","2","1,0.5,0.5,0.5,1,0.5,0.5,0.5,1","",""
"","html-keyboard-response","214","164419","0.0-214.0","3ERMJ6L4DZEMZGO28JCP246BCVG7MJ","A13MAWPV4T44I2","3T5ZXGO9DEAUILU6S56NLENRQJRQZJ","","null","<img src=""img/land5.png"" style=""width:200px; border:14px solid green;"">","null","","","","","","",""
"","image-keyboard-response","215","165254","0.0-215.0","3ERMJ6L4DZEMZGO28JCP246BCVG7MJ","A13MAWPV4T44I2","3T5ZXGO9DEAUILU6S56NLENRQJRQZJ","","833.5","img/land5.png","74","834.7999999523163","1","0","2","1,0.5,0.5,0.5,1,0.5,0.5,0.5,1","",""
"","html-keyboard-response","216","165557","0.0-216.0","3ERMJ6L4DZEMZGO28JCP246BCVG7MJ","A13MAWPV4T44I2","3T5ZXGO9DEAUILU6S56NLENRQJRQZJ","","null","<img src=""img/land5.png"" style=""width:200px;border:14px solid red;"">","null","","","","","","",""
"","image-keyboard-response","217","166469","0.0-217.0","3ERMJ6L4DZEMZGO28JCP246BCVG7MJ","A13MAWPV4T44I2","3T5ZXGO9DEAUILU6S56NLENRQJRQZJ","","911.2000000476837","img/land4.png","74","912.1999998092651","1","1","1","1,0.5,0.5,0.5,1,0.5,0.5,0.5,1","",""
"","html-keyboard-response","218","166773","0.0-218.0","3ERMJ6L4DZEMZGO28JCP246BCVG7MJ","A13MAWPV4T44I2","3T5ZXGO9DEAUILU6S56NLENRQJRQZJ","","null","<img src=""img/land4.png"" style=""width:200px; border:14px solid green;"">","null","","","","","","",""
"","image-keyboard-response","219","167646","0.0-219.0","3ERMJ6L4DZEMZGO28JCP246BCVG7MJ","A13MAWPV4T44I2","3T5ZXGO9DEAUILU6S56NLENRQJRQZJ","","872.0999999046326","img/land5.png","74","873.4000000953674","1","0","2","1,0.5,0.5,0.5,1,0.5,0.5,0.5,1","",""
"","html-keyboard-response","220","167950","0.0-220.0","3ERMJ6L4DZEMZGO28JCP246BCVG7MJ","A13MAWPV4T44I2","3T5ZXGO9DEAUILU6S56NLENRQJRQZJ","","null","<img src=""img/land5.png"" style=""width:200px;border:14px solid red;"">","null","","","","","","",""
"","image-keyboard-response","221","168854","0.0-221.0","3ERMJ6L4DZEMZGO28JCP246BCVG7MJ","A13MAWPV4T44I2","3T5ZXGO9DEAUILU6S56NLENRQJRQZJ","","902.2999999523163","img/land6.png","74","903.8999998569489","1","0","3","1,0.5,0.5,0.5,1,0.5,0.5,0.5,1","",""
"","html-keyboard-response","222","169158","0.0-222.0","3ERMJ6L4DZEMZGO28JCP246BCVG7MJ","A13MAWPV4T44I2","3T5ZXGO9DEAUILU6S56NLENRQJRQZJ","","null","<img src=""img/land6.png"" style=""width:200px;border:14px solid red;"">","null","","","","","","",""
"","image-keyboard-response","223","170261","0.0-223.0","3ERMJ6L4DZEMZGO28JCP246BCVG7MJ","A13MAWPV4T44I2","3T5ZXGO9DEAUILU6S56NLENRQJRQZJ","","1102.2999999523163","img/land4.png","74","1103.3999998569489","1","1","1","1,0.5,0.5,0.5,1,0.5,0.5,0.5,1","",""
"","html-keyboard-response","224","170564","0.0-224.0","3ERMJ6L4DZEMZGO28JCP246BCVG7MJ","A13MAWPV4T44I2","3T5ZXGO9DEAUILU6S56NLENRQJRQZJ","","null","<img src=""img/land4.png"" style=""width:200px; border:14px solid green;"">","null","","","","","","",""
"","image-keyboard-response","225","171437","0.0-225.0","3ERMJ6L4DZEMZGO28JCP246BCVG7MJ","A13MAWPV4T44I2","3T5ZXGO9DEAUILU6S56NLENRQJRQZJ","","871.3999998569489","img/land4.png","74","872.2999999523163","1","1","1","1,0.5,0.5,0.5,1,0.5,0.5,0.5,1","",""
"","html-keyboard-response","226","171739","0.0-226.0","3ERMJ6L4DZEMZGO28JCP246BCVG7MJ","A13MAWPV4T44I2","3T5ZXGO9DEAUILU6S56NLENRQJRQZJ","","null","<img src=""img/land4.png"" style=""width:200px; border:14px solid green;"">","null","","","","","","",""
"","image-keyboard-response","227","173726","0.0-227.0","3ERMJ6L4DZEMZGO28JCP246BCVG7MJ","A13MAWPV4T44I2","3T5ZXGO9DEAUILU6S56NLENRQJRQZJ","","1985.6000001430511","img/land6.png","75","1986.7999999523163","2","0","3","1,0.5,0.5,0.5,1,0.5,0.5,0.5,1","",""
"","html-keyboard-response","228","174029","0.0-228.0","3ERMJ6L4DZEMZGO28JCP246BCVG7MJ","A13MAWPV4T44I2","3T5ZXGO9DEAUILU6S56NLENRQJRQZJ","","null","<img src=""img/land6.png"" style=""width:200px;border:14px solid red;"">","null","","","","","","",""
"","image-keyboard-response","229","174990","0.0-229.0","3ERMJ6L4DZEMZGO28JCP246BCVG7MJ","A13MAWPV4T44I2","3T5ZXGO9DEAUILU6S56NLENRQJRQZJ","","958.7000000476837","img/land4.png","74","960.2000000476837","1","1","1","1,0.5,0.5,0.5,1,0.5,0.5,0.5,1","",""
"","html-keyboard-response","230","175293","0.0-230.0","3ERMJ6L4DZEMZGO28JCP246BCVG7MJ","A13MAWPV4T44I2","3T5ZXGO9DEAUILU6S56NLENRQJRQZJ","","null","<img src=""img/land4.png"" style=""width:200px; border:14px solid green;"">","null","","","","","","",""
"","image-keyboard-response","231","176429","0.0-231.0","3ERMJ6L4DZEMZGO28JCP246BCVG7MJ","A13MAWPV4T44I2","3T5ZXGO9DEAUILU6S56NLENRQJRQZJ","","1134.9000000953674","img/land5.png","74","1135.7999999523163","1","0","2","1,0.5,0.5,0.5,1,0.5,0.5,0.5,1","",""
"","html-keyboard-response","232","176732","0.0-232.0","3ERMJ6L4DZEMZGO28JCP246BCVG7MJ","A13MAWPV4T44I2","3T5ZXGO9DEAUILU6S56NLENRQJRQZJ","","null","<img src=""img/land5.png"" style=""width:200px;border:14px solid red;"">","null","","","","","","",""
"","image-keyboard-response","233","177613","0.0-233.0","3ERMJ6L4DZEMZGO28JCP246BCVG7MJ","A13MAWPV4T44I2","3T5ZXGO9DEAUILU6S56NLENRQJRQZJ","","880.2999999523163","img/land5.png","76","881.5","3","0","2","1,0.5,0.5,0.5,1,0.5,0.5,0.5,1","",""
"","html-keyboard-response","234","177916","0.0-234.0","3ERMJ6L4DZEMZGO28JCP246BCVG7MJ","A13MAWPV4T44I2","3T5ZXGO9DEAUILU6S56NLENRQJRQZJ","","null","<img src=""img/land5.png"" style=""width:200px;border:14px solid red;"">","null","","","","","","",""
"","image-keyboard-response","235","179037","0.0-235.0","3ERMJ6L4DZEMZGO28JCP246BCVG7MJ","A13MAWPV4T44I2","3T5ZXGO9DEAUILU6S56NLENRQJRQZJ","","1120","img/land4.png","74","1121.0999999046326","1","1","1","1,0.5,0.5,0.5,1,0.5,0.5,0.5,1","",""
"","html-keyboard-response","236","179341","0.0-236.0","3ERMJ6L4DZEMZGO28JCP246BCVG7MJ","A13MAWPV4T44I2","3T5ZXGO9DEAUILU6S56NLENRQJRQZJ","","null","<img src=""img/land4.png"" style=""width:200px; border:14px solid green;"">","null","","","","","","",""
"","image-keyboard-response","237","180325","0.0-237.0","3ERMJ6L4DZEMZGO28JCP246BCVG7MJ","A13MAWPV4T44I2","3T5ZXGO9DEAUILU6S56NLENRQJRQZJ","","983.5","img/land5.png","75","984.7000000476837","2","1","2","1,0.5,0.5,0.5,1,0.5,0.5,0.5,1","",""
"","html-keyboard-response","238","180628","0.0-238.0","3ERMJ6L4DZEMZGO28JCP246BCVG7MJ","A13MAWPV4T44I2","3T5ZXGO9DEAUILU6S56NLENRQJRQZJ","","null","<img src=""img/land5.png"" style=""width:200px; border:14px solid green;"">","null","","","","","","",""
"","image-keyboard-response","239","181581","0.0-239.0","3ERMJ6L4DZEMZGO28JCP246BCVG7MJ","A13MAWPV4T44I2","3T5ZXGO9DEAUILU6S56NLENRQJRQZJ","","951.3999998569489","img/land4.png","74","952.3999998569489","1","1","1","1,0.5,0.5,0.5,1,0.5,0.5,0.5,1","",""
"","html-keyboard-response","240","181883","0.0-240.0","3ERMJ6L4DZEMZGO28JCP246BCVG7MJ","A13MAWPV4T44I2","3T5ZXGO9DEAUILU6S56NLENRQJRQZJ","","null","<img src=""img/land4.png"" style=""width:200px; border:14px solid green;"">","null","","","","","","",""
"","image-keyboard-response","241","182734","0.0-241.0","3ERMJ6L4DZEMZGO28JCP246BCVG7MJ","A13MAWPV4T44I2","3T5ZXGO9DEAUILU6S56NLENRQJRQZJ","","849.2999999523163","img/land4.png","74","850.7999999523163","1","1","1","1,0.5,0.5,0.5,1,0.5,0.5,0.5,1","",""
"","html-keyboard-response","242","183038","0.0-242.0","3ERMJ6L4DZEMZGO28JCP246BCVG7MJ","A13MAWPV4T44I2","3T5ZXGO9DEAUILU6S56NLENRQJRQZJ","","null","<img src=""img/land4.png"" style=""width:200px; border:14px solid green;"">","null","","","","","","",""
"","image-keyboard-response","243","183790","0.0-243.0","3ERMJ6L4DZEMZGO28JCP246BCVG7MJ","A13MAWPV4T44I2","3T5ZXGO9DEAUILU6S56NLENRQJRQZJ","","750.3999998569489","img/land4.png","74","751.7000000476837","1","1","1","1,0.5,0.5,0.5,1,0.5,0.5,0.5,1","",""
"","html-keyboard-response","244","184093","0.0-244.0","3ERMJ6L4DZEMZGO28JCP246BCVG7MJ","A13MAWPV4T44I2","3T5ZXGO9DEAUILU6S56NLENRQJRQZJ","","null","<img src=""img/land4.png"" style=""width:200px; border:14px solid green;"">","null","","","","","","",""
"","image-keyboard-response","245","184886","0.0-245.0","3ERMJ6L4DZEMZGO28JCP246BCVG7MJ","A13MAWPV4T44I2","3T5ZXGO9DEAUILU6S56NLENRQJRQZJ","","791.2999999523163","img/land4.png","74","792.4000000953674","1","1","1","1,0.5,0.5,0.5,1,0.5,0.5,0.5,1","",""
"","html-keyboard-response","246","185189","0.0-246.0","3ERMJ6L4DZEMZGO28JCP246BCVG7MJ","A13MAWPV4T44I2","3T5ZXGO9DEAUILU6S56NLENRQJRQZJ","","null","<img src=""img/land4.png"" style=""width:200px; border:14px solid green;"">","null","","","","","","",""
"","image-keyboard-response","247","185910","0.0-247.0","3ERMJ6L4DZEMZGO28JCP246BCVG7MJ","A13MAWPV4T44I2","3T5ZXGO9DEAUILU6S56NLENRQJRQZJ","","719.7999999523163","img/land4.png","74","721.2000000476837","1","1","1","1,0.5,0.5,0.5,1,0.5,0.5,0.5,1","",""
"","html-keyboard-response","248","186213","0.0-248.0","3ERMJ6L4DZEMZGO28JCP246BCVG7MJ","A13MAWPV4T44I2","3T5ZXGO9DEAUILU6S56NLENRQJRQZJ","","null","<img src=""img/land4.png"" style=""width:200px; border:14px solid green;"">","null","","","","","","",""
"","image-keyboard-response","249","186965","0.0-249.0","3ERMJ6L4DZEMZGO28JCP246BCVG7MJ","A13MAWPV4T44I2","3T5ZXGO9DEAUILU6S56NLENRQJRQZJ","","751.0999999046326","img/land4.png","74","752","1","1","1","1,0.5,0.5,0.5,1,0.5,0.5,0.5,1","",""
"","html-keyboard-response","250","187268","0.0-250.0","3ERMJ6L4DZEMZGO28JCP246BCVG7MJ","A13MAWPV4T44I2","3T5ZXGO9DEAUILU6S56NLENRQJRQZJ","","null","<img src=""img/land4.png"" style=""width:200px; border:14px solid green;"">","null","","","","","","",""
"","image-keyboard-response","251","187910","0.0-251.0","3ERMJ6L4DZEMZGO28JCP246BCVG7MJ","A13MAWPV4T44I2","3T5ZXGO9DEAUILU6S56NLENRQJRQZJ","","640.5999999046326","img/land4.png","74","641.5","1","1","1","1,0.5,0.5,0.5,1,0.5,0.5,0.5,1","",""
"","html-keyboard-response","252","188213","0.0-252.0","3ERMJ6L4DZEMZGO28JCP246BCVG7MJ","A13MAWPV4T44I2","3T5ZXGO9DEAUILU6S56NLENRQJRQZJ","","null","<img src=""img/land4.png"" style=""width:200px; border:14px solid green;"">","null","","","","","","",""
"","image-keyboard-response","253","189702","0.0-253.0","3ERMJ6L4DZEMZGO28JCP246BCVG7MJ","A13MAWPV4T44I2","3T5ZXGO9DEAUILU6S56NLENRQJRQZJ","","1488.1000001430511","img/land6.png","76","1488.7999999523163","3","1","3","1,0.5,0.5,0.5,1,0.5,0.5,0.5,1","",""
"","html-keyboard-response","254","190004","0.0-254.0","3ERMJ6L4DZEMZGO28JCP246BCVG7MJ","A13MAWPV4T44I2","3T5ZXGO9DEAUILU6S56NLENRQJRQZJ","","null","<img src=""img/land6.png"" style=""width:200px; border:14px solid green;"">","null","","","","","","",""
"","image-keyboard-response","255","191349","0.0-255.0","3ERMJ6L4DZEMZGO28JCP246BCVG7MJ","A13MAWPV4T44I2","3T5ZXGO9DEAUILU6S56NLENRQJRQZJ","","1343.7999999523163","img/land5.png","75","1344.8999998569489","2","1","2","1,0.5,0.5,0.5,1,0.5,0.5,0.5,1","",""
"","html-keyboard-response","256","191652","0.0-256.0","3ERMJ6L4DZEMZGO28JCP246BCVG7MJ","A13MAWPV4T44I2","3T5ZXGO9DEAUILU6S56NLENRQJRQZJ","","null","<img src=""img/land5.png"" style=""width:200px; border:14px solid green;"">","null","","","","","","",""
"","image-keyboard-response","257","192565","0.0-257.0","3ERMJ6L4DZEMZGO28JCP246BCVG7MJ","A13MAWPV4T44I2","3T5ZXGO9DEAUILU6S56NLENRQJRQZJ","","911.5999999046326","img/land5.png","75","912.7000000476837","2","1","2","1,0.5,0.5,0.5,1,0.5,0.5,0.5,1","",""
"","html-keyboard-response","258","192867","0.0-258.0","3ERMJ6L4DZEMZGO28JCP246BCVG7MJ","A13MAWPV4T44I2","3T5ZXGO9DEAUILU6S56NLENRQJRQZJ","","null","<img src=""img/land5.png"" style=""width:200px; border:14px solid green;"">","null","","","","","","",""
"","image-keyboard-response","259","194054","0.0-259.0","3ERMJ6L4DZEMZGO28JCP246BCVG7MJ","A13MAWPV4T44I2","3T5ZXGO9DEAUILU6S56NLENRQJRQZJ","","1184.9000000953674","img/land6.png","76","1186","3","1","3","1,0.5,0.5,0.5,1,0.5,0.5,0.5,1","",""
"","html-keyboard-response","260","194357","0.0-260.0","3ERMJ6L4DZEMZGO28JCP246BCVG7MJ","A13MAWPV4T44I2","3T5ZXGO9DEAUILU6S56NLENRQJRQZJ","","null","<img src=""img/land6.png"" style=""width:200px; border:14px solid green;"">","null","","","","","","",""
"","image-keyboard-response","261","195533","0.0-261.0","3ERMJ6L4DZEMZGO28JCP246BCVG7MJ","A13MAWPV4T44I2","3T5ZXGO9DEAUILU6S56NLENRQJRQZJ","","1174.9000000953674","img/land4.png","74","1176","1","1","1","1,0.5,0.5,0.5,1,0.5,0.5,0.5,1","",""
"","html-keyboard-response","262","195835","0.0-262.0","3ERMJ6L4DZEMZGO28JCP246BCVG7MJ","A13MAWPV4T44I2","3T5ZXGO9DEAUILU6S56NLENRQJRQZJ","","null","<img src=""img/land4.png"" style=""width:200px; border:14px solid green;"">","null","","","","","","",""
"","image-keyboard-response","263","196662","0.0-263.0","3ERMJ6L4DZEMZGO28JCP246BCVG7MJ","A13MAWPV4T44I2","3T5ZXGO9DEAUILU6S56NLENRQJRQZJ","","825","img/land4.png","74","826.2000000476837","1","1","1","1,0.5,0.5,0.5,1,0.5,0.5,0.5,1","",""
"","html-keyboard-response","264","196965","0.0-264.0","3ERMJ6L4DZEMZGO28JCP246BCVG7MJ","A13MAWPV4T44I2","3T5ZXGO9DEAUILU6S56NLENRQJRQZJ","","null","<img src=""img/land4.png"" style=""width:200px; border:14px solid green;"">","null","","","","","","",""
"","image-keyboard-response","265","197718","0.0-265.0","3ERMJ6L4DZEMZGO28JCP246BCVG7MJ","A13MAWPV4T44I2","3T5ZXGO9DEAUILU6S56NLENRQJRQZJ","","752","img/land4.png","74","753.3000001907349","1","1","1","1,0.5,0.5,0.5,1,0.5,0.5,0.5,1","",""
"","html-keyboard-response","266","198022","0.0-266.0","3ERMJ6L4DZEMZGO28JCP246BCVG7MJ","A13MAWPV4T44I2","3T5ZXGO9DEAUILU6S56NLENRQJRQZJ","","null","<img src=""img/land4.png"" style=""width:200px; border:14px solid green;"">","null","","","","","","",""
"","image-keyboard-response","267","199221","0.0-267.0","3ERMJ6L4DZEMZGO28JCP246BCVG7MJ","A13MAWPV4T44I2","3T5ZXGO9DEAUILU6S56NLENRQJRQZJ","","1197.5999999046326","img/land6.png","76","1198.8999998569489","3","1","3","1,0.5,0.5,0.5,1,0.5,0.5,0.5,1","",""
"","html-keyboard-response","268","199523","0.0-268.0","3ERMJ6L4DZEMZGO28JCP246BCVG7MJ","A13MAWPV4T44I2","3T5ZXGO9DEAUILU6S56NLENRQJRQZJ","","null","<img src=""img/land6.png"" style=""width:200px; border:14px solid green;"">","null","","","","","","",""
"","image-keyboard-response","269","200501","0.0-269.0","3ERMJ6L4DZEMZGO28JCP246BCVG7MJ","A13MAWPV4T44I2","3T5ZXGO9DEAUILU6S56NLENRQJRQZJ","","976.9000000953674","img/land5.png","75","977.7000000476837","2","1","2","1,0.5,0.5,0.5,1,0.5,0.5,0.5,1","",""
"","html-keyboard-response","270","200805","0.0-270.0","3ERMJ6L4DZEMZGO28JCP246BCVG7MJ","A13MAWPV4T44I2","3T5ZXGO9DEAUILU6S56NLENRQJRQZJ","","null","<img src=""img/land5.png"" style=""width:200px; border:14px solid green;"">","null","","","","","","",""
"","image-keyboard-response","271","201879","0.0-271.0","3ERMJ6L4DZEMZGO28JCP246BCVG7MJ","A13MAWPV4T44I2","3T5ZXGO9DEAUILU6S56NLENRQJRQZJ","","1071.5","img/land4.png","74","1073.2999999523163","1","1","1","1,0.5,0.5,0.5,1,0.5,0.5,0.5,1","",""
"","html-keyboard-response","272","202181","0.0-272.0","3ERMJ6L4DZEMZGO28JCP246BCVG7MJ","A13MAWPV4T44I2","3T5ZXGO9DEAUILU6S56NLENRQJRQZJ","","null","<img src=""img/land4.png"" style=""width:200px; border:14px solid green;"">","null","","","","","","",""
"","image-keyboard-response","273","202934","0.0-273.0","3ERMJ6L4DZEMZGO28JCP246BCVG7MJ","A13MAWPV4T44I2","3T5ZXGO9DEAUILU6S56NLENRQJRQZJ","","751","img/land4.png","74","752.1000001430511","1","1","1","1,0.5,0.5,0.5,1,0.5,0.5,0.5,1","",""
"","html-keyboard-response","274","203237","0.0-274.0","3ERMJ6L4DZEMZGO28JCP246BCVG7MJ","A13MAWPV4T44I2","3T5ZXGO9DEAUILU6S56NLENRQJRQZJ","","null","<img src=""img/land4.png"" style=""width:200px; border:14px solid green;"">","null","","","","","","",""
"","image-keyboard-response","275","203966","0.0-275.0","3ERMJ6L4DZEMZGO28JCP246BCVG7MJ","A13MAWPV4T44I2","3T5ZXGO9DEAUILU6S56NLENRQJRQZJ","","728","img/land4.png","74","729.0999999046326","1","1","1","1,0.5,0.5,0.5,1,0.5,0.5,0.5,1","",""
"","html-keyboard-response","276","204270","0.0-276.0","3ERMJ6L4DZEMZGO28JCP246BCVG7MJ","A13MAWPV4T44I2","3T5ZXGO9DEAUILU6S56NLENRQJRQZJ","","null","<img src=""img/land4.png"" style=""width:200px; border:14px solid green;"">","null","","","","","","",""
"","image-keyboard-response","277","206597","0.0-277.0","3ERMJ6L4DZEMZGO28JCP246BCVG7MJ","A13MAWPV4T44I2","3T5ZXGO9DEAUILU6S56NLENRQJRQZJ","","2326.600000143051","img/land5.png","76","2327.600000143051","3","1","2","1,0.5,0.5,0.5,1,0.5,0.5,0.5,1","",""
"","html-keyboard-response","278","206900","0.0-278.0","3ERMJ6L4DZEMZGO28JCP246BCVG7MJ","A13MAWPV4T44I2","3T5ZXGO9DEAUILU6S56NLENRQJRQZJ","","null","<img src=""img/land5.png"" style=""width:200px; border:14px solid green;"">","null","","","","","","",""
"","image-keyboard-response","279","207910","0.0-279.0","3ERMJ6L4DZEMZGO28JCP246BCVG7MJ","A13MAWPV4T44I2","3T5ZXGO9DEAUILU6S56NLENRQJRQZJ","","1008.2999999523163","img/land6.png","75","1009.5","2","0","3","1,0.5,0.5,0.5,1,0.5,0.5,0.5,1","",""
"","html-keyboard-response","280","208213","0.0-280.0","3ERMJ6L4DZEMZGO28JCP246BCVG7MJ","A13MAWPV4T44I2","3T5ZXGO9DEAUILU6S56NLENRQJRQZJ","","null","<img src=""img/land6.png"" style=""width:200px;border:14px solid red;"">","null","","","","","","",""
"","image-keyboard-response","281","209286","0.0-281.0","3ERMJ6L4DZEMZGO28JCP246BCVG7MJ","A13MAWPV4T44I2","3T5ZXGO9DEAUILU6S56NLENRQJRQZJ","","1071.4000000953674","img/land4.png","74","1072.3999998569489","1","1","1","1,0.5,0.5,0.5,1,0.5,0.5,0.5,1","",""
"","html-keyboard-response","282","209588","0.0-282.0","3ERMJ6L4DZEMZGO28JCP246BCVG7MJ","A13MAWPV4T44I2","3T5ZXGO9DEAUILU6S56NLENRQJRQZJ","","null","<img src=""img/land4.png"" style=""width:200px; border:14px solid green;"">","null","","","","","","",""
"","image-keyboard-response","283","210349","0.0-283.0","3ERMJ6L4DZEMZGO28JCP246BCVG7MJ","A13MAWPV4T44I2","3T5ZXGO9DEAUILU6S56NLENRQJRQZJ","","760","img/land4.png","74","761","1","1","1","1,0.5,0.5,0.5,1,0.5,0.5,0.5,1","",""
"","html-keyboard-response","284","210651","0.0-284.0","3ERMJ6L4DZEMZGO28JCP246BCVG7MJ","A13MAWPV4T44I2","3T5ZXGO9DEAUILU6S56NLENRQJRQZJ","","null","<img src=""img/land4.png"" style=""width:200px; border:14px solid green;"">","null","","","","","","",""
"","image-keyboard-response","285","211638","0.0-285.0","3ERMJ6L4DZEMZGO28JCP246BCVG7MJ","A13MAWPV4T44I2","3T5ZXGO9DEAUILU6S56NLENRQJRQZJ","","985.8999998569489","img/land6.png","75","986.7999999523163","2","1","3","1,0.5,0.5,0.5,1,0.5,0.5,0.5,1","",""
"","html-keyboard-response","286","211940","0.0-286.0","3ERMJ6L4DZEMZGO28JCP246BCVG7MJ","A13MAWPV4T44I2","3T5ZXGO9DEAUILU6S56NLENRQJRQZJ","","null","<img src=""img/land6.png"" style=""width:200px; border:14px solid green;"">","null","","","","","","",""
"","image-keyboard-response","287","212799","0.0-287.0","3ERMJ6L4DZEMZGO28JCP246BCVG7MJ","A13MAWPV4T44I2","3T5ZXGO9DEAUILU6S56NLENRQJRQZJ","","856.5","img/land6.png","75","858.5999999046326","2","0","3","1,0.5,0.5,0.5,1,0.5,0.5,0.5,1","",""
"","html-keyboard-response","288","213103","0.0-288.0","3ERMJ6L4DZEMZGO28JCP246BCVG7MJ","A13MAWPV4T44I2","3T5ZXGO9DEAUILU6S56NLENRQJRQZJ","","null","<img src=""img/land6.png"" style=""width:200px;border:14px solid red;"">","null","","","","","","",""
"","image-keyboard-response","289","213886","0.0-289.0","3ERMJ6L4DZEMZGO28JCP246BCVG7MJ","A13MAWPV4T44I2","3T5ZXGO9DEAUILU6S56NLENRQJRQZJ","","782.4000000953674","img/land6.png","75","783.5","2","1","3","1,0.5,0.5,0.5,1,0.5,0.5,0.5,1","",""
"","html-keyboard-response","290","214191","0.0-290.0","3ERMJ6L4DZEMZGO28JCP246BCVG7MJ","A13MAWPV4T44I2","3T5ZXGO9DEAUILU6S56NLENRQJRQZJ","","null","<img src=""img/land6.png"" style=""width:200px; border:14px solid green;"">","null","","","","","","",""
"","image-keyboard-response","291","215350","0.0-291.0","3ERMJ6L4DZEMZGO28JCP246BCVG7MJ","A13MAWPV4T44I2","3T5ZXGO9DEAUILU6S56NLENRQJRQZJ","","1157.7000000476837","img/land5.png","76","1159.1000001430511","3","1","2","1,0.5,0.5,0.5,1,0.5,0.5,0.5,1","",""
"","html-keyboard-response","292","215653","0.0-292.0","3ERMJ6L4DZEMZGO28JCP246BCVG7MJ","A13MAWPV4T44I2","3T5ZXGO9DEAUILU6S56NLENRQJRQZJ","","null","<img src=""img/land5.png"" style=""width:200px; border:14px solid green;"">","null","","","","","","",""
"","image-keyboard-response","293","216527","0.0-293.0","3ERMJ6L4DZEMZGO28JCP246BCVG7MJ","A13MAWPV4T44I2","3T5ZXGO9DEAUILU6S56NLENRQJRQZJ","","872.7999999523163","img/land4.png","74","873.8000001907349","1","1","1","1,0.5,0.5,0.5,1,0.5,0.5,0.5,1","",""
"","html-keyboard-response","294","216829","0.0-294.0","3ERMJ6L4DZEMZGO28JCP246BCVG7MJ","A13MAWPV4T44I2","3T5ZXGO9DEAUILU6S56NLENRQJRQZJ","","null","<img src=""img/land4.png"" style=""width:200px; border:14px solid green;"">","null","","","","","","",""
"","image-keyboard-response","295","217695","0.0-295.0","3ERMJ6L4DZEMZGO28JCP246BCVG7MJ","A13MAWPV4T44I2","3T5ZXGO9DEAUILU6S56NLENRQJRQZJ","","864.5","img/land6.png","74","865.7999999523163","1","0","3","1,0.5,0.5,0.5,1,0.5,0.5,0.5,1","",""
"","html-keyboard-response","296","217998","0.0-296.0","3ERMJ6L4DZEMZGO28JCP246BCVG7MJ","A13MAWPV4T44I2","3T5ZXGO9DEAUILU6S56NLENRQJRQZJ","","null","<img src=""img/land6.png"" style=""width:200px;border:14px solid red;"">","null","","","","","","",""
"","image-keyboard-response","297","218151","0.0-297.0","3ERMJ6L4DZEMZGO28JCP246BCVG7MJ","A13MAWPV4T44I2","3T5ZXGO9DEAUILU6S56NLENRQJRQZJ","","151.60000014305115","img/land6.png","75","152.79999995231628","2","1","3","1,0.5,0.5,0.5,1,0.5,0.5,0.5,1","",""
"","html-keyboard-response","298","218454","0.0-298.0","3ERMJ6L4DZEMZGO28JCP246BCVG7MJ","A13MAWPV4T44I2","3T5ZXGO9DEAUILU6S56NLENRQJRQZJ","","null","<img src=""img/land6.png"" style=""width:200px; border:14px solid green;"">","null","","","","","","",""
"","image-keyboard-response","299","219495","0.0-299.0","3ERMJ6L4DZEMZGO28JCP246BCVG7MJ","A13MAWPV4T44I2","3T5ZXGO9DEAUILU6S56NLENRQJRQZJ","","1040.2000000476837","img/land4.png","74","1041","1","1","1","1,0.5,0.5,0.5,1,0.5,0.5,0.5,1","",""
"","html-keyboard-response","300","219799","0.0-300.0","3ERMJ6L4DZEMZGO28JCP246BCVG7MJ","A13MAWPV4T44I2","3T5ZXGO9DEAUILU6S56NLENRQJRQZJ","","null","<img src=""img/land4.png"" style=""width:200px; border:14px solid green;"">","null","","","","","","",""
"","image-keyboard-response","301","221279","0.0-301.0","3ERMJ6L4DZEMZGO28JCP246BCVG7MJ","A13MAWPV4T44I2","3T5ZXGO9DEAUILU6S56NLENRQJRQZJ","","1479","img/land5.png","76","1480.5999999046326","3","1","2","1,0.5,0.5,0.5,1,0.5,0.5,0.5,1","",""
"","html-keyboard-response","302","221583","0.0-302.0","3ERMJ6L4DZEMZGO28JCP246BCVG7MJ","A13MAWPV4T44I2","3T5ZXGO9DEAUILU6S56NLENRQJRQZJ","","null","<img src=""img/land5.png"" style=""width:200px; border:14px solid green;"">","null","","","","","","",""
"","image-keyboard-response","303","222518","0.0-303.0","3ERMJ6L4DZEMZGO28JCP246BCVG7MJ","A13MAWPV4T44I2","3T5ZXGO9DEAUILU6S56NLENRQJRQZJ","","934.7000000476837","img/land6.png","75","935.7000000476837","2","0","3","1,0.5,0.5,0.5,1,0.5,0.5,0.5,1","",""
"","html-keyboard-response","304","222822","0.0-304.0","3ERMJ6L4DZEMZGO28JCP246BCVG7MJ","A13MAWPV4T44I2","3T5ZXGO9DEAUILU6S56NLENRQJRQZJ","","null","<img src=""img/land6.png"" style=""width:200px;border:14px solid red;"">","null","","","","","","",""
"","image-keyboard-response","305","223655","0.0-305.0","3ERMJ6L4DZEMZGO28JCP246BCVG7MJ","A13MAWPV4T44I2","3T5ZXGO9DEAUILU6S56NLENRQJRQZJ","","832","img/land4.png","74","833","1","1","1","1,0.5,0.5,0.5,1,0.5,0.5,0.5,1","",""
"","html-keyboard-response","306","223957","0.0-306.0","3ERMJ6L4DZEMZGO28JCP246BCVG7MJ","A13MAWPV4T44I2","3T5ZXGO9DEAUILU6S56NLENRQJRQZJ","","null","<img src=""img/land4.png"" style=""width:200px; border:14px solid green;"">","null","","","","","","",""
"","image-keyboard-response","307","224703","0.0-307.0","3ERMJ6L4DZEMZGO28JCP246BCVG7MJ","A13MAWPV4T44I2","3T5ZXGO9DEAUILU6S56NLENRQJRQZJ","","744.5","img/land4.png","74","745.7000000476837","1","1","1","1,0.5,0.5,0.5,1,0.5,0.5,0.5,1","",""
"","html-keyboard-response","308","225007","0.0-308.0","3ERMJ6L4DZEMZGO28JCP246BCVG7MJ","A13MAWPV4T44I2","3T5ZXGO9DEAUILU6S56NLENRQJRQZJ","","null","<img src=""img/land4.png"" style=""width:200px; border:14px solid green;"">","null","","","","","","",""
"","image-keyboard-response","309","226127","0.0-309.0","3ERMJ6L4DZEMZGO28JCP246BCVG7MJ","A13MAWPV4T44I2","3T5ZXGO9DEAUILU6S56NLENRQJRQZJ","","1119.5","img/land6.png","75","1120.5","2","1","3","1,0.5,0.5,0.5,1,0.5,0.5,0.5,1","",""
"","html-keyboard-response","310","226430","0.0-310.0","3ERMJ6L4DZEMZGO28JCP246BCVG7MJ","A13MAWPV4T44I2","3T5ZXGO9DEAUILU6S56NLENRQJRQZJ","","null","<img src=""img/land6.png"" style=""width:200px; border:14px solid green;"">","null","","","","","","",""
"","image-keyboard-response","311","228263","0.0-311.0","3ERMJ6L4DZEMZGO28JCP246BCVG7MJ","A13MAWPV4T44I2","3T5ZXGO9DEAUILU6S56NLENRQJRQZJ","","1831.5","img/land6.png","75","1832.5","2","0","3","1,0.5,0.5,0.5,1,0.5,0.5,0.5,1","",""
"","html-keyboard-response","312","228565","0.0-312.0","3ERMJ6L4DZEMZGO28JCP246BCVG7MJ","A13MAWPV4T44I2","3T5ZXGO9DEAUILU6S56NLENRQJRQZJ","","null","<img src=""img/land6.png"" style=""width:200px;border:14px solid red;"">","null","","","","","","",""
"","image-keyboard-response","313","229407","0.0-313.0","3ERMJ6L4DZEMZGO28JCP246BCVG7MJ","A13MAWPV4T44I2","3T5ZXGO9DEAUILU6S56NLENRQJRQZJ","","840.7999999523163","img/land4.png","75","841.7999999523163","2","0","1","1,0.5,0.5,0.5,1,0.5,0.5,0.5,1","",""
"","html-keyboard-response","314","229710","0.0-314.0","3ERMJ6L4DZEMZGO28JCP246BCVG7MJ","A13MAWPV4T44I2","3T5ZXGO9DEAUILU6S56NLENRQJRQZJ","","null","<img src=""img/land4.png"" style=""width:200px;border:14px solid red;"">","null","","","","","","",""
"","image-keyboard-response","315","230992","0.0-315.0","3ERMJ6L4DZEMZGO28JCP246BCVG7MJ","A13MAWPV4T44I2","3T5ZXGO9DEAUILU6S56NLENRQJRQZJ","","1280","img/land4.png","74","1281.5","1","1","1","1,0.5,0.5,0.5,1,0.5,0.5,0.5,1","",""
"","html-keyboard-response","316","231296","0.0-316.0","3ERMJ6L4DZEMZGO28JCP246BCVG7MJ","A13MAWPV4T44I2","3T5ZXGO9DEAUILU6S56NLENRQJRQZJ","","null","<img src=""img/land4.png"" style=""width:200px; border:14px solid green;"">","null","","","","","","",""
"","image-keyboard-response","317","232095","0.0-317.0","3ERMJ6L4DZEMZGO28JCP246BCVG7MJ","A13MAWPV4T44I2","3T5ZXGO9DEAUILU6S56NLENRQJRQZJ","","798.2999999523163","img/land4.png","74","799","1","1","1","1,0.5,0.5,0.5,1,0.5,0.5,0.5,1","",""
"","html-keyboard-response","318","232397","0.0-318.0","3ERMJ6L4DZEMZGO28JCP246BCVG7MJ","A13MAWPV4T44I2","3T5ZXGO9DEAUILU6S56NLENRQJRQZJ","","null","<img src=""img/land4.png"" style=""width:200px; border:14px solid green;"">","null","","","","","","",""
"","image-keyboard-response","319","232975","0.0-319.0","3ERMJ6L4DZEMZGO28JCP246BCVG7MJ","A13MAWPV4T44I2","3T5ZXGO9DEAUILU6S56NLENRQJRQZJ","","576.6999998092651","img/land5.png","74","577.8000001907349","1","0","2","1,0.5,0.5,0.5,1,0.5,0.5,0.5,1","",""
"","html-keyboard-response","320","233278","0.0-320.0","3ERMJ6L4DZEMZGO28JCP246BCVG7MJ","A13MAWPV4T44I2","3T5ZXGO9DEAUILU6S56NLENRQJRQZJ","","null","<img src=""img/land5.png"" style=""width:200px;border:14px solid red;"">","null","","","","","","",""
"","image-keyboard-response","321","234447","0.0-321.0","3ERMJ6L4DZEMZGO28JCP246BCVG7MJ","A13MAWPV4T44I2","3T5ZXGO9DEAUILU6S56NLENRQJRQZJ","","1168.3000001907349","img/land4.png","74","1169.1999998092651","1","1","1","1,0.5,0.5,0.5,1,0.5,0.5,0.5,1","",""
"","html-keyboard-response","322","234750","0.0-322.0","3ERMJ6L4DZEMZGO28JCP246BCVG7MJ","A13MAWPV4T44I2","3T5ZXGO9DEAUILU6S56NLENRQJRQZJ","","null","<img src=""img/land4.png"" style=""width:200px; border:14px solid green;"">","null","","","","","","",""
"","image-keyboard-response","323","235912","0.0-323.0","3ERMJ6L4DZEMZGO28JCP246BCVG7MJ","A13MAWPV4T44I2","3T5ZXGO9DEAUILU6S56NLENRQJRQZJ","","1160.8000001907349","img/land6.png","75","1162","2","1","3","1,0.5,0.5,0.5,1,0.5,0.5,0.5,1","",""
"","html-keyboard-response","324","236215","0.0-324.0","3ERMJ6L4DZEMZGO28JCP246BCVG7MJ","A13MAWPV4T44I2","3T5ZXGO9DEAUILU6S56NLENRQJRQZJ","","null","<img src=""img/land6.png"" style=""width:200px; border:14px solid green;"">","null","","","","","","",""
"","image-keyboard-response","325","237215","0.0-325.0","3ERMJ6L4DZEMZGO28JCP246BCVG7MJ","A13MAWPV4T44I2","3T5ZXGO9DEAUILU6S56NLENRQJRQZJ","","998.2999999523163","img/land5.png","76","999.4000000953674","3","1","2","1,0.5,0.5,0.5,1,0.5,0.5,0.5,1","",""
"","html-keyboard-response","326","237517","0.0-326.0","3ERMJ6L4DZEMZGO28JCP246BCVG7MJ","A13MAWPV4T44I2","3T5ZXGO9DEAUILU6S56NLENRQJRQZJ","","null","<img src=""img/land5.png"" style=""width:200px; border:14px solid green;"">","null","","","","","","",""
"","image-keyboard-response","327","238534","0.0-327.0","3ERMJ6L4DZEMZGO28JCP246BCVG7MJ","A13MAWPV4T44I2","3T5ZXGO9DEAUILU6S56NLENRQJRQZJ","","1016.5","img/land4.png","74","1017.4000000953674","1","1","1","1,0.5,0.5,0.5,1,0.5,0.5,0.5,1","",""
"","html-keyboard-response","328","238836","0.0-328.0","3ERMJ6L4DZEMZGO28JCP246BCVG7MJ","A13MAWPV4T44I2","3T5ZXGO9DEAUILU6S56NLENRQJRQZJ","","null","<img src=""img/land4.png"" style=""width:200px; border:14px solid green;"">","null","","","","","","",""
"","image-keyboard-response","329","240687","0.0-329.0","3ERMJ6L4DZEMZGO28JCP246BCVG7MJ","A13MAWPV4T44I2","3T5ZXGO9DEAUILU6S56NLENRQJRQZJ","","1849.4000000953674","img/land5.png","75","1850.7999999523163","2","1","2","1,0.5,0.5,0.5,1,0.5,0.5,0.5,1","",""
"","html-keyboard-response","330","240991","0.0-330.0","3ERMJ6L4DZEMZGO28JCP246BCVG7MJ","A13MAWPV4T44I2","3T5ZXGO9DEAUILU6S56NLENRQJRQZJ","","null","<img src=""img/land5.png"" style=""width:200px; border:14px solid green;"">","null","","","","","","",""
"","image-keyboard-response","331","242494","0.0-331.0","3ERMJ6L4DZEMZGO28JCP246BCVG7MJ","A13MAWPV4T44I2","3T5ZXGO9DEAUILU6S56NLENRQJRQZJ","","1502","img/land4.png","74","1503.2999999523163","1","1","1","1,0.5,0.5,0.5,1,0.5,0.5,0.5,1","",""
"","html-keyboard-response","332","242796","0.0-332.0","3ERMJ6L4DZEMZGO28JCP246BCVG7MJ","A13MAWPV4T44I2","3T5ZXGO9DEAUILU6S56NLENRQJRQZJ","","null","<img src=""img/land4.png"" style=""width:200px; border:14px solid green;"">","null","","","","","","",""
"","image-keyboard-response","333","243975","0.0-333.0","3ERMJ6L4DZEMZGO28JCP246BCVG7MJ","A13MAWPV4T44I2","3T5ZXGO9DEAUILU6S56NLENRQJRQZJ","","1177.7000000476837","img/land5.png","76","1178.9000000953674","3","0","2","1,0.5,0.5,0.5,1,0.5,0.5,0.5,1","",""
"","html-keyboard-response","334","244279","0.0-334.0","3ERMJ6L4DZEMZGO28JCP246BCVG7MJ","A13MAWPV4T44I2","3T5ZXGO9DEAUILU6S56NLENRQJRQZJ","","null","<img src=""img/land5.png"" style=""width:200px;border:14px solid red;"">","null","","","","","","",""
"","image-keyboard-response","335","245303","0.0-335.0","3ERMJ6L4DZEMZGO28JCP246BCVG7MJ","A13MAWPV4T44I2","3T5ZXGO9DEAUILU6S56NLENRQJRQZJ","","1022.9000000953674","img/land6.png","75","1023.7999999523163","2","1","3","1,0.5,0.5,0.5,1,0.5,0.5,0.5,1","",""
"","html-keyboard-response","336","245605","0.0-336.0","3ERMJ6L4DZEMZGO28JCP246BCVG7MJ","A13MAWPV4T44I2","3T5ZXGO9DEAUILU6S56NLENRQJRQZJ","","null","<img src=""img/land6.png"" style=""width:200px; border:14px solid green;"">","null","","","","","","",""
"","image-keyboard-response","337","246719","0.0-337.0","3ERMJ6L4DZEMZGO28JCP246BCVG7MJ","A13MAWPV4T44I2","3T5ZXGO9DEAUILU6S56NLENRQJRQZJ","","1112.7999999523163","img/land4.png","74","1113.7999999523163","1","1","1","1,0.5,0.5,0.5,1,0.5,0.5,0.5,1","",""
"","html-keyboard-response","338","247022","0.0-338.0","3ERMJ6L4DZEMZGO28JCP246BCVG7MJ","A13MAWPV4T44I2","3T5ZXGO9DEAUILU6S56NLENRQJRQZJ","","null","<img src=""img/land4.png"" style=""width:200px; border:14px solid green;"">","null","","","","","","",""
"","instructions","339","249375","0.0-339.0","3ERMJ6L4DZEMZGO28JCP246BCVG7MJ","A13MAWPV4T44I2","3T5ZXGO9DEAUILU6S56NLENRQJRQZJ","[{""page_index"":0,""viewing_time"":2350.899999856949}]","2351.5","","","","","","","","",""
"","survey-text","340","253296","0.0-340.0-0.0","3ERMJ6L4DZEMZGO28JCP246BCVG7MJ","A13MAWPV4T44I2","3T5ZXGO9DEAUILU6S56NLENRQJRQZJ","","3915.5","","","","","","","","{""Q0"":""34""}",""
"","survey-multi-choice","341","256058","0.0-340.0-1.0","3ERMJ6L4DZEMZGO28JCP246BCVG7MJ","A13MAWPV4T44I2","3T5ZXGO9DEAUILU6S56NLENRQJRQZJ","","2760","","","","","","","","{""gender"":""M""}","[0]"
"","survey-text","342","261881","0.0-341.0","3ERMJ6L4DZEMZGO28JCP246BCVG7MJ","A13MAWPV4T44I2","3T5ZXGO9DEAUILU6S56NLENRQJRQZJ","","5816","","","","","","","","{""Q0"":""A13MAWPV4T44I2""}",""
