"success","trial_type","trial_index","time_elapsed","internal_node_id","assignmentID","mturkID","hitID","view_history","rt","stimulus","key_press","reactionTime","a","r","s","cond","reward_cond","reward_cond_actual","reward_matrix_idx","responses","question_order"
"true","fullscreen","0","3159","0.0-0.0","","","","","","","","","","","","","","","","",""
"","instructions","1","25933","0.0-1.0","","","","[{""page_index"":0,""viewing_time"":3357},{""page_index"":1,""viewing_time"":2674},{""page_index"":2,""viewing_time"":1726},{""page_index"":3,""viewing_time"":4641},{""page_index"":4,""viewing_time"":1869},{""page_index"":5,""viewing_time"":7264},{""page_index"":6,""viewing_time"":1242}]","22773","","","","","","","","","","","",""
"","image-keyboard-response","2","27340","0.0-2.0","","","","","1406","img/land1.png","74","1407","1","0","1","2","1,0,0,0.25,0.5,0.25,0.25,0.25,0.5","0,1,0,0.5,0.25,0.25,0.25,0.25,0.5","3","",""
"","html-keyboard-response","3","27655","0.0-3.0","","","","","null","<img src=""img/land1.png"" style=""width:200px;border:14px solid red;"">","null","","","","","","","","","",""
"","image-keyboard-response","4","28313","0.0-4.0","","","","","657","img/land1.png","75","657","2","1","1","2","1,0,0,0.25,0.5,0.25,0.25,0.25,0.5","0,1,0,0.5,0.25,0.25,0.25,0.25,0.5","3","",""
"","html-keyboard-response","5","28621","0.0-5.0","","","","","null","<img src=""img/land1.png"" style=""width:200px; border:14px solid green;"">","null","","","","","","","","","",""
"","image-keyboard-response","6","29431","0.0-6.0","","","","","808","img/land1.png","75","809","2","1","1","2","1,0,0,0.25,0.5,0.25,0.25,0.25,0.5","0,1,0,0.5,0.25,0.25,0.25,0.25,0.5","3","",""
"","html-keyboard-response","7","29746","0.0-7.0","","","","","null","<img src=""img/land1.png"" style=""width:200px; border:14px solid green;"">","null","","","","","","","","","",""
"","image-keyboard-response","8","30215","0.0-8.0","","","","","468","img/land1.png","75","469","2","1","1","2","1,0,0,0.25,0.5,0.25,0.25,0.25,0.5","0,1,0,0.5,0.25,0.25,0.25,0.25,0.5","3","",""
"","html-keyboard-response","9","30522","0.0-9.0","","","","","null","<img src=""img/land1.png"" style=""width:200px; border:14px solid green;"">","null","","","","","","","","","",""
"","image-keyboard-response","10","30912","0.0-10.0","","","","","389","img/land1.png","75","389","2","1","1","2","1,0,0,0.25,0.5,0.25,0.25,0.25,0.5","0,1,0,0.5,0.25,0.25,0.25,0.25,0.5","3","",""
"","html-keyboard-response","11","31225","0.0-11.0","","","","","null","<img src=""img/land1.png"" style=""width:200px; border:14px solid green;"">","null","","","","","","","","","",""
"","image-keyboard-response","12","31600","0.0-12.0","","","","","375","img/land1.png","75","375","2","1","1","2","1,0,0,0.25,0.5,0.25,0.25,0.25,0.5","0,1,0,0.5,0.25,0.25,0.25,0.25,0.5","3","",""
"","html-keyboard-response","13","31912","0.0-13.0","","","","","null","<img src=""img/land1.png"" style=""width:200px; border:14px solid green;"">","null","","","","","","","","","",""
"","image-keyboard-response","14","32219","0.0-14.0","","","","","307","img/land1.png","75","308","2","1","1","2","1,0,0,0.25,0.5,0.25,0.25,0.25,0.5","0,1,0,0.5,0.25,0.25,0.25,0.25,0.5","3","",""
"","html-keyboard-response","15","32534","0.0-15.0","","","","","null","<img src=""img/land1.png"" style=""width:200px; border:14px solid green;"">","null","","","","","","","","","",""
"","image-keyboard-response","16","32884","0.0-16.0","","","","","348","img/land1.png","75","348","2","1","1","2","1,0,0,0.25,0.5,0.25,0.25,0.25,0.5","0,1,0,0.5,0.25,0.25,0.25,0.25,0.5","3","",""
"","html-keyboard-response","17","33188","0.0-17.0","","","","","null","<img src=""img/land1.png"" style=""width:200px; border:14px solid green;"">","null","","","","","","","","","",""
"","image-keyboard-response","18","33564","0.0-18.0","","","","","374","img/land1.png","75","374","2","1","1","2","1,0,0,0.25,0.5,0.25,0.25,0.25,0.5","0,1,0,0.5,0.25,0.25,0.25,0.25,0.5","3","",""
"","html-keyboard-response","19","33874","0.0-19.0","","","","","null","<img src=""img/land1.png"" style=""width:200px; border:14px solid green;"">","null","","","","","","","","","",""
"","image-keyboard-response","20","34137","0.0-20.0","","","","","262","img/land1.png","75","262","2","1","1","2","1,0,0,0.25,0.5,0.25,0.25,0.25,0.5","0,1,0,0.5,0.25,0.25,0.25,0.25,0.5","3","",""
"","html-keyboard-response","21","34453","0.0-21.0","","","","","null","<img src=""img/land1.png"" style=""width:200px; border:14px solid green;"">","null","","","","","","","","","",""
"","image-keyboard-response","22","34730","0.0-22.0","","","","","276","img/land1.png","75","277","2","1","1","2","1,0,0,0.25,0.5,0.25,0.25,0.25,0.5","0,1,0,0.5,0.25,0.25,0.25,0.25,0.5","3","",""
"","html-keyboard-response","23","35032","0.0-23.0","","","","","null","<img src=""img/land1.png"" style=""width:200px; border:14px solid green;"">","null","","","","","","","","","",""
"","image-keyboard-response","24","35729","0.0-24.0","","","","","697","img/land1.png","75","698","2","1","1","2","1,0,0,0.25,0.5,0.25,0.25,0.25,0.5","0,1,0,0.5,0.25,0.25,0.25,0.25,0.5","3","",""
"","html-keyboard-response","25","36044","0.0-25.0","","","","","null","<img src=""img/land1.png"" style=""width:200px; border:14px solid green;"">","null","","","","","","","","","",""
"","image-keyboard-response","26","36922","0.0-26.0","","","","","877","img/land3.png","76","878","3","0","3","2","1,0,0,0.25,0.5,0.25,0.25,0.25,0.5","0,1,0,0.5,0.25,0.25,0.25,0.25,0.5","3","",""
"","html-keyboard-response","27","37226","0.0-27.0","","","","","null","<img src=""img/land3.png"" style=""width:200px;border:14px solid red;"">","null","","","","","","","","","",""
"","image-keyboard-response","28","37993","0.0-28.0","","","","","766","img/land1.png","75","767","2","1","1","2","1,0,0,0.25,0.5,0.25,0.25,0.25,0.5","0,1,0,0.5,0.25,0.25,0.25,0.25,0.5","3","",""
"","html-keyboard-response","29","38301","0.0-29.0","","","","","null","<img src=""img/land1.png"" style=""width:200px; border:14px solid green;"">","null","","","","","","","","","",""
"","image-keyboard-response","30","38897","0.0-30.0","","","","","595","img/land2.png","74","595","1","1","2","2","1,0,0,0.25,0.5,0.25,0.25,0.25,0.5","0,1,0,0.5,0.25,0.25,0.25,0.25,0.5","3","",""
"","html-keyboard-response","31","39208","0.0-31.0","","","","","null","<img src=""img/land2.png"" style=""width:200px; border:14px solid green;"">","null","","","","","","","","","",""
"","image-keyboard-response","32","40738","0.0-32.0","","","","","1529","img/land3.png","76","1530","3","0","3","2","1,0,0,0.25,0.5,0.25,0.25,0.25,0.5","0,1,0,0.5,0.25,0.25,0.25,0.25,0.5","3","",""
"","html-keyboard-response","33","41045","0.0-33.0","","","","","null","<img src=""img/land3.png"" style=""width:200px;border:14px solid red;"">","null","","","","","","","","","",""
"","image-keyboard-response","34","41916","0.0-34.0","","","","","871","img/land1.png","75","871","2","1","1","2","1,0,0,0.25,0.5,0.25,0.25,0.25,0.5","0,1,0,0.5,0.25,0.25,0.25,0.25,0.5","3","",""
"","html-keyboard-response","35","42233","0.0-35.0","","","","","null","<img src=""img/land1.png"" style=""width:200px; border:14px solid green;"">","null","","","","","","","","","",""
"","image-keyboard-response","36","43040","0.0-36.0","","","","","807","img/land2.png","74","807","1","0","2","2","1,0,0,0.25,0.5,0.25,0.25,0.25,0.5","0,1,0,0.5,0.25,0.25,0.25,0.25,0.5","3","",""
"","html-keyboard-response","37","43344","0.0-37.0","","","","","null","<img src=""img/land2.png"" style=""width:200px;border:14px solid red;"">","null","","","","","","","","","",""
"","image-keyboard-response","38","43952","0.0-38.0","","","","","607","img/land2.png","76","608","3","0","2","2","1,0,0,0.25,0.5,0.25,0.25,0.25,0.5","0,1,0,0.5,0.25,0.25,0.25,0.25,0.5","3","",""
"","html-keyboard-response","39","44260","0.0-39.0","","","","","null","<img src=""img/land2.png"" style=""width:200px;border:14px solid red;"">","null","","","","","","","","","",""
"","image-keyboard-response","40","44811","0.0-40.0","","","","","550","img/land2.png","75","550","2","1","2","2","1,0,0,0.25,0.5,0.25,0.25,0.25,0.5","0,1,0,0.5,0.25,0.25,0.25,0.25,0.5","3","",""
"","html-keyboard-response","41","45124","0.0-41.0","","","","","null","<img src=""img/land2.png"" style=""width:200px; border:14px solid green;"">","null","","","","","","","","","",""
"","image-keyboard-response","42","46524","0.0-42.0","","","","","1401","img/land3.png","76","1401","3","1","3","2","1,0,0,0.25,0.5,0.25,0.25,0.25,0.5","0,1,0,0.5,0.25,0.25,0.25,0.25,0.5","3","",""
"","html-keyboard-response","43","46828","0.0-43.0","","","","","null","<img src=""img/land3.png"" style=""width:200px; border:14px solid green;"">","null","","","","","","","","","",""
"","image-keyboard-response","44","47611","0.0-44.0","","","","","783","img/land1.png","75","783","2","1","1","2","1,0,0,0.25,0.5,0.25,0.25,0.25,0.5","0,1,0,0.5,0.25,0.25,0.25,0.25,0.5","3","",""
"","html-keyboard-response","45","47923","0.0-45.0","","","","","null","<img src=""img/land1.png"" style=""width:200px; border:14px solid green;"">","null","","","","","","","","","",""
"","image-keyboard-response","46","48259","0.0-46.0","","","","","335","img/land1.png","75","336","2","1","1","2","1,0,0,0.25,0.5,0.25,0.25,0.25,0.5","0,1,0,0.5,0.25,0.25,0.25,0.25,0.5","3","",""
"","html-keyboard-response","47","48564","0.0-47.0","","","","","null","<img src=""img/land1.png"" style=""width:200px; border:14px solid green;"">","null","","","","","","","","","",""
"","image-keyboard-response","48","49403","0.0-48.0","","","","","838","img/land3.png","76","839","3","1","3","2","1,0,0,0.25,0.5,0.25,0.25,0.25,0.5","0,1,0,0.5,0.25,0.25,0.25,0.25,0.5","3","",""
"","html-keyboard-response","49","49711","0.0-49.0","","","","","null","<img src=""img/land3.png"" style=""width:200px; border:14px solid green;"">","null","","","","","","","","","",""
"","image-keyboard-response","50","50099","0.0-50.0","","","","","387","img/land3.png","76","388","3","0","3","2","1,0,0,0.25,0.5,0.25,0.25,0.25,0.5","0,1,0,0.5,0.25,0.25,0.25,0.25,0.5","3","",""
"","html-keyboard-response","51","50409","0.0-51.0","","","","","null","<img src=""img/land3.png"" style=""width:200px;border:14px solid red;"">","null","","","","","","","","","",""
"","image-keyboard-response","52","50880","0.0-52.0","","","","","471","img/land1.png","75","472","2","1","1","2","1,0,0,0.25,0.5,0.25,0.25,0.25,0.5","0,1,0,0.5,0.25,0.25,0.25,0.25,0.5","3","",""
"","html-keyboard-response","53","51189","0.0-53.0","","","","","null","<img src=""img/land1.png"" style=""width:200px; border:14px solid green;"">","null","","","","","","","","","",""
"","image-keyboard-response","54","51927","0.0-54.0","","","","","736","img/land2.png","75","736","2","0","2","2","1,0,0,0.25,0.5,0.25,0.25,0.25,0.5","0,1,0,0.5,0.25,0.25,0.25,0.25,0.5","3","",""
"","html-keyboard-response","55","52249","0.0-55.0","","","","","null","<img src=""img/land2.png"" style=""width:200px;border:14px solid red;"">","null","","","","","","","","","",""
"","image-keyboard-response","56","53014","0.0-56.0","","","","","764","img/land1.png","75","764","2","1","1","2","1,0,0,0.25,0.5,0.25,0.25,0.25,0.5","0,1,0,0.5,0.25,0.25,0.25,0.25,0.5","3","",""
"","html-keyboard-response","57","53327","0.0-57.0","","","","","null","<img src=""img/land1.png"" style=""width:200px; border:14px solid green;"">","null","","","","","","","","","",""
"","image-keyboard-response","58","53649","0.0-58.0","","","","","322","img/land1.png","75","322","2","1","1","2","1,0,0,0.25,0.5,0.25,0.25,0.25,0.5","0,1,0,0.5,0.25,0.25,0.25,0.25,0.5","3","",""
"","html-keyboard-response","59","53952","0.0-59.0","","","","","null","<img src=""img/land1.png"" style=""width:200px; border:14px solid green;"">","null","","","","","","","","","",""
"","image-keyboard-response","60","54870","0.0-60.0","","","","","918","img/land2.png","74","919","1","1","2","2","1,0,0,0.25,0.5,0.25,0.25,0.25,0.5","0,1,0,0.5,0.25,0.25,0.25,0.25,0.5","3","",""
"","html-keyboard-response","61","55181","0.0-61.0","","","","","null","<img src=""img/land2.png"" style=""width:200px; border:14px solid green;"">","null","","","","","","","","","",""
"","image-keyboard-response","62","55617","0.0-62.0","","","","","435","img/land2.png","74","436","1","0","2","2","1,0,0,0.25,0.5,0.25,0.25,0.25,0.5","0,1,0,0.5,0.25,0.25,0.25,0.25,0.5","3","",""
"","html-keyboard-response","63","55932","0.0-63.0","","","","","null","<img src=""img/land2.png"" style=""width:200px;border:14px solid red;"">","null","","","","","","","","","",""
"","image-keyboard-response","64","56599","0.0-64.0","","","","","666","img/land1.png","75","666","2","1","1","2","1,0,0,0.25,0.5,0.25,0.25,0.25,0.5","0,1,0,0.5,0.25,0.25,0.25,0.25,0.5","3","",""
"","html-keyboard-response","65","56914","0.0-65.0","","","","","null","<img src=""img/land1.png"" style=""width:200px; border:14px solid green;"">","null","","","","","","","","","",""
"","image-keyboard-response","66","57541","0.0-66.0","","","","","626","img/land3.png","76","626","3","0","3","2","1,0,0,0.25,0.5,0.25,0.25,0.25,0.5","0,1,0,0.5,0.25,0.25,0.25,0.25,0.5","3","",""
"","html-keyboard-response","67","57848","0.0-67.0","","","","","null","<img src=""img/land3.png"" style=""width:200px;border:14px solid red;"">","null","","","","","","","","","",""
"","image-keyboard-response","68","58477","0.0-68.0","","","","","628","img/land1.png","75","629","2","1","1","2","1,0,0,0.25,0.5,0.25,0.25,0.25,0.5","0,1,0,0.5,0.25,0.25,0.25,0.25,0.5","3","",""
"","html-keyboard-response","69","58784","0.0-69.0","","","","","null","<img src=""img/land1.png"" style=""width:200px; border:14px solid green;"">","null","","","","","","","","","",""
"","image-keyboard-response","70","59112","0.0-70.0","","","","","328","img/land1.png","75","328","2","1","1","2","1,0,0,0.25,0.5,0.25,0.25,0.25,0.5","0,1,0,0.5,0.25,0.25,0.25,0.25,0.5","3","",""
"","html-keyboard-response","71","59423","0.0-71.0","","","","","null","<img src=""img/land1.png"" style=""width:200px; border:14px solid green;"">","null","","","","","","","","","",""
"","image-keyboard-response","72","59892","0.0-72.0","","","","","470","img/land3.png","76","470","3","0","3","2","1,0,0,0.25,0.5,0.25,0.25,0.25,0.5","0,1,0,0.5,0.25,0.25,0.25,0.25,0.5","3","",""
"","html-keyboard-response","73","60202","0.0-73.0","","","","","null","<img src=""img/land3.png"" style=""width:200px;border:14px solid red;"">","null","","","","","","","","","",""
"","image-keyboard-response","74","60831","0.0-74.0","","","","","627","img/land3.png","74","627","1","0","3","2","1,0,0,0.25,0.5,0.25,0.25,0.25,0.5","0,1,0,0.5,0.25,0.25,0.25,0.25,0.5","3","",""
"","html-keyboard-response","75","61139","0.0-75.0","","","","","null","<img src=""img/land3.png"" style=""width:200px;border:14px solid red;"">","null","","","","","","","","","",""
"","image-keyboard-response","76","62210","0.0-76.0","","","","","1070","img/land2.png","75","1071","2","0","2","2","1,0,0,0.25,0.5,0.25,0.25,0.25,0.5","0,1,0,0.5,0.25,0.25,0.25,0.25,0.5","3","",""
"","html-keyboard-response","77","62521","0.0-77.0","","","","","null","<img src=""img/land2.png"" style=""width:200px;border:14px solid red;"">","null","","","","","","","","","",""
"","image-keyboard-response","78","64531","0.0-78.0","","","","","","img/land1.png","","2011","-1","0","1","2","1,0,0,0.25,0.5,0.25,0.25,0.25,0.5","0,1,0,0.5,0.25,0.25,0.25,0.25,0.5","3","",""
"","html-keyboard-response","79","64841","0.0-79.0","","","","","null","<img src=""img/land1.png"" style=""width:200px;border:14px solid red;"">","null","","","","","","","","","",""
"","image-keyboard-response","80","65399","0.0-80.0","","","","","557","img/land1.png","75","558","2","1","1","2","1,0,0,0.25,0.5,0.25,0.25,0.25,0.5","0,1,0,0.5,0.25,0.25,0.25,0.25,0.5","3","",""
"","html-keyboard-response","81","65701","0.0-81.0","","","","","null","<img src=""img/land1.png"" style=""width:200px; border:14px solid green;"">","null","","","","","","","","","",""
"","image-keyboard-response","82","66150","0.0-82.0","","","","","449","img/land1.png","75","449","2","1","1","2","1,0,0,0.25,0.5,0.25,0.25,0.25,0.5","0,1,0,0.5,0.25,0.25,0.25,0.25,0.5","3","",""
"","html-keyboard-response","83","66456","0.0-83.0","","","","","null","<img src=""img/land1.png"" style=""width:200px; border:14px solid green;"">","null","","","","","","","","","",""
"","image-keyboard-response","84","67148","0.0-84.0","","","","","691","img/land3.png","76","692","3","1","3","2","1,0,0,0.25,0.5,0.25,0.25,0.25,0.5","0,1,0,0.5,0.25,0.25,0.25,0.25,0.5","3","",""
"","html-keyboard-response","85","67453","0.0-85.0","","","","","null","<img src=""img/land3.png"" style=""width:200px; border:14px solid green;"">","null","","","","","","","","","",""
"","image-keyboard-response","86","68286","0.0-86.0","","","","","832","img/land2.png","74","832","1","0","2","2","1,0,0,0.25,0.5,0.25,0.25,0.25,0.5","0,1,0,0.5,0.25,0.25,0.25,0.25,0.5","3","",""
"","html-keyboard-response","87","68593","0.0-87.0","","","","","null","<img src=""img/land2.png"" style=""width:200px;border:14px solid red;"">","null","","","","","","","","","",""
"","image-keyboard-response","88","69035","0.0-88.0","","","","","441","img/land2.png","74","441","1","1","2","2","1,0,0,0.25,0.5,0.25,0.25,0.25,0.5","0,1,0,0.5,0.25,0.25,0.25,0.25,0.5","3","",""
"","html-keyboard-response","89","69345","0.0-89.0","","","","","null","<img src=""img/land2.png"" style=""width:200px; border:14px solid green;"">","null","","","","","","","","","",""
"","image-keyboard-response","90","69913","0.0-90.0","","","","","568","img/land1.png","75","569","2","1","1","2","1,0,0,0.25,0.5,0.25,0.25,0.25,0.5","0,1,0,0.5,0.25,0.25,0.25,0.25,0.5","3","",""
"","html-keyboard-response","91","70216","0.0-91.0","","","","","null","<img src=""img/land1.png"" style=""width:200px; border:14px solid green;"">","null","","","","","","","","","",""
"","image-keyboard-response","92","70584","0.0-92.0","","","","","368","img/land1.png","75","368","2","1","1","2","1,0,0,0.25,0.5,0.25,0.25,0.25,0.5","0,1,0,0.5,0.25,0.25,0.25,0.25,0.5","3","",""
"","html-keyboard-response","93","70888","0.0-93.0","","","","","null","<img src=""img/land1.png"" style=""width:200px; border:14px solid green;"">","null","","","","","","","","","",""
"","image-keyboard-response","94","71218","0.0-94.0","","","","","330","img/land1.png","75","330","2","1","1","2","1,0,0,0.25,0.5,0.25,0.25,0.25,0.5","0,1,0,0.5,0.25,0.25,0.25,0.25,0.5","3","",""
"","html-keyboard-response","95","71521","0.0-95.0","","","","","null","<img src=""img/land1.png"" style=""width:200px; border:14px solid green;"">","null","","","","","","","","","",""
"","image-keyboard-response","96","71817","0.0-96.0","","","","","296","img/land1.png","75","296","2","1","1","2","1,0,0,0.25,0.5,0.25,0.25,0.25,0.5","0,1,0,0.5,0.25,0.25,0.25,0.25,0.5","3","",""
"","html-keyboard-response","97","72121","0.0-97.0","","","","","null","<img src=""img/land1.png"" style=""width:200px; border:14px solid green;"">","null","","","","","","","","","",""
"","image-keyboard-response","98","72400","0.0-98.0","","","","","279","img/land1.png","75","279","2","1","1","2","1,0,0,0.25,0.5,0.25,0.25,0.25,0.5","0,1,0,0.5,0.25,0.25,0.25,0.25,0.5","3","",""
"","html-keyboard-response","99","72716","0.0-99.0","","","","","null","<img src=""img/land1.png"" style=""width:200px; border:14px solid green;"">","null","","","","","","","","","",""
"","image-keyboard-response","100","72988","0.0-100.0","","","","","271","img/land1.png","75","272","2","1","1","2","1,0,0,0.25,0.5,0.25,0.25,0.25,0.5","0,1,0,0.5,0.25,0.25,0.25,0.25,0.5","3","",""
"","html-keyboard-response","101","73290","0.0-101.0","","","","","null","<img src=""img/land1.png"" style=""width:200px; border:14px solid green;"">","null","","","","","","","","","",""
"","image-keyboard-response","102","73606","0.0-102.0","","","","","315","img/land1.png","75","315","2","1","1","2","1,0,0,0.25,0.5,0.25,0.25,0.25,0.5","0,1,0,0.5,0.25,0.25,0.25,0.25,0.5","3","",""
"","html-keyboard-response","103","73914","0.0-103.0","","","","","null","<img src=""img/land1.png"" style=""width:200px; border:14px solid green;"">","null","","","","","","","","","",""
"","image-keyboard-response","104","74853","0.0-104.0","","","","","938","img/land2.png","75","939","2","0","2","2","1,0,0,0.25,0.5,0.25,0.25,0.25,0.5","0,1,0,0.5,0.25,0.25,0.25,0.25,0.5","3","",""
"","html-keyboard-response","105","75161","0.0-105.0","","","","","null","<img src=""img/land2.png"" style=""width:200px;border:14px solid red;"">","null","","","","","","","","","",""
"","image-keyboard-response","106","76110","0.0-106.0","","","","","948","img/land2.png","76","948","3","0","2","2","1,0,0,0.25,0.5,0.25,0.25,0.25,0.5","0,1,0,0.5,0.25,0.25,0.25,0.25,0.5","3","",""
"","html-keyboard-response","107","76419","0.0-107.0","","","","","null","<img src=""img/land2.png"" style=""width:200px;border:14px solid red;"">","null","","","","","","","","","",""
"","image-keyboard-response","108","77249","0.0-108.0","","","","","830","img/land1.png","75","831","2","1","1","2","1,0,0,0.25,0.5,0.25,0.25,0.25,0.5","0,1,0,0.5,0.25,0.25,0.25,0.25,0.5","3","",""
"","html-keyboard-response","109","77558","0.0-109.0","","","","","null","<img src=""img/land1.png"" style=""width:200px; border:14px solid green;"">","null","","","","","","","","","",""
"","image-keyboard-response","110","78184","0.0-110.0","","","","","624","img/land3.png","76","624","3","1","3","2","1,0,0,0.25,0.5,0.25,0.25,0.25,0.5","0,1,0,0.5,0.25,0.25,0.25,0.25,0.5","3","",""
"","html-keyboard-response","111","78494","0.0-111.0","","","","","null","<img src=""img/land3.png"" style=""width:200px; border:14px solid green;"">","null","","","","","","","","","",""
"","image-keyboard-response","112","78827","0.0-112.0","","","","","332","img/land3.png","76","332","3","0","3","2","1,0,0,0.25,0.5,0.25,0.25,0.25,0.5","0,1,0,0.5,0.25,0.25,0.25,0.25,0.5","3","",""
"","html-keyboard-response","113","79138","0.0-113.0","","","","","null","<img src=""img/land3.png"" style=""width:200px;border:14px solid red;"">","null","","","","","","","","","",""
"","image-keyboard-response","114","79810","0.0-114.0","","","","","671","img/land2.png","75","672","2","0","2","2","1,0,0,0.25,0.5,0.25,0.25,0.25,0.5","0,1,0,0.5,0.25,0.25,0.25,0.25,0.5","3","",""
"","html-keyboard-response","115","80116","0.0-115.0","","","","","null","<img src=""img/land2.png"" style=""width:200px;border:14px solid red;"">","null","","","","","","","","","",""
"","image-keyboard-response","116","80716","0.0-116.0","","","","","600","img/land1.png","75","600","2","1","1","2","1,0,0,0.25,0.5,0.25,0.25,0.25,0.5","0,1,0,0.5,0.25,0.25,0.25,0.25,0.5","3","",""
"","html-keyboard-response","117","81017","0.0-117.0","","","","","null","<img src=""img/land1.png"" style=""width:200px; border:14px solid green;"">","null","","","","","","","","","",""
"","image-keyboard-response","118","81409","0.0-118.0","","","","","392","img/land1.png","75","393","2","1","1","2","1,0,0,0.25,0.5,0.25,0.25,0.25,0.5","0,1,0,0.5,0.25,0.25,0.25,0.25,0.5","3","",""
"","html-keyboard-response","119","81723","0.0-119.0","","","","","null","<img src=""img/land1.png"" style=""width:200px; border:14px solid green;"">","null","","","","","","","","","",""
"","image-keyboard-response","120","82022","0.0-120.0","","","","","298","img/land1.png","75","298","2","1","1","2","1,0,0,0.25,0.5,0.25,0.25,0.25,0.5","0,1,0,0.5,0.25,0.25,0.25,0.25,0.5","3","",""
"","html-keyboard-response","121","82336","0.0-121.0","","","","","null","<img src=""img/land1.png"" style=""width:200px; border:14px solid green;"">","null","","","","","","","","","",""
"","image-keyboard-response","122","83028","0.0-122.0","","","","","692","img/land2.png","74","693","1","0","2","2","1,0,0,0.25,0.5,0.25,0.25,0.25,0.5","0,1,0,0.5,0.25,0.25,0.25,0.25,0.5","3","",""
"","html-keyboard-response","123","83332","0.0-123.0","","","","","null","<img src=""img/land2.png"" style=""width:200px;border:14px solid red;"">","null","","","","","","","","","",""
"","image-keyboard-response","124","83898","0.0-124.0","","","","","565","img/land1.png","75","565","2","1","1","2","1,0,0,0.25,0.5,0.25,0.25,0.25,0.5","0,1,0,0.5,0.25,0.25,0.25,0.25,0.5","3","",""
"","html-keyboard-response","125","84213","0.0-125.0","","","","","null","<img src=""img/land1.png"" style=""width:200px; border:14px solid green;"">","null","","","","","","","","","",""
"","image-keyboard-response","126","84885","0.0-126.0","","","","","671","img/land2.png","74","671","1","0","2","2","1,0,0,0.25,0.5,0.25,0.25,0.25,0.5","0,1,0,0.5,0.25,0.25,0.25,0.25,0.5","3","",""
"","html-keyboard-response","127","85192","0.0-127.0","","","","","null","<img src=""img/land2.png"" style=""width:200px;border:14px solid red;"">","null","","","","","","","","","",""
"","image-keyboard-response","128","85679","0.0-128.0","","","","","486","img/land1.png","75","486","2","1","1","2","1,0,0,0.25,0.5,0.25,0.25,0.25,0.5","0,1,0,0.5,0.25,0.25,0.25,0.25,0.5","3","",""
"","html-keyboard-response","129","85991","0.0-129.0","","","","","null","<img src=""img/land1.png"" style=""width:200px; border:14px solid green;"">","null","","","","","","","","","",""
"","image-keyboard-response","130","86291","0.0-130.0","","","","","299","img/land1.png","75","299","2","1","1","2","1,0,0,0.25,0.5,0.25,0.25,0.25,0.5","0,1,0,0.5,0.25,0.25,0.25,0.25,0.5","3","",""
"","html-keyboard-response","131","86602","0.0-131.0","","","","","null","<img src=""img/land1.png"" style=""width:200px; border:14px solid green;"">","null","","","","","","","","","",""
"","image-keyboard-response","132","86907","0.0-132.0","","","","","306","img/land1.png","75","306","2","1","1","2","1,0,0,0.25,0.5,0.25,0.25,0.25,0.5","0,1,0,0.5,0.25,0.25,0.25,0.25,0.5","3","",""
"","html-keyboard-response","133","87208","0.0-133.0","","","","","null","<img src=""img/land1.png"" style=""width:200px; border:14px solid green;"">","null","","","","","","","","","",""
"","image-keyboard-response","134","88097","0.0-134.0","","","","","889","img/land2.png","76","889","3","0","2","2","1,0,0,0.25,0.5,0.25,0.25,0.25,0.5","0,1,0,0.5,0.25,0.25,0.25,0.25,0.5","3","",""
"","html-keyboard-response","135","88407","0.0-135.0","","","","","null","<img src=""img/land2.png"" style=""width:200px;border:14px solid red;"">","null","","","","","","","","","",""
"","image-keyboard-response","136","88926","0.0-136.0","","","","","520","img/land3.png","75","520","2","0","3","2","1,0,0,0.25,0.5,0.25,0.25,0.25,0.5","0,1,0,0.5,0.25,0.25,0.25,0.25,0.5","3","",""
"","html-keyboard-response","137","89232","0.0-137.0","","","","","null","<img src=""img/land3.png"" style=""width:200px;border:14px solid red;"">","null","","","","","","","","","",""
"","image-keyboard-response","138","89920","0.0-138.0","","","","","689","img/land1.png","75","689","2","1","1","2","1,0,0,0.25,0.5,0.25,0.25,0.25,0.5","0,1,0,0.5,0.25,0.25,0.25,0.25,0.5","3","",""
"","html-keyboard-response","139","90232","0.0-139.0","","","","","null","<img src=""img/land1.png"" style=""width:200px; border:14px solid green;"">","null","","","","","","","","","",""
"","image-keyboard-response","140","90951","0.0-140.0","","","","","720","img/land2.png","74","720","1","0","2","2","1,0,0,0.25,0.5,0.25,0.25,0.25,0.5","0,1,0,0.5,0.25,0.25,0.25,0.25,0.5","3","",""
"","html-keyboard-response","141","91256","0.0-141.0","","","","","null","<img src=""img/land2.png"" style=""width:200px;border:14px solid red;"">","null","","","","","","","","","",""
"","image-keyboard-response","142","91601","0.0-142.0","","","","","346","img/land2.png","74","346","1","0","2","2","1,0,0,0.25,0.5,0.25,0.25,0.25,0.5","0,1,0,0.5,0.25,0.25,0.25,0.25,0.5","3","",""
"","html-keyboard-response","143","91913","0.0-143.0","","","","","null","<img src=""img/land2.png"" style=""width:200px;border:14px solid red;"">","null","","","","","","","","","",""
"","image-keyboard-response","144","92186","0.0-144.0","","","","","273","img/land2.png","74","273","1","0","2","2","1,0,0,0.25,0.5,0.25,0.25,0.25,0.5","0,1,0,0.5,0.25,0.25,0.25,0.25,0.5","3","",""
"","html-keyboard-response","145","92491","0.0-145.0","","","","","null","<img src=""img/land2.png"" style=""width:200px;border:14px solid red;"">","null","","","","","","","","","",""
"","image-keyboard-response","146","93223","0.0-146.0","","","","","731","img/land1.png","75","731","2","1","1","2","1,0,0,0.25,0.5,0.25,0.25,0.25,0.5","0,1,0,0.5,0.25,0.25,0.25,0.25,0.5","3","",""
"","html-keyboard-response","147","93536","0.0-147.0","","","","","null","<img src=""img/land1.png"" style=""width:200px; border:14px solid green;"">","null","","","","","","","","","",""
"","image-keyboard-response","148","93860","0.0-148.0","","","","","322","img/land1.png","75","323","2","1","1","2","1,0,0,0.25,0.5,0.25,0.25,0.25,0.5","0,1,0,0.5,0.25,0.25,0.25,0.25,0.5","3","",""
"","html-keyboard-response","149","94175","0.0-149.0","","","","","null","<img src=""img/land1.png"" style=""width:200px; border:14px solid green;"">","null","","","","","","","","","",""
"","image-keyboard-response","150","94841","0.0-150.0","","","","","666","img/land3.png","76","668","3","1","3","2","1,0,0,0.25,0.5,0.25,0.25,0.25,0.5","0,1,0,0.5,0.25,0.25,0.25,0.25,0.5","3","",""
"","html-keyboard-response","151","95188","0.0-151.0","","","","","null","<img src=""img/land3.png"" style=""width:200px; border:14px solid green;"">","null","","","","","","","","","",""
"","image-keyboard-response","152","95926","0.0-152.0","","","","","737","img/land1.png","75","737","2","1","1","2","1,0,0,0.25,0.5,0.25,0.25,0.25,0.5","0,1,0,0.5,0.25,0.25,0.25,0.25,0.5","3","",""
"","html-keyboard-response","153","96237","0.0-153.0","","","","","null","<img src=""img/land1.png"" style=""width:200px; border:14px solid green;"">","null","","","","","","","","","",""
"","image-keyboard-response","154","96523","0.0-154.0","","","","","285","img/land1.png","75","286","2","1","1","2","1,0,0,0.25,0.5,0.25,0.25,0.25,0.5","0,1,0,0.5,0.25,0.25,0.25,0.25,0.5","3","",""
"","html-keyboard-response","155","96833","0.0-155.0","","","","","null","<img src=""img/land1.png"" style=""width:200px; border:14px solid green;"">","null","","","","","","","","","",""
"","image-keyboard-response","156","97012","0.0-156.0","","","","","179","img/land3.png","75","179","2","1","3","2","1,0,0,0.25,0.5,0.25,0.25,0.25,0.5","0,1,0,0.5,0.25,0.25,0.25,0.25,0.5","3","",""
"","html-keyboard-response","157","97315","0.0-157.0","","","","","null","<img src=""img/land3.png"" style=""width:200px; border:14px solid green;"">","null","","","","","","","","","",""
"","image-keyboard-response","158","98004","0.0-158.0","","","","","689","img/land1.png","75","691","2","1","1","2","1,0,0,0.25,0.5,0.25,0.25,0.25,0.5","0,1,0,0.5,0.25,0.25,0.25,0.25,0.5","3","",""
"","html-keyboard-response","159","98315","0.0-159.0","","","","","null","<img src=""img/land1.png"" style=""width:200px; border:14px solid green;"">","null","","","","","","","","","",""
"","image-keyboard-response","160","98667","0.0-160.0","","","","","352","img/land1.png","75","353","2","1","1","2","1,0,0,0.25,0.5,0.25,0.25,0.25,0.5","0,1,0,0.5,0.25,0.25,0.25,0.25,0.5","3","",""
"","html-keyboard-response","161","98982","0.0-161.0","","","","","null","<img src=""img/land1.png"" style=""width:200px; border:14px solid green;"">","null","","","","","","","","","",""
"","image-keyboard-response","162","99867","0.0-162.0","","","","","884","img/land2.png","76","884","3","0","2","2","1,0,0,0.25,0.5,0.25,0.25,0.25,0.5","0,1,0,0.5,0.25,0.25,0.25,0.25,0.5","3","",""
"","html-keyboard-response","163","100177","0.0-163.0","","","","","null","<img src=""img/land2.png"" style=""width:200px;border:14px solid red;"">","null","","","","","","","","","",""
"","image-keyboard-response","164","100872","0.0-164.0","","","","","695","img/land1.png","75","695","2","1","1","2","1,0,0,0.25,0.5,0.25,0.25,0.25,0.5","0,1,0,0.5,0.25,0.25,0.25,0.25,0.5","3","",""
"","html-keyboard-response","165","101174","0.0-165.0","","","","","null","<img src=""img/land1.png"" style=""width:200px; border:14px solid green;"">","null","","","","","","","","","",""
"","image-keyboard-response","166","101469","0.0-166.0","","","","","294","img/land1.png","75","294","2","1","1","2","1,0,0,0.25,0.5,0.25,0.25,0.25,0.5","0,1,0,0.5,0.25,0.25,0.25,0.25,0.5","3","",""
"","html-keyboard-response","167","101782","0.0-167.0","","","","","null","<img src=""img/land1.png"" style=""width:200px; border:14px solid green;"">","null","","","","","","","","","",""
"","image-keyboard-response","168","102000","0.0-168.0","","","","","219","img/land1.png","75","219","2","1","1","2","1,0,0,0.25,0.5,0.25,0.25,0.25,0.5","0,1,0,0.5,0.25,0.25,0.25,0.25,0.5","3","",""
"","html-keyboard-response","169","102316","0.0-169.0","","","","","null","<img src=""img/land1.png"" style=""width:200px; border:14px solid green;"">","null","","","","","","","","","",""
"","image-keyboard-response","170","102566","0.0-170.0","","","","","248","img/land1.png","75","249","2","1","1","2","1,0,0,0.25,0.5,0.25,0.25,0.25,0.5","0,1,0,0.5,0.25,0.25,0.25,0.25,0.5","3","",""
"","html-keyboard-response","171","102874","0.0-171.0","","","","","null","<img src=""img/land1.png"" style=""width:200px; border:14px solid green;"">","null","","","","","","","","","",""
"","image-keyboard-response","172","103106","0.0-172.0","","","","","232","img/land1.png","75","232","2","1","1","2","1,0,0,0.25,0.5,0.25,0.25,0.25,0.5","0,1,0,0.5,0.25,0.25,0.25,0.25,0.5","3","",""
"","html-keyboard-response","173","103419","0.0-173.0","","","","","null","<img src=""img/land1.png"" style=""width:200px; border:14px solid green;"">","null","","","","","","","","","",""
"","image-keyboard-response","174","103719","0.0-174.0","","","","","300","img/land1.png","75","300","2","1","1","2","1,0,0,0.25,0.5,0.25,0.25,0.25,0.5","0,1,0,0.5,0.25,0.25,0.25,0.25,0.5","3","",""
"","html-keyboard-response","175","104026","0.0-175.0","","","","","null","<img src=""img/land1.png"" style=""width:200px; border:14px solid green;"">","null","","","","","","","","","",""
"","image-keyboard-response","176","104567","0.0-176.0","","","","","541","img/land3.png","76","541","3","1","3","2","1,0,0,0.25,0.5,0.25,0.25,0.25,0.5","0,1,0,0.5,0.25,0.25,0.25,0.25,0.5","3","",""
"","html-keyboard-response","177","104883","0.0-177.0","","","","","null","<img src=""img/land3.png"" style=""width:200px; border:14px solid green;"">","null","","","","","","","","","",""
"","image-keyboard-response","178","105627","0.0-178.0","","","","","744","img/land1.png","75","744","2","1","1","2","1,0,0,0.25,0.5,0.25,0.25,0.25,0.5","0,1,0,0.5,0.25,0.25,0.25,0.25,0.5","3","",""
"","html-keyboard-response","179","105933","0.0-179.0","","","","","null","<img src=""img/land1.png"" style=""width:200px; border:14px solid green;"">","null","","","","","","","","","",""
"","image-keyboard-response","180","106649","0.0-180.0","","","","","715","img/land2.png","74","715","1","1","2","2","1,0,0,0.25,0.5,0.25,0.25,0.25,0.5","0,1,0,0.5,0.25,0.25,0.25,0.25,0.5","3","",""
"","html-keyboard-response","181","106953","0.0-181.0","","","","","null","<img src=""img/land2.png"" style=""width:200px; border:14px solid green;"">","null","","","","","","","","","",""
"","image-keyboard-response","182","107529","0.0-182.0","","","","","576","img/land1.png","75","576","2","1","1","2","1,0,0,0.25,0.5,0.25,0.25,0.25,0.5","0,1,0,0.5,0.25,0.25,0.25,0.25,0.5","3","",""
"","html-keyboard-response","183","107830","0.0-183.0","","","","","null","<img src=""img/land1.png"" style=""width:200px; border:14px solid green;"">","null","","","","","","","","","",""
"","image-keyboard-response","184","108473","0.0-184.0","","","","","642","img/land2.png","74","643","1","0","2","2","1,0,0,0.25,0.5,0.25,0.25,0.25,0.5","0,1,0,0.5,0.25,0.25,0.25,0.25,0.5","3","",""
"","html-keyboard-response","185","108783","0.0-185.0","","","","","null","<img src=""img/land2.png"" style=""width:200px;border:14px solid red;"">","null","","","","","","","","","",""
"","image-keyboard-response","186","109280","0.0-186.0","","","","","496","img/land1.png","75","497","2","1","1","2","1,0,0,0.25,0.5,0.25,0.25,0.25,0.5","0,1,0,0.5,0.25,0.25,0.25,0.25,0.5","3","",""
"","html-keyboard-response","187","109580","0.0-187.0","","","","","null","<img src=""img/land1.png"" style=""width:200px; border:14px solid green;"">","null","","","","","","","","","",""
"","image-keyboard-response","188","109903","0.0-188.0","","","","","322","img/land1.png","75","323","2","1","1","2","1,0,0,0.25,0.5,0.25,0.25,0.25,0.5","0,1,0,0.5,0.25,0.25,0.25,0.25,0.5","3","",""
"","html-keyboard-response","189","110205","0.0-189.0","","","","","null","<img src=""img/land1.png"" style=""width:200px; border:14px solid green;"">","null","","","","","","","","","",""
"","image-keyboard-response","190","110498","0.0-190.0","","","","","293","img/land1.png","75","293","2","1","1","2","1,0,0,0.25,0.5,0.25,0.25,0.25,0.5","0,1,0,0.5,0.25,0.25,0.25,0.25,0.5","3","",""
"","html-keyboard-response","191","110798","0.0-191.0","","","","","null","<img src=""img/land1.png"" style=""width:200px; border:14px solid green;"">","null","","","","","","","","","",""
"","image-keyboard-response","192","111055","0.0-192.0","","","","","256","img/land1.png","75","257","2","1","1","2","1,0,0,0.25,0.5,0.25,0.25,0.25,0.5","0,1,0,0.5,0.25,0.25,0.25,0.25,0.5","3","",""
"","html-keyboard-response","193","111359","0.0-193.0","","","","","null","<img src=""img/land1.png"" style=""width:200px; border:14px solid green;"">","null","","","","","","","","","",""
"","image-keyboard-response","194","111596","0.0-194.0","","","","","236","img/land1.png","75","237","2","1","1","2","1,0,0,0.25,0.5,0.25,0.25,0.25,0.5","0,1,0,0.5,0.25,0.25,0.25,0.25,0.5","3","",""
"","html-keyboard-response","195","111903","0.0-195.0","","","","","null","<img src=""img/land1.png"" style=""width:200px; border:14px solid green;"">","null","","","","","","","","","",""
"","image-keyboard-response","196","112627","0.0-196.0","","","","","723","img/land2.png","75","724","2","0","2","2","1,0,0,0.25,0.5,0.25,0.25,0.25,0.5","0,1,0,0.5,0.25,0.25,0.25,0.25,0.5","3","",""
"","html-keyboard-response","197","112937","0.0-197.0","","","","","null","<img src=""img/land2.png"" style=""width:200px;border:14px solid red;"">","null","","","","","","","","","",""
"","image-keyboard-response","198","113245","0.0-198.0","","","","","307","img/land2.png","75","308","2","0","2","2","1,0,0,0.25,0.5,0.25,0.25,0.25,0.5","0,1,0,0.5,0.25,0.25,0.25,0.25,0.5","3","",""
"","html-keyboard-response","199","113546","0.0-199.0","","","","","null","<img src=""img/land2.png"" style=""width:200px;border:14px solid red;"">","null","","","","","","","","","",""
"","image-keyboard-response","200","114289","0.0-200.0","","","","","743","img/land3.png","76","743","3","1","3","2","1,0,0,0.25,0.5,0.25,0.25,0.25,0.5","0,1,0,0.5,0.25,0.25,0.25,0.25,0.5","3","",""
"","html-keyboard-response","201","114592","0.0-201.0","","","","","null","<img src=""img/land3.png"" style=""width:200px; border:14px solid green;"">","null","","","","","","","","","",""
"","image-keyboard-response","202","114887","0.0-202.0","","","","","295","img/land3.png","76","296","3","0","3","2","1,0,0,0.25,0.5,0.25,0.25,0.25,0.5","0,1,0,0.5,0.25,0.25,0.25,0.25,0.5","3","",""
"","html-keyboard-response","203","115188","0.0-203.0","","","","","null","<img src=""img/land3.png"" style=""width:200px;border:14px solid red;"">","null","","","","","","","","","",""
"","image-keyboard-response","204","115772","0.0-204.0","","","","","584","img/land1.png","75","584","2","1","1","2","1,0,0,0.25,0.5,0.25,0.25,0.25,0.5","0,1,0,0.5,0.25,0.25,0.25,0.25,0.5","3","",""
"","html-keyboard-response","205","116078","0.0-205.0","","","","","null","<img src=""img/land1.png"" style=""width:200px; border:14px solid green;"">","null","","","","","","","","","",""
"","image-keyboard-response","206","117311","0.0-206.0","","","","","1234","img/land3.png","76","1234","3","0","3","2","1,0,0,0.25,0.5,0.25,0.25,0.25,0.5","0,1,0,0.5,0.25,0.25,0.25,0.25,0.5","3","",""
"","html-keyboard-response","207","117621","0.0-207.0","","","","","null","<img src=""img/land3.png"" style=""width:200px;border:14px solid red;"">","null","","","","","","","","","",""
"","image-keyboard-response","208","117938","0.0-208.0","","","","","317","img/land1.png","76","317","3","0","1","2","1,0,0,0.25,0.5,0.25,0.25,0.25,0.5","0,1,0,0.5,0.25,0.25,0.25,0.25,0.5","3","",""
"","html-keyboard-response","209","118243","0.0-209.0","","","","","null","<img src=""img/land1.png"" style=""width:200px;border:14px solid red;"">","null","","","","","","","","","",""
"","image-keyboard-response","210","118611","0.0-210.0","","","","","368","img/land1.png","75","368","2","1","1","2","1,0,0,0.25,0.5,0.25,0.25,0.25,0.5","0,1,0,0.5,0.25,0.25,0.25,0.25,0.5","3","",""
"","html-keyboard-response","211","118920","0.0-211.0","","","","","null","<img src=""img/land1.png"" style=""width:200px; border:14px solid green;"">","null","","","","","","","","","",""
"","image-keyboard-response","212","119248","0.0-212.0","","","","","329","img/land1.png","75","329","2","1","1","2","1,0,0,0.25,0.5,0.25,0.25,0.25,0.5","0,1,0,0.5,0.25,0.25,0.25,0.25,0.5","3","",""
"","html-keyboard-response","213","119559","0.0-213.0","","","","","null","<img src=""img/land1.png"" style=""width:200px; border:14px solid green;"">","null","","","","","","","","","",""
"","image-keyboard-response","214","119958","0.0-214.0","","","","","397","img/land1.png","75","398","2","1","1","2","1,0,0,0.25,0.5,0.25,0.25,0.25,0.5","0,1,0,0.5,0.25,0.25,0.25,0.25,0.5","3","",""
"","html-keyboard-response","215","120261","0.0-215.0","","","","","null","<img src=""img/land1.png"" style=""width:200px; border:14px solid green;"">","null","","","","","","","","","",""
"","image-keyboard-response","216","120567","0.0-216.0","","","","","305","img/land1.png","75","305","2","1","1","2","1,0,0,0.25,0.5,0.25,0.25,0.25,0.5","0,1,0,0.5,0.25,0.25,0.25,0.25,0.5","3","",""
"","html-keyboard-response","217","120871","0.0-217.0","","","","","null","<img src=""img/land1.png"" style=""width:200px; border:14px solid green;"">","null","","","","","","","","","",""
"","image-keyboard-response","218","121578","0.0-218.0","","","","","706","img/land2.png","74","706","1","1","2","2","1,0,0,0.25,0.5,0.25,0.25,0.25,0.5","0,1,0,0.5,0.25,0.25,0.25,0.25,0.5","3","",""
"","html-keyboard-response","219","121893","0.0-219.0","","","","","null","<img src=""img/land2.png"" style=""width:200px; border:14px solid green;"">","null","","","","","","","","","",""
"","image-keyboard-response","220","122391","0.0-220.0","","","","","498","img/land1.png","75","498","2","1","1","2","1,0,0,0.25,0.5,0.25,0.25,0.25,0.5","0,1,0,0.5,0.25,0.25,0.25,0.25,0.5","3","",""
"","html-keyboard-response","221","122703","0.0-221.0","","","","","null","<img src=""img/land1.png"" style=""width:200px; border:14px solid green;"">","null","","","","","","","","","",""
"","image-keyboard-response","222","123418","0.0-222.0","","","","","712","img/land3.png","76","715","3","1","3","2","1,0,0,0.25,0.5,0.25,0.25,0.25,0.5","0,1,0,0.5,0.25,0.25,0.25,0.25,0.5","3","",""
"","html-keyboard-response","223","123721","0.0-223.0","","","","","null","<img src=""img/land3.png"" style=""width:200px; border:14px solid green;"">","null","","","","","","","","","",""
"","image-keyboard-response","224","124035","0.0-224.0","","","","","312","img/land3.png","76","313","3","0","3","2","1,0,0,0.25,0.5,0.25,0.25,0.25,0.5","0,1,0,0.5,0.25,0.25,0.25,0.25,0.5","3","",""
"","html-keyboard-response","225","124339","0.0-225.0","","","","","null","<img src=""img/land3.png"" style=""width:200px;border:14px solid red;"">","null","","","","","","","","","",""
"","image-keyboard-response","226","124856","0.0-226.0","","","","","517","img/land1.png","75","518","2","1","1","2","1,0,0,0.25,0.5,0.25,0.25,0.25,0.5","0,1,0,0.5,0.25,0.25,0.25,0.25,0.5","3","",""
"","html-keyboard-response","227","125164","0.0-227.0","","","","","null","<img src=""img/land1.png"" style=""width:200px; border:14px solid green;"">","null","","","","","","","","","",""
"","image-keyboard-response","228","125881","0.0-228.0","","","","","715","img/land3.png","76","716","3","0","3","2","1,0,0,0.25,0.5,0.25,0.25,0.25,0.5","0,1,0,0.5,0.25,0.25,0.25,0.25,0.5","3","",""
"","html-keyboard-response","229","126193","0.0-229.0","","","","","null","<img src=""img/land3.png"" style=""width:200px;border:14px solid red;"">","null","","","","","","","","","",""
"","image-keyboard-response","230","126532","0.0-230.0","","","","","338","img/land3.png","76","339","3","0","3","2","1,0,0,0.25,0.5,0.25,0.25,0.25,0.5","0,1,0,0.5,0.25,0.25,0.25,0.25,0.5","3","",""
"","html-keyboard-response","231","126845","0.0-231.0","","","","","null","<img src=""img/land3.png"" style=""width:200px;border:14px solid red;"">","null","","","","","","","","","",""
"","image-keyboard-response","232","127426","0.0-232.0","","","","","580","img/land2.png","75","580","2","1","2","2","1,0,0,0.25,0.5,0.25,0.25,0.25,0.5","0,1,0,0.5,0.25,0.25,0.25,0.25,0.5","3","",""
"","html-keyboard-response","233","127735","0.0-233.0","","","","","null","<img src=""img/land2.png"" style=""width:200px; border:14px solid green;"">","null","","","","","","","","","",""
"","image-keyboard-response","234","128443","0.0-234.0","","","","","708","img/land1.png","75","708","2","1","1","2","1,0,0,0.25,0.5,0.25,0.25,0.25,0.5","0,1,0,0.5,0.25,0.25,0.25,0.25,0.5","3","",""
"","html-keyboard-response","235","128750","0.0-235.0","","","","","null","<img src=""img/land1.png"" style=""width:200px; border:14px solid green;"">","null","","","","","","","","","",""
"","image-keyboard-response","236","130754","0.0-236.0","","","","","","img/land3.png","","2004","-1","0","3","2","1,0,0,0.25,0.5,0.25,0.25,0.25,0.5","0,1,0,0.5,0.25,0.25,0.25,0.25,0.5","3","",""
"","html-keyboard-response","237","131065","0.0-237.0","","","","","null","<img src=""img/land3.png"" style=""width:200px;border:14px solid red;"">","null","","","","","","","","","",""
"","image-keyboard-response","238","131203","0.0-238.0","","","","","138","img/land3.png","74","138","1","0","3","2","1,0,0,0.25,0.5,0.25,0.25,0.25,0.5","0,1,0,0.5,0.25,0.25,0.25,0.25,0.5","3","",""
"","html-keyboard-response","239","131518","0.0-239.0","","","","","null","<img src=""img/land3.png"" style=""width:200px;border:14px solid red;"">","null","","","","","","","","","",""
"","image-keyboard-response","240","131770","0.0-240.0","","","","","251","img/land1.png","74","252","1","0","1","2","1,0,0,0.25,0.5,0.25,0.25,0.25,0.5","0,1,0,0.5,0.25,0.25,0.25,0.25,0.5","3","",""
"","html-keyboard-response","241","132078","0.0-241.0","","","","","null","<img src=""img/land1.png"" style=""width:200px;border:14px solid red;"">","null","","","","","","","","","",""
"","image-keyboard-response","242","132449","0.0-242.0","","","","","371","img/land1.png","75","371","2","1","1","2","1,0,0,0.25,0.5,0.25,0.25,0.25,0.5","0,1,0,0.5,0.25,0.25,0.25,0.25,0.5","3","",""
"","html-keyboard-response","243","132764","0.0-243.0","","","","","null","<img src=""img/land1.png"" style=""width:200px; border:14px solid green;"">","null","","","","","","","","","",""
"","image-keyboard-response","244","133129","0.0-244.0","","","","","364","img/land1.png","75","364","2","1","1","2","1,0,0,0.25,0.5,0.25,0.25,0.25,0.5","0,1,0,0.5,0.25,0.25,0.25,0.25,0.5","3","",""
"","html-keyboard-response","245","133438","0.0-245.0","","","","","null","<img src=""img/land1.png"" style=""width:200px; border:14px solid green;"">","null","","","","","","","","","",""
"","image-keyboard-response","246","133746","0.0-246.0","","","","","307","img/land1.png","75","308","2","1","1","2","1,0,0,0.25,0.5,0.25,0.25,0.25,0.5","0,1,0,0.5,0.25,0.25,0.25,0.25,0.5","3","",""
"","html-keyboard-response","247","134048","0.0-247.0","","","","","null","<img src=""img/land1.png"" style=""width:200px; border:14px solid green;"">","null","","","","","","","","","",""
"","image-keyboard-response","248","134324","0.0-248.0","","","","","274","img/land1.png","75","276","2","1","1","2","1,0,0,0.25,0.5,0.25,0.25,0.25,0.5","0,1,0,0.5,0.25,0.25,0.25,0.25,0.5","3","",""
"","html-keyboard-response","249","134640","0.0-249.0","","","","","null","<img src=""img/land1.png"" style=""width:200px; border:14px solid green;"">","null","","","","","","","","","",""
"","image-keyboard-response","250","134953","0.0-250.0","","","","","313","img/land1.png","75","313","2","1","1","2","1,0,0,0.25,0.5,0.25,0.25,0.25,0.5","0,1,0,0.5,0.25,0.25,0.25,0.25,0.5","3","",""
"","html-keyboard-response","251","135263","0.0-251.0","","","","","null","<img src=""img/land1.png"" style=""width:200px; border:14px solid green;"">","null","","","","","","","","","",""
"","image-keyboard-response","252","136247","0.0-252.0","","","","","984","img/land2.png","76","984","3","0","2","2","1,0,0,0.25,0.5,0.25,0.25,0.25,0.5","0,1,0,0.5,0.25,0.25,0.25,0.25,0.5","3","",""
"","html-keyboard-response","253","136553","0.0-253.0","","","","","null","<img src=""img/land2.png"" style=""width:200px;border:14px solid red;"">","null","","","","","","","","","",""
"","image-keyboard-response","254","137204","0.0-254.0","","","","","650","img/land3.png","76","650","3","0","3","2","1,0,0,0.25,0.5,0.25,0.25,0.25,0.5","0,1,0,0.5,0.25,0.25,0.25,0.25,0.5","3","",""
"","html-keyboard-response","255","137519","0.0-255.0","","","","","null","<img src=""img/land3.png"" style=""width:200px;border:14px solid red;"">","null","","","","","","","","","",""
"","image-keyboard-response","256","138224","0.0-256.0","","","","","705","img/land2.png","76","705","3","0","2","2","1,0,0,0.25,0.5,0.25,0.25,0.25,0.5","0,1,0,0.5,0.25,0.25,0.25,0.25,0.5","3","",""
"","html-keyboard-response","257","138533","0.0-257.0","","","","","null","<img src=""img/land2.png"" style=""width:200px;border:14px solid red;"">","null","","","","","","","","","",""
"","image-keyboard-response","258","139058","0.0-258.0","","","","","525","img/land1.png","75","525","2","1","1","2","1,0,0,0.25,0.5,0.25,0.25,0.25,0.5","0,1,0,0.5,0.25,0.25,0.25,0.25,0.5","3","",""
"","html-keyboard-response","259","139373","0.0-259.0","","","","","null","<img src=""img/land1.png"" style=""width:200px; border:14px solid green;"">","null","","","","","","","","","",""
"","image-keyboard-response","260","139905","0.0-260.0","","","","","531","img/land3.png","76","531","3","0","3","2","1,0,0,0.25,0.5,0.25,0.25,0.25,0.5","0,1,0,0.5,0.25,0.25,0.25,0.25,0.5","3","",""
"","html-keyboard-response","261","140213","0.0-261.0","","","","","null","<img src=""img/land3.png"" style=""width:200px;border:14px solid red;"">","null","","","","","","","","","",""
"","image-keyboard-response","262","140751","0.0-262.0","","","","","537","img/land1.png","76","538","3","0","1","2","1,0,0,0.25,0.5,0.25,0.25,0.25,0.5","0,1,0,0.5,0.25,0.25,0.25,0.25,0.5","3","",""
"","html-keyboard-response","263","141056","0.0-263.0","","","","","null","<img src=""img/land1.png"" style=""width:200px;border:14px solid red;"">","null","","","","","","","","","",""
"","image-keyboard-response","264","141699","0.0-264.0","","","","","643","img/land2.png","75","643","2","1","2","2","1,0,0,0.25,0.5,0.25,0.25,0.25,0.5","0,1,0,0.5,0.25,0.25,0.25,0.25,0.5","3","",""
"","html-keyboard-response","265","142004","0.0-265.0","","","","","null","<img src=""img/land2.png"" style=""width:200px; border:14px solid green;"">","null","","","","","","","","","",""
"","image-keyboard-response","266","142557","0.0-266.0","","","","","552","img/land1.png","75","553","2","1","1","2","1,0,0,0.25,0.5,0.25,0.25,0.25,0.5","0,1,0,0.5,0.25,0.25,0.25,0.25,0.5","3","",""
"","html-keyboard-response","267","142863","0.0-267.0","","","","","null","<img src=""img/land1.png"" style=""width:200px; border:14px solid green;"">","null","","","","","","","","","",""
"","image-keyboard-response","268","143267","0.0-268.0","","","","","404","img/land2.png","75","404","2","0","2","2","1,0,0,0.25,0.5,0.25,0.25,0.25,0.5","0,1,0,0.5,0.25,0.25,0.25,0.25,0.5","3","",""
"","html-keyboard-response","269","143582","0.0-269.0","","","","","null","<img src=""img/land2.png"" style=""width:200px;border:14px solid red;"">","null","","","","","","","","","",""
"","image-keyboard-response","270","144475","0.0-270.0","","","","","892","img/land3.png","76","893","3","1","3","2","1,0,0,0.25,0.5,0.25,0.25,0.25,0.5","0,1,0,0.5,0.25,0.25,0.25,0.25,0.5","3","",""
"","html-keyboard-response","271","144778","0.0-271.0","","","","","null","<img src=""img/land3.png"" style=""width:200px; border:14px solid green;"">","null","","","","","","","","","",""
"","image-keyboard-response","272","145307","0.0-272.0","","","","","529","img/land1.png","75","529","2","1","1","2","1,0,0,0.25,0.5,0.25,0.25,0.25,0.5","0,1,0,0.5,0.25,0.25,0.25,0.25,0.5","3","",""
"","html-keyboard-response","273","145620","0.0-273.0","","","","","null","<img src=""img/land1.png"" style=""width:200px; border:14px solid green;"">","null","","","","","","","","","",""
"","image-keyboard-response","274","146147","0.0-274.0","","","","","526","img/land3.png","76","527","3","1","3","2","1,0,0,0.25,0.5,0.25,0.25,0.25,0.5","0,1,0,0.5,0.25,0.25,0.25,0.25,0.5","3","",""
"","html-keyboard-response","275","146448","0.0-275.0","","","","","null","<img src=""img/land3.png"" style=""width:200px; border:14px solid green;"">","null","","","","","","","","","",""
"","image-keyboard-response","276","146900","0.0-276.0","","","","","451","img/land1.png","75","451","2","1","1","2","1,0,0,0.25,0.5,0.25,0.25,0.25,0.5","0,1,0,0.5,0.25,0.25,0.25,0.25,0.5","3","",""
"","html-keyboard-response","277","147210","0.0-277.0","","","","","null","<img src=""img/land1.png"" style=""width:200px; border:14px solid green;"">","null","","","","","","","","","",""
"","image-keyboard-response","278","147541","0.0-278.0","","","","","331","img/land1.png","75","331","2","1","1","2","1,0,0,0.25,0.5,0.25,0.25,0.25,0.5","0,1,0,0.5,0.25,0.25,0.25,0.25,0.5","3","",""
"","html-keyboard-response","279","147854","0.0-279.0","","","","","null","<img src=""img/land1.png"" style=""width:200px; border:14px solid green;"">","null","","","","","","","","","",""
"","image-keyboard-response","280","148093","0.0-280.0","","","","","240","img/land1.png","75","240","2","1","1","2","1,0,0,0.25,0.5,0.25,0.25,0.25,0.5","0,1,0,0.5,0.25,0.25,0.25,0.25,0.5","3","",""
"","html-keyboard-response","281","148398","0.0-281.0","","","","","null","<img src=""img/land1.png"" style=""width:200px; border:14px solid green;"">","null","","","","","","","","","",""
"","image-keyboard-response","282","149042","0.0-282.0","","","","","643","img/land3.png","75","644","2","0","3","2","1,0,0,0.25,0.5,0.25,0.25,0.25,0.5","0,1,0,0.5,0.25,0.25,0.25,0.25,0.5","3","",""
"","html-keyboard-response","283","149348","0.0-283.0","","","","","null","<img src=""img/land3.png"" style=""width:200px;border:14px solid red;"">","null","","","","","","","","","",""
"","image-keyboard-response","284","149852","0.0-284.0","","","","","504","img/land1.png","75","504","2","1","1","2","1,0,0,0.25,0.5,0.25,0.25,0.25,0.5","0,1,0,0.5,0.25,0.25,0.25,0.25,0.5","3","",""
"","html-keyboard-response","285","150161","0.0-285.0","","","","","null","<img src=""img/land1.png"" style=""width:200px; border:14px solid green;"">","null","","","","","","","","","",""
"","image-keyboard-response","286","150490","0.0-286.0","","","","","329","img/land1.png","75","329","2","1","1","2","1,0,0,0.25,0.5,0.25,0.25,0.25,0.5","0,1,0,0.5,0.25,0.25,0.25,0.25,0.5","3","",""
"","html-keyboard-response","287","150801","0.0-287.0","","","","","null","<img src=""img/land1.png"" style=""width:200px; border:14px solid green;"">","null","","","","","","","","","",""
"","image-keyboard-response","288","151090","0.0-288.0","","","","","290","img/land1.png","75","290","2","1","1","2","1,0,0,0.25,0.5,0.25,0.25,0.25,0.5","0,1,0,0.5,0.25,0.25,0.25,0.25,0.5","3","",""
"","html-keyboard-response","289","151405","0.0-289.0","","","","","null","<img src=""img/land1.png"" style=""width:200px; border:14px solid green;"">","null","","","","","","","","","",""
"","image-keyboard-response","290","151682","0.0-290.0","","","","","277","img/land1.png","75","277","2","1","1","2","1,0,0,0.25,0.5,0.25,0.25,0.25,0.5","0,1,0,0.5,0.25,0.25,0.25,0.25,0.5","3","",""
"","html-keyboard-response","291","151987","0.0-291.0","","","","","null","<img src=""img/land1.png"" style=""width:200px; border:14px solid green;"">","null","","","","","","","","","",""
"","image-keyboard-response","292","152261","0.0-292.0","","","","","273","img/land1.png","75","274","2","1","1","2","1,0,0,0.25,0.5,0.25,0.25,0.25,0.5","0,1,0,0.5,0.25,0.25,0.25,0.25,0.5","3","",""
"","html-keyboard-response","293","152568","0.0-293.0","","","","","null","<img src=""img/land1.png"" style=""width:200px; border:14px solid green;"">","null","","","","","","","","","",""
"","image-keyboard-response","294","152812","0.0-294.0","","","","","244","img/land1.png","75","245","2","1","1","2","1,0,0,0.25,0.5,0.25,0.25,0.25,0.5","0,1,0,0.5,0.25,0.25,0.25,0.25,0.5","3","",""
"","html-keyboard-response","295","153127","0.0-295.0","","","","","null","<img src=""img/land1.png"" style=""width:200px; border:14px solid green;"">","null","","","","","","","","","",""
"","image-keyboard-response","296","153407","0.0-296.0","","","","","279","img/land1.png","75","279","2","1","1","2","1,0,0,0.25,0.5,0.25,0.25,0.25,0.5","0,1,0,0.5,0.25,0.25,0.25,0.25,0.5","3","",""
"","html-keyboard-response","297","153720","0.0-297.0","","","","","null","<img src=""img/land1.png"" style=""width:200px; border:14px solid green;"">","null","","","","","","","","","",""
"","image-keyboard-response","298","154232","0.0-298.0","","","","","510","img/land3.png","76","512","3","0","3","2","1,0,0,0.25,0.5,0.25,0.25,0.25,0.5","0,1,0,0.5,0.25,0.25,0.25,0.25,0.5","3","",""
"","html-keyboard-response","299","154542","0.0-299.0","","","","","null","<img src=""img/land3.png"" style=""width:200px;border:14px solid red;"">","null","","","","","","","","","",""
"","image-keyboard-response","300","155075","0.0-300.0","","","","","533","img/land1.png","75","534","2","1","1","2","1,0,0,0.25,0.5,0.25,0.25,0.25,0.5","0,1,0,0.5,0.25,0.25,0.25,0.25,0.5","3","",""
"","html-keyboard-response","301","155383","0.0-301.0","","","","","null","<img src=""img/land1.png"" style=""width:200px; border:14px solid green;"">","null","","","","","","","","","",""
"","image-keyboard-response","302","156250","0.0-302.0","","","","","867","img/land6.png","74","867","1","0","3","1","1,0,0,0.25,0.5,0.25,0.25,0.25,0.5","1,0,0,0.25,0.5,0.25,0.25,0.25,0.5","1","",""
"","html-keyboard-response","303","156552","0.0-303.0","","","","","null","<img src=""img/land6.png"" style=""width:200px;border:14px solid red;"">","null","","","","","","","","","",""
"","image-keyboard-response","304","157398","0.0-304.0","","","","","845","img/land5.png","75","845","2","1","2","1","1,0,0,0.25,0.5,0.25,0.25,0.25,0.5","1,0,0,0.25,0.5,0.25,0.25,0.25,0.5","1","",""
"","html-keyboard-response","305","157708","0.0-305.0","","","","","null","<img src=""img/land5.png"" style=""width:200px; border:14px solid green;"">","null","","","","","","","","","",""
"","image-keyboard-response","306","158412","0.0-306.0","","","","","703","img/land4.png","76","703","3","0","1","1","1,0,0,0.25,0.5,0.25,0.25,0.25,0.5","1,0,0,0.25,0.5,0.25,0.25,0.25,0.5","1","",""
"","html-keyboard-response","307","158721","0.0-307.0","","","","","null","<img src=""img/land4.png"" style=""width:200px;border:14px solid red;"">","null","","","","","","","","","",""
"","image-keyboard-response","308","159421","0.0-308.0","","","","","699","img/land6.png","75","700","2","0","3","1","1,0,0,0.25,0.5,0.25,0.25,0.25,0.5","1,0,0,0.25,0.5,0.25,0.25,0.25,0.5","1","",""
"","html-keyboard-response","309","159732","0.0-309.0","","","","","null","<img src=""img/land6.png"" style=""width:200px;border:14px solid red;"">","null","","","","","","","","","",""
"","image-keyboard-response","310","160417","0.0-310.0","","","","","685","img/land5.png","75","685","2","0","2","1","1,0,0,0.25,0.5,0.25,0.25,0.25,0.5","1,0,0,0.25,0.5,0.25,0.25,0.25,0.5","1","",""
"","html-keyboard-response","311","160722","0.0-311.0","","","","","null","<img src=""img/land5.png"" style=""width:200px;border:14px solid red;"">","null","","","","","","","","","",""
"","image-keyboard-response","312","161129","0.0-312.0","","","","","406","img/land4.png","74","407","1","1","1","1","1,0,0,0.25,0.5,0.25,0.25,0.25,0.5","1,0,0,0.25,0.5,0.25,0.25,0.25,0.5","1","",""
"","html-keyboard-response","313","161437","0.0-313.0","","","","","null","<img src=""img/land4.png"" style=""width:200px; border:14px solid green;"">","null","","","","","","","","","",""
"","image-keyboard-response","314","162434","0.0-314.0","","","","","997","img/land5.png","75","997","2","1","2","1","1,0,0,0.25,0.5,0.25,0.25,0.25,0.5","1,0,0,0.25,0.5,0.25,0.25,0.25,0.5","1","",""
"","html-keyboard-response","315","162745","0.0-315.0","","","","","null","<img src=""img/land5.png"" style=""width:200px; border:14px solid green;"">","null","","","","","","","","","",""
"","image-keyboard-response","316","163661","0.0-316.0","","","","","915","img/land4.png","76","915","3","0","1","1","1,0,0,0.25,0.5,0.25,0.25,0.25,0.5","1,0,0,0.25,0.5,0.25,0.25,0.25,0.5","1","",""
"","html-keyboard-response","317","163975","0.0-317.0","","","","","null","<img src=""img/land4.png"" style=""width:200px;border:14px solid red;"">","null","","","","","","","","","",""
"","image-keyboard-response","318","164554","0.0-318.0","","","","","578","img/land5.png","75","578","2","1","2","1","1,0,0,0.25,0.5,0.25,0.25,0.25,0.5","1,0,0,0.25,0.5,0.25,0.25,0.25,0.5","1","",""
"","html-keyboard-response","319","164864","0.0-319.0","","","","","null","<img src=""img/land5.png"" style=""width:200px; border:14px solid green;"">","null","","","","","","","","","",""
"","image-keyboard-response","320","165334","0.0-320.0","","","","","471","img/land6.png","74","471","1","1","3","1","1,0,0,0.25,0.5,0.25,0.25,0.25,0.5","1,0,0,0.25,0.5,0.25,0.25,0.25,0.5","1","",""
"","html-keyboard-response","321","165674","0.0-321.0","","","","","null","<img src=""img/land6.png"" style=""width:200px; border:14px solid green;"">","null","","","","","","","","","",""
"","image-keyboard-response","322","166071","0.0-322.0","","","","","397","img/land6.png","74","397","1","0","3","1","1,0,0,0.25,0.5,0.25,0.25,0.25,0.5","1,0,0,0.25,0.5,0.25,0.25,0.25,0.5","1","",""
"","html-keyboard-response","323","166376","0.0-323.0","","","","","null","<img src=""img/land6.png"" style=""width:200px;border:14px solid red;"">","null","","","","","","","","","",""
"","image-keyboard-response","324","166818","0.0-324.0","","","","","443","img/land5.png","75","443","2","1","2","1","1,0,0,0.25,0.5,0.25,0.25,0.25,0.5","1,0,0,0.25,0.5,0.25,0.25,0.25,0.5","1","",""
"","html-keyboard-response","325","167123","0.0-325.0","","","","","null","<img src=""img/land5.png"" style=""width:200px; border:14px solid green;"">","null","","","","","","","","","",""
"","image-keyboard-response","326","167860","0.0-326.0","","","","","737","img/land4.png","76","738","3","0","1","1","1,0,0,0.25,0.5,0.25,0.25,0.25,0.5","1,0,0,0.25,0.5,0.25,0.25,0.25,0.5","1","",""
"","html-keyboard-response","327","168164","0.0-327.0","","","","","null","<img src=""img/land4.png"" style=""width:200px;border:14px solid red;"">","null","","","","","","","","","",""
"","image-keyboard-response","328","168637","0.0-328.0","","","","","472","img/land6.png","75","472","2","1","3","1","1,0,0,0.25,0.5,0.25,0.25,0.25,0.5","1,0,0,0.25,0.5,0.25,0.25,0.25,0.5","1","",""
"","html-keyboard-response","329","168945","0.0-329.0","","","","","null","<img src=""img/land6.png"" style=""width:200px; border:14px solid green;"">","null","","","","","","","","","",""
"","image-keyboard-response","330","169626","0.0-330.0","","","","","682","img/land5.png","75","682","2","0","2","1","1,0,0,0.25,0.5,0.25,0.25,0.25,0.5","1,0,0,0.25,0.5,0.25,0.25,0.25,0.5","1","",""
"","html-keyboard-response","331","169940","0.0-331.0","","","","","null","<img src=""img/land5.png"" style=""width:200px;border:14px solid red;"">","null","","","","","","","","","",""
"","image-keyboard-response","332","170301","0.0-332.0","","","","","361","img/land5.png","75","361","2","0","2","1","1,0,0,0.25,0.5,0.25,0.25,0.25,0.5","1,0,0,0.25,0.5,0.25,0.25,0.25,0.5","1","",""
"","html-keyboard-response","333","170609","0.0-333.0","","","","","null","<img src=""img/land5.png"" style=""width:200px;border:14px solid red;"">","null","","","","","","","","","",""
"","image-keyboard-response","334","171349","0.0-334.0","","","","","740","img/land6.png","74","741","1","0","3","1","1,0,0,0.25,0.5,0.25,0.25,0.25,0.5","1,0,0,0.25,0.5,0.25,0.25,0.25,0.5","1","",""
"","html-keyboard-response","335","171653","0.0-335.0","","","","","null","<img src=""img/land6.png"" style=""width:200px;border:14px solid red;"">","null","","","","","","","","","",""
"","image-keyboard-response","336","172416","0.0-336.0","","","","","763","img/land4.png","76","763","3","0","1","1","1,0,0,0.25,0.5,0.25,0.25,0.25,0.5","1,0,0,0.25,0.5,0.25,0.25,0.25,0.5","1","",""
"","html-keyboard-response","337","172720","0.0-337.0","","","","","null","<img src=""img/land4.png"" style=""width:200px;border:14px solid red;"">","null","","","","","","","","","",""
"","image-keyboard-response","338","173362","0.0-338.0","","","","","642","img/land5.png","75","643","2","1","2","1","1,0,0,0.25,0.5,0.25,0.25,0.25,0.5","1,0,0,0.25,0.5,0.25,0.25,0.25,0.5","1","",""
"","html-keyboard-response","339","173675","0.0-339.0","","","","","null","<img src=""img/land5.png"" style=""width:200px; border:14px solid green;"">","null","","","","","","","","","",""
"","image-keyboard-response","340","174377","0.0-340.0","","","","","702","img/land6.png","74","702","1","1","3","1","1,0,0,0.25,0.5,0.25,0.25,0.25,0.5","1,0,0,0.25,0.5,0.25,0.25,0.25,0.5","1","",""
"","html-keyboard-response","341","174679","0.0-341.0","","","","","null","<img src=""img/land6.png"" style=""width:200px; border:14px solid green;"">","null","","","","","","","","","",""
"","image-keyboard-response","342","175102","0.0-342.0","","","","","423","img/land6.png","74","423","1","0","3","1","1,0,0,0.25,0.5,0.25,0.25,0.25,0.5","1,0,0,0.25,0.5,0.25,0.25,0.25,0.5","1","",""
"","html-keyboard-response","343","175412","0.0-343.0","","","","","null","<img src=""img/land6.png"" style=""width:200px;border:14px solid red;"">","null","","","","","","","","","",""
"","image-keyboard-response","344","175807","0.0-344.0","","","","","395","img/land6.png","74","396","1","0","3","1","1,0,0,0.25,0.5,0.25,0.25,0.25,0.5","1,0,0,0.25,0.5,0.25,0.25,0.25,0.5","1","",""
"","html-keyboard-response","345","176114","0.0-345.0","","","","","null","<img src=""img/land6.png"" style=""width:200px;border:14px solid red;"">","null","","","","","","","","","",""
"","image-keyboard-response","346","176609","0.0-346.0","","","","","494","img/land4.png","75","494","2","0","1","1","1,0,0,0.25,0.5,0.25,0.25,0.25,0.5","1,0,0,0.25,0.5,0.25,0.25,0.25,0.5","1","",""
"","html-keyboard-response","347","176910","0.0-347.0","","","","","null","<img src=""img/land4.png"" style=""width:200px;border:14px solid red;"">","null","","","","","","","","","",""
"","image-keyboard-response","348","177495","0.0-348.0","","","","","585","img/land4.png","76","585","3","0","1","1","1,0,0,0.25,0.5,0.25,0.25,0.25,0.5","1,0,0,0.25,0.5,0.25,0.25,0.25,0.5","1","",""
"","html-keyboard-response","349","177798","0.0-349.0","","","","","null","<img src=""img/land4.png"" style=""width:200px;border:14px solid red;"">","null","","","","","","","","","",""
"","image-keyboard-response","350","178282","0.0-350.0","","","","","485","img/land4.png","74","485","1","1","1","1","1,0,0,0.25,0.5,0.25,0.25,0.25,0.5","1,0,0,0.25,0.5,0.25,0.25,0.25,0.5","1","",""
"","html-keyboard-response","351","178596","0.0-351.0","","","","","null","<img src=""img/land4.png"" style=""width:200px; border:14px solid green;"">","null","","","","","","","","","",""
"","image-keyboard-response","352","179252","0.0-352.0","","","","","655","img/land5.png","75","655","2","0","2","1","1,0,0,0.25,0.5,0.25,0.25,0.25,0.5","1,0,0,0.25,0.5,0.25,0.25,0.25,0.5","1","",""
"","html-keyboard-response","353","179561","0.0-353.0","","","","","null","<img src=""img/land5.png"" style=""width:200px;border:14px solid red;"">","null","","","","","","","","","",""
"","image-keyboard-response","354","180360","0.0-354.0","","","","","798","img/land4.png","74","798","1","1","1","1","1,0,0,0.25,0.5,0.25,0.25,0.25,0.5","1,0,0,0.25,0.5,0.25,0.25,0.25,0.5","1","",""
"","html-keyboard-response","355","180671","0.0-355.0","","","","","null","<img src=""img/land4.png"" style=""width:200px; border:14px solid green;"">","null","","","","","","","","","",""
"","image-keyboard-response","356","181408","0.0-356.0","","","","","737","img/land5.png","75","737","2","0","2","1","1,0,0,0.25,0.5,0.25,0.25,0.25,0.5","1,0,0,0.25,0.5,0.25,0.25,0.25,0.5","1","",""
"","html-keyboard-response","357","181720","0.0-357.0","","","","","null","<img src=""img/land5.png"" style=""width:200px;border:14px solid red;"">","null","","","","","","","","","",""
"","image-keyboard-response","358","181979","0.0-358.0","","","","","259","img/land5.png","75","259","2","1","2","1","1,0,0,0.25,0.5,0.25,0.25,0.25,0.5","1,0,0,0.25,0.5,0.25,0.25,0.25,0.5","1","",""
"","html-keyboard-response","359","182287","0.0-359.0","","","","","null","<img src=""img/land5.png"" style=""width:200px; border:14px solid green;"">","null","","","","","","","","","",""
"","image-keyboard-response","360","183017","0.0-360.0","","","","","729","img/land6.png","76","730","3","0","3","1","1,0,0,0.25,0.5,0.25,0.25,0.25,0.5","1,0,0,0.25,0.5,0.25,0.25,0.25,0.5","1","",""
"","html-keyboard-response","361","183322","0.0-361.0","","","","","null","<img src=""img/land6.png"" style=""width:200px;border:14px solid red;"">","null","","","","","","","","","",""
"","image-keyboard-response","362","184208","0.0-362.0","","","","","884","img/land5.png","75","886","2","0","2","1","1,0,0,0.25,0.5,0.25,0.25,0.25,0.5","1,0,0,0.25,0.5,0.25,0.25,0.25,0.5","1","",""
"","html-keyboard-response","363","184519","0.0-363.0","","","","","null","<img src=""img/land5.png"" style=""width:200px;border:14px solid red;"">","null","","","","","","","","","",""
"","image-keyboard-response","364","185143","0.0-364.0","","","","","623","img/land6.png","74","625","1","0","3","1","1,0,0,0.25,0.5,0.25,0.25,0.25,0.5","1,0,0,0.25,0.5,0.25,0.25,0.25,0.5","1","",""
"","html-keyboard-response","365","185452","0.0-365.0","","","","","null","<img src=""img/land6.png"" style=""width:200px;border:14px solid red;"">","null","","","","","","","","","",""
"","image-keyboard-response","366","186440","0.0-366.0","","","","","988","img/land4.png","76","988","3","0","1","1","1,0,0,0.25,0.5,0.25,0.25,0.25,0.5","1,0,0,0.25,0.5,0.25,0.25,0.25,0.5","1","",""
"","html-keyboard-response","367","186749","0.0-367.0","","","","","null","<img src=""img/land4.png"" style=""width:200px;border:14px solid red;"">","null","","","","","","","","","",""
"","image-keyboard-response","368","187137","0.0-368.0","","","","","388","img/land4.png","74","388","1","1","1","1","1,0,0,0.25,0.5,0.25,0.25,0.25,0.5","1,0,0,0.25,0.5,0.25,0.25,0.25,0.5","1","",""
"","html-keyboard-response","369","187453","0.0-369.0","","","","","null","<img src=""img/land4.png"" style=""width:200px; border:14px solid green;"">","null","","","","","","","","","",""
"","image-keyboard-response","370","187868","0.0-370.0","","","","","414","img/land4.png","74","414","1","1","1","1","1,0,0,0.25,0.5,0.25,0.25,0.25,0.5","1,0,0,0.25,0.5,0.25,0.25,0.25,0.5","1","",""
"","html-keyboard-response","371","188183","0.0-371.0","","","","","null","<img src=""img/land4.png"" style=""width:200px; border:14px solid green;"">","null","","","","","","","","","",""
"","image-keyboard-response","372","188845","0.0-372.0","","","","","662","img/land5.png","75","662","2","0","2","1","1,0,0,0.25,0.5,0.25,0.25,0.25,0.5","1,0,0,0.25,0.5,0.25,0.25,0.25,0.5","1","",""
"","html-keyboard-response","373","189149","0.0-373.0","","","","","null","<img src=""img/land5.png"" style=""width:200px;border:14px solid red;"">","null","","","","","","","","","",""
"","image-keyboard-response","374","189741","0.0-374.0","","","","","592","img/land6.png","76","592","3","1","3","1","1,0,0,0.25,0.5,0.25,0.25,0.25,0.5","1,0,0,0.25,0.5,0.25,0.25,0.25,0.5","1","",""
"","html-keyboard-response","375","190049","0.0-375.0","","","","","null","<img src=""img/land6.png"" style=""width:200px; border:14px solid green;"">","null","","","","","","","","","",""
"","image-keyboard-response","376","191165","0.0-376.0","","","","","1115","img/land4.png","74","1115","1","1","1","1","1,0,0,0.25,0.5,0.25,0.25,0.25,0.5","1,0,0,0.25,0.5,0.25,0.25,0.25,0.5","1","",""
"","html-keyboard-response","377","191479","0.0-377.0","","","","","null","<img src=""img/land4.png"" style=""width:200px; border:14px solid green;"">","null","","","","","","","","","",""
"","image-keyboard-response","378","191890","0.0-378.0","","","","","411","img/land4.png","74","411","1","1","1","1","1,0,0,0.25,0.5,0.25,0.25,0.25,0.5","1,0,0,0.25,0.5,0.25,0.25,0.25,0.5","1","",""
"","html-keyboard-response","379","192197","0.0-379.0","","","","","null","<img src=""img/land4.png"" style=""width:200px; border:14px solid green;"">","null","","","","","","","","","",""
"","image-keyboard-response","380","192898","0.0-380.0","","","","","701","img/land6.png","76","701","3","0","3","1","1,0,0,0.25,0.5,0.25,0.25,0.25,0.5","1,0,0,0.25,0.5,0.25,0.25,0.25,0.5","1","",""
"","html-keyboard-response","381","193204","0.0-381.0","","","","","null","<img src=""img/land6.png"" style=""width:200px;border:14px solid red;"">","null","","","","","","","","","",""
"","image-keyboard-response","382","193571","0.0-382.0","","","","","366","img/land6.png","76","366","3","1","3","1","1,0,0,0.25,0.5,0.25,0.25,0.25,0.5","1,0,0,0.25,0.5,0.25,0.25,0.25,0.5","1","",""
"","html-keyboard-response","383","193875","0.0-383.0","","","","","null","<img src=""img/land6.png"" style=""width:200px; border:14px solid green;"">","null","","","","","","","","","",""
"","image-keyboard-response","384","194475","0.0-384.0","","","","","599","img/land5.png","75","599","2","1","2","1","1,0,0,0.25,0.5,0.25,0.25,0.25,0.5","1,0,0,0.25,0.5,0.25,0.25,0.25,0.5","1","",""
"","html-keyboard-response","385","194784","0.0-385.0","","","","","null","<img src=""img/land5.png"" style=""width:200px; border:14px solid green;"">","null","","","","","","","","","",""
"","image-keyboard-response","386","195539","0.0-386.0","","","","","755","img/land6.png","76","755","3","0","3","1","1,0,0,0.25,0.5,0.25,0.25,0.25,0.5","1,0,0,0.25,0.5,0.25,0.25,0.25,0.5","1","",""
"","html-keyboard-response","387","195843","0.0-387.0","","","","","null","<img src=""img/land6.png"" style=""width:200px;border:14px solid red;"">","null","","","","","","","","","",""
"","image-keyboard-response","388","196547","0.0-388.0","","","","","703","img/land4.png","74","703","1","1","1","1","1,0,0,0.25,0.5,0.25,0.25,0.25,0.5","1,0,0,0.25,0.5,0.25,0.25,0.25,0.5","1","",""
"","html-keyboard-response","389","196859","0.0-389.0","","","","","null","<img src=""img/land4.png"" style=""width:200px; border:14px solid green;"">","null","","","","","","","","","",""
"","image-keyboard-response","390","197190","0.0-390.0","","","","","331","img/land4.png","74","332","1","1","1","1","1,0,0,0.25,0.5,0.25,0.25,0.25,0.5","1,0,0,0.25,0.5,0.25,0.25,0.25,0.5","1","",""
"","html-keyboard-response","391","197499","0.0-391.0","","","","","null","<img src=""img/land4.png"" style=""width:200px; border:14px solid green;"">","null","","","","","","","","","",""
"","image-keyboard-response","392","198109","0.0-392.0","","","","","609","img/land5.png","75","609","2","1","2","1","1,0,0,0.25,0.5,0.25,0.25,0.25,0.5","1,0,0,0.25,0.5,0.25,0.25,0.25,0.5","1","",""
"","html-keyboard-response","393","198418","0.0-393.0","","","","","null","<img src=""img/land5.png"" style=""width:200px; border:14px solid green;"">","null","","","","","","","","","",""
"","image-keyboard-response","394","198690","0.0-394.0","","","","","272","img/land5.png","75","272","2","0","2","1","1,0,0,0.25,0.5,0.25,0.25,0.25,0.5","1,0,0,0.25,0.5,0.25,0.25,0.25,0.5","1","",""
"","html-keyboard-response","395","198993","0.0-395.0","","","","","null","<img src=""img/land5.png"" style=""width:200px;border:14px solid red;"">","null","","","","","","","","","",""
"","image-keyboard-response","396","199903","0.0-396.0","","","","","910","img/land4.png","76","911","3","0","1","1","1,0,0,0.25,0.5,0.25,0.25,0.25,0.5","1,0,0,0.25,0.5,0.25,0.25,0.25,0.5","1","",""
"","html-keyboard-response","397","200206","0.0-397.0","","","","","null","<img src=""img/land4.png"" style=""width:200px;border:14px solid red;"">","null","","","","","","","","","",""
"","image-keyboard-response","398","201208","0.0-398.0","","","","","1003","img/land6.png","74","1003","1","0","3","1","1,0,0,0.25,0.5,0.25,0.25,0.25,0.5","1,0,0,0.25,0.5,0.25,0.25,0.25,0.5","1","",""
"","html-keyboard-response","399","201527","0.0-399.0","","","","","null","<img src=""img/land6.png"" style=""width:200px;border:14px solid red;"">","null","","","","","","","","","",""
"","image-keyboard-response","400","202344","0.0-400.0","","","","","818","img/land6.png","75","818","2","0","3","1","1,0,0,0.25,0.5,0.25,0.25,0.25,0.5","1,0,0,0.25,0.5,0.25,0.25,0.25,0.5","1","",""
"","html-keyboard-response","401","202645","0.0-401.0","","","","","null","<img src=""img/land6.png"" style=""width:200px;border:14px solid red;"">","null","","","","","","","","","",""
"","image-keyboard-response","402","203140","0.0-402.0","","","","","494","img/land6.png","76","495","3","0","3","1","1,0,0,0.25,0.5,0.25,0.25,0.25,0.5","1,0,0,0.25,0.5,0.25,0.25,0.25,0.5","1","",""
"","html-keyboard-response","403","203454","0.0-403.0","","","","","null","<img src=""img/land6.png"" style=""width:200px;border:14px solid red;"">","null","","","","","","","","","",""
"","image-keyboard-response","404","204571","0.0-404.0","","","","","1117","img/land4.png","74","1117","1","1","1","1","1,0,0,0.25,0.5,0.25,0.25,0.25,0.5","1,0,0,0.25,0.5,0.25,0.25,0.25,0.5","1","",""
"","html-keyboard-response","405","204884","0.0-405.0","","","","","null","<img src=""img/land4.png"" style=""width:200px; border:14px solid green;"">","null","","","","","","","","","",""
"","image-keyboard-response","406","205417","0.0-406.0","","","","","532","img/land5.png","75","532","2","1","2","1","1,0,0,0.25,0.5,0.25,0.25,0.25,0.5","1,0,0,0.25,0.5,0.25,0.25,0.25,0.5","1","",""
"","html-keyboard-response","407","205726","0.0-407.0","","","","","null","<img src=""img/land5.png"" style=""width:200px; border:14px solid green;"">","null","","","","","","","","","",""
"","image-keyboard-response","408","206414","0.0-408.0","","","","","687","img/land6.png","76","687","3","1","3","1","1,0,0,0.25,0.5,0.25,0.25,0.25,0.5","1,0,0,0.25,0.5,0.25,0.25,0.25,0.5","1","",""
"","html-keyboard-response","409","206722","0.0-409.0","","","","","null","<img src=""img/land6.png"" style=""width:200px; border:14px solid green;"">","null","","","","","","","","","",""
"","image-keyboard-response","410","207110","0.0-410.0","","","","","388","img/land6.png","76","389","3","0","3","1","1,0,0,0.25,0.5,0.25,0.25,0.25,0.5","1,0,0,0.25,0.5,0.25,0.25,0.25,0.5","1","",""
"","html-keyboard-response","411","207411","0.0-411.0","","","","","null","<img src=""img/land6.png"" style=""width:200px;border:14px solid red;"">","null","","","","","","","","","",""
"","image-keyboard-response","412","209033","0.0-412.0","","","","","1621","img/land4.png","74","1621","1","1","1","1","1,0,0,0.25,0.5,0.25,0.25,0.25,0.5","1,0,0,0.25,0.5,0.25,0.25,0.25,0.5","1","",""
"","html-keyboard-response","413","209343","0.0-413.0","","","","","null","<img src=""img/land4.png"" style=""width:200px; border:14px solid green;"">","null","","","","","","","","","",""
"","image-keyboard-response","414","209757","0.0-414.0","","","","","414","img/land5.png","75","414","2","1","2","1","1,0,0,0.25,0.5,0.25,0.25,0.25,0.5","1,0,0,0.25,0.5,0.25,0.25,0.25,0.5","1","",""
"","html-keyboard-response","415","210059","0.0-415.0","","","","","null","<img src=""img/land5.png"" style=""width:200px; border:14px solid green;"">","null","","","","","","","","","",""
"","image-keyboard-response","416","210846","0.0-416.0","","","","","786","img/land6.png","76","787","3","0","3","1","1,0,0,0.25,0.5,0.25,0.25,0.25,0.5","1,0,0,0.25,0.5,0.25,0.25,0.25,0.5","1","",""
"","html-keyboard-response","417","211148","0.0-417.0","","","","","null","<img src=""img/land6.png"" style=""width:200px;border:14px solid red;"">","null","","","","","","","","","",""
"","image-keyboard-response","418","213094","0.0-418.0","","","","","1945","img/land4.png","76","1946","3","0","1","1","1,0,0,0.25,0.5,0.25,0.25,0.25,0.5","1,0,0,0.25,0.5,0.25,0.25,0.25,0.5","1","",""
"","html-keyboard-response","419","213399","0.0-419.0","","","","","null","<img src=""img/land4.png"" style=""width:200px;border:14px solid red;"">","null","","","","","","","","","",""
"","image-keyboard-response","420","213566","0.0-420.0","","","","","166","img/land5.png","75","168","2","0","2","1","1,0,0,0.25,0.5,0.25,0.25,0.25,0.5","1,0,0,0.25,0.5,0.25,0.25,0.25,0.5","1","",""
"","html-keyboard-response","421","213878","0.0-421.0","","","","","null","<img src=""img/land5.png"" style=""width:200px;border:14px solid red;"">","null","","","","","","","","","",""
"","image-keyboard-response","422","214132","0.0-422.0","","","","","254","img/land5.png","75","254","2","0","2","1","1,0,0,0.25,0.5,0.25,0.25,0.25,0.5","1,0,0,0.25,0.5,0.25,0.25,0.25,0.5","1","",""
"","html-keyboard-response","423","214441","0.0-423.0","","","","","null","<img src=""img/land5.png"" style=""width:200px;border:14px solid red;"">","null","","","","","","","","","",""
"","image-keyboard-response","424","215251","0.0-424.0","","","","","810","img/land6.png","74","810","1","0","3","1","1,0,0,0.25,0.5,0.25,0.25,0.25,0.5","1,0,0,0.25,0.5,0.25,0.25,0.25,0.5","1","",""
"","html-keyboard-response","425","215563","0.0-425.0","","","","","null","<img src=""img/land6.png"" style=""width:200px;border:14px solid red;"">","null","","","","","","","","","",""
"","image-keyboard-response","426","216279","0.0-426.0","","","","","715","img/land5.png","75","716","2","0","2","1","1,0,0,0.25,0.5,0.25,0.25,0.25,0.5","1,0,0,0.25,0.5,0.25,0.25,0.25,0.5","1","",""
"","html-keyboard-response","427","216592","0.0-427.0","","","","","null","<img src=""img/land5.png"" style=""width:200px;border:14px solid red;"">","null","","","","","","","","","",""
"","image-keyboard-response","428","217055","0.0-428.0","","","","","461","img/land5.png","75","461","2","1","2","1","1,0,0,0.25,0.5,0.25,0.25,0.25,0.5","1,0,0,0.25,0.5,0.25,0.25,0.25,0.5","1","",""
"","html-keyboard-response","429","217361","0.0-429.0","","","","","null","<img src=""img/land5.png"" style=""width:200px; border:14px solid green;"">","null","","","","","","","","","",""
"","image-keyboard-response","430","217810","0.0-430.0","","","","","448","img/land6.png","76","448","3","1","3","1","1,0,0,0.25,0.5,0.25,0.25,0.25,0.5","1,0,0,0.25,0.5,0.25,0.25,0.25,0.5","1","",""
"","html-keyboard-response","431","218123","0.0-431.0","","","","","null","<img src=""img/land6.png"" style=""width:200px; border:14px solid green;"">","null","","","","","","","","","",""
"","image-keyboard-response","432","218512","0.0-432.0","","","","","388","img/land6.png","76","388","3","0","3","1","1,0,0,0.25,0.5,0.25,0.25,0.25,0.5","1,0,0,0.25,0.5,0.25,0.25,0.25,0.5","1","",""
"","html-keyboard-response","433","218826","0.0-433.0","","","","","null","<img src=""img/land6.png"" style=""width:200px;border:14px solid red;"">","null","","","","","","","","","",""
"","image-keyboard-response","434","220092","0.0-434.0","","","","","1266","img/land5.png","75","1266","2","0","2","1","1,0,0,0.25,0.5,0.25,0.25,0.25,0.5","1,0,0,0.25,0.5,0.25,0.25,0.25,0.5","1","",""
"","html-keyboard-response","435","220419","0.0-435.0","","","","","null","<img src=""img/land5.png"" style=""width:200px;border:14px solid red;"">","null","","","","","","","","","",""
"","image-keyboard-response","436","221046","0.0-436.0","","","","","626","img/land6.png","76","626","3","1","3","1","1,0,0,0.25,0.5,0.25,0.25,0.25,0.5","1,0,0,0.25,0.5,0.25,0.25,0.25,0.5","1","",""
"","html-keyboard-response","437","221352","0.0-437.0","","","","","null","<img src=""img/land6.png"" style=""width:200px; border:14px solid green;"">","null","","","","","","","","","",""
"","image-keyboard-response","438","222110","0.0-438.0","","","","","758","img/land4.png","74","758","1","1","1","1","1,0,0,0.25,0.5,0.25,0.25,0.25,0.5","1,0,0,0.25,0.5,0.25,0.25,0.25,0.5","1","",""
"","html-keyboard-response","439","222415","0.0-439.0","","","","","null","<img src=""img/land4.png"" style=""width:200px; border:14px solid green;"">","null","","","","","","","","","",""
"","image-keyboard-response","440","222876","0.0-440.0","","","","","461","img/land4.png","74","461","1","1","1","1","1,0,0,0.25,0.5,0.25,0.25,0.25,0.5","1,0,0,0.25,0.5,0.25,0.25,0.25,0.5","1","",""
"","html-keyboard-response","441","223189","0.0-441.0","","","","","null","<img src=""img/land4.png"" style=""width:200px; border:14px solid green;"">","null","","","","","","","","","",""
"","image-keyboard-response","442","223588","0.0-442.0","","","","","400","img/land4.png","74","401","1","1","1","1","1,0,0,0.25,0.5,0.25,0.25,0.25,0.5","1,0,0,0.25,0.5,0.25,0.25,0.25,0.5","1","",""
"","html-keyboard-response","443","223900","0.0-443.0","","","","","null","<img src=""img/land4.png"" style=""width:200px; border:14px solid green;"">","null","","","","","","","","","",""
"","image-keyboard-response","444","224359","0.0-444.0","","","","","459","img/land4.png","74","459","1","1","1","1","1,0,0,0.25,0.5,0.25,0.25,0.25,0.5","1,0,0,0.25,0.5,0.25,0.25,0.25,0.5","1","",""
"","html-keyboard-response","445","224663","0.0-445.0","","","","","null","<img src=""img/land4.png"" style=""width:200px; border:14px solid green;"">","null","","","","","","","","","",""
"","image-keyboard-response","446","225406","0.0-446.0","","","","","742","img/land6.png","76","743","3","1","3","1","1,0,0,0.25,0.5,0.25,0.25,0.25,0.5","1,0,0,0.25,0.5,0.25,0.25,0.25,0.5","1","",""
"","html-keyboard-response","447","225711","0.0-447.0","","","","","null","<img src=""img/land6.png"" style=""width:200px; border:14px solid green;"">","null","","","","","","","","","",""
"","image-keyboard-response","448","226097","0.0-448.0","","","","","385","img/land6.png","76","385","3","1","3","1","1,0,0,0.25,0.5,0.25,0.25,0.25,0.5","1,0,0,0.25,0.5,0.25,0.25,0.25,0.5","1","",""
"","html-keyboard-response","449","226410","0.0-449.0","","","","","null","<img src=""img/land6.png"" style=""width:200px; border:14px solid green;"">","null","","","","","","","","","",""
"","image-keyboard-response","450","226836","0.0-450.0","","","","","426","img/land5.png","75","427","2","0","2","1","1,0,0,0.25,0.5,0.25,0.25,0.25,0.5","1,0,0,0.25,0.5,0.25,0.25,0.25,0.5","1","",""
"","html-keyboard-response","451","227145","0.0-451.0","","","","","null","<img src=""img/land5.png"" style=""width:200px;border:14px solid red;"">","null","","","","","","","","","",""
"","image-keyboard-response","452","228000","0.0-452.0","","","","","855","img/land6.png","76","855","3","1","3","1","1,0,0,0.25,0.5,0.25,0.25,0.25,0.5","1,0,0,0.25,0.5,0.25,0.25,0.25,0.5","1","",""
"","html-keyboard-response","453","228313","0.0-453.0","","","","","null","<img src=""img/land6.png"" style=""width:200px; border:14px solid green;"">","null","","","","","","","","","",""
"","image-keyboard-response","454","228830","0.0-454.0","","","","","517","img/land6.png","76","518","3","0","3","1","1,0,0,0.25,0.5,0.25,0.25,0.25,0.5","1,0,0,0.25,0.5,0.25,0.25,0.25,0.5","1","",""
"","html-keyboard-response","455","229136","0.0-455.0","","","","","null","<img src=""img/land6.png"" style=""width:200px;border:14px solid red;"">","null","","","","","","","","","",""
"","image-keyboard-response","456","229835","0.0-456.0","","","","","699","img/land4.png","74","699","1","1","1","1","1,0,0,0.25,0.5,0.25,0.25,0.25,0.5","1,0,0,0.25,0.5,0.25,0.25,0.25,0.5","1","",""
"","html-keyboard-response","457","230136","0.0-457.0","","","","","null","<img src=""img/land4.png"" style=""width:200px; border:14px solid green;"">","null","","","","","","","","","",""
"","image-keyboard-response","458","230770","0.0-458.0","","","","","633","img/land5.png","75","634","2","0","2","1","1,0,0,0.25,0.5,0.25,0.25,0.25,0.5","1,0,0,0.25,0.5,0.25,0.25,0.25,0.5","1","",""
"","html-keyboard-response","459","231076","0.0-459.0","","","","","null","<img src=""img/land5.png"" style=""width:200px;border:14px solid red;"">","null","","","","","","","","","",""
"","image-keyboard-response","460","231396","0.0-460.0","","","","","319","img/land5.png","75","319","2","0","2","1","1,0,0,0.25,0.5,0.25,0.25,0.25,0.5","1,0,0,0.25,0.5,0.25,0.25,0.25,0.5","1","",""
"","html-keyboard-response","461","231699","0.0-461.0","","","","","null","<img src=""img/land5.png"" style=""width:200px;border:14px solid red;"">","null","","","","","","","","","",""
"","image-keyboard-response","462","232400","0.0-462.0","","","","","699","img/land4.png","74","700","1","1","1","1","1,0,0,0.25,0.5,0.25,0.25,0.25,0.5","1,0,0,0.25,0.5,0.25,0.25,0.25,0.5","1","",""
"","html-keyboard-response","463","232699","0.0-463.0","","","","","null","<img src=""img/land4.png"" style=""width:200px; border:14px solid green;"">","null","","","","","","","","","",""
"","image-keyboard-response","464","233077","0.0-464.0","","","","","377","img/land4.png","74","378","1","1","1","1","1,0,0,0.25,0.5,0.25,0.25,0.25,0.5","1,0,0,0.25,0.5,0.25,0.25,0.25,0.5","1","",""
"","html-keyboard-response","465","233389","0.0-465.0","","","","","null","<img src=""img/land4.png"" style=""width:200px; border:14px solid green;"">","null","","","","","","","","","",""
"","image-keyboard-response","466","234172","0.0-466.0","","","","","783","img/land5.png","75","783","2","1","2","1","1,0,0,0.25,0.5,0.25,0.25,0.25,0.5","1,0,0,0.25,0.5,0.25,0.25,0.25,0.5","1","",""
"","html-keyboard-response","467","234479","0.0-467.0","","","","","null","<img src=""img/land5.png"" style=""width:200px; border:14px solid green;"">","null","","","","","","","","","",""
"","image-keyboard-response","468","235529","0.0-468.0","","","","","1050","img/land4.png","74","1050","1","1","1","1","1,0,0,0.25,0.5,0.25,0.25,0.25,0.5","1,0,0,0.25,0.5,0.25,0.25,0.25,0.5","1","",""
"","html-keyboard-response","469","235833","0.0-469.0","","","","","null","<img src=""img/land4.png"" style=""width:200px; border:14px solid green;"">","null","","","","","","","","","",""
"","image-keyboard-response","470","236229","0.0-470.0","","","","","395","img/land4.png","74","395","1","1","1","1","1,0,0,0.25,0.5,0.25,0.25,0.25,0.5","1,0,0,0.25,0.5,0.25,0.25,0.25,0.5","1","",""
"","html-keyboard-response","471","236538","0.0-471.0","","","","","null","<img src=""img/land4.png"" style=""width:200px; border:14px solid green;"">","null","","","","","","","","","",""
"","image-keyboard-response","472","237228","0.0-472.0","","","","","690","img/land6.png","76","690","3","0","3","1","1,0,0,0.25,0.5,0.25,0.25,0.25,0.5","1,0,0,0.25,0.5,0.25,0.25,0.25,0.5","1","",""
"","html-keyboard-response","473","237536","0.0-473.0","","","","","null","<img src=""img/land6.png"" style=""width:200px;border:14px solid red;"">","null","","","","","","","","","",""
"","image-keyboard-response","474","238191","0.0-474.0","","","","","655","img/land4.png","74","655","1","1","1","1","1,0,0,0.25,0.5,0.25,0.25,0.25,0.5","1,0,0,0.25,0.5,0.25,0.25,0.25,0.5","1","",""
"","html-keyboard-response","475","238502","0.0-475.0","","","","","null","<img src=""img/land4.png"" style=""width:200px; border:14px solid green;"">","null","","","","","","","","","",""
"","image-keyboard-response","476","239038","0.0-476.0","","","","","535","img/land5.png","75","536","2","1","2","1","1,0,0,0.25,0.5,0.25,0.25,0.25,0.5","1,0,0,0.25,0.5,0.25,0.25,0.25,0.5","1","",""
"","html-keyboard-response","477","239347","0.0-477.0","","","","","null","<img src=""img/land5.png"" style=""width:200px; border:14px solid green;"">","null","","","","","","","","","",""
"","image-keyboard-response","478","239677","0.0-478.0","","","","","330","img/land5.png","75","331","2","1","2","1","1,0,0,0.25,0.5,0.25,0.25,0.25,0.5","1,0,0,0.25,0.5,0.25,0.25,0.25,0.5","1","",""
"","html-keyboard-response","479","239990","0.0-479.0","","","","","null","<img src=""img/land5.png"" style=""width:200px; border:14px solid green;"">","null","","","","","","","","","",""
"","image-keyboard-response","480","240300","0.0-480.0","","","","","311","img/land5.png","75","311","2","0","2","1","1,0,0,0.25,0.5,0.25,0.25,0.25,0.5","1,0,0,0.25,0.5,0.25,0.25,0.25,0.5","1","",""
"","html-keyboard-response","481","240611","0.0-481.0","","","","","null","<img src=""img/land5.png"" style=""width:200px;border:14px solid red;"">","null","","","","","","","","","",""
"","html-keyboard-response","482","243281","0.0-482.0","","","","","","","","","","","","","","","","",""
"","instructions","483","245383","0.0-483.0","","","","[{""page_index"":0,""viewing_time"":2102}]","2102","","","","","","","","","","","",""
"","survey-text","484","248836","0.0-484.0-0.0","","","","","3449","","","","","","","","","","","{""Q0"":""38""}",""
"","survey-multi-choice","485","251649","0.0-484.0-1.0","","","","","2813","","","","","","","","","","","{""gender"":""M""}","[0]"
"","survey-text","486","263606","0.0-485.0","","","","","11955","","","","","","","","","","","{""Q0"":""A13P6LC1SFXYGS""}",""
