"success","trial_type","trial_index","time_elapsed","internal_node_id","assignmentID","mturkID","hitID","view_history","rt","stimulus","key_press","reactionTime","a","r","warning","s","reward_cond","responses","question_order"
"true","fullscreen","0","8905","0.0-0.0","33FBRBDW6PLDQ8HU5ZAHD8XUR1D8CI","A14DC1USXBIRXU","3WPCIUYH1AU470H2HRBLZRFBM3CTDN","","","","","","","","","","","",""
"","instructions","1","46611","0.0-1.0","33FBRBDW6PLDQ8HU5ZAHD8XUR1D8CI","A14DC1USXBIRXU","3WPCIUYH1AU470H2HRBLZRFBM3CTDN","[{""page_index"":0,""viewing_time"":5896.20000000298},{""page_index"":1,""viewing_time"":4544},{""page_index"":2,""viewing_time"":1154.1000000089407},{""page_index"":3,""viewing_time"":1670.699999988079},{""page_index"":4,""viewing_time"":16556.40000000596},{""page_index"":5,""viewing_time"":2555.9000000059605},{""page_index"":6,""viewing_time"":3678.3999999910593},{""page_index"":7,""viewing_time"":1643.2000000029802}]","37704","","","","","","","","","",""
"","image-keyboard-response","2","47660","0.0-2.0","33FBRBDW6PLDQ8HU5ZAHD8XUR1D8CI","A14DC1USXBIRXU","3WPCIUYH1AU470H2HRBLZRFBM3CTDN","","","img/land9.png","","1039.4000000059605","-1","0","true","1","0.8,0.8,0.2,0.2,0.8,0.8,0.8,0.2,0.8","",""
"","html-keyboard-response","3","47971","0.0-3.0","33FBRBDW6PLDQ8HU5ZAHD8XUR1D8CI","A14DC1USXBIRXU","3WPCIUYH1AU470H2HRBLZRFBM3CTDN","","null","<img src=""img/land9.png"" style=""width:200px;border:14px solid red;"">","null","","","","","","","",""
"","html-keyboard-response","4","51611","0.0-4.0-0.0","33FBRBDW6PLDQ8HU5ZAHD8XUR1D8CI","A14DC1USXBIRXU","3WPCIUYH1AU470H2HRBLZRFBM3CTDN","","","","","","","","","","","",""
"","image-keyboard-response","5","52616","0.0-5.0","33FBRBDW6PLDQ8HU5ZAHD8XUR1D8CI","A14DC1USXBIRXU","3WPCIUYH1AU470H2HRBLZRFBM3CTDN","","","img/land2.png","","1004.3999999910593","-1","0","true","2","0.8,0.8,0.2,0.2,0.8,0.8,0.8,0.2,0.8","",""
"","html-keyboard-response","6","52929","0.0-6.0","33FBRBDW6PLDQ8HU5ZAHD8XUR1D8CI","A14DC1USXBIRXU","3WPCIUYH1AU470H2HRBLZRFBM3CTDN","","null","<img src=""img/land2.png"" style=""width:200px;border:14px solid red;"">","null","","","","","","","",""
"","html-keyboard-response","7","54575","0.0-7.0-0.0","33FBRBDW6PLDQ8HU5ZAHD8XUR1D8CI","A14DC1USXBIRXU","3WPCIUYH1AU470H2HRBLZRFBM3CTDN","","","","","","","","","","","",""
"","image-keyboard-response","8","55583","0.0-8.0","33FBRBDW6PLDQ8HU5ZAHD8XUR1D8CI","A14DC1USXBIRXU","3WPCIUYH1AU470H2HRBLZRFBM3CTDN","","","img/land5.png","","1006.6000000089407","-1","0","true","3","0.8,0.8,0.2,0.2,0.8,0.8,0.8,0.2,0.8","",""
"","html-keyboard-response","9","55888","0.0-9.0","33FBRBDW6PLDQ8HU5ZAHD8XUR1D8CI","A14DC1USXBIRXU","3WPCIUYH1AU470H2HRBLZRFBM3CTDN","","null","<img src=""img/land5.png"" style=""width:200px;border:14px solid red;"">","null","","","","","","","",""
"","html-keyboard-response","10","57583","0.0-10.0-0.0","33FBRBDW6PLDQ8HU5ZAHD8XUR1D8CI","A14DC1USXBIRXU","3WPCIUYH1AU470H2HRBLZRFBM3CTDN","","","","","","","","","","","",""
"","image-keyboard-response","11","57990","0.0-11.0","33FBRBDW6PLDQ8HU5ZAHD8XUR1D8CI","A14DC1USXBIRXU","3WPCIUYH1AU470H2HRBLZRFBM3CTDN","","403.20000000298023","img/land5.png","74","406.40000000596046","1","0","false","3","0.8,0.8,0.2,0.2,0.8,0.8,0.8,0.2,0.8","",""
"","html-keyboard-response","12","58295","0.0-12.0","33FBRBDW6PLDQ8HU5ZAHD8XUR1D8CI","A14DC1USXBIRXU","3WPCIUYH1AU470H2HRBLZRFBM3CTDN","","null","<img src=""img/land5.png"" style=""width:200px;border:14px solid red;"">","null","","","","","","","",""
"","image-keyboard-response","13","58774","0.0-14.0","33FBRBDW6PLDQ8HU5ZAHD8XUR1D8CI","A14DC1USXBIRXU","3WPCIUYH1AU470H2HRBLZRFBM3CTDN","","477.09999999403954","img/land5.png","75","478.70000000298023","2","0","false","3","0.8,0.8,0.2,0.2,0.8,0.8,0.8,0.2,0.8","",""
"","html-keyboard-response","14","59104","0.0-15.0","33FBRBDW6PLDQ8HU5ZAHD8XUR1D8CI","A14DC1USXBIRXU","3WPCIUYH1AU470H2HRBLZRFBM3CTDN","","null","<img src=""img/land5.png"" style=""width:200px;border:14px solid red;"">","null","","","","","","","",""
"","image-keyboard-response","15","60123","0.0-17.0","33FBRBDW6PLDQ8HU5ZAHD8XUR1D8CI","A14DC1USXBIRXU","3WPCIUYH1AU470H2HRBLZRFBM3CTDN","","","img/land2.png","","1015.4000000059605","-1","0","true","2","0.8,0.8,0.2,0.2,0.8,0.8,0.8,0.2,0.8","",""
"","html-keyboard-response","16","60432","0.0-18.0","33FBRBDW6PLDQ8HU5ZAHD8XUR1D8CI","A14DC1USXBIRXU","3WPCIUYH1AU470H2HRBLZRFBM3CTDN","","null","<img src=""img/land2.png"" style=""width:200px;border:14px solid red;"">","null","","","","","","","",""
"","html-keyboard-response","17","61681","0.0-19.0-0.0","33FBRBDW6PLDQ8HU5ZAHD8XUR1D8CI","A14DC1USXBIRXU","3WPCIUYH1AU470H2HRBLZRFBM3CTDN","","","","","","","","","","","",""
"","image-keyboard-response","18","62005","0.0-20.0","33FBRBDW6PLDQ8HU5ZAHD8XUR1D8CI","A14DC1USXBIRXU","3WPCIUYH1AU470H2HRBLZRFBM3CTDN","","297.79999999701977","img/land5.png","75","318.90000000596046","2","0","false","3","0.8,0.8,0.2,0.2,0.8,0.8,0.8,0.2,0.8","",""
"","html-keyboard-response","19","62331","0.0-21.0","33FBRBDW6PLDQ8HU5ZAHD8XUR1D8CI","A14DC1USXBIRXU","3WPCIUYH1AU470H2HRBLZRFBM3CTDN","","null","<img src=""img/land5.png"" style=""width:200px;border:14px solid red;"">","null","","","","","","","",""
"","image-keyboard-response","20","62391","0.0-23.0","33FBRBDW6PLDQ8HU5ZAHD8XUR1D8CI","A14DC1USXBIRXU","3WPCIUYH1AU470H2HRBLZRFBM3CTDN","","12.299999997019768","img/land5.png","74","58.900000005960464","1","0","false","3","0.8,0.8,0.2,0.2,0.8,0.8,0.8,0.2,0.8","",""
"","html-keyboard-response","21","62729","0.0-24.0","33FBRBDW6PLDQ8HU5ZAHD8XUR1D8CI","A14DC1USXBIRXU","3WPCIUYH1AU470H2HRBLZRFBM3CTDN","","null","<img src=""img/land5.png"" style=""width:200px;border:14px solid red;"">","null","","","","","","","",""
"","image-keyboard-response","22","62733","0.0-26.0","33FBRBDW6PLDQ8HU5ZAHD8XUR1D8CI","A14DC1USXBIRXU","3WPCIUYH1AU470H2HRBLZRFBM3CTDN","","0.10000000894069672","img/land2.png","76","2.2000000029802322","3","1","false","2","0.8,0.8,0.2,0.2,0.8,0.8,0.8,0.2,0.8","",""
"","html-keyboard-response","23","63041","0.0-27.0","33FBRBDW6PLDQ8HU5ZAHD8XUR1D8CI","A14DC1USXBIRXU","3WPCIUYH1AU470H2HRBLZRFBM3CTDN","","null","<img src=""img/land2.png"" style=""width:200px; border:14px solid green;"">","null","","","","","","","",""
"","image-keyboard-response","24","63135","0.0-29.0","33FBRBDW6PLDQ8HU5ZAHD8XUR1D8CI","A14DC1USXBIRXU","3WPCIUYH1AU470H2HRBLZRFBM3CTDN","","84","img/land2.png","74","93.70000000298023","1","0","false","2","0.8,0.8,0.2,0.2,0.8,0.8,0.8,0.2,0.8","",""
"","html-keyboard-response","25","63445","0.0-30.0","33FBRBDW6PLDQ8HU5ZAHD8XUR1D8CI","A14DC1USXBIRXU","3WPCIUYH1AU470H2HRBLZRFBM3CTDN","","null","<img src=""img/land2.png"" style=""width:200px;border:14px solid red;"">","null","","","","","","","",""
"","image-keyboard-response","26","63450","0.0-32.0","33FBRBDW6PLDQ8HU5ZAHD8XUR1D8CI","A14DC1USXBIRXU","3WPCIUYH1AU470H2HRBLZRFBM3CTDN","","0.20000000298023224","img/land5.png","74","3.6000000089406967","1","1","false","3","0.8,0.8,0.2,0.2,0.8,0.8,0.8,0.2,0.8","",""
"","html-keyboard-response","27","63760","0.0-33.0","33FBRBDW6PLDQ8HU5ZAHD8XUR1D8CI","A14DC1USXBIRXU","3WPCIUYH1AU470H2HRBLZRFBM3CTDN","","null","<img src=""img/land5.png"" style=""width:200px; border:14px solid green;"">","null","","","","","","","",""
"","image-keyboard-response","28","63822","0.0-35.0","33FBRBDW6PLDQ8HU5ZAHD8XUR1D8CI","A14DC1USXBIRXU","3WPCIUYH1AU470H2HRBLZRFBM3CTDN","","45.5","img/land9.png","75","61.5","2","1","false","1","0.8,0.8,0.2,0.2,0.8,0.8,0.8,0.2,0.8","",""
"","html-keyboard-response","29","64144","0.0-36.0","33FBRBDW6PLDQ8HU5ZAHD8XUR1D8CI","A14DC1USXBIRXU","3WPCIUYH1AU470H2HRBLZRFBM3CTDN","","null","<img src=""img/land9.png"" style=""width:200px; border:14px solid green;"">","null","","","","","","","",""
"","image-keyboard-response","30","64171","0.0-38.0","33FBRBDW6PLDQ8HU5ZAHD8XUR1D8CI","A14DC1USXBIRXU","3WPCIUYH1AU470H2HRBLZRFBM3CTDN","","25.299999997019768","img/land2.png","74","26.599999994039536","1","0","false","2","0.8,0.8,0.2,0.2,0.8,0.8,0.8,0.2,0.8","",""
"","html-keyboard-response","31","64481","0.0-39.0","33FBRBDW6PLDQ8HU5ZAHD8XUR1D8CI","A14DC1USXBIRXU","3WPCIUYH1AU470H2HRBLZRFBM3CTDN","","null","<img src=""img/land2.png"" style=""width:200px;border:14px solid red;"">","null","","","","","","","",""
"","image-keyboard-response","32","64593","0.0-41.0","33FBRBDW6PLDQ8HU5ZAHD8XUR1D8CI","A14DC1USXBIRXU","3WPCIUYH1AU470H2HRBLZRFBM3CTDN","","110","img/land5.png","76","111.69999998807907","3","0","false","3","0.8,0.8,0.2,0.2,0.8,0.8,0.8,0.2,0.8","",""
"","html-keyboard-response","33","64896","0.0-42.0","33FBRBDW6PLDQ8HU5ZAHD8XUR1D8CI","A14DC1USXBIRXU","3WPCIUYH1AU470H2HRBLZRFBM3CTDN","","null","<img src=""img/land5.png"" style=""width:200px;border:14px solid red;"">","null","","","","","","","",""
"","image-keyboard-response","34","64939","0.0-44.0","33FBRBDW6PLDQ8HU5ZAHD8XUR1D8CI","A14DC1USXBIRXU","3WPCIUYH1AU470H2HRBLZRFBM3CTDN","","41.79999999701977","img/land5.png","74","43","1","1","false","3","0.8,0.8,0.2,0.2,0.8,0.8,0.8,0.2,0.8","",""
"","html-keyboard-response","35","65248","0.0-45.0","33FBRBDW6PLDQ8HU5ZAHD8XUR1D8CI","A14DC1USXBIRXU","3WPCIUYH1AU470H2HRBLZRFBM3CTDN","","null","<img src=""img/land5.png"" style=""width:200px; border:14px solid green;"">","null","","","","","","","",""
"","image-keyboard-response","36","65254","0.0-47.0","33FBRBDW6PLDQ8HU5ZAHD8XUR1D8CI","A14DC1USXBIRXU","3WPCIUYH1AU470H2HRBLZRFBM3CTDN","","1.2000000029802322","img/land9.png","76","5.4000000059604645","3","0","false","1","0.8,0.8,0.2,0.2,0.8,0.8,0.8,0.2,0.8","",""
"","html-keyboard-response","37","65579","0.0-48.0","33FBRBDW6PLDQ8HU5ZAHD8XUR1D8CI","A14DC1USXBIRXU","3WPCIUYH1AU470H2HRBLZRFBM3CTDN","","null","<img src=""img/land9.png"" style=""width:200px;border:14px solid red;"">","null","","","","","","","",""
"","image-keyboard-response","38","65624","0.0-50.0","33FBRBDW6PLDQ8HU5ZAHD8XUR1D8CI","A14DC1USXBIRXU","3WPCIUYH1AU470H2HRBLZRFBM3CTDN","","34.20000000298023","img/land9.png","75","44.599999994039536","2","1","false","1","0.8,0.8,0.2,0.2,0.8,0.8,0.8,0.2,0.8","",""
"","html-keyboard-response","39","65936","0.0-51.0","33FBRBDW6PLDQ8HU5ZAHD8XUR1D8CI","A14DC1USXBIRXU","3WPCIUYH1AU470H2HRBLZRFBM3CTDN","","null","<img src=""img/land9.png"" style=""width:200px; border:14px solid green;"">","null","","","","","","","",""
"","image-keyboard-response","40","65980","0.0-53.0","33FBRBDW6PLDQ8HU5ZAHD8XUR1D8CI","A14DC1USXBIRXU","3WPCIUYH1AU470H2HRBLZRFBM3CTDN","","42.6000000089407","img/land9.png","74","43.70000000298023","1","1","false","1","0.8,0.8,0.2,0.2,0.8,0.8,0.8,0.2,0.8","",""
"","html-keyboard-response","41","66287","0.0-54.0","33FBRBDW6PLDQ8HU5ZAHD8XUR1D8CI","A14DC1USXBIRXU","3WPCIUYH1AU470H2HRBLZRFBM3CTDN","","null","<img src=""img/land9.png"" style=""width:200px; border:14px solid green;"">","null","","","","","","","",""
"","image-keyboard-response","42","66301","0.0-56.0","33FBRBDW6PLDQ8HU5ZAHD8XUR1D8CI","A14DC1USXBIRXU","3WPCIUYH1AU470H2HRBLZRFBM3CTDN","","11","img/land2.png","76","12.899999991059303","3","1","false","2","0.8,0.8,0.2,0.2,0.8,0.8,0.8,0.2,0.8","",""
"","html-keyboard-response","43","66625","0.0-57.0","33FBRBDW6PLDQ8HU5ZAHD8XUR1D8CI","A14DC1USXBIRXU","3WPCIUYH1AU470H2HRBLZRFBM3CTDN","","null","<img src=""img/land2.png"" style=""width:200px; border:14px solid green;"">","null","","","","","","","",""
"","image-keyboard-response","44","66667","0.0-59.0","33FBRBDW6PLDQ8HU5ZAHD8XUR1D8CI","A14DC1USXBIRXU","3WPCIUYH1AU470H2HRBLZRFBM3CTDN","","19.899999991059303","img/land5.png","74","29.30000001192093","1","1","false","3","0.8,0.8,0.2,0.2,0.8,0.8,0.8,0.2,0.8","",""
"","html-keyboard-response","45","66984","0.0-60.0","33FBRBDW6PLDQ8HU5ZAHD8XUR1D8CI","A14DC1USXBIRXU","3WPCIUYH1AU470H2HRBLZRFBM3CTDN","","null","<img src=""img/land5.png"" style=""width:200px; border:14px solid green;"">","null","","","","","","","",""
"","image-keyboard-response","46","67078","0.0-62.0","33FBRBDW6PLDQ8HU5ZAHD8XUR1D8CI","A14DC1USXBIRXU","3WPCIUYH1AU470H2HRBLZRFBM3CTDN","","91.29999999701977","img/land9.png","74","93","1","1","false","1","0.8,0.8,0.2,0.2,0.8,0.8,0.8,0.2,0.8","",""
"","html-keyboard-response","47","67396","0.0-63.0","33FBRBDW6PLDQ8HU5ZAHD8XUR1D8CI","A14DC1USXBIRXU","3WPCIUYH1AU470H2HRBLZRFBM3CTDN","","null","<img src=""img/land9.png"" style=""width:200px; border:14px solid green;"">","null","","","","","","","",""
"","image-keyboard-response","48","67493","0.0-65.0","33FBRBDW6PLDQ8HU5ZAHD8XUR1D8CI","A14DC1USXBIRXU","3WPCIUYH1AU470H2HRBLZRFBM3CTDN","","70.6000000089407","img/land2.png","74","89.79999999701977","1","1","false","2","0.8,0.8,0.2,0.2,0.8,0.8,0.8,0.2,0.8","",""
"","html-keyboard-response","49","67816","0.0-66.0","33FBRBDW6PLDQ8HU5ZAHD8XUR1D8CI","A14DC1USXBIRXU","3WPCIUYH1AU470H2HRBLZRFBM3CTDN","","null","<img src=""img/land2.png"" style=""width:200px; border:14px solid green;"">","null","","","","","","","",""
"","image-keyboard-response","50","67862","0.0-68.0","33FBRBDW6PLDQ8HU5ZAHD8XUR1D8CI","A14DC1USXBIRXU","3WPCIUYH1AU470H2HRBLZRFBM3CTDN","","40.099999994039536","img/land5.png","75","45.400000005960464","2","0","false","3","0.8,0.8,0.2,0.2,0.8,0.8,0.8,0.2,0.8","",""
"","html-keyboard-response","51","68168","0.0-69.0","33FBRBDW6PLDQ8HU5ZAHD8XUR1D8CI","A14DC1USXBIRXU","3WPCIUYH1AU470H2HRBLZRFBM3CTDN","","null","<img src=""img/land5.png"" style=""width:200px;border:14px solid red;"">","null","","","","","","","",""
"","image-keyboard-response","52","68199","0.0-71.0","33FBRBDW6PLDQ8HU5ZAHD8XUR1D8CI","A14DC1USXBIRXU","3WPCIUYH1AU470H2HRBLZRFBM3CTDN","","27.400000005960464","img/land5.png","76","30.200000002980232","3","0","false","3","0.8,0.8,0.2,0.2,0.8,0.8,0.8,0.2,0.8","",""
"","html-keyboard-response","53","68506","0.0-72.0","33FBRBDW6PLDQ8HU5ZAHD8XUR1D8CI","A14DC1USXBIRXU","3WPCIUYH1AU470H2HRBLZRFBM3CTDN","","null","<img src=""img/land5.png"" style=""width:200px;border:14px solid red;"">","null","","","","","","","",""
"","image-keyboard-response","54","68527","0.0-74.0","33FBRBDW6PLDQ8HU5ZAHD8XUR1D8CI","A14DC1USXBIRXU","3WPCIUYH1AU470H2HRBLZRFBM3CTDN","","6.300000011920929","img/land9.png","75","20.5","2","0","false","1","0.8,0.8,0.2,0.2,0.8,0.8,0.8,0.2,0.8","",""
"","html-keyboard-response","55","68864","0.0-75.0","33FBRBDW6PLDQ8HU5ZAHD8XUR1D8CI","A14DC1USXBIRXU","3WPCIUYH1AU470H2HRBLZRFBM3CTDN","","null","<img src=""img/land9.png"" style=""width:200px;border:14px solid red;"">","null","","","","","","","",""
"","image-keyboard-response","56","68878","0.0-77.0","33FBRBDW6PLDQ8HU5ZAHD8XUR1D8CI","A14DC1USXBIRXU","3WPCIUYH1AU470H2HRBLZRFBM3CTDN","","10.399999991059303","img/land2.png","74","12.299999997019768","1","0","false","2","0.8,0.8,0.2,0.2,0.8,0.8,0.8,0.2,0.8","",""
"","html-keyboard-response","57","69190","0.0-78.0","33FBRBDW6PLDQ8HU5ZAHD8XUR1D8CI","A14DC1USXBIRXU","3WPCIUYH1AU470H2HRBLZRFBM3CTDN","","null","<img src=""img/land2.png"" style=""width:200px;border:14px solid red;"">","null","","","","","","","",""
"","image-keyboard-response","58","69205","0.0-80.0","33FBRBDW6PLDQ8HU5ZAHD8XUR1D8CI","A14DC1USXBIRXU","3WPCIUYH1AU470H2HRBLZRFBM3CTDN","","10.799999997019768","img/land5.png","75","12.400000005960464","2","0","false","3","0.8,0.8,0.2,0.2,0.8,0.8,0.8,0.2,0.8","",""
"","html-keyboard-response","59","69545","0.0-81.0","33FBRBDW6PLDQ8HU5ZAHD8XUR1D8CI","A14DC1USXBIRXU","3WPCIUYH1AU470H2HRBLZRFBM3CTDN","","null","<img src=""img/land5.png"" style=""width:200px;border:14px solid red;"">","null","","","","","","","",""
"","image-keyboard-response","60","69620","0.0-83.0","33FBRBDW6PLDQ8HU5ZAHD8XUR1D8CI","A14DC1USXBIRXU","3WPCIUYH1AU470H2HRBLZRFBM3CTDN","","68.69999998807907","img/land9.png","74","73.59999999403954","1","1","false","1","0.8,0.8,0.2,0.2,0.8,0.8,0.8,0.2,0.8","",""
"","html-keyboard-response","61","69947","0.0-84.0","33FBRBDW6PLDQ8HU5ZAHD8XUR1D8CI","A14DC1USXBIRXU","3WPCIUYH1AU470H2HRBLZRFBM3CTDN","","null","<img src=""img/land9.png"" style=""width:200px; border:14px solid green;"">","null","","","","","","","",""
"","image-keyboard-response","62","70085","0.0-86.0","33FBRBDW6PLDQ8HU5ZAHD8XUR1D8CI","A14DC1USXBIRXU","3WPCIUYH1AU470H2HRBLZRFBM3CTDN","","1.2999999970197678","img/land5.png","76","4.9000000059604645","3","1","false","3","0.8,0.8,0.2,0.2,0.8,0.8,0.8,0.2,0.8","",""
"","html-keyboard-response","63","70398","0.0-87.0","33FBRBDW6PLDQ8HU5ZAHD8XUR1D8CI","A14DC1USXBIRXU","3WPCIUYH1AU470H2HRBLZRFBM3CTDN","","null","<img src=""img/land5.png"" style=""width:200px; border:14px solid green;"">","null","","","","","","","",""
"","image-keyboard-response","64","71127","0.0-89.0","33FBRBDW6PLDQ8HU5ZAHD8XUR1D8CI","A14DC1USXBIRXU","3WPCIUYH1AU470H2HRBLZRFBM3CTDN","","725.5999999940395","img/land9.png","75","727.1000000089407","2","1","false","1","0.8,0.8,0.2,0.2,0.8,0.8,0.8,0.2,0.8","",""
"","html-keyboard-response","65","71442","0.0-90.0","33FBRBDW6PLDQ8HU5ZAHD8XUR1D8CI","A14DC1USXBIRXU","3WPCIUYH1AU470H2HRBLZRFBM3CTDN","","null","<img src=""img/land9.png"" style=""width:200px; border:14px solid green;"">","null","","","","","","","",""
"","image-keyboard-response","66","71581","0.0-92.0","33FBRBDW6PLDQ8HU5ZAHD8XUR1D8CI","A14DC1USXBIRXU","3WPCIUYH1AU470H2HRBLZRFBM3CTDN","","120.1000000089407","img/land9.png","75","124.59999999403954","2","0","false","1","0.8,0.8,0.2,0.2,0.8,0.8,0.8,0.2,0.8","",""
"","html-keyboard-response","67","71900","0.0-93.0","33FBRBDW6PLDQ8HU5ZAHD8XUR1D8CI","A14DC1USXBIRXU","3WPCIUYH1AU470H2HRBLZRFBM3CTDN","","null","<img src=""img/land9.png"" style=""width:200px;border:14px solid red;"">","null","","","","","","","",""
"","image-keyboard-response","68","72714","0.0-95.0","33FBRBDW6PLDQ8HU5ZAHD8XUR1D8CI","A14DC1USXBIRXU","3WPCIUYH1AU470H2HRBLZRFBM3CTDN","","803.5","img/land9.png","74","813.6000000089407","1","1","false","1","0.8,0.8,0.2,0.2,0.8,0.8,0.8,0.2,0.8","",""
"","html-keyboard-response","69","73029","0.0-96.0","33FBRBDW6PLDQ8HU5ZAHD8XUR1D8CI","A14DC1USXBIRXU","3WPCIUYH1AU470H2HRBLZRFBM3CTDN","","null","<img src=""img/land9.png"" style=""width:200px; border:14px solid green;"">","null","","","","","","","",""
"","image-keyboard-response","70","73212","0.0-98.0","33FBRBDW6PLDQ8HU5ZAHD8XUR1D8CI","A14DC1USXBIRXU","3WPCIUYH1AU470H2HRBLZRFBM3CTDN","","127.70000000298023","img/land2.png","76","170.69999998807907","3","1","false","2","0.8,0.8,0.2,0.2,0.8,0.8,0.8,0.2,0.8","",""
"","html-keyboard-response","71","73529","0.0-99.0","33FBRBDW6PLDQ8HU5ZAHD8XUR1D8CI","A14DC1USXBIRXU","3WPCIUYH1AU470H2HRBLZRFBM3CTDN","","null","<img src=""img/land2.png"" style=""width:200px; border:14px solid green;"">","null","","","","","","","",""
"","image-keyboard-response","72","73997","0.0-101.0","33FBRBDW6PLDQ8HU5ZAHD8XUR1D8CI","A14DC1USXBIRXU","3WPCIUYH1AU470H2HRBLZRFBM3CTDN","","463.70000000298023","img/land5.png","74","466.70000000298023","1","1","false","3","0.8,0.8,0.2,0.2,0.8,0.8,0.8,0.2,0.8","",""
"","html-keyboard-response","73","74305","0.0-102.0","33FBRBDW6PLDQ8HU5ZAHD8XUR1D8CI","A14DC1USXBIRXU","3WPCIUYH1AU470H2HRBLZRFBM3CTDN","","null","<img src=""img/land5.png"" style=""width:200px; border:14px solid green;"">","null","","","","","","","",""
"","image-keyboard-response","74","74821","0.0-104.0","33FBRBDW6PLDQ8HU5ZAHD8XUR1D8CI","A14DC1USXBIRXU","3WPCIUYH1AU470H2HRBLZRFBM3CTDN","","509","img/land9.png","74","515.2000000029802","1","1","false","1","0.8,0.8,0.2,0.2,0.8,0.8,0.8,0.2,0.8","",""
"","html-keyboard-response","75","75147","0.0-105.0","33FBRBDW6PLDQ8HU5ZAHD8XUR1D8CI","A14DC1USXBIRXU","3WPCIUYH1AU470H2HRBLZRFBM3CTDN","","null","<img src=""img/land9.png"" style=""width:200px; border:14px solid green;"">","null","","","","","","","",""
"","image-keyboard-response","76","75235","0.0-107.0","33FBRBDW6PLDQ8HU5ZAHD8XUR1D8CI","A14DC1USXBIRXU","3WPCIUYH1AU470H2HRBLZRFBM3CTDN","","61.6000000089407","img/land9.png","75","77.30000001192093","2","1","false","1","0.8,0.8,0.2,0.2,0.8,0.8,0.8,0.2,0.8","",""
"","html-keyboard-response","77","75561","0.0-108.0","33FBRBDW6PLDQ8HU5ZAHD8XUR1D8CI","A14DC1USXBIRXU","3WPCIUYH1AU470H2HRBLZRFBM3CTDN","","null","<img src=""img/land9.png"" style=""width:200px; border:14px solid green;"">","null","","","","","","","",""
"","image-keyboard-response","78","76400","0.0-110.0","33FBRBDW6PLDQ8HU5ZAHD8XUR1D8CI","A14DC1USXBIRXU","3WPCIUYH1AU470H2HRBLZRFBM3CTDN","","826.0999999940395","img/land5.png","74","833.5","1","1","false","3","0.8,0.8,0.2,0.2,0.8,0.8,0.8,0.2,0.8","",""
"","html-keyboard-response","79","76704","0.0-111.0","33FBRBDW6PLDQ8HU5ZAHD8XUR1D8CI","A14DC1USXBIRXU","3WPCIUYH1AU470H2HRBLZRFBM3CTDN","","null","<img src=""img/land5.png"" style=""width:200px; border:14px solid green;"">","null","","","","","","","",""
"","image-keyboard-response","80","76759","0.0-113.0","33FBRBDW6PLDQ8HU5ZAHD8XUR1D8CI","A14DC1USXBIRXU","3WPCIUYH1AU470H2HRBLZRFBM3CTDN","","50.30000001192093","img/land9.png","74","54.79999999701977","1","0","false","1","0.8,0.8,0.2,0.2,0.8,0.8,0.8,0.2,0.8","",""
"","html-keyboard-response","81","77064","0.0-114.0","33FBRBDW6PLDQ8HU5ZAHD8XUR1D8CI","A14DC1USXBIRXU","3WPCIUYH1AU470H2HRBLZRFBM3CTDN","","null","<img src=""img/land9.png"" style=""width:200px;border:14px solid red;"">","null","","","","","","","",""
"","image-keyboard-response","82","77115","0.0-116.0","33FBRBDW6PLDQ8HU5ZAHD8XUR1D8CI","A14DC1USXBIRXU","3WPCIUYH1AU470H2HRBLZRFBM3CTDN","","47.8999999910593","img/land2.png","74","51.5","1","0","false","2","0.8,0.8,0.2,0.2,0.8,0.8,0.8,0.2,0.8","",""
"","html-keyboard-response","83","77495","0.0-117.0","33FBRBDW6PLDQ8HU5ZAHD8XUR1D8CI","A14DC1USXBIRXU","3WPCIUYH1AU470H2HRBLZRFBM3CTDN","","null","<img src=""img/land2.png"" style=""width:200px;border:14px solid red;"">","null","","","","","","","",""
"","image-keyboard-response","84","77531","0.0-119.0","33FBRBDW6PLDQ8HU5ZAHD8XUR1D8CI","A14DC1USXBIRXU","3WPCIUYH1AU470H2HRBLZRFBM3CTDN","","3","img/land5.png","74","18","1","0","false","3","0.8,0.8,0.2,0.2,0.8,0.8,0.8,0.2,0.8","",""
"","html-keyboard-response","85","77894","0.0-120.0","33FBRBDW6PLDQ8HU5ZAHD8XUR1D8CI","A14DC1USXBIRXU","3WPCIUYH1AU470H2HRBLZRFBM3CTDN","","null","<img src=""img/land5.png"" style=""width:200px;border:14px solid red;"">","null","","","","","","","",""
"","image-keyboard-response","86","78118","0.0-122.0","33FBRBDW6PLDQ8HU5ZAHD8XUR1D8CI","A14DC1USXBIRXU","3WPCIUYH1AU470H2HRBLZRFBM3CTDN","","203.70000000298023","img/land5.png","74","219.70000000298023","1","0","false","3","0.8,0.8,0.2,0.2,0.8,0.8,0.8,0.2,0.8","",""
"","html-keyboard-response","87","78424","0.0-123.0","33FBRBDW6PLDQ8HU5ZAHD8XUR1D8CI","A14DC1USXBIRXU","3WPCIUYH1AU470H2HRBLZRFBM3CTDN","","null","<img src=""img/land5.png"" style=""width:200px;border:14px solid red;"">","null","","","","","","","",""
"","image-keyboard-response","88","78510","0.0-125.0","33FBRBDW6PLDQ8HU5ZAHD8XUR1D8CI","A14DC1USXBIRXU","3WPCIUYH1AU470H2HRBLZRFBM3CTDN","","81.6000000089407","img/land5.png","75","84.59999999403954","2","0","false","3","0.8,0.8,0.2,0.2,0.8,0.8,0.8,0.2,0.8","",""
"","html-keyboard-response","89","78817","0.0-126.0","33FBRBDW6PLDQ8HU5ZAHD8XUR1D8CI","A14DC1USXBIRXU","3WPCIUYH1AU470H2HRBLZRFBM3CTDN","","null","<img src=""img/land5.png"" style=""width:200px;border:14px solid red;"">","null","","","","","","","",""
"","image-keyboard-response","90","79690","0.0-128.0","33FBRBDW6PLDQ8HU5ZAHD8XUR1D8CI","A14DC1USXBIRXU","3WPCIUYH1AU470H2HRBLZRFBM3CTDN","","868.4000000059605","img/land2.png","74","870.8999999910593","1","0","false","2","0.8,0.8,0.2,0.2,0.8,0.8,0.8,0.2,0.8","",""
"","html-keyboard-response","91","80009","0.0-129.0","33FBRBDW6PLDQ8HU5ZAHD8XUR1D8CI","A14DC1USXBIRXU","3WPCIUYH1AU470H2HRBLZRFBM3CTDN","","null","<img src=""img/land2.png"" style=""width:200px;border:14px solid red;"">","null","","","","","","","",""
"","image-keyboard-response","92","80462","0.0-131.0","33FBRBDW6PLDQ8HU5ZAHD8XUR1D8CI","A14DC1USXBIRXU","3WPCIUYH1AU470H2HRBLZRFBM3CTDN","","450.6000000089407","img/land9.png","75","452","2","1","false","1","0.8,0.8,0.2,0.2,0.8,0.8,0.8,0.2,0.8","",""
"","html-keyboard-response","93","80768","0.0-132.0","33FBRBDW6PLDQ8HU5ZAHD8XUR1D8CI","A14DC1USXBIRXU","3WPCIUYH1AU470H2HRBLZRFBM3CTDN","","null","<img src=""img/land9.png"" style=""width:200px; border:14px solid green;"">","null","","","","","","","",""
"","image-keyboard-response","94","80893","0.0-134.0","33FBRBDW6PLDQ8HU5ZAHD8XUR1D8CI","A14DC1USXBIRXU","3WPCIUYH1AU470H2HRBLZRFBM3CTDN","","123.20000000298023","img/land5.png","75","124.80000001192093","2","0","false","3","0.8,0.8,0.2,0.2,0.8,0.8,0.8,0.2,0.8","",""
"","html-keyboard-response","95","81197","0.0-135.0","33FBRBDW6PLDQ8HU5ZAHD8XUR1D8CI","A14DC1USXBIRXU","3WPCIUYH1AU470H2HRBLZRFBM3CTDN","","null","<img src=""img/land5.png"" style=""width:200px;border:14px solid red;"">","null","","","","","","","",""
"","image-keyboard-response","96","81347","0.0-137.0","33FBRBDW6PLDQ8HU5ZAHD8XUR1D8CI","A14DC1USXBIRXU","3WPCIUYH1AU470H2HRBLZRFBM3CTDN","","144.1000000089407","img/land9.png","75","149.40000000596046","2","1","false","1","0.8,0.8,0.2,0.2,0.8,0.8,0.8,0.2,0.8","",""
"","html-keyboard-response","97","81654","0.0-138.0","33FBRBDW6PLDQ8HU5ZAHD8XUR1D8CI","A14DC1USXBIRXU","3WPCIUYH1AU470H2HRBLZRFBM3CTDN","","null","<img src=""img/land9.png"" style=""width:200px; border:14px solid green;"">","null","","","","","","","",""
"","image-keyboard-response","98","81676","0.0-140.0","33FBRBDW6PLDQ8HU5ZAHD8XUR1D8CI","A14DC1USXBIRXU","3WPCIUYH1AU470H2HRBLZRFBM3CTDN","","20.200000002980232","img/land2.png","74","21.799999997019768","1","0","false","2","0.8,0.8,0.2,0.2,0.8,0.8,0.8,0.2,0.8","",""
"","html-keyboard-response","99","81985","0.0-141.0","33FBRBDW6PLDQ8HU5ZAHD8XUR1D8CI","A14DC1USXBIRXU","3WPCIUYH1AU470H2HRBLZRFBM3CTDN","","null","<img src=""img/land2.png"" style=""width:200px;border:14px solid red;"">","null","","","","","","","",""
"","image-keyboard-response","100","81998","0.0-143.0","33FBRBDW6PLDQ8HU5ZAHD8XUR1D8CI","A14DC1USXBIRXU","3WPCIUYH1AU470H2HRBLZRFBM3CTDN","","9.900000005960464","img/land9.png","75","11.699999988079071","2","1","false","1","0.8,0.8,0.2,0.2,0.8,0.8,0.8,0.2,0.8","",""
"","html-keyboard-response","101","82308","0.0-144.0","33FBRBDW6PLDQ8HU5ZAHD8XUR1D8CI","A14DC1USXBIRXU","3WPCIUYH1AU470H2HRBLZRFBM3CTDN","","null","<img src=""img/land9.png"" style=""width:200px; border:14px solid green;"">","null","","","","","","","",""
"","image-keyboard-response","102","82446","0.0-146.0","33FBRBDW6PLDQ8HU5ZAHD8XUR1D8CI","A14DC1USXBIRXU","3WPCIUYH1AU470H2HRBLZRFBM3CTDN","","134","img/land9.png","74","138.40000000596046","1","0","false","1","0.8,0.8,0.2,0.2,0.8,0.8,0.8,0.2,0.8","",""
"","html-keyboard-response","103","82763","0.0-147.0","33FBRBDW6PLDQ8HU5ZAHD8XUR1D8CI","A14DC1USXBIRXU","3WPCIUYH1AU470H2HRBLZRFBM3CTDN","","null","<img src=""img/land9.png"" style=""width:200px;border:14px solid red;"">","null","","","","","","","",""
"","image-keyboard-response","104","82901","0.0-149.0","33FBRBDW6PLDQ8HU5ZAHD8XUR1D8CI","A14DC1USXBIRXU","3WPCIUYH1AU470H2HRBLZRFBM3CTDN","","103.3999999910593","img/land2.png","74","123.09999999403954","1","0","false","2","0.8,0.8,0.2,0.2,0.8,0.8,0.8,0.2,0.8","",""
"","html-keyboard-response","105","83265","0.0-150.0","33FBRBDW6PLDQ8HU5ZAHD8XUR1D8CI","A14DC1USXBIRXU","3WPCIUYH1AU470H2HRBLZRFBM3CTDN","","null","<img src=""img/land2.png"" style=""width:200px;border:14px solid red;"">","null","","","","","","","",""
"","image-keyboard-response","106","83298","0.0-152.0","33FBRBDW6PLDQ8HU5ZAHD8XUR1D8CI","A14DC1USXBIRXU","3WPCIUYH1AU470H2HRBLZRFBM3CTDN","","31","img/land2.png","74","32.400000005960464","1","0","false","2","0.8,0.8,0.2,0.2,0.8,0.8,0.8,0.2,0.8","",""
"","html-keyboard-response","107","83609","0.0-153.0","33FBRBDW6PLDQ8HU5ZAHD8XUR1D8CI","A14DC1USXBIRXU","3WPCIUYH1AU470H2HRBLZRFBM3CTDN","","null","<img src=""img/land2.png"" style=""width:200px;border:14px solid red;"">","null","","","","","","","",""
"","image-keyboard-response","108","83748","0.0-155.0","33FBRBDW6PLDQ8HU5ZAHD8XUR1D8CI","A14DC1USXBIRXU","3WPCIUYH1AU470H2HRBLZRFBM3CTDN","","135.1000000089407","img/land9.png","75","137.90000000596046","2","1","false","1","0.8,0.8,0.2,0.2,0.8,0.8,0.8,0.2,0.8","",""
"","html-keyboard-response","109","84063","0.0-156.0","33FBRBDW6PLDQ8HU5ZAHD8XUR1D8CI","A14DC1USXBIRXU","3WPCIUYH1AU470H2HRBLZRFBM3CTDN","","null","<img src=""img/land9.png"" style=""width:200px; border:14px solid green;"">","null","","","","","","","",""
"","image-keyboard-response","110","84082","0.0-158.0","33FBRBDW6PLDQ8HU5ZAHD8XUR1D8CI","A14DC1USXBIRXU","3WPCIUYH1AU470H2HRBLZRFBM3CTDN","","5.600000008940697","img/land2.png","76","17","3","1","false","2","0.8,0.8,0.2,0.2,0.8,0.8,0.8,0.2,0.8","",""
"","html-keyboard-response","111","84401","0.0-159.0","33FBRBDW6PLDQ8HU5ZAHD8XUR1D8CI","A14DC1USXBIRXU","3WPCIUYH1AU470H2HRBLZRFBM3CTDN","","null","<img src=""img/land2.png"" style=""width:200px; border:14px solid green;"">","null","","","","","","","",""
"","image-keyboard-response","112","84418","0.0-161.0","33FBRBDW6PLDQ8HU5ZAHD8XUR1D8CI","A14DC1USXBIRXU","3WPCIUYH1AU470H2HRBLZRFBM3CTDN","","15.900000005960464","img/land2.png","76","17.19999998807907","3","1","false","2","0.8,0.8,0.2,0.2,0.8,0.8,0.8,0.2,0.8","",""
"","html-keyboard-response","113","84729","0.0-162.0","33FBRBDW6PLDQ8HU5ZAHD8XUR1D8CI","A14DC1USXBIRXU","3WPCIUYH1AU470H2HRBLZRFBM3CTDN","","null","<img src=""img/land2.png"" style=""width:200px; border:14px solid green;"">","null","","","","","","","",""
"","image-keyboard-response","114","84743","0.0-164.0","33FBRBDW6PLDQ8HU5ZAHD8XUR1D8CI","A14DC1USXBIRXU","3WPCIUYH1AU470H2HRBLZRFBM3CTDN","","11.5","img/land5.png","76","13.5","3","1","false","3","0.8,0.8,0.2,0.2,0.8,0.8,0.8,0.2,0.8","",""
"","html-keyboard-response","115","85065","0.0-165.0","33FBRBDW6PLDQ8HU5ZAHD8XUR1D8CI","A14DC1USXBIRXU","3WPCIUYH1AU470H2HRBLZRFBM3CTDN","","null","<img src=""img/land5.png"" style=""width:200px; border:14px solid green;"">","null","","","","","","","",""
"","image-keyboard-response","116","85079","0.0-167.0","33FBRBDW6PLDQ8HU5ZAHD8XUR1D8CI","A14DC1USXBIRXU","3WPCIUYH1AU470H2HRBLZRFBM3CTDN","","4","img/land5.png","76","13.300000011920929","3","1","false","3","0.8,0.8,0.2,0.2,0.8,0.8,0.8,0.2,0.8","",""
"","html-keyboard-response","117","85393","0.0-168.0","33FBRBDW6PLDQ8HU5ZAHD8XUR1D8CI","A14DC1USXBIRXU","3WPCIUYH1AU470H2HRBLZRFBM3CTDN","","null","<img src=""img/land5.png"" style=""width:200px; border:14px solid green;"">","null","","","","","","","",""
"","image-keyboard-response","118","85429","0.0-170.0","33FBRBDW6PLDQ8HU5ZAHD8XUR1D8CI","A14DC1USXBIRXU","3WPCIUYH1AU470H2HRBLZRFBM3CTDN","","0.29999999701976776","img/land5.png","76","23.5","3","1","false","3","0.8,0.8,0.2,0.2,0.8,0.8,0.8,0.2,0.8","",""
"","html-keyboard-response","119","85762","0.0-171.0","33FBRBDW6PLDQ8HU5ZAHD8XUR1D8CI","A14DC1USXBIRXU","3WPCIUYH1AU470H2HRBLZRFBM3CTDN","","null","<img src=""img/land5.png"" style=""width:200px; border:14px solid green;"">","null","","","","","","","",""
"","image-keyboard-response","120","86621","0.0-173.0","33FBRBDW6PLDQ8HU5ZAHD8XUR1D8CI","A14DC1USXBIRXU","3WPCIUYH1AU470H2HRBLZRFBM3CTDN","","856.2000000029802","img/land5.png","75","858.4000000059605","2","0","false","3","0.8,0.8,0.2,0.2,0.8,0.8,0.8,0.2,0.8","",""
"","html-keyboard-response","121","86929","0.0-174.0","33FBRBDW6PLDQ8HU5ZAHD8XUR1D8CI","A14DC1USXBIRXU","3WPCIUYH1AU470H2HRBLZRFBM3CTDN","","null","<img src=""img/land5.png"" style=""width:200px;border:14px solid red;"">","null","","","","","","","",""
"","image-keyboard-response","122","86959","0.0-176.0","33FBRBDW6PLDQ8HU5ZAHD8XUR1D8CI","A14DC1USXBIRXU","3WPCIUYH1AU470H2HRBLZRFBM3CTDN","","25.69999998807907","img/land9.png","76","29.099999994039536","3","1","false","1","0.8,0.8,0.2,0.2,0.8,0.8,0.8,0.2,0.8","",""
"","html-keyboard-response","123","87265","0.0-177.0","33FBRBDW6PLDQ8HU5ZAHD8XUR1D8CI","A14DC1USXBIRXU","3WPCIUYH1AU470H2HRBLZRFBM3CTDN","","null","<img src=""img/land9.png"" style=""width:200px; border:14px solid green;"">","null","","","","","","","",""
"","image-keyboard-response","124","87287","0.0-179.0","33FBRBDW6PLDQ8HU5ZAHD8XUR1D8CI","A14DC1USXBIRXU","3WPCIUYH1AU470H2HRBLZRFBM3CTDN","","21.100000008940697","img/land9.png","74","22.200000002980232","1","1","false","1","0.8,0.8,0.2,0.2,0.8,0.8,0.8,0.2,0.8","",""
"","html-keyboard-response","125","87593","0.0-180.0","33FBRBDW6PLDQ8HU5ZAHD8XUR1D8CI","A14DC1USXBIRXU","3WPCIUYH1AU470H2HRBLZRFBM3CTDN","","null","<img src=""img/land9.png"" style=""width:200px; border:14px solid green;"">","null","","","","","","","",""
"","image-keyboard-response","126","87742","0.0-182.0","33FBRBDW6PLDQ8HU5ZAHD8XUR1D8CI","A14DC1USXBIRXU","3WPCIUYH1AU470H2HRBLZRFBM3CTDN","","141.1000000089407","img/land2.png","74","151.3999999910593","1","1","false","2","0.8,0.8,0.2,0.2,0.8,0.8,0.8,0.2,0.8","",""
"","html-keyboard-response","127","88060","0.0-183.0","33FBRBDW6PLDQ8HU5ZAHD8XUR1D8CI","A14DC1USXBIRXU","3WPCIUYH1AU470H2HRBLZRFBM3CTDN","","null","<img src=""img/land2.png"" style=""width:200px; border:14px solid green;"">","null","","","","","","","",""
"","image-keyboard-response","128","88168","0.0-185.0","33FBRBDW6PLDQ8HU5ZAHD8XUR1D8CI","A14DC1USXBIRXU","3WPCIUYH1AU470H2HRBLZRFBM3CTDN","","88","img/land2.png","76","99.5","3","1","false","2","0.8,0.8,0.2,0.2,0.8,0.8,0.8,0.2,0.8","",""
"","html-keyboard-response","129","88493","0.0-186.0","33FBRBDW6PLDQ8HU5ZAHD8XUR1D8CI","A14DC1USXBIRXU","3WPCIUYH1AU470H2HRBLZRFBM3CTDN","","null","<img src=""img/land2.png"" style=""width:200px; border:14px solid green;"">","null","","","","","","","",""
"","image-keyboard-response","130","89506","0.0-188.0","33FBRBDW6PLDQ8HU5ZAHD8XUR1D8CI","A14DC1USXBIRXU","3WPCIUYH1AU470H2HRBLZRFBM3CTDN","","","img/land5.png","","1009.5999999940395","-1","0","true","3","0.8,0.8,0.2,0.2,0.8,0.8,0.8,0.2,0.8","",""
"","html-keyboard-response","131","89830","0.0-189.0","33FBRBDW6PLDQ8HU5ZAHD8XUR1D8CI","A14DC1USXBIRXU","3WPCIUYH1AU470H2HRBLZRFBM3CTDN","","null","<img src=""img/land5.png"" style=""width:200px;border:14px solid red;"">","null","","","","","","","",""
"","html-keyboard-response","132","94839","0.0-190.0-0.0","33FBRBDW6PLDQ8HU5ZAHD8XUR1D8CI","A14DC1USXBIRXU","3WPCIUYH1AU470H2HRBLZRFBM3CTDN","","","","","","","","","","","",""
"","image-keyboard-response","133","95849","0.0-191.0","33FBRBDW6PLDQ8HU5ZAHD8XUR1D8CI","A14DC1USXBIRXU","3WPCIUYH1AU470H2HRBLZRFBM3CTDN","","","img/land9.png","","1009.5999999940395","-1","0","true","1","0.8,0.8,0.2,0.2,0.8,0.8,0.8,0.2,0.8","",""
"","html-keyboard-response","134","96161","0.0-192.0","33FBRBDW6PLDQ8HU5ZAHD8XUR1D8CI","A14DC1USXBIRXU","3WPCIUYH1AU470H2HRBLZRFBM3CTDN","","null","<img src=""img/land9.png"" style=""width:200px;border:14px solid red;"">","null","","","","","","","",""
"","html-keyboard-response","135","97478","0.0-193.0-0.0","33FBRBDW6PLDQ8HU5ZAHD8XUR1D8CI","A14DC1USXBIRXU","3WPCIUYH1AU470H2HRBLZRFBM3CTDN","","","","","","","","","","","",""
"","image-keyboard-response","136","97622","0.0-194.0","33FBRBDW6PLDQ8HU5ZAHD8XUR1D8CI","A14DC1USXBIRXU","3WPCIUYH1AU470H2HRBLZRFBM3CTDN","","142.09999999403954","img/land2.png","76","143.70000000298023","3","1","false","2","0.8,0.8,0.2,0.2,0.8,0.8,0.8,0.2,0.8","",""
"","html-keyboard-response","137","97929","0.0-195.0","33FBRBDW6PLDQ8HU5ZAHD8XUR1D8CI","A14DC1USXBIRXU","3WPCIUYH1AU470H2HRBLZRFBM3CTDN","","null","<img src=""img/land2.png"" style=""width:200px; border:14px solid green;"">","null","","","","","","","",""
"","image-keyboard-response","138","98217","0.0-197.0","33FBRBDW6PLDQ8HU5ZAHD8XUR1D8CI","A14DC1USXBIRXU","3WPCIUYH1AU470H2HRBLZRFBM3CTDN","","286.29999999701977","img/land5.png","76","287.59999999403954","3","1","false","3","0.8,0.8,0.2,0.2,0.8,0.8,0.8,0.2,0.8","",""
"","html-keyboard-response","139","98530","0.0-198.0","33FBRBDW6PLDQ8HU5ZAHD8XUR1D8CI","A14DC1USXBIRXU","3WPCIUYH1AU470H2HRBLZRFBM3CTDN","","null","<img src=""img/land5.png"" style=""width:200px; border:14px solid green;"">","null","","","","","","","",""
"","image-keyboard-response","140","98662","0.0-200.0","33FBRBDW6PLDQ8HU5ZAHD8XUR1D8CI","A14DC1USXBIRXU","3WPCIUYH1AU470H2HRBLZRFBM3CTDN","","126.09999999403954","img/land5.png","76","131.20000000298023","3","1","false","3","0.8,0.8,0.2,0.2,0.8,0.8,0.8,0.2,0.8","",""
"","html-keyboard-response","141","98993","0.0-201.0","33FBRBDW6PLDQ8HU5ZAHD8XUR1D8CI","A14DC1USXBIRXU","3WPCIUYH1AU470H2HRBLZRFBM3CTDN","","null","<img src=""img/land5.png"" style=""width:200px; border:14px solid green;"">","null","","","","","","","",""
"","image-keyboard-response","142","99072","0.0-203.0","33FBRBDW6PLDQ8HU5ZAHD8XUR1D8CI","A14DC1USXBIRXU","3WPCIUYH1AU470H2HRBLZRFBM3CTDN","","62.20000000298023","img/land2.png","76","73.3999999910593","3","1","false","2","0.8,0.8,0.2,0.2,0.8,0.8,0.8,0.2,0.8","",""
"","html-keyboard-response","143","99391","0.0-204.0","33FBRBDW6PLDQ8HU5ZAHD8XUR1D8CI","A14DC1USXBIRXU","3WPCIUYH1AU470H2HRBLZRFBM3CTDN","","null","<img src=""img/land2.png"" style=""width:200px; border:14px solid green;"">","null","","","","","","","",""
"","image-keyboard-response","144","99406","0.0-206.0","33FBRBDW6PLDQ8HU5ZAHD8XUR1D8CI","A14DC1USXBIRXU","3WPCIUYH1AU470H2HRBLZRFBM3CTDN","","0.3999999910593033","img/land9.png","76","13.5","3","1","false","1","0.8,0.8,0.2,0.2,0.8,0.8,0.8,0.2,0.8","",""
"","html-keyboard-response","145","99721","0.0-207.0","33FBRBDW6PLDQ8HU5ZAHD8XUR1D8CI","A14DC1USXBIRXU","3WPCIUYH1AU470H2HRBLZRFBM3CTDN","","null","<img src=""img/land9.png"" style=""width:200px; border:14px solid green;"">","null","","","","","","","",""
"","image-keyboard-response","146","99813","0.0-209.0","33FBRBDW6PLDQ8HU5ZAHD8XUR1D8CI","A14DC1USXBIRXU","3WPCIUYH1AU470H2HRBLZRFBM3CTDN","","89.1000000089407","img/land5.png","76","91.70000000298023","3","0","false","3","0.8,0.8,0.2,0.2,0.8,0.8,0.8,0.2,0.8","",""
"","html-keyboard-response","147","100121","0.0-210.0","33FBRBDW6PLDQ8HU5ZAHD8XUR1D8CI","A14DC1USXBIRXU","3WPCIUYH1AU470H2HRBLZRFBM3CTDN","","null","<img src=""img/land5.png"" style=""width:200px;border:14px solid red;"">","null","","","","","","","",""
"","image-keyboard-response","148","100313","0.0-212.0","33FBRBDW6PLDQ8HU5ZAHD8XUR1D8CI","A14DC1USXBIRXU","3WPCIUYH1AU470H2HRBLZRFBM3CTDN","","189.40000000596046","img/land2.png","76","190.79999999701977","3","1","false","2","0.8,0.8,0.2,0.2,0.8,0.8,0.8,0.2,0.8","",""
"","html-keyboard-response","149","100623","0.0-213.0","33FBRBDW6PLDQ8HU5ZAHD8XUR1D8CI","A14DC1USXBIRXU","3WPCIUYH1AU470H2HRBLZRFBM3CTDN","","null","<img src=""img/land2.png"" style=""width:200px; border:14px solid green;"">","null","","","","","","","",""
"","image-keyboard-response","150","100725","0.0-215.0","33FBRBDW6PLDQ8HU5ZAHD8XUR1D8CI","A14DC1USXBIRXU","3WPCIUYH1AU470H2HRBLZRFBM3CTDN","","14.100000008940697","img/land5.png","74","101","1","1","false","3","0.8,0.8,0.2,0.2,0.8,0.8,0.8,0.2,0.8","",""
"","html-keyboard-response","151","101032","0.0-216.0","33FBRBDW6PLDQ8HU5ZAHD8XUR1D8CI","A14DC1USXBIRXU","3WPCIUYH1AU470H2HRBLZRFBM3CTDN","","null","<img src=""img/land5.png"" style=""width:200px; border:14px solid green;"">","null","","","","","","","",""
"","image-keyboard-response","152","101246","0.0-218.0","33FBRBDW6PLDQ8HU5ZAHD8XUR1D8CI","A14DC1USXBIRXU","3WPCIUYH1AU470H2HRBLZRFBM3CTDN","","192.3999999910593","img/land9.png","74","213.1000000089407","1","1","false","1","0.8,0.8,0.2,0.2,0.8,0.8,0.8,0.2,0.8","",""
"","html-keyboard-response","153","101563","0.0-219.0","33FBRBDW6PLDQ8HU5ZAHD8XUR1D8CI","A14DC1USXBIRXU","3WPCIUYH1AU470H2HRBLZRFBM3CTDN","","null","<img src=""img/land9.png"" style=""width:200px; border:14px solid green;"">","null","","","","","","","",""
"","image-keyboard-response","154","101666","0.0-221.0","33FBRBDW6PLDQ8HU5ZAHD8XUR1D8CI","A14DC1USXBIRXU","3WPCIUYH1AU470H2HRBLZRFBM3CTDN","","84.29999999701977","img/land2.png","74","92.5","1","0","false","2","0.8,0.8,0.2,0.2,0.8,0.8,0.8,0.2,0.8","",""
"","html-keyboard-response","155","101972","0.0-222.0","33FBRBDW6PLDQ8HU5ZAHD8XUR1D8CI","A14DC1USXBIRXU","3WPCIUYH1AU470H2HRBLZRFBM3CTDN","","null","<img src=""img/land2.png"" style=""width:200px;border:14px solid red;"">","null","","","","","","","",""
"","image-keyboard-response","156","102163","0.0-224.0","33FBRBDW6PLDQ8HU5ZAHD8XUR1D8CI","A14DC1USXBIRXU","3WPCIUYH1AU470H2HRBLZRFBM3CTDN","","185.70000000298023","img/land2.png","76","187.70000000298023","3","1","false","2","0.8,0.8,0.2,0.2,0.8,0.8,0.8,0.2,0.8","",""
"","html-keyboard-response","157","102475","0.0-225.0","33FBRBDW6PLDQ8HU5ZAHD8XUR1D8CI","A14DC1USXBIRXU","3WPCIUYH1AU470H2HRBLZRFBM3CTDN","","null","<img src=""img/land2.png"" style=""width:200px; border:14px solid green;"">","null","","","","","","","",""
"","image-keyboard-response","158","102591","0.0-227.0","33FBRBDW6PLDQ8HU5ZAHD8XUR1D8CI","A14DC1USXBIRXU","3WPCIUYH1AU470H2HRBLZRFBM3CTDN","","109.59999999403954","img/land2.png","76","114","3","0","false","2","0.8,0.8,0.2,0.2,0.8,0.8,0.8,0.2,0.8","",""
"","html-keyboard-response","159","102920","0.0-228.0","33FBRBDW6PLDQ8HU5ZAHD8XUR1D8CI","A14DC1USXBIRXU","3WPCIUYH1AU470H2HRBLZRFBM3CTDN","","null","<img src=""img/land2.png"" style=""width:200px;border:14px solid red;"">","null","","","","","","","",""
"","image-keyboard-response","160","103013","0.0-230.0","33FBRBDW6PLDQ8HU5ZAHD8XUR1D8CI","A14DC1USXBIRXU","3WPCIUYH1AU470H2HRBLZRFBM3CTDN","","67.70000000298023","img/land9.png","76","82.40000000596046","3","0","false","1","0.8,0.8,0.2,0.2,0.8,0.8,0.8,0.2,0.8","",""
"","html-keyboard-response","161","103328","0.0-231.0","33FBRBDW6PLDQ8HU5ZAHD8XUR1D8CI","A14DC1USXBIRXU","3WPCIUYH1AU470H2HRBLZRFBM3CTDN","","null","<img src=""img/land9.png"" style=""width:200px;border:14px solid red;"">","null","","","","","","","",""
"","image-keyboard-response","162","103347","0.0-233.0","33FBRBDW6PLDQ8HU5ZAHD8XUR1D8CI","A14DC1USXBIRXU","3WPCIUYH1AU470H2HRBLZRFBM3CTDN","","17.099999994039536","img/land2.png","76","18.099999994039536","3","1","false","2","0.8,0.8,0.2,0.2,0.8,0.8,0.8,0.2,0.8","",""
"","html-keyboard-response","163","103679","0.0-234.0","33FBRBDW6PLDQ8HU5ZAHD8XUR1D8CI","A14DC1USXBIRXU","3WPCIUYH1AU470H2HRBLZRFBM3CTDN","","null","<img src=""img/land2.png"" style=""width:200px; border:14px solid green;"">","null","","","","","","","",""
"","image-keyboard-response","164","103873","0.0-236.0","33FBRBDW6PLDQ8HU5ZAHD8XUR1D8CI","A14DC1USXBIRXU","3WPCIUYH1AU470H2HRBLZRFBM3CTDN","","126.5","img/land9.png","74","162.29999999701977","1","1","false","1","0.8,0.8,0.2,0.2,0.8,0.8,0.8,0.2,0.8","",""
"","html-keyboard-response","165","104192","0.0-237.0","33FBRBDW6PLDQ8HU5ZAHD8XUR1D8CI","A14DC1USXBIRXU","3WPCIUYH1AU470H2HRBLZRFBM3CTDN","","null","<img src=""img/land9.png"" style=""width:200px; border:14px solid green;"">","null","","","","","","","",""
"","image-keyboard-response","166","104256","0.0-239.0","33FBRBDW6PLDQ8HU5ZAHD8XUR1D8CI","A14DC1USXBIRXU","3WPCIUYH1AU470H2HRBLZRFBM3CTDN","","37.900000005960464","img/land5.png","74","65.29999999701977","1","0","false","3","0.8,0.8,0.2,0.2,0.8,0.8,0.8,0.2,0.8","",""
"","html-keyboard-response","167","104618","0.0-240.0","33FBRBDW6PLDQ8HU5ZAHD8XUR1D8CI","A14DC1USXBIRXU","3WPCIUYH1AU470H2HRBLZRFBM3CTDN","","null","<img src=""img/land5.png"" style=""width:200px;border:14px solid red;"">","null","","","","","","","",""
"","image-keyboard-response","168","105000","0.0-242.0","33FBRBDW6PLDQ8HU5ZAHD8XUR1D8CI","A14DC1USXBIRXU","3WPCIUYH1AU470H2HRBLZRFBM3CTDN","","378.5","img/land2.png","76","380.8999999910593","3","1","false","2","0.8,0.8,0.2,0.2,0.8,0.8,0.8,0.2,0.8","",""
"","html-keyboard-response","169","105306","0.0-243.0","33FBRBDW6PLDQ8HU5ZAHD8XUR1D8CI","A14DC1USXBIRXU","3WPCIUYH1AU470H2HRBLZRFBM3CTDN","","null","<img src=""img/land2.png"" style=""width:200px; border:14px solid green;"">","null","","","","","","","",""
"","image-keyboard-response","170","105381","0.0-245.0","33FBRBDW6PLDQ8HU5ZAHD8XUR1D8CI","A14DC1USXBIRXU","3WPCIUYH1AU470H2HRBLZRFBM3CTDN","","68.29999999701977","img/land2.png","76","70.5","3","1","false","2","0.8,0.8,0.2,0.2,0.8,0.8,0.8,0.2,0.8","",""
"","html-keyboard-response","171","105696","0.0-246.0","33FBRBDW6PLDQ8HU5ZAHD8XUR1D8CI","A14DC1USXBIRXU","3WPCIUYH1AU470H2HRBLZRFBM3CTDN","","null","<img src=""img/land2.png"" style=""width:200px; border:14px solid green;"">","null","","","","","","","",""
"","image-keyboard-response","172","105728","0.0-248.0","33FBRBDW6PLDQ8HU5ZAHD8XUR1D8CI","A14DC1USXBIRXU","3WPCIUYH1AU470H2HRBLZRFBM3CTDN","","10.099999994039536","img/land9.png","74","32.599999994039536","1","0","false","1","0.8,0.8,0.2,0.2,0.8,0.8,0.8,0.2,0.8","",""
"","html-keyboard-response","173","106039","0.0-249.0","33FBRBDW6PLDQ8HU5ZAHD8XUR1D8CI","A14DC1USXBIRXU","3WPCIUYH1AU470H2HRBLZRFBM3CTDN","","null","<img src=""img/land9.png"" style=""width:200px;border:14px solid red;"">","null","","","","","","","",""
"","image-keyboard-response","174","106074","0.0-251.0","33FBRBDW6PLDQ8HU5ZAHD8XUR1D8CI","A14DC1USXBIRXU","3WPCIUYH1AU470H2HRBLZRFBM3CTDN","","33.599999994039536","img/land2.png","76","34.69999998807907","3","1","false","2","0.8,0.8,0.2,0.2,0.8,0.8,0.8,0.2,0.8","",""
"","html-keyboard-response","175","106385","0.0-252.0","33FBRBDW6PLDQ8HU5ZAHD8XUR1D8CI","A14DC1USXBIRXU","3WPCIUYH1AU470H2HRBLZRFBM3CTDN","","null","<img src=""img/land2.png"" style=""width:200px; border:14px solid green;"">","null","","","","","","","",""
"","image-keyboard-response","176","106435","0.0-254.0","33FBRBDW6PLDQ8HU5ZAHD8XUR1D8CI","A14DC1USXBIRXU","3WPCIUYH1AU470H2HRBLZRFBM3CTDN","","47.79999999701977","img/land9.png","76","49.099999994039536","3","0","false","1","0.8,0.8,0.2,0.2,0.8,0.8,0.8,0.2,0.8","",""
"","html-keyboard-response","177","106744","0.0-255.0","33FBRBDW6PLDQ8HU5ZAHD8XUR1D8CI","A14DC1USXBIRXU","3WPCIUYH1AU470H2HRBLZRFBM3CTDN","","null","<img src=""img/land9.png"" style=""width:200px;border:14px solid red;"">","null","","","","","","","",""
"","image-keyboard-response","178","106788","0.0-257.0","33FBRBDW6PLDQ8HU5ZAHD8XUR1D8CI","A14DC1USXBIRXU","3WPCIUYH1AU470H2HRBLZRFBM3CTDN","","16.200000002980232","img/land2.png","76","43.5","3","1","false","2","0.8,0.8,0.2,0.2,0.8,0.8,0.8,0.2,0.8","",""
"","html-keyboard-response","179","107118","0.0-258.0","33FBRBDW6PLDQ8HU5ZAHD8XUR1D8CI","A14DC1USXBIRXU","3WPCIUYH1AU470H2HRBLZRFBM3CTDN","","null","<img src=""img/land2.png"" style=""width:200px; border:14px solid green;"">","null","","","","","","","",""
"","image-keyboard-response","180","107148","0.0-260.0","33FBRBDW6PLDQ8HU5ZAHD8XUR1D8CI","A14DC1USXBIRXU","3WPCIUYH1AU470H2HRBLZRFBM3CTDN","","8.899999991059303","img/land2.png","76","17","3","1","false","2","0.8,0.8,0.2,0.2,0.8,0.8,0.8,0.2,0.8","",""
"","html-keyboard-response","181","107461","0.0-261.0","33FBRBDW6PLDQ8HU5ZAHD8XUR1D8CI","A14DC1USXBIRXU","3WPCIUYH1AU470H2HRBLZRFBM3CTDN","","null","<img src=""img/land2.png"" style=""width:200px; border:14px solid green;"">","null","","","","","","","",""
"","image-keyboard-response","182","108223","0.0-263.0","33FBRBDW6PLDQ8HU5ZAHD8XUR1D8CI","A14DC1USXBIRXU","3WPCIUYH1AU470H2HRBLZRFBM3CTDN","","758.3000000119209","img/land9.png","76","761.6000000089407","3","1","false","1","0.8,0.8,0.2,0.2,0.8,0.8,0.8,0.2,0.8","",""
"","html-keyboard-response","183","108529","0.0-264.0","33FBRBDW6PLDQ8HU5ZAHD8XUR1D8CI","A14DC1USXBIRXU","3WPCIUYH1AU470H2HRBLZRFBM3CTDN","","null","<img src=""img/land9.png"" style=""width:200px; border:14px solid green;"">","null","","","","","","","",""
"","image-keyboard-response","184","108593","0.0-266.0","33FBRBDW6PLDQ8HU5ZAHD8XUR1D8CI","A14DC1USXBIRXU","3WPCIUYH1AU470H2HRBLZRFBM3CTDN","","61.3999999910593","img/land5.png","76","63.3999999910593","3","1","false","3","0.8,0.8,0.2,0.2,0.8,0.8,0.8,0.2,0.8","",""
"","html-keyboard-response","185","108907","0.0-267.0","33FBRBDW6PLDQ8HU5ZAHD8XUR1D8CI","A14DC1USXBIRXU","3WPCIUYH1AU470H2HRBLZRFBM3CTDN","","null","<img src=""img/land5.png"" style=""width:200px; border:14px solid green;"">","null","","","","","","","",""
"","image-keyboard-response","186","109107","0.0-269.0","33FBRBDW6PLDQ8HU5ZAHD8XUR1D8CI","A14DC1USXBIRXU","3WPCIUYH1AU470H2HRBLZRFBM3CTDN","","162.09999999403954","img/land9.png","76","196.70000000298023","3","1","false","1","0.8,0.8,0.2,0.2,0.8,0.8,0.8,0.2,0.8","",""
"","html-keyboard-response","187","109424","0.0-270.0","33FBRBDW6PLDQ8HU5ZAHD8XUR1D8CI","A14DC1USXBIRXU","3WPCIUYH1AU470H2HRBLZRFBM3CTDN","","null","<img src=""img/land9.png"" style=""width:200px; border:14px solid green;"">","null","","","","","","","",""
"","html-keyboard-response","188","113391","0.0-272.0","33FBRBDW6PLDQ8HU5ZAHD8XUR1D8CI","A14DC1USXBIRXU","3WPCIUYH1AU470H2HRBLZRFBM3CTDN","","","","","","","","","","","",""
"","image-keyboard-response","189","114213","0.0-273.0","33FBRBDW6PLDQ8HU5ZAHD8XUR1D8CI","A14DC1USXBIRXU","3WPCIUYH1AU470H2HRBLZRFBM3CTDN","","807.7999999970198","img/land4.png","76","820.0999999940395","3","1","false","2","0.8,0.2,0.2,0.2,0.8,0.2,0.2,0.2,0.8","",""
"","html-keyboard-response","190","114523","0.0-274.0","33FBRBDW6PLDQ8HU5ZAHD8XUR1D8CI","A14DC1USXBIRXU","3WPCIUYH1AU470H2HRBLZRFBM3CTDN","","null","<img src=""img/land4.png"" style=""width:200px; border:14px solid green;"">","null","","","","","","","",""
"","image-keyboard-response","191","114571","0.0-276.0","33FBRBDW6PLDQ8HU5ZAHD8XUR1D8CI","A14DC1USXBIRXU","3WPCIUYH1AU470H2HRBLZRFBM3CTDN","","46.29999999701977","img/land4.png","76","47.599999994039536","3","0","false","2","0.8,0.2,0.2,0.2,0.8,0.2,0.2,0.2,0.8","",""
"","html-keyboard-response","192","114887","0.0-277.0","33FBRBDW6PLDQ8HU5ZAHD8XUR1D8CI","A14DC1USXBIRXU","3WPCIUYH1AU470H2HRBLZRFBM3CTDN","","null","<img src=""img/land4.png"" style=""width:200px;border:14px solid red;"">","null","","","","","","","",""
"","image-keyboard-response","193","114917","0.0-279.0","33FBRBDW6PLDQ8HU5ZAHD8XUR1D8CI","A14DC1USXBIRXU","3WPCIUYH1AU470H2HRBLZRFBM3CTDN","","20.299999997019768","img/land3.png","75","28.100000008940697","2","1","false","3","0.8,0.2,0.2,0.2,0.8,0.2,0.2,0.2,0.8","",""
"","html-keyboard-response","194","115225","0.0-280.0","33FBRBDW6PLDQ8HU5ZAHD8XUR1D8CI","A14DC1USXBIRXU","3WPCIUYH1AU470H2HRBLZRFBM3CTDN","","null","<img src=""img/land3.png"" style=""width:200px; border:14px solid green;"">","null","","","","","","","",""
"","image-keyboard-response","195","115341","0.0-282.0","33FBRBDW6PLDQ8HU5ZAHD8XUR1D8CI","A14DC1USXBIRXU","3WPCIUYH1AU470H2HRBLZRFBM3CTDN","","111.6000000089407","img/land4.png","75","116","2","1","false","2","0.8,0.2,0.2,0.2,0.8,0.2,0.2,0.2,0.8","",""
"","html-keyboard-response","196","115650","0.0-283.0","33FBRBDW6PLDQ8HU5ZAHD8XUR1D8CI","A14DC1USXBIRXU","3WPCIUYH1AU470H2HRBLZRFBM3CTDN","","null","<img src=""img/land4.png"" style=""width:200px; border:14px solid green;"">","null","","","","","","","",""
"","image-keyboard-response","197","115782","0.0-285.0","33FBRBDW6PLDQ8HU5ZAHD8XUR1D8CI","A14DC1USXBIRXU","3WPCIUYH1AU470H2HRBLZRFBM3CTDN","","116.30000001192093","img/land4.png","76","131.3999999910593","3","1","false","2","0.8,0.2,0.2,0.2,0.8,0.2,0.2,0.2,0.8","",""
"","html-keyboard-response","198","116123","0.0-286.0","33FBRBDW6PLDQ8HU5ZAHD8XUR1D8CI","A14DC1USXBIRXU","3WPCIUYH1AU470H2HRBLZRFBM3CTDN","","null","<img src=""img/land4.png"" style=""width:200px; border:14px solid green;"">","null","","","","","","","",""
"","image-keyboard-response","199","116289","0.0-288.0","33FBRBDW6PLDQ8HU5ZAHD8XUR1D8CI","A14DC1USXBIRXU","3WPCIUYH1AU470H2HRBLZRFBM3CTDN","","162.79999999701977","img/land4.png","76","165.70000000298023","3","1","false","2","0.8,0.2,0.2,0.2,0.8,0.2,0.2,0.2,0.8","",""
"","html-keyboard-response","200","116596","0.0-289.0","33FBRBDW6PLDQ8HU5ZAHD8XUR1D8CI","A14DC1USXBIRXU","3WPCIUYH1AU470H2HRBLZRFBM3CTDN","","null","<img src=""img/land4.png"" style=""width:200px; border:14px solid green;"">","null","","","","","","","",""
"","image-keyboard-response","201","116774","0.0-291.0","33FBRBDW6PLDQ8HU5ZAHD8XUR1D8CI","A14DC1USXBIRXU","3WPCIUYH1AU470H2HRBLZRFBM3CTDN","","164.5","img/land4.png","76","178.09999999403954","3","0","false","2","0.8,0.2,0.2,0.2,0.8,0.2,0.2,0.2,0.8","",""
"","html-keyboard-response","202","117097","0.0-292.0","33FBRBDW6PLDQ8HU5ZAHD8XUR1D8CI","A14DC1USXBIRXU","3WPCIUYH1AU470H2HRBLZRFBM3CTDN","","null","<img src=""img/land4.png"" style=""width:200px;border:14px solid red;"">","null","","","","","","","",""
"","image-keyboard-response","203","117202","0.0-294.0","33FBRBDW6PLDQ8HU5ZAHD8XUR1D8CI","A14DC1USXBIRXU","3WPCIUYH1AU470H2HRBLZRFBM3CTDN","","103","img/land3.png","74","104.29999999701977","1","0","false","3","0.8,0.2,0.2,0.2,0.8,0.2,0.2,0.2,0.8","",""
"","html-keyboard-response","204","117544","0.0-295.0","33FBRBDW6PLDQ8HU5ZAHD8XUR1D8CI","A14DC1USXBIRXU","3WPCIUYH1AU470H2HRBLZRFBM3CTDN","","null","<img src=""img/land3.png"" style=""width:200px;border:14px solid red;"">","null","","","","","","","",""
"","image-keyboard-response","205","117561","0.0-297.0","33FBRBDW6PLDQ8HU5ZAHD8XUR1D8CI","A14DC1USXBIRXU","3WPCIUYH1AU470H2HRBLZRFBM3CTDN","","0.29999999701976776","img/land3.png","76","7","3","0","false","3","0.8,0.2,0.2,0.2,0.8,0.2,0.2,0.2,0.8","",""
"","html-keyboard-response","206","117874","0.0-298.0","33FBRBDW6PLDQ8HU5ZAHD8XUR1D8CI","A14DC1USXBIRXU","3WPCIUYH1AU470H2HRBLZRFBM3CTDN","","null","<img src=""img/land3.png"" style=""width:200px;border:14px solid red;"">","null","","","","","","","",""
"","image-keyboard-response","207","118088","0.0-300.0","33FBRBDW6PLDQ8HU5ZAHD8XUR1D8CI","A14DC1USXBIRXU","3WPCIUYH1AU470H2HRBLZRFBM3CTDN","","211.1000000089407","img/land1.png","76","213.59999999403954","3","0","false","1","0.8,0.2,0.2,0.2,0.8,0.2,0.2,0.2,0.8","",""
"","html-keyboard-response","208","118400","0.0-301.0","33FBRBDW6PLDQ8HU5ZAHD8XUR1D8CI","A14DC1USXBIRXU","3WPCIUYH1AU470H2HRBLZRFBM3CTDN","","null","<img src=""img/land1.png"" style=""width:200px;border:14px solid red;"">","null","","","","","","","",""
"","image-keyboard-response","209","118527","0.0-303.0","33FBRBDW6PLDQ8HU5ZAHD8XUR1D8CI","A14DC1USXBIRXU","3WPCIUYH1AU470H2HRBLZRFBM3CTDN","","122.09999999403954","img/land3.png","76","126.19999998807907","3","1","false","3","0.8,0.2,0.2,0.2,0.8,0.2,0.2,0.2,0.8","",""
"","html-keyboard-response","210","118833","0.0-304.0","33FBRBDW6PLDQ8HU5ZAHD8XUR1D8CI","A14DC1USXBIRXU","3WPCIUYH1AU470H2HRBLZRFBM3CTDN","","null","<img src=""img/land3.png"" style=""width:200px; border:14px solid green;"">","null","","","","","","","",""
"","image-keyboard-response","211","118924","0.0-306.0","33FBRBDW6PLDQ8HU5ZAHD8XUR1D8CI","A14DC1USXBIRXU","3WPCIUYH1AU470H2HRBLZRFBM3CTDN","","89","img/land1.png","75","90.90000000596046","2","0","false","1","0.8,0.2,0.2,0.2,0.8,0.2,0.2,0.2,0.8","",""
"","html-keyboard-response","212","119233","0.0-307.0","33FBRBDW6PLDQ8HU5ZAHD8XUR1D8CI","A14DC1USXBIRXU","3WPCIUYH1AU470H2HRBLZRFBM3CTDN","","null","<img src=""img/land1.png"" style=""width:200px;border:14px solid red;"">","null","","","","","","","",""
"","image-keyboard-response","213","119387","0.0-309.0","33FBRBDW6PLDQ8HU5ZAHD8XUR1D8CI","A14DC1USXBIRXU","3WPCIUYH1AU470H2HRBLZRFBM3CTDN","","149.20000000298023","img/land3.png","76","152.1000000089407","3","1","false","3","0.8,0.2,0.2,0.2,0.8,0.2,0.2,0.2,0.8","",""
"","html-keyboard-response","214","119696","0.0-310.0","33FBRBDW6PLDQ8HU5ZAHD8XUR1D8CI","A14DC1USXBIRXU","3WPCIUYH1AU470H2HRBLZRFBM3CTDN","","null","<img src=""img/land3.png"" style=""width:200px; border:14px solid green;"">","null","","","","","","","",""
"","image-keyboard-response","215","119827","0.0-312.0","33FBRBDW6PLDQ8HU5ZAHD8XUR1D8CI","A14DC1USXBIRXU","3WPCIUYH1AU470H2HRBLZRFBM3CTDN","","124.29999999701977","img/land4.png","74","128.59999999403954","1","0","false","2","0.8,0.2,0.2,0.2,0.8,0.2,0.2,0.2,0.8","",""
"","html-keyboard-response","216","120137","0.0-313.0","33FBRBDW6PLDQ8HU5ZAHD8XUR1D8CI","A14DC1USXBIRXU","3WPCIUYH1AU470H2HRBLZRFBM3CTDN","","null","<img src=""img/land4.png"" style=""width:200px;border:14px solid red;"">","null","","","","","","","",""
"","image-keyboard-response","217","120182","0.0-315.0","33FBRBDW6PLDQ8HU5ZAHD8XUR1D8CI","A14DC1USXBIRXU","3WPCIUYH1AU470H2HRBLZRFBM3CTDN","","42.099999994039536","img/land1.png","74","44.30000001192093","1","1","false","1","0.8,0.2,0.2,0.2,0.8,0.2,0.2,0.2,0.8","",""
"","html-keyboard-response","218","120528","0.0-316.0","33FBRBDW6PLDQ8HU5ZAHD8XUR1D8CI","A14DC1USXBIRXU","3WPCIUYH1AU470H2HRBLZRFBM3CTDN","","null","<img src=""img/land1.png"" style=""width:200px; border:14px solid green;"">","null","","","","","","","",""
"","image-keyboard-response","219","120547","0.0-318.0","33FBRBDW6PLDQ8HU5ZAHD8XUR1D8CI","A14DC1USXBIRXU","3WPCIUYH1AU470H2HRBLZRFBM3CTDN","","17.19999998807907","img/land3.png","75","19.299999997019768","2","0","false","3","0.8,0.2,0.2,0.2,0.8,0.2,0.2,0.2,0.8","",""
"","html-keyboard-response","220","120860","0.0-319.0","33FBRBDW6PLDQ8HU5ZAHD8XUR1D8CI","A14DC1USXBIRXU","3WPCIUYH1AU470H2HRBLZRFBM3CTDN","","null","<img src=""img/land3.png"" style=""width:200px;border:14px solid red;"">","null","","","","","","","",""
"","image-keyboard-response","221","120882","0.0-321.0","33FBRBDW6PLDQ8HU5ZAHD8XUR1D8CI","A14DC1USXBIRXU","3WPCIUYH1AU470H2HRBLZRFBM3CTDN","","12.5","img/land1.png","75","19.899999991059303","2","0","false","1","0.8,0.2,0.2,0.2,0.8,0.2,0.2,0.2,0.8","",""
"","html-keyboard-response","222","121192","0.0-322.0","33FBRBDW6PLDQ8HU5ZAHD8XUR1D8CI","A14DC1USXBIRXU","3WPCIUYH1AU470H2HRBLZRFBM3CTDN","","null","<img src=""img/land1.png"" style=""width:200px;border:14px solid red;"">","null","","","","","","","",""
"","image-keyboard-response","223","121241","0.0-324.0","33FBRBDW6PLDQ8HU5ZAHD8XUR1D8CI","A14DC1USXBIRXU","3WPCIUYH1AU470H2HRBLZRFBM3CTDN","","46.400000005960464","img/land1.png","76","48.099999994039536","3","0","false","1","0.8,0.2,0.2,0.2,0.8,0.2,0.2,0.2,0.8","",""
"","html-keyboard-response","224","121551","0.0-325.0","33FBRBDW6PLDQ8HU5ZAHD8XUR1D8CI","A14DC1USXBIRXU","3WPCIUYH1AU470H2HRBLZRFBM3CTDN","","null","<img src=""img/land1.png"" style=""width:200px;border:14px solid red;"">","null","","","","","","","",""
"","image-keyboard-response","225","121580","0.0-327.0","33FBRBDW6PLDQ8HU5ZAHD8XUR1D8CI","A14DC1USXBIRXU","3WPCIUYH1AU470H2HRBLZRFBM3CTDN","","9.699999988079071","img/land1.png","74","20.299999997019768","1","0","false","1","0.8,0.2,0.2,0.2,0.8,0.2,0.2,0.2,0.8","",""
"","html-keyboard-response","226","121888","0.0-328.0","33FBRBDW6PLDQ8HU5ZAHD8XUR1D8CI","A14DC1USXBIRXU","3WPCIUYH1AU470H2HRBLZRFBM3CTDN","","null","<img src=""img/land1.png"" style=""width:200px;border:14px solid red;"">","null","","","","","","","",""
"","image-keyboard-response","227","121965","0.0-330.0","33FBRBDW6PLDQ8HU5ZAHD8XUR1D8CI","A14DC1USXBIRXU","3WPCIUYH1AU470H2HRBLZRFBM3CTDN","","74.40000000596046","img/land3.png","76","76.29999999701977","3","1","false","3","0.8,0.2,0.2,0.2,0.8,0.2,0.2,0.2,0.8","",""
"","html-keyboard-response","228","122271","0.0-331.0","33FBRBDW6PLDQ8HU5ZAHD8XUR1D8CI","A14DC1USXBIRXU","3WPCIUYH1AU470H2HRBLZRFBM3CTDN","","null","<img src=""img/land3.png"" style=""width:200px; border:14px solid green;"">","null","","","","","","","",""
"","image-keyboard-response","229","122426","0.0-333.0","33FBRBDW6PLDQ8HU5ZAHD8XUR1D8CI","A14DC1USXBIRXU","3WPCIUYH1AU470H2HRBLZRFBM3CTDN","","145.6000000089407","img/land4.png","74","152.79999999701977","1","0","false","2","0.8,0.2,0.2,0.2,0.8,0.2,0.2,0.2,0.8","",""
"","html-keyboard-response","230","122736","0.0-334.0","33FBRBDW6PLDQ8HU5ZAHD8XUR1D8CI","A14DC1USXBIRXU","3WPCIUYH1AU470H2HRBLZRFBM3CTDN","","null","<img src=""img/land4.png"" style=""width:200px;border:14px solid red;"">","null","","","","","","","",""
"","image-keyboard-response","231","122801","0.0-336.0","33FBRBDW6PLDQ8HU5ZAHD8XUR1D8CI","A14DC1USXBIRXU","3WPCIUYH1AU470H2HRBLZRFBM3CTDN","","62","img/land4.png","75","64.80000001192093","2","1","false","2","0.8,0.2,0.2,0.2,0.8,0.2,0.2,0.2,0.8","",""
"","html-keyboard-response","232","123112","0.0-337.0","33FBRBDW6PLDQ8HU5ZAHD8XUR1D8CI","A14DC1USXBIRXU","3WPCIUYH1AU470H2HRBLZRFBM3CTDN","","null","<img src=""img/land4.png"" style=""width:200px; border:14px solid green;"">","null","","","","","","","",""
"","image-keyboard-response","233","123122","0.0-339.0","33FBRBDW6PLDQ8HU5ZAHD8XUR1D8CI","A14DC1USXBIRXU","3WPCIUYH1AU470H2HRBLZRFBM3CTDN","","8.899999991059303","img/land4.png","76","10","3","0","false","2","0.8,0.2,0.2,0.2,0.8,0.2,0.2,0.2,0.8","",""
"","html-keyboard-response","234","123431","0.0-340.0","33FBRBDW6PLDQ8HU5ZAHD8XUR1D8CI","A14DC1USXBIRXU","3WPCIUYH1AU470H2HRBLZRFBM3CTDN","","null","<img src=""img/land4.png"" style=""width:200px;border:14px solid red;"">","null","","","","","","","",""
"","image-keyboard-response","235","123451","0.0-342.0","33FBRBDW6PLDQ8HU5ZAHD8XUR1D8CI","A14DC1USXBIRXU","3WPCIUYH1AU470H2HRBLZRFBM3CTDN","","17.899999991059303","img/land4.png","76","20.5","3","0","false","2","0.8,0.2,0.2,0.2,0.8,0.2,0.2,0.2,0.8","",""
"","html-keyboard-response","236","123759","0.0-343.0","33FBRBDW6PLDQ8HU5ZAHD8XUR1D8CI","A14DC1USXBIRXU","3WPCIUYH1AU470H2HRBLZRFBM3CTDN","","null","<img src=""img/land4.png"" style=""width:200px;border:14px solid red;"">","null","","","","","","","",""
"","image-keyboard-response","237","123863","0.0-345.0","33FBRBDW6PLDQ8HU5ZAHD8XUR1D8CI","A14DC1USXBIRXU","3WPCIUYH1AU470H2HRBLZRFBM3CTDN","","98.80000001192093","img/land4.png","76","104.19999998807907","3","0","false","2","0.8,0.2,0.2,0.2,0.8,0.2,0.2,0.2,0.8","",""
"","html-keyboard-response","238","124184","0.0-346.0","33FBRBDW6PLDQ8HU5ZAHD8XUR1D8CI","A14DC1USXBIRXU","3WPCIUYH1AU470H2HRBLZRFBM3CTDN","","null","<img src=""img/land4.png"" style=""width:200px;border:14px solid red;"">","null","","","","","","","",""
"","image-keyboard-response","239","124257","0.0-348.0","33FBRBDW6PLDQ8HU5ZAHD8XUR1D8CI","A14DC1USXBIRXU","3WPCIUYH1AU470H2HRBLZRFBM3CTDN","","71.59999999403954","img/land1.png","74","72.69999998807907","1","1","false","1","0.8,0.2,0.2,0.2,0.8,0.2,0.2,0.2,0.8","",""
"","html-keyboard-response","240","124573","0.0-349.0","33FBRBDW6PLDQ8HU5ZAHD8XUR1D8CI","A14DC1USXBIRXU","3WPCIUYH1AU470H2HRBLZRFBM3CTDN","","null","<img src=""img/land1.png"" style=""width:200px; border:14px solid green;"">","null","","","","","","","",""
"","image-keyboard-response","241","124682","0.0-351.0","33FBRBDW6PLDQ8HU5ZAHD8XUR1D8CI","A14DC1USXBIRXU","3WPCIUYH1AU470H2HRBLZRFBM3CTDN","","107.70000000298023","img/land3.png","76","109.40000000596046","3","1","false","3","0.8,0.2,0.2,0.2,0.8,0.2,0.2,0.2,0.8","",""
"","html-keyboard-response","242","124992","0.0-352.0","33FBRBDW6PLDQ8HU5ZAHD8XUR1D8CI","A14DC1USXBIRXU","3WPCIUYH1AU470H2HRBLZRFBM3CTDN","","null","<img src=""img/land3.png"" style=""width:200px; border:14px solid green;"">","null","","","","","","","",""
"","image-keyboard-response","243","125050","0.0-354.0","33FBRBDW6PLDQ8HU5ZAHD8XUR1D8CI","A14DC1USXBIRXU","3WPCIUYH1AU470H2HRBLZRFBM3CTDN","","55.19999998807907","img/land4.png","76","56.5","3","0","false","2","0.8,0.2,0.2,0.2,0.8,0.2,0.2,0.2,0.8","",""
"","html-keyboard-response","244","125362","0.0-355.0","33FBRBDW6PLDQ8HU5ZAHD8XUR1D8CI","A14DC1USXBIRXU","3WPCIUYH1AU470H2HRBLZRFBM3CTDN","","null","<img src=""img/land4.png"" style=""width:200px;border:14px solid red;"">","null","","","","","","","",""
"","image-keyboard-response","245","125549","0.0-357.0","33FBRBDW6PLDQ8HU5ZAHD8XUR1D8CI","A14DC1USXBIRXU","3WPCIUYH1AU470H2HRBLZRFBM3CTDN","","181.20000000298023","img/land1.png","76","186.5","3","0","false","1","0.8,0.2,0.2,0.2,0.8,0.2,0.2,0.2,0.8","",""
"","html-keyboard-response","246","125881","0.0-358.0","33FBRBDW6PLDQ8HU5ZAHD8XUR1D8CI","A14DC1USXBIRXU","3WPCIUYH1AU470H2HRBLZRFBM3CTDN","","null","<img src=""img/land1.png"" style=""width:200px;border:14px solid red;"">","null","","","","","","","",""
"","image-keyboard-response","247","125923","0.0-360.0","33FBRBDW6PLDQ8HU5ZAHD8XUR1D8CI","A14DC1USXBIRXU","3WPCIUYH1AU470H2HRBLZRFBM3CTDN","","40.099999994039536","img/land3.png","75","41.8999999910593","2","1","false","3","0.8,0.2,0.2,0.2,0.8,0.2,0.2,0.2,0.8","",""
"","html-keyboard-response","248","126239","0.0-361.0","33FBRBDW6PLDQ8HU5ZAHD8XUR1D8CI","A14DC1USXBIRXU","3WPCIUYH1AU470H2HRBLZRFBM3CTDN","","null","<img src=""img/land3.png"" style=""width:200px; border:14px solid green;"">","null","","","","","","","",""
"","image-keyboard-response","249","126322","0.0-363.0","33FBRBDW6PLDQ8HU5ZAHD8XUR1D8CI","A14DC1USXBIRXU","3WPCIUYH1AU470H2HRBLZRFBM3CTDN","","60.6000000089407","img/land3.png","76","79.70000000298023","3","0","false","3","0.8,0.2,0.2,0.2,0.8,0.2,0.2,0.2,0.8","",""
"","html-keyboard-response","250","126633","0.0-364.0","33FBRBDW6PLDQ8HU5ZAHD8XUR1D8CI","A14DC1USXBIRXU","3WPCIUYH1AU470H2HRBLZRFBM3CTDN","","null","<img src=""img/land3.png"" style=""width:200px;border:14px solid red;"">","null","","","","","","","",""
"","image-keyboard-response","251","126826","0.0-366.0","33FBRBDW6PLDQ8HU5ZAHD8XUR1D8CI","A14DC1USXBIRXU","3WPCIUYH1AU470H2HRBLZRFBM3CTDN","","188.3999999910593","img/land3.png","74","192.79999999701977","1","0","false","3","0.8,0.2,0.2,0.2,0.8,0.2,0.2,0.2,0.8","",""
"","html-keyboard-response","252","127136","0.0-367.0","33FBRBDW6PLDQ8HU5ZAHD8XUR1D8CI","A14DC1USXBIRXU","3WPCIUYH1AU470H2HRBLZRFBM3CTDN","","null","<img src=""img/land3.png"" style=""width:200px;border:14px solid red;"">","null","","","","","","","",""
"","image-keyboard-response","253","127235","0.0-369.0","33FBRBDW6PLDQ8HU5ZAHD8XUR1D8CI","A14DC1USXBIRXU","3WPCIUYH1AU470H2HRBLZRFBM3CTDN","","91.70000000298023","img/land1.png","74","96.79999999701977","1","0","false","1","0.8,0.2,0.2,0.2,0.8,0.2,0.2,0.2,0.8","",""
"","html-keyboard-response","254","127552","0.0-370.0","33FBRBDW6PLDQ8HU5ZAHD8XUR1D8CI","A14DC1USXBIRXU","3WPCIUYH1AU470H2HRBLZRFBM3CTDN","","null","<img src=""img/land1.png"" style=""width:200px;border:14px solid red;"">","null","","","","","","","",""
"","image-keyboard-response","255","127561","0.0-372.0","33FBRBDW6PLDQ8HU5ZAHD8XUR1D8CI","A14DC1USXBIRXU","3WPCIUYH1AU470H2HRBLZRFBM3CTDN","","7.9000000059604645","img/land1.png","76","9.099999994039536","3","0","false","1","0.8,0.2,0.2,0.2,0.8,0.2,0.2,0.2,0.8","",""
"","html-keyboard-response","256","127874","0.0-373.0","33FBRBDW6PLDQ8HU5ZAHD8XUR1D8CI","A14DC1USXBIRXU","3WPCIUYH1AU470H2HRBLZRFBM3CTDN","","null","<img src=""img/land1.png"" style=""width:200px;border:14px solid red;"">","null","","","","","","","",""
"","image-keyboard-response","257","127958","0.0-375.0","33FBRBDW6PLDQ8HU5ZAHD8XUR1D8CI","A14DC1USXBIRXU","3WPCIUYH1AU470H2HRBLZRFBM3CTDN","","78.1000000089407","img/land3.png","74","83","1","0","false","3","0.8,0.2,0.2,0.2,0.8,0.2,0.2,0.2,0.8","",""
"","html-keyboard-response","258","128268","0.0-376.0","33FBRBDW6PLDQ8HU5ZAHD8XUR1D8CI","A14DC1USXBIRXU","3WPCIUYH1AU470H2HRBLZRFBM3CTDN","","null","<img src=""img/land3.png"" style=""width:200px;border:14px solid red;"">","null","","","","","","","",""
"","image-keyboard-response","259","129026","0.0-378.0","33FBRBDW6PLDQ8HU5ZAHD8XUR1D8CI","A14DC1USXBIRXU","3WPCIUYH1AU470H2HRBLZRFBM3CTDN","","751.3999999910593","img/land4.png","76","753.7000000029802","3","0","false","2","0.8,0.2,0.2,0.2,0.8,0.2,0.2,0.2,0.8","",""
"","html-keyboard-response","260","129337","0.0-379.0","33FBRBDW6PLDQ8HU5ZAHD8XUR1D8CI","A14DC1USXBIRXU","3WPCIUYH1AU470H2HRBLZRFBM3CTDN","","null","<img src=""img/land4.png"" style=""width:200px;border:14px solid red;"">","null","","","","","","","",""
"","image-keyboard-response","261","129411","0.0-381.0","33FBRBDW6PLDQ8HU5ZAHD8XUR1D8CI","A14DC1USXBIRXU","3WPCIUYH1AU470H2HRBLZRFBM3CTDN","","71.5","img/land1.png","75","82.90000000596046","2","1","false","1","0.8,0.2,0.2,0.2,0.8,0.2,0.2,0.2,0.8","",""
"","html-keyboard-response","262","129756","0.0-382.0","33FBRBDW6PLDQ8HU5ZAHD8XUR1D8CI","A14DC1USXBIRXU","3WPCIUYH1AU470H2HRBLZRFBM3CTDN","","null","<img src=""img/land1.png"" style=""width:200px; border:14px solid green;"">","null","","","","","","","",""
"","image-keyboard-response","263","130010","0.0-384.0","33FBRBDW6PLDQ8HU5ZAHD8XUR1D8CI","A14DC1USXBIRXU","3WPCIUYH1AU470H2HRBLZRFBM3CTDN","","232.20000000298023","img/land3.png","74","253.69999998807907","1","0","false","3","0.8,0.2,0.2,0.2,0.8,0.2,0.2,0.2,0.8","",""
"","html-keyboard-response","264","130320","0.0-385.0","33FBRBDW6PLDQ8HU5ZAHD8XUR1D8CI","A14DC1USXBIRXU","3WPCIUYH1AU470H2HRBLZRFBM3CTDN","","null","<img src=""img/land3.png"" style=""width:200px;border:14px solid red;"">","null","","","","","","","",""
"","image-keyboard-response","265","131327","0.0-387.0","33FBRBDW6PLDQ8HU5ZAHD8XUR1D8CI","A14DC1USXBIRXU","3WPCIUYH1AU470H2HRBLZRFBM3CTDN","","","img/land4.png","","1007.0999999940395","-1","0","true","2","0.8,0.2,0.2,0.2,0.8,0.2,0.2,0.2,0.8","",""
"","html-keyboard-response","266","131632","0.0-388.0","33FBRBDW6PLDQ8HU5ZAHD8XUR1D8CI","A14DC1USXBIRXU","3WPCIUYH1AU470H2HRBLZRFBM3CTDN","","null","<img src=""img/land4.png"" style=""width:200px;border:14px solid red;"">","null","","","","","","","",""
"","html-keyboard-response","267","137701","0.0-389.0-0.0","33FBRBDW6PLDQ8HU5ZAHD8XUR1D8CI","A14DC1USXBIRXU","3WPCIUYH1AU470H2HRBLZRFBM3CTDN","","","","","","","","","","","",""
"","image-keyboard-response","268","138466","0.0-390.0","33FBRBDW6PLDQ8HU5ZAHD8XUR1D8CI","A14DC1USXBIRXU","3WPCIUYH1AU470H2HRBLZRFBM3CTDN","","745.2000000029802","img/land3.png","74","749.2999999970198","1","0","false","3","0.8,0.2,0.2,0.2,0.8,0.2,0.2,0.2,0.8","",""
"","html-keyboard-response","269","138775","0.0-391.0","33FBRBDW6PLDQ8HU5ZAHD8XUR1D8CI","A14DC1USXBIRXU","3WPCIUYH1AU470H2HRBLZRFBM3CTDN","","null","<img src=""img/land3.png"" style=""width:200px;border:14px solid red;"">","null","","","","","","","",""
"","image-keyboard-response","270","138803","0.0-393.0","33FBRBDW6PLDQ8HU5ZAHD8XUR1D8CI","A14DC1USXBIRXU","3WPCIUYH1AU470H2HRBLZRFBM3CTDN","","21.299999997019768","img/land1.png","74","27.700000002980232","1","0","false","1","0.8,0.2,0.2,0.2,0.8,0.2,0.2,0.2,0.8","",""
"","html-keyboard-response","271","139125","0.0-394.0","33FBRBDW6PLDQ8HU5ZAHD8XUR1D8CI","A14DC1USXBIRXU","3WPCIUYH1AU470H2HRBLZRFBM3CTDN","","null","<img src=""img/land1.png"" style=""width:200px;border:14px solid red;"">","null","","","","","","","",""
"","image-keyboard-response","272","139151","0.0-396.0","33FBRBDW6PLDQ8HU5ZAHD8XUR1D8CI","A14DC1USXBIRXU","3WPCIUYH1AU470H2HRBLZRFBM3CTDN","","7.4000000059604645","img/land1.png","74","16","1","1","false","1","0.8,0.2,0.2,0.2,0.8,0.2,0.2,0.2,0.8","",""
"","html-keyboard-response","273","139464","0.0-397.0","33FBRBDW6PLDQ8HU5ZAHD8XUR1D8CI","A14DC1USXBIRXU","3WPCIUYH1AU470H2HRBLZRFBM3CTDN","","null","<img src=""img/land1.png"" style=""width:200px; border:14px solid green;"">","null","","","","","","","",""
"","image-keyboard-response","274","139528","0.0-399.0","33FBRBDW6PLDQ8HU5ZAHD8XUR1D8CI","A14DC1USXBIRXU","3WPCIUYH1AU470H2HRBLZRFBM3CTDN","","54.20000000298023","img/land1.png","76","62.30000001192093","3","1","false","1","0.8,0.2,0.2,0.2,0.8,0.2,0.2,0.2,0.8","",""
"","html-keyboard-response","275","139840","0.0-400.0","33FBRBDW6PLDQ8HU5ZAHD8XUR1D8CI","A14DC1USXBIRXU","3WPCIUYH1AU470H2HRBLZRFBM3CTDN","","null","<img src=""img/land1.png"" style=""width:200px; border:14px solid green;"">","null","","","","","","","",""
"","image-keyboard-response","276","139981","0.0-402.0","33FBRBDW6PLDQ8HU5ZAHD8XUR1D8CI","A14DC1USXBIRXU","3WPCIUYH1AU470H2HRBLZRFBM3CTDN","","106.1000000089407","img/land4.png","74","140","1","0","false","2","0.8,0.2,0.2,0.2,0.8,0.2,0.2,0.2,0.8","",""
"","html-keyboard-response","277","140304","0.0-403.0","33FBRBDW6PLDQ8HU5ZAHD8XUR1D8CI","A14DC1USXBIRXU","3WPCIUYH1AU470H2HRBLZRFBM3CTDN","","null","<img src=""img/land4.png"" style=""width:200px;border:14px solid red;"">","null","","","","","","","",""
"","image-keyboard-response","278","140326","0.0-405.0","33FBRBDW6PLDQ8HU5ZAHD8XUR1D8CI","A14DC1USXBIRXU","3WPCIUYH1AU470H2HRBLZRFBM3CTDN","","18.799999997019768","img/land3.png","76","22","3","1","false","3","0.8,0.2,0.2,0.2,0.8,0.2,0.2,0.2,0.8","",""
"","html-keyboard-response","279","140659","0.0-406.0","33FBRBDW6PLDQ8HU5ZAHD8XUR1D8CI","A14DC1USXBIRXU","3WPCIUYH1AU470H2HRBLZRFBM3CTDN","","null","<img src=""img/land3.png"" style=""width:200px; border:14px solid green;"">","null","","","","","","","",""
"","image-keyboard-response","280","140763","0.0-408.0","33FBRBDW6PLDQ8HU5ZAHD8XUR1D8CI","A14DC1USXBIRXU","3WPCIUYH1AU470H2HRBLZRFBM3CTDN","","74.40000000596046","img/land1.png","76","103.70000000298023","3","0","false","1","0.8,0.2,0.2,0.2,0.8,0.2,0.2,0.2,0.8","",""
"","html-keyboard-response","281","141089","0.0-409.0","33FBRBDW6PLDQ8HU5ZAHD8XUR1D8CI","A14DC1USXBIRXU","3WPCIUYH1AU470H2HRBLZRFBM3CTDN","","null","<img src=""img/land1.png"" style=""width:200px;border:14px solid red;"">","null","","","","","","","",""
"","image-keyboard-response","282","141187","0.0-411.0","33FBRBDW6PLDQ8HU5ZAHD8XUR1D8CI","A14DC1USXBIRXU","3WPCIUYH1AU470H2HRBLZRFBM3CTDN","","73.09999999403954","img/land3.png","76","85.80000001192093","3","1","false","3","0.8,0.2,0.2,0.2,0.8,0.2,0.2,0.2,0.8","",""
"","html-keyboard-response","283","141499","0.0-412.0","33FBRBDW6PLDQ8HU5ZAHD8XUR1D8CI","A14DC1USXBIRXU","3WPCIUYH1AU470H2HRBLZRFBM3CTDN","","null","<img src=""img/land3.png"" style=""width:200px; border:14px solid green;"">","null","","","","","","","",""
"","image-keyboard-response","284","141563","0.0-414.0","33FBRBDW6PLDQ8HU5ZAHD8XUR1D8CI","A14DC1USXBIRXU","3WPCIUYH1AU470H2HRBLZRFBM3CTDN","","61.599999994039536","img/land1.png","74","63.79999999701977","1","1","false","1","0.8,0.2,0.2,0.2,0.8,0.2,0.2,0.2,0.8","",""
"","html-keyboard-response","285","141875","0.0-415.0","33FBRBDW6PLDQ8HU5ZAHD8XUR1D8CI","A14DC1USXBIRXU","3WPCIUYH1AU470H2HRBLZRFBM3CTDN","","null","<img src=""img/land1.png"" style=""width:200px; border:14px solid green;"">","null","","","","","","","",""
"","image-keyboard-response","286","142018","0.0-417.0","33FBRBDW6PLDQ8HU5ZAHD8XUR1D8CI","A14DC1USXBIRXU","3WPCIUYH1AU470H2HRBLZRFBM3CTDN","","136.79999999701977","img/land1.png","76","147.40000000596046","3","1","false","1","0.8,0.2,0.2,0.2,0.8,0.2,0.2,0.2,0.8","",""
"","html-keyboard-response","287","142369","0.0-418.0","33FBRBDW6PLDQ8HU5ZAHD8XUR1D8CI","A14DC1USXBIRXU","3WPCIUYH1AU470H2HRBLZRFBM3CTDN","","null","<img src=""img/land1.png"" style=""width:200px; border:14px solid green;"">","null","","","","","","","",""
"","image-keyboard-response","288","142414","0.0-420.0","33FBRBDW6PLDQ8HU5ZAHD8XUR1D8CI","A14DC1USXBIRXU","3WPCIUYH1AU470H2HRBLZRFBM3CTDN","","43.69999998807907","img/land4.png","74","45.20000000298023","1","0","false","2","0.8,0.2,0.2,0.2,0.8,0.2,0.2,0.2,0.8","",""
"","html-keyboard-response","289","142726","0.0-421.0","33FBRBDW6PLDQ8HU5ZAHD8XUR1D8CI","A14DC1USXBIRXU","3WPCIUYH1AU470H2HRBLZRFBM3CTDN","","null","<img src=""img/land4.png"" style=""width:200px;border:14px solid red;"">","null","","","","","","","",""
"","image-keyboard-response","290","142845","0.0-423.0","33FBRBDW6PLDQ8HU5ZAHD8XUR1D8CI","A14DC1USXBIRXU","3WPCIUYH1AU470H2HRBLZRFBM3CTDN","","92.69999998807907","img/land3.png","76","117.20000000298023","3","1","false","3","0.8,0.2,0.2,0.2,0.8,0.2,0.2,0.2,0.8","",""
"","html-keyboard-response","291","143160","0.0-424.0","33FBRBDW6PLDQ8HU5ZAHD8XUR1D8CI","A14DC1USXBIRXU","3WPCIUYH1AU470H2HRBLZRFBM3CTDN","","null","<img src=""img/land3.png"" style=""width:200px; border:14px solid green;"">","null","","","","","","","",""
"","image-keyboard-response","292","143186","0.0-426.0","33FBRBDW6PLDQ8HU5ZAHD8XUR1D8CI","A14DC1USXBIRXU","3WPCIUYH1AU470H2HRBLZRFBM3CTDN","","24","img/land4.png","75","25.400000005960464","2","1","false","2","0.8,0.2,0.2,0.2,0.8,0.2,0.2,0.2,0.8","",""
"","html-keyboard-response","293","143495","0.0-427.0","33FBRBDW6PLDQ8HU5ZAHD8XUR1D8CI","A14DC1USXBIRXU","3WPCIUYH1AU470H2HRBLZRFBM3CTDN","","null","<img src=""img/land4.png"" style=""width:200px; border:14px solid green;"">","null","","","","","","","",""
"","image-keyboard-response","294","143705","0.0-429.0","33FBRBDW6PLDQ8HU5ZAHD8XUR1D8CI","A14DC1USXBIRXU","3WPCIUYH1AU470H2HRBLZRFBM3CTDN","","207.8999999910593","img/land1.png","74","209.70000000298023","1","1","false","1","0.8,0.2,0.2,0.2,0.8,0.2,0.2,0.2,0.8","",""
"","html-keyboard-response","295","144025","0.0-430.0","33FBRBDW6PLDQ8HU5ZAHD8XUR1D8CI","A14DC1USXBIRXU","3WPCIUYH1AU470H2HRBLZRFBM3CTDN","","null","<img src=""img/land1.png"" style=""width:200px; border:14px solid green;"">","null","","","","","","","",""
"","image-keyboard-response","296","144121","0.0-432.0","33FBRBDW6PLDQ8HU5ZAHD8XUR1D8CI","A14DC1USXBIRXU","3WPCIUYH1AU470H2HRBLZRFBM3CTDN","","74.70000000298023","img/land1.png","76","95.5","3","0","false","1","0.8,0.2,0.2,0.2,0.8,0.2,0.2,0.2,0.8","",""
"","html-keyboard-response","297","144445","0.0-433.0","33FBRBDW6PLDQ8HU5ZAHD8XUR1D8CI","A14DC1USXBIRXU","3WPCIUYH1AU470H2HRBLZRFBM3CTDN","","null","<img src=""img/land1.png"" style=""width:200px;border:14px solid red;"">","null","","","","","","","",""
"","image-keyboard-response","298","144585","0.0-435.0","33FBRBDW6PLDQ8HU5ZAHD8XUR1D8CI","A14DC1USXBIRXU","3WPCIUYH1AU470H2HRBLZRFBM3CTDN","","118","img/land1.png","74","135.59999999403954","1","0","false","1","0.8,0.2,0.2,0.2,0.8,0.2,0.2,0.2,0.8","",""
"","html-keyboard-response","299","144895","0.0-436.0","33FBRBDW6PLDQ8HU5ZAHD8XUR1D8CI","A14DC1USXBIRXU","3WPCIUYH1AU470H2HRBLZRFBM3CTDN","","null","<img src=""img/land1.png"" style=""width:200px;border:14px solid red;"">","null","","","","","","","",""
"","image-keyboard-response","300","145099","0.0-438.0","33FBRBDW6PLDQ8HU5ZAHD8XUR1D8CI","A14DC1USXBIRXU","3WPCIUYH1AU470H2HRBLZRFBM3CTDN","","202.40000000596046","img/land3.png","74","203.90000000596046","1","0","false","3","0.8,0.2,0.2,0.2,0.8,0.2,0.2,0.2,0.8","",""
"","html-keyboard-response","301","145410","0.0-439.0","33FBRBDW6PLDQ8HU5ZAHD8XUR1D8CI","A14DC1USXBIRXU","3WPCIUYH1AU470H2HRBLZRFBM3CTDN","","null","<img src=""img/land3.png"" style=""width:200px;border:14px solid red;"">","null","","","","","","","",""
"","image-keyboard-response","302","145465","0.0-441.0","33FBRBDW6PLDQ8HU5ZAHD8XUR1D8CI","A14DC1USXBIRXU","3WPCIUYH1AU470H2HRBLZRFBM3CTDN","","22.900000005960464","img/land4.png","75","46.599999994039536","2","1","false","2","0.8,0.2,0.2,0.2,0.8,0.2,0.2,0.2,0.8","",""
"","html-keyboard-response","303","145816","0.0-442.0","33FBRBDW6PLDQ8HU5ZAHD8XUR1D8CI","A14DC1USXBIRXU","3WPCIUYH1AU470H2HRBLZRFBM3CTDN","","null","<img src=""img/land4.png"" style=""width:200px; border:14px solid green;"">","null","","","","","","","",""
"","image-keyboard-response","304","145904","0.0-444.0","33FBRBDW6PLDQ8HU5ZAHD8XUR1D8CI","A14DC1USXBIRXU","3WPCIUYH1AU470H2HRBLZRFBM3CTDN","","66.09999999403954","img/land3.png","74","84.20000000298023","1","0","false","3","0.8,0.2,0.2,0.2,0.8,0.2,0.2,0.2,0.8","",""
"","html-keyboard-response","305","146233","0.0-445.0","33FBRBDW6PLDQ8HU5ZAHD8XUR1D8CI","A14DC1USXBIRXU","3WPCIUYH1AU470H2HRBLZRFBM3CTDN","","null","<img src=""img/land3.png"" style=""width:200px;border:14px solid red;"">","null","","","","","","","",""
"","image-keyboard-response","306","146792","0.0-447.0","33FBRBDW6PLDQ8HU5ZAHD8XUR1D8CI","A14DC1USXBIRXU","3WPCIUYH1AU470H2HRBLZRFBM3CTDN","","553.8999999910593","img/land3.png","74","558.6000000089407","1","1","false","3","0.8,0.2,0.2,0.2,0.8,0.2,0.2,0.2,0.8","",""
"","html-keyboard-response","307","147107","0.0-448.0","33FBRBDW6PLDQ8HU5ZAHD8XUR1D8CI","A14DC1USXBIRXU","3WPCIUYH1AU470H2HRBLZRFBM3CTDN","","null","<img src=""img/land3.png"" style=""width:200px; border:14px solid green;"">","null","","","","","","","",""
"","image-keyboard-response","308","147295","0.0-450.0","33FBRBDW6PLDQ8HU5ZAHD8XUR1D8CI","A14DC1USXBIRXU","3WPCIUYH1AU470H2HRBLZRFBM3CTDN","","159.40000000596046","img/land1.png","74","166","1","1","false","1","0.8,0.2,0.2,0.2,0.8,0.2,0.2,0.2,0.8","",""
"","html-keyboard-response","309","147615","0.0-451.0","33FBRBDW6PLDQ8HU5ZAHD8XUR1D8CI","A14DC1USXBIRXU","3WPCIUYH1AU470H2HRBLZRFBM3CTDN","","null","<img src=""img/land1.png"" style=""width:200px; border:14px solid green;"">","null","","","","","","","",""
"","image-keyboard-response","310","147666","0.0-453.0","33FBRBDW6PLDQ8HU5ZAHD8XUR1D8CI","A14DC1USXBIRXU","3WPCIUYH1AU470H2HRBLZRFBM3CTDN","","42.70000000298023","img/land4.png","75","50.20000000298023","2","1","false","2","0.8,0.2,0.2,0.2,0.8,0.2,0.2,0.2,0.8","",""
"","html-keyboard-response","311","147977","0.0-454.0","33FBRBDW6PLDQ8HU5ZAHD8XUR1D8CI","A14DC1USXBIRXU","3WPCIUYH1AU470H2HRBLZRFBM3CTDN","","null","<img src=""img/land4.png"" style=""width:200px; border:14px solid green;"">","null","","","","","","","",""
"","image-keyboard-response","312","148012","0.0-456.0","33FBRBDW6PLDQ8HU5ZAHD8XUR1D8CI","A14DC1USXBIRXU","3WPCIUYH1AU470H2HRBLZRFBM3CTDN","","28.099999994039536","img/land1.png","76","34.5","3","0","false","1","0.8,0.2,0.2,0.2,0.8,0.2,0.2,0.2,0.8","",""
"","html-keyboard-response","313","148320","0.0-457.0","33FBRBDW6PLDQ8HU5ZAHD8XUR1D8CI","A14DC1USXBIRXU","3WPCIUYH1AU470H2HRBLZRFBM3CTDN","","null","<img src=""img/land1.png"" style=""width:200px;border:14px solid red;"">","null","","","","","","","",""
"","image-keyboard-response","314","148321","0.0-459.0","33FBRBDW6PLDQ8HU5ZAHD8XUR1D8CI","A14DC1USXBIRXU","3WPCIUYH1AU470H2HRBLZRFBM3CTDN","","0.09999999403953552","img/land3.png","76","1.199999988079071","3","1","false","3","0.8,0.2,0.2,0.2,0.8,0.2,0.2,0.2,0.8","",""
"","html-keyboard-response","315","148625","0.0-460.0","33FBRBDW6PLDQ8HU5ZAHD8XUR1D8CI","A14DC1USXBIRXU","3WPCIUYH1AU470H2HRBLZRFBM3CTDN","","null","<img src=""img/land3.png"" style=""width:200px; border:14px solid green;"">","null","","","","","","","",""
"","image-keyboard-response","316","148796","0.0-462.0","33FBRBDW6PLDQ8HU5ZAHD8XUR1D8CI","A14DC1USXBIRXU","3WPCIUYH1AU470H2HRBLZRFBM3CTDN","","129.20000000298023","img/land4.png","76","168.40000000596046","3","0","false","2","0.8,0.2,0.2,0.2,0.8,0.2,0.2,0.2,0.8","",""
"","html-keyboard-response","317","149107","0.0-463.0","33FBRBDW6PLDQ8HU5ZAHD8XUR1D8CI","A14DC1USXBIRXU","3WPCIUYH1AU470H2HRBLZRFBM3CTDN","","null","<img src=""img/land4.png"" style=""width:200px;border:14px solid red;"">","null","","","","","","","",""
"","image-keyboard-response","318","150112","0.0-465.0","33FBRBDW6PLDQ8HU5ZAHD8XUR1D8CI","A14DC1USXBIRXU","3WPCIUYH1AU470H2HRBLZRFBM3CTDN","","","img/land4.png","","1005","-1","0","true","2","0.8,0.2,0.2,0.2,0.8,0.2,0.2,0.2,0.8","",""
"","html-keyboard-response","319","150417","0.0-466.0","33FBRBDW6PLDQ8HU5ZAHD8XUR1D8CI","A14DC1USXBIRXU","3WPCIUYH1AU470H2HRBLZRFBM3CTDN","","null","<img src=""img/land4.png"" style=""width:200px;border:14px solid red;"">","null","","","","","","","",""
"","html-keyboard-response","320","154012","0.0-467.0-0.0","33FBRBDW6PLDQ8HU5ZAHD8XUR1D8CI","A14DC1USXBIRXU","3WPCIUYH1AU470H2HRBLZRFBM3CTDN","","","","","","","","","","","",""
"","image-keyboard-response","321","154820","0.0-468.0","33FBRBDW6PLDQ8HU5ZAHD8XUR1D8CI","A14DC1USXBIRXU","3WPCIUYH1AU470H2HRBLZRFBM3CTDN","","773.2999999970198","img/land1.png","75","797.7000000029802","2","0","false","1","0.8,0.2,0.2,0.2,0.8,0.2,0.2,0.2,0.8","",""
"","html-keyboard-response","322","155128","0.0-469.0","33FBRBDW6PLDQ8HU5ZAHD8XUR1D8CI","A14DC1USXBIRXU","3WPCIUYH1AU470H2HRBLZRFBM3CTDN","","null","<img src=""img/land1.png"" style=""width:200px;border:14px solid red;"">","null","","","","","","","",""
"","image-keyboard-response","323","155147","0.0-471.0","33FBRBDW6PLDQ8HU5ZAHD8XUR1D8CI","A14DC1USXBIRXU","3WPCIUYH1AU470H2HRBLZRFBM3CTDN","","16.299999997019768","img/land4.png","74","18.200000002980232","1","1","false","2","0.8,0.2,0.2,0.2,0.8,0.2,0.2,0.2,0.8","",""
"","html-keyboard-response","324","155456","0.0-472.0","33FBRBDW6PLDQ8HU5ZAHD8XUR1D8CI","A14DC1USXBIRXU","3WPCIUYH1AU470H2HRBLZRFBM3CTDN","","null","<img src=""img/land4.png"" style=""width:200px; border:14px solid green;"">","null","","","","","","","",""
"","image-keyboard-response","325","155545","0.0-474.0","33FBRBDW6PLDQ8HU5ZAHD8XUR1D8CI","A14DC1USXBIRXU","3WPCIUYH1AU470H2HRBLZRFBM3CTDN","","87.40000000596046","img/land3.png","74","88.70000000298023","1","0","false","3","0.8,0.2,0.2,0.2,0.8,0.2,0.2,0.2,0.8","",""
"","html-keyboard-response","326","155857","0.0-475.0","33FBRBDW6PLDQ8HU5ZAHD8XUR1D8CI","A14DC1USXBIRXU","3WPCIUYH1AU470H2HRBLZRFBM3CTDN","","null","<img src=""img/land3.png"" style=""width:200px;border:14px solid red;"">","null","","","","","","","",""
"","image-keyboard-response","327","155866","0.0-477.0","33FBRBDW6PLDQ8HU5ZAHD8XUR1D8CI","A14DC1USXBIRXU","3WPCIUYH1AU470H2HRBLZRFBM3CTDN","","2.300000011920929","img/land3.png","74","5.200000002980232","1","0","false","3","0.8,0.2,0.2,0.2,0.8,0.2,0.2,0.2,0.8","",""
"","html-keyboard-response","328","156176","0.0-478.0","33FBRBDW6PLDQ8HU5ZAHD8XUR1D8CI","A14DC1USXBIRXU","3WPCIUYH1AU470H2HRBLZRFBM3CTDN","","null","<img src=""img/land3.png"" style=""width:200px;border:14px solid red;"">","null","","","","","","","",""
"","image-keyboard-response","329","156322","0.0-480.0","33FBRBDW6PLDQ8HU5ZAHD8XUR1D8CI","A14DC1USXBIRXU","3WPCIUYH1AU470H2HRBLZRFBM3CTDN","","144.5","img/land4.png","76","145.59999999403954","3","0","false","2","0.8,0.2,0.2,0.2,0.8,0.2,0.2,0.2,0.8","",""
"","html-keyboard-response","330","156632","0.0-481.0","33FBRBDW6PLDQ8HU5ZAHD8XUR1D8CI","A14DC1USXBIRXU","3WPCIUYH1AU470H2HRBLZRFBM3CTDN","","null","<img src=""img/land4.png"" style=""width:200px;border:14px solid red;"">","null","","","","","","","",""
"","image-keyboard-response","331","156649","0.0-483.0","33FBRBDW6PLDQ8HU5ZAHD8XUR1D8CI","A14DC1USXBIRXU","3WPCIUYH1AU470H2HRBLZRFBM3CTDN","","15.100000008940697","img/land4.png","75","16.5","2","0","false","2","0.8,0.2,0.2,0.2,0.8,0.2,0.2,0.2,0.8","",""
"","html-keyboard-response","332","156952","0.0-484.0","33FBRBDW6PLDQ8HU5ZAHD8XUR1D8CI","A14DC1USXBIRXU","3WPCIUYH1AU470H2HRBLZRFBM3CTDN","","null","<img src=""img/land4.png"" style=""width:200px;border:14px solid red;"">","null","","","","","","","",""
"","image-keyboard-response","333","156985","0.0-486.0","33FBRBDW6PLDQ8HU5ZAHD8XUR1D8CI","A14DC1USXBIRXU","3WPCIUYH1AU470H2HRBLZRFBM3CTDN","","30.400000005960464","img/land4.png","74","32.1000000089407","1","0","false","2","0.8,0.2,0.2,0.2,0.8,0.2,0.2,0.2,0.8","",""
"","html-keyboard-response","334","157287","0.0-487.0","33FBRBDW6PLDQ8HU5ZAHD8XUR1D8CI","A14DC1USXBIRXU","3WPCIUYH1AU470H2HRBLZRFBM3CTDN","","null","<img src=""img/land4.png"" style=""width:200px;border:14px solid red;"">","null","","","","","","","",""
"","image-keyboard-response","335","157297","0.0-489.0","33FBRBDW6PLDQ8HU5ZAHD8XUR1D8CI","A14DC1USXBIRXU","3WPCIUYH1AU470H2HRBLZRFBM3CTDN","","8.099999994039536","img/land3.png","74","9.599999994039536","1","0","false","3","0.8,0.2,0.2,0.2,0.8,0.2,0.2,0.2,0.8","",""
"","html-keyboard-response","336","157600","0.0-490.0","33FBRBDW6PLDQ8HU5ZAHD8XUR1D8CI","A14DC1USXBIRXU","3WPCIUYH1AU470H2HRBLZRFBM3CTDN","","null","<img src=""img/land3.png"" style=""width:200px;border:14px solid red;"">","null","","","","","","","",""
"","image-keyboard-response","337","157658","0.0-492.0","33FBRBDW6PLDQ8HU5ZAHD8XUR1D8CI","A14DC1USXBIRXU","3WPCIUYH1AU470H2HRBLZRFBM3CTDN","","56.900000005960464","img/land3.png","75","58.1000000089407","2","0","false","3","0.8,0.2,0.2,0.2,0.8,0.2,0.2,0.2,0.8","",""
"","html-keyboard-response","338","157967","0.0-493.0","33FBRBDW6PLDQ8HU5ZAHD8XUR1D8CI","A14DC1USXBIRXU","3WPCIUYH1AU470H2HRBLZRFBM3CTDN","","null","<img src=""img/land3.png"" style=""width:200px;border:14px solid red;"">","null","","","","","","","",""
"","image-keyboard-response","339","157969","0.0-495.0","33FBRBDW6PLDQ8HU5ZAHD8XUR1D8CI","A14DC1USXBIRXU","3WPCIUYH1AU470H2HRBLZRFBM3CTDN","","0.09999999403953552","img/land1.png","75","1.1000000089406967","2","0","false","1","0.8,0.2,0.2,0.2,0.8,0.2,0.2,0.2,0.8","",""
"","html-keyboard-response","340","158271","0.0-496.0","33FBRBDW6PLDQ8HU5ZAHD8XUR1D8CI","A14DC1USXBIRXU","3WPCIUYH1AU470H2HRBLZRFBM3CTDN","","null","<img src=""img/land1.png"" style=""width:200px;border:14px solid red;"">","null","","","","","","","",""
"","image-keyboard-response","341","158426","0.0-498.0","33FBRBDW6PLDQ8HU5ZAHD8XUR1D8CI","A14DC1USXBIRXU","3WPCIUYH1AU470H2HRBLZRFBM3CTDN","","153.5","img/land1.png","75","154.70000000298023","2","1","false","1","0.8,0.2,0.2,0.2,0.8,0.2,0.2,0.2,0.8","",""
"","html-keyboard-response","342","158749","0.0-499.0","33FBRBDW6PLDQ8HU5ZAHD8XUR1D8CI","A14DC1USXBIRXU","3WPCIUYH1AU470H2HRBLZRFBM3CTDN","","null","<img src=""img/land1.png"" style=""width:200px; border:14px solid green;"">","null","","","","","","","",""
"","image-keyboard-response","343","158762","0.0-501.0","33FBRBDW6PLDQ8HU5ZAHD8XUR1D8CI","A14DC1USXBIRXU","3WPCIUYH1AU470H2HRBLZRFBM3CTDN","","1","img/land1.png","74","8.299999997019768","1","1","false","1","0.8,0.2,0.2,0.2,0.8,0.2,0.2,0.2,0.8","",""
"","html-keyboard-response","344","159070","0.0-502.0","33FBRBDW6PLDQ8HU5ZAHD8XUR1D8CI","A14DC1USXBIRXU","3WPCIUYH1AU470H2HRBLZRFBM3CTDN","","null","<img src=""img/land1.png"" style=""width:200px; border:14px solid green;"">","null","","","","","","","",""
"","image-keyboard-response","345","159147","0.0-504.0","33FBRBDW6PLDQ8HU5ZAHD8XUR1D8CI","A14DC1USXBIRXU","3WPCIUYH1AU470H2HRBLZRFBM3CTDN","","75.3999999910593","img/land3.png","74","76.90000000596046","1","0","false","3","0.8,0.2,0.2,0.2,0.8,0.2,0.2,0.2,0.8","",""
"","html-keyboard-response","346","159458","0.0-505.0","33FBRBDW6PLDQ8HU5ZAHD8XUR1D8CI","A14DC1USXBIRXU","3WPCIUYH1AU470H2HRBLZRFBM3CTDN","","null","<img src=""img/land3.png"" style=""width:200px;border:14px solid red;"">","null","","","","","","","",""
"","image-keyboard-response","347","159482","0.0-507.0","33FBRBDW6PLDQ8HU5ZAHD8XUR1D8CI","A14DC1USXBIRXU","3WPCIUYH1AU470H2HRBLZRFBM3CTDN","","16","img/land1.png","74","20.299999997019768","1","0","false","1","0.8,0.2,0.2,0.2,0.8,0.2,0.2,0.2,0.8","",""
"","html-keyboard-response","348","159792","0.0-508.0","33FBRBDW6PLDQ8HU5ZAHD8XUR1D8CI","A14DC1USXBIRXU","3WPCIUYH1AU470H2HRBLZRFBM3CTDN","","null","<img src=""img/land1.png"" style=""width:200px;border:14px solid red;"">","null","","","","","","","",""
"","image-keyboard-response","349","159821","0.0-510.0","33FBRBDW6PLDQ8HU5ZAHD8XUR1D8CI","A14DC1USXBIRXU","3WPCIUYH1AU470H2HRBLZRFBM3CTDN","","23.299999997019768","img/land3.png","74","30.5","1","0","false","3","0.8,0.2,0.2,0.2,0.8,0.2,0.2,0.2,0.8","",""
"","html-keyboard-response","350","160129","0.0-511.0","33FBRBDW6PLDQ8HU5ZAHD8XUR1D8CI","A14DC1USXBIRXU","3WPCIUYH1AU470H2HRBLZRFBM3CTDN","","null","<img src=""img/land3.png"" style=""width:200px;border:14px solid red;"">","null","","","","","","","",""
"","image-keyboard-response","351","160169","0.0-513.0","33FBRBDW6PLDQ8HU5ZAHD8XUR1D8CI","A14DC1USXBIRXU","3WPCIUYH1AU470H2HRBLZRFBM3CTDN","","38.099999994039536","img/land3.png","74","39.5","1","0","false","3","0.8,0.2,0.2,0.2,0.8,0.2,0.2,0.2,0.8","",""
"","html-keyboard-response","352","160482","0.0-514.0","33FBRBDW6PLDQ8HU5ZAHD8XUR1D8CI","A14DC1USXBIRXU","3WPCIUYH1AU470H2HRBLZRFBM3CTDN","","null","<img src=""img/land3.png"" style=""width:200px;border:14px solid red;"">","null","","","","","","","",""
"","image-keyboard-response","353","160537","0.0-516.0","33FBRBDW6PLDQ8HU5ZAHD8XUR1D8CI","A14DC1USXBIRXU","3WPCIUYH1AU470H2HRBLZRFBM3CTDN","","52.8999999910593","img/land3.png","74","54.099999994039536","1","1","false","3","0.8,0.2,0.2,0.2,0.8,0.2,0.2,0.2,0.8","",""
"","html-keyboard-response","354","160840","0.0-517.0","33FBRBDW6PLDQ8HU5ZAHD8XUR1D8CI","A14DC1USXBIRXU","3WPCIUYH1AU470H2HRBLZRFBM3CTDN","","null","<img src=""img/land3.png"" style=""width:200px; border:14px solid green;"">","null","","","","","","","",""
"","image-keyboard-response","355","160865","0.0-519.0","33FBRBDW6PLDQ8HU5ZAHD8XUR1D8CI","A14DC1USXBIRXU","3WPCIUYH1AU470H2HRBLZRFBM3CTDN","","22.299999997019768","img/land4.png","74","25.099999994039536","1","0","false","2","0.8,0.2,0.2,0.2,0.8,0.2,0.2,0.2,0.8","",""
"","html-keyboard-response","356","161176","0.0-520.0","33FBRBDW6PLDQ8HU5ZAHD8XUR1D8CI","A14DC1USXBIRXU","3WPCIUYH1AU470H2HRBLZRFBM3CTDN","","null","<img src=""img/land4.png"" style=""width:200px;border:14px solid red;"">","null","","","","","","","",""
"","image-keyboard-response","357","161338","0.0-522.0","33FBRBDW6PLDQ8HU5ZAHD8XUR1D8CI","A14DC1USXBIRXU","3WPCIUYH1AU470H2HRBLZRFBM3CTDN","","147.29999999701977","img/land1.png","74","161.69999998807907","1","1","false","1","0.8,0.2,0.2,0.2,0.8,0.2,0.2,0.2,0.8","",""
"","html-keyboard-response","358","161642","0.0-523.0","33FBRBDW6PLDQ8HU5ZAHD8XUR1D8CI","A14DC1USXBIRXU","3WPCIUYH1AU470H2HRBLZRFBM3CTDN","","null","<img src=""img/land1.png"" style=""width:200px; border:14px solid green;"">","null","","","","","","","",""
"","image-keyboard-response","359","161834","0.0-525.0","33FBRBDW6PLDQ8HU5ZAHD8XUR1D8CI","A14DC1USXBIRXU","3WPCIUYH1AU470H2HRBLZRFBM3CTDN","","187.90000000596046","img/land1.png","74","190.6000000089407","1","1","false","1","0.8,0.2,0.2,0.2,0.8,0.2,0.2,0.2,0.8","",""
"","html-keyboard-response","360","162145","0.0-526.0","33FBRBDW6PLDQ8HU5ZAHD8XUR1D8CI","A14DC1USXBIRXU","3WPCIUYH1AU470H2HRBLZRFBM3CTDN","","null","<img src=""img/land1.png"" style=""width:200px; border:14px solid green;"">","null","","","","","","","",""
"","image-keyboard-response","361","162187","0.0-528.0","33FBRBDW6PLDQ8HU5ZAHD8XUR1D8CI","A14DC1USXBIRXU","3WPCIUYH1AU470H2HRBLZRFBM3CTDN","","36.70000000298023","img/land4.png","74","40.3999999910593","1","0","false","2","0.8,0.2,0.2,0.2,0.8,0.2,0.2,0.2,0.8","",""
"","html-keyboard-response","362","162496","0.0-529.0","33FBRBDW6PLDQ8HU5ZAHD8XUR1D8CI","A14DC1USXBIRXU","3WPCIUYH1AU470H2HRBLZRFBM3CTDN","","null","<img src=""img/land4.png"" style=""width:200px;border:14px solid red;"">","null","","","","","","","",""
"","image-keyboard-response","363","162537","0.0-531.0","33FBRBDW6PLDQ8HU5ZAHD8XUR1D8CI","A14DC1USXBIRXU","3WPCIUYH1AU470H2HRBLZRFBM3CTDN","","39.400000005960464","img/land3.png","76","41.5","3","0","false","3","0.8,0.2,0.2,0.2,0.8,0.2,0.2,0.2,0.8","",""
"","html-keyboard-response","364","162848","0.0-532.0","33FBRBDW6PLDQ8HU5ZAHD8XUR1D8CI","A14DC1USXBIRXU","3WPCIUYH1AU470H2HRBLZRFBM3CTDN","","null","<img src=""img/land3.png"" style=""width:200px;border:14px solid red;"">","null","","","","","","","",""
"","image-keyboard-response","365","162931","0.0-534.0","33FBRBDW6PLDQ8HU5ZAHD8XUR1D8CI","A14DC1USXBIRXU","3WPCIUYH1AU470H2HRBLZRFBM3CTDN","","57.3999999910593","img/land4.png","76","62","3","1","false","2","0.8,0.2,0.2,0.2,0.8,0.2,0.2,0.2,0.8","",""
"","html-keyboard-response","366","163239","0.0-535.0","33FBRBDW6PLDQ8HU5ZAHD8XUR1D8CI","A14DC1USXBIRXU","3WPCIUYH1AU470H2HRBLZRFBM3CTDN","","null","<img src=""img/land4.png"" style=""width:200px; border:14px solid green;"">","null","","","","","","","",""
"","image-keyboard-response","367","163297","0.0-537.0","33FBRBDW6PLDQ8HU5ZAHD8XUR1D8CI","A14DC1USXBIRXU","3WPCIUYH1AU470H2HRBLZRFBM3CTDN","","56.1000000089407","img/land1.png","76","57.5","3","0","false","1","0.8,0.2,0.2,0.2,0.8,0.2,0.2,0.2,0.8","",""
"","html-keyboard-response","368","163607","0.0-538.0","33FBRBDW6PLDQ8HU5ZAHD8XUR1D8CI","A14DC1USXBIRXU","3WPCIUYH1AU470H2HRBLZRFBM3CTDN","","null","<img src=""img/land1.png"" style=""width:200px;border:14px solid red;"">","null","","","","","","","",""
"","image-keyboard-response","369","163698","0.0-540.0","33FBRBDW6PLDQ8HU5ZAHD8XUR1D8CI","A14DC1USXBIRXU","3WPCIUYH1AU470H2HRBLZRFBM3CTDN","","87.90000000596046","img/land4.png","76","90.70000000298023","3","0","false","2","0.8,0.2,0.2,0.2,0.8,0.2,0.2,0.2,0.8","",""
"","html-keyboard-response","370","164010","0.0-541.0","33FBRBDW6PLDQ8HU5ZAHD8XUR1D8CI","A14DC1USXBIRXU","3WPCIUYH1AU470H2HRBLZRFBM3CTDN","","null","<img src=""img/land4.png"" style=""width:200px;border:14px solid red;"">","null","","","","","","","",""
"","html-keyboard-response","371","168958","0.0-543.0","33FBRBDW6PLDQ8HU5ZAHD8XUR1D8CI","A14DC1USXBIRXU","3WPCIUYH1AU470H2HRBLZRFBM3CTDN","","","","","","","","","","","",""
"","image-keyboard-response","372","169360","0.0-544.0","33FBRBDW6PLDQ8HU5ZAHD8XUR1D8CI","A14DC1USXBIRXU","3WPCIUYH1AU470H2HRBLZRFBM3CTDN","","389.5","img/land6.png","74","395.8999999910593","1","1","false","3","0.6,0.6,0,0,0.6,0.6,0.6,0,0.6","",""
"","html-keyboard-response","373","169666","0.0-545.0","33FBRBDW6PLDQ8HU5ZAHD8XUR1D8CI","A14DC1USXBIRXU","3WPCIUYH1AU470H2HRBLZRFBM3CTDN","","null","<img src=""img/land6.png"" style=""width:200px; border:14px solid green;"">","null","","","","","","","",""
"","image-keyboard-response","374","169674","0.0-547.0","33FBRBDW6PLDQ8HU5ZAHD8XUR1D8CI","A14DC1USXBIRXU","3WPCIUYH1AU470H2HRBLZRFBM3CTDN","","0.09999999403953552","img/land8.png","76","7.9000000059604645","3","1","false","2","0.6,0.6,0,0,0.6,0.6,0.6,0,0.6","",""
"","html-keyboard-response","375","170000","0.0-548.0","33FBRBDW6PLDQ8HU5ZAHD8XUR1D8CI","A14DC1USXBIRXU","3WPCIUYH1AU470H2HRBLZRFBM3CTDN","","null","<img src=""img/land8.png"" style=""width:200px; border:14px solid green;"">","null","","","","","","","",""
"","image-keyboard-response","376","170003","0.0-550.0","33FBRBDW6PLDQ8HU5ZAHD8XUR1D8CI","A14DC1USXBIRXU","3WPCIUYH1AU470H2HRBLZRFBM3CTDN","","0","img/land7.png","76","1.7000000029802322","3","0","false","1","0.6,0.6,0,0,0.6,0.6,0.6,0,0.6","",""
"","html-keyboard-response","377","170312","0.0-551.0","33FBRBDW6PLDQ8HU5ZAHD8XUR1D8CI","A14DC1USXBIRXU","3WPCIUYH1AU470H2HRBLZRFBM3CTDN","","null","<img src=""img/land7.png"" style=""width:200px;border:14px solid red;"">","null","","","","","","","",""
"","image-keyboard-response","378","170477","0.0-553.0","33FBRBDW6PLDQ8HU5ZAHD8XUR1D8CI","A14DC1USXBIRXU","3WPCIUYH1AU470H2HRBLZRFBM3CTDN","","152.79999999701977","img/land6.png","76","171.20000000298023","3","0","false","3","0.6,0.6,0,0,0.6,0.6,0.6,0,0.6","",""
"","html-keyboard-response","379","170808","0.0-554.0","33FBRBDW6PLDQ8HU5ZAHD8XUR1D8CI","A14DC1USXBIRXU","3WPCIUYH1AU470H2HRBLZRFBM3CTDN","","null","<img src=""img/land6.png"" style=""width:200px;border:14px solid red;"">","null","","","","","","","",""
"","image-keyboard-response","380","170921","0.0-556.0","33FBRBDW6PLDQ8HU5ZAHD8XUR1D8CI","A14DC1USXBIRXU","3WPCIUYH1AU470H2HRBLZRFBM3CTDN","","110.59999999403954","img/land8.png","76","112.3999999910593","3","1","false","2","0.6,0.6,0,0,0.6,0.6,0.6,0,0.6","",""
"","html-keyboard-response","381","171226","0.0-557.0","33FBRBDW6PLDQ8HU5ZAHD8XUR1D8CI","A14DC1USXBIRXU","3WPCIUYH1AU470H2HRBLZRFBM3CTDN","","null","<img src=""img/land8.png"" style=""width:200px; border:14px solid green;"">","null","","","","","","","",""
"","image-keyboard-response","382","171371","0.0-559.0","33FBRBDW6PLDQ8HU5ZAHD8XUR1D8CI","A14DC1USXBIRXU","3WPCIUYH1AU470H2HRBLZRFBM3CTDN","","112.20000000298023","img/land8.png","76","147.29999999701977","3","0","false","2","0.6,0.6,0,0,0.6,0.6,0.6,0,0.6","",""
"","html-keyboard-response","383","171697","0.0-560.0","33FBRBDW6PLDQ8HU5ZAHD8XUR1D8CI","A14DC1USXBIRXU","3WPCIUYH1AU470H2HRBLZRFBM3CTDN","","null","<img src=""img/land8.png"" style=""width:200px;border:14px solid red;"">","null","","","","","","","",""
"","image-keyboard-response","384","171718","0.0-562.0","33FBRBDW6PLDQ8HU5ZAHD8XUR1D8CI","A14DC1USXBIRXU","3WPCIUYH1AU470H2HRBLZRFBM3CTDN","","15.200000002980232","img/land8.png","75","19.799999997019768","2","1","false","2","0.6,0.6,0,0,0.6,0.6,0.6,0,0.6","",""
"","html-keyboard-response","385","172025","0.0-563.0","33FBRBDW6PLDQ8HU5ZAHD8XUR1D8CI","A14DC1USXBIRXU","3WPCIUYH1AU470H2HRBLZRFBM3CTDN","","null","<img src=""img/land8.png"" style=""width:200px; border:14px solid green;"">","null","","","","","","","",""
"","image-keyboard-response","386","172168","0.0-565.0","33FBRBDW6PLDQ8HU5ZAHD8XUR1D8CI","A14DC1USXBIRXU","3WPCIUYH1AU470H2HRBLZRFBM3CTDN","","124.29999999701977","img/land6.png","75","142.5","2","0","false","3","0.6,0.6,0,0,0.6,0.6,0.6,0,0.6","",""
"","html-keyboard-response","387","172570","0.0-566.0","33FBRBDW6PLDQ8HU5ZAHD8XUR1D8CI","A14DC1USXBIRXU","3WPCIUYH1AU470H2HRBLZRFBM3CTDN","","null","<img src=""img/land6.png"" style=""width:200px;border:14px solid red;"">","null","","","","","","","",""
"","image-keyboard-response","388","172635","0.0-568.0","33FBRBDW6PLDQ8HU5ZAHD8XUR1D8CI","A14DC1USXBIRXU","3WPCIUYH1AU470H2HRBLZRFBM3CTDN","","53.400000005960464","img/land6.png","76","59.79999999701977","3","0","false","3","0.6,0.6,0,0,0.6,0.6,0.6,0,0.6","",""
