"success","trial_type","trial_index","time_elapsed","internal_node_id","assignmentID","mturkID","hitID","view_history","rt","stimulus","key_press","reactionTime","a","r","s","cond","reward_cond","reward_cond_actual","reward_matrix_idx","responses","question_order"
"true","fullscreen","0","2583","0.0-0.0","3PWWM24LHTK0SQPS86LB1VO8JUK28V","A1561P9VVA3C1C","3XT3KXP24ZKFDDMCDS43FE3AU9W6IW","","","","","","","","","","","","","",""
"","instructions","1","28804","0.0-1.0","3PWWM24LHTK0SQPS86LB1VO8JUK28V","A1561P9VVA3C1C","3XT3KXP24ZKFDDMCDS43FE3AU9W6IW","[{""page_index"":0,""viewing_time"":6891.600000023842},{""page_index"":1,""viewing_time"":2207.600000023842},{""page_index"":2,""viewing_time"":2680.1999999284744},{""page_index"":3,""viewing_time"":4160.100000023842},{""page_index"":4,""viewing_time"":3088},{""page_index"":5,""viewing_time"":3720},{""page_index"":6,""viewing_time"":3472.100000023842}]","26219.799999952316","","","","","","","","","","","",""
"","image-keyboard-response","2","30364","0.0-2.0","3PWWM24LHTK0SQPS86LB1VO8JUK28V","A1561P9VVA3C1C","3XT3KXP24ZKFDDMCDS43FE3AU9W6IW","","1559.2999999523163","img/land5.png","74","1560.1999999284744","1","0","3","1","0.8,0.2,0.2,0.2,0.8,0.2,0.2,0.2,0.8","0.8,0.2,0.2,0.2,0.8,0.2,0.2,0.2,0.8","1","",""
"","html-keyboard-response","3","30666","0.0-3.0","3PWWM24LHTK0SQPS86LB1VO8JUK28V","A1561P9VVA3C1C","3XT3KXP24ZKFDDMCDS43FE3AU9W6IW","","null","<img src=""img/land5.png"" style=""width:200px;border:14px solid red;"">","null","","","","","","","","","",""
"","image-keyboard-response","4","32172","0.0-4.0","3PWWM24LHTK0SQPS86LB1VO8JUK28V","A1561P9VVA3C1C","3XT3KXP24ZKFDDMCDS43FE3AU9W6IW","","1505","img/land4.png","74","1505.5","1","0","2","1","0.8,0.2,0.2,0.2,0.8,0.2,0.2,0.2,0.8","0.8,0.2,0.2,0.2,0.8,0.2,0.2,0.2,0.8","1","",""
"","html-keyboard-response","5","32473","0.0-5.0","3PWWM24LHTK0SQPS86LB1VO8JUK28V","A1561P9VVA3C1C","3XT3KXP24ZKFDDMCDS43FE3AU9W6IW","","null","<img src=""img/land4.png"" style=""width:200px;border:14px solid red;"">","null","","","","","","","","","",""
"","image-keyboard-response","6","33380","0.0-6.0","3PWWM24LHTK0SQPS86LB1VO8JUK28V","A1561P9VVA3C1C","3XT3KXP24ZKFDDMCDS43FE3AU9W6IW","","906.1999999284744","img/land4.png","74","906.7000000476837","1","1","2","1","0.8,0.2,0.2,0.2,0.8,0.2,0.2,0.2,0.8","0.8,0.2,0.2,0.2,0.8,0.2,0.2,0.2,0.8","1","",""
"","html-keyboard-response","7","33681","0.0-7.0","3PWWM24LHTK0SQPS86LB1VO8JUK28V","A1561P9VVA3C1C","3XT3KXP24ZKFDDMCDS43FE3AU9W6IW","","null","<img src=""img/land4.png"" style=""width:200px; border:14px solid green;"">","null","","","","","","","","","",""
"","image-keyboard-response","8","35019","0.0-8.0","3PWWM24LHTK0SQPS86LB1VO8JUK28V","A1561P9VVA3C1C","3XT3KXP24ZKFDDMCDS43FE3AU9W6IW","","1337.8999999761581","img/land5.png","75","1338.4000000953674","2","0","3","1","0.8,0.2,0.2,0.2,0.8,0.2,0.2,0.2,0.8","0.8,0.2,0.2,0.2,0.8,0.2,0.2,0.2,0.8","1","",""
"","html-keyboard-response","9","35321","0.0-9.0","3PWWM24LHTK0SQPS86LB1VO8JUK28V","A1561P9VVA3C1C","3XT3KXP24ZKFDDMCDS43FE3AU9W6IW","","null","<img src=""img/land5.png"" style=""width:200px;border:14px solid red;"">","null","","","","","","","","","",""
"","image-keyboard-response","10","35900","0.0-10.0","3PWWM24LHTK0SQPS86LB1VO8JUK28V","A1561P9VVA3C1C","3XT3KXP24ZKFDDMCDS43FE3AU9W6IW","","577.7999999523163","img/land5.png","75","578.2000000476837","2","0","3","1","0.8,0.2,0.2,0.2,0.8,0.2,0.2,0.2,0.8","0.8,0.2,0.2,0.2,0.8,0.2,0.2,0.2,0.8","1","",""
"","html-keyboard-response","11","36200","0.0-11.0","3PWWM24LHTK0SQPS86LB1VO8JUK28V","A1561P9VVA3C1C","3XT3KXP24ZKFDDMCDS43FE3AU9W6IW","","null","<img src=""img/land5.png"" style=""width:200px;border:14px solid red;"">","null","","","","","","","","","",""
"","image-keyboard-response","12","37260","0.0-12.0","3PWWM24LHTK0SQPS86LB1VO8JUK28V","A1561P9VVA3C1C","3XT3KXP24ZKFDDMCDS43FE3AU9W6IW","","1058.5","img/land5.png","75","1058.8999999761581","2","0","3","1","0.8,0.2,0.2,0.2,0.8,0.2,0.2,0.2,0.8","0.8,0.2,0.2,0.2,0.8,0.2,0.2,0.2,0.8","1","",""
"","html-keyboard-response","13","37561","0.0-13.0","3PWWM24LHTK0SQPS86LB1VO8JUK28V","A1561P9VVA3C1C","3XT3KXP24ZKFDDMCDS43FE3AU9W6IW","","null","<img src=""img/land5.png"" style=""width:200px;border:14px solid red;"">","null","","","","","","","","","",""
"","image-keyboard-response","14","37707","0.0-14.0","3PWWM24LHTK0SQPS86LB1VO8JUK28V","A1561P9VVA3C1C","3XT3KXP24ZKFDDMCDS43FE3AU9W6IW","","145.5","img/land4.png","76","146.20000004768372","3","0","2","1","0.8,0.2,0.2,0.2,0.8,0.2,0.2,0.2,0.8","0.8,0.2,0.2,0.2,0.8,0.2,0.2,0.2,0.8","1","",""
"","html-keyboard-response","15","38009","0.0-15.0","3PWWM24LHTK0SQPS86LB1VO8JUK28V","A1561P9VVA3C1C","3XT3KXP24ZKFDDMCDS43FE3AU9W6IW","","null","<img src=""img/land4.png"" style=""width:200px;border:14px solid red;"">","null","","","","","","","","","",""
"","image-keyboard-response","16","39364","0.0-16.0","3PWWM24LHTK0SQPS86LB1VO8JUK28V","A1561P9VVA3C1C","3XT3KXP24ZKFDDMCDS43FE3AU9W6IW","","1354","img/land5.png","76","1354.6000000238419","3","0","3","1","0.8,0.2,0.2,0.2,0.8,0.2,0.2,0.2,0.8","0.8,0.2,0.2,0.2,0.8,0.2,0.2,0.2,0.8","1","",""
"","html-keyboard-response","17","39665","0.0-17.0","3PWWM24LHTK0SQPS86LB1VO8JUK28V","A1561P9VVA3C1C","3XT3KXP24ZKFDDMCDS43FE3AU9W6IW","","null","<img src=""img/land5.png"" style=""width:200px;border:14px solid red;"">","null","","","","","","","","","",""
"","image-keyboard-response","18","40147","0.0-18.0","3PWWM24LHTK0SQPS86LB1VO8JUK28V","A1561P9VVA3C1C","3XT3KXP24ZKFDDMCDS43FE3AU9W6IW","","481.5","img/land5.png","76","482.10000002384186","3","1","3","1","0.8,0.2,0.2,0.2,0.8,0.2,0.2,0.2,0.8","0.8,0.2,0.2,0.2,0.8,0.2,0.2,0.2,0.8","1","",""
"","html-keyboard-response","19","40459","0.0-19.0","3PWWM24LHTK0SQPS86LB1VO8JUK28V","A1561P9VVA3C1C","3XT3KXP24ZKFDDMCDS43FE3AU9W6IW","","null","<img src=""img/land5.png"" style=""width:200px; border:14px solid green;"">","null","","","","","","","","","",""
"","image-keyboard-response","20","41659","0.0-20.0","3PWWM24LHTK0SQPS86LB1VO8JUK28V","A1561P9VVA3C1C","3XT3KXP24ZKFDDMCDS43FE3AU9W6IW","","1200.2000000476837","img/land4.png","74","1200.6000000238419","1","1","2","1","0.8,0.2,0.2,0.2,0.8,0.2,0.2,0.2,0.8","0.8,0.2,0.2,0.2,0.8,0.2,0.2,0.2,0.8","1","",""
"","html-keyboard-response","21","41961","0.0-21.0","3PWWM24LHTK0SQPS86LB1VO8JUK28V","A1561P9VVA3C1C","3XT3KXP24ZKFDDMCDS43FE3AU9W6IW","","null","<img src=""img/land4.png"" style=""width:200px; border:14px solid green;"">","null","","","","","","","","","",""
"","image-keyboard-response","22","42804","0.0-22.0","3PWWM24LHTK0SQPS86LB1VO8JUK28V","A1561P9VVA3C1C","3XT3KXP24ZKFDDMCDS43FE3AU9W6IW","","841.9000000953674","img/land3.png","75","842.3999999761581","2","0","1","1","0.8,0.2,0.2,0.2,0.8,0.2,0.2,0.2,0.8","0.8,0.2,0.2,0.2,0.8,0.2,0.2,0.2,0.8","1","",""
"","html-keyboard-response","23","43104","0.0-23.0","3PWWM24LHTK0SQPS86LB1VO8JUK28V","A1561P9VVA3C1C","3XT3KXP24ZKFDDMCDS43FE3AU9W6IW","","null","<img src=""img/land3.png"" style=""width:200px;border:14px solid red;"">","null","","","","","","","","","",""
"","image-keyboard-response","24","44276","0.0-24.0","3PWWM24LHTK0SQPS86LB1VO8JUK28V","A1561P9VVA3C1C","3XT3KXP24ZKFDDMCDS43FE3AU9W6IW","","1170.8999999761581","img/land4.png","74","1171.3000000715256","1","0","2","1","0.8,0.2,0.2,0.2,0.8,0.2,0.2,0.2,0.8","0.8,0.2,0.2,0.2,0.8,0.2,0.2,0.2,0.8","1","",""
"","html-keyboard-response","25","44577","0.0-25.0","3PWWM24LHTK0SQPS86LB1VO8JUK28V","A1561P9VVA3C1C","3XT3KXP24ZKFDDMCDS43FE3AU9W6IW","","null","<img src=""img/land4.png"" style=""width:200px;border:14px solid red;"">","null","","","","","","","","","",""
"","image-keyboard-response","26","44812","0.0-26.0","3PWWM24LHTK0SQPS86LB1VO8JUK28V","A1561P9VVA3C1C","3XT3KXP24ZKFDDMCDS43FE3AU9W6IW","","233.89999997615814","img/land4.png","74","234.60000002384186","1","0","2","1","0.8,0.2,0.2,0.2,0.8,0.2,0.2,0.2,0.8","0.8,0.2,0.2,0.2,0.8,0.2,0.2,0.2,0.8","1","",""
"","html-keyboard-response","27","45113","0.0-27.0","3PWWM24LHTK0SQPS86LB1VO8JUK28V","A1561P9VVA3C1C","3XT3KXP24ZKFDDMCDS43FE3AU9W6IW","","null","<img src=""img/land4.png"" style=""width:200px;border:14px solid red;"">","null","","","","","","","","","",""
"","image-keyboard-response","28","46268","0.0-28.0","3PWWM24LHTK0SQPS86LB1VO8JUK28V","A1561P9VVA3C1C","3XT3KXP24ZKFDDMCDS43FE3AU9W6IW","","1154.2999999523163","img/land3.png","75","1154.9000000953674","2","0","1","1","0.8,0.2,0.2,0.2,0.8,0.2,0.2,0.2,0.8","0.8,0.2,0.2,0.2,0.8,0.2,0.2,0.2,0.8","1","",""
"","html-keyboard-response","29","46570","0.0-29.0","3PWWM24LHTK0SQPS86LB1VO8JUK28V","A1561P9VVA3C1C","3XT3KXP24ZKFDDMCDS43FE3AU9W6IW","","null","<img src=""img/land3.png"" style=""width:200px;border:14px solid red;"">","null","","","","","","","","","",""
"","image-keyboard-response","30","47339","0.0-30.0","3PWWM24LHTK0SQPS86LB1VO8JUK28V","A1561P9VVA3C1C","3XT3KXP24ZKFDDMCDS43FE3AU9W6IW","","769.3000000715256","img/land4.png","76","769.7000000476837","3","1","2","1","0.8,0.2,0.2,0.2,0.8,0.2,0.2,0.2,0.8","0.8,0.2,0.2,0.2,0.8,0.2,0.2,0.2,0.8","1","",""
"","html-keyboard-response","31","47641","0.0-31.0","3PWWM24LHTK0SQPS86LB1VO8JUK28V","A1561P9VVA3C1C","3XT3KXP24ZKFDDMCDS43FE3AU9W6IW","","null","<img src=""img/land4.png"" style=""width:200px; border:14px solid green;"">","null","","","","","","","","","",""
"","image-keyboard-response","32","48876","0.0-32.0","3PWWM24LHTK0SQPS86LB1VO8JUK28V","A1561P9VVA3C1C","3XT3KXP24ZKFDDMCDS43FE3AU9W6IW","","1234","img/land3.png","74","1234.3999999761581","1","1","1","1","0.8,0.2,0.2,0.2,0.8,0.2,0.2,0.2,0.8","0.8,0.2,0.2,0.2,0.8,0.2,0.2,0.2,0.8","1","",""
"","html-keyboard-response","33","49177","0.0-33.0","3PWWM24LHTK0SQPS86LB1VO8JUK28V","A1561P9VVA3C1C","3XT3KXP24ZKFDDMCDS43FE3AU9W6IW","","null","<img src=""img/land3.png"" style=""width:200px; border:14px solid green;"">","null","","","","","","","","","",""
"","image-keyboard-response","34","50299","0.0-34.0","3PWWM24LHTK0SQPS86LB1VO8JUK28V","A1561P9VVA3C1C","3XT3KXP24ZKFDDMCDS43FE3AU9W6IW","","1122","img/land5.png","76","1122.6000000238419","3","0","3","1","0.8,0.2,0.2,0.2,0.8,0.2,0.2,0.2,0.8","0.8,0.2,0.2,0.2,0.8,0.2,0.2,0.2,0.8","1","",""
"","html-keyboard-response","35","50603","0.0-35.0","3PWWM24LHTK0SQPS86LB1VO8JUK28V","A1561P9VVA3C1C","3XT3KXP24ZKFDDMCDS43FE3AU9W6IW","","null","<img src=""img/land5.png"" style=""width:200px;border:14px solid red;"">","null","","","","","","","","","",""
"","image-keyboard-response","36","50868","0.0-36.0","3PWWM24LHTK0SQPS86LB1VO8JUK28V","A1561P9VVA3C1C","3XT3KXP24ZKFDDMCDS43FE3AU9W6IW","","264.39999997615814","img/land3.png","76","265","3","0","1","1","0.8,0.2,0.2,0.2,0.8,0.2,0.2,0.2,0.8","0.8,0.2,0.2,0.2,0.8,0.2,0.2,0.2,0.8","1","",""
"","html-keyboard-response","37","51168","0.0-37.0","3PWWM24LHTK0SQPS86LB1VO8JUK28V","A1561P9VVA3C1C","3XT3KXP24ZKFDDMCDS43FE3AU9W6IW","","null","<img src=""img/land3.png"" style=""width:200px;border:14px solid red;"">","null","","","","","","","","","",""
"","image-keyboard-response","38","51347","0.0-38.0","3PWWM24LHTK0SQPS86LB1VO8JUK28V","A1561P9VVA3C1C","3XT3KXP24ZKFDDMCDS43FE3AU9W6IW","","178.20000004768372","img/land5.png","74","178.70000004768372","1","1","3","1","0.8,0.2,0.2,0.2,0.8,0.2,0.2,0.2,0.8","0.8,0.2,0.2,0.2,0.8,0.2,0.2,0.2,0.8","1","",""
"","html-keyboard-response","39","51649","0.0-39.0","3PWWM24LHTK0SQPS86LB1VO8JUK28V","A1561P9VVA3C1C","3XT3KXP24ZKFDDMCDS43FE3AU9W6IW","","null","<img src=""img/land5.png"" style=""width:200px; border:14px solid green;"">","null","","","","","","","","","",""
"","image-keyboard-response","40","52860","0.0-40.0","3PWWM24LHTK0SQPS86LB1VO8JUK28V","A1561P9VVA3C1C","3XT3KXP24ZKFDDMCDS43FE3AU9W6IW","","1210.4000000953674","img/land4.png","74","1210.8999999761581","1","1","2","1","0.8,0.2,0.2,0.2,0.8,0.2,0.2,0.2,0.8","0.8,0.2,0.2,0.2,0.8,0.2,0.2,0.2,0.8","1","",""
"","html-keyboard-response","41","53161","0.0-41.0","3PWWM24LHTK0SQPS86LB1VO8JUK28V","A1561P9VVA3C1C","3XT3KXP24ZKFDDMCDS43FE3AU9W6IW","","null","<img src=""img/land4.png"" style=""width:200px; border:14px solid green;"">","null","","","","","","","","","",""
"","image-keyboard-response","42","54115","0.0-42.0","3PWWM24LHTK0SQPS86LB1VO8JUK28V","A1561P9VVA3C1C","3XT3KXP24ZKFDDMCDS43FE3AU9W6IW","","953.6000000238419","img/land5.png","76","954.0999999046326","3","1","3","1","0.8,0.2,0.2,0.2,0.8,0.2,0.2,0.2,0.8","0.8,0.2,0.2,0.2,0.8,0.2,0.2,0.2,0.8","1","",""
"","html-keyboard-response","43","54418","0.0-43.0","3PWWM24LHTK0SQPS86LB1VO8JUK28V","A1561P9VVA3C1C","3XT3KXP24ZKFDDMCDS43FE3AU9W6IW","","null","<img src=""img/land5.png"" style=""width:200px; border:14px solid green;"">","null","","","","","","","","","",""
"","image-keyboard-response","44","55220","0.0-44.0","3PWWM24LHTK0SQPS86LB1VO8JUK28V","A1561P9VVA3C1C","3XT3KXP24ZKFDDMCDS43FE3AU9W6IW","","801.3999999761581","img/land3.png","74","802","1","0","1","1","0.8,0.2,0.2,0.2,0.8,0.2,0.2,0.2,0.8","0.8,0.2,0.2,0.2,0.8,0.2,0.2,0.2,0.8","1","",""
"","html-keyboard-response","45","55520","0.0-45.0","3PWWM24LHTK0SQPS86LB1VO8JUK28V","A1561P9VVA3C1C","3XT3KXP24ZKFDDMCDS43FE3AU9W6IW","","null","<img src=""img/land3.png"" style=""width:200px;border:14px solid red;"">","null","","","","","","","","","",""
"","image-keyboard-response","46","56380","0.0-46.0","3PWWM24LHTK0SQPS86LB1VO8JUK28V","A1561P9VVA3C1C","3XT3KXP24ZKFDDMCDS43FE3AU9W6IW","","858.6000000238419","img/land5.png","74","859.3000000715256","1","0","3","1","0.8,0.2,0.2,0.2,0.8,0.2,0.2,0.2,0.8","0.8,0.2,0.2,0.2,0.8,0.2,0.2,0.2,0.8","1","",""
"","html-keyboard-response","47","56682","0.0-47.0","3PWWM24LHTK0SQPS86LB1VO8JUK28V","A1561P9VVA3C1C","3XT3KXP24ZKFDDMCDS43FE3AU9W6IW","","null","<img src=""img/land5.png"" style=""width:200px;border:14px solid red;"">","null","","","","","","","","","",""
"","image-keyboard-response","48","57308","0.0-48.0","3PWWM24LHTK0SQPS86LB1VO8JUK28V","A1561P9VVA3C1C","3XT3KXP24ZKFDDMCDS43FE3AU9W6IW","","625.2000000476837","img/land5.png","76","625.6999999284744","3","1","3","1","0.8,0.2,0.2,0.2,0.8,0.2,0.2,0.2,0.8","0.8,0.2,0.2,0.2,0.8,0.2,0.2,0.2,0.8","1","",""
"","html-keyboard-response","49","57609","0.0-49.0","3PWWM24LHTK0SQPS86LB1VO8JUK28V","A1561P9VVA3C1C","3XT3KXP24ZKFDDMCDS43FE3AU9W6IW","","null","<img src=""img/land5.png"" style=""width:200px; border:14px solid green;"">","null","","","","","","","","","",""
"","image-keyboard-response","50","58648","0.0-50.0","3PWWM24LHTK0SQPS86LB1VO8JUK28V","A1561P9VVA3C1C","3XT3KXP24ZKFDDMCDS43FE3AU9W6IW","","1033.5","img/land5.png","76","1034","3","1","3","1","0.8,0.2,0.2,0.2,0.8,0.2,0.2,0.2,0.8","0.8,0.2,0.2,0.2,0.8,0.2,0.2,0.2,0.8","1","",""
"","html-keyboard-response","51","58950","0.0-51.0","3PWWM24LHTK0SQPS86LB1VO8JUK28V","A1561P9VVA3C1C","3XT3KXP24ZKFDDMCDS43FE3AU9W6IW","","null","<img src=""img/land5.png"" style=""width:200px; border:14px solid green;"">","null","","","","","","","","","",""
"","image-keyboard-response","52","59992","0.0-52.0","3PWWM24LHTK0SQPS86LB1VO8JUK28V","A1561P9VVA3C1C","3XT3KXP24ZKFDDMCDS43FE3AU9W6IW","","1041.2000000476837","img/land3.png","74","1041.6999999284744","1","1","1","1","0.8,0.2,0.2,0.2,0.8,0.2,0.2,0.2,0.8","0.8,0.2,0.2,0.2,0.8,0.2,0.2,0.2,0.8","1","",""
"","html-keyboard-response","53","60294","0.0-53.0","3PWWM24LHTK0SQPS86LB1VO8JUK28V","A1561P9VVA3C1C","3XT3KXP24ZKFDDMCDS43FE3AU9W6IW","","null","<img src=""img/land3.png"" style=""width:200px; border:14px solid green;"">","null","","","","","","","","","",""
"","image-keyboard-response","54","61113","0.0-54.0","3PWWM24LHTK0SQPS86LB1VO8JUK28V","A1561P9VVA3C1C","3XT3KXP24ZKFDDMCDS43FE3AU9W6IW","","818.6000000238419","img/land4.png","75","819.1000000238419","2","1","2","1","0.8,0.2,0.2,0.2,0.8,0.2,0.2,0.2,0.8","0.8,0.2,0.2,0.2,0.8,0.2,0.2,0.2,0.8","1","",""
"","html-keyboard-response","55","61415","0.0-55.0","3PWWM24LHTK0SQPS86LB1VO8JUK28V","A1561P9VVA3C1C","3XT3KXP24ZKFDDMCDS43FE3AU9W6IW","","null","<img src=""img/land4.png"" style=""width:200px; border:14px solid green;"">","null","","","","","","","","","",""
"","image-keyboard-response","56","62336","0.0-56.0","3PWWM24LHTK0SQPS86LB1VO8JUK28V","A1561P9VVA3C1C","3XT3KXP24ZKFDDMCDS43FE3AU9W6IW","","920.6999999284744","img/land3.png","74","921.2000000476837","1","1","1","1","0.8,0.2,0.2,0.2,0.8,0.2,0.2,0.2,0.8","0.8,0.2,0.2,0.2,0.8,0.2,0.2,0.2,0.8","1","",""
"","html-keyboard-response","57","62638","0.0-57.0","3PWWM24LHTK0SQPS86LB1VO8JUK28V","A1561P9VVA3C1C","3XT3KXP24ZKFDDMCDS43FE3AU9W6IW","","null","<img src=""img/land3.png"" style=""width:200px; border:14px solid green;"">","null","","","","","","","","","",""
"","image-keyboard-response","58","63392","0.0-58.0","3PWWM24LHTK0SQPS86LB1VO8JUK28V","A1561P9VVA3C1C","3XT3KXP24ZKFDDMCDS43FE3AU9W6IW","","752.5","img/land5.png","76","753","3","1","3","1","0.8,0.2,0.2,0.2,0.8,0.2,0.2,0.2,0.8","0.8,0.2,0.2,0.2,0.8,0.2,0.2,0.2,0.8","1","",""
"","html-keyboard-response","59","63693","0.0-59.0","3PWWM24LHTK0SQPS86LB1VO8JUK28V","A1561P9VVA3C1C","3XT3KXP24ZKFDDMCDS43FE3AU9W6IW","","null","<img src=""img/land5.png"" style=""width:200px; border:14px solid green;"">","null","","","","","","","","","",""
"","image-keyboard-response","60","64344","0.0-60.0","3PWWM24LHTK0SQPS86LB1VO8JUK28V","A1561P9VVA3C1C","3XT3KXP24ZKFDDMCDS43FE3AU9W6IW","","649.7999999523163","img/land3.png","74","650.4000000953674","1","0","1","1","0.8,0.2,0.2,0.2,0.8,0.2,0.2,0.2,0.8","0.8,0.2,0.2,0.2,0.8,0.2,0.2,0.2,0.8","1","",""
"","html-keyboard-response","61","64645","0.0-61.0","3PWWM24LHTK0SQPS86LB1VO8JUK28V","A1561P9VVA3C1C","3XT3KXP24ZKFDDMCDS43FE3AU9W6IW","","null","<img src=""img/land3.png"" style=""width:200px;border:14px solid red;"">","null","","","","","","","","","",""
"","image-keyboard-response","62","65367","0.0-62.0","3PWWM24LHTK0SQPS86LB1VO8JUK28V","A1561P9VVA3C1C","3XT3KXP24ZKFDDMCDS43FE3AU9W6IW","","721.2000000476837","img/land4.png","75","721.9000000953674","2","1","2","1","0.8,0.2,0.2,0.2,0.8,0.2,0.2,0.2,0.8","0.8,0.2,0.2,0.2,0.8,0.2,0.2,0.2,0.8","1","",""
"","html-keyboard-response","63","65670","0.0-63.0","3PWWM24LHTK0SQPS86LB1VO8JUK28V","A1561P9VVA3C1C","3XT3KXP24ZKFDDMCDS43FE3AU9W6IW","","null","<img src=""img/land4.png"" style=""width:200px; border:14px solid green;"">","null","","","","","","","","","",""
"","image-keyboard-response","64","66496","0.0-64.0","3PWWM24LHTK0SQPS86LB1VO8JUK28V","A1561P9VVA3C1C","3XT3KXP24ZKFDDMCDS43FE3AU9W6IW","","825.5","img/land4.png","75","826","2","1","2","1","0.8,0.2,0.2,0.2,0.8,0.2,0.2,0.2,0.8","0.8,0.2,0.2,0.2,0.8,0.2,0.2,0.2,0.8","1","",""
"","html-keyboard-response","65","66797","0.0-65.0","3PWWM24LHTK0SQPS86LB1VO8JUK28V","A1561P9VVA3C1C","3XT3KXP24ZKFDDMCDS43FE3AU9W6IW","","null","<img src=""img/land4.png"" style=""width:200px; border:14px solid green;"">","null","","","","","","","","","",""
"","image-keyboard-response","66","67568","0.0-66.0","3PWWM24LHTK0SQPS86LB1VO8JUK28V","A1561P9VVA3C1C","3XT3KXP24ZKFDDMCDS43FE3AU9W6IW","","770.2999999523163","img/land3.png","74","770.7999999523163","1","1","1","1","0.8,0.2,0.2,0.2,0.8,0.2,0.2,0.2,0.8","0.8,0.2,0.2,0.2,0.8,0.2,0.2,0.2,0.8","1","",""
"","html-keyboard-response","67","67869","0.0-67.0","3PWWM24LHTK0SQPS86LB1VO8JUK28V","A1561P9VVA3C1C","3XT3KXP24ZKFDDMCDS43FE3AU9W6IW","","null","<img src=""img/land3.png"" style=""width:200px; border:14px solid green;"">","null","","","","","","","","","",""
"","image-keyboard-response","68","68728","0.0-68.0","3PWWM24LHTK0SQPS86LB1VO8JUK28V","A1561P9VVA3C1C","3XT3KXP24ZKFDDMCDS43FE3AU9W6IW","","858.2000000476837","img/land4.png","75","858.7000000476837","2","1","2","1","0.8,0.2,0.2,0.2,0.8,0.2,0.2,0.2,0.8","0.8,0.2,0.2,0.2,0.8,0.2,0.2,0.2,0.8","1","",""
"","html-keyboard-response","69","69030","0.0-69.0","3PWWM24LHTK0SQPS86LB1VO8JUK28V","A1561P9VVA3C1C","3XT3KXP24ZKFDDMCDS43FE3AU9W6IW","","null","<img src=""img/land4.png"" style=""width:200px; border:14px solid green;"">","null","","","","","","","","","",""
"","image-keyboard-response","70","69712","0.0-70.0","3PWWM24LHTK0SQPS86LB1VO8JUK28V","A1561P9VVA3C1C","3XT3KXP24ZKFDDMCDS43FE3AU9W6IW","","681.3999999761581","img/land4.png","75","681.7999999523163","2","1","2","1","0.8,0.2,0.2,0.2,0.8,0.2,0.2,0.2,0.8","0.8,0.2,0.2,0.2,0.8,0.2,0.2,0.2,0.8","1","",""
"","html-keyboard-response","71","70014","0.0-71.0","3PWWM24LHTK0SQPS86LB1VO8JUK28V","A1561P9VVA3C1C","3XT3KXP24ZKFDDMCDS43FE3AU9W6IW","","null","<img src=""img/land4.png"" style=""width:200px; border:14px solid green;"">","null","","","","","","","","","",""
"","image-keyboard-response","72","70664","0.0-72.0","3PWWM24LHTK0SQPS86LB1VO8JUK28V","A1561P9VVA3C1C","3XT3KXP24ZKFDDMCDS43FE3AU9W6IW","","649.8999999761581","img/land5.png","76","650.5","3","1","3","1","0.8,0.2,0.2,0.2,0.8,0.2,0.2,0.2,0.8","0.8,0.2,0.2,0.2,0.8,0.2,0.2,0.2,0.8","1","",""
"","html-keyboard-response","73","70965","0.0-73.0","3PWWM24LHTK0SQPS86LB1VO8JUK28V","A1561P9VVA3C1C","3XT3KXP24ZKFDDMCDS43FE3AU9W6IW","","null","<img src=""img/land5.png"" style=""width:200px; border:14px solid green;"">","null","","","","","","","","","",""
"","image-keyboard-response","74","71632","0.0-74.0","3PWWM24LHTK0SQPS86LB1VO8JUK28V","A1561P9VVA3C1C","3XT3KXP24ZKFDDMCDS43FE3AU9W6IW","","665.6999999284744","img/land4.png","75","666.1000000238419","2","1","2","1","0.8,0.2,0.2,0.2,0.8,0.2,0.2,0.2,0.8","0.8,0.2,0.2,0.2,0.8,0.2,0.2,0.2,0.8","1","",""
"","html-keyboard-response","75","71933","0.0-75.0","3PWWM24LHTK0SQPS86LB1VO8JUK28V","A1561P9VVA3C1C","3XT3KXP24ZKFDDMCDS43FE3AU9W6IW","","null","<img src=""img/land4.png"" style=""width:200px; border:14px solid green;"">","null","","","","","","","","","",""
"","image-keyboard-response","76","72632","0.0-76.0","3PWWM24LHTK0SQPS86LB1VO8JUK28V","A1561P9VVA3C1C","3XT3KXP24ZKFDDMCDS43FE3AU9W6IW","","698.1000000238419","img/land3.png","74","698.8000000715256","1","1","1","1","0.8,0.2,0.2,0.2,0.8,0.2,0.2,0.2,0.8","0.8,0.2,0.2,0.2,0.8,0.2,0.2,0.2,0.8","1","",""
"","html-keyboard-response","77","72934","0.0-77.0","3PWWM24LHTK0SQPS86LB1VO8JUK28V","A1561P9VVA3C1C","3XT3KXP24ZKFDDMCDS43FE3AU9W6IW","","null","<img src=""img/land3.png"" style=""width:200px; border:14px solid green;"">","null","","","","","","","","","",""
"","image-keyboard-response","78","73448","0.0-78.0","3PWWM24LHTK0SQPS86LB1VO8JUK28V","A1561P9VVA3C1C","3XT3KXP24ZKFDDMCDS43FE3AU9W6IW","","513.8000000715256","img/land3.png","74","514.2000000476837","1","1","1","1","0.8,0.2,0.2,0.2,0.8,0.2,0.2,0.2,0.8","0.8,0.2,0.2,0.2,0.8,0.2,0.2,0.2,0.8","1","",""
"","html-keyboard-response","79","73749","0.0-79.0","3PWWM24LHTK0SQPS86LB1VO8JUK28V","A1561P9VVA3C1C","3XT3KXP24ZKFDDMCDS43FE3AU9W6IW","","null","<img src=""img/land3.png"" style=""width:200px; border:14px solid green;"">","null","","","","","","","","","",""
"","image-keyboard-response","80","74424","0.0-80.0","3PWWM24LHTK0SQPS86LB1VO8JUK28V","A1561P9VVA3C1C","3XT3KXP24ZKFDDMCDS43FE3AU9W6IW","","674.3999999761581","img/land5.png","76","674.8999999761581","3","1","3","1","0.8,0.2,0.2,0.2,0.8,0.2,0.2,0.2,0.8","0.8,0.2,0.2,0.2,0.8,0.2,0.2,0.2,0.8","1","",""
"","html-keyboard-response","81","74726","0.0-81.0","3PWWM24LHTK0SQPS86LB1VO8JUK28V","A1561P9VVA3C1C","3XT3KXP24ZKFDDMCDS43FE3AU9W6IW","","null","<img src=""img/land5.png"" style=""width:200px; border:14px solid green;"">","null","","","","","","","","","",""
"","image-keyboard-response","82","75040","0.0-82.0","3PWWM24LHTK0SQPS86LB1VO8JUK28V","A1561P9VVA3C1C","3XT3KXP24ZKFDDMCDS43FE3AU9W6IW","","312.89999997615814","img/land5.png","76","313.59999990463257","3","1","3","1","0.8,0.2,0.2,0.2,0.8,0.2,0.2,0.2,0.8","0.8,0.2,0.2,0.2,0.8,0.2,0.2,0.2,0.8","1","",""
"","html-keyboard-response","83","75342","0.0-83.0","3PWWM24LHTK0SQPS86LB1VO8JUK28V","A1561P9VVA3C1C","3XT3KXP24ZKFDDMCDS43FE3AU9W6IW","","null","<img src=""img/land5.png"" style=""width:200px; border:14px solid green;"">","null","","","","","","","","","",""
"","image-keyboard-response","84","76080","0.0-84.0","3PWWM24LHTK0SQPS86LB1VO8JUK28V","A1561P9VVA3C1C","3XT3KXP24ZKFDDMCDS43FE3AU9W6IW","","737.8999999761581","img/land3.png","74","738.5","1","0","1","1","0.8,0.2,0.2,0.2,0.8,0.2,0.2,0.2,0.8","0.8,0.2,0.2,0.2,0.8,0.2,0.2,0.2,0.8","1","",""
"","html-keyboard-response","85","76381","0.0-85.0","3PWWM24LHTK0SQPS86LB1VO8JUK28V","A1561P9VVA3C1C","3XT3KXP24ZKFDDMCDS43FE3AU9W6IW","","null","<img src=""img/land3.png"" style=""width:200px;border:14px solid red;"">","null","","","","","","","","","",""
"","image-keyboard-response","86","76752","0.0-86.0","3PWWM24LHTK0SQPS86LB1VO8JUK28V","A1561P9VVA3C1C","3XT3KXP24ZKFDDMCDS43FE3AU9W6IW","","370.10000002384186","img/land5.png","74","370.6999999284744","1","0","3","1","0.8,0.2,0.2,0.2,0.8,0.2,0.2,0.2,0.8","0.8,0.2,0.2,0.2,0.8,0.2,0.2,0.2,0.8","1","",""
"","html-keyboard-response","87","77053","0.0-87.0","3PWWM24LHTK0SQPS86LB1VO8JUK28V","A1561P9VVA3C1C","3XT3KXP24ZKFDDMCDS43FE3AU9W6IW","","null","<img src=""img/land5.png"" style=""width:200px;border:14px solid red;"">","null","","","","","","","","","",""
"","image-keyboard-response","88","78144","0.0-88.0","3PWWM24LHTK0SQPS86LB1VO8JUK28V","A1561P9VVA3C1C","3XT3KXP24ZKFDDMCDS43FE3AU9W6IW","","1090.2000000476837","img/land3.png","74","1090.8000000715256","1","0","1","1","0.8,0.2,0.2,0.2,0.8,0.2,0.2,0.2,0.8","0.8,0.2,0.2,0.2,0.8,0.2,0.2,0.2,0.8","1","",""
"","html-keyboard-response","89","78446","0.0-89.0","3PWWM24LHTK0SQPS86LB1VO8JUK28V","A1561P9VVA3C1C","3XT3KXP24ZKFDDMCDS43FE3AU9W6IW","","null","<img src=""img/land3.png"" style=""width:200px;border:14px solid red;"">","null","","","","","","","","","",""
"","image-keyboard-response","90","79288","0.0-90.0","3PWWM24LHTK0SQPS86LB1VO8JUK28V","A1561P9VVA3C1C","3XT3KXP24ZKFDDMCDS43FE3AU9W6IW","","841.7000000476837","img/land4.png","75","842.1999999284744","2","0","2","1","0.8,0.2,0.2,0.2,0.8,0.2,0.2,0.2,0.8","0.8,0.2,0.2,0.2,0.8,0.2,0.2,0.2,0.8","1","",""
"","html-keyboard-response","91","79589","0.0-91.0","3PWWM24LHTK0SQPS86LB1VO8JUK28V","A1561P9VVA3C1C","3XT3KXP24ZKFDDMCDS43FE3AU9W6IW","","null","<img src=""img/land4.png"" style=""width:200px;border:14px solid red;"">","null","","","","","","","","","",""
"","image-keyboard-response","92","80401","0.0-92.0","3PWWM24LHTK0SQPS86LB1VO8JUK28V","A1561P9VVA3C1C","3XT3KXP24ZKFDDMCDS43FE3AU9W6IW","","811.1000000238419","img/land3.png","74","811.3999999761581","1","1","1","1","0.8,0.2,0.2,0.2,0.8,0.2,0.2,0.2,0.8","0.8,0.2,0.2,0.2,0.8,0.2,0.2,0.2,0.8","1","",""
"","html-keyboard-response","93","80702","0.0-93.0","3PWWM24LHTK0SQPS86LB1VO8JUK28V","A1561P9VVA3C1C","3XT3KXP24ZKFDDMCDS43FE3AU9W6IW","","null","<img src=""img/land3.png"" style=""width:200px; border:14px solid green;"">","null","","","","","","","","","",""
"","image-keyboard-response","94","81336","0.0-94.0","3PWWM24LHTK0SQPS86LB1VO8JUK28V","A1561P9VVA3C1C","3XT3KXP24ZKFDDMCDS43FE3AU9W6IW","","633.1000000238419","img/land4.png","75","633.6999999284744","2","1","2","1","0.8,0.2,0.2,0.2,0.8,0.2,0.2,0.2,0.8","0.8,0.2,0.2,0.2,0.8,0.2,0.2,0.2,0.8","1","",""
"","html-keyboard-response","95","81637","0.0-95.0","3PWWM24LHTK0SQPS86LB1VO8JUK28V","A1561P9VVA3C1C","3XT3KXP24ZKFDDMCDS43FE3AU9W6IW","","null","<img src=""img/land4.png"" style=""width:200px; border:14px solid green;"">","null","","","","","","","","","",""
"","image-keyboard-response","96","82240","0.0-96.0","3PWWM24LHTK0SQPS86LB1VO8JUK28V","A1561P9VVA3C1C","3XT3KXP24ZKFDDMCDS43FE3AU9W6IW","","602.1000000238419","img/land3.png","74","602.8000000715256","1","1","1","1","0.8,0.2,0.2,0.2,0.8,0.2,0.2,0.2,0.8","0.8,0.2,0.2,0.2,0.8,0.2,0.2,0.2,0.8","1","",""
"","html-keyboard-response","97","82541","0.0-97.0","3PWWM24LHTK0SQPS86LB1VO8JUK28V","A1561P9VVA3C1C","3XT3KXP24ZKFDDMCDS43FE3AU9W6IW","","null","<img src=""img/land3.png"" style=""width:200px; border:14px solid green;"">","null","","","","","","","","","",""
"","image-keyboard-response","98","83232","0.0-98.0","3PWWM24LHTK0SQPS86LB1VO8JUK28V","A1561P9VVA3C1C","3XT3KXP24ZKFDDMCDS43FE3AU9W6IW","","690.9000000953674","img/land4.png","75","691.2999999523163","2","1","2","1","0.8,0.2,0.2,0.2,0.8,0.2,0.2,0.2,0.8","0.8,0.2,0.2,0.2,0.8,0.2,0.2,0.2,0.8","1","",""
"","html-keyboard-response","99","83533","0.0-99.0","3PWWM24LHTK0SQPS86LB1VO8JUK28V","A1561P9VVA3C1C","3XT3KXP24ZKFDDMCDS43FE3AU9W6IW","","null","<img src=""img/land4.png"" style=""width:200px; border:14px solid green;"">","null","","","","","","","","","",""
"","image-keyboard-response","100","84376","0.0-100.0","3PWWM24LHTK0SQPS86LB1VO8JUK28V","A1561P9VVA3C1C","3XT3KXP24ZKFDDMCDS43FE3AU9W6IW","","842.4000000953674","img/land3.png","74","843","1","1","1","1","0.8,0.2,0.2,0.2,0.8,0.2,0.2,0.2,0.8","0.8,0.2,0.2,0.2,0.8,0.2,0.2,0.2,0.8","1","",""
"","html-keyboard-response","101","84680","0.0-101.0","3PWWM24LHTK0SQPS86LB1VO8JUK28V","A1561P9VVA3C1C","3XT3KXP24ZKFDDMCDS43FE3AU9W6IW","","null","<img src=""img/land3.png"" style=""width:200px; border:14px solid green;"">","null","","","","","","","","","",""
"","image-keyboard-response","102","85176","0.0-102.0","3PWWM24LHTK0SQPS86LB1VO8JUK28V","A1561P9VVA3C1C","3XT3KXP24ZKFDDMCDS43FE3AU9W6IW","","495.7999999523163","img/land5.png","75","496.2999999523163","2","0","3","1","0.8,0.2,0.2,0.2,0.8,0.2,0.2,0.2,0.8","0.8,0.2,0.2,0.2,0.8,0.2,0.2,0.2,0.8","1","",""
"","html-keyboard-response","103","85478","0.0-103.0","3PWWM24LHTK0SQPS86LB1VO8JUK28V","A1561P9VVA3C1C","3XT3KXP24ZKFDDMCDS43FE3AU9W6IW","","null","<img src=""img/land5.png"" style=""width:200px;border:14px solid red;"">","null","","","","","","","","","",""
"","image-keyboard-response","104","86384","0.0-104.0","3PWWM24LHTK0SQPS86LB1VO8JUK28V","A1561P9VVA3C1C","3XT3KXP24ZKFDDMCDS43FE3AU9W6IW","","905.3000000715256","img/land4.png","75","905.8999999761581","2","0","2","1","0.8,0.2,0.2,0.2,0.8,0.2,0.2,0.2,0.8","0.8,0.2,0.2,0.2,0.8,0.2,0.2,0.2,0.8","1","",""
"","html-keyboard-response","105","86694","0.0-105.0","3PWWM24LHTK0SQPS86LB1VO8JUK28V","A1561P9VVA3C1C","3XT3KXP24ZKFDDMCDS43FE3AU9W6IW","","null","<img src=""img/land4.png"" style=""width:200px;border:14px solid red;"">","null","","","","","","","","","",""
"","image-keyboard-response","106","87160","0.0-106.0","3PWWM24LHTK0SQPS86LB1VO8JUK28V","A1561P9VVA3C1C","3XT3KXP24ZKFDDMCDS43FE3AU9W6IW","","465.10000002384186","img/land5.png","76","465.6999999284744","3","0","3","1","0.8,0.2,0.2,0.2,0.8,0.2,0.2,0.2,0.8","0.8,0.2,0.2,0.2,0.8,0.2,0.2,0.2,0.8","1","",""
"","html-keyboard-response","107","87462","0.0-107.0","3PWWM24LHTK0SQPS86LB1VO8JUK28V","A1561P9VVA3C1C","3XT3KXP24ZKFDDMCDS43FE3AU9W6IW","","null","<img src=""img/land5.png"" style=""width:200px;border:14px solid red;"">","null","","","","","","","","","",""
"","image-keyboard-response","108","88304","0.0-108.0","3PWWM24LHTK0SQPS86LB1VO8JUK28V","A1561P9VVA3C1C","3XT3KXP24ZKFDDMCDS43FE3AU9W6IW","","841.7999999523163","img/land3.png","74","842.2999999523163","1","0","1","1","0.8,0.2,0.2,0.2,0.8,0.2,0.2,0.2,0.8","0.8,0.2,0.2,0.2,0.8,0.2,0.2,0.2,0.8","1","",""
"","html-keyboard-response","109","88605","0.0-109.0","3PWWM24LHTK0SQPS86LB1VO8JUK28V","A1561P9VVA3C1C","3XT3KXP24ZKFDDMCDS43FE3AU9W6IW","","null","<img src=""img/land3.png"" style=""width:200px;border:14px solid red;"">","null","","","","","","","","","",""
"","image-keyboard-response","110","89176","0.0-110.0","3PWWM24LHTK0SQPS86LB1VO8JUK28V","A1561P9VVA3C1C","3XT3KXP24ZKFDDMCDS43FE3AU9W6IW","","570.2000000476837","img/land3.png","74","570.5999999046326","1","1","1","1","0.8,0.2,0.2,0.2,0.8,0.2,0.2,0.2,0.8","0.8,0.2,0.2,0.2,0.8,0.2,0.2,0.2,0.8","1","",""
"","html-keyboard-response","111","89478","0.0-111.0","3PWWM24LHTK0SQPS86LB1VO8JUK28V","A1561P9VVA3C1C","3XT3KXP24ZKFDDMCDS43FE3AU9W6IW","","null","<img src=""img/land3.png"" style=""width:200px; border:14px solid green;"">","null","","","","","","","","","",""
"","image-keyboard-response","112","90392","0.0-112.0","3PWWM24LHTK0SQPS86LB1VO8JUK28V","A1561P9VVA3C1C","3XT3KXP24ZKFDDMCDS43FE3AU9W6IW","","913.9000000953674","img/land4.png","75","914.3999999761581","2","1","2","1","0.8,0.2,0.2,0.2,0.8,0.2,0.2,0.2,0.8","0.8,0.2,0.2,0.2,0.8,0.2,0.2,0.2,0.8","1","",""
"","html-keyboard-response","113","90693","0.0-113.0","3PWWM24LHTK0SQPS86LB1VO8JUK28V","A1561P9VVA3C1C","3XT3KXP24ZKFDDMCDS43FE3AU9W6IW","","null","<img src=""img/land4.png"" style=""width:200px; border:14px solid green;"">","null","","","","","","","","","",""
"","image-keyboard-response","114","91160","0.0-114.0","3PWWM24LHTK0SQPS86LB1VO8JUK28V","A1561P9VVA3C1C","3XT3KXP24ZKFDDMCDS43FE3AU9W6IW","","466","img/land4.png","75","466.39999997615814","2","1","2","1","0.8,0.2,0.2,0.2,0.8,0.2,0.2,0.2,0.8","0.8,0.2,0.2,0.2,0.8,0.2,0.2,0.2,0.8","1","",""
"","html-keyboard-response","115","91462","0.0-115.0","3PWWM24LHTK0SQPS86LB1VO8JUK28V","A1561P9VVA3C1C","3XT3KXP24ZKFDDMCDS43FE3AU9W6IW","","null","<img src=""img/land4.png"" style=""width:200px; border:14px solid green;"">","null","","","","","","","","","",""
"","image-keyboard-response","116","92104","0.0-116.0","3PWWM24LHTK0SQPS86LB1VO8JUK28V","A1561P9VVA3C1C","3XT3KXP24ZKFDDMCDS43FE3AU9W6IW","","641.7999999523163","img/land3.png","74","642.2999999523163","1","0","1","1","0.8,0.2,0.2,0.2,0.8,0.2,0.2,0.2,0.8","0.8,0.2,0.2,0.2,0.8,0.2,0.2,0.2,0.8","1","",""
"","html-keyboard-response","117","92406","0.0-117.0","3PWWM24LHTK0SQPS86LB1VO8JUK28V","A1561P9VVA3C1C","3XT3KXP24ZKFDDMCDS43FE3AU9W6IW","","null","<img src=""img/land3.png"" style=""width:200px;border:14px solid red;"">","null","","","","","","","","","",""
"","image-keyboard-response","118","92936","0.0-118.0","3PWWM24LHTK0SQPS86LB1VO8JUK28V","A1561P9VVA3C1C","3XT3KXP24ZKFDDMCDS43FE3AU9W6IW","","530.0999999046326","img/land3.png","74","530.5","1","1","1","1","0.8,0.2,0.2,0.2,0.8,0.2,0.2,0.2,0.8","0.8,0.2,0.2,0.2,0.8,0.2,0.2,0.2,0.8","1","",""
"","html-keyboard-response","119","93252","0.0-119.0","3PWWM24LHTK0SQPS86LB1VO8JUK28V","A1561P9VVA3C1C","3XT3KXP24ZKFDDMCDS43FE3AU9W6IW","","null","<img src=""img/land3.png"" style=""width:200px; border:14px solid green;"">","null","","","","","","","","","",""
"","image-keyboard-response","120","93976","0.0-120.0","3PWWM24LHTK0SQPS86LB1VO8JUK28V","A1561P9VVA3C1C","3XT3KXP24ZKFDDMCDS43FE3AU9W6IW","","723.8000000715256","img/land5.png","76","724.2999999523163","3","1","3","1","0.8,0.2,0.2,0.2,0.8,0.2,0.2,0.2,0.8","0.8,0.2,0.2,0.2,0.8,0.2,0.2,0.2,0.8","1","",""
"","html-keyboard-response","121","94277","0.0-121.0","3PWWM24LHTK0SQPS86LB1VO8JUK28V","A1561P9VVA3C1C","3XT3KXP24ZKFDDMCDS43FE3AU9W6IW","","null","<img src=""img/land5.png"" style=""width:200px; border:14px solid green;"">","null","","","","","","","","","",""
"","image-keyboard-response","122","94912","0.0-122.0","3PWWM24LHTK0SQPS86LB1VO8JUK28V","A1561P9VVA3C1C","3XT3KXP24ZKFDDMCDS43FE3AU9W6IW","","633.7000000476837","img/land4.png","75","634.1999999284744","2","1","2","1","0.8,0.2,0.2,0.2,0.8,0.2,0.2,0.2,0.8","0.8,0.2,0.2,0.2,0.8,0.2,0.2,0.2,0.8","1","",""
"","html-keyboard-response","123","95213","0.0-123.0","3PWWM24LHTK0SQPS86LB1VO8JUK28V","A1561P9VVA3C1C","3XT3KXP24ZKFDDMCDS43FE3AU9W6IW","","null","<img src=""img/land4.png"" style=""width:200px; border:14px solid green;"">","null","","","","","","","","","",""
"","image-keyboard-response","124","95744","0.0-124.0","3PWWM24LHTK0SQPS86LB1VO8JUK28V","A1561P9VVA3C1C","3XT3KXP24ZKFDDMCDS43FE3AU9W6IW","","529.8999999761581","img/land4.png","75","530.2999999523163","2","1","2","1","0.8,0.2,0.2,0.2,0.8,0.2,0.2,0.2,0.8","0.8,0.2,0.2,0.2,0.8,0.2,0.2,0.2,0.8","1","",""
"","html-keyboard-response","125","96046","0.0-125.0","3PWWM24LHTK0SQPS86LB1VO8JUK28V","A1561P9VVA3C1C","3XT3KXP24ZKFDDMCDS43FE3AU9W6IW","","null","<img src=""img/land4.png"" style=""width:200px; border:14px solid green;"">","null","","","","","","","","","",""
"","image-keyboard-response","126","96656","0.0-126.0","3PWWM24LHTK0SQPS86LB1VO8JUK28V","A1561P9VVA3C1C","3XT3KXP24ZKFDDMCDS43FE3AU9W6IW","","609.5","img/land3.png","74","610","1","1","1","1","0.8,0.2,0.2,0.2,0.8,0.2,0.2,0.2,0.8","0.8,0.2,0.2,0.2,0.8,0.2,0.2,0.2,0.8","1","",""
"","html-keyboard-response","127","96957","0.0-127.0","3PWWM24LHTK0SQPS86LB1VO8JUK28V","A1561P9VVA3C1C","3XT3KXP24ZKFDDMCDS43FE3AU9W6IW","","null","<img src=""img/land3.png"" style=""width:200px; border:14px solid green;"">","null","","","","","","","","","",""
"","image-keyboard-response","128","97512","0.0-128.0","3PWWM24LHTK0SQPS86LB1VO8JUK28V","A1561P9VVA3C1C","3XT3KXP24ZKFDDMCDS43FE3AU9W6IW","","554.1000000238419","img/land3.png","74","554.5999999046326","1","1","1","1","0.8,0.2,0.2,0.2,0.8,0.2,0.2,0.2,0.8","0.8,0.2,0.2,0.2,0.8,0.2,0.2,0.2,0.8","1","",""
"","html-keyboard-response","129","97813","0.0-129.0","3PWWM24LHTK0SQPS86LB1VO8JUK28V","A1561P9VVA3C1C","3XT3KXP24ZKFDDMCDS43FE3AU9W6IW","","null","<img src=""img/land3.png"" style=""width:200px; border:14px solid green;"">","null","","","","","","","","","",""
"","image-keyboard-response","130","98320","0.0-130.0","3PWWM24LHTK0SQPS86LB1VO8JUK28V","A1561P9VVA3C1C","3XT3KXP24ZKFDDMCDS43FE3AU9W6IW","","505.59999990463257","img/land3.png","74","506.2000000476837","1","1","1","1","0.8,0.2,0.2,0.2,0.8,0.2,0.2,0.2,0.8","0.8,0.2,0.2,0.2,0.8,0.2,0.2,0.2,0.8","1","",""
"","html-keyboard-response","131","98621","0.0-131.0","3PWWM24LHTK0SQPS86LB1VO8JUK28V","A1561P9VVA3C1C","3XT3KXP24ZKFDDMCDS43FE3AU9W6IW","","null","<img src=""img/land3.png"" style=""width:200px; border:14px solid green;"">","null","","","","","","","","","",""
"","image-keyboard-response","132","99192","0.0-132.0","3PWWM24LHTK0SQPS86LB1VO8JUK28V","A1561P9VVA3C1C","3XT3KXP24ZKFDDMCDS43FE3AU9W6IW","","570.2000000476837","img/land4.png","75","570.6000000238419","2","1","2","1","0.8,0.2,0.2,0.2,0.8,0.2,0.2,0.2,0.8","0.8,0.2,0.2,0.2,0.8,0.2,0.2,0.2,0.8","1","",""
"","html-keyboard-response","133","99494","0.0-133.0","3PWWM24LHTK0SQPS86LB1VO8JUK28V","A1561P9VVA3C1C","3XT3KXP24ZKFDDMCDS43FE3AU9W6IW","","null","<img src=""img/land4.png"" style=""width:200px; border:14px solid green;"">","null","","","","","","","","","",""
"","image-keyboard-response","134","100048","0.0-134.0","3PWWM24LHTK0SQPS86LB1VO8JUK28V","A1561P9VVA3C1C","3XT3KXP24ZKFDDMCDS43FE3AU9W6IW","","553.5","img/land4.png","75","554","2","1","2","1","0.8,0.2,0.2,0.2,0.8,0.2,0.2,0.2,0.8","0.8,0.2,0.2,0.2,0.8,0.2,0.2,0.2,0.8","1","",""
"","html-keyboard-response","135","100349","0.0-135.0","3PWWM24LHTK0SQPS86LB1VO8JUK28V","A1561P9VVA3C1C","3XT3KXP24ZKFDDMCDS43FE3AU9W6IW","","null","<img src=""img/land4.png"" style=""width:200px; border:14px solid green;"">","null","","","","","","","","","",""
"","image-keyboard-response","136","101208","0.0-136.0","3PWWM24LHTK0SQPS86LB1VO8JUK28V","A1561P9VVA3C1C","3XT3KXP24ZKFDDMCDS43FE3AU9W6IW","","858.1999999284744","img/land4.png","75","858.7000000476837","2","0","2","1","0.8,0.2,0.2,0.2,0.8,0.2,0.2,0.2,0.8","0.8,0.2,0.2,0.2,0.8,0.2,0.2,0.2,0.8","1","",""
"","html-keyboard-response","137","101510","0.0-137.0","3PWWM24LHTK0SQPS86LB1VO8JUK28V","A1561P9VVA3C1C","3XT3KXP24ZKFDDMCDS43FE3AU9W6IW","","null","<img src=""img/land4.png"" style=""width:200px;border:14px solid red;"">","null","","","","","","","","","",""
"","image-keyboard-response","138","102184","0.0-138.0","3PWWM24LHTK0SQPS86LB1VO8JUK28V","A1561P9VVA3C1C","3XT3KXP24ZKFDDMCDS43FE3AU9W6IW","","673.7000000476837","img/land3.png","74","674.2999999523163","1","1","1","1","0.8,0.2,0.2,0.2,0.8,0.2,0.2,0.2,0.8","0.8,0.2,0.2,0.2,0.8,0.2,0.2,0.2,0.8","1","",""
"","html-keyboard-response","139","102486","0.0-139.0","3PWWM24LHTK0SQPS86LB1VO8JUK28V","A1561P9VVA3C1C","3XT3KXP24ZKFDDMCDS43FE3AU9W6IW","","null","<img src=""img/land3.png"" style=""width:200px; border:14px solid green;"">","null","","","","","","","","","",""
"","image-keyboard-response","140","103080","0.0-140.0","3PWWM24LHTK0SQPS86LB1VO8JUK28V","A1561P9VVA3C1C","3XT3KXP24ZKFDDMCDS43FE3AU9W6IW","","593.3999999761581","img/land5.png","76","594","3","1","3","1","0.8,0.2,0.2,0.2,0.8,0.2,0.2,0.2,0.8","0.8,0.2,0.2,0.2,0.8,0.2,0.2,0.2,0.8","1","",""
"","html-keyboard-response","141","103381","0.0-141.0","3PWWM24LHTK0SQPS86LB1VO8JUK28V","A1561P9VVA3C1C","3XT3KXP24ZKFDDMCDS43FE3AU9W6IW","","null","<img src=""img/land5.png"" style=""width:200px; border:14px solid green;"">","null","","","","","","","","","",""
"","image-keyboard-response","142","103824","0.0-142.0","3PWWM24LHTK0SQPS86LB1VO8JUK28V","A1561P9VVA3C1C","3XT3KXP24ZKFDDMCDS43FE3AU9W6IW","","442.2999999523163","img/land5.png","76","442.89999997615814","3","1","3","1","0.8,0.2,0.2,0.2,0.8,0.2,0.2,0.2,0.8","0.8,0.2,0.2,0.2,0.8,0.2,0.2,0.2,0.8","1","",""
"","html-keyboard-response","143","104125","0.0-143.0","3PWWM24LHTK0SQPS86LB1VO8JUK28V","A1561P9VVA3C1C","3XT3KXP24ZKFDDMCDS43FE3AU9W6IW","","null","<img src=""img/land5.png"" style=""width:200px; border:14px solid green;"">","null","","","","","","","","","",""
"","image-keyboard-response","144","104848","0.0-144.0","3PWWM24LHTK0SQPS86LB1VO8JUK28V","A1561P9VVA3C1C","3XT3KXP24ZKFDDMCDS43FE3AU9W6IW","","722.2999999523163","img/land3.png","74","722.7999999523163","1","1","1","1","0.8,0.2,0.2,0.2,0.8,0.2,0.2,0.2,0.8","0.8,0.2,0.2,0.2,0.8,0.2,0.2,0.2,0.8","1","",""
"","html-keyboard-response","145","105149","0.0-145.0","3PWWM24LHTK0SQPS86LB1VO8JUK28V","A1561P9VVA3C1C","3XT3KXP24ZKFDDMCDS43FE3AU9W6IW","","null","<img src=""img/land3.png"" style=""width:200px; border:14px solid green;"">","null","","","","","","","","","",""
"","image-keyboard-response","146","105696","0.0-146.0","3PWWM24LHTK0SQPS86LB1VO8JUK28V","A1561P9VVA3C1C","3XT3KXP24ZKFDDMCDS43FE3AU9W6IW","","546.1999999284744","img/land5.png","75","546.7999999523163","2","0","3","1","0.8,0.2,0.2,0.2,0.8,0.2,0.2,0.2,0.8","0.8,0.2,0.2,0.2,0.8,0.2,0.2,0.2,0.8","1","",""
"","html-keyboard-response","147","106003","0.0-147.0","3PWWM24LHTK0SQPS86LB1VO8JUK28V","A1561P9VVA3C1C","3XT3KXP24ZKFDDMCDS43FE3AU9W6IW","","null","<img src=""img/land5.png"" style=""width:200px;border:14px solid red;"">","null","","","","","","","","","",""
"","image-keyboard-response","148","106688","0.0-148.0","3PWWM24LHTK0SQPS86LB1VO8JUK28V","A1561P9VVA3C1C","3XT3KXP24ZKFDDMCDS43FE3AU9W6IW","","684.6999999284744","img/land3.png","74","685.2000000476837","1","1","1","1","0.8,0.2,0.2,0.2,0.8,0.2,0.2,0.2,0.8","0.8,0.2,0.2,0.2,0.8,0.2,0.2,0.2,0.8","1","",""
"","html-keyboard-response","149","106989","0.0-149.0","3PWWM24LHTK0SQPS86LB1VO8JUK28V","A1561P9VVA3C1C","3XT3KXP24ZKFDDMCDS43FE3AU9W6IW","","null","<img src=""img/land3.png"" style=""width:200px; border:14px solid green;"">","null","","","","","","","","","",""
"","image-keyboard-response","150","107448","0.0-150.0","3PWWM24LHTK0SQPS86LB1VO8JUK28V","A1561P9VVA3C1C","3XT3KXP24ZKFDDMCDS43FE3AU9W6IW","","457.89999997615814","img/land3.png","74","458.40000009536743","1","1","1","1","0.8,0.2,0.2,0.2,0.8,0.2,0.2,0.2,0.8","0.8,0.2,0.2,0.2,0.8,0.2,0.2,0.2,0.8","1","",""
"","html-keyboard-response","151","107750","0.0-151.0","3PWWM24LHTK0SQPS86LB1VO8JUK28V","A1561P9VVA3C1C","3XT3KXP24ZKFDDMCDS43FE3AU9W6IW","","null","<img src=""img/land3.png"" style=""width:200px; border:14px solid green;"">","null","","","","","","","","","",""
"","image-keyboard-response","152","108216","0.0-152.0","3PWWM24LHTK0SQPS86LB1VO8JUK28V","A1561P9VVA3C1C","3XT3KXP24ZKFDDMCDS43FE3AU9W6IW","","465.39999997615814","img/land3.png","74","466","1","1","1","1","0.8,0.2,0.2,0.2,0.8,0.2,0.2,0.2,0.8","0.8,0.2,0.2,0.2,0.8,0.2,0.2,0.2,0.8","1","",""
"","html-keyboard-response","153","108517","0.0-153.0","3PWWM24LHTK0SQPS86LB1VO8JUK28V","A1561P9VVA3C1C","3XT3KXP24ZKFDDMCDS43FE3AU9W6IW","","null","<img src=""img/land3.png"" style=""width:200px; border:14px solid green;"">","null","","","","","","","","","",""
"","image-keyboard-response","154","109008","0.0-154.0","3PWWM24LHTK0SQPS86LB1VO8JUK28V","A1561P9VVA3C1C","3XT3KXP24ZKFDDMCDS43FE3AU9W6IW","","490.2999999523163","img/land5.png","76","490.89999997615814","3","0","3","1","0.8,0.2,0.2,0.2,0.8,0.2,0.2,0.2,0.8","0.8,0.2,0.2,0.2,0.8,0.2,0.2,0.2,0.8","1","",""
"","html-keyboard-response","155","109311","0.0-155.0","3PWWM24LHTK0SQPS86LB1VO8JUK28V","A1561P9VVA3C1C","3XT3KXP24ZKFDDMCDS43FE3AU9W6IW","","null","<img src=""img/land5.png"" style=""width:200px;border:14px solid red;"">","null","","","","","","","","","",""
"","image-keyboard-response","156","110040","0.0-156.0","3PWWM24LHTK0SQPS86LB1VO8JUK28V","A1561P9VVA3C1C","3XT3KXP24ZKFDDMCDS43FE3AU9W6IW","","728.7000000476837","img/land4.png","75","729.0999999046326","2","1","2","1","0.8,0.2,0.2,0.2,0.8,0.2,0.2,0.2,0.8","0.8,0.2,0.2,0.2,0.8,0.2,0.2,0.2,0.8","1","",""
"","html-keyboard-response","157","110342","0.0-157.0","3PWWM24LHTK0SQPS86LB1VO8JUK28V","A1561P9VVA3C1C","3XT3KXP24ZKFDDMCDS43FE3AU9W6IW","","null","<img src=""img/land4.png"" style=""width:200px; border:14px solid green;"">","null","","","","","","","","","",""
"","image-keyboard-response","158","110992","0.0-158.0","3PWWM24LHTK0SQPS86LB1VO8JUK28V","A1561P9VVA3C1C","3XT3KXP24ZKFDDMCDS43FE3AU9W6IW","","649.9000000953674","img/land3.png","74","650.2999999523163","1","1","1","1","0.8,0.2,0.2,0.2,0.8,0.2,0.2,0.2,0.8","0.8,0.2,0.2,0.2,0.8,0.2,0.2,0.2,0.8","1","",""
"","html-keyboard-response","159","111293","0.0-159.0","3PWWM24LHTK0SQPS86LB1VO8JUK28V","A1561P9VVA3C1C","3XT3KXP24ZKFDDMCDS43FE3AU9W6IW","","null","<img src=""img/land3.png"" style=""width:200px; border:14px solid green;"">","null","","","","","","","","","",""
"","image-keyboard-response","160","112144","0.0-160.0","3PWWM24LHTK0SQPS86LB1VO8JUK28V","A1561P9VVA3C1C","3XT3KXP24ZKFDDMCDS43FE3AU9W6IW","","850.9000000953674","img/land4.png","75","851.3999999761581","2","1","2","1","0.8,0.2,0.2,0.2,0.8,0.2,0.2,0.2,0.8","0.8,0.2,0.2,0.2,0.8,0.2,0.2,0.2,0.8","1","",""
"","html-keyboard-response","161","112446","0.0-161.0","3PWWM24LHTK0SQPS86LB1VO8JUK28V","A1561P9VVA3C1C","3XT3KXP24ZKFDDMCDS43FE3AU9W6IW","","null","<img src=""img/land4.png"" style=""width:200px; border:14px solid green;"">","null","","","","","","","","","",""
"","image-keyboard-response","162","113088","0.0-162.0","3PWWM24LHTK0SQPS86LB1VO8JUK28V","A1561P9VVA3C1C","3XT3KXP24ZKFDDMCDS43FE3AU9W6IW","","641.2999999523163","img/land5.png","76","641.6999999284744","3","1","3","1","0.8,0.2,0.2,0.2,0.8,0.2,0.2,0.2,0.8","0.8,0.2,0.2,0.2,0.8,0.2,0.2,0.2,0.8","1","",""
"","html-keyboard-response","163","113391","0.0-163.0","3PWWM24LHTK0SQPS86LB1VO8JUK28V","A1561P9VVA3C1C","3XT3KXP24ZKFDDMCDS43FE3AU9W6IW","","null","<img src=""img/land5.png"" style=""width:200px; border:14px solid green;"">","null","","","","","","","","","",""
"","image-keyboard-response","164","113920","0.0-164.0","3PWWM24LHTK0SQPS86LB1VO8JUK28V","A1561P9VVA3C1C","3XT3KXP24ZKFDDMCDS43FE3AU9W6IW","","528.5","img/land5.png","76","529","3","1","3","1","0.8,0.2,0.2,0.2,0.8,0.2,0.2,0.2,0.8","0.8,0.2,0.2,0.2,0.8,0.2,0.2,0.2,0.8","1","",""
"","html-keyboard-response","165","114221","0.0-165.0","3PWWM24LHTK0SQPS86LB1VO8JUK28V","A1561P9VVA3C1C","3XT3KXP24ZKFDDMCDS43FE3AU9W6IW","","null","<img src=""img/land5.png"" style=""width:200px; border:14px solid green;"">","null","","","","","","","","","",""
"","image-keyboard-response","166","114800","0.0-166.0","3PWWM24LHTK0SQPS86LB1VO8JUK28V","A1561P9VVA3C1C","3XT3KXP24ZKFDDMCDS43FE3AU9W6IW","","578.3000000715256","img/land5.png","76","578.7000000476837","3","1","3","1","0.8,0.2,0.2,0.2,0.8,0.2,0.2,0.2,0.8","0.8,0.2,0.2,0.2,0.8,0.2,0.2,0.2,0.8","1","",""
"","html-keyboard-response","167","115101","0.0-167.0","3PWWM24LHTK0SQPS86LB1VO8JUK28V","A1561P9VVA3C1C","3XT3KXP24ZKFDDMCDS43FE3AU9W6IW","","null","<img src=""img/land5.png"" style=""width:200px; border:14px solid green;"">","null","","","","","","","","","",""
"","image-keyboard-response","168","115576","0.0-168.0","3PWWM24LHTK0SQPS86LB1VO8JUK28V","A1561P9VVA3C1C","3XT3KXP24ZKFDDMCDS43FE3AU9W6IW","","474.39999997615814","img/land5.png","76","474.89999997615814","3","1","3","1","0.8,0.2,0.2,0.2,0.8,0.2,0.2,0.2,0.8","0.8,0.2,0.2,0.2,0.8,0.2,0.2,0.2,0.8","1","",""
"","html-keyboard-response","169","115878","0.0-169.0","3PWWM24LHTK0SQPS86LB1VO8JUK28V","A1561P9VVA3C1C","3XT3KXP24ZKFDDMCDS43FE3AU9W6IW","","null","<img src=""img/land5.png"" style=""width:200px; border:14px solid green;"">","null","","","","","","","","","",""
"","image-keyboard-response","170","116560","0.0-170.0","3PWWM24LHTK0SQPS86LB1VO8JUK28V","A1561P9VVA3C1C","3XT3KXP24ZKFDDMCDS43FE3AU9W6IW","","681.6000000238419","img/land4.png","75","682.0999999046326","2","1","2","1","0.8,0.2,0.2,0.2,0.8,0.2,0.2,0.2,0.8","0.8,0.2,0.2,0.2,0.8,0.2,0.2,0.2,0.8","1","",""
"","html-keyboard-response","171","116861","0.0-171.0","3PWWM24LHTK0SQPS86LB1VO8JUK28V","A1561P9VVA3C1C","3XT3KXP24ZKFDDMCDS43FE3AU9W6IW","","null","<img src=""img/land4.png"" style=""width:200px; border:14px solid green;"">","null","","","","","","","","","",""
"","image-keyboard-response","172","117376","0.0-172.0","3PWWM24LHTK0SQPS86LB1VO8JUK28V","A1561P9VVA3C1C","3XT3KXP24ZKFDDMCDS43FE3AU9W6IW","","514.3999999761581","img/land3.png","74","515","1","1","1","1","0.8,0.2,0.2,0.2,0.8,0.2,0.2,0.2,0.8","0.8,0.2,0.2,0.2,0.8,0.2,0.2,0.2,0.8","1","",""
"","html-keyboard-response","173","117677","0.0-173.0","3PWWM24LHTK0SQPS86LB1VO8JUK28V","A1561P9VVA3C1C","3XT3KXP24ZKFDDMCDS43FE3AU9W6IW","","null","<img src=""img/land3.png"" style=""width:200px; border:14px solid green;"">","null","","","","","","","","","",""
"","image-keyboard-response","174","118336","0.0-174.0","3PWWM24LHTK0SQPS86LB1VO8JUK28V","A1561P9VVA3C1C","3XT3KXP24ZKFDDMCDS43FE3AU9W6IW","","658.6000000238419","img/land5.png","76","659.1999999284744","3","1","3","1","0.8,0.2,0.2,0.2,0.8,0.2,0.2,0.2,0.8","0.8,0.2,0.2,0.2,0.8,0.2,0.2,0.2,0.8","1","",""
"","html-keyboard-response","175","118637","0.0-175.0","3PWWM24LHTK0SQPS86LB1VO8JUK28V","A1561P9VVA3C1C","3XT3KXP24ZKFDDMCDS43FE3AU9W6IW","","null","<img src=""img/land5.png"" style=""width:200px; border:14px solid green;"">","null","","","","","","","","","",""
"","image-keyboard-response","176","119184","0.0-176.0","3PWWM24LHTK0SQPS86LB1VO8JUK28V","A1561P9VVA3C1C","3XT3KXP24ZKFDDMCDS43FE3AU9W6IW","","546.1999999284744","img/land5.png","76","546.6000000238419","3","1","3","1","0.8,0.2,0.2,0.2,0.8,0.2,0.2,0.2,0.8","0.8,0.2,0.2,0.2,0.8,0.2,0.2,0.2,0.8","1","",""
"","html-keyboard-response","177","119486","0.0-177.0","3PWWM24LHTK0SQPS86LB1VO8JUK28V","A1561P9VVA3C1C","3XT3KXP24ZKFDDMCDS43FE3AU9W6IW","","null","<img src=""img/land5.png"" style=""width:200px; border:14px solid green;"">","null","","","","","","","","","",""
"","image-keyboard-response","178","120088","0.0-178.0","3PWWM24LHTK0SQPS86LB1VO8JUK28V","A1561P9VVA3C1C","3XT3KXP24ZKFDDMCDS43FE3AU9W6IW","","601.5","img/land4.png","75","602.1999999284744","2","1","2","1","0.8,0.2,0.2,0.2,0.8,0.2,0.2,0.2,0.8","0.8,0.2,0.2,0.2,0.8,0.2,0.2,0.2,0.8","1","",""
"","html-keyboard-response","179","120389","0.0-179.0","3PWWM24LHTK0SQPS86LB1VO8JUK28V","A1561P9VVA3C1C","3XT3KXP24ZKFDDMCDS43FE3AU9W6IW","","null","<img src=""img/land4.png"" style=""width:200px; border:14px solid green;"">","null","","","","","","","","","",""
"","image-keyboard-response","180","120968","0.0-180.0","3PWWM24LHTK0SQPS86LB1VO8JUK28V","A1561P9VVA3C1C","3XT3KXP24ZKFDDMCDS43FE3AU9W6IW","","577.7999999523163","img/land4.png","75","578.3000000715256","2","1","2","1","0.8,0.2,0.2,0.2,0.8,0.2,0.2,0.2,0.8","0.8,0.2,0.2,0.2,0.8,0.2,0.2,0.2,0.8","1","",""
"","html-keyboard-response","181","121269","0.0-181.0","3PWWM24LHTK0SQPS86LB1VO8JUK28V","A1561P9VVA3C1C","3XT3KXP24ZKFDDMCDS43FE3AU9W6IW","","null","<img src=""img/land4.png"" style=""width:200px; border:14px solid green;"">","null","","","","","","","","","",""
"","html-keyboard-response","182","125416","0.0-182.0","3PWWM24LHTK0SQPS86LB1VO8JUK28V","A1561P9VVA3C1C","3XT3KXP24ZKFDDMCDS43FE3AU9W6IW","","","","","","","","","","","","","",""
"","image-keyboard-response","183","127417","0.0-183.0","3PWWM24LHTK0SQPS86LB1VO8JUK28V","A1561P9VVA3C1C","3XT3KXP24ZKFDDMCDS43FE3AU9W6IW","","","img/land2.png","","2001.5","-1","0","1","2","0.8,0.2,0.2,0.2,0.8,0.2,0.2,0.2,0.8","0.2,0.2,0.8,0.8,0.2,0.2,0.2,0.8,0.2","2","",""
"","html-keyboard-response","184","127719","0.0-184.0","3PWWM24LHTK0SQPS86LB1VO8JUK28V","A1561P9VVA3C1C","3XT3KXP24ZKFDDMCDS43FE3AU9W6IW","","null","<img src=""img/land2.png"" style=""width:200px;border:14px solid red;"">","null","","","","","","","","","",""
"","image-keyboard-response","185","127752","0.0-185.0","3PWWM24LHTK0SQPS86LB1VO8JUK28V","A1561P9VVA3C1C","3XT3KXP24ZKFDDMCDS43FE3AU9W6IW","","32.40000009536743","img/land6.png","75","33.200000047683716","2","1","3","2","0.8,0.2,0.2,0.2,0.8,0.2,0.2,0.2,0.8","0.2,0.2,0.8,0.8,0.2,0.2,0.2,0.8,0.2","2","",""
"","html-keyboard-response","186","128054","0.0-186.0","3PWWM24LHTK0SQPS86LB1VO8JUK28V","A1561P9VVA3C1C","3XT3KXP24ZKFDDMCDS43FE3AU9W6IW","","null","<img src=""img/land6.png"" style=""width:200px; border:14px solid green;"">","null","","","","","","","","","",""
"","image-keyboard-response","187","128736","0.0-187.0","3PWWM24LHTK0SQPS86LB1VO8JUK28V","A1561P9VVA3C1C","3XT3KXP24ZKFDDMCDS43FE3AU9W6IW","","681.5","img/land2.png","75","682.1000000238419","2","0","1","2","0.8,0.2,0.2,0.2,0.8,0.2,0.2,0.2,0.8","0.2,0.2,0.8,0.8,0.2,0.2,0.2,0.8,0.2","2","",""
"","html-keyboard-response","188","129037","0.0-188.0","3PWWM24LHTK0SQPS86LB1VO8JUK28V","A1561P9VVA3C1C","3XT3KXP24ZKFDDMCDS43FE3AU9W6IW","","null","<img src=""img/land2.png"" style=""width:200px;border:14px solid red;"">","null","","","","","","","","","",""
"","image-keyboard-response","189","129960","0.0-189.0","3PWWM24LHTK0SQPS86LB1VO8JUK28V","A1561P9VVA3C1C","3XT3KXP24ZKFDDMCDS43FE3AU9W6IW","","922.1000000238419","img/land1.png","75","922.8000000715256","2","0","2","2","0.8,0.2,0.2,0.2,0.8,0.2,0.2,0.2,0.8","0.2,0.2,0.8,0.8,0.2,0.2,0.2,0.8,0.2","2","",""
"","html-keyboard-response","190","130261","0.0-190.0","3PWWM24LHTK0SQPS86LB1VO8JUK28V","A1561P9VVA3C1C","3XT3KXP24ZKFDDMCDS43FE3AU9W6IW","","null","<img src=""img/land1.png"" style=""width:200px;border:14px solid red;"">","null","","","","","","","","","",""
"","image-keyboard-response","191","131032","0.0-191.0","3PWWM24LHTK0SQPS86LB1VO8JUK28V","A1561P9VVA3C1C","3XT3KXP24ZKFDDMCDS43FE3AU9W6IW","","770","img/land2.png","74","770.7000000476837","1","0","1","2","0.8,0.2,0.2,0.2,0.8,0.2,0.2,0.2,0.8","0.2,0.2,0.8,0.8,0.2,0.2,0.2,0.8,0.2","2","",""
"","html-keyboard-response","192","131334","0.0-192.0","3PWWM24LHTK0SQPS86LB1VO8JUK28V","A1561P9VVA3C1C","3XT3KXP24ZKFDDMCDS43FE3AU9W6IW","","null","<img src=""img/land2.png"" style=""width:200px;border:14px solid red;"">","null","","","","","","","","","",""
"","image-keyboard-response","193","132368","0.0-193.0","3PWWM24LHTK0SQPS86LB1VO8JUK28V","A1561P9VVA3C1C","3XT3KXP24ZKFDDMCDS43FE3AU9W6IW","","1033.3000000715256","img/land6.png","76","1033.8999999761581","3","0","3","2","0.8,0.2,0.2,0.2,0.8,0.2,0.2,0.2,0.8","0.2,0.2,0.8,0.8,0.2,0.2,0.2,0.8,0.2","2","",""
"","html-keyboard-response","194","132670","0.0-194.0","3PWWM24LHTK0SQPS86LB1VO8JUK28V","A1561P9VVA3C1C","3XT3KXP24ZKFDDMCDS43FE3AU9W6IW","","null","<img src=""img/land6.png"" style=""width:200px;border:14px solid red;"">","null","","","","","","","","","",""
"","image-keyboard-response","195","133584","0.0-195.0","3PWWM24LHTK0SQPS86LB1VO8JUK28V","A1561P9VVA3C1C","3XT3KXP24ZKFDDMCDS43FE3AU9W6IW","","913.3999999761581","img/land2.png","75","914","2","0","1","2","0.8,0.2,0.2,0.2,0.8,0.2,0.2,0.2,0.8","0.2,0.2,0.8,0.8,0.2,0.2,0.2,0.8,0.2","2","",""
"","html-keyboard-response","196","133885","0.0-196.0","3PWWM24LHTK0SQPS86LB1VO8JUK28V","A1561P9VVA3C1C","3XT3KXP24ZKFDDMCDS43FE3AU9W6IW","","null","<img src=""img/land2.png"" style=""width:200px;border:14px solid red;"">","null","","","","","","","","","",""
"","image-keyboard-response","197","134664","0.0-197.0","3PWWM24LHTK0SQPS86LB1VO8JUK28V","A1561P9VVA3C1C","3XT3KXP24ZKFDDMCDS43FE3AU9W6IW","","778.1999999284744","img/land2.png","74","778.8000000715256","1","0","1","2","0.8,0.2,0.2,0.2,0.8,0.2,0.2,0.2,0.8","0.2,0.2,0.8,0.8,0.2,0.2,0.2,0.8,0.2","2","",""
"","html-keyboard-response","198","134965","0.0-198.0","3PWWM24LHTK0SQPS86LB1VO8JUK28V","A1561P9VVA3C1C","3XT3KXP24ZKFDDMCDS43FE3AU9W6IW","","null","<img src=""img/land2.png"" style=""width:200px;border:14px solid red;"">","null","","","","","","","","","",""
"","image-keyboard-response","199","135440","0.0-199.0","3PWWM24LHTK0SQPS86LB1VO8JUK28V","A1561P9VVA3C1C","3XT3KXP24ZKFDDMCDS43FE3AU9W6IW","","473.89999997615814","img/land2.png","76","474.39999997615814","3","0","1","2","0.8,0.2,0.2,0.2,0.8,0.2,0.2,0.2,0.8","0.2,0.2,0.8,0.8,0.2,0.2,0.2,0.8,0.2","2","",""
"","html-keyboard-response","200","135742","0.0-200.0","3PWWM24LHTK0SQPS86LB1VO8JUK28V","A1561P9VVA3C1C","3XT3KXP24ZKFDDMCDS43FE3AU9W6IW","","null","<img src=""img/land2.png"" style=""width:200px;border:14px solid red;"">","null","","","","","","","","","",""
"","image-keyboard-response","201","136712","0.0-201.0","3PWWM24LHTK0SQPS86LB1VO8JUK28V","A1561P9VVA3C1C","3XT3KXP24ZKFDDMCDS43FE3AU9W6IW","","969.2999999523163","img/land1.png","76","969.8999999761581","3","0","2","2","0.8,0.2,0.2,0.2,0.8,0.2,0.2,0.2,0.8","0.2,0.2,0.8,0.8,0.2,0.2,0.2,0.8,0.2","2","",""
"","html-keyboard-response","202","137013","0.0-202.0","3PWWM24LHTK0SQPS86LB1VO8JUK28V","A1561P9VVA3C1C","3XT3KXP24ZKFDDMCDS43FE3AU9W6IW","","null","<img src=""img/land1.png"" style=""width:200px;border:14px solid red;"">","null","","","","","","","","","",""
"","image-keyboard-response","203","137688","0.0-203.0","3PWWM24LHTK0SQPS86LB1VO8JUK28V","A1561P9VVA3C1C","3XT3KXP24ZKFDDMCDS43FE3AU9W6IW","","674.6000000238419","img/land2.png","74","675.2000000476837","1","0","1","2","0.8,0.2,0.2,0.2,0.8,0.2,0.2,0.2,0.8","0.2,0.2,0.8,0.8,0.2,0.2,0.2,0.8,0.2","2","",""
"","html-keyboard-response","204","137989","0.0-204.0","3PWWM24LHTK0SQPS86LB1VO8JUK28V","A1561P9VVA3C1C","3XT3KXP24ZKFDDMCDS43FE3AU9W6IW","","null","<img src=""img/land2.png"" style=""width:200px;border:14px solid red;"">","null","","","","","","","","","",""
"","image-keyboard-response","205","138840","0.0-205.0","3PWWM24LHTK0SQPS86LB1VO8JUK28V","A1561P9VVA3C1C","3XT3KXP24ZKFDDMCDS43FE3AU9W6IW","","849.8000000715256","img/land2.png","75","850.2999999523163","2","0","1","2","0.8,0.2,0.2,0.2,0.8,0.2,0.2,0.2,0.8","0.2,0.2,0.8,0.8,0.2,0.2,0.2,0.8,0.2","2","",""
"","html-keyboard-response","206","139142","0.0-206.0","3PWWM24LHTK0SQPS86LB1VO8JUK28V","A1561P9VVA3C1C","3XT3KXP24ZKFDDMCDS43FE3AU9W6IW","","null","<img src=""img/land2.png"" style=""width:200px;border:14px solid red;"">","null","","","","","","","","","",""
"","image-keyboard-response","207","139488","0.0-207.0","3PWWM24LHTK0SQPS86LB1VO8JUK28V","A1561P9VVA3C1C","3XT3KXP24ZKFDDMCDS43FE3AU9W6IW","","345.39999997615814","img/land2.png","76","346","3","1","1","2","0.8,0.2,0.2,0.2,0.8,0.2,0.2,0.2,0.8","0.2,0.2,0.8,0.8,0.2,0.2,0.2,0.8,0.2","2","",""
"","html-keyboard-response","208","139789","0.0-208.0","3PWWM24LHTK0SQPS86LB1VO8JUK28V","A1561P9VVA3C1C","3XT3KXP24ZKFDDMCDS43FE3AU9W6IW","","null","<img src=""img/land2.png"" style=""width:200px; border:14px solid green;"">","null","","","","","","","","","",""
"","image-keyboard-response","209","141336","0.0-209.0","3PWWM24LHTK0SQPS86LB1VO8JUK28V","A1561P9VVA3C1C","3XT3KXP24ZKFDDMCDS43FE3AU9W6IW","","1546.7000000476837","img/land6.png","75","1547.1000000238419","2","1","3","2","0.8,0.2,0.2,0.2,0.8,0.2,0.2,0.2,0.8","0.2,0.2,0.8,0.8,0.2,0.2,0.2,0.8,0.2","2","",""
"","html-keyboard-response","210","141647","0.0-210.0","3PWWM24LHTK0SQPS86LB1VO8JUK28V","A1561P9VVA3C1C","3XT3KXP24ZKFDDMCDS43FE3AU9W6IW","","null","<img src=""img/land6.png"" style=""width:200px; border:14px solid green;"">","null","","","","","","","","","",""
"","image-keyboard-response","211","142448","0.0-211.0","3PWWM24LHTK0SQPS86LB1VO8JUK28V","A1561P9VVA3C1C","3XT3KXP24ZKFDDMCDS43FE3AU9W6IW","","799.8999999761581","img/land2.png","76","800.3999999761581","3","1","1","2","0.8,0.2,0.2,0.2,0.8,0.2,0.2,0.2,0.8","0.2,0.2,0.8,0.8,0.2,0.2,0.2,0.8,0.2","2","",""
"","html-keyboard-response","212","142749","0.0-212.0","3PWWM24LHTK0SQPS86LB1VO8JUK28V","A1561P9VVA3C1C","3XT3KXP24ZKFDDMCDS43FE3AU9W6IW","","null","<img src=""img/land2.png"" style=""width:200px; border:14px solid green;"">","null","","","","","","","","","",""
"","image-keyboard-response","213","143472","0.0-213.0","3PWWM24LHTK0SQPS86LB1VO8JUK28V","A1561P9VVA3C1C","3XT3KXP24ZKFDDMCDS43FE3AU9W6IW","","722.0999999046326","img/land2.png","76","722.6000000238419","3","1","1","2","0.8,0.2,0.2,0.2,0.8,0.2,0.2,0.2,0.8","0.2,0.2,0.8,0.8,0.2,0.2,0.2,0.8,0.2","2","",""
"","html-keyboard-response","214","143773","0.0-214.0","3PWWM24LHTK0SQPS86LB1VO8JUK28V","A1561P9VVA3C1C","3XT3KXP24ZKFDDMCDS43FE3AU9W6IW","","null","<img src=""img/land2.png"" style=""width:200px; border:14px solid green;"">","null","","","","","","","","","",""
"","image-keyboard-response","215","144840","0.0-215.0","3PWWM24LHTK0SQPS86LB1VO8JUK28V","A1561P9VVA3C1C","3XT3KXP24ZKFDDMCDS43FE3AU9W6IW","","1066.2999999523163","img/land1.png","74","1066.8999999761581","1","0","2","2","0.8,0.2,0.2,0.2,0.8,0.2,0.2,0.2,0.8","0.2,0.2,0.8,0.8,0.2,0.2,0.2,0.8,0.2","2","",""
"","html-keyboard-response","216","145141","0.0-216.0","3PWWM24LHTK0SQPS86LB1VO8JUK28V","A1561P9VVA3C1C","3XT3KXP24ZKFDDMCDS43FE3AU9W6IW","","null","<img src=""img/land1.png"" style=""width:200px;border:14px solid red;"">","null","","","","","","","","","",""
"","image-keyboard-response","217","146128","0.0-217.0","3PWWM24LHTK0SQPS86LB1VO8JUK28V","A1561P9VVA3C1C","3XT3KXP24ZKFDDMCDS43FE3AU9W6IW","","985.8999999761581","img/land2.png","76","986.5","3","0","1","2","0.8,0.2,0.2,0.2,0.8,0.2,0.2,0.2,0.8","0.2,0.2,0.8,0.8,0.2,0.2,0.2,0.8,0.2","2","",""
"","html-keyboard-response","218","146430","0.0-218.0","3PWWM24LHTK0SQPS86LB1VO8JUK28V","A1561P9VVA3C1C","3XT3KXP24ZKFDDMCDS43FE3AU9W6IW","","null","<img src=""img/land2.png"" style=""width:200px;border:14px solid red;"">","null","","","","","","","","","",""
"","image-keyboard-response","219","147240","0.0-219.0","3PWWM24LHTK0SQPS86LB1VO8JUK28V","A1561P9VVA3C1C","3XT3KXP24ZKFDDMCDS43FE3AU9W6IW","","808.7999999523163","img/land1.png","75","809.3999999761581","2","0","2","2","0.8,0.2,0.2,0.2,0.8,0.2,0.2,0.2,0.8","0.2,0.2,0.8,0.8,0.2,0.2,0.2,0.8,0.2","2","",""
"","html-keyboard-response","220","147541","0.0-220.0","3PWWM24LHTK0SQPS86LB1VO8JUK28V","A1561P9VVA3C1C","3XT3KXP24ZKFDDMCDS43FE3AU9W6IW","","null","<img src=""img/land1.png"" style=""width:200px;border:14px solid red;"">","null","","","","","","","","","",""
"","image-keyboard-response","221","148344","0.0-221.0","3PWWM24LHTK0SQPS86LB1VO8JUK28V","A1561P9VVA3C1C","3XT3KXP24ZKFDDMCDS43FE3AU9W6IW","","801.6999999284744","img/land2.png","76","802.2000000476837","3","0","1","2","0.8,0.2,0.2,0.2,0.8,0.2,0.2,0.2,0.8","0.2,0.2,0.8,0.8,0.2,0.2,0.2,0.8,0.2","2","",""
"","html-keyboard-response","222","148645","0.0-222.0","3PWWM24LHTK0SQPS86LB1VO8JUK28V","A1561P9VVA3C1C","3XT3KXP24ZKFDDMCDS43FE3AU9W6IW","","null","<img src=""img/land2.png"" style=""width:200px;border:14px solid red;"">","null","","","","","","","","","",""
"","image-keyboard-response","223","149312","0.0-223.0","3PWWM24LHTK0SQPS86LB1VO8JUK28V","A1561P9VVA3C1C","3XT3KXP24ZKFDDMCDS43FE3AU9W6IW","","666.2000000476837","img/land1.png","75","666.6000000238419","2","0","2","2","0.8,0.2,0.2,0.2,0.8,0.2,0.2,0.2,0.8","0.2,0.2,0.8,0.8,0.2,0.2,0.2,0.8,0.2","2","",""
"","html-keyboard-response","224","149613","0.0-224.0","3PWWM24LHTK0SQPS86LB1VO8JUK28V","A1561P9VVA3C1C","3XT3KXP24ZKFDDMCDS43FE3AU9W6IW","","null","<img src=""img/land1.png"" style=""width:200px;border:14px solid red;"">","null","","","","","","","","","",""
"","image-keyboard-response","225","150400","0.0-225.0","3PWWM24LHTK0SQPS86LB1VO8JUK28V","A1561P9VVA3C1C","3XT3KXP24ZKFDDMCDS43FE3AU9W6IW","","786.8999999761581","img/land6.png","76","787.2999999523163","3","0","3","2","0.8,0.2,0.2,0.2,0.8,0.2,0.2,0.2,0.8","0.2,0.2,0.8,0.8,0.2,0.2,0.2,0.8,0.2","2","",""
"","html-keyboard-response","226","150702","0.0-226.0","3PWWM24LHTK0SQPS86LB1VO8JUK28V","A1561P9VVA3C1C","3XT3KXP24ZKFDDMCDS43FE3AU9W6IW","","null","<img src=""img/land6.png"" style=""width:200px;border:14px solid red;"">","null","","","","","","","","","",""
"","image-keyboard-response","227","151624","0.0-227.0","3PWWM24LHTK0SQPS86LB1VO8JUK28V","A1561P9VVA3C1C","3XT3KXP24ZKFDDMCDS43FE3AU9W6IW","","921.7000000476837","img/land2.png","75","922.2999999523163","2","0","1","2","0.8,0.2,0.2,0.2,0.8,0.2,0.2,0.2,0.8","0.2,0.2,0.8,0.8,0.2,0.2,0.2,0.8,0.2","2","",""
"","html-keyboard-response","228","151926","0.0-228.0","3PWWM24LHTK0SQPS86LB1VO8JUK28V","A1561P9VVA3C1C","3XT3KXP24ZKFDDMCDS43FE3AU9W6IW","","null","<img src=""img/land2.png"" style=""width:200px;border:14px solid red;"">","null","","","","","","","","","",""
"","image-keyboard-response","229","152456","0.0-229.0","3PWWM24LHTK0SQPS86LB1VO8JUK28V","A1561P9VVA3C1C","3XT3KXP24ZKFDDMCDS43FE3AU9W6IW","","529.6000000238419","img/land2.png","74","530.1000000238419","1","0","1","2","0.8,0.2,0.2,0.2,0.8,0.2,0.2,0.2,0.8","0.2,0.2,0.8,0.8,0.2,0.2,0.2,0.8,0.2","2","",""
"","html-keyboard-response","230","152757","0.0-230.0","3PWWM24LHTK0SQPS86LB1VO8JUK28V","A1561P9VVA3C1C","3XT3KXP24ZKFDDMCDS43FE3AU9W6IW","","null","<img src=""img/land2.png"" style=""width:200px;border:14px solid red;"">","null","","","","","","","","","",""
"","image-keyboard-response","231","153168","0.0-231.0","3PWWM24LHTK0SQPS86LB1VO8JUK28V","A1561P9VVA3C1C","3XT3KXP24ZKFDDMCDS43FE3AU9W6IW","","410.5","img/land2.png","76","411.10000002384186","3","1","1","2","0.8,0.2,0.2,0.2,0.8,0.2,0.2,0.2,0.8","0.2,0.2,0.8,0.8,0.2,0.2,0.2,0.8,0.2","2","",""
"","html-keyboard-response","232","153470","0.0-232.0","3PWWM24LHTK0SQPS86LB1VO8JUK28V","A1561P9VVA3C1C","3XT3KXP24ZKFDDMCDS43FE3AU9W6IW","","null","<img src=""img/land2.png"" style=""width:200px; border:14px solid green;"">","null","","","","","","","","","",""
"","image-keyboard-response","233","155048","0.0-233.0","3PWWM24LHTK0SQPS86LB1VO8JUK28V","A1561P9VVA3C1C","3XT3KXP24ZKFDDMCDS43FE3AU9W6IW","","1576.9000000953674","img/land6.png","75","1577.6000000238419","2","1","3","2","0.8,0.2,0.2,0.2,0.8,0.2,0.2,0.2,0.8","0.2,0.2,0.8,0.8,0.2,0.2,0.2,0.8,0.2","2","",""
"","html-keyboard-response","234","155349","0.0-234.0","3PWWM24LHTK0SQPS86LB1VO8JUK28V","A1561P9VVA3C1C","3XT3KXP24ZKFDDMCDS43FE3AU9W6IW","","null","<img src=""img/land6.png"" style=""width:200px; border:14px solid green;"">","null","","","","","","","","","",""
"","image-keyboard-response","235","156480","0.0-235.0","3PWWM24LHTK0SQPS86LB1VO8JUK28V","A1561P9VVA3C1C","3XT3KXP24ZKFDDMCDS43FE3AU9W6IW","","1130.2999999523163","img/land1.png","74","1131.3999999761581","1","0","2","2","0.8,0.2,0.2,0.2,0.8,0.2,0.2,0.2,0.8","0.2,0.2,0.8,0.8,0.2,0.2,0.2,0.8,0.2","2","",""
"","html-keyboard-response","236","156781","0.0-236.0","3PWWM24LHTK0SQPS86LB1VO8JUK28V","A1561P9VVA3C1C","3XT3KXP24ZKFDDMCDS43FE3AU9W6IW","","null","<img src=""img/land1.png"" style=""width:200px;border:14px solid red;"">","null","","","","","","","","","",""
"","image-keyboard-response","237","157360","0.0-237.0","3PWWM24LHTK0SQPS86LB1VO8JUK28V","A1561P9VVA3C1C","3XT3KXP24ZKFDDMCDS43FE3AU9W6IW","","577.7000000476837","img/land1.png","74","578.2999999523163","1","1","2","2","0.8,0.2,0.2,0.2,0.8,0.2,0.2,0.2,0.8","0.2,0.2,0.8,0.8,0.2,0.2,0.2,0.8,0.2","2","",""
"","html-keyboard-response","238","157661","0.0-238.0","3PWWM24LHTK0SQPS86LB1VO8JUK28V","A1561P9VVA3C1C","3XT3KXP24ZKFDDMCDS43FE3AU9W6IW","","null","<img src=""img/land1.png"" style=""width:200px; border:14px solid green;"">","null","","","","","","","","","",""
"","image-keyboard-response","239","158776","0.0-239.0","3PWWM24LHTK0SQPS86LB1VO8JUK28V","A1561P9VVA3C1C","3XT3KXP24ZKFDDMCDS43FE3AU9W6IW","","1113.6999999284744","img/land2.png","76","1114.2999999523163","3","1","1","2","0.8,0.2,0.2,0.2,0.8,0.2,0.2,0.2,0.8","0.2,0.2,0.8,0.8,0.2,0.2,0.2,0.8,0.2","2","",""
"","html-keyboard-response","240","159077","0.0-240.0","3PWWM24LHTK0SQPS86LB1VO8JUK28V","A1561P9VVA3C1C","3XT3KXP24ZKFDDMCDS43FE3AU9W6IW","","null","<img src=""img/land2.png"" style=""width:200px; border:14px solid green;"">","null","","","","","","","","","",""
"","image-keyboard-response","241","159736","0.0-241.0","3PWWM24LHTK0SQPS86LB1VO8JUK28V","A1561P9VVA3C1C","3XT3KXP24ZKFDDMCDS43FE3AU9W6IW","","658.6000000238419","img/land2.png","76","659.1000000238419","3","1","1","2","0.8,0.2,0.2,0.2,0.8,0.2,0.2,0.2,0.8","0.2,0.2,0.8,0.8,0.2,0.2,0.2,0.8,0.2","2","",""
"","html-keyboard-response","242","160037","0.0-242.0","3PWWM24LHTK0SQPS86LB1VO8JUK28V","A1561P9VVA3C1C","3XT3KXP24ZKFDDMCDS43FE3AU9W6IW","","null","<img src=""img/land2.png"" style=""width:200px; border:14px solid green;"">","null","","","","","","","","","",""
"","image-keyboard-response","243","160680","0.0-243.0","3PWWM24LHTK0SQPS86LB1VO8JUK28V","A1561P9VVA3C1C","3XT3KXP24ZKFDDMCDS43FE3AU9W6IW","","641.7999999523163","img/land2.png","76","642.3999999761581","3","0","1","2","0.8,0.2,0.2,0.2,0.8,0.2,0.2,0.2,0.8","0.2,0.2,0.8,0.8,0.2,0.2,0.2,0.8,0.2","2","",""
"","html-keyboard-response","244","160981","0.0-244.0","3PWWM24LHTK0SQPS86LB1VO8JUK28V","A1561P9VVA3C1C","3XT3KXP24ZKFDDMCDS43FE3AU9W6IW","","null","<img src=""img/land2.png"" style=""width:200px;border:14px solid red;"">","null","","","","","","","","","",""
"","image-keyboard-response","245","161728","0.0-245.0","3PWWM24LHTK0SQPS86LB1VO8JUK28V","A1561P9VVA3C1C","3XT3KXP24ZKFDDMCDS43FE3AU9W6IW","","746.0999999046326","img/land1.png","75","746.6000000238419","2","0","2","2","0.8,0.2,0.2,0.2,0.8,0.2,0.2,0.2,0.8","0.2,0.2,0.8,0.8,0.2,0.2,0.2,0.8,0.2","2","",""
"","html-keyboard-response","246","162029","0.0-246.0","3PWWM24LHTK0SQPS86LB1VO8JUK28V","A1561P9VVA3C1C","3XT3KXP24ZKFDDMCDS43FE3AU9W6IW","","null","<img src=""img/land1.png"" style=""width:200px;border:14px solid red;"">","null","","","","","","","","","",""
"","image-keyboard-response","247","163064","0.0-247.0","3PWWM24LHTK0SQPS86LB1VO8JUK28V","A1561P9VVA3C1C","3XT3KXP24ZKFDDMCDS43FE3AU9W6IW","","1034.5","img/land2.png","76","1035.1000000238419","3","1","1","2","0.8,0.2,0.2,0.2,0.8,0.2,0.2,0.2,0.8","0.2,0.2,0.8,0.8,0.2,0.2,0.2,0.8,0.2","2","",""
"","html-keyboard-response","248","163366","0.0-248.0","3PWWM24LHTK0SQPS86LB1VO8JUK28V","A1561P9VVA3C1C","3XT3KXP24ZKFDDMCDS43FE3AU9W6IW","","null","<img src=""img/land2.png"" style=""width:200px; border:14px solid green;"">","null","","","","","","","","","",""
"","image-keyboard-response","249","163864","0.0-249.0","3PWWM24LHTK0SQPS86LB1VO8JUK28V","A1561P9VVA3C1C","3XT3KXP24ZKFDDMCDS43FE3AU9W6IW","","497.59999990463257","img/land2.png","76","498.10000002384186","3","1","1","2","0.8,0.2,0.2,0.2,0.8,0.2,0.2,0.2,0.8","0.2,0.2,0.8,0.8,0.2,0.2,0.2,0.8,0.2","2","",""
"","html-keyboard-response","250","164165","0.0-250.0","3PWWM24LHTK0SQPS86LB1VO8JUK28V","A1561P9VVA3C1C","3XT3KXP24ZKFDDMCDS43FE3AU9W6IW","","null","<img src=""img/land2.png"" style=""width:200px; border:14px solid green;"">","null","","","","","","","","","",""
"","image-keyboard-response","251","164592","0.0-251.0","3PWWM24LHTK0SQPS86LB1VO8JUK28V","A1561P9VVA3C1C","3XT3KXP24ZKFDDMCDS43FE3AU9W6IW","","426.2000000476837","img/land2.png","76","426.6999999284744","3","0","1","2","0.8,0.2,0.2,0.2,0.8,0.2,0.2,0.2,0.8","0.2,0.2,0.8,0.8,0.2,0.2,0.2,0.8,0.2","2","",""
"","html-keyboard-response","252","164893","0.0-252.0","3PWWM24LHTK0SQPS86LB1VO8JUK28V","A1561P9VVA3C1C","3XT3KXP24ZKFDDMCDS43FE3AU9W6IW","","null","<img src=""img/land2.png"" style=""width:200px;border:14px solid red;"">","null","","","","","","","","","",""
"","image-keyboard-response","253","165288","0.0-253.0","3PWWM24LHTK0SQPS86LB1VO8JUK28V","A1561P9VVA3C1C","3XT3KXP24ZKFDDMCDS43FE3AU9W6IW","","394","img/land2.png","76","394.60000002384186","3","1","1","2","0.8,0.2,0.2,0.2,0.8,0.2,0.2,0.2,0.8","0.2,0.2,0.8,0.8,0.2,0.2,0.2,0.8,0.2","2","",""
"","html-keyboard-response","254","165599","0.0-254.0","3PWWM24LHTK0SQPS86LB1VO8JUK28V","A1561P9VVA3C1C","3XT3KXP24ZKFDDMCDS43FE3AU9W6IW","","null","<img src=""img/land2.png"" style=""width:200px; border:14px solid green;"">","null","","","","","","","","","",""
"","image-keyboard-response","255","166472","0.0-255.0","3PWWM24LHTK0SQPS86LB1VO8JUK28V","A1561P9VVA3C1C","3XT3KXP24ZKFDDMCDS43FE3AU9W6IW","","872.3000000715256","img/land6.png","75","872.8999999761581","2","0","3","2","0.8,0.2,0.2,0.2,0.8,0.2,0.2,0.2,0.8","0.2,0.2,0.8,0.8,0.2,0.2,0.2,0.8,0.2","2","",""
"","html-keyboard-response","256","166773","0.0-256.0","3PWWM24LHTK0SQPS86LB1VO8JUK28V","A1561P9VVA3C1C","3XT3KXP24ZKFDDMCDS43FE3AU9W6IW","","null","<img src=""img/land6.png"" style=""width:200px;border:14px solid red;"">","null","","","","","","","","","",""
"","image-keyboard-response","257","167592","0.0-257.0","3PWWM24LHTK0SQPS86LB1VO8JUK28V","A1561P9VVA3C1C","3XT3KXP24ZKFDDMCDS43FE3AU9W6IW","","818.1000000238419","img/land2.png","76","818.6999999284744","3","1","1","2","0.8,0.2,0.2,0.2,0.8,0.2,0.2,0.2,0.8","0.2,0.2,0.8,0.8,0.2,0.2,0.2,0.8,0.2","2","",""
"","html-keyboard-response","258","167893","0.0-258.0","3PWWM24LHTK0SQPS86LB1VO8JUK28V","A1561P9VVA3C1C","3XT3KXP24ZKFDDMCDS43FE3AU9W6IW","","null","<img src=""img/land2.png"" style=""width:200px; border:14px solid green;"">","null","","","","","","","","","",""
"","image-keyboard-response","259","168352","0.0-259.0","3PWWM24LHTK0SQPS86LB1VO8JUK28V","A1561P9VVA3C1C","3XT3KXP24ZKFDDMCDS43FE3AU9W6IW","","458","img/land2.png","76","458.60000002384186","3","1","1","2","0.8,0.2,0.2,0.2,0.8,0.2,0.2,0.2,0.8","0.2,0.2,0.8,0.8,0.2,0.2,0.2,0.8,0.2","2","",""
"","html-keyboard-response","260","168653","0.0-260.0","3PWWM24LHTK0SQPS86LB1VO8JUK28V","A1561P9VVA3C1C","3XT3KXP24ZKFDDMCDS43FE3AU9W6IW","","null","<img src=""img/land2.png"" style=""width:200px; border:14px solid green;"">","null","","","","","","","","","",""
"","image-keyboard-response","261","169256","0.0-261.0","3PWWM24LHTK0SQPS86LB1VO8JUK28V","A1561P9VVA3C1C","3XT3KXP24ZKFDDMCDS43FE3AU9W6IW","","602.7999999523163","img/land6.png","75","603.2000000476837","2","0","3","2","0.8,0.2,0.2,0.2,0.8,0.2,0.2,0.2,0.8","0.2,0.2,0.8,0.8,0.2,0.2,0.2,0.8,0.2","2","",""
"","html-keyboard-response","262","169564","0.0-262.0","3PWWM24LHTK0SQPS86LB1VO8JUK28V","A1561P9VVA3C1C","3XT3KXP24ZKFDDMCDS43FE3AU9W6IW","","null","<img src=""img/land6.png"" style=""width:200px;border:14px solid red;"">","null","","","","","","","","","",""
"","image-keyboard-response","263","170600","0.0-263.0","3PWWM24LHTK0SQPS86LB1VO8JUK28V","A1561P9VVA3C1C","3XT3KXP24ZKFDDMCDS43FE3AU9W6IW","","1035.8000000715256","img/land1.png","75","1036.2999999523163","2","0","2","2","0.8,0.2,0.2,0.2,0.8,0.2,0.2,0.2,0.8","0.2,0.2,0.8,0.8,0.2,0.2,0.2,0.8,0.2","2","",""
"","html-keyboard-response","264","170901","0.0-264.0","3PWWM24LHTK0SQPS86LB1VO8JUK28V","A1561P9VVA3C1C","3XT3KXP24ZKFDDMCDS43FE3AU9W6IW","","null","<img src=""img/land1.png"" style=""width:200px;border:14px solid red;"">","null","","","","","","","","","",""
"","image-keyboard-response","265","171999","0.0-265.0","3PWWM24LHTK0SQPS86LB1VO8JUK28V","A1561P9VVA3C1C","3XT3KXP24ZKFDDMCDS43FE3AU9W6IW","","1097.7000000476837","img/land6.png","74","1098.2999999523163","1","1","3","2","0.8,0.2,0.2,0.2,0.8,0.2,0.2,0.2,0.8","0.2,0.2,0.8,0.8,0.2,0.2,0.2,0.8,0.2","2","",""
"","html-keyboard-response","266","172301","0.0-266.0","3PWWM24LHTK0SQPS86LB1VO8JUK28V","A1561P9VVA3C1C","3XT3KXP24ZKFDDMCDS43FE3AU9W6IW","","null","<img src=""img/land6.png"" style=""width:200px; border:14px solid green;"">","null","","","","","","","","","",""
"","image-keyboard-response","267","173480","0.0-267.0","3PWWM24LHTK0SQPS86LB1VO8JUK28V","A1561P9VVA3C1C","3XT3KXP24ZKFDDMCDS43FE3AU9W6IW","","1178.5","img/land1.png","75","1179.1000000238419","2","1","2","2","0.8,0.2,0.2,0.2,0.8,0.2,0.2,0.2,0.8","0.2,0.2,0.8,0.8,0.2,0.2,0.2,0.8,0.2","2","",""
"","html-keyboard-response","268","173781","0.0-268.0","3PWWM24LHTK0SQPS86LB1VO8JUK28V","A1561P9VVA3C1C","3XT3KXP24ZKFDDMCDS43FE3AU9W6IW","","null","<img src=""img/land1.png"" style=""width:200px; border:14px solid green;"">","null","","","","","","","","","",""
"","image-keyboard-response","269","174520","0.0-269.0","3PWWM24LHTK0SQPS86LB1VO8JUK28V","A1561P9VVA3C1C","3XT3KXP24ZKFDDMCDS43FE3AU9W6IW","","738.1999999284744","img/land2.png","76","738.7000000476837","3","1","1","2","0.8,0.2,0.2,0.2,0.8,0.2,0.2,0.2,0.8","0.2,0.2,0.8,0.8,0.2,0.2,0.2,0.8,0.2","2","",""
"","html-keyboard-response","270","174821","0.0-270.0","3PWWM24LHTK0SQPS86LB1VO8JUK28V","A1561P9VVA3C1C","3XT3KXP24ZKFDDMCDS43FE3AU9W6IW","","null","<img src=""img/land2.png"" style=""width:200px; border:14px solid green;"">","null","","","","","","","","","",""
"","image-keyboard-response","271","175704","0.0-271.0","3PWWM24LHTK0SQPS86LB1VO8JUK28V","A1561P9VVA3C1C","3XT3KXP24ZKFDDMCDS43FE3AU9W6IW","","882.3000000715256","img/land2.png","76","882.7999999523163","3","1","1","2","0.8,0.2,0.2,0.2,0.8,0.2,0.2,0.2,0.8","0.2,0.2,0.8,0.8,0.2,0.2,0.2,0.8,0.2","2","",""
"","html-keyboard-response","272","176006","0.0-272.0","3PWWM24LHTK0SQPS86LB1VO8JUK28V","A1561P9VVA3C1C","3XT3KXP24ZKFDDMCDS43FE3AU9W6IW","","null","<img src=""img/land2.png"" style=""width:200px; border:14px solid green;"">","null","","","","","","","","","",""
"","image-keyboard-response","273","176336","0.0-273.0","3PWWM24LHTK0SQPS86LB1VO8JUK28V","A1561P9VVA3C1C","3XT3KXP24ZKFDDMCDS43FE3AU9W6IW","","329.5","img/land2.png","76","330.09999990463257","3","1","1","2","0.8,0.2,0.2,0.2,0.8,0.2,0.2,0.2,0.8","0.2,0.2,0.8,0.8,0.2,0.2,0.2,0.8,0.2","2","",""
"","html-keyboard-response","274","176638","0.0-274.0","3PWWM24LHTK0SQPS86LB1VO8JUK28V","A1561P9VVA3C1C","3XT3KXP24ZKFDDMCDS43FE3AU9W6IW","","null","<img src=""img/land2.png"" style=""width:200px; border:14px solid green;"">","null","","","","","","","","","",""
"","image-keyboard-response","275","177056","0.0-275.0","3PWWM24LHTK0SQPS86LB1VO8JUK28V","A1561P9VVA3C1C","3XT3KXP24ZKFDDMCDS43FE3AU9W6IW","","417.7000000476837","img/land2.png","76","418.3000000715256","3","0","1","2","0.8,0.2,0.2,0.2,0.8,0.2,0.2,0.2,0.8","0.2,0.2,0.8,0.8,0.2,0.2,0.2,0.8,0.2","2","",""
"","html-keyboard-response","276","177368","0.0-276.0","3PWWM24LHTK0SQPS86LB1VO8JUK28V","A1561P9VVA3C1C","3XT3KXP24ZKFDDMCDS43FE3AU9W6IW","","null","<img src=""img/land2.png"" style=""width:200px;border:14px solid red;"">","null","","","","","","","","","",""
"","image-keyboard-response","277","178184","0.0-277.0","3PWWM24LHTK0SQPS86LB1VO8JUK28V","A1561P9VVA3C1C","3XT3KXP24ZKFDDMCDS43FE3AU9W6IW","","815.7999999523163","img/land1.png","75","816.3999999761581","2","0","2","2","0.8,0.2,0.2,0.2,0.8,0.2,0.2,0.2,0.8","0.2,0.2,0.8,0.8,0.2,0.2,0.2,0.8,0.2","2","",""
"","html-keyboard-response","278","178486","0.0-278.0","3PWWM24LHTK0SQPS86LB1VO8JUK28V","A1561P9VVA3C1C","3XT3KXP24ZKFDDMCDS43FE3AU9W6IW","","null","<img src=""img/land1.png"" style=""width:200px;border:14px solid red;"">","null","","","","","","","","","",""
"","image-keyboard-response","279","179344","0.0-279.0","3PWWM24LHTK0SQPS86LB1VO8JUK28V","A1561P9VVA3C1C","3XT3KXP24ZKFDDMCDS43FE3AU9W6IW","","857.3000000715256","img/land2.png","76","857.7999999523163","3","0","1","2","0.8,0.2,0.2,0.2,0.8,0.2,0.2,0.2,0.8","0.2,0.2,0.8,0.8,0.2,0.2,0.2,0.8,0.2","2","",""
"","html-keyboard-response","280","179649","0.0-280.0","3PWWM24LHTK0SQPS86LB1VO8JUK28V","A1561P9VVA3C1C","3XT3KXP24ZKFDDMCDS43FE3AU9W6IW","","null","<img src=""img/land2.png"" style=""width:200px;border:14px solid red;"">","null","","","","","","","","","",""
"","image-keyboard-response","281","180320","0.0-281.0","3PWWM24LHTK0SQPS86LB1VO8JUK28V","A1561P9VVA3C1C","3XT3KXP24ZKFDDMCDS43FE3AU9W6IW","","670.5","img/land1.png","75","671.2000000476837","2","1","2","2","0.8,0.2,0.2,0.2,0.8,0.2,0.2,0.2,0.8","0.2,0.2,0.8,0.8,0.2,0.2,0.2,0.8,0.2","2","",""
"","html-keyboard-response","282","180621","0.0-282.0","3PWWM24LHTK0SQPS86LB1VO8JUK28V","A1561P9VVA3C1C","3XT3KXP24ZKFDDMCDS43FE3AU9W6IW","","null","<img src=""img/land1.png"" style=""width:200px; border:14px solid green;"">","null","","","","","","","","","",""
"","image-keyboard-response","283","181169","0.0-283.0","3PWWM24LHTK0SQPS86LB1VO8JUK28V","A1561P9VVA3C1C","3XT3KXP24ZKFDDMCDS43FE3AU9W6IW","","546.7999999523163","img/land2.png","76","547.2999999523163","3","0","1","2","0.8,0.2,0.2,0.2,0.8,0.2,0.2,0.2,0.8","0.2,0.2,0.8,0.8,0.2,0.2,0.2,0.8,0.2","2","",""
"","html-keyboard-response","284","181470","0.0-284.0","3PWWM24LHTK0SQPS86LB1VO8JUK28V","A1561P9VVA3C1C","3XT3KXP24ZKFDDMCDS43FE3AU9W6IW","","null","<img src=""img/land2.png"" style=""width:200px;border:14px solid red;"">","null","","","","","","","","","",""
"","image-keyboard-response","285","182240","0.0-285.0","3PWWM24LHTK0SQPS86LB1VO8JUK28V","A1561P9VVA3C1C","3XT3KXP24ZKFDDMCDS43FE3AU9W6IW","","770.3000000715256","img/land6.png","74","770.7999999523163","1","0","3","2","0.8,0.2,0.2,0.2,0.8,0.2,0.2,0.2,0.8","0.2,0.2,0.8,0.8,0.2,0.2,0.2,0.8,0.2","2","",""
"","html-keyboard-response","286","182543","0.0-286.0","3PWWM24LHTK0SQPS86LB1VO8JUK28V","A1561P9VVA3C1C","3XT3KXP24ZKFDDMCDS43FE3AU9W6IW","","null","<img src=""img/land6.png"" style=""width:200px;border:14px solid red;"">","null","","","","","","","","","",""
"","image-keyboard-response","287","183368","0.0-287.0","3PWWM24LHTK0SQPS86LB1VO8JUK28V","A1561P9VVA3C1C","3XT3KXP24ZKFDDMCDS43FE3AU9W6IW","","824.2000000476837","img/land2.png","76","824.7999999523163","3","1","1","2","0.8,0.2,0.2,0.2,0.8,0.2,0.2,0.2,0.8","0.2,0.2,0.8,0.8,0.2,0.2,0.2,0.8,0.2","2","",""
"","html-keyboard-response","288","183670","0.0-288.0","3PWWM24LHTK0SQPS86LB1VO8JUK28V","A1561P9VVA3C1C","3XT3KXP24ZKFDDMCDS43FE3AU9W6IW","","null","<img src=""img/land2.png"" style=""width:200px; border:14px solid green;"">","null","","","","","","","","","",""
"","image-keyboard-response","289","184984","0.0-289.0","3PWWM24LHTK0SQPS86LB1VO8JUK28V","A1561P9VVA3C1C","3XT3KXP24ZKFDDMCDS43FE3AU9W6IW","","1313.5","img/land6.png","74","1314.1000000238419","1","1","3","2","0.8,0.2,0.2,0.2,0.8,0.2,0.2,0.2,0.8","0.2,0.2,0.8,0.8,0.2,0.2,0.2,0.8,0.2","2","",""
"","html-keyboard-response","290","185285","0.0-290.0","3PWWM24LHTK0SQPS86LB1VO8JUK28V","A1561P9VVA3C1C","3XT3KXP24ZKFDDMCDS43FE3AU9W6IW","","null","<img src=""img/land6.png"" style=""width:200px; border:14px solid green;"">","null","","","","","","","","","",""
"","image-keyboard-response","291","186184","0.0-291.0","3PWWM24LHTK0SQPS86LB1VO8JUK28V","A1561P9VVA3C1C","3XT3KXP24ZKFDDMCDS43FE3AU9W6IW","","898.1000000238419","img/land6.png","74","898.6000000238419","1","0","3","2","0.8,0.2,0.2,0.2,0.8,0.2,0.2,0.2,0.8","0.2,0.2,0.8,0.8,0.2,0.2,0.2,0.8,0.2","2","",""
"","html-keyboard-response","292","186485","0.0-292.0","3PWWM24LHTK0SQPS86LB1VO8JUK28V","A1561P9VVA3C1C","3XT3KXP24ZKFDDMCDS43FE3AU9W6IW","","null","<img src=""img/land6.png"" style=""width:200px;border:14px solid red;"">","null","","","","","","","","","",""
"","image-keyboard-response","293","186856","0.0-293.0","3PWWM24LHTK0SQPS86LB1VO8JUK28V","A1561P9VVA3C1C","3XT3KXP24ZKFDDMCDS43FE3AU9W6IW","","370.10000002384186","img/land6.png","74","370.7000000476837","1","0","3","2","0.8,0.2,0.2,0.2,0.8,0.2,0.2,0.2,0.8","0.2,0.2,0.8,0.8,0.2,0.2,0.2,0.8,0.2","2","",""
"","html-keyboard-response","294","187158","0.0-294.0","3PWWM24LHTK0SQPS86LB1VO8JUK28V","A1561P9VVA3C1C","3XT3KXP24ZKFDDMCDS43FE3AU9W6IW","","null","<img src=""img/land6.png"" style=""width:200px;border:14px solid red;"">","null","","","","","","","","","",""
"","image-keyboard-response","295","187832","0.0-295.0","3PWWM24LHTK0SQPS86LB1VO8JUK28V","A1561P9VVA3C1C","3XT3KXP24ZKFDDMCDS43FE3AU9W6IW","","674.3000000715256","img/land2.png","76","674.8999999761581","3","1","1","2","0.8,0.2,0.2,0.2,0.8,0.2,0.2,0.2,0.8","0.2,0.2,0.8,0.8,0.2,0.2,0.2,0.8,0.2","2","",""
"","html-keyboard-response","296","188134","0.0-296.0","3PWWM24LHTK0SQPS86LB1VO8JUK28V","A1561P9VVA3C1C","3XT3KXP24ZKFDDMCDS43FE3AU9W6IW","","null","<img src=""img/land2.png"" style=""width:200px; border:14px solid green;"">","null","","","","","","","","","",""
"","image-keyboard-response","297","188576","0.0-297.0","3PWWM24LHTK0SQPS86LB1VO8JUK28V","A1561P9VVA3C1C","3XT3KXP24ZKFDDMCDS43FE3AU9W6IW","","442.2000000476837","img/land2.png","76","442.6999999284744","3","1","1","2","0.8,0.2,0.2,0.2,0.8,0.2,0.2,0.2,0.8","0.2,0.2,0.8,0.8,0.2,0.2,0.2,0.8,0.2","2","",""
"","html-keyboard-response","298","188878","0.0-298.0","3PWWM24LHTK0SQPS86LB1VO8JUK28V","A1561P9VVA3C1C","3XT3KXP24ZKFDDMCDS43FE3AU9W6IW","","null","<img src=""img/land2.png"" style=""width:200px; border:14px solid green;"">","null","","","","","","","","","",""
"","image-keyboard-response","299","189512","0.0-299.0","3PWWM24LHTK0SQPS86LB1VO8JUK28V","A1561P9VVA3C1C","3XT3KXP24ZKFDDMCDS43FE3AU9W6IW","","633.5","img/land6.png","74","634.0999999046326","1","0","3","2","0.8,0.2,0.2,0.2,0.8,0.2,0.2,0.2,0.8","0.2,0.2,0.8,0.8,0.2,0.2,0.2,0.8,0.2","2","",""
"","html-keyboard-response","300","189814","0.0-300.0","3PWWM24LHTK0SQPS86LB1VO8JUK28V","A1561P9VVA3C1C","3XT3KXP24ZKFDDMCDS43FE3AU9W6IW","","null","<img src=""img/land6.png"" style=""width:200px;border:14px solid red;"">","null","","","","","","","","","",""
"","image-keyboard-response","301","190400","0.0-301.0","3PWWM24LHTK0SQPS86LB1VO8JUK28V","A1561P9VVA3C1C","3XT3KXP24ZKFDDMCDS43FE3AU9W6IW","","586","img/land1.png","75","586.5","2","0","2","2","0.8,0.2,0.2,0.2,0.8,0.2,0.2,0.2,0.8","0.2,0.2,0.8,0.8,0.2,0.2,0.2,0.8,0.2","2","",""
"","html-keyboard-response","302","190701","0.0-302.0","3PWWM24LHTK0SQPS86LB1VO8JUK28V","A1561P9VVA3C1C","3XT3KXP24ZKFDDMCDS43FE3AU9W6IW","","null","<img src=""img/land1.png"" style=""width:200px;border:14px solid red;"">","null","","","","","","","","","",""
"","image-keyboard-response","303","191328","0.0-303.0","3PWWM24LHTK0SQPS86LB1VO8JUK28V","A1561P9VVA3C1C","3XT3KXP24ZKFDDMCDS43FE3AU9W6IW","","626.7000000476837","img/land6.png","74","627.2999999523163","1","0","3","2","0.8,0.2,0.2,0.2,0.8,0.2,0.2,0.2,0.8","0.2,0.2,0.8,0.8,0.2,0.2,0.2,0.8,0.2","2","",""
"","html-keyboard-response","304","191630","0.0-304.0","3PWWM24LHTK0SQPS86LB1VO8JUK28V","A1561P9VVA3C1C","3XT3KXP24ZKFDDMCDS43FE3AU9W6IW","","null","<img src=""img/land6.png"" style=""width:200px;border:14px solid red;"">","null","","","","","","","","","",""
"","image-keyboard-response","305","192120","0.0-305.0","3PWWM24LHTK0SQPS86LB1VO8JUK28V","A1561P9VVA3C1C","3XT3KXP24ZKFDDMCDS43FE3AU9W6IW","","489.7999999523163","img/land1.png","75","490.39999997615814","2","0","2","2","0.8,0.2,0.2,0.2,0.8,0.2,0.2,0.2,0.8","0.2,0.2,0.8,0.8,0.2,0.2,0.2,0.8,0.2","2","",""
"","html-keyboard-response","306","192422","0.0-306.0","3PWWM24LHTK0SQPS86LB1VO8JUK28V","A1561P9VVA3C1C","3XT3KXP24ZKFDDMCDS43FE3AU9W6IW","","null","<img src=""img/land1.png"" style=""width:200px;border:14px solid red;"">","null","","","","","","","","","",""
"","image-keyboard-response","307","192872","0.0-307.0","3PWWM24LHTK0SQPS86LB1VO8JUK28V","A1561P9VVA3C1C","3XT3KXP24ZKFDDMCDS43FE3AU9W6IW","","449.90000009536743","img/land1.png","75","450.39999997615814","2","0","2","2","0.8,0.2,0.2,0.2,0.8,0.2,0.2,0.2,0.8","0.2,0.2,0.8,0.8,0.2,0.2,0.2,0.8,0.2","2","",""
"","html-keyboard-response","308","193173","0.0-308.0","3PWWM24LHTK0SQPS86LB1VO8JUK28V","A1561P9VVA3C1C","3XT3KXP24ZKFDDMCDS43FE3AU9W6IW","","null","<img src=""img/land1.png"" style=""width:200px;border:14px solid red;"">","null","","","","","","","","","",""
"","image-keyboard-response","309","193728","0.0-309.0","3PWWM24LHTK0SQPS86LB1VO8JUK28V","A1561P9VVA3C1C","3XT3KXP24ZKFDDMCDS43FE3AU9W6IW","","554.3999999761581","img/land2.png","76","555.1000000238419","3","1","1","2","0.8,0.2,0.2,0.2,0.8,0.2,0.2,0.2,0.8","0.2,0.2,0.8,0.8,0.2,0.2,0.2,0.8,0.2","2","",""
"","html-keyboard-response","310","194029","0.0-310.0","3PWWM24LHTK0SQPS86LB1VO8JUK28V","A1561P9VVA3C1C","3XT3KXP24ZKFDDMCDS43FE3AU9W6IW","","null","<img src=""img/land2.png"" style=""width:200px; border:14px solid green;"">","null","","","","","","","","","",""
"","image-keyboard-response","311","194752","0.0-311.0","3PWWM24LHTK0SQPS86LB1VO8JUK28V","A1561P9VVA3C1C","3XT3KXP24ZKFDDMCDS43FE3AU9W6IW","","722.7000000476837","img/land6.png","74","723.1999999284744","1","0","3","2","0.8,0.2,0.2,0.2,0.8,0.2,0.2,0.2,0.8","0.2,0.2,0.8,0.8,0.2,0.2,0.2,0.8,0.2","2","",""
"","html-keyboard-response","312","195053","0.0-312.0","3PWWM24LHTK0SQPS86LB1VO8JUK28V","A1561P9VVA3C1C","3XT3KXP24ZKFDDMCDS43FE3AU9W6IW","","null","<img src=""img/land6.png"" style=""width:200px;border:14px solid red;"">","null","","","","","","","","","",""
"","image-keyboard-response","313","195600","0.0-313.0","3PWWM24LHTK0SQPS86LB1VO8JUK28V","A1561P9VVA3C1C","3XT3KXP24ZKFDDMCDS43FE3AU9W6IW","","546.6000000238419","img/land2.png","75","547.1999999284744","2","0","1","2","0.8,0.2,0.2,0.2,0.8,0.2,0.2,0.2,0.8","0.2,0.2,0.8,0.8,0.2,0.2,0.2,0.8,0.2","2","",""
"","html-keyboard-response","314","195902","0.0-314.0","3PWWM24LHTK0SQPS86LB1VO8JUK28V","A1561P9VVA3C1C","3XT3KXP24ZKFDDMCDS43FE3AU9W6IW","","null","<img src=""img/land2.png"" style=""width:200px;border:14px solid red;"">","null","","","","","","","","","",""
"","image-keyboard-response","315","196072","0.0-315.0","3PWWM24LHTK0SQPS86LB1VO8JUK28V","A1561P9VVA3C1C","3XT3KXP24ZKFDDMCDS43FE3AU9W6IW","","169.39999997615814","img/land6.png","76","170","3","0","3","2","0.8,0.2,0.2,0.2,0.8,0.2,0.2,0.2,0.8","0.2,0.2,0.8,0.8,0.2,0.2,0.2,0.8,0.2","2","",""
"","html-keyboard-response","316","196375","0.0-316.0","3PWWM24LHTK0SQPS86LB1VO8JUK28V","A1561P9VVA3C1C","3XT3KXP24ZKFDDMCDS43FE3AU9W6IW","","null","<img src=""img/land6.png"" style=""width:200px;border:14px solid red;"">","null","","","","","","","","","",""
"","image-keyboard-response","317","196944","0.0-317.0","3PWWM24LHTK0SQPS86LB1VO8JUK28V","A1561P9VVA3C1C","3XT3KXP24ZKFDDMCDS43FE3AU9W6IW","","569.3000000715256","img/land6.png","74","569.7999999523163","1","0","3","2","0.8,0.2,0.2,0.2,0.8,0.2,0.2,0.2,0.8","0.2,0.2,0.8,0.8,0.2,0.2,0.2,0.8,0.2","2","",""
"","html-keyboard-response","318","197246","0.0-318.0","3PWWM24LHTK0SQPS86LB1VO8JUK28V","A1561P9VVA3C1C","3XT3KXP24ZKFDDMCDS43FE3AU9W6IW","","null","<img src=""img/land6.png"" style=""width:200px;border:14px solid red;"">","null","","","","","","","","","",""
"","image-keyboard-response","319","198008","0.0-319.0","3PWWM24LHTK0SQPS86LB1VO8JUK28V","A1561P9VVA3C1C","3XT3KXP24ZKFDDMCDS43FE3AU9W6IW","","761.3999999761581","img/land2.png","76","762","3","1","1","2","0.8,0.2,0.2,0.2,0.8,0.2,0.2,0.2,0.8","0.2,0.2,0.8,0.8,0.2,0.2,0.2,0.8,0.2","2","",""
"","html-keyboard-response","320","198310","0.0-320.0","3PWWM24LHTK0SQPS86LB1VO8JUK28V","A1561P9VVA3C1C","3XT3KXP24ZKFDDMCDS43FE3AU9W6IW","","null","<img src=""img/land2.png"" style=""width:200px; border:14px solid green;"">","null","","","","","","","","","",""
"","image-keyboard-response","321","199216","0.0-321.0","3PWWM24LHTK0SQPS86LB1VO8JUK28V","A1561P9VVA3C1C","3XT3KXP24ZKFDDMCDS43FE3AU9W6IW","","905.3999999761581","img/land6.png","74","905.8999999761581","1","0","3","2","0.8,0.2,0.2,0.2,0.8,0.2,0.2,0.2,0.8","0.2,0.2,0.8,0.8,0.2,0.2,0.2,0.8,0.2","2","",""
"","html-keyboard-response","322","199517","0.0-322.0","3PWWM24LHTK0SQPS86LB1VO8JUK28V","A1561P9VVA3C1C","3XT3KXP24ZKFDDMCDS43FE3AU9W6IW","","null","<img src=""img/land6.png"" style=""width:200px;border:14px solid red;"">","null","","","","","","","","","",""
"","image-keyboard-response","323","200216","0.0-323.0","3PWWM24LHTK0SQPS86LB1VO8JUK28V","A1561P9VVA3C1C","3XT3KXP24ZKFDDMCDS43FE3AU9W6IW","","697.7999999523163","img/land6.png","75","698.5","2","1","3","2","0.8,0.2,0.2,0.2,0.8,0.2,0.2,0.2,0.8","0.2,0.2,0.8,0.8,0.2,0.2,0.2,0.8,0.2","2","",""
"","html-keyboard-response","324","200518","0.0-324.0","3PWWM24LHTK0SQPS86LB1VO8JUK28V","A1561P9VVA3C1C","3XT3KXP24ZKFDDMCDS43FE3AU9W6IW","","null","<img src=""img/land6.png"" style=""width:200px; border:14px solid green;"">","null","","","","","","","","","",""
"","image-keyboard-response","325","201241","0.0-325.0","3PWWM24LHTK0SQPS86LB1VO8JUK28V","A1561P9VVA3C1C","3XT3KXP24ZKFDDMCDS43FE3AU9W6IW","","722.1999999284744","img/land2.png","76","722.7999999523163","3","0","1","2","0.8,0.2,0.2,0.2,0.8,0.2,0.2,0.2,0.8","0.2,0.2,0.8,0.8,0.2,0.2,0.2,0.8,0.2","2","",""
"","html-keyboard-response","326","201556","0.0-326.0","3PWWM24LHTK0SQPS86LB1VO8JUK28V","A1561P9VVA3C1C","3XT3KXP24ZKFDDMCDS43FE3AU9W6IW","","null","<img src=""img/land2.png"" style=""width:200px;border:14px solid red;"">","null","","","","","","","","","",""
"","image-keyboard-response","327","201936","0.0-327.0","3PWWM24LHTK0SQPS86LB1VO8JUK28V","A1561P9VVA3C1C","3XT3KXP24ZKFDDMCDS43FE3AU9W6IW","","380.10000002384186","img/land2.png","76","380.5","3","1","1","2","0.8,0.2,0.2,0.2,0.8,0.2,0.2,0.2,0.8","0.2,0.2,0.8,0.8,0.2,0.2,0.2,0.8,0.2","2","",""
"","html-keyboard-response","328","202239","0.0-328.0","3PWWM24LHTK0SQPS86LB1VO8JUK28V","A1561P9VVA3C1C","3XT3KXP24ZKFDDMCDS43FE3AU9W6IW","","null","<img src=""img/land2.png"" style=""width:200px; border:14px solid green;"">","null","","","","","","","","","",""
"","image-keyboard-response","329","202616","0.0-329.0","3PWWM24LHTK0SQPS86LB1VO8JUK28V","A1561P9VVA3C1C","3XT3KXP24ZKFDDMCDS43FE3AU9W6IW","","376.6999999284744","img/land2.png","76","377.2000000476837","3","1","1","2","0.8,0.2,0.2,0.2,0.8,0.2,0.2,0.2,0.8","0.2,0.2,0.8,0.8,0.2,0.2,0.2,0.8,0.2","2","",""
"","html-keyboard-response","330","202918","0.0-330.0","3PWWM24LHTK0SQPS86LB1VO8JUK28V","A1561P9VVA3C1C","3XT3KXP24ZKFDDMCDS43FE3AU9W6IW","","null","<img src=""img/land2.png"" style=""width:200px; border:14px solid green;"">","null","","","","","","","","","",""
"","image-keyboard-response","331","203328","0.0-331.0","3PWWM24LHTK0SQPS86LB1VO8JUK28V","A1561P9VVA3C1C","3XT3KXP24ZKFDDMCDS43FE3AU9W6IW","","410","img/land2.png","76","410.60000002384186","3","1","1","2","0.8,0.2,0.2,0.2,0.8,0.2,0.2,0.2,0.8","0.2,0.2,0.8,0.8,0.2,0.2,0.2,0.8,0.2","2","",""
"","html-keyboard-response","332","203639","0.0-332.0","3PWWM24LHTK0SQPS86LB1VO8JUK28V","A1561P9VVA3C1C","3XT3KXP24ZKFDDMCDS43FE3AU9W6IW","","null","<img src=""img/land2.png"" style=""width:200px; border:14px solid green;"">","null","","","","","","","","","",""
"","image-keyboard-response","333","204064","0.0-333.0","3PWWM24LHTK0SQPS86LB1VO8JUK28V","A1561P9VVA3C1C","3XT3KXP24ZKFDDMCDS43FE3AU9W6IW","","424.89999997615814","img/land2.png","76","425.3000000715256","3","1","1","2","0.8,0.2,0.2,0.2,0.8,0.2,0.2,0.2,0.8","0.2,0.2,0.8,0.8,0.2,0.2,0.2,0.8,0.2","2","",""
"","html-keyboard-response","334","204365","0.0-334.0","3PWWM24LHTK0SQPS86LB1VO8JUK28V","A1561P9VVA3C1C","3XT3KXP24ZKFDDMCDS43FE3AU9W6IW","","null","<img src=""img/land2.png"" style=""width:200px; border:14px solid green;"">","null","","","","","","","","","",""
"","image-keyboard-response","335","204712","0.0-335.0","3PWWM24LHTK0SQPS86LB1VO8JUK28V","A1561P9VVA3C1C","3XT3KXP24ZKFDDMCDS43FE3AU9W6IW","","345.90000009536743","img/land2.png","76","346.5","3","1","1","2","0.8,0.2,0.2,0.2,0.8,0.2,0.2,0.2,0.8","0.2,0.2,0.8,0.8,0.2,0.2,0.2,0.8,0.2","2","",""
"","html-keyboard-response","336","205013","0.0-336.0","3PWWM24LHTK0SQPS86LB1VO8JUK28V","A1561P9VVA3C1C","3XT3KXP24ZKFDDMCDS43FE3AU9W6IW","","null","<img src=""img/land2.png"" style=""width:200px; border:14px solid green;"">","null","","","","","","","","","",""
"","image-keyboard-response","337","205977","0.0-337.0","3PWWM24LHTK0SQPS86LB1VO8JUK28V","A1561P9VVA3C1C","3XT3KXP24ZKFDDMCDS43FE3AU9W6IW","","963","img/land1.png","75","963.3999999761581","2","0","2","2","0.8,0.2,0.2,0.2,0.8,0.2,0.2,0.2,0.8","0.2,0.2,0.8,0.8,0.2,0.2,0.2,0.8,0.2","2","",""
"","html-keyboard-response","338","206278","0.0-338.0","3PWWM24LHTK0SQPS86LB1VO8JUK28V","A1561P9VVA3C1C","3XT3KXP24ZKFDDMCDS43FE3AU9W6IW","","null","<img src=""img/land1.png"" style=""width:200px;border:14px solid red;"">","null","","","","","","","","","",""
"","image-keyboard-response","339","207024","0.0-339.0","3PWWM24LHTK0SQPS86LB1VO8JUK28V","A1561P9VVA3C1C","3XT3KXP24ZKFDDMCDS43FE3AU9W6IW","","744.8999999761581","img/land2.png","76","745.5","3","1","1","2","0.8,0.2,0.2,0.2,0.8,0.2,0.2,0.2,0.8","0.2,0.2,0.8,0.8,0.2,0.2,0.2,0.8,0.2","2","",""
"","html-keyboard-response","340","207325","0.0-340.0","3PWWM24LHTK0SQPS86LB1VO8JUK28V","A1561P9VVA3C1C","3XT3KXP24ZKFDDMCDS43FE3AU9W6IW","","null","<img src=""img/land2.png"" style=""width:200px; border:14px solid green;"">","null","","","","","","","","","",""
"","image-keyboard-response","341","207752","0.0-341.0","3PWWM24LHTK0SQPS86LB1VO8JUK28V","A1561P9VVA3C1C","3XT3KXP24ZKFDDMCDS43FE3AU9W6IW","","426.60000002384186","img/land2.png","76","427.1999999284744","3","1","1","2","0.8,0.2,0.2,0.2,0.8,0.2,0.2,0.2,0.8","0.2,0.2,0.8,0.8,0.2,0.2,0.2,0.8,0.2","2","",""
"","html-keyboard-response","342","208054","0.0-342.0","3PWWM24LHTK0SQPS86LB1VO8JUK28V","A1561P9VVA3C1C","3XT3KXP24ZKFDDMCDS43FE3AU9W6IW","","null","<img src=""img/land2.png"" style=""width:200px; border:14px solid green;"">","null","","","","","","","","","",""
"","image-keyboard-response","343","208800","0.0-343.0","3PWWM24LHTK0SQPS86LB1VO8JUK28V","A1561P9VVA3C1C","3XT3KXP24ZKFDDMCDS43FE3AU9W6IW","","745.6000000238419","img/land2.png","76","746.2999999523163","3","1","1","2","0.8,0.2,0.2,0.2,0.8,0.2,0.2,0.2,0.8","0.2,0.2,0.8,0.8,0.2,0.2,0.2,0.8,0.2","2","",""
"","html-keyboard-response","344","209102","0.0-344.0","3PWWM24LHTK0SQPS86LB1VO8JUK28V","A1561P9VVA3C1C","3XT3KXP24ZKFDDMCDS43FE3AU9W6IW","","null","<img src=""img/land2.png"" style=""width:200px; border:14px solid green;"">","null","","","","","","","","","",""
"","image-keyboard-response","345","209521","0.0-345.0","3PWWM24LHTK0SQPS86LB1VO8JUK28V","A1561P9VVA3C1C","3XT3KXP24ZKFDDMCDS43FE3AU9W6IW","","418.1999999284744","img/land2.png","76","418.8000000715256","3","1","1","2","0.8,0.2,0.2,0.2,0.8,0.2,0.2,0.2,0.8","0.2,0.2,0.8,0.8,0.2,0.2,0.2,0.8,0.2","2","",""
"","html-keyboard-response","346","209822","0.0-346.0","3PWWM24LHTK0SQPS86LB1VO8JUK28V","A1561P9VVA3C1C","3XT3KXP24ZKFDDMCDS43FE3AU9W6IW","","null","<img src=""img/land2.png"" style=""width:200px; border:14px solid green;"">","null","","","","","","","","","",""
"","image-keyboard-response","347","210488","0.0-347.0","3PWWM24LHTK0SQPS86LB1VO8JUK28V","A1561P9VVA3C1C","3XT3KXP24ZKFDDMCDS43FE3AU9W6IW","","666","img/land1.png","74","666.4000000953674","1","1","2","2","0.8,0.2,0.2,0.2,0.8,0.2,0.2,0.2,0.8","0.2,0.2,0.8,0.8,0.2,0.2,0.2,0.8,0.2","2","",""
"","html-keyboard-response","348","210789","0.0-348.0","3PWWM24LHTK0SQPS86LB1VO8JUK28V","A1561P9VVA3C1C","3XT3KXP24ZKFDDMCDS43FE3AU9W6IW","","null","<img src=""img/land1.png"" style=""width:200px; border:14px solid green;"">","null","","","","","","","","","",""
"","image-keyboard-response","349","211720","0.0-349.0","3PWWM24LHTK0SQPS86LB1VO8JUK28V","A1561P9VVA3C1C","3XT3KXP24ZKFDDMCDS43FE3AU9W6IW","","930.6000000238419","img/land6.png","75","931.1000000238419","2","0","3","2","0.8,0.2,0.2,0.2,0.8,0.2,0.2,0.2,0.8","0.2,0.2,0.8,0.8,0.2,0.2,0.2,0.8,0.2","2","",""
"","html-keyboard-response","350","212022","0.0-350.0","3PWWM24LHTK0SQPS86LB1VO8JUK28V","A1561P9VVA3C1C","3XT3KXP24ZKFDDMCDS43FE3AU9W6IW","","null","<img src=""img/land6.png"" style=""width:200px;border:14px solid red;"">","null","","","","","","","","","",""
"","image-keyboard-response","351","212472","0.0-351.0","3PWWM24LHTK0SQPS86LB1VO8JUK28V","A1561P9VVA3C1C","3XT3KXP24ZKFDDMCDS43FE3AU9W6IW","","449.8000000715256","img/land6.png","75","450.2999999523163","2","1","3","2","0.8,0.2,0.2,0.2,0.8,0.2,0.2,0.2,0.8","0.2,0.2,0.8,0.8,0.2,0.2,0.2,0.8,0.2","2","",""
"","html-keyboard-response","352","212775","0.0-352.0","3PWWM24LHTK0SQPS86LB1VO8JUK28V","A1561P9VVA3C1C","3XT3KXP24ZKFDDMCDS43FE3AU9W6IW","","null","<img src=""img/land6.png"" style=""width:200px; border:14px solid green;"">","null","","","","","","","","","",""
"","image-keyboard-response","353","213384","0.0-353.0","3PWWM24LHTK0SQPS86LB1VO8JUK28V","A1561P9VVA3C1C","3XT3KXP24ZKFDDMCDS43FE3AU9W6IW","","609.3000000715256","img/land2.png","76","609.6999999284744","3","1","1","2","0.8,0.2,0.2,0.2,0.8,0.2,0.2,0.2,0.8","0.2,0.2,0.8,0.8,0.2,0.2,0.2,0.8,0.2","2","",""
"","html-keyboard-response","354","213685","0.0-354.0","3PWWM24LHTK0SQPS86LB1VO8JUK28V","A1561P9VVA3C1C","3XT3KXP24ZKFDDMCDS43FE3AU9W6IW","","null","<img src=""img/land2.png"" style=""width:200px; border:14px solid green;"">","null","","","","","","","","","",""
