"success","trial_type","trial_index","time_elapsed","internal_node_id","assignmentID","mturkID","hitID","view_history","rt","stimulus","key_press","reactionTime","a","r","s","cond","reward_cond","reward_cond_actual","reward_matrix_idx","responses","question_order"
"true","fullscreen","0","5385","0.0-0.0","3EWIJTFFVPTA5HW56M3XAHRFWH0E0N","A16ENVVHDK1LQQ","3S1L4CQSFXRWQOWP2XFUSMS4AZDFAL","","","","","","","","","","","","","",""
"","instructions","1","17407","0.0-1.0","3EWIJTFFVPTA5HW56M3XAHRFWH0E0N","A16ENVVHDK1LQQ","3S1L4CQSFXRWQOWP2XFUSMS4AZDFAL","[{""page_index"":0,""viewing_time"":2089},{""page_index"":1,""viewing_time"":1395},{""page_index"":2,""viewing_time"":1095},{""page_index"":3,""viewing_time"":1820},{""page_index"":4,""viewing_time"":1817},{""page_index"":5,""viewing_time"":1975},{""page_index"":6,""viewing_time"":1825}]","12017","","","","","","","","","","","",""
"","image-keyboard-response","2","18980","0.0-2.0","3EWIJTFFVPTA5HW56M3XAHRFWH0E0N","A16ENVVHDK1LQQ","3S1L4CQSFXRWQOWP2XFUSMS4AZDFAL","","1569","img/land6.png","76","1572","3","1","2","1","1,0.5,0.5,0.5,1,0.5,0.5,0.5,1","1,0.5,0.5,0.5,1,0.5,0.5,0.5,1","1","",""
"","html-keyboard-response","3","19362","0.0-3.0","3EWIJTFFVPTA5HW56M3XAHRFWH0E0N","A16ENVVHDK1LQQ","3S1L4CQSFXRWQOWP2XFUSMS4AZDFAL","","null","<img src=""img/land6.png"" style=""width:200px; border:14px solid green;"">","null","","","","","","","","","",""
"","image-keyboard-response","4","19373","0.0-4.0","3EWIJTFFVPTA5HW56M3XAHRFWH0E0N","A16ENVVHDK1LQQ","3S1L4CQSFXRWQOWP2XFUSMS4AZDFAL","","2","img/land1.png","75","8","2","0","3","1","1,0.5,0.5,0.5,1,0.5,0.5,0.5,1","1,0.5,0.5,0.5,1,0.5,0.5,0.5,1","1","",""
"","html-keyboard-response","5","19676","0.0-5.0","3EWIJTFFVPTA5HW56M3XAHRFWH0E0N","A16ENVVHDK1LQQ","3S1L4CQSFXRWQOWP2XFUSMS4AZDFAL","","null","<img src=""img/land1.png"" style=""width:200px;border:14px solid red;"">","null","","","","","","","","","",""
"","image-keyboard-response","6","19852","0.0-6.0","3EWIJTFFVPTA5HW56M3XAHRFWH0E0N","A16ENVVHDK1LQQ","3S1L4CQSFXRWQOWP2XFUSMS4AZDFAL","","173","img/land3.png","75","175","2","0","1","1","1,0.5,0.5,0.5,1,0.5,0.5,0.5,1","1,0.5,0.5,0.5,1,0.5,0.5,0.5,1","1","",""
"","html-keyboard-response","7","20161","0.0-7.0","3EWIJTFFVPTA5HW56M3XAHRFWH0E0N","A16ENVVHDK1LQQ","3S1L4CQSFXRWQOWP2XFUSMS4AZDFAL","","null","<img src=""img/land3.png"" style=""width:200px;border:14px solid red;"">","null","","","","","","","","","",""
"","image-keyboard-response","8","20162","0.0-8.0","3EWIJTFFVPTA5HW56M3XAHRFWH0E0N","A16ENVVHDK1LQQ","3S1L4CQSFXRWQOWP2XFUSMS4AZDFAL","","0","img/land1.png","74","0","1","0","3","1","1,0.5,0.5,0.5,1,0.5,0.5,0.5,1","1,0.5,0.5,0.5,1,0.5,0.5,0.5,1","1","",""
"","html-keyboard-response","9","20475","0.0-9.0","3EWIJTFFVPTA5HW56M3XAHRFWH0E0N","A16ENVVHDK1LQQ","3S1L4CQSFXRWQOWP2XFUSMS4AZDFAL","","null","<img src=""img/land1.png"" style=""width:200px;border:14px solid red;"">","null","","","","","","","","","",""
"","image-keyboard-response","10","20586","0.0-10.0","3EWIJTFFVPTA5HW56M3XAHRFWH0E0N","A16ENVVHDK1LQQ","3S1L4CQSFXRWQOWP2XFUSMS4AZDFAL","","109","img/land3.png","75","111","2","1","1","1","1,0.5,0.5,0.5,1,0.5,0.5,0.5,1","1,0.5,0.5,0.5,1,0.5,0.5,0.5,1","1","",""
"","html-keyboard-response","11","20890","0.0-11.0","3EWIJTFFVPTA5HW56M3XAHRFWH0E0N","A16ENVVHDK1LQQ","3S1L4CQSFXRWQOWP2XFUSMS4AZDFAL","","null","<img src=""img/land3.png"" style=""width:200px; border:14px solid green;"">","null","","","","","","","","","",""
"","image-keyboard-response","12","20924","0.0-12.0","3EWIJTFFVPTA5HW56M3XAHRFWH0E0N","A16ENVVHDK1LQQ","3S1L4CQSFXRWQOWP2XFUSMS4AZDFAL","","32","img/land3.png","76","33","3","1","1","1","1,0.5,0.5,0.5,1,0.5,0.5,0.5,1","1,0.5,0.5,0.5,1,0.5,0.5,0.5,1","1","",""
"","html-keyboard-response","13","21226","0.0-13.0","3EWIJTFFVPTA5HW56M3XAHRFWH0E0N","A16ENVVHDK1LQQ","3S1L4CQSFXRWQOWP2XFUSMS4AZDFAL","","null","<img src=""img/land3.png"" style=""width:200px; border:14px solid green;"">","null","","","","","","","","","",""
"","image-keyboard-response","14","21228","0.0-14.0","3EWIJTFFVPTA5HW56M3XAHRFWH0E0N","A16ENVVHDK1LQQ","3S1L4CQSFXRWQOWP2XFUSMS4AZDFAL","","0","img/land6.png","75","2","2","1","2","1","1,0.5,0.5,0.5,1,0.5,0.5,0.5,1","1,0.5,0.5,0.5,1,0.5,0.5,0.5,1","1","",""
"","html-keyboard-response","15","21530","0.0-15.0","3EWIJTFFVPTA5HW56M3XAHRFWH0E0N","A16ENVVHDK1LQQ","3S1L4CQSFXRWQOWP2XFUSMS4AZDFAL","","null","<img src=""img/land6.png"" style=""width:200px; border:14px solid green;"">","null","","","","","","","","","",""
"","image-keyboard-response","16","21703","0.0-16.0","3EWIJTFFVPTA5HW56M3XAHRFWH0E0N","A16ENVVHDK1LQQ","3S1L4CQSFXRWQOWP2XFUSMS4AZDFAL","","171","img/land6.png","75","172","2","1","2","1","1,0.5,0.5,0.5,1,0.5,0.5,0.5,1","1,0.5,0.5,0.5,1,0.5,0.5,0.5,1","1","",""
"","html-keyboard-response","17","22005","0.0-17.0","3EWIJTFFVPTA5HW56M3XAHRFWH0E0N","A16ENVVHDK1LQQ","3S1L4CQSFXRWQOWP2XFUSMS4AZDFAL","","null","<img src=""img/land6.png"" style=""width:200px; border:14px solid green;"">","null","","","","","","","","","",""
"","image-keyboard-response","18","22116","0.0-18.0","3EWIJTFFVPTA5HW56M3XAHRFWH0E0N","A16ENVVHDK1LQQ","3S1L4CQSFXRWQOWP2XFUSMS4AZDFAL","","110","img/land3.png","75","111","2","1","1","1","1,0.5,0.5,0.5,1,0.5,0.5,0.5,1","1,0.5,0.5,0.5,1,0.5,0.5,0.5,1","1","",""
"","html-keyboard-response","19","22418","0.0-19.0","3EWIJTFFVPTA5HW56M3XAHRFWH0E0N","A16ENVVHDK1LQQ","3S1L4CQSFXRWQOWP2XFUSMS4AZDFAL","","null","<img src=""img/land3.png"" style=""width:200px; border:14px solid green;"">","null","","","","","","","","","",""
"","image-keyboard-response","20","22484","0.0-20.0","3EWIJTFFVPTA5HW56M3XAHRFWH0E0N","A16ENVVHDK1LQQ","3S1L4CQSFXRWQOWP2XFUSMS4AZDFAL","","63","img/land6.png","74","65","1","0","2","1","1,0.5,0.5,0.5,1,0.5,0.5,0.5,1","1,0.5,0.5,0.5,1,0.5,0.5,0.5,1","1","",""
"","html-keyboard-response","21","22789","0.0-21.0","3EWIJTFFVPTA5HW56M3XAHRFWH0E0N","A16ENVVHDK1LQQ","3S1L4CQSFXRWQOWP2XFUSMS4AZDFAL","","null","<img src=""img/land6.png"" style=""width:200px;border:14px solid red;"">","null","","","","","","","","","",""
"","image-keyboard-response","22","22845","0.0-22.0","3EWIJTFFVPTA5HW56M3XAHRFWH0E0N","A16ENVVHDK1LQQ","3S1L4CQSFXRWQOWP2XFUSMS4AZDFAL","","54","img/land3.png","75","56","2","1","1","1","1,0.5,0.5,0.5,1,0.5,0.5,0.5,1","1,0.5,0.5,0.5,1,0.5,0.5,0.5,1","1","",""
"","html-keyboard-response","23","23147","0.0-23.0","3EWIJTFFVPTA5HW56M3XAHRFWH0E0N","A16ENVVHDK1LQQ","3S1L4CQSFXRWQOWP2XFUSMS4AZDFAL","","null","<img src=""img/land3.png"" style=""width:200px; border:14px solid green;"">","null","","","","","","","","","",""
"","image-keyboard-response","24","23213","0.0-24.0","3EWIJTFFVPTA5HW56M3XAHRFWH0E0N","A16ENVVHDK1LQQ","3S1L4CQSFXRWQOWP2XFUSMS4AZDFAL","","65","img/land6.png","74","66","1","0","2","1","1,0.5,0.5,0.5,1,0.5,0.5,0.5,1","1,0.5,0.5,0.5,1,0.5,0.5,0.5,1","1","",""
"","html-keyboard-response","25","23517","0.0-25.0","3EWIJTFFVPTA5HW56M3XAHRFWH0E0N","A16ENVVHDK1LQQ","3S1L4CQSFXRWQOWP2XFUSMS4AZDFAL","","null","<img src=""img/land6.png"" style=""width:200px;border:14px solid red;"">","null","","","","","","","","","",""
"","image-keyboard-response","26","23524","0.0-26.0","3EWIJTFFVPTA5HW56M3XAHRFWH0E0N","A16ENVVHDK1LQQ","3S1L4CQSFXRWQOWP2XFUSMS4AZDFAL","","5","img/land1.png","75","6","2","0","3","1","1,0.5,0.5,0.5,1,0.5,0.5,0.5,1","1,0.5,0.5,0.5,1,0.5,0.5,0.5,1","1","",""
"","html-keyboard-response","27","23826","0.0-27.0","3EWIJTFFVPTA5HW56M3XAHRFWH0E0N","A16ENVVHDK1LQQ","3S1L4CQSFXRWQOWP2XFUSMS4AZDFAL","","null","<img src=""img/land1.png"" style=""width:200px;border:14px solid red;"">","null","","","","","","","","","",""
"","image-keyboard-response","28","23879","0.0-28.0","3EWIJTFFVPTA5HW56M3XAHRFWH0E0N","A16ENVVHDK1LQQ","3S1L4CQSFXRWQOWP2XFUSMS4AZDFAL","","51","img/land1.png","75","52","2","0","3","1","1,0.5,0.5,0.5,1,0.5,0.5,0.5,1","1,0.5,0.5,0.5,1,0.5,0.5,0.5,1","1","",""
"","html-keyboard-response","29","24185","0.0-29.0","3EWIJTFFVPTA5HW56M3XAHRFWH0E0N","A16ENVVHDK1LQQ","3S1L4CQSFXRWQOWP2XFUSMS4AZDFAL","","null","<img src=""img/land1.png"" style=""width:200px;border:14px solid red;"">","null","","","","","","","","","",""
"","image-keyboard-response","30","24305","0.0-30.0","3EWIJTFFVPTA5HW56M3XAHRFWH0E0N","A16ENVVHDK1LQQ","3S1L4CQSFXRWQOWP2XFUSMS4AZDFAL","","118","img/land3.png","74","121","1","1","1","1","1,0.5,0.5,0.5,1,0.5,0.5,0.5,1","1,0.5,0.5,0.5,1,0.5,0.5,0.5,1","1","",""
"","html-keyboard-response","31","24608","0.0-31.0","3EWIJTFFVPTA5HW56M3XAHRFWH0E0N","A16ENVVHDK1LQQ","3S1L4CQSFXRWQOWP2XFUSMS4AZDFAL","","null","<img src=""img/land3.png"" style=""width:200px; border:14px solid green;"">","null","","","","","","","","","",""
"","image-keyboard-response","32","24633","0.0-32.0","3EWIJTFFVPTA5HW56M3XAHRFWH0E0N","A16ENVVHDK1LQQ","3S1L4CQSFXRWQOWP2XFUSMS4AZDFAL","","23","img/land3.png","76","24","3","1","1","1","1,0.5,0.5,0.5,1,0.5,0.5,0.5,1","1,0.5,0.5,0.5,1,0.5,0.5,0.5,1","1","",""
"","html-keyboard-response","33","24935","0.0-33.0","3EWIJTFFVPTA5HW56M3XAHRFWH0E0N","A16ENVVHDK1LQQ","3S1L4CQSFXRWQOWP2XFUSMS4AZDFAL","","null","<img src=""img/land3.png"" style=""width:200px; border:14px solid green;"">","null","","","","","","","","","",""
"","image-keyboard-response","34","25009","0.0-34.0","3EWIJTFFVPTA5HW56M3XAHRFWH0E0N","A16ENVVHDK1LQQ","3S1L4CQSFXRWQOWP2XFUSMS4AZDFAL","","74","img/land1.png","74","74","1","0","3","1","1,0.5,0.5,0.5,1,0.5,0.5,0.5,1","1,0.5,0.5,0.5,1,0.5,0.5,0.5,1","1","",""
"","html-keyboard-response","35","25311","0.0-35.0","3EWIJTFFVPTA5HW56M3XAHRFWH0E0N","A16ENVVHDK1LQQ","3S1L4CQSFXRWQOWP2XFUSMS4AZDFAL","","null","<img src=""img/land1.png"" style=""width:200px;border:14px solid red;"">","null","","","","","","","","","",""
"","image-keyboard-response","36","25329","0.0-36.0","3EWIJTFFVPTA5HW56M3XAHRFWH0E0N","A16ENVVHDK1LQQ","3S1L4CQSFXRWQOWP2XFUSMS4AZDFAL","","18","img/land3.png","75","18","2","1","1","1","1,0.5,0.5,0.5,1,0.5,0.5,0.5,1","1,0.5,0.5,0.5,1,0.5,0.5,0.5,1","1","",""
"","html-keyboard-response","37","25631","0.0-37.0","3EWIJTFFVPTA5HW56M3XAHRFWH0E0N","A16ENVVHDK1LQQ","3S1L4CQSFXRWQOWP2XFUSMS4AZDFAL","","null","<img src=""img/land3.png"" style=""width:200px; border:14px solid green;"">","null","","","","","","","","","",""
"","image-keyboard-response","38","25660","0.0-38.0","3EWIJTFFVPTA5HW56M3XAHRFWH0E0N","A16ENVVHDK1LQQ","3S1L4CQSFXRWQOWP2XFUSMS4AZDFAL","","22","img/land1.png","75","28","2","0","3","1","1,0.5,0.5,0.5,1,0.5,0.5,0.5,1","1,0.5,0.5,0.5,1,0.5,0.5,0.5,1","1","",""
"","html-keyboard-response","39","25961","0.0-39.0","3EWIJTFFVPTA5HW56M3XAHRFWH0E0N","A16ENVVHDK1LQQ","3S1L4CQSFXRWQOWP2XFUSMS4AZDFAL","","null","<img src=""img/land1.png"" style=""width:200px;border:14px solid red;"">","null","","","","","","","","","",""
"","image-keyboard-response","40","26040","0.0-40.0","3EWIJTFFVPTA5HW56M3XAHRFWH0E0N","A16ENVVHDK1LQQ","3S1L4CQSFXRWQOWP2XFUSMS4AZDFAL","","78","img/land3.png","74","79","1","1","1","1","1,0.5,0.5,0.5,1,0.5,0.5,0.5,1","1,0.5,0.5,0.5,1,0.5,0.5,0.5,1","1","",""
"","html-keyboard-response","41","26342","0.0-41.0","3EWIJTFFVPTA5HW56M3XAHRFWH0E0N","A16ENVVHDK1LQQ","3S1L4CQSFXRWQOWP2XFUSMS4AZDFAL","","null","<img src=""img/land3.png"" style=""width:200px; border:14px solid green;"">","null","","","","","","","","","",""
"","image-keyboard-response","42","26353","0.0-42.0","3EWIJTFFVPTA5HW56M3XAHRFWH0E0N","A16ENVVHDK1LQQ","3S1L4CQSFXRWQOWP2XFUSMS4AZDFAL","","8","img/land6.png","74","10","1","0","2","1","1,0.5,0.5,0.5,1,0.5,0.5,0.5,1","1,0.5,0.5,0.5,1,0.5,0.5,0.5,1","1","",""
"","html-keyboard-response","43","26655","0.0-43.0","3EWIJTFFVPTA5HW56M3XAHRFWH0E0N","A16ENVVHDK1LQQ","3S1L4CQSFXRWQOWP2XFUSMS4AZDFAL","","null","<img src=""img/land6.png"" style=""width:200px;border:14px solid red;"">","null","","","","","","","","","",""
"","image-keyboard-response","44","26687","0.0-44.0","3EWIJTFFVPTA5HW56M3XAHRFWH0E0N","A16ENVVHDK1LQQ","3S1L4CQSFXRWQOWP2XFUSMS4AZDFAL","","30","img/land6.png","74","31","1","0","2","1","1,0.5,0.5,0.5,1,0.5,0.5,0.5,1","1,0.5,0.5,0.5,1,0.5,0.5,0.5,1","1","",""
"","html-keyboard-response","45","26989","0.0-45.0","3EWIJTFFVPTA5HW56M3XAHRFWH0E0N","A16ENVVHDK1LQQ","3S1L4CQSFXRWQOWP2XFUSMS4AZDFAL","","null","<img src=""img/land6.png"" style=""width:200px;border:14px solid red;"">","null","","","","","","","","","",""
"","image-keyboard-response","46","26996","0.0-46.0","3EWIJTFFVPTA5HW56M3XAHRFWH0E0N","A16ENVVHDK1LQQ","3S1L4CQSFXRWQOWP2XFUSMS4AZDFAL","","6","img/land3.png","75","7","2","1","1","1","1,0.5,0.5,0.5,1,0.5,0.5,0.5,1","1,0.5,0.5,0.5,1,0.5,0.5,0.5,1","1","",""
"","html-keyboard-response","47","27298","0.0-47.0","3EWIJTFFVPTA5HW56M3XAHRFWH0E0N","A16ENVVHDK1LQQ","3S1L4CQSFXRWQOWP2XFUSMS4AZDFAL","","null","<img src=""img/land3.png"" style=""width:200px; border:14px solid green;"">","null","","","","","","","","","",""
"","image-keyboard-response","48","27359","0.0-48.0","3EWIJTFFVPTA5HW56M3XAHRFWH0E0N","A16ENVVHDK1LQQ","3S1L4CQSFXRWQOWP2XFUSMS4AZDFAL","","59","img/land6.png","75","60","2","1","2","1","1,0.5,0.5,0.5,1,0.5,0.5,0.5,1","1,0.5,0.5,0.5,1,0.5,0.5,0.5,1","1","",""
"","html-keyboard-response","49","27661","0.0-49.0","3EWIJTFFVPTA5HW56M3XAHRFWH0E0N","A16ENVVHDK1LQQ","3S1L4CQSFXRWQOWP2XFUSMS4AZDFAL","","null","<img src=""img/land6.png"" style=""width:200px; border:14px solid green;"">","null","","","","","","","","","",""
"","image-keyboard-response","50","27720","0.0-50.0","3EWIJTFFVPTA5HW56M3XAHRFWH0E0N","A16ENVVHDK1LQQ","3S1L4CQSFXRWQOWP2XFUSMS4AZDFAL","","56","img/land1.png","75","58","2","0","3","1","1,0.5,0.5,0.5,1,0.5,0.5,0.5,1","1,0.5,0.5,0.5,1,0.5,0.5,0.5,1","1","",""
"","html-keyboard-response","51","28023","0.0-51.0","3EWIJTFFVPTA5HW56M3XAHRFWH0E0N","A16ENVVHDK1LQQ","3S1L4CQSFXRWQOWP2XFUSMS4AZDFAL","","null","<img src=""img/land1.png"" style=""width:200px;border:14px solid red;"">","null","","","","","","","","","",""
"","image-keyboard-response","52","29182","0.0-52.0","3EWIJTFFVPTA5HW56M3XAHRFWH0E0N","A16ENVVHDK1LQQ","3S1L4CQSFXRWQOWP2XFUSMS4AZDFAL","","1156","img/land1.png","74","1159","1","0","3","1","1,0.5,0.5,0.5,1,0.5,0.5,0.5,1","1,0.5,0.5,0.5,1,0.5,0.5,0.5,1","1","",""
"","html-keyboard-response","53","29484","0.0-53.0","3EWIJTFFVPTA5HW56M3XAHRFWH0E0N","A16ENVVHDK1LQQ","3S1L4CQSFXRWQOWP2XFUSMS4AZDFAL","","null","<img src=""img/land1.png"" style=""width:200px;border:14px solid red;"">","null","","","","","","","","","",""
"","image-keyboard-response","54","30905","0.0-54.0","3EWIJTFFVPTA5HW56M3XAHRFWH0E0N","A16ENVVHDK1LQQ","3S1L4CQSFXRWQOWP2XFUSMS4AZDFAL","","1419","img/land3.png","74","1421","1","1","1","1","1,0.5,0.5,0.5,1,0.5,0.5,0.5,1","1,0.5,0.5,0.5,1,0.5,0.5,0.5,1","1","",""
"","html-keyboard-response","55","31208","0.0-55.0","3EWIJTFFVPTA5HW56M3XAHRFWH0E0N","A16ENVVHDK1LQQ","3S1L4CQSFXRWQOWP2XFUSMS4AZDFAL","","null","<img src=""img/land3.png"" style=""width:200px; border:14px solid green;"">","null","","","","","","","","","",""
"","image-keyboard-response","56","32180","0.0-56.0","3EWIJTFFVPTA5HW56M3XAHRFWH0E0N","A16ENVVHDK1LQQ","3S1L4CQSFXRWQOWP2XFUSMS4AZDFAL","","969","img/land6.png","75","971","2","1","2","1","1,0.5,0.5,0.5,1,0.5,0.5,0.5,1","1,0.5,0.5,0.5,1,0.5,0.5,0.5,1","1","",""
"","html-keyboard-response","57","32481","0.0-57.0","3EWIJTFFVPTA5HW56M3XAHRFWH0E0N","A16ENVVHDK1LQQ","3S1L4CQSFXRWQOWP2XFUSMS4AZDFAL","","null","<img src=""img/land6.png"" style=""width:200px; border:14px solid green;"">","null","","","","","","","","","",""
"","image-keyboard-response","58","33499","0.0-58.0","3EWIJTFFVPTA5HW56M3XAHRFWH0E0N","A16ENVVHDK1LQQ","3S1L4CQSFXRWQOWP2XFUSMS4AZDFAL","","1016","img/land3.png","74","1017","1","1","1","1","1,0.5,0.5,0.5,1,0.5,0.5,0.5,1","1,0.5,0.5,0.5,1,0.5,0.5,0.5,1","1","",""
"","html-keyboard-response","59","33800","0.0-59.0","3EWIJTFFVPTA5HW56M3XAHRFWH0E0N","A16ENVVHDK1LQQ","3S1L4CQSFXRWQOWP2XFUSMS4AZDFAL","","null","<img src=""img/land3.png"" style=""width:200px; border:14px solid green;"">","null","","","","","","","","","",""
"","image-keyboard-response","60","34861","0.0-60.0","3EWIJTFFVPTA5HW56M3XAHRFWH0E0N","A16ENVVHDK1LQQ","3S1L4CQSFXRWQOWP2XFUSMS4AZDFAL","","1058","img/land1.png","74","1060","1","0","3","1","1,0.5,0.5,0.5,1,0.5,0.5,0.5,1","1,0.5,0.5,0.5,1,0.5,0.5,0.5,1","1","",""
"","html-keyboard-response","61","35166","0.0-61.0","3EWIJTFFVPTA5HW56M3XAHRFWH0E0N","A16ENVVHDK1LQQ","3S1L4CQSFXRWQOWP2XFUSMS4AZDFAL","","null","<img src=""img/land1.png"" style=""width:200px;border:14px solid red;"">","null","","","","","","","","","",""
"","image-keyboard-response","62","35958","0.0-62.0","3EWIJTFFVPTA5HW56M3XAHRFWH0E0N","A16ENVVHDK1LQQ","3S1L4CQSFXRWQOWP2XFUSMS4AZDFAL","","786","img/land1.png","76","790","3","1","3","1","1,0.5,0.5,0.5,1,0.5,0.5,0.5,1","1,0.5,0.5,0.5,1,0.5,0.5,0.5,1","1","",""
"","html-keyboard-response","63","36259","0.0-63.0","3EWIJTFFVPTA5HW56M3XAHRFWH0E0N","A16ENVVHDK1LQQ","3S1L4CQSFXRWQOWP2XFUSMS4AZDFAL","","null","<img src=""img/land1.png"" style=""width:200px; border:14px solid green;"">","null","","","","","","","","","",""
"","image-keyboard-response","64","36420","0.0-64.0","3EWIJTFFVPTA5HW56M3XAHRFWH0E0N","A16ENVVHDK1LQQ","3S1L4CQSFXRWQOWP2XFUSMS4AZDFAL","","159","img/land3.png","74","161","1","1","1","1","1,0.5,0.5,0.5,1,0.5,0.5,0.5,1","1,0.5,0.5,0.5,1,0.5,0.5,0.5,1","1","",""
"","html-keyboard-response","65","36722","0.0-65.0","3EWIJTFFVPTA5HW56M3XAHRFWH0E0N","A16ENVVHDK1LQQ","3S1L4CQSFXRWQOWP2XFUSMS4AZDFAL","","null","<img src=""img/land3.png"" style=""width:200px; border:14px solid green;"">","null","","","","","","","","","",""
"","image-keyboard-response","66","36780","0.0-66.0","3EWIJTFFVPTA5HW56M3XAHRFWH0E0N","A16ENVVHDK1LQQ","3S1L4CQSFXRWQOWP2XFUSMS4AZDFAL","","56","img/land3.png","74","57","1","1","1","1","1,0.5,0.5,0.5,1,0.5,0.5,0.5,1","1,0.5,0.5,0.5,1,0.5,0.5,0.5,1","1","",""
"","html-keyboard-response","67","37178","0.0-67.0","3EWIJTFFVPTA5HW56M3XAHRFWH0E0N","A16ENVVHDK1LQQ","3S1L4CQSFXRWQOWP2XFUSMS4AZDFAL","","null","<img src=""img/land3.png"" style=""width:200px; border:14px solid green;"">","null","","","","","","","","","",""
"","image-keyboard-response","68","37320","0.0-68.0","3EWIJTFFVPTA5HW56M3XAHRFWH0E0N","A16ENVVHDK1LQQ","3S1L4CQSFXRWQOWP2XFUSMS4AZDFAL","","142","img/land6.png","75","142","2","1","2","1","1,0.5,0.5,0.5,1,0.5,0.5,0.5,1","1,0.5,0.5,0.5,1,0.5,0.5,0.5,1","1","",""
"","html-keyboard-response","69","37623","0.0-69.0","3EWIJTFFVPTA5HW56M3XAHRFWH0E0N","A16ENVVHDK1LQQ","3S1L4CQSFXRWQOWP2XFUSMS4AZDFAL","","null","<img src=""img/land6.png"" style=""width:200px; border:14px solid green;"">","null","","","","","","","","","",""
"","image-keyboard-response","70","37680","0.0-70.0","3EWIJTFFVPTA5HW56M3XAHRFWH0E0N","A16ENVVHDK1LQQ","3S1L4CQSFXRWQOWP2XFUSMS4AZDFAL","","52","img/land1.png","76","56","3","1","3","1","1,0.5,0.5,0.5,1,0.5,0.5,0.5,1","1,0.5,0.5,0.5,1,0.5,0.5,0.5,1","1","",""
"","html-keyboard-response","71","37982","0.0-71.0","3EWIJTFFVPTA5HW56M3XAHRFWH0E0N","A16ENVVHDK1LQQ","3S1L4CQSFXRWQOWP2XFUSMS4AZDFAL","","null","<img src=""img/land1.png"" style=""width:200px; border:14px solid green;"">","null","","","","","","","","","",""
"","image-keyboard-response","72","38068","0.0-72.0","3EWIJTFFVPTA5HW56M3XAHRFWH0E0N","A16ENVVHDK1LQQ","3S1L4CQSFXRWQOWP2XFUSMS4AZDFAL","","84","img/land6.png","74","85","1","1","2","1","1,0.5,0.5,0.5,1,0.5,0.5,0.5,1","1,0.5,0.5,0.5,1,0.5,0.5,0.5,1","1","",""
"","html-keyboard-response","73","38370","0.0-73.0","3EWIJTFFVPTA5HW56M3XAHRFWH0E0N","A16ENVVHDK1LQQ","3S1L4CQSFXRWQOWP2XFUSMS4AZDFAL","","null","<img src=""img/land6.png"" style=""width:200px; border:14px solid green;"">","null","","","","","","","","","",""
"","image-keyboard-response","74","38381","0.0-74.0","3EWIJTFFVPTA5HW56M3XAHRFWH0E0N","A16ENVVHDK1LQQ","3S1L4CQSFXRWQOWP2XFUSMS4AZDFAL","","7","img/land3.png","75","10","2","0","1","1","1,0.5,0.5,0.5,1,0.5,0.5,0.5,1","1,0.5,0.5,0.5,1,0.5,0.5,0.5,1","1","",""
"","html-keyboard-response","75","38683","0.0-75.0","3EWIJTFFVPTA5HW56M3XAHRFWH0E0N","A16ENVVHDK1LQQ","3S1L4CQSFXRWQOWP2XFUSMS4AZDFAL","","null","<img src=""img/land3.png"" style=""width:200px;border:14px solid red;"">","null","","","","","","","","","",""
"","image-keyboard-response","76","38733","0.0-76.0","3EWIJTFFVPTA5HW56M3XAHRFWH0E0N","A16ENVVHDK1LQQ","3S1L4CQSFXRWQOWP2XFUSMS4AZDFAL","","48","img/land6.png","76","49","3","0","2","1","1,0.5,0.5,0.5,1,0.5,0.5,0.5,1","1,0.5,0.5,0.5,1,0.5,0.5,0.5,1","1","",""
"","html-keyboard-response","77","39035","0.0-77.0","3EWIJTFFVPTA5HW56M3XAHRFWH0E0N","A16ENVVHDK1LQQ","3S1L4CQSFXRWQOWP2XFUSMS4AZDFAL","","null","<img src=""img/land6.png"" style=""width:200px;border:14px solid red;"">","null","","","","","","","","","",""
"","image-keyboard-response","78","39080","0.0-78.0","3EWIJTFFVPTA5HW56M3XAHRFWH0E0N","A16ENVVHDK1LQQ","3S1L4CQSFXRWQOWP2XFUSMS4AZDFAL","","43","img/land3.png","75","44","2","0","1","1","1,0.5,0.5,0.5,1,0.5,0.5,0.5,1","1,0.5,0.5,0.5,1,0.5,0.5,0.5,1","1","",""
"","html-keyboard-response","79","39382","0.0-79.0","3EWIJTFFVPTA5HW56M3XAHRFWH0E0N","A16ENVVHDK1LQQ","3S1L4CQSFXRWQOWP2XFUSMS4AZDFAL","","null","<img src=""img/land3.png"" style=""width:200px;border:14px solid red;"">","null","","","","","","","","","",""
"","image-keyboard-response","80","39409","0.0-80.0","3EWIJTFFVPTA5HW56M3XAHRFWH0E0N","A16ENVVHDK1LQQ","3S1L4CQSFXRWQOWP2XFUSMS4AZDFAL","","25","img/land3.png","75","26","2","1","1","1","1,0.5,0.5,0.5,1,0.5,0.5,0.5,1","1,0.5,0.5,0.5,1,0.5,0.5,0.5,1","1","",""
"","html-keyboard-response","81","39711","0.0-81.0","3EWIJTFFVPTA5HW56M3XAHRFWH0E0N","A16ENVVHDK1LQQ","3S1L4CQSFXRWQOWP2XFUSMS4AZDFAL","","null","<img src=""img/land3.png"" style=""width:200px; border:14px solid green;"">","null","","","","","","","","","",""
"","image-keyboard-response","82","39734","0.0-82.0","3EWIJTFFVPTA5HW56M3XAHRFWH0E0N","A16ENVVHDK1LQQ","3S1L4CQSFXRWQOWP2XFUSMS4AZDFAL","","21","img/land3.png","76","22","3","0","1","1","1,0.5,0.5,0.5,1,0.5,0.5,0.5,1","1,0.5,0.5,0.5,1,0.5,0.5,0.5,1","1","",""
"","html-keyboard-response","83","40038","0.0-83.0","3EWIJTFFVPTA5HW56M3XAHRFWH0E0N","A16ENVVHDK1LQQ","3S1L4CQSFXRWQOWP2XFUSMS4AZDFAL","","null","<img src=""img/land3.png"" style=""width:200px;border:14px solid red;"">","null","","","","","","","","","",""
"","image-keyboard-response","84","40042","0.0-84.0","3EWIJTFFVPTA5HW56M3XAHRFWH0E0N","A16ENVVHDK1LQQ","3S1L4CQSFXRWQOWP2XFUSMS4AZDFAL","","1","img/land6.png","75","2","2","1","2","1","1,0.5,0.5,0.5,1,0.5,0.5,0.5,1","1,0.5,0.5,0.5,1,0.5,0.5,0.5,1","1","",""
"","html-keyboard-response","85","40423","0.0-85.0","3EWIJTFFVPTA5HW56M3XAHRFWH0E0N","A16ENVVHDK1LQQ","3S1L4CQSFXRWQOWP2XFUSMS4AZDFAL","","null","<img src=""img/land6.png"" style=""width:200px; border:14px solid green;"">","null","","","","","","","","","",""
"","image-keyboard-response","86","40434","0.0-86.0","3EWIJTFFVPTA5HW56M3XAHRFWH0E0N","A16ENVVHDK1LQQ","3S1L4CQSFXRWQOWP2XFUSMS4AZDFAL","","11","img/land6.png","74","11","1","0","2","1","1,0.5,0.5,0.5,1,0.5,0.5,0.5,1","1,0.5,0.5,0.5,1,0.5,0.5,0.5,1","1","",""
"","html-keyboard-response","87","40735","0.0-87.0","3EWIJTFFVPTA5HW56M3XAHRFWH0E0N","A16ENVVHDK1LQQ","3S1L4CQSFXRWQOWP2XFUSMS4AZDFAL","","null","<img src=""img/land6.png"" style=""width:200px;border:14px solid red;"">","null","","","","","","","","","",""
"","image-keyboard-response","88","40765","0.0-88.0","3EWIJTFFVPTA5HW56M3XAHRFWH0E0N","A16ENVVHDK1LQQ","3S1L4CQSFXRWQOWP2XFUSMS4AZDFAL","","27","img/land3.png","75","29","2","0","1","1","1,0.5,0.5,0.5,1,0.5,0.5,0.5,1","1,0.5,0.5,0.5,1,0.5,0.5,0.5,1","1","",""
"","html-keyboard-response","89","41066","0.0-89.0","3EWIJTFFVPTA5HW56M3XAHRFWH0E0N","A16ENVVHDK1LQQ","3S1L4CQSFXRWQOWP2XFUSMS4AZDFAL","","null","<img src=""img/land3.png"" style=""width:200px;border:14px solid red;"">","null","","","","","","","","","",""
"","image-keyboard-response","90","41118","0.0-90.0","3EWIJTFFVPTA5HW56M3XAHRFWH0E0N","A16ENVVHDK1LQQ","3S1L4CQSFXRWQOWP2XFUSMS4AZDFAL","","50","img/land1.png","75","51","2","0","3","1","1,0.5,0.5,0.5,1,0.5,0.5,0.5,1","1,0.5,0.5,0.5,1,0.5,0.5,0.5,1","1","",""
"","html-keyboard-response","91","41419","0.0-91.0","3EWIJTFFVPTA5HW56M3XAHRFWH0E0N","A16ENVVHDK1LQQ","3S1L4CQSFXRWQOWP2XFUSMS4AZDFAL","","null","<img src=""img/land1.png"" style=""width:200px;border:14px solid red;"">","null","","","","","","","","","",""
"","image-keyboard-response","92","41434","0.0-92.0","3EWIJTFFVPTA5HW56M3XAHRFWH0E0N","A16ENVVHDK1LQQ","3S1L4CQSFXRWQOWP2XFUSMS4AZDFAL","","13","img/land1.png","74","14","1","0","3","1","1,0.5,0.5,0.5,1,0.5,0.5,0.5,1","1,0.5,0.5,0.5,1,0.5,0.5,0.5,1","1","",""
"","html-keyboard-response","93","41736","0.0-93.0","3EWIJTFFVPTA5HW56M3XAHRFWH0E0N","A16ENVVHDK1LQQ","3S1L4CQSFXRWQOWP2XFUSMS4AZDFAL","","null","<img src=""img/land1.png"" style=""width:200px;border:14px solid red;"">","null","","","","","","","","","",""
"","image-keyboard-response","94","42159","0.0-94.0","3EWIJTFFVPTA5HW56M3XAHRFWH0E0N","A16ENVVHDK1LQQ","3S1L4CQSFXRWQOWP2XFUSMS4AZDFAL","","421","img/land1.png","75","422","2","0","3","1","1,0.5,0.5,0.5,1,0.5,0.5,0.5,1","1,0.5,0.5,0.5,1,0.5,0.5,0.5,1","1","",""
"","html-keyboard-response","95","42460","0.0-95.0","3EWIJTFFVPTA5HW56M3XAHRFWH0E0N","A16ENVVHDK1LQQ","3S1L4CQSFXRWQOWP2XFUSMS4AZDFAL","","null","<img src=""img/land1.png"" style=""width:200px;border:14px solid red;"">","null","","","","","","","","","",""
"","image-keyboard-response","96","42529","0.0-96.0","3EWIJTFFVPTA5HW56M3XAHRFWH0E0N","A16ENVVHDK1LQQ","3S1L4CQSFXRWQOWP2XFUSMS4AZDFAL","","68","img/land3.png","75","70","2","0","1","1","1,0.5,0.5,0.5,1,0.5,0.5,0.5,1","1,0.5,0.5,0.5,1,0.5,0.5,0.5,1","1","",""
"","html-keyboard-response","97","42832","0.0-97.0","3EWIJTFFVPTA5HW56M3XAHRFWH0E0N","A16ENVVHDK1LQQ","3S1L4CQSFXRWQOWP2XFUSMS4AZDFAL","","null","<img src=""img/land3.png"" style=""width:200px;border:14px solid red;"">","null","","","","","","","","","",""
"","image-keyboard-response","98","43039","0.0-98.0","3EWIJTFFVPTA5HW56M3XAHRFWH0E0N","A16ENVVHDK1LQQ","3S1L4CQSFXRWQOWP2XFUSMS4AZDFAL","","205","img/land6.png","75","206","2","1","2","1","1,0.5,0.5,0.5,1,0.5,0.5,0.5,1","1,0.5,0.5,0.5,1,0.5,0.5,0.5,1","1","",""
"","html-keyboard-response","99","43341","0.0-99.0","3EWIJTFFVPTA5HW56M3XAHRFWH0E0N","A16ENVVHDK1LQQ","3S1L4CQSFXRWQOWP2XFUSMS4AZDFAL","","null","<img src=""img/land6.png"" style=""width:200px; border:14px solid green;"">","null","","","","","","","","","",""
"","image-keyboard-response","100","43445","0.0-100.0","3EWIJTFFVPTA5HW56M3XAHRFWH0E0N","A16ENVVHDK1LQQ","3S1L4CQSFXRWQOWP2XFUSMS4AZDFAL","","102","img/land6.png","74","104","1","0","2","1","1,0.5,0.5,0.5,1,0.5,0.5,0.5,1","1,0.5,0.5,0.5,1,0.5,0.5,0.5,1","1","",""
"","html-keyboard-response","101","43747","0.0-101.0","3EWIJTFFVPTA5HW56M3XAHRFWH0E0N","A16ENVVHDK1LQQ","3S1L4CQSFXRWQOWP2XFUSMS4AZDFAL","","null","<img src=""img/land6.png"" style=""width:200px;border:14px solid red;"">","null","","","","","","","","","",""
"","image-keyboard-response","102","44869","0.0-102.0","3EWIJTFFVPTA5HW56M3XAHRFWH0E0N","A16ENVVHDK1LQQ","3S1L4CQSFXRWQOWP2XFUSMS4AZDFAL","","1120","img/land1.png","75","1121","2","1","3","1","1,0.5,0.5,0.5,1,0.5,0.5,0.5,1","1,0.5,0.5,0.5,1,0.5,0.5,0.5,1","1","",""
"","html-keyboard-response","103","45170","0.0-103.0","3EWIJTFFVPTA5HW56M3XAHRFWH0E0N","A16ENVVHDK1LQQ","3S1L4CQSFXRWQOWP2XFUSMS4AZDFAL","","null","<img src=""img/land1.png"" style=""width:200px; border:14px solid green;"">","null","","","","","","","","","",""
"","image-keyboard-response","104","45275","0.0-104.0","3EWIJTFFVPTA5HW56M3XAHRFWH0E0N","A16ENVVHDK1LQQ","3S1L4CQSFXRWQOWP2XFUSMS4AZDFAL","","103","img/land1.png","75","104","2","1","3","1","1,0.5,0.5,0.5,1,0.5,0.5,0.5,1","1,0.5,0.5,0.5,1,0.5,0.5,0.5,1","1","",""
"","html-keyboard-response","105","45577","0.0-105.0","3EWIJTFFVPTA5HW56M3XAHRFWH0E0N","A16ENVVHDK1LQQ","3S1L4CQSFXRWQOWP2XFUSMS4AZDFAL","","null","<img src=""img/land1.png"" style=""width:200px; border:14px solid green;"">","null","","","","","","","","","",""
"","image-keyboard-response","106","45628","0.0-106.0","3EWIJTFFVPTA5HW56M3XAHRFWH0E0N","A16ENVVHDK1LQQ","3S1L4CQSFXRWQOWP2XFUSMS4AZDFAL","","49","img/land1.png","74","50","1","0","3","1","1,0.5,0.5,0.5,1,0.5,0.5,0.5,1","1,0.5,0.5,0.5,1,0.5,0.5,0.5,1","1","",""
"","html-keyboard-response","107","45930","0.0-107.0","3EWIJTFFVPTA5HW56M3XAHRFWH0E0N","A16ENVVHDK1LQQ","3S1L4CQSFXRWQOWP2XFUSMS4AZDFAL","","null","<img src=""img/land1.png"" style=""width:200px;border:14px solid red;"">","null","","","","","","","","","",""
"","image-keyboard-response","108","45984","0.0-108.0","3EWIJTFFVPTA5HW56M3XAHRFWH0E0N","A16ENVVHDK1LQQ","3S1L4CQSFXRWQOWP2XFUSMS4AZDFAL","","52","img/land6.png","74","53","1","0","2","1","1,0.5,0.5,0.5,1,0.5,0.5,0.5,1","1,0.5,0.5,0.5,1,0.5,0.5,0.5,1","1","",""
"","html-keyboard-response","109","46285","0.0-109.0","3EWIJTFFVPTA5HW56M3XAHRFWH0E0N","A16ENVVHDK1LQQ","3S1L4CQSFXRWQOWP2XFUSMS4AZDFAL","","null","<img src=""img/land6.png"" style=""width:200px;border:14px solid red;"">","null","","","","","","","","","",""
"","image-keyboard-response","110","46387","0.0-110.0","3EWIJTFFVPTA5HW56M3XAHRFWH0E0N","A16ENVVHDK1LQQ","3S1L4CQSFXRWQOWP2XFUSMS4AZDFAL","","100","img/land6.png","75","102","2","1","2","1","1,0.5,0.5,0.5,1,0.5,0.5,0.5,1","1,0.5,0.5,0.5,1,0.5,0.5,0.5,1","1","",""
"","html-keyboard-response","111","46688","0.0-111.0","3EWIJTFFVPTA5HW56M3XAHRFWH0E0N","A16ENVVHDK1LQQ","3S1L4CQSFXRWQOWP2XFUSMS4AZDFAL","","null","<img src=""img/land6.png"" style=""width:200px; border:14px solid green;"">","null","","","","","","","","","",""
"","image-keyboard-response","112","46855","0.0-112.0","3EWIJTFFVPTA5HW56M3XAHRFWH0E0N","A16ENVVHDK1LQQ","3S1L4CQSFXRWQOWP2XFUSMS4AZDFAL","","159","img/land1.png","76","163","3","1","3","1","1,0.5,0.5,0.5,1,0.5,0.5,0.5,1","1,0.5,0.5,0.5,1,0.5,0.5,0.5,1","1","",""
"","html-keyboard-response","113","47159","0.0-113.0","3EWIJTFFVPTA5HW56M3XAHRFWH0E0N","A16ENVVHDK1LQQ","3S1L4CQSFXRWQOWP2XFUSMS4AZDFAL","","null","<img src=""img/land1.png"" style=""width:200px; border:14px solid green;"">","null","","","","","","","","","",""
"","image-keyboard-response","114","47175","0.0-114.0","3EWIJTFFVPTA5HW56M3XAHRFWH0E0N","A16ENVVHDK1LQQ","3S1L4CQSFXRWQOWP2XFUSMS4AZDFAL","","13","img/land3.png","75","15","2","0","1","1","1,0.5,0.5,0.5,1,0.5,0.5,0.5,1","1,0.5,0.5,0.5,1,0.5,0.5,0.5,1","1","",""
"","html-keyboard-response","115","47478","0.0-115.0","3EWIJTFFVPTA5HW56M3XAHRFWH0E0N","A16ENVVHDK1LQQ","3S1L4CQSFXRWQOWP2XFUSMS4AZDFAL","","null","<img src=""img/land3.png"" style=""width:200px;border:14px solid red;"">","null","","","","","","","","","",""
"","image-keyboard-response","116","47609","0.0-116.0","3EWIJTFFVPTA5HW56M3XAHRFWH0E0N","A16ENVVHDK1LQQ","3S1L4CQSFXRWQOWP2XFUSMS4AZDFAL","","128","img/land3.png","75","130","2","1","1","1","1,0.5,0.5,0.5,1,0.5,0.5,0.5,1","1,0.5,0.5,0.5,1,0.5,0.5,0.5,1","1","",""
"","html-keyboard-response","117","47911","0.0-117.0","3EWIJTFFVPTA5HW56M3XAHRFWH0E0N","A16ENVVHDK1LQQ","3S1L4CQSFXRWQOWP2XFUSMS4AZDFAL","","null","<img src=""img/land3.png"" style=""width:200px; border:14px solid green;"">","null","","","","","","","","","",""
"","image-keyboard-response","118","48337","0.0-118.0","3EWIJTFFVPTA5HW56M3XAHRFWH0E0N","A16ENVVHDK1LQQ","3S1L4CQSFXRWQOWP2XFUSMS4AZDFAL","","424","img/land6.png","75","426","2","1","2","1","1,0.5,0.5,0.5,1,0.5,0.5,0.5,1","1,0.5,0.5,0.5,1,0.5,0.5,0.5,1","1","",""
"","html-keyboard-response","119","48638","0.0-119.0","3EWIJTFFVPTA5HW56M3XAHRFWH0E0N","A16ENVVHDK1LQQ","3S1L4CQSFXRWQOWP2XFUSMS4AZDFAL","","null","<img src=""img/land6.png"" style=""width:200px; border:14px solid green;"">","null","","","","","","","","","",""
"","image-keyboard-response","120","48780","0.0-120.0","3EWIJTFFVPTA5HW56M3XAHRFWH0E0N","A16ENVVHDK1LQQ","3S1L4CQSFXRWQOWP2XFUSMS4AZDFAL","","140","img/land6.png","75","141","2","1","2","1","1,0.5,0.5,0.5,1,0.5,0.5,0.5,1","1,0.5,0.5,0.5,1,0.5,0.5,0.5,1","1","",""
"","html-keyboard-response","121","49083","0.0-121.0","3EWIJTFFVPTA5HW56M3XAHRFWH0E0N","A16ENVVHDK1LQQ","3S1L4CQSFXRWQOWP2XFUSMS4AZDFAL","","null","<img src=""img/land6.png"" style=""width:200px; border:14px solid green;"">","null","","","","","","","","","",""
"","image-keyboard-response","122","49444","0.0-122.0","3EWIJTFFVPTA5HW56M3XAHRFWH0E0N","A16ENVVHDK1LQQ","3S1L4CQSFXRWQOWP2XFUSMS4AZDFAL","","359","img/land3.png","74","360","1","1","1","1","1,0.5,0.5,0.5,1,0.5,0.5,0.5,1","1,0.5,0.5,0.5,1,0.5,0.5,0.5,1","1","",""
"","html-keyboard-response","123","49747","0.0-123.0","3EWIJTFFVPTA5HW56M3XAHRFWH0E0N","A16ENVVHDK1LQQ","3S1L4CQSFXRWQOWP2XFUSMS4AZDFAL","","null","<img src=""img/land3.png"" style=""width:200px; border:14px solid green;"">","null","","","","","","","","","",""
"","image-keyboard-response","124","49791","0.0-124.0","3EWIJTFFVPTA5HW56M3XAHRFWH0E0N","A16ENVVHDK1LQQ","3S1L4CQSFXRWQOWP2XFUSMS4AZDFAL","","41","img/land1.png","75","43","2","1","3","1","1,0.5,0.5,0.5,1,0.5,0.5,0.5,1","1,0.5,0.5,0.5,1,0.5,0.5,0.5,1","1","",""
"","html-keyboard-response","125","50093","0.0-125.0","3EWIJTFFVPTA5HW56M3XAHRFWH0E0N","A16ENVVHDK1LQQ","3S1L4CQSFXRWQOWP2XFUSMS4AZDFAL","","null","<img src=""img/land1.png"" style=""width:200px; border:14px solid green;"">","null","","","","","","","","","",""
"","image-keyboard-response","126","50128","0.0-126.0","3EWIJTFFVPTA5HW56M3XAHRFWH0E0N","A16ENVVHDK1LQQ","3S1L4CQSFXRWQOWP2XFUSMS4AZDFAL","","31","img/land3.png","75","33","2","0","1","1","1,0.5,0.5,0.5,1,0.5,0.5,0.5,1","1,0.5,0.5,0.5,1,0.5,0.5,0.5,1","1","",""
"","html-keyboard-response","127","50431","0.0-127.0","3EWIJTFFVPTA5HW56M3XAHRFWH0E0N","A16ENVVHDK1LQQ","3S1L4CQSFXRWQOWP2XFUSMS4AZDFAL","","null","<img src=""img/land3.png"" style=""width:200px;border:14px solid red;"">","null","","","","","","","","","",""
"","image-keyboard-response","128","50582","0.0-128.0","3EWIJTFFVPTA5HW56M3XAHRFWH0E0N","A16ENVVHDK1LQQ","3S1L4CQSFXRWQOWP2XFUSMS4AZDFAL","","147","img/land1.png","75","150","2","0","3","1","1,0.5,0.5,0.5,1,0.5,0.5,0.5,1","1,0.5,0.5,0.5,1,0.5,0.5,0.5,1","1","",""
"","html-keyboard-response","129","50883","0.0-129.0","3EWIJTFFVPTA5HW56M3XAHRFWH0E0N","A16ENVVHDK1LQQ","3S1L4CQSFXRWQOWP2XFUSMS4AZDFAL","","null","<img src=""img/land1.png"" style=""width:200px;border:14px solid red;"">","null","","","","","","","","","",""
"","image-keyboard-response","130","50904","0.0-130.0","3EWIJTFFVPTA5HW56M3XAHRFWH0E0N","A16ENVVHDK1LQQ","3S1L4CQSFXRWQOWP2XFUSMS4AZDFAL","","17","img/land3.png","75","19","2","1","1","1","1,0.5,0.5,0.5,1,0.5,0.5,0.5,1","1,0.5,0.5,0.5,1,0.5,0.5,0.5,1","1","",""
"","html-keyboard-response","131","51207","0.0-131.0","3EWIJTFFVPTA5HW56M3XAHRFWH0E0N","A16ENVVHDK1LQQ","3S1L4CQSFXRWQOWP2XFUSMS4AZDFAL","","null","<img src=""img/land3.png"" style=""width:200px; border:14px solid green;"">","null","","","","","","","","","",""
"","image-keyboard-response","132","51310","0.0-132.0","3EWIJTFFVPTA5HW56M3XAHRFWH0E0N","A16ENVVHDK1LQQ","3S1L4CQSFXRWQOWP2XFUSMS4AZDFAL","","102","img/land1.png","75","103","2","0","3","1","1,0.5,0.5,0.5,1,0.5,0.5,0.5,1","1,0.5,0.5,0.5,1,0.5,0.5,0.5,1","1","",""
"","html-keyboard-response","133","51613","0.0-133.0","3EWIJTFFVPTA5HW56M3XAHRFWH0E0N","A16ENVVHDK1LQQ","3S1L4CQSFXRWQOWP2XFUSMS4AZDFAL","","null","<img src=""img/land1.png"" style=""width:200px;border:14px solid red;"">","null","","","","","","","","","",""
"","image-keyboard-response","134","51689","0.0-134.0","3EWIJTFFVPTA5HW56M3XAHRFWH0E0N","A16ENVVHDK1LQQ","3S1L4CQSFXRWQOWP2XFUSMS4AZDFAL","","73","img/land1.png","76","74","3","1","3","1","1,0.5,0.5,0.5,1,0.5,0.5,0.5,1","1,0.5,0.5,0.5,1,0.5,0.5,0.5,1","1","",""
"","html-keyboard-response","135","51990","0.0-135.0","3EWIJTFFVPTA5HW56M3XAHRFWH0E0N","A16ENVVHDK1LQQ","3S1L4CQSFXRWQOWP2XFUSMS4AZDFAL","","null","<img src=""img/land1.png"" style=""width:200px; border:14px solid green;"">","null","","","","","","","","","",""
"","image-keyboard-response","136","52024","0.0-136.0","3EWIJTFFVPTA5HW56M3XAHRFWH0E0N","A16ENVVHDK1LQQ","3S1L4CQSFXRWQOWP2XFUSMS4AZDFAL","","33","img/land6.png","75","33","2","1","2","1","1,0.5,0.5,0.5,1,0.5,0.5,0.5,1","1,0.5,0.5,0.5,1,0.5,0.5,0.5,1","1","",""
"","html-keyboard-response","137","52327","0.0-137.0","3EWIJTFFVPTA5HW56M3XAHRFWH0E0N","A16ENVVHDK1LQQ","3S1L4CQSFXRWQOWP2XFUSMS4AZDFAL","","null","<img src=""img/land6.png"" style=""width:200px; border:14px solid green;"">","null","","","","","","","","","",""
"","image-keyboard-response","138","52396","0.0-138.0","3EWIJTFFVPTA5HW56M3XAHRFWH0E0N","A16ENVVHDK1LQQ","3S1L4CQSFXRWQOWP2XFUSMS4AZDFAL","","65","img/land6.png","75","67","2","1","2","1","1,0.5,0.5,0.5,1,0.5,0.5,0.5,1","1,0.5,0.5,0.5,1,0.5,0.5,0.5,1","1","",""
"","html-keyboard-response","139","52699","0.0-139.0","3EWIJTFFVPTA5HW56M3XAHRFWH0E0N","A16ENVVHDK1LQQ","3S1L4CQSFXRWQOWP2XFUSMS4AZDFAL","","null","<img src=""img/land6.png"" style=""width:200px; border:14px solid green;"">","null","","","","","","","","","",""
"","image-keyboard-response","140","52920","0.0-140.0","3EWIJTFFVPTA5HW56M3XAHRFWH0E0N","A16ENVVHDK1LQQ","3S1L4CQSFXRWQOWP2XFUSMS4AZDFAL","","219","img/land6.png","75","221","2","1","2","1","1,0.5,0.5,0.5,1,0.5,0.5,0.5,1","1,0.5,0.5,0.5,1,0.5,0.5,0.5,1","1","",""
"","html-keyboard-response","141","53251","0.0-141.0","3EWIJTFFVPTA5HW56M3XAHRFWH0E0N","A16ENVVHDK1LQQ","3S1L4CQSFXRWQOWP2XFUSMS4AZDFAL","","null","<img src=""img/land6.png"" style=""width:200px; border:14px solid green;"">","null","","","","","","","","","",""
"","image-keyboard-response","142","53305","0.0-142.0","3EWIJTFFVPTA5HW56M3XAHRFWH0E0N","A16ENVVHDK1LQQ","3S1L4CQSFXRWQOWP2XFUSMS4AZDFAL","","52","img/land1.png","76","54","3","1","3","1","1,0.5,0.5,0.5,1,0.5,0.5,0.5,1","1,0.5,0.5,0.5,1,0.5,0.5,0.5,1","1","",""
"","html-keyboard-response","143","53605","0.0-143.0","3EWIJTFFVPTA5HW56M3XAHRFWH0E0N","A16ENVVHDK1LQQ","3S1L4CQSFXRWQOWP2XFUSMS4AZDFAL","","null","<img src=""img/land1.png"" style=""width:200px; border:14px solid green;"">","null","","","","","","","","","",""
"","image-keyboard-response","144","53642","0.0-144.0","3EWIJTFFVPTA5HW56M3XAHRFWH0E0N","A16ENVVHDK1LQQ","3S1L4CQSFXRWQOWP2XFUSMS4AZDFAL","","35","img/land3.png","76","37","3","0","1","1","1,0.5,0.5,0.5,1,0.5,0.5,0.5,1","1,0.5,0.5,0.5,1,0.5,0.5,0.5,1","1","",""
"","html-keyboard-response","145","53944","0.0-145.0","3EWIJTFFVPTA5HW56M3XAHRFWH0E0N","A16ENVVHDK1LQQ","3S1L4CQSFXRWQOWP2XFUSMS4AZDFAL","","null","<img src=""img/land3.png"" style=""width:200px;border:14px solid red;"">","null","","","","","","","","","",""
"","image-keyboard-response","146","53983","0.0-146.0","3EWIJTFFVPTA5HW56M3XAHRFWH0E0N","A16ENVVHDK1LQQ","3S1L4CQSFXRWQOWP2XFUSMS4AZDFAL","","36","img/land3.png","76","38","3","1","1","1","1,0.5,0.5,0.5,1,0.5,0.5,0.5,1","1,0.5,0.5,0.5,1,0.5,0.5,0.5,1","1","",""
"","html-keyboard-response","147","54283","0.0-147.0","3EWIJTFFVPTA5HW56M3XAHRFWH0E0N","A16ENVVHDK1LQQ","3S1L4CQSFXRWQOWP2XFUSMS4AZDFAL","","null","<img src=""img/land3.png"" style=""width:200px; border:14px solid green;"">","null","","","","","","","","","",""
"","image-keyboard-response","148","54380","0.0-148.0","3EWIJTFFVPTA5HW56M3XAHRFWH0E0N","A16ENVVHDK1LQQ","3S1L4CQSFXRWQOWP2XFUSMS4AZDFAL","","94","img/land1.png","75","96","2","1","3","1","1,0.5,0.5,0.5,1,0.5,0.5,0.5,1","1,0.5,0.5,0.5,1,0.5,0.5,0.5,1","1","",""
"","html-keyboard-response","149","54681","0.0-149.0","3EWIJTFFVPTA5HW56M3XAHRFWH0E0N","A16ENVVHDK1LQQ","3S1L4CQSFXRWQOWP2XFUSMS4AZDFAL","","null","<img src=""img/land1.png"" style=""width:200px; border:14px solid green;"">","null","","","","","","","","","",""
"","image-keyboard-response","150","54774","0.0-150.0","3EWIJTFFVPTA5HW56M3XAHRFWH0E0N","A16ENVVHDK1LQQ","3S1L4CQSFXRWQOWP2XFUSMS4AZDFAL","","91","img/land1.png","75","92","2","0","3","1","1,0.5,0.5,0.5,1,0.5,0.5,0.5,1","1,0.5,0.5,0.5,1,0.5,0.5,0.5,1","1","",""
"","html-keyboard-response","151","55075","0.0-151.0","3EWIJTFFVPTA5HW56M3XAHRFWH0E0N","A16ENVVHDK1LQQ","3S1L4CQSFXRWQOWP2XFUSMS4AZDFAL","","null","<img src=""img/land1.png"" style=""width:200px;border:14px solid red;"">","null","","","","","","","","","",""
"","image-keyboard-response","152","55140","0.0-152.0","3EWIJTFFVPTA5HW56M3XAHRFWH0E0N","A16ENVVHDK1LQQ","3S1L4CQSFXRWQOWP2XFUSMS4AZDFAL","","62","img/land6.png","75","64","2","1","2","1","1,0.5,0.5,0.5,1,0.5,0.5,0.5,1","1,0.5,0.5,0.5,1,0.5,0.5,0.5,1","1","",""
"","html-keyboard-response","153","55441","0.0-153.0","3EWIJTFFVPTA5HW56M3XAHRFWH0E0N","A16ENVVHDK1LQQ","3S1L4CQSFXRWQOWP2XFUSMS4AZDFAL","","null","<img src=""img/land6.png"" style=""width:200px; border:14px solid green;"">","null","","","","","","","","","",""
"","image-keyboard-response","154","55518","0.0-154.0","3EWIJTFFVPTA5HW56M3XAHRFWH0E0N","A16ENVVHDK1LQQ","3S1L4CQSFXRWQOWP2XFUSMS4AZDFAL","","74","img/land6.png","75","76","2","1","2","1","1,0.5,0.5,0.5,1,0.5,0.5,0.5,1","1,0.5,0.5,0.5,1,0.5,0.5,0.5,1","1","",""
"","html-keyboard-response","155","55863","0.0-155.0","3EWIJTFFVPTA5HW56M3XAHRFWH0E0N","A16ENVVHDK1LQQ","3S1L4CQSFXRWQOWP2XFUSMS4AZDFAL","","null","<img src=""img/land6.png"" style=""width:200px; border:14px solid green;"">","null","","","","","","","","","",""
"","image-keyboard-response","156","55884","0.0-156.0","3EWIJTFFVPTA5HW56M3XAHRFWH0E0N","A16ENVVHDK1LQQ","3S1L4CQSFXRWQOWP2XFUSMS4AZDFAL","","21","img/land6.png","75","21","2","1","2","1","1,0.5,0.5,0.5,1,0.5,0.5,0.5,1","1,0.5,0.5,0.5,1,0.5,0.5,0.5,1","1","",""
"","html-keyboard-response","157","56185","0.0-157.0","3EWIJTFFVPTA5HW56M3XAHRFWH0E0N","A16ENVVHDK1LQQ","3S1L4CQSFXRWQOWP2XFUSMS4AZDFAL","","null","<img src=""img/land6.png"" style=""width:200px; border:14px solid green;"">","null","","","","","","","","","",""
"","image-keyboard-response","158","56268","0.0-158.0","3EWIJTFFVPTA5HW56M3XAHRFWH0E0N","A16ENVVHDK1LQQ","3S1L4CQSFXRWQOWP2XFUSMS4AZDFAL","","82","img/land1.png","74","84","1","1","3","1","1,0.5,0.5,0.5,1,0.5,0.5,0.5,1","1,0.5,0.5,0.5,1,0.5,0.5,0.5,1","1","",""
"","html-keyboard-response","159","56570","0.0-159.0","3EWIJTFFVPTA5HW56M3XAHRFWH0E0N","A16ENVVHDK1LQQ","3S1L4CQSFXRWQOWP2XFUSMS4AZDFAL","","null","<img src=""img/land1.png"" style=""width:200px; border:14px solid green;"">","null","","","","","","","","","",""
"","image-keyboard-response","160","56668","0.0-160.0","3EWIJTFFVPTA5HW56M3XAHRFWH0E0N","A16ENVVHDK1LQQ","3S1L4CQSFXRWQOWP2XFUSMS4AZDFAL","","97","img/land6.png","74","97","1","0","2","1","1,0.5,0.5,0.5,1,0.5,0.5,0.5,1","1,0.5,0.5,0.5,1,0.5,0.5,0.5,1","1","",""
"","html-keyboard-response","161","56970","0.0-161.0","3EWIJTFFVPTA5HW56M3XAHRFWH0E0N","A16ENVVHDK1LQQ","3S1L4CQSFXRWQOWP2XFUSMS4AZDFAL","","null","<img src=""img/land6.png"" style=""width:200px;border:14px solid red;"">","null","","","","","","","","","",""
"","image-keyboard-response","162","56999","0.0-162.0","3EWIJTFFVPTA5HW56M3XAHRFWH0E0N","A16ENVVHDK1LQQ","3S1L4CQSFXRWQOWP2XFUSMS4AZDFAL","","29","img/land6.png","75","29","2","1","2","1","1,0.5,0.5,0.5,1,0.5,0.5,0.5,1","1,0.5,0.5,0.5,1,0.5,0.5,0.5,1","1","",""
"","html-keyboard-response","163","57301","0.0-163.0","3EWIJTFFVPTA5HW56M3XAHRFWH0E0N","A16ENVVHDK1LQQ","3S1L4CQSFXRWQOWP2XFUSMS4AZDFAL","","null","<img src=""img/land6.png"" style=""width:200px; border:14px solid green;"">","null","","","","","","","","","",""
"","image-keyboard-response","164","57429","0.0-164.0","3EWIJTFFVPTA5HW56M3XAHRFWH0E0N","A16ENVVHDK1LQQ","3S1L4CQSFXRWQOWP2XFUSMS4AZDFAL","","126","img/land1.png","75","128","2","1","3","1","1,0.5,0.5,0.5,1,0.5,0.5,0.5,1","1,0.5,0.5,0.5,1,0.5,0.5,0.5,1","1","",""
"","html-keyboard-response","165","57733","0.0-165.0","3EWIJTFFVPTA5HW56M3XAHRFWH0E0N","A16ENVVHDK1LQQ","3S1L4CQSFXRWQOWP2XFUSMS4AZDFAL","","null","<img src=""img/land1.png"" style=""width:200px; border:14px solid green;"">","null","","","","","","","","","",""
"","image-keyboard-response","166","57773","0.0-166.0","3EWIJTFFVPTA5HW56M3XAHRFWH0E0N","A16ENVVHDK1LQQ","3S1L4CQSFXRWQOWP2XFUSMS4AZDFAL","","35","img/land1.png","75","38","2","1","3","1","1,0.5,0.5,0.5,1,0.5,0.5,0.5,1","1,0.5,0.5,0.5,1,0.5,0.5,0.5,1","1","",""
"","html-keyboard-response","167","58075","0.0-167.0","3EWIJTFFVPTA5HW56M3XAHRFWH0E0N","A16ENVVHDK1LQQ","3S1L4CQSFXRWQOWP2XFUSMS4AZDFAL","","null","<img src=""img/land1.png"" style=""width:200px; border:14px solid green;"">","null","","","","","","","","","",""
"","image-keyboard-response","168","58113","0.0-168.0","3EWIJTFFVPTA5HW56M3XAHRFWH0E0N","A16ENVVHDK1LQQ","3S1L4CQSFXRWQOWP2XFUSMS4AZDFAL","","37","img/land3.png","74","38","1","1","1","1","1,0.5,0.5,0.5,1,0.5,0.5,0.5,1","1,0.5,0.5,0.5,1,0.5,0.5,0.5,1","1","",""
"","html-keyboard-response","169","58414","0.0-169.0","3EWIJTFFVPTA5HW56M3XAHRFWH0E0N","A16ENVVHDK1LQQ","3S1L4CQSFXRWQOWP2XFUSMS4AZDFAL","","null","<img src=""img/land3.png"" style=""width:200px; border:14px solid green;"">","null","","","","","","","","","",""
"","image-keyboard-response","170","58536","0.0-170.0","3EWIJTFFVPTA5HW56M3XAHRFWH0E0N","A16ENVVHDK1LQQ","3S1L4CQSFXRWQOWP2XFUSMS4AZDFAL","","121","img/land1.png","75","122","2","0","3","1","1,0.5,0.5,0.5,1,0.5,0.5,0.5,1","1,0.5,0.5,0.5,1,0.5,0.5,0.5,1","1","",""
"","html-keyboard-response","171","58839","0.0-171.0","3EWIJTFFVPTA5HW56M3XAHRFWH0E0N","A16ENVVHDK1LQQ","3S1L4CQSFXRWQOWP2XFUSMS4AZDFAL","","null","<img src=""img/land1.png"" style=""width:200px;border:14px solid red;"">","null","","","","","","","","","",""
"","image-keyboard-response","172","58920","0.0-172.0","3EWIJTFFVPTA5HW56M3XAHRFWH0E0N","A16ENVVHDK1LQQ","3S1L4CQSFXRWQOWP2XFUSMS4AZDFAL","","80","img/land1.png","75","81","2","1","3","1","1,0.5,0.5,0.5,1,0.5,0.5,0.5,1","1,0.5,0.5,0.5,1,0.5,0.5,0.5,1","1","",""
"","html-keyboard-response","173","59221","0.0-173.0","3EWIJTFFVPTA5HW56M3XAHRFWH0E0N","A16ENVVHDK1LQQ","3S1L4CQSFXRWQOWP2XFUSMS4AZDFAL","","null","<img src=""img/land1.png"" style=""width:200px; border:14px solid green;"">","null","","","","","","","","","",""
"","image-keyboard-response","174","59311","0.0-174.0","3EWIJTFFVPTA5HW56M3XAHRFWH0E0N","A16ENVVHDK1LQQ","3S1L4CQSFXRWQOWP2XFUSMS4AZDFAL","","87","img/land6.png","75","89","2","1","2","1","1,0.5,0.5,0.5,1,0.5,0.5,0.5,1","1,0.5,0.5,0.5,1,0.5,0.5,0.5,1","1","",""
"","html-keyboard-response","175","59615","0.0-175.0","3EWIJTFFVPTA5HW56M3XAHRFWH0E0N","A16ENVVHDK1LQQ","3S1L4CQSFXRWQOWP2XFUSMS4AZDFAL","","null","<img src=""img/land6.png"" style=""width:200px; border:14px solid green;"">","null","","","","","","","","","",""
"","image-keyboard-response","176","59638","0.0-176.0","3EWIJTFFVPTA5HW56M3XAHRFWH0E0N","A16ENVVHDK1LQQ","3S1L4CQSFXRWQOWP2XFUSMS4AZDFAL","","22","img/land3.png","74","23","1","1","1","1","1,0.5,0.5,0.5,1,0.5,0.5,0.5,1","1,0.5,0.5,0.5,1,0.5,0.5,0.5,1","1","",""
"","html-keyboard-response","177","59940","0.0-177.0","3EWIJTFFVPTA5HW56M3XAHRFWH0E0N","A16ENVVHDK1LQQ","3S1L4CQSFXRWQOWP2XFUSMS4AZDFAL","","null","<img src=""img/land3.png"" style=""width:200px; border:14px solid green;"">","null","","","","","","","","","",""
"","image-keyboard-response","178","60029","0.0-178.0","3EWIJTFFVPTA5HW56M3XAHRFWH0E0N","A16ENVVHDK1LQQ","3S1L4CQSFXRWQOWP2XFUSMS4AZDFAL","","88","img/land6.png","75","89","2","1","2","1","1,0.5,0.5,0.5,1,0.5,0.5,0.5,1","1,0.5,0.5,0.5,1,0.5,0.5,0.5,1","1","",""
"","html-keyboard-response","179","60330","0.0-179.0","3EWIJTFFVPTA5HW56M3XAHRFWH0E0N","A16ENVVHDK1LQQ","3S1L4CQSFXRWQOWP2XFUSMS4AZDFAL","","null","<img src=""img/land6.png"" style=""width:200px; border:14px solid green;"">","null","","","","","","","","","",""
"","image-keyboard-response","180","60369","0.0-180.0","3EWIJTFFVPTA5HW56M3XAHRFWH0E0N","A16ENVVHDK1LQQ","3S1L4CQSFXRWQOWP2XFUSMS4AZDFAL","","36","img/land3.png","76","38","3","1","1","1","1,0.5,0.5,0.5,1,0.5,0.5,0.5,1","1,0.5,0.5,0.5,1,0.5,0.5,0.5,1","1","",""
"","html-keyboard-response","181","60670","0.0-181.0","3EWIJTFFVPTA5HW56M3XAHRFWH0E0N","A16ENVVHDK1LQQ","3S1L4CQSFXRWQOWP2XFUSMS4AZDFAL","","null","<img src=""img/land3.png"" style=""width:200px; border:14px solid green;"">","null","","","","","","","","","",""
"","html-keyboard-response","182","63542","0.0-182.0","3EWIJTFFVPTA5HW56M3XAHRFWH0E0N","A16ENVVHDK1LQQ","3S1L4CQSFXRWQOWP2XFUSMS4AZDFAL","","","","","","","","","","","","","",""
"","image-keyboard-response","183","64780","0.0-183.0","3EWIJTFFVPTA5HW56M3XAHRFWH0E0N","A16ENVVHDK1LQQ","3S1L4CQSFXRWQOWP2XFUSMS4AZDFAL","","1234","img/land5.png","76","1237","3","1","1","2","1,0.5,0.5,0.5,1,0.5,0.5,0.5,1","0.5,0.5,1,1,0.5,0.5,0.5,1,0.5","2","",""
"","html-keyboard-response","184","65085","0.0-184.0","3EWIJTFFVPTA5HW56M3XAHRFWH0E0N","A16ENVVHDK1LQQ","3S1L4CQSFXRWQOWP2XFUSMS4AZDFAL","","null","<img src=""img/land5.png"" style=""width:200px; border:14px solid green;"">","null","","","","","","","","","",""
"","image-keyboard-response","185","65240","0.0-185.0","3EWIJTFFVPTA5HW56M3XAHRFWH0E0N","A16ENVVHDK1LQQ","3S1L4CQSFXRWQOWP2XFUSMS4AZDFAL","","154","img/land2.png","75","155","2","1","2","2","1,0.5,0.5,0.5,1,0.5,0.5,0.5,1","0.5,0.5,1,1,0.5,0.5,0.5,1,0.5","2","",""
"","html-keyboard-response","186","65542","0.0-186.0","3EWIJTFFVPTA5HW56M3XAHRFWH0E0N","A16ENVVHDK1LQQ","3S1L4CQSFXRWQOWP2XFUSMS4AZDFAL","","null","<img src=""img/land2.png"" style=""width:200px; border:14px solid green;"">","null","","","","","","","","","",""
"","image-keyboard-response","187","65684","0.0-187.0","3EWIJTFFVPTA5HW56M3XAHRFWH0E0N","A16ENVVHDK1LQQ","3S1L4CQSFXRWQOWP2XFUSMS4AZDFAL","","140","img/land5.png","75","143","2","1","1","2","1,0.5,0.5,0.5,1,0.5,0.5,0.5,1","0.5,0.5,1,1,0.5,0.5,0.5,1,0.5","2","",""
"","html-keyboard-response","188","65988","0.0-188.0","3EWIJTFFVPTA5HW56M3XAHRFWH0E0N","A16ENVVHDK1LQQ","3S1L4CQSFXRWQOWP2XFUSMS4AZDFAL","","null","<img src=""img/land5.png"" style=""width:200px; border:14px solid green;"">","null","","","","","","","","","",""
"","image-keyboard-response","189","66139","0.0-189.0","3EWIJTFFVPTA5HW56M3XAHRFWH0E0N","A16ENVVHDK1LQQ","3S1L4CQSFXRWQOWP2XFUSMS4AZDFAL","","150","img/land2.png","75","151","2","1","2","2","1,0.5,0.5,0.5,1,0.5,0.5,0.5,1","0.5,0.5,1,1,0.5,0.5,0.5,1,0.5","2","",""
"","html-keyboard-response","190","66441","0.0-190.0","3EWIJTFFVPTA5HW56M3XAHRFWH0E0N","A16ENVVHDK1LQQ","3S1L4CQSFXRWQOWP2XFUSMS4AZDFAL","","null","<img src=""img/land2.png"" style=""width:200px; border:14px solid green;"">","null","","","","","","","","","",""
"","image-keyboard-response","191","66518","0.0-191.0","3EWIJTFFVPTA5HW56M3XAHRFWH0E0N","A16ENVVHDK1LQQ","3S1L4CQSFXRWQOWP2XFUSMS4AZDFAL","","74","img/land5.png","75","76","2","0","1","2","1,0.5,0.5,0.5,1,0.5,0.5,0.5,1","0.5,0.5,1,1,0.5,0.5,0.5,1,0.5","2","",""
"","html-keyboard-response","192","66819","0.0-192.0","3EWIJTFFVPTA5HW56M3XAHRFWH0E0N","A16ENVVHDK1LQQ","3S1L4CQSFXRWQOWP2XFUSMS4AZDFAL","","null","<img src=""img/land5.png"" style=""width:200px;border:14px solid red;"">","null","","","","","","","","","",""
"","image-keyboard-response","193","66979","0.0-193.0","3EWIJTFFVPTA5HW56M3XAHRFWH0E0N","A16ENVVHDK1LQQ","3S1L4CQSFXRWQOWP2XFUSMS4AZDFAL","","158","img/land4.png","75","159","2","1","3","2","1,0.5,0.5,0.5,1,0.5,0.5,0.5,1","0.5,0.5,1,1,0.5,0.5,0.5,1,0.5","2","",""
"","html-keyboard-response","194","67310","0.0-194.0","3EWIJTFFVPTA5HW56M3XAHRFWH0E0N","A16ENVVHDK1LQQ","3S1L4CQSFXRWQOWP2XFUSMS4AZDFAL","","null","<img src=""img/land4.png"" style=""width:200px; border:14px solid green;"">","null","","","","","","","","","",""
"","image-keyboard-response","195","67328","0.0-195.0","3EWIJTFFVPTA5HW56M3XAHRFWH0E0N","A16ENVVHDK1LQQ","3S1L4CQSFXRWQOWP2XFUSMS4AZDFAL","","18","img/land5.png","75","18","2","0","1","2","1,0.5,0.5,0.5,1,0.5,0.5,0.5,1","0.5,0.5,1,1,0.5,0.5,0.5,1,0.5","2","",""
"","html-keyboard-response","196","67630","0.0-196.0","3EWIJTFFVPTA5HW56M3XAHRFWH0E0N","A16ENVVHDK1LQQ","3S1L4CQSFXRWQOWP2XFUSMS4AZDFAL","","null","<img src=""img/land5.png"" style=""width:200px;border:14px solid red;"">","null","","","","","","","","","",""
"","image-keyboard-response","197","67761","0.0-197.0","3EWIJTFFVPTA5HW56M3XAHRFWH0E0N","A16ENVVHDK1LQQ","3S1L4CQSFXRWQOWP2XFUSMS4AZDFAL","","129","img/land5.png","75","130","2","1","1","2","1,0.5,0.5,0.5,1,0.5,0.5,0.5,1","0.5,0.5,1,1,0.5,0.5,0.5,1,0.5","2","",""
"","html-keyboard-response","198","68066","0.0-198.0","3EWIJTFFVPTA5HW56M3XAHRFWH0E0N","A16ENVVHDK1LQQ","3S1L4CQSFXRWQOWP2XFUSMS4AZDFAL","","null","<img src=""img/land5.png"" style=""width:200px; border:14px solid green;"">","null","","","","","","","","","",""
"","image-keyboard-response","199","68158","0.0-199.0","3EWIJTFFVPTA5HW56M3XAHRFWH0E0N","A16ENVVHDK1LQQ","3S1L4CQSFXRWQOWP2XFUSMS4AZDFAL","","91","img/land5.png","75","92","2","1","1","2","1,0.5,0.5,0.5,1,0.5,0.5,0.5,1","0.5,0.5,1,1,0.5,0.5,0.5,1,0.5","2","",""
"","html-keyboard-response","200","68459","0.0-200.0","3EWIJTFFVPTA5HW56M3XAHRFWH0E0N","A16ENVVHDK1LQQ","3S1L4CQSFXRWQOWP2XFUSMS4AZDFAL","","null","<img src=""img/land5.png"" style=""width:200px; border:14px solid green;"">","null","","","","","","","","","",""
"","image-keyboard-response","201","68488","0.0-201.0","3EWIJTFFVPTA5HW56M3XAHRFWH0E0N","A16ENVVHDK1LQQ","3S1L4CQSFXRWQOWP2XFUSMS4AZDFAL","","27","img/land5.png","74","29","1","0","1","2","1,0.5,0.5,0.5,1,0.5,0.5,0.5,1","0.5,0.5,1,1,0.5,0.5,0.5,1,0.5","2","",""
"","html-keyboard-response","202","68790","0.0-202.0","3EWIJTFFVPTA5HW56M3XAHRFWH0E0N","A16ENVVHDK1LQQ","3S1L4CQSFXRWQOWP2XFUSMS4AZDFAL","","null","<img src=""img/land5.png"" style=""width:200px;border:14px solid red;"">","null","","","","","","","","","",""
"","image-keyboard-response","203","68809","0.0-203.0","3EWIJTFFVPTA5HW56M3XAHRFWH0E0N","A16ENVVHDK1LQQ","3S1L4CQSFXRWQOWP2XFUSMS4AZDFAL","","17","img/land5.png","76","18","3","1","1","2","1,0.5,0.5,0.5,1,0.5,0.5,0.5,1","0.5,0.5,1,1,0.5,0.5,0.5,1,0.5","2","",""
"","html-keyboard-response","204","69110","0.0-204.0","3EWIJTFFVPTA5HW56M3XAHRFWH0E0N","A16ENVVHDK1LQQ","3S1L4CQSFXRWQOWP2XFUSMS4AZDFAL","","null","<img src=""img/land5.png"" style=""width:200px; border:14px solid green;"">","null","","","","","","","","","",""
"","image-keyboard-response","205","69162","0.0-205.0","3EWIJTFFVPTA5HW56M3XAHRFWH0E0N","A16ENVVHDK1LQQ","3S1L4CQSFXRWQOWP2XFUSMS4AZDFAL","","50","img/land2.png","75","51","2","1","2","2","1,0.5,0.5,0.5,1,0.5,0.5,0.5,1","0.5,0.5,1,1,0.5,0.5,0.5,1,0.5","2","",""
"","html-keyboard-response","206","69464","0.0-206.0","3EWIJTFFVPTA5HW56M3XAHRFWH0E0N","A16ENVVHDK1LQQ","3S1L4CQSFXRWQOWP2XFUSMS4AZDFAL","","null","<img src=""img/land2.png"" style=""width:200px; border:14px solid green;"">","null","","","","","","","","","",""
"","image-keyboard-response","207","69777","0.0-207.0","3EWIJTFFVPTA5HW56M3XAHRFWH0E0N","A16ENVVHDK1LQQ","3S1L4CQSFXRWQOWP2XFUSMS4AZDFAL","","311","img/land2.png","75","312","2","1","2","2","1,0.5,0.5,0.5,1,0.5,0.5,0.5,1","0.5,0.5,1,1,0.5,0.5,0.5,1,0.5","2","",""
"","html-keyboard-response","208","70079","0.0-208.0","3EWIJTFFVPTA5HW56M3XAHRFWH0E0N","A16ENVVHDK1LQQ","3S1L4CQSFXRWQOWP2XFUSMS4AZDFAL","","null","<img src=""img/land2.png"" style=""width:200px; border:14px solid green;"">","null","","","","","","","","","",""
"","image-keyboard-response","209","70140","0.0-209.0","3EWIJTFFVPTA5HW56M3XAHRFWH0E0N","A16ENVVHDK1LQQ","3S1L4CQSFXRWQOWP2XFUSMS4AZDFAL","","60","img/land2.png","75","60","2","0","2","2","1,0.5,0.5,0.5,1,0.5,0.5,0.5,1","0.5,0.5,1,1,0.5,0.5,0.5,1,0.5","2","",""
"","html-keyboard-response","210","70442","0.0-210.0","3EWIJTFFVPTA5HW56M3XAHRFWH0E0N","A16ENVVHDK1LQQ","3S1L4CQSFXRWQOWP2XFUSMS4AZDFAL","","null","<img src=""img/land2.png"" style=""width:200px;border:14px solid red;"">","null","","","","","","","","","",""
"","image-keyboard-response","211","70484","0.0-211.0","3EWIJTFFVPTA5HW56M3XAHRFWH0E0N","A16ENVVHDK1LQQ","3S1L4CQSFXRWQOWP2XFUSMS4AZDFAL","","38","img/land5.png","75","40","2","0","1","2","1,0.5,0.5,0.5,1,0.5,0.5,0.5,1","0.5,0.5,1,1,0.5,0.5,0.5,1,0.5","2","",""
"","html-keyboard-response","212","70786","0.0-212.0","3EWIJTFFVPTA5HW56M3XAHRFWH0E0N","A16ENVVHDK1LQQ","3S1L4CQSFXRWQOWP2XFUSMS4AZDFAL","","null","<img src=""img/land5.png"" style=""width:200px;border:14px solid red;"">","null","","","","","","","","","",""
"","image-keyboard-response","213","70910","0.0-213.0","3EWIJTFFVPTA5HW56M3XAHRFWH0E0N","A16ENVVHDK1LQQ","3S1L4CQSFXRWQOWP2XFUSMS4AZDFAL","","122","img/land2.png","75","123","2","0","2","2","1,0.5,0.5,0.5,1,0.5,0.5,0.5,1","0.5,0.5,1,1,0.5,0.5,0.5,1,0.5","2","",""
"","html-keyboard-response","214","71213","0.0-214.0","3EWIJTFFVPTA5HW56M3XAHRFWH0E0N","A16ENVVHDK1LQQ","3S1L4CQSFXRWQOWP2XFUSMS4AZDFAL","","null","<img src=""img/land2.png"" style=""width:200px;border:14px solid red;"">","null","","","","","","","","","",""
"","image-keyboard-response","215","71288","0.0-215.0","3EWIJTFFVPTA5HW56M3XAHRFWH0E0N","A16ENVVHDK1LQQ","3S1L4CQSFXRWQOWP2XFUSMS4AZDFAL","","73","img/land5.png","75","74","2","0","1","2","1,0.5,0.5,0.5,1,0.5,0.5,0.5,1","0.5,0.5,1,1,0.5,0.5,0.5,1,0.5","2","",""
"","html-keyboard-response","216","71590","0.0-216.0","3EWIJTFFVPTA5HW56M3XAHRFWH0E0N","A16ENVVHDK1LQQ","3S1L4CQSFXRWQOWP2XFUSMS4AZDFAL","","null","<img src=""img/land5.png"" style=""width:200px;border:14px solid red;"">","null","","","","","","","","","",""
"","image-keyboard-response","217","71658","0.0-217.0","3EWIJTFFVPTA5HW56M3XAHRFWH0E0N","A16ENVVHDK1LQQ","3S1L4CQSFXRWQOWP2XFUSMS4AZDFAL","","65","img/land5.png","75","67","2","1","1","2","1,0.5,0.5,0.5,1,0.5,0.5,0.5,1","0.5,0.5,1,1,0.5,0.5,0.5,1,0.5","2","",""
"","html-keyboard-response","218","71959","0.0-218.0","3EWIJTFFVPTA5HW56M3XAHRFWH0E0N","A16ENVVHDK1LQQ","3S1L4CQSFXRWQOWP2XFUSMS4AZDFAL","","null","<img src=""img/land5.png"" style=""width:200px; border:14px solid green;"">","null","","","","","","","","","",""
"","image-keyboard-response","219","72100","0.0-219.0","3EWIJTFFVPTA5HW56M3XAHRFWH0E0N","A16ENVVHDK1LQQ","3S1L4CQSFXRWQOWP2XFUSMS4AZDFAL","","137","img/land5.png","75","141","2","1","1","2","1,0.5,0.5,0.5,1,0.5,0.5,0.5,1","0.5,0.5,1,1,0.5,0.5,0.5,1,0.5","2","",""
"","html-keyboard-response","220","72403","0.0-220.0","3EWIJTFFVPTA5HW56M3XAHRFWH0E0N","A16ENVVHDK1LQQ","3S1L4CQSFXRWQOWP2XFUSMS4AZDFAL","","null","<img src=""img/land5.png"" style=""width:200px; border:14px solid green;"">","null","","","","","","","","","",""
"","image-keyboard-response","221","72476","0.0-221.0","3EWIJTFFVPTA5HW56M3XAHRFWH0E0N","A16ENVVHDK1LQQ","3S1L4CQSFXRWQOWP2XFUSMS4AZDFAL","","70","img/land5.png","75","72","2","1","1","2","1,0.5,0.5,0.5,1,0.5,0.5,0.5,1","0.5,0.5,1,1,0.5,0.5,0.5,1,0.5","2","",""
"","html-keyboard-response","222","72778","0.0-222.0","3EWIJTFFVPTA5HW56M3XAHRFWH0E0N","A16ENVVHDK1LQQ","3S1L4CQSFXRWQOWP2XFUSMS4AZDFAL","","null","<img src=""img/land5.png"" style=""width:200px; border:14px solid green;"">","null","","","","","","","","","",""
"","image-keyboard-response","223","72799","0.0-223.0","3EWIJTFFVPTA5HW56M3XAHRFWH0E0N","A16ENVVHDK1LQQ","3S1L4CQSFXRWQOWP2XFUSMS4AZDFAL","","20","img/land5.png","75","20","2","1","1","2","1,0.5,0.5,0.5,1,0.5,0.5,0.5,1","0.5,0.5,1,1,0.5,0.5,0.5,1,0.5","2","",""
"","html-keyboard-response","224","73103","0.0-224.0","3EWIJTFFVPTA5HW56M3XAHRFWH0E0N","A16ENVVHDK1LQQ","3S1L4CQSFXRWQOWP2XFUSMS4AZDFAL","","null","<img src=""img/land5.png"" style=""width:200px; border:14px solid green;"">","null","","","","","","","","","",""
"","image-keyboard-response","225","73225","0.0-225.0","3EWIJTFFVPTA5HW56M3XAHRFWH0E0N","A16ENVVHDK1LQQ","3S1L4CQSFXRWQOWP2XFUSMS4AZDFAL","","120","img/land4.png","76","121","3","0","3","2","1,0.5,0.5,0.5,1,0.5,0.5,0.5,1","0.5,0.5,1,1,0.5,0.5,0.5,1,0.5","2","",""
"","html-keyboard-response","226","73528","0.0-226.0","3EWIJTFFVPTA5HW56M3XAHRFWH0E0N","A16ENVVHDK1LQQ","3S1L4CQSFXRWQOWP2XFUSMS4AZDFAL","","null","<img src=""img/land4.png"" style=""width:200px;border:14px solid red;"">","null","","","","","","","","","",""
"","image-keyboard-response","227","73661","0.0-227.0","3EWIJTFFVPTA5HW56M3XAHRFWH0E0N","A16ENVVHDK1LQQ","3S1L4CQSFXRWQOWP2XFUSMS4AZDFAL","","129","img/land5.png","75","131","2","0","1","2","1,0.5,0.5,0.5,1,0.5,0.5,0.5,1","0.5,0.5,1,1,0.5,0.5,0.5,1,0.5","2","",""
"","html-keyboard-response","228","73964","0.0-228.0","3EWIJTFFVPTA5HW56M3XAHRFWH0E0N","A16ENVVHDK1LQQ","3S1L4CQSFXRWQOWP2XFUSMS4AZDFAL","","null","<img src=""img/land5.png"" style=""width:200px;border:14px solid red;"">","null","","","","","","","","","",""
"","image-keyboard-response","229","73998","0.0-229.0","3EWIJTFFVPTA5HW56M3XAHRFWH0E0N","A16ENVVHDK1LQQ","3S1L4CQSFXRWQOWP2XFUSMS4AZDFAL","","32","img/land4.png","74","33","1","0","3","2","1,0.5,0.5,0.5,1,0.5,0.5,0.5,1","0.5,0.5,1,1,0.5,0.5,0.5,1,0.5","2","",""
"","html-keyboard-response","230","74300","0.0-230.0","3EWIJTFFVPTA5HW56M3XAHRFWH0E0N","A16ENVVHDK1LQQ","3S1L4CQSFXRWQOWP2XFUSMS4AZDFAL","","null","<img src=""img/land4.png"" style=""width:200px;border:14px solid red;"">","null","","","","","","","","","",""
"","image-keyboard-response","231","74360","0.0-231.0","3EWIJTFFVPTA5HW56M3XAHRFWH0E0N","A16ENVVHDK1LQQ","3S1L4CQSFXRWQOWP2XFUSMS4AZDFAL","","58","img/land5.png","76","60","3","1","1","2","1,0.5,0.5,0.5,1,0.5,0.5,0.5,1","0.5,0.5,1,1,0.5,0.5,0.5,1,0.5","2","",""
"","html-keyboard-response","232","74719","0.0-232.0","3EWIJTFFVPTA5HW56M3XAHRFWH0E0N","A16ENVVHDK1LQQ","3S1L4CQSFXRWQOWP2XFUSMS4AZDFAL","","null","<img src=""img/land5.png"" style=""width:200px; border:14px solid green;"">","null","","","","","","","","","",""
"","image-keyboard-response","233","74810","0.0-233.0","3EWIJTFFVPTA5HW56M3XAHRFWH0E0N","A16ENVVHDK1LQQ","3S1L4CQSFXRWQOWP2XFUSMS4AZDFAL","","91","img/land5.png","76","92","3","1","1","2","1,0.5,0.5,0.5,1,0.5,0.5,0.5,1","0.5,0.5,1,1,0.5,0.5,0.5,1,0.5","2","",""
"","html-keyboard-response","234","75113","0.0-234.0","3EWIJTFFVPTA5HW56M3XAHRFWH0E0N","A16ENVVHDK1LQQ","3S1L4CQSFXRWQOWP2XFUSMS4AZDFAL","","null","<img src=""img/land5.png"" style=""width:200px; border:14px solid green;"">","null","","","","","","","","","",""
"","image-keyboard-response","235","75250","0.0-235.0","3EWIJTFFVPTA5HW56M3XAHRFWH0E0N","A16ENVVHDK1LQQ","3S1L4CQSFXRWQOWP2XFUSMS4AZDFAL","","135","img/land5.png","75","136","2","0","1","2","1,0.5,0.5,0.5,1,0.5,0.5,0.5,1","0.5,0.5,1,1,0.5,0.5,0.5,1,0.5","2","",""
"","html-keyboard-response","236","75552","0.0-236.0","3EWIJTFFVPTA5HW56M3XAHRFWH0E0N","A16ENVVHDK1LQQ","3S1L4CQSFXRWQOWP2XFUSMS4AZDFAL","","null","<img src=""img/land5.png"" style=""width:200px;border:14px solid red;"">","null","","","","","","","","","",""
"","image-keyboard-response","237","75681","0.0-237.0","3EWIJTFFVPTA5HW56M3XAHRFWH0E0N","A16ENVVHDK1LQQ","3S1L4CQSFXRWQOWP2XFUSMS4AZDFAL","","128","img/land5.png","75","129","2","1","1","2","1,0.5,0.5,0.5,1,0.5,0.5,0.5,1","0.5,0.5,1,1,0.5,0.5,0.5,1,0.5","2","",""
"","html-keyboard-response","238","75983","0.0-238.0","3EWIJTFFVPTA5HW56M3XAHRFWH0E0N","A16ENVVHDK1LQQ","3S1L4CQSFXRWQOWP2XFUSMS4AZDFAL","","null","<img src=""img/land5.png"" style=""width:200px; border:14px solid green;"">","null","","","","","","","","","",""
"","image-keyboard-response","239","76040","0.0-239.0","3EWIJTFFVPTA5HW56M3XAHRFWH0E0N","A16ENVVHDK1LQQ","3S1L4CQSFXRWQOWP2XFUSMS4AZDFAL","","54","img/land4.png","76","56","3","0","3","2","1,0.5,0.5,0.5,1,0.5,0.5,0.5,1","0.5,0.5,1,1,0.5,0.5,0.5,1,0.5","2","",""
"","html-keyboard-response","240","76342","0.0-240.0","3EWIJTFFVPTA5HW56M3XAHRFWH0E0N","A16ENVVHDK1LQQ","3S1L4CQSFXRWQOWP2XFUSMS4AZDFAL","","null","<img src=""img/land4.png"" style=""width:200px;border:14px solid red;"">","null","","","","","","","","","",""
"","image-keyboard-response","241","76479","0.0-241.0","3EWIJTFFVPTA5HW56M3XAHRFWH0E0N","A16ENVVHDK1LQQ","3S1L4CQSFXRWQOWP2XFUSMS4AZDFAL","","136","img/land2.png","75","137","2","0","2","2","1,0.5,0.5,0.5,1,0.5,0.5,0.5,1","0.5,0.5,1,1,0.5,0.5,0.5,1,0.5","2","",""
"","html-keyboard-response","242","76781","0.0-242.0","3EWIJTFFVPTA5HW56M3XAHRFWH0E0N","A16ENVVHDK1LQQ","3S1L4CQSFXRWQOWP2XFUSMS4AZDFAL","","null","<img src=""img/land2.png"" style=""width:200px;border:14px solid red;"">","null","","","","","","","","","",""
"","image-keyboard-response","243","76920","0.0-243.0","3EWIJTFFVPTA5HW56M3XAHRFWH0E0N","A16ENVVHDK1LQQ","3S1L4CQSFXRWQOWP2XFUSMS4AZDFAL","","135","img/land5.png","76","137","3","1","1","2","1,0.5,0.5,0.5,1,0.5,0.5,0.5,1","0.5,0.5,1,1,0.5,0.5,0.5,1,0.5","2","",""
"","html-keyboard-response","244","77222","0.0-244.0","3EWIJTFFVPTA5HW56M3XAHRFWH0E0N","A16ENVVHDK1LQQ","3S1L4CQSFXRWQOWP2XFUSMS4AZDFAL","","null","<img src=""img/land5.png"" style=""width:200px; border:14px solid green;"">","null","","","","","","","","","",""
"","image-keyboard-response","245","77338","0.0-245.0","3EWIJTFFVPTA5HW56M3XAHRFWH0E0N","A16ENVVHDK1LQQ","3S1L4CQSFXRWQOWP2XFUSMS4AZDFAL","","115","img/land4.png","75","116","2","1","3","2","1,0.5,0.5,0.5,1,0.5,0.5,0.5,1","0.5,0.5,1,1,0.5,0.5,0.5,1,0.5","2","",""
"","html-keyboard-response","246","77639","0.0-246.0","3EWIJTFFVPTA5HW56M3XAHRFWH0E0N","A16ENVVHDK1LQQ","3S1L4CQSFXRWQOWP2XFUSMS4AZDFAL","","null","<img src=""img/land4.png"" style=""width:200px; border:14px solid green;"">","null","","","","","","","","","",""
"","image-keyboard-response","247","77765","0.0-247.0","3EWIJTFFVPTA5HW56M3XAHRFWH0E0N","A16ENVVHDK1LQQ","3S1L4CQSFXRWQOWP2XFUSMS4AZDFAL","","124","img/land5.png","75","125","2","1","1","2","1,0.5,0.5,0.5,1,0.5,0.5,0.5,1","0.5,0.5,1,1,0.5,0.5,0.5,1,0.5","2","",""
"","html-keyboard-response","248","78066","0.0-248.0","3EWIJTFFVPTA5HW56M3XAHRFWH0E0N","A16ENVVHDK1LQQ","3S1L4CQSFXRWQOWP2XFUSMS4AZDFAL","","null","<img src=""img/land5.png"" style=""width:200px; border:14px solid green;"">","null","","","","","","","","","",""
"","image-keyboard-response","249","78120","0.0-249.0","3EWIJTFFVPTA5HW56M3XAHRFWH0E0N","A16ENVVHDK1LQQ","3S1L4CQSFXRWQOWP2XFUSMS4AZDFAL","","54","img/land2.png","75","54","2","0","2","2","1,0.5,0.5,0.5,1,0.5,0.5,0.5,1","0.5,0.5,1,1,0.5,0.5,0.5,1,0.5","2","",""
"","html-keyboard-response","250","78422","0.0-250.0","3EWIJTFFVPTA5HW56M3XAHRFWH0E0N","A16ENVVHDK1LQQ","3S1L4CQSFXRWQOWP2XFUSMS4AZDFAL","","null","<img src=""img/land2.png"" style=""width:200px;border:14px solid red;"">","null","","","","","","","","","",""
"","image-keyboard-response","251","78431","0.0-251.0","3EWIJTFFVPTA5HW56M3XAHRFWH0E0N","A16ENVVHDK1LQQ","3S1L4CQSFXRWQOWP2XFUSMS4AZDFAL","","8","img/land5.png","75","8","2","0","1","2","1,0.5,0.5,0.5,1,0.5,0.5,0.5,1","0.5,0.5,1,1,0.5,0.5,0.5,1,0.5","2","",""
"","html-keyboard-response","252","78733","0.0-252.0","3EWIJTFFVPTA5HW56M3XAHRFWH0E0N","A16ENVVHDK1LQQ","3S1L4CQSFXRWQOWP2XFUSMS4AZDFAL","","null","<img src=""img/land5.png"" style=""width:200px;border:14px solid red;"">","null","","","","","","","","","",""
"","image-keyboard-response","253","78808","0.0-253.0","3EWIJTFFVPTA5HW56M3XAHRFWH0E0N","A16ENVVHDK1LQQ","3S1L4CQSFXRWQOWP2XFUSMS4AZDFAL","","74","img/land5.png","75","74","2","1","1","2","1,0.5,0.5,0.5,1,0.5,0.5,0.5,1","0.5,0.5,1,1,0.5,0.5,0.5,1,0.5","2","",""
"","html-keyboard-response","254","79109","0.0-254.0","3EWIJTFFVPTA5HW56M3XAHRFWH0E0N","A16ENVVHDK1LQQ","3S1L4CQSFXRWQOWP2XFUSMS4AZDFAL","","null","<img src=""img/land5.png"" style=""width:200px; border:14px solid green;"">","null","","","","","","","","","",""
"","image-keyboard-response","255","79183","0.0-255.0","3EWIJTFFVPTA5HW56M3XAHRFWH0E0N","A16ENVVHDK1LQQ","3S1L4CQSFXRWQOWP2XFUSMS4AZDFAL","","69","img/land5.png","75","71","2","1","1","2","1,0.5,0.5,0.5,1,0.5,0.5,0.5,1","0.5,0.5,1,1,0.5,0.5,0.5,1,0.5","2","",""
"","html-keyboard-response","256","79485","0.0-256.0","3EWIJTFFVPTA5HW56M3XAHRFWH0E0N","A16ENVVHDK1LQQ","3S1L4CQSFXRWQOWP2XFUSMS4AZDFAL","","null","<img src=""img/land5.png"" style=""width:200px; border:14px solid green;"">","null","","","","","","","","","",""
"","image-keyboard-response","257","79579","0.0-257.0","3EWIJTFFVPTA5HW56M3XAHRFWH0E0N","A16ENVVHDK1LQQ","3S1L4CQSFXRWQOWP2XFUSMS4AZDFAL","","91","img/land5.png","75","93","2","0","1","2","1,0.5,0.5,0.5,1,0.5,0.5,0.5,1","0.5,0.5,1,1,0.5,0.5,0.5,1,0.5","2","",""
"","html-keyboard-response","258","79882","0.0-258.0","3EWIJTFFVPTA5HW56M3XAHRFWH0E0N","A16ENVVHDK1LQQ","3S1L4CQSFXRWQOWP2XFUSMS4AZDFAL","","null","<img src=""img/land5.png"" style=""width:200px;border:14px solid red;"">","null","","","","","","","","","",""
"","image-keyboard-response","259","80011","0.0-259.0","3EWIJTFFVPTA5HW56M3XAHRFWH0E0N","A16ENVVHDK1LQQ","3S1L4CQSFXRWQOWP2XFUSMS4AZDFAL","","127","img/land5.png","76","129","3","1","1","2","1,0.5,0.5,0.5,1,0.5,0.5,0.5,1","0.5,0.5,1,1,0.5,0.5,0.5,1,0.5","2","",""
"","html-keyboard-response","260","80346","0.0-260.0","3EWIJTFFVPTA5HW56M3XAHRFWH0E0N","A16ENVVHDK1LQQ","3S1L4CQSFXRWQOWP2XFUSMS4AZDFAL","","null","<img src=""img/land5.png"" style=""width:200px; border:14px solid green;"">","null","","","","","","","","","",""
"","image-keyboard-response","261","80361","0.0-261.0","3EWIJTFFVPTA5HW56M3XAHRFWH0E0N","A16ENVVHDK1LQQ","3S1L4CQSFXRWQOWP2XFUSMS4AZDFAL","","15","img/land5.png","75","15","2","1","1","2","1,0.5,0.5,0.5,1,0.5,0.5,0.5,1","0.5,0.5,1,1,0.5,0.5,0.5,1,0.5","2","",""
"","html-keyboard-response","262","80665","0.0-262.0","3EWIJTFFVPTA5HW56M3XAHRFWH0E0N","A16ENVVHDK1LQQ","3S1L4CQSFXRWQOWP2XFUSMS4AZDFAL","","null","<img src=""img/land5.png"" style=""width:200px; border:14px solid green;"">","null","","","","","","","","","",""
"","image-keyboard-response","263","80820","0.0-263.0","3EWIJTFFVPTA5HW56M3XAHRFWH0E0N","A16ENVVHDK1LQQ","3S1L4CQSFXRWQOWP2XFUSMS4AZDFAL","","152","img/land4.png","75","154","2","1","3","2","1,0.5,0.5,0.5,1,0.5,0.5,0.5,1","0.5,0.5,1,1,0.5,0.5,0.5,1,0.5","2","",""
"","html-keyboard-response","264","81133","0.0-264.0","3EWIJTFFVPTA5HW56M3XAHRFWH0E0N","A16ENVVHDK1LQQ","3S1L4CQSFXRWQOWP2XFUSMS4AZDFAL","","null","<img src=""img/land4.png"" style=""width:200px; border:14px solid green;"">","null","","","","","","","","","",""
"","image-keyboard-response","265","81204","0.0-265.0","3EWIJTFFVPTA5HW56M3XAHRFWH0E0N","A16ENVVHDK1LQQ","3S1L4CQSFXRWQOWP2XFUSMS4AZDFAL","","69","img/land2.png","75","69","2","0","2","2","1,0.5,0.5,0.5,1,0.5,0.5,0.5,1","0.5,0.5,1,1,0.5,0.5,0.5,1,0.5","2","",""
"","html-keyboard-response","266","81507","0.0-266.0","3EWIJTFFVPTA5HW56M3XAHRFWH0E0N","A16ENVVHDK1LQQ","3S1L4CQSFXRWQOWP2XFUSMS4AZDFAL","","null","<img src=""img/land2.png"" style=""width:200px;border:14px solid red;"">","null","","","","","","","","","",""
"","image-keyboard-response","267","81595","0.0-267.0","3EWIJTFFVPTA5HW56M3XAHRFWH0E0N","A16ENVVHDK1LQQ","3S1L4CQSFXRWQOWP2XFUSMS4AZDFAL","","85","img/land5.png","75","87","2","1","1","2","1,0.5,0.5,0.5,1,0.5,0.5,0.5,1","0.5,0.5,1,1,0.5,0.5,0.5,1,0.5","2","",""
"","html-keyboard-response","268","81898","0.0-268.0","3EWIJTFFVPTA5HW56M3XAHRFWH0E0N","A16ENVVHDK1LQQ","3S1L4CQSFXRWQOWP2XFUSMS4AZDFAL","","null","<img src=""img/land5.png"" style=""width:200px; border:14px solid green;"">","null","","","","","","","","","",""
"","image-keyboard-response","269","82013","0.0-269.0","3EWIJTFFVPTA5HW56M3XAHRFWH0E0N","A16ENVVHDK1LQQ","3S1L4CQSFXRWQOWP2XFUSMS4AZDFAL","","113","img/land5.png","75","115","2","0","1","2","1,0.5,0.5,0.5,1,0.5,0.5,0.5,1","0.5,0.5,1,1,0.5,0.5,0.5,1,0.5","2","",""
"","html-keyboard-response","270","82334","0.0-270.0","3EWIJTFFVPTA5HW56M3XAHRFWH0E0N","A16ENVVHDK1LQQ","3S1L4CQSFXRWQOWP2XFUSMS4AZDFAL","","null","<img src=""img/land5.png"" style=""width:200px;border:14px solid red;"">","null","","","","","","","","","",""
"","image-keyboard-response","271","82398","0.0-271.0","3EWIJTFFVPTA5HW56M3XAHRFWH0E0N","A16ENVVHDK1LQQ","3S1L4CQSFXRWQOWP2XFUSMS4AZDFAL","","62","img/land5.png","75","63","2","0","1","2","1,0.5,0.5,0.5,1,0.5,0.5,0.5,1","0.5,0.5,1,1,0.5,0.5,0.5,1,0.5","2","",""
"","html-keyboard-response","272","82701","0.0-272.0","3EWIJTFFVPTA5HW56M3XAHRFWH0E0N","A16ENVVHDK1LQQ","3S1L4CQSFXRWQOWP2XFUSMS4AZDFAL","","null","<img src=""img/land5.png"" style=""width:200px;border:14px solid red;"">","null","","","","","","","","","",""
"","image-keyboard-response","273","82780","0.0-273.0","3EWIJTFFVPTA5HW56M3XAHRFWH0E0N","A16ENVVHDK1LQQ","3S1L4CQSFXRWQOWP2XFUSMS4AZDFAL","","77","img/land2.png","76","78","3","1","2","2","1,0.5,0.5,0.5,1,0.5,0.5,0.5,1","0.5,0.5,1,1,0.5,0.5,0.5,1,0.5","2","",""
"","html-keyboard-response","274","83082","0.0-274.0","3EWIJTFFVPTA5HW56M3XAHRFWH0E0N","A16ENVVHDK1LQQ","3S1L4CQSFXRWQOWP2XFUSMS4AZDFAL","","null","<img src=""img/land2.png"" style=""width:200px; border:14px solid green;"">","null","","","","","","","","","",""
"","image-keyboard-response","275","83148","0.0-275.0","3EWIJTFFVPTA5HW56M3XAHRFWH0E0N","A16ENVVHDK1LQQ","3S1L4CQSFXRWQOWP2XFUSMS4AZDFAL","","64","img/land5.png","75","65","2","1","1","2","1,0.5,0.5,0.5,1,0.5,0.5,0.5,1","0.5,0.5,1,1,0.5,0.5,0.5,1,0.5","2","",""
"","html-keyboard-response","276","83451","0.0-276.0","3EWIJTFFVPTA5HW56M3XAHRFWH0E0N","A16ENVVHDK1LQQ","3S1L4CQSFXRWQOWP2XFUSMS4AZDFAL","","null","<img src=""img/land5.png"" style=""width:200px; border:14px solid green;"">","null","","","","","","","","","",""
"","image-keyboard-response","277","83510","0.0-277.0","3EWIJTFFVPTA5HW56M3XAHRFWH0E0N","A16ENVVHDK1LQQ","3S1L4CQSFXRWQOWP2XFUSMS4AZDFAL","","56","img/land5.png","75","57","2","0","1","2","1,0.5,0.5,0.5,1,0.5,0.5,0.5,1","0.5,0.5,1,1,0.5,0.5,0.5,1,0.5","2","",""
"","html-keyboard-response","278","83812","0.0-278.0","3EWIJTFFVPTA5HW56M3XAHRFWH0E0N","A16ENVVHDK1LQQ","3S1L4CQSFXRWQOWP2XFUSMS4AZDFAL","","null","<img src=""img/land5.png"" style=""width:200px;border:14px solid red;"">","null","","","","","","","","","",""
"","image-keyboard-response","279","83878","0.0-279.0","3EWIJTFFVPTA5HW56M3XAHRFWH0E0N","A16ENVVHDK1LQQ","3S1L4CQSFXRWQOWP2XFUSMS4AZDFAL","","64","img/land5.png","76","65","3","1","1","2","1,0.5,0.5,0.5,1,0.5,0.5,0.5,1","0.5,0.5,1,1,0.5,0.5,0.5,1,0.5","2","",""
"","html-keyboard-response","280","84178","0.0-280.0","3EWIJTFFVPTA5HW56M3XAHRFWH0E0N","A16ENVVHDK1LQQ","3S1L4CQSFXRWQOWP2XFUSMS4AZDFAL","","null","<img src=""img/land5.png"" style=""width:200px; border:14px solid green;"">","null","","","","","","","","","",""
"","image-keyboard-response","281","84249","0.0-281.0","3EWIJTFFVPTA5HW56M3XAHRFWH0E0N","A16ENVVHDK1LQQ","3S1L4CQSFXRWQOWP2XFUSMS4AZDFAL","","69","img/land5.png","75","70","2","0","1","2","1,0.5,0.5,0.5,1,0.5,0.5,0.5,1","0.5,0.5,1,1,0.5,0.5,0.5,1,0.5","2","",""
"","html-keyboard-response","282","84550","0.0-282.0","3EWIJTFFVPTA5HW56M3XAHRFWH0E0N","A16ENVVHDK1LQQ","3S1L4CQSFXRWQOWP2XFUSMS4AZDFAL","","null","<img src=""img/land5.png"" style=""width:200px;border:14px solid red;"">","null","","","","","","","","","",""
"","image-keyboard-response","283","84589","0.0-283.0","3EWIJTFFVPTA5HW56M3XAHRFWH0E0N","A16ENVVHDK1LQQ","3S1L4CQSFXRWQOWP2XFUSMS4AZDFAL","","37","img/land5.png","76","39","3","1","1","2","1,0.5,0.5,0.5,1,0.5,0.5,0.5,1","0.5,0.5,1,1,0.5,0.5,0.5,1,0.5","2","",""
"","html-keyboard-response","284","84891","0.0-284.0","3EWIJTFFVPTA5HW56M3XAHRFWH0E0N","A16ENVVHDK1LQQ","3S1L4CQSFXRWQOWP2XFUSMS4AZDFAL","","null","<img src=""img/land5.png"" style=""width:200px; border:14px solid green;"">","null","","","","","","","","","",""
"","image-keyboard-response","285","85027","0.0-285.0","3EWIJTFFVPTA5HW56M3XAHRFWH0E0N","A16ENVVHDK1LQQ","3S1L4CQSFXRWQOWP2XFUSMS4AZDFAL","","133","img/land5.png","75","135","2","1","1","2","1,0.5,0.5,0.5,1,0.5,0.5,0.5,1","0.5,0.5,1,1,0.5,0.5,0.5,1,0.5","2","",""
"","html-keyboard-response","286","85331","0.0-286.0","3EWIJTFFVPTA5HW56M3XAHRFWH0E0N","A16ENVVHDK1LQQ","3S1L4CQSFXRWQOWP2XFUSMS4AZDFAL","","null","<img src=""img/land5.png"" style=""width:200px; border:14px solid green;"">","null","","","","","","","","","",""
"","image-keyboard-response","287","85417","0.0-287.0","3EWIJTFFVPTA5HW56M3XAHRFWH0E0N","A16ENVVHDK1LQQ","3S1L4CQSFXRWQOWP2XFUSMS4AZDFAL","","85","img/land2.png","75","86","2","0","2","2","1,0.5,0.5,0.5,1,0.5,0.5,0.5,1","0.5,0.5,1,1,0.5,0.5,0.5,1,0.5","2","",""
"","html-keyboard-response","288","85719","0.0-288.0","3EWIJTFFVPTA5HW56M3XAHRFWH0E0N","A16ENVVHDK1LQQ","3S1L4CQSFXRWQOWP2XFUSMS4AZDFAL","","null","<img src=""img/land2.png"" style=""width:200px;border:14px solid red;"">","null","","","","","","","","","",""
"","image-keyboard-response","289","85829","0.0-289.0","3EWIJTFFVPTA5HW56M3XAHRFWH0E0N","A16ENVVHDK1LQQ","3S1L4CQSFXRWQOWP2XFUSMS4AZDFAL","","105","img/land4.png","76","109","3","0","3","2","1,0.5,0.5,0.5,1,0.5,0.5,0.5,1","0.5,0.5,1,1,0.5,0.5,0.5,1,0.5","2","",""
"","html-keyboard-response","290","86131","0.0-290.0","3EWIJTFFVPTA5HW56M3XAHRFWH0E0N","A16ENVVHDK1LQQ","3S1L4CQSFXRWQOWP2XFUSMS4AZDFAL","","null","<img src=""img/land4.png"" style=""width:200px;border:14px solid red;"">","null","","","","","","","","","",""
"","image-keyboard-response","291","86206","0.0-291.0","3EWIJTFFVPTA5HW56M3XAHRFWH0E0N","A16ENVVHDK1LQQ","3S1L4CQSFXRWQOWP2XFUSMS4AZDFAL","","74","img/land2.png","75","74","2","1","2","2","1,0.5,0.5,0.5,1,0.5,0.5,0.5,1","0.5,0.5,1,1,0.5,0.5,0.5,1,0.5","2","",""
"","html-keyboard-response","292","86509","0.0-292.0","3EWIJTFFVPTA5HW56M3XAHRFWH0E0N","A16ENVVHDK1LQQ","3S1L4CQSFXRWQOWP2XFUSMS4AZDFAL","","null","<img src=""img/land2.png"" style=""width:200px; border:14px solid green;"">","null","","","","","","","","","",""
"","image-keyboard-response","293","86549","0.0-293.0","3EWIJTFFVPTA5HW56M3XAHRFWH0E0N","A16ENVVHDK1LQQ","3S1L4CQSFXRWQOWP2XFUSMS4AZDFAL","","38","img/land5.png","75","40","2","0","1","2","1,0.5,0.5,0.5,1,0.5,0.5,0.5,1","0.5,0.5,1,1,0.5,0.5,0.5,1,0.5","2","",""
"","html-keyboard-response","294","86850","0.0-294.0","3EWIJTFFVPTA5HW56M3XAHRFWH0E0N","A16ENVVHDK1LQQ","3S1L4CQSFXRWQOWP2XFUSMS4AZDFAL","","null","<img src=""img/land5.png"" style=""width:200px;border:14px solid red;"">","null","","","","","","","","","",""
"","image-keyboard-response","295","86958","0.0-295.0","3EWIJTFFVPTA5HW56M3XAHRFWH0E0N","A16ENVVHDK1LQQ","3S1L4CQSFXRWQOWP2XFUSMS4AZDFAL","","107","img/land4.png","76","107","3","0","3","2","1,0.5,0.5,0.5,1,0.5,0.5,0.5,1","0.5,0.5,1,1,0.5,0.5,0.5,1,0.5","2","",""
"","html-keyboard-response","296","87319","0.0-296.0","3EWIJTFFVPTA5HW56M3XAHRFWH0E0N","A16ENVVHDK1LQQ","3S1L4CQSFXRWQOWP2XFUSMS4AZDFAL","","null","<img src=""img/land4.png"" style=""width:200px;border:14px solid red;"">","null","","","","","","","","","",""
"","image-keyboard-response","297","87379","0.0-297.0","3EWIJTFFVPTA5HW56M3XAHRFWH0E0N","A16ENVVHDK1LQQ","3S1L4CQSFXRWQOWP2XFUSMS4AZDFAL","","59","img/land5.png","76","60","3","1","1","2","1,0.5,0.5,0.5,1,0.5,0.5,0.5,1","0.5,0.5,1,1,0.5,0.5,0.5,1,0.5","2","",""
"","html-keyboard-response","298","87680","0.0-298.0","3EWIJTFFVPTA5HW56M3XAHRFWH0E0N","A16ENVVHDK1LQQ","3S1L4CQSFXRWQOWP2XFUSMS4AZDFAL","","null","<img src=""img/land5.png"" style=""width:200px; border:14px solid green;"">","null","","","","","","","","","",""
"","image-keyboard-response","299","87698","0.0-299.0","3EWIJTFFVPTA5HW56M3XAHRFWH0E0N","A16ENVVHDK1LQQ","3S1L4CQSFXRWQOWP2XFUSMS4AZDFAL","","17","img/land5.png","74","17","1","0","1","2","1,0.5,0.5,0.5,1,0.5,0.5,0.5,1","0.5,0.5,1,1,0.5,0.5,0.5,1,0.5","2","",""
"","html-keyboard-response","300","88000","0.0-300.0","3EWIJTFFVPTA5HW56M3XAHRFWH0E0N","A16ENVVHDK1LQQ","3S1L4CQSFXRWQOWP2XFUSMS4AZDFAL","","null","<img src=""img/land5.png"" style=""width:200px;border:14px solid red;"">","null","","","","","","","","","",""
"","image-keyboard-response","301","88089","0.0-301.0","3EWIJTFFVPTA5HW56M3XAHRFWH0E0N","A16ENVVHDK1LQQ","3S1L4CQSFXRWQOWP2XFUSMS4AZDFAL","","87","img/land5.png","74","88","1","0","1","2","1,0.5,0.5,0.5,1,0.5,0.5,0.5,1","0.5,0.5,1,1,0.5,0.5,0.5,1,0.5","2","",""
"","html-keyboard-response","302","88391","0.0-302.0","3EWIJTFFVPTA5HW56M3XAHRFWH0E0N","A16ENVVHDK1LQQ","3S1L4CQSFXRWQOWP2XFUSMS4AZDFAL","","null","<img src=""img/land5.png"" style=""width:200px;border:14px solid red;"">","null","","","","","","","","","",""
"","image-keyboard-response","303","88419","0.0-303.0","3EWIJTFFVPTA5HW56M3XAHRFWH0E0N","A16ENVVHDK1LQQ","3S1L4CQSFXRWQOWP2XFUSMS4AZDFAL","","26","img/land5.png","75","27","2","0","1","2","1,0.5,0.5,0.5,1,0.5,0.5,0.5,1","0.5,0.5,1,1,0.5,0.5,0.5,1,0.5","2","",""
"","html-keyboard-response","304","88720","0.0-304.0","3EWIJTFFVPTA5HW56M3XAHRFWH0E0N","A16ENVVHDK1LQQ","3S1L4CQSFXRWQOWP2XFUSMS4AZDFAL","","null","<img src=""img/land5.png"" style=""width:200px;border:14px solid red;"">","null","","","","","","","","","",""
"","image-keyboard-response","305","88840","0.0-305.0","3EWIJTFFVPTA5HW56M3XAHRFWH0E0N","A16ENVVHDK1LQQ","3S1L4CQSFXRWQOWP2XFUSMS4AZDFAL","","118","img/land4.png","74","119","1","1","3","2","1,0.5,0.5,0.5,1,0.5,0.5,0.5,1","0.5,0.5,1,1,0.5,0.5,0.5,1,0.5","2","",""
"","html-keyboard-response","306","89142","0.0-306.0","3EWIJTFFVPTA5HW56M3XAHRFWH0E0N","A16ENVVHDK1LQQ","3S1L4CQSFXRWQOWP2XFUSMS4AZDFAL","","null","<img src=""img/land4.png"" style=""width:200px; border:14px solid green;"">","null","","","","","","","","","",""
"","image-keyboard-response","307","89220","0.0-307.0","3EWIJTFFVPTA5HW56M3XAHRFWH0E0N","A16ENVVHDK1LQQ","3S1L4CQSFXRWQOWP2XFUSMS4AZDFAL","","74","img/land4.png","75","77","2","1","3","2","1,0.5,0.5,0.5,1,0.5,0.5,0.5,1","0.5,0.5,1,1,0.5,0.5,0.5,1,0.5","2","",""
"","html-keyboard-response","308","89521","0.0-308.0","3EWIJTFFVPTA5HW56M3XAHRFWH0E0N","A16ENVVHDK1LQQ","3S1L4CQSFXRWQOWP2XFUSMS4AZDFAL","","null","<img src=""img/land4.png"" style=""width:200px; border:14px solid green;"">","null","","","","","","","","","",""
"","image-keyboard-response","309","89558","0.0-309.0","3EWIJTFFVPTA5HW56M3XAHRFWH0E0N","A16ENVVHDK1LQQ","3S1L4CQSFXRWQOWP2XFUSMS4AZDFAL","","37","img/land4.png","76","37","3","1","3","2","1,0.5,0.5,0.5,1,0.5,0.5,0.5,1","0.5,0.5,1,1,0.5,0.5,0.5,1,0.5","2","",""
"","html-keyboard-response","310","89859","0.0-310.0","3EWIJTFFVPTA5HW56M3XAHRFWH0E0N","A16ENVVHDK1LQQ","3S1L4CQSFXRWQOWP2XFUSMS4AZDFAL","","null","<img src=""img/land4.png"" style=""width:200px; border:14px solid green;"">","null","","","","","","","","","",""
"","image-keyboard-response","311","89899","0.0-311.0","3EWIJTFFVPTA5HW56M3XAHRFWH0E0N","A16ENVVHDK1LQQ","3S1L4CQSFXRWQOWP2XFUSMS4AZDFAL","","37","img/land5.png","76","38","3","1","1","2","1,0.5,0.5,0.5,1,0.5,0.5,0.5,1","0.5,0.5,1,1,0.5,0.5,0.5,1,0.5","2","",""
"","html-keyboard-response","312","90201","0.0-312.0","3EWIJTFFVPTA5HW56M3XAHRFWH0E0N","A16ENVVHDK1LQQ","3S1L4CQSFXRWQOWP2XFUSMS4AZDFAL","","null","<img src=""img/land5.png"" style=""width:200px; border:14px solid green;"">","null","","","","","","","","","",""
"","image-keyboard-response","313","90230","0.0-313.0","3EWIJTFFVPTA5HW56M3XAHRFWH0E0N","A16ENVVHDK1LQQ","3S1L4CQSFXRWQOWP2XFUSMS4AZDFAL","","28","img/land5.png","75","29","2","1","1","2","1,0.5,0.5,0.5,1,0.5,0.5,0.5,1","0.5,0.5,1,1,0.5,0.5,0.5,1,0.5","2","",""
"","html-keyboard-response","314","90531","0.0-314.0","3EWIJTFFVPTA5HW56M3XAHRFWH0E0N","A16ENVVHDK1LQQ","3S1L4CQSFXRWQOWP2XFUSMS4AZDFAL","","null","<img src=""img/land5.png"" style=""width:200px; border:14px solid green;"">","null","","","","","","","","","",""
"","image-keyboard-response","315","90660","0.0-315.0","3EWIJTFFVPTA5HW56M3XAHRFWH0E0N","A16ENVVHDK1LQQ","3S1L4CQSFXRWQOWP2XFUSMS4AZDFAL","","126","img/land5.png","74","128","1","1","1","2","1,0.5,0.5,0.5,1,0.5,0.5,0.5,1","0.5,0.5,1,1,0.5,0.5,0.5,1,0.5","2","",""
"","html-keyboard-response","316","90961","0.0-316.0","3EWIJTFFVPTA5HW56M3XAHRFWH0E0N","A16ENVVHDK1LQQ","3S1L4CQSFXRWQOWP2XFUSMS4AZDFAL","","null","<img src=""img/land5.png"" style=""width:200px; border:14px solid green;"">","null","","","","","","","","","",""
"","image-keyboard-response","317","91056","0.0-317.0","3EWIJTFFVPTA5HW56M3XAHRFWH0E0N","A16ENVVHDK1LQQ","3S1L4CQSFXRWQOWP2XFUSMS4AZDFAL","","94","img/land2.png","74","95","1","1","2","2","1,0.5,0.5,0.5,1,0.5,0.5,0.5,1","0.5,0.5,1,1,0.5,0.5,0.5,1,0.5","2","",""
"","html-keyboard-response","318","91358","0.0-318.0","3EWIJTFFVPTA5HW56M3XAHRFWH0E0N","A16ENVVHDK1LQQ","3S1L4CQSFXRWQOWP2XFUSMS4AZDFAL","","null","<img src=""img/land2.png"" style=""width:200px; border:14px solid green;"">","null","","","","","","","","","",""
"","image-keyboard-response","319","91481","0.0-319.0","3EWIJTFFVPTA5HW56M3XAHRFWH0E0N","A16ENVVHDK1LQQ","3S1L4CQSFXRWQOWP2XFUSMS4AZDFAL","","121","img/land4.png","76","123","3","1","3","2","1,0.5,0.5,0.5,1,0.5,0.5,0.5,1","0.5,0.5,1,1,0.5,0.5,0.5,1,0.5","2","",""
"","html-keyboard-response","320","91784","0.0-320.0","3EWIJTFFVPTA5HW56M3XAHRFWH0E0N","A16ENVVHDK1LQQ","3S1L4CQSFXRWQOWP2XFUSMS4AZDFAL","","null","<img src=""img/land4.png"" style=""width:200px; border:14px solid green;"">","null","","","","","","","","","",""
"","image-keyboard-response","321","91855","0.0-321.0","3EWIJTFFVPTA5HW56M3XAHRFWH0E0N","A16ENVVHDK1LQQ","3S1L4CQSFXRWQOWP2XFUSMS4AZDFAL","","69","img/land5.png","74","70","1","0","1","2","1,0.5,0.5,0.5,1,0.5,0.5,0.5,1","0.5,0.5,1,1,0.5,0.5,0.5,1,0.5","2","",""
"","html-keyboard-response","322","92157","0.0-322.0","3EWIJTFFVPTA5HW56M3XAHRFWH0E0N","A16ENVVHDK1LQQ","3S1L4CQSFXRWQOWP2XFUSMS4AZDFAL","","null","<img src=""img/land5.png"" style=""width:200px;border:14px solid red;"">","null","","","","","","","","","",""
"","image-keyboard-response","323","92276","0.0-323.0","3EWIJTFFVPTA5HW56M3XAHRFWH0E0N","A16ENVVHDK1LQQ","3S1L4CQSFXRWQOWP2XFUSMS4AZDFAL","","116","img/land4.png","75","117","2","1","3","2","1,0.5,0.5,0.5,1,0.5,0.5,0.5,1","0.5,0.5,1,1,0.5,0.5,0.5,1,0.5","2","",""
"","html-keyboard-response","324","92576","0.0-324.0","3EWIJTFFVPTA5HW56M3XAHRFWH0E0N","A16ENVVHDK1LQQ","3S1L4CQSFXRWQOWP2XFUSMS4AZDFAL","","null","<img src=""img/land4.png"" style=""width:200px; border:14px solid green;"">","null","","","","","","","","","",""
"","image-keyboard-response","325","92588","0.0-325.0","3EWIJTFFVPTA5HW56M3XAHRFWH0E0N","A16ENVVHDK1LQQ","3S1L4CQSFXRWQOWP2XFUSMS4AZDFAL","","9","img/land2.png","76","11","3","1","2","2","1,0.5,0.5,0.5,1,0.5,0.5,0.5,1","0.5,0.5,1,1,0.5,0.5,0.5,1,0.5","2","",""
"","html-keyboard-response","326","92891","0.0-326.0","3EWIJTFFVPTA5HW56M3XAHRFWH0E0N","A16ENVVHDK1LQQ","3S1L4CQSFXRWQOWP2XFUSMS4AZDFAL","","null","<img src=""img/land2.png"" style=""width:200px; border:14px solid green;"">","null","","","","","","","","","",""
"","image-keyboard-response","327","92978","0.0-327.0","3EWIJTFFVPTA5HW56M3XAHRFWH0E0N","A16ENVVHDK1LQQ","3S1L4CQSFXRWQOWP2XFUSMS4AZDFAL","","86","img/land5.png","76","87","3","1","1","2","1,0.5,0.5,0.5,1,0.5,0.5,0.5,1","0.5,0.5,1,1,0.5,0.5,0.5,1,0.5","2","",""
"","html-keyboard-response","328","93279","0.0-328.0","3EWIJTFFVPTA5HW56M3XAHRFWH0E0N","A16ENVVHDK1LQQ","3S1L4CQSFXRWQOWP2XFUSMS4AZDFAL","","null","<img src=""img/land5.png"" style=""width:200px; border:14px solid green;"">","null","","","","","","","","","",""
"","image-keyboard-response","329","93351","0.0-329.0","3EWIJTFFVPTA5HW56M3XAHRFWH0E0N","A16ENVVHDK1LQQ","3S1L4CQSFXRWQOWP2XFUSMS4AZDFAL","","68","img/land5.png","75","71","2","1","1","2","1,0.5,0.5,0.5,1,0.5,0.5,0.5,1","0.5,0.5,1,1,0.5,0.5,0.5,1,0.5","2","",""
"","html-keyboard-response","330","93653","0.0-330.0","3EWIJTFFVPTA5HW56M3XAHRFWH0E0N","A16ENVVHDK1LQQ","3S1L4CQSFXRWQOWP2XFUSMS4AZDFAL","","null","<img src=""img/land5.png"" style=""width:200px; border:14px solid green;"">","null","","","","","","","","","",""
"","image-keyboard-response","331","93712","0.0-331.0","3EWIJTFFVPTA5HW56M3XAHRFWH0E0N","A16ENVVHDK1LQQ","3S1L4CQSFXRWQOWP2XFUSMS4AZDFAL","","58","img/land5.png","75","58","2","1","1","2","1,0.5,0.5,0.5,1,0.5,0.5,0.5,1","0.5,0.5,1,1,0.5,0.5,0.5,1,0.5","2","",""
"","html-keyboard-response","332","94137","0.0-332.0","3EWIJTFFVPTA5HW56M3XAHRFWH0E0N","A16ENVVHDK1LQQ","3S1L4CQSFXRWQOWP2XFUSMS4AZDFAL","","null","<img src=""img/land5.png"" style=""width:200px; border:14px solid green;"">","null","","","","","","","","","",""
"","image-keyboard-response","333","94153","0.0-333.0","3EWIJTFFVPTA5HW56M3XAHRFWH0E0N","A16ENVVHDK1LQQ","3S1L4CQSFXRWQOWP2XFUSMS4AZDFAL","","15","img/land5.png","75","16","2","1","1","2","1,0.5,0.5,0.5,1,0.5,0.5,0.5,1","0.5,0.5,1,1,0.5,0.5,0.5,1,0.5","2","",""
"","html-keyboard-response","334","94455","0.0-334.0","3EWIJTFFVPTA5HW56M3XAHRFWH0E0N","A16ENVVHDK1LQQ","3S1L4CQSFXRWQOWP2XFUSMS4AZDFAL","","null","<img src=""img/land5.png"" style=""width:200px; border:14px solid green;"">","null","","","","","","","","","",""
"","image-keyboard-response","335","94461","0.0-335.0","3EWIJTFFVPTA5HW56M3XAHRFWH0E0N","A16ENVVHDK1LQQ","3S1L4CQSFXRWQOWP2XFUSMS4AZDFAL","","4","img/land5.png","74","5","1","0","1","2","1,0.5,0.5,0.5,1,0.5,0.5,0.5,1","0.5,0.5,1,1,0.5,0.5,0.5,1,0.5","2","",""
"","html-keyboard-response","336","94764","0.0-336.0","3EWIJTFFVPTA5HW56M3XAHRFWH0E0N","A16ENVVHDK1LQQ","3S1L4CQSFXRWQOWP2XFUSMS4AZDFAL","","null","<img src=""img/land5.png"" style=""width:200px;border:14px solid red;"">","null","","","","","","","","","",""
"","image-keyboard-response","337","94839","0.0-337.0","3EWIJTFFVPTA5HW56M3XAHRFWH0E0N","A16ENVVHDK1LQQ","3S1L4CQSFXRWQOWP2XFUSMS4AZDFAL","","73","img/land2.png","75","75","2","0","2","2","1,0.5,0.5,0.5,1,0.5,0.5,0.5,1","0.5,0.5,1,1,0.5,0.5,0.5,1,0.5","2","",""
"","html-keyboard-response","338","95142","0.0-338.0","3EWIJTFFVPTA5HW56M3XAHRFWH0E0N","A16ENVVHDK1LQQ","3S1L4CQSFXRWQOWP2XFUSMS4AZDFAL","","null","<img src=""img/land2.png"" style=""width:200px;border:14px solid red;"">","null","","","","","","","","","",""
"","image-keyboard-response","339","95174","0.0-339.0","3EWIJTFFVPTA5HW56M3XAHRFWH0E0N","A16ENVVHDK1LQQ","3S1L4CQSFXRWQOWP2XFUSMS4AZDFAL","","31","img/land5.png","76","31","3","1","1","2","1,0.5,0.5,0.5,1,0.5,0.5,0.5,1","0.5,0.5,1,1,0.5,0.5,0.5,1,0.5","2","",""
"","html-keyboard-response","340","95477","0.0-340.0","3EWIJTFFVPTA5HW56M3XAHRFWH0E0N","A16ENVVHDK1LQQ","3S1L4CQSFXRWQOWP2XFUSMS4AZDFAL","","null","<img src=""img/land5.png"" style=""width:200px; border:14px solid green;"">","null","","","","","","","","","",""
"","image-keyboard-response","341","95561","0.0-341.0","3EWIJTFFVPTA5HW56M3XAHRFWH0E0N","A16ENVVHDK1LQQ","3S1L4CQSFXRWQOWP2XFUSMS4AZDFAL","","76","img/land4.png","75","81","2","1","3","2","1,0.5,0.5,0.5,1,0.5,0.5,0.5,1","0.5,0.5,1,1,0.5,0.5,0.5,1,0.5","2","",""
"","html-keyboard-response","342","95864","0.0-342.0","3EWIJTFFVPTA5HW56M3XAHRFWH0E0N","A16ENVVHDK1LQQ","3S1L4CQSFXRWQOWP2XFUSMS4AZDFAL","","null","<img src=""img/land4.png"" style=""width:200px; border:14px solid green;"">","null","","","","","","","","","",""
"","image-keyboard-response","343","95970","0.0-343.0","3EWIJTFFVPTA5HW56M3XAHRFWH0E0N","A16ENVVHDK1LQQ","3S1L4CQSFXRWQOWP2XFUSMS4AZDFAL","","103","img/land5.png","75","105","2","0","1","2","1,0.5,0.5,0.5,1,0.5,0.5,0.5,1","0.5,0.5,1,1,0.5,0.5,0.5,1,0.5","2","",""
"","html-keyboard-response","344","96276","0.0-344.0","3EWIJTFFVPTA5HW56M3XAHRFWH0E0N","A16ENVVHDK1LQQ","3S1L4CQSFXRWQOWP2XFUSMS4AZDFAL","","null","<img src=""img/land5.png"" style=""width:200px;border:14px solid red;"">","null","","","","","","","","","",""
"","image-keyboard-response","345","96291","0.0-345.0","3EWIJTFFVPTA5HW56M3XAHRFWH0E0N","A16ENVVHDK1LQQ","3S1L4CQSFXRWQOWP2XFUSMS4AZDFAL","","13","img/land5.png","75","14","2","0","1","2","1,0.5,0.5,0.5,1,0.5,0.5,0.5,1","0.5,0.5,1,1,0.5,0.5,0.5,1,0.5","2","",""
"","html-keyboard-response","346","96595","0.0-346.0","3EWIJTFFVPTA5HW56M3XAHRFWH0E0N","A16ENVVHDK1LQQ","3S1L4CQSFXRWQOWP2XFUSMS4AZDFAL","","null","<img src=""img/land5.png"" style=""width:200px;border:14px solid red;"">","null","","","","","","","","","",""
"","image-keyboard-response","347","96623","0.0-347.0","3EWIJTFFVPTA5HW56M3XAHRFWH0E0N","A16ENVVHDK1LQQ","3S1L4CQSFXRWQOWP2XFUSMS4AZDFAL","","27","img/land5.png","74","29","1","1","1","2","1,0.5,0.5,0.5,1,0.5,0.5,0.5,1","0.5,0.5,1,1,0.5,0.5,0.5,1,0.5","2","",""
"","html-keyboard-response","348","96926","0.0-348.0","3EWIJTFFVPTA5HW56M3XAHRFWH0E0N","A16ENVVHDK1LQQ","3S1L4CQSFXRWQOWP2XFUSMS4AZDFAL","","null","<img src=""img/land5.png"" style=""width:200px; border:14px solid green;"">","null","","","","","","","","","",""
"","image-keyboard-response","349","96938","0.0-349.0","3EWIJTFFVPTA5HW56M3XAHRFWH0E0N","A16ENVVHDK1LQQ","3S1L4CQSFXRWQOWP2XFUSMS4AZDFAL","","10","img/land4.png","76","11","3","0","3","2","1,0.5,0.5,0.5,1,0.5,0.5,0.5,1","0.5,0.5,1,1,0.5,0.5,0.5,1,0.5","2","",""
"","html-keyboard-response","350","97239","0.0-350.0","3EWIJTFFVPTA5HW56M3XAHRFWH0E0N","A16ENVVHDK1LQQ","3S1L4CQSFXRWQOWP2XFUSMS4AZDFAL","","null","<img src=""img/land4.png"" style=""width:200px;border:14px solid red;"">","null","","","","","","","","","",""
"","image-keyboard-response","351","97339","0.0-351.0","3EWIJTFFVPTA5HW56M3XAHRFWH0E0N","A16ENVVHDK1LQQ","3S1L4CQSFXRWQOWP2XFUSMS4AZDFAL","","99","img/land5.png","74","103","1","1","1","2","1,0.5,0.5,0.5,1,0.5,0.5,0.5,1","0.5,0.5,1,1,0.5,0.5,0.5,1,0.5","2","",""
"","html-keyboard-response","352","97644","0.0-352.0","3EWIJTFFVPTA5HW56M3XAHRFWH0E0N","A16ENVVHDK1LQQ","3S1L4CQSFXRWQOWP2XFUSMS4AZDFAL","","null","<img src=""img/land5.png"" style=""width:200px; border:14px solid green;"">","null","","","","","","","","","",""
"","image-keyboard-response","353","97730","0.0-353.0","3EWIJTFFVPTA5HW56M3XAHRFWH0E0N","A16ENVVHDK1LQQ","3S1L4CQSFXRWQOWP2XFUSMS4AZDFAL","","84","img/land5.png","75","87","2","0","1","2","1,0.5,0.5,0.5,1,0.5,0.5,0.5,1","0.5,0.5,1,1,0.5,0.5,0.5,1,0.5","2","",""
"","html-keyboard-response","354","98037","0.0-354.0","3EWIJTFFVPTA5HW56M3XAHRFWH0E0N","A16ENVVHDK1LQQ","3S1L4CQSFXRWQOWP2XFUSMS4AZDFAL","","null","<img src=""img/land5.png"" style=""width:200px;border:14px solid red;"">","null","","","","","","","","","",""
"","image-keyboard-response","355","98099","0.0-355.0","3EWIJTFFVPTA5HW56M3XAHRFWH0E0N","A16ENVVHDK1LQQ","3S1L4CQSFXRWQOWP2XFUSMS4AZDFAL","","61","img/land5.png","75","62","2","1","1","2","1,0.5,0.5,0.5,1,0.5,0.5,0.5,1","0.5,0.5,1,1,0.5,0.5,0.5,1,0.5","2","",""
"","html-keyboard-response","356","98400","0.0-356.0","3EWIJTFFVPTA5HW56M3XAHRFWH0E0N","A16ENVVHDK1LQQ","3S1L4CQSFXRWQOWP2XFUSMS4AZDFAL","","null","<img src=""img/land5.png"" style=""width:200px; border:14px solid green;"">","null","","","","","","","","","",""
"","image-keyboard-response","357","98536","0.0-357.0","3EWIJTFFVPTA5HW56M3XAHRFWH0E0N","A16ENVVHDK1LQQ","3S1L4CQSFXRWQOWP2XFUSMS4AZDFAL","","134","img/land2.png","76","136","3","0","2","2","1,0.5,0.5,0.5,1,0.5,0.5,0.5,1","0.5,0.5,1,1,0.5,0.5,0.5,1,0.5","2","",""
"","html-keyboard-response","358","98840","0.0-358.0","3EWIJTFFVPTA5HW56M3XAHRFWH0E0N","A16ENVVHDK1LQQ","3S1L4CQSFXRWQOWP2XFUSMS4AZDFAL","","null","<img src=""img/land2.png"" style=""width:200px;border:14px solid red;"">","null","","","","","","","","","",""
"","image-keyboard-response","359","98900","0.0-359.0","3EWIJTFFVPTA5HW56M3XAHRFWH0E0N","A16ENVVHDK1LQQ","3S1L4CQSFXRWQOWP2XFUSMS4AZDFAL","","56","img/land4.png","75","59","2","1","3","2","1,0.5,0.5,0.5,1,0.5,0.5,0.5,1","0.5,0.5,1,1,0.5,0.5,0.5,1,0.5","2","",""
"","html-keyboard-response","360","99202","0.0-360.0","3EWIJTFFVPTA5HW56M3XAHRFWH0E0N","A16ENVVHDK1LQQ","3S1L4CQSFXRWQOWP2XFUSMS4AZDFAL","","null","<img src=""img/land4.png"" style=""width:200px; border:14px solid green;"">","null","","","","","","","","","",""
"","image-keyboard-response","361","99306","0.0-361.0","3EWIJTFFVPTA5HW56M3XAHRFWH0E0N","A16ENVVHDK1LQQ","3S1L4CQSFXRWQOWP2XFUSMS4AZDFAL","","102","img/land4.png","74","104","1","1","3","2","1,0.5,0.5,0.5,1,0.5,0.5,0.5,1","0.5,0.5,1,1,0.5,0.5,0.5,1,0.5","2","",""
"","html-keyboard-response","362","99609","0.0-362.0","3EWIJTFFVPTA5HW56M3XAHRFWH0E0N","A16ENVVHDK1LQQ","3S1L4CQSFXRWQOWP2XFUSMS4AZDFAL","","null","<img src=""img/land4.png"" style=""width:200px; border:14px solid green;"">","null","","","","","","","","","",""
"","image-keyboard-response","363","99704","0.0-363.0","3EWIJTFFVPTA5HW56M3XAHRFWH0E0N","A16ENVVHDK1LQQ","3S1L4CQSFXRWQOWP2XFUSMS4AZDFAL","","92","img/land5.png","75","94","2","1","1","2","1,0.5,0.5,0.5,1,0.5,0.5,0.5,1","0.5,0.5,1,1,0.5,0.5,0.5,1,0.5","2","",""
"","html-keyboard-response","364","100005","0.0-364.0","3EWIJTFFVPTA5HW56M3XAHRFWH0E0N","A16ENVVHDK1LQQ","3S1L4CQSFXRWQOWP2XFUSMS4AZDFAL","","null","<img src=""img/land5.png"" style=""width:200px; border:14px solid green;"">","null","","","","","","","","","",""
"","image-keyboard-response","365","100053","0.0-365.0","3EWIJTFFVPTA5HW56M3XAHRFWH0E0N","A16ENVVHDK1LQQ","3S1L4CQSFXRWQOWP2XFUSMS4AZDFAL","","46","img/land2.png","75","47","2","0","2","2","1,0.5,0.5,0.5,1,0.5,0.5,0.5,1","0.5,0.5,1,1,0.5,0.5,0.5,1,0.5","2","",""
"","html-keyboard-response","366","100354","0.0-366.0","3EWIJTFFVPTA5HW56M3XAHRFWH0E0N","A16ENVVHDK1LQQ","3S1L4CQSFXRWQOWP2XFUSMS4AZDFAL","","null","<img src=""img/land2.png"" style=""width:200px;border:14px solid red;"">","null","","","","","","","","","",""
"","image-keyboard-response","367","100428","0.0-367.0","3EWIJTFFVPTA5HW56M3XAHRFWH0E0N","A16ENVVHDK1LQQ","3S1L4CQSFXRWQOWP2XFUSMS4AZDFAL","","71","img/land2.png","76","73","3","0","2","2","1,0.5,0.5,0.5,1,0.5,0.5,0.5,1","0.5,0.5,1,1,0.5,0.5,0.5,1,0.5","2","",""
"","html-keyboard-response","368","100731","0.0-368.0","3EWIJTFFVPTA5HW56M3XAHRFWH0E0N","A16ENVVHDK1LQQ","3S1L4CQSFXRWQOWP2XFUSMS4AZDFAL","","null","<img src=""img/land2.png"" style=""width:200px;border:14px solid red;"">","null","","","","","","","","","",""
"","image-keyboard-response","369","100844","0.0-369.0","3EWIJTFFVPTA5HW56M3XAHRFWH0E0N","A16ENVVHDK1LQQ","3S1L4CQSFXRWQOWP2XFUSMS4AZDFAL","","110","img/land2.png","75","112","2","1","2","2","1,0.5,0.5,0.5,1,0.5,0.5,0.5,1","0.5,0.5,1,1,0.5,0.5,0.5,1,0.5","2","",""
"","html-keyboard-response","370","101147","0.0-370.0","3EWIJTFFVPTA5HW56M3XAHRFWH0E0N","A16ENVVHDK1LQQ","3S1L4CQSFXRWQOWP2XFUSMS4AZDFAL","","null","<img src=""img/land2.png"" style=""width:200px; border:14px solid green;"">","null","","","","","","","","","",""
"","image-keyboard-response","371","101202","0.0-371.0","3EWIJTFFVPTA5HW56M3XAHRFWH0E0N","A16ENVVHDK1LQQ","3S1L4CQSFXRWQOWP2XFUSMS4AZDFAL","","51","img/land5.png","75","53","2","0","1","2","1,0.5,0.5,0.5,1,0.5,0.5,0.5,1","0.5,0.5,1,1,0.5,0.5,0.5,1,0.5","2","",""
"","html-keyboard-response","372","101505","0.0-372.0","3EWIJTFFVPTA5HW56M3XAHRFWH0E0N","A16ENVVHDK1LQQ","3S1L4CQSFXRWQOWP2XFUSMS4AZDFAL","","null","<img src=""img/land5.png"" style=""width:200px;border:14px solid red;"">","null","","","","","","","","","",""
"","image-keyboard-response","373","101619","0.0-373.0","3EWIJTFFVPTA5HW56M3XAHRFWH0E0N","A16ENVVHDK1LQQ","3S1L4CQSFXRWQOWP2XFUSMS4AZDFAL","","112","img/land5.png","74","114","1","0","1","2","1,0.5,0.5,0.5,1,0.5,0.5,0.5,1","0.5,0.5,1,1,0.5,0.5,0.5,1,0.5","2","",""
"","html-keyboard-response","374","101920","0.0-374.0","3EWIJTFFVPTA5HW56M3XAHRFWH0E0N","A16ENVVHDK1LQQ","3S1L4CQSFXRWQOWP2XFUSMS4AZDFAL","","null","<img src=""img/land5.png"" style=""width:200px;border:14px solid red;"">","null","","","","","","","","","",""
"","image-keyboard-response","375","101988","0.0-375.0","3EWIJTFFVPTA5HW56M3XAHRFWH0E0N","A16ENVVHDK1LQQ","3S1L4CQSFXRWQOWP2XFUSMS4AZDFAL","","67","img/land4.png","76","68","3","0","3","2","1,0.5,0.5,0.5,1,0.5,0.5,0.5,1","0.5,0.5,1,1,0.5,0.5,0.5,1,0.5","2","",""
"","html-keyboard-response","376","102289","0.0-376.0","3EWIJTFFVPTA5HW56M3XAHRFWH0E0N","A16ENVVHDK1LQQ","3S1L4CQSFXRWQOWP2XFUSMS4AZDFAL","","null","<img src=""img/land4.png"" style=""width:200px;border:14px solid red;"">","null","","","","","","","","","",""
"","image-keyboard-response","377","102441","0.0-377.0","3EWIJTFFVPTA5HW56M3XAHRFWH0E0N","A16ENVVHDK1LQQ","3S1L4CQSFXRWQOWP2XFUSMS4AZDFAL","","149","img/land4.png","75","151","2","1","3","2","1,0.5,0.5,0.5,1,0.5,0.5,0.5,1","0.5,0.5,1,1,0.5,0.5,0.5,1,0.5","2","",""
"","html-keyboard-response","378","102742","0.0-378.0","3EWIJTFFVPTA5HW56M3XAHRFWH0E0N","A16ENVVHDK1LQQ","3S1L4CQSFXRWQOWP2XFUSMS4AZDFAL","","null","<img src=""img/land4.png"" style=""width:200px; border:14px solid green;"">","null","","","","","","","","","",""
"","image-keyboard-response","379","102819","0.0-379.0","3EWIJTFFVPTA5HW56M3XAHRFWH0E0N","A16ENVVHDK1LQQ","3S1L4CQSFXRWQOWP2XFUSMS4AZDFAL","","76","img/land5.png","74","76","1","0","1","2","1,0.5,0.5,0.5,1,0.5,0.5,0.5,1","0.5,0.5,1,1,0.5,0.5,0.5,1,0.5","2","",""
"","html-keyboard-response","380","103121","0.0-380.0","3EWIJTFFVPTA5HW56M3XAHRFWH0E0N","A16ENVVHDK1LQQ","3S1L4CQSFXRWQOWP2XFUSMS4AZDFAL","","null","<img src=""img/land5.png"" style=""width:200px;border:14px solid red;"">","null","","","","","","","","","",""
