"success","trial_type","trial_index","time_elapsed","internal_node_id","assignmentID","mturkID","hitID","view_history","rt","stimulus","key_press","reactionTime","a","r","s","cond","reward_cond","reward_cond_actual","reward_matrix_idx","responses","question_order"
"true","fullscreen","0","2362","0.0-0.0","3WJEQKOXA9O7MT0BM05BS3KYGLI1AA","A16K7X677N4WN6","356TQKY9XFJ5S7O4NGX4839SMMP87Z","","","","","","","","","","","","","",""
"","instructions","1","21194","0.0-1.0","3WJEQKOXA9O7MT0BM05BS3KYGLI1AA","A16K7X677N4WN6","356TQKY9XFJ5S7O4NGX4839SMMP87Z","[{""page_index"":0,""viewing_time"":1732},{""page_index"":1,""viewing_time"":3001},{""page_index"":2,""viewing_time"":1723},{""page_index"":3,""viewing_time"":3332},{""page_index"":4,""viewing_time"":3073},{""page_index"":5,""viewing_time"":4057},{""page_index"":6,""viewing_time"":1909}]","18828","","","","","","","","","","","",""
"","image-keyboard-response","2","22253","0.0-2.0","3WJEQKOXA9O7MT0BM05BS3KYGLI1AA","A16K7X677N4WN6","356TQKY9XFJ5S7O4NGX4839SMMP87Z","","1052","img/land2.png","74","1056","1","0","2","2","1,0.5,0.5,0.5,1,0.5,0.5,0.5,1","1,0.5,0.5,0.5,1,0.5,0.5,0.5,1","","",""
"","html-keyboard-response","3","22591","0.0-3.0","3WJEQKOXA9O7MT0BM05BS3KYGLI1AA","A16K7X677N4WN6","356TQKY9XFJ5S7O4NGX4839SMMP87Z","","null","<img src=""img/land2.png"" style=""width:200px;border:14px solid red;"">","null","","","","","","","","","",""
"","image-keyboard-response","4","23019","0.0-4.0","3WJEQKOXA9O7MT0BM05BS3KYGLI1AA","A16K7X677N4WN6","356TQKY9XFJ5S7O4NGX4839SMMP87Z","","425","img/land2.png","75","427","2","1","2","2","1,0.5,0.5,0.5,1,0.5,0.5,0.5,1","1,0.5,0.5,0.5,1,0.5,0.5,0.5,1","","",""
"","html-keyboard-response","5","23322","0.0-5.0","3WJEQKOXA9O7MT0BM05BS3KYGLI1AA","A16K7X677N4WN6","356TQKY9XFJ5S7O4NGX4839SMMP87Z","","null","<img src=""img/land2.png"" style=""width:200px; border:14px solid green;"">","null","","","","","","","","","",""
"","image-keyboard-response","6","24156","0.0-6.0","3WJEQKOXA9O7MT0BM05BS3KYGLI1AA","A16K7X677N4WN6","356TQKY9XFJ5S7O4NGX4839SMMP87Z","","832","img/land1.png","75","832","2","0","1","2","1,0.5,0.5,0.5,1,0.5,0.5,0.5,1","1,0.5,0.5,0.5,1,0.5,0.5,0.5,1","","",""
"","html-keyboard-response","7","24457","0.0-7.0","3WJEQKOXA9O7MT0BM05BS3KYGLI1AA","A16K7X677N4WN6","356TQKY9XFJ5S7O4NGX4839SMMP87Z","","null","<img src=""img/land1.png"" style=""width:200px;border:14px solid red;"">","null","","","","","","","","","",""
"","image-keyboard-response","8","24986","0.0-8.0","3WJEQKOXA9O7MT0BM05BS3KYGLI1AA","A16K7X677N4WN6","356TQKY9XFJ5S7O4NGX4839SMMP87Z","","527","img/land1.png","75","528","2","0","1","2","1,0.5,0.5,0.5,1,0.5,0.5,0.5,1","1,0.5,0.5,0.5,1,0.5,0.5,0.5,1","","",""
"","html-keyboard-response","9","25288","0.0-9.0","3WJEQKOXA9O7MT0BM05BS3KYGLI1AA","A16K7X677N4WN6","356TQKY9XFJ5S7O4NGX4839SMMP87Z","","null","<img src=""img/land1.png"" style=""width:200px;border:14px solid red;"">","null","","","","","","","","","",""
"","image-keyboard-response","10","25692","0.0-10.0","3WJEQKOXA9O7MT0BM05BS3KYGLI1AA","A16K7X677N4WN6","356TQKY9XFJ5S7O4NGX4839SMMP87Z","","401","img/land1.png","74","403","1","1","1","2","1,0.5,0.5,0.5,1,0.5,0.5,0.5,1","1,0.5,0.5,0.5,1,0.5,0.5,0.5,1","","",""
"","html-keyboard-response","11","25995","0.0-11.0","3WJEQKOXA9O7MT0BM05BS3KYGLI1AA","A16K7X677N4WN6","356TQKY9XFJ5S7O4NGX4839SMMP87Z","","null","<img src=""img/land1.png"" style=""width:200px; border:14px solid green;"">","null","","","","","","","","","",""
"","image-keyboard-response","12","27332","0.0-12.0","3WJEQKOXA9O7MT0BM05BS3KYGLI1AA","A16K7X677N4WN6","356TQKY9XFJ5S7O4NGX4839SMMP87Z","","1335","img/land3.png","76","1336","3","1","3","2","1,0.5,0.5,0.5,1,0.5,0.5,0.5,1","1,0.5,0.5,0.5,1,0.5,0.5,0.5,1","","",""
"","html-keyboard-response","13","27634","0.0-13.0","3WJEQKOXA9O7MT0BM05BS3KYGLI1AA","A16K7X677N4WN6","356TQKY9XFJ5S7O4NGX4839SMMP87Z","","null","<img src=""img/land3.png"" style=""width:200px; border:14px solid green;"">","null","","","","","","","","","",""
"","image-keyboard-response","14","27946","0.0-14.0","3WJEQKOXA9O7MT0BM05BS3KYGLI1AA","A16K7X677N4WN6","356TQKY9XFJ5S7O4NGX4839SMMP87Z","","311","img/land3.png","76","312","3","1","3","2","1,0.5,0.5,0.5,1,0.5,0.5,0.5,1","1,0.5,0.5,0.5,1,0.5,0.5,0.5,1","","",""
"","html-keyboard-response","15","28248","0.0-15.0","3WJEQKOXA9O7MT0BM05BS3KYGLI1AA","A16K7X677N4WN6","356TQKY9XFJ5S7O4NGX4839SMMP87Z","","null","<img src=""img/land3.png"" style=""width:200px; border:14px solid green;"">","null","","","","","","","","","",""
"","image-keyboard-response","16","29219","0.0-16.0","3WJEQKOXA9O7MT0BM05BS3KYGLI1AA","A16K7X677N4WN6","356TQKY9XFJ5S7O4NGX4839SMMP87Z","","970","img/land1.png","74","971","1","1","1","2","1,0.5,0.5,0.5,1,0.5,0.5,0.5,1","1,0.5,0.5,0.5,1,0.5,0.5,0.5,1","","",""
"","html-keyboard-response","17","29521","0.0-17.0","3WJEQKOXA9O7MT0BM05BS3KYGLI1AA","A16K7X677N4WN6","356TQKY9XFJ5S7O4NGX4839SMMP87Z","","null","<img src=""img/land1.png"" style=""width:200px; border:14px solid green;"">","null","","","","","","","","","",""
"","image-keyboard-response","18","29802","0.0-18.0","3WJEQKOXA9O7MT0BM05BS3KYGLI1AA","A16K7X677N4WN6","356TQKY9XFJ5S7O4NGX4839SMMP87Z","","281","img/land1.png","74","282","1","1","1","2","1,0.5,0.5,0.5,1,0.5,0.5,0.5,1","1,0.5,0.5,0.5,1,0.5,0.5,0.5,1","","",""
"","html-keyboard-response","19","30103","0.0-19.0","3WJEQKOXA9O7MT0BM05BS3KYGLI1AA","A16K7X677N4WN6","356TQKY9XFJ5S7O4NGX4839SMMP87Z","","null","<img src=""img/land1.png"" style=""width:200px; border:14px solid green;"">","null","","","","","","","","","",""
"","image-keyboard-response","20","30483","0.0-20.0","3WJEQKOXA9O7MT0BM05BS3KYGLI1AA","A16K7X677N4WN6","356TQKY9XFJ5S7O4NGX4839SMMP87Z","","378","img/land1.png","74","380","1","1","1","2","1,0.5,0.5,0.5,1,0.5,0.5,0.5,1","1,0.5,0.5,0.5,1,0.5,0.5,0.5,1","","",""
"","html-keyboard-response","21","30785","0.0-21.0","3WJEQKOXA9O7MT0BM05BS3KYGLI1AA","A16K7X677N4WN6","356TQKY9XFJ5S7O4NGX4839SMMP87Z","","null","<img src=""img/land1.png"" style=""width:200px; border:14px solid green;"">","null","","","","","","","","","",""
"","image-keyboard-response","22","31067","0.0-22.0","3WJEQKOXA9O7MT0BM05BS3KYGLI1AA","A16K7X677N4WN6","356TQKY9XFJ5S7O4NGX4839SMMP87Z","","280","img/land1.png","74","281","1","1","1","2","1,0.5,0.5,0.5,1,0.5,0.5,0.5,1","1,0.5,0.5,0.5,1,0.5,0.5,0.5,1","","",""
"","html-keyboard-response","23","31395","0.0-23.0","3WJEQKOXA9O7MT0BM05BS3KYGLI1AA","A16K7X677N4WN6","356TQKY9XFJ5S7O4NGX4839SMMP87Z","","null","<img src=""img/land1.png"" style=""width:200px; border:14px solid green;"">","null","","","","","","","","","",""
"","image-keyboard-response","24","31676","0.0-24.0","3WJEQKOXA9O7MT0BM05BS3KYGLI1AA","A16K7X677N4WN6","356TQKY9XFJ5S7O4NGX4839SMMP87Z","","278","img/land1.png","74","280","1","1","1","2","1,0.5,0.5,0.5,1,0.5,0.5,0.5,1","1,0.5,0.5,0.5,1,0.5,0.5,0.5,1","","",""
"","html-keyboard-response","25","31977","0.0-25.0","3WJEQKOXA9O7MT0BM05BS3KYGLI1AA","A16K7X677N4WN6","356TQKY9XFJ5S7O4NGX4839SMMP87Z","","null","<img src=""img/land1.png"" style=""width:200px; border:14px solid green;"">","null","","","","","","","","","",""
"","image-keyboard-response","26","32275","0.0-26.0","3WJEQKOXA9O7MT0BM05BS3KYGLI1AA","A16K7X677N4WN6","356TQKY9XFJ5S7O4NGX4839SMMP87Z","","296","img/land1.png","74","297","1","1","1","2","1,0.5,0.5,0.5,1,0.5,0.5,0.5,1","1,0.5,0.5,0.5,1,0.5,0.5,0.5,1","","",""
"","html-keyboard-response","27","32576","0.0-27.0","3WJEQKOXA9O7MT0BM05BS3KYGLI1AA","A16K7X677N4WN6","356TQKY9XFJ5S7O4NGX4839SMMP87Z","","null","<img src=""img/land1.png"" style=""width:200px; border:14px solid green;"">","null","","","","","","","","","",""
"","image-keyboard-response","28","32877","0.0-28.0","3WJEQKOXA9O7MT0BM05BS3KYGLI1AA","A16K7X677N4WN6","356TQKY9XFJ5S7O4NGX4839SMMP87Z","","299","img/land1.png","74","300","1","1","1","2","1,0.5,0.5,0.5,1,0.5,0.5,0.5,1","1,0.5,0.5,0.5,1,0.5,0.5,0.5,1","","",""
"","html-keyboard-response","29","33178","0.0-29.0","3WJEQKOXA9O7MT0BM05BS3KYGLI1AA","A16K7X677N4WN6","356TQKY9XFJ5S7O4NGX4839SMMP87Z","","null","<img src=""img/land1.png"" style=""width:200px; border:14px solid green;"">","null","","","","","","","","","",""
"","image-keyboard-response","30","33506","0.0-30.0","3WJEQKOXA9O7MT0BM05BS3KYGLI1AA","A16K7X677N4WN6","356TQKY9XFJ5S7O4NGX4839SMMP87Z","","326","img/land1.png","74","327","1","1","1","2","1,0.5,0.5,0.5,1,0.5,0.5,0.5,1","1,0.5,0.5,0.5,1,0.5,0.5,0.5,1","","",""
"","html-keyboard-response","31","33807","0.0-31.0","3WJEQKOXA9O7MT0BM05BS3KYGLI1AA","A16K7X677N4WN6","356TQKY9XFJ5S7O4NGX4839SMMP87Z","","null","<img src=""img/land1.png"" style=""width:200px; border:14px solid green;"">","null","","","","","","","","","",""
"","image-keyboard-response","32","34131","0.0-32.0","3WJEQKOXA9O7MT0BM05BS3KYGLI1AA","A16K7X677N4WN6","356TQKY9XFJ5S7O4NGX4839SMMP87Z","","322","img/land1.png","74","323","1","1","1","2","1,0.5,0.5,0.5,1,0.5,0.5,0.5,1","1,0.5,0.5,0.5,1,0.5,0.5,0.5,1","","",""
"","html-keyboard-response","33","34432","0.0-33.0","3WJEQKOXA9O7MT0BM05BS3KYGLI1AA","A16K7X677N4WN6","356TQKY9XFJ5S7O4NGX4839SMMP87Z","","null","<img src=""img/land1.png"" style=""width:200px; border:14px solid green;"">","null","","","","","","","","","",""
"","image-keyboard-response","34","34723","0.0-34.0","3WJEQKOXA9O7MT0BM05BS3KYGLI1AA","A16K7X677N4WN6","356TQKY9XFJ5S7O4NGX4839SMMP87Z","","289","img/land1.png","74","291","1","1","1","2","1,0.5,0.5,0.5,1,0.5,0.5,0.5,1","1,0.5,0.5,0.5,1,0.5,0.5,0.5,1","","",""
"","html-keyboard-response","35","35025","0.0-35.0","3WJEQKOXA9O7MT0BM05BS3KYGLI1AA","A16K7X677N4WN6","356TQKY9XFJ5S7O4NGX4839SMMP87Z","","null","<img src=""img/land1.png"" style=""width:200px; border:14px solid green;"">","null","","","","","","","","","",""
"","image-keyboard-response","36","35987","0.0-36.0","3WJEQKOXA9O7MT0BM05BS3KYGLI1AA","A16K7X677N4WN6","356TQKY9XFJ5S7O4NGX4839SMMP87Z","","960","img/land2.png","75","962","2","1","2","2","1,0.5,0.5,0.5,1,0.5,0.5,0.5,1","1,0.5,0.5,0.5,1,0.5,0.5,0.5,1","","",""
"","html-keyboard-response","37","36288","0.0-37.0","3WJEQKOXA9O7MT0BM05BS3KYGLI1AA","A16K7X677N4WN6","356TQKY9XFJ5S7O4NGX4839SMMP87Z","","null","<img src=""img/land2.png"" style=""width:200px; border:14px solid green;"">","null","","","","","","","","","",""
"","image-keyboard-response","38","36539","0.0-38.0","3WJEQKOXA9O7MT0BM05BS3KYGLI1AA","A16K7X677N4WN6","356TQKY9XFJ5S7O4NGX4839SMMP87Z","","249","img/land1.png","75","251","2","0","1","2","1,0.5,0.5,0.5,1,0.5,0.5,0.5,1","1,0.5,0.5,0.5,1,0.5,0.5,0.5,1","","",""
"","html-keyboard-response","39","36841","0.0-39.0","3WJEQKOXA9O7MT0BM05BS3KYGLI1AA","A16K7X677N4WN6","356TQKY9XFJ5S7O4NGX4839SMMP87Z","","null","<img src=""img/land1.png"" style=""width:200px;border:14px solid red;"">","null","","","","","","","","","",""
"","image-keyboard-response","40","37044","0.0-40.0","3WJEQKOXA9O7MT0BM05BS3KYGLI1AA","A16K7X677N4WN6","356TQKY9XFJ5S7O4NGX4839SMMP87Z","","201","img/land2.png","74","203","1","0","2","2","1,0.5,0.5,0.5,1,0.5,0.5,0.5,1","1,0.5,0.5,0.5,1,0.5,0.5,0.5,1","","",""
"","html-keyboard-response","41","37345","0.0-41.0","3WJEQKOXA9O7MT0BM05BS3KYGLI1AA","A16K7X677N4WN6","356TQKY9XFJ5S7O4NGX4839SMMP87Z","","null","<img src=""img/land2.png"" style=""width:200px;border:14px solid red;"">","null","","","","","","","","","",""
"","image-keyboard-response","42","37780","0.0-42.0","3WJEQKOXA9O7MT0BM05BS3KYGLI1AA","A16K7X677N4WN6","356TQKY9XFJ5S7O4NGX4839SMMP87Z","","432","img/land2.png","75","433","2","1","2","2","1,0.5,0.5,0.5,1,0.5,0.5,0.5,1","1,0.5,0.5,0.5,1,0.5,0.5,0.5,1","","",""
"","html-keyboard-response","43","38082","0.0-43.0","3WJEQKOXA9O7MT0BM05BS3KYGLI1AA","A16K7X677N4WN6","356TQKY9XFJ5S7O4NGX4839SMMP87Z","","null","<img src=""img/land2.png"" style=""width:200px; border:14px solid green;"">","null","","","","","","","","","",""
"","image-keyboard-response","44","38650","0.0-44.0","3WJEQKOXA9O7MT0BM05BS3KYGLI1AA","A16K7X677N4WN6","356TQKY9XFJ5S7O4NGX4839SMMP87Z","","567","img/land1.png","74","568","1","1","1","2","1,0.5,0.5,0.5,1,0.5,0.5,0.5,1","1,0.5,0.5,0.5,1,0.5,0.5,0.5,1","","",""
"","html-keyboard-response","45","38951","0.0-45.0","3WJEQKOXA9O7MT0BM05BS3KYGLI1AA","A16K7X677N4WN6","356TQKY9XFJ5S7O4NGX4839SMMP87Z","","null","<img src=""img/land1.png"" style=""width:200px; border:14px solid green;"">","null","","","","","","","","","",""
"","image-keyboard-response","46","39491","0.0-46.0","3WJEQKOXA9O7MT0BM05BS3KYGLI1AA","A16K7X677N4WN6","356TQKY9XFJ5S7O4NGX4839SMMP87Z","","539","img/land3.png","76","540","3","1","3","2","1,0.5,0.5,0.5,1,0.5,0.5,0.5,1","1,0.5,0.5,0.5,1,0.5,0.5,0.5,1","","",""
"","html-keyboard-response","47","39792","0.0-47.0","3WJEQKOXA9O7MT0BM05BS3KYGLI1AA","A16K7X677N4WN6","356TQKY9XFJ5S7O4NGX4839SMMP87Z","","null","<img src=""img/land3.png"" style=""width:200px; border:14px solid green;"">","null","","","","","","","","","",""
"","image-keyboard-response","48","40082","0.0-48.0","3WJEQKOXA9O7MT0BM05BS3KYGLI1AA","A16K7X677N4WN6","356TQKY9XFJ5S7O4NGX4839SMMP87Z","","288","img/land3.png","76","288","3","1","3","2","1,0.5,0.5,0.5,1,0.5,0.5,0.5,1","1,0.5,0.5,0.5,1,0.5,0.5,0.5,1","","",""
"","html-keyboard-response","49","40384","0.0-49.0","3WJEQKOXA9O7MT0BM05BS3KYGLI1AA","A16K7X677N4WN6","356TQKY9XFJ5S7O4NGX4839SMMP87Z","","null","<img src=""img/land3.png"" style=""width:200px; border:14px solid green;"">","null","","","","","","","","","",""
"","image-keyboard-response","50","40650","0.0-50.0","3WJEQKOXA9O7MT0BM05BS3KYGLI1AA","A16K7X677N4WN6","356TQKY9XFJ5S7O4NGX4839SMMP87Z","","266","img/land3.png","76","266","3","1","3","2","1,0.5,0.5,0.5,1,0.5,0.5,0.5,1","1,0.5,0.5,0.5,1,0.5,0.5,0.5,1","","",""
"","html-keyboard-response","51","40952","0.0-51.0","3WJEQKOXA9O7MT0BM05BS3KYGLI1AA","A16K7X677N4WN6","356TQKY9XFJ5S7O4NGX4839SMMP87Z","","null","<img src=""img/land3.png"" style=""width:200px; border:14px solid green;"">","null","","","","","","","","","",""
"","image-keyboard-response","52","41219","0.0-52.0","3WJEQKOXA9O7MT0BM05BS3KYGLI1AA","A16K7X677N4WN6","356TQKY9XFJ5S7O4NGX4839SMMP87Z","","266","img/land3.png","76","266","3","1","3","2","1,0.5,0.5,0.5,1,0.5,0.5,0.5,1","1,0.5,0.5,0.5,1,0.5,0.5,0.5,1","","",""
"","html-keyboard-response","53","41521","0.0-53.0","3WJEQKOXA9O7MT0BM05BS3KYGLI1AA","A16K7X677N4WN6","356TQKY9XFJ5S7O4NGX4839SMMP87Z","","null","<img src=""img/land3.png"" style=""width:200px; border:14px solid green;"">","null","","","","","","","","","",""
"","image-keyboard-response","54","42387","0.0-54.0","3WJEQKOXA9O7MT0BM05BS3KYGLI1AA","A16K7X677N4WN6","356TQKY9XFJ5S7O4NGX4839SMMP87Z","","865","img/land1.png","75","865","2","0","1","2","1,0.5,0.5,0.5,1,0.5,0.5,0.5,1","1,0.5,0.5,0.5,1,0.5,0.5,0.5,1","","",""
"","html-keyboard-response","55","42688","0.0-55.0","3WJEQKOXA9O7MT0BM05BS3KYGLI1AA","A16K7X677N4WN6","356TQKY9XFJ5S7O4NGX4839SMMP87Z","","null","<img src=""img/land1.png"" style=""width:200px;border:14px solid red;"">","null","","","","","","","","","",""
"","image-keyboard-response","56","43507","0.0-56.0","3WJEQKOXA9O7MT0BM05BS3KYGLI1AA","A16K7X677N4WN6","356TQKY9XFJ5S7O4NGX4839SMMP87Z","","817","img/land2.png","75","819","2","1","2","2","1,0.5,0.5,0.5,1,0.5,0.5,0.5,1","1,0.5,0.5,0.5,1,0.5,0.5,0.5,1","","",""
"","html-keyboard-response","57","43809","0.0-57.0","3WJEQKOXA9O7MT0BM05BS3KYGLI1AA","A16K7X677N4WN6","356TQKY9XFJ5S7O4NGX4839SMMP87Z","","null","<img src=""img/land2.png"" style=""width:200px; border:14px solid green;"">","null","","","","","","","","","",""
"","image-keyboard-response","58","44435","0.0-58.0","3WJEQKOXA9O7MT0BM05BS3KYGLI1AA","A16K7X677N4WN6","356TQKY9XFJ5S7O4NGX4839SMMP87Z","","625","img/land3.png","76","627","3","1","3","2","1,0.5,0.5,0.5,1,0.5,0.5,0.5,1","1,0.5,0.5,0.5,1,0.5,0.5,0.5,1","","",""
"","html-keyboard-response","59","44737","0.0-59.0","3WJEQKOXA9O7MT0BM05BS3KYGLI1AA","A16K7X677N4WN6","356TQKY9XFJ5S7O4NGX4839SMMP87Z","","null","<img src=""img/land3.png"" style=""width:200px; border:14px solid green;"">","null","","","","","","","","","",""
"","image-keyboard-response","60","45026","0.0-60.0","3WJEQKOXA9O7MT0BM05BS3KYGLI1AA","A16K7X677N4WN6","356TQKY9XFJ5S7O4NGX4839SMMP87Z","","289","img/land3.png","76","290","3","1","3","2","1,0.5,0.5,0.5,1,0.5,0.5,0.5,1","1,0.5,0.5,0.5,1,0.5,0.5,0.5,1","","",""
"","html-keyboard-response","61","45329","0.0-61.0","3WJEQKOXA9O7MT0BM05BS3KYGLI1AA","A16K7X677N4WN6","356TQKY9XFJ5S7O4NGX4839SMMP87Z","","null","<img src=""img/land3.png"" style=""width:200px; border:14px solid green;"">","null","","","","","","","","","",""
"","image-keyboard-response","62","46171","0.0-62.0","3WJEQKOXA9O7MT0BM05BS3KYGLI1AA","A16K7X677N4WN6","356TQKY9XFJ5S7O4NGX4839SMMP87Z","","842","img/land1.png","74","842","1","1","1","2","1,0.5,0.5,0.5,1,0.5,0.5,0.5,1","1,0.5,0.5,0.5,1,0.5,0.5,0.5,1","","",""
"","html-keyboard-response","63","46473","0.0-63.0","3WJEQKOXA9O7MT0BM05BS3KYGLI1AA","A16K7X677N4WN6","356TQKY9XFJ5S7O4NGX4839SMMP87Z","","null","<img src=""img/land1.png"" style=""width:200px; border:14px solid green;"">","null","","","","","","","","","",""
"","image-keyboard-response","64","46747","0.0-64.0","3WJEQKOXA9O7MT0BM05BS3KYGLI1AA","A16K7X677N4WN6","356TQKY9XFJ5S7O4NGX4839SMMP87Z","","272","img/land1.png","74","273","1","1","1","2","1,0.5,0.5,0.5,1,0.5,0.5,0.5,1","1,0.5,0.5,0.5,1,0.5,0.5,0.5,1","","",""
"","html-keyboard-response","65","47048","0.0-65.0","3WJEQKOXA9O7MT0BM05BS3KYGLI1AA","A16K7X677N4WN6","356TQKY9XFJ5S7O4NGX4839SMMP87Z","","null","<img src=""img/land1.png"" style=""width:200px; border:14px solid green;"">","null","","","","","","","","","",""
"","image-keyboard-response","66","47635","0.0-66.0","3WJEQKOXA9O7MT0BM05BS3KYGLI1AA","A16K7X677N4WN6","356TQKY9XFJ5S7O4NGX4839SMMP87Z","","586","img/land3.png","76","587","3","1","3","2","1,0.5,0.5,0.5,1,0.5,0.5,0.5,1","1,0.5,0.5,0.5,1,0.5,0.5,0.5,1","","",""
"","html-keyboard-response","67","47937","0.0-67.0","3WJEQKOXA9O7MT0BM05BS3KYGLI1AA","A16K7X677N4WN6","356TQKY9XFJ5S7O4NGX4839SMMP87Z","","null","<img src=""img/land3.png"" style=""width:200px; border:14px solid green;"">","null","","","","","","","","","",""
"","image-keyboard-response","68","48571","0.0-68.0","3WJEQKOXA9O7MT0BM05BS3KYGLI1AA","A16K7X677N4WN6","356TQKY9XFJ5S7O4NGX4839SMMP87Z","","632","img/land1.png","74","632","1","1","1","2","1,0.5,0.5,0.5,1,0.5,0.5,0.5,1","1,0.5,0.5,0.5,1,0.5,0.5,0.5,1","","",""
"","html-keyboard-response","69","48872","0.0-69.0","3WJEQKOXA9O7MT0BM05BS3KYGLI1AA","A16K7X677N4WN6","356TQKY9XFJ5S7O4NGX4839SMMP87Z","","null","<img src=""img/land1.png"" style=""width:200px; border:14px solid green;"">","null","","","","","","","","","",""
"","image-keyboard-response","70","49122","0.0-70.0","3WJEQKOXA9O7MT0BM05BS3KYGLI1AA","A16K7X677N4WN6","356TQKY9XFJ5S7O4NGX4839SMMP87Z","","249","img/land1.png","74","250","1","1","1","2","1,0.5,0.5,0.5,1,0.5,0.5,0.5,1","1,0.5,0.5,0.5,1,0.5,0.5,0.5,1","","",""
"","html-keyboard-response","71","49425","0.0-71.0","3WJEQKOXA9O7MT0BM05BS3KYGLI1AA","A16K7X677N4WN6","356TQKY9XFJ5S7O4NGX4839SMMP87Z","","null","<img src=""img/land1.png"" style=""width:200px; border:14px solid green;"">","null","","","","","","","","","",""
"","image-keyboard-response","72","49691","0.0-72.0","3WJEQKOXA9O7MT0BM05BS3KYGLI1AA","A16K7X677N4WN6","356TQKY9XFJ5S7O4NGX4839SMMP87Z","","265","img/land1.png","74","267","1","1","1","2","1,0.5,0.5,0.5,1,0.5,0.5,0.5,1","1,0.5,0.5,0.5,1,0.5,0.5,0.5,1","","",""
"","html-keyboard-response","73","49992","0.0-73.0","3WJEQKOXA9O7MT0BM05BS3KYGLI1AA","A16K7X677N4WN6","356TQKY9XFJ5S7O4NGX4839SMMP87Z","","null","<img src=""img/land1.png"" style=""width:200px; border:14px solid green;"">","null","","","","","","","","","",""
"","image-keyboard-response","74","50299","0.0-74.0","3WJEQKOXA9O7MT0BM05BS3KYGLI1AA","A16K7X677N4WN6","356TQKY9XFJ5S7O4NGX4839SMMP87Z","","306","img/land1.png","74","307","1","1","1","2","1,0.5,0.5,0.5,1,0.5,0.5,0.5,1","1,0.5,0.5,0.5,1,0.5,0.5,0.5,1","","",""
"","html-keyboard-response","75","50601","0.0-75.0","3WJEQKOXA9O7MT0BM05BS3KYGLI1AA","A16K7X677N4WN6","356TQKY9XFJ5S7O4NGX4839SMMP87Z","","null","<img src=""img/land1.png"" style=""width:200px; border:14px solid green;"">","null","","","","","","","","","",""
"","image-keyboard-response","76","50891","0.0-76.0","3WJEQKOXA9O7MT0BM05BS3KYGLI1AA","A16K7X677N4WN6","356TQKY9XFJ5S7O4NGX4839SMMP87Z","","288","img/land1.png","74","289","1","1","1","2","1,0.5,0.5,0.5,1,0.5,0.5,0.5,1","1,0.5,0.5,0.5,1,0.5,0.5,0.5,1","","",""
"","html-keyboard-response","77","51193","0.0-77.0","3WJEQKOXA9O7MT0BM05BS3KYGLI1AA","A16K7X677N4WN6","356TQKY9XFJ5S7O4NGX4839SMMP87Z","","null","<img src=""img/land1.png"" style=""width:200px; border:14px solid green;"">","null","","","","","","","","","",""
"","image-keyboard-response","78","51763","0.0-78.0","3WJEQKOXA9O7MT0BM05BS3KYGLI1AA","A16K7X677N4WN6","356TQKY9XFJ5S7O4NGX4839SMMP87Z","","569","img/land3.png","76","570","3","1","3","2","1,0.5,0.5,0.5,1,0.5,0.5,0.5,1","1,0.5,0.5,0.5,1,0.5,0.5,0.5,1","","",""
"","html-keyboard-response","79","52065","0.0-79.0","3WJEQKOXA9O7MT0BM05BS3KYGLI1AA","A16K7X677N4WN6","356TQKY9XFJ5S7O4NGX4839SMMP87Z","","null","<img src=""img/land3.png"" style=""width:200px; border:14px solid green;"">","null","","","","","","","","","",""
"","image-keyboard-response","80","52699","0.0-80.0","3WJEQKOXA9O7MT0BM05BS3KYGLI1AA","A16K7X677N4WN6","356TQKY9XFJ5S7O4NGX4839SMMP87Z","","632","img/land1.png","74","633","1","1","1","2","1,0.5,0.5,0.5,1,0.5,0.5,0.5,1","1,0.5,0.5,0.5,1,0.5,0.5,0.5,1","","",""
"","html-keyboard-response","81","53000","0.0-81.0","3WJEQKOXA9O7MT0BM05BS3KYGLI1AA","A16K7X677N4WN6","356TQKY9XFJ5S7O4NGX4839SMMP87Z","","null","<img src=""img/land1.png"" style=""width:200px; border:14px solid green;"">","null","","","","","","","","","",""
"","image-keyboard-response","82","53347","0.0-82.0","3WJEQKOXA9O7MT0BM05BS3KYGLI1AA","A16K7X677N4WN6","356TQKY9XFJ5S7O4NGX4839SMMP87Z","","346","img/land1.png","74","346","1","1","1","2","1,0.5,0.5,0.5,1,0.5,0.5,0.5,1","1,0.5,0.5,0.5,1,0.5,0.5,0.5,1","","",""
"","html-keyboard-response","83","53648","0.0-83.0","3WJEQKOXA9O7MT0BM05BS3KYGLI1AA","A16K7X677N4WN6","356TQKY9XFJ5S7O4NGX4839SMMP87Z","","null","<img src=""img/land1.png"" style=""width:200px; border:14px solid green;"">","null","","","","","","","","","",""
"","image-keyboard-response","84","53883","0.0-84.0","3WJEQKOXA9O7MT0BM05BS3KYGLI1AA","A16K7X677N4WN6","356TQKY9XFJ5S7O4NGX4839SMMP87Z","","232","img/land3.png","74","234","1","0","3","2","1,0.5,0.5,0.5,1,0.5,0.5,0.5,1","1,0.5,0.5,0.5,1,0.5,0.5,0.5,1","","",""
"","html-keyboard-response","85","54184","0.0-85.0","3WJEQKOXA9O7MT0BM05BS3KYGLI1AA","A16K7X677N4WN6","356TQKY9XFJ5S7O4NGX4839SMMP87Z","","null","<img src=""img/land3.png"" style=""width:200px;border:14px solid red;"">","null","","","","","","","","","",""
"","image-keyboard-response","86","54786","0.0-86.0","3WJEQKOXA9O7MT0BM05BS3KYGLI1AA","A16K7X677N4WN6","356TQKY9XFJ5S7O4NGX4839SMMP87Z","","602","img/land1.png","74","603","1","1","1","2","1,0.5,0.5,0.5,1,0.5,0.5,0.5,1","1,0.5,0.5,0.5,1,0.5,0.5,0.5,1","","",""
"","html-keyboard-response","87","55088","0.0-87.0","3WJEQKOXA9O7MT0BM05BS3KYGLI1AA","A16K7X677N4WN6","356TQKY9XFJ5S7O4NGX4839SMMP87Z","","null","<img src=""img/land1.png"" style=""width:200px; border:14px solid green;"">","null","","","","","","","","","",""
"","image-keyboard-response","88","55547","0.0-88.0","3WJEQKOXA9O7MT0BM05BS3KYGLI1AA","A16K7X677N4WN6","356TQKY9XFJ5S7O4NGX4839SMMP87Z","","456","img/land3.png","76","458","3","1","3","2","1,0.5,0.5,0.5,1,0.5,0.5,0.5,1","1,0.5,0.5,0.5,1,0.5,0.5,0.5,1","","",""
"","html-keyboard-response","89","55849","0.0-89.0","3WJEQKOXA9O7MT0BM05BS3KYGLI1AA","A16K7X677N4WN6","356TQKY9XFJ5S7O4NGX4839SMMP87Z","","null","<img src=""img/land3.png"" style=""width:200px; border:14px solid green;"">","null","","","","","","","","","",""
"","image-keyboard-response","90","56675","0.0-90.0","3WJEQKOXA9O7MT0BM05BS3KYGLI1AA","A16K7X677N4WN6","356TQKY9XFJ5S7O4NGX4839SMMP87Z","","825","img/land2.png","75","826","2","1","2","2","1,0.5,0.5,0.5,1,0.5,0.5,0.5,1","1,0.5,0.5,0.5,1,0.5,0.5,0.5,1","","",""
"","html-keyboard-response","91","56977","0.0-91.0","3WJEQKOXA9O7MT0BM05BS3KYGLI1AA","A16K7X677N4WN6","356TQKY9XFJ5S7O4NGX4839SMMP87Z","","null","<img src=""img/land2.png"" style=""width:200px; border:14px solid green;"">","null","","","","","","","","","",""
"","image-keyboard-response","92","57613","0.0-92.0","3WJEQKOXA9O7MT0BM05BS3KYGLI1AA","A16K7X677N4WN6","356TQKY9XFJ5S7O4NGX4839SMMP87Z","","636","img/land1.png","74","637","1","1","1","2","1,0.5,0.5,0.5,1,0.5,0.5,0.5,1","1,0.5,0.5,0.5,1,0.5,0.5,0.5,1","","",""
"","html-keyboard-response","93","57914","0.0-93.0","3WJEQKOXA9O7MT0BM05BS3KYGLI1AA","A16K7X677N4WN6","356TQKY9XFJ5S7O4NGX4839SMMP87Z","","null","<img src=""img/land1.png"" style=""width:200px; border:14px solid green;"">","null","","","","","","","","","",""
"","image-keyboard-response","94","58235","0.0-94.0","3WJEQKOXA9O7MT0BM05BS3KYGLI1AA","A16K7X677N4WN6","356TQKY9XFJ5S7O4NGX4839SMMP87Z","","319","img/land1.png","74","321","1","1","1","2","1,0.5,0.5,0.5,1,0.5,0.5,0.5,1","1,0.5,0.5,0.5,1,0.5,0.5,0.5,1","","",""
"","html-keyboard-response","95","58537","0.0-95.0","3WJEQKOXA9O7MT0BM05BS3KYGLI1AA","A16K7X677N4WN6","356TQKY9XFJ5S7O4NGX4839SMMP87Z","","null","<img src=""img/land1.png"" style=""width:200px; border:14px solid green;"">","null","","","","","","","","","",""
"","image-keyboard-response","96","58691","0.0-96.0","3WJEQKOXA9O7MT0BM05BS3KYGLI1AA","A16K7X677N4WN6","356TQKY9XFJ5S7O4NGX4839SMMP87Z","","152","img/land1.png","74","153","1","1","1","2","1,0.5,0.5,0.5,1,0.5,0.5,0.5,1","1,0.5,0.5,0.5,1,0.5,0.5,0.5,1","","",""
"","html-keyboard-response","97","58993","0.0-97.0","3WJEQKOXA9O7MT0BM05BS3KYGLI1AA","A16K7X677N4WN6","356TQKY9XFJ5S7O4NGX4839SMMP87Z","","null","<img src=""img/land1.png"" style=""width:200px; border:14px solid green;"">","null","","","","","","","","","",""
"","image-keyboard-response","98","59297","0.0-98.0","3WJEQKOXA9O7MT0BM05BS3KYGLI1AA","A16K7X677N4WN6","356TQKY9XFJ5S7O4NGX4839SMMP87Z","","304","img/land1.png","74","305","1","1","1","2","1,0.5,0.5,0.5,1,0.5,0.5,0.5,1","1,0.5,0.5,0.5,1,0.5,0.5,0.5,1","","",""
"","html-keyboard-response","99","59599","0.0-99.0","3WJEQKOXA9O7MT0BM05BS3KYGLI1AA","A16K7X677N4WN6","356TQKY9XFJ5S7O4NGX4839SMMP87Z","","null","<img src=""img/land1.png"" style=""width:200px; border:14px solid green;"">","null","","","","","","","","","",""
"","image-keyboard-response","100","60075","0.0-100.0","3WJEQKOXA9O7MT0BM05BS3KYGLI1AA","A16K7X677N4WN6","356TQKY9XFJ5S7O4NGX4839SMMP87Z","","476","img/land3.png","76","476","3","1","3","2","1,0.5,0.5,0.5,1,0.5,0.5,0.5,1","1,0.5,0.5,0.5,1,0.5,0.5,0.5,1","","",""
"","html-keyboard-response","101","60376","0.0-101.0","3WJEQKOXA9O7MT0BM05BS3KYGLI1AA","A16K7X677N4WN6","356TQKY9XFJ5S7O4NGX4839SMMP87Z","","null","<img src=""img/land3.png"" style=""width:200px; border:14px solid green;"">","null","","","","","","","","","",""
"","image-keyboard-response","102","60897","0.0-102.0","3WJEQKOXA9O7MT0BM05BS3KYGLI1AA","A16K7X677N4WN6","356TQKY9XFJ5S7O4NGX4839SMMP87Z","","520","img/land1.png","74","520","1","1","1","2","1,0.5,0.5,0.5,1,0.5,0.5,0.5,1","1,0.5,0.5,0.5,1,0.5,0.5,0.5,1","","",""
"","html-keyboard-response","103","61199","0.0-103.0","3WJEQKOXA9O7MT0BM05BS3KYGLI1AA","A16K7X677N4WN6","356TQKY9XFJ5S7O4NGX4839SMMP87Z","","null","<img src=""img/land1.png"" style=""width:200px; border:14px solid green;"">","null","","","","","","","","","",""
"","image-keyboard-response","104","61954","0.0-104.0","3WJEQKOXA9O7MT0BM05BS3KYGLI1AA","A16K7X677N4WN6","356TQKY9XFJ5S7O4NGX4839SMMP87Z","","754","img/land2.png","75","755","2","1","2","2","1,0.5,0.5,0.5,1,0.5,0.5,0.5,1","1,0.5,0.5,0.5,1,0.5,0.5,0.5,1","","",""
"","html-keyboard-response","105","62256","0.0-105.0","3WJEQKOXA9O7MT0BM05BS3KYGLI1AA","A16K7X677N4WN6","356TQKY9XFJ5S7O4NGX4839SMMP87Z","","null","<img src=""img/land2.png"" style=""width:200px; border:14px solid green;"">","null","","","","","","","","","",""
"","image-keyboard-response","106","62858","0.0-106.0","3WJEQKOXA9O7MT0BM05BS3KYGLI1AA","A16K7X677N4WN6","356TQKY9XFJ5S7O4NGX4839SMMP87Z","","602","img/land3.png","76","602","3","1","3","2","1,0.5,0.5,0.5,1,0.5,0.5,0.5,1","1,0.5,0.5,0.5,1,0.5,0.5,0.5,1","","",""
"","html-keyboard-response","107","63158","0.0-107.0","3WJEQKOXA9O7MT0BM05BS3KYGLI1AA","A16K7X677N4WN6","356TQKY9XFJ5S7O4NGX4839SMMP87Z","","null","<img src=""img/land3.png"" style=""width:200px; border:14px solid green;"">","null","","","","","","","","","",""
"","image-keyboard-response","108","63722","0.0-108.0","3WJEQKOXA9O7MT0BM05BS3KYGLI1AA","A16K7X677N4WN6","356TQKY9XFJ5S7O4NGX4839SMMP87Z","","562","img/land1.png","75","563","2","0","1","2","1,0.5,0.5,0.5,1,0.5,0.5,0.5,1","1,0.5,0.5,0.5,1,0.5,0.5,0.5,1","","",""
"","html-keyboard-response","109","64023","0.0-109.0","3WJEQKOXA9O7MT0BM05BS3KYGLI1AA","A16K7X677N4WN6","356TQKY9XFJ5S7O4NGX4839SMMP87Z","","null","<img src=""img/land1.png"" style=""width:200px;border:14px solid red;"">","null","","","","","","","","","",""
"","image-keyboard-response","110","64394","0.0-110.0","3WJEQKOXA9O7MT0BM05BS3KYGLI1AA","A16K7X677N4WN6","356TQKY9XFJ5S7O4NGX4839SMMP87Z","","371","img/land1.png","74","371","1","1","1","2","1,0.5,0.5,0.5,1,0.5,0.5,0.5,1","1,0.5,0.5,0.5,1,0.5,0.5,0.5,1","","",""
"","html-keyboard-response","111","64695","0.0-111.0","3WJEQKOXA9O7MT0BM05BS3KYGLI1AA","A16K7X677N4WN6","356TQKY9XFJ5S7O4NGX4839SMMP87Z","","null","<img src=""img/land1.png"" style=""width:200px; border:14px solid green;"">","null","","","","","","","","","",""
"","image-keyboard-response","112","65266","0.0-112.0","3WJEQKOXA9O7MT0BM05BS3KYGLI1AA","A16K7X677N4WN6","356TQKY9XFJ5S7O4NGX4839SMMP87Z","","569","img/land2.png","75","571","2","1","2","2","1,0.5,0.5,0.5,1,0.5,0.5,0.5,1","1,0.5,0.5,0.5,1,0.5,0.5,0.5,1","","",""
"","html-keyboard-response","113","65566","0.0-113.0","3WJEQKOXA9O7MT0BM05BS3KYGLI1AA","A16K7X677N4WN6","356TQKY9XFJ5S7O4NGX4839SMMP87Z","","null","<img src=""img/land2.png"" style=""width:200px; border:14px solid green;"">","null","","","","","","","","","",""
"","image-keyboard-response","114","66121","0.0-114.0","3WJEQKOXA9O7MT0BM05BS3KYGLI1AA","A16K7X677N4WN6","356TQKY9XFJ5S7O4NGX4839SMMP87Z","","555","img/land1.png","74","555","1","1","1","2","1,0.5,0.5,0.5,1,0.5,0.5,0.5,1","1,0.5,0.5,0.5,1,0.5,0.5,0.5,1","","",""
"","html-keyboard-response","115","66422","0.0-115.0","3WJEQKOXA9O7MT0BM05BS3KYGLI1AA","A16K7X677N4WN6","356TQKY9XFJ5S7O4NGX4839SMMP87Z","","null","<img src=""img/land1.png"" style=""width:200px; border:14px solid green;"">","null","","","","","","","","","",""
"","image-keyboard-response","116","66906","0.0-116.0","3WJEQKOXA9O7MT0BM05BS3KYGLI1AA","A16K7X677N4WN6","356TQKY9XFJ5S7O4NGX4839SMMP87Z","","483","img/land3.png","76","484","3","1","3","2","1,0.5,0.5,0.5,1,0.5,0.5,0.5,1","1,0.5,0.5,0.5,1,0.5,0.5,0.5,1","","",""
"","html-keyboard-response","117","67207","0.0-117.0","3WJEQKOXA9O7MT0BM05BS3KYGLI1AA","A16K7X677N4WN6","356TQKY9XFJ5S7O4NGX4839SMMP87Z","","null","<img src=""img/land3.png"" style=""width:200px; border:14px solid green;"">","null","","","","","","","","","",""
"","image-keyboard-response","118","67651","0.0-118.0","3WJEQKOXA9O7MT0BM05BS3KYGLI1AA","A16K7X677N4WN6","356TQKY9XFJ5S7O4NGX4839SMMP87Z","","444","img/land1.png","74","444","1","1","1","2","1,0.5,0.5,0.5,1,0.5,0.5,0.5,1","1,0.5,0.5,0.5,1,0.5,0.5,0.5,1","","",""
"","html-keyboard-response","119","67953","0.0-119.0","3WJEQKOXA9O7MT0BM05BS3KYGLI1AA","A16K7X677N4WN6","356TQKY9XFJ5S7O4NGX4839SMMP87Z","","null","<img src=""img/land1.png"" style=""width:200px; border:14px solid green;"">","null","","","","","","","","","",""
"","image-keyboard-response","120","69131","0.0-120.0","3WJEQKOXA9O7MT0BM05BS3KYGLI1AA","A16K7X677N4WN6","356TQKY9XFJ5S7O4NGX4839SMMP87Z","","1177","img/land3.png","76","1179","3","1","3","2","1,0.5,0.5,0.5,1,0.5,0.5,0.5,1","1,0.5,0.5,0.5,1,0.5,0.5,0.5,1","","",""
"","html-keyboard-response","121","69453","0.0-121.0","3WJEQKOXA9O7MT0BM05BS3KYGLI1AA","A16K7X677N4WN6","356TQKY9XFJ5S7O4NGX4839SMMP87Z","","null","<img src=""img/land3.png"" style=""width:200px; border:14px solid green;"">","null","","","","","","","","","",""
"","image-keyboard-response","122","70042","0.0-122.0","3WJEQKOXA9O7MT0BM05BS3KYGLI1AA","A16K7X677N4WN6","356TQKY9XFJ5S7O4NGX4839SMMP87Z","","588","img/land1.png","74","589","1","1","1","2","1,0.5,0.5,0.5,1,0.5,0.5,0.5,1","1,0.5,0.5,0.5,1,0.5,0.5,0.5,1","","",""
"","html-keyboard-response","123","70344","0.0-123.0","3WJEQKOXA9O7MT0BM05BS3KYGLI1AA","A16K7X677N4WN6","356TQKY9XFJ5S7O4NGX4839SMMP87Z","","null","<img src=""img/land1.png"" style=""width:200px; border:14px solid green;"">","null","","","","","","","","","",""
"","image-keyboard-response","124","70682","0.0-124.0","3WJEQKOXA9O7MT0BM05BS3KYGLI1AA","A16K7X677N4WN6","356TQKY9XFJ5S7O4NGX4839SMMP87Z","","336","img/land1.png","74","338","1","1","1","2","1,0.5,0.5,0.5,1,0.5,0.5,0.5,1","1,0.5,0.5,0.5,1,0.5,0.5,0.5,1","","",""
"","html-keyboard-response","125","70984","0.0-125.0","3WJEQKOXA9O7MT0BM05BS3KYGLI1AA","A16K7X677N4WN6","356TQKY9XFJ5S7O4NGX4839SMMP87Z","","null","<img src=""img/land1.png"" style=""width:200px; border:14px solid green;"">","null","","","","","","","","","",""
"","image-keyboard-response","126","71451","0.0-126.0","3WJEQKOXA9O7MT0BM05BS3KYGLI1AA","A16K7X677N4WN6","356TQKY9XFJ5S7O4NGX4839SMMP87Z","","466","img/land3.png","76","468","3","1","3","2","1,0.5,0.5,0.5,1,0.5,0.5,0.5,1","1,0.5,0.5,0.5,1,0.5,0.5,0.5,1","","",""
"","html-keyboard-response","127","71753","0.0-127.0","3WJEQKOXA9O7MT0BM05BS3KYGLI1AA","A16K7X677N4WN6","356TQKY9XFJ5S7O4NGX4839SMMP87Z","","null","<img src=""img/land3.png"" style=""width:200px; border:14px solid green;"">","null","","","","","","","","","",""
"","image-keyboard-response","128","72459","0.0-128.0","3WJEQKOXA9O7MT0BM05BS3KYGLI1AA","A16K7X677N4WN6","356TQKY9XFJ5S7O4NGX4839SMMP87Z","","704","img/land1.png","74","705","1","1","1","2","1,0.5,0.5,0.5,1,0.5,0.5,0.5,1","1,0.5,0.5,0.5,1,0.5,0.5,0.5,1","","",""
"","html-keyboard-response","129","72760","0.0-129.0","3WJEQKOXA9O7MT0BM05BS3KYGLI1AA","A16K7X677N4WN6","356TQKY9XFJ5S7O4NGX4839SMMP87Z","","null","<img src=""img/land1.png"" style=""width:200px; border:14px solid green;"">","null","","","","","","","","","",""
"","image-keyboard-response","130","73067","0.0-130.0","3WJEQKOXA9O7MT0BM05BS3KYGLI1AA","A16K7X677N4WN6","356TQKY9XFJ5S7O4NGX4839SMMP87Z","","305","img/land1.png","74","305","1","1","1","2","1,0.5,0.5,0.5,1,0.5,0.5,0.5,1","1,0.5,0.5,0.5,1,0.5,0.5,0.5,1","","",""
"","html-keyboard-response","131","73369","0.0-131.0","3WJEQKOXA9O7MT0BM05BS3KYGLI1AA","A16K7X677N4WN6","356TQKY9XFJ5S7O4NGX4839SMMP87Z","","null","<img src=""img/land1.png"" style=""width:200px; border:14px solid green;"">","null","","","","","","","","","",""
"","image-keyboard-response","132","73658","0.0-132.0","3WJEQKOXA9O7MT0BM05BS3KYGLI1AA","A16K7X677N4WN6","356TQKY9XFJ5S7O4NGX4839SMMP87Z","","288","img/land1.png","74","288","1","1","1","2","1,0.5,0.5,0.5,1,0.5,0.5,0.5,1","1,0.5,0.5,0.5,1,0.5,0.5,0.5,1","","",""
"","html-keyboard-response","133","73959","0.0-133.0","3WJEQKOXA9O7MT0BM05BS3KYGLI1AA","A16K7X677N4WN6","356TQKY9XFJ5S7O4NGX4839SMMP87Z","","null","<img src=""img/land1.png"" style=""width:200px; border:14px solid green;"">","null","","","","","","","","","",""
"","image-keyboard-response","134","74274","0.0-134.0","3WJEQKOXA9O7MT0BM05BS3KYGLI1AA","A16K7X677N4WN6","356TQKY9XFJ5S7O4NGX4839SMMP87Z","","314","img/land1.png","74","315","1","1","1","2","1,0.5,0.5,0.5,1,0.5,0.5,0.5,1","1,0.5,0.5,0.5,1,0.5,0.5,0.5,1","","",""
"","html-keyboard-response","135","74577","0.0-135.0","3WJEQKOXA9O7MT0BM05BS3KYGLI1AA","A16K7X677N4WN6","356TQKY9XFJ5S7O4NGX4839SMMP87Z","","null","<img src=""img/land1.png"" style=""width:200px; border:14px solid green;"">","null","","","","","","","","","",""
"","image-keyboard-response","136","75558","0.0-136.0","3WJEQKOXA9O7MT0BM05BS3KYGLI1AA","A16K7X677N4WN6","356TQKY9XFJ5S7O4NGX4839SMMP87Z","","977","img/land3.png","76","982","3","1","3","2","1,0.5,0.5,0.5,1,0.5,0.5,0.5,1","1,0.5,0.5,0.5,1,0.5,0.5,0.5,1","","",""
"","html-keyboard-response","137","75865","0.0-137.0","3WJEQKOXA9O7MT0BM05BS3KYGLI1AA","A16K7X677N4WN6","356TQKY9XFJ5S7O4NGX4839SMMP87Z","","null","<img src=""img/land3.png"" style=""width:200px; border:14px solid green;"">","null","","","","","","","","","",""
"","image-keyboard-response","138","76171","0.0-138.0","3WJEQKOXA9O7MT0BM05BS3KYGLI1AA","A16K7X677N4WN6","356TQKY9XFJ5S7O4NGX4839SMMP87Z","","303","img/land3.png","76","306","3","1","3","2","1,0.5,0.5,0.5,1,0.5,0.5,0.5,1","1,0.5,0.5,0.5,1,0.5,0.5,0.5,1","","",""
"","html-keyboard-response","139","76474","0.0-139.0","3WJEQKOXA9O7MT0BM05BS3KYGLI1AA","A16K7X677N4WN6","356TQKY9XFJ5S7O4NGX4839SMMP87Z","","null","<img src=""img/land3.png"" style=""width:200px; border:14px solid green;"">","null","","","","","","","","","",""
"","image-keyboard-response","140","76675","0.0-140.0","3WJEQKOXA9O7MT0BM05BS3KYGLI1AA","A16K7X677N4WN6","356TQKY9XFJ5S7O4NGX4839SMMP87Z","","199","img/land2.png","76","201","3","1","2","2","1,0.5,0.5,0.5,1,0.5,0.5,0.5,1","1,0.5,0.5,0.5,1,0.5,0.5,0.5,1","","",""
"","html-keyboard-response","141","76978","0.0-141.0","3WJEQKOXA9O7MT0BM05BS3KYGLI1AA","A16K7X677N4WN6","356TQKY9XFJ5S7O4NGX4839SMMP87Z","","null","<img src=""img/land2.png"" style=""width:200px; border:14px solid green;"">","null","","","","","","","","","",""
"","image-keyboard-response","142","78211","0.0-142.0","3WJEQKOXA9O7MT0BM05BS3KYGLI1AA","A16K7X677N4WN6","356TQKY9XFJ5S7O4NGX4839SMMP87Z","","1231","img/land1.png","74","1233","1","1","1","2","1,0.5,0.5,0.5,1,0.5,0.5,0.5,1","1,0.5,0.5,0.5,1,0.5,0.5,0.5,1","","",""
"","html-keyboard-response","143","78512","0.0-143.0","3WJEQKOXA9O7MT0BM05BS3KYGLI1AA","A16K7X677N4WN6","356TQKY9XFJ5S7O4NGX4839SMMP87Z","","null","<img src=""img/land1.png"" style=""width:200px; border:14px solid green;"">","null","","","","","","","","","",""
"","image-keyboard-response","144","79147","0.0-144.0","3WJEQKOXA9O7MT0BM05BS3KYGLI1AA","A16K7X677N4WN6","356TQKY9XFJ5S7O4NGX4839SMMP87Z","","632","img/land3.png","76","634","3","1","3","2","1,0.5,0.5,0.5,1,0.5,0.5,0.5,1","1,0.5,0.5,0.5,1,0.5,0.5,0.5,1","","",""
"","html-keyboard-response","145","79449","0.0-145.0","3WJEQKOXA9O7MT0BM05BS3KYGLI1AA","A16K7X677N4WN6","356TQKY9XFJ5S7O4NGX4839SMMP87Z","","null","<img src=""img/land3.png"" style=""width:200px; border:14px solid green;"">","null","","","","","","","","","",""
"","image-keyboard-response","146","80010","0.0-146.0","3WJEQKOXA9O7MT0BM05BS3KYGLI1AA","A16K7X677N4WN6","356TQKY9XFJ5S7O4NGX4839SMMP87Z","","560","img/land2.png","75","561","2","1","2","2","1,0.5,0.5,0.5,1,0.5,0.5,0.5,1","1,0.5,0.5,0.5,1,0.5,0.5,0.5,1","","",""
"","html-keyboard-response","147","80312","0.0-147.0","3WJEQKOXA9O7MT0BM05BS3KYGLI1AA","A16K7X677N4WN6","356TQKY9XFJ5S7O4NGX4839SMMP87Z","","null","<img src=""img/land2.png"" style=""width:200px; border:14px solid green;"">","null","","","","","","","","","",""
"","image-keyboard-response","148","80938","0.0-148.0","3WJEQKOXA9O7MT0BM05BS3KYGLI1AA","A16K7X677N4WN6","356TQKY9XFJ5S7O4NGX4839SMMP87Z","","624","img/land1.png","74","626","1","1","1","2","1,0.5,0.5,0.5,1,0.5,0.5,0.5,1","1,0.5,0.5,0.5,1,0.5,0.5,0.5,1","","",""
"","html-keyboard-response","149","81240","0.0-149.0","3WJEQKOXA9O7MT0BM05BS3KYGLI1AA","A16K7X677N4WN6","356TQKY9XFJ5S7O4NGX4839SMMP87Z","","null","<img src=""img/land1.png"" style=""width:200px; border:14px solid green;"">","null","","","","","","","","","",""
"","image-keyboard-response","150","81802","0.0-150.0","3WJEQKOXA9O7MT0BM05BS3KYGLI1AA","A16K7X677N4WN6","356TQKY9XFJ5S7O4NGX4839SMMP87Z","","561","img/land2.png","75","563","2","1","2","2","1,0.5,0.5,0.5,1,0.5,0.5,0.5,1","1,0.5,0.5,0.5,1,0.5,0.5,0.5,1","","",""
"","html-keyboard-response","151","82105","0.0-151.0","3WJEQKOXA9O7MT0BM05BS3KYGLI1AA","A16K7X677N4WN6","356TQKY9XFJ5S7O4NGX4839SMMP87Z","","null","<img src=""img/land2.png"" style=""width:200px; border:14px solid green;"">","null","","","","","","","","","",""
"","image-keyboard-response","152","82586","0.0-152.0","3WJEQKOXA9O7MT0BM05BS3KYGLI1AA","A16K7X677N4WN6","356TQKY9XFJ5S7O4NGX4839SMMP87Z","","480","img/land1.png","74","481","1","1","1","2","1,0.5,0.5,0.5,1,0.5,0.5,0.5,1","1,0.5,0.5,0.5,1,0.5,0.5,0.5,1","","",""
"","html-keyboard-response","153","82889","0.0-153.0","3WJEQKOXA9O7MT0BM05BS3KYGLI1AA","A16K7X677N4WN6","356TQKY9XFJ5S7O4NGX4839SMMP87Z","","null","<img src=""img/land1.png"" style=""width:200px; border:14px solid green;"">","null","","","","","","","","","",""
"","image-keyboard-response","154","83443","0.0-154.0","3WJEQKOXA9O7MT0BM05BS3KYGLI1AA","A16K7X677N4WN6","356TQKY9XFJ5S7O4NGX4839SMMP87Z","","552","img/land2.png","74","554","1","1","2","2","1,0.5,0.5,0.5,1,0.5,0.5,0.5,1","1,0.5,0.5,0.5,1,0.5,0.5,0.5,1","","",""
"","html-keyboard-response","155","83745","0.0-155.0","3WJEQKOXA9O7MT0BM05BS3KYGLI1AA","A16K7X677N4WN6","356TQKY9XFJ5S7O4NGX4839SMMP87Z","","null","<img src=""img/land2.png"" style=""width:200px; border:14px solid green;"">","null","","","","","","","","","",""
"","image-keyboard-response","156","84211","0.0-156.0","3WJEQKOXA9O7MT0BM05BS3KYGLI1AA","A16K7X677N4WN6","356TQKY9XFJ5S7O4NGX4839SMMP87Z","","464","img/land2.png","75","466","2","1","2","2","1,0.5,0.5,0.5,1,0.5,0.5,0.5,1","1,0.5,0.5,0.5,1,0.5,0.5,0.5,1","","",""
"","html-keyboard-response","157","84514","0.0-157.0","3WJEQKOXA9O7MT0BM05BS3KYGLI1AA","A16K7X677N4WN6","356TQKY9XFJ5S7O4NGX4839SMMP87Z","","null","<img src=""img/land2.png"" style=""width:200px; border:14px solid green;"">","null","","","","","","","","","",""
"","image-keyboard-response","158","84977","0.0-158.0","3WJEQKOXA9O7MT0BM05BS3KYGLI1AA","A16K7X677N4WN6","356TQKY9XFJ5S7O4NGX4839SMMP87Z","","460","img/land2.png","75","462","2","1","2","2","1,0.5,0.5,0.5,1,0.5,0.5,0.5,1","1,0.5,0.5,0.5,1,0.5,0.5,0.5,1","","",""
"","html-keyboard-response","159","85278","0.0-159.0","3WJEQKOXA9O7MT0BM05BS3KYGLI1AA","A16K7X677N4WN6","356TQKY9XFJ5S7O4NGX4839SMMP87Z","","null","<img src=""img/land2.png"" style=""width:200px; border:14px solid green;"">","null","","","","","","","","","",""
"","image-keyboard-response","160","85913","0.0-160.0","3WJEQKOXA9O7MT0BM05BS3KYGLI1AA","A16K7X677N4WN6","356TQKY9XFJ5S7O4NGX4839SMMP87Z","","634","img/land1.png","74","635","1","1","1","2","1,0.5,0.5,0.5,1,0.5,0.5,0.5,1","1,0.5,0.5,0.5,1,0.5,0.5,0.5,1","","",""
"","html-keyboard-response","161","86214","0.0-161.0","3WJEQKOXA9O7MT0BM05BS3KYGLI1AA","A16K7X677N4WN6","356TQKY9XFJ5S7O4NGX4839SMMP87Z","","null","<img src=""img/land1.png"" style=""width:200px; border:14px solid green;"">","null","","","","","","","","","",""
"","image-keyboard-response","162","86545","0.0-162.0","3WJEQKOXA9O7MT0BM05BS3KYGLI1AA","A16K7X677N4WN6","356TQKY9XFJ5S7O4NGX4839SMMP87Z","","332","img/land1.png","74","333","1","1","1","2","1,0.5,0.5,0.5,1,0.5,0.5,0.5,1","1,0.5,0.5,0.5,1,0.5,0.5,0.5,1","","",""
"","html-keyboard-response","163","86847","0.0-163.0","3WJEQKOXA9O7MT0BM05BS3KYGLI1AA","A16K7X677N4WN6","356TQKY9XFJ5S7O4NGX4839SMMP87Z","","null","<img src=""img/land1.png"" style=""width:200px; border:14px solid green;"">","null","","","","","","","","","",""
"","image-keyboard-response","164","87138","0.0-164.0","3WJEQKOXA9O7MT0BM05BS3KYGLI1AA","A16K7X677N4WN6","356TQKY9XFJ5S7O4NGX4839SMMP87Z","","290","img/land1.png","74","290","1","1","1","2","1,0.5,0.5,0.5,1,0.5,0.5,0.5,1","1,0.5,0.5,0.5,1,0.5,0.5,0.5,1","","",""
"","html-keyboard-response","165","87441","0.0-165.0","3WJEQKOXA9O7MT0BM05BS3KYGLI1AA","A16K7X677N4WN6","356TQKY9XFJ5S7O4NGX4839SMMP87Z","","null","<img src=""img/land1.png"" style=""width:200px; border:14px solid green;"">","null","","","","","","","","","",""
"","image-keyboard-response","166","87929","0.0-166.0","3WJEQKOXA9O7MT0BM05BS3KYGLI1AA","A16K7X677N4WN6","356TQKY9XFJ5S7O4NGX4839SMMP87Z","","487","img/land3.png","76","487","3","1","3","2","1,0.5,0.5,0.5,1,0.5,0.5,0.5,1","1,0.5,0.5,0.5,1,0.5,0.5,0.5,1","","",""
"","html-keyboard-response","167","88230","0.0-167.0","3WJEQKOXA9O7MT0BM05BS3KYGLI1AA","A16K7X677N4WN6","356TQKY9XFJ5S7O4NGX4839SMMP87Z","","null","<img src=""img/land3.png"" style=""width:200px; border:14px solid green;"">","null","","","","","","","","","",""
"","image-keyboard-response","168","88850","0.0-168.0","3WJEQKOXA9O7MT0BM05BS3KYGLI1AA","A16K7X677N4WN6","356TQKY9XFJ5S7O4NGX4839SMMP87Z","","619","img/land1.png","74","620","1","1","1","2","1,0.5,0.5,0.5,1,0.5,0.5,0.5,1","1,0.5,0.5,0.5,1,0.5,0.5,0.5,1","","",""
"","html-keyboard-response","169","89153","0.0-169.0","3WJEQKOXA9O7MT0BM05BS3KYGLI1AA","A16K7X677N4WN6","356TQKY9XFJ5S7O4NGX4839SMMP87Z","","null","<img src=""img/land1.png"" style=""width:200px; border:14px solid green;"">","null","","","","","","","","","",""
"","image-keyboard-response","170","89490","0.0-170.0","3WJEQKOXA9O7MT0BM05BS3KYGLI1AA","A16K7X677N4WN6","356TQKY9XFJ5S7O4NGX4839SMMP87Z","","336","img/land1.png","74","336","1","1","1","2","1,0.5,0.5,0.5,1,0.5,0.5,0.5,1","1,0.5,0.5,0.5,1,0.5,0.5,0.5,1","","",""
"","html-keyboard-response","171","89790","0.0-171.0","3WJEQKOXA9O7MT0BM05BS3KYGLI1AA","A16K7X677N4WN6","356TQKY9XFJ5S7O4NGX4839SMMP87Z","","null","<img src=""img/land1.png"" style=""width:200px; border:14px solid green;"">","null","","","","","","","","","",""
"","image-keyboard-response","172","90313","0.0-172.0","3WJEQKOXA9O7MT0BM05BS3KYGLI1AA","A16K7X677N4WN6","356TQKY9XFJ5S7O4NGX4839SMMP87Z","","522","img/land2.png","75","523","2","1","2","2","1,0.5,0.5,0.5,1,0.5,0.5,0.5,1","1,0.5,0.5,0.5,1,0.5,0.5,0.5,1","","",""
"","html-keyboard-response","173","90614","0.0-173.0","3WJEQKOXA9O7MT0BM05BS3KYGLI1AA","A16K7X677N4WN6","356TQKY9XFJ5S7O4NGX4839SMMP87Z","","null","<img src=""img/land2.png"" style=""width:200px; border:14px solid green;"">","null","","","","","","","","","",""
"","image-keyboard-response","174","91211","0.0-174.0","3WJEQKOXA9O7MT0BM05BS3KYGLI1AA","A16K7X677N4WN6","356TQKY9XFJ5S7O4NGX4839SMMP87Z","","595","img/land1.png","74","595","1","1","1","2","1,0.5,0.5,0.5,1,0.5,0.5,0.5,1","1,0.5,0.5,0.5,1,0.5,0.5,0.5,1","","",""
"","html-keyboard-response","175","91513","0.0-175.0","3WJEQKOXA9O7MT0BM05BS3KYGLI1AA","A16K7X677N4WN6","356TQKY9XFJ5S7O4NGX4839SMMP87Z","","null","<img src=""img/land1.png"" style=""width:200px; border:14px solid green;"">","null","","","","","","","","","",""
"","image-keyboard-response","176","91818","0.0-176.0","3WJEQKOXA9O7MT0BM05BS3KYGLI1AA","A16K7X677N4WN6","356TQKY9XFJ5S7O4NGX4839SMMP87Z","","305","img/land1.png","74","307","1","1","1","2","1,0.5,0.5,0.5,1,0.5,0.5,0.5,1","1,0.5,0.5,0.5,1,0.5,0.5,0.5,1","","",""
"","html-keyboard-response","177","92121","0.0-177.0","3WJEQKOXA9O7MT0BM05BS3KYGLI1AA","A16K7X677N4WN6","356TQKY9XFJ5S7O4NGX4839SMMP87Z","","null","<img src=""img/land1.png"" style=""width:200px; border:14px solid green;"">","null","","","","","","","","","",""
"","image-keyboard-response","178","92403","0.0-178.0","3WJEQKOXA9O7MT0BM05BS3KYGLI1AA","A16K7X677N4WN6","356TQKY9XFJ5S7O4NGX4839SMMP87Z","","281","img/land1.png","74","283","1","1","1","2","1,0.5,0.5,0.5,1,0.5,0.5,0.5,1","1,0.5,0.5,0.5,1,0.5,0.5,0.5,1","","",""
"","html-keyboard-response","179","92704","0.0-179.0","3WJEQKOXA9O7MT0BM05BS3KYGLI1AA","A16K7X677N4WN6","356TQKY9XFJ5S7O4NGX4839SMMP87Z","","null","<img src=""img/land1.png"" style=""width:200px; border:14px solid green;"">","null","","","","","","","","","",""
"","image-keyboard-response","180","93122","0.0-180.0","3WJEQKOXA9O7MT0BM05BS3KYGLI1AA","A16K7X677N4WN6","356TQKY9XFJ5S7O4NGX4839SMMP87Z","","416","img/land1.png","74","418","1","1","1","2","1,0.5,0.5,0.5,1,0.5,0.5,0.5,1","1,0.5,0.5,0.5,1,0.5,0.5,0.5,1","","",""
"","html-keyboard-response","181","93425","0.0-181.0","3WJEQKOXA9O7MT0BM05BS3KYGLI1AA","A16K7X677N4WN6","356TQKY9XFJ5S7O4NGX4839SMMP87Z","","null","<img src=""img/land1.png"" style=""width:200px; border:14px solid green;"">","null","","","","","","","","","",""
"","image-keyboard-response","182","93793","0.0-182.0","3WJEQKOXA9O7MT0BM05BS3KYGLI1AA","A16K7X677N4WN6","356TQKY9XFJ5S7O4NGX4839SMMP87Z","","367","img/land1.png","74","368","1","1","1","2","1,0.5,0.5,0.5,1,0.5,0.5,0.5,1","1,0.5,0.5,0.5,1,0.5,0.5,0.5,1","","",""
"","html-keyboard-response","183","94095","0.0-183.0","3WJEQKOXA9O7MT0BM05BS3KYGLI1AA","A16K7X677N4WN6","356TQKY9XFJ5S7O4NGX4839SMMP87Z","","null","<img src=""img/land1.png"" style=""width:200px; border:14px solid green;"">","null","","","","","","","","","",""
"","image-keyboard-response","184","94811","0.0-184.0","3WJEQKOXA9O7MT0BM05BS3KYGLI1AA","A16K7X677N4WN6","356TQKY9XFJ5S7O4NGX4839SMMP87Z","","713","img/land2.png","75","715","2","1","2","2","1,0.5,0.5,0.5,1,0.5,0.5,0.5,1","1,0.5,0.5,0.5,1,0.5,0.5,0.5,1","","",""
"","html-keyboard-response","185","95112","0.0-185.0","3WJEQKOXA9O7MT0BM05BS3KYGLI1AA","A16K7X677N4WN6","356TQKY9XFJ5S7O4NGX4839SMMP87Z","","null","<img src=""img/land2.png"" style=""width:200px; border:14px solid green;"">","null","","","","","","","","","",""
"","image-keyboard-response","186","95594","0.0-186.0","3WJEQKOXA9O7MT0BM05BS3KYGLI1AA","A16K7X677N4WN6","356TQKY9XFJ5S7O4NGX4839SMMP87Z","","481","img/land3.png","76","481","3","1","3","2","1,0.5,0.5,0.5,1,0.5,0.5,0.5,1","1,0.5,0.5,0.5,1,0.5,0.5,0.5,1","","",""
"","html-keyboard-response","187","95897","0.0-187.0","3WJEQKOXA9O7MT0BM05BS3KYGLI1AA","A16K7X677N4WN6","356TQKY9XFJ5S7O4NGX4839SMMP87Z","","null","<img src=""img/land3.png"" style=""width:200px; border:14px solid green;"">","null","","","","","","","","","",""
"","image-keyboard-response","188","96539","0.0-188.0","3WJEQKOXA9O7MT0BM05BS3KYGLI1AA","A16K7X677N4WN6","356TQKY9XFJ5S7O4NGX4839SMMP87Z","","640","img/land1.png","74","642","1","1","1","2","1,0.5,0.5,0.5,1,0.5,0.5,0.5,1","1,0.5,0.5,0.5,1,0.5,0.5,0.5,1","","",""
"","html-keyboard-response","189","96840","0.0-189.0","3WJEQKOXA9O7MT0BM05BS3KYGLI1AA","A16K7X677N4WN6","356TQKY9XFJ5S7O4NGX4839SMMP87Z","","null","<img src=""img/land1.png"" style=""width:200px; border:14px solid green;"">","null","","","","","","","","","",""
"","image-keyboard-response","190","97330","0.0-190.0","3WJEQKOXA9O7MT0BM05BS3KYGLI1AA","A16K7X677N4WN6","356TQKY9XFJ5S7O4NGX4839SMMP87Z","","488","img/land2.png","75","490","2","1","2","2","1,0.5,0.5,0.5,1,0.5,0.5,0.5,1","1,0.5,0.5,0.5,1,0.5,0.5,0.5,1","","",""
"","html-keyboard-response","191","97632","0.0-191.0","3WJEQKOXA9O7MT0BM05BS3KYGLI1AA","A16K7X677N4WN6","356TQKY9XFJ5S7O4NGX4839SMMP87Z","","null","<img src=""img/land2.png"" style=""width:200px; border:14px solid green;"">","null","","","","","","","","","",""
"","image-keyboard-response","192","98195","0.0-192.0","3WJEQKOXA9O7MT0BM05BS3KYGLI1AA","A16K7X677N4WN6","356TQKY9XFJ5S7O4NGX4839SMMP87Z","","561","img/land1.png","74","562","1","1","1","2","1,0.5,0.5,0.5,1,0.5,0.5,0.5,1","1,0.5,0.5,0.5,1,0.5,0.5,0.5,1","","",""
"","html-keyboard-response","193","98496","0.0-193.0","3WJEQKOXA9O7MT0BM05BS3KYGLI1AA","A16K7X677N4WN6","356TQKY9XFJ5S7O4NGX4839SMMP87Z","","null","<img src=""img/land1.png"" style=""width:200px; border:14px solid green;"">","null","","","","","","","","","",""
"","image-keyboard-response","194","98890","0.0-194.0","3WJEQKOXA9O7MT0BM05BS3KYGLI1AA","A16K7X677N4WN6","356TQKY9XFJ5S7O4NGX4839SMMP87Z","","393","img/land1.png","74","394","1","1","1","2","1,0.5,0.5,0.5,1,0.5,0.5,0.5,1","1,0.5,0.5,0.5,1,0.5,0.5,0.5,1","","",""
"","html-keyboard-response","195","99191","0.0-195.0","3WJEQKOXA9O7MT0BM05BS3KYGLI1AA","A16K7X677N4WN6","356TQKY9XFJ5S7O4NGX4839SMMP87Z","","null","<img src=""img/land1.png"" style=""width:200px; border:14px solid green;"">","null","","","","","","","","","",""
"","image-keyboard-response","196","99467","0.0-196.0","3WJEQKOXA9O7MT0BM05BS3KYGLI1AA","A16K7X677N4WN6","356TQKY9XFJ5S7O4NGX4839SMMP87Z","","274","img/land1.png","74","275","1","1","1","2","1,0.5,0.5,0.5,1,0.5,0.5,0.5,1","1,0.5,0.5,0.5,1,0.5,0.5,0.5,1","","",""
"","html-keyboard-response","197","99768","0.0-197.0","3WJEQKOXA9O7MT0BM05BS3KYGLI1AA","A16K7X677N4WN6","356TQKY9XFJ5S7O4NGX4839SMMP87Z","","null","<img src=""img/land1.png"" style=""width:200px; border:14px solid green;"">","null","","","","","","","","","",""
"","image-keyboard-response","198","100082","0.0-198.0","3WJEQKOXA9O7MT0BM05BS3KYGLI1AA","A16K7X677N4WN6","356TQKY9XFJ5S7O4NGX4839SMMP87Z","","311","img/land1.png","74","313","1","1","1","2","1,0.5,0.5,0.5,1,0.5,0.5,0.5,1","1,0.5,0.5,0.5,1,0.5,0.5,0.5,1","","",""
"","html-keyboard-response","199","100384","0.0-199.0","3WJEQKOXA9O7MT0BM05BS3KYGLI1AA","A16K7X677N4WN6","356TQKY9XFJ5S7O4NGX4839SMMP87Z","","null","<img src=""img/land1.png"" style=""width:200px; border:14px solid green;"">","null","","","","","","","","","",""
"","image-keyboard-response","200","100898","0.0-200.0","3WJEQKOXA9O7MT0BM05BS3KYGLI1AA","A16K7X677N4WN6","356TQKY9XFJ5S7O4NGX4839SMMP87Z","","512","img/land3.png","76","514","3","1","3","2","1,0.5,0.5,0.5,1,0.5,0.5,0.5,1","1,0.5,0.5,0.5,1,0.5,0.5,0.5,1","","",""
"","html-keyboard-response","201","101200","0.0-201.0","3WJEQKOXA9O7MT0BM05BS3KYGLI1AA","A16K7X677N4WN6","356TQKY9XFJ5S7O4NGX4839SMMP87Z","","null","<img src=""img/land3.png"" style=""width:200px; border:14px solid green;"">","null","","","","","","","","","",""
"","image-keyboard-response","202","101858","0.0-202.0","3WJEQKOXA9O7MT0BM05BS3KYGLI1AA","A16K7X677N4WN6","356TQKY9XFJ5S7O4NGX4839SMMP87Z","","656","img/land2.png","75","658","2","1","2","2","1,0.5,0.5,0.5,1,0.5,0.5,0.5,1","1,0.5,0.5,0.5,1,0.5,0.5,0.5,1","","",""
"","html-keyboard-response","203","102160","0.0-203.0","3WJEQKOXA9O7MT0BM05BS3KYGLI1AA","A16K7X677N4WN6","356TQKY9XFJ5S7O4NGX4839SMMP87Z","","null","<img src=""img/land2.png"" style=""width:200px; border:14px solid green;"">","null","","","","","","","","","",""
"","image-keyboard-response","204","102506","0.0-204.0","3WJEQKOXA9O7MT0BM05BS3KYGLI1AA","A16K7X677N4WN6","356TQKY9XFJ5S7O4NGX4839SMMP87Z","","345","img/land2.png","75","346","2","1","2","2","1,0.5,0.5,0.5,1,0.5,0.5,0.5,1","1,0.5,0.5,0.5,1,0.5,0.5,0.5,1","","",""
"","html-keyboard-response","205","102808","0.0-205.0","3WJEQKOXA9O7MT0BM05BS3KYGLI1AA","A16K7X677N4WN6","356TQKY9XFJ5S7O4NGX4839SMMP87Z","","null","<img src=""img/land2.png"" style=""width:200px; border:14px solid green;"">","null","","","","","","","","","",""
"","image-keyboard-response","206","103380","0.0-206.0","3WJEQKOXA9O7MT0BM05BS3KYGLI1AA","A16K7X677N4WN6","356TQKY9XFJ5S7O4NGX4839SMMP87Z","","569","img/land3.png","76","571","3","1","3","2","1,0.5,0.5,0.5,1,0.5,0.5,0.5,1","1,0.5,0.5,0.5,1,0.5,0.5,0.5,1","","",""
"","html-keyboard-response","207","103681","0.0-207.0","3WJEQKOXA9O7MT0BM05BS3KYGLI1AA","A16K7X677N4WN6","356TQKY9XFJ5S7O4NGX4839SMMP87Z","","null","<img src=""img/land3.png"" style=""width:200px; border:14px solid green;"">","null","","","","","","","","","",""
"","image-keyboard-response","208","104426","0.0-208.0","3WJEQKOXA9O7MT0BM05BS3KYGLI1AA","A16K7X677N4WN6","356TQKY9XFJ5S7O4NGX4839SMMP87Z","","745","img/land2.png","75","745","2","1","2","2","1,0.5,0.5,0.5,1,0.5,0.5,0.5,1","1,0.5,0.5,0.5,1,0.5,0.5,0.5,1","","",""
"","html-keyboard-response","209","104728","0.0-209.0","3WJEQKOXA9O7MT0BM05BS3KYGLI1AA","A16K7X677N4WN6","356TQKY9XFJ5S7O4NGX4839SMMP87Z","","null","<img src=""img/land2.png"" style=""width:200px; border:14px solid green;"">","null","","","","","","","","","",""
"","image-keyboard-response","210","105243","0.0-210.0","3WJEQKOXA9O7MT0BM05BS3KYGLI1AA","A16K7X677N4WN6","356TQKY9XFJ5S7O4NGX4839SMMP87Z","","513","img/land1.png","74","514","1","1","1","2","1,0.5,0.5,0.5,1,0.5,0.5,0.5,1","1,0.5,0.5,0.5,1,0.5,0.5,0.5,1","","",""
"","html-keyboard-response","211","105544","0.0-211.0","3WJEQKOXA9O7MT0BM05BS3KYGLI1AA","A16K7X677N4WN6","356TQKY9XFJ5S7O4NGX4839SMMP87Z","","null","<img src=""img/land1.png"" style=""width:200px; border:14px solid green;"">","null","","","","","","","","","",""
"","image-keyboard-response","212","106147","0.0-212.0","3WJEQKOXA9O7MT0BM05BS3KYGLI1AA","A16K7X677N4WN6","356TQKY9XFJ5S7O4NGX4839SMMP87Z","","600","img/land2.png","75","602","2","1","2","2","1,0.5,0.5,0.5,1,0.5,0.5,0.5,1","1,0.5,0.5,0.5,1,0.5,0.5,0.5,1","","",""
"","html-keyboard-response","213","106449","0.0-213.0","3WJEQKOXA9O7MT0BM05BS3KYGLI1AA","A16K7X677N4WN6","356TQKY9XFJ5S7O4NGX4839SMMP87Z","","null","<img src=""img/land2.png"" style=""width:200px; border:14px solid green;"">","null","","","","","","","","","",""
"","image-keyboard-response","214","106986","0.0-214.0","3WJEQKOXA9O7MT0BM05BS3KYGLI1AA","A16K7X677N4WN6","356TQKY9XFJ5S7O4NGX4839SMMP87Z","","536","img/land1.png","74","536","1","1","1","2","1,0.5,0.5,0.5,1,0.5,0.5,0.5,1","1,0.5,0.5,0.5,1,0.5,0.5,0.5,1","","",""
"","html-keyboard-response","215","107288","0.0-215.0","3WJEQKOXA9O7MT0BM05BS3KYGLI1AA","A16K7X677N4WN6","356TQKY9XFJ5S7O4NGX4839SMMP87Z","","null","<img src=""img/land1.png"" style=""width:200px; border:14px solid green;"">","null","","","","","","","","","",""
"","image-keyboard-response","216","107626","0.0-216.0","3WJEQKOXA9O7MT0BM05BS3KYGLI1AA","A16K7X677N4WN6","356TQKY9XFJ5S7O4NGX4839SMMP87Z","","338","img/land1.png","74","338","1","1","1","2","1,0.5,0.5,0.5,1,0.5,0.5,0.5,1","1,0.5,0.5,0.5,1,0.5,0.5,0.5,1","","",""
"","html-keyboard-response","217","107928","0.0-217.0","3WJEQKOXA9O7MT0BM05BS3KYGLI1AA","A16K7X677N4WN6","356TQKY9XFJ5S7O4NGX4839SMMP87Z","","null","<img src=""img/land1.png"" style=""width:200px; border:14px solid green;"">","null","","","","","","","","","",""
"","image-keyboard-response","218","108203","0.0-218.0","3WJEQKOXA9O7MT0BM05BS3KYGLI1AA","A16K7X677N4WN6","356TQKY9XFJ5S7O4NGX4839SMMP87Z","","273","img/land1.png","74","275","1","1","1","2","1,0.5,0.5,0.5,1,0.5,0.5,0.5,1","1,0.5,0.5,0.5,1,0.5,0.5,0.5,1","","",""
"","html-keyboard-response","219","108504","0.0-219.0","3WJEQKOXA9O7MT0BM05BS3KYGLI1AA","A16K7X677N4WN6","356TQKY9XFJ5S7O4NGX4839SMMP87Z","","null","<img src=""img/land1.png"" style=""width:200px; border:14px solid green;"">","null","","","","","","","","","",""
"","image-keyboard-response","220","108803","0.0-220.0","3WJEQKOXA9O7MT0BM05BS3KYGLI1AA","A16K7X677N4WN6","356TQKY9XFJ5S7O4NGX4839SMMP87Z","","297","img/land1.png","74","298","1","1","1","2","1,0.5,0.5,0.5,1,0.5,0.5,0.5,1","1,0.5,0.5,0.5,1,0.5,0.5,0.5,1","","",""
"","html-keyboard-response","221","109105","0.0-221.0","3WJEQKOXA9O7MT0BM05BS3KYGLI1AA","A16K7X677N4WN6","356TQKY9XFJ5S7O4NGX4839SMMP87Z","","null","<img src=""img/land1.png"" style=""width:200px; border:14px solid green;"">","null","","","","","","","","","",""
"","image-keyboard-response","222","109554","0.0-222.0","3WJEQKOXA9O7MT0BM05BS3KYGLI1AA","A16K7X677N4WN6","356TQKY9XFJ5S7O4NGX4839SMMP87Z","","447","img/land3.png","76","448","3","1","3","2","1,0.5,0.5,0.5,1,0.5,0.5,0.5,1","1,0.5,0.5,0.5,1,0.5,0.5,0.5,1","","",""
"","html-keyboard-response","223","109855","0.0-223.0","3WJEQKOXA9O7MT0BM05BS3KYGLI1AA","A16K7X677N4WN6","356TQKY9XFJ5S7O4NGX4839SMMP87Z","","null","<img src=""img/land3.png"" style=""width:200px; border:14px solid green;"">","null","","","","","","","","","",""
"","image-keyboard-response","224","110354","0.0-224.0","3WJEQKOXA9O7MT0BM05BS3KYGLI1AA","A16K7X677N4WN6","356TQKY9XFJ5S7O4NGX4839SMMP87Z","","498","img/land1.png","74","498","1","1","1","2","1,0.5,0.5,0.5,1,0.5,0.5,0.5,1","1,0.5,0.5,0.5,1,0.5,0.5,0.5,1","","",""
"","html-keyboard-response","225","110656","0.0-225.0","3WJEQKOXA9O7MT0BM05BS3KYGLI1AA","A16K7X677N4WN6","356TQKY9XFJ5S7O4NGX4839SMMP87Z","","null","<img src=""img/land1.png"" style=""width:200px; border:14px solid green;"">","null","","","","","","","","","",""
"","image-keyboard-response","226","111193","0.0-226.0","3WJEQKOXA9O7MT0BM05BS3KYGLI1AA","A16K7X677N4WN6","356TQKY9XFJ5S7O4NGX4839SMMP87Z","","536","img/land2.png","75","537","2","1","2","2","1,0.5,0.5,0.5,1,0.5,0.5,0.5,1","1,0.5,0.5,0.5,1,0.5,0.5,0.5,1","","",""
"","html-keyboard-response","227","111494","0.0-227.0","3WJEQKOXA9O7MT0BM05BS3KYGLI1AA","A16K7X677N4WN6","356TQKY9XFJ5S7O4NGX4839SMMP87Z","","null","<img src=""img/land2.png"" style=""width:200px; border:14px solid green;"">","null","","","","","","","","","",""
"","image-keyboard-response","228","112090","0.0-228.0","3WJEQKOXA9O7MT0BM05BS3KYGLI1AA","A16K7X677N4WN6","356TQKY9XFJ5S7O4NGX4839SMMP87Z","","592","img/land3.png","76","594","3","1","3","2","1,0.5,0.5,0.5,1,0.5,0.5,0.5,1","1,0.5,0.5,0.5,1,0.5,0.5,0.5,1","","",""
"","html-keyboard-response","229","112391","0.0-229.0","3WJEQKOXA9O7MT0BM05BS3KYGLI1AA","A16K7X677N4WN6","356TQKY9XFJ5S7O4NGX4839SMMP87Z","","null","<img src=""img/land3.png"" style=""width:200px; border:14px solid green;"">","null","","","","","","","","","",""
"","image-keyboard-response","230","112994","0.0-230.0","3WJEQKOXA9O7MT0BM05BS3KYGLI1AA","A16K7X677N4WN6","356TQKY9XFJ5S7O4NGX4839SMMP87Z","","600","img/land1.png","75","602","2","1","1","2","1,0.5,0.5,0.5,1,0.5,0.5,0.5,1","1,0.5,0.5,0.5,1,0.5,0.5,0.5,1","","",""
"","html-keyboard-response","231","113295","0.0-231.0","3WJEQKOXA9O7MT0BM05BS3KYGLI1AA","A16K7X677N4WN6","356TQKY9XFJ5S7O4NGX4839SMMP87Z","","null","<img src=""img/land1.png"" style=""width:200px; border:14px solid green;"">","null","","","","","","","","","",""
"","image-keyboard-response","232","113777","0.0-232.0","3WJEQKOXA9O7MT0BM05BS3KYGLI1AA","A16K7X677N4WN6","356TQKY9XFJ5S7O4NGX4839SMMP87Z","","480","img/land1.png","75","482","2","0","1","2","1,0.5,0.5,0.5,1,0.5,0.5,0.5,1","1,0.5,0.5,0.5,1,0.5,0.5,0.5,1","","",""
"","html-keyboard-response","233","114078","0.0-233.0","3WJEQKOXA9O7MT0BM05BS3KYGLI1AA","A16K7X677N4WN6","356TQKY9XFJ5S7O4NGX4839SMMP87Z","","null","<img src=""img/land1.png"" style=""width:200px;border:14px solid red;"">","null","","","","","","","","","",""
"","image-keyboard-response","234","114937","0.0-234.0","3WJEQKOXA9O7MT0BM05BS3KYGLI1AA","A16K7X677N4WN6","356TQKY9XFJ5S7O4NGX4839SMMP87Z","","858","img/land2.png","75","860","2","1","2","2","1,0.5,0.5,0.5,1,0.5,0.5,0.5,1","1,0.5,0.5,0.5,1,0.5,0.5,0.5,1","","",""
"","html-keyboard-response","235","115239","0.0-235.0","3WJEQKOXA9O7MT0BM05BS3KYGLI1AA","A16K7X677N4WN6","356TQKY9XFJ5S7O4NGX4839SMMP87Z","","null","<img src=""img/land2.png"" style=""width:200px; border:14px solid green;"">","null","","","","","","","","","",""
"","image-keyboard-response","236","115707","0.0-236.0","3WJEQKOXA9O7MT0BM05BS3KYGLI1AA","A16K7X677N4WN6","356TQKY9XFJ5S7O4NGX4839SMMP87Z","","466","img/land1.png","74","467","1","1","1","2","1,0.5,0.5,0.5,1,0.5,0.5,0.5,1","1,0.5,0.5,0.5,1,0.5,0.5,0.5,1","","",""
"","html-keyboard-response","237","116008","0.0-237.0","3WJEQKOXA9O7MT0BM05BS3KYGLI1AA","A16K7X677N4WN6","356TQKY9XFJ5S7O4NGX4839SMMP87Z","","null","<img src=""img/land1.png"" style=""width:200px; border:14px solid green;"">","null","","","","","","","","","",""
"","image-keyboard-response","238","116306","0.0-238.0","3WJEQKOXA9O7MT0BM05BS3KYGLI1AA","A16K7X677N4WN6","356TQKY9XFJ5S7O4NGX4839SMMP87Z","","297","img/land1.png","74","299","1","1","1","2","1,0.5,0.5,0.5,1,0.5,0.5,0.5,1","1,0.5,0.5,0.5,1,0.5,0.5,0.5,1","","",""
"","html-keyboard-response","239","116608","0.0-239.0","3WJEQKOXA9O7MT0BM05BS3KYGLI1AA","A16K7X677N4WN6","356TQKY9XFJ5S7O4NGX4839SMMP87Z","","null","<img src=""img/land1.png"" style=""width:200px; border:14px solid green;"">","null","","","","","","","","","",""
"","image-keyboard-response","240","116866","0.0-240.0","3WJEQKOXA9O7MT0BM05BS3KYGLI1AA","A16K7X677N4WN6","356TQKY9XFJ5S7O4NGX4839SMMP87Z","","257","img/land1.png","74","258","1","1","1","2","1,0.5,0.5,0.5,1,0.5,0.5,0.5,1","1,0.5,0.5,0.5,1,0.5,0.5,0.5,1","","",""
"","html-keyboard-response","241","117168","0.0-241.0","3WJEQKOXA9O7MT0BM05BS3KYGLI1AA","A16K7X677N4WN6","356TQKY9XFJ5S7O4NGX4839SMMP87Z","","null","<img src=""img/land1.png"" style=""width:200px; border:14px solid green;"">","null","","","","","","","","","",""
"","image-keyboard-response","242","117474","0.0-242.0","3WJEQKOXA9O7MT0BM05BS3KYGLI1AA","A16K7X677N4WN6","356TQKY9XFJ5S7O4NGX4839SMMP87Z","","305","img/land1.png","74","306","1","1","1","2","1,0.5,0.5,0.5,1,0.5,0.5,0.5,1","1,0.5,0.5,0.5,1,0.5,0.5,0.5,1","","",""
"","html-keyboard-response","243","117776","0.0-243.0","3WJEQKOXA9O7MT0BM05BS3KYGLI1AA","A16K7X677N4WN6","356TQKY9XFJ5S7O4NGX4839SMMP87Z","","null","<img src=""img/land1.png"" style=""width:200px; border:14px solid green;"">","null","","","","","","","","","",""
"","image-keyboard-response","244","118378","0.0-244.0","3WJEQKOXA9O7MT0BM05BS3KYGLI1AA","A16K7X677N4WN6","356TQKY9XFJ5S7O4NGX4839SMMP87Z","","600","img/land3.png","76","601","3","1","3","2","1,0.5,0.5,0.5,1,0.5,0.5,0.5,1","1,0.5,0.5,0.5,1,0.5,0.5,0.5,1","","",""
"","html-keyboard-response","245","118681","0.0-245.0","3WJEQKOXA9O7MT0BM05BS3KYGLI1AA","A16K7X677N4WN6","356TQKY9XFJ5S7O4NGX4839SMMP87Z","","null","<img src=""img/land3.png"" style=""width:200px; border:14px solid green;"">","null","","","","","","","","","",""
"","image-keyboard-response","246","119210","0.0-246.0","3WJEQKOXA9O7MT0BM05BS3KYGLI1AA","A16K7X677N4WN6","356TQKY9XFJ5S7O4NGX4839SMMP87Z","","528","img/land2.png","75","529","2","1","2","2","1,0.5,0.5,0.5,1,0.5,0.5,0.5,1","1,0.5,0.5,0.5,1,0.5,0.5,0.5,1","","",""
"","html-keyboard-response","247","119513","0.0-247.0","3WJEQKOXA9O7MT0BM05BS3KYGLI1AA","A16K7X677N4WN6","356TQKY9XFJ5S7O4NGX4839SMMP87Z","","null","<img src=""img/land2.png"" style=""width:200px; border:14px solid green;"">","null","","","","","","","","","",""
"","image-keyboard-response","248","120083","0.0-248.0","3WJEQKOXA9O7MT0BM05BS3KYGLI1AA","A16K7X677N4WN6","356TQKY9XFJ5S7O4NGX4839SMMP87Z","","569","img/land1.png","74","569","1","1","1","2","1,0.5,0.5,0.5,1,0.5,0.5,0.5,1","1,0.5,0.5,0.5,1,0.5,0.5,0.5,1","","",""
"","html-keyboard-response","249","120385","0.0-249.0","3WJEQKOXA9O7MT0BM05BS3KYGLI1AA","A16K7X677N4WN6","356TQKY9XFJ5S7O4NGX4839SMMP87Z","","null","<img src=""img/land1.png"" style=""width:200px; border:14px solid green;"">","null","","","","","","","","","",""
"","image-keyboard-response","250","120963","0.0-250.0","3WJEQKOXA9O7MT0BM05BS3KYGLI1AA","A16K7X677N4WN6","356TQKY9XFJ5S7O4NGX4839SMMP87Z","","576","img/land3.png","76","576","3","1","3","2","1,0.5,0.5,0.5,1,0.5,0.5,0.5,1","1,0.5,0.5,0.5,1,0.5,0.5,0.5,1","","",""
"","html-keyboard-response","251","121264","0.0-251.0","3WJEQKOXA9O7MT0BM05BS3KYGLI1AA","A16K7X677N4WN6","356TQKY9XFJ5S7O4NGX4839SMMP87Z","","null","<img src=""img/land3.png"" style=""width:200px; border:14px solid green;"">","null","","","","","","","","","",""
"","image-keyboard-response","252","121850","0.0-252.0","3WJEQKOXA9O7MT0BM05BS3KYGLI1AA","A16K7X677N4WN6","356TQKY9XFJ5S7O4NGX4839SMMP87Z","","585","img/land2.png","75","586","2","1","2","2","1,0.5,0.5,0.5,1,0.5,0.5,0.5,1","1,0.5,0.5,0.5,1,0.5,0.5,0.5,1","","",""
"","html-keyboard-response","253","122152","0.0-253.0","3WJEQKOXA9O7MT0BM05BS3KYGLI1AA","A16K7X677N4WN6","356TQKY9XFJ5S7O4NGX4839SMMP87Z","","null","<img src=""img/land2.png"" style=""width:200px; border:14px solid green;"">","null","","","","","","","","","",""
"","image-keyboard-response","254","122706","0.0-254.0","3WJEQKOXA9O7MT0BM05BS3KYGLI1AA","A16K7X677N4WN6","356TQKY9XFJ5S7O4NGX4839SMMP87Z","","552","img/land1.png","74","554","1","1","1","2","1,0.5,0.5,0.5,1,0.5,0.5,0.5,1","1,0.5,0.5,0.5,1,0.5,0.5,0.5,1","","",""
"","html-keyboard-response","255","123008","0.0-255.0","3WJEQKOXA9O7MT0BM05BS3KYGLI1AA","A16K7X677N4WN6","356TQKY9XFJ5S7O4NGX4839SMMP87Z","","null","<img src=""img/land1.png"" style=""width:200px; border:14px solid green;"">","null","","","","","","","","","",""
"","image-keyboard-response","256","123362","0.0-256.0","3WJEQKOXA9O7MT0BM05BS3KYGLI1AA","A16K7X677N4WN6","356TQKY9XFJ5S7O4NGX4839SMMP87Z","","353","img/land1.png","74","353","1","1","1","2","1,0.5,0.5,0.5,1,0.5,0.5,0.5,1","1,0.5,0.5,0.5,1,0.5,0.5,0.5,1","","",""
"","html-keyboard-response","257","123664","0.0-257.0","3WJEQKOXA9O7MT0BM05BS3KYGLI1AA","A16K7X677N4WN6","356TQKY9XFJ5S7O4NGX4839SMMP87Z","","null","<img src=""img/land1.png"" style=""width:200px; border:14px solid green;"">","null","","","","","","","","","",""
"","image-keyboard-response","258","123970","0.0-258.0","3WJEQKOXA9O7MT0BM05BS3KYGLI1AA","A16K7X677N4WN6","356TQKY9XFJ5S7O4NGX4839SMMP87Z","","304","img/land1.png","74","305","1","1","1","2","1,0.5,0.5,0.5,1,0.5,0.5,0.5,1","1,0.5,0.5,0.5,1,0.5,0.5,0.5,1","","",""
"","html-keyboard-response","259","124273","0.0-259.0","3WJEQKOXA9O7MT0BM05BS3KYGLI1AA","A16K7X677N4WN6","356TQKY9XFJ5S7O4NGX4839SMMP87Z","","null","<img src=""img/land1.png"" style=""width:200px; border:14px solid green;"">","null","","","","","","","","","",""
"","image-keyboard-response","260","124793","0.0-260.0","3WJEQKOXA9O7MT0BM05BS3KYGLI1AA","A16K7X677N4WN6","356TQKY9XFJ5S7O4NGX4839SMMP87Z","","520","img/land3.png","76","521","3","1","3","2","1,0.5,0.5,0.5,1,0.5,0.5,0.5,1","1,0.5,0.5,0.5,1,0.5,0.5,0.5,1","","",""
"","html-keyboard-response","261","125095","0.0-261.0","3WJEQKOXA9O7MT0BM05BS3KYGLI1AA","A16K7X677N4WN6","356TQKY9XFJ5S7O4NGX4839SMMP87Z","","null","<img src=""img/land3.png"" style=""width:200px; border:14px solid green;"">","null","","","","","","","","","",""
"","image-keyboard-response","262","125666","0.0-262.0","3WJEQKOXA9O7MT0BM05BS3KYGLI1AA","A16K7X677N4WN6","356TQKY9XFJ5S7O4NGX4839SMMP87Z","","571","img/land1.png","74","571","1","1","1","2","1,0.5,0.5,0.5,1,0.5,0.5,0.5,1","1,0.5,0.5,0.5,1,0.5,0.5,0.5,1","","",""
"","html-keyboard-response","263","125967","0.0-263.0","3WJEQKOXA9O7MT0BM05BS3KYGLI1AA","A16K7X677N4WN6","356TQKY9XFJ5S7O4NGX4839SMMP87Z","","null","<img src=""img/land1.png"" style=""width:200px; border:14px solid green;"">","null","","","","","","","","","",""
"","image-keyboard-response","264","126297","0.0-264.0","3WJEQKOXA9O7MT0BM05BS3KYGLI1AA","A16K7X677N4WN6","356TQKY9XFJ5S7O4NGX4839SMMP87Z","","328","img/land1.png","74","329","1","1","1","2","1,0.5,0.5,0.5,1,0.5,0.5,0.5,1","1,0.5,0.5,0.5,1,0.5,0.5,0.5,1","","",""
"","html-keyboard-response","265","126598","0.0-265.0","3WJEQKOXA9O7MT0BM05BS3KYGLI1AA","A16K7X677N4WN6","356TQKY9XFJ5S7O4NGX4839SMMP87Z","","null","<img src=""img/land1.png"" style=""width:200px; border:14px solid green;"">","null","","","","","","","","","",""
"","image-keyboard-response","266","126890","0.0-266.0","3WJEQKOXA9O7MT0BM05BS3KYGLI1AA","A16K7X677N4WN6","356TQKY9XFJ5S7O4NGX4839SMMP87Z","","290","img/land1.png","74","291","1","1","1","2","1,0.5,0.5,0.5,1,0.5,0.5,0.5,1","1,0.5,0.5,0.5,1,0.5,0.5,0.5,1","","",""
"","html-keyboard-response","267","127192","0.0-267.0","3WJEQKOXA9O7MT0BM05BS3KYGLI1AA","A16K7X677N4WN6","356TQKY9XFJ5S7O4NGX4839SMMP87Z","","null","<img src=""img/land1.png"" style=""width:200px; border:14px solid green;"">","null","","","","","","","","","",""
"","image-keyboard-response","268","127490","0.0-268.0","3WJEQKOXA9O7MT0BM05BS3KYGLI1AA","A16K7X677N4WN6","356TQKY9XFJ5S7O4NGX4839SMMP87Z","","297","img/land1.png","74","298","1","1","1","2","1,0.5,0.5,0.5,1,0.5,0.5,0.5,1","1,0.5,0.5,0.5,1,0.5,0.5,0.5,1","","",""
"","html-keyboard-response","269","127791","0.0-269.0","3WJEQKOXA9O7MT0BM05BS3KYGLI1AA","A16K7X677N4WN6","356TQKY9XFJ5S7O4NGX4839SMMP87Z","","null","<img src=""img/land1.png"" style=""width:200px; border:14px solid green;"">","null","","","","","","","","","",""
"","image-keyboard-response","270","128074","0.0-270.0","3WJEQKOXA9O7MT0BM05BS3KYGLI1AA","A16K7X677N4WN6","356TQKY9XFJ5S7O4NGX4839SMMP87Z","","281","img/land1.png","74","283","1","1","1","2","1,0.5,0.5,0.5,1,0.5,0.5,0.5,1","1,0.5,0.5,0.5,1,0.5,0.5,0.5,1","","",""
"","html-keyboard-response","271","128377","0.0-271.0","3WJEQKOXA9O7MT0BM05BS3KYGLI1AA","A16K7X677N4WN6","356TQKY9XFJ5S7O4NGX4839SMMP87Z","","null","<img src=""img/land1.png"" style=""width:200px; border:14px solid green;"">","null","","","","","","","","","",""
"","image-keyboard-response","272","128690","0.0-272.0","3WJEQKOXA9O7MT0BM05BS3KYGLI1AA","A16K7X677N4WN6","356TQKY9XFJ5S7O4NGX4839SMMP87Z","","311","img/land1.png","74","313","1","1","1","2","1,0.5,0.5,0.5,1,0.5,0.5,0.5,1","1,0.5,0.5,0.5,1,0.5,0.5,0.5,1","","",""
"","html-keyboard-response","273","128992","0.0-273.0","3WJEQKOXA9O7MT0BM05BS3KYGLI1AA","A16K7X677N4WN6","356TQKY9XFJ5S7O4NGX4839SMMP87Z","","null","<img src=""img/land1.png"" style=""width:200px; border:14px solid green;"">","null","","","","","","","","","",""
"","image-keyboard-response","274","129330","0.0-274.0","3WJEQKOXA9O7MT0BM05BS3KYGLI1AA","A16K7X677N4WN6","356TQKY9XFJ5S7O4NGX4839SMMP87Z","","336","img/land1.png","74","337","1","1","1","2","1,0.5,0.5,0.5,1,0.5,0.5,0.5,1","1,0.5,0.5,0.5,1,0.5,0.5,0.5,1","","",""
"","html-keyboard-response","275","129632","0.0-275.0","3WJEQKOXA9O7MT0BM05BS3KYGLI1AA","A16K7X677N4WN6","356TQKY9XFJ5S7O4NGX4839SMMP87Z","","null","<img src=""img/land1.png"" style=""width:200px; border:14px solid green;"">","null","","","","","","","","","",""
"","image-keyboard-response","276","129913","0.0-276.0","3WJEQKOXA9O7MT0BM05BS3KYGLI1AA","A16K7X677N4WN6","356TQKY9XFJ5S7O4NGX4839SMMP87Z","","280","img/land1.png","74","281","1","1","1","2","1,0.5,0.5,0.5,1,0.5,0.5,0.5,1","1,0.5,0.5,0.5,1,0.5,0.5,0.5,1","","",""
"","html-keyboard-response","277","130214","0.0-277.0","3WJEQKOXA9O7MT0BM05BS3KYGLI1AA","A16K7X677N4WN6","356TQKY9XFJ5S7O4NGX4839SMMP87Z","","null","<img src=""img/land1.png"" style=""width:200px; border:14px solid green;"">","null","","","","","","","","","",""
"","image-keyboard-response","278","130522","0.0-278.0","3WJEQKOXA9O7MT0BM05BS3KYGLI1AA","A16K7X677N4WN6","356TQKY9XFJ5S7O4NGX4839SMMP87Z","","306","img/land1.png","74","308","1","1","1","2","1,0.5,0.5,0.5,1,0.5,0.5,0.5,1","1,0.5,0.5,0.5,1,0.5,0.5,0.5,1","","",""
"","html-keyboard-response","279","130825","0.0-279.0","3WJEQKOXA9O7MT0BM05BS3KYGLI1AA","A16K7X677N4WN6","356TQKY9XFJ5S7O4NGX4839SMMP87Z","","null","<img src=""img/land1.png"" style=""width:200px; border:14px solid green;"">","null","","","","","","","","","",""
"","image-keyboard-response","280","132181","0.0-280.0","3WJEQKOXA9O7MT0BM05BS3KYGLI1AA","A16K7X677N4WN6","356TQKY9XFJ5S7O4NGX4839SMMP87Z","","1354","img/land2.png","75","1355","2","1","2","2","1,0.5,0.5,0.5,1,0.5,0.5,0.5,1","1,0.5,0.5,0.5,1,0.5,0.5,0.5,1","","",""
"","html-keyboard-response","281","132483","0.0-281.0","3WJEQKOXA9O7MT0BM05BS3KYGLI1AA","A16K7X677N4WN6","356TQKY9XFJ5S7O4NGX4839SMMP87Z","","null","<img src=""img/land2.png"" style=""width:200px; border:14px solid green;"">","null","","","","","","","","","",""
"","image-keyboard-response","282","133002","0.0-282.0","3WJEQKOXA9O7MT0BM05BS3KYGLI1AA","A16K7X677N4WN6","356TQKY9XFJ5S7O4NGX4839SMMP87Z","","516","img/land1.png","74","518","1","1","1","2","1,0.5,0.5,0.5,1,0.5,0.5,0.5,1","1,0.5,0.5,0.5,1,0.5,0.5,0.5,1","","",""
"","html-keyboard-response","283","133303","0.0-283.0","3WJEQKOXA9O7MT0BM05BS3KYGLI1AA","A16K7X677N4WN6","356TQKY9XFJ5S7O4NGX4839SMMP87Z","","null","<img src=""img/land1.png"" style=""width:200px; border:14px solid green;"">","null","","","","","","","","","",""
"","image-keyboard-response","284","133658","0.0-284.0","3WJEQKOXA9O7MT0BM05BS3KYGLI1AA","A16K7X677N4WN6","356TQKY9XFJ5S7O4NGX4839SMMP87Z","","354","img/land1.png","74","355","1","1","1","2","1,0.5,0.5,0.5,1,0.5,0.5,0.5,1","1,0.5,0.5,0.5,1,0.5,0.5,0.5,1","","",""
"","html-keyboard-response","285","133960","0.0-285.0","3WJEQKOXA9O7MT0BM05BS3KYGLI1AA","A16K7X677N4WN6","356TQKY9XFJ5S7O4NGX4839SMMP87Z","","null","<img src=""img/land1.png"" style=""width:200px; border:14px solid green;"">","null","","","","","","","","","",""
"","image-keyboard-response","286","134554","0.0-286.0","3WJEQKOXA9O7MT0BM05BS3KYGLI1AA","A16K7X677N4WN6","356TQKY9XFJ5S7O4NGX4839SMMP87Z","","594","img/land2.png","75","595","2","1","2","2","1,0.5,0.5,0.5,1,0.5,0.5,0.5,1","1,0.5,0.5,0.5,1,0.5,0.5,0.5,1","","",""
"","html-keyboard-response","287","134856","0.0-287.0","3WJEQKOXA9O7MT0BM05BS3KYGLI1AA","A16K7X677N4WN6","356TQKY9XFJ5S7O4NGX4839SMMP87Z","","null","<img src=""img/land2.png"" style=""width:200px; border:14px solid green;"">","null","","","","","","","","","",""
"","image-keyboard-response","288","135530","0.0-288.0","3WJEQKOXA9O7MT0BM05BS3KYGLI1AA","A16K7X677N4WN6","356TQKY9XFJ5S7O4NGX4839SMMP87Z","","673","img/land1.png","74","674","1","1","1","2","1,0.5,0.5,0.5,1,0.5,0.5,0.5,1","1,0.5,0.5,0.5,1,0.5,0.5,0.5,1","","",""
"","html-keyboard-response","289","135832","0.0-289.0","3WJEQKOXA9O7MT0BM05BS3KYGLI1AA","A16K7X677N4WN6","356TQKY9XFJ5S7O4NGX4839SMMP87Z","","null","<img src=""img/land1.png"" style=""width:200px; border:14px solid green;"">","null","","","","","","","","","",""
"","image-keyboard-response","290","136162","0.0-290.0","3WJEQKOXA9O7MT0BM05BS3KYGLI1AA","A16K7X677N4WN6","356TQKY9XFJ5S7O4NGX4839SMMP87Z","","327","img/land1.png","74","329","1","1","1","2","1,0.5,0.5,0.5,1,0.5,0.5,0.5,1","1,0.5,0.5,0.5,1,0.5,0.5,0.5,1","","",""
"","html-keyboard-response","291","136464","0.0-291.0","3WJEQKOXA9O7MT0BM05BS3KYGLI1AA","A16K7X677N4WN6","356TQKY9XFJ5S7O4NGX4839SMMP87Z","","null","<img src=""img/land1.png"" style=""width:200px; border:14px solid green;"">","null","","","","","","","","","",""
"","image-keyboard-response","292","136721","0.0-292.0","3WJEQKOXA9O7MT0BM05BS3KYGLI1AA","A16K7X677N4WN6","356TQKY9XFJ5S7O4NGX4839SMMP87Z","","256","img/land1.png","74","257","1","1","1","2","1,0.5,0.5,0.5,1,0.5,0.5,0.5,1","1,0.5,0.5,0.5,1,0.5,0.5,0.5,1","","",""
"","html-keyboard-response","293","137022","0.0-293.0","3WJEQKOXA9O7MT0BM05BS3KYGLI1AA","A16K7X677N4WN6","356TQKY9XFJ5S7O4NGX4839SMMP87Z","","null","<img src=""img/land1.png"" style=""width:200px; border:14px solid green;"">","null","","","","","","","","","",""
"","image-keyboard-response","294","137514","0.0-294.0","3WJEQKOXA9O7MT0BM05BS3KYGLI1AA","A16K7X677N4WN6","356TQKY9XFJ5S7O4NGX4839SMMP87Z","","491","img/land3.png","76","492","3","1","3","2","1,0.5,0.5,0.5,1,0.5,0.5,0.5,1","1,0.5,0.5,0.5,1,0.5,0.5,0.5,1","","",""
"","html-keyboard-response","295","137817","0.0-295.0","3WJEQKOXA9O7MT0BM05BS3KYGLI1AA","A16K7X677N4WN6","356TQKY9XFJ5S7O4NGX4839SMMP87Z","","null","<img src=""img/land3.png"" style=""width:200px; border:14px solid green;"">","null","","","","","","","","","",""
"","image-keyboard-response","296","138434","0.0-296.0","3WJEQKOXA9O7MT0BM05BS3KYGLI1AA","A16K7X677N4WN6","356TQKY9XFJ5S7O4NGX4839SMMP87Z","","616","img/land2.png","75","617","2","1","2","2","1,0.5,0.5,0.5,1,0.5,0.5,0.5,1","1,0.5,0.5,0.5,1,0.5,0.5,0.5,1","","",""
"","html-keyboard-response","297","138736","0.0-297.0","3WJEQKOXA9O7MT0BM05BS3KYGLI1AA","A16K7X677N4WN6","356TQKY9XFJ5S7O4NGX4839SMMP87Z","","null","<img src=""img/land2.png"" style=""width:200px; border:14px solid green;"">","null","","","","","","","","","",""
"","image-keyboard-response","298","139280","0.0-298.0","3WJEQKOXA9O7MT0BM05BS3KYGLI1AA","A16K7X677N4WN6","356TQKY9XFJ5S7O4NGX4839SMMP87Z","","544","img/land1.png","74","544","1","1","1","2","1,0.5,0.5,0.5,1,0.5,0.5,0.5,1","1,0.5,0.5,0.5,1,0.5,0.5,0.5,1","","",""
"","html-keyboard-response","299","139582","0.0-299.0","3WJEQKOXA9O7MT0BM05BS3KYGLI1AA","A16K7X677N4WN6","356TQKY9XFJ5S7O4NGX4839SMMP87Z","","null","<img src=""img/land1.png"" style=""width:200px; border:14px solid green;"">","null","","","","","","","","","",""
"","image-keyboard-response","300","140162","0.0-300.0","3WJEQKOXA9O7MT0BM05BS3KYGLI1AA","A16K7X677N4WN6","356TQKY9XFJ5S7O4NGX4839SMMP87Z","","578","img/land2.png","75","579","2","1","2","2","1,0.5,0.5,0.5,1,0.5,0.5,0.5,1","1,0.5,0.5,0.5,1,0.5,0.5,0.5,1","","",""
"","html-keyboard-response","301","140464","0.0-301.0","3WJEQKOXA9O7MT0BM05BS3KYGLI1AA","A16K7X677N4WN6","356TQKY9XFJ5S7O4NGX4839SMMP87Z","","null","<img src=""img/land2.png"" style=""width:200px; border:14px solid green;"">","null","","","","","","","","","",""
"","html-keyboard-response","302","145344","0.0-302.0","3WJEQKOXA9O7MT0BM05BS3KYGLI1AA","A16K7X677N4WN6","356TQKY9XFJ5S7O4NGX4839SMMP87Z","","","","","","","","","","","","","",""
"","image-keyboard-response","303","146849","0.0-303.0","3WJEQKOXA9O7MT0BM05BS3KYGLI1AA","A16K7X677N4WN6","356TQKY9XFJ5S7O4NGX4839SMMP87Z","","","img/land5.png","","1503","-1","0","2","2","1,0.5,0.5,0.5,1,0.5,0.5,0.5,1","1,0.5,0.5,0.5,1,0.5,0.5,0.5,1","","",""
"","html-keyboard-response","304","147167","0.0-304.0","3WJEQKOXA9O7MT0BM05BS3KYGLI1AA","A16K7X677N4WN6","356TQKY9XFJ5S7O4NGX4839SMMP87Z","","null","<img src=""img/land5.png"" style=""width:200px;border:14px solid red;"">","null","","","","","","","","","",""
"","image-keyboard-response","305","147818","0.0-305.0","3WJEQKOXA9O7MT0BM05BS3KYGLI1AA","A16K7X677N4WN6","356TQKY9XFJ5S7O4NGX4839SMMP87Z","","649","img/land4.png","75","651","2","1","1","2","1,0.5,0.5,0.5,1,0.5,0.5,0.5,1","1,0.5,0.5,0.5,1,0.5,0.5,0.5,1","","",""
"","html-keyboard-response","306","148120","0.0-306.0","3WJEQKOXA9O7MT0BM05BS3KYGLI1AA","A16K7X677N4WN6","356TQKY9XFJ5S7O4NGX4839SMMP87Z","","null","<img src=""img/land4.png"" style=""width:200px; border:14px solid green;"">","null","","","","","","","","","",""
"","image-keyboard-response","307","148594","0.0-307.0","3WJEQKOXA9O7MT0BM05BS3KYGLI1AA","A16K7X677N4WN6","356TQKY9XFJ5S7O4NGX4839SMMP87Z","","472","img/land5.png","76","473","3","0","2","2","1,0.5,0.5,0.5,1,0.5,0.5,0.5,1","1,0.5,0.5,0.5,1,0.5,0.5,0.5,1","","",""
"","html-keyboard-response","308","148895","0.0-308.0","3WJEQKOXA9O7MT0BM05BS3KYGLI1AA","A16K7X677N4WN6","356TQKY9XFJ5S7O4NGX4839SMMP87Z","","null","<img src=""img/land5.png"" style=""width:200px;border:14px solid red;"">","null","","","","","","","","","",""
"","image-keyboard-response","309","149178","0.0-309.0","3WJEQKOXA9O7MT0BM05BS3KYGLI1AA","A16K7X677N4WN6","356TQKY9XFJ5S7O4NGX4839SMMP87Z","","280","img/land6.png","75","282","2","0","3","2","1,0.5,0.5,0.5,1,0.5,0.5,0.5,1","1,0.5,0.5,0.5,1,0.5,0.5,0.5,1","","",""
"","html-keyboard-response","310","149480","0.0-310.0","3WJEQKOXA9O7MT0BM05BS3KYGLI1AA","A16K7X677N4WN6","356TQKY9XFJ5S7O4NGX4839SMMP87Z","","null","<img src=""img/land6.png"" style=""width:200px;border:14px solid red;"">","null","","","","","","","","","",""
"","image-keyboard-response","311","149689","0.0-311.0","3WJEQKOXA9O7MT0BM05BS3KYGLI1AA","A16K7X677N4WN6","356TQKY9XFJ5S7O4NGX4839SMMP87Z","","209","img/land5.png","74","209","1","0","2","2","1,0.5,0.5,0.5,1,0.5,0.5,0.5,1","1,0.5,0.5,0.5,1,0.5,0.5,0.5,1","","",""
"","html-keyboard-response","312","149991","0.0-312.0","3WJEQKOXA9O7MT0BM05BS3KYGLI1AA","A16K7X677N4WN6","356TQKY9XFJ5S7O4NGX4839SMMP87Z","","null","<img src=""img/land5.png"" style=""width:200px;border:14px solid red;"">","null","","","","","","","","","",""
"","image-keyboard-response","313","150321","0.0-313.0","3WJEQKOXA9O7MT0BM05BS3KYGLI1AA","A16K7X677N4WN6","356TQKY9XFJ5S7O4NGX4839SMMP87Z","","329","img/land4.png","75","331","2","0","1","2","1,0.5,0.5,0.5,1,0.5,0.5,0.5,1","1,0.5,0.5,0.5,1,0.5,0.5,0.5,1","","",""
"","html-keyboard-response","314","150624","0.0-314.0","3WJEQKOXA9O7MT0BM05BS3KYGLI1AA","A16K7X677N4WN6","356TQKY9XFJ5S7O4NGX4839SMMP87Z","","null","<img src=""img/land4.png"" style=""width:200px;border:14px solid red;"">","null","","","","","","","","","",""
"","image-keyboard-response","315","151041","0.0-315.0","3WJEQKOXA9O7MT0BM05BS3KYGLI1AA","A16K7X677N4WN6","356TQKY9XFJ5S7O4NGX4839SMMP87Z","","417","img/land5.png","75","417","2","1","2","2","1,0.5,0.5,0.5,1,0.5,0.5,0.5,1","1,0.5,0.5,0.5,1,0.5,0.5,0.5,1","","",""
"","html-keyboard-response","316","151342","0.0-316.0","3WJEQKOXA9O7MT0BM05BS3KYGLI1AA","A16K7X677N4WN6","356TQKY9XFJ5S7O4NGX4839SMMP87Z","","null","<img src=""img/land5.png"" style=""width:200px; border:14px solid green;"">","null","","","","","","","","","",""
"","image-keyboard-response","317","151665","0.0-317.0","3WJEQKOXA9O7MT0BM05BS3KYGLI1AA","A16K7X677N4WN6","356TQKY9XFJ5S7O4NGX4839SMMP87Z","","321","img/land5.png","75","322","2","1","2","2","1,0.5,0.5,0.5,1,0.5,0.5,0.5,1","1,0.5,0.5,0.5,1,0.5,0.5,0.5,1","","",""
"","html-keyboard-response","318","151967","0.0-318.0","3WJEQKOXA9O7MT0BM05BS3KYGLI1AA","A16K7X677N4WN6","356TQKY9XFJ5S7O4NGX4839SMMP87Z","","null","<img src=""img/land5.png"" style=""width:200px; border:14px solid green;"">","null","","","","","","","","","",""
"","image-keyboard-response","319","152200","0.0-319.0","3WJEQKOXA9O7MT0BM05BS3KYGLI1AA","A16K7X677N4WN6","356TQKY9XFJ5S7O4NGX4839SMMP87Z","","232","img/land5.png","75","233","2","1","2","2","1,0.5,0.5,0.5,1,0.5,0.5,0.5,1","1,0.5,0.5,0.5,1,0.5,0.5,0.5,1","","",""
"","html-keyboard-response","320","152502","0.0-320.0","3WJEQKOXA9O7MT0BM05BS3KYGLI1AA","A16K7X677N4WN6","356TQKY9XFJ5S7O4NGX4839SMMP87Z","","null","<img src=""img/land5.png"" style=""width:200px; border:14px solid green;"">","null","","","","","","","","","",""
"","image-keyboard-response","321","152737","0.0-321.0","3WJEQKOXA9O7MT0BM05BS3KYGLI1AA","A16K7X677N4WN6","356TQKY9XFJ5S7O4NGX4839SMMP87Z","","235","img/land4.png","75","236","2","1","1","2","1,0.5,0.5,0.5,1,0.5,0.5,0.5,1","1,0.5,0.5,0.5,1,0.5,0.5,0.5,1","","",""
"","html-keyboard-response","322","153040","0.0-322.0","3WJEQKOXA9O7MT0BM05BS3KYGLI1AA","A16K7X677N4WN6","356TQKY9XFJ5S7O4NGX4839SMMP87Z","","null","<img src=""img/land4.png"" style=""width:200px; border:14px solid green;"">","null","","","","","","","","","",""
"","image-keyboard-response","323","153362","0.0-323.0","3WJEQKOXA9O7MT0BM05BS3KYGLI1AA","A16K7X677N4WN6","356TQKY9XFJ5S7O4NGX4839SMMP87Z","","320","img/land4.png","75","321","2","0","1","2","1,0.5,0.5,0.5,1,0.5,0.5,0.5,1","1,0.5,0.5,0.5,1,0.5,0.5,0.5,1","","",""
"","html-keyboard-response","324","153664","0.0-324.0","3WJEQKOXA9O7MT0BM05BS3KYGLI1AA","A16K7X677N4WN6","356TQKY9XFJ5S7O4NGX4839SMMP87Z","","null","<img src=""img/land4.png"" style=""width:200px;border:14px solid red;"">","null","","","","","","","","","",""
"","image-keyboard-response","325","154602","0.0-325.0","3WJEQKOXA9O7MT0BM05BS3KYGLI1AA","A16K7X677N4WN6","356TQKY9XFJ5S7O4NGX4839SMMP87Z","","937","img/land6.png","76","937","3","1","3","2","1,0.5,0.5,0.5,1,0.5,0.5,0.5,1","1,0.5,0.5,0.5,1,0.5,0.5,0.5,1","","",""
"","html-keyboard-response","326","154904","0.0-326.0","3WJEQKOXA9O7MT0BM05BS3KYGLI1AA","A16K7X677N4WN6","356TQKY9XFJ5S7O4NGX4839SMMP87Z","","null","<img src=""img/land6.png"" style=""width:200px; border:14px solid green;"">","null","","","","","","","","","",""
"","image-keyboard-response","327","155153","0.0-327.0","3WJEQKOXA9O7MT0BM05BS3KYGLI1AA","A16K7X677N4WN6","356TQKY9XFJ5S7O4NGX4839SMMP87Z","","249","img/land6.png","76","250","3","1","3","2","1,0.5,0.5,0.5,1,0.5,0.5,0.5,1","1,0.5,0.5,0.5,1,0.5,0.5,0.5,1","","",""
"","html-keyboard-response","328","155456","0.0-328.0","3WJEQKOXA9O7MT0BM05BS3KYGLI1AA","A16K7X677N4WN6","356TQKY9XFJ5S7O4NGX4839SMMP87Z","","null","<img src=""img/land6.png"" style=""width:200px; border:14px solid green;"">","null","","","","","","","","","",""
"","image-keyboard-response","329","156146","0.0-329.0","3WJEQKOXA9O7MT0BM05BS3KYGLI1AA","A16K7X677N4WN6","356TQKY9XFJ5S7O4NGX4839SMMP87Z","","690","img/land4.png","75","690","2","0","1","2","1,0.5,0.5,0.5,1,0.5,0.5,0.5,1","1,0.5,0.5,0.5,1,0.5,0.5,0.5,1","","",""
"","html-keyboard-response","330","156448","0.0-330.0","3WJEQKOXA9O7MT0BM05BS3KYGLI1AA","A16K7X677N4WN6","356TQKY9XFJ5S7O4NGX4839SMMP87Z","","null","<img src=""img/land4.png"" style=""width:200px;border:14px solid red;"">","null","","","","","","","","","",""
"","image-keyboard-response","331","156612","0.0-331.0","3WJEQKOXA9O7MT0BM05BS3KYGLI1AA","A16K7X677N4WN6","356TQKY9XFJ5S7O4NGX4839SMMP87Z","","161","img/land5.png","74","163","1","1","2","2","1,0.5,0.5,0.5,1,0.5,0.5,0.5,1","1,0.5,0.5,0.5,1,0.5,0.5,0.5,1","","",""
"","html-keyboard-response","332","156914","0.0-332.0","3WJEQKOXA9O7MT0BM05BS3KYGLI1AA","A16K7X677N4WN6","356TQKY9XFJ5S7O4NGX4839SMMP87Z","","null","<img src=""img/land5.png"" style=""width:200px; border:14px solid green;"">","null","","","","","","","","","",""
"","image-keyboard-response","333","157090","0.0-333.0","3WJEQKOXA9O7MT0BM05BS3KYGLI1AA","A16K7X677N4WN6","356TQKY9XFJ5S7O4NGX4839SMMP87Z","","175","img/land5.png","75","175","2","1","2","2","1,0.5,0.5,0.5,1,0.5,0.5,0.5,1","1,0.5,0.5,0.5,1,0.5,0.5,0.5,1","","",""
"","html-keyboard-response","334","157392","0.0-334.0","3WJEQKOXA9O7MT0BM05BS3KYGLI1AA","A16K7X677N4WN6","356TQKY9XFJ5S7O4NGX4839SMMP87Z","","null","<img src=""img/land5.png"" style=""width:200px; border:14px solid green;"">","null","","","","","","","","","",""
"","image-keyboard-response","335","157794","0.0-335.0","3WJEQKOXA9O7MT0BM05BS3KYGLI1AA","A16K7X677N4WN6","356TQKY9XFJ5S7O4NGX4839SMMP87Z","","401","img/land4.png","75","402","2","1","1","2","1,0.5,0.5,0.5,1,0.5,0.5,0.5,1","1,0.5,0.5,0.5,1,0.5,0.5,0.5,1","","",""
"","html-keyboard-response","336","158096","0.0-336.0","3WJEQKOXA9O7MT0BM05BS3KYGLI1AA","A16K7X677N4WN6","356TQKY9XFJ5S7O4NGX4839SMMP87Z","","null","<img src=""img/land4.png"" style=""width:200px; border:14px solid green;"">","null","","","","","","","","","",""
"","image-keyboard-response","337","158234","0.0-337.0","3WJEQKOXA9O7MT0BM05BS3KYGLI1AA","A16K7X677N4WN6","356TQKY9XFJ5S7O4NGX4839SMMP87Z","","137","img/land5.png","76","138","3","0","2","2","1,0.5,0.5,0.5,1,0.5,0.5,0.5,1","1,0.5,0.5,0.5,1,0.5,0.5,0.5,1","","",""
"","html-keyboard-response","338","158536","0.0-338.0","3WJEQKOXA9O7MT0BM05BS3KYGLI1AA","A16K7X677N4WN6","356TQKY9XFJ5S7O4NGX4839SMMP87Z","","null","<img src=""img/land5.png"" style=""width:200px;border:14px solid red;"">","null","","","","","","","","","",""
"","image-keyboard-response","339","158698","0.0-339.0","3WJEQKOXA9O7MT0BM05BS3KYGLI1AA","A16K7X677N4WN6","356TQKY9XFJ5S7O4NGX4839SMMP87Z","","159","img/land5.png","75","161","2","1","2","2","1,0.5,0.5,0.5,1,0.5,0.5,0.5,1","1,0.5,0.5,0.5,1,0.5,0.5,0.5,1","","",""
"","html-keyboard-response","340","159000","0.0-340.0","3WJEQKOXA9O7MT0BM05BS3KYGLI1AA","A16K7X677N4WN6","356TQKY9XFJ5S7O4NGX4839SMMP87Z","","null","<img src=""img/land5.png"" style=""width:200px; border:14px solid green;"">","null","","","","","","","","","",""
"","image-keyboard-response","341","159378","0.0-341.0","3WJEQKOXA9O7MT0BM05BS3KYGLI1AA","A16K7X677N4WN6","356TQKY9XFJ5S7O4NGX4839SMMP87Z","","376","img/land4.png","75","377","2","1","1","2","1,0.5,0.5,0.5,1,0.5,0.5,0.5,1","1,0.5,0.5,0.5,1,0.5,0.5,0.5,1","","",""
"","html-keyboard-response","342","159680","0.0-342.0","3WJEQKOXA9O7MT0BM05BS3KYGLI1AA","A16K7X677N4WN6","356TQKY9XFJ5S7O4NGX4839SMMP87Z","","null","<img src=""img/land4.png"" style=""width:200px; border:14px solid green;"">","null","","","","","","","","","",""
"","image-keyboard-response","343","159913","0.0-343.0","3WJEQKOXA9O7MT0BM05BS3KYGLI1AA","A16K7X677N4WN6","356TQKY9XFJ5S7O4NGX4839SMMP87Z","","231","img/land4.png","75","232","2","1","1","2","1,0.5,0.5,0.5,1,0.5,0.5,0.5,1","1,0.5,0.5,0.5,1,0.5,0.5,0.5,1","","",""
"","html-keyboard-response","344","160214","0.0-344.0","3WJEQKOXA9O7MT0BM05BS3KYGLI1AA","A16K7X677N4WN6","356TQKY9XFJ5S7O4NGX4839SMMP87Z","","null","<img src=""img/land4.png"" style=""width:200px; border:14px solid green;"">","null","","","","","","","","","",""
"","image-keyboard-response","345","160593","0.0-345.0","3WJEQKOXA9O7MT0BM05BS3KYGLI1AA","A16K7X677N4WN6","356TQKY9XFJ5S7O4NGX4839SMMP87Z","","379","img/land5.png","75","380","2","1","2","2","1,0.5,0.5,0.5,1,0.5,0.5,0.5,1","1,0.5,0.5,0.5,1,0.5,0.5,0.5,1","","",""
"","html-keyboard-response","346","160895","0.0-346.0","3WJEQKOXA9O7MT0BM05BS3KYGLI1AA","A16K7X677N4WN6","356TQKY9XFJ5S7O4NGX4839SMMP87Z","","null","<img src=""img/land5.png"" style=""width:200px; border:14px solid green;"">","null","","","","","","","","","",""
"","image-keyboard-response","347","161761","0.0-347.0","3WJEQKOXA9O7MT0BM05BS3KYGLI1AA","A16K7X677N4WN6","356TQKY9XFJ5S7O4NGX4839SMMP87Z","","864","img/land6.png","74","866","1","0","3","2","1,0.5,0.5,0.5,1,0.5,0.5,0.5,1","1,0.5,0.5,0.5,1,0.5,0.5,0.5,1","","",""
"","html-keyboard-response","348","162063","0.0-348.0","3WJEQKOXA9O7MT0BM05BS3KYGLI1AA","A16K7X677N4WN6","356TQKY9XFJ5S7O4NGX4839SMMP87Z","","null","<img src=""img/land6.png"" style=""width:200px;border:14px solid red;"">","null","","","","","","","","","",""
"","image-keyboard-response","349","162273","0.0-349.0","3WJEQKOXA9O7MT0BM05BS3KYGLI1AA","A16K7X677N4WN6","356TQKY9XFJ5S7O4NGX4839SMMP87Z","","208","img/land4.png","75","210","2","1","1","2","1,0.5,0.5,0.5,1,0.5,0.5,0.5,1","1,0.5,0.5,0.5,1,0.5,0.5,0.5,1","","",""
"","html-keyboard-response","350","162575","0.0-350.0","3WJEQKOXA9O7MT0BM05BS3KYGLI1AA","A16K7X677N4WN6","356TQKY9XFJ5S7O4NGX4839SMMP87Z","","null","<img src=""img/land4.png"" style=""width:200px; border:14px solid green;"">","null","","","","","","","","","",""
"","image-keyboard-response","351","163057","0.0-351.0","3WJEQKOXA9O7MT0BM05BS3KYGLI1AA","A16K7X677N4WN6","356TQKY9XFJ5S7O4NGX4839SMMP87Z","","482","img/land6.png","75","483","2","0","3","2","1,0.5,0.5,0.5,1,0.5,0.5,0.5,1","1,0.5,0.5,0.5,1,0.5,0.5,0.5,1","","",""
"","html-keyboard-response","352","163359","0.0-352.0","3WJEQKOXA9O7MT0BM05BS3KYGLI1AA","A16K7X677N4WN6","356TQKY9XFJ5S7O4NGX4839SMMP87Z","","null","<img src=""img/land6.png"" style=""width:200px;border:14px solid red;"">","null","","","","","","","","","",""
"","image-keyboard-response","353","163547","0.0-353.0","3WJEQKOXA9O7MT0BM05BS3KYGLI1AA","A16K7X677N4WN6","356TQKY9XFJ5S7O4NGX4839SMMP87Z","","187","img/land4.png","76","188","3","1","1","2","1,0.5,0.5,0.5,1,0.5,0.5,0.5,1","1,0.5,0.5,0.5,1,0.5,0.5,0.5,1","","",""
"","html-keyboard-response","354","163850","0.0-354.0","3WJEQKOXA9O7MT0BM05BS3KYGLI1AA","A16K7X677N4WN6","356TQKY9XFJ5S7O4NGX4839SMMP87Z","","null","<img src=""img/land4.png"" style=""width:200px; border:14px solid green;"">","null","","","","","","","","","",""
"","image-keyboard-response","355","164338","0.0-355.0","3WJEQKOXA9O7MT0BM05BS3KYGLI1AA","A16K7X677N4WN6","356TQKY9XFJ5S7O4NGX4839SMMP87Z","","486","img/land4.png","75","487","2","0","1","2","1,0.5,0.5,0.5,1,0.5,0.5,0.5,1","1,0.5,0.5,0.5,1,0.5,0.5,0.5,1","","",""
"","html-keyboard-response","356","164640","0.0-356.0","3WJEQKOXA9O7MT0BM05BS3KYGLI1AA","A16K7X677N4WN6","356TQKY9XFJ5S7O4NGX4839SMMP87Z","","null","<img src=""img/land4.png"" style=""width:200px;border:14px solid red;"">","null","","","","","","","","","",""
"","image-keyboard-response","357","164698","0.0-357.0","3WJEQKOXA9O7MT0BM05BS3KYGLI1AA","A16K7X677N4WN6","356TQKY9XFJ5S7O4NGX4839SMMP87Z","","55","img/land5.png","76","58","3","1","2","2","1,0.5,0.5,0.5,1,0.5,0.5,0.5,1","1,0.5,0.5,0.5,1,0.5,0.5,0.5,1","","",""
"","html-keyboard-response","358","165000","0.0-358.0","3WJEQKOXA9O7MT0BM05BS3KYGLI1AA","A16K7X677N4WN6","356TQKY9XFJ5S7O4NGX4839SMMP87Z","","null","<img src=""img/land5.png"" style=""width:200px; border:14px solid green;"">","null","","","","","","","","","",""
"","image-keyboard-response","359","165314","0.0-359.0","3WJEQKOXA9O7MT0BM05BS3KYGLI1AA","A16K7X677N4WN6","356TQKY9XFJ5S7O4NGX4839SMMP87Z","","312","img/land5.png","75","314","2","1","2","2","1,0.5,0.5,0.5,1,0.5,0.5,0.5,1","1,0.5,0.5,0.5,1,0.5,0.5,0.5,1","","",""
"","html-keyboard-response","360","165616","0.0-360.0","3WJEQKOXA9O7MT0BM05BS3KYGLI1AA","A16K7X677N4WN6","356TQKY9XFJ5S7O4NGX4839SMMP87Z","","null","<img src=""img/land5.png"" style=""width:200px; border:14px solid green;"">","null","","","","","","","","","",""
"","image-keyboard-response","361","165825","0.0-361.0","3WJEQKOXA9O7MT0BM05BS3KYGLI1AA","A16K7X677N4WN6","356TQKY9XFJ5S7O4NGX4839SMMP87Z","","208","img/land4.png","75","209","2","1","1","2","1,0.5,0.5,0.5,1,0.5,0.5,0.5,1","1,0.5,0.5,0.5,1,0.5,0.5,0.5,1","","",""
"","html-keyboard-response","362","166127","0.0-362.0","3WJEQKOXA9O7MT0BM05BS3KYGLI1AA","A16K7X677N4WN6","356TQKY9XFJ5S7O4NGX4839SMMP87Z","","null","<img src=""img/land4.png"" style=""width:200px; border:14px solid green;"">","null","","","","","","","","","",""
"","image-keyboard-response","363","166434","0.0-363.0","3WJEQKOXA9O7MT0BM05BS3KYGLI1AA","A16K7X677N4WN6","356TQKY9XFJ5S7O4NGX4839SMMP87Z","","304","img/land4.png","75","305","2","1","1","2","1,0.5,0.5,0.5,1,0.5,0.5,0.5,1","1,0.5,0.5,0.5,1,0.5,0.5,0.5,1","","",""
"","html-keyboard-response","364","166736","0.0-364.0","3WJEQKOXA9O7MT0BM05BS3KYGLI1AA","A16K7X677N4WN6","356TQKY9XFJ5S7O4NGX4839SMMP87Z","","null","<img src=""img/land4.png"" style=""width:200px; border:14px solid green;"">","null","","","","","","","","","",""
"","image-keyboard-response","365","167393","0.0-365.0","3WJEQKOXA9O7MT0BM05BS3KYGLI1AA","A16K7X677N4WN6","356TQKY9XFJ5S7O4NGX4839SMMP87Z","","656","img/land5.png","75","658","2","1","2","2","1,0.5,0.5,0.5,1,0.5,0.5,0.5,1","1,0.5,0.5,0.5,1,0.5,0.5,0.5,1","","",""
"","html-keyboard-response","366","167695","0.0-366.0","3WJEQKOXA9O7MT0BM05BS3KYGLI1AA","A16K7X677N4WN6","356TQKY9XFJ5S7O4NGX4839SMMP87Z","","null","<img src=""img/land5.png"" style=""width:200px; border:14px solid green;"">","null","","","","","","","","","",""
"","image-keyboard-response","367","168098","0.0-367.0","3WJEQKOXA9O7MT0BM05BS3KYGLI1AA","A16K7X677N4WN6","356TQKY9XFJ5S7O4NGX4839SMMP87Z","","402","img/land4.png","75","403","2","0","1","2","1,0.5,0.5,0.5,1,0.5,0.5,0.5,1","1,0.5,0.5,0.5,1,0.5,0.5,0.5,1","","",""
"","html-keyboard-response","368","168400","0.0-368.0","3WJEQKOXA9O7MT0BM05BS3KYGLI1AA","A16K7X677N4WN6","356TQKY9XFJ5S7O4NGX4839SMMP87Z","","null","<img src=""img/land4.png"" style=""width:200px;border:14px solid red;"">","null","","","","","","","","","",""
"","image-keyboard-response","369","168618","0.0-369.0","3WJEQKOXA9O7MT0BM05BS3KYGLI1AA","A16K7X677N4WN6","356TQKY9XFJ5S7O4NGX4839SMMP87Z","","215","img/land6.png","76","217","3","1","3","2","1,0.5,0.5,0.5,1,0.5,0.5,0.5,1","1,0.5,0.5,0.5,1,0.5,0.5,0.5,1","","",""
"","html-keyboard-response","370","168919","0.0-370.0","3WJEQKOXA9O7MT0BM05BS3KYGLI1AA","A16K7X677N4WN6","356TQKY9XFJ5S7O4NGX4839SMMP87Z","","null","<img src=""img/land6.png"" style=""width:200px; border:14px solid green;"">","null","","","","","","","","","",""
"","image-keyboard-response","371","169145","0.0-371.0","3WJEQKOXA9O7MT0BM05BS3KYGLI1AA","A16K7X677N4WN6","356TQKY9XFJ5S7O4NGX4839SMMP87Z","","226","img/land5.png","75","226","2","1","2","2","1,0.5,0.5,0.5,1,0.5,0.5,0.5,1","1,0.5,0.5,0.5,1,0.5,0.5,0.5,1","","",""
"","html-keyboard-response","372","169447","0.0-372.0","3WJEQKOXA9O7MT0BM05BS3KYGLI1AA","A16K7X677N4WN6","356TQKY9XFJ5S7O4NGX4839SMMP87Z","","null","<img src=""img/land5.png"" style=""width:200px; border:14px solid green;"">","null","","","","","","","","","",""
"","image-keyboard-response","373","169680","0.0-373.0","3WJEQKOXA9O7MT0BM05BS3KYGLI1AA","A16K7X677N4WN6","356TQKY9XFJ5S7O4NGX4839SMMP87Z","","233","img/land6.png","75","235","2","1","3","2","1,0.5,0.5,0.5,1,0.5,0.5,0.5,1","1,0.5,0.5,0.5,1,0.5,0.5,0.5,1","","",""
"","html-keyboard-response","374","169982","0.0-374.0","3WJEQKOXA9O7MT0BM05BS3KYGLI1AA","A16K7X677N4WN6","356TQKY9XFJ5S7O4NGX4839SMMP87Z","","null","<img src=""img/land6.png"" style=""width:200px; border:14px solid green;"">","null","","","","","","","","","",""
"","image-keyboard-response","375","170273","0.0-375.0","3WJEQKOXA9O7MT0BM05BS3KYGLI1AA","A16K7X677N4WN6","356TQKY9XFJ5S7O4NGX4839SMMP87Z","","290","img/land6.png","75","292","2","1","3","2","1,0.5,0.5,0.5,1,0.5,0.5,0.5,1","1,0.5,0.5,0.5,1,0.5,0.5,0.5,1","","",""
"","html-keyboard-response","376","170575","0.0-376.0","3WJEQKOXA9O7MT0BM05BS3KYGLI1AA","A16K7X677N4WN6","356TQKY9XFJ5S7O4NGX4839SMMP87Z","","null","<img src=""img/land6.png"" style=""width:200px; border:14px solid green;"">","null","","","","","","","","","",""
"","image-keyboard-response","377","171161","0.0-377.0","3WJEQKOXA9O7MT0BM05BS3KYGLI1AA","A16K7X677N4WN6","356TQKY9XFJ5S7O4NGX4839SMMP87Z","","584","img/land5.png","75","584","2","1","2","2","1,0.5,0.5,0.5,1,0.5,0.5,0.5,1","1,0.5,0.5,0.5,1,0.5,0.5,0.5,1","","",""
"","html-keyboard-response","378","171463","0.0-378.0","3WJEQKOXA9O7MT0BM05BS3KYGLI1AA","A16K7X677N4WN6","356TQKY9XFJ5S7O4NGX4839SMMP87Z","","null","<img src=""img/land5.png"" style=""width:200px; border:14px solid green;"">","null","","","","","","","","","",""
"","image-keyboard-response","379","171849","0.0-379.0","3WJEQKOXA9O7MT0BM05BS3KYGLI1AA","A16K7X677N4WN6","356TQKY9XFJ5S7O4NGX4839SMMP87Z","","385","img/land6.png","75","387","2","0","3","2","1,0.5,0.5,0.5,1,0.5,0.5,0.5,1","1,0.5,0.5,0.5,1,0.5,0.5,0.5,1","","",""
