"success","trial_type","trial_index","time_elapsed","internal_node_id","assignmentID","mturkID","hitID","view_history","rt","stimulus","key_press","reactionTime","a","r","s","cond","reward_cond","reward_cond_actual","reward_matrix_idx","responses","question_order"
"true","fullscreen","0","2533","0.0-0.0","","","","","","","","","","","","","","","","",""
"","instructions","1","14803","0.0-1.0","","","","[{""page_index"":0,""viewing_time"":3245},{""page_index"":1,""viewing_time"":1680},{""page_index"":2,""viewing_time"":1104},{""page_index"":3,""viewing_time"":2063},{""page_index"":4,""viewing_time"":1672},{""page_index"":5,""viewing_time"":1417},{""page_index"":6,""viewing_time"":1088}]","12269","","","","","","","","","","","",""
"","image-keyboard-response","2","15372","0.0-2.0","","","","","566","img/land3.png","74","568","1","0","3","1","1,0,0,0.25,0.5,0.25,0.25,0.25,0.5","0,1,0,0.5,0.25,0.25,0.25,0.25,0.5","3","",""
"","html-keyboard-response","3","15680","0.0-3.0","","","","","null","<img src=""img/land3.png"" style=""width:200px;border:14px solid red;"">","null","","","","","","","","","",""
"","image-keyboard-response","4","16331","0.0-4.0","","","","","649","img/land2.png","74","649","1","0","2","1","1,0,0,0.25,0.5,0.25,0.25,0.25,0.5","0,1,0,0.5,0.25,0.25,0.25,0.25,0.5","3","",""
"","html-keyboard-response","5","16639","0.0-5.0","","","","","null","<img src=""img/land2.png"" style=""width:200px;border:14px solid red;"">","null","","","","","","","","","",""
"","image-keyboard-response","6","17348","0.0-6.0","","","","","706","img/land1.png","74","708","1","0","1","1","1,0,0,0.25,0.5,0.25,0.25,0.25,0.5","0,1,0,0.5,0.25,0.25,0.25,0.25,0.5","3","",""
"","html-keyboard-response","7","17651","0.0-7.0","","","","","null","<img src=""img/land1.png"" style=""width:200px;border:14px solid red;"">","null","","","","","","","","","",""
"","image-keyboard-response","8","18437","0.0-8.0","","","","","785","img/land1.png","74","787","1","0","1","1","1,0,0,0.25,0.5,0.25,0.25,0.25,0.5","0,1,0,0.5,0.25,0.25,0.25,0.25,0.5","3","",""
"","html-keyboard-response","9","18738","0.0-9.0","","","","","null","<img src=""img/land1.png"" style=""width:200px;border:14px solid red;"">","null","","","","","","","","","",""
"","image-keyboard-response","10","19629","0.0-10.0","","","","","889","img/land3.png","75","890","2","0","3","1","1,0,0,0.25,0.5,0.25,0.25,0.25,0.5","0,1,0,0.5,0.25,0.25,0.25,0.25,0.5","3","",""
"","html-keyboard-response","11","19944","0.0-11.0","","","","","null","<img src=""img/land3.png"" style=""width:200px;border:14px solid red;"">","null","","","","","","","","","",""
"","image-keyboard-response","12","20732","0.0-12.0","","","","","786","img/land1.png","76","788","3","0","1","1","1,0,0,0.25,0.5,0.25,0.25,0.25,0.5","0,1,0,0.5,0.25,0.25,0.25,0.25,0.5","3","",""
"","html-keyboard-response","13","21038","0.0-13.0","","","","","null","<img src=""img/land1.png"" style=""width:200px;border:14px solid red;"">","null","","","","","","","","","",""
"","image-keyboard-response","14","21683","0.0-14.0","","","","","644","img/land1.png","75","646","2","1","1","1","1,0,0,0.25,0.5,0.25,0.25,0.25,0.5","0,1,0,0.5,0.25,0.25,0.25,0.25,0.5","3","",""
"","html-keyboard-response","15","21995","0.0-15.0","","","","","null","<img src=""img/land1.png"" style=""width:200px; border:14px solid green;"">","null","","","","","","","","","",""
"","image-keyboard-response","16","22660","0.0-16.0","","","","","663","img/land1.png","75","664","2","1","1","1","1,0,0,0.25,0.5,0.25,0.25,0.25,0.5","0,1,0,0.5,0.25,0.25,0.25,0.25,0.5","3","",""
"","html-keyboard-response","17","22966","0.0-17.0","","","","","null","<img src=""img/land1.png"" style=""width:200px; border:14px solid green;"">","null","","","","","","","","","",""
"","image-keyboard-response","18","23580","0.0-18.0","","","","","613","img/land1.png","75","614","2","1","1","1","1,0,0,0.25,0.5,0.25,0.25,0.25,0.5","0,1,0,0.5,0.25,0.25,0.25,0.25,0.5","3","",""
"","html-keyboard-response","19","23885","0.0-19.0","","","","","null","<img src=""img/land1.png"" style=""width:200px; border:14px solid green;"">","null","","","","","","","","","",""
"","image-keyboard-response","20","24780","0.0-20.0","","","","","894","img/land3.png","76","896","3","0","3","1","1,0,0,0.25,0.5,0.25,0.25,0.25,0.5","0,1,0,0.5,0.25,0.25,0.25,0.25,0.5","3","",""
"","html-keyboard-response","21","25084","0.0-21.0","","","","","null","<img src=""img/land3.png"" style=""width:200px;border:14px solid red;"">","null","","","","","","","","","",""
"","image-keyboard-response","22","25947","0.0-22.0","","","","","860","img/land3.png","74","861","1","1","3","1","1,0,0,0.25,0.5,0.25,0.25,0.25,0.5","0,1,0,0.5,0.25,0.25,0.25,0.25,0.5","3","",""
"","html-keyboard-response","23","26253","0.0-23.0","","","","","null","<img src=""img/land3.png"" style=""width:200px; border:14px solid green;"">","null","","","","","","","","","",""
"","image-keyboard-response","24","26909","0.0-24.0","","","","","654","img/land1.png","75","654","2","1","1","1","1,0,0,0.25,0.5,0.25,0.25,0.25,0.5","0,1,0,0.5,0.25,0.25,0.25,0.25,0.5","3","",""
"","html-keyboard-response","25","27220","0.0-25.0","","","","","null","<img src=""img/land1.png"" style=""width:200px; border:14px solid green;"">","null","","","","","","","","","",""
"","image-keyboard-response","26","27852","0.0-26.0","","","","","630","img/land1.png","75","631","2","1","1","1","1,0,0,0.25,0.5,0.25,0.25,0.25,0.5","0,1,0,0.5,0.25,0.25,0.25,0.25,0.5","3","",""
"","html-keyboard-response","27","28164","0.0-27.0","","","","","null","<img src=""img/land1.png"" style=""width:200px; border:14px solid green;"">","null","","","","","","","","","",""
"","image-keyboard-response","28","28739","0.0-28.0","","","","","574","img/land3.png","74","574","1","0","3","1","1,0,0,0.25,0.5,0.25,0.25,0.25,0.5","0,1,0,0.5,0.25,0.25,0.25,0.25,0.5","3","",""
"","html-keyboard-response","29","29044","0.0-29.0","","","","","null","<img src=""img/land3.png"" style=""width:200px;border:14px solid red;"">","null","","","","","","","","","",""
"","image-keyboard-response","30","29677","0.0-30.0","","","","","630","img/land1.png","75","631","2","1","1","1","1,0,0,0.25,0.5,0.25,0.25,0.25,0.5","0,1,0,0.5,0.25,0.25,0.25,0.25,0.5","3","",""
"","html-keyboard-response","31","29990","0.0-31.0","","","","","null","<img src=""img/land1.png"" style=""width:200px; border:14px solid green;"">","null","","","","","","","","","",""
"","image-keyboard-response","32","30597","0.0-32.0","","","","","604","img/land1.png","75","606","2","1","1","1","1,0,0,0.25,0.5,0.25,0.25,0.25,0.5","0,1,0,0.5,0.25,0.25,0.25,0.25,0.5","3","",""
"","html-keyboard-response","33","30900","0.0-33.0","","","","","null","<img src=""img/land1.png"" style=""width:200px; border:14px solid green;"">","null","","","","","","","","","",""
"","image-keyboard-response","34","31499","0.0-34.0","","","","","598","img/land3.png","74","600","1","0","3","1","1,0,0,0.25,0.5,0.25,0.25,0.25,0.5","0,1,0,0.5,0.25,0.25,0.25,0.25,0.5","3","",""
"","html-keyboard-response","35","31810","0.0-35.0","","","","","null","<img src=""img/land3.png"" style=""width:200px;border:14px solid red;"">","null","","","","","","","","","",""
"","image-keyboard-response","36","32284","0.0-36.0","","","","","473","img/land2.png","75","474","2","0","2","1","1,0,0,0.25,0.5,0.25,0.25,0.25,0.5","0,1,0,0.5,0.25,0.25,0.25,0.25,0.5","3","",""
"","html-keyboard-response","37","32600","0.0-37.0","","","","","null","<img src=""img/land2.png"" style=""width:200px;border:14px solid red;"">","null","","","","","","","","","",""
"","image-keyboard-response","38","33204","0.0-38.0","","","","","603","img/land1.png","75","604","2","1","1","1","1,0,0,0.25,0.5,0.25,0.25,0.25,0.5","0,1,0,0.5,0.25,0.25,0.25,0.25,0.5","3","",""
"","html-keyboard-response","39","33509","0.0-39.0","","","","","null","<img src=""img/land1.png"" style=""width:200px; border:14px solid green;"">","null","","","","","","","","","",""
"","image-keyboard-response","40","34140","0.0-40.0","","","","","631","img/land2.png","76","632","3","0","2","1","1,0,0,0.25,0.5,0.25,0.25,0.25,0.5","0,1,0,0.5,0.25,0.25,0.25,0.25,0.5","3","",""
"","html-keyboard-response","41","34455","0.0-41.0","","","","","null","<img src=""img/land2.png"" style=""width:200px;border:14px solid red;"">","null","","","","","","","","","",""
"","image-keyboard-response","42","35460","0.0-42.0","","","","","1004","img/land3.png","76","1004","3","0","3","1","1,0,0,0.25,0.5,0.25,0.25,0.25,0.5","0,1,0,0.5,0.25,0.25,0.25,0.25,0.5","3","",""
"","html-keyboard-response","43","35765","0.0-43.0","","","","","null","<img src=""img/land3.png"" style=""width:200px;border:14px solid red;"">","null","","","","","","","","","",""
"","image-keyboard-response","44","36509","0.0-44.0","","","","","740","img/land1.png","75","742","2","1","1","1","1,0,0,0.25,0.5,0.25,0.25,0.25,0.5","0,1,0,0.5,0.25,0.25,0.25,0.25,0.5","3","",""
"","html-keyboard-response","45","36824","0.0-45.0","","","","","null","<img src=""img/land1.png"" style=""width:200px; border:14px solid green;"">","null","","","","","","","","","",""
"","image-keyboard-response","46","37324","0.0-46.0","","","","","498","img/land1.png","75","499","2","1","1","1","1,0,0,0.25,0.5,0.25,0.25,0.25,0.5","0,1,0,0.5,0.25,0.25,0.25,0.25,0.5","3","",""
"","html-keyboard-response","47","37639","0.0-47.0","","","","","null","<img src=""img/land1.png"" style=""width:200px; border:14px solid green;"">","null","","","","","","","","","",""
"","image-keyboard-response","48","38204","0.0-48.0","","","","","564","img/land3.png","75","564","2","1","3","1","1,0,0,0.25,0.5,0.25,0.25,0.25,0.5","0,1,0,0.5,0.25,0.25,0.25,0.25,0.5","3","",""
"","html-keyboard-response","49","38509","0.0-49.0","","","","","null","<img src=""img/land3.png"" style=""width:200px; border:14px solid green;"">","null","","","","","","","","","",""
"","image-keyboard-response","50","39005","0.0-50.0","","","","","494","img/land1.png","75","495","2","1","1","1","1,0,0,0.25,0.5,0.25,0.25,0.25,0.5","0,1,0,0.5,0.25,0.25,0.25,0.25,0.5","3","",""
"","html-keyboard-response","51","39312","0.0-51.0","","","","","null","<img src=""img/land1.png"" style=""width:200px; border:14px solid green;"">","null","","","","","","","","","",""
"","image-keyboard-response","52","39868","0.0-52.0","","","","","556","img/land1.png","75","556","2","1","1","1","1,0,0,0.25,0.5,0.25,0.25,0.25,0.5","0,1,0,0.5,0.25,0.25,0.25,0.25,0.5","3","",""
"","html-keyboard-response","53","40174","0.0-53.0","","","","","null","<img src=""img/land1.png"" style=""width:200px; border:14px solid green;"">","null","","","","","","","","","",""
"","image-keyboard-response","54","40692","0.0-54.0","","","","","515","img/land1.png","75","517","2","1","1","1","1,0,0,0.25,0.5,0.25,0.25,0.25,0.5","0,1,0,0.5,0.25,0.25,0.25,0.25,0.5","3","",""
"","html-keyboard-response","55","40999","0.0-55.0","","","","","null","<img src=""img/land1.png"" style=""width:200px; border:14px solid green;"">","null","","","","","","","","","",""
"","image-keyboard-response","56","41740","0.0-56.0","","","","","739","img/land2.png","75","739","2","0","2","1","1,0,0,0.25,0.5,0.25,0.25,0.25,0.5","0,1,0,0.5,0.25,0.25,0.25,0.25,0.5","3","",""
"","html-keyboard-response","57","42054","0.0-57.0","","","","","null","<img src=""img/land2.png"" style=""width:200px;border:14px solid red;"">","null","","","","","","","","","",""
"","image-keyboard-response","58","42635","0.0-58.0","","","","","580","img/land1.png","75","581","2","1","1","1","1,0,0,0.25,0.5,0.25,0.25,0.25,0.5","0,1,0,0.5,0.25,0.25,0.25,0.25,0.5","3","",""
"","html-keyboard-response","59","42944","0.0-59.0","","","","","null","<img src=""img/land1.png"" style=""width:200px; border:14px solid green;"">","null","","","","","","","","","",""
"","image-keyboard-response","60","43428","0.0-60.0","","","","","483","img/land1.png","75","484","2","1","1","1","1,0,0,0.25,0.5,0.25,0.25,0.25,0.5","0,1,0,0.5,0.25,0.25,0.25,0.25,0.5","3","",""
"","html-keyboard-response","61","43730","0.0-61.0","","","","","null","<img src=""img/land1.png"" style=""width:200px; border:14px solid green;"">","null","","","","","","","","","",""
"","image-keyboard-response","62","44180","0.0-62.0","","","","","449","img/land1.png","75","451","2","1","1","1","1,0,0,0.25,0.5,0.25,0.25,0.25,0.5","0,1,0,0.5,0.25,0.25,0.25,0.25,0.5","3","",""
"","html-keyboard-response","63","44490","0.0-63.0","","","","","null","<img src=""img/land1.png"" style=""width:200px; border:14px solid green;"">","null","","","","","","","","","",""
"","image-keyboard-response","64","45059","0.0-64.0","","","","","567","img/land1.png","75","567","2","1","1","1","1,0,0,0.25,0.5,0.25,0.25,0.25,0.5","0,1,0,0.5,0.25,0.25,0.25,0.25,0.5","3","",""
"","html-keyboard-response","65","45365","0.0-65.0","","","","","null","<img src=""img/land1.png"" style=""width:200px; border:14px solid green;"">","null","","","","","","","","","",""
"","image-keyboard-response","66","46388","0.0-66.0","","","","","1021","img/land3.png","75","1022","2","0","3","1","1,0,0,0.25,0.5,0.25,0.25,0.25,0.5","0,1,0,0.5,0.25,0.25,0.25,0.25,0.5","3","",""
"","html-keyboard-response","67","46689","0.0-67.0","","","","","null","<img src=""img/land3.png"" style=""width:200px;border:14px solid red;"">","null","","","","","","","","","",""
"","image-keyboard-response","68","47243","0.0-68.0","","","","","552","img/land1.png","75","554","2","1","1","1","1,0,0,0.25,0.5,0.25,0.25,0.25,0.5","0,1,0,0.5,0.25,0.25,0.25,0.25,0.5","3","",""
"","html-keyboard-response","69","47545","0.0-69.0","","","","","null","<img src=""img/land1.png"" style=""width:200px; border:14px solid green;"">","null","","","","","","","","","",""
"","image-keyboard-response","70","47957","0.0-70.0","","","","","410","img/land1.png","75","412","2","1","1","1","1,0,0,0.25,0.5,0.25,0.25,0.25,0.5","0,1,0,0.5,0.25,0.25,0.25,0.25,0.5","3","",""
"","html-keyboard-response","71","48260","0.0-71.0","","","","","null","<img src=""img/land1.png"" style=""width:200px; border:14px solid green;"">","null","","","","","","","","","",""
"","image-keyboard-response","72","49075","0.0-72.0","","","","","814","img/land3.png","76","815","3","0","3","1","1,0,0,0.25,0.5,0.25,0.25,0.25,0.5","0,1,0,0.5,0.25,0.25,0.25,0.25,0.5","3","",""
"","html-keyboard-response","73","49390","0.0-73.0","","","","","null","<img src=""img/land3.png"" style=""width:200px;border:14px solid red;"">","null","","","","","","","","","",""
"","image-keyboard-response","74","49877","0.0-74.0","","","","","486","img/land1.png","75","488","2","1","1","1","1,0,0,0.25,0.5,0.25,0.25,0.25,0.5","0,1,0,0.5,0.25,0.25,0.25,0.25,0.5","3","",""
"","html-keyboard-response","75","50184","0.0-75.0","","","","","null","<img src=""img/land1.png"" style=""width:200px; border:14px solid green;"">","null","","","","","","","","","",""
"","image-keyboard-response","76","51109","0.0-76.0","","","","","922","img/land2.png","76","924","3","0","2","1","1,0,0,0.25,0.5,0.25,0.25,0.25,0.5","0,1,0,0.5,0.25,0.25,0.25,0.25,0.5","3","",""
"","html-keyboard-response","77","51416","0.0-77.0","","","","","null","<img src=""img/land2.png"" style=""width:200px;border:14px solid red;"">","null","","","","","","","","","",""
"","image-keyboard-response","78","51851","0.0-78.0","","","","","435","img/land1.png","75","436","2","1","1","1","1,0,0,0.25,0.5,0.25,0.25,0.25,0.5","0,1,0,0.5,0.25,0.25,0.25,0.25,0.5","3","",""
"","html-keyboard-response","79","52160","0.0-79.0","","","","","null","<img src=""img/land1.png"" style=""width:200px; border:14px solid green;"">","null","","","","","","","","","",""
"","image-keyboard-response","80","52604","0.0-80.0","","","","","444","img/land1.png","75","444","2","1","1","1","1,0,0,0.25,0.5,0.25,0.25,0.25,0.5","0,1,0,0.5,0.25,0.25,0.25,0.25,0.5","3","",""
"","html-keyboard-response","81","52910","0.0-81.0","","","","","null","<img src=""img/land1.png"" style=""width:200px; border:14px solid green;"">","null","","","","","","","","","",""
"","image-keyboard-response","82","53228","0.0-82.0","","","","","316","img/land1.png","75","317","2","1","1","1","1,0,0,0.25,0.5,0.25,0.25,0.25,0.5","0,1,0,0.5,0.25,0.25,0.25,0.25,0.5","3","",""
"","html-keyboard-response","83","53540","0.0-83.0","","","","","null","<img src=""img/land1.png"" style=""width:200px; border:14px solid green;"">","null","","","","","","","","","",""
"","image-keyboard-response","84","53997","0.0-84.0","","","","","455","img/land2.png","75","457","2","0","2","1","1,0,0,0.25,0.5,0.25,0.25,0.25,0.5","0,1,0,0.5,0.25,0.25,0.25,0.25,0.5","3","",""
"","html-keyboard-response","85","54309","0.0-85.0","","","","","null","<img src=""img/land2.png"" style=""width:200px;border:14px solid red;"">","null","","","","","","","","","",""
"","image-keyboard-response","86","54683","0.0-86.0","","","","","372","img/land1.png","75","374","2","1","1","1","1,0,0,0.25,0.5,0.25,0.25,0.25,0.5","0,1,0,0.5,0.25,0.25,0.25,0.25,0.5","3","",""
"","html-keyboard-response","87","54984","0.0-87.0","","","","","null","<img src=""img/land1.png"" style=""width:200px; border:14px solid green;"">","null","","","","","","","","","",""
"","image-keyboard-response","88","55412","0.0-88.0","","","","","426","img/land2.png","75","427","2","0","2","1","1,0,0,0.25,0.5,0.25,0.25,0.25,0.5","0,1,0,0.5,0.25,0.25,0.25,0.25,0.5","3","",""
"","html-keyboard-response","89","55720","0.0-89.0","","","","","null","<img src=""img/land2.png"" style=""width:200px;border:14px solid red;"">","null","","","","","","","","","",""
"","image-keyboard-response","90","56116","0.0-90.0","","","","","396","img/land1.png","75","397","2","1","1","1","1,0,0,0.25,0.5,0.25,0.25,0.25,0.5","0,1,0,0.5,0.25,0.25,0.25,0.25,0.5","3","",""
"","html-keyboard-response","91","56424","0.0-91.0","","","","","null","<img src=""img/land1.png"" style=""width:200px; border:14px solid green;"">","null","","","","","","","","","",""
"","image-keyboard-response","92","56932","0.0-92.0","","","","","506","img/land3.png","75","506","2","0","3","1","1,0,0,0.25,0.5,0.25,0.25,0.25,0.5","0,1,0,0.5,0.25,0.25,0.25,0.25,0.5","3","",""
"","html-keyboard-response","93","57240","0.0-93.0","","","","","null","<img src=""img/land3.png"" style=""width:200px;border:14px solid red;"">","null","","","","","","","","","",""
"","image-keyboard-response","94","57739","0.0-94.0","","","","","498","img/land2.png","75","499","2","0","2","1","1,0,0,0.25,0.5,0.25,0.25,0.25,0.5","0,1,0,0.5,0.25,0.25,0.25,0.25,0.5","3","",""
"","html-keyboard-response","95","58054","0.0-95.0","","","","","null","<img src=""img/land2.png"" style=""width:200px;border:14px solid red;"">","null","","","","","","","","","",""
"","image-keyboard-response","96","59300","0.0-96.0","","","","","1244","img/land2.png","75","1246","2","0","2","1","1,0,0,0.25,0.5,0.25,0.25,0.25,0.5","0,1,0,0.5,0.25,0.25,0.25,0.25,0.5","3","",""
"","html-keyboard-response","97","59615","0.0-97.0","","","","","null","<img src=""img/land2.png"" style=""width:200px;border:14px solid red;"">","null","","","","","","","","","",""
"","image-keyboard-response","98","60149","0.0-98.0","","","","","532","img/land1.png","75","533","2","1","1","1","1,0,0,0.25,0.5,0.25,0.25,0.25,0.5","0,1,0,0.5,0.25,0.25,0.25,0.25,0.5","3","",""
"","html-keyboard-response","99","60455","0.0-99.0","","","","","null","<img src=""img/land1.png"" style=""width:200px; border:14px solid green;"">","null","","","","","","","","","",""
"","image-keyboard-response","100","60868","0.0-100.0","","","","","412","img/land1.png","75","413","2","1","1","1","1,0,0,0.25,0.5,0.25,0.25,0.25,0.5","0,1,0,0.5,0.25,0.25,0.25,0.25,0.5","3","",""
"","html-keyboard-response","101","61175","0.0-101.0","","","","","null","<img src=""img/land1.png"" style=""width:200px; border:14px solid green;"">","null","","","","","","","","","",""
"","image-keyboard-response","102","61572","0.0-102.0","","","","","396","img/land1.png","75","396","2","1","1","1","1,0,0,0.25,0.5,0.25,0.25,0.25,0.5","0,1,0,0.5,0.25,0.25,0.25,0.25,0.5","3","",""
"","html-keyboard-response","103","61876","0.0-103.0","","","","","null","<img src=""img/land1.png"" style=""width:200px; border:14px solid green;"">","null","","","","","","","","","",""
"","image-keyboard-response","104","62212","0.0-104.0","","","","","336","img/land1.png","75","337","2","1","1","1","1,0,0,0.25,0.5,0.25,0.25,0.25,0.5","0,1,0,0.5,0.25,0.25,0.25,0.25,0.5","3","",""
"","html-keyboard-response","105","62520","0.0-105.0","","","","","null","<img src=""img/land1.png"" style=""width:200px; border:14px solid green;"">","null","","","","","","","","","",""
"","image-keyboard-response","106","62821","0.0-106.0","","","","","299","img/land1.png","75","301","2","1","1","1","1,0,0,0.25,0.5,0.25,0.25,0.25,0.5","0,1,0,0.5,0.25,0.25,0.25,0.25,0.5","3","",""
"","html-keyboard-response","107","63126","0.0-107.0","","","","","null","<img src=""img/land1.png"" style=""width:200px; border:14px solid green;"">","null","","","","","","","","","",""
"","image-keyboard-response","108","63373","0.0-108.0","","","","","244","img/land1.png","75","245","2","1","1","1","1,0,0,0.25,0.5,0.25,0.25,0.25,0.5","0,1,0,0.5,0.25,0.25,0.25,0.25,0.5","3","",""
"","html-keyboard-response","109","63684","0.0-109.0","","","","","null","<img src=""img/land1.png"" style=""width:200px; border:14px solid green;"">","null","","","","","","","","","",""
"","image-keyboard-response","110","63933","0.0-110.0","","","","","247","img/land1.png","75","248","2","1","1","1","1,0,0,0.25,0.5,0.25,0.25,0.25,0.5","0,1,0,0.5,0.25,0.25,0.25,0.25,0.5","3","",""
"","html-keyboard-response","111","64245","0.0-111.0","","","","","null","<img src=""img/land1.png"" style=""width:200px; border:14px solid green;"">","null","","","","","","","","","",""
"","image-keyboard-response","112","64524","0.0-112.0","","","","","277","img/land1.png","75","278","2","1","1","1","1,0,0,0.25,0.5,0.25,0.25,0.25,0.5","0,1,0,0.5,0.25,0.25,0.25,0.25,0.5","3","",""
"","html-keyboard-response","113","64840","0.0-113.0","","","","","null","<img src=""img/land1.png"" style=""width:200px; border:14px solid green;"">","null","","","","","","","","","",""
"","image-keyboard-response","114","65340","0.0-114.0","","","","","499","img/land3.png","76","499","3","0","3","1","1,0,0,0.25,0.5,0.25,0.25,0.25,0.5","0,1,0,0.5,0.25,0.25,0.25,0.25,0.5","3","",""
"","html-keyboard-response","115","65654","0.0-115.0","","","","","null","<img src=""img/land3.png"" style=""width:200px;border:14px solid red;"">","null","","","","","","","","","",""
"","image-keyboard-response","116","65876","0.0-116.0","","","","","221","img/land1.png","75","221","2","1","1","1","1,0,0,0.25,0.5,0.25,0.25,0.25,0.5","0,1,0,0.5,0.25,0.25,0.25,0.25,0.5","3","",""
"","html-keyboard-response","117","66189","0.0-117.0","","","","","null","<img src=""img/land1.png"" style=""width:200px; border:14px solid green;"">","null","","","","","","","","","",""
"","image-keyboard-response","118","66651","0.0-118.0","","","","","459","img/land3.png","74","460","1","1","3","1","1,0,0,0.25,0.5,0.25,0.25,0.25,0.5","0,1,0,0.5,0.25,0.25,0.25,0.25,0.5","3","",""
"","html-keyboard-response","119","66960","0.0-119.0","","","","","null","<img src=""img/land3.png"" style=""width:200px; border:14px solid green;"">","null","","","","","","","","","",""
"","image-keyboard-response","120","67508","0.0-120.0","","","","","547","img/land2.png","75","548","2","0","2","1","1,0,0,0.25,0.5,0.25,0.25,0.25,0.5","0,1,0,0.5,0.25,0.25,0.25,0.25,0.5","3","",""
"","html-keyboard-response","121","67815","0.0-121.0","","","","","null","<img src=""img/land2.png"" style=""width:200px;border:14px solid red;"">","null","","","","","","","","","",""
"","image-keyboard-response","122","68277","0.0-122.0","","","","","460","img/land1.png","74","462","1","0","1","1","1,0,0,0.25,0.5,0.25,0.25,0.25,0.5","0,1,0,0.5,0.25,0.25,0.25,0.25,0.5","3","",""
"","html-keyboard-response","123","68585","0.0-123.0","","","","","null","<img src=""img/land1.png"" style=""width:200px;border:14px solid red;"">","null","","","","","","","","","",""
"","image-keyboard-response","124","69076","0.0-124.0","","","","","491","img/land1.png","75","491","2","1","1","1","1,0,0,0.25,0.5,0.25,0.25,0.25,0.5","0,1,0,0.5,0.25,0.25,0.25,0.25,0.5","3","",""
"","html-keyboard-response","125","69389","0.0-125.0","","","","","null","<img src=""img/land1.png"" style=""width:200px; border:14px solid green;"">","null","","","","","","","","","",""
"","image-keyboard-response","126","69844","0.0-126.0","","","","","453","img/land1.png","75","453","2","1","1","1","1,0,0,0.25,0.5,0.25,0.25,0.25,0.5","0,1,0,0.5,0.25,0.25,0.25,0.25,0.5","3","",""
"","html-keyboard-response","127","70145","0.0-127.0","","","","","null","<img src=""img/land1.png"" style=""width:200px; border:14px solid green;"">","null","","","","","","","","","",""
"","image-keyboard-response","128","70491","0.0-128.0","","","","","343","img/land1.png","75","345","2","1","1","1","1,0,0,0.25,0.5,0.25,0.25,0.25,0.5","0,1,0,0.5,0.25,0.25,0.25,0.25,0.5","3","",""
"","html-keyboard-response","129","70794","0.0-129.0","","","","","null","<img src=""img/land1.png"" style=""width:200px; border:14px solid green;"">","null","","","","","","","","","",""
"","image-keyboard-response","130","71140","0.0-130.0","","","","","344","img/land1.png","75","345","2","1","1","1","1,0,0,0.25,0.5,0.25,0.25,0.25,0.5","0,1,0,0.5,0.25,0.25,0.25,0.25,0.5","3","",""
"","html-keyboard-response","131","71448","0.0-131.0","","","","","null","<img src=""img/land1.png"" style=""width:200px; border:14px solid green;"">","null","","","","","","","","","",""
"","image-keyboard-response","132","71756","0.0-132.0","","","","","307","img/land1.png","75","308","2","1","1","1","1,0,0,0.25,0.5,0.25,0.25,0.25,0.5","0,1,0,0.5,0.25,0.25,0.25,0.25,0.5","3","",""
"","html-keyboard-response","133","72059","0.0-133.0","","","","","null","<img src=""img/land1.png"" style=""width:200px; border:14px solid green;"">","null","","","","","","","","","",""
"","image-keyboard-response","134","72396","0.0-134.0","","","","","335","img/land1.png","75","338","2","1","1","1","1,0,0,0.25,0.5,0.25,0.25,0.25,0.5","0,1,0,0.5,0.25,0.25,0.25,0.25,0.5","3","",""
"","html-keyboard-response","135","72710","0.0-135.0","","","","","null","<img src=""img/land1.png"" style=""width:200px; border:14px solid green;"">","null","","","","","","","","","",""
"","image-keyboard-response","136","72964","0.0-136.0","","","","","253","img/land1.png","75","255","2","1","1","1","1,0,0,0.25,0.5,0.25,0.25,0.25,0.5","0,1,0,0.5,0.25,0.25,0.25,0.25,0.5","3","",""
"","html-keyboard-response","137","73280","0.0-137.0","","","","","null","<img src=""img/land1.png"" style=""width:200px; border:14px solid green;"">","null","","","","","","","","","",""
"","image-keyboard-response","138","74020","0.0-138.0","","","","","739","img/land2.png","74","739","1","1","2","1","1,0,0,0.25,0.5,0.25,0.25,0.25,0.5","0,1,0,0.5,0.25,0.25,0.25,0.25,0.5","3","",""
"","html-keyboard-response","139","74325","0.0-139.0","","","","","null","<img src=""img/land2.png"" style=""width:200px; border:14px solid green;"">","null","","","","","","","","","",""
"","image-keyboard-response","140","74757","0.0-140.0","","","","","429","img/land2.png","74","431","1","0","2","1","1,0,0,0.25,0.5,0.25,0.25,0.25,0.5","0,1,0,0.5,0.25,0.25,0.25,0.25,0.5","3","",""
"","html-keyboard-response","141","75070","0.0-141.0","","","","","null","<img src=""img/land2.png"" style=""width:200px;border:14px solid red;"">","null","","","","","","","","","",""
"","image-keyboard-response","142","75725","0.0-142.0","","","","","653","img/land1.png","75","653","2","1","1","1","1,0,0,0.25,0.5,0.25,0.25,0.25,0.5","0,1,0,0.5,0.25,0.25,0.25,0.25,0.5","3","",""
"","html-keyboard-response","143","76029","0.0-143.0","","","","","null","<img src=""img/land1.png"" style=""width:200px; border:14px solid green;"">","null","","","","","","","","","",""
"","image-keyboard-response","144","76637","0.0-144.0","","","","","605","img/land2.png","74","607","1","0","2","1","1,0,0,0.25,0.5,0.25,0.25,0.25,0.5","0,1,0,0.5,0.25,0.25,0.25,0.25,0.5","3","",""
"","html-keyboard-response","145","76945","0.0-145.0","","","","","null","<img src=""img/land2.png"" style=""width:200px;border:14px solid red;"">","null","","","","","","","","","",""
"","image-keyboard-response","146","77645","0.0-146.0","","","","","699","img/land1.png","75","699","2","1","1","1","1,0,0,0.25,0.5,0.25,0.25,0.25,0.5","0,1,0,0.5,0.25,0.25,0.25,0.25,0.5","3","",""
"","html-keyboard-response","147","77954","0.0-147.0","","","","","null","<img src=""img/land1.png"" style=""width:200px; border:14px solid green;"">","null","","","","","","","","","",""
"","image-keyboard-response","148","78397","0.0-148.0","","","","","440","img/land1.png","75","441","2","1","1","1","1,0,0,0.25,0.5,0.25,0.25,0.25,0.5","0,1,0,0.5,0.25,0.25,0.25,0.25,0.5","3","",""
"","html-keyboard-response","149","78709","0.0-149.0","","","","","null","<img src=""img/land1.png"" style=""width:200px; border:14px solid green;"">","null","","","","","","","","","",""
"","image-keyboard-response","150","79371","0.0-150.0","","","","","661","img/land3.png","74","661","1","1","3","1","1,0,0,0.25,0.5,0.25,0.25,0.25,0.5","0,1,0,0.5,0.25,0.25,0.25,0.25,0.5","3","",""
"","html-keyboard-response","151","79685","0.0-151.0","","","","","null","<img src=""img/land3.png"" style=""width:200px; border:14px solid green;"">","null","","","","","","","","","",""
"","image-keyboard-response","152","80421","0.0-152.0","","","","","733","img/land1.png","75","735","2","1","1","1","1,0,0,0.25,0.5,0.25,0.25,0.25,0.5","0,1,0,0.5,0.25,0.25,0.25,0.25,0.5","3","",""
"","html-keyboard-response","153","80730","0.0-153.0","","","","","null","<img src=""img/land1.png"" style=""width:200px; border:14px solid green;"">","null","","","","","","","","","",""
"","image-keyboard-response","154","81420","0.0-154.0","","","","","689","img/land2.png","74","690","1","1","2","1","1,0,0,0.25,0.5,0.25,0.25,0.25,0.5","0,1,0,0.5,0.25,0.25,0.25,0.25,0.5","3","",""
"","html-keyboard-response","155","81730","0.0-155.0","","","","","null","<img src=""img/land2.png"" style=""width:200px; border:14px solid green;"">","null","","","","","","","","","",""
"","image-keyboard-response","156","82188","0.0-156.0","","","","","457","img/land1.png","75","458","2","1","1","1","1,0,0,0.25,0.5,0.25,0.25,0.25,0.5","0,1,0,0.5,0.25,0.25,0.25,0.25,0.5","3","",""
"","html-keyboard-response","157","82490","0.0-157.0","","","","","null","<img src=""img/land1.png"" style=""width:200px; border:14px solid green;"">","null","","","","","","","","","",""
"","image-keyboard-response","158","82908","0.0-158.0","","","","","416","img/land1.png","75","419","2","1","1","1","1,0,0,0.25,0.5,0.25,0.25,0.25,0.5","0,1,0,0.5,0.25,0.25,0.25,0.25,0.5","3","",""
"","html-keyboard-response","159","83215","0.0-159.0","","","","","null","<img src=""img/land1.png"" style=""width:200px; border:14px solid green;"">","null","","","","","","","","","",""
"","image-keyboard-response","160","83556","0.0-160.0","","","","","341","img/land1.png","75","342","2","1","1","1","1,0,0,0.25,0.5,0.25,0.25,0.25,0.5","0,1,0,0.5,0.25,0.25,0.25,0.25,0.5","3","",""
"","html-keyboard-response","161","83869","0.0-161.0","","","","","null","<img src=""img/land1.png"" style=""width:200px; border:14px solid green;"">","null","","","","","","","","","",""
"","image-keyboard-response","162","84285","0.0-162.0","","","","","413","img/land1.png","75","414","2","1","1","1","1,0,0,0.25,0.5,0.25,0.25,0.25,0.5","0,1,0,0.5,0.25,0.25,0.25,0.25,0.5","3","",""
"","html-keyboard-response","163","84594","0.0-163.0","","","","","null","<img src=""img/land1.png"" style=""width:200px; border:14px solid green;"">","null","","","","","","","","","",""
"","image-keyboard-response","164","85108","0.0-164.0","","","","","512","img/land3.png","74","513","1","0","3","1","1,0,0,0.25,0.5,0.25,0.25,0.25,0.5","0,1,0,0.5,0.25,0.25,0.25,0.25,0.5","3","",""
"","html-keyboard-response","165","85414","0.0-165.0","","","","","null","<img src=""img/land3.png"" style=""width:200px;border:14px solid red;"">","null","","","","","","","","","",""
"","image-keyboard-response","166","86125","0.0-166.0","","","","","708","img/land2.png","75","710","2","0","2","1","1,0,0,0.25,0.5,0.25,0.25,0.25,0.5","0,1,0,0.5,0.25,0.25,0.25,0.25,0.5","3","",""
"","html-keyboard-response","167","86435","0.0-167.0","","","","","null","<img src=""img/land2.png"" style=""width:200px;border:14px solid red;"">","null","","","","","","","","","",""
"","image-keyboard-response","168","86972","0.0-168.0","","","","","535","img/land2.png","74","535","1","1","2","1","1,0,0,0.25,0.5,0.25,0.25,0.25,0.5","0,1,0,0.5,0.25,0.25,0.25,0.25,0.5","3","",""
"","html-keyboard-response","169","87288","0.0-169.0","","","","","null","<img src=""img/land2.png"" style=""width:200px; border:14px solid green;"">","null","","","","","","","","","",""
"","image-keyboard-response","170","87764","0.0-170.0","","","","","475","img/land1.png","75","476","2","1","1","1","1,0,0,0.25,0.5,0.25,0.25,0.25,0.5","0,1,0,0.5,0.25,0.25,0.25,0.25,0.5","3","",""
"","html-keyboard-response","171","88070","0.0-171.0","","","","","null","<img src=""img/land1.png"" style=""width:200px; border:14px solid green;"">","null","","","","","","","","","",""
"","image-keyboard-response","172","88540","0.0-172.0","","","","","469","img/land1.png","75","470","2","1","1","1","1,0,0,0.25,0.5,0.25,0.25,0.25,0.5","0,1,0,0.5,0.25,0.25,0.25,0.25,0.5","3","",""
"","html-keyboard-response","173","88849","0.0-173.0","","","","","null","<img src=""img/land1.png"" style=""width:200px; border:14px solid green;"">","null","","","","","","","","","",""
"","image-keyboard-response","174","89404","0.0-174.0","","","","","553","img/land3.png","74","555","1","1","3","1","1,0,0,0.25,0.5,0.25,0.25,0.25,0.5","0,1,0,0.5,0.25,0.25,0.25,0.25,0.5","3","",""
"","html-keyboard-response","175","89714","0.0-175.0","","","","","null","<img src=""img/land3.png"" style=""width:200px; border:14px solid green;"">","null","","","","","","","","","",""
"","image-keyboard-response","176","90829","0.0-176.0","","","","","1113","img/land1.png","75","1114","2","1","1","1","1,0,0,0.25,0.5,0.25,0.25,0.25,0.5","0,1,0,0.5,0.25,0.25,0.25,0.25,0.5","3","",""
"","html-keyboard-response","177","91139","0.0-177.0","","","","","null","<img src=""img/land1.png"" style=""width:200px; border:14px solid green;"">","null","","","","","","","","","",""
"","image-keyboard-response","178","91539","0.0-178.0","","","","","399","img/land1.png","75","400","2","1","1","1","1,0,0,0.25,0.5,0.25,0.25,0.25,0.5","0,1,0,0.5,0.25,0.25,0.25,0.25,0.5","3","",""
"","html-keyboard-response","179","91841","0.0-179.0","","","","","null","<img src=""img/land1.png"" style=""width:200px; border:14px solid green;"">","null","","","","","","","","","",""
"","image-keyboard-response","180","93157","0.0-180.0","","","","","1315","img/land2.png","74","1317","1","0","2","1","1,0,0,0.25,0.5,0.25,0.25,0.25,0.5","0,1,0,0.5,0.25,0.25,0.25,0.25,0.5","3","",""
"","html-keyboard-response","181","93470","0.0-181.0","","","","","null","<img src=""img/land2.png"" style=""width:200px;border:14px solid red;"">","null","","","","","","","","","",""
"","image-keyboard-response","182","94124","0.0-182.0","","","","","653","img/land3.png","74","656","1","0","3","1","1,0,0,0.25,0.5,0.25,0.25,0.25,0.5","0,1,0,0.5,0.25,0.25,0.25,0.25,0.5","3","",""
"","html-keyboard-response","183","94440","0.0-183.0","","","","","null","<img src=""img/land3.png"" style=""width:200px;border:14px solid red;"">","null","","","","","","","","","",""
"","image-keyboard-response","184","94980","0.0-184.0","","","","","540","img/land2.png","74","541","1","0","2","1","1,0,0,0.25,0.5,0.25,0.25,0.25,0.5","0,1,0,0.5,0.25,0.25,0.25,0.25,0.5","3","",""
"","html-keyboard-response","185","95290","0.0-185.0","","","","","null","<img src=""img/land2.png"" style=""width:200px;border:14px solid red;"">","null","","","","","","","","","",""
"","image-keyboard-response","186","95852","0.0-186.0","","","","","561","img/land3.png","74","562","1","1","3","1","1,0,0,0.25,0.5,0.25,0.25,0.25,0.5","0,1,0,0.5,0.25,0.25,0.25,0.25,0.5","3","",""
"","html-keyboard-response","187","96164","0.0-187.0","","","","","null","<img src=""img/land3.png"" style=""width:200px; border:14px solid green;"">","null","","","","","","","","","",""
"","image-keyboard-response","188","96683","0.0-188.0","","","","","518","img/land1.png","75","518","2","1","1","1","1,0,0,0.25,0.5,0.25,0.25,0.25,0.5","0,1,0,0.5,0.25,0.25,0.25,0.25,0.5","3","",""
"","html-keyboard-response","189","96997","0.0-189.0","","","","","null","<img src=""img/land1.png"" style=""width:200px; border:14px solid green;"">","null","","","","","","","","","",""
"","image-keyboard-response","190","98099","0.0-190.0","","","","","1101","img/land1.png","75","1101","2","1","1","1","1,0,0,0.25,0.5,0.25,0.25,0.25,0.5","0,1,0,0.5,0.25,0.25,0.25,0.25,0.5","3","",""
"","html-keyboard-response","191","98410","0.0-191.0","","","","","null","<img src=""img/land1.png"" style=""width:200px; border:14px solid green;"">","null","","","","","","","","","",""
"","image-keyboard-response","192","98723","0.0-192.0","","","","","313","img/land1.png","75","313","2","1","1","1","1,0,0,0.25,0.5,0.25,0.25,0.25,0.5","0,1,0,0.5,0.25,0.25,0.25,0.25,0.5","3","",""
"","html-keyboard-response","193","99030","0.0-193.0","","","","","null","<img src=""img/land1.png"" style=""width:200px; border:14px solid green;"">","null","","","","","","","","","",""
"","image-keyboard-response","194","100124","0.0-194.0","","","","","1091","img/land3.png","75","1093","2","1","3","1","1,0,0,0.25,0.5,0.25,0.25,0.25,0.5","0,1,0,0.5,0.25,0.25,0.25,0.25,0.5","3","",""
"","html-keyboard-response","195","100430","0.0-195.0","","","","","null","<img src=""img/land3.png"" style=""width:200px; border:14px solid green;"">","null","","","","","","","","","",""
"","image-keyboard-response","196","101123","0.0-196.0","","","","","693","img/land3.png","74","694","1","0","3","1","1,0,0,0.25,0.5,0.25,0.25,0.25,0.5","0,1,0,0.5,0.25,0.25,0.25,0.25,0.5","3","",""
"","html-keyboard-response","197","101429","0.0-197.0","","","","","null","<img src=""img/land3.png"" style=""width:200px;border:14px solid red;"">","null","","","","","","","","","",""
"","image-keyboard-response","198","102020","0.0-198.0","","","","","589","img/land2.png","75","590","2","1","2","1","1,0,0,0.25,0.5,0.25,0.25,0.25,0.5","0,1,0,0.5,0.25,0.25,0.25,0.25,0.5","3","",""
"","html-keyboard-response","199","102325","0.0-199.0","","","","","null","<img src=""img/land2.png"" style=""width:200px; border:14px solid green;"">","null","","","","","","","","","",""
"","image-keyboard-response","200","102692","0.0-200.0","","","","","368","img/land2.png","75","368","2","0","2","1","1,0,0,0.25,0.5,0.25,0.25,0.25,0.5","0,1,0,0.5,0.25,0.25,0.25,0.25,0.5","3","",""
"","html-keyboard-response","201","102995","0.0-201.0","","","","","null","<img src=""img/land2.png"" style=""width:200px;border:14px solid red;"">","null","","","","","","","","","",""
"","image-keyboard-response","202","103604","0.0-202.0","","","","","609","img/land3.png","75","609","2","0","3","1","1,0,0,0.25,0.5,0.25,0.25,0.25,0.5","0,1,0,0.5,0.25,0.25,0.25,0.25,0.5","3","",""
"","html-keyboard-response","203","103910","0.0-203.0","","","","","null","<img src=""img/land3.png"" style=""width:200px;border:14px solid red;"">","null","","","","","","","","","",""
"","image-keyboard-response","204","104420","0.0-204.0","","","","","509","img/land1.png","75","511","2","1","1","1","1,0,0,0.25,0.5,0.25,0.25,0.25,0.5","0,1,0,0.5,0.25,0.25,0.25,0.25,0.5","3","",""
"","html-keyboard-response","205","104726","0.0-205.0","","","","","null","<img src=""img/land1.png"" style=""width:200px; border:14px solid green;"">","null","","","","","","","","","",""
"","image-keyboard-response","206","105549","0.0-206.0","","","","","821","img/land2.png","74","822","1","1","2","1","1,0,0,0.25,0.5,0.25,0.25,0.25,0.5","0,1,0,0.5,0.25,0.25,0.25,0.25,0.5","3","",""
"","html-keyboard-response","207","105856","0.0-207.0","","","","","null","<img src=""img/land2.png"" style=""width:200px; border:14px solid green;"">","null","","","","","","","","","",""
"","image-keyboard-response","208","106340","0.0-208.0","","","","","483","img/land2.png","74","483","1","0","2","1","1,0,0,0.25,0.5,0.25,0.25,0.25,0.5","0,1,0,0.5,0.25,0.25,0.25,0.25,0.5","3","",""
"","html-keyboard-response","209","106654","0.0-209.0","","","","","null","<img src=""img/land2.png"" style=""width:200px;border:14px solid red;"">","null","","","","","","","","","",""
"","image-keyboard-response","210","107300","0.0-210.0","","","","","644","img/land2.png","74","645","1","0","2","1","1,0,0,0.25,0.5,0.25,0.25,0.25,0.5","0,1,0,0.5,0.25,0.25,0.25,0.25,0.5","3","",""
"","html-keyboard-response","211","107603","0.0-211.0","","","","","null","<img src=""img/land2.png"" style=""width:200px;border:14px solid red;"">","null","","","","","","","","","",""
"","image-keyboard-response","212","108132","0.0-212.0","","","","","527","img/land1.png","75","528","2","1","1","1","1,0,0,0.25,0.5,0.25,0.25,0.25,0.5","0,1,0,0.5,0.25,0.25,0.25,0.25,0.5","3","",""
"","html-keyboard-response","213","108434","0.0-213.0","","","","","null","<img src=""img/land1.png"" style=""width:200px; border:14px solid green;"">","null","","","","","","","","","",""
"","image-keyboard-response","214","109460","0.0-214.0","","","","","1024","img/land1.png","75","1025","2","1","1","1","1,0,0,0.25,0.5,0.25,0.25,0.25,0.5","0,1,0,0.5,0.25,0.25,0.25,0.25,0.5","3","",""
"","html-keyboard-response","215","109764","0.0-215.0","","","","","null","<img src=""img/land1.png"" style=""width:200px; border:14px solid green;"">","null","","","","","","","","","",""
"","image-keyboard-response","216","110140","0.0-216.0","","","","","374","img/land1.png","75","375","2","1","1","1","1,0,0,0.25,0.5,0.25,0.25,0.25,0.5","0,1,0,0.5,0.25,0.25,0.25,0.25,0.5","3","",""
"","html-keyboard-response","217","110449","0.0-217.0","","","","","null","<img src=""img/land1.png"" style=""width:200px; border:14px solid green;"">","null","","","","","","","","","",""
"","image-keyboard-response","218","110748","0.0-218.0","","","","","298","img/land1.png","75","299","2","1","1","1","1,0,0,0.25,0.5,0.25,0.25,0.25,0.5","0,1,0,0.5,0.25,0.25,0.25,0.25,0.5","3","",""
"","html-keyboard-response","219","111060","0.0-219.0","","","","","null","<img src=""img/land1.png"" style=""width:200px; border:14px solid green;"">","null","","","","","","","","","",""
"","image-keyboard-response","220","111357","0.0-220.0","","","","","295","img/land1.png","75","296","2","1","1","1","1,0,0,0.25,0.5,0.25,0.25,0.25,0.5","0,1,0,0.5,0.25,0.25,0.25,0.25,0.5","3","",""
"","html-keyboard-response","221","111670","0.0-221.0","","","","","null","<img src=""img/land1.png"" style=""width:200px; border:14px solid green;"">","null","","","","","","","","","",""
"","image-keyboard-response","222","111980","0.0-222.0","","","","","310","img/land1.png","75","310","2","1","1","1","1,0,0,0.25,0.5,0.25,0.25,0.25,0.5","0,1,0,0.5,0.25,0.25,0.25,0.25,0.5","3","",""
"","html-keyboard-response","223","112294","0.0-223.0","","","","","null","<img src=""img/land1.png"" style=""width:200px; border:14px solid green;"">","null","","","","","","","","","",""
"","image-keyboard-response","224","112558","0.0-224.0","","","","","261","img/land3.png","75","262","2","0","3","1","1,0,0,0.25,0.5,0.25,0.25,0.25,0.5","0,1,0,0.5,0.25,0.25,0.25,0.25,0.5","3","",""
"","html-keyboard-response","225","112870","0.0-225.0","","","","","null","<img src=""img/land3.png"" style=""width:200px;border:14px solid red;"">","null","","","","","","","","","",""
"","image-keyboard-response","226","113260","0.0-226.0","","","","","389","img/land2.png","75","389","2","1","2","1","1,0,0,0.25,0.5,0.25,0.25,0.25,0.5","0,1,0,0.5,0.25,0.25,0.25,0.25,0.5","3","",""
"","html-keyboard-response","227","113570","0.0-227.0","","","","","null","<img src=""img/land2.png"" style=""width:200px; border:14px solid green;"">","null","","","","","","","","","",""
"","image-keyboard-response","228","113964","0.0-228.0","","","","","393","img/land3.png","75","394","2","1","3","1","1,0,0,0.25,0.5,0.25,0.25,0.25,0.5","0,1,0,0.5,0.25,0.25,0.25,0.25,0.5","3","",""
"","html-keyboard-response","229","114269","0.0-229.0","","","","","null","<img src=""img/land3.png"" style=""width:200px; border:14px solid green;"">","null","","","","","","","","","",""
"","image-keyboard-response","230","114724","0.0-230.0","","","","","454","img/land1.png","75","455","2","1","1","1","1,0,0,0.25,0.5,0.25,0.25,0.25,0.5","0,1,0,0.5,0.25,0.25,0.25,0.25,0.5","3","",""
"","html-keyboard-response","231","115039","0.0-231.0","","","","","null","<img src=""img/land1.png"" style=""width:200px; border:14px solid green;"">","null","","","","","","","","","",""
"","image-keyboard-response","232","115364","0.0-232.0","","","","","323","img/land1.png","75","324","2","1","1","1","1,0,0,0.25,0.5,0.25,0.25,0.25,0.5","0,1,0,0.5,0.25,0.25,0.25,0.25,0.5","3","",""
"","html-keyboard-response","233","115671","0.0-233.0","","","","","null","<img src=""img/land1.png"" style=""width:200px; border:14px solid green;"">","null","","","","","","","","","",""
"","image-keyboard-response","234","115948","0.0-234.0","","","","","277","img/land1.png","75","279","2","1","1","1","1,0,0,0.25,0.5,0.25,0.25,0.25,0.5","0,1,0,0.5,0.25,0.25,0.25,0.25,0.5","3","",""
"","html-keyboard-response","235","116249","0.0-235.0","","","","","null","<img src=""img/land1.png"" style=""width:200px; border:14px solid green;"">","null","","","","","","","","","",""
"","image-keyboard-response","236","116580","0.0-236.0","","","","","329","img/land1.png","75","330","2","1","1","1","1,0,0,0.25,0.5,0.25,0.25,0.25,0.5","0,1,0,0.5,0.25,0.25,0.25,0.25,0.5","3","",""
"","html-keyboard-response","237","116896","0.0-237.0","","","","","null","<img src=""img/land1.png"" style=""width:200px; border:14px solid green;"">","null","","","","","","","","","",""
"","image-keyboard-response","238","117468","0.0-238.0","","","","","572","img/land3.png","74","573","1","0","3","1","1,0,0,0.25,0.5,0.25,0.25,0.25,0.5","0,1,0,0.5,0.25,0.25,0.25,0.25,0.5","3","",""
"","html-keyboard-response","239","117782","0.0-239.0","","","","","null","<img src=""img/land3.png"" style=""width:200px;border:14px solid red;"">","null","","","","","","","","","",""
"","image-keyboard-response","240","118372","0.0-240.0","","","","","588","img/land2.png","74","590","1","0","2","1","1,0,0,0.25,0.5,0.25,0.25,0.25,0.5","0,1,0,0.5,0.25,0.25,0.25,0.25,0.5","3","",""
"","html-keyboard-response","241","118674","0.0-241.0","","","","","null","<img src=""img/land2.png"" style=""width:200px;border:14px solid red;"">","null","","","","","","","","","",""
"","image-keyboard-response","242","119212","0.0-242.0","","","","","537","img/land1.png","75","537","2","1","1","1","1,0,0,0.25,0.5,0.25,0.25,0.25,0.5","0,1,0,0.5,0.25,0.25,0.25,0.25,0.5","3","",""
"","html-keyboard-response","243","119514","0.0-243.0","","","","","null","<img src=""img/land1.png"" style=""width:200px; border:14px solid green;"">","null","","","","","","","","","",""
"","image-keyboard-response","244","119780","0.0-244.0","","","","","264","img/land1.png","75","265","2","1","1","1","1,0,0,0.25,0.5,0.25,0.25,0.25,0.5","0,1,0,0.5,0.25,0.25,0.25,0.25,0.5","3","",""
"","html-keyboard-response","245","120089","0.0-245.0","","","","","null","<img src=""img/land1.png"" style=""width:200px; border:14px solid green;"">","null","","","","","","","","","",""
"","image-keyboard-response","246","120356","0.0-246.0","","","","","266","img/land1.png","75","267","2","1","1","1","1,0,0,0.25,0.5,0.25,0.25,0.25,0.5","0,1,0,0.5,0.25,0.25,0.25,0.25,0.5","3","",""
"","html-keyboard-response","247","120671","0.0-247.0","","","","","null","<img src=""img/land1.png"" style=""width:200px; border:14px solid green;"">","null","","","","","","","","","",""
"","image-keyboard-response","248","120948","0.0-248.0","","","","","276","img/land1.png","75","277","2","1","1","1","1,0,0,0.25,0.5,0.25,0.25,0.25,0.5","0,1,0,0.5,0.25,0.25,0.25,0.25,0.5","3","",""
"","html-keyboard-response","249","121259","0.0-249.0","","","","","null","<img src=""img/land1.png"" style=""width:200px; border:14px solid green;"">","null","","","","","","","","","",""
"","image-keyboard-response","250","122171","0.0-250.0","","","","","911","img/land3.png","75","911","2","1","3","1","1,0,0,0.25,0.5,0.25,0.25,0.25,0.5","0,1,0,0.5,0.25,0.25,0.25,0.25,0.5","3","",""
"","html-keyboard-response","251","122480","0.0-251.0","","","","","null","<img src=""img/land3.png"" style=""width:200px; border:14px solid green;"">","null","","","","","","","","","",""
"","image-keyboard-response","252","122789","0.0-252.0","","","","","307","img/land3.png","75","307","2","0","3","1","1,0,0,0.25,0.5,0.25,0.25,0.25,0.5","0,1,0,0.5,0.25,0.25,0.25,0.25,0.5","3","",""
"","html-keyboard-response","253","123092","0.0-253.0","","","","","null","<img src=""img/land3.png"" style=""width:200px;border:14px solid red;"">","null","","","","","","","","","",""
"","image-keyboard-response","254","123556","0.0-254.0","","","","","463","img/land1.png","75","464","2","1","1","1","1,0,0,0.25,0.5,0.25,0.25,0.25,0.5","0,1,0,0.5,0.25,0.25,0.25,0.25,0.5","3","",""
"","html-keyboard-response","255","123861","0.0-255.0","","","","","null","<img src=""img/land1.png"" style=""width:200px; border:14px solid green;"">","null","","","","","","","","","",""
"","image-keyboard-response","256","124204","0.0-256.0","","","","","343","img/land1.png","75","343","2","1","1","1","1,0,0,0.25,0.5,0.25,0.25,0.25,0.5","0,1,0,0.5,0.25,0.25,0.25,0.25,0.5","3","",""
"","html-keyboard-response","257","124520","0.0-257.0","","","","","null","<img src=""img/land1.png"" style=""width:200px; border:14px solid green;"">","null","","","","","","","","","",""
"","image-keyboard-response","258","124732","0.0-258.0","","","","","211","img/land3.png","75","213","2","0","3","1","1,0,0,0.25,0.5,0.25,0.25,0.25,0.5","0,1,0,0.5,0.25,0.25,0.25,0.25,0.5","3","",""
"","html-keyboard-response","259","125045","0.0-259.0","","","","","null","<img src=""img/land3.png"" style=""width:200px;border:14px solid red;"">","null","","","","","","","","","",""
"","image-keyboard-response","260","125315","0.0-260.0","","","","","269","img/land1.png","74","269","1","0","1","1","1,0,0,0.25,0.5,0.25,0.25,0.25,0.5","0,1,0,0.5,0.25,0.25,0.25,0.25,0.5","3","",""
"","html-keyboard-response","261","125615","0.0-261.0","","","","","null","<img src=""img/land1.png"" style=""width:200px;border:14px solid red;"">","null","","","","","","","","","",""
"","image-keyboard-response","262","125765","0.0-262.0","","","","","147","img/land2.png","75","148","2","0","2","1","1,0,0,0.25,0.5,0.25,0.25,0.25,0.5","0,1,0,0.5,0.25,0.25,0.25,0.25,0.5","3","",""
"","html-keyboard-response","263","126069","0.0-263.0","","","","","null","<img src=""img/land2.png"" style=""width:200px;border:14px solid red;"">","null","","","","","","","","","",""
"","image-keyboard-response","264","126220","0.0-264.0","","","","","148","img/land1.png","75","150","2","1","1","1","1,0,0,0.25,0.5,0.25,0.25,0.25,0.5","0,1,0,0.5,0.25,0.25,0.25,0.25,0.5","3","",""
"","html-keyboard-response","265","126535","0.0-265.0","","","","","null","<img src=""img/land1.png"" style=""width:200px; border:14px solid green;"">","null","","","","","","","","","",""
"","image-keyboard-response","266","126619","0.0-266.0","","","","","83","img/land1.png","75","83","2","1","1","1","1,0,0,0.25,0.5,0.25,0.25,0.25,0.5","0,1,0,0.5,0.25,0.25,0.25,0.25,0.5","3","",""
"","html-keyboard-response","267","126934","0.0-267.0","","","","","null","<img src=""img/land1.png"" style=""width:200px; border:14px solid green;"">","null","","","","","","","","","",""
"","image-keyboard-response","268","126971","0.0-268.0","","","","","36","img/land1.png","75","36","2","1","1","1","1,0,0,0.25,0.5,0.25,0.25,0.25,0.5","0,1,0,0.5,0.25,0.25,0.25,0.25,0.5","3","",""
"","html-keyboard-response","269","127280","0.0-269.0","","","","","null","<img src=""img/land1.png"" style=""width:200px; border:14px solid green;"">","null","","","","","","","","","",""
"","image-keyboard-response","270","127372","0.0-270.0","","","","","92","img/land1.png","75","93","2","1","1","1","1,0,0,0.25,0.5,0.25,0.25,0.25,0.5","0,1,0,0.5,0.25,0.25,0.25,0.25,0.5","3","",""
"","html-keyboard-response","271","127684","0.0-271.0","","","","","null","<img src=""img/land1.png"" style=""width:200px; border:14px solid green;"">","null","","","","","","","","","",""
"","image-keyboard-response","272","127732","0.0-272.0","","","","","46","img/land1.png","75","48","2","1","1","1","1,0,0,0.25,0.5,0.25,0.25,0.25,0.5","0,1,0,0.5,0.25,0.25,0.25,0.25,0.5","3","",""
"","html-keyboard-response","273","128045","0.0-273.0","","","","","null","<img src=""img/land1.png"" style=""width:200px; border:14px solid green;"">","null","","","","","","","","","",""
"","image-keyboard-response","274","128116","0.0-274.0","","","","","69","img/land2.png","75","71","2","0","2","1","1,0,0,0.25,0.5,0.25,0.25,0.25,0.5","0,1,0,0.5,0.25,0.25,0.25,0.25,0.5","3","",""
"","html-keyboard-response","275","128425","0.0-275.0","","","","","null","<img src=""img/land2.png"" style=""width:200px;border:14px solid red;"">","null","","","","","","","","","",""
"","image-keyboard-response","276","128821","0.0-276.0","","","","","393","img/land1.png","75","394","2","1","1","1","1,0,0,0.25,0.5,0.25,0.25,0.25,0.5","0,1,0,0.5,0.25,0.25,0.25,0.25,0.5","3","",""
"","html-keyboard-response","277","129130","0.0-277.0","","","","","null","<img src=""img/land1.png"" style=""width:200px; border:14px solid green;"">","null","","","","","","","","","",""
"","image-keyboard-response","278","129133","0.0-278.0","","","","","1","img/land2.png","75","1","2","0","2","1","1,0,0,0.25,0.5,0.25,0.25,0.25,0.5","0,1,0,0.5,0.25,0.25,0.25,0.25,0.5","3","",""
"","html-keyboard-response","279","129444","0.0-279.0","","","","","null","<img src=""img/land2.png"" style=""width:200px;border:14px solid red;"">","null","","","","","","","","","",""
"","image-keyboard-response","280","129517","0.0-280.0","","","","","71","img/land1.png","75","73","2","1","1","1","1,0,0,0.25,0.5,0.25,0.25,0.25,0.5","0,1,0,0.5,0.25,0.25,0.25,0.25,0.5","3","",""
"","html-keyboard-response","281","129824","0.0-281.0","","","","","null","<img src=""img/land1.png"" style=""width:200px; border:14px solid green;"">","null","","","","","","","","","",""
"","image-keyboard-response","282","129988","0.0-282.0","","","","","162","img/land1.png","75","163","2","1","1","1","1,0,0,0.25,0.5,0.25,0.25,0.25,0.5","0,1,0,0.5,0.25,0.25,0.25,0.25,0.5","3","",""
"","html-keyboard-response","283","130300","0.0-283.0","","","","","null","<img src=""img/land1.png"" style=""width:200px; border:14px solid green;"">","null","","","","","","","","","",""
"","image-keyboard-response","284","130731","0.0-284.0","","","","","430","img/land3.png","75","431","2","1","3","1","1,0,0,0.25,0.5,0.25,0.25,0.25,0.5","0,1,0,0.5,0.25,0.25,0.25,0.25,0.5","3","",""
"","html-keyboard-response","285","131045","0.0-285.0","","","","","null","<img src=""img/land3.png"" style=""width:200px; border:14px solid green;"">","null","","","","","","","","","",""
"","image-keyboard-response","286","131212","0.0-286.0","","","","","167","img/land2.png","75","168","2","0","2","1","1,0,0,0.25,0.5,0.25,0.25,0.25,0.5","0,1,0,0.5,0.25,0.25,0.25,0.25,0.5","3","",""
"","html-keyboard-response","287","131525","0.0-287.0","","","","","null","<img src=""img/land2.png"" style=""width:200px;border:14px solid red;"">","null","","","","","","","","","",""
"","image-keyboard-response","288","132219","0.0-288.0","","","","","692","img/land3.png","74","693","1","0","3","1","1,0,0,0.25,0.5,0.25,0.25,0.25,0.5","0,1,0,0.5,0.25,0.25,0.25,0.25,0.5","3","",""
"","html-keyboard-response","289","132530","0.0-289.0","","","","","null","<img src=""img/land3.png"" style=""width:200px;border:14px solid red;"">","null","","","","","","","","","",""
"","image-keyboard-response","290","132684","0.0-290.0","","","","","152","img/land1.png","75","152","2","1","1","1","1,0,0,0.25,0.5,0.25,0.25,0.25,0.5","0,1,0,0.5,0.25,0.25,0.25,0.25,0.5","3","",""
"","html-keyboard-response","291","132995","0.0-291.0","","","","","null","<img src=""img/land1.png"" style=""width:200px; border:14px solid green;"">","null","","","","","","","","","",""
"","image-keyboard-response","292","133229","0.0-292.0","","","","","232","img/land1.png","75","233","2","1","1","1","1,0,0,0.25,0.5,0.25,0.25,0.25,0.5","0,1,0,0.5,0.25,0.25,0.25,0.25,0.5","3","",""
"","html-keyboard-response","293","133540","0.0-293.0","","","","","null","<img src=""img/land1.png"" style=""width:200px; border:14px solid green;"">","null","","","","","","","","","",""
"","image-keyboard-response","294","133692","0.0-294.0","","","","","151","img/land1.png","75","152","2","1","1","1","1,0,0,0.25,0.5,0.25,0.25,0.25,0.5","0,1,0,0.5,0.25,0.25,0.25,0.25,0.5","3","",""
"","html-keyboard-response","295","134005","0.0-295.0","","","","","null","<img src=""img/land1.png"" style=""width:200px; border:14px solid green;"">","null","","","","","","","","","",""
"","image-keyboard-response","296","134132","0.0-296.0","","","","","127","img/land2.png","75","127","2","0","2","1","1,0,0,0.25,0.5,0.25,0.25,0.25,0.5","0,1,0,0.5,0.25,0.25,0.25,0.25,0.5","3","",""
"","html-keyboard-response","297","134439","0.0-297.0","","","","","null","<img src=""img/land2.png"" style=""width:200px;border:14px solid red;"">","null","","","","","","","","","",""
"","image-keyboard-response","298","134939","0.0-298.0","","","","","498","img/land1.png","75","499","2","1","1","1","1,0,0,0.25,0.5,0.25,0.25,0.25,0.5","0,1,0,0.5,0.25,0.25,0.25,0.25,0.5","3","",""
"","html-keyboard-response","299","135249","0.0-299.0","","","","","null","<img src=""img/land1.png"" style=""width:200px; border:14px solid green;"">","null","","","","","","","","","",""
"","image-keyboard-response","300","135508","0.0-300.0","","","","","258","img/land3.png","75","258","2","0","3","1","1,0,0,0.25,0.5,0.25,0.25,0.25,0.5","0,1,0,0.5,0.25,0.25,0.25,0.25,0.5","3","",""
"","html-keyboard-response","301","135816","0.0-301.0","","","","","null","<img src=""img/land3.png"" style=""width:200px;border:14px solid red;"">","null","","","","","","","","","",""
"","html-keyboard-response","302","138532","0.0-302.0","","","","","","","","","","","","","","","","",""
"","image-keyboard-response","303","139652","0.0-303.0","","","","","1120","img/land6.png","75","1121","2","0","3","2","1,0,0,0.25,0.5,0.25,0.25,0.25,0.5","0,0,1,0.25,0.5,0.25,0.5,0.25,0.25","2","",""
"","html-keyboard-response","304","139964","0.0-304.0","","","","","null","<img src=""img/land6.png"" style=""width:200px;border:14px solid red;"">","null","","","","","","","","","",""
"","image-keyboard-response","305","140620","0.0-305.0","","","","","653","img/land6.png","74","655","1","0","3","2","1,0,0,0.25,0.5,0.25,0.25,0.25,0.5","0,0,1,0.25,0.5,0.25,0.5,0.25,0.25","2","",""
"","html-keyboard-response","306","140935","0.0-306.0","","","","","null","<img src=""img/land6.png"" style=""width:200px;border:14px solid red;"">","null","","","","","","","","","",""
"","image-keyboard-response","307","141412","0.0-307.0","","","","","474","img/land6.png","76","476","3","0","3","2","1,0,0,0.25,0.5,0.25,0.25,0.25,0.5","0,0,1,0.25,0.5,0.25,0.5,0.25,0.25","2","",""
"","html-keyboard-response","308","141718","0.0-308.0","","","","","null","<img src=""img/land6.png"" style=""width:200px;border:14px solid red;"">","null","","","","","","","","","",""
"","image-keyboard-response","309","142173","0.0-309.0","","","","","452","img/land6.png","75","453","2","0","3","2","1,0,0,0.25,0.5,0.25,0.25,0.25,0.5","0,0,1,0.25,0.5,0.25,0.5,0.25,0.25","2","",""
"","html-keyboard-response","310","142488","0.0-310.0","","","","","null","<img src=""img/land6.png"" style=""width:200px;border:14px solid red;"">","null","","","","","","","","","",""
"","image-keyboard-response","311","143158","0.0-311.0","","","","","669","img/land4.png","75","671","2","0","1","2","1,0,0,0.25,0.5,0.25,0.25,0.25,0.5","0,0,1,0.25,0.5,0.25,0.5,0.25,0.25","2","",""
"","html-keyboard-response","312","143468","0.0-312.0","","","","","null","<img src=""img/land4.png"" style=""width:200px;border:14px solid red;"">","null","","","","","","","","","",""
"","image-keyboard-response","313","143932","0.0-313.0","","","","","464","img/land6.png","74","466","1","1","3","2","1,0,0,0.25,0.5,0.25,0.25,0.25,0.5","0,0,1,0.25,0.5,0.25,0.5,0.25,0.25","2","",""
"","html-keyboard-response","314","144248","0.0-314.0","","","","","null","<img src=""img/land6.png"" style=""width:200px; border:14px solid green;"">","null","","","","","","","","","",""
"","image-keyboard-response","315","144700","0.0-315.0","","","","","451","img/land6.png","74","452","1","1","3","2","1,0,0,0.25,0.5,0.25,0.25,0.25,0.5","0,0,1,0.25,0.5,0.25,0.5,0.25,0.25","2","",""
"","html-keyboard-response","316","145003","0.0-316.0","","","","","null","<img src=""img/land6.png"" style=""width:200px; border:14px solid green;"">","null","","","","","","","","","",""
"","image-keyboard-response","317","145412","0.0-317.0","","","","","408","img/land6.png","74","410","1","0","3","2","1,0,0,0.25,0.5,0.25,0.25,0.25,0.5","0,0,1,0.25,0.5,0.25,0.5,0.25,0.25","2","",""
"","html-keyboard-response","318","145727","0.0-318.0","","","","","null","<img src=""img/land6.png"" style=""width:200px;border:14px solid red;"">","null","","","","","","","","","",""
"","image-keyboard-response","319","146477","0.0-319.0","","","","","748","img/land4.png","74","749","1","0","1","2","1,0,0,0.25,0.5,0.25,0.25,0.25,0.5","0,0,1,0.25,0.5,0.25,0.5,0.25,0.25","2","",""
"","html-keyboard-response","320","146790","0.0-320.0","","","","","null","<img src=""img/land4.png"" style=""width:200px;border:14px solid red;"">","null","","","","","","","","","",""
"","image-keyboard-response","321","147309","0.0-321.0","","","","","518","img/land6.png","75","518","2","0","3","2","1,0,0,0.25,0.5,0.25,0.25,0.25,0.5","0,0,1,0.25,0.5,0.25,0.5,0.25,0.25","2","",""
"","html-keyboard-response","322","147619","0.0-322.0","","","","","null","<img src=""img/land6.png"" style=""width:200px;border:14px solid red;"">","null","","","","","","","","","",""
"","image-keyboard-response","323","147892","0.0-323.0","","","","","271","img/land5.png","74","271","1","1","2","2","1,0,0,0.25,0.5,0.25,0.25,0.25,0.5","0,0,1,0.25,0.5,0.25,0.5,0.25,0.25","2","",""
"","html-keyboard-response","324","148200","0.0-324.0","","","","","null","<img src=""img/land5.png"" style=""width:200px; border:14px solid green;"">","null","","","","","","","","","",""
"","image-keyboard-response","325","148708","0.0-325.0","","","","","506","img/land5.png","74","507","1","0","2","2","1,0,0,0.25,0.5,0.25,0.25,0.25,0.5","0,0,1,0.25,0.5,0.25,0.5,0.25,0.25","2","",""
"","html-keyboard-response","326","149016","0.0-326.0","","","","","null","<img src=""img/land5.png"" style=""width:200px;border:14px solid red;"">","null","","","","","","","","","",""
"","image-keyboard-response","327","149477","0.0-327.0","","","","","460","img/land6.png","74","461","1","1","3","2","1,0,0,0.25,0.5,0.25,0.25,0.25,0.5","0,0,1,0.25,0.5,0.25,0.5,0.25,0.25","2","",""
"","html-keyboard-response","328","149782","0.0-328.0","","","","","null","<img src=""img/land6.png"" style=""width:200px; border:14px solid green;"">","null","","","","","","","","","",""
"","image-keyboard-response","329","150612","0.0-329.0","","","","","829","img/land5.png","75","830","2","0","2","2","1,0,0,0.25,0.5,0.25,0.25,0.25,0.5","0,0,1,0.25,0.5,0.25,0.5,0.25,0.25","2","",""
"","html-keyboard-response","330","150922","0.0-330.0","","","","","null","<img src=""img/land5.png"" style=""width:200px;border:14px solid red;"">","null","","","","","","","","","",""
"","image-keyboard-response","331","151381","0.0-331.0","","","","","458","img/land6.png","74","458","1","1","3","2","1,0,0,0.25,0.5,0.25,0.25,0.25,0.5","0,0,1,0.25,0.5,0.25,0.5,0.25,0.25","2","",""
"","html-keyboard-response","332","151694","0.0-332.0","","","","","null","<img src=""img/land6.png"" style=""width:200px; border:14px solid green;"">","null","","","","","","","","","",""
"","image-keyboard-response","333","152187","0.0-333.0","","","","","492","img/land4.png","76","492","3","1","1","2","1,0,0,0.25,0.5,0.25,0.25,0.25,0.5","0,0,1,0.25,0.5,0.25,0.5,0.25,0.25","2","",""
"","html-keyboard-response","334","152493","0.0-334.0","","","","","null","<img src=""img/land4.png"" style=""width:200px; border:14px solid green;"">","null","","","","","","","","","",""
"","image-keyboard-response","335","153685","0.0-335.0","","","","","1189","img/land5.png","75","1190","2","0","2","2","1,0,0,0.25,0.5,0.25,0.25,0.25,0.5","0,0,1,0.25,0.5,0.25,0.5,0.25,0.25","2","",""
"","html-keyboard-response","336","153996","0.0-336.0","","","","","null","<img src=""img/land5.png"" style=""width:200px;border:14px solid red;"">","null","","","","","","","","","",""
"","image-keyboard-response","337","154684","0.0-337.0","","","","","686","img/land4.png","74","687","1","0","1","2","1,0,0,0.25,0.5,0.25,0.25,0.25,0.5","0,0,1,0.25,0.5,0.25,0.5,0.25,0.25","2","",""
"","html-keyboard-response","338","154998","0.0-338.0","","","","","null","<img src=""img/land4.png"" style=""width:200px;border:14px solid red;"">","null","","","","","","","","","",""
"","image-keyboard-response","339","155459","0.0-339.0","","","","","460","img/land6.png","74","461","1","0","3","2","1,0,0,0.25,0.5,0.25,0.25,0.25,0.5","0,0,1,0.25,0.5,0.25,0.5,0.25,0.25","2","",""
"","html-keyboard-response","340","155765","0.0-340.0","","","","","null","<img src=""img/land6.png"" style=""width:200px;border:14px solid red;"">","null","","","","","","","","","",""
"","image-keyboard-response","341","156340","0.0-341.0","","","","","574","img/land6.png","74","575","1","0","3","2","1,0,0,0.25,0.5,0.25,0.25,0.25,0.5","0,0,1,0.25,0.5,0.25,0.5,0.25,0.25","2","",""
"","html-keyboard-response","342","156648","0.0-342.0","","","","","null","<img src=""img/land6.png"" style=""width:200px;border:14px solid red;"">","null","","","","","","","","","",""
"","image-keyboard-response","343","157228","0.0-343.0","","","","","579","img/land5.png","76","580","3","1","2","2","1,0,0,0.25,0.5,0.25,0.25,0.25,0.5","0,0,1,0.25,0.5,0.25,0.5,0.25,0.25","2","",""
"","html-keyboard-response","344","157540","0.0-344.0","","","","","null","<img src=""img/land5.png"" style=""width:200px; border:14px solid green;"">","null","","","","","","","","","",""
"","image-keyboard-response","345","158093","0.0-345.0","","","","","551","img/land5.png","76","552","3","0","2","2","1,0,0,0.25,0.5,0.25,0.25,0.25,0.5","0,0,1,0.25,0.5,0.25,0.5,0.25,0.25","2","",""
"","html-keyboard-response","346","158403","0.0-346.0","","","","","null","<img src=""img/land5.png"" style=""width:200px;border:14px solid red;"">","null","","","","","","","","","",""
"","image-keyboard-response","347","158749","0.0-347.0","","","","","345","img/land5.png","76","346","3","0","2","2","1,0,0,0.25,0.5,0.25,0.25,0.25,0.5","0,0,1,0.25,0.5,0.25,0.5,0.25,0.25","2","",""
"","html-keyboard-response","348","159060","0.0-348.0","","","","","null","<img src=""img/land5.png"" style=""width:200px;border:14px solid red;"">","null","","","","","","","","","",""
"","image-keyboard-response","349","159620","0.0-349.0","","","","","559","img/land4.png","76","560","3","1","1","2","1,0,0,0.25,0.5,0.25,0.25,0.25,0.5","0,0,1,0.25,0.5,0.25,0.5,0.25,0.25","2","",""
"","html-keyboard-response","350","159933","0.0-350.0","","","","","null","<img src=""img/land4.png"" style=""width:200px; border:14px solid green;"">","null","","","","","","","","","",""
"","image-keyboard-response","351","160564","0.0-351.0","","","","","629","img/land5.png","76","631","3","1","2","2","1,0,0,0.25,0.5,0.25,0.25,0.25,0.5","0,0,1,0.25,0.5,0.25,0.5,0.25,0.25","2","",""
"","html-keyboard-response","352","160875","0.0-352.0","","","","","null","<img src=""img/land5.png"" style=""width:200px; border:14px solid green;"">","null","","","","","","","","","",""
"","image-keyboard-response","353","161324","0.0-353.0","","","","","448","img/land6.png","76","448","3","0","3","2","1,0,0,0.25,0.5,0.25,0.25,0.25,0.5","0,0,1,0.25,0.5,0.25,0.5,0.25,0.25","2","",""
"","html-keyboard-response","354","161638","0.0-354.0","","","","","null","<img src=""img/land6.png"" style=""width:200px;border:14px solid red;"">","null","","","","","","","","","",""
"","image-keyboard-response","355","162364","0.0-355.0","","","","","725","img/land5.png","76","726","3","1","2","2","1,0,0,0.25,0.5,0.25,0.25,0.25,0.5","0,0,1,0.25,0.5,0.25,0.5,0.25,0.25","2","",""
"","html-keyboard-response","356","162669","0.0-356.0","","","","","null","<img src=""img/land5.png"" style=""width:200px; border:14px solid green;"">","null","","","","","","","","","",""
"","image-keyboard-response","357","163268","0.0-357.0","","","","","597","img/land4.png","76","599","3","1","1","2","1,0,0,0.25,0.5,0.25,0.25,0.25,0.5","0,0,1,0.25,0.5,0.25,0.5,0.25,0.25","2","",""
"","html-keyboard-response","358","163579","0.0-358.0","","","","","null","<img src=""img/land4.png"" style=""width:200px; border:14px solid green;"">","null","","","","","","","","","",""
"","image-keyboard-response","359","164084","0.0-359.0","","","","","504","img/land4.png","76","504","3","1","1","2","1,0,0,0.25,0.5,0.25,0.25,0.25,0.5","0,0,1,0.25,0.5,0.25,0.5,0.25,0.25","2","",""
"","html-keyboard-response","360","164391","0.0-360.0","","","","","null","<img src=""img/land4.png"" style=""width:200px; border:14px solid green;"">","null","","","","","","","","","",""
"","image-keyboard-response","361","165035","0.0-361.0","","","","","643","img/land5.png","74","643","1","0","2","2","1,0,0,0.25,0.5,0.25,0.25,0.25,0.5","0,0,1,0.25,0.5,0.25,0.5,0.25,0.25","2","",""
"","html-keyboard-response","362","165348","0.0-362.0","","","","","null","<img src=""img/land5.png"" style=""width:200px;border:14px solid red;"">","null","","","","","","","","","",""
"","image-keyboard-response","363","166012","0.0-363.0","","","","","662","img/land4.png","76","664","3","1","1","2","1,0,0,0.25,0.5,0.25,0.25,0.25,0.5","0,0,1,0.25,0.5,0.25,0.5,0.25,0.25","2","",""
"","html-keyboard-response","364","166317","0.0-364.0","","","","","null","<img src=""img/land4.png"" style=""width:200px; border:14px solid green;"">","null","","","","","","","","","",""
"","image-keyboard-response","365","166773","0.0-365.0","","","","","453","img/land5.png","76","455","3","0","2","2","1,0,0,0.25,0.5,0.25,0.25,0.25,0.5","0,0,1,0.25,0.5,0.25,0.5,0.25,0.25","2","",""
"","html-keyboard-response","366","167083","0.0-366.0","","","","","null","<img src=""img/land5.png"" style=""width:200px;border:14px solid red;"">","null","","","","","","","","","",""
"","image-keyboard-response","367","167611","0.0-367.0","","","","","528","img/land4.png","76","528","3","1","1","2","1,0,0,0.25,0.5,0.25,0.25,0.25,0.5","0,0,1,0.25,0.5,0.25,0.5,0.25,0.25","2","",""
"","html-keyboard-response","368","167913","0.0-368.0","","","","","null","<img src=""img/land4.png"" style=""width:200px; border:14px solid green;"">","null","","","","","","","","","",""
"","image-keyboard-response","369","168428","0.0-369.0","","","","","513","img/land6.png","76","514","3","0","3","2","1,0,0,0.25,0.5,0.25,0.25,0.25,0.5","0,0,1,0.25,0.5,0.25,0.5,0.25,0.25","2","",""
"","html-keyboard-response","370","168739","0.0-370.0","","","","","null","<img src=""img/land6.png"" style=""width:200px;border:14px solid red;"">","null","","","","","","","","","",""
"","image-keyboard-response","371","169187","0.0-371.0","","","","","448","img/land4.png","76","449","3","1","1","2","1,0,0,0.25,0.5,0.25,0.25,0.25,0.5","0,0,1,0.25,0.5,0.25,0.5,0.25,0.25","2","",""
"","html-keyboard-response","372","169490","0.0-372.0","","","","","null","<img src=""img/land4.png"" style=""width:200px; border:14px solid green;"">","null","","","","","","","","","",""
"","image-keyboard-response","373","170085","0.0-373.0","","","","","592","img/land5.png","76","593","3","0","2","2","1,0,0,0.25,0.5,0.25,0.25,0.25,0.5","0,0,1,0.25,0.5,0.25,0.5,0.25,0.25","2","",""
"","html-keyboard-response","374","170399","0.0-374.0","","","","","null","<img src=""img/land5.png"" style=""width:200px;border:14px solid red;"">","null","","","","","","","","","",""
"","image-keyboard-response","375","170820","0.0-375.0","","","","","420","img/land6.png","74","421","1","1","3","2","1,0,0,0.25,0.5,0.25,0.25,0.25,0.5","0,0,1,0.25,0.5,0.25,0.5,0.25,0.25","2","",""
"","html-keyboard-response","376","171125","0.0-376.0","","","","","null","<img src=""img/land6.png"" style=""width:200px; border:14px solid green;"">","null","","","","","","","","","",""
"","image-keyboard-response","377","171877","0.0-377.0","","","","","750","img/land4.png","76","752","3","1","1","2","1,0,0,0.25,0.5,0.25,0.25,0.25,0.5","0,0,1,0.25,0.5,0.25,0.5,0.25,0.25","2","",""
"","html-keyboard-response","378","172179","0.0-378.0","","","","","null","<img src=""img/land4.png"" style=""width:200px; border:14px solid green;"">","null","","","","","","","","","",""
"","image-keyboard-response","379","172756","0.0-379.0","","","","","575","img/land4.png","76","576","3","1","1","2","1,0,0,0.25,0.5,0.25,0.25,0.25,0.5","0,0,1,0.25,0.5,0.25,0.5,0.25,0.25","2","",""
"","html-keyboard-response","380","173064","0.0-380.0","","","","","null","<img src=""img/land4.png"" style=""width:200px; border:14px solid green;"">","null","","","","","","","","","",""
"","image-keyboard-response","381","173636","0.0-381.0","","","","","570","img/land5.png","76","570","3","0","2","2","1,0,0,0.25,0.5,0.25,0.25,0.25,0.5","0,0,1,0.25,0.5,0.25,0.5,0.25,0.25","2","",""
"","html-keyboard-response","382","173950","0.0-382.0","","","","","null","<img src=""img/land5.png"" style=""width:200px;border:14px solid red;"">","null","","","","","","","","","",""
"","image-keyboard-response","383","174477","0.0-383.0","","","","","526","img/land4.png","76","527","3","1","1","2","1,0,0,0.25,0.5,0.25,0.25,0.25,0.5","0,0,1,0.25,0.5,0.25,0.5,0.25,0.25","2","",""
"","html-keyboard-response","384","174789","0.0-384.0","","","","","null","<img src=""img/land4.png"" style=""width:200px; border:14px solid green;"">","null","","","","","","","","","",""
"","image-keyboard-response","385","175180","0.0-385.0","","","","","389","img/land4.png","76","390","3","1","1","2","1,0,0,0.25,0.5,0.25,0.25,0.25,0.5","0,0,1,0.25,0.5,0.25,0.5,0.25,0.25","2","",""
"","html-keyboard-response","386","175491","0.0-386.0","","","","","null","<img src=""img/land4.png"" style=""width:200px; border:14px solid green;"">","null","","","","","","","","","",""
"","image-keyboard-response","387","176157","0.0-387.0","","","","","665","img/land6.png","74","665","1","1","3","2","1,0,0,0.25,0.5,0.25,0.25,0.25,0.5","0,0,1,0.25,0.5,0.25,0.5,0.25,0.25","2","",""
"","html-keyboard-response","388","176460","0.0-388.0","","","","","null","<img src=""img/land6.png"" style=""width:200px; border:14px solid green;"">","null","","","","","","","","","",""
"","image-keyboard-response","389","177092","0.0-389.0","","","","","630","img/land4.png","76","632","3","1","1","2","1,0,0,0.25,0.5,0.25,0.25,0.25,0.5","0,0,1,0.25,0.5,0.25,0.5,0.25,0.25","2","",""
"","html-keyboard-response","390","177404","0.0-390.0","","","","","null","<img src=""img/land4.png"" style=""width:200px; border:14px solid green;"">","null","","","","","","","","","",""
"","image-keyboard-response","391","178060","0.0-391.0","","","","","654","img/land6.png","74","655","1","0","3","2","1,0,0,0.25,0.5,0.25,0.25,0.25,0.5","0,0,1,0.25,0.5,0.25,0.5,0.25,0.25","2","",""
"","html-keyboard-response","392","178375","0.0-392.0","","","","","null","<img src=""img/land6.png"" style=""width:200px;border:14px solid red;"">","null","","","","","","","","","",""
"","image-keyboard-response","393","178852","0.0-393.0","","","","","475","img/land6.png","74","477","1","1","3","2","1,0,0,0.25,0.5,0.25,0.25,0.25,0.5","0,0,1,0.25,0.5,0.25,0.5,0.25,0.25","2","",""
"","html-keyboard-response","394","179155","0.0-394.0","","","","","null","<img src=""img/land6.png"" style=""width:200px; border:14px solid green;"">","null","","","","","","","","","",""
"","image-keyboard-response","395","179853","0.0-395.0","","","","","697","img/land5.png","76","697","3","0","2","2","1,0,0,0.25,0.5,0.25,0.25,0.25,0.5","0,0,1,0.25,0.5,0.25,0.5,0.25,0.25","2","",""
"","html-keyboard-response","396","180160","0.0-396.0","","","","","null","<img src=""img/land5.png"" style=""width:200px;border:14px solid red;"">","null","","","","","","","","","",""
"","image-keyboard-response","397","180540","0.0-397.0","","","","","378","img/land5.png","76","378","3","1","2","2","1,0,0,0.25,0.5,0.25,0.25,0.25,0.5","0,0,1,0.25,0.5,0.25,0.5,0.25,0.25","2","",""
"","html-keyboard-response","398","180844","0.0-398.0","","","","","null","<img src=""img/land5.png"" style=""width:200px; border:14px solid green;"">","null","","","","","","","","","",""
"","image-keyboard-response","399","182093","0.0-399.0","","","","","1246","img/land5.png","76","1247","3","0","2","2","1,0,0,0.25,0.5,0.25,0.25,0.25,0.5","0,0,1,0.25,0.5,0.25,0.5,0.25,0.25","2","",""
"","html-keyboard-response","400","182400","0.0-400.0","","","","","null","<img src=""img/land5.png"" style=""width:200px;border:14px solid red;"">","null","","","","","","","","","",""
"","image-keyboard-response","401","182716","0.0-401.0","","","","","315","img/land5.png","76","315","3","1","2","2","1,0,0,0.25,0.5,0.25,0.25,0.25,0.5","0,0,1,0.25,0.5,0.25,0.5,0.25,0.25","2","",""
"","html-keyboard-response","402","183030","0.0-402.0","","","","","null","<img src=""img/land5.png"" style=""width:200px; border:14px solid green;"">","null","","","","","","","","","",""
"","image-keyboard-response","403","183324","0.0-403.0","","","","","292","img/land5.png","76","295","3","1","2","2","1,0,0,0.25,0.5,0.25,0.25,0.25,0.5","0,0,1,0.25,0.5,0.25,0.5,0.25,0.25","2","",""
"","html-keyboard-response","404","183640","0.0-404.0","","","","","null","<img src=""img/land5.png"" style=""width:200px; border:14px solid green;"">","null","","","","","","","","","",""
"","image-keyboard-response","405","184164","0.0-405.0","","","","","523","img/land6.png","74","524","1","1","3","2","1,0,0,0.25,0.5,0.25,0.25,0.25,0.5","0,0,1,0.25,0.5,0.25,0.5,0.25,0.25","2","",""
"","html-keyboard-response","406","184475","0.0-406.0","","","","","null","<img src=""img/land6.png"" style=""width:200px; border:14px solid green;"">","null","","","","","","","","","",""
"","image-keyboard-response","407","184829","0.0-407.0","","","","","351","img/land6.png","74","354","1","1","3","2","1,0,0,0.25,0.5,0.25,0.25,0.25,0.5","0,0,1,0.25,0.5,0.25,0.5,0.25,0.25","2","",""
"","html-keyboard-response","408","185134","0.0-408.0","","","","","null","<img src=""img/land6.png"" style=""width:200px; border:14px solid green;"">","null","","","","","","","","","",""
"","image-keyboard-response","409","186084","0.0-409.0","","","","","948","img/land4.png","76","950","3","1","1","2","1,0,0,0.25,0.5,0.25,0.25,0.25,0.5","0,0,1,0.25,0.5,0.25,0.5,0.25,0.25","2","",""
"","html-keyboard-response","410","186395","0.0-410.0","","","","","null","<img src=""img/land4.png"" style=""width:200px; border:14px solid green;"">","null","","","","","","","","","",""
"","image-keyboard-response","411","187100","0.0-411.0","","","","","703","img/land5.png","76","705","3","0","2","2","1,0,0,0.25,0.5,0.25,0.25,0.25,0.5","0,0,1,0.25,0.5,0.25,0.5,0.25,0.25","2","",""
"","html-keyboard-response","412","187414","0.0-412.0","","","","","null","<img src=""img/land5.png"" style=""width:200px;border:14px solid red;"">","null","","","","","","","","","",""
"","image-keyboard-response","413","188045","0.0-413.0","","","","","629","img/land6.png","74","629","1","0","3","2","1,0,0,0.25,0.5,0.25,0.25,0.25,0.5","0,0,1,0.25,0.5,0.25,0.5,0.25,0.25","2","",""
"","html-keyboard-response","414","188353","0.0-414.0","","","","","null","<img src=""img/land6.png"" style=""width:200px;border:14px solid red;"">","null","","","","","","","","","",""
"","image-keyboard-response","415","189285","0.0-415.0","","","","","930","img/land4.png","76","931","3","1","1","2","1,0,0,0.25,0.5,0.25,0.25,0.25,0.5","0,0,1,0.25,0.5,0.25,0.5,0.25,0.25","2","",""
"","html-keyboard-response","416","189605","0.0-416.0","","","","","null","<img src=""img/land4.png"" style=""width:200px; border:14px solid green;"">","null","","","","","","","","","",""
"","image-keyboard-response","417","190628","0.0-417.0","","","","","1022","img/land5.png","76","1022","3","0","2","2","1,0,0,0.25,0.5,0.25,0.25,0.25,0.5","0,0,1,0.25,0.5,0.25,0.5,0.25,0.25","2","",""
"","html-keyboard-response","418","190946","0.0-418.0","","","","","null","<img src=""img/land5.png"" style=""width:200px;border:14px solid red;"">","null","","","","","","","","","",""
"","image-keyboard-response","419","191395","0.0-419.0","","","","","447","img/land5.png","76","448","3","0","2","2","1,0,0,0.25,0.5,0.25,0.25,0.25,0.5","0,0,1,0.25,0.5,0.25,0.5,0.25,0.25","2","",""
"","html-keyboard-response","420","191705","0.0-420.0","","","","","null","<img src=""img/land5.png"" style=""width:200px;border:14px solid red;"">","null","","","","","","","","","",""
"","image-keyboard-response","421","192341","0.0-421.0","","","","","633","img/land6.png","74","634","1","0","3","2","1,0,0,0.25,0.5,0.25,0.25,0.25,0.5","0,0,1,0.25,0.5,0.25,0.5,0.25,0.25","2","",""
"","html-keyboard-response","422","192656","0.0-422.0","","","","","null","<img src=""img/land6.png"" style=""width:200px;border:14px solid red;"">","null","","","","","","","","","",""
"","image-keyboard-response","423","192998","0.0-423.0","","","","","340","img/land6.png","74","341","1","1","3","2","1,0,0,0.25,0.5,0.25,0.25,0.25,0.5","0,0,1,0.25,0.5,0.25,0.5,0.25,0.25","2","",""
"","html-keyboard-response","424","193316","0.0-424.0","","","","","null","<img src=""img/land6.png"" style=""width:200px; border:14px solid green;"">","null","","","","","","","","","",""
"","image-keyboard-response","425","194037","0.0-425.0","","","","","718","img/land4.png","76","720","3","1","1","2","1,0,0,0.25,0.5,0.25,0.25,0.25,0.5","0,0,1,0.25,0.5,0.25,0.5,0.25,0.25","2","",""
"","html-keyboard-response","426","194350","0.0-426.0","","","","","null","<img src=""img/land4.png"" style=""width:200px; border:14px solid green;"">","null","","","","","","","","","",""
"","image-keyboard-response","427","194661","0.0-427.0","","","","","308","img/land6.png","76","309","3","0","3","2","1,0,0,0.25,0.5,0.25,0.25,0.25,0.5","0,0,1,0.25,0.5,0.25,0.5,0.25,0.25","2","",""
"","html-keyboard-response","428","194965","0.0-428.0","","","","","null","<img src=""img/land6.png"" style=""width:200px;border:14px solid red;"">","null","","","","","","","","","",""
"","image-keyboard-response","429","195381","0.0-429.0","","","","","414","img/land6.png","76","415","3","1","3","2","1,0,0,0.25,0.5,0.25,0.25,0.25,0.5","0,0,1,0.25,0.5,0.25,0.5,0.25,0.25","2","",""
"","html-keyboard-response","430","195690","0.0-430.0","","","","","null","<img src=""img/land6.png"" style=""width:200px; border:14px solid green;"">","null","","","","","","","","","",""
"","image-keyboard-response","431","196492","0.0-431.0","","","","","802","img/land4.png","76","802","3","1","1","2","1,0,0,0.25,0.5,0.25,0.25,0.25,0.5","0,0,1,0.25,0.5,0.25,0.5,0.25,0.25","2","",""
"","html-keyboard-response","432","196795","0.0-432.0","","","","","null","<img src=""img/land4.png"" style=""width:200px; border:14px solid green;"">","null","","","","","","","","","",""
"","image-keyboard-response","433","197187","0.0-433.0","","","","","391","img/land4.png","76","391","3","1","1","2","1,0,0,0.25,0.5,0.25,0.25,0.25,0.5","0,0,1,0.25,0.5,0.25,0.5,0.25,0.25","2","",""
"","html-keyboard-response","434","197490","0.0-434.0","","","","","null","<img src=""img/land4.png"" style=""width:200px; border:14px solid green;"">","null","","","","","","","","","",""
"","image-keyboard-response","435","197924","0.0-435.0","","","","","432","img/land4.png","76","433","3","1","1","2","1,0,0,0.25,0.5,0.25,0.25,0.25,0.5","0,0,1,0.25,0.5,0.25,0.5,0.25,0.25","2","",""
"","html-keyboard-response","436","198226","0.0-436.0","","","","","null","<img src=""img/land4.png"" style=""width:200px; border:14px solid green;"">","null","","","","","","","","","",""
"","image-keyboard-response","437","198613","0.0-437.0","","","","","386","img/land4.png","76","387","3","1","1","2","1,0,0,0.25,0.5,0.25,0.25,0.25,0.5","0,0,1,0.25,0.5,0.25,0.5,0.25,0.25","2","",""
"","html-keyboard-response","438","198925","0.0-438.0","","","","","null","<img src=""img/land4.png"" style=""width:200px; border:14px solid green;"">","null","","","","","","","","","",""
"","image-keyboard-response","439","199445","0.0-439.0","","","","","518","img/land5.png","76","520","3","0","2","2","1,0,0,0.25,0.5,0.25,0.25,0.25,0.5","0,0,1,0.25,0.5,0.25,0.5,0.25,0.25","2","",""
"","html-keyboard-response","440","199751","0.0-440.0","","","","","null","<img src=""img/land5.png"" style=""width:200px;border:14px solid red;"">","null","","","","","","","","","",""
"","image-keyboard-response","441","200412","0.0-441.0","","","","","660","img/land6.png","74","661","1","0","3","2","1,0,0,0.25,0.5,0.25,0.25,0.25,0.5","0,0,1,0.25,0.5,0.25,0.5,0.25,0.25","2","",""
"","html-keyboard-response","442","200715","0.0-442.0","","","","","null","<img src=""img/land6.png"" style=""width:200px;border:14px solid red;"">","null","","","","","","","","","",""
"","image-keyboard-response","443","201292","0.0-443.0","","","","","577","img/land4.png","76","577","3","1","1","2","1,0,0,0.25,0.5,0.25,0.25,0.25,0.5","0,0,1,0.25,0.5,0.25,0.5,0.25,0.25","2","",""
"","html-keyboard-response","444","201595","0.0-444.0","","","","","null","<img src=""img/land4.png"" style=""width:200px; border:14px solid green;"">","null","","","","","","","","","",""
"","image-keyboard-response","445","202029","0.0-445.0","","","","","431","img/land5.png","76","433","3","0","2","2","1,0,0,0.25,0.5,0.25,0.25,0.25,0.5","0,0,1,0.25,0.5,0.25,0.5,0.25,0.25","2","",""
"","html-keyboard-response","446","202336","0.0-446.0","","","","","null","<img src=""img/land5.png"" style=""width:200px;border:14px solid red;"">","null","","","","","","","","","",""
"","image-keyboard-response","447","202749","0.0-447.0","","","","","411","img/land4.png","76","412","3","1","1","2","1,0,0,0.25,0.5,0.25,0.25,0.25,0.5","0,0,1,0.25,0.5,0.25,0.5,0.25,0.25","2","",""
"","html-keyboard-response","448","203060","0.0-448.0","","","","","null","<img src=""img/land4.png"" style=""width:200px; border:14px solid green;"">","null","","","","","","","","","",""
"","image-keyboard-response","449","203397","0.0-449.0","","","","","336","img/land4.png","76","338","3","1","1","2","1,0,0,0.25,0.5,0.25,0.25,0.25,0.5","0,0,1,0.25,0.5,0.25,0.5,0.25,0.25","2","",""
"","html-keyboard-response","450","203704","0.0-450.0","","","","","null","<img src=""img/land4.png"" style=""width:200px; border:14px solid green;"">","null","","","","","","","","","",""
"","image-keyboard-response","451","204188","0.0-451.0","","","","","483","img/land6.png","76","483","3","0","3","2","1,0,0,0.25,0.5,0.25,0.25,0.25,0.5","0,0,1,0.25,0.5,0.25,0.5,0.25,0.25","2","",""
"","html-keyboard-response","452","204495","0.0-452.0","","","","","null","<img src=""img/land6.png"" style=""width:200px;border:14px solid red;"">","null","","","","","","","","","",""
"","image-keyboard-response","453","204837","0.0-453.0","","","","","341","img/land5.png","76","343","3","1","2","2","1,0,0,0.25,0.5,0.25,0.25,0.25,0.5","0,0,1,0.25,0.5,0.25,0.5,0.25,0.25","2","",""
"","html-keyboard-response","454","205140","0.0-454.0","","","","","null","<img src=""img/land5.png"" style=""width:200px; border:14px solid green;"">","null","","","","","","","","","",""
"","image-keyboard-response","455","205620","0.0-455.0","","","","","478","img/land5.png","76","479","3","0","2","2","1,0,0,0.25,0.5,0.25,0.25,0.25,0.5","0,0,1,0.25,0.5,0.25,0.5,0.25,0.25","2","",""
"","html-keyboard-response","456","205929","0.0-456.0","","","","","null","<img src=""img/land5.png"" style=""width:200px;border:14px solid red;"">","null","","","","","","","","","",""
"","image-keyboard-response","457","206524","0.0-457.0","","","","","592","img/land4.png","76","594","3","1","1","2","1,0,0,0.25,0.5,0.25,0.25,0.25,0.5","0,0,1,0.25,0.5,0.25,0.5,0.25,0.25","2","",""
"","html-keyboard-response","458","206840","0.0-458.0","","","","","null","<img src=""img/land4.png"" style=""width:200px; border:14px solid green;"">","null","","","","","","","","","",""
"","image-keyboard-response","459","207197","0.0-459.0","","","","","355","img/land4.png","76","356","3","1","1","2","1,0,0,0.25,0.5,0.25,0.25,0.25,0.5","0,0,1,0.25,0.5,0.25,0.5,0.25,0.25","2","",""
"","html-keyboard-response","460","207500","0.0-460.0","","","","","null","<img src=""img/land4.png"" style=""width:200px; border:14px solid green;"">","null","","","","","","","","","",""
"","image-keyboard-response","461","208221","0.0-461.0","","","","","719","img/land6.png","74","720","1","0","3","2","1,0,0,0.25,0.5,0.25,0.25,0.25,0.5","0,0,1,0.25,0.5,0.25,0.5,0.25,0.25","2","",""
"","html-keyboard-response","462","208531","0.0-462.0","","","","","null","<img src=""img/land6.png"" style=""width:200px;border:14px solid red;"">","null","","","","","","","","","",""
"","image-keyboard-response","463","209324","0.0-463.0","","","","","791","img/land4.png","76","792","3","1","1","2","1,0,0,0.25,0.5,0.25,0.25,0.25,0.5","0,0,1,0.25,0.5,0.25,0.5,0.25,0.25","2","",""
"","html-keyboard-response","464","209640","0.0-464.0","","","","","null","<img src=""img/land4.png"" style=""width:200px; border:14px solid green;"">","null","","","","","","","","","",""
"","image-keyboard-response","465","210437","0.0-465.0","","","","","795","img/land5.png","76","797","3","0","2","2","1,0,0,0.25,0.5,0.25,0.25,0.25,0.5","0,0,1,0.25,0.5,0.25,0.5,0.25,0.25","2","",""
"","html-keyboard-response","466","210749","0.0-466.0","","","","","null","<img src=""img/land5.png"" style=""width:200px;border:14px solid red;"">","null","","","","","","","","","",""
"","image-keyboard-response","467","211157","0.0-467.0","","","","","405","img/land6.png","76","406","3","0","3","2","1,0,0,0.25,0.5,0.25,0.25,0.25,0.5","0,0,1,0.25,0.5,0.25,0.5,0.25,0.25","2","",""
"","html-keyboard-response","468","211473","0.0-468.0","","","","","null","<img src=""img/land6.png"" style=""width:200px;border:14px solid red;"">","null","","","","","","","","","",""
"","image-keyboard-response","469","212213","0.0-469.0","","","","","737","img/land5.png","76","738","3","1","2","2","1,0,0,0.25,0.5,0.25,0.25,0.25,0.5","0,0,1,0.25,0.5,0.25,0.5,0.25,0.25","2","",""
"","html-keyboard-response","470","212526","0.0-470.0","","","","","null","<img src=""img/land5.png"" style=""width:200px; border:14px solid green;"">","null","","","","","","","","","",""
"","image-keyboard-response","471","213035","0.0-471.0","","","","","509","img/land6.png","74","510","1","0","3","2","1,0,0,0.25,0.5,0.25,0.25,0.25,0.5","0,0,1,0.25,0.5,0.25,0.5,0.25,0.25","2","",""
"","html-keyboard-response","472","213351","0.0-472.0","","","","","null","<img src=""img/land6.png"" style=""width:200px;border:14px solid red;"">","null","","","","","","","","","",""
"","image-keyboard-response","473","213941","0.0-473.0","","","","","587","img/land4.png","76","589","3","1","1","2","1,0,0,0.25,0.5,0.25,0.25,0.25,0.5","0,0,1,0.25,0.5,0.25,0.5,0.25,0.25","2","",""
"","html-keyboard-response","474","214256","0.0-474.0","","","","","null","<img src=""img/land4.png"" style=""width:200px; border:14px solid green;"">","null","","","","","","","","","",""
"","image-keyboard-response","475","214732","0.0-475.0","","","","","476","img/land4.png","76","476","3","1","1","2","1,0,0,0.25,0.5,0.25,0.25,0.25,0.5","0,0,1,0.25,0.5,0.25,0.5,0.25,0.25","2","",""
"","html-keyboard-response","476","215034","0.0-476.0","","","","","null","<img src=""img/land4.png"" style=""width:200px; border:14px solid green;"">","null","","","","","","","","","",""
"","image-keyboard-response","477","215676","0.0-477.0","","","","","641","img/land5.png","76","641","3","1","2","2","1,0,0,0.25,0.5,0.25,0.25,0.25,0.5","0,0,1,0.25,0.5,0.25,0.5,0.25,0.25","2","",""
"","html-keyboard-response","478","215985","0.0-478.0","","","","","null","<img src=""img/land5.png"" style=""width:200px; border:14px solid green;"">","null","","","","","","","","","",""
"","image-keyboard-response","479","216500","0.0-479.0","","","","","513","img/land5.png","76","515","3","0","2","2","1,0,0,0.25,0.5,0.25,0.25,0.25,0.5","0,0,1,0.25,0.5,0.25,0.5,0.25,0.25","2","",""
"","html-keyboard-response","480","216815","0.0-480.0","","","","","null","<img src=""img/land5.png"" style=""width:200px;border:14px solid red;"">","null","","","","","","","","","",""
"","image-keyboard-response","481","217478","0.0-481.0","","","","","660","img/land5.png","76","663","3","0","2","2","1,0,0,0.25,0.5,0.25,0.25,0.25,0.5","0,0,1,0.25,0.5,0.25,0.5,0.25,0.25","2","",""
"","html-keyboard-response","482","217780","0.0-482.0","","","","","null","<img src=""img/land5.png"" style=""width:200px;border:14px solid red;"">","null","","","","","","","","","",""
"","instructions","483","220172","0.0-483.0","","","","[{""page_index"":0,""viewing_time"":2390}]","2391","","","","","","","","","","","",""
"","survey-text","484","223413","0.0-484.0-0.0","","","","","3237","","","","","","","","","","","{""Q0"":""40""}",""
"","survey-multi-choice","485","225604","0.0-484.0-1.0","","","","","2189","","","","","","","","","","","{""gender"":""M""}","[0]"
"","survey-text","486","237613","0.0-485.0","","","","","12005","","","","","","","","","","","{""Q0"":""A175PJR0W3LO8I""}",""
