"success","trial_type","trial_index","time_elapsed","internal_node_id","assignmentID","mturkID","hitID","view_history","rt","stimulus","key_press","reactionTime","a","r","s","cond","reward_cond","reward_cond_actual","reward_matrix_idx","responses","question_order"
"true","fullscreen","0","3040","0.0-0.0","32N49TQG3H4N85G9TEP0ZRRE6BHVAU","A18WSAKX5YN2FB","3566S7OX5D5NH74JOVOPTTMK8IR17K","","","","","","","","","","","","","",""
"","instructions","1","12428","0.0-1.0","32N49TQG3H4N85G9TEP0ZRRE6BHVAU","A18WSAKX5YN2FB","3566S7OX5D5NH74JOVOPTTMK8IR17K","[{""page_index"":0,""viewing_time"":1902.0999999996275},{""page_index"":1,""viewing_time"":1526},{""page_index"":2,""viewing_time"":1113.7999999998137},{""page_index"":3,""viewing_time"":1240},{""page_index"":4,""viewing_time"":1464.2999999998137},{""page_index"":5,""viewing_time"":1212.6000000005588},{""page_index"":6,""viewing_time"":914.7000000001863}]","9379.299999999814","","","","","","","","","","","",""
"","image-keyboard-response","2","13581","0.0-2.0","32N49TQG3H4N85G9TEP0ZRRE6BHVAU","A18WSAKX5YN2FB","3566S7OX5D5NH74JOVOPTTMK8IR17K","","1145.5999999996275","img/land2.png","74","1151.4000000003725","1","0","2","1","0.8,0.2,0.2,0.2,0.8,0.2,0.2,0.2,0.8","0.8,0.2,0.2,0.2,0.8,0.2,0.2,0.2,0.8","1","",""
"","html-keyboard-response","3","13902","0.0-3.0","32N49TQG3H4N85G9TEP0ZRRE6BHVAU","A18WSAKX5YN2FB","3566S7OX5D5NH74JOVOPTTMK8IR17K","","null","<img src=""img/land2.png"" style=""width:200px;border:14px solid red;"">","null","","","","","","","","","",""
"","image-keyboard-response","4","14952","0.0-4.0","32N49TQG3H4N85G9TEP0ZRRE6BHVAU","A18WSAKX5YN2FB","3566S7OX5D5NH74JOVOPTTMK8IR17K","","1038.7000000001863","img/land5.png","74","1044.2999999998137","1","1","1","1","0.8,0.2,0.2,0.2,0.8,0.2,0.2,0.2,0.8","0.8,0.2,0.2,0.2,0.8,0.2,0.2,0.2,0.8","1","",""
"","html-keyboard-response","5","15259","0.0-5.0","32N49TQG3H4N85G9TEP0ZRRE6BHVAU","A18WSAKX5YN2FB","3566S7OX5D5NH74JOVOPTTMK8IR17K","","null","<img src=""img/land5.png"" style=""width:200px; border:14px solid green;"">","null","","","","","","","","","",""
"","image-keyboard-response","6","16360","0.0-6.0","32N49TQG3H4N85G9TEP0ZRRE6BHVAU","A18WSAKX5YN2FB","3566S7OX5D5NH74JOVOPTTMK8IR17K","","1093.4000000003725","img/land1.png","75","1097.300000000745","2","0","3","1","0.8,0.2,0.2,0.2,0.8,0.2,0.2,0.2,0.8","0.8,0.2,0.2,0.2,0.8,0.2,0.2,0.2,0.8","1","",""
"","html-keyboard-response","7","16665","0.0-7.0","32N49TQG3H4N85G9TEP0ZRRE6BHVAU","A18WSAKX5YN2FB","3566S7OX5D5NH74JOVOPTTMK8IR17K","","null","<img src=""img/land1.png"" style=""width:200px;border:14px solid red;"">","null","","","","","","","","","",""
"","image-keyboard-response","8","17234","0.0-8.0","32N49TQG3H4N85G9TEP0ZRRE6BHVAU","A18WSAKX5YN2FB","3566S7OX5D5NH74JOVOPTTMK8IR17K","","564.2000000001863","img/land1.png","76","568.2000000001863","3","1","3","1","0.8,0.2,0.2,0.2,0.8,0.2,0.2,0.2,0.8","0.8,0.2,0.2,0.2,0.8,0.2,0.2,0.2,0.8","1","",""
"","html-keyboard-response","9","17540","0.0-9.0","32N49TQG3H4N85G9TEP0ZRRE6BHVAU","A18WSAKX5YN2FB","3566S7OX5D5NH74JOVOPTTMK8IR17K","","null","<img src=""img/land1.png"" style=""width:200px; border:14px solid green;"">","null","","","","","","","","","",""
"","image-keyboard-response","10","17887","0.0-10.0","32N49TQG3H4N85G9TEP0ZRRE6BHVAU","A18WSAKX5YN2FB","3566S7OX5D5NH74JOVOPTTMK8IR17K","","342.80000000074506","img/land1.png","76","346.1000000005588","3","1","3","1","0.8,0.2,0.2,0.2,0.8,0.2,0.2,0.2,0.8","0.8,0.2,0.2,0.2,0.8,0.2,0.2,0.2,0.8","1","",""
"","html-keyboard-response","11","18194","0.0-11.0","32N49TQG3H4N85G9TEP0ZRRE6BHVAU","A18WSAKX5YN2FB","3566S7OX5D5NH74JOVOPTTMK8IR17K","","null","<img src=""img/land1.png"" style=""width:200px; border:14px solid green;"">","null","","","","","","","","","",""
"","image-keyboard-response","12","18986","0.0-12.0","32N49TQG3H4N85G9TEP0ZRRE6BHVAU","A18WSAKX5YN2FB","3566S7OX5D5NH74JOVOPTTMK8IR17K","","786.1000000005588","img/land2.png","75","790.7000000001863","2","1","2","1","0.8,0.2,0.2,0.2,0.8,0.2,0.2,0.2,0.8","0.8,0.2,0.2,0.2,0.8,0.2,0.2,0.2,0.8","1","",""
"","html-keyboard-response","13","19293","0.0-13.0","32N49TQG3H4N85G9TEP0ZRRE6BHVAU","A18WSAKX5YN2FB","3566S7OX5D5NH74JOVOPTTMK8IR17K","","null","<img src=""img/land2.png"" style=""width:200px; border:14px solid green;"">","null","","","","","","","","","",""
"","image-keyboard-response","14","20017","0.0-14.0","32N49TQG3H4N85G9TEP0ZRRE6BHVAU","A18WSAKX5YN2FB","3566S7OX5D5NH74JOVOPTTMK8IR17K","","716.8999999994412","img/land5.png","74","721.7000000001863","1","1","1","1","0.8,0.2,0.2,0.2,0.8,0.2,0.2,0.2,0.8","0.8,0.2,0.2,0.2,0.8,0.2,0.2,0.2,0.8","1","",""
"","html-keyboard-response","15","20322","0.0-15.0","32N49TQG3H4N85G9TEP0ZRRE6BHVAU","A18WSAKX5YN2FB","3566S7OX5D5NH74JOVOPTTMK8IR17K","","null","<img src=""img/land5.png"" style=""width:200px; border:14px solid green;"">","null","","","","","","","","","",""
"","image-keyboard-response","16","20972","0.0-16.0","32N49TQG3H4N85G9TEP0ZRRE6BHVAU","A18WSAKX5YN2FB","3566S7OX5D5NH74JOVOPTTMK8IR17K","","643.3000000007451","img/land1.png","76","648.3999999994412","3","1","3","1","0.8,0.2,0.2,0.2,0.8,0.2,0.2,0.2,0.8","0.8,0.2,0.2,0.2,0.8,0.2,0.2,0.2,0.8","1","",""
"","html-keyboard-response","17","21276","0.0-17.0","32N49TQG3H4N85G9TEP0ZRRE6BHVAU","A18WSAKX5YN2FB","3566S7OX5D5NH74JOVOPTTMK8IR17K","","null","<img src=""img/land1.png"" style=""width:200px; border:14px solid green;"">","null","","","","","","","","","",""
"","image-keyboard-response","18","22044","0.0-18.0","32N49TQG3H4N85G9TEP0ZRRE6BHVAU","A18WSAKX5YN2FB","3566S7OX5D5NH74JOVOPTTMK8IR17K","","760.9000000003725","img/land2.png","75","766.9000000003725","2","0","2","1","0.8,0.2,0.2,0.2,0.8,0.2,0.2,0.2,0.8","0.8,0.2,0.2,0.2,0.8,0.2,0.2,0.2,0.8","1","",""
"","html-keyboard-response","19","22351","0.0-19.0","32N49TQG3H4N85G9TEP0ZRRE6BHVAU","A18WSAKX5YN2FB","3566S7OX5D5NH74JOVOPTTMK8IR17K","","null","<img src=""img/land2.png"" style=""width:200px;border:14px solid red;"">","null","","","","","","","","","",""
"","image-keyboard-response","20","23181","0.0-20.0","32N49TQG3H4N85G9TEP0ZRRE6BHVAU","A18WSAKX5YN2FB","3566S7OX5D5NH74JOVOPTTMK8IR17K","","823.6000000005588","img/land1.png","76","829.0999999996275","3","1","3","1","0.8,0.2,0.2,0.2,0.8,0.2,0.2,0.2,0.8","0.8,0.2,0.2,0.2,0.8,0.2,0.2,0.2,0.8","1","",""
"","html-keyboard-response","21","23490","0.0-21.0","32N49TQG3H4N85G9TEP0ZRRE6BHVAU","A18WSAKX5YN2FB","3566S7OX5D5NH74JOVOPTTMK8IR17K","","null","<img src=""img/land1.png"" style=""width:200px; border:14px solid green;"">","null","","","","","","","","","",""
"","image-keyboard-response","22","23859","0.0-22.0","32N49TQG3H4N85G9TEP0ZRRE6BHVAU","A18WSAKX5YN2FB","3566S7OX5D5NH74JOVOPTTMK8IR17K","","363.79999999981374","img/land1.png","76","369.20000000018626","3","1","3","1","0.8,0.2,0.2,0.2,0.8,0.2,0.2,0.2,0.8","0.8,0.2,0.2,0.2,0.8,0.2,0.2,0.2,0.8","1","",""
"","html-keyboard-response","23","24165","0.0-23.0","32N49TQG3H4N85G9TEP0ZRRE6BHVAU","A18WSAKX5YN2FB","3566S7OX5D5NH74JOVOPTTMK8IR17K","","null","<img src=""img/land1.png"" style=""width:200px; border:14px solid green;"">","null","","","","","","","","","",""
"","image-keyboard-response","24","24718","0.0-24.0","32N49TQG3H4N85G9TEP0ZRRE6BHVAU","A18WSAKX5YN2FB","3566S7OX5D5NH74JOVOPTTMK8IR17K","","545.6000000005588","img/land2.png","74","551.7000000001863","1","0","2","1","0.8,0.2,0.2,0.2,0.8,0.2,0.2,0.2,0.8","0.8,0.2,0.2,0.2,0.8,0.2,0.2,0.2,0.8","1","",""
"","html-keyboard-response","25","25025","0.0-25.0","32N49TQG3H4N85G9TEP0ZRRE6BHVAU","A18WSAKX5YN2FB","3566S7OX5D5NH74JOVOPTTMK8IR17K","","null","<img src=""img/land2.png"" style=""width:200px;border:14px solid red;"">","null","","","","","","","","","",""
"","image-keyboard-response","26","25619","0.0-26.0","32N49TQG3H4N85G9TEP0ZRRE6BHVAU","A18WSAKX5YN2FB","3566S7OX5D5NH74JOVOPTTMK8IR17K","","586.5","img/land2.png","75","591.9000000003725","2","1","2","1","0.8,0.2,0.2,0.2,0.8,0.2,0.2,0.2,0.8","0.8,0.2,0.2,0.2,0.8,0.2,0.2,0.2,0.8","1","",""
"","html-keyboard-response","27","25925","0.0-27.0","32N49TQG3H4N85G9TEP0ZRRE6BHVAU","A18WSAKX5YN2FB","3566S7OX5D5NH74JOVOPTTMK8IR17K","","null","<img src=""img/land2.png"" style=""width:200px; border:14px solid green;"">","null","","","","","","","","","",""
"","image-keyboard-response","28","26674","0.0-28.0","32N49TQG3H4N85G9TEP0ZRRE6BHVAU","A18WSAKX5YN2FB","3566S7OX5D5NH74JOVOPTTMK8IR17K","","742.1000000005588","img/land5.png","74","747.1000000005588","1","1","1","1","0.8,0.2,0.2,0.2,0.8,0.2,0.2,0.2,0.8","0.8,0.2,0.2,0.2,0.8,0.2,0.2,0.2,0.8","1","",""
"","html-keyboard-response","29","26980","0.0-29.0","32N49TQG3H4N85G9TEP0ZRRE6BHVAU","A18WSAKX5YN2FB","3566S7OX5D5NH74JOVOPTTMK8IR17K","","null","<img src=""img/land5.png"" style=""width:200px; border:14px solid green;"">","null","","","","","","","","","",""
"","image-keyboard-response","30","27338","0.0-30.0","32N49TQG3H4N85G9TEP0ZRRE6BHVAU","A18WSAKX5YN2FB","3566S7OX5D5NH74JOVOPTTMK8IR17K","","350.5","img/land5.png","74","357","1","1","1","1","0.8,0.2,0.2,0.2,0.8,0.2,0.2,0.2,0.8","0.8,0.2,0.2,0.2,0.8,0.2,0.2,0.2,0.8","1","",""
"","html-keyboard-response","31","27643","0.0-31.0","32N49TQG3H4N85G9TEP0ZRRE6BHVAU","A18WSAKX5YN2FB","3566S7OX5D5NH74JOVOPTTMK8IR17K","","null","<img src=""img/land5.png"" style=""width:200px; border:14px solid green;"">","null","","","","","","","","","",""
"","image-keyboard-response","32","27980","0.0-32.0","32N49TQG3H4N85G9TEP0ZRRE6BHVAU","A18WSAKX5YN2FB","3566S7OX5D5NH74JOVOPTTMK8IR17K","","330.20000000018626","img/land5.png","74","335.5","1","0","1","1","0.8,0.2,0.2,0.2,0.8,0.2,0.2,0.2,0.8","0.8,0.2,0.2,0.2,0.8,0.2,0.2,0.2,0.8","1","",""
"","html-keyboard-response","33","28285","0.0-33.0","32N49TQG3H4N85G9TEP0ZRRE6BHVAU","A18WSAKX5YN2FB","3566S7OX5D5NH74JOVOPTTMK8IR17K","","null","<img src=""img/land5.png"" style=""width:200px;border:14px solid red;"">","null","","","","","","","","","",""
"","image-keyboard-response","34","29070","0.0-34.0","32N49TQG3H4N85G9TEP0ZRRE6BHVAU","A18WSAKX5YN2FB","3566S7OX5D5NH74JOVOPTTMK8IR17K","","779.6000000005588","img/land5.png","74","784.7000000001863","1","1","1","1","0.8,0.2,0.2,0.2,0.8,0.2,0.2,0.2,0.8","0.8,0.2,0.2,0.2,0.8,0.2,0.2,0.2,0.8","1","",""
"","html-keyboard-response","35","29376","0.0-35.0","32N49TQG3H4N85G9TEP0ZRRE6BHVAU","A18WSAKX5YN2FB","3566S7OX5D5NH74JOVOPTTMK8IR17K","","null","<img src=""img/land5.png"" style=""width:200px; border:14px solid green;"">","null","","","","","","","","","",""
"","image-keyboard-response","36","30058","0.0-36.0","32N49TQG3H4N85G9TEP0ZRRE6BHVAU","A18WSAKX5YN2FB","3566S7OX5D5NH74JOVOPTTMK8IR17K","","675.1999999992549","img/land2.png","75","680.2999999998137","2","1","2","1","0.8,0.2,0.2,0.2,0.8,0.2,0.2,0.2,0.8","0.8,0.2,0.2,0.2,0.8,0.2,0.2,0.2,0.8","1","",""
"","html-keyboard-response","37","30362","0.0-37.0","32N49TQG3H4N85G9TEP0ZRRE6BHVAU","A18WSAKX5YN2FB","3566S7OX5D5NH74JOVOPTTMK8IR17K","","null","<img src=""img/land2.png"" style=""width:200px; border:14px solid green;"">","null","","","","","","","","","",""
"","image-keyboard-response","38","31161","0.0-38.0","32N49TQG3H4N85G9TEP0ZRRE6BHVAU","A18WSAKX5YN2FB","3566S7OX5D5NH74JOVOPTTMK8IR17K","","790","img/land5.png","74","795.5999999996275","1","1","1","1","0.8,0.2,0.2,0.2,0.8,0.2,0.2,0.2,0.8","0.8,0.2,0.2,0.2,0.8,0.2,0.2,0.2,0.8","1","",""
"","html-keyboard-response","39","31470","0.0-39.0","32N49TQG3H4N85G9TEP0ZRRE6BHVAU","A18WSAKX5YN2FB","3566S7OX5D5NH74JOVOPTTMK8IR17K","","null","<img src=""img/land5.png"" style=""width:200px; border:14px solid green;"">","null","","","","","","","","","",""
"","image-keyboard-response","40","31706","0.0-40.0","32N49TQG3H4N85G9TEP0ZRRE6BHVAU","A18WSAKX5YN2FB","3566S7OX5D5NH74JOVOPTTMK8IR17K","","228.3999999994412","img/land5.png","74","234.29999999981374","1","1","1","1","0.8,0.2,0.2,0.2,0.8,0.2,0.2,0.2,0.8","0.8,0.2,0.2,0.2,0.8,0.2,0.2,0.2,0.8","1","",""
"","html-keyboard-response","41","32012","0.0-41.0","32N49TQG3H4N85G9TEP0ZRRE6BHVAU","A18WSAKX5YN2FB","3566S7OX5D5NH74JOVOPTTMK8IR17K","","null","<img src=""img/land5.png"" style=""width:200px; border:14px solid green;"">","null","","","","","","","","","",""
"","image-keyboard-response","42","32622","0.0-42.0","32N49TQG3H4N85G9TEP0ZRRE6BHVAU","A18WSAKX5YN2FB","3566S7OX5D5NH74JOVOPTTMK8IR17K","","605.5999999996275","img/land1.png","76","609.3000000007451","3","1","3","1","0.8,0.2,0.2,0.2,0.8,0.2,0.2,0.2,0.8","0.8,0.2,0.2,0.2,0.8,0.2,0.2,0.2,0.8","1","",""
"","html-keyboard-response","43","32927","0.0-43.0","32N49TQG3H4N85G9TEP0ZRRE6BHVAU","A18WSAKX5YN2FB","3566S7OX5D5NH74JOVOPTTMK8IR17K","","null","<img src=""img/land1.png"" style=""width:200px; border:14px solid green;"">","null","","","","","","","","","",""
"","image-keyboard-response","44","33715","0.0-44.0","32N49TQG3H4N85G9TEP0ZRRE6BHVAU","A18WSAKX5YN2FB","3566S7OX5D5NH74JOVOPTTMK8IR17K","","779.7000000001863","img/land5.png","75","787.0999999996275","2","0","1","1","0.8,0.2,0.2,0.2,0.8,0.2,0.2,0.2,0.8","0.8,0.2,0.2,0.2,0.8,0.2,0.2,0.2,0.8","1","",""
"","html-keyboard-response","45","34022","0.0-45.0","32N49TQG3H4N85G9TEP0ZRRE6BHVAU","A18WSAKX5YN2FB","3566S7OX5D5NH74JOVOPTTMK8IR17K","","null","<img src=""img/land5.png"" style=""width:200px;border:14px solid red;"">","null","","","","","","","","","",""
"","image-keyboard-response","46","34033","0.0-46.0","32N49TQG3H4N85G9TEP0ZRRE6BHVAU","A18WSAKX5YN2FB","3566S7OX5D5NH74JOVOPTTMK8IR17K","","5.8999999994412065","img/land1.png","74","9.5","1","0","3","1","0.8,0.2,0.2,0.2,0.8,0.2,0.2,0.2,0.8","0.8,0.2,0.2,0.2,0.8,0.2,0.2,0.2,0.8","1","",""
"","html-keyboard-response","47","34338","0.0-47.0","32N49TQG3H4N85G9TEP0ZRRE6BHVAU","A18WSAKX5YN2FB","3566S7OX5D5NH74JOVOPTTMK8IR17K","","null","<img src=""img/land1.png"" style=""width:200px;border:14px solid red;"">","null","","","","","","","","","",""
"","image-keyboard-response","48","35238","0.0-48.0","32N49TQG3H4N85G9TEP0ZRRE6BHVAU","A18WSAKX5YN2FB","3566S7OX5D5NH74JOVOPTTMK8IR17K","","892.7000000001863","img/land2.png","75","898.3000000007451","2","1","2","1","0.8,0.2,0.2,0.2,0.8,0.2,0.2,0.2,0.8","0.8,0.2,0.2,0.2,0.8,0.2,0.2,0.2,0.8","1","",""
"","html-keyboard-response","49","35545","0.0-49.0","32N49TQG3H4N85G9TEP0ZRRE6BHVAU","A18WSAKX5YN2FB","3566S7OX5D5NH74JOVOPTTMK8IR17K","","null","<img src=""img/land2.png"" style=""width:200px; border:14px solid green;"">","null","","","","","","","","","",""
"","image-keyboard-response","50","35879","0.0-50.0","32N49TQG3H4N85G9TEP0ZRRE6BHVAU","A18WSAKX5YN2FB","3566S7OX5D5NH74JOVOPTTMK8IR17K","","326.59999999962747","img/land2.png","75","333.79999999981374","2","1","2","1","0.8,0.2,0.2,0.2,0.8,0.2,0.2,0.2,0.8","0.8,0.2,0.2,0.2,0.8,0.2,0.2,0.2,0.8","1","",""
"","html-keyboard-response","51","36186","0.0-51.0","32N49TQG3H4N85G9TEP0ZRRE6BHVAU","A18WSAKX5YN2FB","3566S7OX5D5NH74JOVOPTTMK8IR17K","","null","<img src=""img/land2.png"" style=""width:200px; border:14px solid green;"">","null","","","","","","","","","",""
"","image-keyboard-response","52","36664","0.0-52.0","32N49TQG3H4N85G9TEP0ZRRE6BHVAU","A18WSAKX5YN2FB","3566S7OX5D5NH74JOVOPTTMK8IR17K","","470.3999999994412","img/land1.png","76","474.90000000037253","3","1","3","1","0.8,0.2,0.2,0.2,0.8,0.2,0.2,0.2,0.8","0.8,0.2,0.2,0.2,0.8,0.2,0.2,0.2,0.8","1","",""
"","html-keyboard-response","53","36969","0.0-53.0","32N49TQG3H4N85G9TEP0ZRRE6BHVAU","A18WSAKX5YN2FB","3566S7OX5D5NH74JOVOPTTMK8IR17K","","null","<img src=""img/land1.png"" style=""width:200px; border:14px solid green;"">","null","","","","","","","","","",""
"","image-keyboard-response","54","37832","0.0-54.0","32N49TQG3H4N85G9TEP0ZRRE6BHVAU","A18WSAKX5YN2FB","3566S7OX5D5NH74JOVOPTTMK8IR17K","","859","img/land5.png","74","862.5999999996275","1","1","1","1","0.8,0.2,0.2,0.2,0.8,0.2,0.2,0.2,0.8","0.8,0.2,0.2,0.2,0.8,0.2,0.2,0.2,0.8","1","",""
"","html-keyboard-response","55","38138","0.0-55.0","32N49TQG3H4N85G9TEP0ZRRE6BHVAU","A18WSAKX5YN2FB","3566S7OX5D5NH74JOVOPTTMK8IR17K","","null","<img src=""img/land5.png"" style=""width:200px; border:14px solid green;"">","null","","","","","","","","","",""
"","image-keyboard-response","56","38600","0.0-56.0","32N49TQG3H4N85G9TEP0ZRRE6BHVAU","A18WSAKX5YN2FB","3566S7OX5D5NH74JOVOPTTMK8IR17K","","454.1000000005588","img/land2.png","75","460.59999999962747","2","1","2","1","0.8,0.2,0.2,0.2,0.8,0.2,0.2,0.2,0.8","0.8,0.2,0.2,0.2,0.8,0.2,0.2,0.2,0.8","1","",""
"","html-keyboard-response","57","38905","0.0-57.0","32N49TQG3H4N85G9TEP0ZRRE6BHVAU","A18WSAKX5YN2FB","3566S7OX5D5NH74JOVOPTTMK8IR17K","","null","<img src=""img/land2.png"" style=""width:200px; border:14px solid green;"">","null","","","","","","","","","",""
"","image-keyboard-response","58","39411","0.0-58.0","32N49TQG3H4N85G9TEP0ZRRE6BHVAU","A18WSAKX5YN2FB","3566S7OX5D5NH74JOVOPTTMK8IR17K","","498.40000000037253","img/land1.png","76","504.19999999925494","3","1","3","1","0.8,0.2,0.2,0.2,0.8,0.2,0.2,0.2,0.8","0.8,0.2,0.2,0.2,0.8,0.2,0.2,0.2,0.8","1","",""
"","html-keyboard-response","59","39718","0.0-59.0","32N49TQG3H4N85G9TEP0ZRRE6BHVAU","A18WSAKX5YN2FB","3566S7OX5D5NH74JOVOPTTMK8IR17K","","null","<img src=""img/land1.png"" style=""width:200px; border:14px solid green;"">","null","","","","","","","","","",""
"","image-keyboard-response","60","40090","0.0-60.0","32N49TQG3H4N85G9TEP0ZRRE6BHVAU","A18WSAKX5YN2FB","3566S7OX5D5NH74JOVOPTTMK8IR17K","","365.20000000018626","img/land1.png","76","371.1000000005588","3","1","3","1","0.8,0.2,0.2,0.2,0.8,0.2,0.2,0.2,0.8","0.8,0.2,0.2,0.2,0.8,0.2,0.2,0.2,0.8","1","",""
"","html-keyboard-response","61","40399","0.0-61.0","32N49TQG3H4N85G9TEP0ZRRE6BHVAU","A18WSAKX5YN2FB","3566S7OX5D5NH74JOVOPTTMK8IR17K","","null","<img src=""img/land1.png"" style=""width:200px; border:14px solid green;"">","null","","","","","","","","","",""
"","image-keyboard-response","62","40716","0.0-62.0","32N49TQG3H4N85G9TEP0ZRRE6BHVAU","A18WSAKX5YN2FB","3566S7OX5D5NH74JOVOPTTMK8IR17K","","307.40000000037253","img/land1.png","76","314.79999999981374","3","1","3","1","0.8,0.2,0.2,0.2,0.8,0.2,0.2,0.2,0.8","0.8,0.2,0.2,0.2,0.8,0.2,0.2,0.2,0.8","1","",""
"","html-keyboard-response","63","41020","0.0-63.0","32N49TQG3H4N85G9TEP0ZRRE6BHVAU","A18WSAKX5YN2FB","3566S7OX5D5NH74JOVOPTTMK8IR17K","","null","<img src=""img/land1.png"" style=""width:200px; border:14px solid green;"">","null","","","","","","","","","",""
"","image-keyboard-response","64","41387","0.0-64.0","32N49TQG3H4N85G9TEP0ZRRE6BHVAU","A18WSAKX5YN2FB","3566S7OX5D5NH74JOVOPTTMK8IR17K","","361.40000000037253","img/land1.png","76","364.5","3","1","3","1","0.8,0.2,0.2,0.2,0.8,0.2,0.2,0.2,0.8","0.8,0.2,0.2,0.2,0.8,0.2,0.2,0.2,0.8","1","",""
"","html-keyboard-response","65","41692","0.0-65.0","32N49TQG3H4N85G9TEP0ZRRE6BHVAU","A18WSAKX5YN2FB","3566S7OX5D5NH74JOVOPTTMK8IR17K","","null","<img src=""img/land1.png"" style=""width:200px; border:14px solid green;"">","null","","","","","","","","","",""
"","image-keyboard-response","66","42230","0.0-66.0","32N49TQG3H4N85G9TEP0ZRRE6BHVAU","A18WSAKX5YN2FB","3566S7OX5D5NH74JOVOPTTMK8IR17K","","528.5","img/land5.png","74","535.8999999994412","1","1","1","1","0.8,0.2,0.2,0.2,0.8,0.2,0.2,0.2,0.8","0.8,0.2,0.2,0.2,0.8,0.2,0.2,0.2,0.8","1","",""
"","html-keyboard-response","67","42536","0.0-67.0","32N49TQG3H4N85G9TEP0ZRRE6BHVAU","A18WSAKX5YN2FB","3566S7OX5D5NH74JOVOPTTMK8IR17K","","null","<img src=""img/land5.png"" style=""width:200px; border:14px solid green;"">","null","","","","","","","","","",""
"","image-keyboard-response","68","42945","0.0-68.0","32N49TQG3H4N85G9TEP0ZRRE6BHVAU","A18WSAKX5YN2FB","3566S7OX5D5NH74JOVOPTTMK8IR17K","","403.40000000037253","img/land5.png","74","411.5","1","1","1","1","0.8,0.2,0.2,0.2,0.8,0.2,0.2,0.2,0.8","0.8,0.2,0.2,0.2,0.8,0.2,0.2,0.2,0.8","1","",""
"","html-keyboard-response","69","43259","0.0-69.0","32N49TQG3H4N85G9TEP0ZRRE6BHVAU","A18WSAKX5YN2FB","3566S7OX5D5NH74JOVOPTTMK8IR17K","","null","<img src=""img/land5.png"" style=""width:200px; border:14px solid green;"">","null","","","","","","","","","",""
"","image-keyboard-response","70","43576","0.0-70.0","32N49TQG3H4N85G9TEP0ZRRE6BHVAU","A18WSAKX5YN2FB","3566S7OX5D5NH74JOVOPTTMK8IR17K","","310.20000000018626","img/land5.png","74","315.20000000018626","1","1","1","1","0.8,0.2,0.2,0.2,0.8,0.2,0.2,0.2,0.8","0.8,0.2,0.2,0.2,0.8,0.2,0.2,0.2,0.8","1","",""
"","html-keyboard-response","71","43881","0.0-71.0","32N49TQG3H4N85G9TEP0ZRRE6BHVAU","A18WSAKX5YN2FB","3566S7OX5D5NH74JOVOPTTMK8IR17K","","null","<img src=""img/land5.png"" style=""width:200px; border:14px solid green;"">","null","","","","","","","","","",""
"","image-keyboard-response","72","44395","0.0-72.0","32N49TQG3H4N85G9TEP0ZRRE6BHVAU","A18WSAKX5YN2FB","3566S7OX5D5NH74JOVOPTTMK8IR17K","","506.3999999994412","img/land2.png","75","512.2999999998137","2","1","2","1","0.8,0.2,0.2,0.2,0.8,0.2,0.2,0.2,0.8","0.8,0.2,0.2,0.2,0.8,0.2,0.2,0.2,0.8","1","",""
"","html-keyboard-response","73","44698","0.0-73.0","32N49TQG3H4N85G9TEP0ZRRE6BHVAU","A18WSAKX5YN2FB","3566S7OX5D5NH74JOVOPTTMK8IR17K","","null","<img src=""img/land2.png"" style=""width:200px; border:14px solid green;"">","null","","","","","","","","","",""
"","image-keyboard-response","74","45305","0.0-74.0","32N49TQG3H4N85G9TEP0ZRRE6BHVAU","A18WSAKX5YN2FB","3566S7OX5D5NH74JOVOPTTMK8IR17K","","598.7999999998137","img/land5.png","74","604.9000000003725","1","1","1","1","0.8,0.2,0.2,0.2,0.8,0.2,0.2,0.2,0.8","0.8,0.2,0.2,0.2,0.8,0.2,0.2,0.2,0.8","1","",""
"","html-keyboard-response","75","45608","0.0-75.0","32N49TQG3H4N85G9TEP0ZRRE6BHVAU","A18WSAKX5YN2FB","3566S7OX5D5NH74JOVOPTTMK8IR17K","","null","<img src=""img/land5.png"" style=""width:200px; border:14px solid green;"">","null","","","","","","","","","",""
"","image-keyboard-response","76","46010","0.0-76.0","32N49TQG3H4N85G9TEP0ZRRE6BHVAU","A18WSAKX5YN2FB","3566S7OX5D5NH74JOVOPTTMK8IR17K","","396.29999999981374","img/land5.png","74","401","1","0","1","1","0.8,0.2,0.2,0.2,0.8,0.2,0.2,0.2,0.8","0.8,0.2,0.2,0.2,0.8,0.2,0.2,0.2,0.8","1","",""
"","html-keyboard-response","77","46314","0.0-77.0","32N49TQG3H4N85G9TEP0ZRRE6BHVAU","A18WSAKX5YN2FB","3566S7OX5D5NH74JOVOPTTMK8IR17K","","null","<img src=""img/land5.png"" style=""width:200px;border:14px solid red;"">","null","","","","","","","","","",""
"","image-keyboard-response","78","46852","0.0-78.0","32N49TQG3H4N85G9TEP0ZRRE6BHVAU","A18WSAKX5YN2FB","3566S7OX5D5NH74JOVOPTTMK8IR17K","","533.1999999992549","img/land5.png","74","536.7999999998137","1","1","1","1","0.8,0.2,0.2,0.2,0.8,0.2,0.2,0.2,0.8","0.8,0.2,0.2,0.2,0.8,0.2,0.2,0.2,0.8","1","",""
"","html-keyboard-response","79","47158","0.0-79.0","32N49TQG3H4N85G9TEP0ZRRE6BHVAU","A18WSAKX5YN2FB","3566S7OX5D5NH74JOVOPTTMK8IR17K","","null","<img src=""img/land5.png"" style=""width:200px; border:14px solid green;"">","null","","","","","","","","","",""
"","image-keyboard-response","80","47511","0.0-80.0","32N49TQG3H4N85G9TEP0ZRRE6BHVAU","A18WSAKX5YN2FB","3566S7OX5D5NH74JOVOPTTMK8IR17K","","345.09999999962747","img/land5.png","74","350.09999999962747","1","1","1","1","0.8,0.2,0.2,0.2,0.8,0.2,0.2,0.2,0.8","0.8,0.2,0.2,0.2,0.8,0.2,0.2,0.2,0.8","1","",""
"","html-keyboard-response","81","47816","0.0-81.0","32N49TQG3H4N85G9TEP0ZRRE6BHVAU","A18WSAKX5YN2FB","3566S7OX5D5NH74JOVOPTTMK8IR17K","","null","<img src=""img/land5.png"" style=""width:200px; border:14px solid green;"">","null","","","","","","","","","",""
"","image-keyboard-response","82","48499","0.0-82.0","32N49TQG3H4N85G9TEP0ZRRE6BHVAU","A18WSAKX5YN2FB","3566S7OX5D5NH74JOVOPTTMK8IR17K","","677.2999999998137","img/land1.png","76","681.3999999994412","3","1","3","1","0.8,0.2,0.2,0.2,0.8,0.2,0.2,0.2,0.8","0.8,0.2,0.2,0.2,0.8,0.2,0.2,0.2,0.8","1","",""
"","html-keyboard-response","83","48803","0.0-83.0","32N49TQG3H4N85G9TEP0ZRRE6BHVAU","A18WSAKX5YN2FB","3566S7OX5D5NH74JOVOPTTMK8IR17K","","null","<img src=""img/land1.png"" style=""width:200px; border:14px solid green;"">","null","","","","","","","","","",""
"","image-keyboard-response","84","49408","0.0-84.0","32N49TQG3H4N85G9TEP0ZRRE6BHVAU","A18WSAKX5YN2FB","3566S7OX5D5NH74JOVOPTTMK8IR17K","","597.3000000007451","img/land5.png","74","604","1","1","1","1","0.8,0.2,0.2,0.2,0.8,0.2,0.2,0.2,0.8","0.8,0.2,0.2,0.2,0.8,0.2,0.2,0.2,0.8","1","",""
"","html-keyboard-response","85","49714","0.0-85.0","32N49TQG3H4N85G9TEP0ZRRE6BHVAU","A18WSAKX5YN2FB","3566S7OX5D5NH74JOVOPTTMK8IR17K","","null","<img src=""img/land5.png"" style=""width:200px; border:14px solid green;"">","null","","","","","","","","","",""
"","image-keyboard-response","86","50303","0.0-86.0","32N49TQG3H4N85G9TEP0ZRRE6BHVAU","A18WSAKX5YN2FB","3566S7OX5D5NH74JOVOPTTMK8IR17K","","584.5999999996275","img/land1.png","76","589.0999999996275","3","1","3","1","0.8,0.2,0.2,0.2,0.8,0.2,0.2,0.2,0.8","0.8,0.2,0.2,0.2,0.8,0.2,0.2,0.2,0.8","1","",""
"","html-keyboard-response","87","50610","0.0-87.0","32N49TQG3H4N85G9TEP0ZRRE6BHVAU","A18WSAKX5YN2FB","3566S7OX5D5NH74JOVOPTTMK8IR17K","","null","<img src=""img/land1.png"" style=""width:200px; border:14px solid green;"">","null","","","","","","","","","",""
"","image-keyboard-response","88","51187","0.0-88.0","32N49TQG3H4N85G9TEP0ZRRE6BHVAU","A18WSAKX5YN2FB","3566S7OX5D5NH74JOVOPTTMK8IR17K","","568","img/land2.png","75","574.9000000003725","2","1","2","1","0.8,0.2,0.2,0.2,0.8,0.2,0.2,0.2,0.8","0.8,0.2,0.2,0.2,0.8,0.2,0.2,0.2,0.8","1","",""
"","html-keyboard-response","89","51494","0.0-89.0","32N49TQG3H4N85G9TEP0ZRRE6BHVAU","A18WSAKX5YN2FB","3566S7OX5D5NH74JOVOPTTMK8IR17K","","null","<img src=""img/land2.png"" style=""width:200px; border:14px solid green;"">","null","","","","","","","","","",""
"","image-keyboard-response","90","52110","0.0-90.0","32N49TQG3H4N85G9TEP0ZRRE6BHVAU","A18WSAKX5YN2FB","3566S7OX5D5NH74JOVOPTTMK8IR17K","","610.5999999996275","img/land5.png","74","615","1","1","1","1","0.8,0.2,0.2,0.2,0.8,0.2,0.2,0.2,0.8","0.8,0.2,0.2,0.2,0.8,0.2,0.2,0.2,0.8","1","",""
"","html-keyboard-response","91","52417","0.0-91.0","32N49TQG3H4N85G9TEP0ZRRE6BHVAU","A18WSAKX5YN2FB","3566S7OX5D5NH74JOVOPTTMK8IR17K","","null","<img src=""img/land5.png"" style=""width:200px; border:14px solid green;"">","null","","","","","","","","","",""
"","image-keyboard-response","92","52952","0.0-92.0","32N49TQG3H4N85G9TEP0ZRRE6BHVAU","A18WSAKX5YN2FB","3566S7OX5D5NH74JOVOPTTMK8IR17K","","528.6000000005588","img/land2.png","75","532.7000000001863","2","1","2","1","0.8,0.2,0.2,0.2,0.8,0.2,0.2,0.2,0.8","0.8,0.2,0.2,0.2,0.8,0.2,0.2,0.2,0.8","1","",""
"","html-keyboard-response","93","53257","0.0-93.0","32N49TQG3H4N85G9TEP0ZRRE6BHVAU","A18WSAKX5YN2FB","3566S7OX5D5NH74JOVOPTTMK8IR17K","","null","<img src=""img/land2.png"" style=""width:200px; border:14px solid green;"">","null","","","","","","","","","",""
"","image-keyboard-response","94","53853","0.0-94.0","32N49TQG3H4N85G9TEP0ZRRE6BHVAU","A18WSAKX5YN2FB","3566S7OX5D5NH74JOVOPTTMK8IR17K","","588.6000000005588","img/land1.png","76","597.5","3","1","3","1","0.8,0.2,0.2,0.2,0.8,0.2,0.2,0.2,0.8","0.8,0.2,0.2,0.2,0.8,0.2,0.2,0.2,0.8","1","",""
"","html-keyboard-response","95","54160","0.0-95.0","32N49TQG3H4N85G9TEP0ZRRE6BHVAU","A18WSAKX5YN2FB","3566S7OX5D5NH74JOVOPTTMK8IR17K","","null","<img src=""img/land1.png"" style=""width:200px; border:14px solid green;"">","null","","","","","","","","","",""
"","image-keyboard-response","96","54793","0.0-96.0","32N49TQG3H4N85G9TEP0ZRRE6BHVAU","A18WSAKX5YN2FB","3566S7OX5D5NH74JOVOPTTMK8IR17K","","626.2999999998137","img/land5.png","74","631.2000000001863","1","1","1","1","0.8,0.2,0.2,0.2,0.8,0.2,0.2,0.2,0.8","0.8,0.2,0.2,0.2,0.8,0.2,0.2,0.2,0.8","1","",""
"","html-keyboard-response","97","55099","0.0-97.0","32N49TQG3H4N85G9TEP0ZRRE6BHVAU","A18WSAKX5YN2FB","3566S7OX5D5NH74JOVOPTTMK8IR17K","","null","<img src=""img/land5.png"" style=""width:200px; border:14px solid green;"">","null","","","","","","","","","",""
"","image-keyboard-response","98","55446","0.0-98.0","32N49TQG3H4N85G9TEP0ZRRE6BHVAU","A18WSAKX5YN2FB","3566S7OX5D5NH74JOVOPTTMK8IR17K","","338.5","img/land5.png","74","345","1","1","1","1","0.8,0.2,0.2,0.2,0.8,0.2,0.2,0.2,0.8","0.8,0.2,0.2,0.2,0.8,0.2,0.2,0.2,0.8","1","",""
"","html-keyboard-response","99","55752","0.0-99.0","32N49TQG3H4N85G9TEP0ZRRE6BHVAU","A18WSAKX5YN2FB","3566S7OX5D5NH74JOVOPTTMK8IR17K","","null","<img src=""img/land5.png"" style=""width:200px; border:14px solid green;"">","null","","","","","","","","","",""
"","image-keyboard-response","100","56374","0.0-100.0","32N49TQG3H4N85G9TEP0ZRRE6BHVAU","A18WSAKX5YN2FB","3566S7OX5D5NH74JOVOPTTMK8IR17K","","615.2000000001863","img/land1.png","76","620.7999999998137","3","1","3","1","0.8,0.2,0.2,0.2,0.8,0.2,0.2,0.2,0.8","0.8,0.2,0.2,0.2,0.8,0.2,0.2,0.2,0.8","1","",""
"","html-keyboard-response","101","56680","0.0-101.0","32N49TQG3H4N85G9TEP0ZRRE6BHVAU","A18WSAKX5YN2FB","3566S7OX5D5NH74JOVOPTTMK8IR17K","","null","<img src=""img/land1.png"" style=""width:200px; border:14px solid green;"">","null","","","","","","","","","",""
"","image-keyboard-response","102","57056","0.0-102.0","32N49TQG3H4N85G9TEP0ZRRE6BHVAU","A18WSAKX5YN2FB","3566S7OX5D5NH74JOVOPTTMK8IR17K","","369.59999999962747","img/land1.png","76","374.20000000018626","3","1","3","1","0.8,0.2,0.2,0.2,0.8,0.2,0.2,0.2,0.8","0.8,0.2,0.2,0.2,0.8,0.2,0.2,0.2,0.8","1","",""
"","html-keyboard-response","103","57363","0.0-103.0","32N49TQG3H4N85G9TEP0ZRRE6BHVAU","A18WSAKX5YN2FB","3566S7OX5D5NH74JOVOPTTMK8IR17K","","null","<img src=""img/land1.png"" style=""width:200px; border:14px solid green;"">","null","","","","","","","","","",""
"","image-keyboard-response","104","57953","0.0-104.0","32N49TQG3H4N85G9TEP0ZRRE6BHVAU","A18WSAKX5YN2FB","3566S7OX5D5NH74JOVOPTTMK8IR17K","","584.2000000001863","img/land5.png","74","589.5","1","1","1","1","0.8,0.2,0.2,0.2,0.8,0.2,0.2,0.2,0.8","0.8,0.2,0.2,0.2,0.8,0.2,0.2,0.2,0.8","1","",""
"","html-keyboard-response","105","58258","0.0-105.0","32N49TQG3H4N85G9TEP0ZRRE6BHVAU","A18WSAKX5YN2FB","3566S7OX5D5NH74JOVOPTTMK8IR17K","","null","<img src=""img/land5.png"" style=""width:200px; border:14px solid green;"">","null","","","","","","","","","",""
"","image-keyboard-response","106","58581","0.0-106.0","32N49TQG3H4N85G9TEP0ZRRE6BHVAU","A18WSAKX5YN2FB","3566S7OX5D5NH74JOVOPTTMK8IR17K","","318.5","img/land5.png","74","321.70000000018626","1","1","1","1","0.8,0.2,0.2,0.2,0.8,0.2,0.2,0.2,0.8","0.8,0.2,0.2,0.2,0.8,0.2,0.2,0.2,0.8","1","",""
"","html-keyboard-response","107","58887","0.0-107.0","32N49TQG3H4N85G9TEP0ZRRE6BHVAU","A18WSAKX5YN2FB","3566S7OX5D5NH74JOVOPTTMK8IR17K","","null","<img src=""img/land5.png"" style=""width:200px; border:14px solid green;"">","null","","","","","","","","","",""
"","image-keyboard-response","108","59396","0.0-108.0","32N49TQG3H4N85G9TEP0ZRRE6BHVAU","A18WSAKX5YN2FB","3566S7OX5D5NH74JOVOPTTMK8IR17K","","502.29999999981374","img/land1.png","76","507.40000000037253","3","0","3","1","0.8,0.2,0.2,0.2,0.8,0.2,0.2,0.2,0.8","0.8,0.2,0.2,0.2,0.8,0.2,0.2,0.2,0.8","1","",""
"","html-keyboard-response","109","59704","0.0-109.0","32N49TQG3H4N85G9TEP0ZRRE6BHVAU","A18WSAKX5YN2FB","3566S7OX5D5NH74JOVOPTTMK8IR17K","","null","<img src=""img/land1.png"" style=""width:200px;border:14px solid red;"">","null","","","","","","","","","",""
"","image-keyboard-response","110","60374","0.0-110.0","32N49TQG3H4N85G9TEP0ZRRE6BHVAU","A18WSAKX5YN2FB","3566S7OX5D5NH74JOVOPTTMK8IR17K","","661.9000000003725","img/land2.png","75","668.5","2","1","2","1","0.8,0.2,0.2,0.2,0.8,0.2,0.2,0.2,0.8","0.8,0.2,0.2,0.2,0.8,0.2,0.2,0.2,0.8","1","",""
"","html-keyboard-response","111","60682","0.0-111.0","32N49TQG3H4N85G9TEP0ZRRE6BHVAU","A18WSAKX5YN2FB","3566S7OX5D5NH74JOVOPTTMK8IR17K","","null","<img src=""img/land2.png"" style=""width:200px; border:14px solid green;"">","null","","","","","","","","","",""
"","image-keyboard-response","112","61467","0.0-112.0","32N49TQG3H4N85G9TEP0ZRRE6BHVAU","A18WSAKX5YN2FB","3566S7OX5D5NH74JOVOPTTMK8IR17K","","780.2999999998137","img/land5.png","74","784.4000000003725","1","0","1","1","0.8,0.2,0.2,0.2,0.8,0.2,0.2,0.2,0.8","0.8,0.2,0.2,0.2,0.8,0.2,0.2,0.2,0.8","1","",""
"","html-keyboard-response","113","61777","0.0-113.0","32N49TQG3H4N85G9TEP0ZRRE6BHVAU","A18WSAKX5YN2FB","3566S7OX5D5NH74JOVOPTTMK8IR17K","","null","<img src=""img/land5.png"" style=""width:200px;border:14px solid red;"">","null","","","","","","","","","",""
"","image-keyboard-response","114","62469","0.0-114.0","32N49TQG3H4N85G9TEP0ZRRE6BHVAU","A18WSAKX5YN2FB","3566S7OX5D5NH74JOVOPTTMK8IR17K","","683.7999999998137","img/land2.png","75","687.5","2","1","2","1","0.8,0.2,0.2,0.2,0.8,0.2,0.2,0.2,0.8","0.8,0.2,0.2,0.2,0.8,0.2,0.2,0.2,0.8","1","",""
"","html-keyboard-response","115","62774","0.0-115.0","32N49TQG3H4N85G9TEP0ZRRE6BHVAU","A18WSAKX5YN2FB","3566S7OX5D5NH74JOVOPTTMK8IR17K","","null","<img src=""img/land2.png"" style=""width:200px; border:14px solid green;"">","null","","","","","","","","","",""
"","image-keyboard-response","116","63415","0.0-116.0","32N49TQG3H4N85G9TEP0ZRRE6BHVAU","A18WSAKX5YN2FB","3566S7OX5D5NH74JOVOPTTMK8IR17K","","630","img/land5.png","74","636.6000000005588","1","1","1","1","0.8,0.2,0.2,0.2,0.8,0.2,0.2,0.2,0.8","0.8,0.2,0.2,0.2,0.8,0.2,0.2,0.2,0.8","1","",""
"","html-keyboard-response","117","63720","0.0-117.0","32N49TQG3H4N85G9TEP0ZRRE6BHVAU","A18WSAKX5YN2FB","3566S7OX5D5NH74JOVOPTTMK8IR17K","","null","<img src=""img/land5.png"" style=""width:200px; border:14px solid green;"">","null","","","","","","","","","",""
"","image-keyboard-response","118","64054","0.0-118.0","32N49TQG3H4N85G9TEP0ZRRE6BHVAU","A18WSAKX5YN2FB","3566S7OX5D5NH74JOVOPTTMK8IR17K","","330.3999999994412","img/land5.png","74","333.80000000074506","1","1","1","1","0.8,0.2,0.2,0.2,0.8,0.2,0.2,0.2,0.8","0.8,0.2,0.2,0.2,0.8,0.2,0.2,0.2,0.8","1","",""
"","html-keyboard-response","119","64361","0.0-119.0","32N49TQG3H4N85G9TEP0ZRRE6BHVAU","A18WSAKX5YN2FB","3566S7OX5D5NH74JOVOPTTMK8IR17K","","null","<img src=""img/land5.png"" style=""width:200px; border:14px solid green;"">","null","","","","","","","","","",""
"","image-keyboard-response","120","64671","0.0-120.0","32N49TQG3H4N85G9TEP0ZRRE6BHVAU","A18WSAKX5YN2FB","3566S7OX5D5NH74JOVOPTTMK8IR17K","","303.90000000037253","img/land5.png","74","307.8999999994412","1","1","1","1","0.8,0.2,0.2,0.2,0.8,0.2,0.2,0.2,0.8","0.8,0.2,0.2,0.2,0.8,0.2,0.2,0.2,0.8","1","",""
"","html-keyboard-response","121","64977","0.0-121.0","32N49TQG3H4N85G9TEP0ZRRE6BHVAU","A18WSAKX5YN2FB","3566S7OX5D5NH74JOVOPTTMK8IR17K","","null","<img src=""img/land5.png"" style=""width:200px; border:14px solid green;"">","null","","","","","","","","","",""
"","image-keyboard-response","122","65432","0.0-122.0","32N49TQG3H4N85G9TEP0ZRRE6BHVAU","A18WSAKX5YN2FB","3566S7OX5D5NH74JOVOPTTMK8IR17K","","447","img/land1.png","75","452.6000000005588","2","0","3","1","0.8,0.2,0.2,0.2,0.8,0.2,0.2,0.2,0.8","0.8,0.2,0.2,0.2,0.8,0.2,0.2,0.2,0.8","1","",""
"","html-keyboard-response","123","65737","0.0-123.0","32N49TQG3H4N85G9TEP0ZRRE6BHVAU","A18WSAKX5YN2FB","3566S7OX5D5NH74JOVOPTTMK8IR17K","","null","<img src=""img/land1.png"" style=""width:200px;border:14px solid red;"">","null","","","","","","","","","",""
"","image-keyboard-response","124","65804","0.0-124.0","32N49TQG3H4N85G9TEP0ZRRE6BHVAU","A18WSAKX5YN2FB","3566S7OX5D5NH74JOVOPTTMK8IR17K","","60.299999999813735","img/land2.png","76","64","3","1","2","1","0.8,0.2,0.2,0.2,0.8,0.2,0.2,0.2,0.8","0.8,0.2,0.2,0.2,0.8,0.2,0.2,0.2,0.8","1","",""
"","html-keyboard-response","125","66112","0.0-125.0","32N49TQG3H4N85G9TEP0ZRRE6BHVAU","A18WSAKX5YN2FB","3566S7OX5D5NH74JOVOPTTMK8IR17K","","null","<img src=""img/land2.png"" style=""width:200px; border:14px solid green;"">","null","","","","","","","","","",""
"","image-keyboard-response","126","66980","0.0-126.0","32N49TQG3H4N85G9TEP0ZRRE6BHVAU","A18WSAKX5YN2FB","3566S7OX5D5NH74JOVOPTTMK8IR17K","","861","img/land1.png","76","867.0999999996275","3","1","3","1","0.8,0.2,0.2,0.2,0.8,0.2,0.2,0.2,0.8","0.8,0.2,0.2,0.2,0.8,0.2,0.2,0.2,0.8","1","",""
"","html-keyboard-response","127","67287","0.0-127.0","32N49TQG3H4N85G9TEP0ZRRE6BHVAU","A18WSAKX5YN2FB","3566S7OX5D5NH74JOVOPTTMK8IR17K","","null","<img src=""img/land1.png"" style=""width:200px; border:14px solid green;"">","null","","","","","","","","","",""
"","image-keyboard-response","128","67601","0.0-128.0","32N49TQG3H4N85G9TEP0ZRRE6BHVAU","A18WSAKX5YN2FB","3566S7OX5D5NH74JOVOPTTMK8IR17K","","306.29999999981374","img/land1.png","76","313.3999999994412","3","1","3","1","0.8,0.2,0.2,0.2,0.8,0.2,0.2,0.2,0.8","0.8,0.2,0.2,0.2,0.8,0.2,0.2,0.2,0.8","1","",""
"","html-keyboard-response","129","67910","0.0-129.0","32N49TQG3H4N85G9TEP0ZRRE6BHVAU","A18WSAKX5YN2FB","3566S7OX5D5NH74JOVOPTTMK8IR17K","","null","<img src=""img/land1.png"" style=""width:200px; border:14px solid green;"">","null","","","","","","","","","",""
"","image-keyboard-response","130","68527","0.0-130.0","32N49TQG3H4N85G9TEP0ZRRE6BHVAU","A18WSAKX5YN2FB","3566S7OX5D5NH74JOVOPTTMK8IR17K","","609.5","img/land2.png","75","615.5","2","0","2","1","0.8,0.2,0.2,0.2,0.8,0.2,0.2,0.2,0.8","0.8,0.2,0.2,0.2,0.8,0.2,0.2,0.2,0.8","1","",""
"","html-keyboard-response","131","68833","0.0-131.0","32N49TQG3H4N85G9TEP0ZRRE6BHVAU","A18WSAKX5YN2FB","3566S7OX5D5NH74JOVOPTTMK8IR17K","","null","<img src=""img/land2.png"" style=""width:200px;border:14px solid red;"">","null","","","","","","","","","",""
"","image-keyboard-response","132","69447","0.0-132.0","32N49TQG3H4N85G9TEP0ZRRE6BHVAU","A18WSAKX5YN2FB","3566S7OX5D5NH74JOVOPTTMK8IR17K","","606.2000000001863","img/land1.png","76","610.5","3","1","3","1","0.8,0.2,0.2,0.2,0.8,0.2,0.2,0.2,0.8","0.8,0.2,0.2,0.2,0.8,0.2,0.2,0.2,0.8","1","",""
"","html-keyboard-response","133","69753","0.0-133.0","32N49TQG3H4N85G9TEP0ZRRE6BHVAU","A18WSAKX5YN2FB","3566S7OX5D5NH74JOVOPTTMK8IR17K","","null","<img src=""img/land1.png"" style=""width:200px; border:14px solid green;"">","null","","","","","","","","","",""
"","image-keyboard-response","134","70030","0.0-134.0","32N49TQG3H4N85G9TEP0ZRRE6BHVAU","A18WSAKX5YN2FB","3566S7OX5D5NH74JOVOPTTMK8IR17K","","269.70000000018626","img/land2.png","76","275.70000000018626","3","0","2","1","0.8,0.2,0.2,0.2,0.8,0.2,0.2,0.2,0.8","0.8,0.2,0.2,0.2,0.8,0.2,0.2,0.2,0.8","1","",""
"","html-keyboard-response","135","70336","0.0-135.0","32N49TQG3H4N85G9TEP0ZRRE6BHVAU","A18WSAKX5YN2FB","3566S7OX5D5NH74JOVOPTTMK8IR17K","","null","<img src=""img/land2.png"" style=""width:200px;border:14px solid red;"">","null","","","","","","","","","",""
"","image-keyboard-response","136","70973","0.0-136.0","32N49TQG3H4N85G9TEP0ZRRE6BHVAU","A18WSAKX5YN2FB","3566S7OX5D5NH74JOVOPTTMK8IR17K","","630.7000000001863","img/land2.png","75","635.9000000003725","2","1","2","1","0.8,0.2,0.2,0.2,0.8,0.2,0.2,0.2,0.8","0.8,0.2,0.2,0.2,0.8,0.2,0.2,0.2,0.8","1","",""
"","html-keyboard-response","137","71279","0.0-137.0","32N49TQG3H4N85G9TEP0ZRRE6BHVAU","A18WSAKX5YN2FB","3566S7OX5D5NH74JOVOPTTMK8IR17K","","null","<img src=""img/land2.png"" style=""width:200px; border:14px solid green;"">","null","","","","","","","","","",""
"","image-keyboard-response","138","71905","0.0-138.0","32N49TQG3H4N85G9TEP0ZRRE6BHVAU","A18WSAKX5YN2FB","3566S7OX5D5NH74JOVOPTTMK8IR17K","","619.5","img/land5.png","74","625.1999999992549","1","0","1","1","0.8,0.2,0.2,0.2,0.8,0.2,0.2,0.2,0.8","0.8,0.2,0.2,0.2,0.8,0.2,0.2,0.2,0.8","1","",""
"","html-keyboard-response","139","72210","0.0-139.0","32N49TQG3H4N85G9TEP0ZRRE6BHVAU","A18WSAKX5YN2FB","3566S7OX5D5NH74JOVOPTTMK8IR17K","","null","<img src=""img/land5.png"" style=""width:200px;border:14px solid red;"">","null","","","","","","","","","",""
"","image-keyboard-response","140","72736","0.0-140.0","32N49TQG3H4N85G9TEP0ZRRE6BHVAU","A18WSAKX5YN2FB","3566S7OX5D5NH74JOVOPTTMK8IR17K","","518.7000000001863","img/land1.png","76","524.2000000001863","3","1","3","1","0.8,0.2,0.2,0.2,0.8,0.2,0.2,0.2,0.8","0.8,0.2,0.2,0.2,0.8,0.2,0.2,0.2,0.8","1","",""
"","html-keyboard-response","141","73041","0.0-141.0","32N49TQG3H4N85G9TEP0ZRRE6BHVAU","A18WSAKX5YN2FB","3566S7OX5D5NH74JOVOPTTMK8IR17K","","null","<img src=""img/land1.png"" style=""width:200px; border:14px solid green;"">","null","","","","","","","","","",""
"","image-keyboard-response","142","73570","0.0-142.0","32N49TQG3H4N85G9TEP0ZRRE6BHVAU","A18WSAKX5YN2FB","3566S7OX5D5NH74JOVOPTTMK8IR17K","","521.7999999998137","img/land2.png","75","527.8000000007451","2","1","2","1","0.8,0.2,0.2,0.2,0.8,0.2,0.2,0.2,0.8","0.8,0.2,0.2,0.2,0.8,0.2,0.2,0.2,0.8","1","",""
"","html-keyboard-response","143","73875","0.0-143.0","32N49TQG3H4N85G9TEP0ZRRE6BHVAU","A18WSAKX5YN2FB","3566S7OX5D5NH74JOVOPTTMK8IR17K","","null","<img src=""img/land2.png"" style=""width:200px; border:14px solid green;"">","null","","","","","","","","","",""
"","image-keyboard-response","144","74221","0.0-144.0","32N49TQG3H4N85G9TEP0ZRRE6BHVAU","A18WSAKX5YN2FB","3566S7OX5D5NH74JOVOPTTMK8IR17K","","341.5","img/land2.png","75","345.29999999981374","2","1","2","1","0.8,0.2,0.2,0.2,0.8,0.2,0.2,0.2,0.8","0.8,0.2,0.2,0.2,0.8,0.2,0.2,0.2,0.8","1","",""
"","html-keyboard-response","145","74528","0.0-145.0","32N49TQG3H4N85G9TEP0ZRRE6BHVAU","A18WSAKX5YN2FB","3566S7OX5D5NH74JOVOPTTMK8IR17K","","null","<img src=""img/land2.png"" style=""width:200px; border:14px solid green;"">","null","","","","","","","","","",""
"","image-keyboard-response","146","74806","0.0-146.0","32N49TQG3H4N85G9TEP0ZRRE6BHVAU","A18WSAKX5YN2FB","3566S7OX5D5NH74JOVOPTTMK8IR17K","","272.90000000037253","img/land2.png","75","277.29999999981374","2","1","2","1","0.8,0.2,0.2,0.2,0.8,0.2,0.2,0.2,0.8","0.8,0.2,0.2,0.2,0.8,0.2,0.2,0.2,0.8","1","",""
"","html-keyboard-response","147","75111","0.0-147.0","32N49TQG3H4N85G9TEP0ZRRE6BHVAU","A18WSAKX5YN2FB","3566S7OX5D5NH74JOVOPTTMK8IR17K","","null","<img src=""img/land2.png"" style=""width:200px; border:14px solid green;"">","null","","","","","","","","","",""
"","image-keyboard-response","148","75446","0.0-148.0","32N49TQG3H4N85G9TEP0ZRRE6BHVAU","A18WSAKX5YN2FB","3566S7OX5D5NH74JOVOPTTMK8IR17K","","326.79999999981374","img/land2.png","75","332","2","1","2","1","0.8,0.2,0.2,0.2,0.8,0.2,0.2,0.2,0.8","0.8,0.2,0.2,0.2,0.8,0.2,0.2,0.2,0.8","1","",""
"","html-keyboard-response","149","75751","0.0-149.0","32N49TQG3H4N85G9TEP0ZRRE6BHVAU","A18WSAKX5YN2FB","3566S7OX5D5NH74JOVOPTTMK8IR17K","","null","<img src=""img/land2.png"" style=""width:200px; border:14px solid green;"">","null","","","","","","","","","",""
"","image-keyboard-response","150","76348","0.0-150.0","32N49TQG3H4N85G9TEP0ZRRE6BHVAU","A18WSAKX5YN2FB","3566S7OX5D5NH74JOVOPTTMK8IR17K","","589.6999999992549","img/land5.png","74","595.3999999994412","1","1","1","1","0.8,0.2,0.2,0.2,0.8,0.2,0.2,0.2,0.8","0.8,0.2,0.2,0.2,0.8,0.2,0.2,0.2,0.8","1","",""
"","html-keyboard-response","151","76656","0.0-151.0","32N49TQG3H4N85G9TEP0ZRRE6BHVAU","A18WSAKX5YN2FB","3566S7OX5D5NH74JOVOPTTMK8IR17K","","null","<img src=""img/land5.png"" style=""width:200px; border:14px solid green;"">","null","","","","","","","","","",""
"","image-keyboard-response","152","77198","0.0-152.0","32N49TQG3H4N85G9TEP0ZRRE6BHVAU","A18WSAKX5YN2FB","3566S7OX5D5NH74JOVOPTTMK8IR17K","","534.4000000003725","img/land2.png","75","540.3999999994412","2","1","2","1","0.8,0.2,0.2,0.2,0.8,0.2,0.2,0.2,0.8","0.8,0.2,0.2,0.2,0.8,0.2,0.2,0.2,0.8","1","",""
"","html-keyboard-response","153","77506","0.0-153.0","32N49TQG3H4N85G9TEP0ZRRE6BHVAU","A18WSAKX5YN2FB","3566S7OX5D5NH74JOVOPTTMK8IR17K","","null","<img src=""img/land2.png"" style=""width:200px; border:14px solid green;"">","null","","","","","","","","","",""
"","image-keyboard-response","154","77836","0.0-154.0","32N49TQG3H4N85G9TEP0ZRRE6BHVAU","A18WSAKX5YN2FB","3566S7OX5D5NH74JOVOPTTMK8IR17K","","322.3999999994412","img/land2.png","75","329.29999999981374","2","1","2","1","0.8,0.2,0.2,0.2,0.8,0.2,0.2,0.2,0.8","0.8,0.2,0.2,0.2,0.8,0.2,0.2,0.2,0.8","1","",""
"","html-keyboard-response","155","78143","0.0-155.0","32N49TQG3H4N85G9TEP0ZRRE6BHVAU","A18WSAKX5YN2FB","3566S7OX5D5NH74JOVOPTTMK8IR17K","","null","<img src=""img/land2.png"" style=""width:200px; border:14px solid green;"">","null","","","","","","","","","",""
"","image-keyboard-response","156","78626","0.0-156.0","32N49TQG3H4N85G9TEP0ZRRE6BHVAU","A18WSAKX5YN2FB","3566S7OX5D5NH74JOVOPTTMK8IR17K","","476.3999999994412","img/land1.png","76","480.5","3","0","3","1","0.8,0.2,0.2,0.2,0.8,0.2,0.2,0.2,0.8","0.8,0.2,0.2,0.2,0.8,0.2,0.2,0.2,0.8","1","",""
"","html-keyboard-response","157","78930","0.0-157.0","32N49TQG3H4N85G9TEP0ZRRE6BHVAU","A18WSAKX5YN2FB","3566S7OX5D5NH74JOVOPTTMK8IR17K","","null","<img src=""img/land1.png"" style=""width:200px;border:14px solid red;"">","null","","","","","","","","","",""
"","image-keyboard-response","158","79437","0.0-158.0","32N49TQG3H4N85G9TEP0ZRRE6BHVAU","A18WSAKX5YN2FB","3566S7OX5D5NH74JOVOPTTMK8IR17K","","501.70000000018626","img/land1.png","76","505.59999999962747","3","1","3","1","0.8,0.2,0.2,0.2,0.8,0.2,0.2,0.2,0.8","0.8,0.2,0.2,0.2,0.8,0.2,0.2,0.2,0.8","1","",""
"","html-keyboard-response","159","79740","0.0-159.0","32N49TQG3H4N85G9TEP0ZRRE6BHVAU","A18WSAKX5YN2FB","3566S7OX5D5NH74JOVOPTTMK8IR17K","","null","<img src=""img/land1.png"" style=""width:200px; border:14px solid green;"">","null","","","","","","","","","",""
"","image-keyboard-response","160","80027","0.0-160.0","32N49TQG3H4N85G9TEP0ZRRE6BHVAU","A18WSAKX5YN2FB","3566S7OX5D5NH74JOVOPTTMK8IR17K","","279.1000000005588","img/land1.png","76","285.80000000074506","3","1","3","1","0.8,0.2,0.2,0.2,0.8,0.2,0.2,0.2,0.8","0.8,0.2,0.2,0.2,0.8,0.2,0.2,0.2,0.8","1","",""
"","html-keyboard-response","161","80333","0.0-161.0","32N49TQG3H4N85G9TEP0ZRRE6BHVAU","A18WSAKX5YN2FB","3566S7OX5D5NH74JOVOPTTMK8IR17K","","null","<img src=""img/land1.png"" style=""width:200px; border:14px solid green;"">","null","","","","","","","","","",""
"","image-keyboard-response","162","80884","0.0-162.0","32N49TQG3H4N85G9TEP0ZRRE6BHVAU","A18WSAKX5YN2FB","3566S7OX5D5NH74JOVOPTTMK8IR17K","","543.2000000001863","img/land2.png","75","549.0999999996275","2","1","2","1","0.8,0.2,0.2,0.2,0.8,0.2,0.2,0.2,0.8","0.8,0.2,0.2,0.2,0.8,0.2,0.2,0.2,0.8","1","",""
"","html-keyboard-response","163","81191","0.0-163.0","32N49TQG3H4N85G9TEP0ZRRE6BHVAU","A18WSAKX5YN2FB","3566S7OX5D5NH74JOVOPTTMK8IR17K","","null","<img src=""img/land2.png"" style=""width:200px; border:14px solid green;"">","null","","","","","","","","","",""
"","image-keyboard-response","164","81493","0.0-164.0","32N49TQG3H4N85G9TEP0ZRRE6BHVAU","A18WSAKX5YN2FB","3566S7OX5D5NH74JOVOPTTMK8IR17K","","293","img/land2.png","75","299.5","2","1","2","1","0.8,0.2,0.2,0.2,0.8,0.2,0.2,0.2,0.8","0.8,0.2,0.2,0.2,0.8,0.2,0.2,0.2,0.8","1","",""
"","html-keyboard-response","165","81798","0.0-165.0","32N49TQG3H4N85G9TEP0ZRRE6BHVAU","A18WSAKX5YN2FB","3566S7OX5D5NH74JOVOPTTMK8IR17K","","null","<img src=""img/land2.png"" style=""width:200px; border:14px solid green;"">","null","","","","","","","","","",""
"","image-keyboard-response","166","82298","0.0-166.0","32N49TQG3H4N85G9TEP0ZRRE6BHVAU","A18WSAKX5YN2FB","3566S7OX5D5NH74JOVOPTTMK8IR17K","","491.30000000074506","img/land2.png","75","497","2","1","2","1","0.8,0.2,0.2,0.2,0.8,0.2,0.2,0.2,0.8","0.8,0.2,0.2,0.2,0.8,0.2,0.2,0.2,0.8","1","",""
"","html-keyboard-response","167","82604","0.0-167.0","32N49TQG3H4N85G9TEP0ZRRE6BHVAU","A18WSAKX5YN2FB","3566S7OX5D5NH74JOVOPTTMK8IR17K","","null","<img src=""img/land2.png"" style=""width:200px; border:14px solid green;"">","null","","","","","","","","","",""
"","image-keyboard-response","168","83148","0.0-168.0","32N49TQG3H4N85G9TEP0ZRRE6BHVAU","A18WSAKX5YN2FB","3566S7OX5D5NH74JOVOPTTMK8IR17K","","535.6000000005588","img/land1.png","76","541.1000000005588","3","1","3","1","0.8,0.2,0.2,0.2,0.8,0.2,0.2,0.2,0.8","0.8,0.2,0.2,0.2,0.8,0.2,0.2,0.2,0.8","1","",""
"","html-keyboard-response","169","83451","0.0-169.0","32N49TQG3H4N85G9TEP0ZRRE6BHVAU","A18WSAKX5YN2FB","3566S7OX5D5NH74JOVOPTTMK8IR17K","","null","<img src=""img/land1.png"" style=""width:200px; border:14px solid green;"">","null","","","","","","","","","",""
"","image-keyboard-response","170","83937","0.0-170.0","32N49TQG3H4N85G9TEP0ZRRE6BHVAU","A18WSAKX5YN2FB","3566S7OX5D5NH74JOVOPTTMK8IR17K","","480.6000000005588","img/land2.png","75","485.20000000018626","2","1","2","1","0.8,0.2,0.2,0.2,0.8,0.2,0.2,0.2,0.8","0.8,0.2,0.2,0.2,0.8,0.2,0.2,0.2,0.8","1","",""
"","html-keyboard-response","171","84244","0.0-171.0","32N49TQG3H4N85G9TEP0ZRRE6BHVAU","A18WSAKX5YN2FB","3566S7OX5D5NH74JOVOPTTMK8IR17K","","null","<img src=""img/land2.png"" style=""width:200px; border:14px solid green;"">","null","","","","","","","","","",""
"","image-keyboard-response","172","84414","0.0-172.0","32N49TQG3H4N85G9TEP0ZRRE6BHVAU","A18WSAKX5YN2FB","3566S7OX5D5NH74JOVOPTTMK8IR17K","","164.20000000018626","img/land5.png","75","168.29999999981374","2","0","1","1","0.8,0.2,0.2,0.2,0.8,0.2,0.2,0.2,0.8","0.8,0.2,0.2,0.2,0.8,0.2,0.2,0.2,0.8","1","",""
"","html-keyboard-response","173","84721","0.0-173.0","32N49TQG3H4N85G9TEP0ZRRE6BHVAU","A18WSAKX5YN2FB","3566S7OX5D5NH74JOVOPTTMK8IR17K","","null","<img src=""img/land5.png"" style=""width:200px;border:14px solid red;"">","null","","","","","","","","","",""
"","image-keyboard-response","174","85367","0.0-174.0","32N49TQG3H4N85G9TEP0ZRRE6BHVAU","A18WSAKX5YN2FB","3566S7OX5D5NH74JOVOPTTMK8IR17K","","636.8999999994412","img/land2.png","75","644.2000000001863","2","1","2","1","0.8,0.2,0.2,0.2,0.8,0.2,0.2,0.2,0.8","0.8,0.2,0.2,0.2,0.8,0.2,0.2,0.2,0.8","1","",""
"","html-keyboard-response","175","85672","0.0-175.0","32N49TQG3H4N85G9TEP0ZRRE6BHVAU","A18WSAKX5YN2FB","3566S7OX5D5NH74JOVOPTTMK8IR17K","","null","<img src=""img/land2.png"" style=""width:200px; border:14px solid green;"">","null","","","","","","","","","",""
"","image-keyboard-response","176","86244","0.0-176.0","32N49TQG3H4N85G9TEP0ZRRE6BHVAU","A18WSAKX5YN2FB","3566S7OX5D5NH74JOVOPTTMK8IR17K","","561.5","img/land1.png","76","570.6000000005588","3","1","3","1","0.8,0.2,0.2,0.2,0.8,0.2,0.2,0.2,0.8","0.8,0.2,0.2,0.2,0.8,0.2,0.2,0.2,0.8","1","",""
"","html-keyboard-response","177","86550","0.0-177.0","32N49TQG3H4N85G9TEP0ZRRE6BHVAU","A18WSAKX5YN2FB","3566S7OX5D5NH74JOVOPTTMK8IR17K","","null","<img src=""img/land1.png"" style=""width:200px; border:14px solid green;"">","null","","","","","","","","","",""
"","image-keyboard-response","178","86852","0.0-178.0","32N49TQG3H4N85G9TEP0ZRRE6BHVAU","A18WSAKX5YN2FB","3566S7OX5D5NH74JOVOPTTMK8IR17K","","295.79999999981374","img/land1.png","76","300.79999999981374","3","1","3","1","0.8,0.2,0.2,0.2,0.8,0.2,0.2,0.2,0.8","0.8,0.2,0.2,0.2,0.8,0.2,0.2,0.2,0.8","1","",""
"","html-keyboard-response","179","87160","0.0-179.0","32N49TQG3H4N85G9TEP0ZRRE6BHVAU","A18WSAKX5YN2FB","3566S7OX5D5NH74JOVOPTTMK8IR17K","","null","<img src=""img/land1.png"" style=""width:200px; border:14px solid green;"">","null","","","","","","","","","",""
"","image-keyboard-response","180","87335","0.0-180.0","32N49TQG3H4N85G9TEP0ZRRE6BHVAU","A18WSAKX5YN2FB","3566S7OX5D5NH74JOVOPTTMK8IR17K","","168","img/land2.png","76","174","3","1","2","1","0.8,0.2,0.2,0.2,0.8,0.2,0.2,0.2,0.8","0.8,0.2,0.2,0.2,0.8,0.2,0.2,0.2,0.8","1","",""
"","html-keyboard-response","181","87643","0.0-181.0","32N49TQG3H4N85G9TEP0ZRRE6BHVAU","A18WSAKX5YN2FB","3566S7OX5D5NH74JOVOPTTMK8IR17K","","null","<img src=""img/land2.png"" style=""width:200px; border:14px solid green;"">","null","","","","","","","","","",""
"","html-keyboard-response","182","89879","0.0-182.0","32N49TQG3H4N85G9TEP0ZRRE6BHVAU","A18WSAKX5YN2FB","3566S7OX5D5NH74JOVOPTTMK8IR17K","","","","","","","","","","","","","",""
"","image-keyboard-response","183","90851","0.0-183.0","32N49TQG3H4N85G9TEP0ZRRE6BHVAU","A18WSAKX5YN2FB","3566S7OX5D5NH74JOVOPTTMK8IR17K","","965.1000000005588","img/land3.png","74","974","1","0","1","2","0.8,0.2,0.2,0.2,0.8,0.2,0.2,0.2,0.8","0.8,0.2,0.2,0.2,0.8,0.2,0.2,0.2,0.8","1","",""
"","html-keyboard-response","184","91163","0.0-184.0","32N49TQG3H4N85G9TEP0ZRRE6BHVAU","A18WSAKX5YN2FB","3566S7OX5D5NH74JOVOPTTMK8IR17K","","null","<img src=""img/land3.png"" style=""width:200px;border:14px solid red;"">","null","","","","","","","","","",""
"","image-keyboard-response","185","92006","0.0-185.0","32N49TQG3H4N85G9TEP0ZRRE6BHVAU","A18WSAKX5YN2FB","3566S7OX5D5NH74JOVOPTTMK8IR17K","","835.6999999992549","img/land4.png","74","840.4000000003725","1","1","2","2","0.8,0.2,0.2,0.2,0.8,0.2,0.2,0.2,0.8","0.8,0.2,0.2,0.2,0.8,0.2,0.2,0.2,0.8","1","",""
"","html-keyboard-response","186","92313","0.0-186.0","32N49TQG3H4N85G9TEP0ZRRE6BHVAU","A18WSAKX5YN2FB","3566S7OX5D5NH74JOVOPTTMK8IR17K","","null","<img src=""img/land4.png"" style=""width:200px; border:14px solid green;"">","null","","","","","","","","","",""
"","image-keyboard-response","187","93305","0.0-187.0","32N49TQG3H4N85G9TEP0ZRRE6BHVAU","A18WSAKX5YN2FB","3566S7OX5D5NH74JOVOPTTMK8IR17K","","982.4000000003725","img/land3.png","75","990.2000000001863","2","0","1","2","0.8,0.2,0.2,0.2,0.8,0.2,0.2,0.2,0.8","0.8,0.2,0.2,0.2,0.8,0.2,0.2,0.2,0.8","1","",""
"","html-keyboard-response","188","93615","0.0-188.0","32N49TQG3H4N85G9TEP0ZRRE6BHVAU","A18WSAKX5YN2FB","3566S7OX5D5NH74JOVOPTTMK8IR17K","","null","<img src=""img/land3.png"" style=""width:200px;border:14px solid red;"">","null","","","","","","","","","",""
"","image-keyboard-response","189","94352","0.0-189.0","32N49TQG3H4N85G9TEP0ZRRE6BHVAU","A18WSAKX5YN2FB","3566S7OX5D5NH74JOVOPTTMK8IR17K","","731.7999999998137","img/land4.png","74","736.5999999996275","1","1","2","2","0.8,0.2,0.2,0.2,0.8,0.2,0.2,0.2,0.8","0.8,0.2,0.2,0.2,0.8,0.2,0.2,0.2,0.8","1","",""
"","html-keyboard-response","190","94659","0.0-190.0","32N49TQG3H4N85G9TEP0ZRRE6BHVAU","A18WSAKX5YN2FB","3566S7OX5D5NH74JOVOPTTMK8IR17K","","null","<img src=""img/land4.png"" style=""width:200px; border:14px solid green;"">","null","","","","","","","","","",""
"","image-keyboard-response","191","95182","0.0-191.0","32N49TQG3H4N85G9TEP0ZRRE6BHVAU","A18WSAKX5YN2FB","3566S7OX5D5NH74JOVOPTTMK8IR17K","","516.0999999996275","img/land3.png","76","521.3999999994412","3","0","1","2","0.8,0.2,0.2,0.2,0.8,0.2,0.2,0.2,0.8","0.8,0.2,0.2,0.2,0.8,0.2,0.2,0.2,0.8","1","",""
"","html-keyboard-response","192","95490","0.0-192.0","32N49TQG3H4N85G9TEP0ZRRE6BHVAU","A18WSAKX5YN2FB","3566S7OX5D5NH74JOVOPTTMK8IR17K","","null","<img src=""img/land3.png"" style=""width:200px;border:14px solid red;"">","null","","","","","","","","","",""
"","image-keyboard-response","193","96411","0.0-193.0","32N49TQG3H4N85G9TEP0ZRRE6BHVAU","A18WSAKX5YN2FB","3566S7OX5D5NH74JOVOPTTMK8IR17K","","914.3999999994412","img/land6.png","75","920.4000000003725","2","1","3","2","0.8,0.2,0.2,0.2,0.8,0.2,0.2,0.2,0.8","0.8,0.2,0.2,0.2,0.8,0.2,0.2,0.2,0.8","1","",""
"","html-keyboard-response","194","96719","0.0-194.0","32N49TQG3H4N85G9TEP0ZRRE6BHVAU","A18WSAKX5YN2FB","3566S7OX5D5NH74JOVOPTTMK8IR17K","","null","<img src=""img/land6.png"" style=""width:200px; border:14px solid green;"">","null","","","","","","","","","",""
"","image-keyboard-response","195","97345","0.0-195.0","32N49TQG3H4N85G9TEP0ZRRE6BHVAU","A18WSAKX5YN2FB","3566S7OX5D5NH74JOVOPTTMK8IR17K","","617.2999999998137","img/land3.png","76","625.4000000003725","3","0","1","2","0.8,0.2,0.2,0.2,0.8,0.2,0.2,0.2,0.8","0.8,0.2,0.2,0.2,0.8,0.2,0.2,0.2,0.8","1","",""
"","html-keyboard-response","196","97652","0.0-196.0","32N49TQG3H4N85G9TEP0ZRRE6BHVAU","A18WSAKX5YN2FB","3566S7OX5D5NH74JOVOPTTMK8IR17K","","null","<img src=""img/land3.png"" style=""width:200px;border:14px solid red;"">","null","","","","","","","","","",""
"","image-keyboard-response","197","98143","0.0-197.0","32N49TQG3H4N85G9TEP0ZRRE6BHVAU","A18WSAKX5YN2FB","3566S7OX5D5NH74JOVOPTTMK8IR17K","","484.59999999962747","img/land3.png","75","490.40000000037253","2","0","1","2","0.8,0.2,0.2,0.2,0.8,0.2,0.2,0.2,0.8","0.8,0.2,0.2,0.2,0.8,0.2,0.2,0.2,0.8","1","",""
"","html-keyboard-response","198","98451","0.0-198.0","32N49TQG3H4N85G9TEP0ZRRE6BHVAU","A18WSAKX5YN2FB","3566S7OX5D5NH74JOVOPTTMK8IR17K","","null","<img src=""img/land3.png"" style=""width:200px;border:14px solid red;"">","null","","","","","","","","","",""
"","image-keyboard-response","199","98803","0.0-199.0","32N49TQG3H4N85G9TEP0ZRRE6BHVAU","A18WSAKX5YN2FB","3566S7OX5D5NH74JOVOPTTMK8IR17K","","347.70000000018626","img/land3.png","74","351.70000000018626","1","1","1","2","0.8,0.2,0.2,0.2,0.8,0.2,0.2,0.2,0.8","0.8,0.2,0.2,0.2,0.8,0.2,0.2,0.2,0.8","1","",""
"","html-keyboard-response","200","99109","0.0-200.0","32N49TQG3H4N85G9TEP0ZRRE6BHVAU","A18WSAKX5YN2FB","3566S7OX5D5NH74JOVOPTTMK8IR17K","","null","<img src=""img/land3.png"" style=""width:200px; border:14px solid green;"">","null","","","","","","","","","",""
"","image-keyboard-response","201","99956","0.0-201.0","32N49TQG3H4N85G9TEP0ZRRE6BHVAU","A18WSAKX5YN2FB","3566S7OX5D5NH74JOVOPTTMK8IR17K","","839.0999999996275","img/land4.png","74","846.2000000001863","1","0","2","2","0.8,0.2,0.2,0.2,0.8,0.2,0.2,0.2,0.8","0.8,0.2,0.2,0.2,0.8,0.2,0.2,0.2,0.8","1","",""
"","html-keyboard-response","202","100262","0.0-202.0","32N49TQG3H4N85G9TEP0ZRRE6BHVAU","A18WSAKX5YN2FB","3566S7OX5D5NH74JOVOPTTMK8IR17K","","null","<img src=""img/land4.png"" style=""width:200px;border:14px solid red;"">","null","","","","","","","","","",""
"","image-keyboard-response","203","101183","0.0-203.0","32N49TQG3H4N85G9TEP0ZRRE6BHVAU","A18WSAKX5YN2FB","3566S7OX5D5NH74JOVOPTTMK8IR17K","","913.2000000001863","img/land4.png","76","920.0999999996275","3","0","2","2","0.8,0.2,0.2,0.2,0.8,0.2,0.2,0.2,0.8","0.8,0.2,0.2,0.2,0.8,0.2,0.2,0.2,0.8","1","",""
"","html-keyboard-response","204","101492","0.0-204.0","32N49TQG3H4N85G9TEP0ZRRE6BHVAU","A18WSAKX5YN2FB","3566S7OX5D5NH74JOVOPTTMK8IR17K","","null","<img src=""img/land4.png"" style=""width:200px;border:14px solid red;"">","null","","","","","","","","","",""
"","image-keyboard-response","205","101692","0.0-205.0","32N49TQG3H4N85G9TEP0ZRRE6BHVAU","A18WSAKX5YN2FB","3566S7OX5D5NH74JOVOPTTMK8IR17K","","193","img/land3.png","75","197.29999999981374","2","0","1","2","0.8,0.2,0.2,0.2,0.8,0.2,0.2,0.2,0.8","0.8,0.2,0.2,0.2,0.8,0.2,0.2,0.2,0.8","1","",""
"","html-keyboard-response","206","102000","0.0-206.0","32N49TQG3H4N85G9TEP0ZRRE6BHVAU","A18WSAKX5YN2FB","3566S7OX5D5NH74JOVOPTTMK8IR17K","","null","<img src=""img/land3.png"" style=""width:200px;border:14px solid red;"">","null","","","","","","","","","",""
"","image-keyboard-response","207","102323","0.0-207.0","32N49TQG3H4N85G9TEP0ZRRE6BHVAU","A18WSAKX5YN2FB","3566S7OX5D5NH74JOVOPTTMK8IR17K","","313.29999999981374","img/land3.png","74","318.80000000074506","1","1","1","2","0.8,0.2,0.2,0.2,0.8,0.2,0.2,0.2,0.8","0.8,0.2,0.2,0.2,0.8,0.2,0.2,0.2,0.8","1","",""
"","html-keyboard-response","208","102631","0.0-208.0","32N49TQG3H4N85G9TEP0ZRRE6BHVAU","A18WSAKX5YN2FB","3566S7OX5D5NH74JOVOPTTMK8IR17K","","null","<img src=""img/land3.png"" style=""width:200px; border:14px solid green;"">","null","","","","","","","","","",""
"","image-keyboard-response","209","103368","0.0-209.0","32N49TQG3H4N85G9TEP0ZRRE6BHVAU","A18WSAKX5YN2FB","3566S7OX5D5NH74JOVOPTTMK8IR17K","","730.4000000003725","img/land4.png","74","735.3999999994412","1","0","2","2","0.8,0.2,0.2,0.2,0.8,0.2,0.2,0.2,0.8","0.8,0.2,0.2,0.2,0.8,0.2,0.2,0.2,0.8","1","",""
"","html-keyboard-response","210","103675","0.0-210.0","32N49TQG3H4N85G9TEP0ZRRE6BHVAU","A18WSAKX5YN2FB","3566S7OX5D5NH74JOVOPTTMK8IR17K","","null","<img src=""img/land4.png"" style=""width:200px;border:14px solid red;"">","null","","","","","","","","","",""
"","image-keyboard-response","211","104532","0.0-211.0","32N49TQG3H4N85G9TEP0ZRRE6BHVAU","A18WSAKX5YN2FB","3566S7OX5D5NH74JOVOPTTMK8IR17K","","847.0999999996275","img/land6.png","75","859.3000000007451","2","1","3","2","0.8,0.2,0.2,0.2,0.8,0.2,0.2,0.2,0.8","0.8,0.2,0.2,0.2,0.8,0.2,0.2,0.2,0.8","1","",""
"","html-keyboard-response","212","104846","0.0-212.0","32N49TQG3H4N85G9TEP0ZRRE6BHVAU","A18WSAKX5YN2FB","3566S7OX5D5NH74JOVOPTTMK8IR17K","","null","<img src=""img/land6.png"" style=""width:200px; border:14px solid green;"">","null","","","","","","","","","",""
"","image-keyboard-response","213","105395","0.0-213.0","32N49TQG3H4N85G9TEP0ZRRE6BHVAU","A18WSAKX5YN2FB","3566S7OX5D5NH74JOVOPTTMK8IR17K","","543.3999999994412","img/land3.png","74","548.7999999998137","1","1","1","2","0.8,0.2,0.2,0.2,0.8,0.2,0.2,0.2,0.8","0.8,0.2,0.2,0.2,0.8,0.2,0.2,0.2,0.8","1","",""
"","html-keyboard-response","214","105701","0.0-214.0","32N49TQG3H4N85G9TEP0ZRRE6BHVAU","A18WSAKX5YN2FB","3566S7OX5D5NH74JOVOPTTMK8IR17K","","null","<img src=""img/land3.png"" style=""width:200px; border:14px solid green;"">","null","","","","","","","","","",""
"","image-keyboard-response","215","106430","0.0-215.0","32N49TQG3H4N85G9TEP0ZRRE6BHVAU","A18WSAKX5YN2FB","3566S7OX5D5NH74JOVOPTTMK8IR17K","","724.2999999998137","img/land4.png","76","728.2999999998137","3","0","2","2","0.8,0.2,0.2,0.2,0.8,0.2,0.2,0.2,0.8","0.8,0.2,0.2,0.2,0.8,0.2,0.2,0.2,0.8","1","",""
"","html-keyboard-response","216","106737","0.0-216.0","32N49TQG3H4N85G9TEP0ZRRE6BHVAU","A18WSAKX5YN2FB","3566S7OX5D5NH74JOVOPTTMK8IR17K","","null","<img src=""img/land4.png"" style=""width:200px;border:14px solid red;"">","null","","","","","","","","","",""
"","image-keyboard-response","217","107306","0.0-217.0","32N49TQG3H4N85G9TEP0ZRRE6BHVAU","A18WSAKX5YN2FB","3566S7OX5D5NH74JOVOPTTMK8IR17K","","561.3999999994412","img/land4.png","74","568.2000000001863","1","0","2","2","0.8,0.2,0.2,0.2,0.8,0.2,0.2,0.2,0.8","0.8,0.2,0.2,0.2,0.8,0.2,0.2,0.2,0.8","1","",""
"","html-keyboard-response","218","107612","0.0-218.0","32N49TQG3H4N85G9TEP0ZRRE6BHVAU","A18WSAKX5YN2FB","3566S7OX5D5NH74JOVOPTTMK8IR17K","","null","<img src=""img/land4.png"" style=""width:200px;border:14px solid red;"">","null","","","","","","","","","",""
"","image-keyboard-response","219","108702","0.0-219.0","32N49TQG3H4N85G9TEP0ZRRE6BHVAU","A18WSAKX5YN2FB","3566S7OX5D5NH74JOVOPTTMK8IR17K","","1081.7000000001863","img/land6.png","75","1089.9000000003725","2","1","3","2","0.8,0.2,0.2,0.2,0.8,0.2,0.2,0.2,0.8","0.8,0.2,0.2,0.2,0.8,0.2,0.2,0.2,0.8","1","",""
"","html-keyboard-response","220","109010","0.0-220.0","32N49TQG3H4N85G9TEP0ZRRE6BHVAU","A18WSAKX5YN2FB","3566S7OX5D5NH74JOVOPTTMK8IR17K","","null","<img src=""img/land6.png"" style=""width:200px; border:14px solid green;"">","null","","","","","","","","","",""
"","image-keyboard-response","221","109720","0.0-221.0","32N49TQG3H4N85G9TEP0ZRRE6BHVAU","A18WSAKX5YN2FB","3566S7OX5D5NH74JOVOPTTMK8IR17K","","702.7000000001863","img/land3.png","74","707.1999999992549","1","1","1","2","0.8,0.2,0.2,0.2,0.8,0.2,0.2,0.2,0.8","0.8,0.2,0.2,0.2,0.8,0.2,0.2,0.2,0.8","1","",""
"","html-keyboard-response","222","110027","0.0-222.0","32N49TQG3H4N85G9TEP0ZRRE6BHVAU","A18WSAKX5YN2FB","3566S7OX5D5NH74JOVOPTTMK8IR17K","","null","<img src=""img/land3.png"" style=""width:200px; border:14px solid green;"">","null","","","","","","","","","",""
"","image-keyboard-response","223","110392","0.0-223.0","32N49TQG3H4N85G9TEP0ZRRE6BHVAU","A18WSAKX5YN2FB","3566S7OX5D5NH74JOVOPTTMK8IR17K","","359.5","img/land3.png","74","363.5","1","1","1","2","0.8,0.2,0.2,0.2,0.8,0.2,0.2,0.2,0.8","0.8,0.2,0.2,0.2,0.8,0.2,0.2,0.2,0.8","1","",""
"","html-keyboard-response","224","110697","0.0-224.0","32N49TQG3H4N85G9TEP0ZRRE6BHVAU","A18WSAKX5YN2FB","3566S7OX5D5NH74JOVOPTTMK8IR17K","","null","<img src=""img/land3.png"" style=""width:200px; border:14px solid green;"">","null","","","","","","","","","",""
"","image-keyboard-response","225","111032","0.0-225.0","32N49TQG3H4N85G9TEP0ZRRE6BHVAU","A18WSAKX5YN2FB","3566S7OX5D5NH74JOVOPTTMK8IR17K","","326.5","img/land3.png","74","333.09999999962747","1","1","1","2","0.8,0.2,0.2,0.2,0.8,0.2,0.2,0.2,0.8","0.8,0.2,0.2,0.2,0.8,0.2,0.2,0.2,0.8","1","",""
"","html-keyboard-response","226","111336","0.0-226.0","32N49TQG3H4N85G9TEP0ZRRE6BHVAU","A18WSAKX5YN2FB","3566S7OX5D5NH74JOVOPTTMK8IR17K","","null","<img src=""img/land3.png"" style=""width:200px; border:14px solid green;"">","null","","","","","","","","","",""
"","image-keyboard-response","227","111675","0.0-227.0","32N49TQG3H4N85G9TEP0ZRRE6BHVAU","A18WSAKX5YN2FB","3566S7OX5D5NH74JOVOPTTMK8IR17K","","332.20000000018626","img/land3.png","74","337.09999999962747","1","1","1","2","0.8,0.2,0.2,0.2,0.8,0.2,0.2,0.2,0.8","0.8,0.2,0.2,0.2,0.8,0.2,0.2,0.2,0.8","1","",""
"","html-keyboard-response","228","111982","0.0-228.0","32N49TQG3H4N85G9TEP0ZRRE6BHVAU","A18WSAKX5YN2FB","3566S7OX5D5NH74JOVOPTTMK8IR17K","","null","<img src=""img/land3.png"" style=""width:200px; border:14px solid green;"">","null","","","","","","","","","",""
"","image-keyboard-response","229","112345","0.0-229.0","32N49TQG3H4N85G9TEP0ZRRE6BHVAU","A18WSAKX5YN2FB","3566S7OX5D5NH74JOVOPTTMK8IR17K","","354.20000000018626","img/land3.png","74","360.5","1","1","1","2","0.8,0.2,0.2,0.2,0.8,0.2,0.2,0.2,0.8","0.8,0.2,0.2,0.2,0.8,0.2,0.2,0.2,0.8","1","",""
"","html-keyboard-response","230","112651","0.0-230.0","32N49TQG3H4N85G9TEP0ZRRE6BHVAU","A18WSAKX5YN2FB","3566S7OX5D5NH74JOVOPTTMK8IR17K","","null","<img src=""img/land3.png"" style=""width:200px; border:14px solid green;"">","null","","","","","","","","","",""
"","image-keyboard-response","231","112982","0.0-231.0","32N49TQG3H4N85G9TEP0ZRRE6BHVAU","A18WSAKX5YN2FB","3566S7OX5D5NH74JOVOPTTMK8IR17K","","325.80000000074506","img/land3.png","74","330.19999999925494","1","1","1","2","0.8,0.2,0.2,0.2,0.8,0.2,0.2,0.2,0.8","0.8,0.2,0.2,0.2,0.8,0.2,0.2,0.2,0.8","1","",""
"","html-keyboard-response","232","113287","0.0-232.0","32N49TQG3H4N85G9TEP0ZRRE6BHVAU","A18WSAKX5YN2FB","3566S7OX5D5NH74JOVOPTTMK8IR17K","","null","<img src=""img/land3.png"" style=""width:200px; border:14px solid green;"">","null","","","","","","","","","",""
"","image-keyboard-response","233","113615","0.0-233.0","32N49TQG3H4N85G9TEP0ZRRE6BHVAU","A18WSAKX5YN2FB","3566S7OX5D5NH74JOVOPTTMK8IR17K","","318.90000000037253","img/land3.png","74","326.40000000037253","1","1","1","2","0.8,0.2,0.2,0.2,0.8,0.2,0.2,0.2,0.8","0.8,0.2,0.2,0.2,0.8,0.2,0.2,0.2,0.8","1","",""
"","html-keyboard-response","234","113921","0.0-234.0","32N49TQG3H4N85G9TEP0ZRRE6BHVAU","A18WSAKX5YN2FB","3566S7OX5D5NH74JOVOPTTMK8IR17K","","null","<img src=""img/land3.png"" style=""width:200px; border:14px solid green;"">","null","","","","","","","","","",""
"","image-keyboard-response","235","114195","0.0-235.0","32N49TQG3H4N85G9TEP0ZRRE6BHVAU","A18WSAKX5YN2FB","3566S7OX5D5NH74JOVOPTTMK8IR17K","","268.5","img/land3.png","74","273.8999999994412","1","1","1","2","0.8,0.2,0.2,0.2,0.8,0.2,0.2,0.2,0.8","0.8,0.2,0.2,0.2,0.8,0.2,0.2,0.2,0.8","1","",""
"","html-keyboard-response","236","114501","0.0-236.0","32N49TQG3H4N85G9TEP0ZRRE6BHVAU","A18WSAKX5YN2FB","3566S7OX5D5NH74JOVOPTTMK8IR17K","","null","<img src=""img/land3.png"" style=""width:200px; border:14px solid green;"">","null","","","","","","","","","",""
"","image-keyboard-response","237","115080","0.0-237.0","32N49TQG3H4N85G9TEP0ZRRE6BHVAU","A18WSAKX5YN2FB","3566S7OX5D5NH74JOVOPTTMK8IR17K","","572.4000000003725","img/land6.png","75","577.1000000005588","2","1","3","2","0.8,0.2,0.2,0.2,0.8,0.2,0.2,0.2,0.8","0.8,0.2,0.2,0.2,0.8,0.2,0.2,0.2,0.8","1","",""
"","html-keyboard-response","238","115387","0.0-238.0","32N49TQG3H4N85G9TEP0ZRRE6BHVAU","A18WSAKX5YN2FB","3566S7OX5D5NH74JOVOPTTMK8IR17K","","null","<img src=""img/land6.png"" style=""width:200px; border:14px solid green;"">","null","","","","","","","","","",""
"","image-keyboard-response","239","115728","0.0-239.0","32N49TQG3H4N85G9TEP0ZRRE6BHVAU","A18WSAKX5YN2FB","3566S7OX5D5NH74JOVOPTTMK8IR17K","","332.79999999981374","img/land6.png","75","337.79999999981374","2","0","3","2","0.8,0.2,0.2,0.2,0.8,0.2,0.2,0.2,0.8","0.8,0.2,0.2,0.2,0.8,0.2,0.2,0.2,0.8","1","",""
"","html-keyboard-response","240","116033","0.0-240.0","32N49TQG3H4N85G9TEP0ZRRE6BHVAU","A18WSAKX5YN2FB","3566S7OX5D5NH74JOVOPTTMK8IR17K","","null","<img src=""img/land6.png"" style=""width:200px;border:14px solid red;"">","null","","","","","","","","","",""
"","image-keyboard-response","241","116680","0.0-241.0","32N49TQG3H4N85G9TEP0ZRRE6BHVAU","A18WSAKX5YN2FB","3566S7OX5D5NH74JOVOPTTMK8IR17K","","641.7999999998137","img/land3.png","74","646.8999999994412","1","1","1","2","0.8,0.2,0.2,0.2,0.8,0.2,0.2,0.2,0.8","0.8,0.2,0.2,0.2,0.8,0.2,0.2,0.2,0.8","1","",""
"","html-keyboard-response","242","116986","0.0-242.0","32N49TQG3H4N85G9TEP0ZRRE6BHVAU","A18WSAKX5YN2FB","3566S7OX5D5NH74JOVOPTTMK8IR17K","","null","<img src=""img/land3.png"" style=""width:200px; border:14px solid green;"">","null","","","","","","","","","",""
"","image-keyboard-response","243","117586","0.0-243.0","32N49TQG3H4N85G9TEP0ZRRE6BHVAU","A18WSAKX5YN2FB","3566S7OX5D5NH74JOVOPTTMK8IR17K","","593.3000000007451","img/land6.png","75","597.9000000003725","2","0","3","2","0.8,0.2,0.2,0.2,0.8,0.2,0.2,0.2,0.8","0.8,0.2,0.2,0.2,0.8,0.2,0.2,0.2,0.8","1","",""
"","html-keyboard-response","244","117890","0.0-244.0","32N49TQG3H4N85G9TEP0ZRRE6BHVAU","A18WSAKX5YN2FB","3566S7OX5D5NH74JOVOPTTMK8IR17K","","null","<img src=""img/land6.png"" style=""width:200px;border:14px solid red;"">","null","","","","","","","","","",""
"","image-keyboard-response","245","118476","0.0-245.0","32N49TQG3H4N85G9TEP0ZRRE6BHVAU","A18WSAKX5YN2FB","3566S7OX5D5NH74JOVOPTTMK8IR17K","","582.0999999996275","img/land3.png","74","586.2000000001863","1","1","1","2","0.8,0.2,0.2,0.2,0.8,0.2,0.2,0.2,0.8","0.8,0.2,0.2,0.2,0.8,0.2,0.2,0.2,0.8","1","",""
"","html-keyboard-response","246","118782","0.0-246.0","32N49TQG3H4N85G9TEP0ZRRE6BHVAU","A18WSAKX5YN2FB","3566S7OX5D5NH74JOVOPTTMK8IR17K","","null","<img src=""img/land3.png"" style=""width:200px; border:14px solid green;"">","null","","","","","","","","","",""
"","image-keyboard-response","247","119708","0.0-247.0","32N49TQG3H4N85G9TEP0ZRRE6BHVAU","A18WSAKX5YN2FB","3566S7OX5D5NH74JOVOPTTMK8IR17K","","915.9000000003725","img/land4.png","75","923.7000000001863","2","1","2","2","0.8,0.2,0.2,0.2,0.8,0.2,0.2,0.2,0.8","0.8,0.2,0.2,0.2,0.8,0.2,0.2,0.2,0.8","1","",""
"","html-keyboard-response","248","120015","0.0-248.0","32N49TQG3H4N85G9TEP0ZRRE6BHVAU","A18WSAKX5YN2FB","3566S7OX5D5NH74JOVOPTTMK8IR17K","","null","<img src=""img/land4.png"" style=""width:200px; border:14px solid green;"">","null","","","","","","","","","",""
"","image-keyboard-response","249","120654","0.0-249.0","32N49TQG3H4N85G9TEP0ZRRE6BHVAU","A18WSAKX5YN2FB","3566S7OX5D5NH74JOVOPTTMK8IR17K","","631.5","img/land3.png","74","637.9000000003725","1","0","1","2","0.8,0.2,0.2,0.2,0.8,0.2,0.2,0.2,0.8","0.8,0.2,0.2,0.2,0.8,0.2,0.2,0.2,0.8","1","",""
"","html-keyboard-response","250","120961","0.0-250.0","32N49TQG3H4N85G9TEP0ZRRE6BHVAU","A18WSAKX5YN2FB","3566S7OX5D5NH74JOVOPTTMK8IR17K","","null","<img src=""img/land3.png"" style=""width:200px;border:14px solid red;"">","null","","","","","","","","","",""
"","image-keyboard-response","251","121557","0.0-251.0","32N49TQG3H4N85G9TEP0ZRRE6BHVAU","A18WSAKX5YN2FB","3566S7OX5D5NH74JOVOPTTMK8IR17K","","589","img/land3.png","74","595.7000000001863","1","1","1","2","0.8,0.2,0.2,0.2,0.8,0.2,0.2,0.2,0.8","0.8,0.2,0.2,0.2,0.8,0.2,0.2,0.2,0.8","1","",""
"","html-keyboard-response","252","121862","0.0-252.0","32N49TQG3H4N85G9TEP0ZRRE6BHVAU","A18WSAKX5YN2FB","3566S7OX5D5NH74JOVOPTTMK8IR17K","","null","<img src=""img/land3.png"" style=""width:200px; border:14px solid green;"">","null","","","","","","","","","",""
"","image-keyboard-response","253","123031","0.0-253.0","32N49TQG3H4N85G9TEP0ZRRE6BHVAU","A18WSAKX5YN2FB","3566S7OX5D5NH74JOVOPTTMK8IR17K","","1164.2000000001863","img/land4.png","75","1168.5","2","1","2","2","0.8,0.2,0.2,0.2,0.8,0.2,0.2,0.2,0.8","0.8,0.2,0.2,0.2,0.8,0.2,0.2,0.2,0.8","1","",""
"","html-keyboard-response","254","123338","0.0-254.0","32N49TQG3H4N85G9TEP0ZRRE6BHVAU","A18WSAKX5YN2FB","3566S7OX5D5NH74JOVOPTTMK8IR17K","","null","<img src=""img/land4.png"" style=""width:200px; border:14px solid green;"">","null","","","","","","","","","",""
"","image-keyboard-response","255","123878","0.0-255.0","32N49TQG3H4N85G9TEP0ZRRE6BHVAU","A18WSAKX5YN2FB","3566S7OX5D5NH74JOVOPTTMK8IR17K","","535","img/land3.png","74","539.1000000005588","1","1","1","2","0.8,0.2,0.2,0.2,0.8,0.2,0.2,0.2,0.8","0.8,0.2,0.2,0.2,0.8,0.2,0.2,0.2,0.8","1","",""
"","html-keyboard-response","256","124183","0.0-256.0","32N49TQG3H4N85G9TEP0ZRRE6BHVAU","A18WSAKX5YN2FB","3566S7OX5D5NH74JOVOPTTMK8IR17K","","null","<img src=""img/land3.png"" style=""width:200px; border:14px solid green;"">","null","","","","","","","","","",""
"","image-keyboard-response","257","124507","0.0-257.0","32N49TQG3H4N85G9TEP0ZRRE6BHVAU","A18WSAKX5YN2FB","3566S7OX5D5NH74JOVOPTTMK8IR17K","","316.90000000037253","img/land3.png","74","322.6000000005588","1","1","1","2","0.8,0.2,0.2,0.2,0.8,0.2,0.2,0.2,0.8","0.8,0.2,0.2,0.2,0.8,0.2,0.2,0.2,0.8","1","",""
"","html-keyboard-response","258","124815","0.0-258.0","32N49TQG3H4N85G9TEP0ZRRE6BHVAU","A18WSAKX5YN2FB","3566S7OX5D5NH74JOVOPTTMK8IR17K","","null","<img src=""img/land3.png"" style=""width:200px; border:14px solid green;"">","null","","","","","","","","","",""
"","image-keyboard-response","259","125152","0.0-259.0","32N49TQG3H4N85G9TEP0ZRRE6BHVAU","A18WSAKX5YN2FB","3566S7OX5D5NH74JOVOPTTMK8IR17K","","325.90000000037253","img/land3.png","74","335.29999999981374","1","0","1","2","0.8,0.2,0.2,0.2,0.8,0.2,0.2,0.2,0.8","0.8,0.2,0.2,0.2,0.8,0.2,0.2,0.2,0.8","1","",""
"","html-keyboard-response","260","125458","0.0-260.0","32N49TQG3H4N85G9TEP0ZRRE6BHVAU","A18WSAKX5YN2FB","3566S7OX5D5NH74JOVOPTTMK8IR17K","","null","<img src=""img/land3.png"" style=""width:200px;border:14px solid red;"">","null","","","","","","","","","",""
"","image-keyboard-response","261","125929","0.0-261.0","32N49TQG3H4N85G9TEP0ZRRE6BHVAU","A18WSAKX5YN2FB","3566S7OX5D5NH74JOVOPTTMK8IR17K","","465.59999999962747","img/land4.png","75","469.79999999981374","2","0","2","2","0.8,0.2,0.2,0.2,0.8,0.2,0.2,0.2,0.8","0.8,0.2,0.2,0.2,0.8,0.2,0.2,0.2,0.8","1","",""
"","html-keyboard-response","262","126236","0.0-262.0","32N49TQG3H4N85G9TEP0ZRRE6BHVAU","A18WSAKX5YN2FB","3566S7OX5D5NH74JOVOPTTMK8IR17K","","null","<img src=""img/land4.png"" style=""width:200px;border:14px solid red;"">","null","","","","","","","","","",""
"","image-keyboard-response","263","127059","0.0-263.0","32N49TQG3H4N85G9TEP0ZRRE6BHVAU","A18WSAKX5YN2FB","3566S7OX5D5NH74JOVOPTTMK8IR17K","","815.2000000001863","img/land6.png","76","820.6999999992549","3","0","3","2","0.8,0.2,0.2,0.2,0.8,0.2,0.2,0.2,0.8","0.8,0.2,0.2,0.2,0.8,0.2,0.2,0.2,0.8","1","",""
"","html-keyboard-response","264","127368","0.0-264.0","32N49TQG3H4N85G9TEP0ZRRE6BHVAU","A18WSAKX5YN2FB","3566S7OX5D5NH74JOVOPTTMK8IR17K","","null","<img src=""img/land6.png"" style=""width:200px;border:14px solid red;"">","null","","","","","","","","","",""
"","image-keyboard-response","265","127539","0.0-265.0","32N49TQG3H4N85G9TEP0ZRRE6BHVAU","A18WSAKX5YN2FB","3566S7OX5D5NH74JOVOPTTMK8IR17K","","166","img/land4.png","75","169.79999999981374","2","0","2","2","0.8,0.2,0.2,0.2,0.8,0.2,0.2,0.2,0.8","0.8,0.2,0.2,0.2,0.8,0.2,0.2,0.2,0.8","1","",""
"","html-keyboard-response","266","127845","0.0-266.0","32N49TQG3H4N85G9TEP0ZRRE6BHVAU","A18WSAKX5YN2FB","3566S7OX5D5NH74JOVOPTTMK8IR17K","","null","<img src=""img/land4.png"" style=""width:200px;border:14px solid red;"">","null","","","","","","","","","",""
"","image-keyboard-response","267","128588","0.0-267.0","32N49TQG3H4N85G9TEP0ZRRE6BHVAU","A18WSAKX5YN2FB","3566S7OX5D5NH74JOVOPTTMK8IR17K","","733.1000000005588","img/land3.png","74","741.9000000003725","1","1","1","2","0.8,0.2,0.2,0.2,0.8,0.2,0.2,0.2,0.8","0.8,0.2,0.2,0.2,0.8,0.2,0.2,0.2,0.8","1","",""
"","html-keyboard-response","268","128894","0.0-268.0","32N49TQG3H4N85G9TEP0ZRRE6BHVAU","A18WSAKX5YN2FB","3566S7OX5D5NH74JOVOPTTMK8IR17K","","null","<img src=""img/land3.png"" style=""width:200px; border:14px solid green;"">","null","","","","","","","","","",""
"","image-keyboard-response","269","129629","0.0-269.0","32N49TQG3H4N85G9TEP0ZRRE6BHVAU","A18WSAKX5YN2FB","3566S7OX5D5NH74JOVOPTTMK8IR17K","","729.5","img/land6.png","75","733.3000000007451","2","0","3","2","0.8,0.2,0.2,0.2,0.8,0.2,0.2,0.2,0.8","0.8,0.2,0.2,0.2,0.8,0.2,0.2,0.2,0.8","1","",""
"","html-keyboard-response","270","129934","0.0-270.0","32N49TQG3H4N85G9TEP0ZRRE6BHVAU","A18WSAKX5YN2FB","3566S7OX5D5NH74JOVOPTTMK8IR17K","","null","<img src=""img/land6.png"" style=""width:200px;border:14px solid red;"">","null","","","","","","","","","",""
"","image-keyboard-response","271","130466","0.0-271.0","32N49TQG3H4N85G9TEP0ZRRE6BHVAU","A18WSAKX5YN2FB","3566S7OX5D5NH74JOVOPTTMK8IR17K","","523.8999999994412","img/land3.png","74","530.2000000001863","1","1","1","2","0.8,0.2,0.2,0.2,0.8,0.2,0.2,0.2,0.8","0.8,0.2,0.2,0.2,0.8,0.2,0.2,0.2,0.8","1","",""
"","html-keyboard-response","272","130773","0.0-272.0","32N49TQG3H4N85G9TEP0ZRRE6BHVAU","A18WSAKX5YN2FB","3566S7OX5D5NH74JOVOPTTMK8IR17K","","null","<img src=""img/land3.png"" style=""width:200px; border:14px solid green;"">","null","","","","","","","","","",""
"","image-keyboard-response","273","131628","0.0-273.0","32N49TQG3H4N85G9TEP0ZRRE6BHVAU","A18WSAKX5YN2FB","3566S7OX5D5NH74JOVOPTTMK8IR17K","","850.1000000005588","img/land4.png","75","853.5999999996275","2","1","2","2","0.8,0.2,0.2,0.2,0.8,0.2,0.2,0.2,0.8","0.8,0.2,0.2,0.2,0.8,0.2,0.2,0.2,0.8","1","",""
"","html-keyboard-response","274","131933","0.0-274.0","32N49TQG3H4N85G9TEP0ZRRE6BHVAU","A18WSAKX5YN2FB","3566S7OX5D5NH74JOVOPTTMK8IR17K","","null","<img src=""img/land4.png"" style=""width:200px; border:14px solid green;"">","null","","","","","","","","","",""
"","image-keyboard-response","275","132486","0.0-275.0","32N49TQG3H4N85G9TEP0ZRRE6BHVAU","A18WSAKX5YN2FB","3566S7OX5D5NH74JOVOPTTMK8IR17K","","548.2000000001863","img/land3.png","74","552.2999999998137","1","1","1","2","0.8,0.2,0.2,0.2,0.8,0.2,0.2,0.2,0.8","0.8,0.2,0.2,0.2,0.8,0.2,0.2,0.2,0.8","1","",""
"","html-keyboard-response","276","132794","0.0-276.0","32N49TQG3H4N85G9TEP0ZRRE6BHVAU","A18WSAKX5YN2FB","3566S7OX5D5NH74JOVOPTTMK8IR17K","","null","<img src=""img/land3.png"" style=""width:200px; border:14px solid green;"">","null","","","","","","","","","",""
"","image-keyboard-response","277","133581","0.0-277.0","32N49TQG3H4N85G9TEP0ZRRE6BHVAU","A18WSAKX5YN2FB","3566S7OX5D5NH74JOVOPTTMK8IR17K","","777.2999999998137","img/land4.png","75","785.2000000001863","2","0","2","2","0.8,0.2,0.2,0.2,0.8,0.2,0.2,0.2,0.8","0.8,0.2,0.2,0.2,0.8,0.2,0.2,0.2,0.8","1","",""
"","html-keyboard-response","278","133887","0.0-278.0","32N49TQG3H4N85G9TEP0ZRRE6BHVAU","A18WSAKX5YN2FB","3566S7OX5D5NH74JOVOPTTMK8IR17K","","null","<img src=""img/land4.png"" style=""width:200px;border:14px solid red;"">","null","","","","","","","","","",""
"","image-keyboard-response","279","134351","0.0-279.0","32N49TQG3H4N85G9TEP0ZRRE6BHVAU","A18WSAKX5YN2FB","3566S7OX5D5NH74JOVOPTTMK8IR17K","","452.79999999981374","img/land3.png","74","461","1","1","1","2","0.8,0.2,0.2,0.2,0.8,0.2,0.2,0.2,0.8","0.8,0.2,0.2,0.2,0.8,0.2,0.2,0.2,0.8","1","",""
"","html-keyboard-response","280","134660","0.0-280.0","32N49TQG3H4N85G9TEP0ZRRE6BHVAU","A18WSAKX5YN2FB","3566S7OX5D5NH74JOVOPTTMK8IR17K","","null","<img src=""img/land3.png"" style=""width:200px; border:14px solid green;"">","null","","","","","","","","","",""
"","image-keyboard-response","281","135009","0.0-281.0","32N49TQG3H4N85G9TEP0ZRRE6BHVAU","A18WSAKX5YN2FB","3566S7OX5D5NH74JOVOPTTMK8IR17K","","343","img/land3.png","74","347.8999999994412","1","1","1","2","0.8,0.2,0.2,0.2,0.8,0.2,0.2,0.2,0.8","0.8,0.2,0.2,0.2,0.8,0.2,0.2,0.2,0.8","1","",""
"","html-keyboard-response","282","135317","0.0-282.0","32N49TQG3H4N85G9TEP0ZRRE6BHVAU","A18WSAKX5YN2FB","3566S7OX5D5NH74JOVOPTTMK8IR17K","","null","<img src=""img/land3.png"" style=""width:200px; border:14px solid green;"">","null","","","","","","","","","",""
"","image-keyboard-response","283","135669","0.0-283.0","32N49TQG3H4N85G9TEP0ZRRE6BHVAU","A18WSAKX5YN2FB","3566S7OX5D5NH74JOVOPTTMK8IR17K","","343","img/land3.png","74","347.79999999981374","1","1","1","2","0.8,0.2,0.2,0.2,0.8,0.2,0.2,0.2,0.8","0.8,0.2,0.2,0.2,0.8,0.2,0.2,0.2,0.8","1","",""
"","html-keyboard-response","284","135978","0.0-284.0","32N49TQG3H4N85G9TEP0ZRRE6BHVAU","A18WSAKX5YN2FB","3566S7OX5D5NH74JOVOPTTMK8IR17K","","null","<img src=""img/land3.png"" style=""width:200px; border:14px solid green;"">","null","","","","","","","","","",""
"","image-keyboard-response","285","136831","0.0-285.0","32N49TQG3H4N85G9TEP0ZRRE6BHVAU","A18WSAKX5YN2FB","3566S7OX5D5NH74JOVOPTTMK8IR17K","","846.7000000001863","img/land6.png","75","852.0999999996275","2","1","3","2","0.8,0.2,0.2,0.2,0.8,0.2,0.2,0.2,0.8","0.8,0.2,0.2,0.2,0.8,0.2,0.2,0.2,0.8","1","",""
"","html-keyboard-response","286","137141","0.0-286.0","32N49TQG3H4N85G9TEP0ZRRE6BHVAU","A18WSAKX5YN2FB","3566S7OX5D5NH74JOVOPTTMK8IR17K","","null","<img src=""img/land6.png"" style=""width:200px; border:14px solid green;"">","null","","","","","","","","","",""
"","image-keyboard-response","287","137447","0.0-287.0","32N49TQG3H4N85G9TEP0ZRRE6BHVAU","A18WSAKX5YN2FB","3566S7OX5D5NH74JOVOPTTMK8IR17K","","299.5","img/land6.png","75","305.09999999962747","2","1","3","2","0.8,0.2,0.2,0.2,0.8,0.2,0.2,0.2,0.8","0.8,0.2,0.2,0.2,0.8,0.2,0.2,0.2,0.8","1","",""
"","html-keyboard-response","288","137753","0.0-288.0","32N49TQG3H4N85G9TEP0ZRRE6BHVAU","A18WSAKX5YN2FB","3566S7OX5D5NH74JOVOPTTMK8IR17K","","null","<img src=""img/land6.png"" style=""width:200px; border:14px solid green;"">","null","","","","","","","","","",""
"","image-keyboard-response","289","138344","0.0-289.0","32N49TQG3H4N85G9TEP0ZRRE6BHVAU","A18WSAKX5YN2FB","3566S7OX5D5NH74JOVOPTTMK8IR17K","","585","img/land3.png","74","589.9000000003725","1","1","1","2","0.8,0.2,0.2,0.2,0.8,0.2,0.2,0.2,0.8","0.8,0.2,0.2,0.2,0.8,0.2,0.2,0.2,0.8","1","",""
"","html-keyboard-response","290","138650","0.0-290.0","32N49TQG3H4N85G9TEP0ZRRE6BHVAU","A18WSAKX5YN2FB","3566S7OX5D5NH74JOVOPTTMK8IR17K","","null","<img src=""img/land3.png"" style=""width:200px; border:14px solid green;"">","null","","","","","","","","","",""
"","image-keyboard-response","291","138904","0.0-291.0","32N49TQG3H4N85G9TEP0ZRRE6BHVAU","A18WSAKX5YN2FB","3566S7OX5D5NH74JOVOPTTMK8IR17K","","246.20000000018626","img/land3.png","74","250.40000000037253","1","1","1","2","0.8,0.2,0.2,0.2,0.8,0.2,0.2,0.2,0.8","0.8,0.2,0.2,0.2,0.8,0.2,0.2,0.2,0.8","1","",""
"","html-keyboard-response","292","139210","0.0-292.0","32N49TQG3H4N85G9TEP0ZRRE6BHVAU","A18WSAKX5YN2FB","3566S7OX5D5NH74JOVOPTTMK8IR17K","","null","<img src=""img/land3.png"" style=""width:200px; border:14px solid green;"">","null","","","","","","","","","",""
"","image-keyboard-response","293","139521","0.0-293.0","32N49TQG3H4N85G9TEP0ZRRE6BHVAU","A18WSAKX5YN2FB","3566S7OX5D5NH74JOVOPTTMK8IR17K","","305.20000000018626","img/land3.png","74","310.09999999962747","1","1","1","2","0.8,0.2,0.2,0.2,0.8,0.2,0.2,0.2,0.8","0.8,0.2,0.2,0.2,0.8,0.2,0.2,0.2,0.8","1","",""
"","html-keyboard-response","294","139825","0.0-294.0","32N49TQG3H4N85G9TEP0ZRRE6BHVAU","A18WSAKX5YN2FB","3566S7OX5D5NH74JOVOPTTMK8IR17K","","null","<img src=""img/land3.png"" style=""width:200px; border:14px solid green;"">","null","","","","","","","","","",""
"","image-keyboard-response","295","140528","0.0-295.0","32N49TQG3H4N85G9TEP0ZRRE6BHVAU","A18WSAKX5YN2FB","3566S7OX5D5NH74JOVOPTTMK8IR17K","","695.0999999996275","img/land6.png","75","701.2999999998137","2","0","3","2","0.8,0.2,0.2,0.2,0.8,0.2,0.2,0.2,0.8","0.8,0.2,0.2,0.2,0.8,0.2,0.2,0.2,0.8","1","",""
"","html-keyboard-response","296","140835","0.0-296.0","32N49TQG3H4N85G9TEP0ZRRE6BHVAU","A18WSAKX5YN2FB","3566S7OX5D5NH74JOVOPTTMK8IR17K","","null","<img src=""img/land6.png"" style=""width:200px;border:14px solid red;"">","null","","","","","","","","","",""
"","image-keyboard-response","297","141323","0.0-297.0","32N49TQG3H4N85G9TEP0ZRRE6BHVAU","A18WSAKX5YN2FB","3566S7OX5D5NH74JOVOPTTMK8IR17K","","477.09999999962747","img/land3.png","74","485.3999999994412","1","1","1","2","0.8,0.2,0.2,0.2,0.8,0.2,0.2,0.2,0.8","0.8,0.2,0.2,0.2,0.8,0.2,0.2,0.2,0.8","1","",""
"","html-keyboard-response","298","141627","0.0-298.0","32N49TQG3H4N85G9TEP0ZRRE6BHVAU","A18WSAKX5YN2FB","3566S7OX5D5NH74JOVOPTTMK8IR17K","","null","<img src=""img/land3.png"" style=""width:200px; border:14px solid green;"">","null","","","","","","","","","",""
"","image-keyboard-response","299","141847","0.0-299.0","32N49TQG3H4N85G9TEP0ZRRE6BHVAU","A18WSAKX5YN2FB","3566S7OX5D5NH74JOVOPTTMK8IR17K","","212.59999999962747","img/land3.png","74","218.29999999981374","1","1","1","2","0.8,0.2,0.2,0.2,0.8,0.2,0.2,0.2,0.8","0.8,0.2,0.2,0.2,0.8,0.2,0.2,0.2,0.8","1","",""
"","html-keyboard-response","300","142153","0.0-300.0","32N49TQG3H4N85G9TEP0ZRRE6BHVAU","A18WSAKX5YN2FB","3566S7OX5D5NH74JOVOPTTMK8IR17K","","null","<img src=""img/land3.png"" style=""width:200px; border:14px solid green;"">","null","","","","","","","","","",""
"","image-keyboard-response","301","143319","0.0-301.0","32N49TQG3H4N85G9TEP0ZRRE6BHVAU","A18WSAKX5YN2FB","3566S7OX5D5NH74JOVOPTTMK8IR17K","","1160.5999999996275","img/land4.png","75","1165.0999999996275","2","0","2","2","0.8,0.2,0.2,0.2,0.8,0.2,0.2,0.2,0.8","0.8,0.2,0.2,0.2,0.8,0.2,0.2,0.2,0.8","1","",""
"","html-keyboard-response","302","143627","0.0-302.0","32N49TQG3H4N85G9TEP0ZRRE6BHVAU","A18WSAKX5YN2FB","3566S7OX5D5NH74JOVOPTTMK8IR17K","","null","<img src=""img/land4.png"" style=""width:200px;border:14px solid red;"">","null","","","","","","","","","",""
"","image-keyboard-response","303","144094","0.0-303.0","32N49TQG3H4N85G9TEP0ZRRE6BHVAU","A18WSAKX5YN2FB","3566S7OX5D5NH74JOVOPTTMK8IR17K","","458","img/land3.png","74","466","1","1","1","2","0.8,0.2,0.2,0.2,0.8,0.2,0.2,0.2,0.8","0.8,0.2,0.2,0.2,0.8,0.2,0.2,0.2,0.8","1","",""
"","html-keyboard-response","304","144401","0.0-304.0","32N49TQG3H4N85G9TEP0ZRRE6BHVAU","A18WSAKX5YN2FB","3566S7OX5D5NH74JOVOPTTMK8IR17K","","null","<img src=""img/land3.png"" style=""width:200px; border:14px solid green;"">","null","","","","","","","","","",""
"","image-keyboard-response","305","144468","0.0-305.0","32N49TQG3H4N85G9TEP0ZRRE6BHVAU","A18WSAKX5YN2FB","3566S7OX5D5NH74JOVOPTTMK8IR17K","","58.200000000186265","img/land6.png","74","65.59999999962747","1","1","3","2","0.8,0.2,0.2,0.2,0.8,0.2,0.2,0.2,0.8","0.8,0.2,0.2,0.2,0.8,0.2,0.2,0.2,0.8","1","",""
"","html-keyboard-response","306","144775","0.0-306.0","32N49TQG3H4N85G9TEP0ZRRE6BHVAU","A18WSAKX5YN2FB","3566S7OX5D5NH74JOVOPTTMK8IR17K","","null","<img src=""img/land6.png"" style=""width:200px; border:14px solid green;"">","null","","","","","","","","","",""
"","image-keyboard-response","307","145365","0.0-307.0","32N49TQG3H4N85G9TEP0ZRRE6BHVAU","A18WSAKX5YN2FB","3566S7OX5D5NH74JOVOPTTMK8IR17K","","580.5","img/land3.png","74","587.7999999998137","1","1","1","2","0.8,0.2,0.2,0.2,0.8,0.2,0.2,0.2,0.8","0.8,0.2,0.2,0.2,0.8,0.2,0.2,0.2,0.8","1","",""
"","html-keyboard-response","308","145671","0.0-308.0","32N49TQG3H4N85G9TEP0ZRRE6BHVAU","A18WSAKX5YN2FB","3566S7OX5D5NH74JOVOPTTMK8IR17K","","null","<img src=""img/land3.png"" style=""width:200px; border:14px solid green;"">","null","","","","","","","","","",""
"","image-keyboard-response","309","145983","0.0-309.0","32N49TQG3H4N85G9TEP0ZRRE6BHVAU","A18WSAKX5YN2FB","3566S7OX5D5NH74JOVOPTTMK8IR17K","","300.79999999981374","img/land3.png","74","310.70000000018626","1","1","1","2","0.8,0.2,0.2,0.2,0.8,0.2,0.2,0.2,0.8","0.8,0.2,0.2,0.2,0.8,0.2,0.2,0.2,0.8","1","",""
"","html-keyboard-response","310","146288","0.0-310.0","32N49TQG3H4N85G9TEP0ZRRE6BHVAU","A18WSAKX5YN2FB","3566S7OX5D5NH74JOVOPTTMK8IR17K","","null","<img src=""img/land3.png"" style=""width:200px; border:14px solid green;"">","null","","","","","","","","","",""
"","image-keyboard-response","311","146598","0.0-311.0","32N49TQG3H4N85G9TEP0ZRRE6BHVAU","A18WSAKX5YN2FB","3566S7OX5D5NH74JOVOPTTMK8IR17K","","301.5","img/land3.png","74","308","1","1","1","2","0.8,0.2,0.2,0.2,0.8,0.2,0.2,0.2,0.8","0.8,0.2,0.2,0.2,0.8,0.2,0.2,0.2,0.8","1","",""
"","html-keyboard-response","312","146906","0.0-312.0","32N49TQG3H4N85G9TEP0ZRRE6BHVAU","A18WSAKX5YN2FB","3566S7OX5D5NH74JOVOPTTMK8IR17K","","null","<img src=""img/land3.png"" style=""width:200px; border:14px solid green;"">","null","","","","","","","","","",""
"","image-keyboard-response","313","147386","0.0-313.0","32N49TQG3H4N85G9TEP0ZRRE6BHVAU","A18WSAKX5YN2FB","3566S7OX5D5NH74JOVOPTTMK8IR17K","","470.90000000037253","img/land6.png","75","474.8999999994412","2","1","3","2","0.8,0.2,0.2,0.2,0.8,0.2,0.2,0.2,0.8","0.8,0.2,0.2,0.2,0.8,0.2,0.2,0.2,0.8","1","",""
"","html-keyboard-response","314","147692","0.0-314.0","32N49TQG3H4N85G9TEP0ZRRE6BHVAU","A18WSAKX5YN2FB","3566S7OX5D5NH74JOVOPTTMK8IR17K","","null","<img src=""img/land6.png"" style=""width:200px; border:14px solid green;"">","null","","","","","","","","","",""
"","image-keyboard-response","315","148071","0.0-315.0","32N49TQG3H4N85G9TEP0ZRRE6BHVAU","A18WSAKX5YN2FB","3566S7OX5D5NH74JOVOPTTMK8IR17K","","374.1000000005588","img/land6.png","75","379.5","2","0","3","2","0.8,0.2,0.2,0.2,0.8,0.2,0.2,0.2,0.8","0.8,0.2,0.2,0.2,0.8,0.2,0.2,0.2,0.8","1","",""
"","html-keyboard-response","316","148379","0.0-316.0","32N49TQG3H4N85G9TEP0ZRRE6BHVAU","A18WSAKX5YN2FB","3566S7OX5D5NH74JOVOPTTMK8IR17K","","null","<img src=""img/land6.png"" style=""width:200px;border:14px solid red;"">","null","","","","","","","","","",""
"","image-keyboard-response","317","148876","0.0-317.0","32N49TQG3H4N85G9TEP0ZRRE6BHVAU","A18WSAKX5YN2FB","3566S7OX5D5NH74JOVOPTTMK8IR17K","","490.79999999981374","img/land4.png","74","496.79999999981374","1","0","2","2","0.8,0.2,0.2,0.2,0.8,0.2,0.2,0.2,0.8","0.8,0.2,0.2,0.2,0.8,0.2,0.2,0.2,0.8","1","",""
"","html-keyboard-response","318","149182","0.0-318.0","32N49TQG3H4N85G9TEP0ZRRE6BHVAU","A18WSAKX5YN2FB","3566S7OX5D5NH74JOVOPTTMK8IR17K","","null","<img src=""img/land4.png"" style=""width:200px;border:14px solid red;"">","null","","","","","","","","","",""
"","image-keyboard-response","319","149962","0.0-319.0","32N49TQG3H4N85G9TEP0ZRRE6BHVAU","A18WSAKX5YN2FB","3566S7OX5D5NH74JOVOPTTMK8IR17K","","774.2999999998137","img/land3.png","74","779.4000000003725","1","0","1","2","0.8,0.2,0.2,0.2,0.8,0.2,0.2,0.2,0.8","0.8,0.2,0.2,0.2,0.8,0.2,0.2,0.2,0.8","1","",""
"","html-keyboard-response","320","150267","0.0-320.0","32N49TQG3H4N85G9TEP0ZRRE6BHVAU","A18WSAKX5YN2FB","3566S7OX5D5NH74JOVOPTTMK8IR17K","","null","<img src=""img/land3.png"" style=""width:200px;border:14px solid red;"">","null","","","","","","","","","",""
"","image-keyboard-response","321","151162","0.0-321.0","32N49TQG3H4N85G9TEP0ZRRE6BHVAU","A18WSAKX5YN2FB","3566S7OX5D5NH74JOVOPTTMK8IR17K","","888.9000000003725","img/land6.png","75","893.3999999994412","2","0","3","2","0.8,0.2,0.2,0.2,0.8,0.2,0.2,0.2,0.8","0.8,0.2,0.2,0.2,0.8,0.2,0.2,0.2,0.8","1","",""
"","html-keyboard-response","322","151472","0.0-322.0","32N49TQG3H4N85G9TEP0ZRRE6BHVAU","A18WSAKX5YN2FB","3566S7OX5D5NH74JOVOPTTMK8IR17K","","null","<img src=""img/land6.png"" style=""width:200px;border:14px solid red;"">","null","","","","","","","","","",""
"","image-keyboard-response","323","151985","0.0-323.0","32N49TQG3H4N85G9TEP0ZRRE6BHVAU","A18WSAKX5YN2FB","3566S7OX5D5NH74JOVOPTTMK8IR17K","","506.20000000018626","img/land3.png","74","510.79999999981374","1","1","1","2","0.8,0.2,0.2,0.2,0.8,0.2,0.2,0.2,0.8","0.8,0.2,0.2,0.2,0.8,0.2,0.2,0.2,0.8","1","",""
"","html-keyboard-response","324","152291","0.0-324.0","32N49TQG3H4N85G9TEP0ZRRE6BHVAU","A18WSAKX5YN2FB","3566S7OX5D5NH74JOVOPTTMK8IR17K","","null","<img src=""img/land3.png"" style=""width:200px; border:14px solid green;"">","null","","","","","","","","","",""
"","image-keyboard-response","325","152592","0.0-325.0","32N49TQG3H4N85G9TEP0ZRRE6BHVAU","A18WSAKX5YN2FB","3566S7OX5D5NH74JOVOPTTMK8IR17K","","291.79999999981374","img/land3.png","74","299.79999999981374","1","1","1","2","0.8,0.2,0.2,0.2,0.8,0.2,0.2,0.2,0.8","0.8,0.2,0.2,0.2,0.8,0.2,0.2,0.2,0.8","1","",""
"","html-keyboard-response","326","152900","0.0-326.0","32N49TQG3H4N85G9TEP0ZRRE6BHVAU","A18WSAKX5YN2FB","3566S7OX5D5NH74JOVOPTTMK8IR17K","","null","<img src=""img/land3.png"" style=""width:200px; border:14px solid green;"">","null","","","","","","","","","",""
"","image-keyboard-response","327","153169","0.0-327.0","32N49TQG3H4N85G9TEP0ZRRE6BHVAU","A18WSAKX5YN2FB","3566S7OX5D5NH74JOVOPTTMK8IR17K","","259.90000000037253","img/land3.png","74","267.3999999994412","1","1","1","2","0.8,0.2,0.2,0.2,0.8,0.2,0.2,0.2,0.8","0.8,0.2,0.2,0.2,0.8,0.2,0.2,0.2,0.8","1","",""
"","html-keyboard-response","328","153478","0.0-328.0","32N49TQG3H4N85G9TEP0ZRRE6BHVAU","A18WSAKX5YN2FB","3566S7OX5D5NH74JOVOPTTMK8IR17K","","null","<img src=""img/land3.png"" style=""width:200px; border:14px solid green;"">","null","","","","","","","","","",""
"","image-keyboard-response","329","153795","0.0-329.0","32N49TQG3H4N85G9TEP0ZRRE6BHVAU","A18WSAKX5YN2FB","3566S7OX5D5NH74JOVOPTTMK8IR17K","","310.29999999981374","img/land3.png","74","315.70000000018626","1","1","1","2","0.8,0.2,0.2,0.2,0.8,0.2,0.2,0.2,0.8","0.8,0.2,0.2,0.2,0.8,0.2,0.2,0.2,0.8","1","",""
"","html-keyboard-response","330","154101","0.0-330.0","32N49TQG3H4N85G9TEP0ZRRE6BHVAU","A18WSAKX5YN2FB","3566S7OX5D5NH74JOVOPTTMK8IR17K","","null","<img src=""img/land3.png"" style=""width:200px; border:14px solid green;"">","null","","","","","","","","","",""
"","image-keyboard-response","331","154414","0.0-331.0","32N49TQG3H4N85G9TEP0ZRRE6BHVAU","A18WSAKX5YN2FB","3566S7OX5D5NH74JOVOPTTMK8IR17K","","306.70000000018626","img/land3.png","74","311.40000000037253","1","1","1","2","0.8,0.2,0.2,0.2,0.8,0.2,0.2,0.2,0.8","0.8,0.2,0.2,0.2,0.8,0.2,0.2,0.2,0.8","1","",""
"","html-keyboard-response","332","154722","0.0-332.0","32N49TQG3H4N85G9TEP0ZRRE6BHVAU","A18WSAKX5YN2FB","3566S7OX5D5NH74JOVOPTTMK8IR17K","","null","<img src=""img/land3.png"" style=""width:200px; border:14px solid green;"">","null","","","","","","","","","",""
"","image-keyboard-response","333","155263","0.0-333.0","32N49TQG3H4N85G9TEP0ZRRE6BHVAU","A18WSAKX5YN2FB","3566S7OX5D5NH74JOVOPTTMK8IR17K","","536","img/land6.png","75","540","2","1","3","2","0.8,0.2,0.2,0.2,0.8,0.2,0.2,0.2,0.8","0.8,0.2,0.2,0.2,0.8,0.2,0.2,0.2,0.8","1","",""
"","html-keyboard-response","334","155570","0.0-334.0","32N49TQG3H4N85G9TEP0ZRRE6BHVAU","A18WSAKX5YN2FB","3566S7OX5D5NH74JOVOPTTMK8IR17K","","null","<img src=""img/land6.png"" style=""width:200px; border:14px solid green;"">","null","","","","","","","","","",""
"","image-keyboard-response","335","156464","0.0-335.0","32N49TQG3H4N85G9TEP0ZRRE6BHVAU","A18WSAKX5YN2FB","3566S7OX5D5NH74JOVOPTTMK8IR17K","","888.2000000001863","img/land4.png","74","892.4000000003725","1","0","2","2","0.8,0.2,0.2,0.2,0.8,0.2,0.2,0.2,0.8","0.8,0.2,0.2,0.2,0.8,0.2,0.2,0.2,0.8","1","",""
"","html-keyboard-response","336","156769","0.0-336.0","32N49TQG3H4N85G9TEP0ZRRE6BHVAU","A18WSAKX5YN2FB","3566S7OX5D5NH74JOVOPTTMK8IR17K","","null","<img src=""img/land4.png"" style=""width:200px;border:14px solid red;"">","null","","","","","","","","","",""
"","image-keyboard-response","337","157372","0.0-337.0","32N49TQG3H4N85G9TEP0ZRRE6BHVAU","A18WSAKX5YN2FB","3566S7OX5D5NH74JOVOPTTMK8IR17K","","598","img/land6.png","75","601.8999999994412","2","0","3","2","0.8,0.2,0.2,0.2,0.8,0.2,0.2,0.2,0.8","0.8,0.2,0.2,0.2,0.8,0.2,0.2,0.2,0.8","1","",""
"","html-keyboard-response","338","157678","0.0-338.0","32N49TQG3H4N85G9TEP0ZRRE6BHVAU","A18WSAKX5YN2FB","3566S7OX5D5NH74JOVOPTTMK8IR17K","","null","<img src=""img/land6.png"" style=""width:200px;border:14px solid red;"">","null","","","","","","","","","",""
"","image-keyboard-response","339","158262","0.0-339.0","32N49TQG3H4N85G9TEP0ZRRE6BHVAU","A18WSAKX5YN2FB","3566S7OX5D5NH74JOVOPTTMK8IR17K","","575.2999999998137","img/land3.png","74","581.9000000003725","1","1","1","2","0.8,0.2,0.2,0.2,0.8,0.2,0.2,0.2,0.8","0.8,0.2,0.2,0.2,0.8,0.2,0.2,0.2,0.8","1","",""
"","html-keyboard-response","340","158569","0.0-340.0","32N49TQG3H4N85G9TEP0ZRRE6BHVAU","A18WSAKX5YN2FB","3566S7OX5D5NH74JOVOPTTMK8IR17K","","null","<img src=""img/land3.png"" style=""width:200px; border:14px solid green;"">","null","","","","","","","","","",""
"","image-keyboard-response","341","159399","0.0-341.0","32N49TQG3H4N85G9TEP0ZRRE6BHVAU","A18WSAKX5YN2FB","3566S7OX5D5NH74JOVOPTTMK8IR17K","","820.6999999992549","img/land6.png","75","828.7000000001863","2","1","3","2","0.8,0.2,0.2,0.2,0.8,0.2,0.2,0.2,0.8","0.8,0.2,0.2,0.2,0.8,0.2,0.2,0.2,0.8","1","",""
"","html-keyboard-response","342","159707","0.0-342.0","32N49TQG3H4N85G9TEP0ZRRE6BHVAU","A18WSAKX5YN2FB","3566S7OX5D5NH74JOVOPTTMK8IR17K","","null","<img src=""img/land6.png"" style=""width:200px; border:14px solid green;"">","null","","","","","","","","","",""
"","image-keyboard-response","343","160536","0.0-343.0","32N49TQG3H4N85G9TEP0ZRRE6BHVAU","A18WSAKX5YN2FB","3566S7OX5D5NH74JOVOPTTMK8IR17K","","820.3000000007451","img/land4.png","76","826.8999999994412","3","0","2","2","0.8,0.2,0.2,0.2,0.8,0.2,0.2,0.2,0.8","0.8,0.2,0.2,0.2,0.8,0.2,0.2,0.2,0.8","1","",""
"","html-keyboard-response","344","160843","0.0-344.0","32N49TQG3H4N85G9TEP0ZRRE6BHVAU","A18WSAKX5YN2FB","3566S7OX5D5NH74JOVOPTTMK8IR17K","","null","<img src=""img/land4.png"" style=""width:200px;border:14px solid red;"">","null","","","","","","","","","",""
"","image-keyboard-response","345","161368","0.0-345.0","32N49TQG3H4N85G9TEP0ZRRE6BHVAU","A18WSAKX5YN2FB","3566S7OX5D5NH74JOVOPTTMK8IR17K","","515.9000000003725","img/land3.png","74","520.5999999996275","1","1","1","2","0.8,0.2,0.2,0.2,0.8,0.2,0.2,0.2,0.8","0.8,0.2,0.2,0.2,0.8,0.2,0.2,0.2,0.8","1","",""
"","html-keyboard-response","346","161674","0.0-346.0","32N49TQG3H4N85G9TEP0ZRRE6BHVAU","A18WSAKX5YN2FB","3566S7OX5D5NH74JOVOPTTMK8IR17K","","null","<img src=""img/land3.png"" style=""width:200px; border:14px solid green;"">","null","","","","","","","","","",""
"","image-keyboard-response","347","162837","0.0-347.0","32N49TQG3H4N85G9TEP0ZRRE6BHVAU","A18WSAKX5YN2FB","3566S7OX5D5NH74JOVOPTTMK8IR17K","","1157.2000000001863","img/land4.png","75","1160.9000000003725","2","0","2","2","0.8,0.2,0.2,0.2,0.8,0.2,0.2,0.2,0.8","0.8,0.2,0.2,0.2,0.8,0.2,0.2,0.2,0.8","1","",""
"","html-keyboard-response","348","163140","0.0-348.0","32N49TQG3H4N85G9TEP0ZRRE6BHVAU","A18WSAKX5YN2FB","3566S7OX5D5NH74JOVOPTTMK8IR17K","","null","<img src=""img/land4.png"" style=""width:200px;border:14px solid red;"">","null","","","","","","","","","",""
"","image-keyboard-response","349","163808","0.0-349.0","32N49TQG3H4N85G9TEP0ZRRE6BHVAU","A18WSAKX5YN2FB","3566S7OX5D5NH74JOVOPTTMK8IR17K","","663.2000000001863","img/land4.png","74","667.2000000001863","1","1","2","2","0.8,0.2,0.2,0.2,0.8,0.2,0.2,0.2,0.8","0.8,0.2,0.2,0.2,0.8,0.2,0.2,0.2,0.8","1","",""
"","html-keyboard-response","350","164117","0.0-350.0","32N49TQG3H4N85G9TEP0ZRRE6BHVAU","A18WSAKX5YN2FB","3566S7OX5D5NH74JOVOPTTMK8IR17K","","null","<img src=""img/land4.png"" style=""width:200px; border:14px solid green;"">","null","","","","","","","","","",""
"","image-keyboard-response","351","164737","0.0-351.0","32N49TQG3H4N85G9TEP0ZRRE6BHVAU","A18WSAKX5YN2FB","3566S7OX5D5NH74JOVOPTTMK8IR17K","","614.5","img/land3.png","74","618.0999999996275","1","1","1","2","0.8,0.2,0.2,0.2,0.8,0.2,0.2,0.2,0.8","0.8,0.2,0.2,0.2,0.8,0.2,0.2,0.2,0.8","1","",""
"","html-keyboard-response","352","165043","0.0-352.0","32N49TQG3H4N85G9TEP0ZRRE6BHVAU","A18WSAKX5YN2FB","3566S7OX5D5NH74JOVOPTTMK8IR17K","","null","<img src=""img/land3.png"" style=""width:200px; border:14px solid green;"">","null","","","","","","","","","",""
"","image-keyboard-response","353","165353","0.0-353.0","32N49TQG3H4N85G9TEP0ZRRE6BHVAU","A18WSAKX5YN2FB","3566S7OX5D5NH74JOVOPTTMK8IR17K","","301.29999999981374","img/land3.png","74","308","1","1","1","2","0.8,0.2,0.2,0.2,0.8,0.2,0.2,0.2,0.8","0.8,0.2,0.2,0.2,0.8,0.2,0.2,0.2,0.8","1","",""
"","html-keyboard-response","354","165661","0.0-354.0","32N49TQG3H4N85G9TEP0ZRRE6BHVAU","A18WSAKX5YN2FB","3566S7OX5D5NH74JOVOPTTMK8IR17K","","null","<img src=""img/land3.png"" style=""width:200px; border:14px solid green;"">","null","","","","","","","","","",""
