"success","trial_type","trial_index","time_elapsed","internal_node_id","assignmentID","mturkID","hitID","view_history","rt","stimulus","key_press","reactionTime","a","r","s","cond","reward_cond","reward_cond_actual","reward_matrix_idx","responses","question_order"
"true","fullscreen","0","4724","0.0-0.0","3634BBTX0PGDIQDH5NC9Y3CBVIFIF0","A1ATL3G98SFW4V","3YKP7CX6G21OU5MBQSHEZ5ZTUTWB7P","","","","","","","","","","","","","",""
"","instructions","1","35592","0.0-1.0","3634BBTX0PGDIQDH5NC9Y3CBVIFIF0","A1ATL3G98SFW4V","3YKP7CX6G21OU5MBQSHEZ5ZTUTWB7P","[{""page_index"":0,""viewing_time"":8712.300000071526},{""page_index"":1,""viewing_time"":871.6999999284744},{""page_index"":2,""viewing_time"":480},{""page_index"":3,""viewing_time"":15200},{""page_index"":4,""viewing_time"":2888},{""page_index"":5,""viewing_time"":1152},{""page_index"":6,""viewing_time"":1560.1000000238419}]","30864.300000071526","","","","","","","","","","","",""
"","image-keyboard-response","2","36954","0.0-2.0","3634BBTX0PGDIQDH5NC9Y3CBVIFIF0","A1ATL3G98SFW4V","3YKP7CX6G21OU5MBQSHEZ5ZTUTWB7P","","1360.6000000238419","img/land5.png","75","1362.1000000238419","2","0","1","2","0.8,0.2,0.2,0.2,0.8,0.2,0.2,0.2,0.8","0.8,0.2,0.2,0.2,0.8,0.2,0.2,0.2,0.8","1","",""
"","html-keyboard-response","3","37258","0.0-3.0","3634BBTX0PGDIQDH5NC9Y3CBVIFIF0","A1ATL3G98SFW4V","3YKP7CX6G21OU5MBQSHEZ5ZTUTWB7P","","null","<img src=""img/land5.png"" style=""width:200px;border:14px solid red;"">","null","","","","","","","","","",""
"","image-keyboard-response","4","38000","0.0-4.0","3634BBTX0PGDIQDH5NC9Y3CBVIFIF0","A1ATL3G98SFW4V","3YKP7CX6G21OU5MBQSHEZ5ZTUTWB7P","","739.5","img/land3.png","76","740.8000000715256","3","1","3","2","0.8,0.2,0.2,0.2,0.8,0.2,0.2,0.2,0.8","0.8,0.2,0.2,0.2,0.8,0.2,0.2,0.2,0.8","1","",""
"","html-keyboard-response","5","38301","0.0-5.0","3634BBTX0PGDIQDH5NC9Y3CBVIFIF0","A1ATL3G98SFW4V","3YKP7CX6G21OU5MBQSHEZ5ZTUTWB7P","","null","<img src=""img/land3.png"" style=""width:200px; border:14px solid green;"">","null","","","","","","","","","",""
"","image-keyboard-response","6","39024","0.0-6.0","3634BBTX0PGDIQDH5NC9Y3CBVIFIF0","A1ATL3G98SFW4V","3YKP7CX6G21OU5MBQSHEZ5ZTUTWB7P","","722.2999999523163","img/land5.png","76","722.8999999761581","3","0","1","2","0.8,0.2,0.2,0.2,0.8,0.2,0.2,0.2,0.8","0.8,0.2,0.2,0.2,0.8,0.2,0.2,0.2,0.8","1","",""
"","html-keyboard-response","7","39326","0.0-7.0","3634BBTX0PGDIQDH5NC9Y3CBVIFIF0","A1ATL3G98SFW4V","3YKP7CX6G21OU5MBQSHEZ5ZTUTWB7P","","null","<img src=""img/land5.png"" style=""width:200px;border:14px solid red;"">","null","","","","","","","","","",""
"","image-keyboard-response","8","40113","0.0-8.0","3634BBTX0PGDIQDH5NC9Y3CBVIFIF0","A1ATL3G98SFW4V","3YKP7CX6G21OU5MBQSHEZ5ZTUTWB7P","","784.7000000476837","img/land1.png","74","786.2000000476837","1","0","2","2","0.8,0.2,0.2,0.2,0.8,0.2,0.2,0.2,0.8","0.8,0.2,0.2,0.2,0.8,0.2,0.2,0.2,0.8","1","",""
"","html-keyboard-response","9","40415","0.0-9.0","3634BBTX0PGDIQDH5NC9Y3CBVIFIF0","A1ATL3G98SFW4V","3YKP7CX6G21OU5MBQSHEZ5ZTUTWB7P","","null","<img src=""img/land1.png"" style=""width:200px;border:14px solid red;"">","null","","","","","","","","","",""
"","image-keyboard-response","10","40913","0.0-10.0","3634BBTX0PGDIQDH5NC9Y3CBVIFIF0","A1ATL3G98SFW4V","3YKP7CX6G21OU5MBQSHEZ5ZTUTWB7P","","495.60000002384186","img/land1.png","74","497.2999999523163","1","1","2","2","0.8,0.2,0.2,0.2,0.8,0.2,0.2,0.2,0.8","0.8,0.2,0.2,0.2,0.8,0.2,0.2,0.2,0.8","1","",""
"","html-keyboard-response","11","41215","0.0-11.0","3634BBTX0PGDIQDH5NC9Y3CBVIFIF0","A1ATL3G98SFW4V","3YKP7CX6G21OU5MBQSHEZ5ZTUTWB7P","","null","<img src=""img/land1.png"" style=""width:200px; border:14px solid green;"">","null","","","","","","","","","",""
"","image-keyboard-response","12","41968","0.0-12.0","3634BBTX0PGDIQDH5NC9Y3CBVIFIF0","A1ATL3G98SFW4V","3YKP7CX6G21OU5MBQSHEZ5ZTUTWB7P","","751.6000000238419","img/land3.png","76","752.8999999761581","3","1","3","2","0.8,0.2,0.2,0.2,0.8,0.2,0.2,0.2,0.8","0.8,0.2,0.2,0.2,0.8,0.2,0.2,0.2,0.8","1","",""
"","html-keyboard-response","13","42274","0.0-13.0","3634BBTX0PGDIQDH5NC9Y3CBVIFIF0","A1ATL3G98SFW4V","3YKP7CX6G21OU5MBQSHEZ5ZTUTWB7P","","null","<img src=""img/land3.png"" style=""width:200px; border:14px solid green;"">","null","","","","","","","","","",""
"","image-keyboard-response","14","43033","0.0-14.0","3634BBTX0PGDIQDH5NC9Y3CBVIFIF0","A1ATL3G98SFW4V","3YKP7CX6G21OU5MBQSHEZ5ZTUTWB7P","","758.3000000715256","img/land5.png","75","759.1000000238419","2","0","1","2","0.8,0.2,0.2,0.2,0.8,0.2,0.2,0.2,0.8","0.8,0.2,0.2,0.2,0.8,0.2,0.2,0.2,0.8","1","",""
"","html-keyboard-response","15","43335","0.0-15.0","3634BBTX0PGDIQDH5NC9Y3CBVIFIF0","A1ATL3G98SFW4V","3YKP7CX6G21OU5MBQSHEZ5ZTUTWB7P","","null","<img src=""img/land5.png"" style=""width:200px;border:14px solid red;"">","null","","","","","","","","","",""
"","image-keyboard-response","16","44496","0.0-16.0","3634BBTX0PGDIQDH5NC9Y3CBVIFIF0","A1ATL3G98SFW4V","3YKP7CX6G21OU5MBQSHEZ5ZTUTWB7P","","1159.3999999761581","img/land3.png","76","1160.5","3","1","3","2","0.8,0.2,0.2,0.2,0.8,0.2,0.2,0.2,0.8","0.8,0.2,0.2,0.2,0.8,0.2,0.2,0.2,0.8","1","",""
"","html-keyboard-response","17","44797","0.0-17.0","3634BBTX0PGDIQDH5NC9Y3CBVIFIF0","A1ATL3G98SFW4V","3YKP7CX6G21OU5MBQSHEZ5ZTUTWB7P","","null","<img src=""img/land3.png"" style=""width:200px; border:14px solid green;"">","null","","","","","","","","","",""
"","image-keyboard-response","18","45465","0.0-18.0","3634BBTX0PGDIQDH5NC9Y3CBVIFIF0","A1ATL3G98SFW4V","3YKP7CX6G21OU5MBQSHEZ5ZTUTWB7P","","666.0999999046326","img/land5.png","75","667.5999999046326","2","0","1","2","0.8,0.2,0.2,0.2,0.8,0.2,0.2,0.2,0.8","0.8,0.2,0.2,0.2,0.8,0.2,0.2,0.2,0.8","1","",""
"","html-keyboard-response","19","45767","0.0-19.0","3634BBTX0PGDIQDH5NC9Y3CBVIFIF0","A1ATL3G98SFW4V","3YKP7CX6G21OU5MBQSHEZ5ZTUTWB7P","","null","<img src=""img/land5.png"" style=""width:200px;border:14px solid red;"">","null","","","","","","","","","",""
"","image-keyboard-response","20","46136","0.0-20.0","3634BBTX0PGDIQDH5NC9Y3CBVIFIF0","A1ATL3G98SFW4V","3YKP7CX6G21OU5MBQSHEZ5ZTUTWB7P","","367.2000000476837","img/land5.png","75","368.39999997615814","2","0","1","2","0.8,0.2,0.2,0.2,0.8,0.2,0.2,0.2,0.8","0.8,0.2,0.2,0.2,0.8,0.2,0.2,0.2,0.8","1","",""
"","html-keyboard-response","21","46439","0.0-21.0","3634BBTX0PGDIQDH5NC9Y3CBVIFIF0","A1ATL3G98SFW4V","3YKP7CX6G21OU5MBQSHEZ5ZTUTWB7P","","null","<img src=""img/land5.png"" style=""width:200px;border:14px solid red;"">","null","","","","","","","","","",""
"","image-keyboard-response","22","46793","0.0-22.0","3634BBTX0PGDIQDH5NC9Y3CBVIFIF0","A1ATL3G98SFW4V","3YKP7CX6G21OU5MBQSHEZ5ZTUTWB7P","","352.09999990463257","img/land5.png","76","353.7000000476837","3","0","1","2","0.8,0.2,0.2,0.2,0.8,0.2,0.2,0.2,0.8","0.8,0.2,0.2,0.2,0.8,0.2,0.2,0.2,0.8","1","",""
"","html-keyboard-response","23","47095","0.0-23.0","3634BBTX0PGDIQDH5NC9Y3CBVIFIF0","A1ATL3G98SFW4V","3YKP7CX6G21OU5MBQSHEZ5ZTUTWB7P","","null","<img src=""img/land5.png"" style=""width:200px;border:14px solid red;"">","null","","","","","","","","","",""
"","image-keyboard-response","24","47321","0.0-24.0","3634BBTX0PGDIQDH5NC9Y3CBVIFIF0","A1ATL3G98SFW4V","3YKP7CX6G21OU5MBQSHEZ5ZTUTWB7P","","224.10000002384186","img/land3.png","74","225.60000002384186","1","0","3","2","0.8,0.2,0.2,0.2,0.8,0.2,0.2,0.2,0.8","0.8,0.2,0.2,0.2,0.8,0.2,0.2,0.2,0.8","1","",""
"","html-keyboard-response","25","47623","0.0-25.0","3634BBTX0PGDIQDH5NC9Y3CBVIFIF0","A1ATL3G98SFW4V","3YKP7CX6G21OU5MBQSHEZ5ZTUTWB7P","","null","<img src=""img/land3.png"" style=""width:200px;border:14px solid red;"">","null","","","","","","","","","",""
"","image-keyboard-response","26","48369","0.0-26.0","3634BBTX0PGDIQDH5NC9Y3CBVIFIF0","A1ATL3G98SFW4V","3YKP7CX6G21OU5MBQSHEZ5ZTUTWB7P","","743.8999999761581","img/land1.png","74","745.2999999523163","1","0","2","2","0.8,0.2,0.2,0.2,0.8,0.2,0.2,0.2,0.8","0.8,0.2,0.2,0.2,0.8,0.2,0.2,0.2,0.8","1","",""
"","html-keyboard-response","27","48672","0.0-27.0","3634BBTX0PGDIQDH5NC9Y3CBVIFIF0","A1ATL3G98SFW4V","3YKP7CX6G21OU5MBQSHEZ5ZTUTWB7P","","null","<img src=""img/land1.png"" style=""width:200px;border:14px solid red;"">","null","","","","","","","","","",""
"","image-keyboard-response","28","49001","0.0-28.0","3634BBTX0PGDIQDH5NC9Y3CBVIFIF0","A1ATL3G98SFW4V","3YKP7CX6G21OU5MBQSHEZ5ZTUTWB7P","","327.5","img/land5.png","74","329","1","1","1","2","0.8,0.2,0.2,0.2,0.8,0.2,0.2,0.2,0.8","0.8,0.2,0.2,0.2,0.8,0.2,0.2,0.2,0.8","1","",""
"","html-keyboard-response","29","49303","0.0-29.0","3634BBTX0PGDIQDH5NC9Y3CBVIFIF0","A1ATL3G98SFW4V","3YKP7CX6G21OU5MBQSHEZ5ZTUTWB7P","","null","<img src=""img/land5.png"" style=""width:200px; border:14px solid green;"">","null","","","","","","","","","",""
"","image-keyboard-response","30","49952","0.0-30.0","3634BBTX0PGDIQDH5NC9Y3CBVIFIF0","A1ATL3G98SFW4V","3YKP7CX6G21OU5MBQSHEZ5ZTUTWB7P","","647","img/land5.png","74","648.2000000476837","1","1","1","2","0.8,0.2,0.2,0.2,0.8,0.2,0.2,0.2,0.8","0.8,0.2,0.2,0.2,0.8,0.2,0.2,0.2,0.8","1","",""
"","html-keyboard-response","31","50253","0.0-31.0","3634BBTX0PGDIQDH5NC9Y3CBVIFIF0","A1ATL3G98SFW4V","3YKP7CX6G21OU5MBQSHEZ5ZTUTWB7P","","null","<img src=""img/land5.png"" style=""width:200px; border:14px solid green;"">","null","","","","","","","","","",""
"","image-keyboard-response","32","50601","0.0-32.0","3634BBTX0PGDIQDH5NC9Y3CBVIFIF0","A1ATL3G98SFW4V","3YKP7CX6G21OU5MBQSHEZ5ZTUTWB7P","","347.1999999284744","img/land5.png","74","348.1999999284744","1","1","1","2","0.8,0.2,0.2,0.2,0.8,0.2,0.2,0.2,0.8","0.8,0.2,0.2,0.2,0.8,0.2,0.2,0.2,0.8","1","",""
"","html-keyboard-response","33","50903","0.0-33.0","3634BBTX0PGDIQDH5NC9Y3CBVIFIF0","A1ATL3G98SFW4V","3YKP7CX6G21OU5MBQSHEZ5ZTUTWB7P","","null","<img src=""img/land5.png"" style=""width:200px; border:14px solid green;"">","null","","","","","","","","","",""
"","image-keyboard-response","34","51169","0.0-34.0","3634BBTX0PGDIQDH5NC9Y3CBVIFIF0","A1ATL3G98SFW4V","3YKP7CX6G21OU5MBQSHEZ5ZTUTWB7P","","264.10000002384186","img/land5.png","74","265.5","1","1","1","2","0.8,0.2,0.2,0.2,0.8,0.2,0.2,0.2,0.8","0.8,0.2,0.2,0.2,0.8,0.2,0.2,0.2,0.8","1","",""
"","html-keyboard-response","35","51471","0.0-35.0","3634BBTX0PGDIQDH5NC9Y3CBVIFIF0","A1ATL3G98SFW4V","3YKP7CX6G21OU5MBQSHEZ5ZTUTWB7P","","null","<img src=""img/land5.png"" style=""width:200px; border:14px solid green;"">","null","","","","","","","","","",""
"","image-keyboard-response","36","51537","0.0-36.0","3634BBTX0PGDIQDH5NC9Y3CBVIFIF0","A1ATL3G98SFW4V","3YKP7CX6G21OU5MBQSHEZ5ZTUTWB7P","","64.59999990463257","img/land3.png","74","66.19999992847443","1","0","3","2","0.8,0.2,0.2,0.2,0.8,0.2,0.2,0.2,0.8","0.8,0.2,0.2,0.2,0.8,0.2,0.2,0.2,0.8","1","",""
"","html-keyboard-response","37","51840","0.0-37.0","3634BBTX0PGDIQDH5NC9Y3CBVIFIF0","A1ATL3G98SFW4V","3YKP7CX6G21OU5MBQSHEZ5ZTUTWB7P","","null","<img src=""img/land3.png"" style=""width:200px;border:14px solid red;"">","null","","","","","","","","","",""
"","image-keyboard-response","38","52753","0.0-38.0","3634BBTX0PGDIQDH5NC9Y3CBVIFIF0","A1ATL3G98SFW4V","3YKP7CX6G21OU5MBQSHEZ5ZTUTWB7P","","911.9000000953674","img/land5.png","74","912.8000000715256","1","1","1","2","0.8,0.2,0.2,0.2,0.8,0.2,0.2,0.2,0.8","0.8,0.2,0.2,0.2,0.8,0.2,0.2,0.2,0.8","1","",""
"","html-keyboard-response","39","53055","0.0-39.0","3634BBTX0PGDIQDH5NC9Y3CBVIFIF0","A1ATL3G98SFW4V","3YKP7CX6G21OU5MBQSHEZ5ZTUTWB7P","","null","<img src=""img/land5.png"" style=""width:200px; border:14px solid green;"">","null","","","","","","","","","",""
"","image-keyboard-response","40","54016","0.0-40.0","3634BBTX0PGDIQDH5NC9Y3CBVIFIF0","A1ATL3G98SFW4V","3YKP7CX6G21OU5MBQSHEZ5ZTUTWB7P","","959.2999999523163","img/land1.png","74","960.2999999523163","1","0","2","2","0.8,0.2,0.2,0.2,0.8,0.2,0.2,0.2,0.8","0.8,0.2,0.2,0.2,0.8,0.2,0.2,0.2,0.8","1","",""
"","html-keyboard-response","41","54317","0.0-41.0","3634BBTX0PGDIQDH5NC9Y3CBVIFIF0","A1ATL3G98SFW4V","3YKP7CX6G21OU5MBQSHEZ5ZTUTWB7P","","null","<img src=""img/land1.png"" style=""width:200px;border:14px solid red;"">","null","","","","","","","","","",""
"","image-keyboard-response","42","55265","0.0-42.0","3634BBTX0PGDIQDH5NC9Y3CBVIFIF0","A1ATL3G98SFW4V","3YKP7CX6G21OU5MBQSHEZ5ZTUTWB7P","","946.5","img/land3.png","76","947.5","3","1","3","2","0.8,0.2,0.2,0.2,0.8,0.2,0.2,0.2,0.8","0.8,0.2,0.2,0.2,0.8,0.2,0.2,0.2,0.8","1","",""
"","html-keyboard-response","43","55567","0.0-43.0","3634BBTX0PGDIQDH5NC9Y3CBVIFIF0","A1ATL3G98SFW4V","3YKP7CX6G21OU5MBQSHEZ5ZTUTWB7P","","null","<img src=""img/land3.png"" style=""width:200px; border:14px solid green;"">","null","","","","","","","","","",""
"","image-keyboard-response","44","56464","0.0-44.0","3634BBTX0PGDIQDH5NC9Y3CBVIFIF0","A1ATL3G98SFW4V","3YKP7CX6G21OU5MBQSHEZ5ZTUTWB7P","","895.8999999761581","img/land5.png","75","896.7000000476837","2","1","1","2","0.8,0.2,0.2,0.2,0.8,0.2,0.2,0.2,0.8","0.8,0.2,0.2,0.2,0.8,0.2,0.2,0.2,0.8","1","",""
"","html-keyboard-response","45","56765","0.0-45.0","3634BBTX0PGDIQDH5NC9Y3CBVIFIF0","A1ATL3G98SFW4V","3YKP7CX6G21OU5MBQSHEZ5ZTUTWB7P","","null","<img src=""img/land5.png"" style=""width:200px; border:14px solid green;"">","null","","","","","","","","","",""
"","image-keyboard-response","46","57536","0.0-46.0","3634BBTX0PGDIQDH5NC9Y3CBVIFIF0","A1ATL3G98SFW4V","3YKP7CX6G21OU5MBQSHEZ5ZTUTWB7P","","770.0999999046326","img/land1.png","74","771.4000000953674","1","0","2","2","0.8,0.2,0.2,0.2,0.8,0.2,0.2,0.2,0.8","0.8,0.2,0.2,0.2,0.8,0.2,0.2,0.2,0.8","1","",""
"","html-keyboard-response","47","57839","0.0-47.0","3634BBTX0PGDIQDH5NC9Y3CBVIFIF0","A1ATL3G98SFW4V","3YKP7CX6G21OU5MBQSHEZ5ZTUTWB7P","","null","<img src=""img/land1.png"" style=""width:200px;border:14px solid red;"">","null","","","","","","","","","",""
"","image-keyboard-response","48","58748","0.0-48.0","3634BBTX0PGDIQDH5NC9Y3CBVIFIF0","A1ATL3G98SFW4V","3YKP7CX6G21OU5MBQSHEZ5ZTUTWB7P","","904.6999999284744","img/land5.png","75","906.0999999046326","2","0","1","2","0.8,0.2,0.2,0.2,0.8,0.2,0.2,0.2,0.8","0.8,0.2,0.2,0.2,0.8,0.2,0.2,0.2,0.8","1","",""
"","html-keyboard-response","49","59049","0.0-49.0","3634BBTX0PGDIQDH5NC9Y3CBVIFIF0","A1ATL3G98SFW4V","3YKP7CX6G21OU5MBQSHEZ5ZTUTWB7P","","null","<img src=""img/land5.png"" style=""width:200px;border:14px solid red;"">","null","","","","","","","","","",""
"","image-keyboard-response","50","59428","0.0-50.0","3634BBTX0PGDIQDH5NC9Y3CBVIFIF0","A1ATL3G98SFW4V","3YKP7CX6G21OU5MBQSHEZ5ZTUTWB7P","","376.39999997615814","img/land5.png","74","377.7000000476837","1","1","1","2","0.8,0.2,0.2,0.2,0.8,0.2,0.2,0.2,0.8","0.8,0.2,0.2,0.2,0.8,0.2,0.2,0.2,0.8","1","",""
"","html-keyboard-response","51","59729","0.0-51.0","3634BBTX0PGDIQDH5NC9Y3CBVIFIF0","A1ATL3G98SFW4V","3YKP7CX6G21OU5MBQSHEZ5ZTUTWB7P","","null","<img src=""img/land5.png"" style=""width:200px; border:14px solid green;"">","null","","","","","","","","","",""
"","image-keyboard-response","52","59882","0.0-52.0","3634BBTX0PGDIQDH5NC9Y3CBVIFIF0","A1ATL3G98SFW4V","3YKP7CX6G21OU5MBQSHEZ5ZTUTWB7P","","151.5","img/land5.png","74","152.60000002384186","1","1","1","2","0.8,0.2,0.2,0.2,0.8,0.2,0.2,0.2,0.8","0.8,0.2,0.2,0.2,0.8,0.2,0.2,0.2,0.8","1","",""
"","html-keyboard-response","53","60193","0.0-53.0","3634BBTX0PGDIQDH5NC9Y3CBVIFIF0","A1ATL3G98SFW4V","3YKP7CX6G21OU5MBQSHEZ5ZTUTWB7P","","null","<img src=""img/land5.png"" style=""width:200px; border:14px solid green;"">","null","","","","","","","","","",""
"","image-keyboard-response","54","60388","0.0-54.0","3634BBTX0PGDIQDH5NC9Y3CBVIFIF0","A1ATL3G98SFW4V","3YKP7CX6G21OU5MBQSHEZ5ZTUTWB7P","","194","img/land5.png","74","194.89999997615814","1","1","1","2","0.8,0.2,0.2,0.2,0.8,0.2,0.2,0.2,0.8","0.8,0.2,0.2,0.2,0.8,0.2,0.2,0.2,0.8","1","",""
"","html-keyboard-response","55","60689","0.0-55.0","3634BBTX0PGDIQDH5NC9Y3CBVIFIF0","A1ATL3G98SFW4V","3YKP7CX6G21OU5MBQSHEZ5ZTUTWB7P","","null","<img src=""img/land5.png"" style=""width:200px; border:14px solid green;"">","null","","","","","","","","","",""
"","image-keyboard-response","56","60964","0.0-56.0","3634BBTX0PGDIQDH5NC9Y3CBVIFIF0","A1ATL3G98SFW4V","3YKP7CX6G21OU5MBQSHEZ5ZTUTWB7P","","272.7000000476837","img/land5.png","74","274.10000002384186","1","1","1","2","0.8,0.2,0.2,0.2,0.8,0.2,0.2,0.2,0.8","0.8,0.2,0.2,0.2,0.8,0.2,0.2,0.2,0.8","1","",""
"","html-keyboard-response","57","61266","0.0-57.0","3634BBTX0PGDIQDH5NC9Y3CBVIFIF0","A1ATL3G98SFW4V","3YKP7CX6G21OU5MBQSHEZ5ZTUTWB7P","","null","<img src=""img/land5.png"" style=""width:200px; border:14px solid green;"">","null","","","","","","","","","",""
"","image-keyboard-response","58","61427","0.0-58.0","3634BBTX0PGDIQDH5NC9Y3CBVIFIF0","A1ATL3G98SFW4V","3YKP7CX6G21OU5MBQSHEZ5ZTUTWB7P","","159.40000009536743","img/land5.png","74","160.70000004768372","1","1","1","2","0.8,0.2,0.2,0.2,0.8,0.2,0.2,0.2,0.8","0.8,0.2,0.2,0.2,0.8,0.2,0.2,0.2,0.8","1","",""
"","html-keyboard-response","59","61730","0.0-59.0","3634BBTX0PGDIQDH5NC9Y3CBVIFIF0","A1ATL3G98SFW4V","3YKP7CX6G21OU5MBQSHEZ5ZTUTWB7P","","null","<img src=""img/land5.png"" style=""width:200px; border:14px solid green;"">","null","","","","","","","","","",""
"","image-keyboard-response","60","61866","0.0-60.0","3634BBTX0PGDIQDH5NC9Y3CBVIFIF0","A1ATL3G98SFW4V","3YKP7CX6G21OU5MBQSHEZ5ZTUTWB7P","","134.89999997615814","img/land1.png","74","136.10000002384186","1","0","2","2","0.8,0.2,0.2,0.2,0.8,0.2,0.2,0.2,0.8","0.8,0.2,0.2,0.2,0.8,0.2,0.2,0.2,0.8","1","",""
"","html-keyboard-response","61","62168","0.0-61.0","3634BBTX0PGDIQDH5NC9Y3CBVIFIF0","A1ATL3G98SFW4V","3YKP7CX6G21OU5MBQSHEZ5ZTUTWB7P","","null","<img src=""img/land1.png"" style=""width:200px;border:14px solid red;"">","null","","","","","","","","","",""
"","image-keyboard-response","62","62964","0.0-62.0","3634BBTX0PGDIQDH5NC9Y3CBVIFIF0","A1ATL3G98SFW4V","3YKP7CX6G21OU5MBQSHEZ5ZTUTWB7P","","794.5","img/land5.png","74","795.5","1","0","1","2","0.8,0.2,0.2,0.2,0.8,0.2,0.2,0.2,0.8","0.8,0.2,0.2,0.2,0.8,0.2,0.2,0.2,0.8","1","",""
"","html-keyboard-response","63","63266","0.0-63.0","3634BBTX0PGDIQDH5NC9Y3CBVIFIF0","A1ATL3G98SFW4V","3YKP7CX6G21OU5MBQSHEZ5ZTUTWB7P","","null","<img src=""img/land5.png"" style=""width:200px;border:14px solid red;"">","null","","","","","","","","","",""
"","image-keyboard-response","64","64107","0.0-64.0","3634BBTX0PGDIQDH5NC9Y3CBVIFIF0","A1ATL3G98SFW4V","3YKP7CX6G21OU5MBQSHEZ5ZTUTWB7P","","839.2999999523163","img/land3.png","76","840.4000000953674","3","1","3","2","0.8,0.2,0.2,0.2,0.8,0.2,0.2,0.2,0.8","0.8,0.2,0.2,0.2,0.8,0.2,0.2,0.2,0.8","1","",""
"","html-keyboard-response","65","64408","0.0-65.0","3634BBTX0PGDIQDH5NC9Y3CBVIFIF0","A1ATL3G98SFW4V","3YKP7CX6G21OU5MBQSHEZ5ZTUTWB7P","","null","<img src=""img/land3.png"" style=""width:200px; border:14px solid green;"">","null","","","","","","","","","",""
"","image-keyboard-response","66","65404","0.0-66.0","3634BBTX0PGDIQDH5NC9Y3CBVIFIF0","A1ATL3G98SFW4V","3YKP7CX6G21OU5MBQSHEZ5ZTUTWB7P","","994.0999999046326","img/land1.png","75","995.5","2","1","2","2","0.8,0.2,0.2,0.2,0.8,0.2,0.2,0.2,0.8","0.8,0.2,0.2,0.2,0.8,0.2,0.2,0.2,0.8","1","",""
"","html-keyboard-response","67","65706","0.0-67.0","3634BBTX0PGDIQDH5NC9Y3CBVIFIF0","A1ATL3G98SFW4V","3YKP7CX6G21OU5MBQSHEZ5ZTUTWB7P","","null","<img src=""img/land1.png"" style=""width:200px; border:14px solid green;"">","null","","","","","","","","","",""
"","image-keyboard-response","68","66556","0.0-68.0","3634BBTX0PGDIQDH5NC9Y3CBVIFIF0","A1ATL3G98SFW4V","3YKP7CX6G21OU5MBQSHEZ5ZTUTWB7P","","848","img/land3.png","76","849.5","3","1","3","2","0.8,0.2,0.2,0.2,0.8,0.2,0.2,0.2,0.8","0.8,0.2,0.2,0.2,0.8,0.2,0.2,0.2,0.8","1","",""
"","html-keyboard-response","69","66859","0.0-69.0","3634BBTX0PGDIQDH5NC9Y3CBVIFIF0","A1ATL3G98SFW4V","3YKP7CX6G21OU5MBQSHEZ5ZTUTWB7P","","null","<img src=""img/land3.png"" style=""width:200px; border:14px solid green;"">","null","","","","","","","","","",""
"","image-keyboard-response","70","67292","0.0-70.0","3634BBTX0PGDIQDH5NC9Y3CBVIFIF0","A1ATL3G98SFW4V","3YKP7CX6G21OU5MBQSHEZ5ZTUTWB7P","","431.2999999523163","img/land3.png","76","432.6999999284744","3","1","3","2","0.8,0.2,0.2,0.2,0.8,0.2,0.2,0.2,0.8","0.8,0.2,0.2,0.2,0.8,0.2,0.2,0.2,0.8","1","",""
"","html-keyboard-response","71","67594","0.0-71.0","3634BBTX0PGDIQDH5NC9Y3CBVIFIF0","A1ATL3G98SFW4V","3YKP7CX6G21OU5MBQSHEZ5ZTUTWB7P","","null","<img src=""img/land3.png"" style=""width:200px; border:14px solid green;"">","null","","","","","","","","","",""
"","image-keyboard-response","72","68460","0.0-72.0","3634BBTX0PGDIQDH5NC9Y3CBVIFIF0","A1ATL3G98SFW4V","3YKP7CX6G21OU5MBQSHEZ5ZTUTWB7P","","864","img/land5.png","74","865.3999999761581","1","0","1","2","0.8,0.2,0.2,0.2,0.8,0.2,0.2,0.2,0.8","0.8,0.2,0.2,0.2,0.8,0.2,0.2,0.2,0.8","1","",""
"","html-keyboard-response","73","68762","0.0-73.0","3634BBTX0PGDIQDH5NC9Y3CBVIFIF0","A1ATL3G98SFW4V","3YKP7CX6G21OU5MBQSHEZ5ZTUTWB7P","","null","<img src=""img/land5.png"" style=""width:200px;border:14px solid red;"">","null","","","","","","","","","",""
"","image-keyboard-response","74","68995","0.0-74.0","3634BBTX0PGDIQDH5NC9Y3CBVIFIF0","A1ATL3G98SFW4V","3YKP7CX6G21OU5MBQSHEZ5ZTUTWB7P","","231.40000009536743","img/land1.png","74","232.5","1","0","2","2","0.8,0.2,0.2,0.2,0.8,0.2,0.2,0.2,0.8","0.8,0.2,0.2,0.2,0.8,0.2,0.2,0.2,0.8","1","",""
"","html-keyboard-response","75","69296","0.0-75.0","3634BBTX0PGDIQDH5NC9Y3CBVIFIF0","A1ATL3G98SFW4V","3YKP7CX6G21OU5MBQSHEZ5ZTUTWB7P","","null","<img src=""img/land1.png"" style=""width:200px;border:14px solid red;"">","null","","","","","","","","","",""
"","image-keyboard-response","76","69580","0.0-76.0","3634BBTX0PGDIQDH5NC9Y3CBVIFIF0","A1ATL3G98SFW4V","3YKP7CX6G21OU5MBQSHEZ5ZTUTWB7P","","282.3000000715256","img/land5.png","75","283.8000000715256","2","0","1","2","0.8,0.2,0.2,0.2,0.8,0.2,0.2,0.2,0.8","0.8,0.2,0.2,0.2,0.8,0.2,0.2,0.2,0.8","1","",""
"","html-keyboard-response","77","69883","0.0-77.0","3634BBTX0PGDIQDH5NC9Y3CBVIFIF0","A1ATL3G98SFW4V","3YKP7CX6G21OU5MBQSHEZ5ZTUTWB7P","","null","<img src=""img/land5.png"" style=""width:200px;border:14px solid red;"">","null","","","","","","","","","",""
"","image-keyboard-response","78","70492","0.0-78.0","3634BBTX0PGDIQDH5NC9Y3CBVIFIF0","A1ATL3G98SFW4V","3YKP7CX6G21OU5MBQSHEZ5ZTUTWB7P","","607.7999999523163","img/land5.png","74","609","1","1","1","2","0.8,0.2,0.2,0.2,0.8,0.2,0.2,0.2,0.8","0.8,0.2,0.2,0.2,0.8,0.2,0.2,0.2,0.8","1","",""
"","html-keyboard-response","79","70794","0.0-79.0","3634BBTX0PGDIQDH5NC9Y3CBVIFIF0","A1ATL3G98SFW4V","3YKP7CX6G21OU5MBQSHEZ5ZTUTWB7P","","null","<img src=""img/land5.png"" style=""width:200px; border:14px solid green;"">","null","","","","","","","","","",""
"","image-keyboard-response","80","71179","0.0-80.0","3634BBTX0PGDIQDH5NC9Y3CBVIFIF0","A1ATL3G98SFW4V","3YKP7CX6G21OU5MBQSHEZ5ZTUTWB7P","","383.39999997615814","img/land5.png","74","384.60000002384186","1","1","1","2","0.8,0.2,0.2,0.2,0.8,0.2,0.2,0.2,0.8","0.8,0.2,0.2,0.2,0.8,0.2,0.2,0.2,0.8","1","",""
"","html-keyboard-response","81","71480","0.0-81.0","3634BBTX0PGDIQDH5NC9Y3CBVIFIF0","A1ATL3G98SFW4V","3YKP7CX6G21OU5MBQSHEZ5ZTUTWB7P","","null","<img src=""img/land5.png"" style=""width:200px; border:14px solid green;"">","null","","","","","","","","","",""
"","image-keyboard-response","82","71659","0.0-82.0","3634BBTX0PGDIQDH5NC9Y3CBVIFIF0","A1ATL3G98SFW4V","3YKP7CX6G21OU5MBQSHEZ5ZTUTWB7P","","176.89999997615814","img/land3.png","74","178.70000004768372","1","1","3","2","0.8,0.2,0.2,0.2,0.8,0.2,0.2,0.2,0.8","0.8,0.2,0.2,0.2,0.8,0.2,0.2,0.2,0.8","1","",""
"","html-keyboard-response","83","71962","0.0-83.0","3634BBTX0PGDIQDH5NC9Y3CBVIFIF0","A1ATL3G98SFW4V","3YKP7CX6G21OU5MBQSHEZ5ZTUTWB7P","","null","<img src=""img/land3.png"" style=""width:200px; border:14px solid green;"">","null","","","","","","","","","",""
"","image-keyboard-response","84","72483","0.0-84.0","3634BBTX0PGDIQDH5NC9Y3CBVIFIF0","A1ATL3G98SFW4V","3YKP7CX6G21OU5MBQSHEZ5ZTUTWB7P","","520.1000000238419","img/land3.png","76","520.6000000238419","3","1","3","2","0.8,0.2,0.2,0.2,0.8,0.2,0.2,0.2,0.8","0.8,0.2,0.2,0.2,0.8,0.2,0.2,0.2,0.8","1","",""
"","html-keyboard-response","85","72788","0.0-85.0","3634BBTX0PGDIQDH5NC9Y3CBVIFIF0","A1ATL3G98SFW4V","3YKP7CX6G21OU5MBQSHEZ5ZTUTWB7P","","null","<img src=""img/land3.png"" style=""width:200px; border:14px solid green;"">","null","","","","","","","","","",""
"","image-keyboard-response","86","73540","0.0-86.0","3634BBTX0PGDIQDH5NC9Y3CBVIFIF0","A1ATL3G98SFW4V","3YKP7CX6G21OU5MBQSHEZ5ZTUTWB7P","","749.3000000715256","img/land5.png","74","750.8999999761581","1","1","1","2","0.8,0.2,0.2,0.2,0.8,0.2,0.2,0.2,0.8","0.8,0.2,0.2,0.2,0.8,0.2,0.2,0.2,0.8","1","",""
"","html-keyboard-response","87","73842","0.0-87.0","3634BBTX0PGDIQDH5NC9Y3CBVIFIF0","A1ATL3G98SFW4V","3YKP7CX6G21OU5MBQSHEZ5ZTUTWB7P","","null","<img src=""img/land5.png"" style=""width:200px; border:14px solid green;"">","null","","","","","","","","","",""
"","image-keyboard-response","88","74154","0.0-88.0","3634BBTX0PGDIQDH5NC9Y3CBVIFIF0","A1ATL3G98SFW4V","3YKP7CX6G21OU5MBQSHEZ5ZTUTWB7P","","311.5","img/land5.png","74","312","1","1","1","2","0.8,0.2,0.2,0.2,0.8,0.2,0.2,0.2,0.8","0.8,0.2,0.2,0.2,0.8,0.2,0.2,0.2,0.8","1","",""
"","html-keyboard-response","89","74456","0.0-89.0","3634BBTX0PGDIQDH5NC9Y3CBVIFIF0","A1ATL3G98SFW4V","3YKP7CX6G21OU5MBQSHEZ5ZTUTWB7P","","null","<img src=""img/land5.png"" style=""width:200px; border:14px solid green;"">","null","","","","","","","","","",""
"","image-keyboard-response","90","75067","0.0-90.0","3634BBTX0PGDIQDH5NC9Y3CBVIFIF0","A1ATL3G98SFW4V","3YKP7CX6G21OU5MBQSHEZ5ZTUTWB7P","","609.6999999284744","img/land3.png","76","611.2999999523163","3","1","3","2","0.8,0.2,0.2,0.2,0.8,0.2,0.2,0.2,0.8","0.8,0.2,0.2,0.2,0.8,0.2,0.2,0.2,0.8","1","",""
"","html-keyboard-response","91","75370","0.0-91.0","3634BBTX0PGDIQDH5NC9Y3CBVIFIF0","A1ATL3G98SFW4V","3YKP7CX6G21OU5MBQSHEZ5ZTUTWB7P","","null","<img src=""img/land3.png"" style=""width:200px; border:14px solid green;"">","null","","","","","","","","","",""
"","image-keyboard-response","92","76083","0.0-92.0","3634BBTX0PGDIQDH5NC9Y3CBVIFIF0","A1ATL3G98SFW4V","3YKP7CX6G21OU5MBQSHEZ5ZTUTWB7P","","710.7999999523163","img/land1.png","75","711.8999999761581","2","1","2","2","0.8,0.2,0.2,0.2,0.8,0.2,0.2,0.2,0.8","0.8,0.2,0.2,0.2,0.8,0.2,0.2,0.2,0.8","1","",""
"","html-keyboard-response","93","76384","0.0-93.0","3634BBTX0PGDIQDH5NC9Y3CBVIFIF0","A1ATL3G98SFW4V","3YKP7CX6G21OU5MBQSHEZ5ZTUTWB7P","","null","<img src=""img/land1.png"" style=""width:200px; border:14px solid green;"">","null","","","","","","","","","",""
"","image-keyboard-response","94","78108","0.0-94.0","3634BBTX0PGDIQDH5NC9Y3CBVIFIF0","A1ATL3G98SFW4V","3YKP7CX6G21OU5MBQSHEZ5ZTUTWB7P","","1722.3999999761581","img/land5.png","74","1723.7000000476837","1","1","1","2","0.8,0.2,0.2,0.2,0.8,0.2,0.2,0.2,0.8","0.8,0.2,0.2,0.2,0.8,0.2,0.2,0.2,0.8","1","",""
"","html-keyboard-response","95","78409","0.0-95.0","3634BBTX0PGDIQDH5NC9Y3CBVIFIF0","A1ATL3G98SFW4V","3YKP7CX6G21OU5MBQSHEZ5ZTUTWB7P","","null","<img src=""img/land5.png"" style=""width:200px; border:14px solid green;"">","null","","","","","","","","","",""
"","image-keyboard-response","96","78779","0.0-96.0","3634BBTX0PGDIQDH5NC9Y3CBVIFIF0","A1ATL3G98SFW4V","3YKP7CX6G21OU5MBQSHEZ5ZTUTWB7P","","369.2999999523163","img/land5.png","74","370.10000002384186","1","1","1","2","0.8,0.2,0.2,0.2,0.8,0.2,0.2,0.2,0.8","0.8,0.2,0.2,0.2,0.8,0.2,0.2,0.2,0.8","1","",""
"","html-keyboard-response","97","79082","0.0-97.0","3634BBTX0PGDIQDH5NC9Y3CBVIFIF0","A1ATL3G98SFW4V","3YKP7CX6G21OU5MBQSHEZ5ZTUTWB7P","","null","<img src=""img/land5.png"" style=""width:200px; border:14px solid green;"">","null","","","","","","","","","",""
"","image-keyboard-response","98","79404","0.0-98.0","3634BBTX0PGDIQDH5NC9Y3CBVIFIF0","A1ATL3G98SFW4V","3YKP7CX6G21OU5MBQSHEZ5ZTUTWB7P","","320.09999990463257","img/land5.png","74","321.59999990463257","1","1","1","2","0.8,0.2,0.2,0.2,0.8,0.2,0.2,0.2,0.8","0.8,0.2,0.2,0.2,0.8,0.2,0.2,0.2,0.8","1","",""
"","html-keyboard-response","99","79705","0.0-99.0","3634BBTX0PGDIQDH5NC9Y3CBVIFIF0","A1ATL3G98SFW4V","3YKP7CX6G21OU5MBQSHEZ5ZTUTWB7P","","null","<img src=""img/land5.png"" style=""width:200px; border:14px solid green;"">","null","","","","","","","","","",""
"","image-keyboard-response","100","79820","0.0-100.0","3634BBTX0PGDIQDH5NC9Y3CBVIFIF0","A1ATL3G98SFW4V","3YKP7CX6G21OU5MBQSHEZ5ZTUTWB7P","","112.39999997615814","img/land5.png","74","113.89999997615814","1","1","1","2","0.8,0.2,0.2,0.2,0.8,0.2,0.2,0.2,0.8","0.8,0.2,0.2,0.2,0.8,0.2,0.2,0.2,0.8","1","",""
"","html-keyboard-response","101","80122","0.0-101.0","3634BBTX0PGDIQDH5NC9Y3CBVIFIF0","A1ATL3G98SFW4V","3YKP7CX6G21OU5MBQSHEZ5ZTUTWB7P","","null","<img src=""img/land5.png"" style=""width:200px; border:14px solid green;"">","null","","","","","","","","","",""
"","image-keyboard-response","102","80466","0.0-102.0","3634BBTX0PGDIQDH5NC9Y3CBVIFIF0","A1ATL3G98SFW4V","3YKP7CX6G21OU5MBQSHEZ5ZTUTWB7P","","344","img/land5.png","74","344.2999999523163","1","1","1","2","0.8,0.2,0.2,0.2,0.8,0.2,0.2,0.2,0.8","0.8,0.2,0.2,0.2,0.8,0.2,0.2,0.2,0.8","1","",""
"","html-keyboard-response","103","80768","0.0-103.0","3634BBTX0PGDIQDH5NC9Y3CBVIFIF0","A1ATL3G98SFW4V","3YKP7CX6G21OU5MBQSHEZ5ZTUTWB7P","","null","<img src=""img/land5.png"" style=""width:200px; border:14px solid green;"">","null","","","","","","","","","",""
"","image-keyboard-response","104","81036","0.0-104.0","3634BBTX0PGDIQDH5NC9Y3CBVIFIF0","A1ATL3G98SFW4V","3YKP7CX6G21OU5MBQSHEZ5ZTUTWB7P","","266.09999990463257","img/land5.png","74","267.40000009536743","1","1","1","2","0.8,0.2,0.2,0.2,0.8,0.2,0.2,0.2,0.8","0.8,0.2,0.2,0.2,0.8,0.2,0.2,0.2,0.8","1","",""
"","html-keyboard-response","105","81338","0.0-105.0","3634BBTX0PGDIQDH5NC9Y3CBVIFIF0","A1ATL3G98SFW4V","3YKP7CX6G21OU5MBQSHEZ5ZTUTWB7P","","null","<img src=""img/land5.png"" style=""width:200px; border:14px solid green;"">","null","","","","","","","","","",""
"","image-keyboard-response","106","81460","0.0-106.0","3634BBTX0PGDIQDH5NC9Y3CBVIFIF0","A1ATL3G98SFW4V","3YKP7CX6G21OU5MBQSHEZ5ZTUTWB7P","","120.5","img/land3.png","74","121.89999997615814","1","1","3","2","0.8,0.2,0.2,0.2,0.8,0.2,0.2,0.2,0.8","0.8,0.2,0.2,0.2,0.8,0.2,0.2,0.2,0.8","1","",""
"","html-keyboard-response","107","81762","0.0-107.0","3634BBTX0PGDIQDH5NC9Y3CBVIFIF0","A1ATL3G98SFW4V","3YKP7CX6G21OU5MBQSHEZ5ZTUTWB7P","","null","<img src=""img/land3.png"" style=""width:200px; border:14px solid green;"">","null","","","","","","","","","",""
"","image-keyboard-response","108","82114","0.0-108.0","3634BBTX0PGDIQDH5NC9Y3CBVIFIF0","A1ATL3G98SFW4V","3YKP7CX6G21OU5MBQSHEZ5ZTUTWB7P","","351.10000002384186","img/land5.png","76","352.2999999523163","3","1","1","2","0.8,0.2,0.2,0.2,0.8,0.2,0.2,0.2,0.8","0.8,0.2,0.2,0.2,0.8,0.2,0.2,0.2,0.8","1","",""
"","html-keyboard-response","109","82415","0.0-109.0","3634BBTX0PGDIQDH5NC9Y3CBVIFIF0","A1ATL3G98SFW4V","3YKP7CX6G21OU5MBQSHEZ5ZTUTWB7P","","null","<img src=""img/land5.png"" style=""width:200px; border:14px solid green;"">","null","","","","","","","","","",""
"","image-keyboard-response","110","82620","0.0-110.0","3634BBTX0PGDIQDH5NC9Y3CBVIFIF0","A1ATL3G98SFW4V","3YKP7CX6G21OU5MBQSHEZ5ZTUTWB7P","","202.69999992847443","img/land5.png","74","204.09999990463257","1","1","1","2","0.8,0.2,0.2,0.2,0.8,0.2,0.2,0.2,0.8","0.8,0.2,0.2,0.2,0.8,0.2,0.2,0.2,0.8","1","",""
"","html-keyboard-response","111","82922","0.0-111.0","3634BBTX0PGDIQDH5NC9Y3CBVIFIF0","A1ATL3G98SFW4V","3YKP7CX6G21OU5MBQSHEZ5ZTUTWB7P","","null","<img src=""img/land5.png"" style=""width:200px; border:14px solid green;"">","null","","","","","","","","","",""
"","image-keyboard-response","112","83228","0.0-112.0","3634BBTX0PGDIQDH5NC9Y3CBVIFIF0","A1ATL3G98SFW4V","3YKP7CX6G21OU5MBQSHEZ5ZTUTWB7P","","304.1999999284744","img/land3.png","74","305.60000002384186","1","1","3","2","0.8,0.2,0.2,0.2,0.8,0.2,0.2,0.2,0.8","0.8,0.2,0.2,0.2,0.8,0.2,0.2,0.2,0.8","1","",""
"","html-keyboard-response","113","83531","0.0-113.0","3634BBTX0PGDIQDH5NC9Y3CBVIFIF0","A1ATL3G98SFW4V","3YKP7CX6G21OU5MBQSHEZ5ZTUTWB7P","","null","<img src=""img/land3.png"" style=""width:200px; border:14px solid green;"">","null","","","","","","","","","",""
"","image-keyboard-response","114","84219","0.0-114.0","3634BBTX0PGDIQDH5NC9Y3CBVIFIF0","A1ATL3G98SFW4V","3YKP7CX6G21OU5MBQSHEZ5ZTUTWB7P","","686.5","img/land1.png","75","687.8000000715256","2","0","2","2","0.8,0.2,0.2,0.2,0.8,0.2,0.2,0.2,0.8","0.8,0.2,0.2,0.2,0.8,0.2,0.2,0.2,0.8","1","",""
"","html-keyboard-response","115","84520","0.0-115.0","3634BBTX0PGDIQDH5NC9Y3CBVIFIF0","A1ATL3G98SFW4V","3YKP7CX6G21OU5MBQSHEZ5ZTUTWB7P","","null","<img src=""img/land1.png"" style=""width:200px;border:14px solid red;"">","null","","","","","","","","","",""
"","image-keyboard-response","116","85404","0.0-116.0","3634BBTX0PGDIQDH5NC9Y3CBVIFIF0","A1ATL3G98SFW4V","3YKP7CX6G21OU5MBQSHEZ5ZTUTWB7P","","881.7999999523163","img/land5.png","74","883.1999999284744","1","1","1","2","0.8,0.2,0.2,0.2,0.8,0.2,0.2,0.2,0.8","0.8,0.2,0.2,0.2,0.8,0.2,0.2,0.2,0.8","1","",""
"","html-keyboard-response","117","85705","0.0-117.0","3634BBTX0PGDIQDH5NC9Y3CBVIFIF0","A1ATL3G98SFW4V","3YKP7CX6G21OU5MBQSHEZ5ZTUTWB7P","","null","<img src=""img/land5.png"" style=""width:200px; border:14px solid green;"">","null","","","","","","","","","",""
"","image-keyboard-response","118","85963","0.0-118.0","3634BBTX0PGDIQDH5NC9Y3CBVIFIF0","A1ATL3G98SFW4V","3YKP7CX6G21OU5MBQSHEZ5ZTUTWB7P","","255.80000007152557","img/land5.png","74","256.90000009536743","1","1","1","2","0.8,0.2,0.2,0.2,0.8,0.2,0.2,0.2,0.8","0.8,0.2,0.2,0.2,0.8,0.2,0.2,0.2,0.8","1","",""
"","html-keyboard-response","119","86264","0.0-119.0","3634BBTX0PGDIQDH5NC9Y3CBVIFIF0","A1ATL3G98SFW4V","3YKP7CX6G21OU5MBQSHEZ5ZTUTWB7P","","null","<img src=""img/land5.png"" style=""width:200px; border:14px solid green;"">","null","","","","","","","","","",""
"","image-keyboard-response","120","86564","0.0-120.0","3634BBTX0PGDIQDH5NC9Y3CBVIFIF0","A1ATL3G98SFW4V","3YKP7CX6G21OU5MBQSHEZ5ZTUTWB7P","","299.10000002384186","img/land5.png","74","300","1","1","1","2","0.8,0.2,0.2,0.2,0.8,0.2,0.2,0.2,0.8","0.8,0.2,0.2,0.2,0.8,0.2,0.2,0.2,0.8","1","",""
"","html-keyboard-response","121","86867","0.0-121.0","3634BBTX0PGDIQDH5NC9Y3CBVIFIF0","A1ATL3G98SFW4V","3YKP7CX6G21OU5MBQSHEZ5ZTUTWB7P","","null","<img src=""img/land5.png"" style=""width:200px; border:14px solid green;"">","null","","","","","","","","","",""
"","image-keyboard-response","122","87147","0.0-122.0","3634BBTX0PGDIQDH5NC9Y3CBVIFIF0","A1ATL3G98SFW4V","3YKP7CX6G21OU5MBQSHEZ5ZTUTWB7P","","278.6999999284744","img/land5.png","74","280","1","1","1","2","0.8,0.2,0.2,0.2,0.8,0.2,0.2,0.2,0.8","0.8,0.2,0.2,0.2,0.8,0.2,0.2,0.2,0.8","1","",""
"","html-keyboard-response","123","87449","0.0-123.0","3634BBTX0PGDIQDH5NC9Y3CBVIFIF0","A1ATL3G98SFW4V","3YKP7CX6G21OU5MBQSHEZ5ZTUTWB7P","","null","<img src=""img/land5.png"" style=""width:200px; border:14px solid green;"">","null","","","","","","","","","",""
"","image-keyboard-response","124","87740","0.0-124.0","3634BBTX0PGDIQDH5NC9Y3CBVIFIF0","A1ATL3G98SFW4V","3YKP7CX6G21OU5MBQSHEZ5ZTUTWB7P","","288.59999990463257","img/land3.png","74","290","1","0","3","2","0.8,0.2,0.2,0.2,0.8,0.2,0.2,0.2,0.8","0.8,0.2,0.2,0.2,0.8,0.2,0.2,0.2,0.8","1","",""
"","html-keyboard-response","125","88042","0.0-125.0","3634BBTX0PGDIQDH5NC9Y3CBVIFIF0","A1ATL3G98SFW4V","3YKP7CX6G21OU5MBQSHEZ5ZTUTWB7P","","null","<img src=""img/land3.png"" style=""width:200px;border:14px solid red;"">","null","","","","","","","","","",""
"","image-keyboard-response","126","88524","0.0-126.0","3634BBTX0PGDIQDH5NC9Y3CBVIFIF0","A1ATL3G98SFW4V","3YKP7CX6G21OU5MBQSHEZ5ZTUTWB7P","","481","img/land3.png","76","481.7000000476837","3","1","3","2","0.8,0.2,0.2,0.2,0.8,0.2,0.2,0.2,0.8","0.8,0.2,0.2,0.2,0.8,0.2,0.2,0.2,0.8","1","",""
"","html-keyboard-response","127","88826","0.0-127.0","3634BBTX0PGDIQDH5NC9Y3CBVIFIF0","A1ATL3G98SFW4V","3YKP7CX6G21OU5MBQSHEZ5ZTUTWB7P","","null","<img src=""img/land3.png"" style=""width:200px; border:14px solid green;"">","null","","","","","","","","","",""
"","image-keyboard-response","128","90162","0.0-128.0","3634BBTX0PGDIQDH5NC9Y3CBVIFIF0","A1ATL3G98SFW4V","3YKP7CX6G21OU5MBQSHEZ5ZTUTWB7P","","1334.7999999523163","img/land5.png","74","1335.8999999761581","1","1","1","2","0.8,0.2,0.2,0.2,0.8,0.2,0.2,0.2,0.8","0.8,0.2,0.2,0.2,0.8,0.2,0.2,0.2,0.8","1","",""
"","html-keyboard-response","129","90463","0.0-129.0","3634BBTX0PGDIQDH5NC9Y3CBVIFIF0","A1ATL3G98SFW4V","3YKP7CX6G21OU5MBQSHEZ5ZTUTWB7P","","null","<img src=""img/land5.png"" style=""width:200px; border:14px solid green;"">","null","","","","","","","","","",""
"","image-keyboard-response","130","91164","0.0-130.0","3634BBTX0PGDIQDH5NC9Y3CBVIFIF0","A1ATL3G98SFW4V","3YKP7CX6G21OU5MBQSHEZ5ZTUTWB7P","","698.6000000238419","img/land3.png","76","700","3","1","3","2","0.8,0.2,0.2,0.2,0.8,0.2,0.2,0.2,0.8","0.8,0.2,0.2,0.2,0.8,0.2,0.2,0.2,0.8","1","",""
"","html-keyboard-response","131","91466","0.0-131.0","3634BBTX0PGDIQDH5NC9Y3CBVIFIF0","A1ATL3G98SFW4V","3YKP7CX6G21OU5MBQSHEZ5ZTUTWB7P","","null","<img src=""img/land3.png"" style=""width:200px; border:14px solid green;"">","null","","","","","","","","","",""
"","image-keyboard-response","132","92195","0.0-132.0","3634BBTX0PGDIQDH5NC9Y3CBVIFIF0","A1ATL3G98SFW4V","3YKP7CX6G21OU5MBQSHEZ5ZTUTWB7P","","727.1000000238419","img/land1.png","75","728.2999999523163","2","1","2","2","0.8,0.2,0.2,0.2,0.8,0.2,0.2,0.2,0.8","0.8,0.2,0.2,0.2,0.8,0.2,0.2,0.2,0.8","1","",""
"","html-keyboard-response","133","92498","0.0-133.0","3634BBTX0PGDIQDH5NC9Y3CBVIFIF0","A1ATL3G98SFW4V","3YKP7CX6G21OU5MBQSHEZ5ZTUTWB7P","","null","<img src=""img/land1.png"" style=""width:200px; border:14px solid green;"">","null","","","","","","","","","",""
"","image-keyboard-response","134","93244","0.0-134.0","3634BBTX0PGDIQDH5NC9Y3CBVIFIF0","A1ATL3G98SFW4V","3YKP7CX6G21OU5MBQSHEZ5ZTUTWB7P","","744.3999999761581","img/land3.png","76","745.6999999284744","3","1","3","2","0.8,0.2,0.2,0.2,0.8,0.2,0.2,0.2,0.8","0.8,0.2,0.2,0.2,0.8,0.2,0.2,0.2,0.8","1","",""
"","html-keyboard-response","135","93546","0.0-135.0","3634BBTX0PGDIQDH5NC9Y3CBVIFIF0","A1ATL3G98SFW4V","3YKP7CX6G21OU5MBQSHEZ5ZTUTWB7P","","null","<img src=""img/land3.png"" style=""width:200px; border:14px solid green;"">","null","","","","","","","","","",""
"","image-keyboard-response","136","94218","0.0-136.0","3634BBTX0PGDIQDH5NC9Y3CBVIFIF0","A1ATL3G98SFW4V","3YKP7CX6G21OU5MBQSHEZ5ZTUTWB7P","","670.5","img/land5.png","74","671.6000000238419","1","0","1","2","0.8,0.2,0.2,0.2,0.8,0.2,0.2,0.2,0.8","0.8,0.2,0.2,0.2,0.8,0.2,0.2,0.2,0.8","1","",""
"","html-keyboard-response","137","94519","0.0-137.0","3634BBTX0PGDIQDH5NC9Y3CBVIFIF0","A1ATL3G98SFW4V","3YKP7CX6G21OU5MBQSHEZ5ZTUTWB7P","","null","<img src=""img/land5.png"" style=""width:200px;border:14px solid red;"">","null","","","","","","","","","",""
"","image-keyboard-response","138","95148","0.0-138.0","3634BBTX0PGDIQDH5NC9Y3CBVIFIF0","A1ATL3G98SFW4V","3YKP7CX6G21OU5MBQSHEZ5ZTUTWB7P","","626.7999999523163","img/land1.png","76","628.0999999046326","3","0","2","2","0.8,0.2,0.2,0.2,0.8,0.2,0.2,0.2,0.8","0.8,0.2,0.2,0.2,0.8,0.2,0.2,0.2,0.8","1","",""
"","html-keyboard-response","139","95449","0.0-139.0","3634BBTX0PGDIQDH5NC9Y3CBVIFIF0","A1ATL3G98SFW4V","3YKP7CX6G21OU5MBQSHEZ5ZTUTWB7P","","null","<img src=""img/land1.png"" style=""width:200px;border:14px solid red;"">","null","","","","","","","","","",""
"","image-keyboard-response","140","95938","0.0-140.0","3634BBTX0PGDIQDH5NC9Y3CBVIFIF0","A1ATL3G98SFW4V","3YKP7CX6G21OU5MBQSHEZ5ZTUTWB7P","","487.5","img/land1.png","75","488.7000000476837","2","1","2","2","0.8,0.2,0.2,0.2,0.8,0.2,0.2,0.2,0.8","0.8,0.2,0.2,0.2,0.8,0.2,0.2,0.2,0.8","1","",""
"","html-keyboard-response","141","96240","0.0-141.0","3634BBTX0PGDIQDH5NC9Y3CBVIFIF0","A1ATL3G98SFW4V","3YKP7CX6G21OU5MBQSHEZ5ZTUTWB7P","","null","<img src=""img/land1.png"" style=""width:200px; border:14px solid green;"">","null","","","","","","","","","",""
"","image-keyboard-response","142","96996","0.0-142.0","3634BBTX0PGDIQDH5NC9Y3CBVIFIF0","A1ATL3G98SFW4V","3YKP7CX6G21OU5MBQSHEZ5ZTUTWB7P","","754.8999999761581","img/land5.png","74","755.6999999284744","1","1","1","2","0.8,0.2,0.2,0.2,0.8,0.2,0.2,0.2,0.8","0.8,0.2,0.2,0.2,0.8,0.2,0.2,0.2,0.8","1","",""
"","html-keyboard-response","143","97298","0.0-143.0","3634BBTX0PGDIQDH5NC9Y3CBVIFIF0","A1ATL3G98SFW4V","3YKP7CX6G21OU5MBQSHEZ5ZTUTWB7P","","null","<img src=""img/land5.png"" style=""width:200px; border:14px solid green;"">","null","","","","","","","","","",""
"","image-keyboard-response","144","97644","0.0-144.0","3634BBTX0PGDIQDH5NC9Y3CBVIFIF0","A1ATL3G98SFW4V","3YKP7CX6G21OU5MBQSHEZ5ZTUTWB7P","","344.2999999523163","img/land5.png","74","345.7999999523163","1","1","1","2","0.8,0.2,0.2,0.2,0.8,0.2,0.2,0.2,0.8","0.8,0.2,0.2,0.2,0.8,0.2,0.2,0.2,0.8","1","",""
"","html-keyboard-response","145","97947","0.0-145.0","3634BBTX0PGDIQDH5NC9Y3CBVIFIF0","A1ATL3G98SFW4V","3YKP7CX6G21OU5MBQSHEZ5ZTUTWB7P","","null","<img src=""img/land5.png"" style=""width:200px; border:14px solid green;"">","null","","","","","","","","","",""
"","image-keyboard-response","146","98258","0.0-146.0","3634BBTX0PGDIQDH5NC9Y3CBVIFIF0","A1ATL3G98SFW4V","3YKP7CX6G21OU5MBQSHEZ5ZTUTWB7P","","311.2999999523163","img/land5.png","74","311.89999997615814","1","1","1","2","0.8,0.2,0.2,0.2,0.8,0.2,0.2,0.2,0.8","0.8,0.2,0.2,0.2,0.8,0.2,0.2,0.2,0.8","1","",""
"","html-keyboard-response","147","98561","0.0-147.0","3634BBTX0PGDIQDH5NC9Y3CBVIFIF0","A1ATL3G98SFW4V","3YKP7CX6G21OU5MBQSHEZ5ZTUTWB7P","","null","<img src=""img/land5.png"" style=""width:200px; border:14px solid green;"">","null","","","","","","","","","",""
"","image-keyboard-response","148","99284","0.0-148.0","3634BBTX0PGDIQDH5NC9Y3CBVIFIF0","A1ATL3G98SFW4V","3YKP7CX6G21OU5MBQSHEZ5ZTUTWB7P","","722.2000000476837","img/land3.png","76","723.6000000238419","3","1","3","2","0.8,0.2,0.2,0.2,0.8,0.2,0.2,0.2,0.8","0.8,0.2,0.2,0.2,0.8,0.2,0.2,0.2,0.8","1","",""
"","html-keyboard-response","149","99587","0.0-149.0","3634BBTX0PGDIQDH5NC9Y3CBVIFIF0","A1ATL3G98SFW4V","3YKP7CX6G21OU5MBQSHEZ5ZTUTWB7P","","null","<img src=""img/land3.png"" style=""width:200px; border:14px solid green;"">","null","","","","","","","","","",""
"","image-keyboard-response","150","100163","0.0-150.0","3634BBTX0PGDIQDH5NC9Y3CBVIFIF0","A1ATL3G98SFW4V","3YKP7CX6G21OU5MBQSHEZ5ZTUTWB7P","","574.6999999284744","img/land5.png","74","575.7999999523163","1","1","1","2","0.8,0.2,0.2,0.2,0.8,0.2,0.2,0.2,0.8","0.8,0.2,0.2,0.2,0.8,0.2,0.2,0.2,0.8","1","",""
"","html-keyboard-response","151","100465","0.0-151.0","3634BBTX0PGDIQDH5NC9Y3CBVIFIF0","A1ATL3G98SFW4V","3YKP7CX6G21OU5MBQSHEZ5ZTUTWB7P","","null","<img src=""img/land5.png"" style=""width:200px; border:14px solid green;"">","null","","","","","","","","","",""
"","image-keyboard-response","152","101100","0.0-152.0","3634BBTX0PGDIQDH5NC9Y3CBVIFIF0","A1ATL3G98SFW4V","3YKP7CX6G21OU5MBQSHEZ5ZTUTWB7P","","632.8999999761581","img/land1.png","75","634","2","1","2","2","0.8,0.2,0.2,0.2,0.8,0.2,0.2,0.2,0.8","0.8,0.2,0.2,0.2,0.8,0.2,0.2,0.2,0.8","1","",""
"","html-keyboard-response","153","101402","0.0-153.0","3634BBTX0PGDIQDH5NC9Y3CBVIFIF0","A1ATL3G98SFW4V","3YKP7CX6G21OU5MBQSHEZ5ZTUTWB7P","","null","<img src=""img/land1.png"" style=""width:200px; border:14px solid green;"">","null","","","","","","","","","",""
"","image-keyboard-response","154","102075","0.0-154.0","3634BBTX0PGDIQDH5NC9Y3CBVIFIF0","A1ATL3G98SFW4V","3YKP7CX6G21OU5MBQSHEZ5ZTUTWB7P","","671.8999999761581","img/land5.png","74","673.1000000238419","1","1","1","2","0.8,0.2,0.2,0.2,0.8,0.2,0.2,0.2,0.8","0.8,0.2,0.2,0.2,0.8,0.2,0.2,0.2,0.8","1","",""
"","html-keyboard-response","155","102378","0.0-155.0","3634BBTX0PGDIQDH5NC9Y3CBVIFIF0","A1ATL3G98SFW4V","3YKP7CX6G21OU5MBQSHEZ5ZTUTWB7P","","null","<img src=""img/land5.png"" style=""width:200px; border:14px solid green;"">","null","","","","","","","","","",""
"","image-keyboard-response","156","103044","0.0-156.0","3634BBTX0PGDIQDH5NC9Y3CBVIFIF0","A1ATL3G98SFW4V","3YKP7CX6G21OU5MBQSHEZ5ZTUTWB7P","","665.2000000476837","img/land1.png","75","666.2000000476837","2","1","2","2","0.8,0.2,0.2,0.2,0.8,0.2,0.2,0.2,0.8","0.8,0.2,0.2,0.2,0.8,0.2,0.2,0.2,0.8","1","",""
"","html-keyboard-response","157","103348","0.0-157.0","3634BBTX0PGDIQDH5NC9Y3CBVIFIF0","A1ATL3G98SFW4V","3YKP7CX6G21OU5MBQSHEZ5ZTUTWB7P","","null","<img src=""img/land1.png"" style=""width:200px; border:14px solid green;"">","null","","","","","","","","","",""
"","image-keyboard-response","158","103947","0.0-158.0","3634BBTX0PGDIQDH5NC9Y3CBVIFIF0","A1ATL3G98SFW4V","3YKP7CX6G21OU5MBQSHEZ5ZTUTWB7P","","594.6999999284744","img/land1.png","75","596","2","1","2","2","0.8,0.2,0.2,0.2,0.8,0.2,0.2,0.2,0.8","0.8,0.2,0.2,0.2,0.8,0.2,0.2,0.2,0.8","1","",""
"","html-keyboard-response","159","104249","0.0-159.0","3634BBTX0PGDIQDH5NC9Y3CBVIFIF0","A1ATL3G98SFW4V","3YKP7CX6G21OU5MBQSHEZ5ZTUTWB7P","","null","<img src=""img/land1.png"" style=""width:200px; border:14px solid green;"">","null","","","","","","","","","",""
"","image-keyboard-response","160","104820","0.0-160.0","3634BBTX0PGDIQDH5NC9Y3CBVIFIF0","A1ATL3G98SFW4V","3YKP7CX6G21OU5MBQSHEZ5ZTUTWB7P","","568.8999999761581","img/land3.png","76","570.2999999523163","3","1","3","2","0.8,0.2,0.2,0.2,0.8,0.2,0.2,0.2,0.8","0.8,0.2,0.2,0.2,0.8,0.2,0.2,0.2,0.8","1","",""
"","html-keyboard-response","161","105122","0.0-161.0","3634BBTX0PGDIQDH5NC9Y3CBVIFIF0","A1ATL3G98SFW4V","3YKP7CX6G21OU5MBQSHEZ5ZTUTWB7P","","null","<img src=""img/land3.png"" style=""width:200px; border:14px solid green;"">","null","","","","","","","","","",""
"","image-keyboard-response","162","105595","0.0-162.0","3634BBTX0PGDIQDH5NC9Y3CBVIFIF0","A1ATL3G98SFW4V","3YKP7CX6G21OU5MBQSHEZ5ZTUTWB7P","","472","img/land3.png","76","473.2000000476837","3","0","3","2","0.8,0.2,0.2,0.2,0.8,0.2,0.2,0.2,0.8","0.8,0.2,0.2,0.2,0.8,0.2,0.2,0.2,0.8","1","",""
"","html-keyboard-response","163","105897","0.0-163.0","3634BBTX0PGDIQDH5NC9Y3CBVIFIF0","A1ATL3G98SFW4V","3YKP7CX6G21OU5MBQSHEZ5ZTUTWB7P","","null","<img src=""img/land3.png"" style=""width:200px;border:14px solid red;"">","null","","","","","","","","","",""
"","image-keyboard-response","164","106404","0.0-164.0","3634BBTX0PGDIQDH5NC9Y3CBVIFIF0","A1ATL3G98SFW4V","3YKP7CX6G21OU5MBQSHEZ5ZTUTWB7P","","505.7999999523163","img/land3.png","76","506.8000000715256","3","1","3","2","0.8,0.2,0.2,0.2,0.8,0.2,0.2,0.2,0.8","0.8,0.2,0.2,0.2,0.8,0.2,0.2,0.2,0.8","1","",""
"","html-keyboard-response","165","106707","0.0-165.0","3634BBTX0PGDIQDH5NC9Y3CBVIFIF0","A1ATL3G98SFW4V","3YKP7CX6G21OU5MBQSHEZ5ZTUTWB7P","","null","<img src=""img/land3.png"" style=""width:200px; border:14px solid green;"">","null","","","","","","","","","",""
"","image-keyboard-response","166","107332","0.0-166.0","3634BBTX0PGDIQDH5NC9Y3CBVIFIF0","A1ATL3G98SFW4V","3YKP7CX6G21OU5MBQSHEZ5ZTUTWB7P","","622.7999999523163","img/land5.png","74","624.2999999523163","1","0","1","2","0.8,0.2,0.2,0.2,0.8,0.2,0.2,0.2,0.8","0.8,0.2,0.2,0.2,0.8,0.2,0.2,0.2,0.8","1","",""
"","html-keyboard-response","167","107634","0.0-167.0","3634BBTX0PGDIQDH5NC9Y3CBVIFIF0","A1ATL3G98SFW4V","3YKP7CX6G21OU5MBQSHEZ5ZTUTWB7P","","null","<img src=""img/land5.png"" style=""width:200px;border:14px solid red;"">","null","","","","","","","","","",""
"","image-keyboard-response","168","107987","0.0-168.0","3634BBTX0PGDIQDH5NC9Y3CBVIFIF0","A1ATL3G98SFW4V","3YKP7CX6G21OU5MBQSHEZ5ZTUTWB7P","","351.5","img/land5.png","74","352.60000002384186","1","1","1","2","0.8,0.2,0.2,0.2,0.8,0.2,0.2,0.2,0.8","0.8,0.2,0.2,0.2,0.8,0.2,0.2,0.2,0.8","1","",""
"","html-keyboard-response","169","108289","0.0-169.0","3634BBTX0PGDIQDH5NC9Y3CBVIFIF0","A1ATL3G98SFW4V","3YKP7CX6G21OU5MBQSHEZ5ZTUTWB7P","","null","<img src=""img/land5.png"" style=""width:200px; border:14px solid green;"">","null","","","","","","","","","",""
"","image-keyboard-response","170","108508","0.0-170.0","3634BBTX0PGDIQDH5NC9Y3CBVIFIF0","A1ATL3G98SFW4V","3YKP7CX6G21OU5MBQSHEZ5ZTUTWB7P","","218.29999995231628","img/land5.png","74","219.19999992847443","1","1","1","2","0.8,0.2,0.2,0.2,0.8,0.2,0.2,0.2,0.8","0.8,0.2,0.2,0.2,0.8,0.2,0.2,0.2,0.8","1","",""
"","html-keyboard-response","171","108810","0.0-171.0","3634BBTX0PGDIQDH5NC9Y3CBVIFIF0","A1ATL3G98SFW4V","3YKP7CX6G21OU5MBQSHEZ5ZTUTWB7P","","null","<img src=""img/land5.png"" style=""width:200px; border:14px solid green;"">","null","","","","","","","","","",""
"","image-keyboard-response","172","109100","0.0-172.0","3634BBTX0PGDIQDH5NC9Y3CBVIFIF0","A1ATL3G98SFW4V","3YKP7CX6G21OU5MBQSHEZ5ZTUTWB7P","","287.60000002384186","img/land5.png","74","289.10000002384186","1","0","1","2","0.8,0.2,0.2,0.2,0.8,0.2,0.2,0.2,0.8","0.8,0.2,0.2,0.2,0.8,0.2,0.2,0.2,0.8","1","",""
"","html-keyboard-response","173","109401","0.0-173.0","3634BBTX0PGDIQDH5NC9Y3CBVIFIF0","A1ATL3G98SFW4V","3YKP7CX6G21OU5MBQSHEZ5ZTUTWB7P","","null","<img src=""img/land5.png"" style=""width:200px;border:14px solid red;"">","null","","","","","","","","","",""
"","image-keyboard-response","174","109708","0.0-174.0","3634BBTX0PGDIQDH5NC9Y3CBVIFIF0","A1ATL3G98SFW4V","3YKP7CX6G21OU5MBQSHEZ5ZTUTWB7P","","304.2999999523163","img/land5.png","74","305.7999999523163","1","1","1","2","0.8,0.2,0.2,0.2,0.8,0.2,0.2,0.2,0.8","0.8,0.2,0.2,0.2,0.8,0.2,0.2,0.2,0.8","1","",""
"","html-keyboard-response","175","110010","0.0-175.0","3634BBTX0PGDIQDH5NC9Y3CBVIFIF0","A1ATL3G98SFW4V","3YKP7CX6G21OU5MBQSHEZ5ZTUTWB7P","","null","<img src=""img/land5.png"" style=""width:200px; border:14px solid green;"">","null","","","","","","","","","",""
"","image-keyboard-response","176","110178","0.0-176.0","3634BBTX0PGDIQDH5NC9Y3CBVIFIF0","A1ATL3G98SFW4V","3YKP7CX6G21OU5MBQSHEZ5ZTUTWB7P","","168.39999997615814","img/land5.png","74","168.80000007152557","1","1","1","2","0.8,0.2,0.2,0.2,0.8,0.2,0.2,0.2,0.8","0.8,0.2,0.2,0.2,0.8,0.2,0.2,0.2,0.8","1","",""
"","html-keyboard-response","177","110480","0.0-177.0","3634BBTX0PGDIQDH5NC9Y3CBVIFIF0","A1ATL3G98SFW4V","3YKP7CX6G21OU5MBQSHEZ5ZTUTWB7P","","null","<img src=""img/land5.png"" style=""width:200px; border:14px solid green;"">","null","","","","","","","","","",""
"","image-keyboard-response","178","111012","0.0-178.0","3634BBTX0PGDIQDH5NC9Y3CBVIFIF0","A1ATL3G98SFW4V","3YKP7CX6G21OU5MBQSHEZ5ZTUTWB7P","","530.5999999046326","img/land1.png","75","531.6999999284744","2","1","2","2","0.8,0.2,0.2,0.2,0.8,0.2,0.2,0.2,0.8","0.8,0.2,0.2,0.2,0.8,0.2,0.2,0.2,0.8","1","",""
"","html-keyboard-response","179","111314","0.0-179.0","3634BBTX0PGDIQDH5NC9Y3CBVIFIF0","A1ATL3G98SFW4V","3YKP7CX6G21OU5MBQSHEZ5ZTUTWB7P","","null","<img src=""img/land1.png"" style=""width:200px; border:14px solid green;"">","null","","","","","","","","","",""
"","image-keyboard-response","180","111954","0.0-180.0","3634BBTX0PGDIQDH5NC9Y3CBVIFIF0","A1ATL3G98SFW4V","3YKP7CX6G21OU5MBQSHEZ5ZTUTWB7P","","639.2999999523163","img/land5.png","74","640.5","1","0","1","2","0.8,0.2,0.2,0.2,0.8,0.2,0.2,0.2,0.8","0.8,0.2,0.2,0.2,0.8,0.2,0.2,0.2,0.8","1","",""
"","html-keyboard-response","181","112256","0.0-181.0","3634BBTX0PGDIQDH5NC9Y3CBVIFIF0","A1ATL3G98SFW4V","3YKP7CX6G21OU5MBQSHEZ5ZTUTWB7P","","null","<img src=""img/land5.png"" style=""width:200px;border:14px solid red;"">","null","","","","","","","","","",""
"","image-keyboard-response","182","112595","0.0-182.0","3634BBTX0PGDIQDH5NC9Y3CBVIFIF0","A1ATL3G98SFW4V","3YKP7CX6G21OU5MBQSHEZ5ZTUTWB7P","","337.60000002384186","img/land5.png","74","338.8000000715256","1","1","1","2","0.8,0.2,0.2,0.2,0.8,0.2,0.2,0.2,0.8","0.8,0.2,0.2,0.2,0.8,0.2,0.2,0.2,0.8","1","",""
"","html-keyboard-response","183","112896","0.0-183.0","3634BBTX0PGDIQDH5NC9Y3CBVIFIF0","A1ATL3G98SFW4V","3YKP7CX6G21OU5MBQSHEZ5ZTUTWB7P","","null","<img src=""img/land5.png"" style=""width:200px; border:14px solid green;"">","null","","","","","","","","","",""
"","image-keyboard-response","184","113140","0.0-184.0","3634BBTX0PGDIQDH5NC9Y3CBVIFIF0","A1ATL3G98SFW4V","3YKP7CX6G21OU5MBQSHEZ5ZTUTWB7P","","241.89999997615814","img/land5.png","74","243.40000009536743","1","1","1","2","0.8,0.2,0.2,0.2,0.8,0.2,0.2,0.2,0.8","0.8,0.2,0.2,0.2,0.8,0.2,0.2,0.2,0.8","1","",""
"","html-keyboard-response","185","113443","0.0-185.0","3634BBTX0PGDIQDH5NC9Y3CBVIFIF0","A1ATL3G98SFW4V","3YKP7CX6G21OU5MBQSHEZ5ZTUTWB7P","","null","<img src=""img/land5.png"" style=""width:200px; border:14px solid green;"">","null","","","","","","","","","",""
"","image-keyboard-response","186","113564","0.0-186.0","3634BBTX0PGDIQDH5NC9Y3CBVIFIF0","A1ATL3G98SFW4V","3YKP7CX6G21OU5MBQSHEZ5ZTUTWB7P","","119.29999995231628","img/land5.png","74","120.59999990463257","1","1","1","2","0.8,0.2,0.2,0.2,0.8,0.2,0.2,0.2,0.8","0.8,0.2,0.2,0.2,0.8,0.2,0.2,0.2,0.8","1","",""
"","html-keyboard-response","187","113866","0.0-187.0","3634BBTX0PGDIQDH5NC9Y3CBVIFIF0","A1ATL3G98SFW4V","3YKP7CX6G21OU5MBQSHEZ5ZTUTWB7P","","null","<img src=""img/land5.png"" style=""width:200px; border:14px solid green;"">","null","","","","","","","","","",""
"","image-keyboard-response","188","114483","0.0-188.0","3634BBTX0PGDIQDH5NC9Y3CBVIFIF0","A1ATL3G98SFW4V","3YKP7CX6G21OU5MBQSHEZ5ZTUTWB7P","","616.2999999523163","img/land3.png","76","616.8000000715256","3","1","3","2","0.8,0.2,0.2,0.2,0.8,0.2,0.2,0.2,0.8","0.8,0.2,0.2,0.2,0.8,0.2,0.2,0.2,0.8","1","",""
"","html-keyboard-response","189","114785","0.0-189.0","3634BBTX0PGDIQDH5NC9Y3CBVIFIF0","A1ATL3G98SFW4V","3YKP7CX6G21OU5MBQSHEZ5ZTUTWB7P","","null","<img src=""img/land3.png"" style=""width:200px; border:14px solid green;"">","null","","","","","","","","","",""
"","image-keyboard-response","190","115476","0.0-190.0","3634BBTX0PGDIQDH5NC9Y3CBVIFIF0","A1ATL3G98SFW4V","3YKP7CX6G21OU5MBQSHEZ5ZTUTWB7P","","689.1000000238419","img/land5.png","74","690.5","1","1","1","2","0.8,0.2,0.2,0.2,0.8,0.2,0.2,0.2,0.8","0.8,0.2,0.2,0.2,0.8,0.2,0.2,0.2,0.8","1","",""
"","html-keyboard-response","191","115777","0.0-191.0","3634BBTX0PGDIQDH5NC9Y3CBVIFIF0","A1ATL3G98SFW4V","3YKP7CX6G21OU5MBQSHEZ5ZTUTWB7P","","null","<img src=""img/land5.png"" style=""width:200px; border:14px solid green;"">","null","","","","","","","","","",""
"","image-keyboard-response","192","116194","0.0-192.0","3634BBTX0PGDIQDH5NC9Y3CBVIFIF0","A1ATL3G98SFW4V","3YKP7CX6G21OU5MBQSHEZ5ZTUTWB7P","","415.5","img/land5.png","74","416.8000000715256","1","1","1","2","0.8,0.2,0.2,0.2,0.8,0.2,0.2,0.2,0.8","0.8,0.2,0.2,0.2,0.8,0.2,0.2,0.2,0.8","1","",""
"","html-keyboard-response","193","116495","0.0-193.0","3634BBTX0PGDIQDH5NC9Y3CBVIFIF0","A1ATL3G98SFW4V","3YKP7CX6G21OU5MBQSHEZ5ZTUTWB7P","","null","<img src=""img/land5.png"" style=""width:200px; border:14px solid green;"">","null","","","","","","","","","",""
"","image-keyboard-response","194","116884","0.0-194.0","3634BBTX0PGDIQDH5NC9Y3CBVIFIF0","A1ATL3G98SFW4V","3YKP7CX6G21OU5MBQSHEZ5ZTUTWB7P","","386.6999999284744","img/land5.png","74","388.09999990463257","1","1","1","2","0.8,0.2,0.2,0.2,0.8,0.2,0.2,0.2,0.8","0.8,0.2,0.2,0.2,0.8,0.2,0.2,0.2,0.8","1","",""
"","html-keyboard-response","195","117187","0.0-195.0","3634BBTX0PGDIQDH5NC9Y3CBVIFIF0","A1ATL3G98SFW4V","3YKP7CX6G21OU5MBQSHEZ5ZTUTWB7P","","null","<img src=""img/land5.png"" style=""width:200px; border:14px solid green;"">","null","","","","","","","","","",""
"","image-keyboard-response","196","117444","0.0-196.0","3634BBTX0PGDIQDH5NC9Y3CBVIFIF0","A1ATL3G98SFW4V","3YKP7CX6G21OU5MBQSHEZ5ZTUTWB7P","","255.39999997615814","img/land5.png","74","256.2999999523163","1","1","1","2","0.8,0.2,0.2,0.2,0.8,0.2,0.2,0.2,0.8","0.8,0.2,0.2,0.2,0.8,0.2,0.2,0.2,0.8","1","",""
"","html-keyboard-response","197","117746","0.0-197.0","3634BBTX0PGDIQDH5NC9Y3CBVIFIF0","A1ATL3G98SFW4V","3YKP7CX6G21OU5MBQSHEZ5ZTUTWB7P","","null","<img src=""img/land5.png"" style=""width:200px; border:14px solid green;"">","null","","","","","","","","","",""
"","image-keyboard-response","198","118011","0.0-198.0","3634BBTX0PGDIQDH5NC9Y3CBVIFIF0","A1ATL3G98SFW4V","3YKP7CX6G21OU5MBQSHEZ5ZTUTWB7P","","263.60000002384186","img/land1.png","74","264.40000009536743","1","0","2","2","0.8,0.2,0.2,0.2,0.8,0.2,0.2,0.2,0.8","0.8,0.2,0.2,0.2,0.8,0.2,0.2,0.2,0.8","1","",""
"","html-keyboard-response","199","118312","0.0-199.0","3634BBTX0PGDIQDH5NC9Y3CBVIFIF0","A1ATL3G98SFW4V","3YKP7CX6G21OU5MBQSHEZ5ZTUTWB7P","","null","<img src=""img/land1.png"" style=""width:200px;border:14px solid red;"">","null","","","","","","","","","",""
"","image-keyboard-response","200","118860","0.0-200.0","3634BBTX0PGDIQDH5NC9Y3CBVIFIF0","A1ATL3G98SFW4V","3YKP7CX6G21OU5MBQSHEZ5ZTUTWB7P","","545.6000000238419","img/land5.png","74","547.2999999523163","1","1","1","2","0.8,0.2,0.2,0.2,0.8,0.2,0.2,0.2,0.8","0.8,0.2,0.2,0.2,0.8,0.2,0.2,0.2,0.8","1","",""
"","html-keyboard-response","201","119163","0.0-201.0","3634BBTX0PGDIQDH5NC9Y3CBVIFIF0","A1ATL3G98SFW4V","3YKP7CX6G21OU5MBQSHEZ5ZTUTWB7P","","null","<img src=""img/land5.png"" style=""width:200px; border:14px solid green;"">","null","","","","","","","","","",""
"","image-keyboard-response","202","119764","0.0-202.0","3634BBTX0PGDIQDH5NC9Y3CBVIFIF0","A1ATL3G98SFW4V","3YKP7CX6G21OU5MBQSHEZ5ZTUTWB7P","","599.3999999761581","img/land3.png","76","600.7999999523163","3","1","3","2","0.8,0.2,0.2,0.2,0.8,0.2,0.2,0.2,0.8","0.8,0.2,0.2,0.2,0.8,0.2,0.2,0.2,0.8","1","",""
"","html-keyboard-response","203","120066","0.0-203.0","3634BBTX0PGDIQDH5NC9Y3CBVIFIF0","A1ATL3G98SFW4V","3YKP7CX6G21OU5MBQSHEZ5ZTUTWB7P","","null","<img src=""img/land3.png"" style=""width:200px; border:14px solid green;"">","null","","","","","","","","","",""
"","image-keyboard-response","204","120700","0.0-204.0","3634BBTX0PGDIQDH5NC9Y3CBVIFIF0","A1ATL3G98SFW4V","3YKP7CX6G21OU5MBQSHEZ5ZTUTWB7P","","632.5","img/land5.png","74","633.3999999761581","1","1","1","2","0.8,0.2,0.2,0.2,0.8,0.2,0.2,0.2,0.8","0.8,0.2,0.2,0.2,0.8,0.2,0.2,0.2,0.8","1","",""
"","html-keyboard-response","205","121001","0.0-205.0","3634BBTX0PGDIQDH5NC9Y3CBVIFIF0","A1ATL3G98SFW4V","3YKP7CX6G21OU5MBQSHEZ5ZTUTWB7P","","null","<img src=""img/land5.png"" style=""width:200px; border:14px solid green;"">","null","","","","","","","","","",""
"","image-keyboard-response","206","121348","0.0-206.0","3634BBTX0PGDIQDH5NC9Y3CBVIFIF0","A1ATL3G98SFW4V","3YKP7CX6G21OU5MBQSHEZ5ZTUTWB7P","","344.39999997615814","img/land5.png","74","346","1","1","1","2","0.8,0.2,0.2,0.2,0.8,0.2,0.2,0.2,0.8","0.8,0.2,0.2,0.2,0.8,0.2,0.2,0.2,0.8","1","",""
"","html-keyboard-response","207","121650","0.0-207.0","3634BBTX0PGDIQDH5NC9Y3CBVIFIF0","A1ATL3G98SFW4V","3YKP7CX6G21OU5MBQSHEZ5ZTUTWB7P","","null","<img src=""img/land5.png"" style=""width:200px; border:14px solid green;"">","null","","","","","","","","","",""
"","image-keyboard-response","208","122179","0.0-208.0","3634BBTX0PGDIQDH5NC9Y3CBVIFIF0","A1ATL3G98SFW4V","3YKP7CX6G21OU5MBQSHEZ5ZTUTWB7P","","527.5","img/land1.png","75","528.6999999284744","2","1","2","2","0.8,0.2,0.2,0.2,0.8,0.2,0.2,0.2,0.8","0.8,0.2,0.2,0.2,0.8,0.2,0.2,0.2,0.8","1","",""
"","html-keyboard-response","209","122480","0.0-209.0","3634BBTX0PGDIQDH5NC9Y3CBVIFIF0","A1ATL3G98SFW4V","3YKP7CX6G21OU5MBQSHEZ5ZTUTWB7P","","null","<img src=""img/land1.png"" style=""width:200px; border:14px solid green;"">","null","","","","","","","","","",""
"","image-keyboard-response","210","122860","0.0-210.0","3634BBTX0PGDIQDH5NC9Y3CBVIFIF0","A1ATL3G98SFW4V","3YKP7CX6G21OU5MBQSHEZ5ZTUTWB7P","","378.2000000476837","img/land1.png","75","379.2000000476837","2","1","2","2","0.8,0.2,0.2,0.2,0.8,0.2,0.2,0.2,0.8","0.8,0.2,0.2,0.2,0.8,0.2,0.2,0.2,0.8","1","",""
"","html-keyboard-response","211","123162","0.0-211.0","3634BBTX0PGDIQDH5NC9Y3CBVIFIF0","A1ATL3G98SFW4V","3YKP7CX6G21OU5MBQSHEZ5ZTUTWB7P","","null","<img src=""img/land1.png"" style=""width:200px; border:14px solid green;"">","null","","","","","","","","","",""
"","image-keyboard-response","212","123843","0.0-212.0","3634BBTX0PGDIQDH5NC9Y3CBVIFIF0","A1ATL3G98SFW4V","3YKP7CX6G21OU5MBQSHEZ5ZTUTWB7P","","679.6999999284744","img/land5.png","74","681.1000000238419","1","1","1","2","0.8,0.2,0.2,0.2,0.8,0.2,0.2,0.2,0.8","0.8,0.2,0.2,0.2,0.8,0.2,0.2,0.2,0.8","1","",""
"","html-keyboard-response","213","124145","0.0-213.0","3634BBTX0PGDIQDH5NC9Y3CBVIFIF0","A1ATL3G98SFW4V","3YKP7CX6G21OU5MBQSHEZ5ZTUTWB7P","","null","<img src=""img/land5.png"" style=""width:200px; border:14px solid green;"">","null","","","","","","","","","",""
"","image-keyboard-response","214","124483","0.0-214.0","3634BBTX0PGDIQDH5NC9Y3CBVIFIF0","A1ATL3G98SFW4V","3YKP7CX6G21OU5MBQSHEZ5ZTUTWB7P","","336.2999999523163","img/land5.png","74","337.60000002384186","1","1","1","2","0.8,0.2,0.2,0.2,0.8,0.2,0.2,0.2,0.8","0.8,0.2,0.2,0.2,0.8,0.2,0.2,0.2,0.8","1","",""
"","html-keyboard-response","215","124785","0.0-215.0","3634BBTX0PGDIQDH5NC9Y3CBVIFIF0","A1ATL3G98SFW4V","3YKP7CX6G21OU5MBQSHEZ5ZTUTWB7P","","null","<img src=""img/land5.png"" style=""width:200px; border:14px solid green;"">","null","","","","","","","","","",""
"","image-keyboard-response","216","125012","0.0-216.0","3634BBTX0PGDIQDH5NC9Y3CBVIFIF0","A1ATL3G98SFW4V","3YKP7CX6G21OU5MBQSHEZ5ZTUTWB7P","","225.29999995231628","img/land3.png","74","226.79999995231628","1","0","3","2","0.8,0.2,0.2,0.2,0.8,0.2,0.2,0.2,0.8","0.8,0.2,0.2,0.2,0.8,0.2,0.2,0.2,0.8","1","",""
"","html-keyboard-response","217","125328","0.0-217.0","3634BBTX0PGDIQDH5NC9Y3CBVIFIF0","A1ATL3G98SFW4V","3YKP7CX6G21OU5MBQSHEZ5ZTUTWB7P","","null","<img src=""img/land3.png"" style=""width:200px;border:14px solid red;"">","null","","","","","","","","","",""
"","image-keyboard-response","218","125898","0.0-218.0","3634BBTX0PGDIQDH5NC9Y3CBVIFIF0","A1ATL3G98SFW4V","3YKP7CX6G21OU5MBQSHEZ5ZTUTWB7P","","568.7999999523163","img/land5.png","74","570","1","1","1","2","0.8,0.2,0.2,0.2,0.8,0.2,0.2,0.2,0.8","0.8,0.2,0.2,0.2,0.8,0.2,0.2,0.2,0.8","1","",""
"","html-keyboard-response","219","126200","0.0-219.0","3634BBTX0PGDIQDH5NC9Y3CBVIFIF0","A1ATL3G98SFW4V","3YKP7CX6G21OU5MBQSHEZ5ZTUTWB7P","","null","<img src=""img/land5.png"" style=""width:200px; border:14px solid green;"">","null","","","","","","","","","",""
"","image-keyboard-response","220","126868","0.0-220.0","3634BBTX0PGDIQDH5NC9Y3CBVIFIF0","A1ATL3G98SFW4V","3YKP7CX6G21OU5MBQSHEZ5ZTUTWB7P","","666.8999999761581","img/land1.png","75","667.8999999761581","2","1","2","2","0.8,0.2,0.2,0.2,0.8,0.2,0.2,0.2,0.8","0.8,0.2,0.2,0.2,0.8,0.2,0.2,0.2,0.8","1","",""
"","html-keyboard-response","221","127170","0.0-221.0","3634BBTX0PGDIQDH5NC9Y3CBVIFIF0","A1ATL3G98SFW4V","3YKP7CX6G21OU5MBQSHEZ5ZTUTWB7P","","null","<img src=""img/land1.png"" style=""width:200px; border:14px solid green;"">","null","","","","","","","","","",""
"","image-keyboard-response","222","127851","0.0-222.0","3634BBTX0PGDIQDH5NC9Y3CBVIFIF0","A1ATL3G98SFW4V","3YKP7CX6G21OU5MBQSHEZ5ZTUTWB7P","","679.5","img/land5.png","74","680.7999999523163","1","1","1","2","0.8,0.2,0.2,0.2,0.8,0.2,0.2,0.2,0.8","0.8,0.2,0.2,0.2,0.8,0.2,0.2,0.2,0.8","1","",""
"","html-keyboard-response","223","128152","0.0-223.0","3634BBTX0PGDIQDH5NC9Y3CBVIFIF0","A1ATL3G98SFW4V","3YKP7CX6G21OU5MBQSHEZ5ZTUTWB7P","","null","<img src=""img/land5.png"" style=""width:200px; border:14px solid green;"">","null","","","","","","","","","",""
"","image-keyboard-response","224","129044","0.0-224.0","3634BBTX0PGDIQDH5NC9Y3CBVIFIF0","A1ATL3G98SFW4V","3YKP7CX6G21OU5MBQSHEZ5ZTUTWB7P","","891.2999999523163","img/land1.png","75","892","2","1","2","2","0.8,0.2,0.2,0.2,0.8,0.2,0.2,0.2,0.8","0.8,0.2,0.2,0.2,0.8,0.2,0.2,0.2,0.8","1","",""
"","html-keyboard-response","225","129346","0.0-225.0","3634BBTX0PGDIQDH5NC9Y3CBVIFIF0","A1ATL3G98SFW4V","3YKP7CX6G21OU5MBQSHEZ5ZTUTWB7P","","null","<img src=""img/land1.png"" style=""width:200px; border:14px solid green;"">","null","","","","","","","","","",""
"","image-keyboard-response","226","129947","0.0-226.0","3634BBTX0PGDIQDH5NC9Y3CBVIFIF0","A1ATL3G98SFW4V","3YKP7CX6G21OU5MBQSHEZ5ZTUTWB7P","","599.5","img/land5.png","74","600.6999999284744","1","1","1","2","0.8,0.2,0.2,0.2,0.8,0.2,0.2,0.2,0.8","0.8,0.2,0.2,0.2,0.8,0.2,0.2,0.2,0.8","1","",""
"","html-keyboard-response","227","130248","0.0-227.0","3634BBTX0PGDIQDH5NC9Y3CBVIFIF0","A1ATL3G98SFW4V","3YKP7CX6G21OU5MBQSHEZ5ZTUTWB7P","","null","<img src=""img/land5.png"" style=""width:200px; border:14px solid green;"">","null","","","","","","","","","",""
"","image-keyboard-response","228","130548","0.0-228.0","3634BBTX0PGDIQDH5NC9Y3CBVIFIF0","A1ATL3G98SFW4V","3YKP7CX6G21OU5MBQSHEZ5ZTUTWB7P","","297.7999999523163","img/land5.png","74","299.39999997615814","1","1","1","2","0.8,0.2,0.2,0.2,0.8,0.2,0.2,0.2,0.8","0.8,0.2,0.2,0.2,0.8,0.2,0.2,0.2,0.8","1","",""
"","html-keyboard-response","229","130850","0.0-229.0","3634BBTX0PGDIQDH5NC9Y3CBVIFIF0","A1ATL3G98SFW4V","3YKP7CX6G21OU5MBQSHEZ5ZTUTWB7P","","null","<img src=""img/land5.png"" style=""width:200px; border:14px solid green;"">","null","","","","","","","","","",""
"","image-keyboard-response","230","131156","0.0-230.0","3634BBTX0PGDIQDH5NC9Y3CBVIFIF0","A1ATL3G98SFW4V","3YKP7CX6G21OU5MBQSHEZ5ZTUTWB7P","","303.60000002384186","img/land5.png","74","305.10000002384186","1","1","1","2","0.8,0.2,0.2,0.2,0.8,0.2,0.2,0.2,0.8","0.8,0.2,0.2,0.2,0.8,0.2,0.2,0.2,0.8","1","",""
"","html-keyboard-response","231","131458","0.0-231.0","3634BBTX0PGDIQDH5NC9Y3CBVIFIF0","A1ATL3G98SFW4V","3YKP7CX6G21OU5MBQSHEZ5ZTUTWB7P","","null","<img src=""img/land5.png"" style=""width:200px; border:14px solid green;"">","null","","","","","","","","","",""
"","image-keyboard-response","232","131804","0.0-232.0","3634BBTX0PGDIQDH5NC9Y3CBVIFIF0","A1ATL3G98SFW4V","3YKP7CX6G21OU5MBQSHEZ5ZTUTWB7P","","344","img/land5.png","74","345.5","1","1","1","2","0.8,0.2,0.2,0.2,0.8,0.2,0.2,0.2,0.8","0.8,0.2,0.2,0.2,0.8,0.2,0.2,0.2,0.8","1","",""
"","html-keyboard-response","233","132106","0.0-233.0","3634BBTX0PGDIQDH5NC9Y3CBVIFIF0","A1ATL3G98SFW4V","3YKP7CX6G21OU5MBQSHEZ5ZTUTWB7P","","null","<img src=""img/land5.png"" style=""width:200px; border:14px solid green;"">","null","","","","","","","","","",""
"","image-keyboard-response","234","132788","0.0-234.0","3634BBTX0PGDIQDH5NC9Y3CBVIFIF0","A1ATL3G98SFW4V","3YKP7CX6G21OU5MBQSHEZ5ZTUTWB7P","","680.6000000238419","img/land3.png","76","681.6999999284744","3","1","3","2","0.8,0.2,0.2,0.2,0.8,0.2,0.2,0.2,0.8","0.8,0.2,0.2,0.2,0.8,0.2,0.2,0.2,0.8","1","",""
"","html-keyboard-response","235","133090","0.0-235.0","3634BBTX0PGDIQDH5NC9Y3CBVIFIF0","A1ATL3G98SFW4V","3YKP7CX6G21OU5MBQSHEZ5ZTUTWB7P","","null","<img src=""img/land3.png"" style=""width:200px; border:14px solid green;"">","null","","","","","","","","","",""
"","image-keyboard-response","236","133716","0.0-236.0","3634BBTX0PGDIQDH5NC9Y3CBVIFIF0","A1ATL3G98SFW4V","3YKP7CX6G21OU5MBQSHEZ5ZTUTWB7P","","624.6999999284744","img/land5.png","74","625.8000000715256","1","1","1","2","0.8,0.2,0.2,0.2,0.8,0.2,0.2,0.2,0.8","0.8,0.2,0.2,0.2,0.8,0.2,0.2,0.2,0.8","1","",""
"","html-keyboard-response","237","134018","0.0-237.0","3634BBTX0PGDIQDH5NC9Y3CBVIFIF0","A1ATL3G98SFW4V","3YKP7CX6G21OU5MBQSHEZ5ZTUTWB7P","","null","<img src=""img/land5.png"" style=""width:200px; border:14px solid green;"">","null","","","","","","","","","",""
"","image-keyboard-response","238","134396","0.0-238.0","3634BBTX0PGDIQDH5NC9Y3CBVIFIF0","A1ATL3G98SFW4V","3YKP7CX6G21OU5MBQSHEZ5ZTUTWB7P","","377.10000002384186","img/land5.png","74","378.2999999523163","1","1","1","2","0.8,0.2,0.2,0.2,0.8,0.2,0.2,0.2,0.8","0.8,0.2,0.2,0.2,0.8,0.2,0.2,0.2,0.8","1","",""
"","html-keyboard-response","239","134700","0.0-239.0","3634BBTX0PGDIQDH5NC9Y3CBVIFIF0","A1ATL3G98SFW4V","3YKP7CX6G21OU5MBQSHEZ5ZTUTWB7P","","null","<img src=""img/land5.png"" style=""width:200px; border:14px solid green;"">","null","","","","","","","","","",""
"","image-keyboard-response","240","134988","0.0-240.0","3634BBTX0PGDIQDH5NC9Y3CBVIFIF0","A1ATL3G98SFW4V","3YKP7CX6G21OU5MBQSHEZ5ZTUTWB7P","","286.39999997615814","img/land5.png","74","287.6999999284744","1","1","1","2","0.8,0.2,0.2,0.2,0.8,0.2,0.2,0.2,0.8","0.8,0.2,0.2,0.2,0.8,0.2,0.2,0.2,0.8","1","",""
"","html-keyboard-response","241","135290","0.0-241.0","3634BBTX0PGDIQDH5NC9Y3CBVIFIF0","A1ATL3G98SFW4V","3YKP7CX6G21OU5MBQSHEZ5ZTUTWB7P","","null","<img src=""img/land5.png"" style=""width:200px; border:14px solid green;"">","null","","","","","","","","","",""
"","image-keyboard-response","242","135476","0.0-242.0","3634BBTX0PGDIQDH5NC9Y3CBVIFIF0","A1ATL3G98SFW4V","3YKP7CX6G21OU5MBQSHEZ5ZTUTWB7P","","184.29999995231628","img/land1.png","74","185.60000002384186","1","0","2","2","0.8,0.2,0.2,0.2,0.8,0.2,0.2,0.2,0.8","0.8,0.2,0.2,0.2,0.8,0.2,0.2,0.2,0.8","1","",""
"","html-keyboard-response","243","135778","0.0-243.0","3634BBTX0PGDIQDH5NC9Y3CBVIFIF0","A1ATL3G98SFW4V","3YKP7CX6G21OU5MBQSHEZ5ZTUTWB7P","","null","<img src=""img/land1.png"" style=""width:200px;border:14px solid red;"">","null","","","","","","","","","",""
"","image-keyboard-response","244","136339","0.0-244.0","3634BBTX0PGDIQDH5NC9Y3CBVIFIF0","A1ATL3G98SFW4V","3YKP7CX6G21OU5MBQSHEZ5ZTUTWB7P","","559","img/land5.png","74","560.1999999284744","1","1","1","2","0.8,0.2,0.2,0.2,0.8,0.2,0.2,0.2,0.8","0.8,0.2,0.2,0.2,0.8,0.2,0.2,0.2,0.8","1","",""
"","html-keyboard-response","245","136640","0.0-245.0","3634BBTX0PGDIQDH5NC9Y3CBVIFIF0","A1ATL3G98SFW4V","3YKP7CX6G21OU5MBQSHEZ5ZTUTWB7P","","null","<img src=""img/land5.png"" style=""width:200px; border:14px solid green;"">","null","","","","","","","","","",""
"","image-keyboard-response","246","137004","0.0-246.0","3634BBTX0PGDIQDH5NC9Y3CBVIFIF0","A1ATL3G98SFW4V","3YKP7CX6G21OU5MBQSHEZ5ZTUTWB7P","","362.7000000476837","img/land5.png","74","363.60000002384186","1","0","1","2","0.8,0.2,0.2,0.2,0.8,0.2,0.2,0.2,0.8","0.8,0.2,0.2,0.2,0.8,0.2,0.2,0.2,0.8","1","",""
"","html-keyboard-response","247","137306","0.0-247.0","3634BBTX0PGDIQDH5NC9Y3CBVIFIF0","A1ATL3G98SFW4V","3YKP7CX6G21OU5MBQSHEZ5ZTUTWB7P","","null","<img src=""img/land5.png"" style=""width:200px;border:14px solid red;"">","null","","","","","","","","","",""
"","image-keyboard-response","248","138283","0.0-248.0","3634BBTX0PGDIQDH5NC9Y3CBVIFIF0","A1ATL3G98SFW4V","3YKP7CX6G21OU5MBQSHEZ5ZTUTWB7P","","975.4000000953674","img/land3.png","76","976.6000000238419","3","1","3","2","0.8,0.2,0.2,0.2,0.8,0.2,0.2,0.2,0.8","0.8,0.2,0.2,0.2,0.8,0.2,0.2,0.2,0.8","1","",""
"","html-keyboard-response","249","138584","0.0-249.0","3634BBTX0PGDIQDH5NC9Y3CBVIFIF0","A1ATL3G98SFW4V","3YKP7CX6G21OU5MBQSHEZ5ZTUTWB7P","","null","<img src=""img/land3.png"" style=""width:200px; border:14px solid green;"">","null","","","","","","","","","",""
"","image-keyboard-response","250","139436","0.0-250.0","3634BBTX0PGDIQDH5NC9Y3CBVIFIF0","A1ATL3G98SFW4V","3YKP7CX6G21OU5MBQSHEZ5ZTUTWB7P","","849.7999999523163","img/land5.png","74","851.0999999046326","1","1","1","2","0.8,0.2,0.2,0.2,0.8,0.2,0.2,0.2,0.8","0.8,0.2,0.2,0.2,0.8,0.2,0.2,0.2,0.8","1","",""
"","html-keyboard-response","251","139738","0.0-251.0","3634BBTX0PGDIQDH5NC9Y3CBVIFIF0","A1ATL3G98SFW4V","3YKP7CX6G21OU5MBQSHEZ5ZTUTWB7P","","null","<img src=""img/land5.png"" style=""width:200px; border:14px solid green;"">","null","","","","","","","","","",""
"","image-keyboard-response","252","140027","0.0-252.0","3634BBTX0PGDIQDH5NC9Y3CBVIFIF0","A1ATL3G98SFW4V","3YKP7CX6G21OU5MBQSHEZ5ZTUTWB7P","","287","img/land5.png","74","288","1","1","1","2","0.8,0.2,0.2,0.2,0.8,0.2,0.2,0.2,0.8","0.8,0.2,0.2,0.2,0.8,0.2,0.2,0.2,0.8","1","",""
"","html-keyboard-response","253","140328","0.0-253.0","3634BBTX0PGDIQDH5NC9Y3CBVIFIF0","A1ATL3G98SFW4V","3YKP7CX6G21OU5MBQSHEZ5ZTUTWB7P","","null","<img src=""img/land5.png"" style=""width:200px; border:14px solid green;"">","null","","","","","","","","","",""
"","image-keyboard-response","254","140844","0.0-254.0","3634BBTX0PGDIQDH5NC9Y3CBVIFIF0","A1ATL3G98SFW4V","3YKP7CX6G21OU5MBQSHEZ5ZTUTWB7P","","513.6000000238419","img/land1.png","75","515","2","1","2","2","0.8,0.2,0.2,0.2,0.8,0.2,0.2,0.2,0.8","0.8,0.2,0.2,0.2,0.8,0.2,0.2,0.2,0.8","1","",""
"","html-keyboard-response","255","141145","0.0-255.0","3634BBTX0PGDIQDH5NC9Y3CBVIFIF0","A1ATL3G98SFW4V","3YKP7CX6G21OU5MBQSHEZ5ZTUTWB7P","","null","<img src=""img/land1.png"" style=""width:200px; border:14px solid green;"">","null","","","","","","","","","",""
"","image-keyboard-response","256","141699","0.0-256.0","3634BBTX0PGDIQDH5NC9Y3CBVIFIF0","A1ATL3G98SFW4V","3YKP7CX6G21OU5MBQSHEZ5ZTUTWB7P","","552.1000000238419","img/land3.png","76","553.3000000715256","3","1","3","2","0.8,0.2,0.2,0.2,0.8,0.2,0.2,0.2,0.8","0.8,0.2,0.2,0.2,0.8,0.2,0.2,0.2,0.8","1","",""
"","html-keyboard-response","257","142000","0.0-257.0","3634BBTX0PGDIQDH5NC9Y3CBVIFIF0","A1ATL3G98SFW4V","3YKP7CX6G21OU5MBQSHEZ5ZTUTWB7P","","null","<img src=""img/land3.png"" style=""width:200px; border:14px solid green;"">","null","","","","","","","","","",""
"","image-keyboard-response","258","142652","0.0-258.0","3634BBTX0PGDIQDH5NC9Y3CBVIFIF0","A1ATL3G98SFW4V","3YKP7CX6G21OU5MBQSHEZ5ZTUTWB7P","","650.6999999284744","img/land5.png","74","651.5","1","1","1","2","0.8,0.2,0.2,0.2,0.8,0.2,0.2,0.2,0.8","0.8,0.2,0.2,0.2,0.8,0.2,0.2,0.2,0.8","1","",""
"","html-keyboard-response","259","142954","0.0-259.0","3634BBTX0PGDIQDH5NC9Y3CBVIFIF0","A1ATL3G98SFW4V","3YKP7CX6G21OU5MBQSHEZ5ZTUTWB7P","","null","<img src=""img/land5.png"" style=""width:200px; border:14px solid green;"">","null","","","","","","","","","",""
"","image-keyboard-response","260","144179","0.0-260.0","3634BBTX0PGDIQDH5NC9Y3CBVIFIF0","A1ATL3G98SFW4V","3YKP7CX6G21OU5MBQSHEZ5ZTUTWB7P","","1223.6000000238419","img/land5.png","74","1224.7999999523163","1","1","1","2","0.8,0.2,0.2,0.2,0.8,0.2,0.2,0.2,0.8","0.8,0.2,0.2,0.2,0.8,0.2,0.2,0.2,0.8","1","",""
"","html-keyboard-response","261","144481","0.0-261.0","3634BBTX0PGDIQDH5NC9Y3CBVIFIF0","A1ATL3G98SFW4V","3YKP7CX6G21OU5MBQSHEZ5ZTUTWB7P","","null","<img src=""img/land5.png"" style=""width:200px; border:14px solid green;"">","null","","","","","","","","","",""
"","image-keyboard-response","262","145204","0.0-262.0","3634BBTX0PGDIQDH5NC9Y3CBVIFIF0","A1ATL3G98SFW4V","3YKP7CX6G21OU5MBQSHEZ5ZTUTWB7P","","721.6999999284744","img/land3.png","76","723.1999999284744","3","1","3","2","0.8,0.2,0.2,0.2,0.8,0.2,0.2,0.2,0.8","0.8,0.2,0.2,0.2,0.8,0.2,0.2,0.2,0.8","1","",""
"","html-keyboard-response","263","145507","0.0-263.0","3634BBTX0PGDIQDH5NC9Y3CBVIFIF0","A1ATL3G98SFW4V","3YKP7CX6G21OU5MBQSHEZ5ZTUTWB7P","","null","<img src=""img/land3.png"" style=""width:200px; border:14px solid green;"">","null","","","","","","","","","",""
"","image-keyboard-response","264","146211","0.0-264.0","3634BBTX0PGDIQDH5NC9Y3CBVIFIF0","A1ATL3G98SFW4V","3YKP7CX6G21OU5MBQSHEZ5ZTUTWB7P","","702.3999999761581","img/land1.png","75","703.6000000238419","2","1","2","2","0.8,0.2,0.2,0.2,0.8,0.2,0.2,0.2,0.8","0.8,0.2,0.2,0.2,0.8,0.2,0.2,0.2,0.8","1","",""
"","html-keyboard-response","265","146512","0.0-265.0","3634BBTX0PGDIQDH5NC9Y3CBVIFIF0","A1ATL3G98SFW4V","3YKP7CX6G21OU5MBQSHEZ5ZTUTWB7P","","null","<img src=""img/land1.png"" style=""width:200px; border:14px solid green;"">","null","","","","","","","","","",""
"","image-keyboard-response","266","146900","0.0-266.0","3634BBTX0PGDIQDH5NC9Y3CBVIFIF0","A1ATL3G98SFW4V","3YKP7CX6G21OU5MBQSHEZ5ZTUTWB7P","","386.2000000476837","img/land1.png","75","387.1999999284744","2","0","2","2","0.8,0.2,0.2,0.2,0.8,0.2,0.2,0.2,0.8","0.8,0.2,0.2,0.2,0.8,0.2,0.2,0.2,0.8","1","",""
"","html-keyboard-response","267","147202","0.0-267.0","3634BBTX0PGDIQDH5NC9Y3CBVIFIF0","A1ATL3G98SFW4V","3YKP7CX6G21OU5MBQSHEZ5ZTUTWB7P","","null","<img src=""img/land1.png"" style=""width:200px;border:14px solid red;"">","null","","","","","","","","","",""
"","image-keyboard-response","268","147827","0.0-268.0","3634BBTX0PGDIQDH5NC9Y3CBVIFIF0","A1ATL3G98SFW4V","3YKP7CX6G21OU5MBQSHEZ5ZTUTWB7P","","623.0999999046326","img/land5.png","74","624.3999999761581","1","1","1","2","0.8,0.2,0.2,0.2,0.8,0.2,0.2,0.2,0.8","0.8,0.2,0.2,0.2,0.8,0.2,0.2,0.2,0.8","1","",""
"","html-keyboard-response","269","148129","0.0-269.0","3634BBTX0PGDIQDH5NC9Y3CBVIFIF0","A1ATL3G98SFW4V","3YKP7CX6G21OU5MBQSHEZ5ZTUTWB7P","","null","<img src=""img/land5.png"" style=""width:200px; border:14px solid green;"">","null","","","","","","","","","",""
"","image-keyboard-response","270","148508","0.0-270.0","3634BBTX0PGDIQDH5NC9Y3CBVIFIF0","A1ATL3G98SFW4V","3YKP7CX6G21OU5MBQSHEZ5ZTUTWB7P","","377.60000002384186","img/land5.png","74","378.39999997615814","1","1","1","2","0.8,0.2,0.2,0.2,0.8,0.2,0.2,0.2,0.8","0.8,0.2,0.2,0.2,0.8,0.2,0.2,0.2,0.8","1","",""
"","html-keyboard-response","271","148810","0.0-271.0","3634BBTX0PGDIQDH5NC9Y3CBVIFIF0","A1ATL3G98SFW4V","3YKP7CX6G21OU5MBQSHEZ5ZTUTWB7P","","null","<img src=""img/land5.png"" style=""width:200px; border:14px solid green;"">","null","","","","","","","","","",""
"","image-keyboard-response","272","149220","0.0-272.0","3634BBTX0PGDIQDH5NC9Y3CBVIFIF0","A1ATL3G98SFW4V","3YKP7CX6G21OU5MBQSHEZ5ZTUTWB7P","","407.89999997615814","img/land5.png","74","409.2999999523163","1","1","1","2","0.8,0.2,0.2,0.2,0.8,0.2,0.2,0.2,0.8","0.8,0.2,0.2,0.2,0.8,0.2,0.2,0.2,0.8","1","",""
"","html-keyboard-response","273","149531","0.0-273.0","3634BBTX0PGDIQDH5NC9Y3CBVIFIF0","A1ATL3G98SFW4V","3YKP7CX6G21OU5MBQSHEZ5ZTUTWB7P","","null","<img src=""img/land5.png"" style=""width:200px; border:14px solid green;"">","null","","","","","","","","","",""
"","image-keyboard-response","274","150058","0.0-274.0","3634BBTX0PGDIQDH5NC9Y3CBVIFIF0","A1ATL3G98SFW4V","3YKP7CX6G21OU5MBQSHEZ5ZTUTWB7P","","526.1000000238419","img/land3.png","76","527.2000000476837","3","1","3","2","0.8,0.2,0.2,0.2,0.8,0.2,0.2,0.2,0.8","0.8,0.2,0.2,0.2,0.8,0.2,0.2,0.2,0.8","1","",""
"","html-keyboard-response","275","150360","0.0-275.0","3634BBTX0PGDIQDH5NC9Y3CBVIFIF0","A1ATL3G98SFW4V","3YKP7CX6G21OU5MBQSHEZ5ZTUTWB7P","","null","<img src=""img/land3.png"" style=""width:200px; border:14px solid green;"">","null","","","","","","","","","",""
"","image-keyboard-response","276","151132","0.0-276.0","3634BBTX0PGDIQDH5NC9Y3CBVIFIF0","A1ATL3G98SFW4V","3YKP7CX6G21OU5MBQSHEZ5ZTUTWB7P","","770.7999999523163","img/land5.png","74","771.6999999284744","1","1","1","2","0.8,0.2,0.2,0.2,0.8,0.2,0.2,0.2,0.8","0.8,0.2,0.2,0.2,0.8,0.2,0.2,0.2,0.8","1","",""
"","html-keyboard-response","277","151434","0.0-277.0","3634BBTX0PGDIQDH5NC9Y3CBVIFIF0","A1ATL3G98SFW4V","3YKP7CX6G21OU5MBQSHEZ5ZTUTWB7P","","null","<img src=""img/land5.png"" style=""width:200px; border:14px solid green;"">","null","","","","","","","","","",""
"","image-keyboard-response","278","152203","0.0-278.0","3634BBTX0PGDIQDH5NC9Y3CBVIFIF0","A1ATL3G98SFW4V","3YKP7CX6G21OU5MBQSHEZ5ZTUTWB7P","","767.2000000476837","img/land1.png","75","768.2000000476837","2","1","2","2","0.8,0.2,0.2,0.2,0.8,0.2,0.2,0.2,0.8","0.8,0.2,0.2,0.2,0.8,0.2,0.2,0.2,0.8","1","",""
"","html-keyboard-response","279","152504","0.0-279.0","3634BBTX0PGDIQDH5NC9Y3CBVIFIF0","A1ATL3G98SFW4V","3YKP7CX6G21OU5MBQSHEZ5ZTUTWB7P","","null","<img src=""img/land1.png"" style=""width:200px; border:14px solid green;"">","null","","","","","","","","","",""
"","image-keyboard-response","280","153244","0.0-280.0","3634BBTX0PGDIQDH5NC9Y3CBVIFIF0","A1ATL3G98SFW4V","3YKP7CX6G21OU5MBQSHEZ5ZTUTWB7P","","738.8999999761581","img/land5.png","74","739.8000000715256","1","0","1","2","0.8,0.2,0.2,0.2,0.8,0.2,0.2,0.2,0.8","0.8,0.2,0.2,0.2,0.8,0.2,0.2,0.2,0.8","1","",""
"","html-keyboard-response","281","153547","0.0-281.0","3634BBTX0PGDIQDH5NC9Y3CBVIFIF0","A1ATL3G98SFW4V","3YKP7CX6G21OU5MBQSHEZ5ZTUTWB7P","","null","<img src=""img/land5.png"" style=""width:200px;border:14px solid red;"">","null","","","","","","","","","",""
"","image-keyboard-response","282","153970","0.0-282.0","3634BBTX0PGDIQDH5NC9Y3CBVIFIF0","A1ATL3G98SFW4V","3YKP7CX6G21OU5MBQSHEZ5ZTUTWB7P","","421.7000000476837","img/land5.png","74","422.90000009536743","1","1","1","2","0.8,0.2,0.2,0.2,0.8,0.2,0.2,0.2,0.8","0.8,0.2,0.2,0.2,0.8,0.2,0.2,0.2,0.8","1","",""
"","html-keyboard-response","283","154274","0.0-283.0","3634BBTX0PGDIQDH5NC9Y3CBVIFIF0","A1ATL3G98SFW4V","3YKP7CX6G21OU5MBQSHEZ5ZTUTWB7P","","null","<img src=""img/land5.png"" style=""width:200px; border:14px solid green;"">","null","","","","","","","","","",""
"","image-keyboard-response","284","155020","0.0-284.0","3634BBTX0PGDIQDH5NC9Y3CBVIFIF0","A1ATL3G98SFW4V","3YKP7CX6G21OU5MBQSHEZ5ZTUTWB7P","","744.7999999523163","img/land1.png","75","745.6999999284744","2","1","2","2","0.8,0.2,0.2,0.2,0.8,0.2,0.2,0.2,0.8","0.8,0.2,0.2,0.2,0.8,0.2,0.2,0.2,0.8","1","",""
"","html-keyboard-response","285","155322","0.0-285.0","3634BBTX0PGDIQDH5NC9Y3CBVIFIF0","A1ATL3G98SFW4V","3YKP7CX6G21OU5MBQSHEZ5ZTUTWB7P","","null","<img src=""img/land1.png"" style=""width:200px; border:14px solid green;"">","null","","","","","","","","","",""
"","image-keyboard-response","286","155716","0.0-286.0","3634BBTX0PGDIQDH5NC9Y3CBVIFIF0","A1ATL3G98SFW4V","3YKP7CX6G21OU5MBQSHEZ5ZTUTWB7P","","391.6999999284744","img/land1.png","75","393","2","1","2","2","0.8,0.2,0.2,0.2,0.8,0.2,0.2,0.2,0.8","0.8,0.2,0.2,0.2,0.8,0.2,0.2,0.2,0.8","1","",""
"","html-keyboard-response","287","156017","0.0-287.0","3634BBTX0PGDIQDH5NC9Y3CBVIFIF0","A1ATL3G98SFW4V","3YKP7CX6G21OU5MBQSHEZ5ZTUTWB7P","","null","<img src=""img/land1.png"" style=""width:200px; border:14px solid green;"">","null","","","","","","","","","",""
"","image-keyboard-response","288","156668","0.0-288.0","3634BBTX0PGDIQDH5NC9Y3CBVIFIF0","A1ATL3G98SFW4V","3YKP7CX6G21OU5MBQSHEZ5ZTUTWB7P","","649.6000000238419","img/land5.png","74","650.5","1","0","1","2","0.8,0.2,0.2,0.2,0.8,0.2,0.2,0.2,0.8","0.8,0.2,0.2,0.2,0.8,0.2,0.2,0.2,0.8","1","",""
"","html-keyboard-response","289","156970","0.0-289.0","3634BBTX0PGDIQDH5NC9Y3CBVIFIF0","A1ATL3G98SFW4V","3YKP7CX6G21OU5MBQSHEZ5ZTUTWB7P","","null","<img src=""img/land5.png"" style=""width:200px;border:14px solid red;"">","null","","","","","","","","","",""
"","image-keyboard-response","290","157140","0.0-290.0","3634BBTX0PGDIQDH5NC9Y3CBVIFIF0","A1ATL3G98SFW4V","3YKP7CX6G21OU5MBQSHEZ5ZTUTWB7P","","168.29999995231628","img/land5.png","74","169.69999992847443","1","1","1","2","0.8,0.2,0.2,0.2,0.8,0.2,0.2,0.2,0.8","0.8,0.2,0.2,0.2,0.8,0.2,0.2,0.2,0.8","1","",""
"","html-keyboard-response","291","157442","0.0-291.0","3634BBTX0PGDIQDH5NC9Y3CBVIFIF0","A1ATL3G98SFW4V","3YKP7CX6G21OU5MBQSHEZ5ZTUTWB7P","","null","<img src=""img/land5.png"" style=""width:200px; border:14px solid green;"">","null","","","","","","","","","",""
"","image-keyboard-response","292","157971","0.0-292.0","3634BBTX0PGDIQDH5NC9Y3CBVIFIF0","A1ATL3G98SFW4V","3YKP7CX6G21OU5MBQSHEZ5ZTUTWB7P","","527.3999999761581","img/land5.png","74","528.5","1","1","1","2","0.8,0.2,0.2,0.2,0.8,0.2,0.2,0.2,0.8","0.8,0.2,0.2,0.2,0.8,0.2,0.2,0.2,0.8","1","",""
"","html-keyboard-response","293","158272","0.0-293.0","3634BBTX0PGDIQDH5NC9Y3CBVIFIF0","A1ATL3G98SFW4V","3YKP7CX6G21OU5MBQSHEZ5ZTUTWB7P","","null","<img src=""img/land5.png"" style=""width:200px; border:14px solid green;"">","null","","","","","","","","","",""
"","image-keyboard-response","294","158603","0.0-294.0","3634BBTX0PGDIQDH5NC9Y3CBVIFIF0","A1ATL3G98SFW4V","3YKP7CX6G21OU5MBQSHEZ5ZTUTWB7P","","329.89999997615814","img/land5.png","74","330.40000009536743","1","1","1","2","0.8,0.2,0.2,0.2,0.8,0.2,0.2,0.2,0.8","0.8,0.2,0.2,0.2,0.8,0.2,0.2,0.2,0.8","1","",""
"","html-keyboard-response","295","158904","0.0-295.0","3634BBTX0PGDIQDH5NC9Y3CBVIFIF0","A1ATL3G98SFW4V","3YKP7CX6G21OU5MBQSHEZ5ZTUTWB7P","","null","<img src=""img/land5.png"" style=""width:200px; border:14px solid green;"">","null","","","","","","","","","",""
"","image-keyboard-response","296","159228","0.0-296.0","3634BBTX0PGDIQDH5NC9Y3CBVIFIF0","A1ATL3G98SFW4V","3YKP7CX6G21OU5MBQSHEZ5ZTUTWB7P","","322.2999999523163","img/land5.png","74","323.7999999523163","1","1","1","2","0.8,0.2,0.2,0.2,0.8,0.2,0.2,0.2,0.8","0.8,0.2,0.2,0.2,0.8,0.2,0.2,0.2,0.8","1","",""
"","html-keyboard-response","297","159530","0.0-297.0","3634BBTX0PGDIQDH5NC9Y3CBVIFIF0","A1ATL3G98SFW4V","3YKP7CX6G21OU5MBQSHEZ5ZTUTWB7P","","null","<img src=""img/land5.png"" style=""width:200px; border:14px solid green;"">","null","","","","","","","","","",""
"","image-keyboard-response","298","160227","0.0-298.0","3634BBTX0PGDIQDH5NC9Y3CBVIFIF0","A1ATL3G98SFW4V","3YKP7CX6G21OU5MBQSHEZ5ZTUTWB7P","","695.2999999523163","img/land1.png","75","696.5","2","1","2","2","0.8,0.2,0.2,0.2,0.8,0.2,0.2,0.2,0.8","0.8,0.2,0.2,0.2,0.8,0.2,0.2,0.2,0.8","1","",""
"","html-keyboard-response","299","160528","0.0-299.0","3634BBTX0PGDIQDH5NC9Y3CBVIFIF0","A1ATL3G98SFW4V","3YKP7CX6G21OU5MBQSHEZ5ZTUTWB7P","","null","<img src=""img/land1.png"" style=""width:200px; border:14px solid green;"">","null","","","","","","","","","",""
"","image-keyboard-response","300","161508","0.0-300.0","3634BBTX0PGDIQDH5NC9Y3CBVIFIF0","A1ATL3G98SFW4V","3YKP7CX6G21OU5MBQSHEZ5ZTUTWB7P","","978.2999999523163","img/land5.png","74","979.9000000953674","1","1","1","2","0.8,0.2,0.2,0.2,0.8,0.2,0.2,0.2,0.8","0.8,0.2,0.2,0.2,0.8,0.2,0.2,0.2,0.8","1","",""
"","html-keyboard-response","301","161810","0.0-301.0","3634BBTX0PGDIQDH5NC9Y3CBVIFIF0","A1ATL3G98SFW4V","3YKP7CX6G21OU5MBQSHEZ5ZTUTWB7P","","null","<img src=""img/land5.png"" style=""width:200px; border:14px solid green;"">","null","","","","","","","","","",""
"","image-keyboard-response","302","161906","0.0-302.0","3634BBTX0PGDIQDH5NC9Y3CBVIFIF0","A1ATL3G98SFW4V","3YKP7CX6G21OU5MBQSHEZ5ZTUTWB7P","","94.39999997615814","img/land2.png","74","95.5","1","0","3","1","0.8,0.2,0.2,0.2,0.8,0.2,0.2,0.2,0.8","0.8,0.2,0.2,0.2,0.8,0.2,0.2,0.2,0.8","1","",""
"","html-keyboard-response","303","162207","0.0-303.0","3634BBTX0PGDIQDH5NC9Y3CBVIFIF0","A1ATL3G98SFW4V","3YKP7CX6G21OU5MBQSHEZ5ZTUTWB7P","","null","<img src=""img/land2.png"" style=""width:200px;border:14px solid red;"">","null","","","","","","","","","",""
"","image-keyboard-response","304","163795","0.0-304.0","3634BBTX0PGDIQDH5NC9Y3CBVIFIF0","A1ATL3G98SFW4V","3YKP7CX6G21OU5MBQSHEZ5ZTUTWB7P","","1587.1000000238419","img/land4.png","75","1587.5","2","1","2","1","0.8,0.2,0.2,0.2,0.8,0.2,0.2,0.2,0.8","0.8,0.2,0.2,0.2,0.8,0.2,0.2,0.2,0.8","1","",""
"","html-keyboard-response","305","164095","0.0-305.0","3634BBTX0PGDIQDH5NC9Y3CBVIFIF0","A1ATL3G98SFW4V","3YKP7CX6G21OU5MBQSHEZ5ZTUTWB7P","","null","<img src=""img/land4.png"" style=""width:200px; border:14px solid green;"">","null","","","","","","","","","",""
"","image-keyboard-response","306","164931","0.0-306.0","3634BBTX0PGDIQDH5NC9Y3CBVIFIF0","A1ATL3G98SFW4V","3YKP7CX6G21OU5MBQSHEZ5ZTUTWB7P","","835.1000000238419","img/land2.png","75","835.6999999284744","2","0","3","1","0.8,0.2,0.2,0.2,0.8,0.2,0.2,0.2,0.8","0.8,0.2,0.2,0.2,0.8,0.2,0.2,0.2,0.8","1","",""
"","html-keyboard-response","307","165234","0.0-307.0","3634BBTX0PGDIQDH5NC9Y3CBVIFIF0","A1ATL3G98SFW4V","3YKP7CX6G21OU5MBQSHEZ5ZTUTWB7P","","null","<img src=""img/land2.png"" style=""width:200px;border:14px solid red;"">","null","","","","","","","","","",""
"","image-keyboard-response","308","166027","0.0-308.0","3634BBTX0PGDIQDH5NC9Y3CBVIFIF0","A1ATL3G98SFW4V","3YKP7CX6G21OU5MBQSHEZ5ZTUTWB7P","","792.1000000238419","img/land4.png","75","793.3999999761581","2","1","2","1","0.8,0.2,0.2,0.2,0.8,0.2,0.2,0.2,0.8","0.8,0.2,0.2,0.2,0.8,0.2,0.2,0.2,0.8","1","",""
"","html-keyboard-response","309","166329","0.0-309.0","3634BBTX0PGDIQDH5NC9Y3CBVIFIF0","A1ATL3G98SFW4V","3YKP7CX6G21OU5MBQSHEZ5ZTUTWB7P","","null","<img src=""img/land4.png"" style=""width:200px; border:14px solid green;"">","null","","","","","","","","","",""
"","image-keyboard-response","310","167660","0.0-310.0","3634BBTX0PGDIQDH5NC9Y3CBVIFIF0","A1ATL3G98SFW4V","3YKP7CX6G21OU5MBQSHEZ5ZTUTWB7P","","1328.6999999284744","img/land6.png","74","1330.1000000238419","1","1","1","1","0.8,0.2,0.2,0.2,0.8,0.2,0.2,0.2,0.8","0.8,0.2,0.2,0.2,0.8,0.2,0.2,0.2,0.8","1","",""
"","html-keyboard-response","311","167962","0.0-311.0","3634BBTX0PGDIQDH5NC9Y3CBVIFIF0","A1ATL3G98SFW4V","3YKP7CX6G21OU5MBQSHEZ5ZTUTWB7P","","null","<img src=""img/land6.png"" style=""width:200px; border:14px solid green;"">","null","","","","","","","","","",""
"","image-keyboard-response","312","168580","0.0-312.0","3634BBTX0PGDIQDH5NC9Y3CBVIFIF0","A1ATL3G98SFW4V","3YKP7CX6G21OU5MBQSHEZ5ZTUTWB7P","","616.6000000238419","img/land4.png","75","617.3999999761581","2","1","2","1","0.8,0.2,0.2,0.2,0.8,0.2,0.2,0.2,0.8","0.8,0.2,0.2,0.2,0.8,0.2,0.2,0.2,0.8","1","",""
"","html-keyboard-response","313","168882","0.0-313.0","3634BBTX0PGDIQDH5NC9Y3CBVIFIF0","A1ATL3G98SFW4V","3YKP7CX6G21OU5MBQSHEZ5ZTUTWB7P","","null","<img src=""img/land4.png"" style=""width:200px; border:14px solid green;"">","null","","","","","","","","","",""
"","image-keyboard-response","314","169420","0.0-314.0","3634BBTX0PGDIQDH5NC9Y3CBVIFIF0","A1ATL3G98SFW4V","3YKP7CX6G21OU5MBQSHEZ5ZTUTWB7P","","536.2999999523163","img/land6.png","74","537.8000000715256","1","0","1","1","0.8,0.2,0.2,0.2,0.8,0.2,0.2,0.2,0.8","0.8,0.2,0.2,0.2,0.8,0.2,0.2,0.2,0.8","1","",""
"","html-keyboard-response","315","169722","0.0-315.0","3634BBTX0PGDIQDH5NC9Y3CBVIFIF0","A1ATL3G98SFW4V","3YKP7CX6G21OU5MBQSHEZ5ZTUTWB7P","","null","<img src=""img/land6.png"" style=""width:200px;border:14px solid red;"">","null","","","","","","","","","",""
"","image-keyboard-response","316","169867","0.0-316.0","3634BBTX0PGDIQDH5NC9Y3CBVIFIF0","A1ATL3G98SFW4V","3YKP7CX6G21OU5MBQSHEZ5ZTUTWB7P","","143.29999995231628","img/land6.png","75","144.39999997615814","2","0","1","1","0.8,0.2,0.2,0.2,0.8,0.2,0.2,0.2,0.8","0.8,0.2,0.2,0.2,0.8,0.2,0.2,0.2,0.8","1","",""
"","html-keyboard-response","317","170169","0.0-317.0","3634BBTX0PGDIQDH5NC9Y3CBVIFIF0","A1ATL3G98SFW4V","3YKP7CX6G21OU5MBQSHEZ5ZTUTWB7P","","null","<img src=""img/land6.png"" style=""width:200px;border:14px solid red;"">","null","","","","","","","","","",""
"","image-keyboard-response","318","171052","0.0-318.0","3634BBTX0PGDIQDH5NC9Y3CBVIFIF0","A1ATL3G98SFW4V","3YKP7CX6G21OU5MBQSHEZ5ZTUTWB7P","","882.1000000238419","img/land4.png","75","882.8999999761581","2","1","2","1","0.8,0.2,0.2,0.2,0.8,0.2,0.2,0.2,0.8","0.8,0.2,0.2,0.2,0.8,0.2,0.2,0.2,0.8","1","",""
"","html-keyboard-response","319","171353","0.0-319.0","3634BBTX0PGDIQDH5NC9Y3CBVIFIF0","A1ATL3G98SFW4V","3YKP7CX6G21OU5MBQSHEZ5ZTUTWB7P","","null","<img src=""img/land4.png"" style=""width:200px; border:14px solid green;"">","null","","","","","","","","","",""
"","image-keyboard-response","320","172163","0.0-320.0","3634BBTX0PGDIQDH5NC9Y3CBVIFIF0","A1ATL3G98SFW4V","3YKP7CX6G21OU5MBQSHEZ5ZTUTWB7P","","808.5","img/land2.png","75","809.2000000476837","2","1","3","1","0.8,0.2,0.2,0.2,0.8,0.2,0.2,0.2,0.8","0.8,0.2,0.2,0.2,0.8,0.2,0.2,0.2,0.8","1","",""
"","html-keyboard-response","321","172464","0.0-321.0","3634BBTX0PGDIQDH5NC9Y3CBVIFIF0","A1ATL3G98SFW4V","3YKP7CX6G21OU5MBQSHEZ5ZTUTWB7P","","null","<img src=""img/land2.png"" style=""width:200px; border:14px solid green;"">","null","","","","","","","","","",""
"","image-keyboard-response","322","173268","0.0-322.0","3634BBTX0PGDIQDH5NC9Y3CBVIFIF0","A1ATL3G98SFW4V","3YKP7CX6G21OU5MBQSHEZ5ZTUTWB7P","","802.1000000238419","img/land6.png","75","803.5","2","0","1","1","0.8,0.2,0.2,0.2,0.8,0.2,0.2,0.2,0.8","0.8,0.2,0.2,0.2,0.8,0.2,0.2,0.2,0.8","1","",""
"","html-keyboard-response","323","173570","0.0-323.0","3634BBTX0PGDIQDH5NC9Y3CBVIFIF0","A1ATL3G98SFW4V","3YKP7CX6G21OU5MBQSHEZ5ZTUTWB7P","","null","<img src=""img/land6.png"" style=""width:200px;border:14px solid red;"">","null","","","","","","","","","",""
"","image-keyboard-response","324","175212","0.0-324.0","3634BBTX0PGDIQDH5NC9Y3CBVIFIF0","A1ATL3G98SFW4V","3YKP7CX6G21OU5MBQSHEZ5ZTUTWB7P","","1640.8999999761581","img/land4.png","75","1642","2","1","2","1","0.8,0.2,0.2,0.2,0.8,0.2,0.2,0.2,0.8","0.8,0.2,0.2,0.2,0.8,0.2,0.2,0.2,0.8","1","",""
"","html-keyboard-response","325","175514","0.0-325.0","3634BBTX0PGDIQDH5NC9Y3CBVIFIF0","A1ATL3G98SFW4V","3YKP7CX6G21OU5MBQSHEZ5ZTUTWB7P","","null","<img src=""img/land4.png"" style=""width:200px; border:14px solid green;"">","null","","","","","","","","","",""
"","image-keyboard-response","326","176195","0.0-326.0","3634BBTX0PGDIQDH5NC9Y3CBVIFIF0","A1ATL3G98SFW4V","3YKP7CX6G21OU5MBQSHEZ5ZTUTWB7P","","679.3000000715256","img/land2.png","75","680.5","2","0","3","1","0.8,0.2,0.2,0.2,0.8,0.2,0.2,0.2,0.8","0.8,0.2,0.2,0.2,0.8,0.2,0.2,0.2,0.8","1","",""
"","html-keyboard-response","327","176496","0.0-327.0","3634BBTX0PGDIQDH5NC9Y3CBVIFIF0","A1ATL3G98SFW4V","3YKP7CX6G21OU5MBQSHEZ5ZTUTWB7P","","null","<img src=""img/land2.png"" style=""width:200px;border:14px solid red;"">","null","","","","","","","","","",""
"","image-keyboard-response","328","177164","0.0-328.0","3634BBTX0PGDIQDH5NC9Y3CBVIFIF0","A1ATL3G98SFW4V","3YKP7CX6G21OU5MBQSHEZ5ZTUTWB7P","","666.7999999523163","img/land4.png","75","667.7999999523163","2","0","2","1","0.8,0.2,0.2,0.2,0.8,0.2,0.2,0.2,0.8","0.8,0.2,0.2,0.2,0.8,0.2,0.2,0.2,0.8","1","",""
"","html-keyboard-response","329","177466","0.0-329.0","3634BBTX0PGDIQDH5NC9Y3CBVIFIF0","A1ATL3G98SFW4V","3YKP7CX6G21OU5MBQSHEZ5ZTUTWB7P","","null","<img src=""img/land4.png"" style=""width:200px;border:14px solid red;"">","null","","","","","","","","","",""
"","image-keyboard-response","330","178163","0.0-330.0","3634BBTX0PGDIQDH5NC9Y3CBVIFIF0","A1ATL3G98SFW4V","3YKP7CX6G21OU5MBQSHEZ5ZTUTWB7P","","695.2000000476837","img/land4.png","76","696.4000000953674","3","0","2","1","0.8,0.2,0.2,0.2,0.8,0.2,0.2,0.2,0.8","0.8,0.2,0.2,0.2,0.8,0.2,0.2,0.2,0.8","1","",""
"","html-keyboard-response","331","178464","0.0-331.0","3634BBTX0PGDIQDH5NC9Y3CBVIFIF0","A1ATL3G98SFW4V","3YKP7CX6G21OU5MBQSHEZ5ZTUTWB7P","","null","<img src=""img/land4.png"" style=""width:200px;border:14px solid red;"">","null","","","","","","","","","",""
"","image-keyboard-response","332","179492","0.0-332.0","3634BBTX0PGDIQDH5NC9Y3CBVIFIF0","A1ATL3G98SFW4V","3YKP7CX6G21OU5MBQSHEZ5ZTUTWB7P","","1026.3000000715256","img/land6.png","74","1027.4000000953674","1","1","1","1","0.8,0.2,0.2,0.2,0.8,0.2,0.2,0.2,0.8","0.8,0.2,0.2,0.2,0.8,0.2,0.2,0.2,0.8","1","",""
"","html-keyboard-response","333","179794","0.0-333.0","3634BBTX0PGDIQDH5NC9Y3CBVIFIF0","A1ATL3G98SFW4V","3YKP7CX6G21OU5MBQSHEZ5ZTUTWB7P","","null","<img src=""img/land6.png"" style=""width:200px; border:14px solid green;"">","null","","","","","","","","","",""
"","image-keyboard-response","334","181228","0.0-334.0","3634BBTX0PGDIQDH5NC9Y3CBVIFIF0","A1ATL3G98SFW4V","3YKP7CX6G21OU5MBQSHEZ5ZTUTWB7P","","1433","img/land4.png","76","1433.9000000953674","3","0","2","1","0.8,0.2,0.2,0.2,0.8,0.2,0.2,0.2,0.8","0.8,0.2,0.2,0.2,0.8,0.2,0.2,0.2,0.8","1","",""
"","html-keyboard-response","335","181531","0.0-335.0","3634BBTX0PGDIQDH5NC9Y3CBVIFIF0","A1ATL3G98SFW4V","3YKP7CX6G21OU5MBQSHEZ5ZTUTWB7P","","null","<img src=""img/land4.png"" style=""width:200px;border:14px solid red;"">","null","","","","","","","","","",""
"","image-keyboard-response","336","182316","0.0-336.0","3634BBTX0PGDIQDH5NC9Y3CBVIFIF0","A1ATL3G98SFW4V","3YKP7CX6G21OU5MBQSHEZ5ZTUTWB7P","","784","img/land2.png","75","784.8999999761581","2","0","3","1","0.8,0.2,0.2,0.2,0.8,0.2,0.2,0.2,0.8","0.8,0.2,0.2,0.2,0.8,0.2,0.2,0.2,0.8","1","",""
"","html-keyboard-response","337","182626","0.0-337.0","3634BBTX0PGDIQDH5NC9Y3CBVIFIF0","A1ATL3G98SFW4V","3YKP7CX6G21OU5MBQSHEZ5ZTUTWB7P","","null","<img src=""img/land2.png"" style=""width:200px;border:14px solid red;"">","null","","","","","","","","","",""
"","image-keyboard-response","338","183500","0.0-338.0","3634BBTX0PGDIQDH5NC9Y3CBVIFIF0","A1ATL3G98SFW4V","3YKP7CX6G21OU5MBQSHEZ5ZTUTWB7P","","872","img/land4.png","74","873.5","1","1","2","1","0.8,0.2,0.2,0.2,0.8,0.2,0.2,0.2,0.8","0.8,0.2,0.2,0.2,0.8,0.2,0.2,0.2,0.8","1","",""
"","html-keyboard-response","339","183802","0.0-339.0","3634BBTX0PGDIQDH5NC9Y3CBVIFIF0","A1ATL3G98SFW4V","3YKP7CX6G21OU5MBQSHEZ5ZTUTWB7P","","null","<img src=""img/land4.png"" style=""width:200px; border:14px solid green;"">","null","","","","","","","","","",""
"","image-keyboard-response","340","184652","0.0-340.0","3634BBTX0PGDIQDH5NC9Y3CBVIFIF0","A1ATL3G98SFW4V","3YKP7CX6G21OU5MBQSHEZ5ZTUTWB7P","","848.2000000476837","img/land6.png","74","849.7000000476837","1","0","1","1","0.8,0.2,0.2,0.2,0.8,0.2,0.2,0.2,0.8","0.8,0.2,0.2,0.2,0.8,0.2,0.2,0.2,0.8","1","",""
"","html-keyboard-response","341","184955","0.0-341.0","3634BBTX0PGDIQDH5NC9Y3CBVIFIF0","A1ATL3G98SFW4V","3YKP7CX6G21OU5MBQSHEZ5ZTUTWB7P","","null","<img src=""img/land6.png"" style=""width:200px;border:14px solid red;"">","null","","","","","","","","","",""
"","image-keyboard-response","342","186147","0.0-342.0","3634BBTX0PGDIQDH5NC9Y3CBVIFIF0","A1ATL3G98SFW4V","3YKP7CX6G21OU5MBQSHEZ5ZTUTWB7P","","1190.4000000953674","img/land4.png","74","1191.6000000238419","1","0","2","1","0.8,0.2,0.2,0.2,0.8,0.2,0.2,0.2,0.8","0.8,0.2,0.2,0.2,0.8,0.2,0.2,0.2,0.8","1","",""
"","html-keyboard-response","343","186448","0.0-343.0","3634BBTX0PGDIQDH5NC9Y3CBVIFIF0","A1ATL3G98SFW4V","3YKP7CX6G21OU5MBQSHEZ5ZTUTWB7P","","null","<img src=""img/land4.png"" style=""width:200px;border:14px solid red;"">","null","","","","","","","","","",""
"","image-keyboard-response","344","186732","0.0-344.0","3634BBTX0PGDIQDH5NC9Y3CBVIFIF0","A1ATL3G98SFW4V","3YKP7CX6G21OU5MBQSHEZ5ZTUTWB7P","","281.7999999523163","img/land6.png","74","283.2999999523163","1","1","1","1","0.8,0.2,0.2,0.2,0.8,0.2,0.2,0.2,0.8","0.8,0.2,0.2,0.2,0.8,0.2,0.2,0.2,0.8","1","",""
"","html-keyboard-response","345","187034","0.0-345.0","3634BBTX0PGDIQDH5NC9Y3CBVIFIF0","A1ATL3G98SFW4V","3YKP7CX6G21OU5MBQSHEZ5ZTUTWB7P","","null","<img src=""img/land6.png"" style=""width:200px; border:14px solid green;"">","null","","","","","","","","","",""
"","image-keyboard-response","346","188299","0.0-346.0","3634BBTX0PGDIQDH5NC9Y3CBVIFIF0","A1ATL3G98SFW4V","3YKP7CX6G21OU5MBQSHEZ5ZTUTWB7P","","1263.1999999284744","img/land2.png","74","1264.2999999523163","1","0","3","1","0.8,0.2,0.2,0.2,0.8,0.2,0.2,0.2,0.8","0.8,0.2,0.2,0.2,0.8,0.2,0.2,0.2,0.8","1","",""
"","html-keyboard-response","347","188600","0.0-347.0","3634BBTX0PGDIQDH5NC9Y3CBVIFIF0","A1ATL3G98SFW4V","3YKP7CX6G21OU5MBQSHEZ5ZTUTWB7P","","null","<img src=""img/land2.png"" style=""width:200px;border:14px solid red;"">","null","","","","","","","","","",""
"","image-keyboard-response","348","189484","0.0-348.0","3634BBTX0PGDIQDH5NC9Y3CBVIFIF0","A1ATL3G98SFW4V","3YKP7CX6G21OU5MBQSHEZ5ZTUTWB7P","","883","img/land6.png","75","884","2","0","1","1","0.8,0.2,0.2,0.2,0.8,0.2,0.2,0.2,0.8","0.8,0.2,0.2,0.2,0.8,0.2,0.2,0.2,0.8","1","",""
"","html-keyboard-response","349","189786","0.0-349.0","3634BBTX0PGDIQDH5NC9Y3CBVIFIF0","A1ATL3G98SFW4V","3YKP7CX6G21OU5MBQSHEZ5ZTUTWB7P","","null","<img src=""img/land6.png"" style=""width:200px;border:14px solid red;"">","null","","","","","","","","","",""
"","image-keyboard-response","350","190147","0.0-350.0","3634BBTX0PGDIQDH5NC9Y3CBVIFIF0","A1ATL3G98SFW4V","3YKP7CX6G21OU5MBQSHEZ5ZTUTWB7P","","358.90000009536743","img/land6.png","76","360.10000002384186","3","1","1","1","0.8,0.2,0.2,0.2,0.8,0.2,0.2,0.2,0.8","0.8,0.2,0.2,0.2,0.8,0.2,0.2,0.2,0.8","1","",""
"","html-keyboard-response","351","190448","0.0-351.0","3634BBTX0PGDIQDH5NC9Y3CBVIFIF0","A1ATL3G98SFW4V","3YKP7CX6G21OU5MBQSHEZ5ZTUTWB7P","","null","<img src=""img/land6.png"" style=""width:200px; border:14px solid green;"">","null","","","","","","","","","",""
"","image-keyboard-response","352","191196","0.0-352.0","3634BBTX0PGDIQDH5NC9Y3CBVIFIF0","A1ATL3G98SFW4V","3YKP7CX6G21OU5MBQSHEZ5ZTUTWB7P","","745.6000000238419","img/land6.png","76","749.2000000476837","3","0","1","1","0.8,0.2,0.2,0.2,0.8,0.2,0.2,0.2,0.8","0.8,0.2,0.2,0.2,0.8,0.2,0.2,0.2,0.8","1","",""
"","html-keyboard-response","353","191501","0.0-353.0","3634BBTX0PGDIQDH5NC9Y3CBVIFIF0","A1ATL3G98SFW4V","3YKP7CX6G21OU5MBQSHEZ5ZTUTWB7P","","null","<img src=""img/land6.png"" style=""width:200px;border:14px solid red;"">","null","","","","","","","","","",""
"","image-keyboard-response","354","191788","0.0-354.0","3634BBTX0PGDIQDH5NC9Y3CBVIFIF0","A1ATL3G98SFW4V","3YKP7CX6G21OU5MBQSHEZ5ZTUTWB7P","","285.6999999284744","img/land6.png","76","287.09999990463257","3","1","1","1","0.8,0.2,0.2,0.2,0.8,0.2,0.2,0.2,0.8","0.8,0.2,0.2,0.2,0.8,0.2,0.2,0.2,0.8","1","",""
