"success","trial_type","trial_index","time_elapsed","internal_node_id","assignmentID","mturkID","hitID","view_history","rt","stimulus","key_press","reactionTime","a","r","s","cond","reward_cond","reward_cond_actual","reward_matrix_idx","responses","question_order"
"true","fullscreen","0","31362","0.0-0.0","3TOK3KHVJU4AZJ9ELZR2U8VG8DT7OX","A1BJFYHXK6YDX1","3THR0FZ95PF7SK0MYRNAOUHTWA4OLV","","","","","","","","","","","","","",""
"","instructions","1","41748","0.0-1.0","3TOK3KHVJU4AZJ9ELZR2U8VG8DT7OX","A1BJFYHXK6YDX1","3THR0FZ95PF7SK0MYRNAOUHTWA4OLV","[{""page_index"":0,""viewing_time"":1477.7000000476837},{""page_index"":1,""viewing_time"":1008.0999999642372},{""page_index"":2,""viewing_time"":449.80000001192093},{""page_index"":3,""viewing_time"":3510.699999988079},{""page_index"":4,""viewing_time"":1867.800000011921},{""page_index"":5,""viewing_time"":1170.300000011921},{""page_index"":6,""viewing_time"":899.8999999761581}]","10385","","","","","","","","","","","",""
"","image-keyboard-response","2","42887","0.0-2.0","3TOK3KHVJU4AZJ9ELZR2U8VG8DT7OX","A1BJFYHXK6YDX1","3THR0FZ95PF7SK0MYRNAOUHTWA4OLV","","1137.6000000238419","img/land1.png","74","1139.3999999761581","1","1","1","2","1,0.7,0.7,0.7,1,0.7,0.7,0.7,1","1,0.7,0.7,0.7,1,0.7,0.7,0.7,1","","",""
"","html-keyboard-response","3","43195","0.0-3.0","3TOK3KHVJU4AZJ9ELZR2U8VG8DT7OX","A1BJFYHXK6YDX1","3THR0FZ95PF7SK0MYRNAOUHTWA4OLV","","null","<img src=""img/land1.png"" style=""width:200px; border:14px solid green;"">","null","","","","","","","","","",""
"","image-keyboard-response","4","43846","0.0-4.0","3TOK3KHVJU4AZJ9ELZR2U8VG8DT7OX","A1BJFYHXK6YDX1","3THR0FZ95PF7SK0MYRNAOUHTWA4OLV","","649","img/land2.png","75","650.3000000119209","2","1","2","2","1,0.7,0.7,0.7,1,0.7,0.7,0.7,1","1,0.7,0.7,0.7,1,0.7,0.7,0.7,1","","",""
"","html-keyboard-response","5","44160","0.0-5.0","3TOK3KHVJU4AZJ9ELZR2U8VG8DT7OX","A1BJFYHXK6YDX1","3THR0FZ95PF7SK0MYRNAOUHTWA4OLV","","null","<img src=""img/land2.png"" style=""width:200px; border:14px solid green;"">","null","","","","","","","","","",""
"","image-keyboard-response","6","44710","0.0-6.0","3TOK3KHVJU4AZJ9ELZR2U8VG8DT7OX","A1BJFYHXK6YDX1","3THR0FZ95PF7SK0MYRNAOUHTWA4OLV","","548.1000000238419","img/land2.png","75","549.1999999880791","2","1","2","2","1,0.7,0.7,0.7,1,0.7,0.7,0.7,1","1,0.7,0.7,0.7,1,0.7,0.7,0.7,1","","",""
"","html-keyboard-response","7","45012","0.0-7.0","3TOK3KHVJU4AZJ9ELZR2U8VG8DT7OX","A1BJFYHXK6YDX1","3THR0FZ95PF7SK0MYRNAOUHTWA4OLV","","null","<img src=""img/land2.png"" style=""width:200px; border:14px solid green;"">","null","","","","","","","","","",""
"","image-keyboard-response","8","45358","0.0-8.0","3TOK3KHVJU4AZJ9ELZR2U8VG8DT7OX","A1BJFYHXK6YDX1","3THR0FZ95PF7SK0MYRNAOUHTWA4OLV","","344.80000001192093","img/land2.png","75","346","2","1","2","2","1,0.7,0.7,0.7,1,0.7,0.7,0.7,1","1,0.7,0.7,0.7,1,0.7,0.7,0.7,1","","",""
"","html-keyboard-response","9","45663","0.0-9.0","3TOK3KHVJU4AZJ9ELZR2U8VG8DT7OX","A1BJFYHXK6YDX1","3THR0FZ95PF7SK0MYRNAOUHTWA4OLV","","null","<img src=""img/land2.png"" style=""width:200px; border:14px solid green;"">","null","","","","","","","","","",""
"","image-keyboard-response","10","45962","0.0-10.0","3TOK3KHVJU4AZJ9ELZR2U8VG8DT7OX","A1BJFYHXK6YDX1","3THR0FZ95PF7SK0MYRNAOUHTWA4OLV","","297","img/land2.png","75","298.2999999523163","2","1","2","2","1,0.7,0.7,0.7,1,0.7,0.7,0.7,1","1,0.7,0.7,0.7,1,0.7,0.7,0.7,1","","",""
"","html-keyboard-response","11","46272","0.0-11.0","3TOK3KHVJU4AZJ9ELZR2U8VG8DT7OX","A1BJFYHXK6YDX1","3THR0FZ95PF7SK0MYRNAOUHTWA4OLV","","null","<img src=""img/land2.png"" style=""width:200px; border:14px solid green;"">","null","","","","","","","","","",""
"","image-keyboard-response","12","46598","0.0-12.0","3TOK3KHVJU4AZJ9ELZR2U8VG8DT7OX","A1BJFYHXK6YDX1","3THR0FZ95PF7SK0MYRNAOUHTWA4OLV","","324.60000002384186","img/land2.png","75","325.80000001192093","2","1","2","2","1,0.7,0.7,0.7,1,0.7,0.7,0.7,1","1,0.7,0.7,0.7,1,0.7,0.7,0.7,1","","",""
"","html-keyboard-response","13","46905","0.0-13.0","3TOK3KHVJU4AZJ9ELZR2U8VG8DT7OX","A1BJFYHXK6YDX1","3THR0FZ95PF7SK0MYRNAOUHTWA4OLV","","null","<img src=""img/land2.png"" style=""width:200px; border:14px solid green;"">","null","","","","","","","","","",""
"","image-keyboard-response","14","47541","0.0-14.0","3TOK3KHVJU4AZJ9ELZR2U8VG8DT7OX","A1BJFYHXK6YDX1","3THR0FZ95PF7SK0MYRNAOUHTWA4OLV","","635.2999999523163","img/land1.png","76","636.3000000119209","3","0","1","2","1,0.7,0.7,0.7,1,0.7,0.7,0.7,1","1,0.7,0.7,0.7,1,0.7,0.7,0.7,1","","",""
"","html-keyboard-response","15","47844","0.0-15.0","3TOK3KHVJU4AZJ9ELZR2U8VG8DT7OX","A1BJFYHXK6YDX1","3THR0FZ95PF7SK0MYRNAOUHTWA4OLV","","null","<img src=""img/land1.png"" style=""width:200px;border:14px solid red;"">","null","","","","","","","","","",""
"","image-keyboard-response","16","48686","0.0-16.0","3TOK3KHVJU4AZJ9ELZR2U8VG8DT7OX","A1BJFYHXK6YDX1","3THR0FZ95PF7SK0MYRNAOUHTWA4OLV","","839.5999999642372","img/land2.png","75","840.6999999880791","2","1","2","2","1,0.7,0.7,0.7,1,0.7,0.7,0.7,1","1,0.7,0.7,0.7,1,0.7,0.7,0.7,1","","",""
"","html-keyboard-response","17","48992","0.0-17.0","3TOK3KHVJU4AZJ9ELZR2U8VG8DT7OX","A1BJFYHXK6YDX1","3THR0FZ95PF7SK0MYRNAOUHTWA4OLV","","null","<img src=""img/land2.png"" style=""width:200px; border:14px solid green;"">","null","","","","","","","","","",""
"","image-keyboard-response","18","49285","0.0-18.0","3TOK3KHVJU4AZJ9ELZR2U8VG8DT7OX","A1BJFYHXK6YDX1","3THR0FZ95PF7SK0MYRNAOUHTWA4OLV","","291.30000001192093","img/land2.png","75","292.5999999642372","2","1","2","2","1,0.7,0.7,0.7,1,0.7,0.7,0.7,1","1,0.7,0.7,0.7,1,0.7,0.7,0.7,1","","",""
"","html-keyboard-response","19","49592","0.0-19.0","3TOK3KHVJU4AZJ9ELZR2U8VG8DT7OX","A1BJFYHXK6YDX1","3THR0FZ95PF7SK0MYRNAOUHTWA4OLV","","null","<img src=""img/land2.png"" style=""width:200px; border:14px solid green;"">","null","","","","","","","","","",""
"","image-keyboard-response","20","49839","0.0-20.0","3TOK3KHVJU4AZJ9ELZR2U8VG8DT7OX","A1BJFYHXK6YDX1","3THR0FZ95PF7SK0MYRNAOUHTWA4OLV","","245.80000001192093","img/land2.png","75","247.39999997615814","2","1","2","2","1,0.7,0.7,0.7,1,0.7,0.7,0.7,1","1,0.7,0.7,0.7,1,0.7,0.7,0.7,1","","",""
"","html-keyboard-response","21","50157","0.0-21.0","3TOK3KHVJU4AZJ9ELZR2U8VG8DT7OX","A1BJFYHXK6YDX1","3THR0FZ95PF7SK0MYRNAOUHTWA4OLV","","null","<img src=""img/land2.png"" style=""width:200px; border:14px solid green;"">","null","","","","","","","","","",""
"","image-keyboard-response","22","50734","0.0-22.0","3TOK3KHVJU4AZJ9ELZR2U8VG8DT7OX","A1BJFYHXK6YDX1","3THR0FZ95PF7SK0MYRNAOUHTWA4OLV","","575.8999999761581","img/land3.png","76","577.0999999642372","3","1","3","2","1,0.7,0.7,0.7,1,0.7,0.7,0.7,1","1,0.7,0.7,0.7,1,0.7,0.7,0.7,1","","",""
"","html-keyboard-response","23","51044","0.0-23.0","3TOK3KHVJU4AZJ9ELZR2U8VG8DT7OX","A1BJFYHXK6YDX1","3THR0FZ95PF7SK0MYRNAOUHTWA4OLV","","null","<img src=""img/land3.png"" style=""width:200px; border:14px solid green;"">","null","","","","","","","","","",""
"","image-keyboard-response","24","51710","0.0-24.0","3TOK3KHVJU4AZJ9ELZR2U8VG8DT7OX","A1BJFYHXK6YDX1","3THR0FZ95PF7SK0MYRNAOUHTWA4OLV","","664.6999999880791","img/land1.png","74","665.6999999880791","1","1","1","2","1,0.7,0.7,0.7,1,0.7,0.7,0.7,1","1,0.7,0.7,0.7,1,0.7,0.7,0.7,1","","",""
"","html-keyboard-response","25","52013","0.0-25.0","3TOK3KHVJU4AZJ9ELZR2U8VG8DT7OX","A1BJFYHXK6YDX1","3THR0FZ95PF7SK0MYRNAOUHTWA4OLV","","null","<img src=""img/land1.png"" style=""width:200px; border:14px solid green;"">","null","","","","","","","","","",""
"","image-keyboard-response","26","52667","0.0-26.0","3TOK3KHVJU4AZJ9ELZR2U8VG8DT7OX","A1BJFYHXK6YDX1","3THR0FZ95PF7SK0MYRNAOUHTWA4OLV","","653.6999999880791","img/land2.png","75","654.6000000238419","2","1","2","2","1,0.7,0.7,0.7,1,0.7,0.7,0.7,1","1,0.7,0.7,0.7,1,0.7,0.7,0.7,1","","",""
"","html-keyboard-response","27","52975","0.0-27.0","3TOK3KHVJU4AZJ9ELZR2U8VG8DT7OX","A1BJFYHXK6YDX1","3THR0FZ95PF7SK0MYRNAOUHTWA4OLV","","null","<img src=""img/land2.png"" style=""width:200px; border:14px solid green;"">","null","","","","","","","","","",""
"","image-keyboard-response","28","53590","0.0-28.0","3TOK3KHVJU4AZJ9ELZR2U8VG8DT7OX","A1BJFYHXK6YDX1","3THR0FZ95PF7SK0MYRNAOUHTWA4OLV","","613.5","img/land1.png","76","614.5999999642372","3","0","1","2","1,0.7,0.7,0.7,1,0.7,0.7,0.7,1","1,0.7,0.7,0.7,1,0.7,0.7,0.7,1","","",""
"","html-keyboard-response","29","53895","0.0-29.0","3TOK3KHVJU4AZJ9ELZR2U8VG8DT7OX","A1BJFYHXK6YDX1","3THR0FZ95PF7SK0MYRNAOUHTWA4OLV","","null","<img src=""img/land1.png"" style=""width:200px;border:14px solid red;"">","null","","","","","","","","","",""
"","image-keyboard-response","30","54437","0.0-30.0","3TOK3KHVJU4AZJ9ELZR2U8VG8DT7OX","A1BJFYHXK6YDX1","3THR0FZ95PF7SK0MYRNAOUHTWA4OLV","","541.1000000238419","img/land1.png","74","542","1","1","1","2","1,0.7,0.7,0.7,1,0.7,0.7,0.7,1","1,0.7,0.7,0.7,1,0.7,0.7,0.7,1","","",""
"","html-keyboard-response","31","54751","0.0-31.0","3TOK3KHVJU4AZJ9ELZR2U8VG8DT7OX","A1BJFYHXK6YDX1","3THR0FZ95PF7SK0MYRNAOUHTWA4OLV","","null","<img src=""img/land1.png"" style=""width:200px; border:14px solid green;"">","null","","","","","","","","","",""
"","image-keyboard-response","32","55347","0.0-32.0","3TOK3KHVJU4AZJ9ELZR2U8VG8DT7OX","A1BJFYHXK6YDX1","3THR0FZ95PF7SK0MYRNAOUHTWA4OLV","","593.3000000119209","img/land2.png","75","595.6999999880791","2","1","2","2","1,0.7,0.7,0.7,1,0.7,0.7,0.7,1","1,0.7,0.7,0.7,1,0.7,0.7,0.7,1","","",""
"","html-keyboard-response","33","55652","0.0-33.0","3TOK3KHVJU4AZJ9ELZR2U8VG8DT7OX","A1BJFYHXK6YDX1","3THR0FZ95PF7SK0MYRNAOUHTWA4OLV","","null","<img src=""img/land2.png"" style=""width:200px; border:14px solid green;"">","null","","","","","","","","","",""
"","image-keyboard-response","34","56059","0.0-34.0","3TOK3KHVJU4AZJ9ELZR2U8VG8DT7OX","A1BJFYHXK6YDX1","3THR0FZ95PF7SK0MYRNAOUHTWA4OLV","","405.69999998807907","img/land2.png","75","406.89999997615814","2","1","2","2","1,0.7,0.7,0.7,1,0.7,0.7,0.7,1","1,0.7,0.7,0.7,1,0.7,0.7,0.7,1","","",""
"","html-keyboard-response","35","56362","0.0-35.0","3TOK3KHVJU4AZJ9ELZR2U8VG8DT7OX","A1BJFYHXK6YDX1","3THR0FZ95PF7SK0MYRNAOUHTWA4OLV","","null","<img src=""img/land2.png"" style=""width:200px; border:14px solid green;"">","null","","","","","","","","","",""
"","image-keyboard-response","36","56714","0.0-36.0","3TOK3KHVJU4AZJ9ELZR2U8VG8DT7OX","A1BJFYHXK6YDX1","3THR0FZ95PF7SK0MYRNAOUHTWA4OLV","","350.69999998807907","img/land2.png","75","351.80000001192093","2","1","2","2","1,0.7,0.7,0.7,1,0.7,0.7,0.7,1","1,0.7,0.7,0.7,1,0.7,0.7,0.7,1","","",""
"","html-keyboard-response","37","57020","0.0-37.0","3TOK3KHVJU4AZJ9ELZR2U8VG8DT7OX","A1BJFYHXK6YDX1","3THR0FZ95PF7SK0MYRNAOUHTWA4OLV","","null","<img src=""img/land2.png"" style=""width:200px; border:14px solid green;"">","null","","","","","","","","","",""
"","image-keyboard-response","38","57427","0.0-38.0","3TOK3KHVJU4AZJ9ELZR2U8VG8DT7OX","A1BJFYHXK6YDX1","3THR0FZ95PF7SK0MYRNAOUHTWA4OLV","","405.0999999642372","img/land2.png","75","406.19999998807907","2","1","2","2","1,0.7,0.7,0.7,1,0.7,0.7,0.7,1","1,0.7,0.7,0.7,1,0.7,0.7,0.7,1","","",""
"","html-keyboard-response","39","57735","0.0-39.0","3TOK3KHVJU4AZJ9ELZR2U8VG8DT7OX","A1BJFYHXK6YDX1","3THR0FZ95PF7SK0MYRNAOUHTWA4OLV","","null","<img src=""img/land2.png"" style=""width:200px; border:14px solid green;"">","null","","","","","","","","","",""
"","image-keyboard-response","40","58067","0.0-40.0","3TOK3KHVJU4AZJ9ELZR2U8VG8DT7OX","A1BJFYHXK6YDX1","3THR0FZ95PF7SK0MYRNAOUHTWA4OLV","","330.60000002384186","img/land2.png","75","331.5","2","1","2","2","1,0.7,0.7,0.7,1,0.7,0.7,0.7,1","1,0.7,0.7,0.7,1,0.7,0.7,0.7,1","","",""
"","html-keyboard-response","41","58370","0.0-41.0","3TOK3KHVJU4AZJ9ELZR2U8VG8DT7OX","A1BJFYHXK6YDX1","3THR0FZ95PF7SK0MYRNAOUHTWA4OLV","","null","<img src=""img/land2.png"" style=""width:200px; border:14px solid green;"">","null","","","","","","","","","",""
"","image-keyboard-response","42","59011","0.0-42.0","3TOK3KHVJU4AZJ9ELZR2U8VG8DT7OX","A1BJFYHXK6YDX1","3THR0FZ95PF7SK0MYRNAOUHTWA4OLV","","639.0999999642372","img/land1.png","74","640.5999999642372","1","1","1","2","1,0.7,0.7,0.7,1,0.7,0.7,0.7,1","1,0.7,0.7,0.7,1,0.7,0.7,0.7,1","","",""
"","html-keyboard-response","43","59315","0.0-43.0","3TOK3KHVJU4AZJ9ELZR2U8VG8DT7OX","A1BJFYHXK6YDX1","3THR0FZ95PF7SK0MYRNAOUHTWA4OLV","","null","<img src=""img/land1.png"" style=""width:200px; border:14px solid green;"">","null","","","","","","","","","",""
"","image-keyboard-response","44","59987","0.0-44.0","3TOK3KHVJU4AZJ9ELZR2U8VG8DT7OX","A1BJFYHXK6YDX1","3THR0FZ95PF7SK0MYRNAOUHTWA4OLV","","671","img/land3.png","76","672.1999999880791","3","1","3","2","1,0.7,0.7,0.7,1,0.7,0.7,0.7,1","1,0.7,0.7,0.7,1,0.7,0.7,0.7,1","","",""
"","html-keyboard-response","45","60291","0.0-45.0","3TOK3KHVJU4AZJ9ELZR2U8VG8DT7OX","A1BJFYHXK6YDX1","3THR0FZ95PF7SK0MYRNAOUHTWA4OLV","","null","<img src=""img/land3.png"" style=""width:200px; border:14px solid green;"">","null","","","","","","","","","",""
"","image-keyboard-response","46","60972","0.0-46.0","3TOK3KHVJU4AZJ9ELZR2U8VG8DT7OX","A1BJFYHXK6YDX1","3THR0FZ95PF7SK0MYRNAOUHTWA4OLV","","679.6999999880791","img/land2.png","74","680.7000000476837","1","1","2","2","1,0.7,0.7,0.7,1,0.7,0.7,0.7,1","1,0.7,0.7,0.7,1,0.7,0.7,0.7,1","","",""
"","html-keyboard-response","47","61280","0.0-47.0","3TOK3KHVJU4AZJ9ELZR2U8VG8DT7OX","A1BJFYHXK6YDX1","3THR0FZ95PF7SK0MYRNAOUHTWA4OLV","","null","<img src=""img/land2.png"" style=""width:200px; border:14px solid green;"">","null","","","","","","","","","",""
"","image-keyboard-response","48","61690","0.0-48.0","3TOK3KHVJU4AZJ9ELZR2U8VG8DT7OX","A1BJFYHXK6YDX1","3THR0FZ95PF7SK0MYRNAOUHTWA4OLV","","408.89999997615814","img/land2.png","74","410","1","1","2","2","1,0.7,0.7,0.7,1,0.7,0.7,0.7,1","1,0.7,0.7,0.7,1,0.7,0.7,0.7,1","","",""
"","html-keyboard-response","49","61992","0.0-49.0","3TOK3KHVJU4AZJ9ELZR2U8VG8DT7OX","A1BJFYHXK6YDX1","3THR0FZ95PF7SK0MYRNAOUHTWA4OLV","","null","<img src=""img/land2.png"" style=""width:200px; border:14px solid green;"">","null","","","","","","","","","",""
"","image-keyboard-response","50","62620","0.0-50.0","3TOK3KHVJU4AZJ9ELZR2U8VG8DT7OX","A1BJFYHXK6YDX1","3THR0FZ95PF7SK0MYRNAOUHTWA4OLV","","626.2999999523163","img/land1.png","75","627.5","2","1","1","2","1,0.7,0.7,0.7,1,0.7,0.7,0.7,1","1,0.7,0.7,0.7,1,0.7,0.7,0.7,1","","",""
"","html-keyboard-response","51","62937","0.0-51.0","3TOK3KHVJU4AZJ9ELZR2U8VG8DT7OX","A1BJFYHXK6YDX1","3THR0FZ95PF7SK0MYRNAOUHTWA4OLV","","null","<img src=""img/land1.png"" style=""width:200px; border:14px solid green;"">","null","","","","","","","","","",""
"","image-keyboard-response","52","63269","0.0-52.0","3TOK3KHVJU4AZJ9ELZR2U8VG8DT7OX","A1BJFYHXK6YDX1","3THR0FZ95PF7SK0MYRNAOUHTWA4OLV","","330.60000002384186","img/land1.png","75","331.5999999642372","2","1","1","2","1,0.7,0.7,0.7,1,0.7,0.7,0.7,1","1,0.7,0.7,0.7,1,0.7,0.7,0.7,1","","",""
"","html-keyboard-response","53","63571","0.0-53.0","3TOK3KHVJU4AZJ9ELZR2U8VG8DT7OX","A1BJFYHXK6YDX1","3THR0FZ95PF7SK0MYRNAOUHTWA4OLV","","null","<img src=""img/land1.png"" style=""width:200px; border:14px solid green;"">","null","","","","","","","","","",""
"","image-keyboard-response","54","64204","0.0-54.0","3TOK3KHVJU4AZJ9ELZR2U8VG8DT7OX","A1BJFYHXK6YDX1","3THR0FZ95PF7SK0MYRNAOUHTWA4OLV","","632.1999999880791","img/land3.png","76","633.3000000119209","3","1","3","2","1,0.7,0.7,0.7,1,0.7,0.7,0.7,1","1,0.7,0.7,0.7,1,0.7,0.7,0.7,1","","",""
"","html-keyboard-response","55","64511","0.0-55.0","3TOK3KHVJU4AZJ9ELZR2U8VG8DT7OX","A1BJFYHXK6YDX1","3THR0FZ95PF7SK0MYRNAOUHTWA4OLV","","null","<img src=""img/land3.png"" style=""width:200px; border:14px solid green;"">","null","","","","","","","","","",""
"","image-keyboard-response","56","65290","0.0-56.0","3TOK3KHVJU4AZJ9ELZR2U8VG8DT7OX","A1BJFYHXK6YDX1","3THR0FZ95PF7SK0MYRNAOUHTWA4OLV","","777.5","img/land2.png","75","778.5999999642372","2","1","2","2","1,0.7,0.7,0.7,1,0.7,0.7,0.7,1","1,0.7,0.7,0.7,1,0.7,0.7,0.7,1","","",""
"","html-keyboard-response","57","65607","0.0-57.0","3TOK3KHVJU4AZJ9ELZR2U8VG8DT7OX","A1BJFYHXK6YDX1","3THR0FZ95PF7SK0MYRNAOUHTWA4OLV","","null","<img src=""img/land2.png"" style=""width:200px; border:14px solid green;"">","null","","","","","","","","","",""
"","image-keyboard-response","58","66591","0.0-58.0","3TOK3KHVJU4AZJ9ELZR2U8VG8DT7OX","A1BJFYHXK6YDX1","3THR0FZ95PF7SK0MYRNAOUHTWA4OLV","","982.6000000238419","img/land1.png","74","984.0999999642372","1","1","1","2","1,0.7,0.7,0.7,1,0.7,0.7,0.7,1","1,0.7,0.7,0.7,1,0.7,0.7,0.7,1","","",""
"","html-keyboard-response","59","66901","0.0-59.0","3TOK3KHVJU4AZJ9ELZR2U8VG8DT7OX","A1BJFYHXK6YDX1","3THR0FZ95PF7SK0MYRNAOUHTWA4OLV","","null","<img src=""img/land1.png"" style=""width:200px; border:14px solid green;"">","null","","","","","","","","","",""
"","image-keyboard-response","60","67472","0.0-60.0","3TOK3KHVJU4AZJ9ELZR2U8VG8DT7OX","A1BJFYHXK6YDX1","3THR0FZ95PF7SK0MYRNAOUHTWA4OLV","","570.1000000238419","img/land2.png","75","571.3000000119209","2","1","2","2","1,0.7,0.7,0.7,1,0.7,0.7,0.7,1","1,0.7,0.7,0.7,1,0.7,0.7,0.7,1","","",""
"","html-keyboard-response","61","67782","0.0-61.0","3TOK3KHVJU4AZJ9ELZR2U8VG8DT7OX","A1BJFYHXK6YDX1","3THR0FZ95PF7SK0MYRNAOUHTWA4OLV","","null","<img src=""img/land2.png"" style=""width:200px; border:14px solid green;"">","null","","","","","","","","","",""
"","image-keyboard-response","62","68334","0.0-62.0","3TOK3KHVJU4AZJ9ELZR2U8VG8DT7OX","A1BJFYHXK6YDX1","3THR0FZ95PF7SK0MYRNAOUHTWA4OLV","","550.9000000357628","img/land1.png","74","551.8999999761581","1","1","1","2","1,0.7,0.7,0.7,1,0.7,0.7,0.7,1","1,0.7,0.7,0.7,1,0.7,0.7,0.7,1","","",""
"","html-keyboard-response","63","68641","0.0-63.0","3TOK3KHVJU4AZJ9ELZR2U8VG8DT7OX","A1BJFYHXK6YDX1","3THR0FZ95PF7SK0MYRNAOUHTWA4OLV","","null","<img src=""img/land1.png"" style=""width:200px; border:14px solid green;"">","null","","","","","","","","","",""
"","image-keyboard-response","64","69205","0.0-64.0","3TOK3KHVJU4AZJ9ELZR2U8VG8DT7OX","A1BJFYHXK6YDX1","3THR0FZ95PF7SK0MYRNAOUHTWA4OLV","","563","img/land2.png","75","564.1999999880791","2","1","2","2","1,0.7,0.7,0.7,1,0.7,0.7,0.7,1","1,0.7,0.7,0.7,1,0.7,0.7,0.7,1","","",""
"","html-keyboard-response","65","69512","0.0-65.0","3TOK3KHVJU4AZJ9ELZR2U8VG8DT7OX","A1BJFYHXK6YDX1","3THR0FZ95PF7SK0MYRNAOUHTWA4OLV","","null","<img src=""img/land2.png"" style=""width:200px; border:14px solid green;"">","null","","","","","","","","","",""
"","image-keyboard-response","66","69950","0.0-66.0","3TOK3KHVJU4AZJ9ELZR2U8VG8DT7OX","A1BJFYHXK6YDX1","3THR0FZ95PF7SK0MYRNAOUHTWA4OLV","","436.60000002384186","img/land2.png","75","437.69999998807907","2","1","2","2","1,0.7,0.7,0.7,1,0.7,0.7,0.7,1","1,0.7,0.7,0.7,1,0.7,0.7,0.7,1","","",""
"","html-keyboard-response","67","70258","0.0-67.0","3TOK3KHVJU4AZJ9ELZR2U8VG8DT7OX","A1BJFYHXK6YDX1","3THR0FZ95PF7SK0MYRNAOUHTWA4OLV","","null","<img src=""img/land2.png"" style=""width:200px; border:14px solid green;"">","null","","","","","","","","","",""
"","image-keyboard-response","68","71085","0.0-68.0","3TOK3KHVJU4AZJ9ELZR2U8VG8DT7OX","A1BJFYHXK6YDX1","3THR0FZ95PF7SK0MYRNAOUHTWA4OLV","","826.3999999761581","img/land3.png","76","827.5","3","1","3","2","1,0.7,0.7,0.7,1,0.7,0.7,0.7,1","1,0.7,0.7,0.7,1,0.7,0.7,0.7,1","","",""
"","html-keyboard-response","69","71390","0.0-69.0","3TOK3KHVJU4AZJ9ELZR2U8VG8DT7OX","A1BJFYHXK6YDX1","3THR0FZ95PF7SK0MYRNAOUHTWA4OLV","","null","<img src=""img/land3.png"" style=""width:200px; border:14px solid green;"">","null","","","","","","","","","",""
"","image-keyboard-response","70","72012","0.0-70.0","3TOK3KHVJU4AZJ9ELZR2U8VG8DT7OX","A1BJFYHXK6YDX1","3THR0FZ95PF7SK0MYRNAOUHTWA4OLV","","620.5999999642372","img/land2.png","75","621.6999999880791","2","1","2","2","1,0.7,0.7,0.7,1,0.7,0.7,0.7,1","1,0.7,0.7,0.7,1,0.7,0.7,0.7,1","","",""
"","html-keyboard-response","71","72318","0.0-71.0","3TOK3KHVJU4AZJ9ELZR2U8VG8DT7OX","A1BJFYHXK6YDX1","3THR0FZ95PF7SK0MYRNAOUHTWA4OLV","","null","<img src=""img/land2.png"" style=""width:200px; border:14px solid green;"">","null","","","","","","","","","",""
"","image-keyboard-response","72","72863","0.0-72.0","3TOK3KHVJU4AZJ9ELZR2U8VG8DT7OX","A1BJFYHXK6YDX1","3THR0FZ95PF7SK0MYRNAOUHTWA4OLV","","543.8999999761581","img/land1.png","74","545","1","1","1","2","1,0.7,0.7,0.7,1,0.7,0.7,0.7,1","1,0.7,0.7,0.7,1,0.7,0.7,0.7,1","","",""
"","html-keyboard-response","73","73171","0.0-73.0","3TOK3KHVJU4AZJ9ELZR2U8VG8DT7OX","A1BJFYHXK6YDX1","3THR0FZ95PF7SK0MYRNAOUHTWA4OLV","","null","<img src=""img/land1.png"" style=""width:200px; border:14px solid green;"">","null","","","","","","","","","",""
"","image-keyboard-response","74","73675","0.0-74.0","3TOK3KHVJU4AZJ9ELZR2U8VG8DT7OX","A1BJFYHXK6YDX1","3THR0FZ95PF7SK0MYRNAOUHTWA4OLV","","502.39999997615814","img/land2.png","75","503.4000000357628","2","1","2","2","1,0.7,0.7,0.7,1,0.7,0.7,0.7,1","1,0.7,0.7,0.7,1,0.7,0.7,0.7,1","","",""
"","html-keyboard-response","75","73982","0.0-75.0","3TOK3KHVJU4AZJ9ELZR2U8VG8DT7OX","A1BJFYHXK6YDX1","3THR0FZ95PF7SK0MYRNAOUHTWA4OLV","","null","<img src=""img/land2.png"" style=""width:200px; border:14px solid green;"">","null","","","","","","","","","",""
"","image-keyboard-response","76","74646","0.0-76.0","3TOK3KHVJU4AZJ9ELZR2U8VG8DT7OX","A1BJFYHXK6YDX1","3THR0FZ95PF7SK0MYRNAOUHTWA4OLV","","662.4000000357628","img/land3.png","76","663.5","3","1","3","2","1,0.7,0.7,0.7,1,0.7,0.7,0.7,1","1,0.7,0.7,0.7,1,0.7,0.7,0.7,1","","",""
"","html-keyboard-response","77","74952","0.0-77.0","3TOK3KHVJU4AZJ9ELZR2U8VG8DT7OX","A1BJFYHXK6YDX1","3THR0FZ95PF7SK0MYRNAOUHTWA4OLV","","null","<img src=""img/land3.png"" style=""width:200px; border:14px solid green;"">","null","","","","","","","","","",""
"","image-keyboard-response","78","75396","0.0-78.0","3TOK3KHVJU4AZJ9ELZR2U8VG8DT7OX","A1BJFYHXK6YDX1","3THR0FZ95PF7SK0MYRNAOUHTWA4OLV","","443.19999998807907","img/land3.png","76","444.30000001192093","3","1","3","2","1,0.7,0.7,0.7,1,0.7,0.7,0.7,1","1,0.7,0.7,0.7,1,0.7,0.7,0.7,1","","",""
"","html-keyboard-response","79","75712","0.0-79.0","3TOK3KHVJU4AZJ9ELZR2U8VG8DT7OX","A1BJFYHXK6YDX1","3THR0FZ95PF7SK0MYRNAOUHTWA4OLV","","null","<img src=""img/land3.png"" style=""width:200px; border:14px solid green;"">","null","","","","","","","","","",""
"","image-keyboard-response","80","76011","0.0-80.0","3TOK3KHVJU4AZJ9ELZR2U8VG8DT7OX","A1BJFYHXK6YDX1","3THR0FZ95PF7SK0MYRNAOUHTWA4OLV","","298","img/land3.png","76","299.2999999523163","3","1","3","2","1,0.7,0.7,0.7,1,0.7,0.7,0.7,1","1,0.7,0.7,0.7,1,0.7,0.7,0.7,1","","",""
"","html-keyboard-response","81","76321","0.0-81.0","3TOK3KHVJU4AZJ9ELZR2U8VG8DT7OX","A1BJFYHXK6YDX1","3THR0FZ95PF7SK0MYRNAOUHTWA4OLV","","null","<img src=""img/land3.png"" style=""width:200px; border:14px solid green;"">","null","","","","","","","","","",""
"","image-keyboard-response","82","76706","0.0-82.0","3TOK3KHVJU4AZJ9ELZR2U8VG8DT7OX","A1BJFYHXK6YDX1","3THR0FZ95PF7SK0MYRNAOUHTWA4OLV","","383.10000002384186","img/land3.png","76","384.19999998807907","3","1","3","2","1,0.7,0.7,0.7,1,0.7,0.7,0.7,1","1,0.7,0.7,0.7,1,0.7,0.7,0.7,1","","",""
"","html-keyboard-response","83","77012","0.0-83.0","3TOK3KHVJU4AZJ9ELZR2U8VG8DT7OX","A1BJFYHXK6YDX1","3THR0FZ95PF7SK0MYRNAOUHTWA4OLV","","null","<img src=""img/land3.png"" style=""width:200px; border:14px solid green;"">","null","","","","","","","","","",""
"","image-keyboard-response","84","77656","0.0-84.0","3TOK3KHVJU4AZJ9ELZR2U8VG8DT7OX","A1BJFYHXK6YDX1","3THR0FZ95PF7SK0MYRNAOUHTWA4OLV","","643","img/land2.png","75","644.0999999642372","2","1","2","2","1,0.7,0.7,0.7,1,0.7,0.7,0.7,1","1,0.7,0.7,0.7,1,0.7,0.7,0.7,1","","",""
"","html-keyboard-response","85","77962","0.0-85.0","3TOK3KHVJU4AZJ9ELZR2U8VG8DT7OX","A1BJFYHXK6YDX1","3THR0FZ95PF7SK0MYRNAOUHTWA4OLV","","null","<img src=""img/land2.png"" style=""width:200px; border:14px solid green;"">","null","","","","","","","","","",""
"","image-keyboard-response","86","78337","0.0-86.0","3TOK3KHVJU4AZJ9ELZR2U8VG8DT7OX","A1BJFYHXK6YDX1","3THR0FZ95PF7SK0MYRNAOUHTWA4OLV","","373.39999997615814","img/land2.png","75","374.5","2","1","2","2","1,0.7,0.7,0.7,1,0.7,0.7,0.7,1","1,0.7,0.7,0.7,1,0.7,0.7,0.7,1","","",""
"","html-keyboard-response","87","78642","0.0-87.0","3TOK3KHVJU4AZJ9ELZR2U8VG8DT7OX","A1BJFYHXK6YDX1","3THR0FZ95PF7SK0MYRNAOUHTWA4OLV","","null","<img src=""img/land2.png"" style=""width:200px; border:14px solid green;"">","null","","","","","","","","","",""
"","image-keyboard-response","88","79217","0.0-88.0","3TOK3KHVJU4AZJ9ELZR2U8VG8DT7OX","A1BJFYHXK6YDX1","3THR0FZ95PF7SK0MYRNAOUHTWA4OLV","","573.6000000238419","img/land2.png","75","574.9000000357628","2","1","2","2","1,0.7,0.7,0.7,1,0.7,0.7,0.7,1","1,0.7,0.7,0.7,1,0.7,0.7,0.7,1","","",""
"","html-keyboard-response","89","79523","0.0-89.0","3TOK3KHVJU4AZJ9ELZR2U8VG8DT7OX","A1BJFYHXK6YDX1","3THR0FZ95PF7SK0MYRNAOUHTWA4OLV","","null","<img src=""img/land2.png"" style=""width:200px; border:14px solid green;"">","null","","","","","","","","","",""
"","image-keyboard-response","90","79806","0.0-90.0","3TOK3KHVJU4AZJ9ELZR2U8VG8DT7OX","A1BJFYHXK6YDX1","3THR0FZ95PF7SK0MYRNAOUHTWA4OLV","","281.89999997615814","img/land2.png","75","282.80000001192093","2","1","2","2","1,0.7,0.7,0.7,1,0.7,0.7,0.7,1","1,0.7,0.7,0.7,1,0.7,0.7,0.7,1","","",""
"","html-keyboard-response","91","80112","0.0-91.0","3TOK3KHVJU4AZJ9ELZR2U8VG8DT7OX","A1BJFYHXK6YDX1","3THR0FZ95PF7SK0MYRNAOUHTWA4OLV","","null","<img src=""img/land2.png"" style=""width:200px; border:14px solid green;"">","null","","","","","","","","","",""
"","image-keyboard-response","92","80738","0.0-92.0","3TOK3KHVJU4AZJ9ELZR2U8VG8DT7OX","A1BJFYHXK6YDX1","3THR0FZ95PF7SK0MYRNAOUHTWA4OLV","","624.5","img/land3.png","76","625.5999999642372","3","1","3","2","1,0.7,0.7,0.7,1,0.7,0.7,0.7,1","1,0.7,0.7,0.7,1,0.7,0.7,0.7,1","","",""
"","html-keyboard-response","93","81047","0.0-93.0","3TOK3KHVJU4AZJ9ELZR2U8VG8DT7OX","A1BJFYHXK6YDX1","3THR0FZ95PF7SK0MYRNAOUHTWA4OLV","","null","<img src=""img/land3.png"" style=""width:200px; border:14px solid green;"">","null","","","","","","","","","",""
"","image-keyboard-response","94","81776","0.0-94.0","3TOK3KHVJU4AZJ9ELZR2U8VG8DT7OX","A1BJFYHXK6YDX1","3THR0FZ95PF7SK0MYRNAOUHTWA4OLV","","727","img/land1.png","74","728.0999999642372","1","1","1","2","1,0.7,0.7,0.7,1,0.7,0.7,0.7,1","1,0.7,0.7,0.7,1,0.7,0.7,0.7,1","","",""
"","html-keyboard-response","95","82082","0.0-95.0","3TOK3KHVJU4AZJ9ELZR2U8VG8DT7OX","A1BJFYHXK6YDX1","3THR0FZ95PF7SK0MYRNAOUHTWA4OLV","","null","<img src=""img/land1.png"" style=""width:200px; border:14px solid green;"">","null","","","","","","","","","",""
"","image-keyboard-response","96","82614","0.0-96.0","3TOK3KHVJU4AZJ9ELZR2U8VG8DT7OX","A1BJFYHXK6YDX1","3THR0FZ95PF7SK0MYRNAOUHTWA4OLV","","530.6999999880791","img/land2.png","75","531.9000000357628","2","1","2","2","1,0.7,0.7,0.7,1,0.7,0.7,0.7,1","1,0.7,0.7,0.7,1,0.7,0.7,0.7,1","","",""
"","html-keyboard-response","97","82920","0.0-97.0","3TOK3KHVJU4AZJ9ELZR2U8VG8DT7OX","A1BJFYHXK6YDX1","3THR0FZ95PF7SK0MYRNAOUHTWA4OLV","","null","<img src=""img/land2.png"" style=""width:200px; border:14px solid green;"">","null","","","","","","","","","",""
"","image-keyboard-response","98","83699","0.0-98.0","3TOK3KHVJU4AZJ9ELZR2U8VG8DT7OX","A1BJFYHXK6YDX1","3THR0FZ95PF7SK0MYRNAOUHTWA4OLV","","777.1000000238419","img/land3.png","76","778.6000000238419","3","1","3","2","1,0.7,0.7,0.7,1,0.7,0.7,0.7,1","1,0.7,0.7,0.7,1,0.7,0.7,0.7,1","","",""
"","html-keyboard-response","99","84002","0.0-99.0","3TOK3KHVJU4AZJ9ELZR2U8VG8DT7OX","A1BJFYHXK6YDX1","3THR0FZ95PF7SK0MYRNAOUHTWA4OLV","","null","<img src=""img/land3.png"" style=""width:200px; border:14px solid green;"">","null","","","","","","","","","",""
"","image-keyboard-response","100","84632","0.0-100.0","3TOK3KHVJU4AZJ9ELZR2U8VG8DT7OX","A1BJFYHXK6YDX1","3THR0FZ95PF7SK0MYRNAOUHTWA4OLV","","628.8000000119209","img/land1.png","74","629.6000000238419","1","1","1","2","1,0.7,0.7,0.7,1,0.7,0.7,0.7,1","1,0.7,0.7,0.7,1,0.7,0.7,0.7,1","","",""
"","html-keyboard-response","101","84942","0.0-101.0","3TOK3KHVJU4AZJ9ELZR2U8VG8DT7OX","A1BJFYHXK6YDX1","3THR0FZ95PF7SK0MYRNAOUHTWA4OLV","","null","<img src=""img/land1.png"" style=""width:200px; border:14px solid green;"">","null","","","","","","","","","",""
"","image-keyboard-response","102","85690","0.0-102.0","3TOK3KHVJU4AZJ9ELZR2U8VG8DT7OX","A1BJFYHXK6YDX1","3THR0FZ95PF7SK0MYRNAOUHTWA4OLV","","746.7000000476837","img/land3.png","76","747.6999999880791","3","1","3","2","1,0.7,0.7,0.7,1,0.7,0.7,0.7,1","1,0.7,0.7,0.7,1,0.7,0.7,0.7,1","","",""
"","html-keyboard-response","103","85995","0.0-103.0","3TOK3KHVJU4AZJ9ELZR2U8VG8DT7OX","A1BJFYHXK6YDX1","3THR0FZ95PF7SK0MYRNAOUHTWA4OLV","","null","<img src=""img/land3.png"" style=""width:200px; border:14px solid green;"">","null","","","","","","","","","",""
"","image-keyboard-response","104","86343","0.0-104.0","3TOK3KHVJU4AZJ9ELZR2U8VG8DT7OX","A1BJFYHXK6YDX1","3THR0FZ95PF7SK0MYRNAOUHTWA4OLV","","346.80000001192093","img/land3.png","76","347.80000001192093","3","1","3","2","1,0.7,0.7,0.7,1,0.7,0.7,0.7,1","1,0.7,0.7,0.7,1,0.7,0.7,0.7,1","","",""
"","html-keyboard-response","105","86651","0.0-105.0","3TOK3KHVJU4AZJ9ELZR2U8VG8DT7OX","A1BJFYHXK6YDX1","3THR0FZ95PF7SK0MYRNAOUHTWA4OLV","","null","<img src=""img/land3.png"" style=""width:200px; border:14px solid green;"">","null","","","","","","","","","",""
"","image-keyboard-response","106","87351","0.0-106.0","3TOK3KHVJU4AZJ9ELZR2U8VG8DT7OX","A1BJFYHXK6YDX1","3THR0FZ95PF7SK0MYRNAOUHTWA4OLV","","698","img/land2.png","75","699.0999999642372","2","1","2","2","1,0.7,0.7,0.7,1,0.7,0.7,0.7,1","1,0.7,0.7,0.7,1,0.7,0.7,0.7,1","","",""
"","html-keyboard-response","107","87668","0.0-107.0","3TOK3KHVJU4AZJ9ELZR2U8VG8DT7OX","A1BJFYHXK6YDX1","3THR0FZ95PF7SK0MYRNAOUHTWA4OLV","","null","<img src=""img/land2.png"" style=""width:200px; border:14px solid green;"">","null","","","","","","","","","",""
"","image-keyboard-response","108","88829","0.0-108.0","3TOK3KHVJU4AZJ9ELZR2U8VG8DT7OX","A1BJFYHXK6YDX1","3THR0FZ95PF7SK0MYRNAOUHTWA4OLV","","1160.300000011921","img/land1.png","74","1161.3999999761581","1","1","1","2","1,0.7,0.7,0.7,1,0.7,0.7,0.7,1","1,0.7,0.7,0.7,1,0.7,0.7,0.7,1","","",""
"","html-keyboard-response","109","89137","0.0-109.0","3TOK3KHVJU4AZJ9ELZR2U8VG8DT7OX","A1BJFYHXK6YDX1","3THR0FZ95PF7SK0MYRNAOUHTWA4OLV","","null","<img src=""img/land1.png"" style=""width:200px; border:14px solid green;"">","null","","","","","","","","","",""
"","image-keyboard-response","110","89845","0.0-110.0","3TOK3KHVJU4AZJ9ELZR2U8VG8DT7OX","A1BJFYHXK6YDX1","3THR0FZ95PF7SK0MYRNAOUHTWA4OLV","","706","img/land3.png","76","707.0999999642372","3","1","3","2","1,0.7,0.7,0.7,1,0.7,0.7,0.7,1","1,0.7,0.7,0.7,1,0.7,0.7,0.7,1","","",""
"","html-keyboard-response","111","90160","0.0-111.0","3TOK3KHVJU4AZJ9ELZR2U8VG8DT7OX","A1BJFYHXK6YDX1","3THR0FZ95PF7SK0MYRNAOUHTWA4OLV","","null","<img src=""img/land3.png"" style=""width:200px; border:14px solid green;"">","null","","","","","","","","","",""
"","image-keyboard-response","112","90496","0.0-112.0","3TOK3KHVJU4AZJ9ELZR2U8VG8DT7OX","A1BJFYHXK6YDX1","3THR0FZ95PF7SK0MYRNAOUHTWA4OLV","","334.30000001192093","img/land3.png","76","335.60000002384186","3","1","3","2","1,0.7,0.7,0.7,1,0.7,0.7,0.7,1","1,0.7,0.7,0.7,1,0.7,0.7,0.7,1","","",""
"","html-keyboard-response","113","90802","0.0-113.0","3TOK3KHVJU4AZJ9ELZR2U8VG8DT7OX","A1BJFYHXK6YDX1","3THR0FZ95PF7SK0MYRNAOUHTWA4OLV","","null","<img src=""img/land3.png"" style=""width:200px; border:14px solid green;"">","null","","","","","","","","","",""
"","image-keyboard-response","114","91092","0.0-114.0","3TOK3KHVJU4AZJ9ELZR2U8VG8DT7OX","A1BJFYHXK6YDX1","3THR0FZ95PF7SK0MYRNAOUHTWA4OLV","","288.2000000476837","img/land3.png","76","289.30000001192093","3","1","3","2","1,0.7,0.7,0.7,1,0.7,0.7,0.7,1","1,0.7,0.7,0.7,1,0.7,0.7,0.7,1","","",""
"","html-keyboard-response","115","91407","0.0-115.0","3TOK3KHVJU4AZJ9ELZR2U8VG8DT7OX","A1BJFYHXK6YDX1","3THR0FZ95PF7SK0MYRNAOUHTWA4OLV","","null","<img src=""img/land3.png"" style=""width:200px; border:14px solid green;"">","null","","","","","","","","","",""
"","image-keyboard-response","116","92036","0.0-116.0","3TOK3KHVJU4AZJ9ELZR2U8VG8DT7OX","A1BJFYHXK6YDX1","3THR0FZ95PF7SK0MYRNAOUHTWA4OLV","","628","img/land2.png","75","629.0999999642372","2","1","2","2","1,0.7,0.7,0.7,1,0.7,0.7,0.7,1","1,0.7,0.7,0.7,1,0.7,0.7,0.7,1","","",""
"","html-keyboard-response","117","92342","0.0-117.0","3TOK3KHVJU4AZJ9ELZR2U8VG8DT7OX","A1BJFYHXK6YDX1","3THR0FZ95PF7SK0MYRNAOUHTWA4OLV","","null","<img src=""img/land2.png"" style=""width:200px; border:14px solid green;"">","null","","","","","","","","","",""
"","image-keyboard-response","118","93244","0.0-118.0","3TOK3KHVJU4AZJ9ELZR2U8VG8DT7OX","A1BJFYHXK6YDX1","3THR0FZ95PF7SK0MYRNAOUHTWA4OLV","","900.6999999880791","img/land1.png","74","901.5","1","1","1","2","1,0.7,0.7,0.7,1,0.7,0.7,0.7,1","1,0.7,0.7,0.7,1,0.7,0.7,0.7,1","","",""
"","html-keyboard-response","119","93554","0.0-119.0","3TOK3KHVJU4AZJ9ELZR2U8VG8DT7OX","A1BJFYHXK6YDX1","3THR0FZ95PF7SK0MYRNAOUHTWA4OLV","","null","<img src=""img/land1.png"" style=""width:200px; border:14px solid green;"">","null","","","","","","","","","",""
"","image-keyboard-response","120","93977","0.0-120.0","3TOK3KHVJU4AZJ9ELZR2U8VG8DT7OX","A1BJFYHXK6YDX1","3THR0FZ95PF7SK0MYRNAOUHTWA4OLV","","421.80000001192093","img/land1.png","74","423","1","1","1","2","1,0.7,0.7,0.7,1,0.7,0.7,0.7,1","1,0.7,0.7,0.7,1,0.7,0.7,0.7,1","","",""
"","html-keyboard-response","121","94280","0.0-121.0","3TOK3KHVJU4AZJ9ELZR2U8VG8DT7OX","A1BJFYHXK6YDX1","3THR0FZ95PF7SK0MYRNAOUHTWA4OLV","","null","<img src=""img/land1.png"" style=""width:200px; border:14px solid green;"">","null","","","","","","","","","",""
"","image-keyboard-response","122","95026","0.0-122.0","3TOK3KHVJU4AZJ9ELZR2U8VG8DT7OX","A1BJFYHXK6YDX1","3THR0FZ95PF7SK0MYRNAOUHTWA4OLV","","744.5","img/land2.png","75","745.5","2","1","2","2","1,0.7,0.7,0.7,1,0.7,0.7,0.7,1","1,0.7,0.7,0.7,1,0.7,0.7,0.7,1","","",""
"","html-keyboard-response","123","95334","0.0-123.0","3TOK3KHVJU4AZJ9ELZR2U8VG8DT7OX","A1BJFYHXK6YDX1","3THR0FZ95PF7SK0MYRNAOUHTWA4OLV","","null","<img src=""img/land2.png"" style=""width:200px; border:14px solid green;"">","null","","","","","","","","","",""
"","image-keyboard-response","124","95733","0.0-124.0","3TOK3KHVJU4AZJ9ELZR2U8VG8DT7OX","A1BJFYHXK6YDX1","3THR0FZ95PF7SK0MYRNAOUHTWA4OLV","","397.30000001192093","img/land2.png","75","398.19999998807907","2","1","2","2","1,0.7,0.7,0.7,1,0.7,0.7,0.7,1","1,0.7,0.7,0.7,1,0.7,0.7,0.7,1","","",""
"","html-keyboard-response","125","96047","0.0-125.0","3TOK3KHVJU4AZJ9ELZR2U8VG8DT7OX","A1BJFYHXK6YDX1","3THR0FZ95PF7SK0MYRNAOUHTWA4OLV","","null","<img src=""img/land2.png"" style=""width:200px; border:14px solid green;"">","null","","","","","","","","","",""
"","image-keyboard-response","126","96730","0.0-126.0","3TOK3KHVJU4AZJ9ELZR2U8VG8DT7OX","A1BJFYHXK6YDX1","3THR0FZ95PF7SK0MYRNAOUHTWA4OLV","","680.9000000357628","img/land1.png","74","682","1","1","1","2","1,0.7,0.7,0.7,1,0.7,0.7,0.7,1","1,0.7,0.7,0.7,1,0.7,0.7,0.7,1","","",""
"","html-keyboard-response","127","97036","0.0-127.0","3TOK3KHVJU4AZJ9ELZR2U8VG8DT7OX","A1BJFYHXK6YDX1","3THR0FZ95PF7SK0MYRNAOUHTWA4OLV","","null","<img src=""img/land1.png"" style=""width:200px; border:14px solid green;"">","null","","","","","","","","","",""
"","image-keyboard-response","128","97453","0.0-128.0","3TOK3KHVJU4AZJ9ELZR2U8VG8DT7OX","A1BJFYHXK6YDX1","3THR0FZ95PF7SK0MYRNAOUHTWA4OLV","","415.39999997615814","img/land1.png","74","416.4000000357628","1","1","1","2","1,0.7,0.7,0.7,1,0.7,0.7,0.7,1","1,0.7,0.7,0.7,1,0.7,0.7,0.7,1","","",""
"","html-keyboard-response","129","97758","0.0-129.0","3TOK3KHVJU4AZJ9ELZR2U8VG8DT7OX","A1BJFYHXK6YDX1","3THR0FZ95PF7SK0MYRNAOUHTWA4OLV","","null","<img src=""img/land1.png"" style=""width:200px; border:14px solid green;"">","null","","","","","","","","","",""
"","image-keyboard-response","130","98578","0.0-130.0","3TOK3KHVJU4AZJ9ELZR2U8VG8DT7OX","A1BJFYHXK6YDX1","3THR0FZ95PF7SK0MYRNAOUHTWA4OLV","","819.1999999880791","img/land3.png","76","820.3000000119209","3","1","3","2","1,0.7,0.7,0.7,1,0.7,0.7,0.7,1","1,0.7,0.7,0.7,1,0.7,0.7,0.7,1","","",""
"","html-keyboard-response","131","98887","0.0-131.0","3TOK3KHVJU4AZJ9ELZR2U8VG8DT7OX","A1BJFYHXK6YDX1","3THR0FZ95PF7SK0MYRNAOUHTWA4OLV","","null","<img src=""img/land3.png"" style=""width:200px; border:14px solid green;"">","null","","","","","","","","","",""
"","image-keyboard-response","132","99482","0.0-132.0","3TOK3KHVJU4AZJ9ELZR2U8VG8DT7OX","A1BJFYHXK6YDX1","3THR0FZ95PF7SK0MYRNAOUHTWA4OLV","","593","img/land2.png","75","594.1000000238419","2","1","2","2","1,0.7,0.7,0.7,1,0.7,0.7,0.7,1","1,0.7,0.7,0.7,1,0.7,0.7,0.7,1","","",""
"","html-keyboard-response","133","99788","0.0-133.0","3TOK3KHVJU4AZJ9ELZR2U8VG8DT7OX","A1BJFYHXK6YDX1","3THR0FZ95PF7SK0MYRNAOUHTWA4OLV","","null","<img src=""img/land2.png"" style=""width:200px; border:14px solid green;"">","null","","","","","","","","","",""
"","image-keyboard-response","134","100134","0.0-134.0","3TOK3KHVJU4AZJ9ELZR2U8VG8DT7OX","A1BJFYHXK6YDX1","3THR0FZ95PF7SK0MYRNAOUHTWA4OLV","","344.5","img/land2.png","75","345.5","2","1","2","2","1,0.7,0.7,0.7,1,0.7,0.7,0.7,1","1,0.7,0.7,0.7,1,0.7,0.7,0.7,1","","",""
"","html-keyboard-response","135","100440","0.0-135.0","3TOK3KHVJU4AZJ9ELZR2U8VG8DT7OX","A1BJFYHXK6YDX1","3THR0FZ95PF7SK0MYRNAOUHTWA4OLV","","null","<img src=""img/land2.png"" style=""width:200px; border:14px solid green;"">","null","","","","","","","","","",""
"","image-keyboard-response","136","100783","0.0-136.0","3TOK3KHVJU4AZJ9ELZR2U8VG8DT7OX","A1BJFYHXK6YDX1","3THR0FZ95PF7SK0MYRNAOUHTWA4OLV","","341.60000002384186","img/land2.png","75","342.80000001192093","2","1","2","2","1,0.7,0.7,0.7,1,0.7,0.7,0.7,1","1,0.7,0.7,0.7,1,0.7,0.7,0.7,1","","",""
"","html-keyboard-response","137","101091","0.0-137.0","3TOK3KHVJU4AZJ9ELZR2U8VG8DT7OX","A1BJFYHXK6YDX1","3THR0FZ95PF7SK0MYRNAOUHTWA4OLV","","null","<img src=""img/land2.png"" style=""width:200px; border:14px solid green;"">","null","","","","","","","","","",""
"","image-keyboard-response","138","101589","0.0-138.0","3TOK3KHVJU4AZJ9ELZR2U8VG8DT7OX","A1BJFYHXK6YDX1","3THR0FZ95PF7SK0MYRNAOUHTWA4OLV","","495.9000000357628","img/land2.png","75","496.89999997615814","2","1","2","2","1,0.7,0.7,0.7,1,0.7,0.7,0.7,1","1,0.7,0.7,0.7,1,0.7,0.7,0.7,1","","",""
"","html-keyboard-response","139","101893","0.0-139.0","3TOK3KHVJU4AZJ9ELZR2U8VG8DT7OX","A1BJFYHXK6YDX1","3THR0FZ95PF7SK0MYRNAOUHTWA4OLV","","null","<img src=""img/land2.png"" style=""width:200px; border:14px solid green;"">","null","","","","","","","","","",""
"","image-keyboard-response","140","102599","0.0-140.0","3TOK3KHVJU4AZJ9ELZR2U8VG8DT7OX","A1BJFYHXK6YDX1","3THR0FZ95PF7SK0MYRNAOUHTWA4OLV","","703.0999999642372","img/land3.png","76","704.1000000238419","3","1","3","2","1,0.7,0.7,0.7,1,0.7,0.7,0.7,1","1,0.7,0.7,0.7,1,0.7,0.7,0.7,1","","",""
"","html-keyboard-response","141","102909","0.0-141.0","3TOK3KHVJU4AZJ9ELZR2U8VG8DT7OX","A1BJFYHXK6YDX1","3THR0FZ95PF7SK0MYRNAOUHTWA4OLV","","null","<img src=""img/land3.png"" style=""width:200px; border:14px solid green;"">","null","","","","","","","","","",""
"","image-keyboard-response","142","103164","0.0-142.0","3TOK3KHVJU4AZJ9ELZR2U8VG8DT7OX","A1BJFYHXK6YDX1","3THR0FZ95PF7SK0MYRNAOUHTWA4OLV","","254.5","img/land3.png","76","255.60000002384186","3","1","3","2","1,0.7,0.7,0.7,1,0.7,0.7,0.7,1","1,0.7,0.7,0.7,1,0.7,0.7,0.7,1","","",""
"","html-keyboard-response","143","103468","0.0-143.0","3TOK3KHVJU4AZJ9ELZR2U8VG8DT7OX","A1BJFYHXK6YDX1","3THR0FZ95PF7SK0MYRNAOUHTWA4OLV","","null","<img src=""img/land3.png"" style=""width:200px; border:14px solid green;"">","null","","","","","","","","","",""
"","image-keyboard-response","144","104284","0.0-144.0","3TOK3KHVJU4AZJ9ELZR2U8VG8DT7OX","A1BJFYHXK6YDX1","3THR0FZ95PF7SK0MYRNAOUHTWA4OLV","","814.5","img/land1.png","74","815.7999999523163","1","1","1","2","1,0.7,0.7,0.7,1,0.7,0.7,0.7,1","1,0.7,0.7,0.7,1,0.7,0.7,0.7,1","","",""
"","html-keyboard-response","145","104588","0.0-145.0","3TOK3KHVJU4AZJ9ELZR2U8VG8DT7OX","A1BJFYHXK6YDX1","3THR0FZ95PF7SK0MYRNAOUHTWA4OLV","","null","<img src=""img/land1.png"" style=""width:200px; border:14px solid green;"">","null","","","","","","","","","",""
"","image-keyboard-response","146","104819","0.0-146.0","3TOK3KHVJU4AZJ9ELZR2U8VG8DT7OX","A1BJFYHXK6YDX1","3THR0FZ95PF7SK0MYRNAOUHTWA4OLV","","229.60000002384186","img/land2.png","74","230.70000004768372","1","1","2","2","1,0.7,0.7,0.7,1,0.7,0.7,0.7,1","1,0.7,0.7,0.7,1,0.7,0.7,0.7,1","","",""
"","html-keyboard-response","147","105123","0.0-147.0","3TOK3KHVJU4AZJ9ELZR2U8VG8DT7OX","A1BJFYHXK6YDX1","3THR0FZ95PF7SK0MYRNAOUHTWA4OLV","","null","<img src=""img/land2.png"" style=""width:200px; border:14px solid green;"">","null","","","","","","","","","",""
"","image-keyboard-response","148","105954","0.0-148.0","3TOK3KHVJU4AZJ9ELZR2U8VG8DT7OX","A1BJFYHXK6YDX1","3THR0FZ95PF7SK0MYRNAOUHTWA4OLV","","828.8000000119209","img/land2.png","75","829.9000000357628","2","1","2","2","1,0.7,0.7,0.7,1,0.7,0.7,0.7,1","1,0.7,0.7,0.7,1,0.7,0.7,0.7,1","","",""
"","html-keyboard-response","149","106261","0.0-149.0","3TOK3KHVJU4AZJ9ELZR2U8VG8DT7OX","A1BJFYHXK6YDX1","3THR0FZ95PF7SK0MYRNAOUHTWA4OLV","","null","<img src=""img/land2.png"" style=""width:200px; border:14px solid green;"">","null","","","","","","","","","",""
"","image-keyboard-response","150","106944","0.0-150.0","3TOK3KHVJU4AZJ9ELZR2U8VG8DT7OX","A1BJFYHXK6YDX1","3THR0FZ95PF7SK0MYRNAOUHTWA4OLV","","681.5","img/land3.png","76","682.8999999761581","3","1","3","2","1,0.7,0.7,0.7,1,0.7,0.7,0.7,1","1,0.7,0.7,0.7,1,0.7,0.7,0.7,1","","",""
"","html-keyboard-response","151","107247","0.0-151.0","3TOK3KHVJU4AZJ9ELZR2U8VG8DT7OX","A1BJFYHXK6YDX1","3THR0FZ95PF7SK0MYRNAOUHTWA4OLV","","null","<img src=""img/land3.png"" style=""width:200px; border:14px solid green;"">","null","","","","","","","","","",""
"","image-keyboard-response","152","107975","0.0-152.0","3TOK3KHVJU4AZJ9ELZR2U8VG8DT7OX","A1BJFYHXK6YDX1","3THR0FZ95PF7SK0MYRNAOUHTWA4OLV","","727.5","img/land1.png","74","728.5","1","1","1","2","1,0.7,0.7,0.7,1,0.7,0.7,0.7,1","1,0.7,0.7,0.7,1,0.7,0.7,0.7,1","","",""
"","html-keyboard-response","153","108281","0.0-153.0","3TOK3KHVJU4AZJ9ELZR2U8VG8DT7OX","A1BJFYHXK6YDX1","3THR0FZ95PF7SK0MYRNAOUHTWA4OLV","","null","<img src=""img/land1.png"" style=""width:200px; border:14px solid green;"">","null","","","","","","","","","",""
"","image-keyboard-response","154","108729","0.0-154.0","3TOK3KHVJU4AZJ9ELZR2U8VG8DT7OX","A1BJFYHXK6YDX1","3THR0FZ95PF7SK0MYRNAOUHTWA4OLV","","446.39999997615814","img/land2.png","75","447.5999999642372","2","1","2","2","1,0.7,0.7,0.7,1,0.7,0.7,0.7,1","1,0.7,0.7,0.7,1,0.7,0.7,0.7,1","","",""
"","html-keyboard-response","155","109037","0.0-155.0","3TOK3KHVJU4AZJ9ELZR2U8VG8DT7OX","A1BJFYHXK6YDX1","3THR0FZ95PF7SK0MYRNAOUHTWA4OLV","","null","<img src=""img/land2.png"" style=""width:200px; border:14px solid green;"">","null","","","","","","","","","",""
"","image-keyboard-response","156","109407","0.0-156.0","3TOK3KHVJU4AZJ9ELZR2U8VG8DT7OX","A1BJFYHXK6YDX1","3THR0FZ95PF7SK0MYRNAOUHTWA4OLV","","369.10000002384186","img/land2.png","75","370","2","1","2","2","1,0.7,0.7,0.7,1,0.7,0.7,0.7,1","1,0.7,0.7,0.7,1,0.7,0.7,0.7,1","","",""
"","html-keyboard-response","157","109715","0.0-157.0","3TOK3KHVJU4AZJ9ELZR2U8VG8DT7OX","A1BJFYHXK6YDX1","3THR0FZ95PF7SK0MYRNAOUHTWA4OLV","","null","<img src=""img/land2.png"" style=""width:200px; border:14px solid green;"">","null","","","","","","","","","",""
"","image-keyboard-response","158","110413","0.0-158.0","3TOK3KHVJU4AZJ9ELZR2U8VG8DT7OX","A1BJFYHXK6YDX1","3THR0FZ95PF7SK0MYRNAOUHTWA4OLV","","696.1999999880791","img/land3.png","76","697.3000000119209","3","1","3","2","1,0.7,0.7,0.7,1,0.7,0.7,0.7,1","1,0.7,0.7,0.7,1,0.7,0.7,0.7,1","","",""
"","html-keyboard-response","159","110720","0.0-159.0","3TOK3KHVJU4AZJ9ELZR2U8VG8DT7OX","A1BJFYHXK6YDX1","3THR0FZ95PF7SK0MYRNAOUHTWA4OLV","","null","<img src=""img/land3.png"" style=""width:200px; border:14px solid green;"">","null","","","","","","","","","",""
"","image-keyboard-response","160","111421","0.0-160.0","3TOK3KHVJU4AZJ9ELZR2U8VG8DT7OX","A1BJFYHXK6YDX1","3THR0FZ95PF7SK0MYRNAOUHTWA4OLV","","699.8999999761581","img/land2.png","74","701","1","1","2","2","1,0.7,0.7,0.7,1,0.7,0.7,0.7,1","1,0.7,0.7,0.7,1,0.7,0.7,0.7,1","","",""
"","html-keyboard-response","161","111729","0.0-161.0","3TOK3KHVJU4AZJ9ELZR2U8VG8DT7OX","A1BJFYHXK6YDX1","3THR0FZ95PF7SK0MYRNAOUHTWA4OLV","","null","<img src=""img/land2.png"" style=""width:200px; border:14px solid green;"">","null","","","","","","","","","",""
"","image-keyboard-response","162","112101","0.0-162.0","3TOK3KHVJU4AZJ9ELZR2U8VG8DT7OX","A1BJFYHXK6YDX1","3THR0FZ95PF7SK0MYRNAOUHTWA4OLV","","371.19999998807907","img/land2.png","74","372.0999999642372","1","1","2","2","1,0.7,0.7,0.7,1,0.7,0.7,0.7,1","1,0.7,0.7,0.7,1,0.7,0.7,0.7,1","","",""
"","html-keyboard-response","163","112414","0.0-163.0","3TOK3KHVJU4AZJ9ELZR2U8VG8DT7OX","A1BJFYHXK6YDX1","3THR0FZ95PF7SK0MYRNAOUHTWA4OLV","","null","<img src=""img/land2.png"" style=""width:200px; border:14px solid green;"">","null","","","","","","","","","",""
"","image-keyboard-response","164","113189","0.0-164.0","3TOK3KHVJU4AZJ9ELZR2U8VG8DT7OX","A1BJFYHXK6YDX1","3THR0FZ95PF7SK0MYRNAOUHTWA4OLV","","772.8999999761581","img/land3.png","76","773.9000000357628","3","1","3","2","1,0.7,0.7,0.7,1,0.7,0.7,0.7,1","1,0.7,0.7,0.7,1,0.7,0.7,0.7,1","","",""
"","html-keyboard-response","165","113496","0.0-165.0","3TOK3KHVJU4AZJ9ELZR2U8VG8DT7OX","A1BJFYHXK6YDX1","3THR0FZ95PF7SK0MYRNAOUHTWA4OLV","","null","<img src=""img/land3.png"" style=""width:200px; border:14px solid green;"">","null","","","","","","","","","",""
"","image-keyboard-response","166","114133","0.0-166.0","3TOK3KHVJU4AZJ9ELZR2U8VG8DT7OX","A1BJFYHXK6YDX1","3THR0FZ95PF7SK0MYRNAOUHTWA4OLV","","635.6999999880791","img/land2.png","75","636.8000000119209","2","1","2","2","1,0.7,0.7,0.7,1,0.7,0.7,0.7,1","1,0.7,0.7,0.7,1,0.7,0.7,0.7,1","","",""
"","html-keyboard-response","167","114435","0.0-167.0","3TOK3KHVJU4AZJ9ELZR2U8VG8DT7OX","A1BJFYHXK6YDX1","3THR0FZ95PF7SK0MYRNAOUHTWA4OLV","","null","<img src=""img/land2.png"" style=""width:200px; border:14px solid green;"">","null","","","","","","","","","",""
"","image-keyboard-response","168","115061","0.0-168.0","3TOK3KHVJU4AZJ9ELZR2U8VG8DT7OX","A1BJFYHXK6YDX1","3THR0FZ95PF7SK0MYRNAOUHTWA4OLV","","624.9000000357628","img/land1.png","74","626","1","1","1","2","1,0.7,0.7,0.7,1,0.7,0.7,0.7,1","1,0.7,0.7,0.7,1,0.7,0.7,0.7,1","","",""
"","html-keyboard-response","169","115375","0.0-169.0","3TOK3KHVJU4AZJ9ELZR2U8VG8DT7OX","A1BJFYHXK6YDX1","3THR0FZ95PF7SK0MYRNAOUHTWA4OLV","","null","<img src=""img/land1.png"" style=""width:200px; border:14px solid green;"">","null","","","","","","","","","",""
"","html-keyboard-response","170","117881","0.0-170.0","3TOK3KHVJU4AZJ9ELZR2U8VG8DT7OX","A1BJFYHXK6YDX1","3THR0FZ95PF7SK0MYRNAOUHTWA4OLV","","","","","","","","","","","","","",""
"","image-keyboard-response","171","119258","0.0-171.0","3TOK3KHVJU4AZJ9ELZR2U8VG8DT7OX","A1BJFYHXK6YDX1","3THR0FZ95PF7SK0MYRNAOUHTWA4OLV","","1376.300000011921","img/land6.png","74","1377.1000000238419","1","1","3","2","1,0.7,0.7,0.7,1,0.7,0.7,0.7,1","1,0.7,0.7,0.7,1,0.7,0.7,0.7,1","","",""
"","html-keyboard-response","172","119575","0.0-172.0","3TOK3KHVJU4AZJ9ELZR2U8VG8DT7OX","A1BJFYHXK6YDX1","3THR0FZ95PF7SK0MYRNAOUHTWA4OLV","","null","<img src=""img/land6.png"" style=""width:200px; border:14px solid green;"">","null","","","","","","","","","",""
"","image-keyboard-response","173","119932","0.0-173.0","3TOK3KHVJU4AZJ9ELZR2U8VG8DT7OX","A1BJFYHXK6YDX1","3THR0FZ95PF7SK0MYRNAOUHTWA4OLV","","355.39999997615814","img/land6.png","74","356.7000000476837","1","0","3","2","1,0.7,0.7,0.7,1,0.7,0.7,0.7,1","1,0.7,0.7,0.7,1,0.7,0.7,0.7,1","","",""
"","html-keyboard-response","174","120238","0.0-174.0","3TOK3KHVJU4AZJ9ELZR2U8VG8DT7OX","A1BJFYHXK6YDX1","3THR0FZ95PF7SK0MYRNAOUHTWA4OLV","","null","<img src=""img/land6.png"" style=""width:200px;border:14px solid red;"">","null","","","","","","","","","",""
"","image-keyboard-response","175","121376","0.0-175.0","3TOK3KHVJU4AZJ9ELZR2U8VG8DT7OX","A1BJFYHXK6YDX1","3THR0FZ95PF7SK0MYRNAOUHTWA4OLV","","1136.699999988079","img/land6.png","74","1137.8999999761581","1","1","3","2","1,0.7,0.7,0.7,1,0.7,0.7,0.7,1","1,0.7,0.7,0.7,1,0.7,0.7,0.7,1","","",""
"","html-keyboard-response","176","121680","0.0-176.0","3TOK3KHVJU4AZJ9ELZR2U8VG8DT7OX","A1BJFYHXK6YDX1","3THR0FZ95PF7SK0MYRNAOUHTWA4OLV","","null","<img src=""img/land6.png"" style=""width:200px; border:14px solid green;"">","null","","","","","","","","","",""
"","image-keyboard-response","177","122190","0.0-177.0","3TOK3KHVJU4AZJ9ELZR2U8VG8DT7OX","A1BJFYHXK6YDX1","3THR0FZ95PF7SK0MYRNAOUHTWA4OLV","","508.60000002384186","img/land6.png","74","509.80000001192093","1","1","3","2","1,0.7,0.7,0.7,1,0.7,0.7,0.7,1","1,0.7,0.7,0.7,1,0.7,0.7,0.7,1","","",""
"","html-keyboard-response","178","122494","0.0-178.0","3TOK3KHVJU4AZJ9ELZR2U8VG8DT7OX","A1BJFYHXK6YDX1","3THR0FZ95PF7SK0MYRNAOUHTWA4OLV","","null","<img src=""img/land6.png"" style=""width:200px; border:14px solid green;"">","null","","","","","","","","","",""
"","image-keyboard-response","179","123135","0.0-179.0","3TOK3KHVJU4AZJ9ELZR2U8VG8DT7OX","A1BJFYHXK6YDX1","3THR0FZ95PF7SK0MYRNAOUHTWA4OLV","","639.5","img/land5.png","75","640.6999999880791","2","1","2","2","1,0.7,0.7,0.7,1,0.7,0.7,0.7,1","1,0.7,0.7,0.7,1,0.7,0.7,0.7,1","","",""
"","html-keyboard-response","180","123440","0.0-180.0","3TOK3KHVJU4AZJ9ELZR2U8VG8DT7OX","A1BJFYHXK6YDX1","3THR0FZ95PF7SK0MYRNAOUHTWA4OLV","","null","<img src=""img/land5.png"" style=""width:200px; border:14px solid green;"">","null","","","","","","","","","",""
"","image-keyboard-response","181","124045","0.0-181.0","3TOK3KHVJU4AZJ9ELZR2U8VG8DT7OX","A1BJFYHXK6YDX1","3THR0FZ95PF7SK0MYRNAOUHTWA4OLV","","602.8000000119209","img/land6.png","74","604.2000000476837","1","1","3","2","1,0.7,0.7,0.7,1,0.7,0.7,0.7,1","1,0.7,0.7,0.7,1,0.7,0.7,0.7,1","","",""
"","html-keyboard-response","182","124352","0.0-182.0","3TOK3KHVJU4AZJ9ELZR2U8VG8DT7OX","A1BJFYHXK6YDX1","3THR0FZ95PF7SK0MYRNAOUHTWA4OLV","","null","<img src=""img/land6.png"" style=""width:200px; border:14px solid green;"">","null","","","","","","","","","",""
"","image-keyboard-response","183","125101","0.0-183.0","3TOK3KHVJU4AZJ9ELZR2U8VG8DT7OX","A1BJFYHXK6YDX1","3THR0FZ95PF7SK0MYRNAOUHTWA4OLV","","747","img/land4.png","76","748.5","3","0","1","2","1,0.7,0.7,0.7,1,0.7,0.7,0.7,1","1,0.7,0.7,0.7,1,0.7,0.7,0.7,1","","",""
"","html-keyboard-response","184","125416","0.0-184.0","3TOK3KHVJU4AZJ9ELZR2U8VG8DT7OX","A1BJFYHXK6YDX1","3THR0FZ95PF7SK0MYRNAOUHTWA4OLV","","null","<img src=""img/land4.png"" style=""width:200px;border:14px solid red;"">","null","","","","","","","","","",""
"","image-keyboard-response","185","125982","0.0-185.0","3TOK3KHVJU4AZJ9ELZR2U8VG8DT7OX","A1BJFYHXK6YDX1","3THR0FZ95PF7SK0MYRNAOUHTWA4OLV","","563.8999999761581","img/land5.png","75","565","2","1","2","2","1,0.7,0.7,0.7,1,0.7,0.7,0.7,1","1,0.7,0.7,0.7,1,0.7,0.7,0.7,1","","",""
"","html-keyboard-response","186","126288","0.0-186.0","3TOK3KHVJU4AZJ9ELZR2U8VG8DT7OX","A1BJFYHXK6YDX1","3THR0FZ95PF7SK0MYRNAOUHTWA4OLV","","null","<img src=""img/land5.png"" style=""width:200px; border:14px solid green;"">","null","","","","","","","","","",""
"","image-keyboard-response","187","127125","0.0-187.0","3TOK3KHVJU4AZJ9ELZR2U8VG8DT7OX","A1BJFYHXK6YDX1","3THR0FZ95PF7SK0MYRNAOUHTWA4OLV","","835.6000000238419","img/land4.png","76","837.3999999761581","3","1","1","2","1,0.7,0.7,0.7,1,0.7,0.7,0.7,1","1,0.7,0.7,0.7,1,0.7,0.7,0.7,1","","",""
"","html-keyboard-response","188","127428","0.0-188.0","3TOK3KHVJU4AZJ9ELZR2U8VG8DT7OX","A1BJFYHXK6YDX1","3THR0FZ95PF7SK0MYRNAOUHTWA4OLV","","null","<img src=""img/land4.png"" style=""width:200px; border:14px solid green;"">","null","","","","","","","","","",""
"","image-keyboard-response","189","128119","0.0-189.0","3TOK3KHVJU4AZJ9ELZR2U8VG8DT7OX","A1BJFYHXK6YDX1","3THR0FZ95PF7SK0MYRNAOUHTWA4OLV","","690.1000000238419","img/land5.png","75","691.0999999642372","2","1","2","2","1,0.7,0.7,0.7,1,0.7,0.7,0.7,1","1,0.7,0.7,0.7,1,0.7,0.7,0.7,1","","",""
"","html-keyboard-response","190","128424","0.0-190.0","3TOK3KHVJU4AZJ9ELZR2U8VG8DT7OX","A1BJFYHXK6YDX1","3THR0FZ95PF7SK0MYRNAOUHTWA4OLV","","null","<img src=""img/land5.png"" style=""width:200px; border:14px solid green;"">","null","","","","","","","","","",""
"","image-keyboard-response","191","128922","0.0-191.0","3TOK3KHVJU4AZJ9ELZR2U8VG8DT7OX","A1BJFYHXK6YDX1","3THR0FZ95PF7SK0MYRNAOUHTWA4OLV","","497.19999998807907","img/land4.png","76","498.4000000357628","3","0","1","2","1,0.7,0.7,0.7,1,0.7,0.7,0.7,1","1,0.7,0.7,0.7,1,0.7,0.7,0.7,1","","",""
"","html-keyboard-response","192","129230","0.0-192.0","3TOK3KHVJU4AZJ9ELZR2U8VG8DT7OX","A1BJFYHXK6YDX1","3THR0FZ95PF7SK0MYRNAOUHTWA4OLV","","null","<img src=""img/land4.png"" style=""width:200px;border:14px solid red;"">","null","","","","","","","","","",""
"","image-keyboard-response","193","129665","0.0-193.0","3TOK3KHVJU4AZJ9ELZR2U8VG8DT7OX","A1BJFYHXK6YDX1","3THR0FZ95PF7SK0MYRNAOUHTWA4OLV","","433.4000000357628","img/land4.png","76","434.5","3","0","1","2","1,0.7,0.7,0.7,1,0.7,0.7,0.7,1","1,0.7,0.7,0.7,1,0.7,0.7,0.7,1","","",""
"","html-keyboard-response","194","129976","0.0-194.0","3TOK3KHVJU4AZJ9ELZR2U8VG8DT7OX","A1BJFYHXK6YDX1","3THR0FZ95PF7SK0MYRNAOUHTWA4OLV","","null","<img src=""img/land4.png"" style=""width:200px;border:14px solid red;"">","null","","","","","","","","","",""
"","image-keyboard-response","195","130363","0.0-195.0","3TOK3KHVJU4AZJ9ELZR2U8VG8DT7OX","A1BJFYHXK6YDX1","3THR0FZ95PF7SK0MYRNAOUHTWA4OLV","","385.69999998807907","img/land4.png","75","387.5999999642372","2","1","1","2","1,0.7,0.7,0.7,1,0.7,0.7,0.7,1","1,0.7,0.7,0.7,1,0.7,0.7,0.7,1","","",""
"","html-keyboard-response","196","130665","0.0-196.0","3TOK3KHVJU4AZJ9ELZR2U8VG8DT7OX","A1BJFYHXK6YDX1","3THR0FZ95PF7SK0MYRNAOUHTWA4OLV","","null","<img src=""img/land4.png"" style=""width:200px; border:14px solid green;"">","null","","","","","","","","","",""
"","image-keyboard-response","197","131305","0.0-197.0","3TOK3KHVJU4AZJ9ELZR2U8VG8DT7OX","A1BJFYHXK6YDX1","3THR0FZ95PF7SK0MYRNAOUHTWA4OLV","","639","img/land5.png","76","640.2000000476837","3","0","2","2","1,0.7,0.7,0.7,1,0.7,0.7,0.7,1","1,0.7,0.7,0.7,1,0.7,0.7,0.7,1","","",""
"","html-keyboard-response","198","131608","0.0-198.0","3TOK3KHVJU4AZJ9ELZR2U8VG8DT7OX","A1BJFYHXK6YDX1","3THR0FZ95PF7SK0MYRNAOUHTWA4OLV","","null","<img src=""img/land5.png"" style=""width:200px;border:14px solid red;"">","null","","","","","","","","","",""
"","image-keyboard-response","199","132227","0.0-199.0","3TOK3KHVJU4AZJ9ELZR2U8VG8DT7OX","A1BJFYHXK6YDX1","3THR0FZ95PF7SK0MYRNAOUHTWA4OLV","","617.6000000238419","img/land4.png","75","618.8000000119209","2","0","1","2","1,0.7,0.7,0.7,1,0.7,0.7,0.7,1","1,0.7,0.7,0.7,1,0.7,0.7,0.7,1","","",""
"","html-keyboard-response","200","132544","0.0-200.0","3TOK3KHVJU4AZJ9ELZR2U8VG8DT7OX","A1BJFYHXK6YDX1","3THR0FZ95PF7SK0MYRNAOUHTWA4OLV","","null","<img src=""img/land4.png"" style=""width:200px;border:14px solid red;"">","null","","","","","","","","","",""
"","image-keyboard-response","201","133338","0.0-201.0","3TOK3KHVJU4AZJ9ELZR2U8VG8DT7OX","A1BJFYHXK6YDX1","3THR0FZ95PF7SK0MYRNAOUHTWA4OLV","","792.3000000119209","img/land5.png","74","794.3000000119209","1","1","2","2","1,0.7,0.7,0.7,1,0.7,0.7,0.7,1","1,0.7,0.7,0.7,1,0.7,0.7,0.7,1","","",""
"","html-keyboard-response","202","133644","0.0-202.0","3TOK3KHVJU4AZJ9ELZR2U8VG8DT7OX","A1BJFYHXK6YDX1","3THR0FZ95PF7SK0MYRNAOUHTWA4OLV","","null","<img src=""img/land5.png"" style=""width:200px; border:14px solid green;"">","null","","","","","","","","","",""
"","image-keyboard-response","203","133977","0.0-203.0","3TOK3KHVJU4AZJ9ELZR2U8VG8DT7OX","A1BJFYHXK6YDX1","3THR0FZ95PF7SK0MYRNAOUHTWA4OLV","","331.9000000357628","img/land5.png","74","333.4000000357628","1","1","2","2","1,0.7,0.7,0.7,1,0.7,0.7,0.7,1","1,0.7,0.7,0.7,1,0.7,0.7,0.7,1","","",""
"","html-keyboard-response","204","134284","0.0-204.0","3TOK3KHVJU4AZJ9ELZR2U8VG8DT7OX","A1BJFYHXK6YDX1","3THR0FZ95PF7SK0MYRNAOUHTWA4OLV","","null","<img src=""img/land5.png"" style=""width:200px; border:14px solid green;"">","null","","","","","","","","","",""
"","image-keyboard-response","205","134593","0.0-205.0","3TOK3KHVJU4AZJ9ELZR2U8VG8DT7OX","A1BJFYHXK6YDX1","3THR0FZ95PF7SK0MYRNAOUHTWA4OLV","","307.69999998807907","img/land5.png","74","308.80000001192093","1","1","2","2","1,0.7,0.7,0.7,1,0.7,0.7,0.7,1","1,0.7,0.7,0.7,1,0.7,0.7,0.7,1","","",""
"","html-keyboard-response","206","134900","0.0-206.0","3TOK3KHVJU4AZJ9ELZR2U8VG8DT7OX","A1BJFYHXK6YDX1","3THR0FZ95PF7SK0MYRNAOUHTWA4OLV","","null","<img src=""img/land5.png"" style=""width:200px; border:14px solid green;"">","null","","","","","","","","","",""
"","image-keyboard-response","207","135469","0.0-207.0","3TOK3KHVJU4AZJ9ELZR2U8VG8DT7OX","A1BJFYHXK6YDX1","3THR0FZ95PF7SK0MYRNAOUHTWA4OLV","","567.9000000357628","img/land6.png","75","568.8999999761581","2","0","3","2","1,0.7,0.7,0.7,1,0.7,0.7,0.7,1","1,0.7,0.7,0.7,1,0.7,0.7,0.7,1","","",""
"","html-keyboard-response","208","135776","0.0-208.0","3TOK3KHVJU4AZJ9ELZR2U8VG8DT7OX","A1BJFYHXK6YDX1","3THR0FZ95PF7SK0MYRNAOUHTWA4OLV","","null","<img src=""img/land6.png"" style=""width:200px;border:14px solid red;"">","null","","","","","","","","","",""
"","image-keyboard-response","209","136102","0.0-209.0","3TOK3KHVJU4AZJ9ELZR2U8VG8DT7OX","A1BJFYHXK6YDX1","3THR0FZ95PF7SK0MYRNAOUHTWA4OLV","","324.0999999642372","img/land4.png","74","325.2000000476837","1","1","1","2","1,0.7,0.7,0.7,1,0.7,0.7,0.7,1","1,0.7,0.7,0.7,1,0.7,0.7,0.7,1","","",""
"","html-keyboard-response","210","136415","0.0-210.0","3TOK3KHVJU4AZJ9ELZR2U8VG8DT7OX","A1BJFYHXK6YDX1","3THR0FZ95PF7SK0MYRNAOUHTWA4OLV","","null","<img src=""img/land4.png"" style=""width:200px; border:14px solid green;"">","null","","","","","","","","","",""
"","image-keyboard-response","211","136756","0.0-211.0","3TOK3KHVJU4AZJ9ELZR2U8VG8DT7OX","A1BJFYHXK6YDX1","3THR0FZ95PF7SK0MYRNAOUHTWA4OLV","","339","img/land4.png","74","340.30000001192093","1","1","1","2","1,0.7,0.7,0.7,1,0.7,0.7,0.7,1","1,0.7,0.7,0.7,1,0.7,0.7,0.7,1","","",""
"","html-keyboard-response","212","137064","0.0-212.0","3TOK3KHVJU4AZJ9ELZR2U8VG8DT7OX","A1BJFYHXK6YDX1","3THR0FZ95PF7SK0MYRNAOUHTWA4OLV","","null","<img src=""img/land4.png"" style=""width:200px; border:14px solid green;"">","null","","","","","","","","","",""
"","image-keyboard-response","213","137798","0.0-213.0","3TOK3KHVJU4AZJ9ELZR2U8VG8DT7OX","A1BJFYHXK6YDX1","3THR0FZ95PF7SK0MYRNAOUHTWA4OLV","","732.5999999642372","img/land5.png","74","733.8000000119209","1","1","2","2","1,0.7,0.7,0.7,1,0.7,0.7,0.7,1","1,0.7,0.7,0.7,1,0.7,0.7,0.7,1","","",""
"","html-keyboard-response","214","138103","0.0-214.0","3TOK3KHVJU4AZJ9ELZR2U8VG8DT7OX","A1BJFYHXK6YDX1","3THR0FZ95PF7SK0MYRNAOUHTWA4OLV","","null","<img src=""img/land5.png"" style=""width:200px; border:14px solid green;"">","null","","","","","","","","","",""
"","image-keyboard-response","215","138533","0.0-215.0","3TOK3KHVJU4AZJ9ELZR2U8VG8DT7OX","A1BJFYHXK6YDX1","3THR0FZ95PF7SK0MYRNAOUHTWA4OLV","","429.5999999642372","img/land6.png","74","430.7000000476837","1","1","3","2","1,0.7,0.7,0.7,1,0.7,0.7,0.7,1","1,0.7,0.7,0.7,1,0.7,0.7,0.7,1","","",""
"","html-keyboard-response","216","138837","0.0-216.0","3TOK3KHVJU4AZJ9ELZR2U8VG8DT7OX","A1BJFYHXK6YDX1","3THR0FZ95PF7SK0MYRNAOUHTWA4OLV","","null","<img src=""img/land6.png"" style=""width:200px; border:14px solid green;"">","null","","","","","","","","","",""
"","image-keyboard-response","217","139282","0.0-217.0","3TOK3KHVJU4AZJ9ELZR2U8VG8DT7OX","A1BJFYHXK6YDX1","3THR0FZ95PF7SK0MYRNAOUHTWA4OLV","","443.5999999642372","img/land5.png","74","444.7999999523163","1","1","2","2","1,0.7,0.7,0.7,1,0.7,0.7,0.7,1","1,0.7,0.7,0.7,1,0.7,0.7,0.7,1","","",""
"","html-keyboard-response","218","139588","0.0-218.0","3TOK3KHVJU4AZJ9ELZR2U8VG8DT7OX","A1BJFYHXK6YDX1","3THR0FZ95PF7SK0MYRNAOUHTWA4OLV","","null","<img src=""img/land5.png"" style=""width:200px; border:14px solid green;"">","null","","","","","","","","","",""
"","image-keyboard-response","219","139861","0.0-219.0","3TOK3KHVJU4AZJ9ELZR2U8VG8DT7OX","A1BJFYHXK6YDX1","3THR0FZ95PF7SK0MYRNAOUHTWA4OLV","","271.69999998807907","img/land4.png","74","272.60000002384186","1","1","1","2","1,0.7,0.7,0.7,1,0.7,0.7,0.7,1","1,0.7,0.7,0.7,1,0.7,0.7,0.7,1","","",""
"","html-keyboard-response","220","140169","0.0-220.0","3TOK3KHVJU4AZJ9ELZR2U8VG8DT7OX","A1BJFYHXK6YDX1","3THR0FZ95PF7SK0MYRNAOUHTWA4OLV","","null","<img src=""img/land4.png"" style=""width:200px; border:14px solid green;"">","null","","","","","","","","","",""
"","image-keyboard-response","221","140483","0.0-221.0","3TOK3KHVJU4AZJ9ELZR2U8VG8DT7OX","A1BJFYHXK6YDX1","3THR0FZ95PF7SK0MYRNAOUHTWA4OLV","","311.2000000476837","img/land6.png","74","312.5","1","1","3","2","1,0.7,0.7,0.7,1,0.7,0.7,0.7,1","1,0.7,0.7,0.7,1,0.7,0.7,0.7,1","","",""
"","html-keyboard-response","222","140794","0.0-222.0","3TOK3KHVJU4AZJ9ELZR2U8VG8DT7OX","A1BJFYHXK6YDX1","3THR0FZ95PF7SK0MYRNAOUHTWA4OLV","","null","<img src=""img/land6.png"" style=""width:200px; border:14px solid green;"">","null","","","","","","","","","",""
"","image-keyboard-response","223","141096","0.0-223.0","3TOK3KHVJU4AZJ9ELZR2U8VG8DT7OX","A1BJFYHXK6YDX1","3THR0FZ95PF7SK0MYRNAOUHTWA4OLV","","300.7999999523163","img/land4.png","74","301.80000001192093","1","1","1","2","1,0.7,0.7,0.7,1,0.7,0.7,0.7,1","1,0.7,0.7,0.7,1,0.7,0.7,0.7,1","","",""
"","html-keyboard-response","224","141399","0.0-224.0","3TOK3KHVJU4AZJ9ELZR2U8VG8DT7OX","A1BJFYHXK6YDX1","3THR0FZ95PF7SK0MYRNAOUHTWA4OLV","","null","<img src=""img/land4.png"" style=""width:200px; border:14px solid green;"">","null","","","","","","","","","",""
"","image-keyboard-response","225","141588","0.0-225.0","3TOK3KHVJU4AZJ9ELZR2U8VG8DT7OX","A1BJFYHXK6YDX1","3THR0FZ95PF7SK0MYRNAOUHTWA4OLV","","188.10000002384186","img/land4.png","74","189.30000001192093","1","1","1","2","1,0.7,0.7,0.7,1,0.7,0.7,0.7,1","1,0.7,0.7,0.7,1,0.7,0.7,0.7,1","","",""
"","html-keyboard-response","226","141892","0.0-226.0","3TOK3KHVJU4AZJ9ELZR2U8VG8DT7OX","A1BJFYHXK6YDX1","3THR0FZ95PF7SK0MYRNAOUHTWA4OLV","","null","<img src=""img/land4.png"" style=""width:200px; border:14px solid green;"">","null","","","","","","","","","",""
"","image-keyboard-response","227","142039","0.0-227.0","3TOK3KHVJU4AZJ9ELZR2U8VG8DT7OX","A1BJFYHXK6YDX1","3THR0FZ95PF7SK0MYRNAOUHTWA4OLV","","146.0999999642372","img/land5.png","74","147.19999998807907","1","0","2","2","1,0.7,0.7,0.7,1,0.7,0.7,0.7,1","1,0.7,0.7,0.7,1,0.7,0.7,0.7,1","","",""
"","html-keyboard-response","228","142344","0.0-228.0","3TOK3KHVJU4AZJ9ELZR2U8VG8DT7OX","A1BJFYHXK6YDX1","3THR0FZ95PF7SK0MYRNAOUHTWA4OLV","","null","<img src=""img/land5.png"" style=""width:200px;border:14px solid red;"">","null","","","","","","","","","",""
"","image-keyboard-response","229","143009","0.0-229.0","3TOK3KHVJU4AZJ9ELZR2U8VG8DT7OX","A1BJFYHXK6YDX1","3THR0FZ95PF7SK0MYRNAOUHTWA4OLV","","664","img/land6.png","74","665.1999999880791","1","1","3","2","1,0.7,0.7,0.7,1,0.7,0.7,0.7,1","1,0.7,0.7,0.7,1,0.7,0.7,0.7,1","","",""
"","html-keyboard-response","230","143317","0.0-230.0","3TOK3KHVJU4AZJ9ELZR2U8VG8DT7OX","A1BJFYHXK6YDX1","3THR0FZ95PF7SK0MYRNAOUHTWA4OLV","","null","<img src=""img/land6.png"" style=""width:200px; border:14px solid green;"">","null","","","","","","","","","",""
"","image-keyboard-response","231","143884","0.0-231.0","3TOK3KHVJU4AZJ9ELZR2U8VG8DT7OX","A1BJFYHXK6YDX1","3THR0FZ95PF7SK0MYRNAOUHTWA4OLV","","566.1999999880791","img/land5.png","74","567.3000000119209","1","1","2","2","1,0.7,0.7,0.7,1,0.7,0.7,0.7,1","1,0.7,0.7,0.7,1,0.7,0.7,0.7,1","","",""
"","html-keyboard-response","232","144201","0.0-232.0","3TOK3KHVJU4AZJ9ELZR2U8VG8DT7OX","A1BJFYHXK6YDX1","3THR0FZ95PF7SK0MYRNAOUHTWA4OLV","","null","<img src=""img/land5.png"" style=""width:200px; border:14px solid green;"">","null","","","","","","","","","",""
"","image-keyboard-response","233","145082","0.0-233.0","3TOK3KHVJU4AZJ9ELZR2U8VG8DT7OX","A1BJFYHXK6YDX1","3THR0FZ95PF7SK0MYRNAOUHTWA4OLV","","879.1999999880791","img/land5.png","74","880.3000000119209","1","1","2","2","1,0.7,0.7,0.7,1,0.7,0.7,0.7,1","1,0.7,0.7,0.7,1,0.7,0.7,0.7,1","","",""
"","html-keyboard-response","234","145386","0.0-234.0","3TOK3KHVJU4AZJ9ELZR2U8VG8DT7OX","A1BJFYHXK6YDX1","3THR0FZ95PF7SK0MYRNAOUHTWA4OLV","","null","<img src=""img/land5.png"" style=""width:200px; border:14px solid green;"">","null","","","","","","","","","",""
"","image-keyboard-response","235","145998","0.0-235.0","3TOK3KHVJU4AZJ9ELZR2U8VG8DT7OX","A1BJFYHXK6YDX1","3THR0FZ95PF7SK0MYRNAOUHTWA4OLV","","610.5","img/land5.png","74","611.6000000238419","1","0","2","2","1,0.7,0.7,0.7,1,0.7,0.7,0.7,1","1,0.7,0.7,0.7,1,0.7,0.7,0.7,1","","",""
"","html-keyboard-response","236","146302","0.0-236.0","3TOK3KHVJU4AZJ9ELZR2U8VG8DT7OX","A1BJFYHXK6YDX1","3THR0FZ95PF7SK0MYRNAOUHTWA4OLV","","null","<img src=""img/land5.png"" style=""width:200px;border:14px solid red;"">","null","","","","","","","","","",""
"","image-keyboard-response","237","146997","0.0-237.0","3TOK3KHVJU4AZJ9ELZR2U8VG8DT7OX","A1BJFYHXK6YDX1","3THR0FZ95PF7SK0MYRNAOUHTWA4OLV","","693.5","img/land4.png","76","694.6000000238419","3","1","1","2","1,0.7,0.7,0.7,1,0.7,0.7,0.7,1","1,0.7,0.7,0.7,1,0.7,0.7,0.7,1","","",""
"","html-keyboard-response","238","147314","0.0-238.0","3TOK3KHVJU4AZJ9ELZR2U8VG8DT7OX","A1BJFYHXK6YDX1","3THR0FZ95PF7SK0MYRNAOUHTWA4OLV","","null","<img src=""img/land4.png"" style=""width:200px; border:14px solid green;"">","null","","","","","","","","","",""
"","image-keyboard-response","239","147691","0.0-239.0","3TOK3KHVJU4AZJ9ELZR2U8VG8DT7OX","A1BJFYHXK6YDX1","3THR0FZ95PF7SK0MYRNAOUHTWA4OLV","","376.30000001192093","img/land4.png","75","377.2999999523163","2","1","1","2","1,0.7,0.7,0.7,1,0.7,0.7,0.7,1","1,0.7,0.7,0.7,1,0.7,0.7,0.7,1","","",""
"","html-keyboard-response","240","147995","0.0-240.0","3TOK3KHVJU4AZJ9ELZR2U8VG8DT7OX","A1BJFYHXK6YDX1","3THR0FZ95PF7SK0MYRNAOUHTWA4OLV","","null","<img src=""img/land4.png"" style=""width:200px; border:14px solid green;"">","null","","","","","","","","","",""
"","image-keyboard-response","241","148168","0.0-241.0","3TOK3KHVJU4AZJ9ELZR2U8VG8DT7OX","A1BJFYHXK6YDX1","3THR0FZ95PF7SK0MYRNAOUHTWA4OLV","","172.10000002384186","img/land4.png","76","173.19999998807907","3","1","1","2","1,0.7,0.7,0.7,1,0.7,0.7,0.7,1","1,0.7,0.7,0.7,1,0.7,0.7,0.7,1","","",""
"","html-keyboard-response","242","148482","0.0-242.0","3TOK3KHVJU4AZJ9ELZR2U8VG8DT7OX","A1BJFYHXK6YDX1","3THR0FZ95PF7SK0MYRNAOUHTWA4OLV","","null","<img src=""img/land4.png"" style=""width:200px; border:14px solid green;"">","null","","","","","","","","","",""
"","image-keyboard-response","243","148541","0.0-243.0","3TOK3KHVJU4AZJ9ELZR2U8VG8DT7OX","A1BJFYHXK6YDX1","3THR0FZ95PF7SK0MYRNAOUHTWA4OLV","","57.69999998807907","img/land4.png","76","58.69999998807907","3","1","1","2","1,0.7,0.7,0.7,1,0.7,0.7,0.7,1","1,0.7,0.7,0.7,1,0.7,0.7,0.7,1","","",""
"","html-keyboard-response","244","148844","0.0-244.0","3TOK3KHVJU4AZJ9ELZR2U8VG8DT7OX","A1BJFYHXK6YDX1","3THR0FZ95PF7SK0MYRNAOUHTWA4OLV","","null","<img src=""img/land4.png"" style=""width:200px; border:14px solid green;"">","null","","","","","","","","","",""
"","image-keyboard-response","245","149563","0.0-245.0","3TOK3KHVJU4AZJ9ELZR2U8VG8DT7OX","A1BJFYHXK6YDX1","3THR0FZ95PF7SK0MYRNAOUHTWA4OLV","","717.1999999880791","img/land6.png","74","718.3000000119209","1","1","3","2","1,0.7,0.7,0.7,1,0.7,0.7,0.7,1","1,0.7,0.7,0.7,1,0.7,0.7,0.7,1","","",""
"","html-keyboard-response","246","149872","0.0-246.0","3TOK3KHVJU4AZJ9ELZR2U8VG8DT7OX","A1BJFYHXK6YDX1","3THR0FZ95PF7SK0MYRNAOUHTWA4OLV","","null","<img src=""img/land6.png"" style=""width:200px; border:14px solid green;"">","null","","","","","","","","","",""
"","image-keyboard-response","247","150569","0.0-247.0","3TOK3KHVJU4AZJ9ELZR2U8VG8DT7OX","A1BJFYHXK6YDX1","3THR0FZ95PF7SK0MYRNAOUHTWA4OLV","","696.0999999642372","img/land4.png","75","697.2000000476837","2","0","1","2","1,0.7,0.7,0.7,1,0.7,0.7,0.7,1","1,0.7,0.7,0.7,1,0.7,0.7,0.7,1","","",""
"","html-keyboard-response","248","150876","0.0-248.0","3TOK3KHVJU4AZJ9ELZR2U8VG8DT7OX","A1BJFYHXK6YDX1","3THR0FZ95PF7SK0MYRNAOUHTWA4OLV","","null","<img src=""img/land4.png"" style=""width:200px;border:14px solid red;"">","null","","","","","","","","","",""
"","image-keyboard-response","249","151156","0.0-249.0","3TOK3KHVJU4AZJ9ELZR2U8VG8DT7OX","A1BJFYHXK6YDX1","3THR0FZ95PF7SK0MYRNAOUHTWA4OLV","","279.30000001192093","img/land6.png","74","280.30000001192093","1","1","3","2","1,0.7,0.7,0.7,1,0.7,0.7,0.7,1","1,0.7,0.7,0.7,1,0.7,0.7,0.7,1","","",""
"","html-keyboard-response","250","151461","0.0-250.0","3TOK3KHVJU4AZJ9ELZR2U8VG8DT7OX","A1BJFYHXK6YDX1","3THR0FZ95PF7SK0MYRNAOUHTWA4OLV","","null","<img src=""img/land6.png"" style=""width:200px; border:14px solid green;"">","null","","","","","","","","","",""
"","image-keyboard-response","251","151494","0.0-251.0","3TOK3KHVJU4AZJ9ELZR2U8VG8DT7OX","A1BJFYHXK6YDX1","3THR0FZ95PF7SK0MYRNAOUHTWA4OLV","","31.5","img/land6.png","74","32.59999996423721","1","1","3","2","1,0.7,0.7,0.7,1,0.7,0.7,0.7,1","1,0.7,0.7,0.7,1,0.7,0.7,0.7,1","","",""
"","html-keyboard-response","252","151800","0.0-252.0","3TOK3KHVJU4AZJ9ELZR2U8VG8DT7OX","A1BJFYHXK6YDX1","3THR0FZ95PF7SK0MYRNAOUHTWA4OLV","","null","<img src=""img/land6.png"" style=""width:200px; border:14px solid green;"">","null","","","","","","","","","",""
"","image-keyboard-response","253","152286","0.0-253.0","3TOK3KHVJU4AZJ9ELZR2U8VG8DT7OX","A1BJFYHXK6YDX1","3THR0FZ95PF7SK0MYRNAOUHTWA4OLV","","484","img/land4.png","74","484.80000001192093","1","1","1","2","1,0.7,0.7,0.7,1,0.7,0.7,0.7,1","1,0.7,0.7,0.7,1,0.7,0.7,0.7,1","","",""
"","html-keyboard-response","254","152589","0.0-254.0","3TOK3KHVJU4AZJ9ELZR2U8VG8DT7OX","A1BJFYHXK6YDX1","3THR0FZ95PF7SK0MYRNAOUHTWA4OLV","","null","<img src=""img/land4.png"" style=""width:200px; border:14px solid green;"">","null","","","","","","","","","",""
"","image-keyboard-response","255","152639","0.0-255.0","3TOK3KHVJU4AZJ9ELZR2U8VG8DT7OX","A1BJFYHXK6YDX1","3THR0FZ95PF7SK0MYRNAOUHTWA4OLV","","47.89999997615814","img/land5.png","74","48.90000003576279","1","1","2","2","1,0.7,0.7,0.7,1,0.7,0.7,0.7,1","1,0.7,0.7,0.7,1,0.7,0.7,0.7,1","","",""
"","html-keyboard-response","256","152944","0.0-256.0","3TOK3KHVJU4AZJ9ELZR2U8VG8DT7OX","A1BJFYHXK6YDX1","3THR0FZ95PF7SK0MYRNAOUHTWA4OLV","","null","<img src=""img/land5.png"" style=""width:200px; border:14px solid green;"">","null","","","","","","","","","",""
"","image-keyboard-response","257","153358","0.0-257.0","3TOK3KHVJU4AZJ9ELZR2U8VG8DT7OX","A1BJFYHXK6YDX1","3THR0FZ95PF7SK0MYRNAOUHTWA4OLV","","412.80000001192093","img/land4.png","74","414","1","1","1","2","1,0.7,0.7,0.7,1,0.7,0.7,0.7,1","1,0.7,0.7,0.7,1,0.7,0.7,0.7,1","","",""
"","html-keyboard-response","258","153661","0.0-258.0","3TOK3KHVJU4AZJ9ELZR2U8VG8DT7OX","A1BJFYHXK6YDX1","3THR0FZ95PF7SK0MYRNAOUHTWA4OLV","","null","<img src=""img/land4.png"" style=""width:200px; border:14px solid green;"">","null","","","","","","","","","",""
"","image-keyboard-response","259","153785","0.0-259.0","3TOK3KHVJU4AZJ9ELZR2U8VG8DT7OX","A1BJFYHXK6YDX1","3THR0FZ95PF7SK0MYRNAOUHTWA4OLV","","122.90000003576279","img/land5.png","74","123.79999995231628","1","1","2","2","1,0.7,0.7,0.7,1,0.7,0.7,0.7,1","1,0.7,0.7,0.7,1,0.7,0.7,0.7,1","","",""
"","html-keyboard-response","260","154093","0.0-260.0","3TOK3KHVJU4AZJ9ELZR2U8VG8DT7OX","A1BJFYHXK6YDX1","3THR0FZ95PF7SK0MYRNAOUHTWA4OLV","","null","<img src=""img/land5.png"" style=""width:200px; border:14px solid green;"">","null","","","","","","","","","",""
"","image-keyboard-response","261","154285","0.0-261.0","3TOK3KHVJU4AZJ9ELZR2U8VG8DT7OX","A1BJFYHXK6YDX1","3THR0FZ95PF7SK0MYRNAOUHTWA4OLV","","190.89999997615814","img/land6.png","74","192.19999998807907","1","1","3","2","1,0.7,0.7,0.7,1,0.7,0.7,0.7,1","1,0.7,0.7,0.7,1,0.7,0.7,0.7,1","","",""
"","html-keyboard-response","262","154589","0.0-262.0","3TOK3KHVJU4AZJ9ELZR2U8VG8DT7OX","A1BJFYHXK6YDX1","3THR0FZ95PF7SK0MYRNAOUHTWA4OLV","","null","<img src=""img/land6.png"" style=""width:200px; border:14px solid green;"">","null","","","","","","","","","",""
"","image-keyboard-response","263","155097","0.0-263.0","3TOK3KHVJU4AZJ9ELZR2U8VG8DT7OX","A1BJFYHXK6YDX1","3THR0FZ95PF7SK0MYRNAOUHTWA4OLV","","506.30000001192093","img/land5.png","74","507.4000000357628","1","0","2","2","1,0.7,0.7,0.7,1,0.7,0.7,0.7,1","1,0.7,0.7,0.7,1,0.7,0.7,0.7,1","","",""
"","html-keyboard-response","264","155401","0.0-264.0","3TOK3KHVJU4AZJ9ELZR2U8VG8DT7OX","A1BJFYHXK6YDX1","3THR0FZ95PF7SK0MYRNAOUHTWA4OLV","","null","<img src=""img/land5.png"" style=""width:200px;border:14px solid red;"">","null","","","","","","","","","",""
"","image-keyboard-response","265","156082","0.0-265.0","3TOK3KHVJU4AZJ9ELZR2U8VG8DT7OX","A1BJFYHXK6YDX1","3THR0FZ95PF7SK0MYRNAOUHTWA4OLV","","680.4000000357628","img/land4.png","75","681.1999999880791","2","1","1","2","1,0.7,0.7,0.7,1,0.7,0.7,0.7,1","1,0.7,0.7,0.7,1,0.7,0.7,0.7,1","","",""
"","html-keyboard-response","266","156384","0.0-266.0","3TOK3KHVJU4AZJ9ELZR2U8VG8DT7OX","A1BJFYHXK6YDX1","3THR0FZ95PF7SK0MYRNAOUHTWA4OLV","","null","<img src=""img/land4.png"" style=""width:200px; border:14px solid green;"">","null","","","","","","","","","",""
"","image-keyboard-response","267","156649","0.0-267.0","3TOK3KHVJU4AZJ9ELZR2U8VG8DT7OX","A1BJFYHXK6YDX1","3THR0FZ95PF7SK0MYRNAOUHTWA4OLV","","263.39999997615814","img/land5.png","74","264.5","1","1","2","2","1,0.7,0.7,0.7,1,0.7,0.7,0.7,1","1,0.7,0.7,0.7,1,0.7,0.7,0.7,1","","",""
"","html-keyboard-response","268","156952","0.0-268.0","3TOK3KHVJU4AZJ9ELZR2U8VG8DT7OX","A1BJFYHXK6YDX1","3THR0FZ95PF7SK0MYRNAOUHTWA4OLV","","null","<img src=""img/land5.png"" style=""width:200px; border:14px solid green;"">","null","","","","","","","","","",""
"","image-keyboard-response","269","157190","0.0-269.0","3TOK3KHVJU4AZJ9ELZR2U8VG8DT7OX","A1BJFYHXK6YDX1","3THR0FZ95PF7SK0MYRNAOUHTWA4OLV","","237.19999998807907","img/land5.png","74","238","1","1","2","2","1,0.7,0.7,0.7,1,0.7,0.7,0.7,1","1,0.7,0.7,0.7,1,0.7,0.7,0.7,1","","",""
"","html-keyboard-response","270","157496","0.0-270.0","3TOK3KHVJU4AZJ9ELZR2U8VG8DT7OX","A1BJFYHXK6YDX1","3THR0FZ95PF7SK0MYRNAOUHTWA4OLV","","null","<img src=""img/land5.png"" style=""width:200px; border:14px solid green;"">","null","","","","","","","","","",""
"","image-keyboard-response","271","157814","0.0-271.0","3TOK3KHVJU4AZJ9ELZR2U8VG8DT7OX","A1BJFYHXK6YDX1","3THR0FZ95PF7SK0MYRNAOUHTWA4OLV","","316.5","img/land5.png","74","317.69999998807907","1","1","2","2","1,0.7,0.7,0.7,1,0.7,0.7,0.7,1","1,0.7,0.7,0.7,1,0.7,0.7,0.7,1","","",""
"","html-keyboard-response","272","158120","0.0-272.0","3TOK3KHVJU4AZJ9ELZR2U8VG8DT7OX","A1BJFYHXK6YDX1","3THR0FZ95PF7SK0MYRNAOUHTWA4OLV","","null","<img src=""img/land5.png"" style=""width:200px; border:14px solid green;"">","null","","","","","","","","","",""
"","image-keyboard-response","273","159104","0.0-273.0","3TOK3KHVJU4AZJ9ELZR2U8VG8DT7OX","A1BJFYHXK6YDX1","3THR0FZ95PF7SK0MYRNAOUHTWA4OLV","","982.8000000119209","img/land4.png","74","983.8000000119209","1","1","1","2","1,0.7,0.7,0.7,1,0.7,0.7,0.7,1","1,0.7,0.7,0.7,1,0.7,0.7,0.7,1","","",""
"","html-keyboard-response","274","159406","0.0-274.0","3TOK3KHVJU4AZJ9ELZR2U8VG8DT7OX","A1BJFYHXK6YDX1","3THR0FZ95PF7SK0MYRNAOUHTWA4OLV","","null","<img src=""img/land4.png"" style=""width:200px; border:14px solid green;"">","null","","","","","","","","","",""
"","image-keyboard-response","275","160420","0.0-275.0","3TOK3KHVJU4AZJ9ELZR2U8VG8DT7OX","A1BJFYHXK6YDX1","3THR0FZ95PF7SK0MYRNAOUHTWA4OLV","","1012.5","img/land6.png","76","1013.5","3","1","3","2","1,0.7,0.7,0.7,1,0.7,0.7,0.7,1","1,0.7,0.7,0.7,1,0.7,0.7,0.7,1","","",""
"","html-keyboard-response","276","160723","0.0-276.0","3TOK3KHVJU4AZJ9ELZR2U8VG8DT7OX","A1BJFYHXK6YDX1","3THR0FZ95PF7SK0MYRNAOUHTWA4OLV","","null","<img src=""img/land6.png"" style=""width:200px; border:14px solid green;"">","null","","","","","","","","","",""
"","image-keyboard-response","277","161052","0.0-277.0","3TOK3KHVJU4AZJ9ELZR2U8VG8DT7OX","A1BJFYHXK6YDX1","3THR0FZ95PF7SK0MYRNAOUHTWA4OLV","","328.10000002384186","img/land6.png","76","329.0999999642372","3","1","3","2","1,0.7,0.7,0.7,1,0.7,0.7,0.7,1","1,0.7,0.7,0.7,1,0.7,0.7,0.7,1","","",""
"","html-keyboard-response","278","161360","0.0-278.0","3TOK3KHVJU4AZJ9ELZR2U8VG8DT7OX","A1BJFYHXK6YDX1","3THR0FZ95PF7SK0MYRNAOUHTWA4OLV","","null","<img src=""img/land6.png"" style=""width:200px; border:14px solid green;"">","null","","","","","","","","","",""
"","image-keyboard-response","279","161725","0.0-279.0","3TOK3KHVJU4AZJ9ELZR2U8VG8DT7OX","A1BJFYHXK6YDX1","3THR0FZ95PF7SK0MYRNAOUHTWA4OLV","","363.30000001192093","img/land6.png","76","364.4000000357628","3","1","3","2","1,0.7,0.7,0.7,1,0.7,0.7,0.7,1","1,0.7,0.7,0.7,1,0.7,0.7,0.7,1","","",""
"","html-keyboard-response","280","162034","0.0-280.0","3TOK3KHVJU4AZJ9ELZR2U8VG8DT7OX","A1BJFYHXK6YDX1","3THR0FZ95PF7SK0MYRNAOUHTWA4OLV","","null","<img src=""img/land6.png"" style=""width:200px; border:14px solid green;"">","null","","","","","","","","","",""
"","image-keyboard-response","281","162587","0.0-281.0","3TOK3KHVJU4AZJ9ELZR2U8VG8DT7OX","A1BJFYHXK6YDX1","3THR0FZ95PF7SK0MYRNAOUHTWA4OLV","","551.5","img/land5.png","75","552.6999999880791","2","1","2","2","1,0.7,0.7,0.7,1,0.7,0.7,0.7,1","1,0.7,0.7,0.7,1,0.7,0.7,0.7,1","","",""
"","html-keyboard-response","282","162896","0.0-282.0","3TOK3KHVJU4AZJ9ELZR2U8VG8DT7OX","A1BJFYHXK6YDX1","3THR0FZ95PF7SK0MYRNAOUHTWA4OLV","","null","<img src=""img/land5.png"" style=""width:200px; border:14px solid green;"">","null","","","","","","","","","",""
"","image-keyboard-response","283","163340","0.0-283.0","3TOK3KHVJU4AZJ9ELZR2U8VG8DT7OX","A1BJFYHXK6YDX1","3THR0FZ95PF7SK0MYRNAOUHTWA4OLV","","442.2999999523163","img/land4.png","75","443.4000000357628","2","0","1","2","1,0.7,0.7,0.7,1,0.7,0.7,0.7,1","1,0.7,0.7,0.7,1,0.7,0.7,0.7,1","","",""
"","html-keyboard-response","284","163655","0.0-284.0","3TOK3KHVJU4AZJ9ELZR2U8VG8DT7OX","A1BJFYHXK6YDX1","3THR0FZ95PF7SK0MYRNAOUHTWA4OLV","","null","<img src=""img/land4.png"" style=""width:200px;border:14px solid red;"">","null","","","","","","","","","",""
"","image-keyboard-response","285","164397","0.0-285.0","3TOK3KHVJU4AZJ9ELZR2U8VG8DT7OX","A1BJFYHXK6YDX1","3THR0FZ95PF7SK0MYRNAOUHTWA4OLV","","740.8000000119209","img/land6.png","75","741.8999999761581","2","1","3","2","1,0.7,0.7,0.7,1,0.7,0.7,0.7,1","1,0.7,0.7,0.7,1,0.7,0.7,0.7,1","","",""
"","html-keyboard-response","286","164702","0.0-286.0","3TOK3KHVJU4AZJ9ELZR2U8VG8DT7OX","A1BJFYHXK6YDX1","3THR0FZ95PF7SK0MYRNAOUHTWA4OLV","","null","<img src=""img/land6.png"" style=""width:200px; border:14px solid green;"">","null","","","","","","","","","",""
"","image-keyboard-response","287","165374","0.0-287.0","3TOK3KHVJU4AZJ9ELZR2U8VG8DT7OX","A1BJFYHXK6YDX1","3THR0FZ95PF7SK0MYRNAOUHTWA4OLV","","670.0999999642372","img/land5.png","75","671.1999999880791","2","1","2","2","1,0.7,0.7,0.7,1,0.7,0.7,0.7,1","1,0.7,0.7,0.7,1,0.7,0.7,0.7,1","","",""
"","html-keyboard-response","288","165684","0.0-288.0","3TOK3KHVJU4AZJ9ELZR2U8VG8DT7OX","A1BJFYHXK6YDX1","3THR0FZ95PF7SK0MYRNAOUHTWA4OLV","","null","<img src=""img/land5.png"" style=""width:200px; border:14px solid green;"">","null","","","","","","","","","",""
"","image-keyboard-response","289","166077","0.0-289.0","3TOK3KHVJU4AZJ9ELZR2U8VG8DT7OX","A1BJFYHXK6YDX1","3THR0FZ95PF7SK0MYRNAOUHTWA4OLV","","392.30000001192093","img/land5.png","75","393.19999998807907","2","1","2","2","1,0.7,0.7,0.7,1,0.7,0.7,0.7,1","1,0.7,0.7,0.7,1,0.7,0.7,0.7,1","","",""
"","html-keyboard-response","290","166386","0.0-290.0","3TOK3KHVJU4AZJ9ELZR2U8VG8DT7OX","A1BJFYHXK6YDX1","3THR0FZ95PF7SK0MYRNAOUHTWA4OLV","","null","<img src=""img/land5.png"" style=""width:200px; border:14px solid green;"">","null","","","","","","","","","",""
"","image-keyboard-response","291","166809","0.0-291.0","3TOK3KHVJU4AZJ9ELZR2U8VG8DT7OX","A1BJFYHXK6YDX1","3THR0FZ95PF7SK0MYRNAOUHTWA4OLV","","422.19999998807907","img/land5.png","75","423.39999997615814","2","1","2","2","1,0.7,0.7,0.7,1,0.7,0.7,0.7,1","1,0.7,0.7,0.7,1,0.7,0.7,0.7,1","","",""
"","html-keyboard-response","292","167111","0.0-292.0","3TOK3KHVJU4AZJ9ELZR2U8VG8DT7OX","A1BJFYHXK6YDX1","3THR0FZ95PF7SK0MYRNAOUHTWA4OLV","","null","<img src=""img/land5.png"" style=""width:200px; border:14px solid green;"">","null","","","","","","","","","",""
"","image-keyboard-response","293","167867","0.0-293.0","3TOK3KHVJU4AZJ9ELZR2U8VG8DT7OX","A1BJFYHXK6YDX1","3THR0FZ95PF7SK0MYRNAOUHTWA4OLV","","754.5","img/land6.png","75","755.8000000119209","2","1","3","2","1,0.7,0.7,0.7,1,0.7,0.7,0.7,1","1,0.7,0.7,0.7,1,0.7,0.7,0.7,1","","",""
"","html-keyboard-response","294","168173","0.0-294.0","3TOK3KHVJU4AZJ9ELZR2U8VG8DT7OX","A1BJFYHXK6YDX1","3THR0FZ95PF7SK0MYRNAOUHTWA4OLV","","null","<img src=""img/land6.png"" style=""width:200px; border:14px solid green;"">","null","","","","","","","","","",""
"","image-keyboard-response","295","169250","0.0-295.0","3TOK3KHVJU4AZJ9ELZR2U8VG8DT7OX","A1BJFYHXK6YDX1","3THR0FZ95PF7SK0MYRNAOUHTWA4OLV","","1074.800000011921","img/land4.png","75","1075.9000000357628","2","1","1","2","1,0.7,0.7,0.7,1,0.7,0.7,0.7,1","1,0.7,0.7,0.7,1,0.7,0.7,0.7,1","","",""
"","html-keyboard-response","296","169556","0.0-296.0","3TOK3KHVJU4AZJ9ELZR2U8VG8DT7OX","A1BJFYHXK6YDX1","3THR0FZ95PF7SK0MYRNAOUHTWA4OLV","","null","<img src=""img/land4.png"" style=""width:200px; border:14px solid green;"">","null","","","","","","","","","",""
"","image-keyboard-response","297","170300","0.0-297.0","3TOK3KHVJU4AZJ9ELZR2U8VG8DT7OX","A1BJFYHXK6YDX1","3THR0FZ95PF7SK0MYRNAOUHTWA4OLV","","742.3000000119209","img/land6.png","75","743.3999999761581","2","0","3","2","1,0.7,0.7,0.7,1,0.7,0.7,0.7,1","1,0.7,0.7,0.7,1,0.7,0.7,0.7,1","","",""
"","html-keyboard-response","298","170601","0.0-298.0","3TOK3KHVJU4AZJ9ELZR2U8VG8DT7OX","A1BJFYHXK6YDX1","3THR0FZ95PF7SK0MYRNAOUHTWA4OLV","","null","<img src=""img/land6.png"" style=""width:200px;border:14px solid red;"">","null","","","","","","","","","",""
"","image-keyboard-response","299","171189","0.0-299.0","3TOK3KHVJU4AZJ9ELZR2U8VG8DT7OX","A1BJFYHXK6YDX1","3THR0FZ95PF7SK0MYRNAOUHTWA4OLV","","586.2999999523163","img/land4.png","74","587.3999999761581","1","1","1","2","1,0.7,0.7,0.7,1,0.7,0.7,0.7,1","1,0.7,0.7,0.7,1,0.7,0.7,0.7,1","","",""
"","html-keyboard-response","300","171491","0.0-300.0","3TOK3KHVJU4AZJ9ELZR2U8VG8DT7OX","A1BJFYHXK6YDX1","3THR0FZ95PF7SK0MYRNAOUHTWA4OLV","","null","<img src=""img/land4.png"" style=""width:200px; border:14px solid green;"">","null","","","","","","","","","",""
"","image-keyboard-response","301","171726","0.0-301.0","3TOK3KHVJU4AZJ9ELZR2U8VG8DT7OX","A1BJFYHXK6YDX1","3THR0FZ95PF7SK0MYRNAOUHTWA4OLV","","233.5","img/land4.png","74","234.4000000357628","1","1","1","2","1,0.7,0.7,0.7,1,0.7,0.7,0.7,1","1,0.7,0.7,0.7,1,0.7,0.7,0.7,1","","",""
"","html-keyboard-response","302","172028","0.0-302.0","3TOK3KHVJU4AZJ9ELZR2U8VG8DT7OX","A1BJFYHXK6YDX1","3THR0FZ95PF7SK0MYRNAOUHTWA4OLV","","null","<img src=""img/land4.png"" style=""width:200px; border:14px solid green;"">","null","","","","","","","","","",""
"","image-keyboard-response","303","172095","0.0-303.0","3TOK3KHVJU4AZJ9ELZR2U8VG8DT7OX","A1BJFYHXK6YDX1","3THR0FZ95PF7SK0MYRNAOUHTWA4OLV","","66.5","img/land5.png","74","67.60000002384186","1","0","2","2","1,0.7,0.7,0.7,1,0.7,0.7,0.7,1","1,0.7,0.7,0.7,1,0.7,0.7,0.7,1","","",""
"","html-keyboard-response","304","172399","0.0-304.0","3TOK3KHVJU4AZJ9ELZR2U8VG8DT7OX","A1BJFYHXK6YDX1","3THR0FZ95PF7SK0MYRNAOUHTWA4OLV","","null","<img src=""img/land5.png"" style=""width:200px;border:14px solid red;"">","null","","","","","","","","","",""
"","image-keyboard-response","305","172907","0.0-305.0","3TOK3KHVJU4AZJ9ELZR2U8VG8DT7OX","A1BJFYHXK6YDX1","3THR0FZ95PF7SK0MYRNAOUHTWA4OLV","","506.5999999642372","img/land4.png","75","507.7000000476837","2","1","1","2","1,0.7,0.7,0.7,1,0.7,0.7,0.7,1","1,0.7,0.7,0.7,1,0.7,0.7,0.7,1","","",""
"","html-keyboard-response","306","173214","0.0-306.0","3TOK3KHVJU4AZJ9ELZR2U8VG8DT7OX","A1BJFYHXK6YDX1","3THR0FZ95PF7SK0MYRNAOUHTWA4OLV","","null","<img src=""img/land4.png"" style=""width:200px; border:14px solid green;"">","null","","","","","","","","","",""
"","image-keyboard-response","307","173682","0.0-307.0","3TOK3KHVJU4AZJ9ELZR2U8VG8DT7OX","A1BJFYHXK6YDX1","3THR0FZ95PF7SK0MYRNAOUHTWA4OLV","","466.80000001192093","img/land6.png","75","468","2","1","3","2","1,0.7,0.7,0.7,1,0.7,0.7,0.7,1","1,0.7,0.7,0.7,1,0.7,0.7,0.7,1","","",""
"","html-keyboard-response","308","173986","0.0-308.0","3TOK3KHVJU4AZJ9ELZR2U8VG8DT7OX","A1BJFYHXK6YDX1","3THR0FZ95PF7SK0MYRNAOUHTWA4OLV","","null","<img src=""img/land6.png"" style=""width:200px; border:14px solid green;"">","null","","","","","","","","","",""
"","image-keyboard-response","309","174363","0.0-309.0","3TOK3KHVJU4AZJ9ELZR2U8VG8DT7OX","A1BJFYHXK6YDX1","3THR0FZ95PF7SK0MYRNAOUHTWA4OLV","","375.7999999523163","img/land6.png","75","377","2","1","3","2","1,0.7,0.7,0.7,1,0.7,0.7,0.7,1","1,0.7,0.7,0.7,1,0.7,0.7,0.7,1","","",""
"","html-keyboard-response","310","174665","0.0-310.0","3TOK3KHVJU4AZJ9ELZR2U8VG8DT7OX","A1BJFYHXK6YDX1","3THR0FZ95PF7SK0MYRNAOUHTWA4OLV","","null","<img src=""img/land6.png"" style=""width:200px; border:14px solid green;"">","null","","","","","","","","","",""
"","image-keyboard-response","311","174988","0.0-311.0","3TOK3KHVJU4AZJ9ELZR2U8VG8DT7OX","A1BJFYHXK6YDX1","3THR0FZ95PF7SK0MYRNAOUHTWA4OLV","","321.60000002384186","img/land6.png","75","322.80000001192093","2","1","3","2","1,0.7,0.7,0.7,1,0.7,0.7,0.7,1","1,0.7,0.7,0.7,1,0.7,0.7,0.7,1","","",""
"","html-keyboard-response","312","175295","0.0-312.0","3TOK3KHVJU4AZJ9ELZR2U8VG8DT7OX","A1BJFYHXK6YDX1","3THR0FZ95PF7SK0MYRNAOUHTWA4OLV","","null","<img src=""img/land6.png"" style=""width:200px; border:14px solid green;"">","null","","","","","","","","","",""
"","image-keyboard-response","313","175681","0.0-313.0","3TOK3KHVJU4AZJ9ELZR2U8VG8DT7OX","A1BJFYHXK6YDX1","3THR0FZ95PF7SK0MYRNAOUHTWA4OLV","","384.80000001192093","img/land6.png","75","385.9000000357628","2","1","3","2","1,0.7,0.7,0.7,1,0.7,0.7,0.7,1","1,0.7,0.7,0.7,1,0.7,0.7,0.7,1","","",""
"","html-keyboard-response","314","175987","0.0-314.0","3TOK3KHVJU4AZJ9ELZR2U8VG8DT7OX","A1BJFYHXK6YDX1","3THR0FZ95PF7SK0MYRNAOUHTWA4OLV","","null","<img src=""img/land6.png"" style=""width:200px; border:14px solid green;"">","null","","","","","","","","","",""
"","image-keyboard-response","315","176357","0.0-315.0","3TOK3KHVJU4AZJ9ELZR2U8VG8DT7OX","A1BJFYHXK6YDX1","3THR0FZ95PF7SK0MYRNAOUHTWA4OLV","","369.60000002384186","img/land6.png","75","370.80000001192093","2","0","3","2","1,0.7,0.7,0.7,1,0.7,0.7,0.7,1","1,0.7,0.7,0.7,1,0.7,0.7,0.7,1","","",""
"","html-keyboard-response","316","176665","0.0-316.0","3TOK3KHVJU4AZJ9ELZR2U8VG8DT7OX","A1BJFYHXK6YDX1","3THR0FZ95PF7SK0MYRNAOUHTWA4OLV","","null","<img src=""img/land6.png"" style=""width:200px;border:14px solid red;"">","null","","","","","","","","","",""
"","image-keyboard-response","317","177253","0.0-317.0","3TOK3KHVJU4AZJ9ELZR2U8VG8DT7OX","A1BJFYHXK6YDX1","3THR0FZ95PF7SK0MYRNAOUHTWA4OLV","","587.3999999761581","img/land4.png","75","588.5","2","1","1","2","1,0.7,0.7,0.7,1,0.7,0.7,0.7,1","1,0.7,0.7,0.7,1,0.7,0.7,0.7,1","","",""
"","html-keyboard-response","318","177563","0.0-318.0","3TOK3KHVJU4AZJ9ELZR2U8VG8DT7OX","A1BJFYHXK6YDX1","3THR0FZ95PF7SK0MYRNAOUHTWA4OLV","","null","<img src=""img/land4.png"" style=""width:200px; border:14px solid green;"">","null","","","","","","","","","",""
"","image-keyboard-response","319","178429","0.0-319.0","3TOK3KHVJU4AZJ9ELZR2U8VG8DT7OX","A1BJFYHXK6YDX1","3THR0FZ95PF7SK0MYRNAOUHTWA4OLV","","864.8999999761581","img/land6.png","74","865.9000000357628","1","0","3","2","1,0.7,0.7,0.7,1,0.7,0.7,0.7,1","1,0.7,0.7,0.7,1,0.7,0.7,0.7,1","","",""
"","html-keyboard-response","320","178734","0.0-320.0","3TOK3KHVJU4AZJ9ELZR2U8VG8DT7OX","A1BJFYHXK6YDX1","3THR0FZ95PF7SK0MYRNAOUHTWA4OLV","","null","<img src=""img/land6.png"" style=""width:200px;border:14px solid red;"">","null","","","","","","","","","",""
"","image-keyboard-response","321","179104","0.0-321.0","3TOK3KHVJU4AZJ9ELZR2U8VG8DT7OX","A1BJFYHXK6YDX1","3THR0FZ95PF7SK0MYRNAOUHTWA4OLV","","368.80000001192093","img/land6.png","76","369.7999999523163","3","1","3","2","1,0.7,0.7,0.7,1,0.7,0.7,0.7,1","1,0.7,0.7,0.7,1,0.7,0.7,0.7,1","","",""
"","html-keyboard-response","322","179408","0.0-322.0","3TOK3KHVJU4AZJ9ELZR2U8VG8DT7OX","A1BJFYHXK6YDX1","3THR0FZ95PF7SK0MYRNAOUHTWA4OLV","","null","<img src=""img/land6.png"" style=""width:200px; border:14px solid green;"">","null","","","","","","","","","",""
"","image-keyboard-response","323","179735","0.0-323.0","3TOK3KHVJU4AZJ9ELZR2U8VG8DT7OX","A1BJFYHXK6YDX1","3THR0FZ95PF7SK0MYRNAOUHTWA4OLV","","326.2000000476837","img/land6.png","76","327.19999998807907","3","1","3","2","1,0.7,0.7,0.7,1,0.7,0.7,0.7,1","1,0.7,0.7,0.7,1,0.7,0.7,0.7,1","","",""
"","html-keyboard-response","324","180043","0.0-324.0","3TOK3KHVJU4AZJ9ELZR2U8VG8DT7OX","A1BJFYHXK6YDX1","3THR0FZ95PF7SK0MYRNAOUHTWA4OLV","","null","<img src=""img/land6.png"" style=""width:200px; border:14px solid green;"">","null","","","","","","","","","",""
"","image-keyboard-response","325","180635","0.0-325.0","3TOK3KHVJU4AZJ9ELZR2U8VG8DT7OX","A1BJFYHXK6YDX1","3THR0FZ95PF7SK0MYRNAOUHTWA4OLV","","591.1000000238419","img/land5.png","75","592.3000000119209","2","1","2","2","1,0.7,0.7,0.7,1,0.7,0.7,0.7,1","1,0.7,0.7,0.7,1,0.7,0.7,0.7,1","","",""
"","html-keyboard-response","326","180941","0.0-326.0","3TOK3KHVJU4AZJ9ELZR2U8VG8DT7OX","A1BJFYHXK6YDX1","3THR0FZ95PF7SK0MYRNAOUHTWA4OLV","","null","<img src=""img/land5.png"" style=""width:200px; border:14px solid green;"">","null","","","","","","","","","",""
"","image-keyboard-response","327","181739","0.0-327.0","3TOK3KHVJU4AZJ9ELZR2U8VG8DT7OX","A1BJFYHXK6YDX1","3THR0FZ95PF7SK0MYRNAOUHTWA4OLV","","797.5","img/land4.png","76","798.6000000238419","3","1","1","2","1,0.7,0.7,0.7,1,0.7,0.7,0.7,1","1,0.7,0.7,0.7,1,0.7,0.7,0.7,1","","",""
"","html-keyboard-response","328","182047","0.0-328.0","3TOK3KHVJU4AZJ9ELZR2U8VG8DT7OX","A1BJFYHXK6YDX1","3THR0FZ95PF7SK0MYRNAOUHTWA4OLV","","null","<img src=""img/land4.png"" style=""width:200px; border:14px solid green;"">","null","","","","","","","","","",""
"","image-keyboard-response","329","182448","0.0-329.0","3TOK3KHVJU4AZJ9ELZR2U8VG8DT7OX","A1BJFYHXK6YDX1","3THR0FZ95PF7SK0MYRNAOUHTWA4OLV","","400","img/land4.png","76","401.19999998807907","3","1","1","2","1,0.7,0.7,0.7,1,0.7,0.7,0.7,1","1,0.7,0.7,0.7,1,0.7,0.7,0.7,1","","",""
"","html-keyboard-response","330","182753","0.0-330.0","3TOK3KHVJU4AZJ9ELZR2U8VG8DT7OX","A1BJFYHXK6YDX1","3THR0FZ95PF7SK0MYRNAOUHTWA4OLV","","null","<img src=""img/land4.png"" style=""width:200px; border:14px solid green;"">","null","","","","","","","","","",""
"","image-keyboard-response","331","183340","0.0-331.0","3TOK3KHVJU4AZJ9ELZR2U8VG8DT7OX","A1BJFYHXK6YDX1","3THR0FZ95PF7SK0MYRNAOUHTWA4OLV","","585.5","img/land5.png","75","586.7000000476837","2","1","2","2","1,0.7,0.7,0.7,1,0.7,0.7,0.7,1","1,0.7,0.7,0.7,1,0.7,0.7,0.7,1","","",""
"","html-keyboard-response","332","183645","0.0-332.0","3TOK3KHVJU4AZJ9ELZR2U8VG8DT7OX","A1BJFYHXK6YDX1","3THR0FZ95PF7SK0MYRNAOUHTWA4OLV","","null","<img src=""img/land5.png"" style=""width:200px; border:14px solid green;"">","null","","","","","","","","","",""
"","image-keyboard-response","333","184071","0.0-333.0","3TOK3KHVJU4AZJ9ELZR2U8VG8DT7OX","A1BJFYHXK6YDX1","3THR0FZ95PF7SK0MYRNAOUHTWA4OLV","","424.2999999523163","img/land5.png","75","425.4000000357628","2","1","2","2","1,0.7,0.7,0.7,1,0.7,0.7,0.7,1","1,0.7,0.7,0.7,1,0.7,0.7,0.7,1","","",""
"","html-keyboard-response","334","184388","0.0-334.0","3TOK3KHVJU4AZJ9ELZR2U8VG8DT7OX","A1BJFYHXK6YDX1","3THR0FZ95PF7SK0MYRNAOUHTWA4OLV","","null","<img src=""img/land5.png"" style=""width:200px; border:14px solid green;"">","null","","","","","","","","","",""
"","image-keyboard-response","335","184972","0.0-335.0","3TOK3KHVJU4AZJ9ELZR2U8VG8DT7OX","A1BJFYHXK6YDX1","3THR0FZ95PF7SK0MYRNAOUHTWA4OLV","","583.1999999880791","img/land6.png","74","584.3000000119209","1","0","3","2","1,0.7,0.7,0.7,1,0.7,0.7,0.7,1","1,0.7,0.7,0.7,1,0.7,0.7,0.7,1","","",""
"","html-keyboard-response","336","185285","0.0-336.0","3TOK3KHVJU4AZJ9ELZR2U8VG8DT7OX","A1BJFYHXK6YDX1","3THR0FZ95PF7SK0MYRNAOUHTWA4OLV","","null","<img src=""img/land6.png"" style=""width:200px;border:14px solid red;"">","null","","","","","","","","","",""
"","image-keyboard-response","337","185633","0.0-337.0","3TOK3KHVJU4AZJ9ELZR2U8VG8DT7OX","A1BJFYHXK6YDX1","3THR0FZ95PF7SK0MYRNAOUHTWA4OLV","","346.9000000357628","img/land5.png","75","348.5","2","1","2","2","1,0.7,0.7,0.7,1,0.7,0.7,0.7,1","1,0.7,0.7,0.7,1,0.7,0.7,0.7,1","","",""
"","html-keyboard-response","338","185938","0.0-338.0","3TOK3KHVJU4AZJ9ELZR2U8VG8DT7OX","A1BJFYHXK6YDX1","3THR0FZ95PF7SK0MYRNAOUHTWA4OLV","","null","<img src=""img/land5.png"" style=""width:200px; border:14px solid green;"">","null","","","","","","","","","",""
"","instructions","339","188697","0.0-339.0","3TOK3KHVJU4AZJ9ELZR2U8VG8DT7OX","A1BJFYHXK6YDX1","3THR0FZ95PF7SK0MYRNAOUHTWA4OLV","[{""page_index"":0,""viewing_time"":2757.2999999523163}]","2757.699999988079","","","","","","","","","","","",""
"","survey-text","340","192278","0.0-340.0-0.0","3TOK3KHVJU4AZJ9ELZR2U8VG8DT7OX","A1BJFYHXK6YDX1","3THR0FZ95PF7SK0MYRNAOUHTWA4OLV","","3578","","","","","","","","","","","{""Q0"":""30""}",""
"","survey-multi-choice","341","194372","0.0-340.0-1.0","3TOK3KHVJU4AZJ9ELZR2U8VG8DT7OX","A1BJFYHXK6YDX1","3THR0FZ95PF7SK0MYRNAOUHTWA4OLV","","2092.800000011921","","","","","","","","","","","{""gender"":""F""}","[0]"
"","survey-text","342","210801","0.0-341.0","3TOK3KHVJU4AZJ9ELZR2U8VG8DT7OX","A1BJFYHXK6YDX1","3THR0FZ95PF7SK0MYRNAOUHTWA4OLV","","16427.100000023842","","","","","","","","","","","{""Q0"":""A1BJFYHXK6YDX1""}",""
