"success","trial_type","trial_index","time_elapsed","internal_node_id","assignmentID","mturkID","hitID","view_history","rt","stimulus","key_press","reactionTime","a","r","s","cond","reward_cond","reward_cond_actual","reward_matrix_idx","responses","question_order"
"true","fullscreen","0","4084","0.0-0.0","38SKSKU7R2JZIINDRYF7TGHVR8ZILQ","A1CN1H9UODZ1E6","3BDORL6HKKZHMTYWD6BFF6WBDQ9CRF","","","","","","","","","","","","","",""
"","instructions","1","14175","0.0-1.0","38SKSKU7R2JZIINDRYF7TGHVR8ZILQ","A1CN1H9UODZ1E6","3BDORL6HKKZHMTYWD6BFF6WBDQ9CRF","[{""page_index"":0,""viewing_time"":1456},{""page_index"":1,""viewing_time"":1425},{""page_index"":2,""viewing_time"":647},{""page_index"":3,""viewing_time"":2398},{""page_index"":4,""viewing_time"":1727},{""page_index"":5,""viewing_time"":1476},{""page_index"":6,""viewing_time"":961}]","10090","","","","","","","","","","","",""
"","image-keyboard-response","2","15946","0.0-2.0","38SKSKU7R2JZIINDRYF7TGHVR8ZILQ","A1CN1H9UODZ1E6","3BDORL6HKKZHMTYWD6BFF6WBDQ9CRF","","1768","img/land1.png","76","1770","3","1","1","2","1,0.5,0.5,0.5,1,0.5,0.5,0.5,1","0.5,0.5,1,1,0.5,0.5,0.5,1,0.5","2","",""
"","html-keyboard-response","3","16248","0.0-3.0","38SKSKU7R2JZIINDRYF7TGHVR8ZILQ","A1CN1H9UODZ1E6","3BDORL6HKKZHMTYWD6BFF6WBDQ9CRF","","null","<img src=""img/land1.png"" style=""width:200px; border:14px solid green;"">","null","","","","","","","","","",""
"","image-keyboard-response","4","17072","0.0-4.0","38SKSKU7R2JZIINDRYF7TGHVR8ZILQ","A1CN1H9UODZ1E6","3BDORL6HKKZHMTYWD6BFF6WBDQ9CRF","","822","img/land1.png","76","824","3","1","1","2","1,0.5,0.5,0.5,1,0.5,0.5,0.5,1","0.5,0.5,1,1,0.5,0.5,0.5,1,0.5","2","",""
"","html-keyboard-response","5","17378","0.0-5.0","38SKSKU7R2JZIINDRYF7TGHVR8ZILQ","A1CN1H9UODZ1E6","3BDORL6HKKZHMTYWD6BFF6WBDQ9CRF","","null","<img src=""img/land1.png"" style=""width:200px; border:14px solid green;"">","null","","","","","","","","","",""
"","image-keyboard-response","6","18087","0.0-6.0","38SKSKU7R2JZIINDRYF7TGHVR8ZILQ","A1CN1H9UODZ1E6","3BDORL6HKKZHMTYWD6BFF6WBDQ9CRF","","704","img/land1.png","76","708","3","1","1","2","1,0.5,0.5,0.5,1,0.5,0.5,0.5,1","0.5,0.5,1,1,0.5,0.5,0.5,1,0.5","2","",""
"","html-keyboard-response","7","18395","0.0-7.0","38SKSKU7R2JZIINDRYF7TGHVR8ZILQ","A1CN1H9UODZ1E6","3BDORL6HKKZHMTYWD6BFF6WBDQ9CRF","","null","<img src=""img/land1.png"" style=""width:200px; border:14px solid green;"">","null","","","","","","","","","",""
"","image-keyboard-response","8","18996","0.0-8.0","38SKSKU7R2JZIINDRYF7TGHVR8ZILQ","A1CN1H9UODZ1E6","3BDORL6HKKZHMTYWD6BFF6WBDQ9CRF","","600","img/land1.png","76","601","3","1","1","2","1,0.5,0.5,0.5,1,0.5,0.5,0.5,1","0.5,0.5,1,1,0.5,0.5,0.5,1,0.5","2","",""
"","html-keyboard-response","9","19328","0.0-9.0","38SKSKU7R2JZIINDRYF7TGHVR8ZILQ","A1CN1H9UODZ1E6","3BDORL6HKKZHMTYWD6BFF6WBDQ9CRF","","null","<img src=""img/land1.png"" style=""width:200px; border:14px solid green;"">","null","","","","","","","","","",""
"","image-keyboard-response","10","19920","0.0-10.0","38SKSKU7R2JZIINDRYF7TGHVR8ZILQ","A1CN1H9UODZ1E6","3BDORL6HKKZHMTYWD6BFF6WBDQ9CRF","","589","img/land1.png","76","592","3","1","1","2","1,0.5,0.5,0.5,1,0.5,0.5,0.5,1","0.5,0.5,1,1,0.5,0.5,0.5,1,0.5","2","",""
"","html-keyboard-response","11","20224","0.0-11.0","38SKSKU7R2JZIINDRYF7TGHVR8ZILQ","A1CN1H9UODZ1E6","3BDORL6HKKZHMTYWD6BFF6WBDQ9CRF","","null","<img src=""img/land1.png"" style=""width:200px; border:14px solid green;"">","null","","","","","","","","","",""
"","image-keyboard-response","12","20902","0.0-12.0","38SKSKU7R2JZIINDRYF7TGHVR8ZILQ","A1CN1H9UODZ1E6","3BDORL6HKKZHMTYWD6BFF6WBDQ9CRF","","674","img/land1.png","76","677","3","1","1","2","1,0.5,0.5,0.5,1,0.5,0.5,0.5,1","0.5,0.5,1,1,0.5,0.5,0.5,1,0.5","2","",""
"","html-keyboard-response","13","21207","0.0-13.0","38SKSKU7R2JZIINDRYF7TGHVR8ZILQ","A1CN1H9UODZ1E6","3BDORL6HKKZHMTYWD6BFF6WBDQ9CRF","","null","<img src=""img/land1.png"" style=""width:200px; border:14px solid green;"">","null","","","","","","","","","",""
"","image-keyboard-response","14","21886","0.0-14.0","38SKSKU7R2JZIINDRYF7TGHVR8ZILQ","A1CN1H9UODZ1E6","3BDORL6HKKZHMTYWD6BFF6WBDQ9CRF","","678","img/land6.png","76","679","3","1","3","2","1,0.5,0.5,0.5,1,0.5,0.5,0.5,1","0.5,0.5,1,1,0.5,0.5,0.5,1,0.5","2","",""
"","html-keyboard-response","15","22187","0.0-15.0","38SKSKU7R2JZIINDRYF7TGHVR8ZILQ","A1CN1H9UODZ1E6","3BDORL6HKKZHMTYWD6BFF6WBDQ9CRF","","null","<img src=""img/land6.png"" style=""width:200px; border:14px solid green;"">","null","","","","","","","","","",""
"","image-keyboard-response","16","22925","0.0-16.0","38SKSKU7R2JZIINDRYF7TGHVR8ZILQ","A1CN1H9UODZ1E6","3BDORL6HKKZHMTYWD6BFF6WBDQ9CRF","","736","img/land6.png","76","738","3","1","3","2","1,0.5,0.5,0.5,1,0.5,0.5,0.5,1","0.5,0.5,1,1,0.5,0.5,0.5,1,0.5","2","",""
"","html-keyboard-response","17","23226","0.0-17.0","38SKSKU7R2JZIINDRYF7TGHVR8ZILQ","A1CN1H9UODZ1E6","3BDORL6HKKZHMTYWD6BFF6WBDQ9CRF","","null","<img src=""img/land6.png"" style=""width:200px; border:14px solid green;"">","null","","","","","","","","","",""
"","image-keyboard-response","18","23828","0.0-18.0","38SKSKU7R2JZIINDRYF7TGHVR8ZILQ","A1CN1H9UODZ1E6","3BDORL6HKKZHMTYWD6BFF6WBDQ9CRF","","601","img/land6.png","76","601","3","1","3","2","1,0.5,0.5,0.5,1,0.5,0.5,0.5,1","0.5,0.5,1,1,0.5,0.5,0.5,1,0.5","2","",""
"","html-keyboard-response","19","24130","0.0-19.0","38SKSKU7R2JZIINDRYF7TGHVR8ZILQ","A1CN1H9UODZ1E6","3BDORL6HKKZHMTYWD6BFF6WBDQ9CRF","","null","<img src=""img/land6.png"" style=""width:200px; border:14px solid green;"">","null","","","","","","","","","",""
"","image-keyboard-response","20","25302","0.0-20.0","38SKSKU7R2JZIINDRYF7TGHVR8ZILQ","A1CN1H9UODZ1E6","3BDORL6HKKZHMTYWD6BFF6WBDQ9CRF","","1169","img/land2.png","76","1172","3","1","2","2","1,0.5,0.5,0.5,1,0.5,0.5,0.5,1","0.5,0.5,1,1,0.5,0.5,0.5,1,0.5","2","",""
"","html-keyboard-response","21","25603","0.0-21.0","38SKSKU7R2JZIINDRYF7TGHVR8ZILQ","A1CN1H9UODZ1E6","3BDORL6HKKZHMTYWD6BFF6WBDQ9CRF","","null","<img src=""img/land2.png"" style=""width:200px; border:14px solid green;"">","null","","","","","","","","","",""
"","image-keyboard-response","22","26413","0.0-22.0","38SKSKU7R2JZIINDRYF7TGHVR8ZILQ","A1CN1H9UODZ1E6","3BDORL6HKKZHMTYWD6BFF6WBDQ9CRF","","808","img/land1.png","76","811","3","1","1","2","1,0.5,0.5,0.5,1,0.5,0.5,0.5,1","0.5,0.5,1,1,0.5,0.5,0.5,1,0.5","2","",""
"","html-keyboard-response","23","26718","0.0-23.0","38SKSKU7R2JZIINDRYF7TGHVR8ZILQ","A1CN1H9UODZ1E6","3BDORL6HKKZHMTYWD6BFF6WBDQ9CRF","","null","<img src=""img/land1.png"" style=""width:200px; border:14px solid green;"">","null","","","","","","","","","",""
"","image-keyboard-response","24","27302","0.0-24.0","38SKSKU7R2JZIINDRYF7TGHVR8ZILQ","A1CN1H9UODZ1E6","3BDORL6HKKZHMTYWD6BFF6WBDQ9CRF","","582","img/land1.png","76","584","3","1","1","2","1,0.5,0.5,0.5,1,0.5,0.5,0.5,1","0.5,0.5,1,1,0.5,0.5,0.5,1,0.5","2","",""
"","html-keyboard-response","25","27604","0.0-25.0","38SKSKU7R2JZIINDRYF7TGHVR8ZILQ","A1CN1H9UODZ1E6","3BDORL6HKKZHMTYWD6BFF6WBDQ9CRF","","null","<img src=""img/land1.png"" style=""width:200px; border:14px solid green;"">","null","","","","","","","","","",""
"","image-keyboard-response","26","28271","0.0-26.0","38SKSKU7R2JZIINDRYF7TGHVR8ZILQ","A1CN1H9UODZ1E6","3BDORL6HKKZHMTYWD6BFF6WBDQ9CRF","","667","img/land1.png","76","667","3","1","1","2","1,0.5,0.5,0.5,1,0.5,0.5,0.5,1","0.5,0.5,1,1,0.5,0.5,0.5,1,0.5","2","",""
"","html-keyboard-response","27","28574","0.0-27.0","38SKSKU7R2JZIINDRYF7TGHVR8ZILQ","A1CN1H9UODZ1E6","3BDORL6HKKZHMTYWD6BFF6WBDQ9CRF","","null","<img src=""img/land1.png"" style=""width:200px; border:14px solid green;"">","null","","","","","","","","","",""
"","image-keyboard-response","28","29164","0.0-28.0","38SKSKU7R2JZIINDRYF7TGHVR8ZILQ","A1CN1H9UODZ1E6","3BDORL6HKKZHMTYWD6BFF6WBDQ9CRF","","590","img/land2.png","76","590","3","1","2","2","1,0.5,0.5,0.5,1,0.5,0.5,0.5,1","0.5,0.5,1,1,0.5,0.5,0.5,1,0.5","2","",""
"","html-keyboard-response","29","29468","0.0-29.0","38SKSKU7R2JZIINDRYF7TGHVR8ZILQ","A1CN1H9UODZ1E6","3BDORL6HKKZHMTYWD6BFF6WBDQ9CRF","","null","<img src=""img/land2.png"" style=""width:200px; border:14px solid green;"">","null","","","","","","","","","",""
"","image-keyboard-response","30","30028","0.0-30.0","38SKSKU7R2JZIINDRYF7TGHVR8ZILQ","A1CN1H9UODZ1E6","3BDORL6HKKZHMTYWD6BFF6WBDQ9CRF","","560","img/land1.png","76","561","3","1","1","2","1,0.5,0.5,0.5,1,0.5,0.5,0.5,1","0.5,0.5,1,1,0.5,0.5,0.5,1,0.5","2","",""
"","html-keyboard-response","31","30336","0.0-31.0","38SKSKU7R2JZIINDRYF7TGHVR8ZILQ","A1CN1H9UODZ1E6","3BDORL6HKKZHMTYWD6BFF6WBDQ9CRF","","null","<img src=""img/land1.png"" style=""width:200px; border:14px solid green;"">","null","","","","","","","","","",""
"","image-keyboard-response","32","30933","0.0-32.0","38SKSKU7R2JZIINDRYF7TGHVR8ZILQ","A1CN1H9UODZ1E6","3BDORL6HKKZHMTYWD6BFF6WBDQ9CRF","","595","img/land2.png","76","596","3","0","2","2","1,0.5,0.5,0.5,1,0.5,0.5,0.5,1","0.5,0.5,1,1,0.5,0.5,0.5,1,0.5","2","",""
"","html-keyboard-response","33","31238","0.0-33.0","38SKSKU7R2JZIINDRYF7TGHVR8ZILQ","A1CN1H9UODZ1E6","3BDORL6HKKZHMTYWD6BFF6WBDQ9CRF","","null","<img src=""img/land2.png"" style=""width:200px;border:14px solid red;"">","null","","","","","","","","","",""
"","image-keyboard-response","34","32185","0.0-34.0","38SKSKU7R2JZIINDRYF7TGHVR8ZILQ","A1CN1H9UODZ1E6","3BDORL6HKKZHMTYWD6BFF6WBDQ9CRF","","947","img/land1.png","75","947","2","0","1","2","1,0.5,0.5,0.5,1,0.5,0.5,0.5,1","0.5,0.5,1,1,0.5,0.5,0.5,1,0.5","2","",""
"","html-keyboard-response","35","32489","0.0-35.0","38SKSKU7R2JZIINDRYF7TGHVR8ZILQ","A1CN1H9UODZ1E6","3BDORL6HKKZHMTYWD6BFF6WBDQ9CRF","","null","<img src=""img/land1.png"" style=""width:200px;border:14px solid red;"">","null","","","","","","","","","",""
"","image-keyboard-response","36","33089","0.0-36.0","38SKSKU7R2JZIINDRYF7TGHVR8ZILQ","A1CN1H9UODZ1E6","3BDORL6HKKZHMTYWD6BFF6WBDQ9CRF","","597","img/land1.png","74","599","1","0","1","2","1,0.5,0.5,0.5,1,0.5,0.5,0.5,1","0.5,0.5,1,1,0.5,0.5,0.5,1,0.5","2","",""
"","html-keyboard-response","37","33389","0.0-37.0","38SKSKU7R2JZIINDRYF7TGHVR8ZILQ","A1CN1H9UODZ1E6","3BDORL6HKKZHMTYWD6BFF6WBDQ9CRF","","null","<img src=""img/land1.png"" style=""width:200px;border:14px solid red;"">","null","","","","","","","","","",""
"","image-keyboard-response","38","34034","0.0-38.0","38SKSKU7R2JZIINDRYF7TGHVR8ZILQ","A1CN1H9UODZ1E6","3BDORL6HKKZHMTYWD6BFF6WBDQ9CRF","","643","img/land6.png","76","645","3","0","3","2","1,0.5,0.5,0.5,1,0.5,0.5,0.5,1","0.5,0.5,1,1,0.5,0.5,0.5,1,0.5","2","",""
"","html-keyboard-response","39","34337","0.0-39.0","38SKSKU7R2JZIINDRYF7TGHVR8ZILQ","A1CN1H9UODZ1E6","3BDORL6HKKZHMTYWD6BFF6WBDQ9CRF","","null","<img src=""img/land6.png"" style=""width:200px;border:14px solid red;"">","null","","","","","","","","","",""
"","image-keyboard-response","40","35108","0.0-40.0","38SKSKU7R2JZIINDRYF7TGHVR8ZILQ","A1CN1H9UODZ1E6","3BDORL6HKKZHMTYWD6BFF6WBDQ9CRF","","768","img/land1.png","75","770","2","1","1","2","1,0.5,0.5,0.5,1,0.5,0.5,0.5,1","0.5,0.5,1,1,0.5,0.5,0.5,1,0.5","2","",""
"","html-keyboard-response","41","35413","0.0-41.0","38SKSKU7R2JZIINDRYF7TGHVR8ZILQ","A1CN1H9UODZ1E6","3BDORL6HKKZHMTYWD6BFF6WBDQ9CRF","","null","<img src=""img/land1.png"" style=""width:200px; border:14px solid green;"">","null","","","","","","","","","",""
"","image-keyboard-response","42","36259","0.0-42.0","38SKSKU7R2JZIINDRYF7TGHVR8ZILQ","A1CN1H9UODZ1E6","3BDORL6HKKZHMTYWD6BFF6WBDQ9CRF","","844","img/land1.png","75","846","2","0","1","2","1,0.5,0.5,0.5,1,0.5,0.5,0.5,1","0.5,0.5,1,1,0.5,0.5,0.5,1,0.5","2","",""
"","html-keyboard-response","43","36565","0.0-43.0","38SKSKU7R2JZIINDRYF7TGHVR8ZILQ","A1CN1H9UODZ1E6","3BDORL6HKKZHMTYWD6BFF6WBDQ9CRF","","null","<img src=""img/land1.png"" style=""width:200px;border:14px solid red;"">","null","","","","","","","","","",""
"","image-keyboard-response","44","38151","0.0-44.0","38SKSKU7R2JZIINDRYF7TGHVR8ZILQ","A1CN1H9UODZ1E6","3BDORL6HKKZHMTYWD6BFF6WBDQ9CRF","","1585","img/land2.png","75","1586","2","0","2","2","1,0.5,0.5,0.5,1,0.5,0.5,0.5,1","0.5,0.5,1,1,0.5,0.5,0.5,1,0.5","2","",""
"","html-keyboard-response","45","38457","0.0-45.0","38SKSKU7R2JZIINDRYF7TGHVR8ZILQ","A1CN1H9UODZ1E6","3BDORL6HKKZHMTYWD6BFF6WBDQ9CRF","","null","<img src=""img/land2.png"" style=""width:200px;border:14px solid red;"">","null","","","","","","","","","",""
"","image-keyboard-response","46","39064","0.0-46.0","38SKSKU7R2JZIINDRYF7TGHVR8ZILQ","A1CN1H9UODZ1E6","3BDORL6HKKZHMTYWD6BFF6WBDQ9CRF","","606","img/land1.png","74","607","1","0","1","2","1,0.5,0.5,0.5,1,0.5,0.5,0.5,1","0.5,0.5,1,1,0.5,0.5,0.5,1,0.5","2","",""
"","html-keyboard-response","47","39370","0.0-47.0","38SKSKU7R2JZIINDRYF7TGHVR8ZILQ","A1CN1H9UODZ1E6","3BDORL6HKKZHMTYWD6BFF6WBDQ9CRF","","null","<img src=""img/land1.png"" style=""width:200px;border:14px solid red;"">","null","","","","","","","","","",""
"","image-keyboard-response","48","40022","0.0-48.0","38SKSKU7R2JZIINDRYF7TGHVR8ZILQ","A1CN1H9UODZ1E6","3BDORL6HKKZHMTYWD6BFF6WBDQ9CRF","","651","img/land2.png","76","652","3","1","2","2","1,0.5,0.5,0.5,1,0.5,0.5,0.5,1","0.5,0.5,1,1,0.5,0.5,0.5,1,0.5","2","",""
"","html-keyboard-response","49","40334","0.0-49.0","38SKSKU7R2JZIINDRYF7TGHVR8ZILQ","A1CN1H9UODZ1E6","3BDORL6HKKZHMTYWD6BFF6WBDQ9CRF","","null","<img src=""img/land2.png"" style=""width:200px; border:14px solid green;"">","null","","","","","","","","","",""
"","image-keyboard-response","50","40912","0.0-50.0","38SKSKU7R2JZIINDRYF7TGHVR8ZILQ","A1CN1H9UODZ1E6","3BDORL6HKKZHMTYWD6BFF6WBDQ9CRF","","577","img/land6.png","76","578","3","0","3","2","1,0.5,0.5,0.5,1,0.5,0.5,0.5,1","0.5,0.5,1,1,0.5,0.5,0.5,1,0.5","2","",""
"","html-keyboard-response","51","41216","0.0-51.0","38SKSKU7R2JZIINDRYF7TGHVR8ZILQ","A1CN1H9UODZ1E6","3BDORL6HKKZHMTYWD6BFF6WBDQ9CRF","","null","<img src=""img/land6.png"" style=""width:200px;border:14px solid red;"">","null","","","","","","","","","",""
"","image-keyboard-response","52","42854","0.0-52.0","38SKSKU7R2JZIINDRYF7TGHVR8ZILQ","A1CN1H9UODZ1E6","3BDORL6HKKZHMTYWD6BFF6WBDQ9CRF","","1637","img/land1.png","75","1637","2","0","1","2","1,0.5,0.5,0.5,1,0.5,0.5,0.5,1","0.5,0.5,1,1,0.5,0.5,0.5,1,0.5","2","",""
"","html-keyboard-response","53","43227","0.0-53.0","38SKSKU7R2JZIINDRYF7TGHVR8ZILQ","A1CN1H9UODZ1E6","3BDORL6HKKZHMTYWD6BFF6WBDQ9CRF","","null","<img src=""img/land1.png"" style=""width:200px;border:14px solid red;"">","null","","","","","","","","","",""
"","image-keyboard-response","54","44208","0.0-54.0","38SKSKU7R2JZIINDRYF7TGHVR8ZILQ","A1CN1H9UODZ1E6","3BDORL6HKKZHMTYWD6BFF6WBDQ9CRF","","981","img/land2.png","74","981","1","1","2","2","1,0.5,0.5,0.5,1,0.5,0.5,0.5,1","0.5,0.5,1,1,0.5,0.5,0.5,1,0.5","2","",""
"","html-keyboard-response","55","44511","0.0-55.0","38SKSKU7R2JZIINDRYF7TGHVR8ZILQ","A1CN1H9UODZ1E6","3BDORL6HKKZHMTYWD6BFF6WBDQ9CRF","","null","<img src=""img/land2.png"" style=""width:200px; border:14px solid green;"">","null","","","","","","","","","",""
"","image-keyboard-response","56","45586","0.0-56.0","38SKSKU7R2JZIINDRYF7TGHVR8ZILQ","A1CN1H9UODZ1E6","3BDORL6HKKZHMTYWD6BFF6WBDQ9CRF","","1074","img/land6.png","76","1076","3","0","3","2","1,0.5,0.5,0.5,1,0.5,0.5,0.5,1","0.5,0.5,1,1,0.5,0.5,0.5,1,0.5","2","",""
"","html-keyboard-response","57","45911","0.0-57.0","38SKSKU7R2JZIINDRYF7TGHVR8ZILQ","A1CN1H9UODZ1E6","3BDORL6HKKZHMTYWD6BFF6WBDQ9CRF","","null","<img src=""img/land6.png"" style=""width:200px;border:14px solid red;"">","null","","","","","","","","","",""
"","image-keyboard-response","58","47206","0.0-58.0","38SKSKU7R2JZIINDRYF7TGHVR8ZILQ","A1CN1H9UODZ1E6","3BDORL6HKKZHMTYWD6BFF6WBDQ9CRF","","1294","img/land1.png","76","1295","3","1","1","2","1,0.5,0.5,0.5,1,0.5,0.5,0.5,1","0.5,0.5,1,1,0.5,0.5,0.5,1,0.5","2","",""
"","html-keyboard-response","59","47511","0.0-59.0","38SKSKU7R2JZIINDRYF7TGHVR8ZILQ","A1CN1H9UODZ1E6","3BDORL6HKKZHMTYWD6BFF6WBDQ9CRF","","null","<img src=""img/land1.png"" style=""width:200px; border:14px solid green;"">","null","","","","","","","","","",""
"","image-keyboard-response","60","49003","0.0-60.0","38SKSKU7R2JZIINDRYF7TGHVR8ZILQ","A1CN1H9UODZ1E6","3BDORL6HKKZHMTYWD6BFF6WBDQ9CRF","","1489","img/land1.png","76","1492","3","1","1","2","1,0.5,0.5,0.5,1,0.5,0.5,0.5,1","0.5,0.5,1,1,0.5,0.5,0.5,1,0.5","2","",""
"","html-keyboard-response","61","49338","0.0-61.0","38SKSKU7R2JZIINDRYF7TGHVR8ZILQ","A1CN1H9UODZ1E6","3BDORL6HKKZHMTYWD6BFF6WBDQ9CRF","","null","<img src=""img/land1.png"" style=""width:200px; border:14px solid green;"">","null","","","","","","","","","",""
"","image-keyboard-response","62","50521","0.0-62.0","38SKSKU7R2JZIINDRYF7TGHVR8ZILQ","A1CN1H9UODZ1E6","3BDORL6HKKZHMTYWD6BFF6WBDQ9CRF","","1182","img/land1.png","76","1183","3","1","1","2","1,0.5,0.5,0.5,1,0.5,0.5,0.5,1","0.5,0.5,1,1,0.5,0.5,0.5,1,0.5","2","",""
"","html-keyboard-response","63","50868","0.0-63.0","38SKSKU7R2JZIINDRYF7TGHVR8ZILQ","A1CN1H9UODZ1E6","3BDORL6HKKZHMTYWD6BFF6WBDQ9CRF","","null","<img src=""img/land1.png"" style=""width:200px; border:14px solid green;"">","null","","","","","","","","","",""
"","image-keyboard-response","64","51621","0.0-64.0","38SKSKU7R2JZIINDRYF7TGHVR8ZILQ","A1CN1H9UODZ1E6","3BDORL6HKKZHMTYWD6BFF6WBDQ9CRF","","750","img/land1.png","76","753","3","1","1","2","1,0.5,0.5,0.5,1,0.5,0.5,0.5,1","0.5,0.5,1,1,0.5,0.5,0.5,1,0.5","2","",""
"","html-keyboard-response","65","52016","0.0-65.0","38SKSKU7R2JZIINDRYF7TGHVR8ZILQ","A1CN1H9UODZ1E6","3BDORL6HKKZHMTYWD6BFF6WBDQ9CRF","","null","<img src=""img/land1.png"" style=""width:200px; border:14px solid green;"">","null","","","","","","","","","",""
"","image-keyboard-response","66","52745","0.0-66.0","38SKSKU7R2JZIINDRYF7TGHVR8ZILQ","A1CN1H9UODZ1E6","3BDORL6HKKZHMTYWD6BFF6WBDQ9CRF","","725","img/land1.png","76","729","3","1","1","2","1,0.5,0.5,0.5,1,0.5,0.5,0.5,1","0.5,0.5,1,1,0.5,0.5,0.5,1,0.5","2","",""
"","html-keyboard-response","67","53049","0.0-67.0","38SKSKU7R2JZIINDRYF7TGHVR8ZILQ","A1CN1H9UODZ1E6","3BDORL6HKKZHMTYWD6BFF6WBDQ9CRF","","null","<img src=""img/land1.png"" style=""width:200px; border:14px solid green;"">","null","","","","","","","","","",""
"","image-keyboard-response","68","53990","0.0-68.0","38SKSKU7R2JZIINDRYF7TGHVR8ZILQ","A1CN1H9UODZ1E6","3BDORL6HKKZHMTYWD6BFF6WBDQ9CRF","","939","img/land6.png","75","941","2","1","3","2","1,0.5,0.5,0.5,1,0.5,0.5,0.5,1","0.5,0.5,1,1,0.5,0.5,0.5,1,0.5","2","",""
"","html-keyboard-response","69","54293","0.0-69.0","38SKSKU7R2JZIINDRYF7TGHVR8ZILQ","A1CN1H9UODZ1E6","3BDORL6HKKZHMTYWD6BFF6WBDQ9CRF","","null","<img src=""img/land6.png"" style=""width:200px; border:14px solid green;"">","null","","","","","","","","","",""
"","image-keyboard-response","70","55169","0.0-70.0","38SKSKU7R2JZIINDRYF7TGHVR8ZILQ","A1CN1H9UODZ1E6","3BDORL6HKKZHMTYWD6BFF6WBDQ9CRF","","875","img/land6.png","75","875","2","1","3","2","1,0.5,0.5,0.5,1,0.5,0.5,0.5,1","0.5,0.5,1,1,0.5,0.5,0.5,1,0.5","2","",""
"","html-keyboard-response","71","55471","0.0-71.0","38SKSKU7R2JZIINDRYF7TGHVR8ZILQ","A1CN1H9UODZ1E6","3BDORL6HKKZHMTYWD6BFF6WBDQ9CRF","","null","<img src=""img/land6.png"" style=""width:200px; border:14px solid green;"">","null","","","","","","","","","",""
"","image-keyboard-response","72","56333","0.0-72.0","38SKSKU7R2JZIINDRYF7TGHVR8ZILQ","A1CN1H9UODZ1E6","3BDORL6HKKZHMTYWD6BFF6WBDQ9CRF","","860","img/land2.png","74","862","1","1","2","2","1,0.5,0.5,0.5,1,0.5,0.5,0.5,1","0.5,0.5,1,1,0.5,0.5,0.5,1,0.5","2","",""
"","html-keyboard-response","73","56638","0.0-73.0","38SKSKU7R2JZIINDRYF7TGHVR8ZILQ","A1CN1H9UODZ1E6","3BDORL6HKKZHMTYWD6BFF6WBDQ9CRF","","null","<img src=""img/land2.png"" style=""width:200px; border:14px solid green;"">","null","","","","","","","","","",""
"","image-keyboard-response","74","57605","0.0-74.0","38SKSKU7R2JZIINDRYF7TGHVR8ZILQ","A1CN1H9UODZ1E6","3BDORL6HKKZHMTYWD6BFF6WBDQ9CRF","","966","img/land6.png","75","967","2","1","3","2","1,0.5,0.5,0.5,1,0.5,0.5,0.5,1","0.5,0.5,1,1,0.5,0.5,0.5,1,0.5","2","",""
"","html-keyboard-response","75","57911","0.0-75.0","38SKSKU7R2JZIINDRYF7TGHVR8ZILQ","A1CN1H9UODZ1E6","3BDORL6HKKZHMTYWD6BFF6WBDQ9CRF","","null","<img src=""img/land6.png"" style=""width:200px; border:14px solid green;"">","null","","","","","","","","","",""
"","image-keyboard-response","76","58736","0.0-76.0","38SKSKU7R2JZIINDRYF7TGHVR8ZILQ","A1CN1H9UODZ1E6","3BDORL6HKKZHMTYWD6BFF6WBDQ9CRF","","823","img/land2.png","74","825","1","1","2","2","1,0.5,0.5,0.5,1,0.5,0.5,0.5,1","0.5,0.5,1,1,0.5,0.5,0.5,1,0.5","2","",""
"","html-keyboard-response","77","59121","0.0-77.0","38SKSKU7R2JZIINDRYF7TGHVR8ZILQ","A1CN1H9UODZ1E6","3BDORL6HKKZHMTYWD6BFF6WBDQ9CRF","","null","<img src=""img/land2.png"" style=""width:200px; border:14px solid green;"">","null","","","","","","","","","",""
"","image-keyboard-response","78","60345","0.0-78.0","38SKSKU7R2JZIINDRYF7TGHVR8ZILQ","A1CN1H9UODZ1E6","3BDORL6HKKZHMTYWD6BFF6WBDQ9CRF","","1216","img/land2.png","74","1221","1","1","2","2","1,0.5,0.5,0.5,1,0.5,0.5,0.5,1","0.5,0.5,1,1,0.5,0.5,0.5,1,0.5","2","",""
"","html-keyboard-response","79","60649","0.0-79.0","38SKSKU7R2JZIINDRYF7TGHVR8ZILQ","A1CN1H9UODZ1E6","3BDORL6HKKZHMTYWD6BFF6WBDQ9CRF","","null","<img src=""img/land2.png"" style=""width:200px; border:14px solid green;"">","null","","","","","","","","","",""
"","image-keyboard-response","80","61694","0.0-80.0","38SKSKU7R2JZIINDRYF7TGHVR8ZILQ","A1CN1H9UODZ1E6","3BDORL6HKKZHMTYWD6BFF6WBDQ9CRF","","1043","img/land1.png","76","1044","3","1","1","2","1,0.5,0.5,0.5,1,0.5,0.5,0.5,1","0.5,0.5,1,1,0.5,0.5,0.5,1,0.5","2","",""
"","html-keyboard-response","81","61996","0.0-81.0","38SKSKU7R2JZIINDRYF7TGHVR8ZILQ","A1CN1H9UODZ1E6","3BDORL6HKKZHMTYWD6BFF6WBDQ9CRF","","null","<img src=""img/land1.png"" style=""width:200px; border:14px solid green;"">","null","","","","","","","","","",""
"","image-keyboard-response","82","62832","0.0-82.0","38SKSKU7R2JZIINDRYF7TGHVR8ZILQ","A1CN1H9UODZ1E6","3BDORL6HKKZHMTYWD6BFF6WBDQ9CRF","","834","img/land6.png","75","836","2","1","3","2","1,0.5,0.5,0.5,1,0.5,0.5,0.5,1","0.5,0.5,1,1,0.5,0.5,0.5,1,0.5","2","",""
"","html-keyboard-response","83","63298","0.0-83.0","38SKSKU7R2JZIINDRYF7TGHVR8ZILQ","A1CN1H9UODZ1E6","3BDORL6HKKZHMTYWD6BFF6WBDQ9CRF","","null","<img src=""img/land6.png"" style=""width:200px; border:14px solid green;"">","null","","","","","","","","","",""
"","image-keyboard-response","84","64374","0.0-84.0","38SKSKU7R2JZIINDRYF7TGHVR8ZILQ","A1CN1H9UODZ1E6","3BDORL6HKKZHMTYWD6BFF6WBDQ9CRF","","1076","img/land1.png","74","1076","1","1","1","2","1,0.5,0.5,0.5,1,0.5,0.5,0.5,1","0.5,0.5,1,1,0.5,0.5,0.5,1,0.5","2","",""
"","html-keyboard-response","85","64677","0.0-85.0","38SKSKU7R2JZIINDRYF7TGHVR8ZILQ","A1CN1H9UODZ1E6","3BDORL6HKKZHMTYWD6BFF6WBDQ9CRF","","null","<img src=""img/land1.png"" style=""width:200px; border:14px solid green;"">","null","","","","","","","","","",""
"","image-keyboard-response","86","65585","0.0-86.0","38SKSKU7R2JZIINDRYF7TGHVR8ZILQ","A1CN1H9UODZ1E6","3BDORL6HKKZHMTYWD6BFF6WBDQ9CRF","","907","img/land2.png","74","907","1","1","2","2","1,0.5,0.5,0.5,1,0.5,0.5,0.5,1","0.5,0.5,1,1,0.5,0.5,0.5,1,0.5","2","",""
"","html-keyboard-response","87","65888","0.0-87.0","38SKSKU7R2JZIINDRYF7TGHVR8ZILQ","A1CN1H9UODZ1E6","3BDORL6HKKZHMTYWD6BFF6WBDQ9CRF","","null","<img src=""img/land2.png"" style=""width:200px; border:14px solid green;"">","null","","","","","","","","","",""
"","image-keyboard-response","88","66916","0.0-88.0","38SKSKU7R2JZIINDRYF7TGHVR8ZILQ","A1CN1H9UODZ1E6","3BDORL6HKKZHMTYWD6BFF6WBDQ9CRF","","1026","img/land2.png","74","1028","1","1","2","2","1,0.5,0.5,0.5,1,0.5,0.5,0.5,1","0.5,0.5,1,1,0.5,0.5,0.5,1,0.5","2","",""
"","html-keyboard-response","89","67222","0.0-89.0","38SKSKU7R2JZIINDRYF7TGHVR8ZILQ","A1CN1H9UODZ1E6","3BDORL6HKKZHMTYWD6BFF6WBDQ9CRF","","null","<img src=""img/land2.png"" style=""width:200px; border:14px solid green;"">","null","","","","","","","","","",""
"","image-keyboard-response","90","68174","0.0-90.0","38SKSKU7R2JZIINDRYF7TGHVR8ZILQ","A1CN1H9UODZ1E6","3BDORL6HKKZHMTYWD6BFF6WBDQ9CRF","","951","img/land1.png","76","952","3","1","1","2","1,0.5,0.5,0.5,1,0.5,0.5,0.5,1","0.5,0.5,1,1,0.5,0.5,0.5,1,0.5","2","",""
"","html-keyboard-response","91","68477","0.0-91.0","38SKSKU7R2JZIINDRYF7TGHVR8ZILQ","A1CN1H9UODZ1E6","3BDORL6HKKZHMTYWD6BFF6WBDQ9CRF","","null","<img src=""img/land1.png"" style=""width:200px; border:14px solid green;"">","null","","","","","","","","","",""
"","image-keyboard-response","92","69582","0.0-92.0","38SKSKU7R2JZIINDRYF7TGHVR8ZILQ","A1CN1H9UODZ1E6","3BDORL6HKKZHMTYWD6BFF6WBDQ9CRF","","1103","img/land2.png","74","1105","1","1","2","2","1,0.5,0.5,0.5,1,0.5,0.5,0.5,1","0.5,0.5,1,1,0.5,0.5,0.5,1,0.5","2","",""
"","html-keyboard-response","93","69883","0.0-93.0","38SKSKU7R2JZIINDRYF7TGHVR8ZILQ","A1CN1H9UODZ1E6","3BDORL6HKKZHMTYWD6BFF6WBDQ9CRF","","null","<img src=""img/land2.png"" style=""width:200px; border:14px solid green;"">","null","","","","","","","","","",""
"","image-keyboard-response","94","70988","0.0-94.0","38SKSKU7R2JZIINDRYF7TGHVR8ZILQ","A1CN1H9UODZ1E6","3BDORL6HKKZHMTYWD6BFF6WBDQ9CRF","","1104","img/land1.png","76","1105","3","1","1","2","1,0.5,0.5,0.5,1,0.5,0.5,0.5,1","0.5,0.5,1,1,0.5,0.5,0.5,1,0.5","2","",""
"","html-keyboard-response","95","71291","0.0-95.0","38SKSKU7R2JZIINDRYF7TGHVR8ZILQ","A1CN1H9UODZ1E6","3BDORL6HKKZHMTYWD6BFF6WBDQ9CRF","","null","<img src=""img/land1.png"" style=""width:200px; border:14px solid green;"">","null","","","","","","","","","",""
"","image-keyboard-response","96","72322","0.0-96.0","38SKSKU7R2JZIINDRYF7TGHVR8ZILQ","A1CN1H9UODZ1E6","3BDORL6HKKZHMTYWD6BFF6WBDQ9CRF","","1030","img/land6.png","75","1031","2","1","3","2","1,0.5,0.5,0.5,1,0.5,0.5,0.5,1","0.5,0.5,1,1,0.5,0.5,0.5,1,0.5","2","",""
"","html-keyboard-response","97","72640","0.0-97.0","38SKSKU7R2JZIINDRYF7TGHVR8ZILQ","A1CN1H9UODZ1E6","3BDORL6HKKZHMTYWD6BFF6WBDQ9CRF","","null","<img src=""img/land6.png"" style=""width:200px; border:14px solid green;"">","null","","","","","","","","","",""
"","image-keyboard-response","98","73522","0.0-98.0","38SKSKU7R2JZIINDRYF7TGHVR8ZILQ","A1CN1H9UODZ1E6","3BDORL6HKKZHMTYWD6BFF6WBDQ9CRF","","881","img/land1.png","74","882","1","1","1","2","1,0.5,0.5,0.5,1,0.5,0.5,0.5,1","0.5,0.5,1,1,0.5,0.5,0.5,1,0.5","2","",""
"","html-keyboard-response","99","73828","0.0-99.0","38SKSKU7R2JZIINDRYF7TGHVR8ZILQ","A1CN1H9UODZ1E6","3BDORL6HKKZHMTYWD6BFF6WBDQ9CRF","","null","<img src=""img/land1.png"" style=""width:200px; border:14px solid green;"">","null","","","","","","","","","",""
"","image-keyboard-response","100","74997","0.0-100.0","38SKSKU7R2JZIINDRYF7TGHVR8ZILQ","A1CN1H9UODZ1E6","3BDORL6HKKZHMTYWD6BFF6WBDQ9CRF","","1168","img/land6.png","75","1168","2","1","3","2","1,0.5,0.5,0.5,1,0.5,0.5,0.5,1","0.5,0.5,1,1,0.5,0.5,0.5,1,0.5","2","",""
"","html-keyboard-response","101","75374","0.0-101.0","38SKSKU7R2JZIINDRYF7TGHVR8ZILQ","A1CN1H9UODZ1E6","3BDORL6HKKZHMTYWD6BFF6WBDQ9CRF","","null","<img src=""img/land6.png"" style=""width:200px; border:14px solid green;"">","null","","","","","","","","","",""
"","image-keyboard-response","102","76538","0.0-102.0","38SKSKU7R2JZIINDRYF7TGHVR8ZILQ","A1CN1H9UODZ1E6","3BDORL6HKKZHMTYWD6BFF6WBDQ9CRF","","1164","img/land1.png","76","1164","3","1","1","2","1,0.5,0.5,0.5,1,0.5,0.5,0.5,1","0.5,0.5,1,1,0.5,0.5,0.5,1,0.5","2","",""
"","html-keyboard-response","103","76842","0.0-103.0","38SKSKU7R2JZIINDRYF7TGHVR8ZILQ","A1CN1H9UODZ1E6","3BDORL6HKKZHMTYWD6BFF6WBDQ9CRF","","null","<img src=""img/land1.png"" style=""width:200px; border:14px solid green;"">","null","","","","","","","","","",""
"","image-keyboard-response","104","77598","0.0-104.0","38SKSKU7R2JZIINDRYF7TGHVR8ZILQ","A1CN1H9UODZ1E6","3BDORL6HKKZHMTYWD6BFF6WBDQ9CRF","","753","img/land1.png","76","755","3","1","1","2","1,0.5,0.5,0.5,1,0.5,0.5,0.5,1","0.5,0.5,1,1,0.5,0.5,0.5,1,0.5","2","",""
"","html-keyboard-response","105","77898","0.0-105.0","38SKSKU7R2JZIINDRYF7TGHVR8ZILQ","A1CN1H9UODZ1E6","3BDORL6HKKZHMTYWD6BFF6WBDQ9CRF","","null","<img src=""img/land1.png"" style=""width:200px; border:14px solid green;"">","null","","","","","","","","","",""
"","image-keyboard-response","106","78678","0.0-106.0","38SKSKU7R2JZIINDRYF7TGHVR8ZILQ","A1CN1H9UODZ1E6","3BDORL6HKKZHMTYWD6BFF6WBDQ9CRF","","779","img/land1.png","76","780","3","1","1","2","1,0.5,0.5,0.5,1,0.5,0.5,0.5,1","0.5,0.5,1,1,0.5,0.5,0.5,1,0.5","2","",""
"","html-keyboard-response","107","78981","0.0-107.0","38SKSKU7R2JZIINDRYF7TGHVR8ZILQ","A1CN1H9UODZ1E6","3BDORL6HKKZHMTYWD6BFF6WBDQ9CRF","","null","<img src=""img/land1.png"" style=""width:200px; border:14px solid green;"">","null","","","","","","","","","",""
"","image-keyboard-response","108","80023","0.0-108.0","38SKSKU7R2JZIINDRYF7TGHVR8ZILQ","A1CN1H9UODZ1E6","3BDORL6HKKZHMTYWD6BFF6WBDQ9CRF","","1042","img/land2.png","74","1042","1","1","2","2","1,0.5,0.5,0.5,1,0.5,0.5,0.5,1","0.5,0.5,1,1,0.5,0.5,0.5,1,0.5","2","",""
"","html-keyboard-response","109","80328","0.0-109.0","38SKSKU7R2JZIINDRYF7TGHVR8ZILQ","A1CN1H9UODZ1E6","3BDORL6HKKZHMTYWD6BFF6WBDQ9CRF","","null","<img src=""img/land2.png"" style=""width:200px; border:14px solid green;"">","null","","","","","","","","","",""
"","image-keyboard-response","110","81465","0.0-110.0","38SKSKU7R2JZIINDRYF7TGHVR8ZILQ","A1CN1H9UODZ1E6","3BDORL6HKKZHMTYWD6BFF6WBDQ9CRF","","1137","img/land1.png","76","1137","3","1","1","2","1,0.5,0.5,0.5,1,0.5,0.5,0.5,1","0.5,0.5,1,1,0.5,0.5,0.5,1,0.5","2","",""
"","html-keyboard-response","111","81766","0.0-111.0","38SKSKU7R2JZIINDRYF7TGHVR8ZILQ","A1CN1H9UODZ1E6","3BDORL6HKKZHMTYWD6BFF6WBDQ9CRF","","null","<img src=""img/land1.png"" style=""width:200px; border:14px solid green;"">","null","","","","","","","","","",""
"","image-keyboard-response","112","82729","0.0-112.0","38SKSKU7R2JZIINDRYF7TGHVR8ZILQ","A1CN1H9UODZ1E6","3BDORL6HKKZHMTYWD6BFF6WBDQ9CRF","","962","img/land6.png","75","962","2","1","3","2","1,0.5,0.5,0.5,1,0.5,0.5,0.5,1","0.5,0.5,1,1,0.5,0.5,0.5,1,0.5","2","",""
"","html-keyboard-response","113","83032","0.0-113.0","38SKSKU7R2JZIINDRYF7TGHVR8ZILQ","A1CN1H9UODZ1E6","3BDORL6HKKZHMTYWD6BFF6WBDQ9CRF","","null","<img src=""img/land6.png"" style=""width:200px; border:14px solid green;"">","null","","","","","","","","","",""
"","image-keyboard-response","114","83995","0.0-114.0","38SKSKU7R2JZIINDRYF7TGHVR8ZILQ","A1CN1H9UODZ1E6","3BDORL6HKKZHMTYWD6BFF6WBDQ9CRF","","962","img/land1.png","76","962","3","1","1","2","1,0.5,0.5,0.5,1,0.5,0.5,0.5,1","0.5,0.5,1,1,0.5,0.5,0.5,1,0.5","2","",""
"","html-keyboard-response","115","84299","0.0-115.0","38SKSKU7R2JZIINDRYF7TGHVR8ZILQ","A1CN1H9UODZ1E6","3BDORL6HKKZHMTYWD6BFF6WBDQ9CRF","","null","<img src=""img/land1.png"" style=""width:200px; border:14px solid green;"">","null","","","","","","","","","",""
"","image-keyboard-response","116","85222","0.0-116.0","38SKSKU7R2JZIINDRYF7TGHVR8ZILQ","A1CN1H9UODZ1E6","3BDORL6HKKZHMTYWD6BFF6WBDQ9CRF","","923","img/land2.png","74","923","1","1","2","2","1,0.5,0.5,0.5,1,0.5,0.5,0.5,1","0.5,0.5,1,1,0.5,0.5,0.5,1,0.5","2","",""
"","html-keyboard-response","117","85526","0.0-117.0","38SKSKU7R2JZIINDRYF7TGHVR8ZILQ","A1CN1H9UODZ1E6","3BDORL6HKKZHMTYWD6BFF6WBDQ9CRF","","null","<img src=""img/land2.png"" style=""width:200px; border:14px solid green;"">","null","","","","","","","","","",""
"","image-keyboard-response","118","86231","0.0-118.0","38SKSKU7R2JZIINDRYF7TGHVR8ZILQ","A1CN1H9UODZ1E6","3BDORL6HKKZHMTYWD6BFF6WBDQ9CRF","","704","img/land2.png","74","705","1","1","2","2","1,0.5,0.5,0.5,1,0.5,0.5,0.5,1","0.5,0.5,1,1,0.5,0.5,0.5,1,0.5","2","",""
"","html-keyboard-response","119","86537","0.0-119.0","38SKSKU7R2JZIINDRYF7TGHVR8ZILQ","A1CN1H9UODZ1E6","3BDORL6HKKZHMTYWD6BFF6WBDQ9CRF","","null","<img src=""img/land2.png"" style=""width:200px; border:14px solid green;"">","null","","","","","","","","","",""
"","image-keyboard-response","120","87434","0.0-120.0","38SKSKU7R2JZIINDRYF7TGHVR8ZILQ","A1CN1H9UODZ1E6","3BDORL6HKKZHMTYWD6BFF6WBDQ9CRF","","895","img/land1.png","76","897","3","1","1","2","1,0.5,0.5,0.5,1,0.5,0.5,0.5,1","0.5,0.5,1,1,0.5,0.5,0.5,1,0.5","2","",""
"","html-keyboard-response","121","87736","0.0-121.0","38SKSKU7R2JZIINDRYF7TGHVR8ZILQ","A1CN1H9UODZ1E6","3BDORL6HKKZHMTYWD6BFF6WBDQ9CRF","","null","<img src=""img/land1.png"" style=""width:200px; border:14px solid green;"">","null","","","","","","","","","",""
"","image-keyboard-response","122","88582","0.0-122.0","38SKSKU7R2JZIINDRYF7TGHVR8ZILQ","A1CN1H9UODZ1E6","3BDORL6HKKZHMTYWD6BFF6WBDQ9CRF","","844","img/land1.png","76","846","3","1","1","2","1,0.5,0.5,0.5,1,0.5,0.5,0.5,1","0.5,0.5,1,1,0.5,0.5,0.5,1,0.5","2","",""
"","html-keyboard-response","123","88883","0.0-123.0","38SKSKU7R2JZIINDRYF7TGHVR8ZILQ","A1CN1H9UODZ1E6","3BDORL6HKKZHMTYWD6BFF6WBDQ9CRF","","null","<img src=""img/land1.png"" style=""width:200px; border:14px solid green;"">","null","","","","","","","","","",""
"","image-keyboard-response","124","89764","0.0-124.0","38SKSKU7R2JZIINDRYF7TGHVR8ZILQ","A1CN1H9UODZ1E6","3BDORL6HKKZHMTYWD6BFF6WBDQ9CRF","","878","img/land1.png","76","879","3","1","1","2","1,0.5,0.5,0.5,1,0.5,0.5,0.5,1","0.5,0.5,1,1,0.5,0.5,0.5,1,0.5","2","",""
"","html-keyboard-response","125","90067","0.0-125.0","38SKSKU7R2JZIINDRYF7TGHVR8ZILQ","A1CN1H9UODZ1E6","3BDORL6HKKZHMTYWD6BFF6WBDQ9CRF","","null","<img src=""img/land1.png"" style=""width:200px; border:14px solid green;"">","null","","","","","","","","","",""
"","image-keyboard-response","126","91420","0.0-126.0","38SKSKU7R2JZIINDRYF7TGHVR8ZILQ","A1CN1H9UODZ1E6","3BDORL6HKKZHMTYWD6BFF6WBDQ9CRF","","1351","img/land6.png","75","1352","2","1","3","2","1,0.5,0.5,0.5,1,0.5,0.5,0.5,1","0.5,0.5,1,1,0.5,0.5,0.5,1,0.5","2","",""
"","html-keyboard-response","127","91724","0.0-127.0","38SKSKU7R2JZIINDRYF7TGHVR8ZILQ","A1CN1H9UODZ1E6","3BDORL6HKKZHMTYWD6BFF6WBDQ9CRF","","null","<img src=""img/land6.png"" style=""width:200px; border:14px solid green;"">","null","","","","","","","","","",""
"","image-keyboard-response","128","92725","0.0-128.0","38SKSKU7R2JZIINDRYF7TGHVR8ZILQ","A1CN1H9UODZ1E6","3BDORL6HKKZHMTYWD6BFF6WBDQ9CRF","","999","img/land1.png","76","1001","3","1","1","2","1,0.5,0.5,0.5,1,0.5,0.5,0.5,1","0.5,0.5,1,1,0.5,0.5,0.5,1,0.5","2","",""
"","html-keyboard-response","129","93028","0.0-129.0","38SKSKU7R2JZIINDRYF7TGHVR8ZILQ","A1CN1H9UODZ1E6","3BDORL6HKKZHMTYWD6BFF6WBDQ9CRF","","null","<img src=""img/land1.png"" style=""width:200px; border:14px solid green;"">","null","","","","","","","","","",""
"","image-keyboard-response","130","93814","0.0-130.0","38SKSKU7R2JZIINDRYF7TGHVR8ZILQ","A1CN1H9UODZ1E6","3BDORL6HKKZHMTYWD6BFF6WBDQ9CRF","","785","img/land6.png","75","786","2","1","3","2","1,0.5,0.5,0.5,1,0.5,0.5,0.5,1","0.5,0.5,1,1,0.5,0.5,0.5,1,0.5","2","",""
"","html-keyboard-response","131","94123","0.0-131.0","38SKSKU7R2JZIINDRYF7TGHVR8ZILQ","A1CN1H9UODZ1E6","3BDORL6HKKZHMTYWD6BFF6WBDQ9CRF","","null","<img src=""img/land6.png"" style=""width:200px; border:14px solid green;"">","null","","","","","","","","","",""
"","image-keyboard-response","132","95169","0.0-132.0","38SKSKU7R2JZIINDRYF7TGHVR8ZILQ","A1CN1H9UODZ1E6","3BDORL6HKKZHMTYWD6BFF6WBDQ9CRF","","1044","img/land1.png","76","1045","3","1","1","2","1,0.5,0.5,0.5,1,0.5,0.5,0.5,1","0.5,0.5,1,1,0.5,0.5,0.5,1,0.5","2","",""
"","html-keyboard-response","133","95471","0.0-133.0","38SKSKU7R2JZIINDRYF7TGHVR8ZILQ","A1CN1H9UODZ1E6","3BDORL6HKKZHMTYWD6BFF6WBDQ9CRF","","null","<img src=""img/land1.png"" style=""width:200px; border:14px solid green;"">","null","","","","","","","","","",""
"","image-keyboard-response","134","96291","0.0-134.0","38SKSKU7R2JZIINDRYF7TGHVR8ZILQ","A1CN1H9UODZ1E6","3BDORL6HKKZHMTYWD6BFF6WBDQ9CRF","","820","img/land6.png","75","820","2","1","3","2","1,0.5,0.5,0.5,1,0.5,0.5,0.5,1","0.5,0.5,1,1,0.5,0.5,0.5,1,0.5","2","",""
"","html-keyboard-response","135","96592","0.0-135.0","38SKSKU7R2JZIINDRYF7TGHVR8ZILQ","A1CN1H9UODZ1E6","3BDORL6HKKZHMTYWD6BFF6WBDQ9CRF","","null","<img src=""img/land6.png"" style=""width:200px; border:14px solid green;"">","null","","","","","","","","","",""
"","image-keyboard-response","136","97439","0.0-136.0","38SKSKU7R2JZIINDRYF7TGHVR8ZILQ","A1CN1H9UODZ1E6","3BDORL6HKKZHMTYWD6BFF6WBDQ9CRF","","843","img/land1.png","76","847","3","1","1","2","1,0.5,0.5,0.5,1,0.5,0.5,0.5,1","0.5,0.5,1,1,0.5,0.5,0.5,1,0.5","2","",""
"","html-keyboard-response","137","97739","0.0-137.0","38SKSKU7R2JZIINDRYF7TGHVR8ZILQ","A1CN1H9UODZ1E6","3BDORL6HKKZHMTYWD6BFF6WBDQ9CRF","","null","<img src=""img/land1.png"" style=""width:200px; border:14px solid green;"">","null","","","","","","","","","",""
"","image-keyboard-response","138","98509","0.0-138.0","38SKSKU7R2JZIINDRYF7TGHVR8ZILQ","A1CN1H9UODZ1E6","3BDORL6HKKZHMTYWD6BFF6WBDQ9CRF","","770","img/land1.png","76","770","3","1","1","2","1,0.5,0.5,0.5,1,0.5,0.5,0.5,1","0.5,0.5,1,1,0.5,0.5,0.5,1,0.5","2","",""
"","html-keyboard-response","139","98860","0.0-139.0","38SKSKU7R2JZIINDRYF7TGHVR8ZILQ","A1CN1H9UODZ1E6","3BDORL6HKKZHMTYWD6BFF6WBDQ9CRF","","null","<img src=""img/land1.png"" style=""width:200px; border:14px solid green;"">","null","","","","","","","","","",""
"","image-keyboard-response","140","99557","0.0-140.0","38SKSKU7R2JZIINDRYF7TGHVR8ZILQ","A1CN1H9UODZ1E6","3BDORL6HKKZHMTYWD6BFF6WBDQ9CRF","","694","img/land1.png","76","696","3","1","1","2","1,0.5,0.5,0.5,1,0.5,0.5,0.5,1","0.5,0.5,1,1,0.5,0.5,0.5,1,0.5","2","",""
"","html-keyboard-response","141","99860","0.0-141.0","38SKSKU7R2JZIINDRYF7TGHVR8ZILQ","A1CN1H9UODZ1E6","3BDORL6HKKZHMTYWD6BFF6WBDQ9CRF","","null","<img src=""img/land1.png"" style=""width:200px; border:14px solid green;"">","null","","","","","","","","","",""
"","image-keyboard-response","142","100487","0.0-142.0","38SKSKU7R2JZIINDRYF7TGHVR8ZILQ","A1CN1H9UODZ1E6","3BDORL6HKKZHMTYWD6BFF6WBDQ9CRF","","625","img/land1.png","76","627","3","1","1","2","1,0.5,0.5,0.5,1,0.5,0.5,0.5,1","0.5,0.5,1,1,0.5,0.5,0.5,1,0.5","2","",""
"","html-keyboard-response","143","100787","0.0-143.0","38SKSKU7R2JZIINDRYF7TGHVR8ZILQ","A1CN1H9UODZ1E6","3BDORL6HKKZHMTYWD6BFF6WBDQ9CRF","","null","<img src=""img/land1.png"" style=""width:200px; border:14px solid green;"">","null","","","","","","","","","",""
"","image-keyboard-response","144","101407","0.0-144.0","38SKSKU7R2JZIINDRYF7TGHVR8ZILQ","A1CN1H9UODZ1E6","3BDORL6HKKZHMTYWD6BFF6WBDQ9CRF","","619","img/land1.png","76","620","3","1","1","2","1,0.5,0.5,0.5,1,0.5,0.5,0.5,1","0.5,0.5,1,1,0.5,0.5,0.5,1,0.5","2","",""
"","html-keyboard-response","145","101711","0.0-145.0","38SKSKU7R2JZIINDRYF7TGHVR8ZILQ","A1CN1H9UODZ1E6","3BDORL6HKKZHMTYWD6BFF6WBDQ9CRF","","null","<img src=""img/land1.png"" style=""width:200px; border:14px solid green;"">","null","","","","","","","","","",""
"","image-keyboard-response","146","102311","0.0-146.0","38SKSKU7R2JZIINDRYF7TGHVR8ZILQ","A1CN1H9UODZ1E6","3BDORL6HKKZHMTYWD6BFF6WBDQ9CRF","","599","img/land2.png","76","599","3","1","2","2","1,0.5,0.5,0.5,1,0.5,0.5,0.5,1","0.5,0.5,1,1,0.5,0.5,0.5,1,0.5","2","",""
"","html-keyboard-response","147","102616","0.0-147.0","38SKSKU7R2JZIINDRYF7TGHVR8ZILQ","A1CN1H9UODZ1E6","3BDORL6HKKZHMTYWD6BFF6WBDQ9CRF","","null","<img src=""img/land2.png"" style=""width:200px; border:14px solid green;"">","null","","","","","","","","","",""
"","image-keyboard-response","148","104196","0.0-148.0","38SKSKU7R2JZIINDRYF7TGHVR8ZILQ","A1CN1H9UODZ1E6","3BDORL6HKKZHMTYWD6BFF6WBDQ9CRF","","1579","img/land1.png","74","1580","1","1","1","2","1,0.5,0.5,0.5,1,0.5,0.5,0.5,1","0.5,0.5,1,1,0.5,0.5,0.5,1,0.5","2","",""
"","html-keyboard-response","149","104499","0.0-149.0","38SKSKU7R2JZIINDRYF7TGHVR8ZILQ","A1CN1H9UODZ1E6","3BDORL6HKKZHMTYWD6BFF6WBDQ9CRF","","null","<img src=""img/land1.png"" style=""width:200px; border:14px solid green;"">","null","","","","","","","","","",""
"","image-keyboard-response","150","105087","0.0-150.0","38SKSKU7R2JZIINDRYF7TGHVR8ZILQ","A1CN1H9UODZ1E6","3BDORL6HKKZHMTYWD6BFF6WBDQ9CRF","","586","img/land6.png","76","588","3","0","3","2","1,0.5,0.5,0.5,1,0.5,0.5,0.5,1","0.5,0.5,1,1,0.5,0.5,0.5,1,0.5","2","",""
"","html-keyboard-response","151","105389","0.0-151.0","38SKSKU7R2JZIINDRYF7TGHVR8ZILQ","A1CN1H9UODZ1E6","3BDORL6HKKZHMTYWD6BFF6WBDQ9CRF","","null","<img src=""img/land6.png"" style=""width:200px;border:14px solid red;"">","null","","","","","","","","","",""
"","image-keyboard-response","152","106511","0.0-152.0","38SKSKU7R2JZIINDRYF7TGHVR8ZILQ","A1CN1H9UODZ1E6","3BDORL6HKKZHMTYWD6BFF6WBDQ9CRF","","1121","img/land2.png","74","1121","1","1","2","2","1,0.5,0.5,0.5,1,0.5,0.5,0.5,1","0.5,0.5,1,1,0.5,0.5,0.5,1,0.5","2","",""
"","html-keyboard-response","153","106815","0.0-153.0","38SKSKU7R2JZIINDRYF7TGHVR8ZILQ","A1CN1H9UODZ1E6","3BDORL6HKKZHMTYWD6BFF6WBDQ9CRF","","null","<img src=""img/land2.png"" style=""width:200px; border:14px solid green;"">","null","","","","","","","","","",""
"","image-keyboard-response","154","107614","0.0-154.0","38SKSKU7R2JZIINDRYF7TGHVR8ZILQ","A1CN1H9UODZ1E6","3BDORL6HKKZHMTYWD6BFF6WBDQ9CRF","","798","img/land2.png","74","798","1","1","2","2","1,0.5,0.5,0.5,1,0.5,0.5,0.5,1","0.5,0.5,1,1,0.5,0.5,0.5,1,0.5","2","",""
"","html-keyboard-response","155","107920","0.0-155.0","38SKSKU7R2JZIINDRYF7TGHVR8ZILQ","A1CN1H9UODZ1E6","3BDORL6HKKZHMTYWD6BFF6WBDQ9CRF","","null","<img src=""img/land2.png"" style=""width:200px; border:14px solid green;"">","null","","","","","","","","","",""
"","image-keyboard-response","156","108979","0.0-156.0","38SKSKU7R2JZIINDRYF7TGHVR8ZILQ","A1CN1H9UODZ1E6","3BDORL6HKKZHMTYWD6BFF6WBDQ9CRF","","1056","img/land1.png","76","1058","3","1","1","2","1,0.5,0.5,0.5,1,0.5,0.5,0.5,1","0.5,0.5,1,1,0.5,0.5,0.5,1,0.5","2","",""
"","html-keyboard-response","157","109281","0.0-157.0","38SKSKU7R2JZIINDRYF7TGHVR8ZILQ","A1CN1H9UODZ1E6","3BDORL6HKKZHMTYWD6BFF6WBDQ9CRF","","null","<img src=""img/land1.png"" style=""width:200px; border:14px solid green;"">","null","","","","","","","","","",""
"","image-keyboard-response","158","110123","0.0-158.0","38SKSKU7R2JZIINDRYF7TGHVR8ZILQ","A1CN1H9UODZ1E6","3BDORL6HKKZHMTYWD6BFF6WBDQ9CRF","","840","img/land1.png","76","842","3","1","1","2","1,0.5,0.5,0.5,1,0.5,0.5,0.5,1","0.5,0.5,1,1,0.5,0.5,0.5,1,0.5","2","",""
"","html-keyboard-response","159","110425","0.0-159.0","38SKSKU7R2JZIINDRYF7TGHVR8ZILQ","A1CN1H9UODZ1E6","3BDORL6HKKZHMTYWD6BFF6WBDQ9CRF","","null","<img src=""img/land1.png"" style=""width:200px; border:14px solid green;"">","null","","","","","","","","","",""
"","image-keyboard-response","160","111433","0.0-160.0","38SKSKU7R2JZIINDRYF7TGHVR8ZILQ","A1CN1H9UODZ1E6","3BDORL6HKKZHMTYWD6BFF6WBDQ9CRF","","1007","img/land2.png","74","1007","1","1","2","2","1,0.5,0.5,0.5,1,0.5,0.5,0.5,1","0.5,0.5,1,1,0.5,0.5,0.5,1,0.5","2","",""
"","html-keyboard-response","161","111734","0.0-161.0","38SKSKU7R2JZIINDRYF7TGHVR8ZILQ","A1CN1H9UODZ1E6","3BDORL6HKKZHMTYWD6BFF6WBDQ9CRF","","null","<img src=""img/land2.png"" style=""width:200px; border:14px solid green;"">","null","","","","","","","","","",""
"","image-keyboard-response","162","112635","0.0-162.0","38SKSKU7R2JZIINDRYF7TGHVR8ZILQ","A1CN1H9UODZ1E6","3BDORL6HKKZHMTYWD6BFF6WBDQ9CRF","","901","img/land1.png","76","901","3","1","1","2","1,0.5,0.5,0.5,1,0.5,0.5,0.5,1","0.5,0.5,1,1,0.5,0.5,0.5,1,0.5","2","",""
"","html-keyboard-response","163","112938","0.0-163.0","38SKSKU7R2JZIINDRYF7TGHVR8ZILQ","A1CN1H9UODZ1E6","3BDORL6HKKZHMTYWD6BFF6WBDQ9CRF","","null","<img src=""img/land1.png"" style=""width:200px; border:14px solid green;"">","null","","","","","","","","","",""
"","image-keyboard-response","164","113641","0.0-164.0","38SKSKU7R2JZIINDRYF7TGHVR8ZILQ","A1CN1H9UODZ1E6","3BDORL6HKKZHMTYWD6BFF6WBDQ9CRF","","702","img/land1.png","76","703","3","1","1","2","1,0.5,0.5,0.5,1,0.5,0.5,0.5,1","0.5,0.5,1,1,0.5,0.5,0.5,1,0.5","2","",""
"","html-keyboard-response","165","113946","0.0-165.0","38SKSKU7R2JZIINDRYF7TGHVR8ZILQ","A1CN1H9UODZ1E6","3BDORL6HKKZHMTYWD6BFF6WBDQ9CRF","","null","<img src=""img/land1.png"" style=""width:200px; border:14px solid green;"">","null","","","","","","","","","",""
"","image-keyboard-response","166","114847","0.0-166.0","38SKSKU7R2JZIINDRYF7TGHVR8ZILQ","A1CN1H9UODZ1E6","3BDORL6HKKZHMTYWD6BFF6WBDQ9CRF","","901","img/land6.png","75","901","2","1","3","2","1,0.5,0.5,0.5,1,0.5,0.5,0.5,1","0.5,0.5,1,1,0.5,0.5,0.5,1,0.5","2","",""
"","html-keyboard-response","167","115154","0.0-167.0","38SKSKU7R2JZIINDRYF7TGHVR8ZILQ","A1CN1H9UODZ1E6","3BDORL6HKKZHMTYWD6BFF6WBDQ9CRF","","null","<img src=""img/land6.png"" style=""width:200px; border:14px solid green;"">","null","","","","","","","","","",""
"","image-keyboard-response","168","116465","0.0-168.0","38SKSKU7R2JZIINDRYF7TGHVR8ZILQ","A1CN1H9UODZ1E6","3BDORL6HKKZHMTYWD6BFF6WBDQ9CRF","","1311","img/land6.png","75","1311","2","1","3","2","1,0.5,0.5,0.5,1,0.5,0.5,0.5,1","0.5,0.5,1,1,0.5,0.5,0.5,1,0.5","2","",""
"","html-keyboard-response","169","116767","0.0-169.0","38SKSKU7R2JZIINDRYF7TGHVR8ZILQ","A1CN1H9UODZ1E6","3BDORL6HKKZHMTYWD6BFF6WBDQ9CRF","","null","<img src=""img/land6.png"" style=""width:200px; border:14px solid green;"">","null","","","","","","","","","",""
"","image-keyboard-response","170","117762","0.0-170.0","38SKSKU7R2JZIINDRYF7TGHVR8ZILQ","A1CN1H9UODZ1E6","3BDORL6HKKZHMTYWD6BFF6WBDQ9CRF","","993","img/land1.png","76","995","3","1","1","2","1,0.5,0.5,0.5,1,0.5,0.5,0.5,1","0.5,0.5,1,1,0.5,0.5,0.5,1,0.5","2","",""
"","html-keyboard-response","171","118063","0.0-171.0","38SKSKU7R2JZIINDRYF7TGHVR8ZILQ","A1CN1H9UODZ1E6","3BDORL6HKKZHMTYWD6BFF6WBDQ9CRF","","null","<img src=""img/land1.png"" style=""width:200px; border:14px solid green;"">","null","","","","","","","","","",""
"","image-keyboard-response","172","118934","0.0-172.0","38SKSKU7R2JZIINDRYF7TGHVR8ZILQ","A1CN1H9UODZ1E6","3BDORL6HKKZHMTYWD6BFF6WBDQ9CRF","","871","img/land1.png","76","871","3","1","1","2","1,0.5,0.5,0.5,1,0.5,0.5,0.5,1","0.5,0.5,1,1,0.5,0.5,0.5,1,0.5","2","",""
"","html-keyboard-response","173","119240","0.0-173.0","38SKSKU7R2JZIINDRYF7TGHVR8ZILQ","A1CN1H9UODZ1E6","3BDORL6HKKZHMTYWD6BFF6WBDQ9CRF","","null","<img src=""img/land1.png"" style=""width:200px; border:14px solid green;"">","null","","","","","","","","","",""
"","image-keyboard-response","174","119966","0.0-174.0","38SKSKU7R2JZIINDRYF7TGHVR8ZILQ","A1CN1H9UODZ1E6","3BDORL6HKKZHMTYWD6BFF6WBDQ9CRF","","725","img/land1.png","76","727","3","1","1","2","1,0.5,0.5,0.5,1,0.5,0.5,0.5,1","0.5,0.5,1,1,0.5,0.5,0.5,1,0.5","2","",""
"","html-keyboard-response","175","120267","0.0-175.0","38SKSKU7R2JZIINDRYF7TGHVR8ZILQ","A1CN1H9UODZ1E6","3BDORL6HKKZHMTYWD6BFF6WBDQ9CRF","","null","<img src=""img/land1.png"" style=""width:200px; border:14px solid green;"">","null","","","","","","","","","",""
"","image-keyboard-response","176","120902","0.0-176.0","38SKSKU7R2JZIINDRYF7TGHVR8ZILQ","A1CN1H9UODZ1E6","3BDORL6HKKZHMTYWD6BFF6WBDQ9CRF","","633","img/land1.png","76","634","3","1","1","2","1,0.5,0.5,0.5,1,0.5,0.5,0.5,1","0.5,0.5,1,1,0.5,0.5,0.5,1,0.5","2","",""
"","html-keyboard-response","177","121203","0.0-177.0","38SKSKU7R2JZIINDRYF7TGHVR8ZILQ","A1CN1H9UODZ1E6","3BDORL6HKKZHMTYWD6BFF6WBDQ9CRF","","null","<img src=""img/land1.png"" style=""width:200px; border:14px solid green;"">","null","","","","","","","","","",""
"","image-keyboard-response","178","121864","0.0-178.0","38SKSKU7R2JZIINDRYF7TGHVR8ZILQ","A1CN1H9UODZ1E6","3BDORL6HKKZHMTYWD6BFF6WBDQ9CRF","","661","img/land1.png","76","662","3","1","1","2","1,0.5,0.5,0.5,1,0.5,0.5,0.5,1","0.5,0.5,1,1,0.5,0.5,0.5,1,0.5","2","",""
"","html-keyboard-response","179","122166","0.0-179.0","38SKSKU7R2JZIINDRYF7TGHVR8ZILQ","A1CN1H9UODZ1E6","3BDORL6HKKZHMTYWD6BFF6WBDQ9CRF","","null","<img src=""img/land1.png"" style=""width:200px; border:14px solid green;"">","null","","","","","","","","","",""
"","image-keyboard-response","180","122861","0.0-180.0","38SKSKU7R2JZIINDRYF7TGHVR8ZILQ","A1CN1H9UODZ1E6","3BDORL6HKKZHMTYWD6BFF6WBDQ9CRF","","694","img/land1.png","76","695","3","1","1","2","1,0.5,0.5,0.5,1,0.5,0.5,0.5,1","0.5,0.5,1,1,0.5,0.5,0.5,1,0.5","2","",""
"","html-keyboard-response","181","123272","0.0-181.0","38SKSKU7R2JZIINDRYF7TGHVR8ZILQ","A1CN1H9UODZ1E6","3BDORL6HKKZHMTYWD6BFF6WBDQ9CRF","","null","<img src=""img/land1.png"" style=""width:200px; border:14px solid green;"">","null","","","","","","","","","",""
"","image-keyboard-response","182","123939","0.0-182.0","38SKSKU7R2JZIINDRYF7TGHVR8ZILQ","A1CN1H9UODZ1E6","3BDORL6HKKZHMTYWD6BFF6WBDQ9CRF","","667","img/land1.png","76","667","3","1","1","2","1,0.5,0.5,0.5,1,0.5,0.5,0.5,1","0.5,0.5,1,1,0.5,0.5,0.5,1,0.5","2","",""
"","html-keyboard-response","183","124242","0.0-183.0","38SKSKU7R2JZIINDRYF7TGHVR8ZILQ","A1CN1H9UODZ1E6","3BDORL6HKKZHMTYWD6BFF6WBDQ9CRF","","null","<img src=""img/land1.png"" style=""width:200px; border:14px solid green;"">","null","","","","","","","","","",""
"","image-keyboard-response","184","124929","0.0-184.0","38SKSKU7R2JZIINDRYF7TGHVR8ZILQ","A1CN1H9UODZ1E6","3BDORL6HKKZHMTYWD6BFF6WBDQ9CRF","","685","img/land1.png","76","686","3","1","1","2","1,0.5,0.5,0.5,1,0.5,0.5,0.5,1","0.5,0.5,1,1,0.5,0.5,0.5,1,0.5","2","",""
"","html-keyboard-response","185","125237","0.0-185.0","38SKSKU7R2JZIINDRYF7TGHVR8ZILQ","A1CN1H9UODZ1E6","3BDORL6HKKZHMTYWD6BFF6WBDQ9CRF","","null","<img src=""img/land1.png"" style=""width:200px; border:14px solid green;"">","null","","","","","","","","","",""
"","image-keyboard-response","186","125854","0.0-186.0","38SKSKU7R2JZIINDRYF7TGHVR8ZILQ","A1CN1H9UODZ1E6","3BDORL6HKKZHMTYWD6BFF6WBDQ9CRF","","617","img/land1.png","76","617","3","1","1","2","1,0.5,0.5,0.5,1,0.5,0.5,0.5,1","0.5,0.5,1,1,0.5,0.5,0.5,1,0.5","2","",""
"","html-keyboard-response","187","126156","0.0-187.0","38SKSKU7R2JZIINDRYF7TGHVR8ZILQ","A1CN1H9UODZ1E6","3BDORL6HKKZHMTYWD6BFF6WBDQ9CRF","","null","<img src=""img/land1.png"" style=""width:200px; border:14px solid green;"">","null","","","","","","","","","",""
"","image-keyboard-response","188","126797","0.0-188.0","38SKSKU7R2JZIINDRYF7TGHVR8ZILQ","A1CN1H9UODZ1E6","3BDORL6HKKZHMTYWD6BFF6WBDQ9CRF","","640","img/land1.png","76","641","3","1","1","2","1,0.5,0.5,0.5,1,0.5,0.5,0.5,1","0.5,0.5,1,1,0.5,0.5,0.5,1,0.5","2","",""
"","html-keyboard-response","189","127107","0.0-189.0","38SKSKU7R2JZIINDRYF7TGHVR8ZILQ","A1CN1H9UODZ1E6","3BDORL6HKKZHMTYWD6BFF6WBDQ9CRF","","null","<img src=""img/land1.png"" style=""width:200px; border:14px solid green;"">","null","","","","","","","","","",""
"","image-keyboard-response","190","127710","0.0-190.0","38SKSKU7R2JZIINDRYF7TGHVR8ZILQ","A1CN1H9UODZ1E6","3BDORL6HKKZHMTYWD6BFF6WBDQ9CRF","","601","img/land1.png","76","602","3","1","1","2","1,0.5,0.5,0.5,1,0.5,0.5,0.5,1","0.5,0.5,1,1,0.5,0.5,0.5,1,0.5","2","",""
"","html-keyboard-response","191","128025","0.0-191.0","38SKSKU7R2JZIINDRYF7TGHVR8ZILQ","A1CN1H9UODZ1E6","3BDORL6HKKZHMTYWD6BFF6WBDQ9CRF","","null","<img src=""img/land1.png"" style=""width:200px; border:14px solid green;"">","null","","","","","","","","","",""
"","image-keyboard-response","192","128661","0.0-192.0","38SKSKU7R2JZIINDRYF7TGHVR8ZILQ","A1CN1H9UODZ1E6","3BDORL6HKKZHMTYWD6BFF6WBDQ9CRF","","635","img/land1.png","76","636","3","1","1","2","1,0.5,0.5,0.5,1,0.5,0.5,0.5,1","0.5,0.5,1,1,0.5,0.5,0.5,1,0.5","2","",""
"","html-keyboard-response","193","128968","0.0-193.0","38SKSKU7R2JZIINDRYF7TGHVR8ZILQ","A1CN1H9UODZ1E6","3BDORL6HKKZHMTYWD6BFF6WBDQ9CRF","","null","<img src=""img/land1.png"" style=""width:200px; border:14px solid green;"">","null","","","","","","","","","",""
"","image-keyboard-response","194","129583","0.0-194.0","38SKSKU7R2JZIINDRYF7TGHVR8ZILQ","A1CN1H9UODZ1E6","3BDORL6HKKZHMTYWD6BFF6WBDQ9CRF","","614","img/land1.png","76","614","3","1","1","2","1,0.5,0.5,0.5,1,0.5,0.5,0.5,1","0.5,0.5,1,1,0.5,0.5,0.5,1,0.5","2","",""
"","html-keyboard-response","195","129890","0.0-195.0","38SKSKU7R2JZIINDRYF7TGHVR8ZILQ","A1CN1H9UODZ1E6","3BDORL6HKKZHMTYWD6BFF6WBDQ9CRF","","null","<img src=""img/land1.png"" style=""width:200px; border:14px solid green;"">","null","","","","","","","","","",""
"","image-keyboard-response","196","130936","0.0-196.0","38SKSKU7R2JZIINDRYF7TGHVR8ZILQ","A1CN1H9UODZ1E6","3BDORL6HKKZHMTYWD6BFF6WBDQ9CRF","","1045","img/land6.png","75","1046","2","1","3","2","1,0.5,0.5,0.5,1,0.5,0.5,0.5,1","0.5,0.5,1,1,0.5,0.5,0.5,1,0.5","2","",""
"","html-keyboard-response","197","131392","0.0-197.0","38SKSKU7R2JZIINDRYF7TGHVR8ZILQ","A1CN1H9UODZ1E6","3BDORL6HKKZHMTYWD6BFF6WBDQ9CRF","","null","<img src=""img/land6.png"" style=""width:200px; border:14px solid green;"">","null","","","","","","","","","",""
"","image-keyboard-response","198","132269","0.0-198.0","38SKSKU7R2JZIINDRYF7TGHVR8ZILQ","A1CN1H9UODZ1E6","3BDORL6HKKZHMTYWD6BFF6WBDQ9CRF","","875","img/land6.png","75","877","2","1","3","2","1,0.5,0.5,0.5,1,0.5,0.5,0.5,1","0.5,0.5,1,1,0.5,0.5,0.5,1,0.5","2","",""
"","html-keyboard-response","199","132571","0.0-199.0","38SKSKU7R2JZIINDRYF7TGHVR8ZILQ","A1CN1H9UODZ1E6","3BDORL6HKKZHMTYWD6BFF6WBDQ9CRF","","null","<img src=""img/land6.png"" style=""width:200px; border:14px solid green;"">","null","","","","","","","","","",""
"","image-keyboard-response","200","133597","0.0-200.0","38SKSKU7R2JZIINDRYF7TGHVR8ZILQ","A1CN1H9UODZ1E6","3BDORL6HKKZHMTYWD6BFF6WBDQ9CRF","","1024","img/land1.png","76","1025","3","1","1","2","1,0.5,0.5,0.5,1,0.5,0.5,0.5,1","0.5,0.5,1,1,0.5,0.5,0.5,1,0.5","2","",""
"","html-keyboard-response","201","133902","0.0-201.0","38SKSKU7R2JZIINDRYF7TGHVR8ZILQ","A1CN1H9UODZ1E6","3BDORL6HKKZHMTYWD6BFF6WBDQ9CRF","","null","<img src=""img/land1.png"" style=""width:200px; border:14px solid green;"">","null","","","","","","","","","",""
"","image-keyboard-response","202","134650","0.0-202.0","38SKSKU7R2JZIINDRYF7TGHVR8ZILQ","A1CN1H9UODZ1E6","3BDORL6HKKZHMTYWD6BFF6WBDQ9CRF","","746","img/land1.png","76","748","3","1","1","2","1,0.5,0.5,0.5,1,0.5,0.5,0.5,1","0.5,0.5,1,1,0.5,0.5,0.5,1,0.5","2","",""
"","html-keyboard-response","203","135093","0.0-203.0","38SKSKU7R2JZIINDRYF7TGHVR8ZILQ","A1CN1H9UODZ1E6","3BDORL6HKKZHMTYWD6BFF6WBDQ9CRF","","null","<img src=""img/land1.png"" style=""width:200px; border:14px solid green;"">","null","","","","","","","","","",""
"","image-keyboard-response","204","136175","0.0-204.0","38SKSKU7R2JZIINDRYF7TGHVR8ZILQ","A1CN1H9UODZ1E6","3BDORL6HKKZHMTYWD6BFF6WBDQ9CRF","","1080","img/land2.png","74","1081","1","1","2","2","1,0.5,0.5,0.5,1,0.5,0.5,0.5,1","0.5,0.5,1,1,0.5,0.5,0.5,1,0.5","2","",""
"","html-keyboard-response","205","136478","0.0-205.0","38SKSKU7R2JZIINDRYF7TGHVR8ZILQ","A1CN1H9UODZ1E6","3BDORL6HKKZHMTYWD6BFF6WBDQ9CRF","","null","<img src=""img/land2.png"" style=""width:200px; border:14px solid green;"">","null","","","","","","","","","",""
"","image-keyboard-response","206","137433","0.0-206.0","38SKSKU7R2JZIINDRYF7TGHVR8ZILQ","A1CN1H9UODZ1E6","3BDORL6HKKZHMTYWD6BFF6WBDQ9CRF","","954","img/land6.png","75","954","2","1","3","2","1,0.5,0.5,0.5,1,0.5,0.5,0.5,1","0.5,0.5,1,1,0.5,0.5,0.5,1,0.5","2","",""
"","html-keyboard-response","207","137744","0.0-207.0","38SKSKU7R2JZIINDRYF7TGHVR8ZILQ","A1CN1H9UODZ1E6","3BDORL6HKKZHMTYWD6BFF6WBDQ9CRF","","null","<img src=""img/land6.png"" style=""width:200px; border:14px solid green;"">","null","","","","","","","","","",""
"","image-keyboard-response","208","138651","0.0-208.0","38SKSKU7R2JZIINDRYF7TGHVR8ZILQ","A1CN1H9UODZ1E6","3BDORL6HKKZHMTYWD6BFF6WBDQ9CRF","","906","img/land1.png","76","907","3","1","1","2","1,0.5,0.5,0.5,1,0.5,0.5,0.5,1","0.5,0.5,1,1,0.5,0.5,0.5,1,0.5","2","",""
"","html-keyboard-response","209","138957","0.0-209.0","38SKSKU7R2JZIINDRYF7TGHVR8ZILQ","A1CN1H9UODZ1E6","3BDORL6HKKZHMTYWD6BFF6WBDQ9CRF","","null","<img src=""img/land1.png"" style=""width:200px; border:14px solid green;"">","null","","","","","","","","","",""
"","image-keyboard-response","210","139760","0.0-210.0","38SKSKU7R2JZIINDRYF7TGHVR8ZILQ","A1CN1H9UODZ1E6","3BDORL6HKKZHMTYWD6BFF6WBDQ9CRF","","802","img/land1.png","76","802","3","1","1","2","1,0.5,0.5,0.5,1,0.5,0.5,0.5,1","0.5,0.5,1,1,0.5,0.5,0.5,1,0.5","2","",""
"","html-keyboard-response","211","140072","0.0-211.0","38SKSKU7R2JZIINDRYF7TGHVR8ZILQ","A1CN1H9UODZ1E6","3BDORL6HKKZHMTYWD6BFF6WBDQ9CRF","","null","<img src=""img/land1.png"" style=""width:200px; border:14px solid green;"">","null","","","","","","","","","",""
"","image-keyboard-response","212","140845","0.0-212.0","38SKSKU7R2JZIINDRYF7TGHVR8ZILQ","A1CN1H9UODZ1E6","3BDORL6HKKZHMTYWD6BFF6WBDQ9CRF","","772","img/land1.png","76","773","3","1","1","2","1,0.5,0.5,0.5,1,0.5,0.5,0.5,1","0.5,0.5,1,1,0.5,0.5,0.5,1,0.5","2","",""
"","html-keyboard-response","213","141180","0.0-213.0","38SKSKU7R2JZIINDRYF7TGHVR8ZILQ","A1CN1H9UODZ1E6","3BDORL6HKKZHMTYWD6BFF6WBDQ9CRF","","null","<img src=""img/land1.png"" style=""width:200px; border:14px solid green;"">","null","","","","","","","","","",""
"","image-keyboard-response","214","142159","0.0-214.0","38SKSKU7R2JZIINDRYF7TGHVR8ZILQ","A1CN1H9UODZ1E6","3BDORL6HKKZHMTYWD6BFF6WBDQ9CRF","","978","img/land2.png","74","979","1","1","2","2","1,0.5,0.5,0.5,1,0.5,0.5,0.5,1","0.5,0.5,1,1,0.5,0.5,0.5,1,0.5","2","",""
"","html-keyboard-response","215","142462","0.0-215.0","38SKSKU7R2JZIINDRYF7TGHVR8ZILQ","A1CN1H9UODZ1E6","3BDORL6HKKZHMTYWD6BFF6WBDQ9CRF","","null","<img src=""img/land2.png"" style=""width:200px; border:14px solid green;"">","null","","","","","","","","","",""
"","image-keyboard-response","216","143241","0.0-216.0","38SKSKU7R2JZIINDRYF7TGHVR8ZILQ","A1CN1H9UODZ1E6","3BDORL6HKKZHMTYWD6BFF6WBDQ9CRF","","776","img/land2.png","74","778","1","1","2","2","1,0.5,0.5,0.5,1,0.5,0.5,0.5,1","0.5,0.5,1,1,0.5,0.5,0.5,1,0.5","2","",""
"","html-keyboard-response","217","143546","0.0-217.0","38SKSKU7R2JZIINDRYF7TGHVR8ZILQ","A1CN1H9UODZ1E6","3BDORL6HKKZHMTYWD6BFF6WBDQ9CRF","","null","<img src=""img/land2.png"" style=""width:200px; border:14px solid green;"">","null","","","","","","","","","",""
"","image-keyboard-response","218","144555","0.0-218.0","38SKSKU7R2JZIINDRYF7TGHVR8ZILQ","A1CN1H9UODZ1E6","3BDORL6HKKZHMTYWD6BFF6WBDQ9CRF","","1008","img/land6.png","75","1009","2","1","3","2","1,0.5,0.5,0.5,1,0.5,0.5,0.5,1","0.5,0.5,1,1,0.5,0.5,0.5,1,0.5","2","",""
"","html-keyboard-response","219","144858","0.0-219.0","38SKSKU7R2JZIINDRYF7TGHVR8ZILQ","A1CN1H9UODZ1E6","3BDORL6HKKZHMTYWD6BFF6WBDQ9CRF","","null","<img src=""img/land6.png"" style=""width:200px; border:14px solid green;"">","null","","","","","","","","","",""
"","image-keyboard-response","220","145799","0.0-220.0","38SKSKU7R2JZIINDRYF7TGHVR8ZILQ","A1CN1H9UODZ1E6","3BDORL6HKKZHMTYWD6BFF6WBDQ9CRF","","939","img/land1.png","76","941","3","1","1","2","1,0.5,0.5,0.5,1,0.5,0.5,0.5,1","0.5,0.5,1,1,0.5,0.5,0.5,1,0.5","2","",""
"","html-keyboard-response","221","146100","0.0-221.0","38SKSKU7R2JZIINDRYF7TGHVR8ZILQ","A1CN1H9UODZ1E6","3BDORL6HKKZHMTYWD6BFF6WBDQ9CRF","","null","<img src=""img/land1.png"" style=""width:200px; border:14px solid green;"">","null","","","","","","","","","",""
"","image-keyboard-response","222","146954","0.0-222.0","38SKSKU7R2JZIINDRYF7TGHVR8ZILQ","A1CN1H9UODZ1E6","3BDORL6HKKZHMTYWD6BFF6WBDQ9CRF","","852","img/land1.png","76","853","3","1","1","2","1,0.5,0.5,0.5,1,0.5,0.5,0.5,1","0.5,0.5,1,1,0.5,0.5,0.5,1,0.5","2","",""
"","html-keyboard-response","223","147258","0.0-223.0","38SKSKU7R2JZIINDRYF7TGHVR8ZILQ","A1CN1H9UODZ1E6","3BDORL6HKKZHMTYWD6BFF6WBDQ9CRF","","null","<img src=""img/land1.png"" style=""width:200px; border:14px solid green;"">","null","","","","","","","","","",""
"","image-keyboard-response","224","148377","0.0-224.0","38SKSKU7R2JZIINDRYF7TGHVR8ZILQ","A1CN1H9UODZ1E6","3BDORL6HKKZHMTYWD6BFF6WBDQ9CRF","","1117","img/land1.png","76","1119","3","1","1","2","1,0.5,0.5,0.5,1,0.5,0.5,0.5,1","0.5,0.5,1,1,0.5,0.5,0.5,1,0.5","2","",""
"","html-keyboard-response","225","148679","0.0-225.0","38SKSKU7R2JZIINDRYF7TGHVR8ZILQ","A1CN1H9UODZ1E6","3BDORL6HKKZHMTYWD6BFF6WBDQ9CRF","","null","<img src=""img/land1.png"" style=""width:200px; border:14px solid green;"">","null","","","","","","","","","",""
"","image-keyboard-response","226","149387","0.0-226.0","38SKSKU7R2JZIINDRYF7TGHVR8ZILQ","A1CN1H9UODZ1E6","3BDORL6HKKZHMTYWD6BFF6WBDQ9CRF","","707","img/land1.png","76","708","3","1","1","2","1,0.5,0.5,0.5,1,0.5,0.5,0.5,1","0.5,0.5,1,1,0.5,0.5,0.5,1,0.5","2","",""
"","html-keyboard-response","227","149687","0.0-227.0","38SKSKU7R2JZIINDRYF7TGHVR8ZILQ","A1CN1H9UODZ1E6","3BDORL6HKKZHMTYWD6BFF6WBDQ9CRF","","null","<img src=""img/land1.png"" style=""width:200px; border:14px solid green;"">","null","","","","","","","","","",""
"","image-keyboard-response","228","150744","0.0-228.0","38SKSKU7R2JZIINDRYF7TGHVR8ZILQ","A1CN1H9UODZ1E6","3BDORL6HKKZHMTYWD6BFF6WBDQ9CRF","","1055","img/land2.png","74","1056","1","1","2","2","1,0.5,0.5,0.5,1,0.5,0.5,0.5,1","0.5,0.5,1,1,0.5,0.5,0.5,1,0.5","2","",""
"","html-keyboard-response","229","151058","0.0-229.0","38SKSKU7R2JZIINDRYF7TGHVR8ZILQ","A1CN1H9UODZ1E6","3BDORL6HKKZHMTYWD6BFF6WBDQ9CRF","","null","<img src=""img/land2.png"" style=""width:200px; border:14px solid green;"">","null","","","","","","","","","",""
"","image-keyboard-response","230","151828","0.0-230.0","38SKSKU7R2JZIINDRYF7TGHVR8ZILQ","A1CN1H9UODZ1E6","3BDORL6HKKZHMTYWD6BFF6WBDQ9CRF","","770","img/land2.png","74","770","1","1","2","2","1,0.5,0.5,0.5,1,0.5,0.5,0.5,1","0.5,0.5,1,1,0.5,0.5,0.5,1,0.5","2","",""
"","html-keyboard-response","231","152129","0.0-231.0","38SKSKU7R2JZIINDRYF7TGHVR8ZILQ","A1CN1H9UODZ1E6","3BDORL6HKKZHMTYWD6BFF6WBDQ9CRF","","null","<img src=""img/land2.png"" style=""width:200px; border:14px solid green;"">","null","","","","","","","","","",""
"","image-keyboard-response","232","153264","0.0-232.0","38SKSKU7R2JZIINDRYF7TGHVR8ZILQ","A1CN1H9UODZ1E6","3BDORL6HKKZHMTYWD6BFF6WBDQ9CRF","","1133","img/land1.png","76","1134","3","1","1","2","1,0.5,0.5,0.5,1,0.5,0.5,0.5,1","0.5,0.5,1,1,0.5,0.5,0.5,1,0.5","2","",""
"","html-keyboard-response","233","153564","0.0-233.0","38SKSKU7R2JZIINDRYF7TGHVR8ZILQ","A1CN1H9UODZ1E6","3BDORL6HKKZHMTYWD6BFF6WBDQ9CRF","","null","<img src=""img/land1.png"" style=""width:200px; border:14px solid green;"">","null","","","","","","","","","",""
"","image-keyboard-response","234","154334","0.0-234.0","38SKSKU7R2JZIINDRYF7TGHVR8ZILQ","A1CN1H9UODZ1E6","3BDORL6HKKZHMTYWD6BFF6WBDQ9CRF","","769","img/land1.png","76","769","3","1","1","2","1,0.5,0.5,0.5,1,0.5,0.5,0.5,1","0.5,0.5,1,1,0.5,0.5,0.5,1,0.5","2","",""
"","html-keyboard-response","235","154637","0.0-235.0","38SKSKU7R2JZIINDRYF7TGHVR8ZILQ","A1CN1H9UODZ1E6","3BDORL6HKKZHMTYWD6BFF6WBDQ9CRF","","null","<img src=""img/land1.png"" style=""width:200px; border:14px solid green;"">","null","","","","","","","","","",""
"","image-keyboard-response","236","155388","0.0-236.0","38SKSKU7R2JZIINDRYF7TGHVR8ZILQ","A1CN1H9UODZ1E6","3BDORL6HKKZHMTYWD6BFF6WBDQ9CRF","","750","img/land1.png","76","751","3","1","1","2","1,0.5,0.5,0.5,1,0.5,0.5,0.5,1","0.5,0.5,1,1,0.5,0.5,0.5,1,0.5","2","",""
"","html-keyboard-response","237","155692","0.0-237.0","38SKSKU7R2JZIINDRYF7TGHVR8ZILQ","A1CN1H9UODZ1E6","3BDORL6HKKZHMTYWD6BFF6WBDQ9CRF","","null","<img src=""img/land1.png"" style=""width:200px; border:14px solid green;"">","null","","","","","","","","","",""
"","image-keyboard-response","238","156405","0.0-238.0","38SKSKU7R2JZIINDRYF7TGHVR8ZILQ","A1CN1H9UODZ1E6","3BDORL6HKKZHMTYWD6BFF6WBDQ9CRF","","711","img/land1.png","76","713","3","1","1","2","1,0.5,0.5,0.5,1,0.5,0.5,0.5,1","0.5,0.5,1,1,0.5,0.5,0.5,1,0.5","2","",""
"","html-keyboard-response","239","156714","0.0-239.0","38SKSKU7R2JZIINDRYF7TGHVR8ZILQ","A1CN1H9UODZ1E6","3BDORL6HKKZHMTYWD6BFF6WBDQ9CRF","","null","<img src=""img/land1.png"" style=""width:200px; border:14px solid green;"">","null","","","","","","","","","",""
"","image-keyboard-response","240","157442","0.0-240.0","38SKSKU7R2JZIINDRYF7TGHVR8ZILQ","A1CN1H9UODZ1E6","3BDORL6HKKZHMTYWD6BFF6WBDQ9CRF","","710","img/land1.png","76","712","3","1","1","2","1,0.5,0.5,0.5,1,0.5,0.5,0.5,1","0.5,0.5,1,1,0.5,0.5,0.5,1,0.5","2","",""
"","html-keyboard-response","241","157749","0.0-241.0","38SKSKU7R2JZIINDRYF7TGHVR8ZILQ","A1CN1H9UODZ1E6","3BDORL6HKKZHMTYWD6BFF6WBDQ9CRF","","null","<img src=""img/land1.png"" style=""width:200px; border:14px solid green;"">","null","","","","","","","","","",""
"","image-keyboard-response","242","158443","0.0-242.0","38SKSKU7R2JZIINDRYF7TGHVR8ZILQ","A1CN1H9UODZ1E6","3BDORL6HKKZHMTYWD6BFF6WBDQ9CRF","","693","img/land1.png","76","695","3","1","1","2","1,0.5,0.5,0.5,1,0.5,0.5,0.5,1","0.5,0.5,1,1,0.5,0.5,0.5,1,0.5","2","",""
"","html-keyboard-response","243","158746","0.0-243.0","38SKSKU7R2JZIINDRYF7TGHVR8ZILQ","A1CN1H9UODZ1E6","3BDORL6HKKZHMTYWD6BFF6WBDQ9CRF","","null","<img src=""img/land1.png"" style=""width:200px; border:14px solid green;"">","null","","","","","","","","","",""
"","image-keyboard-response","244","159433","0.0-244.0","38SKSKU7R2JZIINDRYF7TGHVR8ZILQ","A1CN1H9UODZ1E6","3BDORL6HKKZHMTYWD6BFF6WBDQ9CRF","","686","img/land1.png","76","687","3","1","1","2","1,0.5,0.5,0.5,1,0.5,0.5,0.5,1","0.5,0.5,1,1,0.5,0.5,0.5,1,0.5","2","",""
"","html-keyboard-response","245","159737","0.0-245.0","38SKSKU7R2JZIINDRYF7TGHVR8ZILQ","A1CN1H9UODZ1E6","3BDORL6HKKZHMTYWD6BFF6WBDQ9CRF","","null","<img src=""img/land1.png"" style=""width:200px; border:14px solid green;"">","null","","","","","","","","","",""
"","image-keyboard-response","246","160739","0.0-246.0","38SKSKU7R2JZIINDRYF7TGHVR8ZILQ","A1CN1H9UODZ1E6","3BDORL6HKKZHMTYWD6BFF6WBDQ9CRF","","1001","img/land6.png","75","1002","2","1","3","2","1,0.5,0.5,0.5,1,0.5,0.5,0.5,1","0.5,0.5,1,1,0.5,0.5,0.5,1,0.5","2","",""
"","html-keyboard-response","247","161220","0.0-247.0","38SKSKU7R2JZIINDRYF7TGHVR8ZILQ","A1CN1H9UODZ1E6","3BDORL6HKKZHMTYWD6BFF6WBDQ9CRF","","null","<img src=""img/land6.png"" style=""width:200px; border:14px solid green;"">","null","","","","","","","","","",""
"","image-keyboard-response","248","162238","0.0-248.0","38SKSKU7R2JZIINDRYF7TGHVR8ZILQ","A1CN1H9UODZ1E6","3BDORL6HKKZHMTYWD6BFF6WBDQ9CRF","","1018","img/land1.png","76","1019","3","1","1","2","1,0.5,0.5,0.5,1,0.5,0.5,0.5,1","0.5,0.5,1,1,0.5,0.5,0.5,1,0.5","2","",""
"","html-keyboard-response","249","162542","0.0-249.0","38SKSKU7R2JZIINDRYF7TGHVR8ZILQ","A1CN1H9UODZ1E6","3BDORL6HKKZHMTYWD6BFF6WBDQ9CRF","","null","<img src=""img/land1.png"" style=""width:200px; border:14px solid green;"">","null","","","","","","","","","",""
"","image-keyboard-response","250","163243","0.0-250.0","38SKSKU7R2JZIINDRYF7TGHVR8ZILQ","A1CN1H9UODZ1E6","3BDORL6HKKZHMTYWD6BFF6WBDQ9CRF","","700","img/land1.png","76","701","3","1","1","2","1,0.5,0.5,0.5,1,0.5,0.5,0.5,1","0.5,0.5,1,1,0.5,0.5,0.5,1,0.5","2","",""
"","html-keyboard-response","251","163551","0.0-251.0","38SKSKU7R2JZIINDRYF7TGHVR8ZILQ","A1CN1H9UODZ1E6","3BDORL6HKKZHMTYWD6BFF6WBDQ9CRF","","null","<img src=""img/land1.png"" style=""width:200px; border:14px solid green;"">","null","","","","","","","","","",""
"","image-keyboard-response","252","164475","0.0-252.0","38SKSKU7R2JZIINDRYF7TGHVR8ZILQ","A1CN1H9UODZ1E6","3BDORL6HKKZHMTYWD6BFF6WBDQ9CRF","","923","img/land6.png","75","924","2","1","3","2","1,0.5,0.5,0.5,1,0.5,0.5,0.5,1","0.5,0.5,1,1,0.5,0.5,0.5,1,0.5","2","",""
"","html-keyboard-response","253","164880","0.0-253.0","38SKSKU7R2JZIINDRYF7TGHVR8ZILQ","A1CN1H9UODZ1E6","3BDORL6HKKZHMTYWD6BFF6WBDQ9CRF","","null","<img src=""img/land6.png"" style=""width:200px; border:14px solid green;"">","null","","","","","","","","","",""
"","image-keyboard-response","254","165820","0.0-254.0","38SKSKU7R2JZIINDRYF7TGHVR8ZILQ","A1CN1H9UODZ1E6","3BDORL6HKKZHMTYWD6BFF6WBDQ9CRF","","938","img/land1.png","76","940","3","1","1","2","1,0.5,0.5,0.5,1,0.5,0.5,0.5,1","0.5,0.5,1,1,0.5,0.5,0.5,1,0.5","2","",""
"","html-keyboard-response","255","166121","0.0-255.0","38SKSKU7R2JZIINDRYF7TGHVR8ZILQ","A1CN1H9UODZ1E6","3BDORL6HKKZHMTYWD6BFF6WBDQ9CRF","","null","<img src=""img/land1.png"" style=""width:200px; border:14px solid green;"">","null","","","","","","","","","",""
"","image-keyboard-response","256","166891","0.0-256.0","38SKSKU7R2JZIINDRYF7TGHVR8ZILQ","A1CN1H9UODZ1E6","3BDORL6HKKZHMTYWD6BFF6WBDQ9CRF","","768","img/land1.png","76","770","3","1","1","2","1,0.5,0.5,0.5,1,0.5,0.5,0.5,1","0.5,0.5,1,1,0.5,0.5,0.5,1,0.5","2","",""
"","html-keyboard-response","257","167197","0.0-257.0","38SKSKU7R2JZIINDRYF7TGHVR8ZILQ","A1CN1H9UODZ1E6","3BDORL6HKKZHMTYWD6BFF6WBDQ9CRF","","null","<img src=""img/land1.png"" style=""width:200px; border:14px solid green;"">","null","","","","","","","","","",""
"","image-keyboard-response","258","168401","0.0-258.0","38SKSKU7R2JZIINDRYF7TGHVR8ZILQ","A1CN1H9UODZ1E6","3BDORL6HKKZHMTYWD6BFF6WBDQ9CRF","","1202","img/land2.png","74","1204","1","1","2","2","1,0.5,0.5,0.5,1,0.5,0.5,0.5,1","0.5,0.5,1,1,0.5,0.5,0.5,1,0.5","2","",""
"","html-keyboard-response","259","168710","0.0-259.0","38SKSKU7R2JZIINDRYF7TGHVR8ZILQ","A1CN1H9UODZ1E6","3BDORL6HKKZHMTYWD6BFF6WBDQ9CRF","","null","<img src=""img/land2.png"" style=""width:200px; border:14px solid green;"">","null","","","","","","","","","",""
"","image-keyboard-response","260","169445","0.0-260.0","38SKSKU7R2JZIINDRYF7TGHVR8ZILQ","A1CN1H9UODZ1E6","3BDORL6HKKZHMTYWD6BFF6WBDQ9CRF","","734","img/land2.png","74","735","1","1","2","2","1,0.5,0.5,0.5,1,0.5,0.5,0.5,1","0.5,0.5,1,1,0.5,0.5,0.5,1,0.5","2","",""
"","html-keyboard-response","261","169749","0.0-261.0","38SKSKU7R2JZIINDRYF7TGHVR8ZILQ","A1CN1H9UODZ1E6","3BDORL6HKKZHMTYWD6BFF6WBDQ9CRF","","null","<img src=""img/land2.png"" style=""width:200px; border:14px solid green;"">","null","","","","","","","","","",""
"","image-keyboard-response","262","170656","0.0-262.0","38SKSKU7R2JZIINDRYF7TGHVR8ZILQ","A1CN1H9UODZ1E6","3BDORL6HKKZHMTYWD6BFF6WBDQ9CRF","","906","img/land6.png","75","907","2","1","3","2","1,0.5,0.5,0.5,1,0.5,0.5,0.5,1","0.5,0.5,1,1,0.5,0.5,0.5,1,0.5","2","",""
"","html-keyboard-response","263","170974","0.0-263.0","38SKSKU7R2JZIINDRYF7TGHVR8ZILQ","A1CN1H9UODZ1E6","3BDORL6HKKZHMTYWD6BFF6WBDQ9CRF","","null","<img src=""img/land6.png"" style=""width:200px; border:14px solid green;"">","null","","","","","","","","","",""
"","image-keyboard-response","264","172045","0.0-264.0","38SKSKU7R2JZIINDRYF7TGHVR8ZILQ","A1CN1H9UODZ1E6","3BDORL6HKKZHMTYWD6BFF6WBDQ9CRF","","1064","img/land1.png","76","1065","3","1","1","2","1,0.5,0.5,0.5,1,0.5,0.5,0.5,1","0.5,0.5,1,1,0.5,0.5,0.5,1,0.5","2","",""
"","html-keyboard-response","265","172346","0.0-265.0","38SKSKU7R2JZIINDRYF7TGHVR8ZILQ","A1CN1H9UODZ1E6","3BDORL6HKKZHMTYWD6BFF6WBDQ9CRF","","null","<img src=""img/land1.png"" style=""width:200px; border:14px solid green;"">","null","","","","","","","","","",""
"","image-keyboard-response","266","173493","0.0-266.0","38SKSKU7R2JZIINDRYF7TGHVR8ZILQ","A1CN1H9UODZ1E6","3BDORL6HKKZHMTYWD6BFF6WBDQ9CRF","","1146","img/land6.png","75","1148","2","1","3","2","1,0.5,0.5,0.5,1,0.5,0.5,0.5,1","0.5,0.5,1,1,0.5,0.5,0.5,1,0.5","2","",""
"","html-keyboard-response","267","173800","0.0-267.0","38SKSKU7R2JZIINDRYF7TGHVR8ZILQ","A1CN1H9UODZ1E6","3BDORL6HKKZHMTYWD6BFF6WBDQ9CRF","","null","<img src=""img/land6.png"" style=""width:200px; border:14px solid green;"">","null","","","","","","","","","",""
"","image-keyboard-response","268","174844","0.0-268.0","38SKSKU7R2JZIINDRYF7TGHVR8ZILQ","A1CN1H9UODZ1E6","3BDORL6HKKZHMTYWD6BFF6WBDQ9CRF","","1042","img/land2.png","74","1044","1","1","2","2","1,0.5,0.5,0.5,1,0.5,0.5,0.5,1","0.5,0.5,1,1,0.5,0.5,0.5,1,0.5","2","",""
"","html-keyboard-response","269","175279","0.0-269.0","38SKSKU7R2JZIINDRYF7TGHVR8ZILQ","A1CN1H9UODZ1E6","3BDORL6HKKZHMTYWD6BFF6WBDQ9CRF","","null","<img src=""img/land2.png"" style=""width:200px; border:14px solid green;"">","null","","","","","","","","","",""
"","image-keyboard-response","270","176404","0.0-270.0","38SKSKU7R2JZIINDRYF7TGHVR8ZILQ","A1CN1H9UODZ1E6","3BDORL6HKKZHMTYWD6BFF6WBDQ9CRF","","1124","img/land1.png","76","1125","3","1","1","2","1,0.5,0.5,0.5,1,0.5,0.5,0.5,1","0.5,0.5,1,1,0.5,0.5,0.5,1,0.5","2","",""
"","html-keyboard-response","271","176713","0.0-271.0","38SKSKU7R2JZIINDRYF7TGHVR8ZILQ","A1CN1H9UODZ1E6","3BDORL6HKKZHMTYWD6BFF6WBDQ9CRF","","null","<img src=""img/land1.png"" style=""width:200px; border:14px solid green;"">","null","","","","","","","","","",""
"","image-keyboard-response","272","177650","0.0-272.0","38SKSKU7R2JZIINDRYF7TGHVR8ZILQ","A1CN1H9UODZ1E6","3BDORL6HKKZHMTYWD6BFF6WBDQ9CRF","","936","img/land2.png","75","937","2","0","2","2","1,0.5,0.5,0.5,1,0.5,0.5,0.5,1","0.5,0.5,1,1,0.5,0.5,0.5,1,0.5","2","",""
"","html-keyboard-response","273","177952","0.0-273.0","38SKSKU7R2JZIINDRYF7TGHVR8ZILQ","A1CN1H9UODZ1E6","3BDORL6HKKZHMTYWD6BFF6WBDQ9CRF","","null","<img src=""img/land2.png"" style=""width:200px;border:14px solid red;"">","null","","","","","","","","","",""
"","image-keyboard-response","274","179089","0.0-274.0","38SKSKU7R2JZIINDRYF7TGHVR8ZILQ","A1CN1H9UODZ1E6","3BDORL6HKKZHMTYWD6BFF6WBDQ9CRF","","1136","img/land1.png","76","1137","3","1","1","2","1,0.5,0.5,0.5,1,0.5,0.5,0.5,1","0.5,0.5,1,1,0.5,0.5,0.5,1,0.5","2","",""
"","html-keyboard-response","275","179392","0.0-275.0","38SKSKU7R2JZIINDRYF7TGHVR8ZILQ","A1CN1H9UODZ1E6","3BDORL6HKKZHMTYWD6BFF6WBDQ9CRF","","null","<img src=""img/land1.png"" style=""width:200px; border:14px solid green;"">","null","","","","","","","","","",""
"","image-keyboard-response","276","180510","0.0-276.0","38SKSKU7R2JZIINDRYF7TGHVR8ZILQ","A1CN1H9UODZ1E6","3BDORL6HKKZHMTYWD6BFF6WBDQ9CRF","","1115","img/land6.png","75","1117","2","1","3","2","1,0.5,0.5,0.5,1,0.5,0.5,0.5,1","0.5,0.5,1,1,0.5,0.5,0.5,1,0.5","2","",""
"","html-keyboard-response","277","180813","0.0-277.0","38SKSKU7R2JZIINDRYF7TGHVR8ZILQ","A1CN1H9UODZ1E6","3BDORL6HKKZHMTYWD6BFF6WBDQ9CRF","","null","<img src=""img/land6.png"" style=""width:200px; border:14px solid green;"">","null","","","","","","","","","",""
"","image-keyboard-response","278","181953","0.0-278.0","38SKSKU7R2JZIINDRYF7TGHVR8ZILQ","A1CN1H9UODZ1E6","3BDORL6HKKZHMTYWD6BFF6WBDQ9CRF","","1138","img/land1.png","76","1140","3","1","1","2","1,0.5,0.5,0.5,1,0.5,0.5,0.5,1","0.5,0.5,1,1,0.5,0.5,0.5,1,0.5","2","",""
"","html-keyboard-response","279","182254","0.0-279.0","38SKSKU7R2JZIINDRYF7TGHVR8ZILQ","A1CN1H9UODZ1E6","3BDORL6HKKZHMTYWD6BFF6WBDQ9CRF","","null","<img src=""img/land1.png"" style=""width:200px; border:14px solid green;"">","null","","","","","","","","","",""
"","image-keyboard-response","280","182995","0.0-280.0","38SKSKU7R2JZIINDRYF7TGHVR8ZILQ","A1CN1H9UODZ1E6","3BDORL6HKKZHMTYWD6BFF6WBDQ9CRF","","740","img/land1.png","76","741","3","1","1","2","1,0.5,0.5,0.5,1,0.5,0.5,0.5,1","0.5,0.5,1,1,0.5,0.5,0.5,1,0.5","2","",""
"","html-keyboard-response","281","183299","0.0-281.0","38SKSKU7R2JZIINDRYF7TGHVR8ZILQ","A1CN1H9UODZ1E6","3BDORL6HKKZHMTYWD6BFF6WBDQ9CRF","","null","<img src=""img/land1.png"" style=""width:200px; border:14px solid green;"">","null","","","","","","","","","",""
"","image-keyboard-response","282","184015","0.0-282.0","38SKSKU7R2JZIINDRYF7TGHVR8ZILQ","A1CN1H9UODZ1E6","3BDORL6HKKZHMTYWD6BFF6WBDQ9CRF","","714","img/land1.png","76","715","3","1","1","2","1,0.5,0.5,0.5,1,0.5,0.5,0.5,1","0.5,0.5,1,1,0.5,0.5,0.5,1,0.5","2","",""
"","html-keyboard-response","283","184316","0.0-283.0","38SKSKU7R2JZIINDRYF7TGHVR8ZILQ","A1CN1H9UODZ1E6","3BDORL6HKKZHMTYWD6BFF6WBDQ9CRF","","null","<img src=""img/land1.png"" style=""width:200px; border:14px solid green;"">","null","","","","","","","","","",""
"","image-keyboard-response","284","184945","0.0-284.0","38SKSKU7R2JZIINDRYF7TGHVR8ZILQ","A1CN1H9UODZ1E6","3BDORL6HKKZHMTYWD6BFF6WBDQ9CRF","","629","img/land1.png","76","629","3","1","1","2","1,0.5,0.5,0.5,1,0.5,0.5,0.5,1","0.5,0.5,1,1,0.5,0.5,0.5,1,0.5","2","",""
"","html-keyboard-response","285","185259","0.0-285.0","38SKSKU7R2JZIINDRYF7TGHVR8ZILQ","A1CN1H9UODZ1E6","3BDORL6HKKZHMTYWD6BFF6WBDQ9CRF","","null","<img src=""img/land1.png"" style=""width:200px; border:14px solid green;"">","null","","","","","","","","","",""
"","image-keyboard-response","286","185889","0.0-286.0","38SKSKU7R2JZIINDRYF7TGHVR8ZILQ","A1CN1H9UODZ1E6","3BDORL6HKKZHMTYWD6BFF6WBDQ9CRF","","627","img/land1.png","76","629","3","1","1","2","1,0.5,0.5,0.5,1,0.5,0.5,0.5,1","0.5,0.5,1,1,0.5,0.5,0.5,1,0.5","2","",""
"","html-keyboard-response","287","186191","0.0-287.0","38SKSKU7R2JZIINDRYF7TGHVR8ZILQ","A1CN1H9UODZ1E6","3BDORL6HKKZHMTYWD6BFF6WBDQ9CRF","","null","<img src=""img/land1.png"" style=""width:200px; border:14px solid green;"">","null","","","","","","","","","",""
"","image-keyboard-response","288","186826","0.0-288.0","38SKSKU7R2JZIINDRYF7TGHVR8ZILQ","A1CN1H9UODZ1E6","3BDORL6HKKZHMTYWD6BFF6WBDQ9CRF","","634","img/land1.png","76","635","3","1","1","2","1,0.5,0.5,0.5,1,0.5,0.5,0.5,1","0.5,0.5,1,1,0.5,0.5,0.5,1,0.5","2","",""
"","html-keyboard-response","289","187150","0.0-289.0","38SKSKU7R2JZIINDRYF7TGHVR8ZILQ","A1CN1H9UODZ1E6","3BDORL6HKKZHMTYWD6BFF6WBDQ9CRF","","null","<img src=""img/land1.png"" style=""width:200px; border:14px solid green;"">","null","","","","","","","","","",""
"","image-keyboard-response","290","188169","0.0-290.0","38SKSKU7R2JZIINDRYF7TGHVR8ZILQ","A1CN1H9UODZ1E6","3BDORL6HKKZHMTYWD6BFF6WBDQ9CRF","","1017","img/land2.png","74","1019","1","1","2","2","1,0.5,0.5,0.5,1,0.5,0.5,0.5,1","0.5,0.5,1,1,0.5,0.5,0.5,1,0.5","2","",""
"","html-keyboard-response","291","188472","0.0-291.0","38SKSKU7R2JZIINDRYF7TGHVR8ZILQ","A1CN1H9UODZ1E6","3BDORL6HKKZHMTYWD6BFF6WBDQ9CRF","","null","<img src=""img/land2.png"" style=""width:200px; border:14px solid green;"">","null","","","","","","","","","",""
"","image-keyboard-response","292","189636","0.0-292.0","38SKSKU7R2JZIINDRYF7TGHVR8ZILQ","A1CN1H9UODZ1E6","3BDORL6HKKZHMTYWD6BFF6WBDQ9CRF","","1163","img/land1.png","76","1164","3","1","1","2","1,0.5,0.5,0.5,1,0.5,0.5,0.5,1","0.5,0.5,1,1,0.5,0.5,0.5,1,0.5","2","",""
"","html-keyboard-response","293","189937","0.0-293.0","38SKSKU7R2JZIINDRYF7TGHVR8ZILQ","A1CN1H9UODZ1E6","3BDORL6HKKZHMTYWD6BFF6WBDQ9CRF","","null","<img src=""img/land1.png"" style=""width:200px; border:14px solid green;"">","null","","","","","","","","","",""
"","image-keyboard-response","294","190923","0.0-294.0","38SKSKU7R2JZIINDRYF7TGHVR8ZILQ","A1CN1H9UODZ1E6","3BDORL6HKKZHMTYWD6BFF6WBDQ9CRF","","984","img/land6.png","75","986","2","1","3","2","1,0.5,0.5,0.5,1,0.5,0.5,0.5,1","0.5,0.5,1,1,0.5,0.5,0.5,1,0.5","2","",""
"","html-keyboard-response","295","191223","0.0-295.0","38SKSKU7R2JZIINDRYF7TGHVR8ZILQ","A1CN1H9UODZ1E6","3BDORL6HKKZHMTYWD6BFF6WBDQ9CRF","","null","<img src=""img/land6.png"" style=""width:200px; border:14px solid green;"">","null","","","","","","","","","",""
"","image-keyboard-response","296","192251","0.0-296.0","38SKSKU7R2JZIINDRYF7TGHVR8ZILQ","A1CN1H9UODZ1E6","3BDORL6HKKZHMTYWD6BFF6WBDQ9CRF","","1025","img/land2.png","74","1028","1","1","2","2","1,0.5,0.5,0.5,1,0.5,0.5,0.5,1","0.5,0.5,1,1,0.5,0.5,0.5,1,0.5","2","",""
"","html-keyboard-response","297","192553","0.0-297.0","38SKSKU7R2JZIINDRYF7TGHVR8ZILQ","A1CN1H9UODZ1E6","3BDORL6HKKZHMTYWD6BFF6WBDQ9CRF","","null","<img src=""img/land2.png"" style=""width:200px; border:14px solid green;"">","null","","","","","","","","","",""
"","image-keyboard-response","298","193813","0.0-298.0","38SKSKU7R2JZIINDRYF7TGHVR8ZILQ","A1CN1H9UODZ1E6","3BDORL6HKKZHMTYWD6BFF6WBDQ9CRF","","1259","img/land6.png","75","1260","2","1","3","2","1,0.5,0.5,0.5,1,0.5,0.5,0.5,1","0.5,0.5,1,1,0.5,0.5,0.5,1,0.5","2","",""
"","html-keyboard-response","299","194119","0.0-299.0","38SKSKU7R2JZIINDRYF7TGHVR8ZILQ","A1CN1H9UODZ1E6","3BDORL6HKKZHMTYWD6BFF6WBDQ9CRF","","null","<img src=""img/land6.png"" style=""width:200px; border:14px solid green;"">","null","","","","","","","","","",""
"","image-keyboard-response","300","195110","0.0-300.0","38SKSKU7R2JZIINDRYF7TGHVR8ZILQ","A1CN1H9UODZ1E6","3BDORL6HKKZHMTYWD6BFF6WBDQ9CRF","","990","img/land1.png","76","991","3","1","1","2","1,0.5,0.5,0.5,1,0.5,0.5,0.5,1","0.5,0.5,1,1,0.5,0.5,0.5,1,0.5","2","",""
"","html-keyboard-response","301","195413","0.0-301.0","38SKSKU7R2JZIINDRYF7TGHVR8ZILQ","A1CN1H9UODZ1E6","3BDORL6HKKZHMTYWD6BFF6WBDQ9CRF","","null","<img src=""img/land1.png"" style=""width:200px; border:14px solid green;"">","null","","","","","","","","","",""
"","image-keyboard-response","302","196287","0.0-302.0","38SKSKU7R2JZIINDRYF7TGHVR8ZILQ","A1CN1H9UODZ1E6","3BDORL6HKKZHMTYWD6BFF6WBDQ9CRF","","873","img/land4.png","76","873","3","0","2","1","1,0.5,0.5,0.5,1,0.5,0.5,0.5,1","1,0.5,0.5,0.5,1,0.5,0.5,0.5,1","1","",""
"","html-keyboard-response","303","196597","0.0-303.0","38SKSKU7R2JZIINDRYF7TGHVR8ZILQ","A1CN1H9UODZ1E6","3BDORL6HKKZHMTYWD6BFF6WBDQ9CRF","","null","<img src=""img/land4.png"" style=""width:200px;border:14px solid red;"">","null","","","","","","","","","",""
"","image-keyboard-response","304","197919","0.0-304.0","38SKSKU7R2JZIINDRYF7TGHVR8ZILQ","A1CN1H9UODZ1E6","3BDORL6HKKZHMTYWD6BFF6WBDQ9CRF","","1321","img/land5.png","74","1322","1","1","1","1","1,0.5,0.5,0.5,1,0.5,0.5,0.5,1","1,0.5,0.5,0.5,1,0.5,0.5,0.5,1","1","",""
"","html-keyboard-response","305","198230","0.0-305.0","38SKSKU7R2JZIINDRYF7TGHVR8ZILQ","A1CN1H9UODZ1E6","3BDORL6HKKZHMTYWD6BFF6WBDQ9CRF","","null","<img src=""img/land5.png"" style=""width:200px; border:14px solid green;"">","null","","","","","","","","","",""
"","image-keyboard-response","306","198903","0.0-306.0","38SKSKU7R2JZIINDRYF7TGHVR8ZILQ","A1CN1H9UODZ1E6","3BDORL6HKKZHMTYWD6BFF6WBDQ9CRF","","673","img/land5.png","74","673","1","1","1","1","1,0.5,0.5,0.5,1,0.5,0.5,0.5,1","1,0.5,0.5,0.5,1,0.5,0.5,0.5,1","1","",""
"","html-keyboard-response","307","199218","0.0-307.0","38SKSKU7R2JZIINDRYF7TGHVR8ZILQ","A1CN1H9UODZ1E6","3BDORL6HKKZHMTYWD6BFF6WBDQ9CRF","","null","<img src=""img/land5.png"" style=""width:200px; border:14px solid green;"">","null","","","","","","","","","",""
"","image-keyboard-response","308","199967","0.0-308.0","38SKSKU7R2JZIINDRYF7TGHVR8ZILQ","A1CN1H9UODZ1E6","3BDORL6HKKZHMTYWD6BFF6WBDQ9CRF","","746","img/land3.png","74","748","1","1","3","1","1,0.5,0.5,0.5,1,0.5,0.5,0.5,1","1,0.5,0.5,0.5,1,0.5,0.5,0.5,1","1","",""
"","html-keyboard-response","309","200282","0.0-309.0","38SKSKU7R2JZIINDRYF7TGHVR8ZILQ","A1CN1H9UODZ1E6","3BDORL6HKKZHMTYWD6BFF6WBDQ9CRF","","null","<img src=""img/land3.png"" style=""width:200px; border:14px solid green;"">","null","","","","","","","","","",""
"","image-keyboard-response","310","202284","0.0-310.0","38SKSKU7R2JZIINDRYF7TGHVR8ZILQ","A1CN1H9UODZ1E6","3BDORL6HKKZHMTYWD6BFF6WBDQ9CRF","","","img/land4.png","","2002","-1","0","2","1","1,0.5,0.5,0.5,1,0.5,0.5,0.5,1","1,0.5,0.5,0.5,1,0.5,0.5,0.5,1","1","",""
"","html-keyboard-response","311","202585","0.0-311.0","38SKSKU7R2JZIINDRYF7TGHVR8ZILQ","A1CN1H9UODZ1E6","3BDORL6HKKZHMTYWD6BFF6WBDQ9CRF","","null","<img src=""img/land4.png"" style=""width:200px;border:14px solid red;"">","null","","","","","","","","","",""
"","image-keyboard-response","312","203959","0.0-312.0","38SKSKU7R2JZIINDRYF7TGHVR8ZILQ","A1CN1H9UODZ1E6","3BDORL6HKKZHMTYWD6BFF6WBDQ9CRF","","1373","img/land5.png","75","1374","2","0","1","1","1,0.5,0.5,0.5,1,0.5,0.5,0.5,1","1,0.5,0.5,0.5,1,0.5,0.5,0.5,1","1","",""
"","html-keyboard-response","313","204264","0.0-313.0","38SKSKU7R2JZIINDRYF7TGHVR8ZILQ","A1CN1H9UODZ1E6","3BDORL6HKKZHMTYWD6BFF6WBDQ9CRF","","null","<img src=""img/land5.png"" style=""width:200px;border:14px solid red;"">","null","","","","","","","","","",""
"","image-keyboard-response","314","205029","0.0-314.0","38SKSKU7R2JZIINDRYF7TGHVR8ZILQ","A1CN1H9UODZ1E6","3BDORL6HKKZHMTYWD6BFF6WBDQ9CRF","","765","img/land4.png","76","765","3","1","2","1","1,0.5,0.5,0.5,1,0.5,0.5,0.5,1","1,0.5,0.5,0.5,1,0.5,0.5,0.5,1","1","",""
"","html-keyboard-response","315","205393","0.0-315.0","38SKSKU7R2JZIINDRYF7TGHVR8ZILQ","A1CN1H9UODZ1E6","3BDORL6HKKZHMTYWD6BFF6WBDQ9CRF","","null","<img src=""img/land4.png"" style=""width:200px; border:14px solid green;"">","null","","","","","","","","","",""
"","image-keyboard-response","316","206577","0.0-316.0","38SKSKU7R2JZIINDRYF7TGHVR8ZILQ","A1CN1H9UODZ1E6","3BDORL6HKKZHMTYWD6BFF6WBDQ9CRF","","1183","img/land3.png","76","1184","3","1","3","1","1,0.5,0.5,0.5,1,0.5,0.5,0.5,1","1,0.5,0.5,0.5,1,0.5,0.5,0.5,1","1","",""
"","html-keyboard-response","317","206885","0.0-317.0","38SKSKU7R2JZIINDRYF7TGHVR8ZILQ","A1CN1H9UODZ1E6","3BDORL6HKKZHMTYWD6BFF6WBDQ9CRF","","null","<img src=""img/land3.png"" style=""width:200px; border:14px solid green;"">","null","","","","","","","","","",""
"","image-keyboard-response","318","207706","0.0-318.0","38SKSKU7R2JZIINDRYF7TGHVR8ZILQ","A1CN1H9UODZ1E6","3BDORL6HKKZHMTYWD6BFF6WBDQ9CRF","","820","img/land3.png","76","821","3","1","3","1","1,0.5,0.5,0.5,1,0.5,0.5,0.5,1","1,0.5,0.5,0.5,1,0.5,0.5,0.5,1","1","",""
"","html-keyboard-response","319","208009","0.0-319.0","38SKSKU7R2JZIINDRYF7TGHVR8ZILQ","A1CN1H9UODZ1E6","3BDORL6HKKZHMTYWD6BFF6WBDQ9CRF","","null","<img src=""img/land3.png"" style=""width:200px; border:14px solid green;"">","null","","","","","","","","","",""
"","image-keyboard-response","320","209202","0.0-320.0","38SKSKU7R2JZIINDRYF7TGHVR8ZILQ","A1CN1H9UODZ1E6","3BDORL6HKKZHMTYWD6BFF6WBDQ9CRF","","1192","img/land5.png","76","1193","3","0","1","1","1,0.5,0.5,0.5,1,0.5,0.5,0.5,1","1,0.5,0.5,0.5,1,0.5,0.5,0.5,1","1","",""
"","html-keyboard-response","321","209508","0.0-321.0","38SKSKU7R2JZIINDRYF7TGHVR8ZILQ","A1CN1H9UODZ1E6","3BDORL6HKKZHMTYWD6BFF6WBDQ9CRF","","null","<img src=""img/land5.png"" style=""width:200px;border:14px solid red;"">","null","","","","","","","","","",""
"","image-keyboard-response","322","210265","0.0-322.0","38SKSKU7R2JZIINDRYF7TGHVR8ZILQ","A1CN1H9UODZ1E6","3BDORL6HKKZHMTYWD6BFF6WBDQ9CRF","","757","img/land5.png","75","757","2","1","1","1","1,0.5,0.5,0.5,1,0.5,0.5,0.5,1","1,0.5,0.5,0.5,1,0.5,0.5,0.5,1","1","",""
"","html-keyboard-response","323","210568","0.0-323.0","38SKSKU7R2JZIINDRYF7TGHVR8ZILQ","A1CN1H9UODZ1E6","3BDORL6HKKZHMTYWD6BFF6WBDQ9CRF","","null","<img src=""img/land5.png"" style=""width:200px; border:14px solid green;"">","null","","","","","","","","","",""
"","image-keyboard-response","324","211480","0.0-324.0","38SKSKU7R2JZIINDRYF7TGHVR8ZILQ","A1CN1H9UODZ1E6","3BDORL6HKKZHMTYWD6BFF6WBDQ9CRF","","911","img/land3.png","76","911","3","1","3","1","1,0.5,0.5,0.5,1,0.5,0.5,0.5,1","1,0.5,0.5,0.5,1,0.5,0.5,0.5,1","1","",""
"","html-keyboard-response","325","211784","0.0-325.0","38SKSKU7R2JZIINDRYF7TGHVR8ZILQ","A1CN1H9UODZ1E6","3BDORL6HKKZHMTYWD6BFF6WBDQ9CRF","","null","<img src=""img/land3.png"" style=""width:200px; border:14px solid green;"">","null","","","","","","","","","",""
"","image-keyboard-response","326","212855","0.0-326.0","38SKSKU7R2JZIINDRYF7TGHVR8ZILQ","A1CN1H9UODZ1E6","3BDORL6HKKZHMTYWD6BFF6WBDQ9CRF","","1068","img/land4.png","74","1070","1","0","2","1","1,0.5,0.5,0.5,1,0.5,0.5,0.5,1","1,0.5,0.5,0.5,1,0.5,0.5,0.5,1","1","",""
"","html-keyboard-response","327","213168","0.0-327.0","38SKSKU7R2JZIINDRYF7TGHVR8ZILQ","A1CN1H9UODZ1E6","3BDORL6HKKZHMTYWD6BFF6WBDQ9CRF","","null","<img src=""img/land4.png"" style=""width:200px;border:14px solid red;"">","null","","","","","","","","","",""
"","image-keyboard-response","328","213992","0.0-328.0","38SKSKU7R2JZIINDRYF7TGHVR8ZILQ","A1CN1H9UODZ1E6","3BDORL6HKKZHMTYWD6BFF6WBDQ9CRF","","823","img/land4.png","75","825","2","1","2","1","1,0.5,0.5,0.5,1,0.5,0.5,0.5,1","1,0.5,0.5,0.5,1,0.5,0.5,0.5,1","1","",""
"","html-keyboard-response","329","214294","0.0-329.0","38SKSKU7R2JZIINDRYF7TGHVR8ZILQ","A1CN1H9UODZ1E6","3BDORL6HKKZHMTYWD6BFF6WBDQ9CRF","","null","<img src=""img/land4.png"" style=""width:200px; border:14px solid green;"">","null","","","","","","","","","",""
"","image-keyboard-response","330","215301","0.0-330.0","38SKSKU7R2JZIINDRYF7TGHVR8ZILQ","A1CN1H9UODZ1E6","3BDORL6HKKZHMTYWD6BFF6WBDQ9CRF","","1006","img/land3.png","76","1007","3","1","3","1","1,0.5,0.5,0.5,1,0.5,0.5,0.5,1","1,0.5,0.5,0.5,1,0.5,0.5,0.5,1","1","",""
"","html-keyboard-response","331","215603","0.0-331.0","38SKSKU7R2JZIINDRYF7TGHVR8ZILQ","A1CN1H9UODZ1E6","3BDORL6HKKZHMTYWD6BFF6WBDQ9CRF","","null","<img src=""img/land3.png"" style=""width:200px; border:14px solid green;"">","null","","","","","","","","","",""
"","image-keyboard-response","332","216846","0.0-332.0","38SKSKU7R2JZIINDRYF7TGHVR8ZILQ","A1CN1H9UODZ1E6","3BDORL6HKKZHMTYWD6BFF6WBDQ9CRF","","1242","img/land5.png","74","1243","1","1","1","1","1,0.5,0.5,0.5,1,0.5,0.5,0.5,1","1,0.5,0.5,0.5,1,0.5,0.5,0.5,1","1","",""
"","html-keyboard-response","333","217151","0.0-333.0","38SKSKU7R2JZIINDRYF7TGHVR8ZILQ","A1CN1H9UODZ1E6","3BDORL6HKKZHMTYWD6BFF6WBDQ9CRF","","null","<img src=""img/land5.png"" style=""width:200px; border:14px solid green;"">","null","","","","","","","","","",""
"","image-keyboard-response","334","217956","0.0-334.0","38SKSKU7R2JZIINDRYF7TGHVR8ZILQ","A1CN1H9UODZ1E6","3BDORL6HKKZHMTYWD6BFF6WBDQ9CRF","","804","img/land5.png","74","805","1","1","1","1","1,0.5,0.5,0.5,1,0.5,0.5,0.5,1","1,0.5,0.5,0.5,1,0.5,0.5,0.5,1","1","",""
"","html-keyboard-response","335","218262","0.0-335.0","38SKSKU7R2JZIINDRYF7TGHVR8ZILQ","A1CN1H9UODZ1E6","3BDORL6HKKZHMTYWD6BFF6WBDQ9CRF","","null","<img src=""img/land5.png"" style=""width:200px; border:14px solid green;"">","null","","","","","","","","","",""
"","image-keyboard-response","336","219368","0.0-336.0","38SKSKU7R2JZIINDRYF7TGHVR8ZILQ","A1CN1H9UODZ1E6","3BDORL6HKKZHMTYWD6BFF6WBDQ9CRF","","1104","img/land4.png","75","1105","2","1","2","1","1,0.5,0.5,0.5,1,0.5,0.5,0.5,1","1,0.5,0.5,0.5,1,0.5,0.5,0.5,1","1","",""
"","html-keyboard-response","337","219670","0.0-337.0","38SKSKU7R2JZIINDRYF7TGHVR8ZILQ","A1CN1H9UODZ1E6","3BDORL6HKKZHMTYWD6BFF6WBDQ9CRF","","null","<img src=""img/land4.png"" style=""width:200px; border:14px solid green;"">","null","","","","","","","","","",""
"","image-keyboard-response","338","221299","0.0-338.0","38SKSKU7R2JZIINDRYF7TGHVR8ZILQ","A1CN1H9UODZ1E6","3BDORL6HKKZHMTYWD6BFF6WBDQ9CRF","","1629","img/land3.png","76","1629","3","1","3","1","1,0.5,0.5,0.5,1,0.5,0.5,0.5,1","1,0.5,0.5,0.5,1,0.5,0.5,0.5,1","1","",""
"","html-keyboard-response","339","221600","0.0-339.0","38SKSKU7R2JZIINDRYF7TGHVR8ZILQ","A1CN1H9UODZ1E6","3BDORL6HKKZHMTYWD6BFF6WBDQ9CRF","","null","<img src=""img/land3.png"" style=""width:200px; border:14px solid green;"">","null","","","","","","","","","",""
"","image-keyboard-response","340","222410","0.0-340.0","38SKSKU7R2JZIINDRYF7TGHVR8ZILQ","A1CN1H9UODZ1E6","3BDORL6HKKZHMTYWD6BFF6WBDQ9CRF","","805","img/land3.png","76","810","3","1","3","1","1,0.5,0.5,0.5,1,0.5,0.5,0.5,1","1,0.5,0.5,0.5,1,0.5,0.5,0.5,1","1","",""
"","html-keyboard-response","341","222715","0.0-341.0","38SKSKU7R2JZIINDRYF7TGHVR8ZILQ","A1CN1H9UODZ1E6","3BDORL6HKKZHMTYWD6BFF6WBDQ9CRF","","null","<img src=""img/land3.png"" style=""width:200px; border:14px solid green;"">","null","","","","","","","","","",""
"","image-keyboard-response","342","223809","0.0-342.0","38SKSKU7R2JZIINDRYF7TGHVR8ZILQ","A1CN1H9UODZ1E6","3BDORL6HKKZHMTYWD6BFF6WBDQ9CRF","","1093","img/land4.png","76","1093","3","0","2","1","1,0.5,0.5,0.5,1,0.5,0.5,0.5,1","1,0.5,0.5,0.5,1,0.5,0.5,0.5,1","1","",""
"","html-keyboard-response","343","224114","0.0-343.0","38SKSKU7R2JZIINDRYF7TGHVR8ZILQ","A1CN1H9UODZ1E6","3BDORL6HKKZHMTYWD6BFF6WBDQ9CRF","","null","<img src=""img/land4.png"" style=""width:200px;border:14px solid red;"">","null","","","","","","","","","",""
"","image-keyboard-response","344","225139","0.0-344.0","38SKSKU7R2JZIINDRYF7TGHVR8ZILQ","A1CN1H9UODZ1E6","3BDORL6HKKZHMTYWD6BFF6WBDQ9CRF","","1024","img/land5.png","74","1026","1","1","1","1","1,0.5,0.5,0.5,1,0.5,0.5,0.5,1","1,0.5,0.5,0.5,1,0.5,0.5,0.5,1","1","",""
"","html-keyboard-response","345","225445","0.0-345.0","38SKSKU7R2JZIINDRYF7TGHVR8ZILQ","A1CN1H9UODZ1E6","3BDORL6HKKZHMTYWD6BFF6WBDQ9CRF","","null","<img src=""img/land5.png"" style=""width:200px; border:14px solid green;"">","null","","","","","","","","","",""
"","image-keyboard-response","346","226193","0.0-346.0","38SKSKU7R2JZIINDRYF7TGHVR8ZILQ","A1CN1H9UODZ1E6","3BDORL6HKKZHMTYWD6BFF6WBDQ9CRF","","744","img/land5.png","74","748","1","1","1","1","1,0.5,0.5,0.5,1,0.5,0.5,0.5,1","1,0.5,0.5,0.5,1,0.5,0.5,0.5,1","1","",""
"","html-keyboard-response","347","226495","0.0-347.0","38SKSKU7R2JZIINDRYF7TGHVR8ZILQ","A1CN1H9UODZ1E6","3BDORL6HKKZHMTYWD6BFF6WBDQ9CRF","","null","<img src=""img/land5.png"" style=""width:200px; border:14px solid green;"">","null","","","","","","","","","",""
"","image-keyboard-response","348","227423","0.0-348.0","38SKSKU7R2JZIINDRYF7TGHVR8ZILQ","A1CN1H9UODZ1E6","3BDORL6HKKZHMTYWD6BFF6WBDQ9CRF","","927","img/land4.png","75","927","2","1","2","1","1,0.5,0.5,0.5,1,0.5,0.5,0.5,1","1,0.5,0.5,0.5,1,0.5,0.5,0.5,1","1","",""
"","html-keyboard-response","349","227726","0.0-349.0","38SKSKU7R2JZIINDRYF7TGHVR8ZILQ","A1CN1H9UODZ1E6","3BDORL6HKKZHMTYWD6BFF6WBDQ9CRF","","null","<img src=""img/land4.png"" style=""width:200px; border:14px solid green;"">","null","","","","","","","","","",""
"","image-keyboard-response","350","228739","0.0-350.0","38SKSKU7R2JZIINDRYF7TGHVR8ZILQ","A1CN1H9UODZ1E6","3BDORL6HKKZHMTYWD6BFF6WBDQ9CRF","","1012","img/land5.png","74","1013","1","1","1","1","1,0.5,0.5,0.5,1,0.5,0.5,0.5,1","1,0.5,0.5,0.5,1,0.5,0.5,0.5,1","1","",""
"","html-keyboard-response","351","229046","0.0-351.0","38SKSKU7R2JZIINDRYF7TGHVR8ZILQ","A1CN1H9UODZ1E6","3BDORL6HKKZHMTYWD6BFF6WBDQ9CRF","","null","<img src=""img/land5.png"" style=""width:200px; border:14px solid green;"">","null","","","","","","","","","",""
"","image-keyboard-response","352","229862","0.0-352.0","38SKSKU7R2JZIINDRYF7TGHVR8ZILQ","A1CN1H9UODZ1E6","3BDORL6HKKZHMTYWD6BFF6WBDQ9CRF","","816","img/land4.png","75","817","2","1","2","1","1,0.5,0.5,0.5,1,0.5,0.5,0.5,1","1,0.5,0.5,0.5,1,0.5,0.5,0.5,1","1","",""
"","html-keyboard-response","353","230166","0.0-353.0","38SKSKU7R2JZIINDRYF7TGHVR8ZILQ","A1CN1H9UODZ1E6","3BDORL6HKKZHMTYWD6BFF6WBDQ9CRF","","null","<img src=""img/land4.png"" style=""width:200px; border:14px solid green;"">","null","","","","","","","","","",""
"","image-keyboard-response","354","231142","0.0-354.0","38SKSKU7R2JZIINDRYF7TGHVR8ZILQ","A1CN1H9UODZ1E6","3BDORL6HKKZHMTYWD6BFF6WBDQ9CRF","","975","img/land3.png","75","977","2","0","3","1","1,0.5,0.5,0.5,1,0.5,0.5,0.5,1","1,0.5,0.5,0.5,1,0.5,0.5,0.5,1","1","",""
"","html-keyboard-response","355","231447","0.0-355.0","38SKSKU7R2JZIINDRYF7TGHVR8ZILQ","A1CN1H9UODZ1E6","3BDORL6HKKZHMTYWD6BFF6WBDQ9CRF","","null","<img src=""img/land3.png"" style=""width:200px;border:14px solid red;"">","null","","","","","","","","","",""
"","image-keyboard-response","356","232326","0.0-356.0","38SKSKU7R2JZIINDRYF7TGHVR8ZILQ","A1CN1H9UODZ1E6","3BDORL6HKKZHMTYWD6BFF6WBDQ9CRF","","877","img/land4.png","76","879","3","1","2","1","1,0.5,0.5,0.5,1,0.5,0.5,0.5,1","1,0.5,0.5,0.5,1,0.5,0.5,0.5,1","1","",""
"","html-keyboard-response","357","232629","0.0-357.0","38SKSKU7R2JZIINDRYF7TGHVR8ZILQ","A1CN1H9UODZ1E6","3BDORL6HKKZHMTYWD6BFF6WBDQ9CRF","","null","<img src=""img/land4.png"" style=""width:200px; border:14px solid green;"">","null","","","","","","","","","",""
"","image-keyboard-response","358","234064","0.0-358.0","38SKSKU7R2JZIINDRYF7TGHVR8ZILQ","A1CN1H9UODZ1E6","3BDORL6HKKZHMTYWD6BFF6WBDQ9CRF","","1434","img/land3.png","76","1435","3","1","3","1","1,0.5,0.5,0.5,1,0.5,0.5,0.5,1","1,0.5,0.5,0.5,1,0.5,0.5,0.5,1","1","",""
"","html-keyboard-response","359","234366","0.0-359.0","38SKSKU7R2JZIINDRYF7TGHVR8ZILQ","A1CN1H9UODZ1E6","3BDORL6HKKZHMTYWD6BFF6WBDQ9CRF","","null","<img src=""img/land3.png"" style=""width:200px; border:14px solid green;"">","null","","","","","","","","","",""
"","image-keyboard-response","360","235288","0.0-360.0","38SKSKU7R2JZIINDRYF7TGHVR8ZILQ","A1CN1H9UODZ1E6","3BDORL6HKKZHMTYWD6BFF6WBDQ9CRF","","922","img/land3.png","76","923","3","1","3","1","1,0.5,0.5,0.5,1,0.5,0.5,0.5,1","1,0.5,0.5,0.5,1,0.5,0.5,0.5,1","1","",""
"","html-keyboard-response","361","235596","0.0-361.0","38SKSKU7R2JZIINDRYF7TGHVR8ZILQ","A1CN1H9UODZ1E6","3BDORL6HKKZHMTYWD6BFF6WBDQ9CRF","","null","<img src=""img/land3.png"" style=""width:200px; border:14px solid green;"">","null","","","","","","","","","",""
"","image-keyboard-response","362","236577","0.0-362.0","38SKSKU7R2JZIINDRYF7TGHVR8ZILQ","A1CN1H9UODZ1E6","3BDORL6HKKZHMTYWD6BFF6WBDQ9CRF","","980","img/land5.png","74","981","1","1","1","1","1,0.5,0.5,0.5,1,0.5,0.5,0.5,1","1,0.5,0.5,0.5,1,0.5,0.5,0.5,1","1","",""
"","html-keyboard-response","363","236887","0.0-363.0","38SKSKU7R2JZIINDRYF7TGHVR8ZILQ","A1CN1H9UODZ1E6","3BDORL6HKKZHMTYWD6BFF6WBDQ9CRF","","null","<img src=""img/land5.png"" style=""width:200px; border:14px solid green;"">","null","","","","","","","","","",""
"","image-keyboard-response","364","237852","0.0-364.0","38SKSKU7R2JZIINDRYF7TGHVR8ZILQ","A1CN1H9UODZ1E6","3BDORL6HKKZHMTYWD6BFF6WBDQ9CRF","","960","img/land3.png","76","961","3","1","3","1","1,0.5,0.5,0.5,1,0.5,0.5,0.5,1","1,0.5,0.5,0.5,1,0.5,0.5,0.5,1","1","",""
"","html-keyboard-response","365","238159","0.0-365.0","38SKSKU7R2JZIINDRYF7TGHVR8ZILQ","A1CN1H9UODZ1E6","3BDORL6HKKZHMTYWD6BFF6WBDQ9CRF","","null","<img src=""img/land3.png"" style=""width:200px; border:14px solid green;"">","null","","","","","","","","","",""
"","image-keyboard-response","366","239743","0.0-366.0","38SKSKU7R2JZIINDRYF7TGHVR8ZILQ","A1CN1H9UODZ1E6","3BDORL6HKKZHMTYWD6BFF6WBDQ9CRF","","1581","img/land5.png","74","1584","1","1","1","1","1,0.5,0.5,0.5,1,0.5,0.5,0.5,1","1,0.5,0.5,0.5,1,0.5,0.5,0.5,1","1","",""
"","html-keyboard-response","367","240044","0.0-367.0","38SKSKU7R2JZIINDRYF7TGHVR8ZILQ","A1CN1H9UODZ1E6","3BDORL6HKKZHMTYWD6BFF6WBDQ9CRF","","null","<img src=""img/land5.png"" style=""width:200px; border:14px solid green;"">","null","","","","","","","","","",""
"","image-keyboard-response","368","240854","0.0-368.0","38SKSKU7R2JZIINDRYF7TGHVR8ZILQ","A1CN1H9UODZ1E6","3BDORL6HKKZHMTYWD6BFF6WBDQ9CRF","","808","img/land5.png","74","810","1","1","1","1","1,0.5,0.5,0.5,1,0.5,0.5,0.5,1","1,0.5,0.5,0.5,1,0.5,0.5,0.5,1","1","",""
"","html-keyboard-response","369","241164","0.0-369.0","38SKSKU7R2JZIINDRYF7TGHVR8ZILQ","A1CN1H9UODZ1E6","3BDORL6HKKZHMTYWD6BFF6WBDQ9CRF","","null","<img src=""img/land5.png"" style=""width:200px; border:14px solid green;"">","null","","","","","","","","","",""
"","image-keyboard-response","370","241928","0.0-370.0","38SKSKU7R2JZIINDRYF7TGHVR8ZILQ","A1CN1H9UODZ1E6","3BDORL6HKKZHMTYWD6BFF6WBDQ9CRF","","764","img/land5.png","74","765","1","1","1","1","1,0.5,0.5,0.5,1,0.5,0.5,0.5,1","1,0.5,0.5,0.5,1,0.5,0.5,0.5,1","1","",""
"","html-keyboard-response","371","242234","0.0-371.0","38SKSKU7R2JZIINDRYF7TGHVR8ZILQ","A1CN1H9UODZ1E6","3BDORL6HKKZHMTYWD6BFF6WBDQ9CRF","","null","<img src=""img/land5.png"" style=""width:200px; border:14px solid green;"">","null","","","","","","","","","",""
"","image-keyboard-response","372","243474","0.0-372.0","38SKSKU7R2JZIINDRYF7TGHVR8ZILQ","A1CN1H9UODZ1E6","3BDORL6HKKZHMTYWD6BFF6WBDQ9CRF","","1239","img/land3.png","76","1241","3","1","3","1","1,0.5,0.5,0.5,1,0.5,0.5,0.5,1","1,0.5,0.5,0.5,1,0.5,0.5,0.5,1","1","",""
"","html-keyboard-response","373","243777","0.0-373.0","38SKSKU7R2JZIINDRYF7TGHVR8ZILQ","A1CN1H9UODZ1E6","3BDORL6HKKZHMTYWD6BFF6WBDQ9CRF","","null","<img src=""img/land3.png"" style=""width:200px; border:14px solid green;"">","null","","","","","","","","","",""
"","image-keyboard-response","374","245035","0.0-374.0","38SKSKU7R2JZIINDRYF7TGHVR8ZILQ","A1CN1H9UODZ1E6","3BDORL6HKKZHMTYWD6BFF6WBDQ9CRF","","1255","img/land4.png","75","1257","2","1","2","1","1,0.5,0.5,0.5,1,0.5,0.5,0.5,1","1,0.5,0.5,0.5,1,0.5,0.5,0.5,1","1","",""
"","html-keyboard-response","375","245343","0.0-375.0","38SKSKU7R2JZIINDRYF7TGHVR8ZILQ","A1CN1H9UODZ1E6","3BDORL6HKKZHMTYWD6BFF6WBDQ9CRF","","null","<img src=""img/land4.png"" style=""width:200px; border:14px solid green;"">","null","","","","","","","","","",""
"","image-keyboard-response","376","246191","0.0-376.0","38SKSKU7R2JZIINDRYF7TGHVR8ZILQ","A1CN1H9UODZ1E6","3BDORL6HKKZHMTYWD6BFF6WBDQ9CRF","","846","img/land4.png","75","848","2","1","2","1","1,0.5,0.5,0.5,1,0.5,0.5,0.5,1","1,0.5,0.5,0.5,1,0.5,0.5,0.5,1","1","",""
"","html-keyboard-response","377","246499","0.0-377.0","38SKSKU7R2JZIINDRYF7TGHVR8ZILQ","A1CN1H9UODZ1E6","3BDORL6HKKZHMTYWD6BFF6WBDQ9CRF","","null","<img src=""img/land4.png"" style=""width:200px; border:14px solid green;"">","null","","","","","","","","","",""
