"success","trial_type","trial_index","time_elapsed","internal_node_id","assignmentID","mturkID","hitID","view_history","rt","stimulus","key_press","reactionTime","a","r","s","cond","reward_cond","reward_cond_actual","reward_matrix_idx","responses","question_order"
"true","fullscreen","0","290410","0.0-0.0","3ATPCQ38J9W4CZBEYPCK6QV8N6KYAY","A1DKR1102NZROG","3ZICQFRS3143WDVXF1P0C7ZVVO8ZZM","","","","","","","","","","","","","",""
"","instructions","1","322522","0.0-1.0","3ATPCQ38J9W4CZBEYPCK6QV8N6KYAY","A1DKR1102NZROG","3ZICQFRS3143WDVXF1P0C7ZVVO8ZZM","[{""page_index"":0,""viewing_time"":2247.4000000953674},{""page_index"":1,""viewing_time"":1173.5999999046326},{""page_index"":2,""viewing_time"":1407.6000000238419},{""page_index"":3,""viewing_time"":11631.600000023842},{""page_index"":4,""viewing_time"":8055.299999952316},{""page_index"":5,""viewing_time"":5568.200000047684},{""page_index"":6,""viewing_time"":2023.7999999523163}]","32108.600000023842","","","","","","","","","","","",""
"","image-keyboard-response","2","324027","0.0-2.0","3ATPCQ38J9W4CZBEYPCK6QV8N6KYAY","A1DKR1102NZROG","3ZICQFRS3143WDVXF1P0C7ZVVO8ZZM","","","img/land3.png","","1504.6000000238419","-1","0","3","2","1,0.5,0.5,0.5,1,0.5,0.5,0.5,1","1,0.5,0.5,0.5,1,0.5,0.5,0.5,1","","",""
"","html-keyboard-response","3","324347","0.0-3.0","3ATPCQ38J9W4CZBEYPCK6QV8N6KYAY","A1DKR1102NZROG","3ZICQFRS3143WDVXF1P0C7ZVVO8ZZM","","null","<img src=""img/land3.png"" style=""width:200px;border:14px solid red;"">","null","","","","","","","","","",""
"","image-keyboard-response","4","324585","0.0-4.0","3ATPCQ38J9W4CZBEYPCK6QV8N6KYAY","A1DKR1102NZROG","3ZICQFRS3143WDVXF1P0C7ZVVO8ZZM","","234.89999997615814","img/land3.png","74","237.09999990463257","1","0","3","2","1,0.5,0.5,0.5,1,0.5,0.5,0.5,1","1,0.5,0.5,0.5,1,0.5,0.5,0.5,1","","",""
"","html-keyboard-response","5","324889","0.0-5.0","3ATPCQ38J9W4CZBEYPCK6QV8N6KYAY","A1DKR1102NZROG","3ZICQFRS3143WDVXF1P0C7ZVVO8ZZM","","null","<img src=""img/land3.png"" style=""width:200px;border:14px solid red;"">","null","","","","","","","","","",""
"","image-keyboard-response","6","325151","0.0-6.0","3ATPCQ38J9W4CZBEYPCK6QV8N6KYAY","A1DKR1102NZROG","3ZICQFRS3143WDVXF1P0C7ZVVO8ZZM","","259.5","img/land2.png","75","260.89999997615814","2","1","2","2","1,0.5,0.5,0.5,1,0.5,0.5,0.5,1","1,0.5,0.5,0.5,1,0.5,0.5,0.5,1","","",""
"","html-keyboard-response","7","325455","0.0-7.0","3ATPCQ38J9W4CZBEYPCK6QV8N6KYAY","A1DKR1102NZROG","3ZICQFRS3143WDVXF1P0C7ZVVO8ZZM","","null","<img src=""img/land2.png"" style=""width:200px; border:14px solid green;"">","null","","","","","","","","","",""
"","image-keyboard-response","8","325883","0.0-8.0","3ATPCQ38J9W4CZBEYPCK6QV8N6KYAY","A1DKR1102NZROG","3ZICQFRS3143WDVXF1P0C7ZVVO8ZZM","","425.2999999523163","img/land2.png","75","427.2999999523163","2","1","2","2","1,0.5,0.5,0.5,1,0.5,0.5,0.5,1","1,0.5,0.5,0.5,1,0.5,0.5,0.5,1","","",""
"","html-keyboard-response","9","326197","0.0-9.0","3ATPCQ38J9W4CZBEYPCK6QV8N6KYAY","A1DKR1102NZROG","3ZICQFRS3143WDVXF1P0C7ZVVO8ZZM","","null","<img src=""img/land2.png"" style=""width:200px; border:14px solid green;"">","null","","","","","","","","","",""
"","image-keyboard-response","10","326334","0.0-10.0","3ATPCQ38J9W4CZBEYPCK6QV8N6KYAY","A1DKR1102NZROG","3ZICQFRS3143WDVXF1P0C7ZVVO8ZZM","","134.60000002384186","img/land2.png","75","136.39999997615814","2","1","2","2","1,0.5,0.5,0.5,1,0.5,0.5,0.5,1","1,0.5,0.5,0.5,1,0.5,0.5,0.5,1","","",""
"","html-keyboard-response","11","326643","0.0-11.0","3ATPCQ38J9W4CZBEYPCK6QV8N6KYAY","A1DKR1102NZROG","3ZICQFRS3143WDVXF1P0C7ZVVO8ZZM","","null","<img src=""img/land2.png"" style=""width:200px; border:14px solid green;"">","null","","","","","","","","","",""
"","image-keyboard-response","12","326663","0.0-12.0","3ATPCQ38J9W4CZBEYPCK6QV8N6KYAY","A1DKR1102NZROG","3ZICQFRS3143WDVXF1P0C7ZVVO8ZZM","","18","img/land2.png","75","19.59999990463257","2","1","2","2","1,0.5,0.5,0.5,1,0.5,0.5,0.5,1","1,0.5,0.5,0.5,1,0.5,0.5,0.5,1","","",""
"","html-keyboard-response","13","326974","0.0-13.0","3ATPCQ38J9W4CZBEYPCK6QV8N6KYAY","A1DKR1102NZROG","3ZICQFRS3143WDVXF1P0C7ZVVO8ZZM","","null","<img src=""img/land2.png"" style=""width:200px; border:14px solid green;"">","null","","","","","","","","","",""
"","image-keyboard-response","14","327066","0.0-14.0","3ATPCQ38J9W4CZBEYPCK6QV8N6KYAY","A1DKR1102NZROG","3ZICQFRS3143WDVXF1P0C7ZVVO8ZZM","","89.89999997615814","img/land2.png","75","91.90000009536743","2","1","2","2","1,0.5,0.5,0.5,1,0.5,0.5,0.5,1","1,0.5,0.5,0.5,1,0.5,0.5,0.5,1","","",""
"","html-keyboard-response","15","327371","0.0-15.0","3ATPCQ38J9W4CZBEYPCK6QV8N6KYAY","A1DKR1102NZROG","3ZICQFRS3143WDVXF1P0C7ZVVO8ZZM","","null","<img src=""img/land2.png"" style=""width:200px; border:14px solid green;"">","null","","","","","","","","","",""
"","image-keyboard-response","16","327630","0.0-16.0","3ATPCQ38J9W4CZBEYPCK6QV8N6KYAY","A1DKR1102NZROG","3ZICQFRS3143WDVXF1P0C7ZVVO8ZZM","","256.1999999284744","img/land2.png","75","258.3000000715256","2","1","2","2","1,0.5,0.5,0.5,1,0.5,0.5,0.5,1","1,0.5,0.5,0.5,1,0.5,0.5,0.5,1","","",""
"","html-keyboard-response","17","327943","0.0-17.0","3ATPCQ38J9W4CZBEYPCK6QV8N6KYAY","A1DKR1102NZROG","3ZICQFRS3143WDVXF1P0C7ZVVO8ZZM","","null","<img src=""img/land2.png"" style=""width:200px; border:14px solid green;"">","null","","","","","","","","","",""
"","image-keyboard-response","18","328008","0.0-18.0","3ATPCQ38J9W4CZBEYPCK6QV8N6KYAY","A1DKR1102NZROG","3ZICQFRS3143WDVXF1P0C7ZVVO8ZZM","","64","img/land1.png","75","65.10000002384186","2","0","1","2","1,0.5,0.5,0.5,1,0.5,0.5,0.5,1","1,0.5,0.5,0.5,1,0.5,0.5,0.5,1","","",""
"","html-keyboard-response","19","328319","0.0-19.0","3ATPCQ38J9W4CZBEYPCK6QV8N6KYAY","A1DKR1102NZROG","3ZICQFRS3143WDVXF1P0C7ZVVO8ZZM","","null","<img src=""img/land1.png"" style=""width:200px;border:14px solid red;"">","null","","","","","","","","","",""
"","image-keyboard-response","20","328832","0.0-20.0","3ATPCQ38J9W4CZBEYPCK6QV8N6KYAY","A1DKR1102NZROG","3ZICQFRS3143WDVXF1P0C7ZVVO8ZZM","","510.8000000715256","img/land3.png","74","512.7999999523163","1","0","3","2","1,0.5,0.5,0.5,1,0.5,0.5,0.5,1","1,0.5,0.5,0.5,1,0.5,0.5,0.5,1","","",""
"","html-keyboard-response","21","329142","0.0-21.0","3ATPCQ38J9W4CZBEYPCK6QV8N6KYAY","A1DKR1102NZROG","3ZICQFRS3143WDVXF1P0C7ZVVO8ZZM","","null","<img src=""img/land3.png"" style=""width:200px;border:14px solid red;"">","null","","","","","","","","","",""
"","image-keyboard-response","22","329303","0.0-22.0","3ATPCQ38J9W4CZBEYPCK6QV8N6KYAY","A1DKR1102NZROG","3ZICQFRS3143WDVXF1P0C7ZVVO8ZZM","","158","img/land2.png","74","160","1","1","2","2","1,0.5,0.5,0.5,1,0.5,0.5,0.5,1","1,0.5,0.5,0.5,1,0.5,0.5,0.5,1","","",""
"","html-keyboard-response","23","329613","0.0-23.0","3ATPCQ38J9W4CZBEYPCK6QV8N6KYAY","A1DKR1102NZROG","3ZICQFRS3143WDVXF1P0C7ZVVO8ZZM","","null","<img src=""img/land2.png"" style=""width:200px; border:14px solid green;"">","null","","","","","","","","","",""
"","image-keyboard-response","24","329813","0.0-24.0","3ATPCQ38J9W4CZBEYPCK6QV8N6KYAY","A1DKR1102NZROG","3ZICQFRS3143WDVXF1P0C7ZVVO8ZZM","","197.29999995231628","img/land2.png","75","199.30000007152557","2","1","2","2","1,0.5,0.5,0.5,1,0.5,0.5,0.5,1","1,0.5,0.5,0.5,1,0.5,0.5,0.5,1","","",""
"","html-keyboard-response","25","330124","0.0-25.0","3ATPCQ38J9W4CZBEYPCK6QV8N6KYAY","A1DKR1102NZROG","3ZICQFRS3143WDVXF1P0C7ZVVO8ZZM","","null","<img src=""img/land2.png"" style=""width:200px; border:14px solid green;"">","null","","","","","","","","","",""
"","image-keyboard-response","26","330160","0.0-26.0","3ATPCQ38J9W4CZBEYPCK6QV8N6KYAY","A1DKR1102NZROG","3ZICQFRS3143WDVXF1P0C7ZVVO8ZZM","","34.200000047683716","img/land2.png","74","35.39999997615814","1","1","2","2","1,0.5,0.5,0.5,1,0.5,0.5,0.5,1","1,0.5,0.5,0.5,1,0.5,0.5,0.5,1","","",""
"","html-keyboard-response","27","330462","0.0-27.0","3ATPCQ38J9W4CZBEYPCK6QV8N6KYAY","A1DKR1102NZROG","3ZICQFRS3143WDVXF1P0C7ZVVO8ZZM","","null","<img src=""img/land2.png"" style=""width:200px; border:14px solid green;"">","null","","","","","","","","","",""
"","image-keyboard-response","28","330923","0.0-28.0","3ATPCQ38J9W4CZBEYPCK6QV8N6KYAY","A1DKR1102NZROG","3ZICQFRS3143WDVXF1P0C7ZVVO8ZZM","","458.7999999523163","img/land2.png","74","461","1","0","2","2","1,0.5,0.5,0.5,1,0.5,0.5,0.5,1","1,0.5,0.5,0.5,1,0.5,0.5,0.5,1","","",""
"","html-keyboard-response","29","331225","0.0-29.0","3ATPCQ38J9W4CZBEYPCK6QV8N6KYAY","A1DKR1102NZROG","3ZICQFRS3143WDVXF1P0C7ZVVO8ZZM","","null","<img src=""img/land2.png"" style=""width:200px;border:14px solid red;"">","null","","","","","","","","","",""
"","image-keyboard-response","30","331689","0.0-30.0","3ATPCQ38J9W4CZBEYPCK6QV8N6KYAY","A1DKR1102NZROG","3ZICQFRS3143WDVXF1P0C7ZVVO8ZZM","","462.1999999284744","img/land2.png","75","463.3000000715256","2","1","2","2","1,0.5,0.5,0.5,1,0.5,0.5,0.5,1","1,0.5,0.5,0.5,1,0.5,0.5,0.5,1","","",""
"","html-keyboard-response","31","332000","0.0-31.0","3ATPCQ38J9W4CZBEYPCK6QV8N6KYAY","A1DKR1102NZROG","3ZICQFRS3143WDVXF1P0C7ZVVO8ZZM","","null","<img src=""img/land2.png"" style=""width:200px; border:14px solid green;"">","null","","","","","","","","","",""
"","image-keyboard-response","32","332026","0.0-32.0","3ATPCQ38J9W4CZBEYPCK6QV8N6KYAY","A1DKR1102NZROG","3ZICQFRS3143WDVXF1P0C7ZVVO8ZZM","","23.100000023841858","img/land2.png","75","24.700000047683716","2","1","2","2","1,0.5,0.5,0.5,1,0.5,0.5,0.5,1","1,0.5,0.5,0.5,1,0.5,0.5,0.5,1","","",""
"","html-keyboard-response","33","332329","0.0-33.0","3ATPCQ38J9W4CZBEYPCK6QV8N6KYAY","A1DKR1102NZROG","3ZICQFRS3143WDVXF1P0C7ZVVO8ZZM","","null","<img src=""img/land2.png"" style=""width:200px; border:14px solid green;"">","null","","","","","","","","","",""
"","image-keyboard-response","34","332436","0.0-34.0","3ATPCQ38J9W4CZBEYPCK6QV8N6KYAY","A1DKR1102NZROG","3ZICQFRS3143WDVXF1P0C7ZVVO8ZZM","","105.80000007152557","img/land1.png","75","107.29999995231628","2","0","1","2","1,0.5,0.5,0.5,1,0.5,0.5,0.5,1","1,0.5,0.5,0.5,1,0.5,0.5,0.5,1","","",""
"","html-keyboard-response","35","332741","0.0-35.0","3ATPCQ38J9W4CZBEYPCK6QV8N6KYAY","A1DKR1102NZROG","3ZICQFRS3143WDVXF1P0C7ZVVO8ZZM","","null","<img src=""img/land1.png"" style=""width:200px;border:14px solid red;"">","null","","","","","","","","","",""
"","image-keyboard-response","36","332872","0.0-36.0","3ATPCQ38J9W4CZBEYPCK6QV8N6KYAY","A1DKR1102NZROG","3ZICQFRS3143WDVXF1P0C7ZVVO8ZZM","","128.80000007152557","img/land3.png","74","130.89999997615814","1","0","3","2","1,0.5,0.5,0.5,1,0.5,0.5,0.5,1","1,0.5,0.5,0.5,1,0.5,0.5,0.5,1","","",""
"","html-keyboard-response","37","333177","0.0-37.0","3ATPCQ38J9W4CZBEYPCK6QV8N6KYAY","A1DKR1102NZROG","3ZICQFRS3143WDVXF1P0C7ZVVO8ZZM","","null","<img src=""img/land3.png"" style=""width:200px;border:14px solid red;"">","null","","","","","","","","","",""
"","image-keyboard-response","38","333373","0.0-38.0","3ATPCQ38J9W4CZBEYPCK6QV8N6KYAY","A1DKR1102NZROG","3ZICQFRS3143WDVXF1P0C7ZVVO8ZZM","","193.60000002384186","img/land2.png","75","195.60000002384186","2","1","2","2","1,0.5,0.5,0.5,1,0.5,0.5,0.5,1","1,0.5,0.5,0.5,1,0.5,0.5,0.5,1","","",""
"","html-keyboard-response","39","333680","0.0-39.0","3ATPCQ38J9W4CZBEYPCK6QV8N6KYAY","A1DKR1102NZROG","3ZICQFRS3143WDVXF1P0C7ZVVO8ZZM","","null","<img src=""img/land2.png"" style=""width:200px; border:14px solid green;"">","null","","","","","","","","","",""
"","image-keyboard-response","40","333972","0.0-40.0","3ATPCQ38J9W4CZBEYPCK6QV8N6KYAY","A1DKR1102NZROG","3ZICQFRS3143WDVXF1P0C7ZVVO8ZZM","","290.39999997615814","img/land2.png","76","292.10000002384186","3","0","2","2","1,0.5,0.5,0.5,1,0.5,0.5,0.5,1","1,0.5,0.5,0.5,1,0.5,0.5,0.5,1","","",""
"","html-keyboard-response","41","334282","0.0-41.0","3ATPCQ38J9W4CZBEYPCK6QV8N6KYAY","A1DKR1102NZROG","3ZICQFRS3143WDVXF1P0C7ZVVO8ZZM","","null","<img src=""img/land2.png"" style=""width:200px;border:14px solid red;"">","null","","","","","","","","","",""
"","image-keyboard-response","42","334508","0.0-42.0","3ATPCQ38J9W4CZBEYPCK6QV8N6KYAY","A1DKR1102NZROG","3ZICQFRS3143WDVXF1P0C7ZVVO8ZZM","","223.89999997615814","img/land3.png","75","226.10000002384186","2","0","3","2","1,0.5,0.5,0.5,1,0.5,0.5,0.5,1","1,0.5,0.5,0.5,1,0.5,0.5,0.5,1","","",""
"","html-keyboard-response","43","334819","0.0-43.0","3ATPCQ38J9W4CZBEYPCK6QV8N6KYAY","A1DKR1102NZROG","3ZICQFRS3143WDVXF1P0C7ZVVO8ZZM","","null","<img src=""img/land3.png"" style=""width:200px;border:14px solid red;"">","null","","","","","","","","","",""
"","image-keyboard-response","44","334935","0.0-44.0","3ATPCQ38J9W4CZBEYPCK6QV8N6KYAY","A1DKR1102NZROG","3ZICQFRS3143WDVXF1P0C7ZVVO8ZZM","","112.5","img/land1.png","75","114.80000007152557","2","1","1","2","1,0.5,0.5,0.5,1,0.5,0.5,0.5,1","1,0.5,0.5,0.5,1,0.5,0.5,0.5,1","","",""
"","html-keyboard-response","45","335241","0.0-45.0","3ATPCQ38J9W4CZBEYPCK6QV8N6KYAY","A1DKR1102NZROG","3ZICQFRS3143WDVXF1P0C7ZVVO8ZZM","","null","<img src=""img/land1.png"" style=""width:200px; border:14px solid green;"">","null","","","","","","","","","",""
"","image-keyboard-response","46","335406","0.0-46.0","3ATPCQ38J9W4CZBEYPCK6QV8N6KYAY","A1DKR1102NZROG","3ZICQFRS3143WDVXF1P0C7ZVVO8ZZM","","162.80000007152557","img/land3.png","76","164.40000009536743","3","1","3","2","1,0.5,0.5,0.5,1,0.5,0.5,0.5,1","1,0.5,0.5,0.5,1,0.5,0.5,0.5,1","","",""
"","html-keyboard-response","47","335711","0.0-47.0","3ATPCQ38J9W4CZBEYPCK6QV8N6KYAY","A1DKR1102NZROG","3ZICQFRS3143WDVXF1P0C7ZVVO8ZZM","","null","<img src=""img/land3.png"" style=""width:200px; border:14px solid green;"">","null","","","","","","","","","",""
"","image-keyboard-response","48","335853","0.0-48.0","3ATPCQ38J9W4CZBEYPCK6QV8N6KYAY","A1DKR1102NZROG","3ZICQFRS3143WDVXF1P0C7ZVVO8ZZM","","140.29999995231628","img/land3.png","74","141.5","1","0","3","2","1,0.5,0.5,0.5,1,0.5,0.5,0.5,1","1,0.5,0.5,0.5,1,0.5,0.5,0.5,1","","",""
"","html-keyboard-response","49","336159","0.0-49.0","3ATPCQ38J9W4CZBEYPCK6QV8N6KYAY","A1DKR1102NZROG","3ZICQFRS3143WDVXF1P0C7ZVVO8ZZM","","null","<img src=""img/land3.png"" style=""width:200px;border:14px solid red;"">","null","","","","","","","","","",""
"","image-keyboard-response","50","336212","0.0-50.0","3ATPCQ38J9W4CZBEYPCK6QV8N6KYAY","A1DKR1102NZROG","3ZICQFRS3143WDVXF1P0C7ZVVO8ZZM","","50.39999997615814","img/land2.png","76","52.299999952316284","3","1","2","2","1,0.5,0.5,0.5,1,0.5,0.5,0.5,1","1,0.5,0.5,0.5,1,0.5,0.5,0.5,1","","",""
"","html-keyboard-response","51","336519","0.0-51.0","3ATPCQ38J9W4CZBEYPCK6QV8N6KYAY","A1DKR1102NZROG","3ZICQFRS3143WDVXF1P0C7ZVVO8ZZM","","null","<img src=""img/land2.png"" style=""width:200px; border:14px solid green;"">","null","","","","","","","","","",""
"","image-keyboard-response","52","336628","0.0-52.0","3ATPCQ38J9W4CZBEYPCK6QV8N6KYAY","A1DKR1102NZROG","3ZICQFRS3143WDVXF1P0C7ZVVO8ZZM","","106.89999997615814","img/land2.png","75","108.69999992847443","2","1","2","2","1,0.5,0.5,0.5,1,0.5,0.5,0.5,1","1,0.5,0.5,0.5,1,0.5,0.5,0.5,1","","",""
"","html-keyboard-response","53","336938","0.0-53.0","3ATPCQ38J9W4CZBEYPCK6QV8N6KYAY","A1DKR1102NZROG","3ZICQFRS3143WDVXF1P0C7ZVVO8ZZM","","null","<img src=""img/land2.png"" style=""width:200px; border:14px solid green;"">","null","","","","","","","","","",""
"","image-keyboard-response","54","336958","0.0-54.0","3ATPCQ38J9W4CZBEYPCK6QV8N6KYAY","A1DKR1102NZROG","3ZICQFRS3143WDVXF1P0C7ZVVO8ZZM","","18","img/land1.png","75","19.800000071525574","2","0","1","2","1,0.5,0.5,0.5,1,0.5,0.5,0.5,1","1,0.5,0.5,0.5,1,0.5,0.5,0.5,1","","",""
"","html-keyboard-response","55","337262","0.0-55.0","3ATPCQ38J9W4CZBEYPCK6QV8N6KYAY","A1DKR1102NZROG","3ZICQFRS3143WDVXF1P0C7ZVVO8ZZM","","null","<img src=""img/land1.png"" style=""width:200px;border:14px solid red;"">","null","","","","","","","","","",""
"","image-keyboard-response","56","337310","0.0-56.0","3ATPCQ38J9W4CZBEYPCK6QV8N6KYAY","A1DKR1102NZROG","3ZICQFRS3143WDVXF1P0C7ZVVO8ZZM","","45.699999928474426","img/land3.png","75","47.700000047683716","2","0","3","2","1,0.5,0.5,0.5,1,0.5,0.5,0.5,1","1,0.5,0.5,0.5,1,0.5,0.5,0.5,1","","",""
"","html-keyboard-response","57","337617","0.0-57.0","3ATPCQ38J9W4CZBEYPCK6QV8N6KYAY","A1DKR1102NZROG","3ZICQFRS3143WDVXF1P0C7ZVVO8ZZM","","null","<img src=""img/land3.png"" style=""width:200px;border:14px solid red;"">","null","","","","","","","","","",""
"","image-keyboard-response","58","337744","0.0-58.0","3ATPCQ38J9W4CZBEYPCK6QV8N6KYAY","A1DKR1102NZROG","3ZICQFRS3143WDVXF1P0C7ZVVO8ZZM","","124.69999992847443","img/land2.png","74","126.5","1","0","2","2","1,0.5,0.5,0.5,1,0.5,0.5,0.5,1","1,0.5,0.5,0.5,1,0.5,0.5,0.5,1","","",""
"","html-keyboard-response","59","338051","0.0-59.0","3ATPCQ38J9W4CZBEYPCK6QV8N6KYAY","A1DKR1102NZROG","3ZICQFRS3143WDVXF1P0C7ZVVO8ZZM","","null","<img src=""img/land2.png"" style=""width:200px;border:14px solid red;"">","null","","","","","","","","","",""
"","image-keyboard-response","60","338147","0.0-60.0","3ATPCQ38J9W4CZBEYPCK6QV8N6KYAY","A1DKR1102NZROG","3ZICQFRS3143WDVXF1P0C7ZVVO8ZZM","","93.19999992847443","img/land1.png","76","95.29999995231628","3","1","1","2","1,0.5,0.5,0.5,1,0.5,0.5,0.5,1","1,0.5,0.5,0.5,1,0.5,0.5,0.5,1","","",""
"","html-keyboard-response","61","338457","0.0-61.0","3ATPCQ38J9W4CZBEYPCK6QV8N6KYAY","A1DKR1102NZROG","3ZICQFRS3143WDVXF1P0C7ZVVO8ZZM","","null","<img src=""img/land1.png"" style=""width:200px; border:14px solid green;"">","null","","","","","","","","","",""
"","image-keyboard-response","62","338513","0.0-62.0","3ATPCQ38J9W4CZBEYPCK6QV8N6KYAY","A1DKR1102NZROG","3ZICQFRS3143WDVXF1P0C7ZVVO8ZZM","","53.799999952316284","img/land1.png","74","55.700000047683716","1","1","1","2","1,0.5,0.5,0.5,1,0.5,0.5,0.5,1","1,0.5,0.5,0.5,1,0.5,0.5,0.5,1","","",""
"","html-keyboard-response","63","338822","0.0-63.0","3ATPCQ38J9W4CZBEYPCK6QV8N6KYAY","A1DKR1102NZROG","3ZICQFRS3143WDVXF1P0C7ZVVO8ZZM","","null","<img src=""img/land1.png"" style=""width:200px; border:14px solid green;"">","null","","","","","","","","","",""
"","image-keyboard-response","64","338914","0.0-64.0","3ATPCQ38J9W4CZBEYPCK6QV8N6KYAY","A1DKR1102NZROG","3ZICQFRS3143WDVXF1P0C7ZVVO8ZZM","","89.60000002384186","img/land1.png","76","91.5","3","1","1","2","1,0.5,0.5,0.5,1,0.5,0.5,0.5,1","1,0.5,0.5,0.5,1,0.5,0.5,0.5,1","","",""
"","html-keyboard-response","65","339221","0.0-65.0","3ATPCQ38J9W4CZBEYPCK6QV8N6KYAY","A1DKR1102NZROG","3ZICQFRS3143WDVXF1P0C7ZVVO8ZZM","","null","<img src=""img/land1.png"" style=""width:200px; border:14px solid green;"">","null","","","","","","","","","",""
"","image-keyboard-response","66","339314","0.0-66.0","3ATPCQ38J9W4CZBEYPCK6QV8N6KYAY","A1DKR1102NZROG","3ZICQFRS3143WDVXF1P0C7ZVVO8ZZM","","90.40000009536743","img/land1.png","75","92.10000002384186","2","0","1","2","1,0.5,0.5,0.5,1,0.5,0.5,0.5,1","1,0.5,0.5,0.5,1,0.5,0.5,0.5,1","","",""
"","html-keyboard-response","67","339619","0.0-67.0","3ATPCQ38J9W4CZBEYPCK6QV8N6KYAY","A1DKR1102NZROG","3ZICQFRS3143WDVXF1P0C7ZVVO8ZZM","","null","<img src=""img/land1.png"" style=""width:200px;border:14px solid red;"">","null","","","","","","","","","",""
"","image-keyboard-response","68","340644","0.0-68.0","3ATPCQ38J9W4CZBEYPCK6QV8N6KYAY","A1DKR1102NZROG","3ZICQFRS3143WDVXF1P0C7ZVVO8ZZM","","1022.2000000476837","img/land1.png","76","1024.2999999523163","3","1","1","2","1,0.5,0.5,0.5,1,0.5,0.5,0.5,1","1,0.5,0.5,0.5,1,0.5,0.5,0.5,1","","",""
"","html-keyboard-response","69","340954","0.0-69.0","3ATPCQ38J9W4CZBEYPCK6QV8N6KYAY","A1DKR1102NZROG","3ZICQFRS3143WDVXF1P0C7ZVVO8ZZM","","null","<img src=""img/land1.png"" style=""width:200px; border:14px solid green;"">","null","","","","","","","","","",""
"","image-keyboard-response","70","340969","0.0-70.0","3ATPCQ38J9W4CZBEYPCK6QV8N6KYAY","A1DKR1102NZROG","3ZICQFRS3143WDVXF1P0C7ZVVO8ZZM","","12.5","img/land2.png","76","14","3","1","2","2","1,0.5,0.5,0.5,1,0.5,0.5,0.5,1","1,0.5,0.5,0.5,1,0.5,0.5,0.5,1","","",""
"","html-keyboard-response","71","341280","0.0-71.0","3ATPCQ38J9W4CZBEYPCK6QV8N6KYAY","A1DKR1102NZROG","3ZICQFRS3143WDVXF1P0C7ZVVO8ZZM","","null","<img src=""img/land2.png"" style=""width:200px; border:14px solid green;"">","null","","","","","","","","","",""
"","image-keyboard-response","72","341441","0.0-72.0","3ATPCQ38J9W4CZBEYPCK6QV8N6KYAY","A1DKR1102NZROG","3ZICQFRS3143WDVXF1P0C7ZVVO8ZZM","","159.79999995231628","img/land3.png","76","161.10000002384186","3","1","3","2","1,0.5,0.5,0.5,1,0.5,0.5,0.5,1","1,0.5,0.5,0.5,1,0.5,0.5,0.5,1","","",""
"","html-keyboard-response","73","341758","0.0-73.0","3ATPCQ38J9W4CZBEYPCK6QV8N6KYAY","A1DKR1102NZROG","3ZICQFRS3143WDVXF1P0C7ZVVO8ZZM","","null","<img src=""img/land3.png"" style=""width:200px; border:14px solid green;"">","null","","","","","","","","","",""
"","image-keyboard-response","74","341898","0.0-74.0","3ATPCQ38J9W4CZBEYPCK6QV8N6KYAY","A1DKR1102NZROG","3ZICQFRS3143WDVXF1P0C7ZVVO8ZZM","","138.10000002384186","img/land3.png","74","140","1","0","3","2","1,0.5,0.5,0.5,1,0.5,0.5,0.5,1","1,0.5,0.5,0.5,1,0.5,0.5,0.5,1","","",""
"","html-keyboard-response","75","342206","0.0-75.0","3ATPCQ38J9W4CZBEYPCK6QV8N6KYAY","A1DKR1102NZROG","3ZICQFRS3143WDVXF1P0C7ZVVO8ZZM","","null","<img src=""img/land3.png"" style=""width:200px;border:14px solid red;"">","null","","","","","","","","","",""
"","image-keyboard-response","76","342550","0.0-76.0","3ATPCQ38J9W4CZBEYPCK6QV8N6KYAY","A1DKR1102NZROG","3ZICQFRS3143WDVXF1P0C7ZVVO8ZZM","","341.60000002384186","img/land2.png","75","343.7000000476837","2","1","2","2","1,0.5,0.5,0.5,1,0.5,0.5,0.5,1","1,0.5,0.5,0.5,1,0.5,0.5,0.5,1","","",""
"","html-keyboard-response","77","342859","0.0-77.0","3ATPCQ38J9W4CZBEYPCK6QV8N6KYAY","A1DKR1102NZROG","3ZICQFRS3143WDVXF1P0C7ZVVO8ZZM","","null","<img src=""img/land2.png"" style=""width:200px; border:14px solid green;"">","null","","","","","","","","","",""
"","image-keyboard-response","78","343104","0.0-78.0","3ATPCQ38J9W4CZBEYPCK6QV8N6KYAY","A1DKR1102NZROG","3ZICQFRS3143WDVXF1P0C7ZVVO8ZZM","","243.10000002384186","img/land1.png","75","244.70000004768372","2","0","1","2","1,0.5,0.5,0.5,1,0.5,0.5,0.5,1","1,0.5,0.5,0.5,1,0.5,0.5,0.5,1","","",""
"","html-keyboard-response","79","343409","0.0-79.0","3ATPCQ38J9W4CZBEYPCK6QV8N6KYAY","A1DKR1102NZROG","3ZICQFRS3143WDVXF1P0C7ZVVO8ZZM","","null","<img src=""img/land1.png"" style=""width:200px;border:14px solid red;"">","null","","","","","","","","","",""
"","image-keyboard-response","80","343645","0.0-80.0","3ATPCQ38J9W4CZBEYPCK6QV8N6KYAY","A1DKR1102NZROG","3ZICQFRS3143WDVXF1P0C7ZVVO8ZZM","","234.80000007152557","img/land2.png","74","235.80000007152557","1","0","2","2","1,0.5,0.5,0.5,1,0.5,0.5,0.5,1","1,0.5,0.5,0.5,1,0.5,0.5,0.5,1","","",""
"","html-keyboard-response","81","343958","0.0-81.0","3ATPCQ38J9W4CZBEYPCK6QV8N6KYAY","A1DKR1102NZROG","3ZICQFRS3143WDVXF1P0C7ZVVO8ZZM","","null","<img src=""img/land2.png"" style=""width:200px;border:14px solid red;"">","null","","","","","","","","","",""
"","image-keyboard-response","82","344035","0.0-82.0","3ATPCQ38J9W4CZBEYPCK6QV8N6KYAY","A1DKR1102NZROG","3ZICQFRS3143WDVXF1P0C7ZVVO8ZZM","","74.20000004768372","img/land3.png","74","76","1","1","3","2","1,0.5,0.5,0.5,1,0.5,0.5,0.5,1","1,0.5,0.5,0.5,1,0.5,0.5,0.5,1","","",""
"","html-keyboard-response","83","344349","0.0-83.0","3ATPCQ38J9W4CZBEYPCK6QV8N6KYAY","A1DKR1102NZROG","3ZICQFRS3143WDVXF1P0C7ZVVO8ZZM","","null","<img src=""img/land3.png"" style=""width:200px; border:14px solid green;"">","null","","","","","","","","","",""
"","image-keyboard-response","84","344375","0.0-84.0","3ATPCQ38J9W4CZBEYPCK6QV8N6KYAY","A1DKR1102NZROG","3ZICQFRS3143WDVXF1P0C7ZVVO8ZZM","","24.100000023841858","img/land2.png","74","26","1","0","2","2","1,0.5,0.5,0.5,1,0.5,0.5,0.5,1","1,0.5,0.5,0.5,1,0.5,0.5,0.5,1","","",""
"","html-keyboard-response","85","344681","0.0-85.0","3ATPCQ38J9W4CZBEYPCK6QV8N6KYAY","A1DKR1102NZROG","3ZICQFRS3143WDVXF1P0C7ZVVO8ZZM","","null","<img src=""img/land2.png"" style=""width:200px;border:14px solid red;"">","null","","","","","","","","","",""
"","image-keyboard-response","86","345160","0.0-86.0","3ATPCQ38J9W4CZBEYPCK6QV8N6KYAY","A1DKR1102NZROG","3ZICQFRS3143WDVXF1P0C7ZVVO8ZZM","","477.5","img/land2.png","74","478.89999997615814","1","0","2","2","1,0.5,0.5,0.5,1,0.5,0.5,0.5,1","1,0.5,0.5,0.5,1,0.5,0.5,0.5,1","","",""
"","html-keyboard-response","87","345464","0.0-87.0","3ATPCQ38J9W4CZBEYPCK6QV8N6KYAY","A1DKR1102NZROG","3ZICQFRS3143WDVXF1P0C7ZVVO8ZZM","","null","<img src=""img/land2.png"" style=""width:200px;border:14px solid red;"">","null","","","","","","","","","",""
"","image-keyboard-response","88","345687","0.0-88.0","3ATPCQ38J9W4CZBEYPCK6QV8N6KYAY","A1DKR1102NZROG","3ZICQFRS3143WDVXF1P0C7ZVVO8ZZM","","220.80000007152557","img/land2.png","76","223","3","1","2","2","1,0.5,0.5,0.5,1,0.5,0.5,0.5,1","1,0.5,0.5,0.5,1,0.5,0.5,0.5,1","","",""
"","html-keyboard-response","89","345991","0.0-89.0","3ATPCQ38J9W4CZBEYPCK6QV8N6KYAY","A1DKR1102NZROG","3ZICQFRS3143WDVXF1P0C7ZVVO8ZZM","","null","<img src=""img/land2.png"" style=""width:200px; border:14px solid green;"">","null","","","","","","","","","",""
"","image-keyboard-response","90","346125","0.0-90.0","3ATPCQ38J9W4CZBEYPCK6QV8N6KYAY","A1DKR1102NZROG","3ZICQFRS3143WDVXF1P0C7ZVVO8ZZM","","131.79999995231628","img/land2.png","74","133","1","0","2","2","1,0.5,0.5,0.5,1,0.5,0.5,0.5,1","1,0.5,0.5,0.5,1,0.5,0.5,0.5,1","","",""
"","html-keyboard-response","91","346427","0.0-91.0","3ATPCQ38J9W4CZBEYPCK6QV8N6KYAY","A1DKR1102NZROG","3ZICQFRS3143WDVXF1P0C7ZVVO8ZZM","","null","<img src=""img/land2.png"" style=""width:200px;border:14px solid red;"">","null","","","","","","","","","",""
"","image-keyboard-response","92","346449","0.0-92.0","3ATPCQ38J9W4CZBEYPCK6QV8N6KYAY","A1DKR1102NZROG","3ZICQFRS3143WDVXF1P0C7ZVVO8ZZM","","20.299999952316284","img/land2.png","75","21.799999952316284","2","1","2","2","1,0.5,0.5,0.5,1,0.5,0.5,0.5,1","1,0.5,0.5,0.5,1,0.5,0.5,0.5,1","","",""
"","html-keyboard-response","93","346756","0.0-93.0","3ATPCQ38J9W4CZBEYPCK6QV8N6KYAY","A1DKR1102NZROG","3ZICQFRS3143WDVXF1P0C7ZVVO8ZZM","","null","<img src=""img/land2.png"" style=""width:200px; border:14px solid green;"">","null","","","","","","","","","",""
"","image-keyboard-response","94","346878","0.0-94.0","3ATPCQ38J9W4CZBEYPCK6QV8N6KYAY","A1DKR1102NZROG","3ZICQFRS3143WDVXF1P0C7ZVVO8ZZM","","121.20000004768372","img/land1.png","75","122","2","1","1","2","1,0.5,0.5,0.5,1,0.5,0.5,0.5,1","1,0.5,0.5,0.5,1,0.5,0.5,0.5,1","","",""
"","html-keyboard-response","95","347183","0.0-95.0","3ATPCQ38J9W4CZBEYPCK6QV8N6KYAY","A1DKR1102NZROG","3ZICQFRS3143WDVXF1P0C7ZVVO8ZZM","","null","<img src=""img/land1.png"" style=""width:200px; border:14px solid green;"">","null","","","","","","","","","",""
"","image-keyboard-response","96","347476","0.0-96.0","3ATPCQ38J9W4CZBEYPCK6QV8N6KYAY","A1DKR1102NZROG","3ZICQFRS3143WDVXF1P0C7ZVVO8ZZM","","290.3000000715256","img/land1.png","75","291.7000000476837","2","1","1","2","1,0.5,0.5,0.5,1,0.5,0.5,0.5,1","1,0.5,0.5,0.5,1,0.5,0.5,0.5,1","","",""
"","html-keyboard-response","97","347786","0.0-97.0","3ATPCQ38J9W4CZBEYPCK6QV8N6KYAY","A1DKR1102NZROG","3ZICQFRS3143WDVXF1P0C7ZVVO8ZZM","","null","<img src=""img/land1.png"" style=""width:200px; border:14px solid green;"">","null","","","","","","","","","",""
"","image-keyboard-response","98","347822","0.0-98.0","3ATPCQ38J9W4CZBEYPCK6QV8N6KYAY","A1DKR1102NZROG","3ZICQFRS3143WDVXF1P0C7ZVVO8ZZM","","34.89999997615814","img/land2.png","74","35.799999952316284","1","1","2","2","1,0.5,0.5,0.5,1,0.5,0.5,0.5,1","1,0.5,0.5,0.5,1,0.5,0.5,0.5,1","","",""
"","html-keyboard-response","99","348129","0.0-99.0","3ATPCQ38J9W4CZBEYPCK6QV8N6KYAY","A1DKR1102NZROG","3ZICQFRS3143WDVXF1P0C7ZVVO8ZZM","","null","<img src=""img/land2.png"" style=""width:200px; border:14px solid green;"">","null","","","","","","","","","",""
"","image-keyboard-response","100","348144","0.0-100.0","3ATPCQ38J9W4CZBEYPCK6QV8N6KYAY","A1DKR1102NZROG","3ZICQFRS3143WDVXF1P0C7ZVVO8ZZM","","13","img/land2.png","74","14.5","1","0","2","2","1,0.5,0.5,0.5,1,0.5,0.5,0.5,1","1,0.5,0.5,0.5,1,0.5,0.5,0.5,1","","",""
"","html-keyboard-response","101","348450","0.0-101.0","3ATPCQ38J9W4CZBEYPCK6QV8N6KYAY","A1DKR1102NZROG","3ZICQFRS3143WDVXF1P0C7ZVVO8ZZM","","null","<img src=""img/land2.png"" style=""width:200px;border:14px solid red;"">","null","","","","","","","","","",""
"","image-keyboard-response","102","348551","0.0-102.0","3ATPCQ38J9W4CZBEYPCK6QV8N6KYAY","A1DKR1102NZROG","3ZICQFRS3143WDVXF1P0C7ZVVO8ZZM","","99.39999997615814","img/land1.png","76","100.69999992847443","3","1","1","2","1,0.5,0.5,0.5,1,0.5,0.5,0.5,1","1,0.5,0.5,0.5,1,0.5,0.5,0.5,1","","",""
"","html-keyboard-response","103","348855","0.0-103.0","3ATPCQ38J9W4CZBEYPCK6QV8N6KYAY","A1DKR1102NZROG","3ZICQFRS3143WDVXF1P0C7ZVVO8ZZM","","null","<img src=""img/land1.png"" style=""width:200px; border:14px solid green;"">","null","","","","","","","","","",""
"","image-keyboard-response","104","349013","0.0-104.0","3ATPCQ38J9W4CZBEYPCK6QV8N6KYAY","A1DKR1102NZROG","3ZICQFRS3143WDVXF1P0C7ZVVO8ZZM","","155.69999992847443","img/land2.png","74","157.5","1","0","2","2","1,0.5,0.5,0.5,1,0.5,0.5,0.5,1","1,0.5,0.5,0.5,1,0.5,0.5,0.5,1","","",""
"","html-keyboard-response","105","349324","0.0-105.0","3ATPCQ38J9W4CZBEYPCK6QV8N6KYAY","A1DKR1102NZROG","3ZICQFRS3143WDVXF1P0C7ZVVO8ZZM","","null","<img src=""img/land2.png"" style=""width:200px;border:14px solid red;"">","null","","","","","","","","","",""
"","image-keyboard-response","106","349354","0.0-106.0","3ATPCQ38J9W4CZBEYPCK6QV8N6KYAY","A1DKR1102NZROG","3ZICQFRS3143WDVXF1P0C7ZVVO8ZZM","","28.200000047683716","img/land2.png","74","29.800000071525574","1","0","2","2","1,0.5,0.5,0.5,1,0.5,0.5,0.5,1","1,0.5,0.5,0.5,1,0.5,0.5,0.5,1","","",""
"","html-keyboard-response","107","349662","0.0-107.0","3ATPCQ38J9W4CZBEYPCK6QV8N6KYAY","A1DKR1102NZROG","3ZICQFRS3143WDVXF1P0C7ZVVO8ZZM","","null","<img src=""img/land2.png"" style=""width:200px;border:14px solid red;"">","null","","","","","","","","","",""
"","image-keyboard-response","108","349825","0.0-108.0","3ATPCQ38J9W4CZBEYPCK6QV8N6KYAY","A1DKR1102NZROG","3ZICQFRS3143WDVXF1P0C7ZVVO8ZZM","","161.70000004768372","img/land2.png","74","163.20000004768372","1","1","2","2","1,0.5,0.5,0.5,1,0.5,0.5,0.5,1","1,0.5,0.5,0.5,1,0.5,0.5,0.5,1","","",""
"","html-keyboard-response","109","350129","0.0-109.0","3ATPCQ38J9W4CZBEYPCK6QV8N6KYAY","A1DKR1102NZROG","3ZICQFRS3143WDVXF1P0C7ZVVO8ZZM","","null","<img src=""img/land2.png"" style=""width:200px; border:14px solid green;"">","null","","","","","","","","","",""
"","image-keyboard-response","110","350361","0.0-110.0","3ATPCQ38J9W4CZBEYPCK6QV8N6KYAY","A1DKR1102NZROG","3ZICQFRS3143WDVXF1P0C7ZVVO8ZZM","","230.09999990463257","img/land2.png","74","231.60000002384186","1","1","2","2","1,0.5,0.5,0.5,1,0.5,0.5,0.5,1","1,0.5,0.5,0.5,1,0.5,0.5,0.5,1","","",""
"","html-keyboard-response","111","350670","0.0-111.0","3ATPCQ38J9W4CZBEYPCK6QV8N6KYAY","A1DKR1102NZROG","3ZICQFRS3143WDVXF1P0C7ZVVO8ZZM","","null","<img src=""img/land2.png"" style=""width:200px; border:14px solid green;"">","null","","","","","","","","","",""
"","image-keyboard-response","112","350676","0.0-112.0","3ATPCQ38J9W4CZBEYPCK6QV8N6KYAY","A1DKR1102NZROG","3ZICQFRS3143WDVXF1P0C7ZVVO8ZZM","","3.6999999284744263","img/land2.png","74","5.199999928474426","1","1","2","2","1,0.5,0.5,0.5,1,0.5,0.5,0.5,1","1,0.5,0.5,0.5,1,0.5,0.5,0.5,1","","",""
"","html-keyboard-response","113","350979","0.0-113.0","3ATPCQ38J9W4CZBEYPCK6QV8N6KYAY","A1DKR1102NZROG","3ZICQFRS3143WDVXF1P0C7ZVVO8ZZM","","null","<img src=""img/land2.png"" style=""width:200px; border:14px solid green;"">","null","","","","","","","","","",""
"","image-keyboard-response","114","351195","0.0-114.0","3ATPCQ38J9W4CZBEYPCK6QV8N6KYAY","A1DKR1102NZROG","3ZICQFRS3143WDVXF1P0C7ZVVO8ZZM","","213.69999992847443","img/land3.png","74","215.20000004768372","1","0","3","2","1,0.5,0.5,0.5,1,0.5,0.5,0.5,1","1,0.5,0.5,0.5,1,0.5,0.5,0.5,1","","",""
"","html-keyboard-response","115","351503","0.0-115.0","3ATPCQ38J9W4CZBEYPCK6QV8N6KYAY","A1DKR1102NZROG","3ZICQFRS3143WDVXF1P0C7ZVVO8ZZM","","null","<img src=""img/land3.png"" style=""width:200px;border:14px solid red;"">","null","","","","","","","","","",""
"","image-keyboard-response","116","351820","0.0-116.0","3ATPCQ38J9W4CZBEYPCK6QV8N6KYAY","A1DKR1102NZROG","3ZICQFRS3143WDVXF1P0C7ZVVO8ZZM","","315.10000002384186","img/land3.png","76","316.60000002384186","3","1","3","2","1,0.5,0.5,0.5,1,0.5,0.5,0.5,1","1,0.5,0.5,0.5,1,0.5,0.5,0.5,1","","",""
"","html-keyboard-response","117","352131","0.0-117.0","3ATPCQ38J9W4CZBEYPCK6QV8N6KYAY","A1DKR1102NZROG","3ZICQFRS3143WDVXF1P0C7ZVVO8ZZM","","null","<img src=""img/land3.png"" style=""width:200px; border:14px solid green;"">","null","","","","","","","","","",""
"","image-keyboard-response","118","352201","0.0-118.0","3ATPCQ38J9W4CZBEYPCK6QV8N6KYAY","A1DKR1102NZROG","3ZICQFRS3143WDVXF1P0C7ZVVO8ZZM","","67.79999995231628","img/land2.png","76","69.29999995231628","3","0","2","2","1,0.5,0.5,0.5,1,0.5,0.5,0.5,1","1,0.5,0.5,0.5,1,0.5,0.5,0.5,1","","",""
"","html-keyboard-response","119","352510","0.0-119.0","3ATPCQ38J9W4CZBEYPCK6QV8N6KYAY","A1DKR1102NZROG","3ZICQFRS3143WDVXF1P0C7ZVVO8ZZM","","null","<img src=""img/land2.png"" style=""width:200px;border:14px solid red;"">","null","","","","","","","","","",""
"","image-keyboard-response","120","352664","0.0-120.0","3ATPCQ38J9W4CZBEYPCK6QV8N6KYAY","A1DKR1102NZROG","3ZICQFRS3143WDVXF1P0C7ZVVO8ZZM","","152.5","img/land2.png","74","156.5","1","1","2","2","1,0.5,0.5,0.5,1,0.5,0.5,0.5,1","1,0.5,0.5,0.5,1,0.5,0.5,0.5,1","","",""
"","html-keyboard-response","121","352983","0.0-121.0","3ATPCQ38J9W4CZBEYPCK6QV8N6KYAY","A1DKR1102NZROG","3ZICQFRS3143WDVXF1P0C7ZVVO8ZZM","","null","<img src=""img/land2.png"" style=""width:200px; border:14px solid green;"">","null","","","","","","","","","",""
"","image-keyboard-response","122","353013","0.0-122.0","3ATPCQ38J9W4CZBEYPCK6QV8N6KYAY","A1DKR1102NZROG","3ZICQFRS3143WDVXF1P0C7ZVVO8ZZM","","28.200000047683716","img/land1.png","76","29.700000047683716","3","0","1","2","1,0.5,0.5,0.5,1,0.5,0.5,0.5,1","1,0.5,0.5,0.5,1,0.5,0.5,0.5,1","","",""
"","html-keyboard-response","123","353315","0.0-123.0","3ATPCQ38J9W4CZBEYPCK6QV8N6KYAY","A1DKR1102NZROG","3ZICQFRS3143WDVXF1P0C7ZVVO8ZZM","","null","<img src=""img/land1.png"" style=""width:200px;border:14px solid red;"">","null","","","","","","","","","",""
"","image-keyboard-response","124","353615","0.0-124.0","3ATPCQ38J9W4CZBEYPCK6QV8N6KYAY","A1DKR1102NZROG","3ZICQFRS3143WDVXF1P0C7ZVVO8ZZM","","298.7999999523163","img/land3.png","75","299.89999997615814","2","0","3","2","1,0.5,0.5,0.5,1,0.5,0.5,0.5,1","1,0.5,0.5,0.5,1,0.5,0.5,0.5,1","","",""
"","html-keyboard-response","125","353920","0.0-125.0","3ATPCQ38J9W4CZBEYPCK6QV8N6KYAY","A1DKR1102NZROG","3ZICQFRS3143WDVXF1P0C7ZVVO8ZZM","","null","<img src=""img/land3.png"" style=""width:200px;border:14px solid red;"">","null","","","","","","","","","",""
"","image-keyboard-response","126","353944","0.0-126.0","3ATPCQ38J9W4CZBEYPCK6QV8N6KYAY","A1DKR1102NZROG","3ZICQFRS3143WDVXF1P0C7ZVVO8ZZM","","22.399999976158142","img/land2.png","74","23.800000071525574","1","0","2","2","1,0.5,0.5,0.5,1,0.5,0.5,0.5,1","1,0.5,0.5,0.5,1,0.5,0.5,0.5,1","","",""
"","html-keyboard-response","127","354251","0.0-127.0","3ATPCQ38J9W4CZBEYPCK6QV8N6KYAY","A1DKR1102NZROG","3ZICQFRS3143WDVXF1P0C7ZVVO8ZZM","","null","<img src=""img/land2.png"" style=""width:200px;border:14px solid red;"">","null","","","","","","","","","",""
"","image-keyboard-response","128","354272","0.0-128.0","3ATPCQ38J9W4CZBEYPCK6QV8N6KYAY","A1DKR1102NZROG","3ZICQFRS3143WDVXF1P0C7ZVVO8ZZM","","19.600000023841858","img/land1.png","76","21.200000047683716","3","1","1","2","1,0.5,0.5,0.5,1,0.5,0.5,0.5,1","1,0.5,0.5,0.5,1,0.5,0.5,0.5,1","","",""
"","html-keyboard-response","129","354575","0.0-129.0","3ATPCQ38J9W4CZBEYPCK6QV8N6KYAY","A1DKR1102NZROG","3ZICQFRS3143WDVXF1P0C7ZVVO8ZZM","","null","<img src=""img/land1.png"" style=""width:200px; border:14px solid green;"">","null","","","","","","","","","",""
"","image-keyboard-response","130","354734","0.0-130.0","3ATPCQ38J9W4CZBEYPCK6QV8N6KYAY","A1DKR1102NZROG","3ZICQFRS3143WDVXF1P0C7ZVVO8ZZM","","156.5","img/land2.png","76","157.89999997615814","3","0","2","2","1,0.5,0.5,0.5,1,0.5,0.5,0.5,1","1,0.5,0.5,0.5,1,0.5,0.5,0.5,1","","",""
"","html-keyboard-response","131","355036","0.0-131.0","3ATPCQ38J9W4CZBEYPCK6QV8N6KYAY","A1DKR1102NZROG","3ZICQFRS3143WDVXF1P0C7ZVVO8ZZM","","null","<img src=""img/land2.png"" style=""width:200px;border:14px solid red;"">","null","","","","","","","","","",""
"","image-keyboard-response","132","355150","0.0-132.0","3ATPCQ38J9W4CZBEYPCK6QV8N6KYAY","A1DKR1102NZROG","3ZICQFRS3143WDVXF1P0C7ZVVO8ZZM","","112.20000004768372","img/land2.png","76","113.80000007152557","3","1","2","2","1,0.5,0.5,0.5,1,0.5,0.5,0.5,1","1,0.5,0.5,0.5,1,0.5,0.5,0.5,1","","",""
"","html-keyboard-response","133","355453","0.0-133.0","3ATPCQ38J9W4CZBEYPCK6QV8N6KYAY","A1DKR1102NZROG","3ZICQFRS3143WDVXF1P0C7ZVVO8ZZM","","null","<img src=""img/land2.png"" style=""width:200px; border:14px solid green;"">","null","","","","","","","","","",""
"","image-keyboard-response","134","355872","0.0-134.0","3ATPCQ38J9W4CZBEYPCK6QV8N6KYAY","A1DKR1102NZROG","3ZICQFRS3143WDVXF1P0C7ZVVO8ZZM","","417.7000000476837","img/land2.png","74","418.8000000715256","1","1","2","2","1,0.5,0.5,0.5,1,0.5,0.5,0.5,1","1,0.5,0.5,0.5,1,0.5,0.5,0.5,1","","",""
"","html-keyboard-response","135","356183","0.0-135.0","3ATPCQ38J9W4CZBEYPCK6QV8N6KYAY","A1DKR1102NZROG","3ZICQFRS3143WDVXF1P0C7ZVVO8ZZM","","null","<img src=""img/land2.png"" style=""width:200px; border:14px solid green;"">","null","","","","","","","","","",""
"","image-keyboard-response","136","356244","0.0-136.0","3ATPCQ38J9W4CZBEYPCK6QV8N6KYAY","A1DKR1102NZROG","3ZICQFRS3143WDVXF1P0C7ZVVO8ZZM","","59.5","img/land2.png","74","60.800000071525574","1","1","2","2","1,0.5,0.5,0.5,1,0.5,0.5,0.5,1","1,0.5,0.5,0.5,1,0.5,0.5,0.5,1","","",""
"","html-keyboard-response","137","356550","0.0-137.0","3ATPCQ38J9W4CZBEYPCK6QV8N6KYAY","A1DKR1102NZROG","3ZICQFRS3143WDVXF1P0C7ZVVO8ZZM","","null","<img src=""img/land2.png"" style=""width:200px; border:14px solid green;"">","null","","","","","","","","","",""
"","image-keyboard-response","138","357144","0.0-138.0","3ATPCQ38J9W4CZBEYPCK6QV8N6KYAY","A1DKR1102NZROG","3ZICQFRS3143WDVXF1P0C7ZVVO8ZZM","","593.6000000238419","img/land3.png","76","594.6999999284744","3","1","3","2","1,0.5,0.5,0.5,1,0.5,0.5,0.5,1","1,0.5,0.5,0.5,1,0.5,0.5,0.5,1","","",""
"","html-keyboard-response","139","357460","0.0-139.0","3ATPCQ38J9W4CZBEYPCK6QV8N6KYAY","A1DKR1102NZROG","3ZICQFRS3143WDVXF1P0C7ZVVO8ZZM","","null","<img src=""img/land3.png"" style=""width:200px; border:14px solid green;"">","null","","","","","","","","","",""
"","image-keyboard-response","140","357817","0.0-140.0","3ATPCQ38J9W4CZBEYPCK6QV8N6KYAY","A1DKR1102NZROG","3ZICQFRS3143WDVXF1P0C7ZVVO8ZZM","","355.2999999523163","img/land2.png","76","356.59999990463257","3","1","2","2","1,0.5,0.5,0.5,1,0.5,0.5,0.5,1","1,0.5,0.5,0.5,1,0.5,0.5,0.5,1","","",""
"","html-keyboard-response","141","358120","0.0-141.0","3ATPCQ38J9W4CZBEYPCK6QV8N6KYAY","A1DKR1102NZROG","3ZICQFRS3143WDVXF1P0C7ZVVO8ZZM","","null","<img src=""img/land2.png"" style=""width:200px; border:14px solid green;"">","null","","","","","","","","","",""
"","image-keyboard-response","142","358258","0.0-142.0","3ATPCQ38J9W4CZBEYPCK6QV8N6KYAY","A1DKR1102NZROG","3ZICQFRS3143WDVXF1P0C7ZVVO8ZZM","","136.79999995231628","img/land2.png","76","138.19999992847443","3","1","2","2","1,0.5,0.5,0.5,1,0.5,0.5,0.5,1","1,0.5,0.5,0.5,1,0.5,0.5,0.5,1","","",""
"","html-keyboard-response","143","358574","0.0-143.0","3ATPCQ38J9W4CZBEYPCK6QV8N6KYAY","A1DKR1102NZROG","3ZICQFRS3143WDVXF1P0C7ZVVO8ZZM","","null","<img src=""img/land2.png"" style=""width:200px; border:14px solid green;"">","null","","","","","","","","","",""
"","image-keyboard-response","144","358625","0.0-144.0","3ATPCQ38J9W4CZBEYPCK6QV8N6KYAY","A1DKR1102NZROG","3ZICQFRS3143WDVXF1P0C7ZVVO8ZZM","","49.5","img/land2.png","76","50.5","3","0","2","2","1,0.5,0.5,0.5,1,0.5,0.5,0.5,1","1,0.5,0.5,0.5,1,0.5,0.5,0.5,1","","",""
"","html-keyboard-response","145","358939","0.0-145.0","3ATPCQ38J9W4CZBEYPCK6QV8N6KYAY","A1DKR1102NZROG","3ZICQFRS3143WDVXF1P0C7ZVVO8ZZM","","null","<img src=""img/land2.png"" style=""width:200px;border:14px solid red;"">","null","","","","","","","","","",""
"","image-keyboard-response","146","359129","0.0-146.0","3ATPCQ38J9W4CZBEYPCK6QV8N6KYAY","A1DKR1102NZROG","3ZICQFRS3143WDVXF1P0C7ZVVO8ZZM","","188.19999992847443","img/land3.png","74","189.79999995231628","1","1","3","2","1,0.5,0.5,0.5,1,0.5,0.5,0.5,1","1,0.5,0.5,0.5,1,0.5,0.5,0.5,1","","",""
"","html-keyboard-response","147","359445","0.0-147.0","3ATPCQ38J9W4CZBEYPCK6QV8N6KYAY","A1DKR1102NZROG","3ZICQFRS3143WDVXF1P0C7ZVVO8ZZM","","null","<img src=""img/land3.png"" style=""width:200px; border:14px solid green;"">","null","","","","","","","","","",""
"","image-keyboard-response","148","359461","0.0-148.0","3ATPCQ38J9W4CZBEYPCK6QV8N6KYAY","A1DKR1102NZROG","3ZICQFRS3143WDVXF1P0C7ZVVO8ZZM","","14.5","img/land2.png","74","15.899999976158142","1","0","2","2","1,0.5,0.5,0.5,1,0.5,0.5,0.5,1","1,0.5,0.5,0.5,1,0.5,0.5,0.5,1","","",""
"","html-keyboard-response","149","359772","0.0-149.0","3ATPCQ38J9W4CZBEYPCK6QV8N6KYAY","A1DKR1102NZROG","3ZICQFRS3143WDVXF1P0C7ZVVO8ZZM","","null","<img src=""img/land2.png"" style=""width:200px;border:14px solid red;"">","null","","","","","","","","","",""
"","image-keyboard-response","150","360071","0.0-150.0","3ATPCQ38J9W4CZBEYPCK6QV8N6KYAY","A1DKR1102NZROG","3ZICQFRS3143WDVXF1P0C7ZVVO8ZZM","","297","img/land1.png","76","298.60000002384186","3","0","1","2","1,0.5,0.5,0.5,1,0.5,0.5,0.5,1","1,0.5,0.5,0.5,1,0.5,0.5,0.5,1","","",""
"","html-keyboard-response","151","360374","0.0-151.0","3ATPCQ38J9W4CZBEYPCK6QV8N6KYAY","A1DKR1102NZROG","3ZICQFRS3143WDVXF1P0C7ZVVO8ZZM","","null","<img src=""img/land1.png"" style=""width:200px;border:14px solid red;"">","null","","","","","","","","","",""
"","image-keyboard-response","152","360447","0.0-152.0","3ATPCQ38J9W4CZBEYPCK6QV8N6KYAY","A1DKR1102NZROG","3ZICQFRS3143WDVXF1P0C7ZVVO8ZZM","","70.5","img/land1.png","76","72","3","1","1","2","1,0.5,0.5,0.5,1,0.5,0.5,0.5,1","1,0.5,0.5,0.5,1,0.5,0.5,0.5,1","","",""
"","html-keyboard-response","153","360753","0.0-153.0","3ATPCQ38J9W4CZBEYPCK6QV8N6KYAY","A1DKR1102NZROG","3ZICQFRS3143WDVXF1P0C7ZVVO8ZZM","","null","<img src=""img/land1.png"" style=""width:200px; border:14px solid green;"">","null","","","","","","","","","",""
"","image-keyboard-response","154","360773","0.0-154.0","3ATPCQ38J9W4CZBEYPCK6QV8N6KYAY","A1DKR1102NZROG","3ZICQFRS3143WDVXF1P0C7ZVVO8ZZM","","18.100000023841858","img/land1.png","75","19.5","2","1","1","2","1,0.5,0.5,0.5,1,0.5,0.5,0.5,1","1,0.5,0.5,0.5,1,0.5,0.5,0.5,1","","",""
"","html-keyboard-response","155","361078","0.0-155.0","3ATPCQ38J9W4CZBEYPCK6QV8N6KYAY","A1DKR1102NZROG","3ZICQFRS3143WDVXF1P0C7ZVVO8ZZM","","null","<img src=""img/land1.png"" style=""width:200px; border:14px solid green;"">","null","","","","","","","","","",""
"","image-keyboard-response","156","361168","0.0-156.0","3ATPCQ38J9W4CZBEYPCK6QV8N6KYAY","A1DKR1102NZROG","3ZICQFRS3143WDVXF1P0C7ZVVO8ZZM","","88.09999990463257","img/land2.png","75","89.60000002384186","2","1","2","2","1,0.5,0.5,0.5,1,0.5,0.5,0.5,1","1,0.5,0.5,0.5,1,0.5,0.5,0.5,1","","",""
"","html-keyboard-response","157","361481","0.0-157.0","3ATPCQ38J9W4CZBEYPCK6QV8N6KYAY","A1DKR1102NZROG","3ZICQFRS3143WDVXF1P0C7ZVVO8ZZM","","null","<img src=""img/land2.png"" style=""width:200px; border:14px solid green;"">","null","","","","","","","","","",""
"","image-keyboard-response","158","361586","0.0-158.0","3ATPCQ38J9W4CZBEYPCK6QV8N6KYAY","A1DKR1102NZROG","3ZICQFRS3143WDVXF1P0C7ZVVO8ZZM","","103.69999992847443","img/land2.png","74","105.09999990463257","1","1","2","2","1,0.5,0.5,0.5,1,0.5,0.5,0.5,1","1,0.5,0.5,0.5,1,0.5,0.5,0.5,1","","",""
"","html-keyboard-response","159","361899","0.0-159.0","3ATPCQ38J9W4CZBEYPCK6QV8N6KYAY","A1DKR1102NZROG","3ZICQFRS3143WDVXF1P0C7ZVVO8ZZM","","null","<img src=""img/land2.png"" style=""width:200px; border:14px solid green;"">","null","","","","","","","","","",""
"","image-keyboard-response","160","361987","0.0-160.0","3ATPCQ38J9W4CZBEYPCK6QV8N6KYAY","A1DKR1102NZROG","3ZICQFRS3143WDVXF1P0C7ZVVO8ZZM","","86.20000004768372","img/land3.png","74","87.89999997615814","1","0","3","2","1,0.5,0.5,0.5,1,0.5,0.5,0.5,1","1,0.5,0.5,0.5,1,0.5,0.5,0.5,1","","",""
"","html-keyboard-response","161","362290","0.0-161.0","3ATPCQ38J9W4CZBEYPCK6QV8N6KYAY","A1DKR1102NZROG","3ZICQFRS3143WDVXF1P0C7ZVVO8ZZM","","null","<img src=""img/land3.png"" style=""width:200px;border:14px solid red;"">","null","","","","","","","","","",""
"","image-keyboard-response","162","362358","0.0-162.0","3ATPCQ38J9W4CZBEYPCK6QV8N6KYAY","A1DKR1102NZROG","3ZICQFRS3143WDVXF1P0C7ZVVO8ZZM","","66.40000009536743","img/land3.png","76","67.30000007152557","3","1","3","2","1,0.5,0.5,0.5,1,0.5,0.5,0.5,1","1,0.5,0.5,0.5,1,0.5,0.5,0.5,1","","",""
"","html-keyboard-response","163","362664","0.0-163.0","3ATPCQ38J9W4CZBEYPCK6QV8N6KYAY","A1DKR1102NZROG","3ZICQFRS3143WDVXF1P0C7ZVVO8ZZM","","null","<img src=""img/land3.png"" style=""width:200px; border:14px solid green;"">","null","","","","","","","","","",""
"","image-keyboard-response","164","362748","0.0-164.0","3ATPCQ38J9W4CZBEYPCK6QV8N6KYAY","A1DKR1102NZROG","3ZICQFRS3143WDVXF1P0C7ZVVO8ZZM","","82.89999997615814","img/land3.png","76","84.39999997615814","3","1","3","2","1,0.5,0.5,0.5,1,0.5,0.5,0.5,1","1,0.5,0.5,0.5,1,0.5,0.5,0.5,1","","",""
"","html-keyboard-response","165","363063","0.0-165.0","3ATPCQ38J9W4CZBEYPCK6QV8N6KYAY","A1DKR1102NZROG","3ZICQFRS3143WDVXF1P0C7ZVVO8ZZM","","null","<img src=""img/land3.png"" style=""width:200px; border:14px solid green;"">","null","","","","","","","","","",""
"","image-keyboard-response","166","363115","0.0-166.0","3ATPCQ38J9W4CZBEYPCK6QV8N6KYAY","A1DKR1102NZROG","3ZICQFRS3143WDVXF1P0C7ZVVO8ZZM","","49.40000009536743","img/land2.png","74","51","1","0","2","2","1,0.5,0.5,0.5,1,0.5,0.5,0.5,1","1,0.5,0.5,0.5,1,0.5,0.5,0.5,1","","",""
"","html-keyboard-response","167","363419","0.0-167.0","3ATPCQ38J9W4CZBEYPCK6QV8N6KYAY","A1DKR1102NZROG","3ZICQFRS3143WDVXF1P0C7ZVVO8ZZM","","null","<img src=""img/land2.png"" style=""width:200px;border:14px solid red;"">","null","","","","","","","","","",""
"","image-keyboard-response","168","363470","0.0-168.0","3ATPCQ38J9W4CZBEYPCK6QV8N6KYAY","A1DKR1102NZROG","3ZICQFRS3143WDVXF1P0C7ZVVO8ZZM","","48.39999997615814","img/land2.png","76","49.799999952316284","3","0","2","2","1,0.5,0.5,0.5,1,0.5,0.5,0.5,1","1,0.5,0.5,0.5,1,0.5,0.5,0.5,1","","",""
"","html-keyboard-response","169","363783","0.0-169.0","3ATPCQ38J9W4CZBEYPCK6QV8N6KYAY","A1DKR1102NZROG","3ZICQFRS3143WDVXF1P0C7ZVVO8ZZM","","null","<img src=""img/land2.png"" style=""width:200px;border:14px solid red;"">","null","","","","","","","","","",""
"","image-keyboard-response","170","363918","0.0-170.0","3ATPCQ38J9W4CZBEYPCK6QV8N6KYAY","A1DKR1102NZROG","3ZICQFRS3143WDVXF1P0C7ZVVO8ZZM","","133.5","img/land3.png","75","135.29999995231628","2","0","3","2","1,0.5,0.5,0.5,1,0.5,0.5,0.5,1","1,0.5,0.5,0.5,1,0.5,0.5,0.5,1","","",""
"","html-keyboard-response","171","364235","0.0-171.0","3ATPCQ38J9W4CZBEYPCK6QV8N6KYAY","A1DKR1102NZROG","3ZICQFRS3143WDVXF1P0C7ZVVO8ZZM","","null","<img src=""img/land3.png"" style=""width:200px;border:14px solid red;"">","null","","","","","","","","","",""
"","image-keyboard-response","172","364593","0.0-172.0","3ATPCQ38J9W4CZBEYPCK6QV8N6KYAY","A1DKR1102NZROG","3ZICQFRS3143WDVXF1P0C7ZVVO8ZZM","","356.3000000715256","img/land2.png","74","357.5","1","0","2","2","1,0.5,0.5,0.5,1,0.5,0.5,0.5,1","1,0.5,0.5,0.5,1,0.5,0.5,0.5,1","","",""
"","html-keyboard-response","173","364903","0.0-173.0","3ATPCQ38J9W4CZBEYPCK6QV8N6KYAY","A1DKR1102NZROG","3ZICQFRS3143WDVXF1P0C7ZVVO8ZZM","","null","<img src=""img/land2.png"" style=""width:200px;border:14px solid red;"">","null","","","","","","","","","",""
"","image-keyboard-response","174","365125","0.0-174.0","3ATPCQ38J9W4CZBEYPCK6QV8N6KYAY","A1DKR1102NZROG","3ZICQFRS3143WDVXF1P0C7ZVVO8ZZM","","219.80000007152557","img/land1.png","75","221.20000004768372","2","0","1","2","1,0.5,0.5,0.5,1,0.5,0.5,0.5,1","1,0.5,0.5,0.5,1,0.5,0.5,0.5,1","","",""
"","html-keyboard-response","175","365428","0.0-175.0","3ATPCQ38J9W4CZBEYPCK6QV8N6KYAY","A1DKR1102NZROG","3ZICQFRS3143WDVXF1P0C7ZVVO8ZZM","","null","<img src=""img/land1.png"" style=""width:200px;border:14px solid red;"">","null","","","","","","","","","",""
"","image-keyboard-response","176","365449","0.0-176.0","3ATPCQ38J9W4CZBEYPCK6QV8N6KYAY","A1DKR1102NZROG","3ZICQFRS3143WDVXF1P0C7ZVVO8ZZM","","18.699999928474426","img/land2.png","75","20.200000047683716","2","1","2","2","1,0.5,0.5,0.5,1,0.5,0.5,0.5,1","1,0.5,0.5,0.5,1,0.5,0.5,0.5,1","","",""
"","html-keyboard-response","177","365755","0.0-177.0","3ATPCQ38J9W4CZBEYPCK6QV8N6KYAY","A1DKR1102NZROG","3ZICQFRS3143WDVXF1P0C7ZVVO8ZZM","","null","<img src=""img/land2.png"" style=""width:200px; border:14px solid green;"">","null","","","","","","","","","",""
"","image-keyboard-response","178","366032","0.0-178.0","3ATPCQ38J9W4CZBEYPCK6QV8N6KYAY","A1DKR1102NZROG","3ZICQFRS3143WDVXF1P0C7ZVVO8ZZM","","275.8000000715256","img/land2.png","76","276.90000009536743","3","1","2","2","1,0.5,0.5,0.5,1,0.5,0.5,0.5,1","1,0.5,0.5,0.5,1,0.5,0.5,0.5,1","","",""
"","html-keyboard-response","179","366337","0.0-179.0","3ATPCQ38J9W4CZBEYPCK6QV8N6KYAY","A1DKR1102NZROG","3ZICQFRS3143WDVXF1P0C7ZVVO8ZZM","","null","<img src=""img/land2.png"" style=""width:200px; border:14px solid green;"">","null","","","","","","","","","",""
"","image-keyboard-response","180","366534","0.0-180.0","3ATPCQ38J9W4CZBEYPCK6QV8N6KYAY","A1DKR1102NZROG","3ZICQFRS3143WDVXF1P0C7ZVVO8ZZM","","194.39999997615814","img/land1.png","75","196.10000002384186","2","0","1","2","1,0.5,0.5,0.5,1,0.5,0.5,0.5,1","1,0.5,0.5,0.5,1,0.5,0.5,0.5,1","","",""
"","html-keyboard-response","181","366852","0.0-181.0","3ATPCQ38J9W4CZBEYPCK6QV8N6KYAY","A1DKR1102NZROG","3ZICQFRS3143WDVXF1P0C7ZVVO8ZZM","","null","<img src=""img/land1.png"" style=""width:200px;border:14px solid red;"">","null","","","","","","","","","",""
"","image-keyboard-response","182","367202","0.0-182.0","3ATPCQ38J9W4CZBEYPCK6QV8N6KYAY","A1DKR1102NZROG","3ZICQFRS3143WDVXF1P0C7ZVVO8ZZM","","347.89999997615814","img/land3.png","76","349.39999997615814","3","1","3","2","1,0.5,0.5,0.5,1,0.5,0.5,0.5,1","1,0.5,0.5,0.5,1,0.5,0.5,0.5,1","","",""
"","html-keyboard-response","183","367505","0.0-183.0","3ATPCQ38J9W4CZBEYPCK6QV8N6KYAY","A1DKR1102NZROG","3ZICQFRS3143WDVXF1P0C7ZVVO8ZZM","","null","<img src=""img/land3.png"" style=""width:200px; border:14px solid green;"">","null","","","","","","","","","",""
"","image-keyboard-response","184","367581","0.0-184.0","3ATPCQ38J9W4CZBEYPCK6QV8N6KYAY","A1DKR1102NZROG","3ZICQFRS3143WDVXF1P0C7ZVVO8ZZM","","75.60000002384186","img/land3.png","76","76.29999995231628","3","1","3","2","1,0.5,0.5,0.5,1,0.5,0.5,0.5,1","1,0.5,0.5,0.5,1,0.5,0.5,0.5,1","","",""
"","html-keyboard-response","185","367886","0.0-185.0","3ATPCQ38J9W4CZBEYPCK6QV8N6KYAY","A1DKR1102NZROG","3ZICQFRS3143WDVXF1P0C7ZVVO8ZZM","","null","<img src=""img/land3.png"" style=""width:200px; border:14px solid green;"">","null","","","","","","","","","",""
"","image-keyboard-response","186","367939","0.0-186.0","3ATPCQ38J9W4CZBEYPCK6QV8N6KYAY","A1DKR1102NZROG","3ZICQFRS3143WDVXF1P0C7ZVVO8ZZM","","52.09999990463257","img/land2.png","76","53.40000009536743","3","1","2","2","1,0.5,0.5,0.5,1,0.5,0.5,0.5,1","1,0.5,0.5,0.5,1,0.5,0.5,0.5,1","","",""
"","html-keyboard-response","187","368246","0.0-187.0","3ATPCQ38J9W4CZBEYPCK6QV8N6KYAY","A1DKR1102NZROG","3ZICQFRS3143WDVXF1P0C7ZVVO8ZZM","","null","<img src=""img/land2.png"" style=""width:200px; border:14px solid green;"">","null","","","","","","","","","",""
"","image-keyboard-response","188","368402","0.0-188.0","3ATPCQ38J9W4CZBEYPCK6QV8N6KYAY","A1DKR1102NZROG","3ZICQFRS3143WDVXF1P0C7ZVVO8ZZM","","154.5","img/land2.png","76","155.60000002384186","3","0","2","2","1,0.5,0.5,0.5,1,0.5,0.5,0.5,1","1,0.5,0.5,0.5,1,0.5,0.5,0.5,1","","",""
"","html-keyboard-response","189","368712","0.0-189.0","3ATPCQ38J9W4CZBEYPCK6QV8N6KYAY","A1DKR1102NZROG","3ZICQFRS3143WDVXF1P0C7ZVVO8ZZM","","null","<img src=""img/land2.png"" style=""width:200px;border:14px solid red;"">","null","","","","","","","","","",""
"","image-keyboard-response","190","368896","0.0-190.0","3ATPCQ38J9W4CZBEYPCK6QV8N6KYAY","A1DKR1102NZROG","3ZICQFRS3143WDVXF1P0C7ZVVO8ZZM","","182.69999992847443","img/land3.png","74","184.29999995231628","1","1","3","2","1,0.5,0.5,0.5,1,0.5,0.5,0.5,1","1,0.5,0.5,0.5,1,0.5,0.5,0.5,1","","",""
"","html-keyboard-response","191","369200","0.0-191.0","3ATPCQ38J9W4CZBEYPCK6QV8N6KYAY","A1DKR1102NZROG","3ZICQFRS3143WDVXF1P0C7ZVVO8ZZM","","null","<img src=""img/land3.png"" style=""width:200px; border:14px solid green;"">","null","","","","","","","","","",""
"","image-keyboard-response","192","369248","0.0-192.0","3ATPCQ38J9W4CZBEYPCK6QV8N6KYAY","A1DKR1102NZROG","3ZICQFRS3143WDVXF1P0C7ZVVO8ZZM","","46.800000071525574","img/land2.png","76","48.200000047683716","3","1","2","2","1,0.5,0.5,0.5,1,0.5,0.5,0.5,1","1,0.5,0.5,0.5,1,0.5,0.5,0.5,1","","",""
"","html-keyboard-response","193","369556","0.0-193.0","3ATPCQ38J9W4CZBEYPCK6QV8N6KYAY","A1DKR1102NZROG","3ZICQFRS3143WDVXF1P0C7ZVVO8ZZM","","null","<img src=""img/land2.png"" style=""width:200px; border:14px solid green;"">","null","","","","","","","","","",""
"","image-keyboard-response","194","369690","0.0-194.0","3ATPCQ38J9W4CZBEYPCK6QV8N6KYAY","A1DKR1102NZROG","3ZICQFRS3143WDVXF1P0C7ZVVO8ZZM","","132.10000002384186","img/land2.png","76","133.60000002384186","3","1","2","2","1,0.5,0.5,0.5,1,0.5,0.5,0.5,1","1,0.5,0.5,0.5,1,0.5,0.5,0.5,1","","",""
"","html-keyboard-response","195","369996","0.0-195.0","3ATPCQ38J9W4CZBEYPCK6QV8N6KYAY","A1DKR1102NZROG","3ZICQFRS3143WDVXF1P0C7ZVVO8ZZM","","null","<img src=""img/land2.png"" style=""width:200px; border:14px solid green;"">","null","","","","","","","","","",""
"","image-keyboard-response","196","370040","0.0-196.0","3ATPCQ38J9W4CZBEYPCK6QV8N6KYAY","A1DKR1102NZROG","3ZICQFRS3143WDVXF1P0C7ZVVO8ZZM","","41.89999997615814","img/land2.png","76","43.60000002384186","3","0","2","2","1,0.5,0.5,0.5,1,0.5,0.5,0.5,1","1,0.5,0.5,0.5,1,0.5,0.5,0.5,1","","",""
"","html-keyboard-response","197","370343","0.0-197.0","3ATPCQ38J9W4CZBEYPCK6QV8N6KYAY","A1DKR1102NZROG","3ZICQFRS3143WDVXF1P0C7ZVVO8ZZM","","null","<img src=""img/land2.png"" style=""width:200px;border:14px solid red;"">","null","","","","","","","","","",""
"","image-keyboard-response","198","370379","0.0-198.0","3ATPCQ38J9W4CZBEYPCK6QV8N6KYAY","A1DKR1102NZROG","3ZICQFRS3143WDVXF1P0C7ZVVO8ZZM","","34.700000047683716","img/land2.png","75","36","2","1","2","2","1,0.5,0.5,0.5,1,0.5,0.5,0.5,1","1,0.5,0.5,0.5,1,0.5,0.5,0.5,1","","",""
"","html-keyboard-response","199","370684","0.0-199.0","3ATPCQ38J9W4CZBEYPCK6QV8N6KYAY","A1DKR1102NZROG","3ZICQFRS3143WDVXF1P0C7ZVVO8ZZM","","null","<img src=""img/land2.png"" style=""width:200px; border:14px solid green;"">","null","","","","","","","","","",""
"","image-keyboard-response","200","370696","0.0-200.0","3ATPCQ38J9W4CZBEYPCK6QV8N6KYAY","A1DKR1102NZROG","3ZICQFRS3143WDVXF1P0C7ZVVO8ZZM","","10.799999952316284","img/land2.png","76","12.100000023841858","3","0","2","2","1,0.5,0.5,0.5,1,0.5,0.5,0.5,1","1,0.5,0.5,0.5,1,0.5,0.5,0.5,1","","",""
"","html-keyboard-response","201","371000","0.0-201.0","3ATPCQ38J9W4CZBEYPCK6QV8N6KYAY","A1DKR1102NZROG","3ZICQFRS3143WDVXF1P0C7ZVVO8ZZM","","null","<img src=""img/land2.png"" style=""width:200px;border:14px solid red;"">","null","","","","","","","","","",""
"","image-keyboard-response","202","371075","0.0-202.0","3ATPCQ38J9W4CZBEYPCK6QV8N6KYAY","A1DKR1102NZROG","3ZICQFRS3143WDVXF1P0C7ZVVO8ZZM","","73","img/land2.png","76","74.70000004768372","3","0","2","2","1,0.5,0.5,0.5,1,0.5,0.5,0.5,1","1,0.5,0.5,0.5,1,0.5,0.5,0.5,1","","",""
"","html-keyboard-response","203","371383","0.0-203.0","3ATPCQ38J9W4CZBEYPCK6QV8N6KYAY","A1DKR1102NZROG","3ZICQFRS3143WDVXF1P0C7ZVVO8ZZM","","null","<img src=""img/land2.png"" style=""width:200px;border:14px solid red;"">","null","","","","","","","","","",""
"","image-keyboard-response","204","371506","0.0-204.0","3ATPCQ38J9W4CZBEYPCK6QV8N6KYAY","A1DKR1102NZROG","3ZICQFRS3143WDVXF1P0C7ZVVO8ZZM","","120.70000004768372","img/land2.png","74","122.20000004768372","1","1","2","2","1,0.5,0.5,0.5,1,0.5,0.5,0.5,1","1,0.5,0.5,0.5,1,0.5,0.5,0.5,1","","",""
"","html-keyboard-response","205","371813","0.0-205.0","3ATPCQ38J9W4CZBEYPCK6QV8N6KYAY","A1DKR1102NZROG","3ZICQFRS3143WDVXF1P0C7ZVVO8ZZM","","null","<img src=""img/land2.png"" style=""width:200px; border:14px solid green;"">","null","","","","","","","","","",""
"","image-keyboard-response","206","372313","0.0-206.0","3ATPCQ38J9W4CZBEYPCK6QV8N6KYAY","A1DKR1102NZROG","3ZICQFRS3143WDVXF1P0C7ZVVO8ZZM","","498.2000000476837","img/land1.png","75","499.7000000476837","2","0","1","2","1,0.5,0.5,0.5,1,0.5,0.5,0.5,1","1,0.5,0.5,0.5,1,0.5,0.5,0.5,1","","",""
"","html-keyboard-response","207","372624","0.0-207.0","3ATPCQ38J9W4CZBEYPCK6QV8N6KYAY","A1DKR1102NZROG","3ZICQFRS3143WDVXF1P0C7ZVVO8ZZM","","null","<img src=""img/land1.png"" style=""width:200px;border:14px solid red;"">","null","","","","","","","","","",""
"","image-keyboard-response","208","372957","0.0-208.0","3ATPCQ38J9W4CZBEYPCK6QV8N6KYAY","A1DKR1102NZROG","3ZICQFRS3143WDVXF1P0C7ZVVO8ZZM","","331.39999997615814","img/land3.png","76","333.2000000476837","3","1","3","2","1,0.5,0.5,0.5,1,0.5,0.5,0.5,1","1,0.5,0.5,0.5,1,0.5,0.5,0.5,1","","",""
"","html-keyboard-response","209","373261","0.0-209.0","3ATPCQ38J9W4CZBEYPCK6QV8N6KYAY","A1DKR1102NZROG","3ZICQFRS3143WDVXF1P0C7ZVVO8ZZM","","null","<img src=""img/land3.png"" style=""width:200px; border:14px solid green;"">","null","","","","","","","","","",""
"","image-keyboard-response","210","373466","0.0-210.0","3ATPCQ38J9W4CZBEYPCK6QV8N6KYAY","A1DKR1102NZROG","3ZICQFRS3143WDVXF1P0C7ZVVO8ZZM","","202.39999997615814","img/land2.png","76","203.79999995231628","3","1","2","2","1,0.5,0.5,0.5,1,0.5,0.5,0.5,1","1,0.5,0.5,0.5,1,0.5,0.5,0.5,1","","",""
"","html-keyboard-response","211","373769","0.0-211.0","3ATPCQ38J9W4CZBEYPCK6QV8N6KYAY","A1DKR1102NZROG","3ZICQFRS3143WDVXF1P0C7ZVVO8ZZM","","null","<img src=""img/land2.png"" style=""width:200px; border:14px solid green;"">","null","","","","","","","","","",""
"","image-keyboard-response","212","373837","0.0-212.0","3ATPCQ38J9W4CZBEYPCK6QV8N6KYAY","A1DKR1102NZROG","3ZICQFRS3143WDVXF1P0C7ZVVO8ZZM","","66.30000007152557","img/land3.png","74","67.80000007152557","1","1","3","2","1,0.5,0.5,0.5,1,0.5,0.5,0.5,1","1,0.5,0.5,0.5,1,0.5,0.5,0.5,1","","",""
"","html-keyboard-response","213","374146","0.0-213.0","3ATPCQ38J9W4CZBEYPCK6QV8N6KYAY","A1DKR1102NZROG","3ZICQFRS3143WDVXF1P0C7ZVVO8ZZM","","null","<img src=""img/land3.png"" style=""width:200px; border:14px solid green;"">","null","","","","","","","","","",""
"","image-keyboard-response","214","374154","0.0-214.0","3ATPCQ38J9W4CZBEYPCK6QV8N6KYAY","A1DKR1102NZROG","3ZICQFRS3143WDVXF1P0C7ZVVO8ZZM","","6.899999976158142","img/land1.png","76","7.700000047683716","3","1","1","2","1,0.5,0.5,0.5,1,0.5,0.5,0.5,1","1,0.5,0.5,0.5,1,0.5,0.5,0.5,1","","",""
"","html-keyboard-response","215","374470","0.0-215.0","3ATPCQ38J9W4CZBEYPCK6QV8N6KYAY","A1DKR1102NZROG","3ZICQFRS3143WDVXF1P0C7ZVVO8ZZM","","null","<img src=""img/land1.png"" style=""width:200px; border:14px solid green;"">","null","","","","","","","","","",""
"","image-keyboard-response","216","374578","0.0-216.0","3ATPCQ38J9W4CZBEYPCK6QV8N6KYAY","A1DKR1102NZROG","3ZICQFRS3143WDVXF1P0C7ZVVO8ZZM","","106.20000004768372","img/land2.png","76","107.60000002384186","3","1","2","2","1,0.5,0.5,0.5,1,0.5,0.5,0.5,1","1,0.5,0.5,0.5,1,0.5,0.5,0.5,1","","",""
"","html-keyboard-response","217","374885","0.0-217.0","3ATPCQ38J9W4CZBEYPCK6QV8N6KYAY","A1DKR1102NZROG","3ZICQFRS3143WDVXF1P0C7ZVVO8ZZM","","null","<img src=""img/land2.png"" style=""width:200px; border:14px solid green;"">","null","","","","","","","","","",""
"","image-keyboard-response","218","375092","0.0-218.0","3ATPCQ38J9W4CZBEYPCK6QV8N6KYAY","A1DKR1102NZROG","3ZICQFRS3143WDVXF1P0C7ZVVO8ZZM","","204.60000002384186","img/land2.png","76","206.10000002384186","3","1","2","2","1,0.5,0.5,0.5,1,0.5,0.5,0.5,1","1,0.5,0.5,0.5,1,0.5,0.5,0.5,1","","",""
"","html-keyboard-response","219","375400","0.0-219.0","3ATPCQ38J9W4CZBEYPCK6QV8N6KYAY","A1DKR1102NZROG","3ZICQFRS3143WDVXF1P0C7ZVVO8ZZM","","null","<img src=""img/land2.png"" style=""width:200px; border:14px solid green;"">","null","","","","","","","","","",""
"","image-keyboard-response","220","375611","0.0-220.0","3ATPCQ38J9W4CZBEYPCK6QV8N6KYAY","A1DKR1102NZROG","3ZICQFRS3143WDVXF1P0C7ZVVO8ZZM","","209.39999997615814","img/land2.png","76","210.80000007152557","3","0","2","2","1,0.5,0.5,0.5,1,0.5,0.5,0.5,1","1,0.5,0.5,0.5,1,0.5,0.5,0.5,1","","",""
"","html-keyboard-response","221","375921","0.0-221.0","3ATPCQ38J9W4CZBEYPCK6QV8N6KYAY","A1DKR1102NZROG","3ZICQFRS3143WDVXF1P0C7ZVVO8ZZM","","null","<img src=""img/land2.png"" style=""width:200px;border:14px solid red;"">","null","","","","","","","","","",""
"","image-keyboard-response","222","376092","0.0-222.0","3ATPCQ38J9W4CZBEYPCK6QV8N6KYAY","A1DKR1102NZROG","3ZICQFRS3143WDVXF1P0C7ZVVO8ZZM","","170","img/land2.png","76","171.40000009536743","3","1","2","2","1,0.5,0.5,0.5,1,0.5,0.5,0.5,1","1,0.5,0.5,0.5,1,0.5,0.5,0.5,1","","",""
"","html-keyboard-response","223","376399","0.0-223.0","3ATPCQ38J9W4CZBEYPCK6QV8N6KYAY","A1DKR1102NZROG","3ZICQFRS3143WDVXF1P0C7ZVVO8ZZM","","null","<img src=""img/land2.png"" style=""width:200px; border:14px solid green;"">","null","","","","","","","","","",""
"","image-keyboard-response","224","376534","0.0-224.0","3ATPCQ38J9W4CZBEYPCK6QV8N6KYAY","A1DKR1102NZROG","3ZICQFRS3143WDVXF1P0C7ZVVO8ZZM","","132.5","img/land2.png","76","133.89999997615814","3","1","2","2","1,0.5,0.5,0.5,1,0.5,0.5,0.5,1","1,0.5,0.5,0.5,1,0.5,0.5,0.5,1","","",""
"","html-keyboard-response","225","376836","0.0-225.0","3ATPCQ38J9W4CZBEYPCK6QV8N6KYAY","A1DKR1102NZROG","3ZICQFRS3143WDVXF1P0C7ZVVO8ZZM","","null","<img src=""img/land2.png"" style=""width:200px; border:14px solid green;"">","null","","","","","","","","","",""
"","image-keyboard-response","226","377071","0.0-226.0","3ATPCQ38J9W4CZBEYPCK6QV8N6KYAY","A1DKR1102NZROG","3ZICQFRS3143WDVXF1P0C7ZVVO8ZZM","","233.10000002384186","img/land3.png","76","234.5","3","1","3","2","1,0.5,0.5,0.5,1,0.5,0.5,0.5,1","1,0.5,0.5,0.5,1,0.5,0.5,0.5,1","","",""
"","html-keyboard-response","227","377381","0.0-227.0","3ATPCQ38J9W4CZBEYPCK6QV8N6KYAY","A1DKR1102NZROG","3ZICQFRS3143WDVXF1P0C7ZVVO8ZZM","","null","<img src=""img/land3.png"" style=""width:200px; border:14px solid green;"">","null","","","","","","","","","",""
"","image-keyboard-response","228","377514","0.0-228.0","3ATPCQ38J9W4CZBEYPCK6QV8N6KYAY","A1DKR1102NZROG","3ZICQFRS3143WDVXF1P0C7ZVVO8ZZM","","132","img/land2.png","76","133.10000002384186","3","1","2","2","1,0.5,0.5,0.5,1,0.5,0.5,0.5,1","1,0.5,0.5,0.5,1,0.5,0.5,0.5,1","","",""
"","html-keyboard-response","229","377817","0.0-229.0","3ATPCQ38J9W4CZBEYPCK6QV8N6KYAY","A1DKR1102NZROG","3ZICQFRS3143WDVXF1P0C7ZVVO8ZZM","","null","<img src=""img/land2.png"" style=""width:200px; border:14px solid green;"">","null","","","","","","","","","",""
"","image-keyboard-response","230","378087","0.0-230.0","3ATPCQ38J9W4CZBEYPCK6QV8N6KYAY","A1DKR1102NZROG","3ZICQFRS3143WDVXF1P0C7ZVVO8ZZM","","267.5","img/land2.png","76","269","3","0","2","2","1,0.5,0.5,0.5,1,0.5,0.5,0.5,1","1,0.5,0.5,0.5,1,0.5,0.5,0.5,1","","",""
"","html-keyboard-response","231","378390","0.0-231.0","3ATPCQ38J9W4CZBEYPCK6QV8N6KYAY","A1DKR1102NZROG","3ZICQFRS3143WDVXF1P0C7ZVVO8ZZM","","null","<img src=""img/land2.png"" style=""width:200px;border:14px solid red;"">","null","","","","","","","","","",""
"","image-keyboard-response","232","378583","0.0-232.0","3ATPCQ38J9W4CZBEYPCK6QV8N6KYAY","A1DKR1102NZROG","3ZICQFRS3143WDVXF1P0C7ZVVO8ZZM","","191","img/land2.png","74","192.39999997615814","1","1","2","2","1,0.5,0.5,0.5,1,0.5,0.5,0.5,1","1,0.5,0.5,0.5,1,0.5,0.5,0.5,1","","",""
"","html-keyboard-response","233","378893","0.0-233.0","3ATPCQ38J9W4CZBEYPCK6QV8N6KYAY","A1DKR1102NZROG","3ZICQFRS3143WDVXF1P0C7ZVVO8ZZM","","null","<img src=""img/land2.png"" style=""width:200px; border:14px solid green;"">","null","","","","","","","","","",""
"","image-keyboard-response","234","378906","0.0-234.0","3ATPCQ38J9W4CZBEYPCK6QV8N6KYAY","A1DKR1102NZROG","3ZICQFRS3143WDVXF1P0C7ZVVO8ZZM","","11.5","img/land3.png","76","13.100000023841858","3","1","3","2","1,0.5,0.5,0.5,1,0.5,0.5,0.5,1","1,0.5,0.5,0.5,1,0.5,0.5,0.5,1","","",""
"","html-keyboard-response","235","379217","0.0-235.0","3ATPCQ38J9W4CZBEYPCK6QV8N6KYAY","A1DKR1102NZROG","3ZICQFRS3143WDVXF1P0C7ZVVO8ZZM","","null","<img src=""img/land3.png"" style=""width:200px; border:14px solid green;"">","null","","","","","","","","","",""
"","image-keyboard-response","236","379355","0.0-236.0","3ATPCQ38J9W4CZBEYPCK6QV8N6KYAY","A1DKR1102NZROG","3ZICQFRS3143WDVXF1P0C7ZVVO8ZZM","","136.5","img/land2.png","75","138.10000002384186","2","1","2","2","1,0.5,0.5,0.5,1,0.5,0.5,0.5,1","1,0.5,0.5,0.5,1,0.5,0.5,0.5,1","","",""
"","html-keyboard-response","237","379668","0.0-237.0","3ATPCQ38J9W4CZBEYPCK6QV8N6KYAY","A1DKR1102NZROG","3ZICQFRS3143WDVXF1P0C7ZVVO8ZZM","","null","<img src=""img/land2.png"" style=""width:200px; border:14px solid green;"">","null","","","","","","","","","",""
"","image-keyboard-response","238","379695","0.0-238.0","3ATPCQ38J9W4CZBEYPCK6QV8N6KYAY","A1DKR1102NZROG","3ZICQFRS3143WDVXF1P0C7ZVVO8ZZM","","25.300000071525574","img/land2.png","76","26.800000071525574","3","0","2","2","1,0.5,0.5,0.5,1,0.5,0.5,0.5,1","1,0.5,0.5,0.5,1,0.5,0.5,0.5,1","","",""
"","html-keyboard-response","239","380000","0.0-239.0","3ATPCQ38J9W4CZBEYPCK6QV8N6KYAY","A1DKR1102NZROG","3ZICQFRS3143WDVXF1P0C7ZVVO8ZZM","","null","<img src=""img/land2.png"" style=""width:200px;border:14px solid red;"">","null","","","","","","","","","",""
"","image-keyboard-response","240","380298","0.0-240.0","3ATPCQ38J9W4CZBEYPCK6QV8N6KYAY","A1DKR1102NZROG","3ZICQFRS3143WDVXF1P0C7ZVVO8ZZM","","296.39999997615814","img/land2.png","75","297.90000009536743","2","1","2","2","1,0.5,0.5,0.5,1,0.5,0.5,0.5,1","1,0.5,0.5,0.5,1,0.5,0.5,0.5,1","","",""
"","html-keyboard-response","241","380606","0.0-241.0","3ATPCQ38J9W4CZBEYPCK6QV8N6KYAY","A1DKR1102NZROG","3ZICQFRS3143WDVXF1P0C7ZVVO8ZZM","","null","<img src=""img/land2.png"" style=""width:200px; border:14px solid green;"">","null","","","","","","","","","",""
"","image-keyboard-response","242","380741","0.0-242.0","3ATPCQ38J9W4CZBEYPCK6QV8N6KYAY","A1DKR1102NZROG","3ZICQFRS3143WDVXF1P0C7ZVVO8ZZM","","133.69999992847443","img/land2.png","75","135.09999990463257","2","1","2","2","1,0.5,0.5,0.5,1,0.5,0.5,0.5,1","1,0.5,0.5,0.5,1,0.5,0.5,0.5,1","","",""
"","html-keyboard-response","243","381048","0.0-243.0","3ATPCQ38J9W4CZBEYPCK6QV8N6KYAY","A1DKR1102NZROG","3ZICQFRS3143WDVXF1P0C7ZVVO8ZZM","","null","<img src=""img/land2.png"" style=""width:200px; border:14px solid green;"">","null","","","","","","","","","",""
"","image-keyboard-response","244","381230","0.0-244.0","3ATPCQ38J9W4CZBEYPCK6QV8N6KYAY","A1DKR1102NZROG","3ZICQFRS3143WDVXF1P0C7ZVVO8ZZM","","180.39999997615814","img/land2.png","75","181.69999992847443","2","1","2","2","1,0.5,0.5,0.5,1,0.5,0.5,0.5,1","1,0.5,0.5,0.5,1,0.5,0.5,0.5,1","","",""
"","html-keyboard-response","245","381541","0.0-245.0","3ATPCQ38J9W4CZBEYPCK6QV8N6KYAY","A1DKR1102NZROG","3ZICQFRS3143WDVXF1P0C7ZVVO8ZZM","","null","<img src=""img/land2.png"" style=""width:200px; border:14px solid green;"">","null","","","","","","","","","",""
"","image-keyboard-response","246","381658","0.0-246.0","3ATPCQ38J9W4CZBEYPCK6QV8N6KYAY","A1DKR1102NZROG","3ZICQFRS3143WDVXF1P0C7ZVVO8ZZM","","115.10000002384186","img/land1.png","75","116.80000007152557","2","1","1","2","1,0.5,0.5,0.5,1,0.5,0.5,0.5,1","1,0.5,0.5,0.5,1,0.5,0.5,0.5,1","","",""
"","html-keyboard-response","247","381974","0.0-247.0","3ATPCQ38J9W4CZBEYPCK6QV8N6KYAY","A1DKR1102NZROG","3ZICQFRS3143WDVXF1P0C7ZVVO8ZZM","","null","<img src=""img/land1.png"" style=""width:200px; border:14px solid green;"">","null","","","","","","","","","",""
"","image-keyboard-response","248","382158","0.0-248.0","3ATPCQ38J9W4CZBEYPCK6QV8N6KYAY","A1DKR1102NZROG","3ZICQFRS3143WDVXF1P0C7ZVVO8ZZM","","181.69999992847443","img/land2.png","75","183.20000004768372","2","1","2","2","1,0.5,0.5,0.5,1,0.5,0.5,0.5,1","1,0.5,0.5,0.5,1,0.5,0.5,0.5,1","","",""
"","html-keyboard-response","249","382466","0.0-249.0","3ATPCQ38J9W4CZBEYPCK6QV8N6KYAY","A1DKR1102NZROG","3ZICQFRS3143WDVXF1P0C7ZVVO8ZZM","","null","<img src=""img/land2.png"" style=""width:200px; border:14px solid green;"">","null","","","","","","","","","",""
"","image-keyboard-response","250","382651","0.0-250.0","3ATPCQ38J9W4CZBEYPCK6QV8N6KYAY","A1DKR1102NZROG","3ZICQFRS3143WDVXF1P0C7ZVVO8ZZM","","183.80000007152557","img/land1.png","75","185.30000007152557","2","0","1","2","1,0.5,0.5,0.5,1,0.5,0.5,0.5,1","1,0.5,0.5,0.5,1,0.5,0.5,0.5,1","","",""
"","html-keyboard-response","251","382959","0.0-251.0","3ATPCQ38J9W4CZBEYPCK6QV8N6KYAY","A1DKR1102NZROG","3ZICQFRS3143WDVXF1P0C7ZVVO8ZZM","","null","<img src=""img/land1.png"" style=""width:200px;border:14px solid red;"">","null","","","","","","","","","",""
"","image-keyboard-response","252","383028","0.0-252.0","3ATPCQ38J9W4CZBEYPCK6QV8N6KYAY","A1DKR1102NZROG","3ZICQFRS3143WDVXF1P0C7ZVVO8ZZM","","67.19999992847443","img/land2.png","75","68.60000002384186","2","1","2","2","1,0.5,0.5,0.5,1,0.5,0.5,0.5,1","1,0.5,0.5,0.5,1,0.5,0.5,0.5,1","","",""
"","html-keyboard-response","253","383334","0.0-253.0","3ATPCQ38J9W4CZBEYPCK6QV8N6KYAY","A1DKR1102NZROG","3ZICQFRS3143WDVXF1P0C7ZVVO8ZZM","","null","<img src=""img/land2.png"" style=""width:200px; border:14px solid green;"">","null","","","","","","","","","",""
"","image-keyboard-response","254","383659","0.0-254.0","3ATPCQ38J9W4CZBEYPCK6QV8N6KYAY","A1DKR1102NZROG","3ZICQFRS3143WDVXF1P0C7ZVVO8ZZM","","322.7999999523163","img/land3.png","76","324.2999999523163","3","1","3","2","1,0.5,0.5,0.5,1,0.5,0.5,0.5,1","1,0.5,0.5,0.5,1,0.5,0.5,0.5,1","","",""
"","html-keyboard-response","255","383970","0.0-255.0","3ATPCQ38J9W4CZBEYPCK6QV8N6KYAY","A1DKR1102NZROG","3ZICQFRS3143WDVXF1P0C7ZVVO8ZZM","","null","<img src=""img/land3.png"" style=""width:200px; border:14px solid green;"">","null","","","","","","","","","",""
"","image-keyboard-response","256","383976","0.0-256.0","3ATPCQ38J9W4CZBEYPCK6QV8N6KYAY","A1DKR1102NZROG","3ZICQFRS3143WDVXF1P0C7ZVVO8ZZM","","4","img/land2.png","75","5.200000047683716","2","1","2","2","1,0.5,0.5,0.5,1,0.5,0.5,0.5,1","1,0.5,0.5,0.5,1,0.5,0.5,0.5,1","","",""
"","html-keyboard-response","257","384279","0.0-257.0","3ATPCQ38J9W4CZBEYPCK6QV8N6KYAY","A1DKR1102NZROG","3ZICQFRS3143WDVXF1P0C7ZVVO8ZZM","","null","<img src=""img/land2.png"" style=""width:200px; border:14px solid green;"">","null","","","","","","","","","",""
"","image-keyboard-response","258","384286","0.0-258.0","3ATPCQ38J9W4CZBEYPCK6QV8N6KYAY","A1DKR1102NZROG","3ZICQFRS3143WDVXF1P0C7ZVVO8ZZM","","5","img/land1.png","76","6.5","3","1","1","2","1,0.5,0.5,0.5,1,0.5,0.5,0.5,1","1,0.5,0.5,0.5,1,0.5,0.5,0.5,1","","",""
"","html-keyboard-response","259","384590","0.0-259.0","3ATPCQ38J9W4CZBEYPCK6QV8N6KYAY","A1DKR1102NZROG","3ZICQFRS3143WDVXF1P0C7ZVVO8ZZM","","null","<img src=""img/land1.png"" style=""width:200px; border:14px solid green;"">","null","","","","","","","","","",""
"","image-keyboard-response","260","384596","0.0-260.0","3ATPCQ38J9W4CZBEYPCK6QV8N6KYAY","A1DKR1102NZROG","3ZICQFRS3143WDVXF1P0C7ZVVO8ZZM","","4.400000095367432","img/land2.png","76","5.800000071525574","3","1","2","2","1,0.5,0.5,0.5,1,0.5,0.5,0.5,1","1,0.5,0.5,0.5,1,0.5,0.5,0.5,1","","",""
"","html-keyboard-response","261","384906","0.0-261.0","3ATPCQ38J9W4CZBEYPCK6QV8N6KYAY","A1DKR1102NZROG","3ZICQFRS3143WDVXF1P0C7ZVVO8ZZM","","null","<img src=""img/land2.png"" style=""width:200px; border:14px solid green;"">","null","","","","","","","","","",""
"","image-keyboard-response","262","384927","0.0-262.0","3ATPCQ38J9W4CZBEYPCK6QV8N6KYAY","A1DKR1102NZROG","3ZICQFRS3143WDVXF1P0C7ZVVO8ZZM","","18.899999976158142","img/land2.png","75","20.299999952316284","2","1","2","2","1,0.5,0.5,0.5,1,0.5,0.5,0.5,1","1,0.5,0.5,0.5,1,0.5,0.5,0.5,1","","",""
"","html-keyboard-response","263","385243","0.0-263.0","3ATPCQ38J9W4CZBEYPCK6QV8N6KYAY","A1DKR1102NZROG","3ZICQFRS3143WDVXF1P0C7ZVVO8ZZM","","null","<img src=""img/land2.png"" style=""width:200px; border:14px solid green;"">","null","","","","","","","","","",""
"","image-keyboard-response","264","385359","0.0-264.0","3ATPCQ38J9W4CZBEYPCK6QV8N6KYAY","A1DKR1102NZROG","3ZICQFRS3143WDVXF1P0C7ZVVO8ZZM","","113.89999997615814","img/land2.png","76","115.39999997615814","3","0","2","2","1,0.5,0.5,0.5,1,0.5,0.5,0.5,1","1,0.5,0.5,0.5,1,0.5,0.5,0.5,1","","",""
"","html-keyboard-response","265","385669","0.0-265.0","3ATPCQ38J9W4CZBEYPCK6QV8N6KYAY","A1DKR1102NZROG","3ZICQFRS3143WDVXF1P0C7ZVVO8ZZM","","null","<img src=""img/land2.png"" style=""width:200px;border:14px solid red;"">","null","","","","","","","","","",""
"","image-keyboard-response","266","385742","0.0-266.0","3ATPCQ38J9W4CZBEYPCK6QV8N6KYAY","A1DKR1102NZROG","3ZICQFRS3143WDVXF1P0C7ZVVO8ZZM","","71.10000002384186","img/land3.png","75","72.5","2","1","3","2","1,0.5,0.5,0.5,1,0.5,0.5,0.5,1","1,0.5,0.5,0.5,1,0.5,0.5,0.5,1","","",""
"","html-keyboard-response","267","386046","0.0-267.0","3ATPCQ38J9W4CZBEYPCK6QV8N6KYAY","A1DKR1102NZROG","3ZICQFRS3143WDVXF1P0C7ZVVO8ZZM","","null","<img src=""img/land3.png"" style=""width:200px; border:14px solid green;"">","null","","","","","","","","","",""
"","image-keyboard-response","268","386294","0.0-268.0","3ATPCQ38J9W4CZBEYPCK6QV8N6KYAY","A1DKR1102NZROG","3ZICQFRS3143WDVXF1P0C7ZVVO8ZZM","","246.10000002384186","img/land2.png","74","247.60000002384186","1","1","2","2","1,0.5,0.5,0.5,1,0.5,0.5,0.5,1","1,0.5,0.5,0.5,1,0.5,0.5,0.5,1","","",""
"","html-keyboard-response","269","386607","0.0-269.0","3ATPCQ38J9W4CZBEYPCK6QV8N6KYAY","A1DKR1102NZROG","3ZICQFRS3143WDVXF1P0C7ZVVO8ZZM","","null","<img src=""img/land2.png"" style=""width:200px; border:14px solid green;"">","null","","","","","","","","","",""
"","image-keyboard-response","270","386828","0.0-270.0","3ATPCQ38J9W4CZBEYPCK6QV8N6KYAY","A1DKR1102NZROG","3ZICQFRS3143WDVXF1P0C7ZVVO8ZZM","","219.39999997615814","img/land1.png","76","220.90000009536743","3","1","1","2","1,0.5,0.5,0.5,1,0.5,0.5,0.5,1","1,0.5,0.5,0.5,1,0.5,0.5,0.5,1","","",""
"","html-keyboard-response","271","387131","0.0-271.0","3ATPCQ38J9W4CZBEYPCK6QV8N6KYAY","A1DKR1102NZROG","3ZICQFRS3143WDVXF1P0C7ZVVO8ZZM","","null","<img src=""img/land1.png"" style=""width:200px; border:14px solid green;"">","null","","","","","","","","","",""
"","image-keyboard-response","272","387243","0.0-272.0","3ATPCQ38J9W4CZBEYPCK6QV8N6KYAY","A1DKR1102NZROG","3ZICQFRS3143WDVXF1P0C7ZVVO8ZZM","","110.20000004768372","img/land2.png","75","111.69999992847443","2","1","2","2","1,0.5,0.5,0.5,1,0.5,0.5,0.5,1","1,0.5,0.5,0.5,1,0.5,0.5,0.5,1","","",""
"","html-keyboard-response","273","387548","0.0-273.0","3ATPCQ38J9W4CZBEYPCK6QV8N6KYAY","A1DKR1102NZROG","3ZICQFRS3143WDVXF1P0C7ZVVO8ZZM","","null","<img src=""img/land2.png"" style=""width:200px; border:14px solid green;"">","null","","","","","","","","","",""
"","image-keyboard-response","274","387580","0.0-274.0","3ATPCQ38J9W4CZBEYPCK6QV8N6KYAY","A1DKR1102NZROG","3ZICQFRS3143WDVXF1P0C7ZVVO8ZZM","","29.899999976158142","img/land2.png","74","31.399999976158142","1","1","2","2","1,0.5,0.5,0.5,1,0.5,0.5,0.5,1","1,0.5,0.5,0.5,1,0.5,0.5,0.5,1","","",""
"","html-keyboard-response","275","387882","0.0-275.0","3ATPCQ38J9W4CZBEYPCK6QV8N6KYAY","A1DKR1102NZROG","3ZICQFRS3143WDVXF1P0C7ZVVO8ZZM","","null","<img src=""img/land2.png"" style=""width:200px; border:14px solid green;"">","null","","","","","","","","","",""
"","image-keyboard-response","276","388011","0.0-276.0","3ATPCQ38J9W4CZBEYPCK6QV8N6KYAY","A1DKR1102NZROG","3ZICQFRS3143WDVXF1P0C7ZVVO8ZZM","","127.30000007152557","img/land2.png","74","128.60000002384186","1","1","2","2","1,0.5,0.5,0.5,1,0.5,0.5,0.5,1","1,0.5,0.5,0.5,1,0.5,0.5,0.5,1","","",""
"","html-keyboard-response","277","388317","0.0-277.0","3ATPCQ38J9W4CZBEYPCK6QV8N6KYAY","A1DKR1102NZROG","3ZICQFRS3143WDVXF1P0C7ZVVO8ZZM","","null","<img src=""img/land2.png"" style=""width:200px; border:14px solid green;"">","null","","","","","","","","","",""
"","image-keyboard-response","278","388530","0.0-278.0","3ATPCQ38J9W4CZBEYPCK6QV8N6KYAY","A1DKR1102NZROG","3ZICQFRS3143WDVXF1P0C7ZVVO8ZZM","","211.29999995231628","img/land1.png","76","212.69999992847443","3","1","1","2","1,0.5,0.5,0.5,1,0.5,0.5,0.5,1","1,0.5,0.5,0.5,1,0.5,0.5,0.5,1","","",""
"","html-keyboard-response","279","388842","0.0-279.0","3ATPCQ38J9W4CZBEYPCK6QV8N6KYAY","A1DKR1102NZROG","3ZICQFRS3143WDVXF1P0C7ZVVO8ZZM","","null","<img src=""img/land1.png"" style=""width:200px; border:14px solid green;"">","null","","","","","","","","","",""
"","image-keyboard-response","280","388858","0.0-280.0","3ATPCQ38J9W4CZBEYPCK6QV8N6KYAY","A1DKR1102NZROG","3ZICQFRS3143WDVXF1P0C7ZVVO8ZZM","","14.300000071525574","img/land2.png","75","15.799999952316284","2","1","2","2","1,0.5,0.5,0.5,1,0.5,0.5,0.5,1","1,0.5,0.5,0.5,1,0.5,0.5,0.5,1","","",""
"","html-keyboard-response","281","389161","0.0-281.0","3ATPCQ38J9W4CZBEYPCK6QV8N6KYAY","A1DKR1102NZROG","3ZICQFRS3143WDVXF1P0C7ZVVO8ZZM","","null","<img src=""img/land2.png"" style=""width:200px; border:14px solid green;"">","null","","","","","","","","","",""
"","image-keyboard-response","282","389375","0.0-282.0","3ATPCQ38J9W4CZBEYPCK6QV8N6KYAY","A1DKR1102NZROG","3ZICQFRS3143WDVXF1P0C7ZVVO8ZZM","","211.60000002384186","img/land2.png","75","213.10000002384186","2","1","2","2","1,0.5,0.5,0.5,1,0.5,0.5,0.5,1","1,0.5,0.5,0.5,1,0.5,0.5,0.5,1","","",""
"","html-keyboard-response","283","389677","0.0-283.0","3ATPCQ38J9W4CZBEYPCK6QV8N6KYAY","A1DKR1102NZROG","3ZICQFRS3143WDVXF1P0C7ZVVO8ZZM","","null","<img src=""img/land2.png"" style=""width:200px; border:14px solid green;"">","null","","","","","","","","","",""
"","image-keyboard-response","284","389700","0.0-284.0","3ATPCQ38J9W4CZBEYPCK6QV8N6KYAY","A1DKR1102NZROG","3ZICQFRS3143WDVXF1P0C7ZVVO8ZZM","","20.700000047683716","img/land1.png","76","22.200000047683716","3","0","1","2","1,0.5,0.5,0.5,1,0.5,0.5,0.5,1","1,0.5,0.5,0.5,1,0.5,0.5,0.5,1","","",""
"","html-keyboard-response","285","390003","0.0-285.0","3ATPCQ38J9W4CZBEYPCK6QV8N6KYAY","A1DKR1102NZROG","3ZICQFRS3143WDVXF1P0C7ZVVO8ZZM","","null","<img src=""img/land1.png"" style=""width:200px;border:14px solid red;"">","null","","","","","","","","","",""
"","image-keyboard-response","286","390208","0.0-286.0","3ATPCQ38J9W4CZBEYPCK6QV8N6KYAY","A1DKR1102NZROG","3ZICQFRS3143WDVXF1P0C7ZVVO8ZZM","","203.60000002384186","img/land3.png","76","205","3","1","3","2","1,0.5,0.5,0.5,1,0.5,0.5,0.5,1","1,0.5,0.5,0.5,1,0.5,0.5,0.5,1","","",""
"","html-keyboard-response","287","390512","0.0-287.0","3ATPCQ38J9W4CZBEYPCK6QV8N6KYAY","A1DKR1102NZROG","3ZICQFRS3143WDVXF1P0C7ZVVO8ZZM","","null","<img src=""img/land3.png"" style=""width:200px; border:14px solid green;"">","null","","","","","","","","","",""
"","image-keyboard-response","288","390601","0.0-288.0","3ATPCQ38J9W4CZBEYPCK6QV8N6KYAY","A1DKR1102NZROG","3ZICQFRS3143WDVXF1P0C7ZVVO8ZZM","","88.29999995231628","img/land2.png","76","89.39999997615814","3","0","2","2","1,0.5,0.5,0.5,1,0.5,0.5,0.5,1","1,0.5,0.5,0.5,1,0.5,0.5,0.5,1","","",""
"","html-keyboard-response","289","390906","0.0-289.0","3ATPCQ38J9W4CZBEYPCK6QV8N6KYAY","A1DKR1102NZROG","3ZICQFRS3143WDVXF1P0C7ZVVO8ZZM","","null","<img src=""img/land2.png"" style=""width:200px;border:14px solid red;"">","null","","","","","","","","","",""
"","image-keyboard-response","290","391011","0.0-290.0","3ATPCQ38J9W4CZBEYPCK6QV8N6KYAY","A1DKR1102NZROG","3ZICQFRS3143WDVXF1P0C7ZVVO8ZZM","","103.5","img/land2.png","76","104.89999997615814","3","1","2","2","1,0.5,0.5,0.5,1,0.5,0.5,0.5,1","1,0.5,0.5,0.5,1,0.5,0.5,0.5,1","","",""
"","html-keyboard-response","291","391326","0.0-291.0","3ATPCQ38J9W4CZBEYPCK6QV8N6KYAY","A1DKR1102NZROG","3ZICQFRS3143WDVXF1P0C7ZVVO8ZZM","","null","<img src=""img/land2.png"" style=""width:200px; border:14px solid green;"">","null","","","","","","","","","",""
"","image-keyboard-response","292","391628","0.0-292.0","3ATPCQ38J9W4CZBEYPCK6QV8N6KYAY","A1DKR1102NZROG","3ZICQFRS3143WDVXF1P0C7ZVVO8ZZM","","300.2999999523163","img/land1.png","74","301.39999997615814","1","1","1","2","1,0.5,0.5,0.5,1,0.5,0.5,0.5,1","1,0.5,0.5,0.5,1,0.5,0.5,0.5,1","","",""
"","html-keyboard-response","293","391942","0.0-293.0","3ATPCQ38J9W4CZBEYPCK6QV8N6KYAY","A1DKR1102NZROG","3ZICQFRS3143WDVXF1P0C7ZVVO8ZZM","","null","<img src=""img/land1.png"" style=""width:200px; border:14px solid green;"">","null","","","","","","","","","",""
"","image-keyboard-response","294","392012","0.0-294.0","3ATPCQ38J9W4CZBEYPCK6QV8N6KYAY","A1DKR1102NZROG","3ZICQFRS3143WDVXF1P0C7ZVVO8ZZM","","68","img/land1.png","76","69.10000002384186","3","1","1","2","1,0.5,0.5,0.5,1,0.5,0.5,0.5,1","1,0.5,0.5,0.5,1,0.5,0.5,0.5,1","","",""
"","html-keyboard-response","295","392329","0.0-295.0","3ATPCQ38J9W4CZBEYPCK6QV8N6KYAY","A1DKR1102NZROG","3ZICQFRS3143WDVXF1P0C7ZVVO8ZZM","","null","<img src=""img/land1.png"" style=""width:200px; border:14px solid green;"">","null","","","","","","","","","",""
"","image-keyboard-response","296","392505","0.0-296.0","3ATPCQ38J9W4CZBEYPCK6QV8N6KYAY","A1DKR1102NZROG","3ZICQFRS3143WDVXF1P0C7ZVVO8ZZM","","173.80000007152557","img/land2.png","76","175.5","3","0","2","2","1,0.5,0.5,0.5,1,0.5,0.5,0.5,1","1,0.5,0.5,0.5,1,0.5,0.5,0.5,1","","",""
"","html-keyboard-response","297","392815","0.0-297.0","3ATPCQ38J9W4CZBEYPCK6QV8N6KYAY","A1DKR1102NZROG","3ZICQFRS3143WDVXF1P0C7ZVVO8ZZM","","null","<img src=""img/land2.png"" style=""width:200px;border:14px solid red;"">","null","","","","","","","","","",""
"","image-keyboard-response","298","393083","0.0-298.0","3ATPCQ38J9W4CZBEYPCK6QV8N6KYAY","A1DKR1102NZROG","3ZICQFRS3143WDVXF1P0C7ZVVO8ZZM","","266.7999999523163","img/land2.png","74","268.1999999284744","1","0","2","2","1,0.5,0.5,0.5,1,0.5,0.5,0.5,1","1,0.5,0.5,0.5,1,0.5,0.5,0.5,1","","",""
"","html-keyboard-response","299","393387","0.0-299.0","3ATPCQ38J9W4CZBEYPCK6QV8N6KYAY","A1DKR1102NZROG","3ZICQFRS3143WDVXF1P0C7ZVVO8ZZM","","null","<img src=""img/land2.png"" style=""width:200px;border:14px solid red;"">","null","","","","","","","","","",""
"","image-keyboard-response","300","393551","0.0-300.0","3ATPCQ38J9W4CZBEYPCK6QV8N6KYAY","A1DKR1102NZROG","3ZICQFRS3143WDVXF1P0C7ZVVO8ZZM","","161.70000004768372","img/land2.png","75","163.40000009536743","2","1","2","2","1,0.5,0.5,0.5,1,0.5,0.5,0.5,1","1,0.5,0.5,0.5,1,0.5,0.5,0.5,1","","",""
"","html-keyboard-response","301","393862","0.0-301.0","3ATPCQ38J9W4CZBEYPCK6QV8N6KYAY","A1DKR1102NZROG","3ZICQFRS3143WDVXF1P0C7ZVVO8ZZM","","null","<img src=""img/land2.png"" style=""width:200px; border:14px solid green;"">","null","","","","","","","","","",""
"","html-keyboard-response","302","398853","0.0-302.0","3ATPCQ38J9W4CZBEYPCK6QV8N6KYAY","A1DKR1102NZROG","3ZICQFRS3143WDVXF1P0C7ZVVO8ZZM","","","","","","","","","","","","","",""
"","image-keyboard-response","303","399601","0.0-303.0","3ATPCQ38J9W4CZBEYPCK6QV8N6KYAY","A1DKR1102NZROG","3ZICQFRS3143WDVXF1P0C7ZVVO8ZZM","","746","img/land4.png","75","747.4000000953674","2","0","1","2","1,0.5,0.5,0.5,1,0.5,0.5,0.5,1","1,0.5,0.5,0.5,1,0.5,0.5,0.5,1","","",""
"","html-keyboard-response","304","399906","0.0-304.0","3ATPCQ38J9W4CZBEYPCK6QV8N6KYAY","A1DKR1102NZROG","3ZICQFRS3143WDVXF1P0C7ZVVO8ZZM","","null","<img src=""img/land4.png"" style=""width:200px;border:14px solid red;"">","null","","","","","","","","","",""
"","image-keyboard-response","305","400402","0.0-305.0","3ATPCQ38J9W4CZBEYPCK6QV8N6KYAY","A1DKR1102NZROG","3ZICQFRS3143WDVXF1P0C7ZVVO8ZZM","","493.39999997615814","img/land5.png","74","495.39999997615814","1","0","2","2","1,0.5,0.5,0.5,1,0.5,0.5,0.5,1","1,0.5,0.5,0.5,1,0.5,0.5,0.5,1","","",""
"","html-keyboard-response","306","400707","0.0-306.0","3ATPCQ38J9W4CZBEYPCK6QV8N6KYAY","A1DKR1102NZROG","3ZICQFRS3143WDVXF1P0C7ZVVO8ZZM","","null","<img src=""img/land5.png"" style=""width:200px;border:14px solid red;"">","null","","","","","","","","","",""
"","image-keyboard-response","307","401043","0.0-307.0","3ATPCQ38J9W4CZBEYPCK6QV8N6KYAY","A1DKR1102NZROG","3ZICQFRS3143WDVXF1P0C7ZVVO8ZZM","","334","img/land5.png","75","335.7999999523163","2","1","2","2","1,0.5,0.5,0.5,1,0.5,0.5,0.5,1","1,0.5,0.5,0.5,1,0.5,0.5,0.5,1","","",""
"","html-keyboard-response","308","401354","0.0-308.0","3ATPCQ38J9W4CZBEYPCK6QV8N6KYAY","A1DKR1102NZROG","3ZICQFRS3143WDVXF1P0C7ZVVO8ZZM","","null","<img src=""img/land5.png"" style=""width:200px; border:14px solid green;"">","null","","","","","","","","","",""
"","image-keyboard-response","309","401422","0.0-309.0","3ATPCQ38J9W4CZBEYPCK6QV8N6KYAY","A1DKR1102NZROG","3ZICQFRS3143WDVXF1P0C7ZVVO8ZZM","","65.5","img/land5.png","76","66.90000009536743","3","1","2","2","1,0.5,0.5,0.5,1,0.5,0.5,0.5,1","1,0.5,0.5,0.5,1,0.5,0.5,0.5,1","","",""
"","html-keyboard-response","310","401738","0.0-310.0","3ATPCQ38J9W4CZBEYPCK6QV8N6KYAY","A1DKR1102NZROG","3ZICQFRS3143WDVXF1P0C7ZVVO8ZZM","","null","<img src=""img/land5.png"" style=""width:200px; border:14px solid green;"">","null","","","","","","","","","",""
"","image-keyboard-response","311","401960","0.0-311.0","3ATPCQ38J9W4CZBEYPCK6QV8N6KYAY","A1DKR1102NZROG","3ZICQFRS3143WDVXF1P0C7ZVVO8ZZM","","220.30000007152557","img/land4.png","76","222","3","1","1","2","1,0.5,0.5,0.5,1,0.5,0.5,0.5,1","1,0.5,0.5,0.5,1,0.5,0.5,0.5,1","","",""
"","html-keyboard-response","312","402265","0.0-312.0","3ATPCQ38J9W4CZBEYPCK6QV8N6KYAY","A1DKR1102NZROG","3ZICQFRS3143WDVXF1P0C7ZVVO8ZZM","","null","<img src=""img/land4.png"" style=""width:200px; border:14px solid green;"">","null","","","","","","","","","",""
"","image-keyboard-response","313","402557","0.0-313.0","3ATPCQ38J9W4CZBEYPCK6QV8N6KYAY","A1DKR1102NZROG","3ZICQFRS3143WDVXF1P0C7ZVVO8ZZM","","290.89999997615814","img/land6.png","76","291.60000002384186","3","1","3","2","1,0.5,0.5,0.5,1,0.5,0.5,0.5,1","1,0.5,0.5,0.5,1,0.5,0.5,0.5,1","","",""
"","html-keyboard-response","314","402870","0.0-314.0","3ATPCQ38J9W4CZBEYPCK6QV8N6KYAY","A1DKR1102NZROG","3ZICQFRS3143WDVXF1P0C7ZVVO8ZZM","","null","<img src=""img/land6.png"" style=""width:200px; border:14px solid green;"">","null","","","","","","","","","",""
"","image-keyboard-response","315","403026","0.0-315.0","3ATPCQ38J9W4CZBEYPCK6QV8N6KYAY","A1DKR1102NZROG","3ZICQFRS3143WDVXF1P0C7ZVVO8ZZM","","153.90000009536743","img/land5.png","76","155.30000007152557","3","0","2","2","1,0.5,0.5,0.5,1,0.5,0.5,0.5,1","1,0.5,0.5,0.5,1,0.5,0.5,0.5,1","","",""
"","html-keyboard-response","316","403334","0.0-316.0","3ATPCQ38J9W4CZBEYPCK6QV8N6KYAY","A1DKR1102NZROG","3ZICQFRS3143WDVXF1P0C7ZVVO8ZZM","","null","<img src=""img/land5.png"" style=""width:200px;border:14px solid red;"">","null","","","","","","","","","",""
"","image-keyboard-response","317","403485","0.0-317.0","3ATPCQ38J9W4CZBEYPCK6QV8N6KYAY","A1DKR1102NZROG","3ZICQFRS3143WDVXF1P0C7ZVVO8ZZM","","147.39999997615814","img/land5.png","74","149.10000002384186","1","1","2","2","1,0.5,0.5,0.5,1,0.5,0.5,0.5,1","1,0.5,0.5,0.5,1,0.5,0.5,0.5,1","","",""
"","html-keyboard-response","318","403802","0.0-318.0","3ATPCQ38J9W4CZBEYPCK6QV8N6KYAY","A1DKR1102NZROG","3ZICQFRS3143WDVXF1P0C7ZVVO8ZZM","","null","<img src=""img/land5.png"" style=""width:200px; border:14px solid green;"">","null","","","","","","","","","",""
"","image-keyboard-response","319","403983","0.0-319.0","3ATPCQ38J9W4CZBEYPCK6QV8N6KYAY","A1DKR1102NZROG","3ZICQFRS3143WDVXF1P0C7ZVVO8ZZM","","179.89999997615814","img/land6.png","76","181.29999995231628","3","1","3","2","1,0.5,0.5,0.5,1,0.5,0.5,0.5,1","1,0.5,0.5,0.5,1,0.5,0.5,0.5,1","","",""
"","html-keyboard-response","320","404293","0.0-320.0","3ATPCQ38J9W4CZBEYPCK6QV8N6KYAY","A1DKR1102NZROG","3ZICQFRS3143WDVXF1P0C7ZVVO8ZZM","","null","<img src=""img/land6.png"" style=""width:200px; border:14px solid green;"">","null","","","","","","","","","",""
"","image-keyboard-response","321","404564","0.0-321.0","3ATPCQ38J9W4CZBEYPCK6QV8N6KYAY","A1DKR1102NZROG","3ZICQFRS3143WDVXF1P0C7ZVVO8ZZM","","268.7999999523163","img/land6.png","76","270.1999999284744","3","1","3","2","1,0.5,0.5,0.5,1,0.5,0.5,0.5,1","1,0.5,0.5,0.5,1,0.5,0.5,0.5,1","","",""
"","html-keyboard-response","322","404878","0.0-322.0","3ATPCQ38J9W4CZBEYPCK6QV8N6KYAY","A1DKR1102NZROG","3ZICQFRS3143WDVXF1P0C7ZVVO8ZZM","","null","<img src=""img/land6.png"" style=""width:200px; border:14px solid green;"">","null","","","","","","","","","",""
"","image-keyboard-response","323","405116","0.0-323.0","3ATPCQ38J9W4CZBEYPCK6QV8N6KYAY","A1DKR1102NZROG","3ZICQFRS3143WDVXF1P0C7ZVVO8ZZM","","235.29999995231628","img/land6.png","75","236.89999997615814","2","0","3","2","1,0.5,0.5,0.5,1,0.5,0.5,0.5,1","1,0.5,0.5,0.5,1,0.5,0.5,0.5,1","","",""
"","html-keyboard-response","324","405423","0.0-324.0","3ATPCQ38J9W4CZBEYPCK6QV8N6KYAY","A1DKR1102NZROG","3ZICQFRS3143WDVXF1P0C7ZVVO8ZZM","","null","<img src=""img/land6.png"" style=""width:200px;border:14px solid red;"">","null","","","","","","","","","",""
"","image-keyboard-response","325","405583","0.0-325.0","3ATPCQ38J9W4CZBEYPCK6QV8N6KYAY","A1DKR1102NZROG","3ZICQFRS3143WDVXF1P0C7ZVVO8ZZM","","158.5","img/land5.png","74","160.20000004768372","1","1","2","2","1,0.5,0.5,0.5,1,0.5,0.5,0.5,1","1,0.5,0.5,0.5,1,0.5,0.5,0.5,1","","",""
"","html-keyboard-response","326","405889","0.0-326.0","3ATPCQ38J9W4CZBEYPCK6QV8N6KYAY","A1DKR1102NZROG","3ZICQFRS3143WDVXF1P0C7ZVVO8ZZM","","null","<img src=""img/land5.png"" style=""width:200px; border:14px solid green;"">","null","","","","","","","","","",""
"","image-keyboard-response","327","406088","0.0-327.0","3ATPCQ38J9W4CZBEYPCK6QV8N6KYAY","A1DKR1102NZROG","3ZICQFRS3143WDVXF1P0C7ZVVO8ZZM","","196.60000002384186","img/land6.png","76","198.09999990463257","3","1","3","2","1,0.5,0.5,0.5,1,0.5,0.5,0.5,1","1,0.5,0.5,0.5,1,0.5,0.5,0.5,1","","",""
"","html-keyboard-response","328","406394","0.0-328.0","3ATPCQ38J9W4CZBEYPCK6QV8N6KYAY","A1DKR1102NZROG","3ZICQFRS3143WDVXF1P0C7ZVVO8ZZM","","null","<img src=""img/land6.png"" style=""width:200px; border:14px solid green;"">","null","","","","","","","","","",""
"","image-keyboard-response","329","406672","0.0-329.0","3ATPCQ38J9W4CZBEYPCK6QV8N6KYAY","A1DKR1102NZROG","3ZICQFRS3143WDVXF1P0C7ZVVO8ZZM","","276","img/land6.png","75","277.60000002384186","2","0","3","2","1,0.5,0.5,0.5,1,0.5,0.5,0.5,1","1,0.5,0.5,0.5,1,0.5,0.5,0.5,1","","",""
"","html-keyboard-response","330","406980","0.0-330.0","3ATPCQ38J9W4CZBEYPCK6QV8N6KYAY","A1DKR1102NZROG","3ZICQFRS3143WDVXF1P0C7ZVVO8ZZM","","null","<img src=""img/land6.png"" style=""width:200px;border:14px solid red;"">","null","","","","","","","","","",""
"","image-keyboard-response","331","407119","0.0-331.0","3ATPCQ38J9W4CZBEYPCK6QV8N6KYAY","A1DKR1102NZROG","3ZICQFRS3143WDVXF1P0C7ZVVO8ZZM","","137.19999992847443","img/land6.png","76","139.09999990463257","3","1","3","2","1,0.5,0.5,0.5,1,0.5,0.5,0.5,1","1,0.5,0.5,0.5,1,0.5,0.5,0.5,1","","",""
"","html-keyboard-response","332","407424","0.0-332.0","3ATPCQ38J9W4CZBEYPCK6QV8N6KYAY","A1DKR1102NZROG","3ZICQFRS3143WDVXF1P0C7ZVVO8ZZM","","null","<img src=""img/land6.png"" style=""width:200px; border:14px solid green;"">","null","","","","","","","","","",""
"","image-keyboard-response","333","407644","0.0-333.0","3ATPCQ38J9W4CZBEYPCK6QV8N6KYAY","A1DKR1102NZROG","3ZICQFRS3143WDVXF1P0C7ZVVO8ZZM","","218.39999997615814","img/land4.png","76","220","3","1","1","2","1,0.5,0.5,0.5,1,0.5,0.5,0.5,1","1,0.5,0.5,0.5,1,0.5,0.5,0.5,1","","",""
"","html-keyboard-response","334","407955","0.0-334.0","3ATPCQ38J9W4CZBEYPCK6QV8N6KYAY","A1DKR1102NZROG","3ZICQFRS3143WDVXF1P0C7ZVVO8ZZM","","null","<img src=""img/land4.png"" style=""width:200px; border:14px solid green;"">","null","","","","","","","","","",""
"","image-keyboard-response","335","408085","0.0-335.0","3ATPCQ38J9W4CZBEYPCK6QV8N6KYAY","A1DKR1102NZROG","3ZICQFRS3143WDVXF1P0C7ZVVO8ZZM","","128.30000007152557","img/land4.png","76","129.79999995231628","3","0","1","2","1,0.5,0.5,0.5,1,0.5,0.5,0.5,1","1,0.5,0.5,0.5,1,0.5,0.5,0.5,1","","",""
"","html-keyboard-response","336","408402","0.0-336.0","3ATPCQ38J9W4CZBEYPCK6QV8N6KYAY","A1DKR1102NZROG","3ZICQFRS3143WDVXF1P0C7ZVVO8ZZM","","null","<img src=""img/land4.png"" style=""width:200px;border:14px solid red;"">","null","","","","","","","","","",""
"","image-keyboard-response","337","408433","0.0-337.0","3ATPCQ38J9W4CZBEYPCK6QV8N6KYAY","A1DKR1102NZROG","3ZICQFRS3143WDVXF1P0C7ZVVO8ZZM","","29","img/land5.png","74","30.399999976158142","1","0","2","2","1,0.5,0.5,0.5,1,0.5,0.5,0.5,1","1,0.5,0.5,0.5,1,0.5,0.5,0.5,1","","",""
"","html-keyboard-response","338","408741","0.0-338.0","3ATPCQ38J9W4CZBEYPCK6QV8N6KYAY","A1DKR1102NZROG","3ZICQFRS3143WDVXF1P0C7ZVVO8ZZM","","null","<img src=""img/land5.png"" style=""width:200px;border:14px solid red;"">","null","","","","","","","","","",""
"","image-keyboard-response","339","408945","0.0-339.0","3ATPCQ38J9W4CZBEYPCK6QV8N6KYAY","A1DKR1102NZROG","3ZICQFRS3143WDVXF1P0C7ZVVO8ZZM","","202","img/land5.png","75","203.70000004768372","2","1","2","2","1,0.5,0.5,0.5,1,0.5,0.5,0.5,1","1,0.5,0.5,0.5,1,0.5,0.5,0.5,1","","",""
"","html-keyboard-response","340","409260","0.0-340.0","3ATPCQ38J9W4CZBEYPCK6QV8N6KYAY","A1DKR1102NZROG","3ZICQFRS3143WDVXF1P0C7ZVVO8ZZM","","null","<img src=""img/land5.png"" style=""width:200px; border:14px solid green;"">","null","","","","","","","","","",""
"","image-keyboard-response","341","409434","0.0-341.0","3ATPCQ38J9W4CZBEYPCK6QV8N6KYAY","A1DKR1102NZROG","3ZICQFRS3143WDVXF1P0C7ZVVO8ZZM","","172","img/land4.png","75","173.79999995231628","2","0","1","2","1,0.5,0.5,0.5,1,0.5,0.5,0.5,1","1,0.5,0.5,0.5,1,0.5,0.5,0.5,1","","",""
"","html-keyboard-response","342","409741","0.0-342.0","3ATPCQ38J9W4CZBEYPCK6QV8N6KYAY","A1DKR1102NZROG","3ZICQFRS3143WDVXF1P0C7ZVVO8ZZM","","null","<img src=""img/land4.png"" style=""width:200px;border:14px solid red;"">","null","","","","","","","","","",""
"","image-keyboard-response","343","409965","0.0-343.0","3ATPCQ38J9W4CZBEYPCK6QV8N6KYAY","A1DKR1102NZROG","3ZICQFRS3143WDVXF1P0C7ZVVO8ZZM","","222","img/land6.png","74","223.5","1","0","3","2","1,0.5,0.5,0.5,1,0.5,0.5,0.5,1","1,0.5,0.5,0.5,1,0.5,0.5,0.5,1","","",""
"","html-keyboard-response","344","410276","0.0-344.0","3ATPCQ38J9W4CZBEYPCK6QV8N6KYAY","A1DKR1102NZROG","3ZICQFRS3143WDVXF1P0C7ZVVO8ZZM","","null","<img src=""img/land6.png"" style=""width:200px;border:14px solid red;"">","null","","","","","","","","","",""
"","image-keyboard-response","345","410338","0.0-345.0","3ATPCQ38J9W4CZBEYPCK6QV8N6KYAY","A1DKR1102NZROG","3ZICQFRS3143WDVXF1P0C7ZVVO8ZZM","","59.89999997615814","img/land5.png","76","61.199999928474426","3","0","2","2","1,0.5,0.5,0.5,1,0.5,0.5,0.5,1","1,0.5,0.5,0.5,1,0.5,0.5,0.5,1","","",""
"","html-keyboard-response","346","410646","0.0-346.0","3ATPCQ38J9W4CZBEYPCK6QV8N6KYAY","A1DKR1102NZROG","3ZICQFRS3143WDVXF1P0C7ZVVO8ZZM","","null","<img src=""img/land5.png"" style=""width:200px;border:14px solid red;"">","null","","","","","","","","","",""
"","image-keyboard-response","347","410897","0.0-347.0","3ATPCQ38J9W4CZBEYPCK6QV8N6KYAY","A1DKR1102NZROG","3ZICQFRS3143WDVXF1P0C7ZVVO8ZZM","","249.60000002384186","img/land6.png","76","251.20000004768372","3","1","3","2","1,0.5,0.5,0.5,1,0.5,0.5,0.5,1","1,0.5,0.5,0.5,1,0.5,0.5,0.5,1","","",""
"","html-keyboard-response","348","411203","0.0-348.0","3ATPCQ38J9W4CZBEYPCK6QV8N6KYAY","A1DKR1102NZROG","3ZICQFRS3143WDVXF1P0C7ZVVO8ZZM","","null","<img src=""img/land6.png"" style=""width:200px; border:14px solid green;"">","null","","","","","","","","","",""
"","image-keyboard-response","349","411256","0.0-349.0","3ATPCQ38J9W4CZBEYPCK6QV8N6KYAY","A1DKR1102NZROG","3ZICQFRS3143WDVXF1P0C7ZVVO8ZZM","","50.799999952316284","img/land5.png","76","52.200000047683716","3","0","2","2","1,0.5,0.5,0.5,1,0.5,0.5,0.5,1","1,0.5,0.5,0.5,1,0.5,0.5,0.5,1","","",""
"","html-keyboard-response","350","411563","0.0-350.0","3ATPCQ38J9W4CZBEYPCK6QV8N6KYAY","A1DKR1102NZROG","3ZICQFRS3143WDVXF1P0C7ZVVO8ZZM","","null","<img src=""img/land5.png"" style=""width:200px;border:14px solid red;"">","null","","","","","","","","","",""
"","image-keyboard-response","351","411623","0.0-351.0","3ATPCQ38J9W4CZBEYPCK6QV8N6KYAY","A1DKR1102NZROG","3ZICQFRS3143WDVXF1P0C7ZVVO8ZZM","","58.90000009536743","img/land5.png","76","60.300000071525574","3","1","2","2","1,0.5,0.5,0.5,1,0.5,0.5,0.5,1","1,0.5,0.5,0.5,1,0.5,0.5,0.5,1","","",""
"","html-keyboard-response","352","411928","0.0-352.0","3ATPCQ38J9W4CZBEYPCK6QV8N6KYAY","A1DKR1102NZROG","3ZICQFRS3143WDVXF1P0C7ZVVO8ZZM","","null","<img src=""img/land5.png"" style=""width:200px; border:14px solid green;"">","null","","","","","","","","","",""
"","image-keyboard-response","353","412000","0.0-353.0","3ATPCQ38J9W4CZBEYPCK6QV8N6KYAY","A1DKR1102NZROG","3ZICQFRS3143WDVXF1P0C7ZVVO8ZZM","","70","img/land5.png","74","71.79999995231628","1","0","2","2","1,0.5,0.5,0.5,1,0.5,0.5,0.5,1","1,0.5,0.5,0.5,1,0.5,0.5,0.5,1","","",""
"","html-keyboard-response","354","412310","0.0-354.0","3ATPCQ38J9W4CZBEYPCK6QV8N6KYAY","A1DKR1102NZROG","3ZICQFRS3143WDVXF1P0C7ZVVO8ZZM","","null","<img src=""img/land5.png"" style=""width:200px;border:14px solid red;"">","null","","","","","","","","","",""
"","image-keyboard-response","355","412497","0.0-355.0","3ATPCQ38J9W4CZBEYPCK6QV8N6KYAY","A1DKR1102NZROG","3ZICQFRS3143WDVXF1P0C7ZVVO8ZZM","","185.10000002384186","img/land4.png","75","186.70000004768372","2","1","1","2","1,0.5,0.5,0.5,1,0.5,0.5,0.5,1","1,0.5,0.5,0.5,1,0.5,0.5,0.5,1","","",""
"","html-keyboard-response","356","412800","0.0-356.0","3ATPCQ38J9W4CZBEYPCK6QV8N6KYAY","A1DKR1102NZROG","3ZICQFRS3143WDVXF1P0C7ZVVO8ZZM","","null","<img src=""img/land4.png"" style=""width:200px; border:14px solid green;"">","null","","","","","","","","","",""
"","image-keyboard-response","357","413016","0.0-357.0","3ATPCQ38J9W4CZBEYPCK6QV8N6KYAY","A1DKR1102NZROG","3ZICQFRS3143WDVXF1P0C7ZVVO8ZZM","","213.90000009536743","img/land5.png","75","215.60000002384186","2","1","2","2","1,0.5,0.5,0.5,1,0.5,0.5,0.5,1","1,0.5,0.5,0.5,1,0.5,0.5,0.5,1","","",""
"","html-keyboard-response","358","413319","0.0-358.0","3ATPCQ38J9W4CZBEYPCK6QV8N6KYAY","A1DKR1102NZROG","3ZICQFRS3143WDVXF1P0C7ZVVO8ZZM","","null","<img src=""img/land5.png"" style=""width:200px; border:14px solid green;"">","null","","","","","","","","","",""
"","image-keyboard-response","359","413359","0.0-359.0","3ATPCQ38J9W4CZBEYPCK6QV8N6KYAY","A1DKR1102NZROG","3ZICQFRS3143WDVXF1P0C7ZVVO8ZZM","","38.5","img/land4.png","74","40.10000002384186","1","1","1","2","1,0.5,0.5,0.5,1,0.5,0.5,0.5,1","1,0.5,0.5,0.5,1,0.5,0.5,0.5,1","","",""
"","html-keyboard-response","360","413667","0.0-360.0","3ATPCQ38J9W4CZBEYPCK6QV8N6KYAY","A1DKR1102NZROG","3ZICQFRS3143WDVXF1P0C7ZVVO8ZZM","","null","<img src=""img/land4.png"" style=""width:200px; border:14px solid green;"">","null","","","","","","","","","",""
"","image-keyboard-response","361","413680","0.0-361.0","3ATPCQ38J9W4CZBEYPCK6QV8N6KYAY","A1DKR1102NZROG","3ZICQFRS3143WDVXF1P0C7ZVVO8ZZM","","11.199999928474426","img/land5.png","75","12.900000095367432","2","1","2","2","1,0.5,0.5,0.5,1,0.5,0.5,0.5,1","1,0.5,0.5,0.5,1,0.5,0.5,0.5,1","","",""
"","html-keyboard-response","362","413996","0.0-362.0","3ATPCQ38J9W4CZBEYPCK6QV8N6KYAY","A1DKR1102NZROG","3ZICQFRS3143WDVXF1P0C7ZVVO8ZZM","","null","<img src=""img/land5.png"" style=""width:200px; border:14px solid green;"">","null","","","","","","","","","",""
