"success","trial_type","trial_index","time_elapsed","internal_node_id","assignmentID","mturkID","hitID","view_history","rt","stimulus","key_press","reactionTime","a","r","s","cond","reward_cond","reward_cond_actual","reward_matrix_idx","responses","question_order"
"true","fullscreen","0","3612","0.0-0.0","3A7Y0R2P2PAQDNO8NZ3VGBRIC9IJX0","A1E3N1Y6XG1898","3I7KR83SNAZT1REYB2SRC49PCEEK9H","","","","","","","","","","","","","",""
"","instructions","1","35685","0.0-1.0","3A7Y0R2P2PAQDNO8NZ3VGBRIC9IJX0","A1E3N1Y6XG1898","3I7KR83SNAZT1REYB2SRC49PCEEK9H","[{""page_index"":0,""viewing_time"":4724.29999999702},{""page_index"":1,""viewing_time"":4229.79999999702},{""page_index"":2,""viewing_time"":1854.800000011921},{""page_index"":3,""viewing_time"":4995.699999988079},{""page_index"":4,""viewing_time"":5773.300000011921},{""page_index"":5,""viewing_time"":4407.5999999940395},{""page_index"":6,""viewing_time"":6086.29999999702}]","32072.20000000298","","","","","","","","","","","",""
"","image-keyboard-response","2","37308","0.0-2.0","3A7Y0R2P2PAQDNO8NZ3VGBRIC9IJX0","A1E3N1Y6XG1898","3I7KR83SNAZT1REYB2SRC49PCEEK9H","","1620.6000000089407","img/land5.png","74","1621.7000000029802","1","0","2","2","0.8,0.2,0.2,0.2,0.8,0.2,0.2,0.2,0.8","0.2,0.8,0.2,0.2,0.2,0.8,0.8,0.2,0.2","3","",""
"","html-keyboard-response","3","37612","0.0-3.0","3A7Y0R2P2PAQDNO8NZ3VGBRIC9IJX0","A1E3N1Y6XG1898","3I7KR83SNAZT1REYB2SRC49PCEEK9H","","null","<img src=""img/land5.png"" style=""width:200px;border:14px solid red;"">","null","","","","","","","","","",""
"","image-keyboard-response","4","38193","0.0-4.0","3A7Y0R2P2PAQDNO8NZ3VGBRIC9IJX0","A1E3N1Y6XG1898","3I7KR83SNAZT1REYB2SRC49PCEEK9H","","580.3999999910593","img/land4.png","75","581","2","0","1","2","0.8,0.2,0.2,0.2,0.8,0.2,0.2,0.2,0.8","0.2,0.8,0.2,0.2,0.2,0.8,0.8,0.2,0.2","3","",""
"","html-keyboard-response","5","38499","0.0-5.0","3A7Y0R2P2PAQDNO8NZ3VGBRIC9IJX0","A1E3N1Y6XG1898","3I7KR83SNAZT1REYB2SRC49PCEEK9H","","null","<img src=""img/land4.png"" style=""width:200px;border:14px solid red;"">","null","","","","","","","","","",""
"","image-keyboard-response","6","38991","0.0-6.0","3A7Y0R2P2PAQDNO8NZ3VGBRIC9IJX0","A1E3N1Y6XG1898","3I7KR83SNAZT1REYB2SRC49PCEEK9H","","491.30000001192093","img/land4.png","76","491.8999999910593","3","0","1","2","0.8,0.2,0.2,0.2,0.8,0.2,0.2,0.2,0.8","0.2,0.8,0.2,0.2,0.2,0.8,0.8,0.2,0.2","3","",""
"","html-keyboard-response","7","39296","0.0-7.0","3A7Y0R2P2PAQDNO8NZ3VGBRIC9IJX0","A1E3N1Y6XG1898","3I7KR83SNAZT1REYB2SRC49PCEEK9H","","null","<img src=""img/land4.png"" style=""width:200px;border:14px solid red;"">","null","","","","","","","","","",""
"","image-keyboard-response","8","40082","0.0-8.0","3A7Y0R2P2PAQDNO8NZ3VGBRIC9IJX0","A1E3N1Y6XG1898","3I7KR83SNAZT1REYB2SRC49PCEEK9H","","785.4000000059605","img/land5.png","74","786.0999999940395","1","0","2","2","0.8,0.2,0.2,0.2,0.8,0.2,0.2,0.2,0.8","0.2,0.8,0.2,0.2,0.2,0.8,0.8,0.2,0.2","3","",""
"","html-keyboard-response","9","40388","0.0-9.0","3A7Y0R2P2PAQDNO8NZ3VGBRIC9IJX0","A1E3N1Y6XG1898","3I7KR83SNAZT1REYB2SRC49PCEEK9H","","null","<img src=""img/land5.png"" style=""width:200px;border:14px solid red;"">","null","","","","","","","","","",""
"","image-keyboard-response","10","41210","0.0-10.0","3A7Y0R2P2PAQDNO8NZ3VGBRIC9IJX0","A1E3N1Y6XG1898","3I7KR83SNAZT1REYB2SRC49PCEEK9H","","820.3999999910593","img/land3.png","75","821.1999999880791","2","0","3","2","0.8,0.2,0.2,0.2,0.8,0.2,0.2,0.2,0.8","0.2,0.8,0.2,0.2,0.2,0.8,0.8,0.2,0.2","3","",""
"","html-keyboard-response","11","41512","0.0-11.0","3A7Y0R2P2PAQDNO8NZ3VGBRIC9IJX0","A1E3N1Y6XG1898","3I7KR83SNAZT1REYB2SRC49PCEEK9H","","null","<img src=""img/land3.png"" style=""width:200px;border:14px solid red;"">","null","","","","","","","","","",""
"","image-keyboard-response","12","42226","0.0-12.0","3A7Y0R2P2PAQDNO8NZ3VGBRIC9IJX0","A1E3N1Y6XG1898","3I7KR83SNAZT1REYB2SRC49PCEEK9H","","713.5","img/land5.png","76","714.0999999940395","3","1","2","2","0.8,0.2,0.2,0.2,0.8,0.2,0.2,0.2,0.8","0.2,0.8,0.2,0.2,0.2,0.8,0.8,0.2,0.2","3","",""
"","html-keyboard-response","13","42529","0.0-13.0","3A7Y0R2P2PAQDNO8NZ3VGBRIC9IJX0","A1E3N1Y6XG1898","3I7KR83SNAZT1REYB2SRC49PCEEK9H","","null","<img src=""img/land5.png"" style=""width:200px; border:14px solid green;"">","null","","","","","","","","","",""
"","image-keyboard-response","14","43342","0.0-14.0","3A7Y0R2P2PAQDNO8NZ3VGBRIC9IJX0","A1E3N1Y6XG1898","3I7KR83SNAZT1REYB2SRC49PCEEK9H","","812","img/land3.png","75","812.5999999940395","2","0","3","2","0.8,0.2,0.2,0.2,0.8,0.2,0.2,0.2,0.8","0.2,0.8,0.2,0.2,0.2,0.8,0.8,0.2,0.2","3","",""
"","html-keyboard-response","15","43647","0.0-15.0","3A7Y0R2P2PAQDNO8NZ3VGBRIC9IJX0","A1E3N1Y6XG1898","3I7KR83SNAZT1REYB2SRC49PCEEK9H","","null","<img src=""img/land3.png"" style=""width:200px;border:14px solid red;"">","null","","","","","","","","","",""
"","image-keyboard-response","16","44413","0.0-16.0","3A7Y0R2P2PAQDNO8NZ3VGBRIC9IJX0","A1E3N1Y6XG1898","3I7KR83SNAZT1REYB2SRC49PCEEK9H","","764.5","img/land5.png","76","765.1000000089407","3","0","2","2","0.8,0.2,0.2,0.2,0.8,0.2,0.2,0.2,0.8","0.2,0.8,0.2,0.2,0.2,0.8,0.8,0.2,0.2","3","",""
"","html-keyboard-response","17","44714","0.0-17.0","3A7Y0R2P2PAQDNO8NZ3VGBRIC9IJX0","A1E3N1Y6XG1898","3I7KR83SNAZT1REYB2SRC49PCEEK9H","","null","<img src=""img/land5.png"" style=""width:200px;border:14px solid red;"">","null","","","","","","","","","",""
"","image-keyboard-response","18","45297","0.0-18.0","3A7Y0R2P2PAQDNO8NZ3VGBRIC9IJX0","A1E3N1Y6XG1898","3I7KR83SNAZT1REYB2SRC49PCEEK9H","","582.2000000029802","img/land5.png","74","583","1","0","2","2","0.8,0.2,0.2,0.2,0.8,0.2,0.2,0.2,0.8","0.2,0.8,0.2,0.2,0.2,0.8,0.8,0.2,0.2","3","",""
"","html-keyboard-response","19","45601","0.0-19.0","3A7Y0R2P2PAQDNO8NZ3VGBRIC9IJX0","A1E3N1Y6XG1898","3I7KR83SNAZT1REYB2SRC49PCEEK9H","","null","<img src=""img/land5.png"" style=""width:200px;border:14px solid red;"">","null","","","","","","","","","",""
"","image-keyboard-response","20","46398","0.0-20.0","3A7Y0R2P2PAQDNO8NZ3VGBRIC9IJX0","A1E3N1Y6XG1898","3I7KR83SNAZT1REYB2SRC49PCEEK9H","","795.8000000119209","img/land4.png","75","796.7000000029802","2","1","1","2","0.8,0.2,0.2,0.2,0.8,0.2,0.2,0.2,0.8","0.2,0.8,0.2,0.2,0.2,0.8,0.8,0.2,0.2","3","",""
"","html-keyboard-response","21","46699","0.0-21.0","3A7Y0R2P2PAQDNO8NZ3VGBRIC9IJX0","A1E3N1Y6XG1898","3I7KR83SNAZT1REYB2SRC49PCEEK9H","","null","<img src=""img/land4.png"" style=""width:200px; border:14px solid green;"">","null","","","","","","","","","",""
"","image-keyboard-response","22","47313","0.0-22.0","3A7Y0R2P2PAQDNO8NZ3VGBRIC9IJX0","A1E3N1Y6XG1898","3I7KR83SNAZT1REYB2SRC49PCEEK9H","","612.6000000089407","img/land5.png","75","613.2999999970198","2","1","2","2","0.8,0.2,0.2,0.2,0.8,0.2,0.2,0.2,0.8","0.2,0.8,0.2,0.2,0.2,0.8,0.8,0.2,0.2","3","",""
"","html-keyboard-response","23","47617","0.0-23.0","3A7Y0R2P2PAQDNO8NZ3VGBRIC9IJX0","A1E3N1Y6XG1898","3I7KR83SNAZT1REYB2SRC49PCEEK9H","","null","<img src=""img/land5.png"" style=""width:200px; border:14px solid green;"">","null","","","","","","","","","",""
"","image-keyboard-response","24","48310","0.0-24.0","3A7Y0R2P2PAQDNO8NZ3VGBRIC9IJX0","A1E3N1Y6XG1898","3I7KR83SNAZT1REYB2SRC49PCEEK9H","","692","img/land3.png","75","692.6000000089407","2","0","3","2","0.8,0.2,0.2,0.2,0.8,0.2,0.2,0.2,0.8","0.2,0.8,0.2,0.2,0.2,0.8,0.8,0.2,0.2","3","",""
"","html-keyboard-response","25","48612","0.0-25.0","3A7Y0R2P2PAQDNO8NZ3VGBRIC9IJX0","A1E3N1Y6XG1898","3I7KR83SNAZT1REYB2SRC49PCEEK9H","","null","<img src=""img/land3.png"" style=""width:200px;border:14px solid red;"">","null","","","","","","","","","",""
"","image-keyboard-response","26","49185","0.0-26.0","3A7Y0R2P2PAQDNO8NZ3VGBRIC9IJX0","A1E3N1Y6XG1898","3I7KR83SNAZT1REYB2SRC49PCEEK9H","","571.7999999970198","img/land4.png","76","572.6000000089407","3","1","1","2","0.8,0.2,0.2,0.2,0.8,0.2,0.2,0.2,0.8","0.2,0.8,0.2,0.2,0.2,0.8,0.8,0.2,0.2","3","",""
"","html-keyboard-response","27","49488","0.0-27.0","3A7Y0R2P2PAQDNO8NZ3VGBRIC9IJX0","A1E3N1Y6XG1898","3I7KR83SNAZT1REYB2SRC49PCEEK9H","","null","<img src=""img/land4.png"" style=""width:200px; border:14px solid green;"">","null","","","","","","","","","",""
"","image-keyboard-response","28","50171","0.0-28.0","3A7Y0R2P2PAQDNO8NZ3VGBRIC9IJX0","A1E3N1Y6XG1898","3I7KR83SNAZT1REYB2SRC49PCEEK9H","","682.5","img/land4.png","76","683.1000000089407","3","0","1","2","0.8,0.2,0.2,0.2,0.8,0.2,0.2,0.2,0.8","0.2,0.8,0.2,0.2,0.2,0.8,0.8,0.2,0.2","3","",""
"","html-keyboard-response","29","50476","0.0-29.0","3A7Y0R2P2PAQDNO8NZ3VGBRIC9IJX0","A1E3N1Y6XG1898","3I7KR83SNAZT1REYB2SRC49PCEEK9H","","null","<img src=""img/land4.png"" style=""width:200px;border:14px solid red;"">","null","","","","","","","","","",""
"","image-keyboard-response","30","51049","0.0-30.0","3A7Y0R2P2PAQDNO8NZ3VGBRIC9IJX0","A1E3N1Y6XG1898","3I7KR83SNAZT1REYB2SRC49PCEEK9H","","572.5","img/land3.png","75","573.2999999970198","2","0","3","2","0.8,0.2,0.2,0.2,0.8,0.2,0.2,0.2,0.8","0.2,0.8,0.2,0.2,0.2,0.8,0.8,0.2,0.2","3","",""
"","html-keyboard-response","31","51351","0.0-31.0","3A7Y0R2P2PAQDNO8NZ3VGBRIC9IJX0","A1E3N1Y6XG1898","3I7KR83SNAZT1REYB2SRC49PCEEK9H","","null","<img src=""img/land3.png"" style=""width:200px;border:14px solid red;"">","null","","","","","","","","","",""
"","image-keyboard-response","32","51853","0.0-32.0","3A7Y0R2P2PAQDNO8NZ3VGBRIC9IJX0","A1E3N1Y6XG1898","3I7KR83SNAZT1REYB2SRC49PCEEK9H","","500.90000000596046","img/land4.png","74","501.70000000298023","1","0","1","2","0.8,0.2,0.2,0.2,0.8,0.2,0.2,0.2,0.8","0.2,0.8,0.2,0.2,0.2,0.8,0.8,0.2,0.2","3","",""
"","html-keyboard-response","33","52158","0.0-33.0","3A7Y0R2P2PAQDNO8NZ3VGBRIC9IJX0","A1E3N1Y6XG1898","3I7KR83SNAZT1REYB2SRC49PCEEK9H","","null","<img src=""img/land4.png"" style=""width:200px;border:14px solid red;"">","null","","","","","","","","","",""
"","image-keyboard-response","34","52766","0.0-34.0","3A7Y0R2P2PAQDNO8NZ3VGBRIC9IJX0","A1E3N1Y6XG1898","3I7KR83SNAZT1REYB2SRC49PCEEK9H","","606","img/land3.png","75","606.7000000029802","2","0","3","2","0.8,0.2,0.2,0.2,0.8,0.2,0.2,0.2,0.8","0.2,0.8,0.2,0.2,0.2,0.8,0.8,0.2,0.2","3","",""
"","html-keyboard-response","35","53067","0.0-35.0","3A7Y0R2P2PAQDNO8NZ3VGBRIC9IJX0","A1E3N1Y6XG1898","3I7KR83SNAZT1REYB2SRC49PCEEK9H","","null","<img src=""img/land3.png"" style=""width:200px;border:14px solid red;"">","null","","","","","","","","","",""
"","image-keyboard-response","36","53603","0.0-36.0","3A7Y0R2P2PAQDNO8NZ3VGBRIC9IJX0","A1E3N1Y6XG1898","3I7KR83SNAZT1REYB2SRC49PCEEK9H","","534.4000000059605","img/land3.png","76","535.1000000089407","3","1","3","2","0.8,0.2,0.2,0.2,0.8,0.2,0.2,0.2,0.8","0.2,0.8,0.2,0.2,0.2,0.8,0.8,0.2,0.2","3","",""
"","html-keyboard-response","37","53908","0.0-37.0","3A7Y0R2P2PAQDNO8NZ3VGBRIC9IJX0","A1E3N1Y6XG1898","3I7KR83SNAZT1REYB2SRC49PCEEK9H","","null","<img src=""img/land3.png"" style=""width:200px; border:14px solid green;"">","null","","","","","","","","","",""
"","image-keyboard-response","38","54469","0.0-38.0","3A7Y0R2P2PAQDNO8NZ3VGBRIC9IJX0","A1E3N1Y6XG1898","3I7KR83SNAZT1REYB2SRC49PCEEK9H","","559.2999999970198","img/land3.png","76","560.1999999880791","3","0","3","2","0.8,0.2,0.2,0.2,0.8,0.2,0.2,0.2,0.8","0.2,0.8,0.2,0.2,0.2,0.8,0.8,0.2,0.2","3","",""
"","html-keyboard-response","39","54771","0.0-39.0","3A7Y0R2P2PAQDNO8NZ3VGBRIC9IJX0","A1E3N1Y6XG1898","3I7KR83SNAZT1REYB2SRC49PCEEK9H","","null","<img src=""img/land3.png"" style=""width:200px;border:14px solid red;"">","null","","","","","","","","","",""
"","image-keyboard-response","40","55370","0.0-40.0","3A7Y0R2P2PAQDNO8NZ3VGBRIC9IJX0","A1E3N1Y6XG1898","3I7KR83SNAZT1REYB2SRC49PCEEK9H","","598.6000000089407","img/land4.png","75","599.2999999970198","2","1","1","2","0.8,0.2,0.2,0.2,0.8,0.2,0.2,0.2,0.8","0.2,0.8,0.2,0.2,0.2,0.8,0.8,0.2,0.2","3","",""
"","html-keyboard-response","41","55674","0.0-41.0","3A7Y0R2P2PAQDNO8NZ3VGBRIC9IJX0","A1E3N1Y6XG1898","3I7KR83SNAZT1REYB2SRC49PCEEK9H","","null","<img src=""img/land4.png"" style=""width:200px; border:14px solid green;"">","null","","","","","","","","","",""
"","image-keyboard-response","42","56206","0.0-42.0","3A7Y0R2P2PAQDNO8NZ3VGBRIC9IJX0","A1E3N1Y6XG1898","3I7KR83SNAZT1REYB2SRC49PCEEK9H","","530.8000000119209","img/land4.png","75","531.6999999880791","2","1","1","2","0.8,0.2,0.2,0.2,0.8,0.2,0.2,0.2,0.8","0.2,0.8,0.2,0.2,0.2,0.8,0.8,0.2,0.2","3","",""
"","html-keyboard-response","43","56512","0.0-43.0","3A7Y0R2P2PAQDNO8NZ3VGBRIC9IJX0","A1E3N1Y6XG1898","3I7KR83SNAZT1REYB2SRC49PCEEK9H","","null","<img src=""img/land4.png"" style=""width:200px; border:14px solid green;"">","null","","","","","","","","","",""
"","image-keyboard-response","44","57093","0.0-44.0","3A7Y0R2P2PAQDNO8NZ3VGBRIC9IJX0","A1E3N1Y6XG1898","3I7KR83SNAZT1REYB2SRC49PCEEK9H","","579.6999999880791","img/land5.png","74","580.5","1","0","2","2","0.8,0.2,0.2,0.2,0.8,0.2,0.2,0.2,0.8","0.2,0.8,0.2,0.2,0.2,0.8,0.8,0.2,0.2","3","",""
"","html-keyboard-response","45","57397","0.0-45.0","3A7Y0R2P2PAQDNO8NZ3VGBRIC9IJX0","A1E3N1Y6XG1898","3I7KR83SNAZT1REYB2SRC49PCEEK9H","","null","<img src=""img/land5.png"" style=""width:200px;border:14px solid red;"">","null","","","","","","","","","",""
"","image-keyboard-response","46","57803","0.0-46.0","3A7Y0R2P2PAQDNO8NZ3VGBRIC9IJX0","A1E3N1Y6XG1898","3I7KR83SNAZT1REYB2SRC49PCEEK9H","","405.29999999701977","img/land4.png","75","405.90000000596046","2","1","1","2","0.8,0.2,0.2,0.2,0.8,0.2,0.2,0.2,0.8","0.2,0.8,0.2,0.2,0.2,0.8,0.8,0.2,0.2","3","",""
"","html-keyboard-response","47","58105","0.0-47.0","3A7Y0R2P2PAQDNO8NZ3VGBRIC9IJX0","A1E3N1Y6XG1898","3I7KR83SNAZT1REYB2SRC49PCEEK9H","","null","<img src=""img/land4.png"" style=""width:200px; border:14px solid green;"">","null","","","","","","","","","",""
"","image-keyboard-response","48","58980","0.0-48.0","3A7Y0R2P2PAQDNO8NZ3VGBRIC9IJX0","A1E3N1Y6XG1898","3I7KR83SNAZT1REYB2SRC49PCEEK9H","","874.2999999970198","img/land5.png","76","875.2000000029802","3","1","2","2","0.8,0.2,0.2,0.2,0.8,0.2,0.2,0.2,0.8","0.2,0.8,0.2,0.2,0.2,0.8,0.8,0.2,0.2","3","",""
"","html-keyboard-response","49","59281","0.0-49.0","3A7Y0R2P2PAQDNO8NZ3VGBRIC9IJX0","A1E3N1Y6XG1898","3I7KR83SNAZT1REYB2SRC49PCEEK9H","","null","<img src=""img/land5.png"" style=""width:200px; border:14px solid green;"">","null","","","","","","","","","",""
"","image-keyboard-response","50","59807","0.0-50.0","3A7Y0R2P2PAQDNO8NZ3VGBRIC9IJX0","A1E3N1Y6XG1898","3I7KR83SNAZT1REYB2SRC49PCEEK9H","","524.9000000059605","img/land4.png","75","525.3999999910593","2","0","1","2","0.8,0.2,0.2,0.2,0.8,0.2,0.2,0.2,0.8","0.2,0.8,0.2,0.2,0.2,0.8,0.8,0.2,0.2","3","",""
"","html-keyboard-response","51","60113","0.0-51.0","3A7Y0R2P2PAQDNO8NZ3VGBRIC9IJX0","A1E3N1Y6XG1898","3I7KR83SNAZT1REYB2SRC49PCEEK9H","","null","<img src=""img/land4.png"" style=""width:200px;border:14px solid red;"">","null","","","","","","","","","",""
"","image-keyboard-response","52","60756","0.0-52.0","3A7Y0R2P2PAQDNO8NZ3VGBRIC9IJX0","A1E3N1Y6XG1898","3I7KR83SNAZT1REYB2SRC49PCEEK9H","","642.5","img/land3.png","74","643.2999999970198","1","1","3","2","0.8,0.2,0.2,0.2,0.8,0.2,0.2,0.2,0.8","0.2,0.8,0.2,0.2,0.2,0.8,0.8,0.2,0.2","3","",""
"","html-keyboard-response","53","61059","0.0-53.0","3A7Y0R2P2PAQDNO8NZ3VGBRIC9IJX0","A1E3N1Y6XG1898","3I7KR83SNAZT1REYB2SRC49PCEEK9H","","null","<img src=""img/land3.png"" style=""width:200px; border:14px solid green;"">","null","","","","","","","","","",""
"","image-keyboard-response","54","61653","0.0-54.0","3A7Y0R2P2PAQDNO8NZ3VGBRIC9IJX0","A1E3N1Y6XG1898","3I7KR83SNAZT1REYB2SRC49PCEEK9H","","592.7000000029802","img/land4.png","74","593.4000000059605","1","0","1","2","0.8,0.2,0.2,0.2,0.8,0.2,0.2,0.2,0.8","0.2,0.8,0.2,0.2,0.2,0.8,0.8,0.2,0.2","3","",""
"","html-keyboard-response","55","61958","0.0-55.0","3A7Y0R2P2PAQDNO8NZ3VGBRIC9IJX0","A1E3N1Y6XG1898","3I7KR83SNAZT1REYB2SRC49PCEEK9H","","null","<img src=""img/land4.png"" style=""width:200px;border:14px solid red;"">","null","","","","","","","","","",""
"","image-keyboard-response","56","62464","0.0-56.0","3A7Y0R2P2PAQDNO8NZ3VGBRIC9IJX0","A1E3N1Y6XG1898","3I7KR83SNAZT1REYB2SRC49PCEEK9H","","504.79999999701977","img/land3.png","75","505.59999999403954","2","0","3","2","0.8,0.2,0.2,0.2,0.8,0.2,0.2,0.2,0.8","0.2,0.8,0.2,0.2,0.2,0.8,0.8,0.2,0.2","3","",""
"","html-keyboard-response","57","62765","0.0-57.0","3A7Y0R2P2PAQDNO8NZ3VGBRIC9IJX0","A1E3N1Y6XG1898","3I7KR83SNAZT1REYB2SRC49PCEEK9H","","null","<img src=""img/land3.png"" style=""width:200px;border:14px solid red;"">","null","","","","","","","","","",""
"","image-keyboard-response","58","63367","0.0-58.0","3A7Y0R2P2PAQDNO8NZ3VGBRIC9IJX0","A1E3N1Y6XG1898","3I7KR83SNAZT1REYB2SRC49PCEEK9H","","601.5","img/land4.png","76","602.2000000029802","3","1","1","2","0.8,0.2,0.2,0.2,0.8,0.2,0.2,0.2,0.8","0.2,0.8,0.2,0.2,0.2,0.8,0.8,0.2,0.2","3","",""
"","html-keyboard-response","59","63669","0.0-59.0","3A7Y0R2P2PAQDNO8NZ3VGBRIC9IJX0","A1E3N1Y6XG1898","3I7KR83SNAZT1REYB2SRC49PCEEK9H","","null","<img src=""img/land4.png"" style=""width:200px; border:14px solid green;"">","null","","","","","","","","","",""
"","image-keyboard-response","60","64237","0.0-60.0","3A7Y0R2P2PAQDNO8NZ3VGBRIC9IJX0","A1E3N1Y6XG1898","3I7KR83SNAZT1REYB2SRC49PCEEK9H","","566.6000000089407","img/land5.png","75","567.5","2","1","2","2","0.8,0.2,0.2,0.2,0.8,0.2,0.2,0.2,0.8","0.2,0.8,0.2,0.2,0.2,0.8,0.8,0.2,0.2","3","",""
"","html-keyboard-response","61","64538","0.0-61.0","3A7Y0R2P2PAQDNO8NZ3VGBRIC9IJX0","A1E3N1Y6XG1898","3I7KR83SNAZT1REYB2SRC49PCEEK9H","","null","<img src=""img/land5.png"" style=""width:200px; border:14px solid green;"">","null","","","","","","","","","",""
"","image-keyboard-response","62","65149","0.0-62.0","3A7Y0R2P2PAQDNO8NZ3VGBRIC9IJX0","A1E3N1Y6XG1898","3I7KR83SNAZT1REYB2SRC49PCEEK9H","","609.2999999970198","img/land4.png","75","610.0999999940395","2","1","1","2","0.8,0.2,0.2,0.2,0.8,0.2,0.2,0.2,0.8","0.2,0.8,0.2,0.2,0.2,0.8,0.8,0.2,0.2","3","",""
"","html-keyboard-response","63","65452","0.0-63.0","3A7Y0R2P2PAQDNO8NZ3VGBRIC9IJX0","A1E3N1Y6XG1898","3I7KR83SNAZT1REYB2SRC49PCEEK9H","","null","<img src=""img/land4.png"" style=""width:200px; border:14px solid green;"">","null","","","","","","","","","",""
"","image-keyboard-response","64","66008","0.0-64.0","3A7Y0R2P2PAQDNO8NZ3VGBRIC9IJX0","A1E3N1Y6XG1898","3I7KR83SNAZT1REYB2SRC49PCEEK9H","","555.1999999880791","img/land5.png","75","555.7000000029802","2","0","2","2","0.8,0.2,0.2,0.2,0.8,0.2,0.2,0.2,0.8","0.2,0.8,0.2,0.2,0.2,0.8,0.8,0.2,0.2","3","",""
"","html-keyboard-response","65","66311","0.0-65.0","3A7Y0R2P2PAQDNO8NZ3VGBRIC9IJX0","A1E3N1Y6XG1898","3I7KR83SNAZT1REYB2SRC49PCEEK9H","","null","<img src=""img/land5.png"" style=""width:200px;border:14px solid red;"">","null","","","","","","","","","",""
"","image-keyboard-response","66","66890","0.0-66.0","3A7Y0R2P2PAQDNO8NZ3VGBRIC9IJX0","A1E3N1Y6XG1898","3I7KR83SNAZT1REYB2SRC49PCEEK9H","","577.5999999940395","img/land4.png","76","578.5999999940395","3","1","1","2","0.8,0.2,0.2,0.2,0.8,0.2,0.2,0.2,0.8","0.2,0.8,0.2,0.2,0.2,0.8,0.8,0.2,0.2","3","",""
"","html-keyboard-response","67","67194","0.0-67.0","3A7Y0R2P2PAQDNO8NZ3VGBRIC9IJX0","A1E3N1Y6XG1898","3I7KR83SNAZT1REYB2SRC49PCEEK9H","","null","<img src=""img/land4.png"" style=""width:200px; border:14px solid green;"">","null","","","","","","","","","",""
"","image-keyboard-response","68","67843","0.0-68.0","3A7Y0R2P2PAQDNO8NZ3VGBRIC9IJX0","A1E3N1Y6XG1898","3I7KR83SNAZT1REYB2SRC49PCEEK9H","","647.3000000119209","img/land3.png","76","648","3","0","3","2","0.8,0.2,0.2,0.2,0.8,0.2,0.2,0.2,0.8","0.2,0.8,0.2,0.2,0.2,0.8,0.8,0.2,0.2","3","",""
"","html-keyboard-response","69","68145","0.0-69.0","3A7Y0R2P2PAQDNO8NZ3VGBRIC9IJX0","A1E3N1Y6XG1898","3I7KR83SNAZT1REYB2SRC49PCEEK9H","","null","<img src=""img/land3.png"" style=""width:200px;border:14px solid red;"">","null","","","","","","","","","",""
"","image-keyboard-response","70","68769","0.0-70.0","3A7Y0R2P2PAQDNO8NZ3VGBRIC9IJX0","A1E3N1Y6XG1898","3I7KR83SNAZT1REYB2SRC49PCEEK9H","","622","img/land3.png","74","622.8000000119209","1","0","3","2","0.8,0.2,0.2,0.2,0.8,0.2,0.2,0.2,0.8","0.2,0.8,0.2,0.2,0.2,0.8,0.8,0.2,0.2","3","",""
"","html-keyboard-response","71","69072","0.0-71.0","3A7Y0R2P2PAQDNO8NZ3VGBRIC9IJX0","A1E3N1Y6XG1898","3I7KR83SNAZT1REYB2SRC49PCEEK9H","","null","<img src=""img/land3.png"" style=""width:200px;border:14px solid red;"">","null","","","","","","","","","",""
"","image-keyboard-response","72","69602","0.0-72.0","3A7Y0R2P2PAQDNO8NZ3VGBRIC9IJX0","A1E3N1Y6XG1898","3I7KR83SNAZT1REYB2SRC49PCEEK9H","","529.2999999970198","img/land3.png","75","530","2","0","3","2","0.8,0.2,0.2,0.2,0.8,0.2,0.2,0.2,0.8","0.2,0.8,0.2,0.2,0.2,0.8,0.8,0.2,0.2","3","",""
"","html-keyboard-response","73","69908","0.0-73.0","3A7Y0R2P2PAQDNO8NZ3VGBRIC9IJX0","A1E3N1Y6XG1898","3I7KR83SNAZT1REYB2SRC49PCEEK9H","","null","<img src=""img/land3.png"" style=""width:200px;border:14px solid red;"">","null","","","","","","","","","",""
"","image-keyboard-response","74","70531","0.0-74.0","3A7Y0R2P2PAQDNO8NZ3VGBRIC9IJX0","A1E3N1Y6XG1898","3I7KR83SNAZT1REYB2SRC49PCEEK9H","","621.7000000029802","img/land4.png","76","622.2999999970198","3","0","1","2","0.8,0.2,0.2,0.2,0.8,0.2,0.2,0.2,0.8","0.2,0.8,0.2,0.2,0.2,0.8,0.8,0.2,0.2","3","",""
"","html-keyboard-response","75","70833","0.0-75.0","3A7Y0R2P2PAQDNO8NZ3VGBRIC9IJX0","A1E3N1Y6XG1898","3I7KR83SNAZT1REYB2SRC49PCEEK9H","","null","<img src=""img/land4.png"" style=""width:200px;border:14px solid red;"">","null","","","","","","","","","",""
"","image-keyboard-response","76","71390","0.0-76.0","3A7Y0R2P2PAQDNO8NZ3VGBRIC9IJX0","A1E3N1Y6XG1898","3I7KR83SNAZT1REYB2SRC49PCEEK9H","","555.5999999940395","img/land4.png","75","556.2000000029802","2","1","1","2","0.8,0.2,0.2,0.2,0.8,0.2,0.2,0.2,0.8","0.2,0.8,0.2,0.2,0.2,0.8,0.8,0.2,0.2","3","",""
"","html-keyboard-response","77","71695","0.0-77.0","3A7Y0R2P2PAQDNO8NZ3VGBRIC9IJX0","A1E3N1Y6XG1898","3I7KR83SNAZT1REYB2SRC49PCEEK9H","","null","<img src=""img/land4.png"" style=""width:200px; border:14px solid green;"">","null","","","","","","","","","",""
"","image-keyboard-response","78","72202","0.0-78.0","3A7Y0R2P2PAQDNO8NZ3VGBRIC9IJX0","A1E3N1Y6XG1898","3I7KR83SNAZT1REYB2SRC49PCEEK9H","","505.70000000298023","img/land4.png","75","506.40000000596046","2","1","1","2","0.8,0.2,0.2,0.2,0.8,0.2,0.2,0.2,0.8","0.2,0.8,0.2,0.2,0.2,0.8,0.8,0.2,0.2","3","",""
"","html-keyboard-response","79","72505","0.0-79.0","3A7Y0R2P2PAQDNO8NZ3VGBRIC9IJX0","A1E3N1Y6XG1898","3I7KR83SNAZT1REYB2SRC49PCEEK9H","","null","<img src=""img/land4.png"" style=""width:200px; border:14px solid green;"">","null","","","","","","","","","",""
"","image-keyboard-response","80","73046","0.0-80.0","3A7Y0R2P2PAQDNO8NZ3VGBRIC9IJX0","A1E3N1Y6XG1898","3I7KR83SNAZT1REYB2SRC49PCEEK9H","","540.6000000089407","img/land3.png","74","541.2999999970198","1","1","3","2","0.8,0.2,0.2,0.2,0.8,0.2,0.2,0.2,0.8","0.2,0.8,0.2,0.2,0.2,0.8,0.8,0.2,0.2","3","",""
"","html-keyboard-response","81","73348","0.0-81.0","3A7Y0R2P2PAQDNO8NZ3VGBRIC9IJX0","A1E3N1Y6XG1898","3I7KR83SNAZT1REYB2SRC49PCEEK9H","","null","<img src=""img/land3.png"" style=""width:200px; border:14px solid green;"">","null","","","","","","","","","",""
"","image-keyboard-response","82","73830","0.0-82.0","3A7Y0R2P2PAQDNO8NZ3VGBRIC9IJX0","A1E3N1Y6XG1898","3I7KR83SNAZT1REYB2SRC49PCEEK9H","","480.70000000298023","img/land4.png","75","481.59999999403954","2","1","1","2","0.8,0.2,0.2,0.2,0.8,0.2,0.2,0.2,0.8","0.2,0.8,0.2,0.2,0.2,0.8,0.8,0.2,0.2","3","",""
"","html-keyboard-response","83","74134","0.0-83.0","3A7Y0R2P2PAQDNO8NZ3VGBRIC9IJX0","A1E3N1Y6XG1898","3I7KR83SNAZT1REYB2SRC49PCEEK9H","","null","<img src=""img/land4.png"" style=""width:200px; border:14px solid green;"">","null","","","","","","","","","",""
"","image-keyboard-response","84","74592","0.0-84.0","3A7Y0R2P2PAQDNO8NZ3VGBRIC9IJX0","A1E3N1Y6XG1898","3I7KR83SNAZT1REYB2SRC49PCEEK9H","","456.90000000596046","img/land4.png","75","457.5","2","1","1","2","0.8,0.2,0.2,0.2,0.8,0.2,0.2,0.2,0.8","0.2,0.8,0.2,0.2,0.2,0.8,0.8,0.2,0.2","3","",""
"","html-keyboard-response","85","74894","0.0-85.0","3A7Y0R2P2PAQDNO8NZ3VGBRIC9IJX0","A1E3N1Y6XG1898","3I7KR83SNAZT1REYB2SRC49PCEEK9H","","null","<img src=""img/land4.png"" style=""width:200px; border:14px solid green;"">","null","","","","","","","","","",""
"","image-keyboard-response","86","75470","0.0-86.0","3A7Y0R2P2PAQDNO8NZ3VGBRIC9IJX0","A1E3N1Y6XG1898","3I7KR83SNAZT1REYB2SRC49PCEEK9H","","574","img/land4.png","75","575","2","1","1","2","0.8,0.2,0.2,0.2,0.8,0.2,0.2,0.2,0.8","0.2,0.8,0.2,0.2,0.2,0.8,0.8,0.2,0.2","3","",""
"","html-keyboard-response","87","75772","0.0-87.0","3A7Y0R2P2PAQDNO8NZ3VGBRIC9IJX0","A1E3N1Y6XG1898","3I7KR83SNAZT1REYB2SRC49PCEEK9H","","null","<img src=""img/land4.png"" style=""width:200px; border:14px solid green;"">","null","","","","","","","","","",""
"","image-keyboard-response","88","76321","0.0-88.0","3A7Y0R2P2PAQDNO8NZ3VGBRIC9IJX0","A1E3N1Y6XG1898","3I7KR83SNAZT1REYB2SRC49PCEEK9H","","547.7999999970198","img/land3.png","74","548.6000000089407","1","1","3","2","0.8,0.2,0.2,0.2,0.8,0.2,0.2,0.2,0.8","0.2,0.8,0.2,0.2,0.2,0.8,0.8,0.2,0.2","3","",""
"","html-keyboard-response","89","76627","0.0-89.0","3A7Y0R2P2PAQDNO8NZ3VGBRIC9IJX0","A1E3N1Y6XG1898","3I7KR83SNAZT1REYB2SRC49PCEEK9H","","null","<img src=""img/land3.png"" style=""width:200px; border:14px solid green;"">","null","","","","","","","","","",""
"","image-keyboard-response","90","77118","0.0-90.0","3A7Y0R2P2PAQDNO8NZ3VGBRIC9IJX0","A1E3N1Y6XG1898","3I7KR83SNAZT1REYB2SRC49PCEEK9H","","489.8999999910593","img/land4.png","75","490.90000000596046","2","1","1","2","0.8,0.2,0.2,0.2,0.8,0.2,0.2,0.2,0.8","0.2,0.8,0.2,0.2,0.2,0.8,0.8,0.2,0.2","3","",""
"","html-keyboard-response","91","77423","0.0-91.0","3A7Y0R2P2PAQDNO8NZ3VGBRIC9IJX0","A1E3N1Y6XG1898","3I7KR83SNAZT1REYB2SRC49PCEEK9H","","null","<img src=""img/land4.png"" style=""width:200px; border:14px solid green;"">","null","","","","","","","","","",""
"","image-keyboard-response","92","78006","0.0-92.0","3A7Y0R2P2PAQDNO8NZ3VGBRIC9IJX0","A1E3N1Y6XG1898","3I7KR83SNAZT1REYB2SRC49PCEEK9H","","581.9000000059605","img/land4.png","75","582.7000000029802","2","1","1","2","0.8,0.2,0.2,0.2,0.8,0.2,0.2,0.2,0.8","0.2,0.8,0.2,0.2,0.2,0.8,0.8,0.2,0.2","3","",""
"","html-keyboard-response","93","78312","0.0-93.0","3A7Y0R2P2PAQDNO8NZ3VGBRIC9IJX0","A1E3N1Y6XG1898","3I7KR83SNAZT1REYB2SRC49PCEEK9H","","null","<img src=""img/land4.png"" style=""width:200px; border:14px solid green;"">","null","","","","","","","","","",""
"","image-keyboard-response","94","78893","0.0-94.0","3A7Y0R2P2PAQDNO8NZ3VGBRIC9IJX0","A1E3N1Y6XG1898","3I7KR83SNAZT1REYB2SRC49PCEEK9H","","580","img/land5.png","76","580.7000000029802","3","0","2","2","0.8,0.2,0.2,0.2,0.8,0.2,0.2,0.2,0.8","0.2,0.8,0.2,0.2,0.2,0.8,0.8,0.2,0.2","3","",""
"","html-keyboard-response","95","79198","0.0-95.0","3A7Y0R2P2PAQDNO8NZ3VGBRIC9IJX0","A1E3N1Y6XG1898","3I7KR83SNAZT1REYB2SRC49PCEEK9H","","null","<img src=""img/land5.png"" style=""width:200px;border:14px solid red;"">","null","","","","","","","","","",""
"","image-keyboard-response","96","79901","0.0-96.0","3A7Y0R2P2PAQDNO8NZ3VGBRIC9IJX0","A1E3N1Y6XG1898","3I7KR83SNAZT1REYB2SRC49PCEEK9H","","702.2999999970198","img/land5.png","76","703","3","1","2","2","0.8,0.2,0.2,0.2,0.8,0.2,0.2,0.2,0.8","0.2,0.8,0.2,0.2,0.2,0.8,0.8,0.2,0.2","3","",""
"","html-keyboard-response","97","80204","0.0-97.0","3A7Y0R2P2PAQDNO8NZ3VGBRIC9IJX0","A1E3N1Y6XG1898","3I7KR83SNAZT1REYB2SRC49PCEEK9H","","null","<img src=""img/land5.png"" style=""width:200px; border:14px solid green;"">","null","","","","","","","","","",""
"","image-keyboard-response","98","80787","0.0-98.0","3A7Y0R2P2PAQDNO8NZ3VGBRIC9IJX0","A1E3N1Y6XG1898","3I7KR83SNAZT1REYB2SRC49PCEEK9H","","582","img/land4.png","75","582.5999999940395","2","1","1","2","0.8,0.2,0.2,0.2,0.8,0.2,0.2,0.2,0.8","0.2,0.8,0.2,0.2,0.2,0.8,0.8,0.2,0.2","3","",""
"","html-keyboard-response","99","81092","0.0-99.0","3A7Y0R2P2PAQDNO8NZ3VGBRIC9IJX0","A1E3N1Y6XG1898","3I7KR83SNAZT1REYB2SRC49PCEEK9H","","null","<img src=""img/land4.png"" style=""width:200px; border:14px solid green;"">","null","","","","","","","","","",""
"","image-keyboard-response","100","81610","0.0-100.0","3A7Y0R2P2PAQDNO8NZ3VGBRIC9IJX0","A1E3N1Y6XG1898","3I7KR83SNAZT1REYB2SRC49PCEEK9H","","516.2999999970198","img/land4.png","75","517.0999999940395","2","1","1","2","0.8,0.2,0.2,0.2,0.8,0.2,0.2,0.2,0.8","0.2,0.8,0.2,0.2,0.2,0.8,0.8,0.2,0.2","3","",""
"","html-keyboard-response","101","81911","0.0-101.0","3A7Y0R2P2PAQDNO8NZ3VGBRIC9IJX0","A1E3N1Y6XG1898","3I7KR83SNAZT1REYB2SRC49PCEEK9H","","null","<img src=""img/land4.png"" style=""width:200px; border:14px solid green;"">","null","","","","","","","","","",""
"","image-keyboard-response","102","82446","0.0-102.0","3A7Y0R2P2PAQDNO8NZ3VGBRIC9IJX0","A1E3N1Y6XG1898","3I7KR83SNAZT1REYB2SRC49PCEEK9H","","533.6999999880791","img/land4.png","75","534.3999999910593","2","0","1","2","0.8,0.2,0.2,0.2,0.8,0.2,0.2,0.2,0.8","0.2,0.8,0.2,0.2,0.2,0.8,0.8,0.2,0.2","3","",""
"","html-keyboard-response","103","82748","0.0-103.0","3A7Y0R2P2PAQDNO8NZ3VGBRIC9IJX0","A1E3N1Y6XG1898","3I7KR83SNAZT1REYB2SRC49PCEEK9H","","null","<img src=""img/land4.png"" style=""width:200px;border:14px solid red;"">","null","","","","","","","","","",""
"","image-keyboard-response","104","83595","0.0-104.0","3A7Y0R2P2PAQDNO8NZ3VGBRIC9IJX0","A1E3N1Y6XG1898","3I7KR83SNAZT1REYB2SRC49PCEEK9H","","846","img/land5.png","76","846.6000000089407","3","1","2","2","0.8,0.2,0.2,0.2,0.8,0.2,0.2,0.2,0.8","0.2,0.8,0.2,0.2,0.2,0.8,0.8,0.2,0.2","3","",""
"","html-keyboard-response","105","83898","0.0-105.0","3A7Y0R2P2PAQDNO8NZ3VGBRIC9IJX0","A1E3N1Y6XG1898","3I7KR83SNAZT1REYB2SRC49PCEEK9H","","null","<img src=""img/land5.png"" style=""width:200px; border:14px solid green;"">","null","","","","","","","","","",""
"","image-keyboard-response","106","84787","0.0-106.0","3A7Y0R2P2PAQDNO8NZ3VGBRIC9IJX0","A1E3N1Y6XG1898","3I7KR83SNAZT1REYB2SRC49PCEEK9H","","888.5","img/land4.png","74","889.1999999880791","1","0","1","2","0.8,0.2,0.2,0.2,0.8,0.2,0.2,0.2,0.8","0.2,0.8,0.2,0.2,0.2,0.8,0.8,0.2,0.2","3","",""
"","html-keyboard-response","107","85093","0.0-107.0","3A7Y0R2P2PAQDNO8NZ3VGBRIC9IJX0","A1E3N1Y6XG1898","3I7KR83SNAZT1REYB2SRC49PCEEK9H","","null","<img src=""img/land4.png"" style=""width:200px;border:14px solid red;"">","null","","","","","","","","","",""
"","image-keyboard-response","108","85662","0.0-108.0","3A7Y0R2P2PAQDNO8NZ3VGBRIC9IJX0","A1E3N1Y6XG1898","3I7KR83SNAZT1REYB2SRC49PCEEK9H","","567.7999999970198","img/land3.png","75","568.3999999910593","2","0","3","2","0.8,0.2,0.2,0.2,0.8,0.2,0.2,0.2,0.8","0.2,0.8,0.2,0.2,0.2,0.8,0.8,0.2,0.2","3","",""
"","html-keyboard-response","109","85964","0.0-109.0","3A7Y0R2P2PAQDNO8NZ3VGBRIC9IJX0","A1E3N1Y6XG1898","3I7KR83SNAZT1REYB2SRC49PCEEK9H","","null","<img src=""img/land3.png"" style=""width:200px;border:14px solid red;"">","null","","","","","","","","","",""
"","image-keyboard-response","110","86639","0.0-110.0","3A7Y0R2P2PAQDNO8NZ3VGBRIC9IJX0","A1E3N1Y6XG1898","3I7KR83SNAZT1REYB2SRC49PCEEK9H","","673.6999999880791","img/land4.png","75","674.4000000059605","2","1","1","2","0.8,0.2,0.2,0.2,0.8,0.2,0.2,0.2,0.8","0.2,0.8,0.2,0.2,0.2,0.8,0.8,0.2,0.2","3","",""
"","html-keyboard-response","111","86944","0.0-111.0","3A7Y0R2P2PAQDNO8NZ3VGBRIC9IJX0","A1E3N1Y6XG1898","3I7KR83SNAZT1REYB2SRC49PCEEK9H","","null","<img src=""img/land4.png"" style=""width:200px; border:14px solid green;"">","null","","","","","","","","","",""
"","image-keyboard-response","112","87620","0.0-112.0","3A7Y0R2P2PAQDNO8NZ3VGBRIC9IJX0","A1E3N1Y6XG1898","3I7KR83SNAZT1REYB2SRC49PCEEK9H","","674.6000000089407","img/land5.png","76","675.2999999970198","3","1","2","2","0.8,0.2,0.2,0.2,0.8,0.2,0.2,0.2,0.8","0.2,0.8,0.2,0.2,0.2,0.8,0.8,0.2,0.2","3","",""
"","html-keyboard-response","113","87923","0.0-113.0","3A7Y0R2P2PAQDNO8NZ3VGBRIC9IJX0","A1E3N1Y6XG1898","3I7KR83SNAZT1REYB2SRC49PCEEK9H","","null","<img src=""img/land5.png"" style=""width:200px; border:14px solid green;"">","null","","","","","","","","","",""
"","image-keyboard-response","114","88472","0.0-114.0","3A7Y0R2P2PAQDNO8NZ3VGBRIC9IJX0","A1E3N1Y6XG1898","3I7KR83SNAZT1REYB2SRC49PCEEK9H","","547.7000000029802","img/land4.png","75","548.5","2","0","1","2","0.8,0.2,0.2,0.2,0.8,0.2,0.2,0.2,0.8","0.2,0.8,0.2,0.2,0.2,0.8,0.8,0.2,0.2","3","",""
"","html-keyboard-response","115","88777","0.0-115.0","3A7Y0R2P2PAQDNO8NZ3VGBRIC9IJX0","A1E3N1Y6XG1898","3I7KR83SNAZT1REYB2SRC49PCEEK9H","","null","<img src=""img/land4.png"" style=""width:200px;border:14px solid red;"">","null","","","","","","","","","",""
"","image-keyboard-response","116","89370","0.0-116.0","3A7Y0R2P2PAQDNO8NZ3VGBRIC9IJX0","A1E3N1Y6XG1898","3I7KR83SNAZT1REYB2SRC49PCEEK9H","","591.6000000089407","img/land4.png","75","592.2999999970198","2","1","1","2","0.8,0.2,0.2,0.2,0.8,0.2,0.2,0.2,0.8","0.2,0.8,0.2,0.2,0.2,0.8,0.8,0.2,0.2","3","",""
"","html-keyboard-response","117","89674","0.0-117.0","3A7Y0R2P2PAQDNO8NZ3VGBRIC9IJX0","A1E3N1Y6XG1898","3I7KR83SNAZT1REYB2SRC49PCEEK9H","","null","<img src=""img/land4.png"" style=""width:200px; border:14px solid green;"">","null","","","","","","","","","",""
"","image-keyboard-response","118","90298","0.0-118.0","3A7Y0R2P2PAQDNO8NZ3VGBRIC9IJX0","A1E3N1Y6XG1898","3I7KR83SNAZT1REYB2SRC49PCEEK9H","","623.2000000029802","img/land4.png","75","624","2","1","1","2","0.8,0.2,0.2,0.2,0.8,0.2,0.2,0.2,0.8","0.2,0.8,0.2,0.2,0.2,0.8,0.8,0.2,0.2","3","",""
"","html-keyboard-response","119","90599","0.0-119.0","3A7Y0R2P2PAQDNO8NZ3VGBRIC9IJX0","A1E3N1Y6XG1898","3I7KR83SNAZT1REYB2SRC49PCEEK9H","","null","<img src=""img/land4.png"" style=""width:200px; border:14px solid green;"">","null","","","","","","","","","",""
"","image-keyboard-response","120","91180","0.0-120.0","3A7Y0R2P2PAQDNO8NZ3VGBRIC9IJX0","A1E3N1Y6XG1898","3I7KR83SNAZT1REYB2SRC49PCEEK9H","","579.7000000029802","img/land4.png","75","580.2000000029802","2","1","1","2","0.8,0.2,0.2,0.2,0.8,0.2,0.2,0.2,0.8","0.2,0.8,0.2,0.2,0.2,0.8,0.8,0.2,0.2","3","",""
"","html-keyboard-response","121","91482","0.0-121.0","3A7Y0R2P2PAQDNO8NZ3VGBRIC9IJX0","A1E3N1Y6XG1898","3I7KR83SNAZT1REYB2SRC49PCEEK9H","","null","<img src=""img/land4.png"" style=""width:200px; border:14px solid green;"">","null","","","","","","","","","",""
"","image-keyboard-response","122","92031","0.0-122.0","3A7Y0R2P2PAQDNO8NZ3VGBRIC9IJX0","A1E3N1Y6XG1898","3I7KR83SNAZT1REYB2SRC49PCEEK9H","","549.1000000089407","img/land4.png","75","549.5999999940395","2","1","1","2","0.8,0.2,0.2,0.2,0.8,0.2,0.2,0.2,0.8","0.2,0.8,0.2,0.2,0.2,0.8,0.8,0.2,0.2","3","",""
"","html-keyboard-response","123","92334","0.0-123.0","3A7Y0R2P2PAQDNO8NZ3VGBRIC9IJX0","A1E3N1Y6XG1898","3I7KR83SNAZT1REYB2SRC49PCEEK9H","","null","<img src=""img/land4.png"" style=""width:200px; border:14px solid green;"">","null","","","","","","","","","",""
"","image-keyboard-response","124","92848","0.0-124.0","3A7Y0R2P2PAQDNO8NZ3VGBRIC9IJX0","A1E3N1Y6XG1898","3I7KR83SNAZT1REYB2SRC49PCEEK9H","","512.3999999910593","img/land4.png","75","513.2999999970198","2","0","1","2","0.8,0.2,0.2,0.2,0.8,0.2,0.2,0.2,0.8","0.2,0.8,0.2,0.2,0.2,0.8,0.8,0.2,0.2","3","",""
"","html-keyboard-response","125","93150","0.0-125.0","3A7Y0R2P2PAQDNO8NZ3VGBRIC9IJX0","A1E3N1Y6XG1898","3I7KR83SNAZT1REYB2SRC49PCEEK9H","","null","<img src=""img/land4.png"" style=""width:200px;border:14px solid red;"">","null","","","","","","","","","",""
"","image-keyboard-response","126","93769","0.0-126.0","3A7Y0R2P2PAQDNO8NZ3VGBRIC9IJX0","A1E3N1Y6XG1898","3I7KR83SNAZT1REYB2SRC49PCEEK9H","","618.7999999970198","img/land4.png","75","619.3999999910593","2","1","1","2","0.8,0.2,0.2,0.2,0.8,0.2,0.2,0.2,0.8","0.2,0.8,0.2,0.2,0.2,0.8,0.8,0.2,0.2","3","",""
"","html-keyboard-response","127","94071","0.0-127.0","3A7Y0R2P2PAQDNO8NZ3VGBRIC9IJX0","A1E3N1Y6XG1898","3I7KR83SNAZT1REYB2SRC49PCEEK9H","","null","<img src=""img/land4.png"" style=""width:200px; border:14px solid green;"">","null","","","","","","","","","",""
"","image-keyboard-response","128","94659","0.0-128.0","3A7Y0R2P2PAQDNO8NZ3VGBRIC9IJX0","A1E3N1Y6XG1898","3I7KR83SNAZT1REYB2SRC49PCEEK9H","","587.2999999970198","img/land4.png","75","587.7999999970198","2","1","1","2","0.8,0.2,0.2,0.2,0.8,0.2,0.2,0.2,0.8","0.2,0.8,0.2,0.2,0.2,0.8,0.8,0.2,0.2","3","",""
"","html-keyboard-response","129","94965","0.0-129.0","3A7Y0R2P2PAQDNO8NZ3VGBRIC9IJX0","A1E3N1Y6XG1898","3I7KR83SNAZT1REYB2SRC49PCEEK9H","","null","<img src=""img/land4.png"" style=""width:200px; border:14px solid green;"">","null","","","","","","","","","",""
"","image-keyboard-response","130","95730","0.0-130.0","3A7Y0R2P2PAQDNO8NZ3VGBRIC9IJX0","A1E3N1Y6XG1898","3I7KR83SNAZT1REYB2SRC49PCEEK9H","","764.7999999970198","img/land3.png","76","765.3999999910593","3","0","3","2","0.8,0.2,0.2,0.2,0.8,0.2,0.2,0.2,0.8","0.2,0.8,0.2,0.2,0.2,0.8,0.8,0.2,0.2","3","",""
"","html-keyboard-response","131","96033","0.0-131.0","3A7Y0R2P2PAQDNO8NZ3VGBRIC9IJX0","A1E3N1Y6XG1898","3I7KR83SNAZT1REYB2SRC49PCEEK9H","","null","<img src=""img/land3.png"" style=""width:200px;border:14px solid red;"">","null","","","","","","","","","",""
"","image-keyboard-response","132","96860","0.0-132.0","3A7Y0R2P2PAQDNO8NZ3VGBRIC9IJX0","A1E3N1Y6XG1898","3I7KR83SNAZT1REYB2SRC49PCEEK9H","","826.2000000029802","img/land5.png","74","827.0999999940395","1","1","2","2","0.8,0.2,0.2,0.2,0.8,0.2,0.2,0.2,0.8","0.2,0.8,0.2,0.2,0.2,0.8,0.8,0.2,0.2","3","",""
"","html-keyboard-response","133","97162","0.0-133.0","3A7Y0R2P2PAQDNO8NZ3VGBRIC9IJX0","A1E3N1Y6XG1898","3I7KR83SNAZT1REYB2SRC49PCEEK9H","","null","<img src=""img/land5.png"" style=""width:200px; border:14px solid green;"">","null","","","","","","","","","",""
"","image-keyboard-response","134","97959","0.0-134.0","3A7Y0R2P2PAQDNO8NZ3VGBRIC9IJX0","A1E3N1Y6XG1898","3I7KR83SNAZT1REYB2SRC49PCEEK9H","","796.3999999910593","img/land3.png","76","797","3","0","3","2","0.8,0.2,0.2,0.2,0.8,0.2,0.2,0.2,0.8","0.2,0.8,0.2,0.2,0.2,0.8,0.8,0.2,0.2","3","",""
"","html-keyboard-response","135","98265","0.0-135.0","3A7Y0R2P2PAQDNO8NZ3VGBRIC9IJX0","A1E3N1Y6XG1898","3I7KR83SNAZT1REYB2SRC49PCEEK9H","","null","<img src=""img/land3.png"" style=""width:200px;border:14px solid red;"">","null","","","","","","","","","",""
"","image-keyboard-response","136","98970","0.0-136.0","3A7Y0R2P2PAQDNO8NZ3VGBRIC9IJX0","A1E3N1Y6XG1898","3I7KR83SNAZT1REYB2SRC49PCEEK9H","","704.6000000089407","img/land3.png","74","705.3000000119209","1","1","3","2","0.8,0.2,0.2,0.2,0.8,0.2,0.2,0.2,0.8","0.2,0.8,0.2,0.2,0.2,0.8,0.8,0.2,0.2","3","",""
"","html-keyboard-response","137","99272","0.0-137.0","3A7Y0R2P2PAQDNO8NZ3VGBRIC9IJX0","A1E3N1Y6XG1898","3I7KR83SNAZT1REYB2SRC49PCEEK9H","","null","<img src=""img/land3.png"" style=""width:200px; border:14px solid green;"">","null","","","","","","","","","",""
"","image-keyboard-response","138","99964","0.0-138.0","3A7Y0R2P2PAQDNO8NZ3VGBRIC9IJX0","A1E3N1Y6XG1898","3I7KR83SNAZT1REYB2SRC49PCEEK9H","","691.9000000059605","img/land4.png","75","692.6000000089407","2","0","1","2","0.8,0.2,0.2,0.2,0.8,0.2,0.2,0.2,0.8","0.2,0.8,0.2,0.2,0.2,0.8,0.8,0.2,0.2","3","",""
"","html-keyboard-response","139","100269","0.0-139.0","3A7Y0R2P2PAQDNO8NZ3VGBRIC9IJX0","A1E3N1Y6XG1898","3I7KR83SNAZT1REYB2SRC49PCEEK9H","","null","<img src=""img/land4.png"" style=""width:200px;border:14px solid red;"">","null","","","","","","","","","",""
"","image-keyboard-response","140","100852","0.0-140.0","3A7Y0R2P2PAQDNO8NZ3VGBRIC9IJX0","A1E3N1Y6XG1898","3I7KR83SNAZT1REYB2SRC49PCEEK9H","","582.3000000119209","img/land4.png","75","582.9000000059605","2","0","1","2","0.8,0.2,0.2,0.2,0.8,0.2,0.2,0.2,0.8","0.2,0.8,0.2,0.2,0.2,0.8,0.8,0.2,0.2","3","",""
"","html-keyboard-response","141","101158","0.0-141.0","3A7Y0R2P2PAQDNO8NZ3VGBRIC9IJX0","A1E3N1Y6XG1898","3I7KR83SNAZT1REYB2SRC49PCEEK9H","","null","<img src=""img/land4.png"" style=""width:200px;border:14px solid red;"">","null","","","","","","","","","",""
"","image-keyboard-response","142","101687","0.0-142.0","3A7Y0R2P2PAQDNO8NZ3VGBRIC9IJX0","A1E3N1Y6XG1898","3I7KR83SNAZT1REYB2SRC49PCEEK9H","","527.7999999970198","img/land4.png","75","528.5","2","1","1","2","0.8,0.2,0.2,0.2,0.8,0.2,0.2,0.2,0.8","0.2,0.8,0.2,0.2,0.2,0.8,0.8,0.2,0.2","3","",""
"","html-keyboard-response","143","101992","0.0-143.0","3A7Y0R2P2PAQDNO8NZ3VGBRIC9IJX0","A1E3N1Y6XG1898","3I7KR83SNAZT1REYB2SRC49PCEEK9H","","null","<img src=""img/land4.png"" style=""width:200px; border:14px solid green;"">","null","","","","","","","","","",""
"","image-keyboard-response","144","102631","0.0-144.0","3A7Y0R2P2PAQDNO8NZ3VGBRIC9IJX0","A1E3N1Y6XG1898","3I7KR83SNAZT1REYB2SRC49PCEEK9H","","635.6000000089407","img/land4.png","75","636.1999999880791","2","1","1","2","0.8,0.2,0.2,0.2,0.8,0.2,0.2,0.2,0.8","0.2,0.8,0.2,0.2,0.2,0.8,0.8,0.2,0.2","3","",""
"","html-keyboard-response","145","102933","0.0-145.0","3A7Y0R2P2PAQDNO8NZ3VGBRIC9IJX0","A1E3N1Y6XG1898","3I7KR83SNAZT1REYB2SRC49PCEEK9H","","null","<img src=""img/land4.png"" style=""width:200px; border:14px solid green;"">","null","","","","","","","","","",""
"","image-keyboard-response","146","103457","0.0-146.0","3A7Y0R2P2PAQDNO8NZ3VGBRIC9IJX0","A1E3N1Y6XG1898","3I7KR83SNAZT1REYB2SRC49PCEEK9H","","522.9000000059605","img/land4.png","75","523.7000000029802","2","1","1","2","0.8,0.2,0.2,0.2,0.8,0.2,0.2,0.2,0.8","0.2,0.8,0.2,0.2,0.2,0.8,0.8,0.2,0.2","3","",""
"","html-keyboard-response","147","103759","0.0-147.0","3A7Y0R2P2PAQDNO8NZ3VGBRIC9IJX0","A1E3N1Y6XG1898","3I7KR83SNAZT1REYB2SRC49PCEEK9H","","null","<img src=""img/land4.png"" style=""width:200px; border:14px solid green;"">","null","","","","","","","","","",""
"","image-keyboard-response","148","104334","0.0-148.0","3A7Y0R2P2PAQDNO8NZ3VGBRIC9IJX0","A1E3N1Y6XG1898","3I7KR83SNAZT1REYB2SRC49PCEEK9H","","573.2999999970198","img/land4.png","75","574.1000000089407","2","1","1","2","0.8,0.2,0.2,0.2,0.8,0.2,0.2,0.2,0.8","0.2,0.8,0.2,0.2,0.2,0.8,0.8,0.2,0.2","3","",""
"","html-keyboard-response","149","104636","0.0-149.0","3A7Y0R2P2PAQDNO8NZ3VGBRIC9IJX0","A1E3N1Y6XG1898","3I7KR83SNAZT1REYB2SRC49PCEEK9H","","null","<img src=""img/land4.png"" style=""width:200px; border:14px solid green;"">","null","","","","","","","","","",""
"","image-keyboard-response","150","105242","0.0-150.0","3A7Y0R2P2PAQDNO8NZ3VGBRIC9IJX0","A1E3N1Y6XG1898","3I7KR83SNAZT1REYB2SRC49PCEEK9H","","604.7999999970198","img/land4.png","75","605.7000000029802","2","1","1","2","0.8,0.2,0.2,0.2,0.8,0.2,0.2,0.2,0.8","0.2,0.8,0.2,0.2,0.2,0.8,0.8,0.2,0.2","3","",""
"","html-keyboard-response","151","105548","0.0-151.0","3A7Y0R2P2PAQDNO8NZ3VGBRIC9IJX0","A1E3N1Y6XG1898","3I7KR83SNAZT1REYB2SRC49PCEEK9H","","null","<img src=""img/land4.png"" style=""width:200px; border:14px solid green;"">","null","","","","","","","","","",""
"","image-keyboard-response","152","106113","0.0-152.0","3A7Y0R2P2PAQDNO8NZ3VGBRIC9IJX0","A1E3N1Y6XG1898","3I7KR83SNAZT1REYB2SRC49PCEEK9H","","563.7000000029802","img/land4.png","75","564.5","2","1","1","2","0.8,0.2,0.2,0.2,0.8,0.2,0.2,0.2,0.8","0.2,0.8,0.2,0.2,0.2,0.8,0.8,0.2,0.2","3","",""
"","html-keyboard-response","153","106417","0.0-153.0","3A7Y0R2P2PAQDNO8NZ3VGBRIC9IJX0","A1E3N1Y6XG1898","3I7KR83SNAZT1REYB2SRC49PCEEK9H","","null","<img src=""img/land4.png"" style=""width:200px; border:14px solid green;"">","null","","","","","","","","","",""
"","image-keyboard-response","154","107008","0.0-154.0","3A7Y0R2P2PAQDNO8NZ3VGBRIC9IJX0","A1E3N1Y6XG1898","3I7KR83SNAZT1REYB2SRC49PCEEK9H","","590.2999999970198","img/land4.png","75","591.1000000089407","2","1","1","2","0.8,0.2,0.2,0.2,0.8,0.2,0.2,0.2,0.8","0.2,0.8,0.2,0.2,0.2,0.8,0.8,0.2,0.2","3","",""
"","html-keyboard-response","155","107313","0.0-155.0","3A7Y0R2P2PAQDNO8NZ3VGBRIC9IJX0","A1E3N1Y6XG1898","3I7KR83SNAZT1REYB2SRC49PCEEK9H","","null","<img src=""img/land4.png"" style=""width:200px; border:14px solid green;"">","null","","","","","","","","","",""
"","image-keyboard-response","156","107848","0.0-156.0","3A7Y0R2P2PAQDNO8NZ3VGBRIC9IJX0","A1E3N1Y6XG1898","3I7KR83SNAZT1REYB2SRC49PCEEK9H","","533.5999999940395","img/land4.png","75","534.2999999970198","2","1","1","2","0.8,0.2,0.2,0.2,0.8,0.2,0.2,0.2,0.8","0.2,0.8,0.2,0.2,0.2,0.8,0.8,0.2,0.2","3","",""
"","html-keyboard-response","157","108149","0.0-157.0","3A7Y0R2P2PAQDNO8NZ3VGBRIC9IJX0","A1E3N1Y6XG1898","3I7KR83SNAZT1REYB2SRC49PCEEK9H","","null","<img src=""img/land4.png"" style=""width:200px; border:14px solid green;"">","null","","","","","","","","","",""
"","image-keyboard-response","158","108686","0.0-158.0","3A7Y0R2P2PAQDNO8NZ3VGBRIC9IJX0","A1E3N1Y6XG1898","3I7KR83SNAZT1REYB2SRC49PCEEK9H","","535.5","img/land4.png","75","536.4000000059605","2","1","1","2","0.8,0.2,0.2,0.2,0.8,0.2,0.2,0.2,0.8","0.2,0.8,0.2,0.2,0.2,0.8,0.8,0.2,0.2","3","",""
"","html-keyboard-response","159","108989","0.0-159.0","3A7Y0R2P2PAQDNO8NZ3VGBRIC9IJX0","A1E3N1Y6XG1898","3I7KR83SNAZT1REYB2SRC49PCEEK9H","","null","<img src=""img/land4.png"" style=""width:200px; border:14px solid green;"">","null","","","","","","","","","",""
"","image-keyboard-response","160","109563","0.0-160.0","3A7Y0R2P2PAQDNO8NZ3VGBRIC9IJX0","A1E3N1Y6XG1898","3I7KR83SNAZT1REYB2SRC49PCEEK9H","","573","img/land4.png","75","573.8999999910593","2","1","1","2","0.8,0.2,0.2,0.2,0.8,0.2,0.2,0.2,0.8","0.2,0.8,0.2,0.2,0.2,0.8,0.8,0.2,0.2","3","",""
"","html-keyboard-response","161","109865","0.0-161.0","3A7Y0R2P2PAQDNO8NZ3VGBRIC9IJX0","A1E3N1Y6XG1898","3I7KR83SNAZT1REYB2SRC49PCEEK9H","","null","<img src=""img/land4.png"" style=""width:200px; border:14px solid green;"">","null","","","","","","","","","",""
"","image-keyboard-response","162","110437","0.0-162.0","3A7Y0R2P2PAQDNO8NZ3VGBRIC9IJX0","A1E3N1Y6XG1898","3I7KR83SNAZT1REYB2SRC49PCEEK9H","","570.9000000059605","img/land5.png","74","571.5","1","0","2","2","0.8,0.2,0.2,0.2,0.8,0.2,0.2,0.2,0.8","0.2,0.8,0.2,0.2,0.2,0.8,0.8,0.2,0.2","3","",""
"","html-keyboard-response","163","110742","0.0-163.0","3A7Y0R2P2PAQDNO8NZ3VGBRIC9IJX0","A1E3N1Y6XG1898","3I7KR83SNAZT1REYB2SRC49PCEEK9H","","null","<img src=""img/land5.png"" style=""width:200px;border:14px solid red;"">","null","","","","","","","","","",""
"","image-keyboard-response","164","111311","0.0-164.0","3A7Y0R2P2PAQDNO8NZ3VGBRIC9IJX0","A1E3N1Y6XG1898","3I7KR83SNAZT1REYB2SRC49PCEEK9H","","567.5","img/land4.png","75","568.4000000059605","2","1","1","2","0.8,0.2,0.2,0.2,0.8,0.2,0.2,0.2,0.8","0.2,0.8,0.2,0.2,0.2,0.8,0.8,0.2,0.2","3","",""
"","html-keyboard-response","165","111616","0.0-165.0","3A7Y0R2P2PAQDNO8NZ3VGBRIC9IJX0","A1E3N1Y6XG1898","3I7KR83SNAZT1REYB2SRC49PCEEK9H","","null","<img src=""img/land4.png"" style=""width:200px; border:14px solid green;"">","null","","","","","","","","","",""
"","image-keyboard-response","166","112321","0.0-166.0","3A7Y0R2P2PAQDNO8NZ3VGBRIC9IJX0","A1E3N1Y6XG1898","3I7KR83SNAZT1REYB2SRC49PCEEK9H","","704.5999999940395","img/land3.png","76","705.4000000059605","3","0","3","2","0.8,0.2,0.2,0.2,0.8,0.2,0.2,0.2,0.8","0.2,0.8,0.2,0.2,0.2,0.8,0.8,0.2,0.2","3","",""
"","html-keyboard-response","167","112624","0.0-167.0","3A7Y0R2P2PAQDNO8NZ3VGBRIC9IJX0","A1E3N1Y6XG1898","3I7KR83SNAZT1REYB2SRC49PCEEK9H","","null","<img src=""img/land3.png"" style=""width:200px;border:14px solid red;"">","null","","","","","","","","","",""
"","image-keyboard-response","168","113207","0.0-168.0","3A7Y0R2P2PAQDNO8NZ3VGBRIC9IJX0","A1E3N1Y6XG1898","3I7KR83SNAZT1REYB2SRC49PCEEK9H","","581.2999999970198","img/land4.png","75","582.0999999940395","2","1","1","2","0.8,0.2,0.2,0.2,0.8,0.2,0.2,0.2,0.8","0.2,0.8,0.2,0.2,0.2,0.8,0.8,0.2,0.2","3","",""
"","html-keyboard-response","169","113511","0.0-169.0","3A7Y0R2P2PAQDNO8NZ3VGBRIC9IJX0","A1E3N1Y6XG1898","3I7KR83SNAZT1REYB2SRC49PCEEK9H","","null","<img src=""img/land4.png"" style=""width:200px; border:14px solid green;"">","null","","","","","","","","","",""
"","image-keyboard-response","170","114050","0.0-170.0","3A7Y0R2P2PAQDNO8NZ3VGBRIC9IJX0","A1E3N1Y6XG1898","3I7KR83SNAZT1REYB2SRC49PCEEK9H","","537.8999999910593","img/land4.png","75","538.6000000089407","2","0","1","2","0.8,0.2,0.2,0.2,0.8,0.2,0.2,0.2,0.8","0.2,0.8,0.2,0.2,0.2,0.8,0.8,0.2,0.2","3","",""
"","html-keyboard-response","171","114351","0.0-171.0","3A7Y0R2P2PAQDNO8NZ3VGBRIC9IJX0","A1E3N1Y6XG1898","3I7KR83SNAZT1REYB2SRC49PCEEK9H","","null","<img src=""img/land4.png"" style=""width:200px;border:14px solid red;"">","null","","","","","","","","","",""
"","image-keyboard-response","172","114879","0.0-172.0","3A7Y0R2P2PAQDNO8NZ3VGBRIC9IJX0","A1E3N1Y6XG1898","3I7KR83SNAZT1REYB2SRC49PCEEK9H","","526.8000000119209","img/land4.png","75","527.4000000059605","2","1","1","2","0.8,0.2,0.2,0.2,0.8,0.2,0.2,0.2,0.8","0.2,0.8,0.2,0.2,0.2,0.8,0.8,0.2,0.2","3","",""
"","html-keyboard-response","173","115182","0.0-173.0","3A7Y0R2P2PAQDNO8NZ3VGBRIC9IJX0","A1E3N1Y6XG1898","3I7KR83SNAZT1REYB2SRC49PCEEK9H","","null","<img src=""img/land4.png"" style=""width:200px; border:14px solid green;"">","null","","","","","","","","","",""
"","image-keyboard-response","174","115722","0.0-174.0","3A7Y0R2P2PAQDNO8NZ3VGBRIC9IJX0","A1E3N1Y6XG1898","3I7KR83SNAZT1REYB2SRC49PCEEK9H","","538.5999999940395","img/land4.png","75","539.5","2","1","1","2","0.8,0.2,0.2,0.2,0.8,0.2,0.2,0.2,0.8","0.2,0.8,0.2,0.2,0.2,0.8,0.8,0.2,0.2","3","",""
"","html-keyboard-response","175","116024","0.0-175.0","3A7Y0R2P2PAQDNO8NZ3VGBRIC9IJX0","A1E3N1Y6XG1898","3I7KR83SNAZT1REYB2SRC49PCEEK9H","","null","<img src=""img/land4.png"" style=""width:200px; border:14px solid green;"">","null","","","","","","","","","",""
"","image-keyboard-response","176","116910","0.0-176.0","3A7Y0R2P2PAQDNO8NZ3VGBRIC9IJX0","A1E3N1Y6XG1898","3I7KR83SNAZT1REYB2SRC49PCEEK9H","","883.7000000029802","img/land5.png","76","884.5999999940395","3","1","2","2","0.8,0.2,0.2,0.2,0.8,0.2,0.2,0.2,0.8","0.2,0.8,0.2,0.2,0.2,0.8,0.8,0.2,0.2","3","",""
"","html-keyboard-response","177","117212","0.0-177.0","3A7Y0R2P2PAQDNO8NZ3VGBRIC9IJX0","A1E3N1Y6XG1898","3I7KR83SNAZT1REYB2SRC49PCEEK9H","","null","<img src=""img/land5.png"" style=""width:200px; border:14px solid green;"">","null","","","","","","","","","",""
"","image-keyboard-response","178","117735","0.0-178.0","3A7Y0R2P2PAQDNO8NZ3VGBRIC9IJX0","A1E3N1Y6XG1898","3I7KR83SNAZT1REYB2SRC49PCEEK9H","","521.7000000029802","img/land4.png","75","522.4000000059605","2","1","1","2","0.8,0.2,0.2,0.2,0.8,0.2,0.2,0.2,0.8","0.2,0.8,0.2,0.2,0.2,0.8,0.8,0.2,0.2","3","",""
"","html-keyboard-response","179","118039","0.0-179.0","3A7Y0R2P2PAQDNO8NZ3VGBRIC9IJX0","A1E3N1Y6XG1898","3I7KR83SNAZT1REYB2SRC49PCEEK9H","","null","<img src=""img/land4.png"" style=""width:200px; border:14px solid green;"">","null","","","","","","","","","",""
"","image-keyboard-response","180","118596","0.0-180.0","3A7Y0R2P2PAQDNO8NZ3VGBRIC9IJX0","A1E3N1Y6XG1898","3I7KR83SNAZT1REYB2SRC49PCEEK9H","","555.7999999970198","img/land4.png","75","556.5","2","0","1","2","0.8,0.2,0.2,0.2,0.8,0.2,0.2,0.2,0.8","0.2,0.8,0.2,0.2,0.2,0.8,0.8,0.2,0.2","3","",""
"","html-keyboard-response","181","118898","0.0-181.0","3A7Y0R2P2PAQDNO8NZ3VGBRIC9IJX0","A1E3N1Y6XG1898","3I7KR83SNAZT1REYB2SRC49PCEEK9H","","null","<img src=""img/land4.png"" style=""width:200px;border:14px solid red;"">","null","","","","","","","","","",""
"","image-keyboard-response","182","119495","0.0-182.0","3A7Y0R2P2PAQDNO8NZ3VGBRIC9IJX0","A1E3N1Y6XG1898","3I7KR83SNAZT1REYB2SRC49PCEEK9H","","595.6999999880791","img/land3.png","74","596.3999999910593","1","1","3","2","0.8,0.2,0.2,0.2,0.8,0.2,0.2,0.2,0.8","0.2,0.8,0.2,0.2,0.2,0.8,0.8,0.2,0.2","3","",""
"","html-keyboard-response","183","119797","0.0-183.0","3A7Y0R2P2PAQDNO8NZ3VGBRIC9IJX0","A1E3N1Y6XG1898","3I7KR83SNAZT1REYB2SRC49PCEEK9H","","null","<img src=""img/land3.png"" style=""width:200px; border:14px solid green;"">","null","","","","","","","","","",""
"","image-keyboard-response","184","120377","0.0-184.0","3A7Y0R2P2PAQDNO8NZ3VGBRIC9IJX0","A1E3N1Y6XG1898","3I7KR83SNAZT1REYB2SRC49PCEEK9H","","579.2999999970198","img/land4.png","75","580","2","1","1","2","0.8,0.2,0.2,0.2,0.8,0.2,0.2,0.2,0.8","0.2,0.8,0.2,0.2,0.2,0.8,0.8,0.2,0.2","3","",""
"","html-keyboard-response","185","120679","0.0-185.0","3A7Y0R2P2PAQDNO8NZ3VGBRIC9IJX0","A1E3N1Y6XG1898","3I7KR83SNAZT1REYB2SRC49PCEEK9H","","null","<img src=""img/land4.png"" style=""width:200px; border:14px solid green;"">","null","","","","","","","","","",""
"","image-keyboard-response","186","121410","0.0-186.0","3A7Y0R2P2PAQDNO8NZ3VGBRIC9IJX0","A1E3N1Y6XG1898","3I7KR83SNAZT1REYB2SRC49PCEEK9H","","729.3999999910593","img/land5.png","76","729.9000000059605","3","0","2","2","0.8,0.2,0.2,0.2,0.8,0.2,0.2,0.2,0.8","0.2,0.8,0.2,0.2,0.2,0.8,0.8,0.2,0.2","3","",""
"","html-keyboard-response","187","121711","0.0-187.0","3A7Y0R2P2PAQDNO8NZ3VGBRIC9IJX0","A1E3N1Y6XG1898","3I7KR83SNAZT1REYB2SRC49PCEEK9H","","null","<img src=""img/land5.png"" style=""width:200px;border:14px solid red;"">","null","","","","","","","","","",""
"","image-keyboard-response","188","122334","0.0-188.0","3A7Y0R2P2PAQDNO8NZ3VGBRIC9IJX0","A1E3N1Y6XG1898","3I7KR83SNAZT1REYB2SRC49PCEEK9H","","621.2999999970198","img/land4.png","75","622","2","0","1","2","0.8,0.2,0.2,0.2,0.8,0.2,0.2,0.2,0.8","0.2,0.8,0.2,0.2,0.2,0.8,0.8,0.2,0.2","3","",""
"","html-keyboard-response","189","122639","0.0-189.0","3A7Y0R2P2PAQDNO8NZ3VGBRIC9IJX0","A1E3N1Y6XG1898","3I7KR83SNAZT1REYB2SRC49PCEEK9H","","null","<img src=""img/land4.png"" style=""width:200px;border:14px solid red;"">","null","","","","","","","","","",""
"","image-keyboard-response","190","123207","0.0-190.0","3A7Y0R2P2PAQDNO8NZ3VGBRIC9IJX0","A1E3N1Y6XG1898","3I7KR83SNAZT1REYB2SRC49PCEEK9H","","567.5999999940395","img/land3.png","74","568.4000000059605","1","0","3","2","0.8,0.2,0.2,0.2,0.8,0.2,0.2,0.2,0.8","0.2,0.8,0.2,0.2,0.2,0.8,0.8,0.2,0.2","3","",""
"","html-keyboard-response","191","123513","0.0-191.0","3A7Y0R2P2PAQDNO8NZ3VGBRIC9IJX0","A1E3N1Y6XG1898","3I7KR83SNAZT1REYB2SRC49PCEEK9H","","null","<img src=""img/land3.png"" style=""width:200px;border:14px solid red;"">","null","","","","","","","","","",""
"","image-keyboard-response","192","124116","0.0-192.0","3A7Y0R2P2PAQDNO8NZ3VGBRIC9IJX0","A1E3N1Y6XG1898","3I7KR83SNAZT1REYB2SRC49PCEEK9H","","601.3999999910593","img/land4.png","75","602.2000000029802","2","1","1","2","0.8,0.2,0.2,0.2,0.8,0.2,0.2,0.2,0.8","0.2,0.8,0.2,0.2,0.2,0.8,0.8,0.2,0.2","3","",""
"","html-keyboard-response","193","124420","0.0-193.0","3A7Y0R2P2PAQDNO8NZ3VGBRIC9IJX0","A1E3N1Y6XG1898","3I7KR83SNAZT1REYB2SRC49PCEEK9H","","null","<img src=""img/land4.png"" style=""width:200px; border:14px solid green;"">","null","","","","","","","","","",""
"","image-keyboard-response","194","124968","0.0-194.0","3A7Y0R2P2PAQDNO8NZ3VGBRIC9IJX0","A1E3N1Y6XG1898","3I7KR83SNAZT1REYB2SRC49PCEEK9H","","547.7999999970198","img/land3.png","74","548.4000000059605","1","0","3","2","0.8,0.2,0.2,0.2,0.8,0.2,0.2,0.2,0.8","0.2,0.8,0.2,0.2,0.2,0.8,0.8,0.2,0.2","3","",""
"","html-keyboard-response","195","125270","0.0-195.0","3A7Y0R2P2PAQDNO8NZ3VGBRIC9IJX0","A1E3N1Y6XG1898","3I7KR83SNAZT1REYB2SRC49PCEEK9H","","null","<img src=""img/land3.png"" style=""width:200px;border:14px solid red;"">","null","","","","","","","","","",""
"","image-keyboard-response","196","125787","0.0-196.0","3A7Y0R2P2PAQDNO8NZ3VGBRIC9IJX0","A1E3N1Y6XG1898","3I7KR83SNAZT1REYB2SRC49PCEEK9H","","516.2000000029802","img/land4.png","75","517","2","1","1","2","0.8,0.2,0.2,0.2,0.8,0.2,0.2,0.2,0.8","0.2,0.8,0.2,0.2,0.2,0.8,0.8,0.2,0.2","3","",""
"","html-keyboard-response","197","126089","0.0-197.0","3A7Y0R2P2PAQDNO8NZ3VGBRIC9IJX0","A1E3N1Y6XG1898","3I7KR83SNAZT1REYB2SRC49PCEEK9H","","null","<img src=""img/land4.png"" style=""width:200px; border:14px solid green;"">","null","","","","","","","","","",""
"","image-keyboard-response","198","126680","0.0-198.0","3A7Y0R2P2PAQDNO8NZ3VGBRIC9IJX0","A1E3N1Y6XG1898","3I7KR83SNAZT1REYB2SRC49PCEEK9H","","589.5","img/land4.png","75","590.2999999970198","2","1","1","2","0.8,0.2,0.2,0.2,0.8,0.2,0.2,0.2,0.8","0.2,0.8,0.2,0.2,0.2,0.8,0.8,0.2,0.2","3","",""
"","html-keyboard-response","199","126985","0.0-199.0","3A7Y0R2P2PAQDNO8NZ3VGBRIC9IJX0","A1E3N1Y6XG1898","3I7KR83SNAZT1REYB2SRC49PCEEK9H","","null","<img src=""img/land4.png"" style=""width:200px; border:14px solid green;"">","null","","","","","","","","","",""
"","image-keyboard-response","200","127544","0.0-200.0","3A7Y0R2P2PAQDNO8NZ3VGBRIC9IJX0","A1E3N1Y6XG1898","3I7KR83SNAZT1REYB2SRC49PCEEK9H","","557.6000000089407","img/land3.png","74","558.1999999880791","1","1","3","2","0.8,0.2,0.2,0.2,0.8,0.2,0.2,0.2,0.8","0.2,0.8,0.2,0.2,0.2,0.8,0.8,0.2,0.2","3","",""
"","html-keyboard-response","201","127849","0.0-201.0","3A7Y0R2P2PAQDNO8NZ3VGBRIC9IJX0","A1E3N1Y6XG1898","3I7KR83SNAZT1REYB2SRC49PCEEK9H","","null","<img src=""img/land3.png"" style=""width:200px; border:14px solid green;"">","null","","","","","","","","","",""
"","image-keyboard-response","202","128528","0.0-202.0","3A7Y0R2P2PAQDNO8NZ3VGBRIC9IJX0","A1E3N1Y6XG1898","3I7KR83SNAZT1REYB2SRC49PCEEK9H","","677.8999999910593","img/land5.png","76","678.5999999940395","3","1","2","2","0.8,0.2,0.2,0.2,0.8,0.2,0.2,0.2,0.8","0.2,0.8,0.2,0.2,0.2,0.8,0.8,0.2,0.2","3","",""
"","html-keyboard-response","203","128829","0.0-203.0","3A7Y0R2P2PAQDNO8NZ3VGBRIC9IJX0","A1E3N1Y6XG1898","3I7KR83SNAZT1REYB2SRC49PCEEK9H","","null","<img src=""img/land5.png"" style=""width:200px; border:14px solid green;"">","null","","","","","","","","","",""
"","image-keyboard-response","204","129359","0.0-204.0","3A7Y0R2P2PAQDNO8NZ3VGBRIC9IJX0","A1E3N1Y6XG1898","3I7KR83SNAZT1REYB2SRC49PCEEK9H","","528.7000000029802","img/land5.png","76","529.5","3","1","2","2","0.8,0.2,0.2,0.2,0.8,0.2,0.2,0.2,0.8","0.2,0.8,0.2,0.2,0.2,0.8,0.8,0.2,0.2","3","",""
"","html-keyboard-response","205","129661","0.0-205.0","3A7Y0R2P2PAQDNO8NZ3VGBRIC9IJX0","A1E3N1Y6XG1898","3I7KR83SNAZT1REYB2SRC49PCEEK9H","","null","<img src=""img/land5.png"" style=""width:200px; border:14px solid green;"">","null","","","","","","","","","",""
"","image-keyboard-response","206","130323","0.0-206.0","3A7Y0R2P2PAQDNO8NZ3VGBRIC9IJX0","A1E3N1Y6XG1898","3I7KR83SNAZT1REYB2SRC49PCEEK9H","","660.8999999910593","img/land4.png","75","661.6999999880791","2","1","1","2","0.8,0.2,0.2,0.2,0.8,0.2,0.2,0.2,0.8","0.2,0.8,0.2,0.2,0.2,0.8,0.8,0.2,0.2","3","",""
"","html-keyboard-response","207","130625","0.0-207.0","3A7Y0R2P2PAQDNO8NZ3VGBRIC9IJX0","A1E3N1Y6XG1898","3I7KR83SNAZT1REYB2SRC49PCEEK9H","","null","<img src=""img/land4.png"" style=""width:200px; border:14px solid green;"">","null","","","","","","","","","",""
"","image-keyboard-response","208","131337","0.0-208.0","3A7Y0R2P2PAQDNO8NZ3VGBRIC9IJX0","A1E3N1Y6XG1898","3I7KR83SNAZT1REYB2SRC49PCEEK9H","","710.3999999910593","img/land3.png","74","711.0999999940395","1","0","3","2","0.8,0.2,0.2,0.2,0.8,0.2,0.2,0.2,0.8","0.2,0.8,0.2,0.2,0.2,0.8,0.8,0.2,0.2","3","",""
"","html-keyboard-response","209","131639","0.0-209.0","3A7Y0R2P2PAQDNO8NZ3VGBRIC9IJX0","A1E3N1Y6XG1898","3I7KR83SNAZT1REYB2SRC49PCEEK9H","","null","<img src=""img/land3.png"" style=""width:200px;border:14px solid red;"">","null","","","","","","","","","",""
"","image-keyboard-response","210","132189","0.0-210.0","3A7Y0R2P2PAQDNO8NZ3VGBRIC9IJX0","A1E3N1Y6XG1898","3I7KR83SNAZT1REYB2SRC49PCEEK9H","","549.5999999940395","img/land4.png","75","550.3999999910593","2","1","1","2","0.8,0.2,0.2,0.2,0.8,0.2,0.2,0.2,0.8","0.2,0.8,0.2,0.2,0.2,0.8,0.8,0.2,0.2","3","",""
"","html-keyboard-response","211","132496","0.0-211.0","3A7Y0R2P2PAQDNO8NZ3VGBRIC9IJX0","A1E3N1Y6XG1898","3I7KR83SNAZT1REYB2SRC49PCEEK9H","","null","<img src=""img/land4.png"" style=""width:200px; border:14px solid green;"">","null","","","","","","","","","",""
"","image-keyboard-response","212","133046","0.0-212.0","3A7Y0R2P2PAQDNO8NZ3VGBRIC9IJX0","A1E3N1Y6XG1898","3I7KR83SNAZT1REYB2SRC49PCEEK9H","","549.2999999970198","img/land3.png","74","549.9000000059605","1","1","3","2","0.8,0.2,0.2,0.2,0.8,0.2,0.2,0.2,0.8","0.2,0.8,0.2,0.2,0.2,0.8,0.8,0.2,0.2","3","",""
"","html-keyboard-response","213","133347","0.0-213.0","3A7Y0R2P2PAQDNO8NZ3VGBRIC9IJX0","A1E3N1Y6XG1898","3I7KR83SNAZT1REYB2SRC49PCEEK9H","","null","<img src=""img/land3.png"" style=""width:200px; border:14px solid green;"">","null","","","","","","","","","",""
"","image-keyboard-response","214","133903","0.0-214.0","3A7Y0R2P2PAQDNO8NZ3VGBRIC9IJX0","A1E3N1Y6XG1898","3I7KR83SNAZT1REYB2SRC49PCEEK9H","","554.5","img/land4.png","75","555.4000000059605","2","1","1","2","0.8,0.2,0.2,0.2,0.8,0.2,0.2,0.2,0.8","0.2,0.8,0.2,0.2,0.2,0.8,0.8,0.2,0.2","3","",""
"","html-keyboard-response","215","134204","0.0-215.0","3A7Y0R2P2PAQDNO8NZ3VGBRIC9IJX0","A1E3N1Y6XG1898","3I7KR83SNAZT1REYB2SRC49PCEEK9H","","null","<img src=""img/land4.png"" style=""width:200px; border:14px solid green;"">","null","","","","","","","","","",""
"","image-keyboard-response","216","134781","0.0-216.0","3A7Y0R2P2PAQDNO8NZ3VGBRIC9IJX0","A1E3N1Y6XG1898","3I7KR83SNAZT1REYB2SRC49PCEEK9H","","575.7000000029802","img/land4.png","75","576.5","2","1","1","2","0.8,0.2,0.2,0.2,0.8,0.2,0.2,0.2,0.8","0.2,0.8,0.2,0.2,0.2,0.8,0.8,0.2,0.2","3","",""
"","html-keyboard-response","217","135083","0.0-217.0","3A7Y0R2P2PAQDNO8NZ3VGBRIC9IJX0","A1E3N1Y6XG1898","3I7KR83SNAZT1REYB2SRC49PCEEK9H","","null","<img src=""img/land4.png"" style=""width:200px; border:14px solid green;"">","null","","","","","","","","","",""
"","image-keyboard-response","218","135742","0.0-218.0","3A7Y0R2P2PAQDNO8NZ3VGBRIC9IJX0","A1E3N1Y6XG1898","3I7KR83SNAZT1REYB2SRC49PCEEK9H","","657.9000000059605","img/land5.png","76","658.6000000089407","3","1","2","2","0.8,0.2,0.2,0.2,0.8,0.2,0.2,0.2,0.8","0.2,0.8,0.2,0.2,0.2,0.8,0.8,0.2,0.2","3","",""
"","html-keyboard-response","219","136044","0.0-219.0","3A7Y0R2P2PAQDNO8NZ3VGBRIC9IJX0","A1E3N1Y6XG1898","3I7KR83SNAZT1REYB2SRC49PCEEK9H","","null","<img src=""img/land5.png"" style=""width:200px; border:14px solid green;"">","null","","","","","","","","","",""
"","image-keyboard-response","220","136543","0.0-220.0","3A7Y0R2P2PAQDNO8NZ3VGBRIC9IJX0","A1E3N1Y6XG1898","3I7KR83SNAZT1REYB2SRC49PCEEK9H","","498.59999999403954","img/land4.png","75","499.29999999701977","2","1","1","2","0.8,0.2,0.2,0.2,0.8,0.2,0.2,0.2,0.8","0.2,0.8,0.2,0.2,0.2,0.8,0.8,0.2,0.2","3","",""
"","html-keyboard-response","221","136849","0.0-221.0","3A7Y0R2P2PAQDNO8NZ3VGBRIC9IJX0","A1E3N1Y6XG1898","3I7KR83SNAZT1REYB2SRC49PCEEK9H","","null","<img src=""img/land4.png"" style=""width:200px; border:14px solid green;"">","null","","","","","","","","","",""
"","image-keyboard-response","222","137424","0.0-222.0","3A7Y0R2P2PAQDNO8NZ3VGBRIC9IJX0","A1E3N1Y6XG1898","3I7KR83SNAZT1REYB2SRC49PCEEK9H","","574.6999999880791","img/land4.png","75","575.3999999910593","2","1","1","2","0.8,0.2,0.2,0.2,0.8,0.2,0.2,0.2,0.8","0.2,0.8,0.2,0.2,0.2,0.8,0.8,0.2,0.2","3","",""
"","html-keyboard-response","223","137730","0.0-223.0","3A7Y0R2P2PAQDNO8NZ3VGBRIC9IJX0","A1E3N1Y6XG1898","3I7KR83SNAZT1REYB2SRC49PCEEK9H","","null","<img src=""img/land4.png"" style=""width:200px; border:14px solid green;"">","null","","","","","","","","","",""
"","image-keyboard-response","224","138262","0.0-224.0","3A7Y0R2P2PAQDNO8NZ3VGBRIC9IJX0","A1E3N1Y6XG1898","3I7KR83SNAZT1REYB2SRC49PCEEK9H","","530.4000000059605","img/land4.png","75","531.0999999940395","2","1","1","2","0.8,0.2,0.2,0.2,0.8,0.2,0.2,0.2,0.8","0.2,0.8,0.2,0.2,0.2,0.8,0.8,0.2,0.2","3","",""
"","html-keyboard-response","225","138564","0.0-225.0","3A7Y0R2P2PAQDNO8NZ3VGBRIC9IJX0","A1E3N1Y6XG1898","3I7KR83SNAZT1REYB2SRC49PCEEK9H","","null","<img src=""img/land4.png"" style=""width:200px; border:14px solid green;"">","null","","","","","","","","","",""
"","image-keyboard-response","226","139117","0.0-226.0","3A7Y0R2P2PAQDNO8NZ3VGBRIC9IJX0","A1E3N1Y6XG1898","3I7KR83SNAZT1REYB2SRC49PCEEK9H","","551.2000000029802","img/land4.png","75","551.9000000059605","2","1","1","2","0.8,0.2,0.2,0.2,0.8,0.2,0.2,0.2,0.8","0.2,0.8,0.2,0.2,0.2,0.8,0.8,0.2,0.2","3","",""
"","html-keyboard-response","227","139418","0.0-227.0","3A7Y0R2P2PAQDNO8NZ3VGBRIC9IJX0","A1E3N1Y6XG1898","3I7KR83SNAZT1REYB2SRC49PCEEK9H","","null","<img src=""img/land4.png"" style=""width:200px; border:14px solid green;"">","null","","","","","","","","","",""
"","image-keyboard-response","228","139996","0.0-228.0","3A7Y0R2P2PAQDNO8NZ3VGBRIC9IJX0","A1E3N1Y6XG1898","3I7KR83SNAZT1REYB2SRC49PCEEK9H","","576.5","img/land4.png","75","577.2999999970198","2","1","1","2","0.8,0.2,0.2,0.2,0.8,0.2,0.2,0.2,0.8","0.2,0.8,0.2,0.2,0.2,0.8,0.8,0.2,0.2","3","",""
"","html-keyboard-response","229","140297","0.0-229.0","3A7Y0R2P2PAQDNO8NZ3VGBRIC9IJX0","A1E3N1Y6XG1898","3I7KR83SNAZT1REYB2SRC49PCEEK9H","","null","<img src=""img/land4.png"" style=""width:200px; border:14px solid green;"">","null","","","","","","","","","",""
"","image-keyboard-response","230","140911","0.0-230.0","3A7Y0R2P2PAQDNO8NZ3VGBRIC9IJX0","A1E3N1Y6XG1898","3I7KR83SNAZT1REYB2SRC49PCEEK9H","","613.3999999910593","img/land4.png","75","614","2","1","1","2","0.8,0.2,0.2,0.2,0.8,0.2,0.2,0.2,0.8","0.2,0.8,0.2,0.2,0.2,0.8,0.8,0.2,0.2","3","",""
"","html-keyboard-response","231","141217","0.0-231.0","3A7Y0R2P2PAQDNO8NZ3VGBRIC9IJX0","A1E3N1Y6XG1898","3I7KR83SNAZT1REYB2SRC49PCEEK9H","","null","<img src=""img/land4.png"" style=""width:200px; border:14px solid green;"">","null","","","","","","","","","",""
"","image-keyboard-response","232","141842","0.0-232.0","3A7Y0R2P2PAQDNO8NZ3VGBRIC9IJX0","A1E3N1Y6XG1898","3I7KR83SNAZT1REYB2SRC49PCEEK9H","","623.7000000029802","img/land5.png","76","624.5","3","1","2","2","0.8,0.2,0.2,0.2,0.8,0.2,0.2,0.2,0.8","0.2,0.8,0.2,0.2,0.2,0.8,0.8,0.2,0.2","3","",""
"","html-keyboard-response","233","142147","0.0-233.0","3A7Y0R2P2PAQDNO8NZ3VGBRIC9IJX0","A1E3N1Y6XG1898","3I7KR83SNAZT1REYB2SRC49PCEEK9H","","null","<img src=""img/land5.png"" style=""width:200px; border:14px solid green;"">","null","","","","","","","","","",""
"","image-keyboard-response","234","142652","0.0-234.0","3A7Y0R2P2PAQDNO8NZ3VGBRIC9IJX0","A1E3N1Y6XG1898","3I7KR83SNAZT1REYB2SRC49PCEEK9H","","502.30000001192093","img/land4.png","75","503","2","1","1","2","0.8,0.2,0.2,0.2,0.8,0.2,0.2,0.2,0.8","0.2,0.8,0.2,0.2,0.2,0.8,0.8,0.2,0.2","3","",""
"","html-keyboard-response","235","142954","0.0-235.0","3A7Y0R2P2PAQDNO8NZ3VGBRIC9IJX0","A1E3N1Y6XG1898","3I7KR83SNAZT1REYB2SRC49PCEEK9H","","null","<img src=""img/land4.png"" style=""width:200px; border:14px solid green;"">","null","","","","","","","","","",""
"","image-keyboard-response","236","143494","0.0-236.0","3A7Y0R2P2PAQDNO8NZ3VGBRIC9IJX0","A1E3N1Y6XG1898","3I7KR83SNAZT1REYB2SRC49PCEEK9H","","538.9000000059605","img/land4.png","75","539.6000000089407","2","1","1","2","0.8,0.2,0.2,0.2,0.8,0.2,0.2,0.2,0.8","0.2,0.8,0.2,0.2,0.2,0.8,0.8,0.2,0.2","3","",""
"","html-keyboard-response","237","143798","0.0-237.0","3A7Y0R2P2PAQDNO8NZ3VGBRIC9IJX0","A1E3N1Y6XG1898","3I7KR83SNAZT1REYB2SRC49PCEEK9H","","null","<img src=""img/land4.png"" style=""width:200px; border:14px solid green;"">","null","","","","","","","","","",""
"","image-keyboard-response","238","144328","0.0-238.0","3A7Y0R2P2PAQDNO8NZ3VGBRIC9IJX0","A1E3N1Y6XG1898","3I7KR83SNAZT1REYB2SRC49PCEEK9H","","528.0999999940395","img/land4.png","75","528.7999999970198","2","1","1","2","0.8,0.2,0.2,0.2,0.8,0.2,0.2,0.2,0.8","0.2,0.8,0.2,0.2,0.2,0.8,0.8,0.2,0.2","3","",""
"","html-keyboard-response","239","144633","0.0-239.0","3A7Y0R2P2PAQDNO8NZ3VGBRIC9IJX0","A1E3N1Y6XG1898","3I7KR83SNAZT1REYB2SRC49PCEEK9H","","null","<img src=""img/land4.png"" style=""width:200px; border:14px solid green;"">","null","","","","","","","","","",""
"","image-keyboard-response","240","145185","0.0-240.0","3A7Y0R2P2PAQDNO8NZ3VGBRIC9IJX0","A1E3N1Y6XG1898","3I7KR83SNAZT1REYB2SRC49PCEEK9H","","550.7999999970198","img/land4.png","75","551.5999999940395","2","1","1","2","0.8,0.2,0.2,0.2,0.8,0.2,0.2,0.2,0.8","0.2,0.8,0.2,0.2,0.2,0.8,0.8,0.2,0.2","3","",""
"","html-keyboard-response","241","145487","0.0-241.0","3A7Y0R2P2PAQDNO8NZ3VGBRIC9IJX0","A1E3N1Y6XG1898","3I7KR83SNAZT1REYB2SRC49PCEEK9H","","null","<img src=""img/land4.png"" style=""width:200px; border:14px solid green;"">","null","","","","","","","","","",""
"","image-keyboard-response","242","146423","0.0-242.0","3A7Y0R2P2PAQDNO8NZ3VGBRIC9IJX0","A1E3N1Y6XG1898","3I7KR83SNAZT1REYB2SRC49PCEEK9H","","935.1000000089407","img/land3.png","74","935.7000000029802","1","1","3","2","0.8,0.2,0.2,0.2,0.8,0.2,0.2,0.2,0.8","0.2,0.8,0.2,0.2,0.2,0.8,0.8,0.2,0.2","3","",""
"","html-keyboard-response","243","146724","0.0-243.0","3A7Y0R2P2PAQDNO8NZ3VGBRIC9IJX0","A1E3N1Y6XG1898","3I7KR83SNAZT1REYB2SRC49PCEEK9H","","null","<img src=""img/land3.png"" style=""width:200px; border:14px solid green;"">","null","","","","","","","","","",""
"","image-keyboard-response","244","147483","0.0-244.0","3A7Y0R2P2PAQDNO8NZ3VGBRIC9IJX0","A1E3N1Y6XG1898","3I7KR83SNAZT1REYB2SRC49PCEEK9H","","758.2000000029802","img/land5.png","76","759","3","1","2","2","0.8,0.2,0.2,0.2,0.8,0.2,0.2,0.2,0.8","0.2,0.8,0.2,0.2,0.2,0.8,0.8,0.2,0.2","3","",""
"","html-keyboard-response","245","147788","0.0-245.0","3A7Y0R2P2PAQDNO8NZ3VGBRIC9IJX0","A1E3N1Y6XG1898","3I7KR83SNAZT1REYB2SRC49PCEEK9H","","null","<img src=""img/land5.png"" style=""width:200px; border:14px solid green;"">","null","","","","","","","","","",""
"","image-keyboard-response","246","148332","0.0-246.0","3A7Y0R2P2PAQDNO8NZ3VGBRIC9IJX0","A1E3N1Y6XG1898","3I7KR83SNAZT1REYB2SRC49PCEEK9H","","542.7000000029802","img/land5.png","76","543.5","3","1","2","2","0.8,0.2,0.2,0.2,0.8,0.2,0.2,0.2,0.8","0.2,0.8,0.2,0.2,0.2,0.8,0.8,0.2,0.2","3","",""
"","html-keyboard-response","247","148635","0.0-247.0","3A7Y0R2P2PAQDNO8NZ3VGBRIC9IJX0","A1E3N1Y6XG1898","3I7KR83SNAZT1REYB2SRC49PCEEK9H","","null","<img src=""img/land5.png"" style=""width:200px; border:14px solid green;"">","null","","","","","","","","","",""
"","image-keyboard-response","248","149183","0.0-248.0","3A7Y0R2P2PAQDNO8NZ3VGBRIC9IJX0","A1E3N1Y6XG1898","3I7KR83SNAZT1REYB2SRC49PCEEK9H","","546.8000000119209","img/land3.png","74","547.5999999940395","1","1","3","2","0.8,0.2,0.2,0.2,0.8,0.2,0.2,0.2,0.8","0.2,0.8,0.2,0.2,0.2,0.8,0.8,0.2,0.2","3","",""
"","html-keyboard-response","249","149486","0.0-249.0","3A7Y0R2P2PAQDNO8NZ3VGBRIC9IJX0","A1E3N1Y6XG1898","3I7KR83SNAZT1REYB2SRC49PCEEK9H","","null","<img src=""img/land3.png"" style=""width:200px; border:14px solid green;"">","null","","","","","","","","","",""
"","image-keyboard-response","250","150061","0.0-250.0","3A7Y0R2P2PAQDNO8NZ3VGBRIC9IJX0","A1E3N1Y6XG1898","3I7KR83SNAZT1REYB2SRC49PCEEK9H","","574.6999999880791","img/land4.png","75","575.3000000119209","2","0","1","2","0.8,0.2,0.2,0.2,0.8,0.2,0.2,0.2,0.8","0.2,0.8,0.2,0.2,0.2,0.8,0.8,0.2,0.2","3","",""
"","html-keyboard-response","251","150366","0.0-251.0","3A7Y0R2P2PAQDNO8NZ3VGBRIC9IJX0","A1E3N1Y6XG1898","3I7KR83SNAZT1REYB2SRC49PCEEK9H","","null","<img src=""img/land4.png"" style=""width:200px;border:14px solid red;"">","null","","","","","","","","","",""
"","image-keyboard-response","252","151229","0.0-252.0","3A7Y0R2P2PAQDNO8NZ3VGBRIC9IJX0","A1E3N1Y6XG1898","3I7KR83SNAZT1REYB2SRC49PCEEK9H","","861.7999999970198","img/land3.png","74","862.5","1","0","3","2","0.8,0.2,0.2,0.2,0.8,0.2,0.2,0.2,0.8","0.2,0.8,0.2,0.2,0.2,0.8,0.8,0.2,0.2","3","",""
"","html-keyboard-response","253","151531","0.0-253.0","3A7Y0R2P2PAQDNO8NZ3VGBRIC9IJX0","A1E3N1Y6XG1898","3I7KR83SNAZT1REYB2SRC49PCEEK9H","","null","<img src=""img/land3.png"" style=""width:200px;border:14px solid red;"">","null","","","","","","","","","",""
"","image-keyboard-response","254","152076","0.0-254.0","3A7Y0R2P2PAQDNO8NZ3VGBRIC9IJX0","A1E3N1Y6XG1898","3I7KR83SNAZT1REYB2SRC49PCEEK9H","","544.7999999970198","img/land3.png","74","545.4000000059605","1","1","3","2","0.8,0.2,0.2,0.2,0.8,0.2,0.2,0.2,0.8","0.2,0.8,0.2,0.2,0.2,0.8,0.8,0.2,0.2","3","",""
"","html-keyboard-response","255","152378","0.0-255.0","3A7Y0R2P2PAQDNO8NZ3VGBRIC9IJX0","A1E3N1Y6XG1898","3I7KR83SNAZT1REYB2SRC49PCEEK9H","","null","<img src=""img/land3.png"" style=""width:200px; border:14px solid green;"">","null","","","","","","","","","",""
"","image-keyboard-response","256","153078","0.0-256.0","3A7Y0R2P2PAQDNO8NZ3VGBRIC9IJX0","A1E3N1Y6XG1898","3I7KR83SNAZT1REYB2SRC49PCEEK9H","","699.2000000029802","img/land4.png","75","699.8999999910593","2","0","1","2","0.8,0.2,0.2,0.2,0.8,0.2,0.2,0.2,0.8","0.2,0.8,0.2,0.2,0.2,0.8,0.8,0.2,0.2","3","",""
"","html-keyboard-response","257","153384","0.0-257.0","3A7Y0R2P2PAQDNO8NZ3VGBRIC9IJX0","A1E3N1Y6XG1898","3I7KR83SNAZT1REYB2SRC49PCEEK9H","","null","<img src=""img/land4.png"" style=""width:200px;border:14px solid red;"">","null","","","","","","","","","",""
"","image-keyboard-response","258","154004","0.0-258.0","3A7Y0R2P2PAQDNO8NZ3VGBRIC9IJX0","A1E3N1Y6XG1898","3I7KR83SNAZT1REYB2SRC49PCEEK9H","","619.5","img/land4.png","75","620.2000000029802","2","1","1","2","0.8,0.2,0.2,0.2,0.8,0.2,0.2,0.2,0.8","0.2,0.8,0.2,0.2,0.2,0.8,0.8,0.2,0.2","3","",""
"","html-keyboard-response","259","154306","0.0-259.0","3A7Y0R2P2PAQDNO8NZ3VGBRIC9IJX0","A1E3N1Y6XG1898","3I7KR83SNAZT1REYB2SRC49PCEEK9H","","null","<img src=""img/land4.png"" style=""width:200px; border:14px solid green;"">","null","","","","","","","","","",""
"","image-keyboard-response","260","154880","0.0-260.0","3A7Y0R2P2PAQDNO8NZ3VGBRIC9IJX0","A1E3N1Y6XG1898","3I7KR83SNAZT1REYB2SRC49PCEEK9H","","573.0999999940395","img/land3.png","74","573.6000000089407","1","1","3","2","0.8,0.2,0.2,0.2,0.8,0.2,0.2,0.2,0.8","0.2,0.8,0.2,0.2,0.2,0.8,0.8,0.2,0.2","3","",""
"","html-keyboard-response","261","155182","0.0-261.0","3A7Y0R2P2PAQDNO8NZ3VGBRIC9IJX0","A1E3N1Y6XG1898","3I7KR83SNAZT1REYB2SRC49PCEEK9H","","null","<img src=""img/land3.png"" style=""width:200px; border:14px solid green;"">","null","","","","","","","","","",""
"","image-keyboard-response","262","155746","0.0-262.0","3A7Y0R2P2PAQDNO8NZ3VGBRIC9IJX0","A1E3N1Y6XG1898","3I7KR83SNAZT1REYB2SRC49PCEEK9H","","562.5999999940395","img/land4.png","75","563.2999999970198","2","1","1","2","0.8,0.2,0.2,0.2,0.8,0.2,0.2,0.2,0.8","0.2,0.8,0.2,0.2,0.2,0.8,0.8,0.2,0.2","3","",""
"","html-keyboard-response","263","156049","0.0-263.0","3A7Y0R2P2PAQDNO8NZ3VGBRIC9IJX0","A1E3N1Y6XG1898","3I7KR83SNAZT1REYB2SRC49PCEEK9H","","null","<img src=""img/land4.png"" style=""width:200px; border:14px solid green;"">","null","","","","","","","","","",""
"","image-keyboard-response","264","156581","0.0-264.0","3A7Y0R2P2PAQDNO8NZ3VGBRIC9IJX0","A1E3N1Y6XG1898","3I7KR83SNAZT1REYB2SRC49PCEEK9H","","530.7999999970198","img/land4.png","75","531.2000000029802","2","1","1","2","0.8,0.2,0.2,0.2,0.8,0.2,0.2,0.2,0.8","0.2,0.8,0.2,0.2,0.2,0.8,0.8,0.2,0.2","3","",""
"","html-keyboard-response","265","156882","0.0-265.0","3A7Y0R2P2PAQDNO8NZ3VGBRIC9IJX0","A1E3N1Y6XG1898","3I7KR83SNAZT1REYB2SRC49PCEEK9H","","null","<img src=""img/land4.png"" style=""width:200px; border:14px solid green;"">","null","","","","","","","","","",""
"","image-keyboard-response","266","157410","0.0-266.0","3A7Y0R2P2PAQDNO8NZ3VGBRIC9IJX0","A1E3N1Y6XG1898","3I7KR83SNAZT1REYB2SRC49PCEEK9H","","527.2000000029802","img/land4.png","75","527.7999999970198","2","0","1","2","0.8,0.2,0.2,0.2,0.8,0.2,0.2,0.2,0.8","0.2,0.8,0.2,0.2,0.2,0.8,0.8,0.2,0.2","3","",""
"","html-keyboard-response","267","157712","0.0-267.0","3A7Y0R2P2PAQDNO8NZ3VGBRIC9IJX0","A1E3N1Y6XG1898","3I7KR83SNAZT1REYB2SRC49PCEEK9H","","null","<img src=""img/land4.png"" style=""width:200px;border:14px solid red;"">","null","","","","","","","","","",""
"","image-keyboard-response","268","158387","0.0-268.0","3A7Y0R2P2PAQDNO8NZ3VGBRIC9IJX0","A1E3N1Y6XG1898","3I7KR83SNAZT1REYB2SRC49PCEEK9H","","674.4000000059605","img/land5.png","76","675.1000000089407","3","0","2","2","0.8,0.2,0.2,0.2,0.8,0.2,0.2,0.2,0.8","0.2,0.8,0.2,0.2,0.2,0.8,0.8,0.2,0.2","3","",""
"","html-keyboard-response","269","158693","0.0-269.0","3A7Y0R2P2PAQDNO8NZ3VGBRIC9IJX0","A1E3N1Y6XG1898","3I7KR83SNAZT1REYB2SRC49PCEEK9H","","null","<img src=""img/land5.png"" style=""width:200px;border:14px solid red;"">","null","","","","","","","","","",""
"","image-keyboard-response","270","159298","0.0-270.0","3A7Y0R2P2PAQDNO8NZ3VGBRIC9IJX0","A1E3N1Y6XG1898","3I7KR83SNAZT1REYB2SRC49PCEEK9H","","604","img/land4.png","75","604.8999999910593","2","0","1","2","0.8,0.2,0.2,0.2,0.8,0.2,0.2,0.2,0.8","0.2,0.8,0.2,0.2,0.2,0.8,0.8,0.2,0.2","3","",""
"","html-keyboard-response","271","159600","0.0-271.0","3A7Y0R2P2PAQDNO8NZ3VGBRIC9IJX0","A1E3N1Y6XG1898","3I7KR83SNAZT1REYB2SRC49PCEEK9H","","null","<img src=""img/land4.png"" style=""width:200px;border:14px solid red;"">","null","","","","","","","","","",""
"","image-keyboard-response","272","160121","0.0-272.0","3A7Y0R2P2PAQDNO8NZ3VGBRIC9IJX0","A1E3N1Y6XG1898","3I7KR83SNAZT1REYB2SRC49PCEEK9H","","520.5","img/land4.png","75","521.2000000029802","2","1","1","2","0.8,0.2,0.2,0.2,0.8,0.2,0.2,0.2,0.8","0.2,0.8,0.2,0.2,0.2,0.8,0.8,0.2,0.2","3","",""
"","html-keyboard-response","273","160427","0.0-273.0","3A7Y0R2P2PAQDNO8NZ3VGBRIC9IJX0","A1E3N1Y6XG1898","3I7KR83SNAZT1REYB2SRC49PCEEK9H","","null","<img src=""img/land4.png"" style=""width:200px; border:14px solid green;"">","null","","","","","","","","","",""
"","image-keyboard-response","274","160951","0.0-274.0","3A7Y0R2P2PAQDNO8NZ3VGBRIC9IJX0","A1E3N1Y6XG1898","3I7KR83SNAZT1REYB2SRC49PCEEK9H","","522.5","img/land4.png","75","523.1000000089407","2","1","1","2","0.8,0.2,0.2,0.2,0.8,0.2,0.2,0.2,0.8","0.2,0.8,0.2,0.2,0.2,0.8,0.8,0.2,0.2","3","",""
"","html-keyboard-response","275","161255","0.0-275.0","3A7Y0R2P2PAQDNO8NZ3VGBRIC9IJX0","A1E3N1Y6XG1898","3I7KR83SNAZT1REYB2SRC49PCEEK9H","","null","<img src=""img/land4.png"" style=""width:200px; border:14px solid green;"">","null","","","","","","","","","",""
"","image-keyboard-response","276","161796","0.0-276.0","3A7Y0R2P2PAQDNO8NZ3VGBRIC9IJX0","A1E3N1Y6XG1898","3I7KR83SNAZT1REYB2SRC49PCEEK9H","","540","img/land4.png","75","540.5999999940395","2","1","1","2","0.8,0.2,0.2,0.2,0.8,0.2,0.2,0.2,0.8","0.2,0.8,0.2,0.2,0.2,0.8,0.8,0.2,0.2","3","",""
"","html-keyboard-response","277","162101","0.0-277.0","3A7Y0R2P2PAQDNO8NZ3VGBRIC9IJX0","A1E3N1Y6XG1898","3I7KR83SNAZT1REYB2SRC49PCEEK9H","","null","<img src=""img/land4.png"" style=""width:200px; border:14px solid green;"">","null","","","","","","","","","",""
"","image-keyboard-response","278","162804","0.0-278.0","3A7Y0R2P2PAQDNO8NZ3VGBRIC9IJX0","A1E3N1Y6XG1898","3I7KR83SNAZT1REYB2SRC49PCEEK9H","","701.9000000059605","img/land5.png","76","702.6000000089407","3","1","2","2","0.8,0.2,0.2,0.2,0.8,0.2,0.2,0.2,0.8","0.2,0.8,0.2,0.2,0.2,0.8,0.8,0.2,0.2","3","",""
"","html-keyboard-response","279","163106","0.0-279.0","3A7Y0R2P2PAQDNO8NZ3VGBRIC9IJX0","A1E3N1Y6XG1898","3I7KR83SNAZT1REYB2SRC49PCEEK9H","","null","<img src=""img/land5.png"" style=""width:200px; border:14px solid green;"">","null","","","","","","","","","",""
"","image-keyboard-response","280","163601","0.0-280.0","3A7Y0R2P2PAQDNO8NZ3VGBRIC9IJX0","A1E3N1Y6XG1898","3I7KR83SNAZT1REYB2SRC49PCEEK9H","","493.79999999701977","img/land5.png","76","494.5","3","1","2","2","0.8,0.2,0.2,0.2,0.8,0.2,0.2,0.2,0.8","0.2,0.8,0.2,0.2,0.2,0.8,0.8,0.2,0.2","3","",""
"","html-keyboard-response","281","163903","0.0-281.0","3A7Y0R2P2PAQDNO8NZ3VGBRIC9IJX0","A1E3N1Y6XG1898","3I7KR83SNAZT1REYB2SRC49PCEEK9H","","null","<img src=""img/land5.png"" style=""width:200px; border:14px solid green;"">","null","","","","","","","","","",""
"","image-keyboard-response","282","164461","0.0-282.0","3A7Y0R2P2PAQDNO8NZ3VGBRIC9IJX0","A1E3N1Y6XG1898","3I7KR83SNAZT1REYB2SRC49PCEEK9H","","556.5","img/land4.png","75","557.1999999880791","2","1","1","2","0.8,0.2,0.2,0.2,0.8,0.2,0.2,0.2,0.8","0.2,0.8,0.2,0.2,0.2,0.8,0.8,0.2,0.2","3","",""
"","html-keyboard-response","283","164762","0.0-283.0","3A7Y0R2P2PAQDNO8NZ3VGBRIC9IJX0","A1E3N1Y6XG1898","3I7KR83SNAZT1REYB2SRC49PCEEK9H","","null","<img src=""img/land4.png"" style=""width:200px; border:14px solid green;"">","null","","","","","","","","","",""
"","image-keyboard-response","284","165259","0.0-284.0","3A7Y0R2P2PAQDNO8NZ3VGBRIC9IJX0","A1E3N1Y6XG1898","3I7KR83SNAZT1REYB2SRC49PCEEK9H","","495.90000000596046","img/land4.png","75","496.59999999403954","2","1","1","2","0.8,0.2,0.2,0.2,0.8,0.2,0.2,0.2,0.8","0.2,0.8,0.2,0.2,0.2,0.8,0.8,0.2,0.2","3","",""
"","html-keyboard-response","285","165560","0.0-285.0","3A7Y0R2P2PAQDNO8NZ3VGBRIC9IJX0","A1E3N1Y6XG1898","3I7KR83SNAZT1REYB2SRC49PCEEK9H","","null","<img src=""img/land4.png"" style=""width:200px; border:14px solid green;"">","null","","","","","","","","","",""
"","image-keyboard-response","286","166075","0.0-286.0","3A7Y0R2P2PAQDNO8NZ3VGBRIC9IJX0","A1E3N1Y6XG1898","3I7KR83SNAZT1REYB2SRC49PCEEK9H","","513.4000000059605","img/land4.png","75","514.2000000029802","2","0","1","2","0.8,0.2,0.2,0.2,0.8,0.2,0.2,0.2,0.8","0.2,0.8,0.2,0.2,0.2,0.8,0.8,0.2,0.2","3","",""
"","html-keyboard-response","287","166380","0.0-287.0","3A7Y0R2P2PAQDNO8NZ3VGBRIC9IJX0","A1E3N1Y6XG1898","3I7KR83SNAZT1REYB2SRC49PCEEK9H","","null","<img src=""img/land4.png"" style=""width:200px;border:14px solid red;"">","null","","","","","","","","","",""
"","image-keyboard-response","288","167247","0.0-288.0","3A7Y0R2P2PAQDNO8NZ3VGBRIC9IJX0","A1E3N1Y6XG1898","3I7KR83SNAZT1REYB2SRC49PCEEK9H","","865.7000000029802","img/land4.png","75","866.5","2","1","1","2","0.8,0.2,0.2,0.2,0.8,0.2,0.2,0.2,0.8","0.2,0.8,0.2,0.2,0.2,0.8,0.8,0.2,0.2","3","",""
"","html-keyboard-response","289","167548","0.0-289.0","3A7Y0R2P2PAQDNO8NZ3VGBRIC9IJX0","A1E3N1Y6XG1898","3I7KR83SNAZT1REYB2SRC49PCEEK9H","","null","<img src=""img/land4.png"" style=""width:200px; border:14px solid green;"">","null","","","","","","","","","",""
"","image-keyboard-response","290","168069","0.0-290.0","3A7Y0R2P2PAQDNO8NZ3VGBRIC9IJX0","A1E3N1Y6XG1898","3I7KR83SNAZT1REYB2SRC49PCEEK9H","","520.6000000089407","img/land4.png","75","521.2999999970198","2","1","1","2","0.8,0.2,0.2,0.2,0.8,0.2,0.2,0.2,0.8","0.2,0.8,0.2,0.2,0.2,0.8,0.8,0.2,0.2","3","",""
"","html-keyboard-response","291","168376","0.0-291.0","3A7Y0R2P2PAQDNO8NZ3VGBRIC9IJX0","A1E3N1Y6XG1898","3I7KR83SNAZT1REYB2SRC49PCEEK9H","","null","<img src=""img/land4.png"" style=""width:200px; border:14px solid green;"">","null","","","","","","","","","",""
"","image-keyboard-response","292","168846","0.0-292.0","3A7Y0R2P2PAQDNO8NZ3VGBRIC9IJX0","A1E3N1Y6XG1898","3I7KR83SNAZT1REYB2SRC49PCEEK9H","","469","img/land4.png","75","469.79999999701977","2","1","1","2","0.8,0.2,0.2,0.2,0.8,0.2,0.2,0.2,0.8","0.2,0.8,0.2,0.2,0.2,0.8,0.8,0.2,0.2","3","",""
"","html-keyboard-response","293","169151","0.0-293.0","3A7Y0R2P2PAQDNO8NZ3VGBRIC9IJX0","A1E3N1Y6XG1898","3I7KR83SNAZT1REYB2SRC49PCEEK9H","","null","<img src=""img/land4.png"" style=""width:200px; border:14px solid green;"">","null","","","","","","","","","",""
"","image-keyboard-response","294","169736","0.0-294.0","3A7Y0R2P2PAQDNO8NZ3VGBRIC9IJX0","A1E3N1Y6XG1898","3I7KR83SNAZT1REYB2SRC49PCEEK9H","","584.7999999970198","img/land5.png","76","585.5","3","1","2","2","0.8,0.2,0.2,0.2,0.8,0.2,0.2,0.2,0.8","0.2,0.8,0.2,0.2,0.2,0.8,0.8,0.2,0.2","3","",""
"","html-keyboard-response","295","170043","0.0-295.0","3A7Y0R2P2PAQDNO8NZ3VGBRIC9IJX0","A1E3N1Y6XG1898","3I7KR83SNAZT1REYB2SRC49PCEEK9H","","null","<img src=""img/land5.png"" style=""width:200px; border:14px solid green;"">","null","","","","","","","","","",""
"","image-keyboard-response","296","170559","0.0-296.0","3A7Y0R2P2PAQDNO8NZ3VGBRIC9IJX0","A1E3N1Y6XG1898","3I7KR83SNAZT1REYB2SRC49PCEEK9H","","514","img/land4.png","75","514.7000000029802","2","0","1","2","0.8,0.2,0.2,0.2,0.8,0.2,0.2,0.2,0.8","0.2,0.8,0.2,0.2,0.2,0.8,0.8,0.2,0.2","3","",""
"","html-keyboard-response","297","170863","0.0-297.0","3A7Y0R2P2PAQDNO8NZ3VGBRIC9IJX0","A1E3N1Y6XG1898","3I7KR83SNAZT1REYB2SRC49PCEEK9H","","null","<img src=""img/land4.png"" style=""width:200px;border:14px solid red;"">","null","","","","","","","","","",""
"","image-keyboard-response","298","171495","0.0-298.0","3A7Y0R2P2PAQDNO8NZ3VGBRIC9IJX0","A1E3N1Y6XG1898","3I7KR83SNAZT1REYB2SRC49PCEEK9H","","630.7999999970198","img/land5.png","76","631.5","3","1","2","2","0.8,0.2,0.2,0.2,0.8,0.2,0.2,0.2,0.8","0.2,0.8,0.2,0.2,0.2,0.8,0.8,0.2,0.2","3","",""
"","html-keyboard-response","299","171796","0.0-299.0","3A7Y0R2P2PAQDNO8NZ3VGBRIC9IJX0","A1E3N1Y6XG1898","3I7KR83SNAZT1REYB2SRC49PCEEK9H","","null","<img src=""img/land5.png"" style=""width:200px; border:14px solid green;"">","null","","","","","","","","","",""
"","image-keyboard-response","300","172302","0.0-300.0","3A7Y0R2P2PAQDNO8NZ3VGBRIC9IJX0","A1E3N1Y6XG1898","3I7KR83SNAZT1REYB2SRC49PCEEK9H","","504.59999999403954","img/land5.png","76","505.29999999701977","3","1","2","2","0.8,0.2,0.2,0.2,0.8,0.2,0.2,0.2,0.8","0.2,0.8,0.2,0.2,0.2,0.8,0.8,0.2,0.2","3","",""
"","html-keyboard-response","301","172604","0.0-301.0","3A7Y0R2P2PAQDNO8NZ3VGBRIC9IJX0","A1E3N1Y6XG1898","3I7KR83SNAZT1REYB2SRC49PCEEK9H","","null","<img src=""img/land5.png"" style=""width:200px; border:14px solid green;"">","null","","","","","","","","","",""
"","image-keyboard-response","302","174025","0.0-302.0","3A7Y0R2P2PAQDNO8NZ3VGBRIC9IJX0","A1E3N1Y6XG1898","3I7KR83SNAZT1REYB2SRC49PCEEK9H","","1420.5999999940395","img/land1.png","76","1421.2000000029802","3","0","1","1","0.8,0.2,0.2,0.2,0.8,0.2,0.2,0.2,0.8","0.8,0.2,0.2,0.2,0.8,0.2,0.2,0.2,0.8","1","",""
"","html-keyboard-response","303","174327","0.0-303.0","3A7Y0R2P2PAQDNO8NZ3VGBRIC9IJX0","A1E3N1Y6XG1898","3I7KR83SNAZT1REYB2SRC49PCEEK9H","","null","<img src=""img/land1.png"" style=""width:200px;border:14px solid red;"">","null","","","","","","","","","",""
"","image-keyboard-response","304","175489","0.0-304.0","3A7Y0R2P2PAQDNO8NZ3VGBRIC9IJX0","A1E3N1Y6XG1898","3I7KR83SNAZT1REYB2SRC49PCEEK9H","","1161","img/land1.png","75","1161.5999999940395","2","1","1","1","0.8,0.2,0.2,0.2,0.8,0.2,0.2,0.2,0.8","0.8,0.2,0.2,0.2,0.8,0.2,0.2,0.2,0.8","1","",""
"","html-keyboard-response","305","175790","0.0-305.0","3A7Y0R2P2PAQDNO8NZ3VGBRIC9IJX0","A1E3N1Y6XG1898","3I7KR83SNAZT1REYB2SRC49PCEEK9H","","null","<img src=""img/land1.png"" style=""width:200px; border:14px solid green;"">","null","","","","","","","","","",""
"","image-keyboard-response","306","176760","0.0-306.0","3A7Y0R2P2PAQDNO8NZ3VGBRIC9IJX0","A1E3N1Y6XG1898","3I7KR83SNAZT1REYB2SRC49PCEEK9H","","968.7000000029802","img/land2.png","75","969.0999999940395","2","1","2","1","0.8,0.2,0.2,0.2,0.8,0.2,0.2,0.2,0.8","0.8,0.2,0.2,0.2,0.8,0.2,0.2,0.2,0.8","1","",""
"","html-keyboard-response","307","177062","0.0-307.0","3A7Y0R2P2PAQDNO8NZ3VGBRIC9IJX0","A1E3N1Y6XG1898","3I7KR83SNAZT1REYB2SRC49PCEEK9H","","null","<img src=""img/land2.png"" style=""width:200px; border:14px solid green;"">","null","","","","","","","","","",""
"","image-keyboard-response","308","177660","0.0-308.0","3A7Y0R2P2PAQDNO8NZ3VGBRIC9IJX0","A1E3N1Y6XG1898","3I7KR83SNAZT1REYB2SRC49PCEEK9H","","597.2999999970198","img/land1.png","75","597.9000000059605","2","1","1","1","0.8,0.2,0.2,0.2,0.8,0.2,0.2,0.2,0.8","0.8,0.2,0.2,0.2,0.8,0.2,0.2,0.2,0.8","1","",""
"","html-keyboard-response","309","177962","0.0-309.0","3A7Y0R2P2PAQDNO8NZ3VGBRIC9IJX0","A1E3N1Y6XG1898","3I7KR83SNAZT1REYB2SRC49PCEEK9H","","null","<img src=""img/land1.png"" style=""width:200px; border:14px solid green;"">","null","","","","","","","","","",""
"","image-keyboard-response","310","178666","0.0-310.0","3A7Y0R2P2PAQDNO8NZ3VGBRIC9IJX0","A1E3N1Y6XG1898","3I7KR83SNAZT1REYB2SRC49PCEEK9H","","703.3000000119209","img/land1.png","75","704.0999999940395","2","0","1","1","0.8,0.2,0.2,0.2,0.8,0.2,0.2,0.2,0.8","0.8,0.2,0.2,0.2,0.8,0.2,0.2,0.2,0.8","1","",""
"","html-keyboard-response","311","178971","0.0-311.0","3A7Y0R2P2PAQDNO8NZ3VGBRIC9IJX0","A1E3N1Y6XG1898","3I7KR83SNAZT1REYB2SRC49PCEEK9H","","null","<img src=""img/land1.png"" style=""width:200px;border:14px solid red;"">","null","","","","","","","","","",""
"","image-keyboard-response","312","179765","0.0-312.0","3A7Y0R2P2PAQDNO8NZ3VGBRIC9IJX0","A1E3N1Y6XG1898","3I7KR83SNAZT1REYB2SRC49PCEEK9H","","792.1000000089407","img/land1.png","75","792.8000000119209","2","0","1","1","0.8,0.2,0.2,0.2,0.8,0.2,0.2,0.2,0.8","0.8,0.2,0.2,0.2,0.8,0.2,0.2,0.2,0.8","1","",""
"","html-keyboard-response","313","180068","0.0-313.0","3A7Y0R2P2PAQDNO8NZ3VGBRIC9IJX0","A1E3N1Y6XG1898","3I7KR83SNAZT1REYB2SRC49PCEEK9H","","null","<img src=""img/land1.png"" style=""width:200px;border:14px solid red;"">","null","","","","","","","","","",""
"","image-keyboard-response","314","181199","0.0-314.0","3A7Y0R2P2PAQDNO8NZ3VGBRIC9IJX0","A1E3N1Y6XG1898","3I7KR83SNAZT1REYB2SRC49PCEEK9H","","1129.2999999970198","img/land6.png","74","1129.9000000059605","1","0","3","1","0.8,0.2,0.2,0.2,0.8,0.2,0.2,0.2,0.8","0.8,0.2,0.2,0.2,0.8,0.2,0.2,0.2,0.8","1","",""
"","html-keyboard-response","315","181501","0.0-315.0","3A7Y0R2P2PAQDNO8NZ3VGBRIC9IJX0","A1E3N1Y6XG1898","3I7KR83SNAZT1REYB2SRC49PCEEK9H","","null","<img src=""img/land6.png"" style=""width:200px;border:14px solid red;"">","null","","","","","","","","","",""
"","image-keyboard-response","316","181848","0.0-316.0","3A7Y0R2P2PAQDNO8NZ3VGBRIC9IJX0","A1E3N1Y6XG1898","3I7KR83SNAZT1REYB2SRC49PCEEK9H","","345.79999999701977","img/land6.png","75","346.3999999910593","2","0","3","1","0.8,0.2,0.2,0.2,0.8,0.2,0.2,0.2,0.8","0.8,0.2,0.2,0.2,0.8,0.2,0.2,0.2,0.8","1","",""
"","html-keyboard-response","317","182149","0.0-317.0","3A7Y0R2P2PAQDNO8NZ3VGBRIC9IJX0","A1E3N1Y6XG1898","3I7KR83SNAZT1REYB2SRC49PCEEK9H","","null","<img src=""img/land6.png"" style=""width:200px;border:14px solid red;"">","null","","","","","","","","","",""
"","image-keyboard-response","318","182523","0.0-318.0","3A7Y0R2P2PAQDNO8NZ3VGBRIC9IJX0","A1E3N1Y6XG1898","3I7KR83SNAZT1REYB2SRC49PCEEK9H","","373","img/land6.png","76","373.79999999701977","3","1","3","1","0.8,0.2,0.2,0.2,0.8,0.2,0.2,0.2,0.8","0.8,0.2,0.2,0.2,0.8,0.2,0.2,0.2,0.8","1","",""
"","html-keyboard-response","319","182826","0.0-319.0","3A7Y0R2P2PAQDNO8NZ3VGBRIC9IJX0","A1E3N1Y6XG1898","3I7KR83SNAZT1REYB2SRC49PCEEK9H","","null","<img src=""img/land6.png"" style=""width:200px; border:14px solid green;"">","null","","","","","","","","","",""
"","image-keyboard-response","320","183528","0.0-320.0","3A7Y0R2P2PAQDNO8NZ3VGBRIC9IJX0","A1E3N1Y6XG1898","3I7KR83SNAZT1REYB2SRC49PCEEK9H","","700.5999999940395","img/land6.png","76","701.5999999940395","3","1","3","1","0.8,0.2,0.2,0.2,0.8,0.2,0.2,0.2,0.8","0.8,0.2,0.2,0.2,0.8,0.2,0.2,0.2,0.8","1","",""
"","html-keyboard-response","321","183831","0.0-321.0","3A7Y0R2P2PAQDNO8NZ3VGBRIC9IJX0","A1E3N1Y6XG1898","3I7KR83SNAZT1REYB2SRC49PCEEK9H","","null","<img src=""img/land6.png"" style=""width:200px; border:14px solid green;"">","null","","","","","","","","","",""
"","image-keyboard-response","322","184803","0.0-322.0","3A7Y0R2P2PAQDNO8NZ3VGBRIC9IJX0","A1E3N1Y6XG1898","3I7KR83SNAZT1REYB2SRC49PCEEK9H","","972","img/land2.png","75","972.6000000089407","2","1","2","1","0.8,0.2,0.2,0.2,0.8,0.2,0.2,0.2,0.8","0.8,0.2,0.2,0.2,0.8,0.2,0.2,0.2,0.8","1","",""
"","html-keyboard-response","323","185105","0.0-323.0","3A7Y0R2P2PAQDNO8NZ3VGBRIC9IJX0","A1E3N1Y6XG1898","3I7KR83SNAZT1REYB2SRC49PCEEK9H","","null","<img src=""img/land2.png"" style=""width:200px; border:14px solid green;"">","null","","","","","","","","","",""
"","image-keyboard-response","324","185714","0.0-324.0","3A7Y0R2P2PAQDNO8NZ3VGBRIC9IJX0","A1E3N1Y6XG1898","3I7KR83SNAZT1REYB2SRC49PCEEK9H","","607.0999999940395","img/land1.png","75","607.7999999970198","2","1","1","1","0.8,0.2,0.2,0.2,0.8,0.2,0.2,0.2,0.8","0.8,0.2,0.2,0.2,0.8,0.2,0.2,0.2,0.8","1","",""
"","html-keyboard-response","325","186015","0.0-325.0","3A7Y0R2P2PAQDNO8NZ3VGBRIC9IJX0","A1E3N1Y6XG1898","3I7KR83SNAZT1REYB2SRC49PCEEK9H","","null","<img src=""img/land1.png"" style=""width:200px; border:14px solid green;"">","null","","","","","","","","","",""
"","image-keyboard-response","326","186652","0.0-326.0","3A7Y0R2P2PAQDNO8NZ3VGBRIC9IJX0","A1E3N1Y6XG1898","3I7KR83SNAZT1REYB2SRC49PCEEK9H","","635.7999999970198","img/land2.png","75","636.6000000089407","2","1","2","1","0.8,0.2,0.2,0.2,0.8,0.2,0.2,0.2,0.8","0.8,0.2,0.2,0.2,0.8,0.2,0.2,0.2,0.8","1","",""
"","html-keyboard-response","327","186953","0.0-327.0","3A7Y0R2P2PAQDNO8NZ3VGBRIC9IJX0","A1E3N1Y6XG1898","3I7KR83SNAZT1REYB2SRC49PCEEK9H","","null","<img src=""img/land2.png"" style=""width:200px; border:14px solid green;"">","null","","","","","","","","","",""
"","image-keyboard-response","328","187537","0.0-328.0","3A7Y0R2P2PAQDNO8NZ3VGBRIC9IJX0","A1E3N1Y6XG1898","3I7KR83SNAZT1REYB2SRC49PCEEK9H","","582.3999999910593","img/land1.png","75","583","2","0","1","1","0.8,0.2,0.2,0.2,0.8,0.2,0.2,0.2,0.8","0.8,0.2,0.2,0.2,0.8,0.2,0.2,0.2,0.8","1","",""
"","html-keyboard-response","329","187842","0.0-329.0","3A7Y0R2P2PAQDNO8NZ3VGBRIC9IJX0","A1E3N1Y6XG1898","3I7KR83SNAZT1REYB2SRC49PCEEK9H","","null","<img src=""img/land1.png"" style=""width:200px;border:14px solid red;"">","null","","","","","","","","","",""
"","image-keyboard-response","330","188534","0.0-330.0","3A7Y0R2P2PAQDNO8NZ3VGBRIC9IJX0","A1E3N1Y6XG1898","3I7KR83SNAZT1REYB2SRC49PCEEK9H","","690.6999999880791","img/land6.png","75","691.5","2","0","3","1","0.8,0.2,0.2,0.2,0.8,0.2,0.2,0.2,0.8","0.8,0.2,0.2,0.2,0.8,0.2,0.2,0.2,0.8","1","",""
"","html-keyboard-response","331","188840","0.0-331.0","3A7Y0R2P2PAQDNO8NZ3VGBRIC9IJX0","A1E3N1Y6XG1898","3I7KR83SNAZT1REYB2SRC49PCEEK9H","","null","<img src=""img/land6.png"" style=""width:200px;border:14px solid red;"">","null","","","","","","","","","",""
"","image-keyboard-response","332","189599","0.0-332.0","3A7Y0R2P2PAQDNO8NZ3VGBRIC9IJX0","A1E3N1Y6XG1898","3I7KR83SNAZT1REYB2SRC49PCEEK9H","","758.0999999940395","img/land2.png","75","759","2","1","2","1","0.8,0.2,0.2,0.2,0.8,0.2,0.2,0.2,0.8","0.8,0.2,0.2,0.2,0.8,0.2,0.2,0.2,0.8","1","",""
"","html-keyboard-response","333","189902","0.0-333.0","3A7Y0R2P2PAQDNO8NZ3VGBRIC9IJX0","A1E3N1Y6XG1898","3I7KR83SNAZT1REYB2SRC49PCEEK9H","","null","<img src=""img/land2.png"" style=""width:200px; border:14px solid green;"">","null","","","","","","","","","",""
"","image-keyboard-response","334","190798","0.0-334.0","3A7Y0R2P2PAQDNO8NZ3VGBRIC9IJX0","A1E3N1Y6XG1898","3I7KR83SNAZT1REYB2SRC49PCEEK9H","","895.2000000029802","img/land2.png","75","895.9000000059605","2","1","2","1","0.8,0.2,0.2,0.2,0.8,0.2,0.2,0.2,0.8","0.8,0.2,0.2,0.2,0.8,0.2,0.2,0.2,0.8","1","",""
"","html-keyboard-response","335","191100","0.0-335.0","3A7Y0R2P2PAQDNO8NZ3VGBRIC9IJX0","A1E3N1Y6XG1898","3I7KR83SNAZT1REYB2SRC49PCEEK9H","","null","<img src=""img/land2.png"" style=""width:200px; border:14px solid green;"">","null","","","","","","","","","",""
"","image-keyboard-response","336","191771","0.0-336.0","3A7Y0R2P2PAQDNO8NZ3VGBRIC9IJX0","A1E3N1Y6XG1898","3I7KR83SNAZT1REYB2SRC49PCEEK9H","","669.7999999970198","img/land6.png","75","670.5","2","0","3","1","0.8,0.2,0.2,0.2,0.8,0.2,0.2,0.2,0.8","0.8,0.2,0.2,0.2,0.8,0.2,0.2,0.2,0.8","1","",""
"","html-keyboard-response","337","192074","0.0-337.0","3A7Y0R2P2PAQDNO8NZ3VGBRIC9IJX0","A1E3N1Y6XG1898","3I7KR83SNAZT1REYB2SRC49PCEEK9H","","null","<img src=""img/land6.png"" style=""width:200px;border:14px solid red;"">","null","","","","","","","","","",""
"","image-keyboard-response","338","192791","0.0-338.0","3A7Y0R2P2PAQDNO8NZ3VGBRIC9IJX0","A1E3N1Y6XG1898","3I7KR83SNAZT1REYB2SRC49PCEEK9H","","715.7999999970198","img/land2.png","75","716.4000000059605","2","1","2","1","0.8,0.2,0.2,0.2,0.8,0.2,0.2,0.2,0.8","0.8,0.2,0.2,0.2,0.8,0.2,0.2,0.2,0.8","1","",""
"","html-keyboard-response","339","193093","0.0-339.0","3A7Y0R2P2PAQDNO8NZ3VGBRIC9IJX0","A1E3N1Y6XG1898","3I7KR83SNAZT1REYB2SRC49PCEEK9H","","null","<img src=""img/land2.png"" style=""width:200px; border:14px solid green;"">","null","","","","","","","","","",""
"","image-keyboard-response","340","193638","0.0-340.0","3A7Y0R2P2PAQDNO8NZ3VGBRIC9IJX0","A1E3N1Y6XG1898","3I7KR83SNAZT1REYB2SRC49PCEEK9H","","543.4000000059605","img/land6.png","74","544.2000000029802","1","0","3","1","0.8,0.2,0.2,0.2,0.8,0.2,0.2,0.2,0.8","0.8,0.2,0.2,0.2,0.8,0.2,0.2,0.2,0.8","1","",""
"","html-keyboard-response","341","193940","0.0-341.0","3A7Y0R2P2PAQDNO8NZ3VGBRIC9IJX0","A1E3N1Y6XG1898","3I7KR83SNAZT1REYB2SRC49PCEEK9H","","null","<img src=""img/land6.png"" style=""width:200px;border:14px solid red;"">","null","","","","","","","","","",""
"","image-keyboard-response","342","194543","0.0-342.0","3A7Y0R2P2PAQDNO8NZ3VGBRIC9IJX0","A1E3N1Y6XG1898","3I7KR83SNAZT1REYB2SRC49PCEEK9H","","601.0999999940395","img/land2.png","75","601.9000000059605","2","0","2","1","0.8,0.2,0.2,0.2,0.8,0.2,0.2,0.2,0.8","0.8,0.2,0.2,0.2,0.8,0.2,0.2,0.2,0.8","1","",""
"","html-keyboard-response","343","194845","0.0-343.0","3A7Y0R2P2PAQDNO8NZ3VGBRIC9IJX0","A1E3N1Y6XG1898","3I7KR83SNAZT1REYB2SRC49PCEEK9H","","null","<img src=""img/land2.png"" style=""width:200px;border:14px solid red;"">","null","","","","","","","","","",""
"","image-keyboard-response","344","195796","0.0-344.0","3A7Y0R2P2PAQDNO8NZ3VGBRIC9IJX0","A1E3N1Y6XG1898","3I7KR83SNAZT1REYB2SRC49PCEEK9H","","950","img/land1.png","75","950.7000000029802","2","1","1","1","0.8,0.2,0.2,0.2,0.8,0.2,0.2,0.2,0.8","0.8,0.2,0.2,0.2,0.8,0.2,0.2,0.2,0.8","1","",""
"","html-keyboard-response","345","196100","0.0-345.0","3A7Y0R2P2PAQDNO8NZ3VGBRIC9IJX0","A1E3N1Y6XG1898","3I7KR83SNAZT1REYB2SRC49PCEEK9H","","null","<img src=""img/land1.png"" style=""width:200px; border:14px solid green;"">","null","","","","","","","","","",""
"","image-keyboard-response","346","196893","0.0-346.0","3A7Y0R2P2PAQDNO8NZ3VGBRIC9IJX0","A1E3N1Y6XG1898","3I7KR83SNAZT1REYB2SRC49PCEEK9H","","791.5","img/land6.png","76","792.2000000029802","3","1","3","1","0.8,0.2,0.2,0.2,0.8,0.2,0.2,0.2,0.8","0.8,0.2,0.2,0.2,0.8,0.2,0.2,0.2,0.8","1","",""
"","html-keyboard-response","347","197195","0.0-347.0","3A7Y0R2P2PAQDNO8NZ3VGBRIC9IJX0","A1E3N1Y6XG1898","3I7KR83SNAZT1REYB2SRC49PCEEK9H","","null","<img src=""img/land6.png"" style=""width:200px; border:14px solid green;"">","null","","","","","","","","","",""
"","image-keyboard-response","348","197911","0.0-348.0","3A7Y0R2P2PAQDNO8NZ3VGBRIC9IJX0","A1E3N1Y6XG1898","3I7KR83SNAZT1REYB2SRC49PCEEK9H","","714.9000000059605","img/land1.png","75","715.5999999940395","2","0","1","1","0.8,0.2,0.2,0.2,0.8,0.2,0.2,0.2,0.8","0.8,0.2,0.2,0.2,0.8,0.2,0.2,0.2,0.8","1","",""
"","html-keyboard-response","349","198215","0.0-349.0","3A7Y0R2P2PAQDNO8NZ3VGBRIC9IJX0","A1E3N1Y6XG1898","3I7KR83SNAZT1REYB2SRC49PCEEK9H","","null","<img src=""img/land1.png"" style=""width:200px;border:14px solid red;"">","null","","","","","","","","","",""
"","image-keyboard-response","350","198940","0.0-350.0","3A7Y0R2P2PAQDNO8NZ3VGBRIC9IJX0","A1E3N1Y6XG1898","3I7KR83SNAZT1REYB2SRC49PCEEK9H","","724.2000000029802","img/land6.png","76","724.7999999970198","3","1","3","1","0.8,0.2,0.2,0.2,0.8,0.2,0.2,0.2,0.8","0.8,0.2,0.2,0.2,0.8,0.2,0.2,0.2,0.8","1","",""
"","html-keyboard-response","351","199242","0.0-351.0","3A7Y0R2P2PAQDNO8NZ3VGBRIC9IJX0","A1E3N1Y6XG1898","3I7KR83SNAZT1REYB2SRC49PCEEK9H","","null","<img src=""img/land6.png"" style=""width:200px; border:14px solid green;"">","null","","","","","","","","","",""
"","image-keyboard-response","352","199776","0.0-352.0","3A7Y0R2P2PAQDNO8NZ3VGBRIC9IJX0","A1E3N1Y6XG1898","3I7KR83SNAZT1REYB2SRC49PCEEK9H","","532.7000000029802","img/land1.png","75","533.2999999970198","2","0","1","1","0.8,0.2,0.2,0.2,0.8,0.2,0.2,0.2,0.8","0.8,0.2,0.2,0.2,0.8,0.2,0.2,0.2,0.8","1","",""
"","html-keyboard-response","353","200077","0.0-353.0","3A7Y0R2P2PAQDNO8NZ3VGBRIC9IJX0","A1E3N1Y6XG1898","3I7KR83SNAZT1REYB2SRC49PCEEK9H","","null","<img src=""img/land1.png"" style=""width:200px;border:14px solid red;"">","null","","","","","","","","","",""
"","image-keyboard-response","354","200697","0.0-354.0","3A7Y0R2P2PAQDNO8NZ3VGBRIC9IJX0","A1E3N1Y6XG1898","3I7KR83SNAZT1REYB2SRC49PCEEK9H","","617.8999999910593","img/land6.png","76","618.7000000029802","3","1","3","1","0.8,0.2,0.2,0.2,0.8,0.2,0.2,0.2,0.8","0.8,0.2,0.2,0.2,0.8,0.2,0.2,0.2,0.8","1","",""
