"success","trial_type","trial_index","time_elapsed","internal_node_id","assignmentID","mturkID","hitID","view_history","rt","stimulus","key_press","reactionTime","a","r","s","cond","reward_cond","reward_cond_actual","reward_matrix_idx","responses","question_order"
"true","fullscreen","0","7987","0.0-0.0","39N5ACM9HF9WY298FW21X4RCDSD9PW","A1EFBEBVZP3D6G","3S1L4CQSFXRWQOWP2XFUSMS4AZDFAL","","","","","","","","","","","","","",""
"","instructions","1","25015","0.0-1.0","39N5ACM9HF9WY298FW21X4RCDSD9PW","A1EFBEBVZP3D6G","3S1L4CQSFXRWQOWP2XFUSMS4AZDFAL","[{""page_index"":0,""viewing_time"":1968},{""page_index"":1,""viewing_time"":1168},{""page_index"":2,""viewing_time"":1401},{""page_index"":3,""viewing_time"":1358},{""page_index"":4,""viewing_time"":1311},{""page_index"":5,""viewing_time"":7230},{""page_index"":6,""viewing_time"":2581}]","17019","","","","","","","","","","","",""
"","image-keyboard-response","2","27023","0.0-2.0","39N5ACM9HF9WY298FW21X4RCDSD9PW","A1EFBEBVZP3D6G","3S1L4CQSFXRWQOWP2XFUSMS4AZDFAL","","","img/land5.png","","2006","-1","0","3","1","1,0.5,0.5,0.5,1,0.5,0.5,0.5,1","1,0.5,0.5,0.5,1,0.5,0.5,0.5,1","1","",""
"","html-keyboard-response","3","27332","0.0-3.0","39N5ACM9HF9WY298FW21X4RCDSD9PW","A1EFBEBVZP3D6G","3S1L4CQSFXRWQOWP2XFUSMS4AZDFAL","","null","<img src=""img/land5.png"" style=""width:200px;border:14px solid red;"">","null","","","","","","","","","",""
"","image-keyboard-response","4","28039","0.0-4.0","39N5ACM9HF9WY298FW21X4RCDSD9PW","A1EFBEBVZP3D6G","3S1L4CQSFXRWQOWP2XFUSMS4AZDFAL","","703","img/land6.png","74","705","1","1","2","1","1,0.5,0.5,0.5,1,0.5,0.5,0.5,1","1,0.5,0.5,0.5,1,0.5,0.5,0.5,1","1","",""
"","html-keyboard-response","5","28341","0.0-5.0","39N5ACM9HF9WY298FW21X4RCDSD9PW","A1EFBEBVZP3D6G","3S1L4CQSFXRWQOWP2XFUSMS4AZDFAL","","null","<img src=""img/land6.png"" style=""width:200px; border:14px solid green;"">","null","","","","","","","","","",""
"","image-keyboard-response","6","28492","0.0-6.0","39N5ACM9HF9WY298FW21X4RCDSD9PW","A1EFBEBVZP3D6G","3S1L4CQSFXRWQOWP2XFUSMS4AZDFAL","","148","img/land2.png","76","150","3","0","1","1","1,0.5,0.5,0.5,1,0.5,0.5,0.5,1","1,0.5,0.5,0.5,1,0.5,0.5,0.5,1","1","",""
"","html-keyboard-response","7","28798","0.0-7.0","39N5ACM9HF9WY298FW21X4RCDSD9PW","A1EFBEBVZP3D6G","3S1L4CQSFXRWQOWP2XFUSMS4AZDFAL","","null","<img src=""img/land2.png"" style=""width:200px;border:14px solid red;"">","null","","","","","","","","","",""
"","image-keyboard-response","8","28862","0.0-8.0","39N5ACM9HF9WY298FW21X4RCDSD9PW","A1EFBEBVZP3D6G","3S1L4CQSFXRWQOWP2XFUSMS4AZDFAL","","62","img/land6.png","74","64","1","0","2","1","1,0.5,0.5,0.5,1,0.5,0.5,0.5,1","1,0.5,0.5,0.5,1,0.5,0.5,0.5,1","1","",""
"","html-keyboard-response","9","29167","0.0-9.0","39N5ACM9HF9WY298FW21X4RCDSD9PW","A1EFBEBVZP3D6G","3S1L4CQSFXRWQOWP2XFUSMS4AZDFAL","","null","<img src=""img/land6.png"" style=""width:200px;border:14px solid red;"">","null","","","","","","","","","",""
"","image-keyboard-response","10","29205","0.0-10.0","39N5ACM9HF9WY298FW21X4RCDSD9PW","A1EFBEBVZP3D6G","3S1L4CQSFXRWQOWP2XFUSMS4AZDFAL","","36","img/land2.png","76","38","3","1","1","1","1,0.5,0.5,0.5,1,0.5,0.5,0.5,1","1,0.5,0.5,0.5,1,0.5,0.5,0.5,1","1","",""
"","html-keyboard-response","11","29508","0.0-11.0","39N5ACM9HF9WY298FW21X4RCDSD9PW","A1EFBEBVZP3D6G","3S1L4CQSFXRWQOWP2XFUSMS4AZDFAL","","null","<img src=""img/land2.png"" style=""width:200px; border:14px solid green;"">","null","","","","","","","","","",""
"","image-keyboard-response","12","29631","0.0-12.0","39N5ACM9HF9WY298FW21X4RCDSD9PW","A1EFBEBVZP3D6G","3S1L4CQSFXRWQOWP2XFUSMS4AZDFAL","","121","img/land5.png","74","122","1","0","3","1","1,0.5,0.5,0.5,1,0.5,0.5,0.5,1","1,0.5,0.5,0.5,1,0.5,0.5,0.5,1","1","",""
"","html-keyboard-response","13","29932","0.0-13.0","39N5ACM9HF9WY298FW21X4RCDSD9PW","A1EFBEBVZP3D6G","3S1L4CQSFXRWQOWP2XFUSMS4AZDFAL","","null","<img src=""img/land5.png"" style=""width:200px;border:14px solid red;"">","null","","","","","","","","","",""
"","image-keyboard-response","14","29977","0.0-14.0","39N5ACM9HF9WY298FW21X4RCDSD9PW","A1EFBEBVZP3D6G","3S1L4CQSFXRWQOWP2XFUSMS4AZDFAL","","44","img/land2.png","76","45","3","1","1","1","1,0.5,0.5,0.5,1,0.5,0.5,0.5,1","1,0.5,0.5,0.5,1,0.5,0.5,0.5,1","1","",""
"","html-keyboard-response","15","30280","0.0-15.0","39N5ACM9HF9WY298FW21X4RCDSD9PW","A1EFBEBVZP3D6G","3S1L4CQSFXRWQOWP2XFUSMS4AZDFAL","","null","<img src=""img/land2.png"" style=""width:200px; border:14px solid green;"">","null","","","","","","","","","",""
"","image-keyboard-response","16","30352","0.0-16.0","39N5ACM9HF9WY298FW21X4RCDSD9PW","A1EFBEBVZP3D6G","3S1L4CQSFXRWQOWP2XFUSMS4AZDFAL","","71","img/land5.png","74","72","1","0","3","1","1,0.5,0.5,0.5,1,0.5,0.5,0.5,1","1,0.5,0.5,0.5,1,0.5,0.5,0.5,1","1","",""
"","html-keyboard-response","17","30653","0.0-17.0","39N5ACM9HF9WY298FW21X4RCDSD9PW","A1EFBEBVZP3D6G","3S1L4CQSFXRWQOWP2XFUSMS4AZDFAL","","null","<img src=""img/land5.png"" style=""width:200px;border:14px solid red;"">","null","","","","","","","","","",""
"","image-keyboard-response","18","30741","0.0-18.0","39N5ACM9HF9WY298FW21X4RCDSD9PW","A1EFBEBVZP3D6G","3S1L4CQSFXRWQOWP2XFUSMS4AZDFAL","","87","img/land6.png","76","88","3","1","2","1","1,0.5,0.5,0.5,1,0.5,0.5,0.5,1","1,0.5,0.5,0.5,1,0.5,0.5,0.5,1","1","",""
"","html-keyboard-response","19","31044","0.0-19.0","39N5ACM9HF9WY298FW21X4RCDSD9PW","A1EFBEBVZP3D6G","3S1L4CQSFXRWQOWP2XFUSMS4AZDFAL","","null","<img src=""img/land6.png"" style=""width:200px; border:14px solid green;"">","null","","","","","","","","","",""
"","image-keyboard-response","20","31132","0.0-20.0","39N5ACM9HF9WY298FW21X4RCDSD9PW","A1EFBEBVZP3D6G","3S1L4CQSFXRWQOWP2XFUSMS4AZDFAL","","86","img/land6.png","76","87","3","0","2","1","1,0.5,0.5,0.5,1,0.5,0.5,0.5,1","1,0.5,0.5,0.5,1,0.5,0.5,0.5,1","1","",""
"","html-keyboard-response","21","31456","0.0-21.0","39N5ACM9HF9WY298FW21X4RCDSD9PW","A1EFBEBVZP3D6G","3S1L4CQSFXRWQOWP2XFUSMS4AZDFAL","","null","<img src=""img/land6.png"" style=""width:200px;border:14px solid red;"">","null","","","","","","","","","",""
"","image-keyboard-response","22","31550","0.0-22.0","39N5ACM9HF9WY298FW21X4RCDSD9PW","A1EFBEBVZP3D6G","3S1L4CQSFXRWQOWP2XFUSMS4AZDFAL","","93","img/land5.png","76","94","3","1","3","1","1,0.5,0.5,0.5,1,0.5,0.5,0.5,1","1,0.5,0.5,0.5,1,0.5,0.5,0.5,1","1","",""
"","html-keyboard-response","23","31852","0.0-23.0","39N5ACM9HF9WY298FW21X4RCDSD9PW","A1EFBEBVZP3D6G","3S1L4CQSFXRWQOWP2XFUSMS4AZDFAL","","null","<img src=""img/land5.png"" style=""width:200px; border:14px solid green;"">","null","","","","","","","","","",""
"","image-keyboard-response","24","31953","0.0-24.0","39N5ACM9HF9WY298FW21X4RCDSD9PW","A1EFBEBVZP3D6G","3S1L4CQSFXRWQOWP2XFUSMS4AZDFAL","","98","img/land6.png","76","100","3","1","2","1","1,0.5,0.5,0.5,1,0.5,0.5,0.5,1","1,0.5,0.5,0.5,1,0.5,0.5,0.5,1","1","",""
"","html-keyboard-response","25","32256","0.0-25.0","39N5ACM9HF9WY298FW21X4RCDSD9PW","A1EFBEBVZP3D6G","3S1L4CQSFXRWQOWP2XFUSMS4AZDFAL","","null","<img src=""img/land6.png"" style=""width:200px; border:14px solid green;"">","null","","","","","","","","","",""
"","image-keyboard-response","26","32351","0.0-26.0","39N5ACM9HF9WY298FW21X4RCDSD9PW","A1EFBEBVZP3D6G","3S1L4CQSFXRWQOWP2XFUSMS4AZDFAL","","93","img/land2.png","74","95","1","1","1","1","1,0.5,0.5,0.5,1,0.5,0.5,0.5,1","1,0.5,0.5,0.5,1,0.5,0.5,0.5,1","1","",""
"","html-keyboard-response","27","32653","0.0-27.0","39N5ACM9HF9WY298FW21X4RCDSD9PW","A1EFBEBVZP3D6G","3S1L4CQSFXRWQOWP2XFUSMS4AZDFAL","","null","<img src=""img/land2.png"" style=""width:200px; border:14px solid green;"">","null","","","","","","","","","",""
"","image-keyboard-response","28","32736","0.0-28.0","39N5ACM9HF9WY298FW21X4RCDSD9PW","A1EFBEBVZP3D6G","3S1L4CQSFXRWQOWP2XFUSMS4AZDFAL","","82","img/land5.png","74","83","1","1","3","1","1,0.5,0.5,0.5,1,0.5,0.5,0.5,1","1,0.5,0.5,0.5,1,0.5,0.5,0.5,1","1","",""
"","html-keyboard-response","29","33038","0.0-29.0","39N5ACM9HF9WY298FW21X4RCDSD9PW","A1EFBEBVZP3D6G","3S1L4CQSFXRWQOWP2XFUSMS4AZDFAL","","null","<img src=""img/land5.png"" style=""width:200px; border:14px solid green;"">","null","","","","","","","","","",""
"","image-keyboard-response","30","33150","0.0-30.0","39N5ACM9HF9WY298FW21X4RCDSD9PW","A1EFBEBVZP3D6G","3S1L4CQSFXRWQOWP2XFUSMS4AZDFAL","","110","img/land6.png","74","111","1","0","2","1","1,0.5,0.5,0.5,1,0.5,0.5,0.5,1","1,0.5,0.5,0.5,1,0.5,0.5,0.5,1","1","",""
"","html-keyboard-response","31","33460","0.0-31.0","39N5ACM9HF9WY298FW21X4RCDSD9PW","A1EFBEBVZP3D6G","3S1L4CQSFXRWQOWP2XFUSMS4AZDFAL","","null","<img src=""img/land6.png"" style=""width:200px;border:14px solid red;"">","null","","","","","","","","","",""
"","image-keyboard-response","32","33546","0.0-32.0","39N5ACM9HF9WY298FW21X4RCDSD9PW","A1EFBEBVZP3D6G","3S1L4CQSFXRWQOWP2XFUSMS4AZDFAL","","84","img/land6.png","74","85","1","1","2","1","1,0.5,0.5,0.5,1,0.5,0.5,0.5,1","1,0.5,0.5,0.5,1,0.5,0.5,0.5,1","1","",""
"","html-keyboard-response","33","33870","0.0-33.0","39N5ACM9HF9WY298FW21X4RCDSD9PW","A1EFBEBVZP3D6G","3S1L4CQSFXRWQOWP2XFUSMS4AZDFAL","","null","<img src=""img/land6.png"" style=""width:200px; border:14px solid green;"">","null","","","","","","","","","",""
"","image-keyboard-response","34","33972","0.0-34.0","39N5ACM9HF9WY298FW21X4RCDSD9PW","A1EFBEBVZP3D6G","3S1L4CQSFXRWQOWP2XFUSMS4AZDFAL","","99","img/land6.png","76","101","3","1","2","1","1,0.5,0.5,0.5,1,0.5,0.5,0.5,1","1,0.5,0.5,0.5,1,0.5,0.5,0.5,1","1","",""
"","html-keyboard-response","35","34273","0.0-35.0","39N5ACM9HF9WY298FW21X4RCDSD9PW","A1EFBEBVZP3D6G","3S1L4CQSFXRWQOWP2XFUSMS4AZDFAL","","null","<img src=""img/land6.png"" style=""width:200px; border:14px solid green;"">","null","","","","","","","","","",""
"","image-keyboard-response","36","34380","0.0-36.0","39N5ACM9HF9WY298FW21X4RCDSD9PW","A1EFBEBVZP3D6G","3S1L4CQSFXRWQOWP2XFUSMS4AZDFAL","","106","img/land6.png","76","106","3","1","2","1","1,0.5,0.5,0.5,1,0.5,0.5,0.5,1","1,0.5,0.5,0.5,1,0.5,0.5,0.5,1","1","",""
"","html-keyboard-response","37","34681","0.0-37.0","39N5ACM9HF9WY298FW21X4RCDSD9PW","A1EFBEBVZP3D6G","3S1L4CQSFXRWQOWP2XFUSMS4AZDFAL","","null","<img src=""img/land6.png"" style=""width:200px; border:14px solid green;"">","null","","","","","","","","","",""
"","image-keyboard-response","38","34802","0.0-38.0","39N5ACM9HF9WY298FW21X4RCDSD9PW","A1EFBEBVZP3D6G","3S1L4CQSFXRWQOWP2XFUSMS4AZDFAL","","119","img/land5.png","74","120","1","0","3","1","1,0.5,0.5,0.5,1,0.5,0.5,0.5,1","1,0.5,0.5,0.5,1,0.5,0.5,0.5,1","1","",""
"","html-keyboard-response","39","35104","0.0-39.0","39N5ACM9HF9WY298FW21X4RCDSD9PW","A1EFBEBVZP3D6G","3S1L4CQSFXRWQOWP2XFUSMS4AZDFAL","","null","<img src=""img/land5.png"" style=""width:200px;border:14px solid red;"">","null","","","","","","","","","",""
"","image-keyboard-response","40","35191","0.0-40.0","39N5ACM9HF9WY298FW21X4RCDSD9PW","A1EFBEBVZP3D6G","3S1L4CQSFXRWQOWP2XFUSMS4AZDFAL","","86","img/land5.png","74","86","1","1","3","1","1,0.5,0.5,0.5,1,0.5,0.5,0.5,1","1,0.5,0.5,0.5,1,0.5,0.5,0.5,1","1","",""
"","html-keyboard-response","41","35492","0.0-41.0","39N5ACM9HF9WY298FW21X4RCDSD9PW","A1EFBEBVZP3D6G","3S1L4CQSFXRWQOWP2XFUSMS4AZDFAL","","null","<img src=""img/land5.png"" style=""width:200px; border:14px solid green;"">","null","","","","","","","","","",""
"","image-keyboard-response","42","35609","0.0-42.0","39N5ACM9HF9WY298FW21X4RCDSD9PW","A1EFBEBVZP3D6G","3S1L4CQSFXRWQOWP2XFUSMS4AZDFAL","","116","img/land5.png","74","116","1","1","3","1","1,0.5,0.5,0.5,1,0.5,0.5,0.5,1","1,0.5,0.5,0.5,1,0.5,0.5,0.5,1","1","",""
"","html-keyboard-response","43","35911","0.0-43.0","39N5ACM9HF9WY298FW21X4RCDSD9PW","A1EFBEBVZP3D6G","3S1L4CQSFXRWQOWP2XFUSMS4AZDFAL","","null","<img src=""img/land5.png"" style=""width:200px; border:14px solid green;"">","null","","","","","","","","","",""
"","image-keyboard-response","44","35985","0.0-44.0","39N5ACM9HF9WY298FW21X4RCDSD9PW","A1EFBEBVZP3D6G","3S1L4CQSFXRWQOWP2XFUSMS4AZDFAL","","70","img/land5.png","74","73","1","1","3","1","1,0.5,0.5,0.5,1,0.5,0.5,0.5,1","1,0.5,0.5,0.5,1,0.5,0.5,0.5,1","1","",""
"","html-keyboard-response","45","36287","0.0-45.0","39N5ACM9HF9WY298FW21X4RCDSD9PW","A1EFBEBVZP3D6G","3S1L4CQSFXRWQOWP2XFUSMS4AZDFAL","","null","<img src=""img/land5.png"" style=""width:200px; border:14px solid green;"">","null","","","","","","","","","",""
"","image-keyboard-response","46","36410","0.0-46.0","39N5ACM9HF9WY298FW21X4RCDSD9PW","A1EFBEBVZP3D6G","3S1L4CQSFXRWQOWP2XFUSMS4AZDFAL","","120","img/land5.png","76","122","3","1","3","1","1,0.5,0.5,0.5,1,0.5,0.5,0.5,1","1,0.5,0.5,0.5,1,0.5,0.5,0.5,1","1","",""
"","html-keyboard-response","47","36713","0.0-47.0","39N5ACM9HF9WY298FW21X4RCDSD9PW","A1EFBEBVZP3D6G","3S1L4CQSFXRWQOWP2XFUSMS4AZDFAL","","null","<img src=""img/land5.png"" style=""width:200px; border:14px solid green;"">","null","","","","","","","","","",""
"","image-keyboard-response","48","36813","0.0-48.0","39N5ACM9HF9WY298FW21X4RCDSD9PW","A1EFBEBVZP3D6G","3S1L4CQSFXRWQOWP2XFUSMS4AZDFAL","","96","img/land6.png","76","100","3","1","2","1","1,0.5,0.5,0.5,1,0.5,0.5,0.5,1","1,0.5,0.5,0.5,1,0.5,0.5,0.5,1","1","",""
"","html-keyboard-response","49","37117","0.0-49.0","39N5ACM9HF9WY298FW21X4RCDSD9PW","A1EFBEBVZP3D6G","3S1L4CQSFXRWQOWP2XFUSMS4AZDFAL","","null","<img src=""img/land6.png"" style=""width:200px; border:14px solid green;"">","null","","","","","","","","","",""
"","image-keyboard-response","50","37220","0.0-50.0","39N5ACM9HF9WY298FW21X4RCDSD9PW","A1EFBEBVZP3D6G","3S1L4CQSFXRWQOWP2XFUSMS4AZDFAL","","101","img/land2.png","74","103","1","1","1","1","1,0.5,0.5,0.5,1,0.5,0.5,0.5,1","1,0.5,0.5,0.5,1,0.5,0.5,0.5,1","1","",""
"","html-keyboard-response","51","37521","0.0-51.0","39N5ACM9HF9WY298FW21X4RCDSD9PW","A1EFBEBVZP3D6G","3S1L4CQSFXRWQOWP2XFUSMS4AZDFAL","","null","<img src=""img/land2.png"" style=""width:200px; border:14px solid green;"">","null","","","","","","","","","",""
"","image-keyboard-response","52","37599","0.0-52.0","39N5ACM9HF9WY298FW21X4RCDSD9PW","A1EFBEBVZP3D6G","3S1L4CQSFXRWQOWP2XFUSMS4AZDFAL","","76","img/land6.png","76","77","3","0","2","1","1,0.5,0.5,0.5,1,0.5,0.5,0.5,1","1,0.5,0.5,0.5,1,0.5,0.5,0.5,1","1","",""
"","html-keyboard-response","53","37901","0.0-53.0","39N5ACM9HF9WY298FW21X4RCDSD9PW","A1EFBEBVZP3D6G","3S1L4CQSFXRWQOWP2XFUSMS4AZDFAL","","null","<img src=""img/land6.png"" style=""width:200px;border:14px solid red;"">","null","","","","","","","","","",""
"","image-keyboard-response","54","37981","0.0-54.0","39N5ACM9HF9WY298FW21X4RCDSD9PW","A1EFBEBVZP3D6G","3S1L4CQSFXRWQOWP2XFUSMS4AZDFAL","","78","img/land5.png","74","79","1","1","3","1","1,0.5,0.5,0.5,1,0.5,0.5,0.5,1","1,0.5,0.5,0.5,1,0.5,0.5,0.5,1","1","",""
"","html-keyboard-response","55","38283","0.0-55.0","39N5ACM9HF9WY298FW21X4RCDSD9PW","A1EFBEBVZP3D6G","3S1L4CQSFXRWQOWP2XFUSMS4AZDFAL","","null","<img src=""img/land5.png"" style=""width:200px; border:14px solid green;"">","null","","","","","","","","","",""
"","image-keyboard-response","56","38400","0.0-56.0","39N5ACM9HF9WY298FW21X4RCDSD9PW","A1EFBEBVZP3D6G","3S1L4CQSFXRWQOWP2XFUSMS4AZDFAL","","116","img/land2.png","76","117","3","1","1","1","1,0.5,0.5,0.5,1,0.5,0.5,0.5,1","1,0.5,0.5,0.5,1,0.5,0.5,0.5,1","1","",""
"","html-keyboard-response","57","38701","0.0-57.0","39N5ACM9HF9WY298FW21X4RCDSD9PW","A1EFBEBVZP3D6G","3S1L4CQSFXRWQOWP2XFUSMS4AZDFAL","","null","<img src=""img/land2.png"" style=""width:200px; border:14px solid green;"">","null","","","","","","","","","",""
"","image-keyboard-response","58","38797","0.0-58.0","39N5ACM9HF9WY298FW21X4RCDSD9PW","A1EFBEBVZP3D6G","3S1L4CQSFXRWQOWP2XFUSMS4AZDFAL","","93","img/land5.png","74","95","1","1","3","1","1,0.5,0.5,0.5,1,0.5,0.5,0.5,1","1,0.5,0.5,0.5,1,0.5,0.5,0.5,1","1","",""
"","html-keyboard-response","59","39100","0.0-59.0","39N5ACM9HF9WY298FW21X4RCDSD9PW","A1EFBEBVZP3D6G","3S1L4CQSFXRWQOWP2XFUSMS4AZDFAL","","null","<img src=""img/land5.png"" style=""width:200px; border:14px solid green;"">","null","","","","","","","","","",""
"","image-keyboard-response","60","39192","0.0-60.0","39N5ACM9HF9WY298FW21X4RCDSD9PW","A1EFBEBVZP3D6G","3S1L4CQSFXRWQOWP2XFUSMS4AZDFAL","","90","img/land6.png","74","91","1","1","2","1","1,0.5,0.5,0.5,1,0.5,0.5,0.5,1","1,0.5,0.5,0.5,1,0.5,0.5,0.5,1","1","",""
"","html-keyboard-response","61","39495","0.0-61.0","39N5ACM9HF9WY298FW21X4RCDSD9PW","A1EFBEBVZP3D6G","3S1L4CQSFXRWQOWP2XFUSMS4AZDFAL","","null","<img src=""img/land6.png"" style=""width:200px; border:14px solid green;"">","null","","","","","","","","","",""
"","image-keyboard-response","62","39576","0.0-62.0","39N5ACM9HF9WY298FW21X4RCDSD9PW","A1EFBEBVZP3D6G","3S1L4CQSFXRWQOWP2XFUSMS4AZDFAL","","78","img/land2.png","76","79","3","1","1","1","1,0.5,0.5,0.5,1,0.5,0.5,0.5,1","1,0.5,0.5,0.5,1,0.5,0.5,0.5,1","1","",""
"","html-keyboard-response","63","39879","0.0-63.0","39N5ACM9HF9WY298FW21X4RCDSD9PW","A1EFBEBVZP3D6G","3S1L4CQSFXRWQOWP2XFUSMS4AZDFAL","","null","<img src=""img/land2.png"" style=""width:200px; border:14px solid green;"">","null","","","","","","","","","",""
"","image-keyboard-response","64","39997","0.0-64.0","39N5ACM9HF9WY298FW21X4RCDSD9PW","A1EFBEBVZP3D6G","3S1L4CQSFXRWQOWP2XFUSMS4AZDFAL","","116","img/land2.png","74","117","1","1","1","1","1,0.5,0.5,0.5,1,0.5,0.5,0.5,1","1,0.5,0.5,0.5,1,0.5,0.5,0.5,1","1","",""
"","html-keyboard-response","65","40300","0.0-65.0","39N5ACM9HF9WY298FW21X4RCDSD9PW","A1EFBEBVZP3D6G","3S1L4CQSFXRWQOWP2XFUSMS4AZDFAL","","null","<img src=""img/land2.png"" style=""width:200px; border:14px solid green;"">","null","","","","","","","","","",""
"","image-keyboard-response","66","40370","0.0-66.0","39N5ACM9HF9WY298FW21X4RCDSD9PW","A1EFBEBVZP3D6G","3S1L4CQSFXRWQOWP2XFUSMS4AZDFAL","","68","img/land2.png","76","69","3","0","1","1","1,0.5,0.5,0.5,1,0.5,0.5,0.5,1","1,0.5,0.5,0.5,1,0.5,0.5,0.5,1","1","",""
"","html-keyboard-response","67","40671","0.0-67.0","39N5ACM9HF9WY298FW21X4RCDSD9PW","A1EFBEBVZP3D6G","3S1L4CQSFXRWQOWP2XFUSMS4AZDFAL","","null","<img src=""img/land2.png"" style=""width:200px;border:14px solid red;"">","null","","","","","","","","","",""
"","image-keyboard-response","68","40799","0.0-68.0","39N5ACM9HF9WY298FW21X4RCDSD9PW","A1EFBEBVZP3D6G","3S1L4CQSFXRWQOWP2XFUSMS4AZDFAL","","127","img/land5.png","74","127","1","0","3","1","1,0.5,0.5,0.5,1,0.5,0.5,0.5,1","1,0.5,0.5,0.5,1,0.5,0.5,0.5,1","1","",""
"","html-keyboard-response","69","41101","0.0-69.0","39N5ACM9HF9WY298FW21X4RCDSD9PW","A1EFBEBVZP3D6G","3S1L4CQSFXRWQOWP2XFUSMS4AZDFAL","","null","<img src=""img/land5.png"" style=""width:200px;border:14px solid red;"">","null","","","","","","","","","",""
"","image-keyboard-response","70","41190","0.0-70.0","39N5ACM9HF9WY298FW21X4RCDSD9PW","A1EFBEBVZP3D6G","3S1L4CQSFXRWQOWP2XFUSMS4AZDFAL","","87","img/land5.png","74","88","1","0","3","1","1,0.5,0.5,0.5,1,0.5,0.5,0.5,1","1,0.5,0.5,0.5,1,0.5,0.5,0.5,1","1","",""
"","html-keyboard-response","71","41491","0.0-71.0","39N5ACM9HF9WY298FW21X4RCDSD9PW","A1EFBEBVZP3D6G","3S1L4CQSFXRWQOWP2XFUSMS4AZDFAL","","null","<img src=""img/land5.png"" style=""width:200px;border:14px solid red;"">","null","","","","","","","","","",""
"","image-keyboard-response","72","41555","0.0-72.0","39N5ACM9HF9WY298FW21X4RCDSD9PW","A1EFBEBVZP3D6G","3S1L4CQSFXRWQOWP2XFUSMS4AZDFAL","","62","img/land5.png","76","63","3","1","3","1","1,0.5,0.5,0.5,1,0.5,0.5,0.5,1","1,0.5,0.5,0.5,1,0.5,0.5,0.5,1","1","",""
"","html-keyboard-response","73","41858","0.0-73.0","39N5ACM9HF9WY298FW21X4RCDSD9PW","A1EFBEBVZP3D6G","3S1L4CQSFXRWQOWP2XFUSMS4AZDFAL","","null","<img src=""img/land5.png"" style=""width:200px; border:14px solid green;"">","null","","","","","","","","","",""
"","image-keyboard-response","74","41996","0.0-74.0","39N5ACM9HF9WY298FW21X4RCDSD9PW","A1EFBEBVZP3D6G","3S1L4CQSFXRWQOWP2XFUSMS4AZDFAL","","137","img/land2.png","76","138","3","0","1","1","1,0.5,0.5,0.5,1,0.5,0.5,0.5,1","1,0.5,0.5,0.5,1,0.5,0.5,0.5,1","1","",""
"","html-keyboard-response","75","42299","0.0-75.0","39N5ACM9HF9WY298FW21X4RCDSD9PW","A1EFBEBVZP3D6G","3S1L4CQSFXRWQOWP2XFUSMS4AZDFAL","","null","<img src=""img/land2.png"" style=""width:200px;border:14px solid red;"">","null","","","","","","","","","",""
"","image-keyboard-response","76","42467","0.0-76.0","39N5ACM9HF9WY298FW21X4RCDSD9PW","A1EFBEBVZP3D6G","3S1L4CQSFXRWQOWP2XFUSMS4AZDFAL","","166","img/land5.png","74","167","1","0","3","1","1,0.5,0.5,0.5,1,0.5,0.5,0.5,1","1,0.5,0.5,0.5,1,0.5,0.5,0.5,1","1","",""
"","html-keyboard-response","77","42768","0.0-77.0","39N5ACM9HF9WY298FW21X4RCDSD9PW","A1EFBEBVZP3D6G","3S1L4CQSFXRWQOWP2XFUSMS4AZDFAL","","null","<img src=""img/land5.png"" style=""width:200px;border:14px solid red;"">","null","","","","","","","","","",""
"","image-keyboard-response","78","42845","0.0-78.0","39N5ACM9HF9WY298FW21X4RCDSD9PW","A1EFBEBVZP3D6G","3S1L4CQSFXRWQOWP2XFUSMS4AZDFAL","","76","img/land2.png","74","76","1","1","1","1","1,0.5,0.5,0.5,1,0.5,0.5,0.5,1","1,0.5,0.5,0.5,1,0.5,0.5,0.5,1","1","",""
"","html-keyboard-response","79","43146","0.0-79.0","39N5ACM9HF9WY298FW21X4RCDSD9PW","A1EFBEBVZP3D6G","3S1L4CQSFXRWQOWP2XFUSMS4AZDFAL","","null","<img src=""img/land2.png"" style=""width:200px; border:14px solid green;"">","null","","","","","","","","","",""
"","image-keyboard-response","80","43226","0.0-80.0","39N5ACM9HF9WY298FW21X4RCDSD9PW","A1EFBEBVZP3D6G","3S1L4CQSFXRWQOWP2XFUSMS4AZDFAL","","79","img/land5.png","74","79","1","1","3","1","1,0.5,0.5,0.5,1,0.5,0.5,0.5,1","1,0.5,0.5,0.5,1,0.5,0.5,0.5,1","1","",""
"","html-keyboard-response","81","43528","0.0-81.0","39N5ACM9HF9WY298FW21X4RCDSD9PW","A1EFBEBVZP3D6G","3S1L4CQSFXRWQOWP2XFUSMS4AZDFAL","","null","<img src=""img/land5.png"" style=""width:200px; border:14px solid green;"">","null","","","","","","","","","",""
"","image-keyboard-response","82","43625","0.0-82.0","39N5ACM9HF9WY298FW21X4RCDSD9PW","A1EFBEBVZP3D6G","3S1L4CQSFXRWQOWP2XFUSMS4AZDFAL","","95","img/land2.png","74","96","1","1","1","1","1,0.5,0.5,0.5,1,0.5,0.5,0.5,1","1,0.5,0.5,0.5,1,0.5,0.5,0.5,1","1","",""
"","html-keyboard-response","83","43926","0.0-83.0","39N5ACM9HF9WY298FW21X4RCDSD9PW","A1EFBEBVZP3D6G","3S1L4CQSFXRWQOWP2XFUSMS4AZDFAL","","null","<img src=""img/land2.png"" style=""width:200px; border:14px solid green;"">","null","","","","","","","","","",""
"","image-keyboard-response","84","44031","0.0-84.0","39N5ACM9HF9WY298FW21X4RCDSD9PW","A1EFBEBVZP3D6G","3S1L4CQSFXRWQOWP2XFUSMS4AZDFAL","","104","img/land2.png","74","104","1","1","1","1","1,0.5,0.5,0.5,1,0.5,0.5,0.5,1","1,0.5,0.5,0.5,1,0.5,0.5,0.5,1","1","",""
"","html-keyboard-response","85","44334","0.0-85.0","39N5ACM9HF9WY298FW21X4RCDSD9PW","A1EFBEBVZP3D6G","3S1L4CQSFXRWQOWP2XFUSMS4AZDFAL","","null","<img src=""img/land2.png"" style=""width:200px; border:14px solid green;"">","null","","","","","","","","","",""
"","image-keyboard-response","86","44449","0.0-86.0","39N5ACM9HF9WY298FW21X4RCDSD9PW","A1EFBEBVZP3D6G","3S1L4CQSFXRWQOWP2XFUSMS4AZDFAL","","114","img/land5.png","74","115","1","0","3","1","1,0.5,0.5,0.5,1,0.5,0.5,0.5,1","1,0.5,0.5,0.5,1,0.5,0.5,0.5,1","1","",""
"","html-keyboard-response","87","44750","0.0-87.0","39N5ACM9HF9WY298FW21X4RCDSD9PW","A1EFBEBVZP3D6G","3S1L4CQSFXRWQOWP2XFUSMS4AZDFAL","","null","<img src=""img/land5.png"" style=""width:200px;border:14px solid red;"">","null","","","","","","","","","",""
"","image-keyboard-response","88","44884","0.0-88.0","39N5ACM9HF9WY298FW21X4RCDSD9PW","A1EFBEBVZP3D6G","3S1L4CQSFXRWQOWP2XFUSMS4AZDFAL","","132","img/land6.png","74","133","1","0","2","1","1,0.5,0.5,0.5,1,0.5,0.5,0.5,1","1,0.5,0.5,0.5,1,0.5,0.5,0.5,1","1","",""
"","html-keyboard-response","89","45185","0.0-89.0","39N5ACM9HF9WY298FW21X4RCDSD9PW","A1EFBEBVZP3D6G","3S1L4CQSFXRWQOWP2XFUSMS4AZDFAL","","null","<img src=""img/land6.png"" style=""width:200px;border:14px solid red;"">","null","","","","","","","","","",""
"","image-keyboard-response","90","45321","0.0-90.0","39N5ACM9HF9WY298FW21X4RCDSD9PW","A1EFBEBVZP3D6G","3S1L4CQSFXRWQOWP2XFUSMS4AZDFAL","","135","img/land6.png","76","135","3","1","2","1","1,0.5,0.5,0.5,1,0.5,0.5,0.5,1","1,0.5,0.5,0.5,1,0.5,0.5,0.5,1","1","",""
"","html-keyboard-response","91","45622","0.0-91.0","39N5ACM9HF9WY298FW21X4RCDSD9PW","A1EFBEBVZP3D6G","3S1L4CQSFXRWQOWP2XFUSMS4AZDFAL","","null","<img src=""img/land6.png"" style=""width:200px; border:14px solid green;"">","null","","","","","","","","","",""
"","image-keyboard-response","92","45740","0.0-92.0","39N5ACM9HF9WY298FW21X4RCDSD9PW","A1EFBEBVZP3D6G","3S1L4CQSFXRWQOWP2XFUSMS4AZDFAL","","117","img/land5.png","74","119","1","0","3","1","1,0.5,0.5,0.5,1,0.5,0.5,0.5,1","1,0.5,0.5,0.5,1,0.5,0.5,0.5,1","1","",""
"","html-keyboard-response","93","46042","0.0-93.0","39N5ACM9HF9WY298FW21X4RCDSD9PW","A1EFBEBVZP3D6G","3S1L4CQSFXRWQOWP2XFUSMS4AZDFAL","","null","<img src=""img/land5.png"" style=""width:200px;border:14px solid red;"">","null","","","","","","","","","",""
"","image-keyboard-response","94","46150","0.0-94.0","39N5ACM9HF9WY298FW21X4RCDSD9PW","A1EFBEBVZP3D6G","3S1L4CQSFXRWQOWP2XFUSMS4AZDFAL","","107","img/land5.png","74","107","1","0","3","1","1,0.5,0.5,0.5,1,0.5,0.5,0.5,1","1,0.5,0.5,0.5,1,0.5,0.5,0.5,1","1","",""
"","html-keyboard-response","95","46451","0.0-95.0","39N5ACM9HF9WY298FW21X4RCDSD9PW","A1EFBEBVZP3D6G","3S1L4CQSFXRWQOWP2XFUSMS4AZDFAL","","null","<img src=""img/land5.png"" style=""width:200px;border:14px solid red;"">","null","","","","","","","","","",""
"","image-keyboard-response","96","46590","0.0-96.0","39N5ACM9HF9WY298FW21X4RCDSD9PW","A1EFBEBVZP3D6G","3S1L4CQSFXRWQOWP2XFUSMS4AZDFAL","","138","img/land2.png","74","140","1","1","1","1","1,0.5,0.5,0.5,1,0.5,0.5,0.5,1","1,0.5,0.5,0.5,1,0.5,0.5,0.5,1","1","",""
"","html-keyboard-response","97","46891","0.0-97.0","39N5ACM9HF9WY298FW21X4RCDSD9PW","A1EFBEBVZP3D6G","3S1L4CQSFXRWQOWP2XFUSMS4AZDFAL","","null","<img src=""img/land2.png"" style=""width:200px; border:14px solid green;"">","null","","","","","","","","","",""
"","image-keyboard-response","98","47004","0.0-98.0","39N5ACM9HF9WY298FW21X4RCDSD9PW","A1EFBEBVZP3D6G","3S1L4CQSFXRWQOWP2XFUSMS4AZDFAL","","110","img/land6.png","74","112","1","0","2","1","1,0.5,0.5,0.5,1,0.5,0.5,0.5,1","1,0.5,0.5,0.5,1,0.5,0.5,0.5,1","1","",""
"","html-keyboard-response","99","47308","0.0-99.0","39N5ACM9HF9WY298FW21X4RCDSD9PW","A1EFBEBVZP3D6G","3S1L4CQSFXRWQOWP2XFUSMS4AZDFAL","","null","<img src=""img/land6.png"" style=""width:200px;border:14px solid red;"">","null","","","","","","","","","",""
"","image-keyboard-response","100","47441","0.0-100.0","39N5ACM9HF9WY298FW21X4RCDSD9PW","A1EFBEBVZP3D6G","3S1L4CQSFXRWQOWP2XFUSMS4AZDFAL","","131","img/land2.png","76","133","3","1","1","1","1,0.5,0.5,0.5,1,0.5,0.5,0.5,1","1,0.5,0.5,0.5,1,0.5,0.5,0.5,1","1","",""
"","html-keyboard-response","101","47770","0.0-101.0","39N5ACM9HF9WY298FW21X4RCDSD9PW","A1EFBEBVZP3D6G","3S1L4CQSFXRWQOWP2XFUSMS4AZDFAL","","null","<img src=""img/land2.png"" style=""width:200px; border:14px solid green;"">","null","","","","","","","","","",""
"","image-keyboard-response","102","47902","0.0-102.0","39N5ACM9HF9WY298FW21X4RCDSD9PW","A1EFBEBVZP3D6G","3S1L4CQSFXRWQOWP2XFUSMS4AZDFAL","","132","img/land6.png","74","132","1","0","2","1","1,0.5,0.5,0.5,1,0.5,0.5,0.5,1","1,0.5,0.5,0.5,1,0.5,0.5,0.5,1","1","",""
"","html-keyboard-response","103","48203","0.0-103.0","39N5ACM9HF9WY298FW21X4RCDSD9PW","A1EFBEBVZP3D6G","3S1L4CQSFXRWQOWP2XFUSMS4AZDFAL","","null","<img src=""img/land6.png"" style=""width:200px;border:14px solid red;"">","null","","","","","","","","","",""
"","image-keyboard-response","104","48285","0.0-104.0","39N5ACM9HF9WY298FW21X4RCDSD9PW","A1EFBEBVZP3D6G","3S1L4CQSFXRWQOWP2XFUSMS4AZDFAL","","80","img/land2.png","74","82","1","1","1","1","1,0.5,0.5,0.5,1,0.5,0.5,0.5,1","1,0.5,0.5,0.5,1,0.5,0.5,0.5,1","1","",""
"","html-keyboard-response","105","48586","0.0-105.0","39N5ACM9HF9WY298FW21X4RCDSD9PW","A1EFBEBVZP3D6G","3S1L4CQSFXRWQOWP2XFUSMS4AZDFAL","","null","<img src=""img/land2.png"" style=""width:200px; border:14px solid green;"">","null","","","","","","","","","",""
"","image-keyboard-response","106","48721","0.0-106.0","39N5ACM9HF9WY298FW21X4RCDSD9PW","A1EFBEBVZP3D6G","3S1L4CQSFXRWQOWP2XFUSMS4AZDFAL","","133","img/land5.png","74","134","1","0","3","1","1,0.5,0.5,0.5,1,0.5,0.5,0.5,1","1,0.5,0.5,0.5,1,0.5,0.5,0.5,1","1","",""
"","html-keyboard-response","107","49024","0.0-107.0","39N5ACM9HF9WY298FW21X4RCDSD9PW","A1EFBEBVZP3D6G","3S1L4CQSFXRWQOWP2XFUSMS4AZDFAL","","null","<img src=""img/land5.png"" style=""width:200px;border:14px solid red;"">","null","","","","","","","","","",""
"","image-keyboard-response","108","49117","0.0-108.0","39N5ACM9HF9WY298FW21X4RCDSD9PW","A1EFBEBVZP3D6G","3S1L4CQSFXRWQOWP2XFUSMS4AZDFAL","","91","img/land6.png","74","92","1","1","2","1","1,0.5,0.5,0.5,1,0.5,0.5,0.5,1","1,0.5,0.5,0.5,1,0.5,0.5,0.5,1","1","",""
"","html-keyboard-response","109","49419","0.0-109.0","39N5ACM9HF9WY298FW21X4RCDSD9PW","A1EFBEBVZP3D6G","3S1L4CQSFXRWQOWP2XFUSMS4AZDFAL","","null","<img src=""img/land6.png"" style=""width:200px; border:14px solid green;"">","null","","","","","","","","","",""
"","image-keyboard-response","110","49516","0.0-110.0","39N5ACM9HF9WY298FW21X4RCDSD9PW","A1EFBEBVZP3D6G","3S1L4CQSFXRWQOWP2XFUSMS4AZDFAL","","94","img/land6.png","76","96","3","0","2","1","1,0.5,0.5,0.5,1,0.5,0.5,0.5,1","1,0.5,0.5,0.5,1,0.5,0.5,0.5,1","1","",""
"","html-keyboard-response","111","49819","0.0-111.0","39N5ACM9HF9WY298FW21X4RCDSD9PW","A1EFBEBVZP3D6G","3S1L4CQSFXRWQOWP2XFUSMS4AZDFAL","","null","<img src=""img/land6.png"" style=""width:200px;border:14px solid red;"">","null","","","","","","","","","",""
"","image-keyboard-response","112","49949","0.0-112.0","39N5ACM9HF9WY298FW21X4RCDSD9PW","A1EFBEBVZP3D6G","3S1L4CQSFXRWQOWP2XFUSMS4AZDFAL","","128","img/land5.png","74","129","1","0","3","1","1,0.5,0.5,0.5,1,0.5,0.5,0.5,1","1,0.5,0.5,0.5,1,0.5,0.5,0.5,1","1","",""
"","html-keyboard-response","113","50251","0.0-113.0","39N5ACM9HF9WY298FW21X4RCDSD9PW","A1EFBEBVZP3D6G","3S1L4CQSFXRWQOWP2XFUSMS4AZDFAL","","null","<img src=""img/land5.png"" style=""width:200px;border:14px solid red;"">","null","","","","","","","","","",""
"","image-keyboard-response","114","50356","0.0-114.0","39N5ACM9HF9WY298FW21X4RCDSD9PW","A1EFBEBVZP3D6G","3S1L4CQSFXRWQOWP2XFUSMS4AZDFAL","","103","img/land2.png","74","105","1","1","1","1","1,0.5,0.5,0.5,1,0.5,0.5,0.5,1","1,0.5,0.5,0.5,1,0.5,0.5,0.5,1","1","",""
"","html-keyboard-response","115","50658","0.0-115.0","39N5ACM9HF9WY298FW21X4RCDSD9PW","A1EFBEBVZP3D6G","3S1L4CQSFXRWQOWP2XFUSMS4AZDFAL","","null","<img src=""img/land2.png"" style=""width:200px; border:14px solid green;"">","null","","","","","","","","","",""
"","image-keyboard-response","116","50762","0.0-116.0","39N5ACM9HF9WY298FW21X4RCDSD9PW","A1EFBEBVZP3D6G","3S1L4CQSFXRWQOWP2XFUSMS4AZDFAL","","101","img/land2.png","74","103","1","1","1","1","1,0.5,0.5,0.5,1,0.5,0.5,0.5,1","1,0.5,0.5,0.5,1,0.5,0.5,0.5,1","1","",""
"","html-keyboard-response","117","51063","0.0-117.0","39N5ACM9HF9WY298FW21X4RCDSD9PW","A1EFBEBVZP3D6G","3S1L4CQSFXRWQOWP2XFUSMS4AZDFAL","","null","<img src=""img/land2.png"" style=""width:200px; border:14px solid green;"">","null","","","","","","","","","",""
"","image-keyboard-response","118","51191","0.0-118.0","39N5ACM9HF9WY298FW21X4RCDSD9PW","A1EFBEBVZP3D6G","3S1L4CQSFXRWQOWP2XFUSMS4AZDFAL","","126","img/land6.png","74","127","1","1","2","1","1,0.5,0.5,0.5,1,0.5,0.5,0.5,1","1,0.5,0.5,0.5,1,0.5,0.5,0.5,1","1","",""
"","html-keyboard-response","119","51494","0.0-119.0","39N5ACM9HF9WY298FW21X4RCDSD9PW","A1EFBEBVZP3D6G","3S1L4CQSFXRWQOWP2XFUSMS4AZDFAL","","null","<img src=""img/land6.png"" style=""width:200px; border:14px solid green;"">","null","","","","","","","","","",""
"","image-keyboard-response","120","51586","0.0-120.0","39N5ACM9HF9WY298FW21X4RCDSD9PW","A1EFBEBVZP3D6G","3S1L4CQSFXRWQOWP2XFUSMS4AZDFAL","","89","img/land6.png","74","91","1","1","2","1","1,0.5,0.5,0.5,1,0.5,0.5,0.5,1","1,0.5,0.5,0.5,1,0.5,0.5,0.5,1","1","",""
"","html-keyboard-response","121","51888","0.0-121.0","39N5ACM9HF9WY298FW21X4RCDSD9PW","A1EFBEBVZP3D6G","3S1L4CQSFXRWQOWP2XFUSMS4AZDFAL","","null","<img src=""img/land6.png"" style=""width:200px; border:14px solid green;"">","null","","","","","","","","","",""
"","image-keyboard-response","122","51999","0.0-122.0","39N5ACM9HF9WY298FW21X4RCDSD9PW","A1EFBEBVZP3D6G","3S1L4CQSFXRWQOWP2XFUSMS4AZDFAL","","109","img/land5.png","76","111","3","1","3","1","1,0.5,0.5,0.5,1,0.5,0.5,0.5,1","1,0.5,0.5,0.5,1,0.5,0.5,0.5,1","1","",""
"","html-keyboard-response","123","52301","0.0-123.0","39N5ACM9HF9WY298FW21X4RCDSD9PW","A1EFBEBVZP3D6G","3S1L4CQSFXRWQOWP2XFUSMS4AZDFAL","","null","<img src=""img/land5.png"" style=""width:200px; border:14px solid green;"">","null","","","","","","","","","",""
"","image-keyboard-response","124","52455","0.0-124.0","39N5ACM9HF9WY298FW21X4RCDSD9PW","A1EFBEBVZP3D6G","3S1L4CQSFXRWQOWP2XFUSMS4AZDFAL","","151","img/land5.png","74","153","1","1","3","1","1,0.5,0.5,0.5,1,0.5,0.5,0.5,1","1,0.5,0.5,0.5,1,0.5,0.5,0.5,1","1","",""
"","html-keyboard-response","125","52756","0.0-125.0","39N5ACM9HF9WY298FW21X4RCDSD9PW","A1EFBEBVZP3D6G","3S1L4CQSFXRWQOWP2XFUSMS4AZDFAL","","null","<img src=""img/land5.png"" style=""width:200px; border:14px solid green;"">","null","","","","","","","","","",""
"","image-keyboard-response","126","52850","0.0-126.0","39N5ACM9HF9WY298FW21X4RCDSD9PW","A1EFBEBVZP3D6G","3S1L4CQSFXRWQOWP2XFUSMS4AZDFAL","","92","img/land5.png","74","94","1","1","3","1","1,0.5,0.5,0.5,1,0.5,0.5,0.5,1","1,0.5,0.5,0.5,1,0.5,0.5,0.5,1","1","",""
"","html-keyboard-response","127","53154","0.0-127.0","39N5ACM9HF9WY298FW21X4RCDSD9PW","A1EFBEBVZP3D6G","3S1L4CQSFXRWQOWP2XFUSMS4AZDFAL","","null","<img src=""img/land5.png"" style=""width:200px; border:14px solid green;"">","null","","","","","","","","","",""
"","image-keyboard-response","128","53260","0.0-128.0","39N5ACM9HF9WY298FW21X4RCDSD9PW","A1EFBEBVZP3D6G","3S1L4CQSFXRWQOWP2XFUSMS4AZDFAL","","103","img/land6.png","74","105","1","0","2","1","1,0.5,0.5,0.5,1,0.5,0.5,0.5,1","1,0.5,0.5,0.5,1,0.5,0.5,0.5,1","1","",""
"","html-keyboard-response","129","53562","0.0-129.0","39N5ACM9HF9WY298FW21X4RCDSD9PW","A1EFBEBVZP3D6G","3S1L4CQSFXRWQOWP2XFUSMS4AZDFAL","","null","<img src=""img/land6.png"" style=""width:200px;border:14px solid red;"">","null","","","","","","","","","",""
"","image-keyboard-response","130","53689","0.0-130.0","39N5ACM9HF9WY298FW21X4RCDSD9PW","A1EFBEBVZP3D6G","3S1L4CQSFXRWQOWP2XFUSMS4AZDFAL","","126","img/land2.png","74","127","1","1","1","1","1,0.5,0.5,0.5,1,0.5,0.5,0.5,1","1,0.5,0.5,0.5,1,0.5,0.5,0.5,1","1","",""
"","html-keyboard-response","131","53991","0.0-131.0","39N5ACM9HF9WY298FW21X4RCDSD9PW","A1EFBEBVZP3D6G","3S1L4CQSFXRWQOWP2XFUSMS4AZDFAL","","null","<img src=""img/land2.png"" style=""width:200px; border:14px solid green;"">","null","","","","","","","","","",""
"","image-keyboard-response","132","54091","0.0-132.0","39N5ACM9HF9WY298FW21X4RCDSD9PW","A1EFBEBVZP3D6G","3S1L4CQSFXRWQOWP2XFUSMS4AZDFAL","","98","img/land2.png","74","100","1","1","1","1","1,0.5,0.5,0.5,1,0.5,0.5,0.5,1","1,0.5,0.5,0.5,1,0.5,0.5,0.5,1","1","",""
"","html-keyboard-response","133","54393","0.0-133.0","39N5ACM9HF9WY298FW21X4RCDSD9PW","A1EFBEBVZP3D6G","3S1L4CQSFXRWQOWP2XFUSMS4AZDFAL","","null","<img src=""img/land2.png"" style=""width:200px; border:14px solid green;"">","null","","","","","","","","","",""
"","image-keyboard-response","134","54504","0.0-134.0","39N5ACM9HF9WY298FW21X4RCDSD9PW","A1EFBEBVZP3D6G","3S1L4CQSFXRWQOWP2XFUSMS4AZDFAL","","110","img/land6.png","74","111","1","0","2","1","1,0.5,0.5,0.5,1,0.5,0.5,0.5,1","1,0.5,0.5,0.5,1,0.5,0.5,0.5,1","1","",""
"","html-keyboard-response","135","54805","0.0-135.0","39N5ACM9HF9WY298FW21X4RCDSD9PW","A1EFBEBVZP3D6G","3S1L4CQSFXRWQOWP2XFUSMS4AZDFAL","","null","<img src=""img/land6.png"" style=""width:200px;border:14px solid red;"">","null","","","","","","","","","",""
"","image-keyboard-response","136","54890","0.0-136.0","39N5ACM9HF9WY298FW21X4RCDSD9PW","A1EFBEBVZP3D6G","3S1L4CQSFXRWQOWP2XFUSMS4AZDFAL","","83","img/land5.png","76","85","3","1","3","1","1,0.5,0.5,0.5,1,0.5,0.5,0.5,1","1,0.5,0.5,0.5,1,0.5,0.5,0.5,1","1","",""
"","html-keyboard-response","137","55192","0.0-137.0","39N5ACM9HF9WY298FW21X4RCDSD9PW","A1EFBEBVZP3D6G","3S1L4CQSFXRWQOWP2XFUSMS4AZDFAL","","null","<img src=""img/land5.png"" style=""width:200px; border:14px solid green;"">","null","","","","","","","","","",""
"","image-keyboard-response","138","55300","0.0-138.0","39N5ACM9HF9WY298FW21X4RCDSD9PW","A1EFBEBVZP3D6G","3S1L4CQSFXRWQOWP2XFUSMS4AZDFAL","","106","img/land2.png","76","107","3","0","1","1","1,0.5,0.5,0.5,1,0.5,0.5,0.5,1","1,0.5,0.5,0.5,1,0.5,0.5,0.5,1","1","",""
"","html-keyboard-response","139","55602","0.0-139.0","39N5ACM9HF9WY298FW21X4RCDSD9PW","A1EFBEBVZP3D6G","3S1L4CQSFXRWQOWP2XFUSMS4AZDFAL","","null","<img src=""img/land2.png"" style=""width:200px;border:14px solid red;"">","null","","","","","","","","","",""
"","image-keyboard-response","140","55690","0.0-140.0","39N5ACM9HF9WY298FW21X4RCDSD9PW","A1EFBEBVZP3D6G","3S1L4CQSFXRWQOWP2XFUSMS4AZDFAL","","86","img/land2.png","74","87","1","1","1","1","1,0.5,0.5,0.5,1,0.5,0.5,0.5,1","1,0.5,0.5,0.5,1,0.5,0.5,0.5,1","1","",""
"","html-keyboard-response","141","55992","0.0-141.0","39N5ACM9HF9WY298FW21X4RCDSD9PW","A1EFBEBVZP3D6G","3S1L4CQSFXRWQOWP2XFUSMS4AZDFAL","","null","<img src=""img/land2.png"" style=""width:200px; border:14px solid green;"">","null","","","","","","","","","",""
"","image-keyboard-response","142","56079","0.0-142.0","39N5ACM9HF9WY298FW21X4RCDSD9PW","A1EFBEBVZP3D6G","3S1L4CQSFXRWQOWP2XFUSMS4AZDFAL","","86","img/land5.png","74","87","1","0","3","1","1,0.5,0.5,0.5,1,0.5,0.5,0.5,1","1,0.5,0.5,0.5,1,0.5,0.5,0.5,1","1","",""
"","html-keyboard-response","143","56380","0.0-143.0","39N5ACM9HF9WY298FW21X4RCDSD9PW","A1EFBEBVZP3D6G","3S1L4CQSFXRWQOWP2XFUSMS4AZDFAL","","null","<img src=""img/land5.png"" style=""width:200px;border:14px solid red;"">","null","","","","","","","","","",""
"","image-keyboard-response","144","56509","0.0-144.0","39N5ACM9HF9WY298FW21X4RCDSD9PW","A1EFBEBVZP3D6G","3S1L4CQSFXRWQOWP2XFUSMS4AZDFAL","","124","img/land6.png","74","127","1","0","2","1","1,0.5,0.5,0.5,1,0.5,0.5,0.5,1","1,0.5,0.5,0.5,1,0.5,0.5,0.5,1","1","",""
"","html-keyboard-response","145","56811","0.0-145.0","39N5ACM9HF9WY298FW21X4RCDSD9PW","A1EFBEBVZP3D6G","3S1L4CQSFXRWQOWP2XFUSMS4AZDFAL","","null","<img src=""img/land6.png"" style=""width:200px;border:14px solid red;"">","null","","","","","","","","","",""
"","image-keyboard-response","146","56891","0.0-146.0","39N5ACM9HF9WY298FW21X4RCDSD9PW","A1EFBEBVZP3D6G","3S1L4CQSFXRWQOWP2XFUSMS4AZDFAL","","78","img/land2.png","76","79","3","0","1","1","1,0.5,0.5,0.5,1,0.5,0.5,0.5,1","1,0.5,0.5,0.5,1,0.5,0.5,0.5,1","1","",""
"","html-keyboard-response","147","57193","0.0-147.0","39N5ACM9HF9WY298FW21X4RCDSD9PW","A1EFBEBVZP3D6G","3S1L4CQSFXRWQOWP2XFUSMS4AZDFAL","","null","<img src=""img/land2.png"" style=""width:200px;border:14px solid red;"">","null","","","","","","","","","",""
"","image-keyboard-response","148","57291","0.0-148.0","39N5ACM9HF9WY298FW21X4RCDSD9PW","A1EFBEBVZP3D6G","3S1L4CQSFXRWQOWP2XFUSMS4AZDFAL","","97","img/land2.png","76","98","3","1","1","1","1,0.5,0.5,0.5,1,0.5,0.5,0.5,1","1,0.5,0.5,0.5,1,0.5,0.5,0.5,1","1","",""
"","html-keyboard-response","149","57595","0.0-149.0","39N5ACM9HF9WY298FW21X4RCDSD9PW","A1EFBEBVZP3D6G","3S1L4CQSFXRWQOWP2XFUSMS4AZDFAL","","null","<img src=""img/land2.png"" style=""width:200px; border:14px solid green;"">","null","","","","","","","","","",""
"","image-keyboard-response","150","57694","0.0-150.0","39N5ACM9HF9WY298FW21X4RCDSD9PW","A1EFBEBVZP3D6G","3S1L4CQSFXRWQOWP2XFUSMS4AZDFAL","","99","img/land5.png","74","100","1","0","3","1","1,0.5,0.5,0.5,1,0.5,0.5,0.5,1","1,0.5,0.5,0.5,1,0.5,0.5,0.5,1","1","",""
"","html-keyboard-response","151","58064","0.0-151.0","39N5ACM9HF9WY298FW21X4RCDSD9PW","A1EFBEBVZP3D6G","3S1L4CQSFXRWQOWP2XFUSMS4AZDFAL","","null","<img src=""img/land5.png"" style=""width:200px;border:14px solid red;"">","null","","","","","","","","","",""
"","image-keyboard-response","152","58148","0.0-152.0","39N5ACM9HF9WY298FW21X4RCDSD9PW","A1EFBEBVZP3D6G","3S1L4CQSFXRWQOWP2XFUSMS4AZDFAL","","83","img/land5.png","74","83","1","0","3","1","1,0.5,0.5,0.5,1,0.5,0.5,0.5,1","1,0.5,0.5,0.5,1,0.5,0.5,0.5,1","1","",""
"","html-keyboard-response","153","58449","0.0-153.0","39N5ACM9HF9WY298FW21X4RCDSD9PW","A1EFBEBVZP3D6G","3S1L4CQSFXRWQOWP2XFUSMS4AZDFAL","","null","<img src=""img/land5.png"" style=""width:200px;border:14px solid red;"">","null","","","","","","","","","",""
"","image-keyboard-response","154","58521","0.0-154.0","39N5ACM9HF9WY298FW21X4RCDSD9PW","A1EFBEBVZP3D6G","3S1L4CQSFXRWQOWP2XFUSMS4AZDFAL","","70","img/land6.png","74","71","1","1","2","1","1,0.5,0.5,0.5,1,0.5,0.5,0.5,1","1,0.5,0.5,0.5,1,0.5,0.5,0.5,1","1","",""
"","html-keyboard-response","155","58822","0.0-155.0","39N5ACM9HF9WY298FW21X4RCDSD9PW","A1EFBEBVZP3D6G","3S1L4CQSFXRWQOWP2XFUSMS4AZDFAL","","null","<img src=""img/land6.png"" style=""width:200px; border:14px solid green;"">","null","","","","","","","","","",""
"","image-keyboard-response","156","58951","0.0-156.0","39N5ACM9HF9WY298FW21X4RCDSD9PW","A1EFBEBVZP3D6G","3S1L4CQSFXRWQOWP2XFUSMS4AZDFAL","","128","img/land2.png","74","129","1","1","1","1","1,0.5,0.5,0.5,1,0.5,0.5,0.5,1","1,0.5,0.5,0.5,1,0.5,0.5,0.5,1","1","",""
"","html-keyboard-response","157","59254","0.0-157.0","39N5ACM9HF9WY298FW21X4RCDSD9PW","A1EFBEBVZP3D6G","3S1L4CQSFXRWQOWP2XFUSMS4AZDFAL","","null","<img src=""img/land2.png"" style=""width:200px; border:14px solid green;"">","null","","","","","","","","","",""
"","image-keyboard-response","158","59376","0.0-158.0","39N5ACM9HF9WY298FW21X4RCDSD9PW","A1EFBEBVZP3D6G","3S1L4CQSFXRWQOWP2XFUSMS4AZDFAL","","120","img/land6.png","74","121","1","0","2","1","1,0.5,0.5,0.5,1,0.5,0.5,0.5,1","1,0.5,0.5,0.5,1,0.5,0.5,0.5,1","1","",""
"","html-keyboard-response","159","59677","0.0-159.0","39N5ACM9HF9WY298FW21X4RCDSD9PW","A1EFBEBVZP3D6G","3S1L4CQSFXRWQOWP2XFUSMS4AZDFAL","","null","<img src=""img/land6.png"" style=""width:200px;border:14px solid red;"">","null","","","","","","","","","",""
"","image-keyboard-response","160","59806","0.0-160.0","39N5ACM9HF9WY298FW21X4RCDSD9PW","A1EFBEBVZP3D6G","3S1L4CQSFXRWQOWP2XFUSMS4AZDFAL","","127","img/land2.png","74","128","1","1","1","1","1,0.5,0.5,0.5,1,0.5,0.5,0.5,1","1,0.5,0.5,0.5,1,0.5,0.5,0.5,1","1","",""
"","html-keyboard-response","161","60108","0.0-161.0","39N5ACM9HF9WY298FW21X4RCDSD9PW","A1EFBEBVZP3D6G","3S1L4CQSFXRWQOWP2XFUSMS4AZDFAL","","null","<img src=""img/land2.png"" style=""width:200px; border:14px solid green;"">","null","","","","","","","","","",""
"","image-keyboard-response","162","60220","0.0-162.0","39N5ACM9HF9WY298FW21X4RCDSD9PW","A1EFBEBVZP3D6G","3S1L4CQSFXRWQOWP2XFUSMS4AZDFAL","","110","img/land6.png","74","112","1","1","2","1","1,0.5,0.5,0.5,1,0.5,0.5,0.5,1","1,0.5,0.5,0.5,1,0.5,0.5,0.5,1","1","",""
"","html-keyboard-response","163","60523","0.0-163.0","39N5ACM9HF9WY298FW21X4RCDSD9PW","A1EFBEBVZP3D6G","3S1L4CQSFXRWQOWP2XFUSMS4AZDFAL","","null","<img src=""img/land6.png"" style=""width:200px; border:14px solid green;"">","null","","","","","","","","","",""
"","image-keyboard-response","164","60630","0.0-164.0","39N5ACM9HF9WY298FW21X4RCDSD9PW","A1EFBEBVZP3D6G","3S1L4CQSFXRWQOWP2XFUSMS4AZDFAL","","104","img/land6.png","74","106","1","0","2","1","1,0.5,0.5,0.5,1,0.5,0.5,0.5,1","1,0.5,0.5,0.5,1,0.5,0.5,0.5,1","1","",""
"","html-keyboard-response","165","60931","0.0-165.0","39N5ACM9HF9WY298FW21X4RCDSD9PW","A1EFBEBVZP3D6G","3S1L4CQSFXRWQOWP2XFUSMS4AZDFAL","","null","<img src=""img/land6.png"" style=""width:200px;border:14px solid red;"">","null","","","","","","","","","",""
"","image-keyboard-response","166","61039","0.0-166.0","39N5ACM9HF9WY298FW21X4RCDSD9PW","A1EFBEBVZP3D6G","3S1L4CQSFXRWQOWP2XFUSMS4AZDFAL","","106","img/land2.png","74","108","1","1","1","1","1,0.5,0.5,0.5,1,0.5,0.5,0.5,1","1,0.5,0.5,0.5,1,0.5,0.5,0.5,1","1","",""
"","html-keyboard-response","167","61340","0.0-167.0","39N5ACM9HF9WY298FW21X4RCDSD9PW","A1EFBEBVZP3D6G","3S1L4CQSFXRWQOWP2XFUSMS4AZDFAL","","null","<img src=""img/land2.png"" style=""width:200px; border:14px solid green;"">","null","","","","","","","","","",""
"","image-keyboard-response","168","61439","0.0-168.0","39N5ACM9HF9WY298FW21X4RCDSD9PW","A1EFBEBVZP3D6G","3S1L4CQSFXRWQOWP2XFUSMS4AZDFAL","","97","img/land6.png","76","98","3","1","2","1","1,0.5,0.5,0.5,1,0.5,0.5,0.5,1","1,0.5,0.5,0.5,1,0.5,0.5,0.5,1","1","",""
"","html-keyboard-response","169","61741","0.0-169.0","39N5ACM9HF9WY298FW21X4RCDSD9PW","A1EFBEBVZP3D6G","3S1L4CQSFXRWQOWP2XFUSMS4AZDFAL","","null","<img src=""img/land6.png"" style=""width:200px; border:14px solid green;"">","null","","","","","","","","","",""
"","image-keyboard-response","170","61867","0.0-170.0","39N5ACM9HF9WY298FW21X4RCDSD9PW","A1EFBEBVZP3D6G","3S1L4CQSFXRWQOWP2XFUSMS4AZDFAL","","125","img/land2.png","74","125","1","1","1","1","1,0.5,0.5,0.5,1,0.5,0.5,0.5,1","1,0.5,0.5,0.5,1,0.5,0.5,0.5,1","1","",""
"","html-keyboard-response","171","62168","0.0-171.0","39N5ACM9HF9WY298FW21X4RCDSD9PW","A1EFBEBVZP3D6G","3S1L4CQSFXRWQOWP2XFUSMS4AZDFAL","","null","<img src=""img/land2.png"" style=""width:200px; border:14px solid green;"">","null","","","","","","","","","",""
"","image-keyboard-response","172","62280","0.0-172.0","39N5ACM9HF9WY298FW21X4RCDSD9PW","A1EFBEBVZP3D6G","3S1L4CQSFXRWQOWP2XFUSMS4AZDFAL","","111","img/land5.png","74","111","1","1","3","1","1,0.5,0.5,0.5,1,0.5,0.5,0.5,1","1,0.5,0.5,0.5,1,0.5,0.5,0.5,1","1","",""
"","html-keyboard-response","173","62582","0.0-173.0","39N5ACM9HF9WY298FW21X4RCDSD9PW","A1EFBEBVZP3D6G","3S1L4CQSFXRWQOWP2XFUSMS4AZDFAL","","null","<img src=""img/land5.png"" style=""width:200px; border:14px solid green;"">","null","","","","","","","","","",""
"","image-keyboard-response","174","62722","0.0-174.0","39N5ACM9HF9WY298FW21X4RCDSD9PW","A1EFBEBVZP3D6G","3S1L4CQSFXRWQOWP2XFUSMS4AZDFAL","","138","img/land2.png","74","139","1","1","1","1","1,0.5,0.5,0.5,1,0.5,0.5,0.5,1","1,0.5,0.5,0.5,1,0.5,0.5,0.5,1","1","",""
"","html-keyboard-response","175","63024","0.0-175.0","39N5ACM9HF9WY298FW21X4RCDSD9PW","A1EFBEBVZP3D6G","3S1L4CQSFXRWQOWP2XFUSMS4AZDFAL","","null","<img src=""img/land2.png"" style=""width:200px; border:14px solid green;"">","null","","","","","","","","","",""
"","image-keyboard-response","176","63141","0.0-176.0","39N5ACM9HF9WY298FW21X4RCDSD9PW","A1EFBEBVZP3D6G","3S1L4CQSFXRWQOWP2XFUSMS4AZDFAL","","113","img/land2.png","74","115","1","1","1","1","1,0.5,0.5,0.5,1,0.5,0.5,0.5,1","1,0.5,0.5,0.5,1,0.5,0.5,0.5,1","1","",""
"","html-keyboard-response","177","63445","0.0-177.0","39N5ACM9HF9WY298FW21X4RCDSD9PW","A1EFBEBVZP3D6G","3S1L4CQSFXRWQOWP2XFUSMS4AZDFAL","","null","<img src=""img/land2.png"" style=""width:200px; border:14px solid green;"">","null","","","","","","","","","",""
"","image-keyboard-response","178","63577","0.0-178.0","39N5ACM9HF9WY298FW21X4RCDSD9PW","A1EFBEBVZP3D6G","3S1L4CQSFXRWQOWP2XFUSMS4AZDFAL","","130","img/land6.png","74","132","1","0","2","1","1,0.5,0.5,0.5,1,0.5,0.5,0.5,1","1,0.5,0.5,0.5,1,0.5,0.5,0.5,1","1","",""
"","html-keyboard-response","179","63879","0.0-179.0","39N5ACM9HF9WY298FW21X4RCDSD9PW","A1EFBEBVZP3D6G","3S1L4CQSFXRWQOWP2XFUSMS4AZDFAL","","null","<img src=""img/land6.png"" style=""width:200px;border:14px solid red;"">","null","","","","","","","","","",""
"","image-keyboard-response","180","63955","0.0-180.0","39N5ACM9HF9WY298FW21X4RCDSD9PW","A1EFBEBVZP3D6G","3S1L4CQSFXRWQOWP2XFUSMS4AZDFAL","","75","img/land6.png","76","75","3","0","2","1","1,0.5,0.5,0.5,1,0.5,0.5,0.5,1","1,0.5,0.5,0.5,1,0.5,0.5,0.5,1","1","",""
"","html-keyboard-response","181","64257","0.0-181.0","39N5ACM9HF9WY298FW21X4RCDSD9PW","A1EFBEBVZP3D6G","3S1L4CQSFXRWQOWP2XFUSMS4AZDFAL","","null","<img src=""img/land6.png"" style=""width:200px;border:14px solid red;"">","null","","","","","","","","","",""
"","html-keyboard-response","182","66913","0.0-182.0","39N5ACM9HF9WY298FW21X4RCDSD9PW","A1EFBEBVZP3D6G","3S1L4CQSFXRWQOWP2XFUSMS4AZDFAL","","","","","","","","","","","","","",""
"","image-keyboard-response","183","68915","0.0-183.0","39N5ACM9HF9WY298FW21X4RCDSD9PW","A1EFBEBVZP3D6G","3S1L4CQSFXRWQOWP2XFUSMS4AZDFAL","","1995","img/land4.png","74","2000","1","1","1","2","1,0.5,0.5,0.5,1,0.5,0.5,0.5,1","1,0.5,0.5,0.5,1,0.5,0.5,0.5,1","1","",""
"","html-keyboard-response","184","69218","0.0-184.0","39N5ACM9HF9WY298FW21X4RCDSD9PW","A1EFBEBVZP3D6G","3S1L4CQSFXRWQOWP2XFUSMS4AZDFAL","","null","<img src=""img/land4.png"" style=""width:200px; border:14px solid green;"">","null","","","","","","","","","",""
"","image-keyboard-response","185","69320","0.0-185.0","39N5ACM9HF9WY298FW21X4RCDSD9PW","A1EFBEBVZP3D6G","3S1L4CQSFXRWQOWP2XFUSMS4AZDFAL","","100","img/land4.png","76","101","3","0","1","2","1,0.5,0.5,0.5,1,0.5,0.5,0.5,1","1,0.5,0.5,0.5,1,0.5,0.5,0.5,1","1","",""
"","html-keyboard-response","186","69624","0.0-186.0","39N5ACM9HF9WY298FW21X4RCDSD9PW","A1EFBEBVZP3D6G","3S1L4CQSFXRWQOWP2XFUSMS4AZDFAL","","null","<img src=""img/land4.png"" style=""width:200px;border:14px solid red;"">","null","","","","","","","","","",""
"","image-keyboard-response","187","69731","0.0-187.0","39N5ACM9HF9WY298FW21X4RCDSD9PW","A1EFBEBVZP3D6G","3S1L4CQSFXRWQOWP2XFUSMS4AZDFAL","","103","img/land3.png","74","106","1","0","2","2","1,0.5,0.5,0.5,1,0.5,0.5,0.5,1","1,0.5,0.5,0.5,1,0.5,0.5,0.5,1","1","",""
"","html-keyboard-response","188","70033","0.0-188.0","39N5ACM9HF9WY298FW21X4RCDSD9PW","A1EFBEBVZP3D6G","3S1L4CQSFXRWQOWP2XFUSMS4AZDFAL","","null","<img src=""img/land3.png"" style=""width:200px;border:14px solid red;"">","null","","","","","","","","","",""
"","image-keyboard-response","189","70140","0.0-189.0","39N5ACM9HF9WY298FW21X4RCDSD9PW","A1EFBEBVZP3D6G","3S1L4CQSFXRWQOWP2XFUSMS4AZDFAL","","105","img/land1.png","74","107","1","0","3","2","1,0.5,0.5,0.5,1,0.5,0.5,0.5,1","1,0.5,0.5,0.5,1,0.5,0.5,0.5,1","1","",""
"","html-keyboard-response","190","70442","0.0-190.0","39N5ACM9HF9WY298FW21X4RCDSD9PW","A1EFBEBVZP3D6G","3S1L4CQSFXRWQOWP2XFUSMS4AZDFAL","","null","<img src=""img/land1.png"" style=""width:200px;border:14px solid red;"">","null","","","","","","","","","",""
"","image-keyboard-response","191","70560","0.0-191.0","39N5ACM9HF9WY298FW21X4RCDSD9PW","A1EFBEBVZP3D6G","3S1L4CQSFXRWQOWP2XFUSMS4AZDFAL","","115","img/land3.png","74","118","1","0","2","2","1,0.5,0.5,0.5,1,0.5,0.5,0.5,1","1,0.5,0.5,0.5,1,0.5,0.5,0.5,1","1","",""
"","html-keyboard-response","192","70862","0.0-192.0","39N5ACM9HF9WY298FW21X4RCDSD9PW","A1EFBEBVZP3D6G","3S1L4CQSFXRWQOWP2XFUSMS4AZDFAL","","null","<img src=""img/land3.png"" style=""width:200px;border:14px solid red;"">","null","","","","","","","","","",""
"","image-keyboard-response","193","71023","0.0-193.0","39N5ACM9HF9WY298FW21X4RCDSD9PW","A1EFBEBVZP3D6G","3S1L4CQSFXRWQOWP2XFUSMS4AZDFAL","","159","img/land3.png","74","160","1","1","2","2","1,0.5,0.5,0.5,1,0.5,0.5,0.5,1","1,0.5,0.5,0.5,1,0.5,0.5,0.5,1","1","",""
"","html-keyboard-response","194","71326","0.0-194.0","39N5ACM9HF9WY298FW21X4RCDSD9PW","A1EFBEBVZP3D6G","3S1L4CQSFXRWQOWP2XFUSMS4AZDFAL","","null","<img src=""img/land3.png"" style=""width:200px; border:14px solid green;"">","null","","","","","","","","","",""
"","image-keyboard-response","195","71483","0.0-195.0","39N5ACM9HF9WY298FW21X4RCDSD9PW","A1EFBEBVZP3D6G","3S1L4CQSFXRWQOWP2XFUSMS4AZDFAL","","154","img/land4.png","74","156","1","1","1","2","1,0.5,0.5,0.5,1,0.5,0.5,0.5,1","1,0.5,0.5,0.5,1,0.5,0.5,0.5,1","1","",""
"","html-keyboard-response","196","71785","0.0-196.0","39N5ACM9HF9WY298FW21X4RCDSD9PW","A1EFBEBVZP3D6G","3S1L4CQSFXRWQOWP2XFUSMS4AZDFAL","","null","<img src=""img/land4.png"" style=""width:200px; border:14px solid green;"">","null","","","","","","","","","",""
"","image-keyboard-response","197","71942","0.0-197.0","39N5ACM9HF9WY298FW21X4RCDSD9PW","A1EFBEBVZP3D6G","3S1L4CQSFXRWQOWP2XFUSMS4AZDFAL","","155","img/land4.png","76","157","3","1","1","2","1,0.5,0.5,0.5,1,0.5,0.5,0.5,1","1,0.5,0.5,0.5,1,0.5,0.5,0.5,1","1","",""
"","html-keyboard-response","198","72244","0.0-198.0","39N5ACM9HF9WY298FW21X4RCDSD9PW","A1EFBEBVZP3D6G","3S1L4CQSFXRWQOWP2XFUSMS4AZDFAL","","null","<img src=""img/land4.png"" style=""width:200px; border:14px solid green;"">","null","","","","","","","","","",""
"","image-keyboard-response","199","72380","0.0-199.0","39N5ACM9HF9WY298FW21X4RCDSD9PW","A1EFBEBVZP3D6G","3S1L4CQSFXRWQOWP2XFUSMS4AZDFAL","","135","img/land1.png","76","135","3","1","3","2","1,0.5,0.5,0.5,1,0.5,0.5,0.5,1","1,0.5,0.5,0.5,1,0.5,0.5,0.5,1","1","",""
"","html-keyboard-response","200","72683","0.0-200.0","39N5ACM9HF9WY298FW21X4RCDSD9PW","A1EFBEBVZP3D6G","3S1L4CQSFXRWQOWP2XFUSMS4AZDFAL","","null","<img src=""img/land1.png"" style=""width:200px; border:14px solid green;"">","null","","","","","","","","","",""
"","image-keyboard-response","201","72801","0.0-201.0","39N5ACM9HF9WY298FW21X4RCDSD9PW","A1EFBEBVZP3D6G","3S1L4CQSFXRWQOWP2XFUSMS4AZDFAL","","115","img/land3.png","76","118","3","0","2","2","1,0.5,0.5,0.5,1,0.5,0.5,0.5,1","1,0.5,0.5,0.5,1,0.5,0.5,0.5,1","1","",""
"","html-keyboard-response","202","73102","0.0-202.0","39N5ACM9HF9WY298FW21X4RCDSD9PW","A1EFBEBVZP3D6G","3S1L4CQSFXRWQOWP2XFUSMS4AZDFAL","","null","<img src=""img/land3.png"" style=""width:200px;border:14px solid red;"">","null","","","","","","","","","",""
"","image-keyboard-response","203","73339","0.0-203.0","39N5ACM9HF9WY298FW21X4RCDSD9PW","A1EFBEBVZP3D6G","3S1L4CQSFXRWQOWP2XFUSMS4AZDFAL","","235","img/land4.png","76","237","3","0","1","2","1,0.5,0.5,0.5,1,0.5,0.5,0.5,1","1,0.5,0.5,0.5,1,0.5,0.5,0.5,1","1","",""
"","html-keyboard-response","204","73641","0.0-204.0","39N5ACM9HF9WY298FW21X4RCDSD9PW","A1EFBEBVZP3D6G","3S1L4CQSFXRWQOWP2XFUSMS4AZDFAL","","null","<img src=""img/land4.png"" style=""width:200px;border:14px solid red;"">","null","","","","","","","","","",""
"","image-keyboard-response","205","73861","0.0-205.0","39N5ACM9HF9WY298FW21X4RCDSD9PW","A1EFBEBVZP3D6G","3S1L4CQSFXRWQOWP2XFUSMS4AZDFAL","","217","img/land3.png","75","219","2","1","2","2","1,0.5,0.5,0.5,1,0.5,0.5,0.5,1","1,0.5,0.5,0.5,1,0.5,0.5,0.5,1","1","",""
"","html-keyboard-response","206","74163","0.0-206.0","39N5ACM9HF9WY298FW21X4RCDSD9PW","A1EFBEBVZP3D6G","3S1L4CQSFXRWQOWP2XFUSMS4AZDFAL","","null","<img src=""img/land3.png"" style=""width:200px; border:14px solid green;"">","null","","","","","","","","","",""
"","image-keyboard-response","207","74340","0.0-207.0","39N5ACM9HF9WY298FW21X4RCDSD9PW","A1EFBEBVZP3D6G","3S1L4CQSFXRWQOWP2XFUSMS4AZDFAL","","173","img/land4.png","75","175","2","1","1","2","1,0.5,0.5,0.5,1,0.5,0.5,0.5,1","1,0.5,0.5,0.5,1,0.5,0.5,0.5,1","1","",""
"","html-keyboard-response","208","74645","0.0-208.0","39N5ACM9HF9WY298FW21X4RCDSD9PW","A1EFBEBVZP3D6G","3S1L4CQSFXRWQOWP2XFUSMS4AZDFAL","","null","<img src=""img/land4.png"" style=""width:200px; border:14px solid green;"">","null","","","","","","","","","",""
"","image-keyboard-response","209","74820","0.0-209.0","39N5ACM9HF9WY298FW21X4RCDSD9PW","A1EFBEBVZP3D6G","3S1L4CQSFXRWQOWP2XFUSMS4AZDFAL","","172","img/land4.png","75","173","2","0","1","2","1,0.5,0.5,0.5,1,0.5,0.5,0.5,1","1,0.5,0.5,0.5,1,0.5,0.5,0.5,1","1","",""
"","html-keyboard-response","210","75122","0.0-210.0","39N5ACM9HF9WY298FW21X4RCDSD9PW","A1EFBEBVZP3D6G","3S1L4CQSFXRWQOWP2XFUSMS4AZDFAL","","null","<img src=""img/land4.png"" style=""width:200px;border:14px solid red;"">","null","","","","","","","","","",""
"","image-keyboard-response","211","75291","0.0-211.0","39N5ACM9HF9WY298FW21X4RCDSD9PW","A1EFBEBVZP3D6G","3S1L4CQSFXRWQOWP2XFUSMS4AZDFAL","","167","img/land4.png","75","168","2","0","1","2","1,0.5,0.5,0.5,1,0.5,0.5,0.5,1","1,0.5,0.5,0.5,1,0.5,0.5,0.5,1","1","",""
"","html-keyboard-response","212","75594","0.0-212.0","39N5ACM9HF9WY298FW21X4RCDSD9PW","A1EFBEBVZP3D6G","3S1L4CQSFXRWQOWP2XFUSMS4AZDFAL","","null","<img src=""img/land4.png"" style=""width:200px;border:14px solid red;"">","null","","","","","","","","","",""
"","image-keyboard-response","213","75755","0.0-213.0","39N5ACM9HF9WY298FW21X4RCDSD9PW","A1EFBEBVZP3D6G","3S1L4CQSFXRWQOWP2XFUSMS4AZDFAL","","159","img/land4.png","75","160","2","1","1","2","1,0.5,0.5,0.5,1,0.5,0.5,0.5,1","1,0.5,0.5,0.5,1,0.5,0.5,0.5,1","1","",""
"","html-keyboard-response","214","76061","0.0-214.0","39N5ACM9HF9WY298FW21X4RCDSD9PW","A1EFBEBVZP3D6G","3S1L4CQSFXRWQOWP2XFUSMS4AZDFAL","","null","<img src=""img/land4.png"" style=""width:200px; border:14px solid green;"">","null","","","","","","","","","",""
"","image-keyboard-response","215","76241","0.0-215.0","39N5ACM9HF9WY298FW21X4RCDSD9PW","A1EFBEBVZP3D6G","3S1L4CQSFXRWQOWP2XFUSMS4AZDFAL","","177","img/land3.png","76","179","3","1","2","2","1,0.5,0.5,0.5,1,0.5,0.5,0.5,1","1,0.5,0.5,0.5,1,0.5,0.5,0.5,1","1","",""
"","html-keyboard-response","216","76543","0.0-216.0","39N5ACM9HF9WY298FW21X4RCDSD9PW","A1EFBEBVZP3D6G","3S1L4CQSFXRWQOWP2XFUSMS4AZDFAL","","null","<img src=""img/land3.png"" style=""width:200px; border:14px solid green;"">","null","","","","","","","","","",""
"","image-keyboard-response","217","76694","0.0-217.0","39N5ACM9HF9WY298FW21X4RCDSD9PW","A1EFBEBVZP3D6G","3S1L4CQSFXRWQOWP2XFUSMS4AZDFAL","","149","img/land3.png","75","151","2","1","2","2","1,0.5,0.5,0.5,1,0.5,0.5,0.5,1","1,0.5,0.5,0.5,1,0.5,0.5,0.5,1","1","",""
"","html-keyboard-response","218","76995","0.0-218.0","39N5ACM9HF9WY298FW21X4RCDSD9PW","A1EFBEBVZP3D6G","3S1L4CQSFXRWQOWP2XFUSMS4AZDFAL","","null","<img src=""img/land3.png"" style=""width:200px; border:14px solid green;"">","null","","","","","","","","","",""
"","image-keyboard-response","219","77130","0.0-219.0","39N5ACM9HF9WY298FW21X4RCDSD9PW","A1EFBEBVZP3D6G","3S1L4CQSFXRWQOWP2XFUSMS4AZDFAL","","133","img/land4.png","76","134","3","1","1","2","1,0.5,0.5,0.5,1,0.5,0.5,0.5,1","1,0.5,0.5,0.5,1,0.5,0.5,0.5,1","1","",""
"","html-keyboard-response","220","77432","0.0-220.0","39N5ACM9HF9WY298FW21X4RCDSD9PW","A1EFBEBVZP3D6G","3S1L4CQSFXRWQOWP2XFUSMS4AZDFAL","","null","<img src=""img/land4.png"" style=""width:200px; border:14px solid green;"">","null","","","","","","","","","",""
"","image-keyboard-response","221","77560","0.0-221.0","39N5ACM9HF9WY298FW21X4RCDSD9PW","A1EFBEBVZP3D6G","3S1L4CQSFXRWQOWP2XFUSMS4AZDFAL","","126","img/land4.png","75","127","2","1","1","2","1,0.5,0.5,0.5,1,0.5,0.5,0.5,1","1,0.5,0.5,0.5,1,0.5,0.5,0.5,1","1","",""
"","html-keyboard-response","222","77864","0.0-222.0","39N5ACM9HF9WY298FW21X4RCDSD9PW","A1EFBEBVZP3D6G","3S1L4CQSFXRWQOWP2XFUSMS4AZDFAL","","null","<img src=""img/land4.png"" style=""width:200px; border:14px solid green;"">","null","","","","","","","","","",""
"","image-keyboard-response","223","78029","0.0-223.0","39N5ACM9HF9WY298FW21X4RCDSD9PW","A1EFBEBVZP3D6G","3S1L4CQSFXRWQOWP2XFUSMS4AZDFAL","","159","img/land4.png","76","161","3","0","1","2","1,0.5,0.5,0.5,1,0.5,0.5,0.5,1","1,0.5,0.5,0.5,1,0.5,0.5,0.5,1","1","",""
"","html-keyboard-response","224","78330","0.0-224.0","39N5ACM9HF9WY298FW21X4RCDSD9PW","A1EFBEBVZP3D6G","3S1L4CQSFXRWQOWP2XFUSMS4AZDFAL","","null","<img src=""img/land4.png"" style=""width:200px;border:14px solid red;"">","null","","","","","","","","","",""
"","image-keyboard-response","225","78480","0.0-225.0","39N5ACM9HF9WY298FW21X4RCDSD9PW","A1EFBEBVZP3D6G","3S1L4CQSFXRWQOWP2XFUSMS4AZDFAL","","149","img/land4.png","76","149","3","0","1","2","1,0.5,0.5,0.5,1,0.5,0.5,0.5,1","1,0.5,0.5,0.5,1,0.5,0.5,0.5,1","1","",""
"","html-keyboard-response","226","78782","0.0-226.0","39N5ACM9HF9WY298FW21X4RCDSD9PW","A1EFBEBVZP3D6G","3S1L4CQSFXRWQOWP2XFUSMS4AZDFAL","","null","<img src=""img/land4.png"" style=""width:200px;border:14px solid red;"">","null","","","","","","","","","",""
"","image-keyboard-response","227","78942","0.0-227.0","39N5ACM9HF9WY298FW21X4RCDSD9PW","A1EFBEBVZP3D6G","3S1L4CQSFXRWQOWP2XFUSMS4AZDFAL","","157","img/land4.png","75","159","2","1","1","2","1,0.5,0.5,0.5,1,0.5,0.5,0.5,1","1,0.5,0.5,0.5,1,0.5,0.5,0.5,1","1","",""
"","html-keyboard-response","228","79245","0.0-228.0","39N5ACM9HF9WY298FW21X4RCDSD9PW","A1EFBEBVZP3D6G","3S1L4CQSFXRWQOWP2XFUSMS4AZDFAL","","null","<img src=""img/land4.png"" style=""width:200px; border:14px solid green;"">","null","","","","","","","","","",""
"","image-keyboard-response","229","79396","0.0-229.0","39N5ACM9HF9WY298FW21X4RCDSD9PW","A1EFBEBVZP3D6G","3S1L4CQSFXRWQOWP2XFUSMS4AZDFAL","","149","img/land4.png","74","150","1","1","1","2","1,0.5,0.5,0.5,1,0.5,0.5,0.5,1","1,0.5,0.5,0.5,1,0.5,0.5,0.5,1","1","",""
"","html-keyboard-response","230","79699","0.0-230.0","39N5ACM9HF9WY298FW21X4RCDSD9PW","A1EFBEBVZP3D6G","3S1L4CQSFXRWQOWP2XFUSMS4AZDFAL","","null","<img src=""img/land4.png"" style=""width:200px; border:14px solid green;"">","null","","","","","","","","","",""
"","image-keyboard-response","231","79901","0.0-231.0","39N5ACM9HF9WY298FW21X4RCDSD9PW","A1EFBEBVZP3D6G","3S1L4CQSFXRWQOWP2XFUSMS4AZDFAL","","200","img/land1.png","74","202","1","1","3","2","1,0.5,0.5,0.5,1,0.5,0.5,0.5,1","1,0.5,0.5,0.5,1,0.5,0.5,0.5,1","1","",""
"","html-keyboard-response","232","80202","0.0-232.0","39N5ACM9HF9WY298FW21X4RCDSD9PW","A1EFBEBVZP3D6G","3S1L4CQSFXRWQOWP2XFUSMS4AZDFAL","","null","<img src=""img/land1.png"" style=""width:200px; border:14px solid green;"">","null","","","","","","","","","",""
"","image-keyboard-response","233","80259","0.0-233.0","39N5ACM9HF9WY298FW21X4RCDSD9PW","A1EFBEBVZP3D6G","3S1L4CQSFXRWQOWP2XFUSMS4AZDFAL","","56","img/land4.png","74","56","1","1","1","2","1,0.5,0.5,0.5,1,0.5,0.5,0.5,1","1,0.5,0.5,0.5,1,0.5,0.5,0.5,1","1","",""
"","html-keyboard-response","234","80562","0.0-234.0","39N5ACM9HF9WY298FW21X4RCDSD9PW","A1EFBEBVZP3D6G","3S1L4CQSFXRWQOWP2XFUSMS4AZDFAL","","null","<img src=""img/land4.png"" style=""width:200px; border:14px solid green;"">","null","","","","","","","","","",""
"","image-keyboard-response","235","80710","0.0-235.0","39N5ACM9HF9WY298FW21X4RCDSD9PW","A1EFBEBVZP3D6G","3S1L4CQSFXRWQOWP2XFUSMS4AZDFAL","","146","img/land4.png","76","147","3","1","1","2","1,0.5,0.5,0.5,1,0.5,0.5,0.5,1","1,0.5,0.5,0.5,1,0.5,0.5,0.5,1","1","",""
"","html-keyboard-response","236","81011","0.0-236.0","39N5ACM9HF9WY298FW21X4RCDSD9PW","A1EFBEBVZP3D6G","3S1L4CQSFXRWQOWP2XFUSMS4AZDFAL","","null","<img src=""img/land4.png"" style=""width:200px; border:14px solid green;"">","null","","","","","","","","","",""
"","image-keyboard-response","237","81200","0.0-237.0","39N5ACM9HF9WY298FW21X4RCDSD9PW","A1EFBEBVZP3D6G","3S1L4CQSFXRWQOWP2XFUSMS4AZDFAL","","186","img/land4.png","75","188","2","0","1","2","1,0.5,0.5,0.5,1,0.5,0.5,0.5,1","1,0.5,0.5,0.5,1,0.5,0.5,0.5,1","1","",""
"","html-keyboard-response","238","81504","0.0-238.0","39N5ACM9HF9WY298FW21X4RCDSD9PW","A1EFBEBVZP3D6G","3S1L4CQSFXRWQOWP2XFUSMS4AZDFAL","","null","<img src=""img/land4.png"" style=""width:200px;border:14px solid red;"">","null","","","","","","","","","",""
"","image-keyboard-response","239","81690","0.0-239.0","39N5ACM9HF9WY298FW21X4RCDSD9PW","A1EFBEBVZP3D6G","3S1L4CQSFXRWQOWP2XFUSMS4AZDFAL","","185","img/land4.png","75","186","2","1","1","2","1,0.5,0.5,0.5,1,0.5,0.5,0.5,1","1,0.5,0.5,0.5,1,0.5,0.5,0.5,1","1","",""
"","html-keyboard-response","240","81992","0.0-240.0","39N5ACM9HF9WY298FW21X4RCDSD9PW","A1EFBEBVZP3D6G","3S1L4CQSFXRWQOWP2XFUSMS4AZDFAL","","null","<img src=""img/land4.png"" style=""width:200px; border:14px solid green;"">","null","","","","","","","","","",""
"","image-keyboard-response","241","82100","0.0-241.0","39N5ACM9HF9WY298FW21X4RCDSD9PW","A1EFBEBVZP3D6G","3S1L4CQSFXRWQOWP2XFUSMS4AZDFAL","","106","img/land4.png","75","108","2","0","1","2","1,0.5,0.5,0.5,1,0.5,0.5,0.5,1","1,0.5,0.5,0.5,1,0.5,0.5,0.5,1","1","",""
"","html-keyboard-response","242","82403","0.0-242.0","39N5ACM9HF9WY298FW21X4RCDSD9PW","A1EFBEBVZP3D6G","3S1L4CQSFXRWQOWP2XFUSMS4AZDFAL","","null","<img src=""img/land4.png"" style=""width:200px;border:14px solid red;"">","null","","","","","","","","","",""
"","image-keyboard-response","243","82501","0.0-243.0","39N5ACM9HF9WY298FW21X4RCDSD9PW","A1EFBEBVZP3D6G","3S1L4CQSFXRWQOWP2XFUSMS4AZDFAL","","95","img/land1.png","76","97","3","1","3","2","1,0.5,0.5,0.5,1,0.5,0.5,0.5,1","1,0.5,0.5,0.5,1,0.5,0.5,0.5,1","1","",""
"","html-keyboard-response","244","82803","0.0-244.0","39N5ACM9HF9WY298FW21X4RCDSD9PW","A1EFBEBVZP3D6G","3S1L4CQSFXRWQOWP2XFUSMS4AZDFAL","","null","<img src=""img/land1.png"" style=""width:200px; border:14px solid green;"">","null","","","","","","","","","",""
"","image-keyboard-response","245","82902","0.0-245.0","39N5ACM9HF9WY298FW21X4RCDSD9PW","A1EFBEBVZP3D6G","3S1L4CQSFXRWQOWP2XFUSMS4AZDFAL","","96","img/land4.png","75","98","2","1","1","2","1,0.5,0.5,0.5,1,0.5,0.5,0.5,1","1,0.5,0.5,0.5,1,0.5,0.5,0.5,1","1","",""
"","html-keyboard-response","246","83203","0.0-246.0","39N5ACM9HF9WY298FW21X4RCDSD9PW","A1EFBEBVZP3D6G","3S1L4CQSFXRWQOWP2XFUSMS4AZDFAL","","null","<img src=""img/land4.png"" style=""width:200px; border:14px solid green;"">","null","","","","","","","","","",""
"","image-keyboard-response","247","83270","0.0-247.0","39N5ACM9HF9WY298FW21X4RCDSD9PW","A1EFBEBVZP3D6G","3S1L4CQSFXRWQOWP2XFUSMS4AZDFAL","","65","img/land1.png","76","66","3","1","3","2","1,0.5,0.5,0.5,1,0.5,0.5,0.5,1","1,0.5,0.5,0.5,1,0.5,0.5,0.5,1","1","",""
"","html-keyboard-response","248","83572","0.0-248.0","39N5ACM9HF9WY298FW21X4RCDSD9PW","A1EFBEBVZP3D6G","3S1L4CQSFXRWQOWP2XFUSMS4AZDFAL","","null","<img src=""img/land1.png"" style=""width:200px; border:14px solid green;"">","null","","","","","","","","","",""
"","image-keyboard-response","249","83671","0.0-249.0","39N5ACM9HF9WY298FW21X4RCDSD9PW","A1EFBEBVZP3D6G","3S1L4CQSFXRWQOWP2XFUSMS4AZDFAL","","97","img/land1.png","75","98","2","0","3","2","1,0.5,0.5,0.5,1,0.5,0.5,0.5,1","1,0.5,0.5,0.5,1,0.5,0.5,0.5,1","1","",""
"","html-keyboard-response","250","83973","0.0-250.0","39N5ACM9HF9WY298FW21X4RCDSD9PW","A1EFBEBVZP3D6G","3S1L4CQSFXRWQOWP2XFUSMS4AZDFAL","","null","<img src=""img/land1.png"" style=""width:200px;border:14px solid red;"">","null","","","","","","","","","",""
"","image-keyboard-response","251","84079","0.0-251.0","39N5ACM9HF9WY298FW21X4RCDSD9PW","A1EFBEBVZP3D6G","3S1L4CQSFXRWQOWP2XFUSMS4AZDFAL","","103","img/land3.png","74","105","1","1","2","2","1,0.5,0.5,0.5,1,0.5,0.5,0.5,1","1,0.5,0.5,0.5,1,0.5,0.5,0.5,1","1","",""
"","html-keyboard-response","252","84382","0.0-252.0","39N5ACM9HF9WY298FW21X4RCDSD9PW","A1EFBEBVZP3D6G","3S1L4CQSFXRWQOWP2XFUSMS4AZDFAL","","null","<img src=""img/land3.png"" style=""width:200px; border:14px solid green;"">","null","","","","","","","","","",""
"","image-keyboard-response","253","84400","0.0-253.0","39N5ACM9HF9WY298FW21X4RCDSD9PW","A1EFBEBVZP3D6G","3S1L4CQSFXRWQOWP2XFUSMS4AZDFAL","","15","img/land1.png","75","16","2","1","3","2","1,0.5,0.5,0.5,1,0.5,0.5,0.5,1","1,0.5,0.5,0.5,1,0.5,0.5,0.5,1","1","",""
"","html-keyboard-response","254","84703","0.0-254.0","39N5ACM9HF9WY298FW21X4RCDSD9PW","A1EFBEBVZP3D6G","3S1L4CQSFXRWQOWP2XFUSMS4AZDFAL","","null","<img src=""img/land1.png"" style=""width:200px; border:14px solid green;"">","null","","","","","","","","","",""
"","image-keyboard-response","255","84740","0.0-255.0","39N5ACM9HF9WY298FW21X4RCDSD9PW","A1EFBEBVZP3D6G","3S1L4CQSFXRWQOWP2XFUSMS4AZDFAL","","32","img/land4.png","75","36","2","1","1","2","1,0.5,0.5,0.5,1,0.5,0.5,0.5,1","1,0.5,0.5,0.5,1,0.5,0.5,0.5,1","1","",""
"","html-keyboard-response","256","85041","0.0-256.0","39N5ACM9HF9WY298FW21X4RCDSD9PW","A1EFBEBVZP3D6G","3S1L4CQSFXRWQOWP2XFUSMS4AZDFAL","","null","<img src=""img/land4.png"" style=""width:200px; border:14px solid green;"">","null","","","","","","","","","",""
"","image-keyboard-response","257","85050","0.0-257.0","39N5ACM9HF9WY298FW21X4RCDSD9PW","A1EFBEBVZP3D6G","3S1L4CQSFXRWQOWP2XFUSMS4AZDFAL","","2","img/land4.png","74","4","1","1","1","2","1,0.5,0.5,0.5,1,0.5,0.5,0.5,1","1,0.5,0.5,0.5,1,0.5,0.5,0.5,1","1","",""
"","html-keyboard-response","258","85352","0.0-258.0","39N5ACM9HF9WY298FW21X4RCDSD9PW","A1EFBEBVZP3D6G","3S1L4CQSFXRWQOWP2XFUSMS4AZDFAL","","null","<img src=""img/land4.png"" style=""width:200px; border:14px solid green;"">","null","","","","","","","","","",""
"","image-keyboard-response","259","85424","0.0-259.0","39N5ACM9HF9WY298FW21X4RCDSD9PW","A1EFBEBVZP3D6G","3S1L4CQSFXRWQOWP2XFUSMS4AZDFAL","","68","img/land3.png","75","71","2","1","2","2","1,0.5,0.5,0.5,1,0.5,0.5,0.5,1","1,0.5,0.5,0.5,1,0.5,0.5,0.5,1","1","",""
"","html-keyboard-response","260","85727","0.0-260.0","39N5ACM9HF9WY298FW21X4RCDSD9PW","A1EFBEBVZP3D6G","3S1L4CQSFXRWQOWP2XFUSMS4AZDFAL","","null","<img src=""img/land3.png"" style=""width:200px; border:14px solid green;"">","null","","","","","","","","","",""
"","image-keyboard-response","261","85928","0.0-261.0","39N5ACM9HF9WY298FW21X4RCDSD9PW","A1EFBEBVZP3D6G","3S1L4CQSFXRWQOWP2XFUSMS4AZDFAL","","199","img/land4.png","75","201","2","1","1","2","1,0.5,0.5,0.5,1,0.5,0.5,0.5,1","1,0.5,0.5,0.5,1,0.5,0.5,0.5,1","1","",""
"","html-keyboard-response","262","86229","0.0-262.0","39N5ACM9HF9WY298FW21X4RCDSD9PW","A1EFBEBVZP3D6G","3S1L4CQSFXRWQOWP2XFUSMS4AZDFAL","","null","<img src=""img/land4.png"" style=""width:200px; border:14px solid green;"">","null","","","","","","","","","",""
"","image-keyboard-response","263","86260","0.0-263.0","39N5ACM9HF9WY298FW21X4RCDSD9PW","A1EFBEBVZP3D6G","3S1L4CQSFXRWQOWP2XFUSMS4AZDFAL","","30","img/land1.png","75","30","2","0","3","2","1,0.5,0.5,0.5,1,0.5,0.5,0.5,1","1,0.5,0.5,0.5,1,0.5,0.5,0.5,1","1","",""
"","html-keyboard-response","264","86561","0.0-264.0","39N5ACM9HF9WY298FW21X4RCDSD9PW","A1EFBEBVZP3D6G","3S1L4CQSFXRWQOWP2XFUSMS4AZDFAL","","null","<img src=""img/land1.png"" style=""width:200px;border:14px solid red;"">","null","","","","","","","","","",""
"","image-keyboard-response","265","86646","0.0-265.0","39N5ACM9HF9WY298FW21X4RCDSD9PW","A1EFBEBVZP3D6G","3S1L4CQSFXRWQOWP2XFUSMS4AZDFAL","","83","img/land1.png","76","84","3","1","3","2","1,0.5,0.5,0.5,1,0.5,0.5,0.5,1","1,0.5,0.5,0.5,1,0.5,0.5,0.5,1","1","",""
"","html-keyboard-response","266","86948","0.0-266.0","39N5ACM9HF9WY298FW21X4RCDSD9PW","A1EFBEBVZP3D6G","3S1L4CQSFXRWQOWP2XFUSMS4AZDFAL","","null","<img src=""img/land1.png"" style=""width:200px; border:14px solid green;"">","null","","","","","","","","","",""
"","image-keyboard-response","267","87025","0.0-267.0","39N5ACM9HF9WY298FW21X4RCDSD9PW","A1EFBEBVZP3D6G","3S1L4CQSFXRWQOWP2XFUSMS4AZDFAL","","75","img/land3.png","74","76","1","1","2","2","1,0.5,0.5,0.5,1,0.5,0.5,0.5,1","1,0.5,0.5,0.5,1,0.5,0.5,0.5,1","1","",""
"","html-keyboard-response","268","87328","0.0-268.0","39N5ACM9HF9WY298FW21X4RCDSD9PW","A1EFBEBVZP3D6G","3S1L4CQSFXRWQOWP2XFUSMS4AZDFAL","","null","<img src=""img/land3.png"" style=""width:200px; border:14px solid green;"">","null","","","","","","","","","",""
"","image-keyboard-response","269","87431","0.0-269.0","39N5ACM9HF9WY298FW21X4RCDSD9PW","A1EFBEBVZP3D6G","3S1L4CQSFXRWQOWP2XFUSMS4AZDFAL","","102","img/land1.png","75","104","2","0","3","2","1,0.5,0.5,0.5,1,0.5,0.5,0.5,1","1,0.5,0.5,0.5,1,0.5,0.5,0.5,1","1","",""
"","html-keyboard-response","270","87736","0.0-270.0","39N5ACM9HF9WY298FW21X4RCDSD9PW","A1EFBEBVZP3D6G","3S1L4CQSFXRWQOWP2XFUSMS4AZDFAL","","null","<img src=""img/land1.png"" style=""width:200px;border:14px solid red;"">","null","","","","","","","","","",""
"","image-keyboard-response","271","87820","0.0-271.0","39N5ACM9HF9WY298FW21X4RCDSD9PW","A1EFBEBVZP3D6G","3S1L4CQSFXRWQOWP2XFUSMS4AZDFAL","","81","img/land3.png","74","84","1","0","2","2","1,0.5,0.5,0.5,1,0.5,0.5,0.5,1","1,0.5,0.5,0.5,1,0.5,0.5,0.5,1","1","",""
"","html-keyboard-response","272","88122","0.0-272.0","39N5ACM9HF9WY298FW21X4RCDSD9PW","A1EFBEBVZP3D6G","3S1L4CQSFXRWQOWP2XFUSMS4AZDFAL","","null","<img src=""img/land3.png"" style=""width:200px;border:14px solid red;"">","null","","","","","","","","","",""
"","image-keyboard-response","273","88166","0.0-273.0","39N5ACM9HF9WY298FW21X4RCDSD9PW","A1EFBEBVZP3D6G","3S1L4CQSFXRWQOWP2XFUSMS4AZDFAL","","43","img/land4.png","74","44","1","1","1","2","1,0.5,0.5,0.5,1,0.5,0.5,0.5,1","1,0.5,0.5,0.5,1,0.5,0.5,0.5,1","1","",""
"","html-keyboard-response","274","88470","0.0-274.0","39N5ACM9HF9WY298FW21X4RCDSD9PW","A1EFBEBVZP3D6G","3S1L4CQSFXRWQOWP2XFUSMS4AZDFAL","","null","<img src=""img/land4.png"" style=""width:200px; border:14px solid green;"">","null","","","","","","","","","",""
"","image-keyboard-response","275","88545","0.0-275.0","39N5ACM9HF9WY298FW21X4RCDSD9PW","A1EFBEBVZP3D6G","3S1L4CQSFXRWQOWP2XFUSMS4AZDFAL","","73","img/land4.png","75","76","2","1","1","2","1,0.5,0.5,0.5,1,0.5,0.5,0.5,1","1,0.5,0.5,0.5,1,0.5,0.5,0.5,1","1","",""
"","html-keyboard-response","276","88848","0.0-276.0","39N5ACM9HF9WY298FW21X4RCDSD9PW","A1EFBEBVZP3D6G","3S1L4CQSFXRWQOWP2XFUSMS4AZDFAL","","null","<img src=""img/land4.png"" style=""width:200px; border:14px solid green;"">","null","","","","","","","","","",""
"","image-keyboard-response","277","88960","0.0-277.0","39N5ACM9HF9WY298FW21X4RCDSD9PW","A1EFBEBVZP3D6G","3S1L4CQSFXRWQOWP2XFUSMS4AZDFAL","","110","img/land4.png","75","111","2","0","1","2","1,0.5,0.5,0.5,1,0.5,0.5,0.5,1","1,0.5,0.5,0.5,1,0.5,0.5,0.5,1","1","",""
"","html-keyboard-response","278","89260","0.0-278.0","39N5ACM9HF9WY298FW21X4RCDSD9PW","A1EFBEBVZP3D6G","3S1L4CQSFXRWQOWP2XFUSMS4AZDFAL","","null","<img src=""img/land4.png"" style=""width:200px;border:14px solid red;"">","null","","","","","","","","","",""
"","image-keyboard-response","279","89289","0.0-279.0","39N5ACM9HF9WY298FW21X4RCDSD9PW","A1EFBEBVZP3D6G","3S1L4CQSFXRWQOWP2XFUSMS4AZDFAL","","28","img/land3.png","75","28","2","1","2","2","1,0.5,0.5,0.5,1,0.5,0.5,0.5,1","1,0.5,0.5,0.5,1,0.5,0.5,0.5,1","1","",""
"","html-keyboard-response","280","89591","0.0-280.0","39N5ACM9HF9WY298FW21X4RCDSD9PW","A1EFBEBVZP3D6G","3S1L4CQSFXRWQOWP2XFUSMS4AZDFAL","","null","<img src=""img/land3.png"" style=""width:200px; border:14px solid green;"">","null","","","","","","","","","",""
"","image-keyboard-response","281","89600","0.0-281.0","39N5ACM9HF9WY298FW21X4RCDSD9PW","A1EFBEBVZP3D6G","3S1L4CQSFXRWQOWP2XFUSMS4AZDFAL","","8","img/land1.png","75","10","2","0","3","2","1,0.5,0.5,0.5,1,0.5,0.5,0.5,1","1,0.5,0.5,0.5,1,0.5,0.5,0.5,1","1","",""
"","html-keyboard-response","282","89902","0.0-282.0","39N5ACM9HF9WY298FW21X4RCDSD9PW","A1EFBEBVZP3D6G","3S1L4CQSFXRWQOWP2XFUSMS4AZDFAL","","null","<img src=""img/land1.png"" style=""width:200px;border:14px solid red;"">","null","","","","","","","","","",""
"","image-keyboard-response","283","90100","0.0-283.0","39N5ACM9HF9WY298FW21X4RCDSD9PW","A1EFBEBVZP3D6G","3S1L4CQSFXRWQOWP2XFUSMS4AZDFAL","","197","img/land4.png","75","197","2","1","1","2","1,0.5,0.5,0.5,1,0.5,0.5,0.5,1","1,0.5,0.5,0.5,1,0.5,0.5,0.5,1","1","",""
"","html-keyboard-response","284","90401","0.0-284.0","39N5ACM9HF9WY298FW21X4RCDSD9PW","A1EFBEBVZP3D6G","3S1L4CQSFXRWQOWP2XFUSMS4AZDFAL","","null","<img src=""img/land4.png"" style=""width:200px; border:14px solid green;"">","null","","","","","","","","","",""
"","image-keyboard-response","285","90430","0.0-285.0","39N5ACM9HF9WY298FW21X4RCDSD9PW","A1EFBEBVZP3D6G","3S1L4CQSFXRWQOWP2XFUSMS4AZDFAL","","26","img/land4.png","75","28","2","1","1","2","1,0.5,0.5,0.5,1,0.5,0.5,0.5,1","1,0.5,0.5,0.5,1,0.5,0.5,0.5,1","1","",""
"","html-keyboard-response","286","90731","0.0-286.0","39N5ACM9HF9WY298FW21X4RCDSD9PW","A1EFBEBVZP3D6G","3S1L4CQSFXRWQOWP2XFUSMS4AZDFAL","","null","<img src=""img/land4.png"" style=""width:200px; border:14px solid green;"">","null","","","","","","","","","",""
"","image-keyboard-response","287","90760","0.0-287.0","39N5ACM9HF9WY298FW21X4RCDSD9PW","A1EFBEBVZP3D6G","3S1L4CQSFXRWQOWP2XFUSMS4AZDFAL","","27","img/land4.png","74","28","1","1","1","2","1,0.5,0.5,0.5,1,0.5,0.5,0.5,1","1,0.5,0.5,0.5,1,0.5,0.5,0.5,1","1","",""
"","html-keyboard-response","288","91061","0.0-288.0","39N5ACM9HF9WY298FW21X4RCDSD9PW","A1EFBEBVZP3D6G","3S1L4CQSFXRWQOWP2XFUSMS4AZDFAL","","null","<img src=""img/land4.png"" style=""width:200px; border:14px solid green;"">","null","","","","","","","","","",""
"","image-keyboard-response","289","91136","0.0-289.0","39N5ACM9HF9WY298FW21X4RCDSD9PW","A1EFBEBVZP3D6G","3S1L4CQSFXRWQOWP2XFUSMS4AZDFAL","","72","img/land4.png","75","74","2","1","1","2","1,0.5,0.5,0.5,1,0.5,0.5,0.5,1","1,0.5,0.5,0.5,1,0.5,0.5,0.5,1","1","",""
"","html-keyboard-response","290","91440","0.0-290.0","39N5ACM9HF9WY298FW21X4RCDSD9PW","A1EFBEBVZP3D6G","3S1L4CQSFXRWQOWP2XFUSMS4AZDFAL","","null","<img src=""img/land4.png"" style=""width:200px; border:14px solid green;"">","null","","","","","","","","","",""
"","image-keyboard-response","291","91561","0.0-291.0","39N5ACM9HF9WY298FW21X4RCDSD9PW","A1EFBEBVZP3D6G","3S1L4CQSFXRWQOWP2XFUSMS4AZDFAL","","118","img/land4.png","76","120","3","1","1","2","1,0.5,0.5,0.5,1,0.5,0.5,0.5,1","1,0.5,0.5,0.5,1,0.5,0.5,0.5,1","1","",""
"","html-keyboard-response","292","91901","0.0-292.0","39N5ACM9HF9WY298FW21X4RCDSD9PW","A1EFBEBVZP3D6G","3S1L4CQSFXRWQOWP2XFUSMS4AZDFAL","","null","<img src=""img/land4.png"" style=""width:200px; border:14px solid green;"">","null","","","","","","","","","",""
"","image-keyboard-response","293","91920","0.0-293.0","39N5ACM9HF9WY298FW21X4RCDSD9PW","A1EFBEBVZP3D6G","3S1L4CQSFXRWQOWP2XFUSMS4AZDFAL","","18","img/land4.png","75","19","2","1","1","2","1,0.5,0.5,0.5,1,0.5,0.5,0.5,1","1,0.5,0.5,0.5,1,0.5,0.5,0.5,1","1","",""
"","html-keyboard-response","294","92224","0.0-294.0","39N5ACM9HF9WY298FW21X4RCDSD9PW","A1EFBEBVZP3D6G","3S1L4CQSFXRWQOWP2XFUSMS4AZDFAL","","null","<img src=""img/land4.png"" style=""width:200px; border:14px solid green;"">","null","","","","","","","","","",""
"","image-keyboard-response","295","92346","0.0-295.0","39N5ACM9HF9WY298FW21X4RCDSD9PW","A1EFBEBVZP3D6G","3S1L4CQSFXRWQOWP2XFUSMS4AZDFAL","","119","img/land1.png","75","121","2","0","3","2","1,0.5,0.5,0.5,1,0.5,0.5,0.5,1","1,0.5,0.5,0.5,1,0.5,0.5,0.5,1","1","",""
"","html-keyboard-response","296","92649","0.0-296.0","39N5ACM9HF9WY298FW21X4RCDSD9PW","A1EFBEBVZP3D6G","3S1L4CQSFXRWQOWP2XFUSMS4AZDFAL","","null","<img src=""img/land1.png"" style=""width:200px;border:14px solid red;"">","null","","","","","","","","","",""
"","image-keyboard-response","297","92832","0.0-297.0","39N5ACM9HF9WY298FW21X4RCDSD9PW","A1EFBEBVZP3D6G","3S1L4CQSFXRWQOWP2XFUSMS4AZDFAL","","180","img/land3.png","76","182","3","1","2","2","1,0.5,0.5,0.5,1,0.5,0.5,0.5,1","1,0.5,0.5,0.5,1,0.5,0.5,0.5,1","1","",""
"","html-keyboard-response","298","93134","0.0-298.0","39N5ACM9HF9WY298FW21X4RCDSD9PW","A1EFBEBVZP3D6G","3S1L4CQSFXRWQOWP2XFUSMS4AZDFAL","","null","<img src=""img/land3.png"" style=""width:200px; border:14px solid green;"">","null","","","","","","","","","",""
"","image-keyboard-response","299","93210","0.0-299.0","39N5ACM9HF9WY298FW21X4RCDSD9PW","A1EFBEBVZP3D6G","3S1L4CQSFXRWQOWP2XFUSMS4AZDFAL","","72","img/land3.png","75","74","2","1","2","2","1,0.5,0.5,0.5,1,0.5,0.5,0.5,1","1,0.5,0.5,0.5,1,0.5,0.5,0.5,1","1","",""
"","html-keyboard-response","300","93511","0.0-300.0","39N5ACM9HF9WY298FW21X4RCDSD9PW","A1EFBEBVZP3D6G","3S1L4CQSFXRWQOWP2XFUSMS4AZDFAL","","null","<img src=""img/land3.png"" style=""width:200px; border:14px solid green;"">","null","","","","","","","","","",""
"","image-keyboard-response","301","93640","0.0-301.0","39N5ACM9HF9WY298FW21X4RCDSD9PW","A1EFBEBVZP3D6G","3S1L4CQSFXRWQOWP2XFUSMS4AZDFAL","","126","img/land4.png","75","128","2","1","1","2","1,0.5,0.5,0.5,1,0.5,0.5,0.5,1","1,0.5,0.5,0.5,1,0.5,0.5,0.5,1","1","",""
"","html-keyboard-response","302","93945","0.0-302.0","39N5ACM9HF9WY298FW21X4RCDSD9PW","A1EFBEBVZP3D6G","3S1L4CQSFXRWQOWP2XFUSMS4AZDFAL","","null","<img src=""img/land4.png"" style=""width:200px; border:14px solid green;"">","null","","","","","","","","","",""
"","image-keyboard-response","303","94062","0.0-303.0","39N5ACM9HF9WY298FW21X4RCDSD9PW","A1EFBEBVZP3D6G","3S1L4CQSFXRWQOWP2XFUSMS4AZDFAL","","115","img/land4.png","76","117","3","1","1","2","1,0.5,0.5,0.5,1,0.5,0.5,0.5,1","1,0.5,0.5,0.5,1,0.5,0.5,0.5,1","1","",""
"","html-keyboard-response","304","94364","0.0-304.0","39N5ACM9HF9WY298FW21X4RCDSD9PW","A1EFBEBVZP3D6G","3S1L4CQSFXRWQOWP2XFUSMS4AZDFAL","","null","<img src=""img/land4.png"" style=""width:200px; border:14px solid green;"">","null","","","","","","","","","",""
"","image-keyboard-response","305","94489","0.0-305.0","39N5ACM9HF9WY298FW21X4RCDSD9PW","A1EFBEBVZP3D6G","3S1L4CQSFXRWQOWP2XFUSMS4AZDFAL","","123","img/land4.png","75","124","2","0","1","2","1,0.5,0.5,0.5,1,0.5,0.5,0.5,1","1,0.5,0.5,0.5,1,0.5,0.5,0.5,1","1","",""
"","html-keyboard-response","306","94791","0.0-306.0","39N5ACM9HF9WY298FW21X4RCDSD9PW","A1EFBEBVZP3D6G","3S1L4CQSFXRWQOWP2XFUSMS4AZDFAL","","null","<img src=""img/land4.png"" style=""width:200px;border:14px solid red;"">","null","","","","","","","","","",""
"","image-keyboard-response","307","94880","0.0-307.0","39N5ACM9HF9WY298FW21X4RCDSD9PW","A1EFBEBVZP3D6G","3S1L4CQSFXRWQOWP2XFUSMS4AZDFAL","","87","img/land4.png","75","88","2","1","1","2","1,0.5,0.5,0.5,1,0.5,0.5,0.5,1","1,0.5,0.5,0.5,1,0.5,0.5,0.5,1","1","",""
"","html-keyboard-response","308","95185","0.0-308.0","39N5ACM9HF9WY298FW21X4RCDSD9PW","A1EFBEBVZP3D6G","3S1L4CQSFXRWQOWP2XFUSMS4AZDFAL","","null","<img src=""img/land4.png"" style=""width:200px; border:14px solid green;"">","null","","","","","","","","","",""
"","image-keyboard-response","309","95290","0.0-309.0","39N5ACM9HF9WY298FW21X4RCDSD9PW","A1EFBEBVZP3D6G","3S1L4CQSFXRWQOWP2XFUSMS4AZDFAL","","102","img/land1.png","75","104","2","0","3","2","1,0.5,0.5,0.5,1,0.5,0.5,0.5,1","1,0.5,0.5,0.5,1,0.5,0.5,0.5,1","1","",""
"","html-keyboard-response","310","95592","0.0-310.0","39N5ACM9HF9WY298FW21X4RCDSD9PW","A1EFBEBVZP3D6G","3S1L4CQSFXRWQOWP2XFUSMS4AZDFAL","","null","<img src=""img/land1.png"" style=""width:200px;border:14px solid red;"">","null","","","","","","","","","",""
"","image-keyboard-response","311","95715","0.0-311.0","39N5ACM9HF9WY298FW21X4RCDSD9PW","A1EFBEBVZP3D6G","3S1L4CQSFXRWQOWP2XFUSMS4AZDFAL","","121","img/land3.png","74","122","1","1","2","2","1,0.5,0.5,0.5,1,0.5,0.5,0.5,1","1,0.5,0.5,0.5,1,0.5,0.5,0.5,1","1","",""
"","html-keyboard-response","312","96019","0.0-312.0","39N5ACM9HF9WY298FW21X4RCDSD9PW","A1EFBEBVZP3D6G","3S1L4CQSFXRWQOWP2XFUSMS4AZDFAL","","null","<img src=""img/land3.png"" style=""width:200px; border:14px solid green;"">","null","","","","","","","","","",""
"","image-keyboard-response","313","96099","0.0-313.0","39N5ACM9HF9WY298FW21X4RCDSD9PW","A1EFBEBVZP3D6G","3S1L4CQSFXRWQOWP2XFUSMS4AZDFAL","","77","img/land4.png","75","79","2","0","1","2","1,0.5,0.5,0.5,1,0.5,0.5,0.5,1","1,0.5,0.5,0.5,1,0.5,0.5,0.5,1","1","",""
"","html-keyboard-response","314","96400","0.0-314.0","39N5ACM9HF9WY298FW21X4RCDSD9PW","A1EFBEBVZP3D6G","3S1L4CQSFXRWQOWP2XFUSMS4AZDFAL","","null","<img src=""img/land4.png"" style=""width:200px;border:14px solid red;"">","null","","","","","","","","","",""
"","image-keyboard-response","315","96530","0.0-315.0","39N5ACM9HF9WY298FW21X4RCDSD9PW","A1EFBEBVZP3D6G","3S1L4CQSFXRWQOWP2XFUSMS4AZDFAL","","129","img/land1.png","75","130","2","0","3","2","1,0.5,0.5,0.5,1,0.5,0.5,0.5,1","1,0.5,0.5,0.5,1,0.5,0.5,0.5,1","1","",""
"","html-keyboard-response","316","96832","0.0-316.0","39N5ACM9HF9WY298FW21X4RCDSD9PW","A1EFBEBVZP3D6G","3S1L4CQSFXRWQOWP2XFUSMS4AZDFAL","","null","<img src=""img/land1.png"" style=""width:200px;border:14px solid red;"">","null","","","","","","","","","",""
"","image-keyboard-response","317","96921","0.0-317.0","39N5ACM9HF9WY298FW21X4RCDSD9PW","A1EFBEBVZP3D6G","3S1L4CQSFXRWQOWP2XFUSMS4AZDFAL","","86","img/land3.png","75","87","2","1","2","2","1,0.5,0.5,0.5,1,0.5,0.5,0.5,1","1,0.5,0.5,0.5,1,0.5,0.5,0.5,1","1","",""
"","html-keyboard-response","318","97223","0.0-318.0","39N5ACM9HF9WY298FW21X4RCDSD9PW","A1EFBEBVZP3D6G","3S1L4CQSFXRWQOWP2XFUSMS4AZDFAL","","null","<img src=""img/land3.png"" style=""width:200px; border:14px solid green;"">","null","","","","","","","","","",""
"","image-keyboard-response","319","97344","0.0-319.0","39N5ACM9HF9WY298FW21X4RCDSD9PW","A1EFBEBVZP3D6G","3S1L4CQSFXRWQOWP2XFUSMS4AZDFAL","","119","img/land1.png","75","121","2","1","3","2","1,0.5,0.5,0.5,1,0.5,0.5,0.5,1","1,0.5,0.5,0.5,1,0.5,0.5,0.5,1","1","",""
"","html-keyboard-response","320","97662","0.0-320.0","39N5ACM9HF9WY298FW21X4RCDSD9PW","A1EFBEBVZP3D6G","3S1L4CQSFXRWQOWP2XFUSMS4AZDFAL","","null","<img src=""img/land1.png"" style=""width:200px; border:14px solid green;"">","null","","","","","","","","","",""
"","image-keyboard-response","321","97777","0.0-321.0","39N5ACM9HF9WY298FW21X4RCDSD9PW","A1EFBEBVZP3D6G","3S1L4CQSFXRWQOWP2XFUSMS4AZDFAL","","114","img/land3.png","75","115","2","1","2","2","1,0.5,0.5,0.5,1,0.5,0.5,0.5,1","1,0.5,0.5,0.5,1,0.5,0.5,0.5,1","1","",""
"","html-keyboard-response","322","98079","0.0-322.0","39N5ACM9HF9WY298FW21X4RCDSD9PW","A1EFBEBVZP3D6G","3S1L4CQSFXRWQOWP2XFUSMS4AZDFAL","","null","<img src=""img/land3.png"" style=""width:200px; border:14px solid green;"">","null","","","","","","","","","",""
"","image-keyboard-response","323","98176","0.0-323.0","39N5ACM9HF9WY298FW21X4RCDSD9PW","A1EFBEBVZP3D6G","3S1L4CQSFXRWQOWP2XFUSMS4AZDFAL","","94","img/land4.png","76","95","3","1","1","2","1,0.5,0.5,0.5,1,0.5,0.5,0.5,1","1,0.5,0.5,0.5,1,0.5,0.5,0.5,1","1","",""
"","html-keyboard-response","324","98478","0.0-324.0","39N5ACM9HF9WY298FW21X4RCDSD9PW","A1EFBEBVZP3D6G","3S1L4CQSFXRWQOWP2XFUSMS4AZDFAL","","null","<img src=""img/land4.png"" style=""width:200px; border:14px solid green;"">","null","","","","","","","","","",""
"","image-keyboard-response","325","98605","0.0-325.0","39N5ACM9HF9WY298FW21X4RCDSD9PW","A1EFBEBVZP3D6G","3S1L4CQSFXRWQOWP2XFUSMS4AZDFAL","","125","img/land1.png","75","126","2","1","3","2","1,0.5,0.5,0.5,1,0.5,0.5,0.5,1","1,0.5,0.5,0.5,1,0.5,0.5,0.5,1","1","",""
"","html-keyboard-response","326","98908","0.0-326.0","39N5ACM9HF9WY298FW21X4RCDSD9PW","A1EFBEBVZP3D6G","3S1L4CQSFXRWQOWP2XFUSMS4AZDFAL","","null","<img src=""img/land1.png"" style=""width:200px; border:14px solid green;"">","null","","","","","","","","","",""
"","image-keyboard-response","327","98986","0.0-327.0","39N5ACM9HF9WY298FW21X4RCDSD9PW","A1EFBEBVZP3D6G","3S1L4CQSFXRWQOWP2XFUSMS4AZDFAL","","76","img/land3.png","76","78","3","1","2","2","1,0.5,0.5,0.5,1,0.5,0.5,0.5,1","1,0.5,0.5,0.5,1,0.5,0.5,0.5,1","1","",""
"","html-keyboard-response","328","99288","0.0-328.0","39N5ACM9HF9WY298FW21X4RCDSD9PW","A1EFBEBVZP3D6G","3S1L4CQSFXRWQOWP2XFUSMS4AZDFAL","","null","<img src=""img/land3.png"" style=""width:200px; border:14px solid green;"">","null","","","","","","","","","",""
"","image-keyboard-response","329","99411","0.0-329.0","39N5ACM9HF9WY298FW21X4RCDSD9PW","A1EFBEBVZP3D6G","3S1L4CQSFXRWQOWP2XFUSMS4AZDFAL","","122","img/land4.png","75","123","2","0","1","2","1,0.5,0.5,0.5,1,0.5,0.5,0.5,1","1,0.5,0.5,0.5,1,0.5,0.5,0.5,1","1","",""
"","html-keyboard-response","330","99718","0.0-330.0","39N5ACM9HF9WY298FW21X4RCDSD9PW","A1EFBEBVZP3D6G","3S1L4CQSFXRWQOWP2XFUSMS4AZDFAL","","null","<img src=""img/land4.png"" style=""width:200px;border:14px solid red;"">","null","","","","","","","","","",""
"","image-keyboard-response","331","99800","0.0-331.0","39N5ACM9HF9WY298FW21X4RCDSD9PW","A1EFBEBVZP3D6G","3S1L4CQSFXRWQOWP2XFUSMS4AZDFAL","","77","img/land4.png","75","81","2","1","1","2","1,0.5,0.5,0.5,1,0.5,0.5,0.5,1","1,0.5,0.5,0.5,1,0.5,0.5,0.5,1","1","",""
"","html-keyboard-response","332","100103","0.0-332.0","39N5ACM9HF9WY298FW21X4RCDSD9PW","A1EFBEBVZP3D6G","3S1L4CQSFXRWQOWP2XFUSMS4AZDFAL","","null","<img src=""img/land4.png"" style=""width:200px; border:14px solid green;"">","null","","","","","","","","","",""
"","image-keyboard-response","333","100167","0.0-333.0","39N5ACM9HF9WY298FW21X4RCDSD9PW","A1EFBEBVZP3D6G","3S1L4CQSFXRWQOWP2XFUSMS4AZDFAL","","63","img/land1.png","75","63","2","0","3","2","1,0.5,0.5,0.5,1,0.5,0.5,0.5,1","1,0.5,0.5,0.5,1,0.5,0.5,0.5,1","1","",""
"","html-keyboard-response","334","100468","0.0-334.0","39N5ACM9HF9WY298FW21X4RCDSD9PW","A1EFBEBVZP3D6G","3S1L4CQSFXRWQOWP2XFUSMS4AZDFAL","","null","<img src=""img/land1.png"" style=""width:200px;border:14px solid red;"">","null","","","","","","","","","",""
"","image-keyboard-response","335","100641","0.0-335.0","39N5ACM9HF9WY298FW21X4RCDSD9PW","A1EFBEBVZP3D6G","3S1L4CQSFXRWQOWP2XFUSMS4AZDFAL","","170","img/land3.png","75","172","2","1","2","2","1,0.5,0.5,0.5,1,0.5,0.5,0.5,1","1,0.5,0.5,0.5,1,0.5,0.5,0.5,1","1","",""
"","html-keyboard-response","336","100942","0.0-336.0","39N5ACM9HF9WY298FW21X4RCDSD9PW","A1EFBEBVZP3D6G","3S1L4CQSFXRWQOWP2XFUSMS4AZDFAL","","null","<img src=""img/land3.png"" style=""width:200px; border:14px solid green;"">","null","","","","","","","","","",""
"","image-keyboard-response","337","101078","0.0-337.0","39N5ACM9HF9WY298FW21X4RCDSD9PW","A1EFBEBVZP3D6G","3S1L4CQSFXRWQOWP2XFUSMS4AZDFAL","","135","img/land4.png","75","136","2","0","1","2","1,0.5,0.5,0.5,1,0.5,0.5,0.5,1","1,0.5,0.5,0.5,1,0.5,0.5,0.5,1","1","",""
"","html-keyboard-response","338","101382","0.0-338.0","39N5ACM9HF9WY298FW21X4RCDSD9PW","A1EFBEBVZP3D6G","3S1L4CQSFXRWQOWP2XFUSMS4AZDFAL","","null","<img src=""img/land4.png"" style=""width:200px;border:14px solid red;"">","null","","","","","","","","","",""
"","image-keyboard-response","339","101507","0.0-339.0","39N5ACM9HF9WY298FW21X4RCDSD9PW","A1EFBEBVZP3D6G","3S1L4CQSFXRWQOWP2XFUSMS4AZDFAL","","123","img/land4.png","75","125","2","0","1","2","1,0.5,0.5,0.5,1,0.5,0.5,0.5,1","1,0.5,0.5,0.5,1,0.5,0.5,0.5,1","1","",""
"","html-keyboard-response","340","101809","0.0-340.0","39N5ACM9HF9WY298FW21X4RCDSD9PW","A1EFBEBVZP3D6G","3S1L4CQSFXRWQOWP2XFUSMS4AZDFAL","","null","<img src=""img/land4.png"" style=""width:200px;border:14px solid red;"">","null","","","","","","","","","",""
"","image-keyboard-response","341","101956","0.0-341.0","39N5ACM9HF9WY298FW21X4RCDSD9PW","A1EFBEBVZP3D6G","3S1L4CQSFXRWQOWP2XFUSMS4AZDFAL","","145","img/land4.png","75","147","2","0","1","2","1,0.5,0.5,0.5,1,0.5,0.5,0.5,1","1,0.5,0.5,0.5,1,0.5,0.5,0.5,1","1","",""
"","html-keyboard-response","342","102260","0.0-342.0","39N5ACM9HF9WY298FW21X4RCDSD9PW","A1EFBEBVZP3D6G","3S1L4CQSFXRWQOWP2XFUSMS4AZDFAL","","null","<img src=""img/land4.png"" style=""width:200px;border:14px solid red;"">","null","","","","","","","","","",""
"","image-keyboard-response","343","102331","0.0-343.0","39N5ACM9HF9WY298FW21X4RCDSD9PW","A1EFBEBVZP3D6G","3S1L4CQSFXRWQOWP2XFUSMS4AZDFAL","","70","img/land1.png","76","70","3","1","3","2","1,0.5,0.5,0.5,1,0.5,0.5,0.5,1","1,0.5,0.5,0.5,1,0.5,0.5,0.5,1","1","",""
"","html-keyboard-response","344","102633","0.0-344.0","39N5ACM9HF9WY298FW21X4RCDSD9PW","A1EFBEBVZP3D6G","3S1L4CQSFXRWQOWP2XFUSMS4AZDFAL","","null","<img src=""img/land1.png"" style=""width:200px; border:14px solid green;"">","null","","","","","","","","","",""
"","image-keyboard-response","345","102720","0.0-345.0","39N5ACM9HF9WY298FW21X4RCDSD9PW","A1EFBEBVZP3D6G","3S1L4CQSFXRWQOWP2XFUSMS4AZDFAL","","84","img/land1.png","76","86","3","1","3","2","1,0.5,0.5,0.5,1,0.5,0.5,0.5,1","1,0.5,0.5,0.5,1,0.5,0.5,0.5,1","1","",""
"","html-keyboard-response","346","103020","0.0-346.0","39N5ACM9HF9WY298FW21X4RCDSD9PW","A1EFBEBVZP3D6G","3S1L4CQSFXRWQOWP2XFUSMS4AZDFAL","","null","<img src=""img/land1.png"" style=""width:200px; border:14px solid green;"">","null","","","","","","","","","",""
"","image-keyboard-response","347","103101","0.0-347.0","39N5ACM9HF9WY298FW21X4RCDSD9PW","A1EFBEBVZP3D6G","3S1L4CQSFXRWQOWP2XFUSMS4AZDFAL","","80","img/land4.png","76","82","3","1","1","2","1,0.5,0.5,0.5,1,0.5,0.5,0.5,1","1,0.5,0.5,0.5,1,0.5,0.5,0.5,1","1","",""
"","html-keyboard-response","348","103405","0.0-348.0","39N5ACM9HF9WY298FW21X4RCDSD9PW","A1EFBEBVZP3D6G","3S1L4CQSFXRWQOWP2XFUSMS4AZDFAL","","null","<img src=""img/land4.png"" style=""width:200px; border:14px solid green;"">","null","","","","","","","","","",""
"","image-keyboard-response","349","103481","0.0-349.0","39N5ACM9HF9WY298FW21X4RCDSD9PW","A1EFBEBVZP3D6G","3S1L4CQSFXRWQOWP2XFUSMS4AZDFAL","","72","img/land4.png","75","74","2","0","1","2","1,0.5,0.5,0.5,1,0.5,0.5,0.5,1","1,0.5,0.5,0.5,1,0.5,0.5,0.5,1","1","",""
"","html-keyboard-response","350","103783","0.0-350.0","39N5ACM9HF9WY298FW21X4RCDSD9PW","A1EFBEBVZP3D6G","3S1L4CQSFXRWQOWP2XFUSMS4AZDFAL","","null","<img src=""img/land4.png"" style=""width:200px;border:14px solid red;"">","null","","","","","","","","","",""
"","image-keyboard-response","351","103932","0.0-351.0","39N5ACM9HF9WY298FW21X4RCDSD9PW","A1EFBEBVZP3D6G","3S1L4CQSFXRWQOWP2XFUSMS4AZDFAL","","146","img/land3.png","74","146","1","1","2","2","1,0.5,0.5,0.5,1,0.5,0.5,0.5,1","1,0.5,0.5,0.5,1,0.5,0.5,0.5,1","1","",""
"","html-keyboard-response","352","104234","0.0-352.0","39N5ACM9HF9WY298FW21X4RCDSD9PW","A1EFBEBVZP3D6G","3S1L4CQSFXRWQOWP2XFUSMS4AZDFAL","","null","<img src=""img/land3.png"" style=""width:200px; border:14px solid green;"">","null","","","","","","","","","",""
"","image-keyboard-response","353","104902","0.0-353.0","39N5ACM9HF9WY298FW21X4RCDSD9PW","A1EFBEBVZP3D6G","3S1L4CQSFXRWQOWP2XFUSMS4AZDFAL","","661","img/land4.png","76","667","3","0","1","2","1,0.5,0.5,0.5,1,0.5,0.5,0.5,1","1,0.5,0.5,0.5,1,0.5,0.5,0.5,1","1","",""
"","html-keyboard-response","354","105206","0.0-354.0","39N5ACM9HF9WY298FW21X4RCDSD9PW","A1EFBEBVZP3D6G","3S1L4CQSFXRWQOWP2XFUSMS4AZDFAL","","null","<img src=""img/land4.png"" style=""width:200px;border:14px solid red;"">","null","","","","","","","","","",""
"","image-keyboard-response","355","105231","0.0-355.0","39N5ACM9HF9WY298FW21X4RCDSD9PW","A1EFBEBVZP3D6G","3S1L4CQSFXRWQOWP2XFUSMS4AZDFAL","","22","img/land4.png","76","24","3","0","1","2","1,0.5,0.5,0.5,1,0.5,0.5,0.5,1","1,0.5,0.5,0.5,1,0.5,0.5,0.5,1","1","",""
"","html-keyboard-response","356","105534","0.0-356.0","39N5ACM9HF9WY298FW21X4RCDSD9PW","A1EFBEBVZP3D6G","3S1L4CQSFXRWQOWP2XFUSMS4AZDFAL","","null","<img src=""img/land4.png"" style=""width:200px;border:14px solid red;"">","null","","","","","","","","","",""
"","image-keyboard-response","357","105649","0.0-357.0","39N5ACM9HF9WY298FW21X4RCDSD9PW","A1EFBEBVZP3D6G","3S1L4CQSFXRWQOWP2XFUSMS4AZDFAL","","112","img/land4.png","74","114","1","1","1","2","1,0.5,0.5,0.5,1,0.5,0.5,0.5,1","1,0.5,0.5,0.5,1,0.5,0.5,0.5,1","1","",""
"","html-keyboard-response","358","105952","0.0-358.0","39N5ACM9HF9WY298FW21X4RCDSD9PW","A1EFBEBVZP3D6G","3S1L4CQSFXRWQOWP2XFUSMS4AZDFAL","","null","<img src=""img/land4.png"" style=""width:200px; border:14px solid green;"">","null","","","","","","","","","",""
"","image-keyboard-response","359","107955","0.0-359.0","39N5ACM9HF9WY298FW21X4RCDSD9PW","A1EFBEBVZP3D6G","3S1L4CQSFXRWQOWP2XFUSMS4AZDFAL","","","img/land4.png","","2002","-1","0","1","2","1,0.5,0.5,0.5,1,0.5,0.5,0.5,1","1,0.5,0.5,0.5,1,0.5,0.5,0.5,1","1","",""
"","html-keyboard-response","360","108259","0.0-360.0","39N5ACM9HF9WY298FW21X4RCDSD9PW","A1EFBEBVZP3D6G","3S1L4CQSFXRWQOWP2XFUSMS4AZDFAL","","null","<img src=""img/land4.png"" style=""width:200px;border:14px solid red;"">","null","","","","","","","","","",""
"","image-keyboard-response","361","110261","0.0-361.0","39N5ACM9HF9WY298FW21X4RCDSD9PW","A1EFBEBVZP3D6G","3S1L4CQSFXRWQOWP2XFUSMS4AZDFAL","","","img/land4.png","","2001","-1","0","1","2","1,0.5,0.5,0.5,1,0.5,0.5,0.5,1","1,0.5,0.5,0.5,1,0.5,0.5,0.5,1","1","",""
"","html-keyboard-response","362","110563","0.0-362.0","39N5ACM9HF9WY298FW21X4RCDSD9PW","A1EFBEBVZP3D6G","3S1L4CQSFXRWQOWP2XFUSMS4AZDFAL","","null","<img src=""img/land4.png"" style=""width:200px;border:14px solid red;"">","null","","","","","","","","","",""
"","image-keyboard-response","363","110863","0.0-363.0","39N5ACM9HF9WY298FW21X4RCDSD9PW","A1EFBEBVZP3D6G","3S1L4CQSFXRWQOWP2XFUSMS4AZDFAL","","298","img/land4.png","75","300","2","0","1","2","1,0.5,0.5,0.5,1,0.5,0.5,0.5,1","1,0.5,0.5,0.5,1,0.5,0.5,0.5,1","1","",""
"","html-keyboard-response","364","111165","0.0-364.0","39N5ACM9HF9WY298FW21X4RCDSD9PW","A1EFBEBVZP3D6G","3S1L4CQSFXRWQOWP2XFUSMS4AZDFAL","","null","<img src=""img/land4.png"" style=""width:200px;border:14px solid red;"">","null","","","","","","","","","",""
"","image-keyboard-response","365","112042","0.0-365.0","39N5ACM9HF9WY298FW21X4RCDSD9PW","A1EFBEBVZP3D6G","3S1L4CQSFXRWQOWP2XFUSMS4AZDFAL","","874","img/land1.png","76","876","3","1","3","2","1,0.5,0.5,0.5,1,0.5,0.5,0.5,1","1,0.5,0.5,0.5,1,0.5,0.5,0.5,1","1","",""
"","html-keyboard-response","366","112347","0.0-366.0","39N5ACM9HF9WY298FW21X4RCDSD9PW","A1EFBEBVZP3D6G","3S1L4CQSFXRWQOWP2XFUSMS4AZDFAL","","null","<img src=""img/land1.png"" style=""width:200px; border:14px solid green;"">","null","","","","","","","","","",""
"","image-keyboard-response","367","112459","0.0-367.0","39N5ACM9HF9WY298FW21X4RCDSD9PW","A1EFBEBVZP3D6G","3S1L4CQSFXRWQOWP2XFUSMS4AZDFAL","","110","img/land3.png","76","111","3","1","2","2","1,0.5,0.5,0.5,1,0.5,0.5,0.5,1","1,0.5,0.5,0.5,1,0.5,0.5,0.5,1","1","",""
"","html-keyboard-response","368","112761","0.0-368.0","39N5ACM9HF9WY298FW21X4RCDSD9PW","A1EFBEBVZP3D6G","3S1L4CQSFXRWQOWP2XFUSMS4AZDFAL","","null","<img src=""img/land3.png"" style=""width:200px; border:14px solid green;"">","null","","","","","","","","","",""
"","image-keyboard-response","369","112861","0.0-369.0","39N5ACM9HF9WY298FW21X4RCDSD9PW","A1EFBEBVZP3D6G","3S1L4CQSFXRWQOWP2XFUSMS4AZDFAL","","98","img/land4.png","74","100","1","1","1","2","1,0.5,0.5,0.5,1,0.5,0.5,0.5,1","1,0.5,0.5,0.5,1,0.5,0.5,0.5,1","1","",""
"","html-keyboard-response","370","113164","0.0-370.0","39N5ACM9HF9WY298FW21X4RCDSD9PW","A1EFBEBVZP3D6G","3S1L4CQSFXRWQOWP2XFUSMS4AZDFAL","","null","<img src=""img/land4.png"" style=""width:200px; border:14px solid green;"">","null","","","","","","","","","",""
"","image-keyboard-response","371","113281","0.0-371.0","39N5ACM9HF9WY298FW21X4RCDSD9PW","A1EFBEBVZP3D6G","3S1L4CQSFXRWQOWP2XFUSMS4AZDFAL","","116","img/land4.png","75","116","2","0","1","2","1,0.5,0.5,0.5,1,0.5,0.5,0.5,1","1,0.5,0.5,0.5,1,0.5,0.5,0.5,1","1","",""
"","html-keyboard-response","372","113583","0.0-372.0","39N5ACM9HF9WY298FW21X4RCDSD9PW","A1EFBEBVZP3D6G","3S1L4CQSFXRWQOWP2XFUSMS4AZDFAL","","null","<img src=""img/land4.png"" style=""width:200px;border:14px solid red;"">","null","","","","","","","","","",""
"","image-keyboard-response","373","113903","0.0-373.0","39N5ACM9HF9WY298FW21X4RCDSD9PW","A1EFBEBVZP3D6G","3S1L4CQSFXRWQOWP2XFUSMS4AZDFAL","","318","img/land1.png","75","319","2","0","3","2","1,0.5,0.5,0.5,1,0.5,0.5,0.5,1","1,0.5,0.5,0.5,1,0.5,0.5,0.5,1","1","",""
"","html-keyboard-response","374","114204","0.0-374.0","39N5ACM9HF9WY298FW21X4RCDSD9PW","A1EFBEBVZP3D6G","3S1L4CQSFXRWQOWP2XFUSMS4AZDFAL","","null","<img src=""img/land1.png"" style=""width:200px;border:14px solid red;"">","null","","","","","","","","","",""
"","image-keyboard-response","375","114251","0.0-375.0","39N5ACM9HF9WY298FW21X4RCDSD9PW","A1EFBEBVZP3D6G","3S1L4CQSFXRWQOWP2XFUSMS4AZDFAL","","45","img/land3.png","74","46","1","0","2","2","1,0.5,0.5,0.5,1,0.5,0.5,0.5,1","1,0.5,0.5,0.5,1,0.5,0.5,0.5,1","1","",""
"","html-keyboard-response","376","114553","0.0-376.0","39N5ACM9HF9WY298FW21X4RCDSD9PW","A1EFBEBVZP3D6G","3S1L4CQSFXRWQOWP2XFUSMS4AZDFAL","","null","<img src=""img/land3.png"" style=""width:200px;border:14px solid red;"">","null","","","","","","","","","",""
"","image-keyboard-response","377","114623","0.0-377.0","39N5ACM9HF9WY298FW21X4RCDSD9PW","A1EFBEBVZP3D6G","3S1L4CQSFXRWQOWP2XFUSMS4AZDFAL","","68","img/land4.png","76","69","3","1","1","2","1,0.5,0.5,0.5,1,0.5,0.5,0.5,1","1,0.5,0.5,0.5,1,0.5,0.5,0.5,1","1","",""
"","html-keyboard-response","378","114925","0.0-378.0","39N5ACM9HF9WY298FW21X4RCDSD9PW","A1EFBEBVZP3D6G","3S1L4CQSFXRWQOWP2XFUSMS4AZDFAL","","null","<img src=""img/land4.png"" style=""width:200px; border:14px solid green;"">","null","","","","","","","","","",""
"","image-keyboard-response","379","114930","0.0-379.0","39N5ACM9HF9WY298FW21X4RCDSD9PW","A1EFBEBVZP3D6G","3S1L4CQSFXRWQOWP2XFUSMS4AZDFAL","","2","img/land4.png","75","4","2","1","1","2","1,0.5,0.5,0.5,1,0.5,0.5,0.5,1","1,0.5,0.5,0.5,1,0.5,0.5,0.5,1","1","",""
"","html-keyboard-response","380","115232","0.0-380.0","39N5ACM9HF9WY298FW21X4RCDSD9PW","A1EFBEBVZP3D6G","3S1L4CQSFXRWQOWP2XFUSMS4AZDFAL","","null","<img src=""img/land4.png"" style=""width:200px; border:14px solid green;"">","null","","","","","","","","","",""
