"success","trial_type","trial_index","time_elapsed","internal_node_id","assignmentID","mturkID","hitID","view_history","rt","stimulus","key_press","reactionTime","a","r","s","cond","reward_cond","reward_cond_actual","reward_matrix_idx","responses","question_order"
"true","fullscreen","0","5865","0.0-0.0","36W0OB37HX0JRCTX0HOV1JRE7JSHZA","A1EIKIHK12UDP0","3RBI0I35XEP26UEZY8S8UZLEA1IY3E","","","","","","","","","","","","","",""
"","instructions","1","138285","0.0-1.0","36W0OB37HX0JRCTX0HOV1JRE7JSHZA","A1EIKIHK12UDP0","3RBI0I35XEP26UEZY8S8UZLEA1IY3E","[{""page_index"":0,""viewing_time"":10836.60000000149},{""page_index"":1,""viewing_time"":9374.39999999851},{""page_index"":2,""viewing_time"":23450.39999999851},{""page_index"":3,""viewing_time"":11616.90000000596},{""page_index"":2,""viewing_time"":3627.5},{""page_index"":1,""viewing_time"":2231.5},{""page_index"":2,""viewing_time"":4009.5999999940395},{""page_index"":3,""viewing_time"":10123.5},{""page_index"":4,""viewing_time"":23884.60000000149},{""page_index"":5,""viewing_time"":19447.70000000298},{""page_index"":6,""viewing_time"":13808.69999999553}]","132414.3999999985","","","","","","","","","","","",""
"","image-keyboard-response","2","139406","0.0-2.0","36W0OB37HX0JRCTX0HOV1JRE7JSHZA","A1EIKIHK12UDP0","3RBI0I35XEP26UEZY8S8UZLEA1IY3E","","1114.5999999940395","img/land1.png","74","1118.5999999940395","1","0","3","2","0.8,0.2,0.2,0.2,0.8,0.2,0.2,0.2,0.8","0.8,0.2,0.2,0.2,0.8,0.2,0.2,0.2,0.8","1","",""
"","html-keyboard-response","3","139711","0.0-3.0","36W0OB37HX0JRCTX0HOV1JRE7JSHZA","A1EIKIHK12UDP0","3RBI0I35XEP26UEZY8S8UZLEA1IY3E","","null","<img src=""img/land1.png"" style=""width:200px;border:14px solid red;"">","null","","","","","","","","","",""
"","image-keyboard-response","4","140851","0.0-4.0","36W0OB37HX0JRCTX0HOV1JRE7JSHZA","A1EIKIHK12UDP0","3RBI0I35XEP26UEZY8S8UZLEA1IY3E","","1137.1000000014901","img/land4.png","74","1139.6999999955297","1","1","1","2","0.8,0.2,0.2,0.2,0.8,0.2,0.2,0.2,0.8","0.8,0.2,0.2,0.2,0.8,0.2,0.2,0.2,0.8","1","",""
"","html-keyboard-response","5","141154","0.0-5.0","36W0OB37HX0JRCTX0HOV1JRE7JSHZA","A1EIKIHK12UDP0","3RBI0I35XEP26UEZY8S8UZLEA1IY3E","","null","<img src=""img/land4.png"" style=""width:200px; border:14px solid green;"">","null","","","","","","","","","",""
"","image-keyboard-response","6","142201","0.0-6.0","36W0OB37HX0JRCTX0HOV1JRE7JSHZA","A1EIKIHK12UDP0","3RBI0I35XEP26UEZY8S8UZLEA1IY3E","","1043.7999999970198","img/land1.png","75","1046.4000000059605","2","0","3","2","0.8,0.2,0.2,0.2,0.8,0.2,0.2,0.2,0.8","0.8,0.2,0.2,0.2,0.8,0.2,0.2,0.2,0.8","1","",""
"","html-keyboard-response","7","142504","0.0-7.0","36W0OB37HX0JRCTX0HOV1JRE7JSHZA","A1EIKIHK12UDP0","3RBI0I35XEP26UEZY8S8UZLEA1IY3E","","null","<img src=""img/land1.png"" style=""width:200px;border:14px solid red;"">","null","","","","","","","","","",""
"","image-keyboard-response","8","143363","0.0-8.0","36W0OB37HX0JRCTX0HOV1JRE7JSHZA","A1EIKIHK12UDP0","3RBI0I35XEP26UEZY8S8UZLEA1IY3E","","856.3000000044703","img/land4.png","74","858.8000000044703","1","1","1","2","0.8,0.2,0.2,0.2,0.8,0.2,0.2,0.2,0.8","0.8,0.2,0.2,0.2,0.8,0.2,0.2,0.2,0.8","1","",""
"","html-keyboard-response","9","143669","0.0-9.0","36W0OB37HX0JRCTX0HOV1JRE7JSHZA","A1EIKIHK12UDP0","3RBI0I35XEP26UEZY8S8UZLEA1IY3E","","null","<img src=""img/land4.png"" style=""width:200px; border:14px solid green;"">","null","","","","","","","","","",""
"","image-keyboard-response","10","145098","0.0-10.0","36W0OB37HX0JRCTX0HOV1JRE7JSHZA","A1EIKIHK12UDP0","3RBI0I35XEP26UEZY8S8UZLEA1IY3E","","1426.1000000014901","img/land4.png","74","1429.1000000014901","1","1","1","2","0.8,0.2,0.2,0.2,0.8,0.2,0.2,0.2,0.8","0.8,0.2,0.2,0.2,0.8,0.2,0.2,0.2,0.8","1","",""
"","html-keyboard-response","11","145401","0.0-11.0","36W0OB37HX0JRCTX0HOV1JRE7JSHZA","A1EIKIHK12UDP0","3RBI0I35XEP26UEZY8S8UZLEA1IY3E","","null","<img src=""img/land4.png"" style=""width:200px; border:14px solid green;"">","null","","","","","","","","","",""
"","image-keyboard-response","12","146456","0.0-12.0","36W0OB37HX0JRCTX0HOV1JRE7JSHZA","A1EIKIHK12UDP0","3RBI0I35XEP26UEZY8S8UZLEA1IY3E","","1051.7000000029802","img/land6.png","76","1054.1000000014901","3","0","2","2","0.8,0.2,0.2,0.2,0.8,0.2,0.2,0.2,0.8","0.8,0.2,0.2,0.2,0.8,0.2,0.2,0.2,0.8","1","",""
"","html-keyboard-response","13","146759","0.0-13.0","36W0OB37HX0JRCTX0HOV1JRE7JSHZA","A1EIKIHK12UDP0","3RBI0I35XEP26UEZY8S8UZLEA1IY3E","","null","<img src=""img/land6.png"" style=""width:200px;border:14px solid red;"">","null","","","","","","","","","",""
"","image-keyboard-response","14","147648","0.0-14.0","36W0OB37HX0JRCTX0HOV1JRE7JSHZA","A1EIKIHK12UDP0","3RBI0I35XEP26UEZY8S8UZLEA1IY3E","","886.1000000014901","img/land4.png","74","888.2000000029802","1","1","1","2","0.8,0.2,0.2,0.2,0.8,0.2,0.2,0.2,0.8","0.8,0.2,0.2,0.2,0.8,0.2,0.2,0.2,0.8","1","",""
"","html-keyboard-response","15","147951","0.0-15.0","36W0OB37HX0JRCTX0HOV1JRE7JSHZA","A1EIKIHK12UDP0","3RBI0I35XEP26UEZY8S8UZLEA1IY3E","","null","<img src=""img/land4.png"" style=""width:200px; border:14px solid green;"">","null","","","","","","","","","",""
"","image-keyboard-response","16","148920","0.0-16.0","36W0OB37HX0JRCTX0HOV1JRE7JSHZA","A1EIKIHK12UDP0","3RBI0I35XEP26UEZY8S8UZLEA1IY3E","","966.8999999985099","img/land6.png","75","968.7999999970198","2","1","2","2","0.8,0.2,0.2,0.2,0.8,0.2,0.2,0.2,0.8","0.8,0.2,0.2,0.2,0.8,0.2,0.2,0.2,0.8","1","",""
"","html-keyboard-response","17","149223","0.0-17.0","36W0OB37HX0JRCTX0HOV1JRE7JSHZA","A1EIKIHK12UDP0","3RBI0I35XEP26UEZY8S8UZLEA1IY3E","","null","<img src=""img/land6.png"" style=""width:200px; border:14px solid green;"">","null","","","","","","","","","",""
"","image-keyboard-response","18","150150","0.0-18.0","36W0OB37HX0JRCTX0HOV1JRE7JSHZA","A1EIKIHK12UDP0","3RBI0I35XEP26UEZY8S8UZLEA1IY3E","","924.5999999940395","img/land4.png","74","927.1000000014901","1","0","1","2","0.8,0.2,0.2,0.2,0.8,0.2,0.2,0.2,0.8","0.8,0.2,0.2,0.2,0.8,0.2,0.2,0.2,0.8","1","",""
"","html-keyboard-response","19","150453","0.0-19.0","36W0OB37HX0JRCTX0HOV1JRE7JSHZA","A1EIKIHK12UDP0","3RBI0I35XEP26UEZY8S8UZLEA1IY3E","","null","<img src=""img/land4.png"" style=""width:200px;border:14px solid red;"">","null","","","","","","","","","",""
"","image-keyboard-response","20","151609","0.0-20.0","36W0OB37HX0JRCTX0HOV1JRE7JSHZA","A1EIKIHK12UDP0","3RBI0I35XEP26UEZY8S8UZLEA1IY3E","","1152.8999999985099","img/land4.png","74","1155.2000000029802","1","1","1","2","0.8,0.2,0.2,0.2,0.8,0.2,0.2,0.2,0.8","0.8,0.2,0.2,0.2,0.8,0.2,0.2,0.2,0.8","1","",""
"","html-keyboard-response","21","151911","0.0-21.0","36W0OB37HX0JRCTX0HOV1JRE7JSHZA","A1EIKIHK12UDP0","3RBI0I35XEP26UEZY8S8UZLEA1IY3E","","null","<img src=""img/land4.png"" style=""width:200px; border:14px solid green;"">","null","","","","","","","","","",""
"","image-keyboard-response","22","152773","0.0-22.0","36W0OB37HX0JRCTX0HOV1JRE7JSHZA","A1EIKIHK12UDP0","3RBI0I35XEP26UEZY8S8UZLEA1IY3E","","859.2000000029802","img/land4.png","74","861.6999999955297","1","1","1","2","0.8,0.2,0.2,0.2,0.8,0.2,0.2,0.2,0.8","0.8,0.2,0.2,0.2,0.8,0.2,0.2,0.2,0.8","1","",""
"","html-keyboard-response","23","153076","0.0-23.0","36W0OB37HX0JRCTX0HOV1JRE7JSHZA","A1EIKIHK12UDP0","3RBI0I35XEP26UEZY8S8UZLEA1IY3E","","null","<img src=""img/land4.png"" style=""width:200px; border:14px solid green;"">","null","","","","","","","","","",""
"","image-keyboard-response","24","154023","0.0-24.0","36W0OB37HX0JRCTX0HOV1JRE7JSHZA","A1EIKIHK12UDP0","3RBI0I35XEP26UEZY8S8UZLEA1IY3E","","943.1000000014901","img/land6.png","75","947.1000000014901","2","1","2","2","0.8,0.2,0.2,0.2,0.8,0.2,0.2,0.2,0.8","0.8,0.2,0.2,0.2,0.8,0.2,0.2,0.2,0.8","1","",""
"","html-keyboard-response","25","154326","0.0-25.0","36W0OB37HX0JRCTX0HOV1JRE7JSHZA","A1EIKIHK12UDP0","3RBI0I35XEP26UEZY8S8UZLEA1IY3E","","null","<img src=""img/land6.png"" style=""width:200px; border:14px solid green;"">","null","","","","","","","","","",""
"","image-keyboard-response","26","155137","0.0-26.0","36W0OB37HX0JRCTX0HOV1JRE7JSHZA","A1EIKIHK12UDP0","3RBI0I35XEP26UEZY8S8UZLEA1IY3E","","809","img/land4.png","74","811.6000000014901","1","1","1","2","0.8,0.2,0.2,0.2,0.8,0.2,0.2,0.2,0.8","0.8,0.2,0.2,0.2,0.8,0.2,0.2,0.2,0.8","1","",""
"","html-keyboard-response","27","155442","0.0-27.0","36W0OB37HX0JRCTX0HOV1JRE7JSHZA","A1EIKIHK12UDP0","3RBI0I35XEP26UEZY8S8UZLEA1IY3E","","null","<img src=""img/land4.png"" style=""width:200px; border:14px solid green;"">","null","","","","","","","","","",""
"","image-keyboard-response","28","156149","0.0-28.0","36W0OB37HX0JRCTX0HOV1JRE7JSHZA","A1EIKIHK12UDP0","3RBI0I35XEP26UEZY8S8UZLEA1IY3E","","704.1000000014901","img/land4.png","74","707.3000000044703","1","1","1","2","0.8,0.2,0.2,0.2,0.8,0.2,0.2,0.2,0.8","0.8,0.2,0.2,0.2,0.8,0.2,0.2,0.2,0.8","1","",""
"","html-keyboard-response","29","156453","0.0-29.0","36W0OB37HX0JRCTX0HOV1JRE7JSHZA","A1EIKIHK12UDP0","3RBI0I35XEP26UEZY8S8UZLEA1IY3E","","null","<img src=""img/land4.png"" style=""width:200px; border:14px solid green;"">","null","","","","","","","","","",""
"","image-keyboard-response","30","157196","0.0-30.0","36W0OB37HX0JRCTX0HOV1JRE7JSHZA","A1EIKIHK12UDP0","3RBI0I35XEP26UEZY8S8UZLEA1IY3E","","740.1000000014901","img/land4.png","74","742.1999999955297","1","0","1","2","0.8,0.2,0.2,0.2,0.8,0.2,0.2,0.2,0.8","0.8,0.2,0.2,0.2,0.8,0.2,0.2,0.2,0.8","1","",""
"","html-keyboard-response","31","157498","0.0-31.0","36W0OB37HX0JRCTX0HOV1JRE7JSHZA","A1EIKIHK12UDP0","3RBI0I35XEP26UEZY8S8UZLEA1IY3E","","null","<img src=""img/land4.png"" style=""width:200px;border:14px solid red;"">","null","","","","","","","","","",""
"","image-keyboard-response","32","158389","0.0-32.0","36W0OB37HX0JRCTX0HOV1JRE7JSHZA","A1EIKIHK12UDP0","3RBI0I35XEP26UEZY8S8UZLEA1IY3E","","887.9000000059605","img/land4.png","74","890.1000000014901","1","1","1","2","0.8,0.2,0.2,0.2,0.8,0.2,0.2,0.2,0.8","0.8,0.2,0.2,0.2,0.8,0.2,0.2,0.2,0.8","1","",""
"","html-keyboard-response","33","158692","0.0-33.0","36W0OB37HX0JRCTX0HOV1JRE7JSHZA","A1EIKIHK12UDP0","3RBI0I35XEP26UEZY8S8UZLEA1IY3E","","null","<img src=""img/land4.png"" style=""width:200px; border:14px solid green;"">","null","","","","","","","","","",""
"","image-keyboard-response","34","159557","0.0-34.0","36W0OB37HX0JRCTX0HOV1JRE7JSHZA","A1EIKIHK12UDP0","3RBI0I35XEP26UEZY8S8UZLEA1IY3E","","862.8999999985099","img/land4.png","74","864.5","1","0","1","2","0.8,0.2,0.2,0.2,0.8,0.2,0.2,0.2,0.8","0.8,0.2,0.2,0.2,0.8,0.2,0.2,0.2,0.8","1","",""
"","html-keyboard-response","35","159859","0.0-35.0","36W0OB37HX0JRCTX0HOV1JRE7JSHZA","A1EIKIHK12UDP0","3RBI0I35XEP26UEZY8S8UZLEA1IY3E","","null","<img src=""img/land4.png"" style=""width:200px;border:14px solid red;"">","null","","","","","","","","","",""
"","image-keyboard-response","36","160624","0.0-36.0","36W0OB37HX0JRCTX0HOV1JRE7JSHZA","A1EIKIHK12UDP0","3RBI0I35XEP26UEZY8S8UZLEA1IY3E","","762","img/land4.png","74","764.4000000059605","1","1","1","2","0.8,0.2,0.2,0.2,0.8,0.2,0.2,0.2,0.8","0.8,0.2,0.2,0.2,0.8,0.2,0.2,0.2,0.8","1","",""
"","html-keyboard-response","37","160926","0.0-37.0","36W0OB37HX0JRCTX0HOV1JRE7JSHZA","A1EIKIHK12UDP0","3RBI0I35XEP26UEZY8S8UZLEA1IY3E","","null","<img src=""img/land4.png"" style=""width:200px; border:14px solid green;"">","null","","","","","","","","","",""
"","image-keyboard-response","38","161653","0.0-38.0","36W0OB37HX0JRCTX0HOV1JRE7JSHZA","A1EIKIHK12UDP0","3RBI0I35XEP26UEZY8S8UZLEA1IY3E","","724.3999999985099","img/land6.png","75","726.5","2","1","2","2","0.8,0.2,0.2,0.2,0.8,0.2,0.2,0.2,0.8","0.8,0.2,0.2,0.2,0.8,0.2,0.2,0.2,0.8","1","",""
"","html-keyboard-response","39","161957","0.0-39.0","36W0OB37HX0JRCTX0HOV1JRE7JSHZA","A1EIKIHK12UDP0","3RBI0I35XEP26UEZY8S8UZLEA1IY3E","","null","<img src=""img/land6.png"" style=""width:200px; border:14px solid green;"">","null","","","","","","","","","",""
"","image-keyboard-response","40","162716","0.0-40.0","36W0OB37HX0JRCTX0HOV1JRE7JSHZA","A1EIKIHK12UDP0","3RBI0I35XEP26UEZY8S8UZLEA1IY3E","","757.5","img/land6.png","75","759.3999999985099","2","1","2","2","0.8,0.2,0.2,0.2,0.8,0.2,0.2,0.2,0.8","0.8,0.2,0.2,0.2,0.8,0.2,0.2,0.2,0.8","1","",""
"","html-keyboard-response","41","163019","0.0-41.0","36W0OB37HX0JRCTX0HOV1JRE7JSHZA","A1EIKIHK12UDP0","3RBI0I35XEP26UEZY8S8UZLEA1IY3E","","null","<img src=""img/land6.png"" style=""width:200px; border:14px solid green;"">","null","","","","","","","","","",""
"","image-keyboard-response","42","164076","0.0-42.0","36W0OB37HX0JRCTX0HOV1JRE7JSHZA","A1EIKIHK12UDP0","3RBI0I35XEP26UEZY8S8UZLEA1IY3E","","1054.2000000029802","img/land1.png","75","1056.6000000014901","2","0","3","2","0.8,0.2,0.2,0.2,0.8,0.2,0.2,0.2,0.8","0.8,0.2,0.2,0.2,0.8,0.2,0.2,0.2,0.8","1","",""
"","html-keyboard-response","43","164379","0.0-43.0","36W0OB37HX0JRCTX0HOV1JRE7JSHZA","A1EIKIHK12UDP0","3RBI0I35XEP26UEZY8S8UZLEA1IY3E","","null","<img src=""img/land1.png"" style=""width:200px;border:14px solid red;"">","null","","","","","","","","","",""
"","image-keyboard-response","44","165236","0.0-44.0","36W0OB37HX0JRCTX0HOV1JRE7JSHZA","A1EIKIHK12UDP0","3RBI0I35XEP26UEZY8S8UZLEA1IY3E","","854.6000000014901","img/land4.png","74","856.6000000014901","1","1","1","2","0.8,0.2,0.2,0.2,0.8,0.2,0.2,0.2,0.8","0.8,0.2,0.2,0.2,0.8,0.2,0.2,0.2,0.8","1","",""
"","html-keyboard-response","45","165539","0.0-45.0","36W0OB37HX0JRCTX0HOV1JRE7JSHZA","A1EIKIHK12UDP0","3RBI0I35XEP26UEZY8S8UZLEA1IY3E","","null","<img src=""img/land4.png"" style=""width:200px; border:14px solid green;"">","null","","","","","","","","","",""
"","image-keyboard-response","46","166299","0.0-46.0","36W0OB37HX0JRCTX0HOV1JRE7JSHZA","A1EIKIHK12UDP0","3RBI0I35XEP26UEZY8S8UZLEA1IY3E","","757.7000000029802","img/land1.png","76","760","3","1","3","2","0.8,0.2,0.2,0.2,0.8,0.2,0.2,0.2,0.8","0.8,0.2,0.2,0.2,0.8,0.2,0.2,0.2,0.8","1","",""
"","html-keyboard-response","47","166602","0.0-47.0","36W0OB37HX0JRCTX0HOV1JRE7JSHZA","A1EIKIHK12UDP0","3RBI0I35XEP26UEZY8S8UZLEA1IY3E","","null","<img src=""img/land1.png"" style=""width:200px; border:14px solid green;"">","null","","","","","","","","","",""
"","image-keyboard-response","48","167357","0.0-48.0","36W0OB37HX0JRCTX0HOV1JRE7JSHZA","A1EIKIHK12UDP0","3RBI0I35XEP26UEZY8S8UZLEA1IY3E","","752","img/land4.png","74","755","1","1","1","2","0.8,0.2,0.2,0.2,0.8,0.2,0.2,0.2,0.8","0.8,0.2,0.2,0.2,0.8,0.2,0.2,0.2,0.8","1","",""
"","html-keyboard-response","49","167660","0.0-49.0","36W0OB37HX0JRCTX0HOV1JRE7JSHZA","A1EIKIHK12UDP0","3RBI0I35XEP26UEZY8S8UZLEA1IY3E","","null","<img src=""img/land4.png"" style=""width:200px; border:14px solid green;"">","null","","","","","","","","","",""
"","image-keyboard-response","50","168289","0.0-50.0","36W0OB37HX0JRCTX0HOV1JRE7JSHZA","A1EIKIHK12UDP0","3RBI0I35XEP26UEZY8S8UZLEA1IY3E","","627","img/land6.png","75","629.1000000014901","2","1","2","2","0.8,0.2,0.2,0.2,0.8,0.2,0.2,0.2,0.8","0.8,0.2,0.2,0.2,0.8,0.2,0.2,0.2,0.8","1","",""
"","html-keyboard-response","51","168592","0.0-51.0","36W0OB37HX0JRCTX0HOV1JRE7JSHZA","A1EIKIHK12UDP0","3RBI0I35XEP26UEZY8S8UZLEA1IY3E","","null","<img src=""img/land6.png"" style=""width:200px; border:14px solid green;"">","null","","","","","","","","","",""
"","image-keyboard-response","52","169376","0.0-52.0","36W0OB37HX0JRCTX0HOV1JRE7JSHZA","A1EIKIHK12UDP0","3RBI0I35XEP26UEZY8S8UZLEA1IY3E","","781.5999999940395","img/land1.png","76","783.7999999970198","3","1","3","2","0.8,0.2,0.2,0.2,0.8,0.2,0.2,0.2,0.8","0.8,0.2,0.2,0.2,0.8,0.2,0.2,0.2,0.8","1","",""
"","html-keyboard-response","53","169682","0.0-53.0","36W0OB37HX0JRCTX0HOV1JRE7JSHZA","A1EIKIHK12UDP0","3RBI0I35XEP26UEZY8S8UZLEA1IY3E","","null","<img src=""img/land1.png"" style=""width:200px; border:14px solid green;"">","null","","","","","","","","","",""
"","image-keyboard-response","54","170351","0.0-54.0","36W0OB37HX0JRCTX0HOV1JRE7JSHZA","A1EIKIHK12UDP0","3RBI0I35XEP26UEZY8S8UZLEA1IY3E","","667.1000000014901","img/land1.png","76","668.8999999985099","3","1","3","2","0.8,0.2,0.2,0.2,0.8,0.2,0.2,0.2,0.8","0.8,0.2,0.2,0.2,0.8,0.2,0.2,0.2,0.8","1","",""
"","html-keyboard-response","55","170654","0.0-55.0","36W0OB37HX0JRCTX0HOV1JRE7JSHZA","A1EIKIHK12UDP0","3RBI0I35XEP26UEZY8S8UZLEA1IY3E","","null","<img src=""img/land1.png"" style=""width:200px; border:14px solid green;"">","null","","","","","","","","","",""
"","image-keyboard-response","56","171531","0.0-56.0","36W0OB37HX0JRCTX0HOV1JRE7JSHZA","A1EIKIHK12UDP0","3RBI0I35XEP26UEZY8S8UZLEA1IY3E","","874.3999999985099","img/land4.png","74","876.2999999970198","1","1","1","2","0.8,0.2,0.2,0.2,0.8,0.2,0.2,0.2,0.8","0.8,0.2,0.2,0.2,0.8,0.2,0.2,0.2,0.8","1","",""
"","html-keyboard-response","57","171834","0.0-57.0","36W0OB37HX0JRCTX0HOV1JRE7JSHZA","A1EIKIHK12UDP0","3RBI0I35XEP26UEZY8S8UZLEA1IY3E","","null","<img src=""img/land4.png"" style=""width:200px; border:14px solid green;"">","null","","","","","","","","","",""
"","image-keyboard-response","58","172428","0.0-58.0","36W0OB37HX0JRCTX0HOV1JRE7JSHZA","A1EIKIHK12UDP0","3RBI0I35XEP26UEZY8S8UZLEA1IY3E","","591.7000000029802","img/land4.png","74","593.5999999940395","1","0","1","2","0.8,0.2,0.2,0.2,0.8,0.2,0.2,0.2,0.8","0.8,0.2,0.2,0.2,0.8,0.2,0.2,0.2,0.8","1","",""
"","html-keyboard-response","59","172731","0.0-59.0","36W0OB37HX0JRCTX0HOV1JRE7JSHZA","A1EIKIHK12UDP0","3RBI0I35XEP26UEZY8S8UZLEA1IY3E","","null","<img src=""img/land4.png"" style=""width:200px;border:14px solid red;"">","null","","","","","","","","","",""
"","image-keyboard-response","60","173356","0.0-60.0","36W0OB37HX0JRCTX0HOV1JRE7JSHZA","A1EIKIHK12UDP0","3RBI0I35XEP26UEZY8S8UZLEA1IY3E","","623.3000000044703","img/land4.png","74","625","1","1","1","2","0.8,0.2,0.2,0.2,0.8,0.2,0.2,0.2,0.8","0.8,0.2,0.2,0.2,0.8,0.2,0.2,0.2,0.8","1","",""
"","html-keyboard-response","61","173659","0.0-61.0","36W0OB37HX0JRCTX0HOV1JRE7JSHZA","A1EIKIHK12UDP0","3RBI0I35XEP26UEZY8S8UZLEA1IY3E","","null","<img src=""img/land4.png"" style=""width:200px; border:14px solid green;"">","null","","","","","","","","","",""
"","image-keyboard-response","62","174245","0.0-62.0","36W0OB37HX0JRCTX0HOV1JRE7JSHZA","A1EIKIHK12UDP0","3RBI0I35XEP26UEZY8S8UZLEA1IY3E","","582.6000000014901","img/land4.png","74","584.6999999955297","1","1","1","2","0.8,0.2,0.2,0.2,0.8,0.2,0.2,0.2,0.8","0.8,0.2,0.2,0.2,0.8,0.2,0.2,0.2,0.8","1","",""
"","html-keyboard-response","63","174547","0.0-63.0","36W0OB37HX0JRCTX0HOV1JRE7JSHZA","A1EIKIHK12UDP0","3RBI0I35XEP26UEZY8S8UZLEA1IY3E","","null","<img src=""img/land4.png"" style=""width:200px; border:14px solid green;"">","null","","","","","","","","","",""
"","image-keyboard-response","64","175078","0.0-64.0","36W0OB37HX0JRCTX0HOV1JRE7JSHZA","A1EIKIHK12UDP0","3RBI0I35XEP26UEZY8S8UZLEA1IY3E","","528.3999999985099","img/land4.png","74","530.7999999970198","1","1","1","2","0.8,0.2,0.2,0.2,0.8,0.2,0.2,0.2,0.8","0.8,0.2,0.2,0.2,0.8,0.2,0.2,0.2,0.8","1","",""
"","html-keyboard-response","65","175381","0.0-65.0","36W0OB37HX0JRCTX0HOV1JRE7JSHZA","A1EIKIHK12UDP0","3RBI0I35XEP26UEZY8S8UZLEA1IY3E","","null","<img src=""img/land4.png"" style=""width:200px; border:14px solid green;"">","null","","","","","","","","","",""
"","image-keyboard-response","66","175924","0.0-66.0","36W0OB37HX0JRCTX0HOV1JRE7JSHZA","A1EIKIHK12UDP0","3RBI0I35XEP26UEZY8S8UZLEA1IY3E","","539.8000000044703","img/land4.png","74","541.6999999955297","1","1","1","2","0.8,0.2,0.2,0.2,0.8,0.2,0.2,0.2,0.8","0.8,0.2,0.2,0.2,0.8,0.2,0.2,0.2,0.8","1","",""
"","html-keyboard-response","67","176226","0.0-67.0","36W0OB37HX0JRCTX0HOV1JRE7JSHZA","A1EIKIHK12UDP0","3RBI0I35XEP26UEZY8S8UZLEA1IY3E","","null","<img src=""img/land4.png"" style=""width:200px; border:14px solid green;"">","null","","","","","","","","","",""
"","image-keyboard-response","68","176855","0.0-68.0","36W0OB37HX0JRCTX0HOV1JRE7JSHZA","A1EIKIHK12UDP0","3RBI0I35XEP26UEZY8S8UZLEA1IY3E","","627","img/land6.png","75","628.7000000029802","2","1","2","2","0.8,0.2,0.2,0.2,0.8,0.2,0.2,0.2,0.8","0.8,0.2,0.2,0.2,0.8,0.2,0.2,0.2,0.8","1","",""
"","html-keyboard-response","69","177158","0.0-69.0","36W0OB37HX0JRCTX0HOV1JRE7JSHZA","A1EIKIHK12UDP0","3RBI0I35XEP26UEZY8S8UZLEA1IY3E","","null","<img src=""img/land6.png"" style=""width:200px; border:14px solid green;"">","null","","","","","","","","","",""
"","image-keyboard-response","70","177745","0.0-70.0","36W0OB37HX0JRCTX0HOV1JRE7JSHZA","A1EIKIHK12UDP0","3RBI0I35XEP26UEZY8S8UZLEA1IY3E","","584.8999999985099","img/land6.png","75","586.6999999955297","2","1","2","2","0.8,0.2,0.2,0.2,0.8,0.2,0.2,0.2,0.8","0.8,0.2,0.2,0.2,0.8,0.2,0.2,0.2,0.8","1","",""
"","html-keyboard-response","71","178046","0.0-71.0","36W0OB37HX0JRCTX0HOV1JRE7JSHZA","A1EIKIHK12UDP0","3RBI0I35XEP26UEZY8S8UZLEA1IY3E","","null","<img src=""img/land6.png"" style=""width:200px; border:14px solid green;"">","null","","","","","","","","","",""
"","image-keyboard-response","72","178776","0.0-72.0","36W0OB37HX0JRCTX0HOV1JRE7JSHZA","A1EIKIHK12UDP0","3RBI0I35XEP26UEZY8S8UZLEA1IY3E","","728.1000000014901","img/land4.png","74","729.5","1","1","1","2","0.8,0.2,0.2,0.2,0.8,0.2,0.2,0.2,0.8","0.8,0.2,0.2,0.2,0.8,0.2,0.2,0.2,0.8","1","",""
"","html-keyboard-response","73","179078","0.0-73.0","36W0OB37HX0JRCTX0HOV1JRE7JSHZA","A1EIKIHK12UDP0","3RBI0I35XEP26UEZY8S8UZLEA1IY3E","","null","<img src=""img/land4.png"" style=""width:200px; border:14px solid green;"">","null","","","","","","","","","",""
"","image-keyboard-response","74","179824","0.0-74.0","36W0OB37HX0JRCTX0HOV1JRE7JSHZA","A1EIKIHK12UDP0","3RBI0I35XEP26UEZY8S8UZLEA1IY3E","","743.1000000014901","img/land4.png","74","745","1","1","1","2","0.8,0.2,0.2,0.2,0.8,0.2,0.2,0.2,0.8","0.8,0.2,0.2,0.2,0.8,0.2,0.2,0.2,0.8","1","",""
"","html-keyboard-response","75","180127","0.0-75.0","36W0OB37HX0JRCTX0HOV1JRE7JSHZA","A1EIKIHK12UDP0","3RBI0I35XEP26UEZY8S8UZLEA1IY3E","","null","<img src=""img/land4.png"" style=""width:200px; border:14px solid green;"">","null","","","","","","","","","",""
"","image-keyboard-response","76","180768","0.0-76.0","36W0OB37HX0JRCTX0HOV1JRE7JSHZA","A1EIKIHK12UDP0","3RBI0I35XEP26UEZY8S8UZLEA1IY3E","","638.2999999970198","img/land4.png","74","640.8000000044703","1","1","1","2","0.8,0.2,0.2,0.2,0.8,0.2,0.2,0.2,0.8","0.8,0.2,0.2,0.2,0.8,0.2,0.2,0.2,0.8","1","",""
"","html-keyboard-response","77","181071","0.0-77.0","36W0OB37HX0JRCTX0HOV1JRE7JSHZA","A1EIKIHK12UDP0","3RBI0I35XEP26UEZY8S8UZLEA1IY3E","","null","<img src=""img/land4.png"" style=""width:200px; border:14px solid green;"">","null","","","","","","","","","",""
"","image-keyboard-response","78","181802","0.0-78.0","36W0OB37HX0JRCTX0HOV1JRE7JSHZA","A1EIKIHK12UDP0","3RBI0I35XEP26UEZY8S8UZLEA1IY3E","","728.2999999970198","img/land1.png","76","730.3000000044703","3","1","3","2","0.8,0.2,0.2,0.2,0.8,0.2,0.2,0.2,0.8","0.8,0.2,0.2,0.2,0.8,0.2,0.2,0.2,0.8","1","",""
"","html-keyboard-response","79","182105","0.0-79.0","36W0OB37HX0JRCTX0HOV1JRE7JSHZA","A1EIKIHK12UDP0","3RBI0I35XEP26UEZY8S8UZLEA1IY3E","","null","<img src=""img/land1.png"" style=""width:200px; border:14px solid green;"">","null","","","","","","","","","",""
"","image-keyboard-response","80","182763","0.0-80.0","36W0OB37HX0JRCTX0HOV1JRE7JSHZA","A1EIKIHK12UDP0","3RBI0I35XEP26UEZY8S8UZLEA1IY3E","","655.2999999970198","img/land4.png","74","657.3999999985099","1","1","1","2","0.8,0.2,0.2,0.2,0.8,0.2,0.2,0.2,0.8","0.8,0.2,0.2,0.2,0.8,0.2,0.2,0.2,0.8","1","",""
"","html-keyboard-response","81","183066","0.0-81.0","36W0OB37HX0JRCTX0HOV1JRE7JSHZA","A1EIKIHK12UDP0","3RBI0I35XEP26UEZY8S8UZLEA1IY3E","","null","<img src=""img/land4.png"" style=""width:200px; border:14px solid green;"">","null","","","","","","","","","",""
"","image-keyboard-response","82","183687","0.0-82.0","36W0OB37HX0JRCTX0HOV1JRE7JSHZA","A1EIKIHK12UDP0","3RBI0I35XEP26UEZY8S8UZLEA1IY3E","","617.3999999985099","img/land4.png","74","619.7999999970198","1","0","1","2","0.8,0.2,0.2,0.2,0.8,0.2,0.2,0.2,0.8","0.8,0.2,0.2,0.2,0.8,0.2,0.2,0.2,0.8","1","",""
"","html-keyboard-response","83","183990","0.0-83.0","36W0OB37HX0JRCTX0HOV1JRE7JSHZA","A1EIKIHK12UDP0","3RBI0I35XEP26UEZY8S8UZLEA1IY3E","","null","<img src=""img/land4.png"" style=""width:200px;border:14px solid red;"">","null","","","","","","","","","",""
"","image-keyboard-response","84","184524","0.0-84.0","36W0OB37HX0JRCTX0HOV1JRE7JSHZA","A1EIKIHK12UDP0","3RBI0I35XEP26UEZY8S8UZLEA1IY3E","","532.7000000029802","img/land4.png","74","534.3999999985099","1","1","1","2","0.8,0.2,0.2,0.2,0.8,0.2,0.2,0.2,0.8","0.8,0.2,0.2,0.2,0.8,0.2,0.2,0.2,0.8","1","",""
"","html-keyboard-response","85","184827","0.0-85.0","36W0OB37HX0JRCTX0HOV1JRE7JSHZA","A1EIKIHK12UDP0","3RBI0I35XEP26UEZY8S8UZLEA1IY3E","","null","<img src=""img/land4.png"" style=""width:200px; border:14px solid green;"">","null","","","","","","","","","",""
"","image-keyboard-response","86","185436","0.0-86.0","36W0OB37HX0JRCTX0HOV1JRE7JSHZA","A1EIKIHK12UDP0","3RBI0I35XEP26UEZY8S8UZLEA1IY3E","","606.1000000014901","img/land4.png","74","609.2999999970198","1","1","1","2","0.8,0.2,0.2,0.2,0.8,0.2,0.2,0.2,0.8","0.8,0.2,0.2,0.2,0.8,0.2,0.2,0.2,0.8","1","",""
"","html-keyboard-response","87","185740","0.0-87.0","36W0OB37HX0JRCTX0HOV1JRE7JSHZA","A1EIKIHK12UDP0","3RBI0I35XEP26UEZY8S8UZLEA1IY3E","","null","<img src=""img/land4.png"" style=""width:200px; border:14px solid green;"">","null","","","","","","","","","",""
"","image-keyboard-response","88","186476","0.0-88.0","36W0OB37HX0JRCTX0HOV1JRE7JSHZA","A1EIKIHK12UDP0","3RBI0I35XEP26UEZY8S8UZLEA1IY3E","","734","img/land4.png","74","736","1","0","1","2","0.8,0.2,0.2,0.2,0.8,0.2,0.2,0.2,0.8","0.8,0.2,0.2,0.2,0.8,0.2,0.2,0.2,0.8","1","",""
"","html-keyboard-response","89","186780","0.0-89.0","36W0OB37HX0JRCTX0HOV1JRE7JSHZA","A1EIKIHK12UDP0","3RBI0I35XEP26UEZY8S8UZLEA1IY3E","","null","<img src=""img/land4.png"" style=""width:200px;border:14px solid red;"">","null","","","","","","","","","",""
"","image-keyboard-response","90","187322","0.0-90.0","36W0OB37HX0JRCTX0HOV1JRE7JSHZA","A1EIKIHK12UDP0","3RBI0I35XEP26UEZY8S8UZLEA1IY3E","","540.2000000029802","img/land4.png","74","542.2000000029802","1","1","1","2","0.8,0.2,0.2,0.2,0.8,0.2,0.2,0.2,0.8","0.8,0.2,0.2,0.2,0.8,0.2,0.2,0.2,0.8","1","",""
"","html-keyboard-response","91","187625","0.0-91.0","36W0OB37HX0JRCTX0HOV1JRE7JSHZA","A1EIKIHK12UDP0","3RBI0I35XEP26UEZY8S8UZLEA1IY3E","","null","<img src=""img/land4.png"" style=""width:200px; border:14px solid green;"">","null","","","","","","","","","",""
"","image-keyboard-response","92","188320","0.0-92.0","36W0OB37HX0JRCTX0HOV1JRE7JSHZA","A1EIKIHK12UDP0","3RBI0I35XEP26UEZY8S8UZLEA1IY3E","","692.8999999985099","img/land1.png","75","694.7000000029802","2","0","3","2","0.8,0.2,0.2,0.2,0.8,0.2,0.2,0.2,0.8","0.8,0.2,0.2,0.2,0.8,0.2,0.2,0.2,0.8","1","",""
"","html-keyboard-response","93","188623","0.0-93.0","36W0OB37HX0JRCTX0HOV1JRE7JSHZA","A1EIKIHK12UDP0","3RBI0I35XEP26UEZY8S8UZLEA1IY3E","","null","<img src=""img/land1.png"" style=""width:200px;border:14px solid red;"">","null","","","","","","","","","",""
"","image-keyboard-response","94","189363","0.0-94.0","36W0OB37HX0JRCTX0HOV1JRE7JSHZA","A1EIKIHK12UDP0","3RBI0I35XEP26UEZY8S8UZLEA1IY3E","","736.9000000059605","img/land4.png","74","739.6000000014901","1","1","1","2","0.8,0.2,0.2,0.2,0.8,0.2,0.2,0.2,0.8","0.8,0.2,0.2,0.2,0.8,0.2,0.2,0.2,0.8","1","",""
"","html-keyboard-response","95","189665","0.0-95.0","36W0OB37HX0JRCTX0HOV1JRE7JSHZA","A1EIKIHK12UDP0","3RBI0I35XEP26UEZY8S8UZLEA1IY3E","","null","<img src=""img/land4.png"" style=""width:200px; border:14px solid green;"">","null","","","","","","","","","",""
"","image-keyboard-response","96","190235","0.0-96.0","36W0OB37HX0JRCTX0HOV1JRE7JSHZA","A1EIKIHK12UDP0","3RBI0I35XEP26UEZY8S8UZLEA1IY3E","","567.3000000044703","img/land4.png","74","569.8999999985099","1","1","1","2","0.8,0.2,0.2,0.2,0.8,0.2,0.2,0.2,0.8","0.8,0.2,0.2,0.2,0.8,0.2,0.2,0.2,0.8","1","",""
"","html-keyboard-response","97","190538","0.0-97.0","36W0OB37HX0JRCTX0HOV1JRE7JSHZA","A1EIKIHK12UDP0","3RBI0I35XEP26UEZY8S8UZLEA1IY3E","","null","<img src=""img/land4.png"" style=""width:200px; border:14px solid green;"">","null","","","","","","","","","",""
"","image-keyboard-response","98","191066","0.0-98.0","36W0OB37HX0JRCTX0HOV1JRE7JSHZA","A1EIKIHK12UDP0","3RBI0I35XEP26UEZY8S8UZLEA1IY3E","","524.4000000059605","img/land4.png","74","527.6000000014901","1","1","1","2","0.8,0.2,0.2,0.2,0.8,0.2,0.2,0.2,0.8","0.8,0.2,0.2,0.2,0.8,0.2,0.2,0.2,0.8","1","",""
"","html-keyboard-response","99","191369","0.0-99.0","36W0OB37HX0JRCTX0HOV1JRE7JSHZA","A1EIKIHK12UDP0","3RBI0I35XEP26UEZY8S8UZLEA1IY3E","","null","<img src=""img/land4.png"" style=""width:200px; border:14px solid green;"">","null","","","","","","","","","",""
"","image-keyboard-response","100","191914","0.0-100.0","36W0OB37HX0JRCTX0HOV1JRE7JSHZA","A1EIKIHK12UDP0","3RBI0I35XEP26UEZY8S8UZLEA1IY3E","","542.7999999970198","img/land1.png","76","544.9000000059605","3","1","3","2","0.8,0.2,0.2,0.2,0.8,0.2,0.2,0.2,0.8","0.8,0.2,0.2,0.2,0.8,0.2,0.2,0.2,0.8","1","",""
"","html-keyboard-response","101","192217","0.0-101.0","36W0OB37HX0JRCTX0HOV1JRE7JSHZA","A1EIKIHK12UDP0","3RBI0I35XEP26UEZY8S8UZLEA1IY3E","","null","<img src=""img/land1.png"" style=""width:200px; border:14px solid green;"">","null","","","","","","","","","",""
"","image-keyboard-response","102","192831","0.0-102.0","36W0OB37HX0JRCTX0HOV1JRE7JSHZA","A1EIKIHK12UDP0","3RBI0I35XEP26UEZY8S8UZLEA1IY3E","","611.8999999985099","img/land4.png","74","613.7000000029802","1","1","1","2","0.8,0.2,0.2,0.2,0.8,0.2,0.2,0.2,0.8","0.8,0.2,0.2,0.2,0.8,0.2,0.2,0.2,0.8","1","",""
"","html-keyboard-response","103","193133","0.0-103.0","36W0OB37HX0JRCTX0HOV1JRE7JSHZA","A1EIKIHK12UDP0","3RBI0I35XEP26UEZY8S8UZLEA1IY3E","","null","<img src=""img/land4.png"" style=""width:200px; border:14px solid green;"">","null","","","","","","","","","",""
"","image-keyboard-response","104","193888","0.0-104.0","36W0OB37HX0JRCTX0HOV1JRE7JSHZA","A1EIKIHK12UDP0","3RBI0I35XEP26UEZY8S8UZLEA1IY3E","","752.7999999970198","img/land6.png","75","755.1000000014901","2","1","2","2","0.8,0.2,0.2,0.2,0.8,0.2,0.2,0.2,0.8","0.8,0.2,0.2,0.2,0.8,0.2,0.2,0.2,0.8","1","",""
"","html-keyboard-response","105","194191","0.0-105.0","36W0OB37HX0JRCTX0HOV1JRE7JSHZA","A1EIKIHK12UDP0","3RBI0I35XEP26UEZY8S8UZLEA1IY3E","","null","<img src=""img/land6.png"" style=""width:200px; border:14px solid green;"">","null","","","","","","","","","",""
"","image-keyboard-response","106","195082","0.0-106.0","36W0OB37HX0JRCTX0HOV1JRE7JSHZA","A1EIKIHK12UDP0","3RBI0I35XEP26UEZY8S8UZLEA1IY3E","","888.5","img/land4.png","74","890.5","1","1","1","2","0.8,0.2,0.2,0.2,0.8,0.2,0.2,0.2,0.8","0.8,0.2,0.2,0.2,0.8,0.2,0.2,0.2,0.8","1","",""
"","html-keyboard-response","107","195385","0.0-107.0","36W0OB37HX0JRCTX0HOV1JRE7JSHZA","A1EIKIHK12UDP0","3RBI0I35XEP26UEZY8S8UZLEA1IY3E","","null","<img src=""img/land4.png"" style=""width:200px; border:14px solid green;"">","null","","","","","","","","","",""
"","image-keyboard-response","108","196061","0.0-108.0","36W0OB37HX0JRCTX0HOV1JRE7JSHZA","A1EIKIHK12UDP0","3RBI0I35XEP26UEZY8S8UZLEA1IY3E","","673","img/land6.png","75","675.1000000014901","2","1","2","2","0.8,0.2,0.2,0.2,0.8,0.2,0.2,0.2,0.8","0.8,0.2,0.2,0.2,0.8,0.2,0.2,0.2,0.8","1","",""
"","html-keyboard-response","109","196363","0.0-109.0","36W0OB37HX0JRCTX0HOV1JRE7JSHZA","A1EIKIHK12UDP0","3RBI0I35XEP26UEZY8S8UZLEA1IY3E","","null","<img src=""img/land6.png"" style=""width:200px; border:14px solid green;"">","null","","","","","","","","","",""
"","image-keyboard-response","110","197256","0.0-110.0","36W0OB37HX0JRCTX0HOV1JRE7JSHZA","A1EIKIHK12UDP0","3RBI0I35XEP26UEZY8S8UZLEA1IY3E","","890","img/land1.png","76","892.1000000014901","3","1","3","2","0.8,0.2,0.2,0.2,0.8,0.2,0.2,0.2,0.8","0.8,0.2,0.2,0.2,0.8,0.2,0.2,0.2,0.8","1","",""
"","html-keyboard-response","111","197558","0.0-111.0","36W0OB37HX0JRCTX0HOV1JRE7JSHZA","A1EIKIHK12UDP0","3RBI0I35XEP26UEZY8S8UZLEA1IY3E","","null","<img src=""img/land1.png"" style=""width:200px; border:14px solid green;"">","null","","","","","","","","","",""
"","image-keyboard-response","112","198217","0.0-112.0","36W0OB37HX0JRCTX0HOV1JRE7JSHZA","A1EIKIHK12UDP0","3RBI0I35XEP26UEZY8S8UZLEA1IY3E","","655.9000000059605","img/land4.png","74","658.2000000029802","1","1","1","2","0.8,0.2,0.2,0.2,0.8,0.2,0.2,0.2,0.8","0.8,0.2,0.2,0.2,0.8,0.2,0.2,0.2,0.8","1","",""
"","html-keyboard-response","113","198520","0.0-113.0","36W0OB37HX0JRCTX0HOV1JRE7JSHZA","A1EIKIHK12UDP0","3RBI0I35XEP26UEZY8S8UZLEA1IY3E","","null","<img src=""img/land4.png"" style=""width:200px; border:14px solid green;"">","null","","","","","","","","","",""
"","image-keyboard-response","114","199274","0.0-114.0","36W0OB37HX0JRCTX0HOV1JRE7JSHZA","A1EIKIHK12UDP0","3RBI0I35XEP26UEZY8S8UZLEA1IY3E","","751.6000000014901","img/land4.png","74","754.1000000014901","1","0","1","2","0.8,0.2,0.2,0.2,0.8,0.2,0.2,0.2,0.8","0.8,0.2,0.2,0.2,0.8,0.2,0.2,0.2,0.8","1","",""
"","html-keyboard-response","115","199578","0.0-115.0","36W0OB37HX0JRCTX0HOV1JRE7JSHZA","A1EIKIHK12UDP0","3RBI0I35XEP26UEZY8S8UZLEA1IY3E","","null","<img src=""img/land4.png"" style=""width:200px;border:14px solid red;"">","null","","","","","","","","","",""
"","image-keyboard-response","116","200182","0.0-116.0","36W0OB37HX0JRCTX0HOV1JRE7JSHZA","A1EIKIHK12UDP0","3RBI0I35XEP26UEZY8S8UZLEA1IY3E","","601.3999999985099","img/land4.png","74","604","1","0","1","2","0.8,0.2,0.2,0.2,0.8,0.2,0.2,0.2,0.8","0.8,0.2,0.2,0.2,0.8,0.2,0.2,0.2,0.8","1","",""
"","html-keyboard-response","117","200485","0.0-117.0","36W0OB37HX0JRCTX0HOV1JRE7JSHZA","A1EIKIHK12UDP0","3RBI0I35XEP26UEZY8S8UZLEA1IY3E","","null","<img src=""img/land4.png"" style=""width:200px;border:14px solid red;"">","null","","","","","","","","","",""
"","image-keyboard-response","118","201296","0.0-118.0","36W0OB37HX0JRCTX0HOV1JRE7JSHZA","A1EIKIHK12UDP0","3RBI0I35XEP26UEZY8S8UZLEA1IY3E","","808.3000000044703","img/land4.png","74","810.2999999970198","1","0","1","2","0.8,0.2,0.2,0.2,0.8,0.2,0.2,0.2,0.8","0.8,0.2,0.2,0.2,0.8,0.2,0.2,0.2,0.8","1","",""
"","html-keyboard-response","119","201599","0.0-119.0","36W0OB37HX0JRCTX0HOV1JRE7JSHZA","A1EIKIHK12UDP0","3RBI0I35XEP26UEZY8S8UZLEA1IY3E","","null","<img src=""img/land4.png"" style=""width:200px;border:14px solid red;"">","null","","","","","","","","","",""
"","image-keyboard-response","120","202354","0.0-120.0","36W0OB37HX0JRCTX0HOV1JRE7JSHZA","A1EIKIHK12UDP0","3RBI0I35XEP26UEZY8S8UZLEA1IY3E","","752.2999999970198","img/land6.png","75","754.2999999970198","2","1","2","2","0.8,0.2,0.2,0.2,0.8,0.2,0.2,0.2,0.8","0.8,0.2,0.2,0.2,0.8,0.2,0.2,0.2,0.8","1","",""
"","html-keyboard-response","121","202657","0.0-121.0","36W0OB37HX0JRCTX0HOV1JRE7JSHZA","A1EIKIHK12UDP0","3RBI0I35XEP26UEZY8S8UZLEA1IY3E","","null","<img src=""img/land6.png"" style=""width:200px; border:14px solid green;"">","null","","","","","","","","","",""
"","image-keyboard-response","122","203323","0.0-122.0","36W0OB37HX0JRCTX0HOV1JRE7JSHZA","A1EIKIHK12UDP0","3RBI0I35XEP26UEZY8S8UZLEA1IY3E","","663.1999999955297","img/land6.png","75","665.7000000029802","2","1","2","2","0.8,0.2,0.2,0.2,0.8,0.2,0.2,0.2,0.8","0.8,0.2,0.2,0.2,0.8,0.2,0.2,0.2,0.8","1","",""
"","html-keyboard-response","123","203626","0.0-123.0","36W0OB37HX0JRCTX0HOV1JRE7JSHZA","A1EIKIHK12UDP0","3RBI0I35XEP26UEZY8S8UZLEA1IY3E","","null","<img src=""img/land6.png"" style=""width:200px; border:14px solid green;"">","null","","","","","","","","","",""
"","image-keyboard-response","124","204346","0.0-124.0","36W0OB37HX0JRCTX0HOV1JRE7JSHZA","A1EIKIHK12UDP0","3RBI0I35XEP26UEZY8S8UZLEA1IY3E","","718.1999999955297","img/land4.png","74","720.1000000014901","1","1","1","2","0.8,0.2,0.2,0.2,0.8,0.2,0.2,0.2,0.8","0.8,0.2,0.2,0.2,0.8,0.2,0.2,0.2,0.8","1","",""
"","html-keyboard-response","125","204649","0.0-125.0","36W0OB37HX0JRCTX0HOV1JRE7JSHZA","A1EIKIHK12UDP0","3RBI0I35XEP26UEZY8S8UZLEA1IY3E","","null","<img src=""img/land4.png"" style=""width:200px; border:14px solid green;"">","null","","","","","","","","","",""
"","image-keyboard-response","126","205528","0.0-126.0","36W0OB37HX0JRCTX0HOV1JRE7JSHZA","A1EIKIHK12UDP0","3RBI0I35XEP26UEZY8S8UZLEA1IY3E","","876.7999999970198","img/land1.png","76","878.7000000029802","3","1","3","2","0.8,0.2,0.2,0.2,0.8,0.2,0.2,0.2,0.8","0.8,0.2,0.2,0.2,0.8,0.2,0.2,0.2,0.8","1","",""
"","html-keyboard-response","127","205830","0.0-127.0","36W0OB37HX0JRCTX0HOV1JRE7JSHZA","A1EIKIHK12UDP0","3RBI0I35XEP26UEZY8S8UZLEA1IY3E","","null","<img src=""img/land1.png"" style=""width:200px; border:14px solid green;"">","null","","","","","","","","","",""
"","image-keyboard-response","128","206476","0.0-128.0","36W0OB37HX0JRCTX0HOV1JRE7JSHZA","A1EIKIHK12UDP0","3RBI0I35XEP26UEZY8S8UZLEA1IY3E","","642.5","img/land1.png","76","644.8000000044703","3","0","3","2","0.8,0.2,0.2,0.2,0.8,0.2,0.2,0.2,0.8","0.8,0.2,0.2,0.2,0.8,0.2,0.2,0.2,0.8","1","",""
"","html-keyboard-response","129","206778","0.0-129.0","36W0OB37HX0JRCTX0HOV1JRE7JSHZA","A1EIKIHK12UDP0","3RBI0I35XEP26UEZY8S8UZLEA1IY3E","","null","<img src=""img/land1.png"" style=""width:200px;border:14px solid red;"">","null","","","","","","","","","",""
"","image-keyboard-response","130","207550","0.0-130.0","36W0OB37HX0JRCTX0HOV1JRE7JSHZA","A1EIKIHK12UDP0","3RBI0I35XEP26UEZY8S8UZLEA1IY3E","","769.7999999970198","img/land4.png","74","772.2999999970198","1","1","1","2","0.8,0.2,0.2,0.2,0.8,0.2,0.2,0.2,0.8","0.8,0.2,0.2,0.2,0.8,0.2,0.2,0.2,0.8","1","",""
"","html-keyboard-response","131","207853","0.0-131.0","36W0OB37HX0JRCTX0HOV1JRE7JSHZA","A1EIKIHK12UDP0","3RBI0I35XEP26UEZY8S8UZLEA1IY3E","","null","<img src=""img/land4.png"" style=""width:200px; border:14px solid green;"">","null","","","","","","","","","",""
"","image-keyboard-response","132","208544","0.0-132.0","36W0OB37HX0JRCTX0HOV1JRE7JSHZA","A1EIKIHK12UDP0","3RBI0I35XEP26UEZY8S8UZLEA1IY3E","","687.2999999970198","img/land6.png","75","689.1000000014901","2","1","2","2","0.8,0.2,0.2,0.2,0.8,0.2,0.2,0.2,0.8","0.8,0.2,0.2,0.2,0.8,0.2,0.2,0.2,0.8","1","",""
"","html-keyboard-response","133","208847","0.0-133.0","36W0OB37HX0JRCTX0HOV1JRE7JSHZA","A1EIKIHK12UDP0","3RBI0I35XEP26UEZY8S8UZLEA1IY3E","","null","<img src=""img/land6.png"" style=""width:200px; border:14px solid green;"">","null","","","","","","","","","",""
"","image-keyboard-response","134","209671","0.0-134.0","36W0OB37HX0JRCTX0HOV1JRE7JSHZA","A1EIKIHK12UDP0","3RBI0I35XEP26UEZY8S8UZLEA1IY3E","","821.7000000029802","img/land4.png","74","823.8999999985099","1","1","1","2","0.8,0.2,0.2,0.2,0.8,0.2,0.2,0.2,0.8","0.8,0.2,0.2,0.2,0.8,0.2,0.2,0.2,0.8","1","",""
"","html-keyboard-response","135","209975","0.0-135.0","36W0OB37HX0JRCTX0HOV1JRE7JSHZA","A1EIKIHK12UDP0","3RBI0I35XEP26UEZY8S8UZLEA1IY3E","","null","<img src=""img/land4.png"" style=""width:200px; border:14px solid green;"">","null","","","","","","","","","",""
"","image-keyboard-response","136","210641","0.0-136.0","36W0OB37HX0JRCTX0HOV1JRE7JSHZA","A1EIKIHK12UDP0","3RBI0I35XEP26UEZY8S8UZLEA1IY3E","","663.8000000044703","img/land1.png","75","665.7999999970198","2","0","3","2","0.8,0.2,0.2,0.2,0.8,0.2,0.2,0.2,0.8","0.8,0.2,0.2,0.2,0.8,0.2,0.2,0.2,0.8","1","",""
"","html-keyboard-response","137","210943","0.0-137.0","36W0OB37HX0JRCTX0HOV1JRE7JSHZA","A1EIKIHK12UDP0","3RBI0I35XEP26UEZY8S8UZLEA1IY3E","","null","<img src=""img/land1.png"" style=""width:200px;border:14px solid red;"">","null","","","","","","","","","",""
"","image-keyboard-response","138","211627","0.0-138.0","36W0OB37HX0JRCTX0HOV1JRE7JSHZA","A1EIKIHK12UDP0","3RBI0I35XEP26UEZY8S8UZLEA1IY3E","","681.0999999940395","img/land6.png","74","683","1","0","2","2","0.8,0.2,0.2,0.2,0.8,0.2,0.2,0.2,0.8","0.8,0.2,0.2,0.2,0.8,0.2,0.2,0.2,0.8","1","",""
"","html-keyboard-response","139","211930","0.0-139.0","36W0OB37HX0JRCTX0HOV1JRE7JSHZA","A1EIKIHK12UDP0","3RBI0I35XEP26UEZY8S8UZLEA1IY3E","","null","<img src=""img/land6.png"" style=""width:200px;border:14px solid red;"">","null","","","","","","","","","",""
"","image-keyboard-response","140","212991","0.0-140.0","36W0OB37HX0JRCTX0HOV1JRE7JSHZA","A1EIKIHK12UDP0","3RBI0I35XEP26UEZY8S8UZLEA1IY3E","","1058.5999999940395","img/land4.png","74","1060.3999999985099","1","1","1","2","0.8,0.2,0.2,0.2,0.8,0.2,0.2,0.2,0.8","0.8,0.2,0.2,0.2,0.8,0.2,0.2,0.2,0.8","1","",""
"","html-keyboard-response","141","213294","0.0-141.0","36W0OB37HX0JRCTX0HOV1JRE7JSHZA","A1EIKIHK12UDP0","3RBI0I35XEP26UEZY8S8UZLEA1IY3E","","null","<img src=""img/land4.png"" style=""width:200px; border:14px solid green;"">","null","","","","","","","","","",""
"","image-keyboard-response","142","214120","0.0-142.0","36W0OB37HX0JRCTX0HOV1JRE7JSHZA","A1EIKIHK12UDP0","3RBI0I35XEP26UEZY8S8UZLEA1IY3E","","824","img/land4.png","74","825.7000000029802","1","1","1","2","0.8,0.2,0.2,0.2,0.8,0.2,0.2,0.2,0.8","0.8,0.2,0.2,0.2,0.8,0.2,0.2,0.2,0.8","1","",""
"","html-keyboard-response","143","214423","0.0-143.0","36W0OB37HX0JRCTX0HOV1JRE7JSHZA","A1EIKIHK12UDP0","3RBI0I35XEP26UEZY8S8UZLEA1IY3E","","null","<img src=""img/land4.png"" style=""width:200px; border:14px solid green;"">","null","","","","","","","","","",""
"","image-keyboard-response","144","215246","0.0-144.0","36W0OB37HX0JRCTX0HOV1JRE7JSHZA","A1EIKIHK12UDP0","3RBI0I35XEP26UEZY8S8UZLEA1IY3E","","820.5999999940395","img/land4.png","74","822.2999999970198","1","1","1","2","0.8,0.2,0.2,0.2,0.8,0.2,0.2,0.2,0.8","0.8,0.2,0.2,0.2,0.8,0.2,0.2,0.2,0.8","1","",""
"","html-keyboard-response","145","215549","0.0-145.0","36W0OB37HX0JRCTX0HOV1JRE7JSHZA","A1EIKIHK12UDP0","3RBI0I35XEP26UEZY8S8UZLEA1IY3E","","null","<img src=""img/land4.png"" style=""width:200px; border:14px solid green;"">","null","","","","","","","","","",""
"","image-keyboard-response","146","216274","0.0-146.0","36W0OB37HX0JRCTX0HOV1JRE7JSHZA","A1EIKIHK12UDP0","3RBI0I35XEP26UEZY8S8UZLEA1IY3E","","722.2999999970198","img/land4.png","74","724.4000000059605","1","1","1","2","0.8,0.2,0.2,0.2,0.8,0.2,0.2,0.2,0.8","0.8,0.2,0.2,0.2,0.8,0.2,0.2,0.2,0.8","1","",""
"","html-keyboard-response","147","216576","0.0-147.0","36W0OB37HX0JRCTX0HOV1JRE7JSHZA","A1EIKIHK12UDP0","3RBI0I35XEP26UEZY8S8UZLEA1IY3E","","null","<img src=""img/land4.png"" style=""width:200px; border:14px solid green;"">","null","","","","","","","","","",""
"","image-keyboard-response","148","217370","0.0-148.0","36W0OB37HX0JRCTX0HOV1JRE7JSHZA","A1EIKIHK12UDP0","3RBI0I35XEP26UEZY8S8UZLEA1IY3E","","790.6999999955297","img/land4.png","74","793.1000000014901","1","0","1","2","0.8,0.2,0.2,0.2,0.8,0.2,0.2,0.2,0.8","0.8,0.2,0.2,0.2,0.8,0.2,0.2,0.2,0.8","1","",""
"","html-keyboard-response","149","217673","0.0-149.0","36W0OB37HX0JRCTX0HOV1JRE7JSHZA","A1EIKIHK12UDP0","3RBI0I35XEP26UEZY8S8UZLEA1IY3E","","null","<img src=""img/land4.png"" style=""width:200px;border:14px solid red;"">","null","","","","","","","","","",""
"","image-keyboard-response","150","218669","0.0-150.0","36W0OB37HX0JRCTX0HOV1JRE7JSHZA","A1EIKIHK12UDP0","3RBI0I35XEP26UEZY8S8UZLEA1IY3E","","993.7999999970198","img/land6.png","75","995.7999999970198","2","1","2","2","0.8,0.2,0.2,0.2,0.8,0.2,0.2,0.2,0.8","0.8,0.2,0.2,0.2,0.8,0.2,0.2,0.2,0.8","1","",""
"","html-keyboard-response","151","218972","0.0-151.0","36W0OB37HX0JRCTX0HOV1JRE7JSHZA","A1EIKIHK12UDP0","3RBI0I35XEP26UEZY8S8UZLEA1IY3E","","null","<img src=""img/land6.png"" style=""width:200px; border:14px solid green;"">","null","","","","","","","","","",""
"","image-keyboard-response","152","219783","0.0-152.0","36W0OB37HX0JRCTX0HOV1JRE7JSHZA","A1EIKIHK12UDP0","3RBI0I35XEP26UEZY8S8UZLEA1IY3E","","807.5","img/land4.png","74","810.1000000014901","1","1","1","2","0.8,0.2,0.2,0.2,0.8,0.2,0.2,0.2,0.8","0.8,0.2,0.2,0.2,0.8,0.2,0.2,0.2,0.8","1","",""
"","html-keyboard-response","153","220085","0.0-153.0","36W0OB37HX0JRCTX0HOV1JRE7JSHZA","A1EIKIHK12UDP0","3RBI0I35XEP26UEZY8S8UZLEA1IY3E","","null","<img src=""img/land4.png"" style=""width:200px; border:14px solid green;"">","null","","","","","","","","","",""
"","image-keyboard-response","154","220841","0.0-154.0","36W0OB37HX0JRCTX0HOV1JRE7JSHZA","A1EIKIHK12UDP0","3RBI0I35XEP26UEZY8S8UZLEA1IY3E","","754.0999999940395","img/land1.png","76","755.7999999970198","3","1","3","2","0.8,0.2,0.2,0.2,0.8,0.2,0.2,0.2,0.8","0.8,0.2,0.2,0.2,0.8,0.2,0.2,0.2,0.8","1","",""
"","html-keyboard-response","155","221144","0.0-155.0","36W0OB37HX0JRCTX0HOV1JRE7JSHZA","A1EIKIHK12UDP0","3RBI0I35XEP26UEZY8S8UZLEA1IY3E","","null","<img src=""img/land1.png"" style=""width:200px; border:14px solid green;"">","null","","","","","","","","","",""
"","image-keyboard-response","156","221918","0.0-156.0","36W0OB37HX0JRCTX0HOV1JRE7JSHZA","A1EIKIHK12UDP0","3RBI0I35XEP26UEZY8S8UZLEA1IY3E","","771.3000000044703","img/land6.png","75","773","2","1","2","2","0.8,0.2,0.2,0.2,0.8,0.2,0.2,0.2,0.8","0.8,0.2,0.2,0.2,0.8,0.2,0.2,0.2,0.8","1","",""
"","html-keyboard-response","157","222220","0.0-157.0","36W0OB37HX0JRCTX0HOV1JRE7JSHZA","A1EIKIHK12UDP0","3RBI0I35XEP26UEZY8S8UZLEA1IY3E","","null","<img src=""img/land6.png"" style=""width:200px; border:14px solid green;"">","null","","","","","","","","","",""
"","image-keyboard-response","158","223039","0.0-158.0","36W0OB37HX0JRCTX0HOV1JRE7JSHZA","A1EIKIHK12UDP0","3RBI0I35XEP26UEZY8S8UZLEA1IY3E","","816.5","img/land4.png","74","818.7000000029802","1","1","1","2","0.8,0.2,0.2,0.2,0.8,0.2,0.2,0.2,0.8","0.8,0.2,0.2,0.2,0.8,0.2,0.2,0.2,0.8","1","",""
"","html-keyboard-response","159","223343","0.0-159.0","36W0OB37HX0JRCTX0HOV1JRE7JSHZA","A1EIKIHK12UDP0","3RBI0I35XEP26UEZY8S8UZLEA1IY3E","","null","<img src=""img/land4.png"" style=""width:200px; border:14px solid green;"">","null","","","","","","","","","",""
"","image-keyboard-response","160","224076","0.0-160.0","36W0OB37HX0JRCTX0HOV1JRE7JSHZA","A1EIKIHK12UDP0","3RBI0I35XEP26UEZY8S8UZLEA1IY3E","","730.3999999985099","img/land1.png","76","733.2999999970198","3","1","3","2","0.8,0.2,0.2,0.2,0.8,0.2,0.2,0.2,0.8","0.8,0.2,0.2,0.2,0.8,0.2,0.2,0.2,0.8","1","",""
"","html-keyboard-response","161","224380","0.0-161.0","36W0OB37HX0JRCTX0HOV1JRE7JSHZA","A1EIKIHK12UDP0","3RBI0I35XEP26UEZY8S8UZLEA1IY3E","","null","<img src=""img/land1.png"" style=""width:200px; border:14px solid green;"">","null","","","","","","","","","",""
"","image-keyboard-response","162","225135","0.0-162.0","36W0OB37HX0JRCTX0HOV1JRE7JSHZA","A1EIKIHK12UDP0","3RBI0I35XEP26UEZY8S8UZLEA1IY3E","","752.2000000029802","img/land4.png","74","754.1999999955297","1","1","1","2","0.8,0.2,0.2,0.2,0.8,0.2,0.2,0.2,0.8","0.8,0.2,0.2,0.2,0.8,0.2,0.2,0.2,0.8","1","",""
"","html-keyboard-response","163","225437","0.0-163.0","36W0OB37HX0JRCTX0HOV1JRE7JSHZA","A1EIKIHK12UDP0","3RBI0I35XEP26UEZY8S8UZLEA1IY3E","","null","<img src=""img/land4.png"" style=""width:200px; border:14px solid green;"">","null","","","","","","","","","",""
"","image-keyboard-response","164","226210","0.0-164.0","36W0OB37HX0JRCTX0HOV1JRE7JSHZA","A1EIKIHK12UDP0","3RBI0I35XEP26UEZY8S8UZLEA1IY3E","","770.2999999970198","img/land4.png","74","772.7999999970198","1","1","1","2","0.8,0.2,0.2,0.2,0.8,0.2,0.2,0.2,0.8","0.8,0.2,0.2,0.2,0.8,0.2,0.2,0.2,0.8","1","",""
"","html-keyboard-response","165","226512","0.0-165.0","36W0OB37HX0JRCTX0HOV1JRE7JSHZA","A1EIKIHK12UDP0","3RBI0I35XEP26UEZY8S8UZLEA1IY3E","","null","<img src=""img/land4.png"" style=""width:200px; border:14px solid green;"">","null","","","","","","","","","",""
"","image-keyboard-response","166","227352","0.0-166.0","36W0OB37HX0JRCTX0HOV1JRE7JSHZA","A1EIKIHK12UDP0","3RBI0I35XEP26UEZY8S8UZLEA1IY3E","","836.8999999985099","img/land4.png","74","839.0999999940395","1","1","1","2","0.8,0.2,0.2,0.2,0.8,0.2,0.2,0.2,0.8","0.8,0.2,0.2,0.2,0.8,0.2,0.2,0.2,0.8","1","",""
"","html-keyboard-response","167","227654","0.0-167.0","36W0OB37HX0JRCTX0HOV1JRE7JSHZA","A1EIKIHK12UDP0","3RBI0I35XEP26UEZY8S8UZLEA1IY3E","","null","<img src=""img/land4.png"" style=""width:200px; border:14px solid green;"">","null","","","","","","","","","",""
"","image-keyboard-response","168","228395","0.0-168.0","36W0OB37HX0JRCTX0HOV1JRE7JSHZA","A1EIKIHK12UDP0","3RBI0I35XEP26UEZY8S8UZLEA1IY3E","","738.8000000044703","img/land4.png","74","740.9000000059605","1","1","1","2","0.8,0.2,0.2,0.2,0.8,0.2,0.2,0.2,0.8","0.8,0.2,0.2,0.2,0.8,0.2,0.2,0.2,0.8","1","",""
"","html-keyboard-response","169","228697","0.0-169.0","36W0OB37HX0JRCTX0HOV1JRE7JSHZA","A1EIKIHK12UDP0","3RBI0I35XEP26UEZY8S8UZLEA1IY3E","","null","<img src=""img/land4.png"" style=""width:200px; border:14px solid green;"">","null","","","","","","","","","",""
"","image-keyboard-response","170","229581","0.0-170.0","36W0OB37HX0JRCTX0HOV1JRE7JSHZA","A1EIKIHK12UDP0","3RBI0I35XEP26UEZY8S8UZLEA1IY3E","","881.8000000044703","img/land4.png","74","883.5","1","1","1","2","0.8,0.2,0.2,0.2,0.8,0.2,0.2,0.2,0.8","0.8,0.2,0.2,0.2,0.8,0.2,0.2,0.2,0.8","1","",""
"","html-keyboard-response","171","229884","0.0-171.0","36W0OB37HX0JRCTX0HOV1JRE7JSHZA","A1EIKIHK12UDP0","3RBI0I35XEP26UEZY8S8UZLEA1IY3E","","null","<img src=""img/land4.png"" style=""width:200px; border:14px solid green;"">","null","","","","","","","","","",""
"","image-keyboard-response","172","230608","0.0-172.0","36W0OB37HX0JRCTX0HOV1JRE7JSHZA","A1EIKIHK12UDP0","3RBI0I35XEP26UEZY8S8UZLEA1IY3E","","721","img/land4.png","74","722.8000000044703","1","1","1","2","0.8,0.2,0.2,0.2,0.8,0.2,0.2,0.2,0.8","0.8,0.2,0.2,0.2,0.8,0.2,0.2,0.2,0.8","1","",""
"","html-keyboard-response","173","230910","0.0-173.0","36W0OB37HX0JRCTX0HOV1JRE7JSHZA","A1EIKIHK12UDP0","3RBI0I35XEP26UEZY8S8UZLEA1IY3E","","null","<img src=""img/land4.png"" style=""width:200px; border:14px solid green;"">","null","","","","","","","","","",""
"","image-keyboard-response","174","231705","0.0-174.0","36W0OB37HX0JRCTX0HOV1JRE7JSHZA","A1EIKIHK12UDP0","3RBI0I35XEP26UEZY8S8UZLEA1IY3E","","792.1000000014901","img/land1.png","76","794.6999999955297","3","1","3","2","0.8,0.2,0.2,0.2,0.8,0.2,0.2,0.2,0.8","0.8,0.2,0.2,0.2,0.8,0.2,0.2,0.2,0.8","1","",""
"","html-keyboard-response","175","232010","0.0-175.0","36W0OB37HX0JRCTX0HOV1JRE7JSHZA","A1EIKIHK12UDP0","3RBI0I35XEP26UEZY8S8UZLEA1IY3E","","null","<img src=""img/land1.png"" style=""width:200px; border:14px solid green;"">","null","","","","","","","","","",""
"","image-keyboard-response","176","232701","0.0-176.0","36W0OB37HX0JRCTX0HOV1JRE7JSHZA","A1EIKIHK12UDP0","3RBI0I35XEP26UEZY8S8UZLEA1IY3E","","689","img/land4.png","74","690.6000000014901","1","1","1","2","0.8,0.2,0.2,0.2,0.8,0.2,0.2,0.2,0.8","0.8,0.2,0.2,0.2,0.8,0.2,0.2,0.2,0.8","1","",""
"","html-keyboard-response","177","233005","0.0-177.0","36W0OB37HX0JRCTX0HOV1JRE7JSHZA","A1EIKIHK12UDP0","3RBI0I35XEP26UEZY8S8UZLEA1IY3E","","null","<img src=""img/land4.png"" style=""width:200px; border:14px solid green;"">","null","","","","","","","","","",""
"","image-keyboard-response","178","233698","0.0-178.0","36W0OB37HX0JRCTX0HOV1JRE7JSHZA","A1EIKIHK12UDP0","3RBI0I35XEP26UEZY8S8UZLEA1IY3E","","690.5","img/land1.png","76","692.3999999985099","3","1","3","2","0.8,0.2,0.2,0.2,0.8,0.2,0.2,0.2,0.8","0.8,0.2,0.2,0.2,0.8,0.2,0.2,0.2,0.8","1","",""
"","html-keyboard-response","179","234001","0.0-179.0","36W0OB37HX0JRCTX0HOV1JRE7JSHZA","A1EIKIHK12UDP0","3RBI0I35XEP26UEZY8S8UZLEA1IY3E","","null","<img src=""img/land1.png"" style=""width:200px; border:14px solid green;"">","null","","","","","","","","","",""
"","image-keyboard-response","180","234851","0.0-180.0","36W0OB37HX0JRCTX0HOV1JRE7JSHZA","A1EIKIHK12UDP0","3RBI0I35XEP26UEZY8S8UZLEA1IY3E","","846","img/land6.png","75","849.7000000029802","2","1","2","2","0.8,0.2,0.2,0.2,0.8,0.2,0.2,0.2,0.8","0.8,0.2,0.2,0.2,0.8,0.2,0.2,0.2,0.8","1","",""
"","html-keyboard-response","181","235154","0.0-181.0","36W0OB37HX0JRCTX0HOV1JRE7JSHZA","A1EIKIHK12UDP0","3RBI0I35XEP26UEZY8S8UZLEA1IY3E","","null","<img src=""img/land6.png"" style=""width:200px; border:14px solid green;"">","null","","","","","","","","","",""
"","image-keyboard-response","182","235798","0.0-182.0","36W0OB37HX0JRCTX0HOV1JRE7JSHZA","A1EIKIHK12UDP0","3RBI0I35XEP26UEZY8S8UZLEA1IY3E","","641.6000000014901","img/land4.png","74","643.8000000044703","1","0","1","2","0.8,0.2,0.2,0.2,0.8,0.2,0.2,0.2,0.8","0.8,0.2,0.2,0.2,0.8,0.2,0.2,0.2,0.8","1","",""
"","html-keyboard-response","183","236102","0.0-183.0","36W0OB37HX0JRCTX0HOV1JRE7JSHZA","A1EIKIHK12UDP0","3RBI0I35XEP26UEZY8S8UZLEA1IY3E","","null","<img src=""img/land4.png"" style=""width:200px;border:14px solid red;"">","null","","","","","","","","","",""
"","image-keyboard-response","184","236746","0.0-184.0","36W0OB37HX0JRCTX0HOV1JRE7JSHZA","A1EIKIHK12UDP0","3RBI0I35XEP26UEZY8S8UZLEA1IY3E","","642.2999999970198","img/land4.png","74","644.2000000029802","1","1","1","2","0.8,0.2,0.2,0.2,0.8,0.2,0.2,0.2,0.8","0.8,0.2,0.2,0.2,0.8,0.2,0.2,0.2,0.8","1","",""
"","html-keyboard-response","185","237048","0.0-185.0","36W0OB37HX0JRCTX0HOV1JRE7JSHZA","A1EIKIHK12UDP0","3RBI0I35XEP26UEZY8S8UZLEA1IY3E","","null","<img src=""img/land4.png"" style=""width:200px; border:14px solid green;"">","null","","","","","","","","","",""
"","image-keyboard-response","186","237722","0.0-186.0","36W0OB37HX0JRCTX0HOV1JRE7JSHZA","A1EIKIHK12UDP0","3RBI0I35XEP26UEZY8S8UZLEA1IY3E","","670.4000000059605","img/land4.png","74","672.8000000044703","1","1","1","2","0.8,0.2,0.2,0.2,0.8,0.2,0.2,0.2,0.8","0.8,0.2,0.2,0.2,0.8,0.2,0.2,0.2,0.8","1","",""
"","html-keyboard-response","187","238024","0.0-187.0","36W0OB37HX0JRCTX0HOV1JRE7JSHZA","A1EIKIHK12UDP0","3RBI0I35XEP26UEZY8S8UZLEA1IY3E","","null","<img src=""img/land4.png"" style=""width:200px; border:14px solid green;"">","null","","","","","","","","","",""
"","image-keyboard-response","188","238820","0.0-188.0","36W0OB37HX0JRCTX0HOV1JRE7JSHZA","A1EIKIHK12UDP0","3RBI0I35XEP26UEZY8S8UZLEA1IY3E","","793.7000000029802","img/land6.png","75","795.3999999985099","2","1","2","2","0.8,0.2,0.2,0.2,0.8,0.2,0.2,0.2,0.8","0.8,0.2,0.2,0.2,0.8,0.2,0.2,0.2,0.8","1","",""
"","html-keyboard-response","189","239122","0.0-189.0","36W0OB37HX0JRCTX0HOV1JRE7JSHZA","A1EIKIHK12UDP0","3RBI0I35XEP26UEZY8S8UZLEA1IY3E","","null","<img src=""img/land6.png"" style=""width:200px; border:14px solid green;"">","null","","","","","","","","","",""
"","image-keyboard-response","190","239811","0.0-190.0","36W0OB37HX0JRCTX0HOV1JRE7JSHZA","A1EIKIHK12UDP0","3RBI0I35XEP26UEZY8S8UZLEA1IY3E","","685.2000000029802","img/land6.png","75","689.6000000014901","2","1","2","2","0.8,0.2,0.2,0.2,0.8,0.2,0.2,0.2,0.8","0.8,0.2,0.2,0.2,0.8,0.2,0.2,0.2,0.8","1","",""
"","html-keyboard-response","191","240118","0.0-191.0","36W0OB37HX0JRCTX0HOV1JRE7JSHZA","A1EIKIHK12UDP0","3RBI0I35XEP26UEZY8S8UZLEA1IY3E","","null","<img src=""img/land6.png"" style=""width:200px; border:14px solid green;"">","null","","","","","","","","","",""
"","image-keyboard-response","192","240850","0.0-192.0","36W0OB37HX0JRCTX0HOV1JRE7JSHZA","A1EIKIHK12UDP0","3RBI0I35XEP26UEZY8S8UZLEA1IY3E","","730","img/land4.png","74","732","1","0","1","2","0.8,0.2,0.2,0.2,0.8,0.2,0.2,0.2,0.8","0.8,0.2,0.2,0.2,0.8,0.2,0.2,0.2,0.8","1","",""
"","html-keyboard-response","193","241153","0.0-193.0","36W0OB37HX0JRCTX0HOV1JRE7JSHZA","A1EIKIHK12UDP0","3RBI0I35XEP26UEZY8S8UZLEA1IY3E","","null","<img src=""img/land4.png"" style=""width:200px;border:14px solid red;"">","null","","","","","","","","","",""
"","image-keyboard-response","194","241842","0.0-194.0","36W0OB37HX0JRCTX0HOV1JRE7JSHZA","A1EIKIHK12UDP0","3RBI0I35XEP26UEZY8S8UZLEA1IY3E","","686.3999999985099","img/land6.png","74","688.7000000029802","1","1","2","2","0.8,0.2,0.2,0.2,0.8,0.2,0.2,0.2,0.8","0.8,0.2,0.2,0.2,0.8,0.2,0.2,0.2,0.8","1","",""
"","html-keyboard-response","195","242145","0.0-195.0","36W0OB37HX0JRCTX0HOV1JRE7JSHZA","A1EIKIHK12UDP0","3RBI0I35XEP26UEZY8S8UZLEA1IY3E","","null","<img src=""img/land6.png"" style=""width:200px; border:14px solid green;"">","null","","","","","","","","","",""
"","image-keyboard-response","196","243214","0.0-196.0","36W0OB37HX0JRCTX0HOV1JRE7JSHZA","A1EIKIHK12UDP0","3RBI0I35XEP26UEZY8S8UZLEA1IY3E","","1065.8000000044703","img/land4.png","74","1068.3000000044703","1","1","1","2","0.8,0.2,0.2,0.2,0.8,0.2,0.2,0.2,0.8","0.8,0.2,0.2,0.2,0.8,0.2,0.2,0.2,0.8","1","",""
"","html-keyboard-response","197","243516","0.0-197.0","36W0OB37HX0JRCTX0HOV1JRE7JSHZA","A1EIKIHK12UDP0","3RBI0I35XEP26UEZY8S8UZLEA1IY3E","","null","<img src=""img/land4.png"" style=""width:200px; border:14px solid green;"">","null","","","","","","","","","",""
"","image-keyboard-response","198","244264","0.0-198.0","36W0OB37HX0JRCTX0HOV1JRE7JSHZA","A1EIKIHK12UDP0","3RBI0I35XEP26UEZY8S8UZLEA1IY3E","","745.8999999985099","img/land4.png","74","747.8999999985099","1","0","1","2","0.8,0.2,0.2,0.2,0.8,0.2,0.2,0.2,0.8","0.8,0.2,0.2,0.2,0.8,0.2,0.2,0.2,0.8","1","",""
"","html-keyboard-response","199","244566","0.0-199.0","36W0OB37HX0JRCTX0HOV1JRE7JSHZA","A1EIKIHK12UDP0","3RBI0I35XEP26UEZY8S8UZLEA1IY3E","","null","<img src=""img/land4.png"" style=""width:200px;border:14px solid red;"">","null","","","","","","","","","",""
"","image-keyboard-response","200","245124","0.0-200.0","36W0OB37HX0JRCTX0HOV1JRE7JSHZA","A1EIKIHK12UDP0","3RBI0I35XEP26UEZY8S8UZLEA1IY3E","","555.2000000029802","img/land4.png","74","556.8999999985099","1","0","1","2","0.8,0.2,0.2,0.2,0.8,0.2,0.2,0.2,0.8","0.8,0.2,0.2,0.2,0.8,0.2,0.2,0.2,0.8","1","",""
"","html-keyboard-response","201","245427","0.0-201.0","36W0OB37HX0JRCTX0HOV1JRE7JSHZA","A1EIKIHK12UDP0","3RBI0I35XEP26UEZY8S8UZLEA1IY3E","","null","<img src=""img/land4.png"" style=""width:200px;border:14px solid red;"">","null","","","","","","","","","",""
"","image-keyboard-response","202","246107","0.0-202.0","36W0OB37HX0JRCTX0HOV1JRE7JSHZA","A1EIKIHK12UDP0","3RBI0I35XEP26UEZY8S8UZLEA1IY3E","","677.5","img/land1.png","76","679.6000000014901","3","0","3","2","0.8,0.2,0.2,0.2,0.8,0.2,0.2,0.2,0.8","0.8,0.2,0.2,0.2,0.8,0.2,0.2,0.2,0.8","1","",""
"","html-keyboard-response","203","246411","0.0-203.0","36W0OB37HX0JRCTX0HOV1JRE7JSHZA","A1EIKIHK12UDP0","3RBI0I35XEP26UEZY8S8UZLEA1IY3E","","null","<img src=""img/land1.png"" style=""width:200px;border:14px solid red;"">","null","","","","","","","","","",""
"","image-keyboard-response","204","247360","0.0-204.0","36W0OB37HX0JRCTX0HOV1JRE7JSHZA","A1EIKIHK12UDP0","3RBI0I35XEP26UEZY8S8UZLEA1IY3E","","947.3999999985099","img/land4.png","74","949.1000000014901","1","1","1","2","0.8,0.2,0.2,0.2,0.8,0.2,0.2,0.2,0.8","0.8,0.2,0.2,0.2,0.8,0.2,0.2,0.2,0.8","1","",""
"","html-keyboard-response","205","247663","0.0-205.0","36W0OB37HX0JRCTX0HOV1JRE7JSHZA","A1EIKIHK12UDP0","3RBI0I35XEP26UEZY8S8UZLEA1IY3E","","null","<img src=""img/land4.png"" style=""width:200px; border:14px solid green;"">","null","","","","","","","","","",""
"","image-keyboard-response","206","248381","0.0-206.0","36W0OB37HX0JRCTX0HOV1JRE7JSHZA","A1EIKIHK12UDP0","3RBI0I35XEP26UEZY8S8UZLEA1IY3E","","715.7999999970198","img/land6.png","75","717.6999999955297","2","1","2","2","0.8,0.2,0.2,0.2,0.8,0.2,0.2,0.2,0.8","0.8,0.2,0.2,0.2,0.8,0.2,0.2,0.2,0.8","1","",""
"","html-keyboard-response","207","248684","0.0-207.0","36W0OB37HX0JRCTX0HOV1JRE7JSHZA","A1EIKIHK12UDP0","3RBI0I35XEP26UEZY8S8UZLEA1IY3E","","null","<img src=""img/land6.png"" style=""width:200px; border:14px solid green;"">","null","","","","","","","","","",""
"","image-keyboard-response","208","249408","0.0-208.0","36W0OB37HX0JRCTX0HOV1JRE7JSHZA","A1EIKIHK12UDP0","3RBI0I35XEP26UEZY8S8UZLEA1IY3E","","721","img/land1.png","76","723.5","3","1","3","2","0.8,0.2,0.2,0.2,0.8,0.2,0.2,0.2,0.8","0.8,0.2,0.2,0.2,0.8,0.2,0.2,0.2,0.8","1","",""
"","html-keyboard-response","209","249711","0.0-209.0","36W0OB37HX0JRCTX0HOV1JRE7JSHZA","A1EIKIHK12UDP0","3RBI0I35XEP26UEZY8S8UZLEA1IY3E","","null","<img src=""img/land1.png"" style=""width:200px; border:14px solid green;"">","null","","","","","","","","","",""
"","image-keyboard-response","210","250446","0.0-210.0","36W0OB37HX0JRCTX0HOV1JRE7JSHZA","A1EIKIHK12UDP0","3RBI0I35XEP26UEZY8S8UZLEA1IY3E","","732.8999999985099","img/land4.png","74","735","1","0","1","2","0.8,0.2,0.2,0.2,0.8,0.2,0.2,0.2,0.8","0.8,0.2,0.2,0.2,0.8,0.2,0.2,0.2,0.8","1","",""
"","html-keyboard-response","211","250749","0.0-211.0","36W0OB37HX0JRCTX0HOV1JRE7JSHZA","A1EIKIHK12UDP0","3RBI0I35XEP26UEZY8S8UZLEA1IY3E","","null","<img src=""img/land4.png"" style=""width:200px;border:14px solid red;"">","null","","","","","","","","","",""
"","image-keyboard-response","212","251456","0.0-212.0","36W0OB37HX0JRCTX0HOV1JRE7JSHZA","A1EIKIHK12UDP0","3RBI0I35XEP26UEZY8S8UZLEA1IY3E","","704.6000000014901","img/land4.png","74","706.9000000059605","1","1","1","2","0.8,0.2,0.2,0.2,0.8,0.2,0.2,0.2,0.8","0.8,0.2,0.2,0.2,0.8,0.2,0.2,0.2,0.8","1","",""
"","html-keyboard-response","213","251760","0.0-213.0","36W0OB37HX0JRCTX0HOV1JRE7JSHZA","A1EIKIHK12UDP0","3RBI0I35XEP26UEZY8S8UZLEA1IY3E","","null","<img src=""img/land4.png"" style=""width:200px; border:14px solid green;"">","null","","","","","","","","","",""
"","image-keyboard-response","214","252471","0.0-214.0","36W0OB37HX0JRCTX0HOV1JRE7JSHZA","A1EIKIHK12UDP0","3RBI0I35XEP26UEZY8S8UZLEA1IY3E","","709.4000000059605","img/land6.png","75","711.3999999985099","2","1","2","2","0.8,0.2,0.2,0.2,0.8,0.2,0.2,0.2,0.8","0.8,0.2,0.2,0.2,0.8,0.2,0.2,0.2,0.8","1","",""
"","html-keyboard-response","215","252774","0.0-215.0","36W0OB37HX0JRCTX0HOV1JRE7JSHZA","A1EIKIHK12UDP0","3RBI0I35XEP26UEZY8S8UZLEA1IY3E","","null","<img src=""img/land6.png"" style=""width:200px; border:14px solid green;"">","null","","","","","","","","","",""
"","image-keyboard-response","216","253663","0.0-216.0","36W0OB37HX0JRCTX0HOV1JRE7JSHZA","A1EIKIHK12UDP0","3RBI0I35XEP26UEZY8S8UZLEA1IY3E","","886.8999999985099","img/land4.png","74","889.1999999955297","1","1","1","2","0.8,0.2,0.2,0.2,0.8,0.2,0.2,0.2,0.8","0.8,0.2,0.2,0.2,0.8,0.2,0.2,0.2,0.8","1","",""
"","html-keyboard-response","217","253966","0.0-217.0","36W0OB37HX0JRCTX0HOV1JRE7JSHZA","A1EIKIHK12UDP0","3RBI0I35XEP26UEZY8S8UZLEA1IY3E","","null","<img src=""img/land4.png"" style=""width:200px; border:14px solid green;"">","null","","","","","","","","","",""
"","image-keyboard-response","218","254702","0.0-218.0","36W0OB37HX0JRCTX0HOV1JRE7JSHZA","A1EIKIHK12UDP0","3RBI0I35XEP26UEZY8S8UZLEA1IY3E","","732.0999999940395","img/land1.png","76","734.5999999940395","3","0","3","2","0.8,0.2,0.2,0.2,0.8,0.2,0.2,0.2,0.8","0.8,0.2,0.2,0.2,0.8,0.2,0.2,0.2,0.8","1","",""
"","html-keyboard-response","219","255005","0.0-219.0","36W0OB37HX0JRCTX0HOV1JRE7JSHZA","A1EIKIHK12UDP0","3RBI0I35XEP26UEZY8S8UZLEA1IY3E","","null","<img src=""img/land1.png"" style=""width:200px;border:14px solid red;"">","null","","","","","","","","","",""
"","image-keyboard-response","220","255797","0.0-220.0","36W0OB37HX0JRCTX0HOV1JRE7JSHZA","A1EIKIHK12UDP0","3RBI0I35XEP26UEZY8S8UZLEA1IY3E","","789.7000000029802","img/land4.png","74","792.3999999985099","1","1","1","2","0.8,0.2,0.2,0.2,0.8,0.2,0.2,0.2,0.8","0.8,0.2,0.2,0.2,0.8,0.2,0.2,0.2,0.8","1","",""
"","html-keyboard-response","221","256100","0.0-221.0","36W0OB37HX0JRCTX0HOV1JRE7JSHZA","A1EIKIHK12UDP0","3RBI0I35XEP26UEZY8S8UZLEA1IY3E","","null","<img src=""img/land4.png"" style=""width:200px; border:14px solid green;"">","null","","","","","","","","","",""
"","image-keyboard-response","222","256806","0.0-222.0","36W0OB37HX0JRCTX0HOV1JRE7JSHZA","A1EIKIHK12UDP0","3RBI0I35XEP26UEZY8S8UZLEA1IY3E","","702.8999999985099","img/land6.png","75","705.2000000029802","2","0","2","2","0.8,0.2,0.2,0.2,0.8,0.2,0.2,0.2,0.8","0.8,0.2,0.2,0.2,0.8,0.2,0.2,0.2,0.8","1","",""
"","html-keyboard-response","223","257108","0.0-223.0","36W0OB37HX0JRCTX0HOV1JRE7JSHZA","A1EIKIHK12UDP0","3RBI0I35XEP26UEZY8S8UZLEA1IY3E","","null","<img src=""img/land6.png"" style=""width:200px;border:14px solid red;"">","null","","","","","","","","","",""
"","image-keyboard-response","224","257779","0.0-224.0","36W0OB37HX0JRCTX0HOV1JRE7JSHZA","A1EIKIHK12UDP0","3RBI0I35XEP26UEZY8S8UZLEA1IY3E","","668.1999999955297","img/land6.png","75","669.7999999970198","2","1","2","2","0.8,0.2,0.2,0.2,0.8,0.2,0.2,0.2,0.8","0.8,0.2,0.2,0.2,0.8,0.2,0.2,0.2,0.8","1","",""
"","html-keyboard-response","225","258081","0.0-225.0","36W0OB37HX0JRCTX0HOV1JRE7JSHZA","A1EIKIHK12UDP0","3RBI0I35XEP26UEZY8S8UZLEA1IY3E","","null","<img src=""img/land6.png"" style=""width:200px; border:14px solid green;"">","null","","","","","","","","","",""
"","image-keyboard-response","226","258912","0.0-226.0","36W0OB37HX0JRCTX0HOV1JRE7JSHZA","A1EIKIHK12UDP0","3RBI0I35XEP26UEZY8S8UZLEA1IY3E","","828.5999999940395","img/land4.png","74","830.6999999955297","1","1","1","2","0.8,0.2,0.2,0.2,0.8,0.2,0.2,0.2,0.8","0.8,0.2,0.2,0.2,0.8,0.2,0.2,0.2,0.8","1","",""
"","html-keyboard-response","227","259215","0.0-227.0","36W0OB37HX0JRCTX0HOV1JRE7JSHZA","A1EIKIHK12UDP0","3RBI0I35XEP26UEZY8S8UZLEA1IY3E","","null","<img src=""img/land4.png"" style=""width:200px; border:14px solid green;"">","null","","","","","","","","","",""
"","image-keyboard-response","228","259938","0.0-228.0","36W0OB37HX0JRCTX0HOV1JRE7JSHZA","A1EIKIHK12UDP0","3RBI0I35XEP26UEZY8S8UZLEA1IY3E","","719.7000000029802","img/land4.png","74","722.5","1","1","1","2","0.8,0.2,0.2,0.2,0.8,0.2,0.2,0.2,0.8","0.8,0.2,0.2,0.2,0.8,0.2,0.2,0.2,0.8","1","",""
"","html-keyboard-response","229","260241","0.0-229.0","36W0OB37HX0JRCTX0HOV1JRE7JSHZA","A1EIKIHK12UDP0","3RBI0I35XEP26UEZY8S8UZLEA1IY3E","","null","<img src=""img/land4.png"" style=""width:200px; border:14px solid green;"">","null","","","","","","","","","",""
"","image-keyboard-response","230","260968","0.0-230.0","36W0OB37HX0JRCTX0HOV1JRE7JSHZA","A1EIKIHK12UDP0","3RBI0I35XEP26UEZY8S8UZLEA1IY3E","","724.1999999955297","img/land6.png","75","726.6000000014901","2","1","2","2","0.8,0.2,0.2,0.2,0.8,0.2,0.2,0.2,0.8","0.8,0.2,0.2,0.2,0.8,0.2,0.2,0.2,0.8","1","",""
"","html-keyboard-response","231","261270","0.0-231.0","36W0OB37HX0JRCTX0HOV1JRE7JSHZA","A1EIKIHK12UDP0","3RBI0I35XEP26UEZY8S8UZLEA1IY3E","","null","<img src=""img/land6.png"" style=""width:200px; border:14px solid green;"">","null","","","","","","","","","",""
"","image-keyboard-response","232","262499","0.0-232.0","36W0OB37HX0JRCTX0HOV1JRE7JSHZA","A1EIKIHK12UDP0","3RBI0I35XEP26UEZY8S8UZLEA1IY3E","","1225.6999999955297","img/land4.png","74","1228","1","1","1","2","0.8,0.2,0.2,0.2,0.8,0.2,0.2,0.2,0.8","0.8,0.2,0.2,0.2,0.8,0.2,0.2,0.2,0.8","1","",""
"","html-keyboard-response","233","262801","0.0-233.0","36W0OB37HX0JRCTX0HOV1JRE7JSHZA","A1EIKIHK12UDP0","3RBI0I35XEP26UEZY8S8UZLEA1IY3E","","null","<img src=""img/land4.png"" style=""width:200px; border:14px solid green;"">","null","","","","","","","","","",""
"","image-keyboard-response","234","263605","0.0-234.0","36W0OB37HX0JRCTX0HOV1JRE7JSHZA","A1EIKIHK12UDP0","3RBI0I35XEP26UEZY8S8UZLEA1IY3E","","801.8000000044703","img/land4.png","74","803.8999999985099","1","1","1","2","0.8,0.2,0.2,0.2,0.8,0.2,0.2,0.2,0.8","0.8,0.2,0.2,0.2,0.8,0.2,0.2,0.2,0.8","1","",""
"","html-keyboard-response","235","263908","0.0-235.0","36W0OB37HX0JRCTX0HOV1JRE7JSHZA","A1EIKIHK12UDP0","3RBI0I35XEP26UEZY8S8UZLEA1IY3E","","null","<img src=""img/land4.png"" style=""width:200px; border:14px solid green;"">","null","","","","","","","","","",""
"","image-keyboard-response","236","264603","0.0-236.0","36W0OB37HX0JRCTX0HOV1JRE7JSHZA","A1EIKIHK12UDP0","3RBI0I35XEP26UEZY8S8UZLEA1IY3E","","690.7999999970198","img/land4.png","74","693.3999999985099","1","1","1","2","0.8,0.2,0.2,0.2,0.8,0.2,0.2,0.2,0.8","0.8,0.2,0.2,0.2,0.8,0.2,0.2,0.2,0.8","1","",""
"","html-keyboard-response","237","264906","0.0-237.0","36W0OB37HX0JRCTX0HOV1JRE7JSHZA","A1EIKIHK12UDP0","3RBI0I35XEP26UEZY8S8UZLEA1IY3E","","null","<img src=""img/land4.png"" style=""width:200px; border:14px solid green;"">","null","","","","","","","","","",""
"","image-keyboard-response","238","265672","0.0-238.0","36W0OB37HX0JRCTX0HOV1JRE7JSHZA","A1EIKIHK12UDP0","3RBI0I35XEP26UEZY8S8UZLEA1IY3E","","763.5","img/land1.png","76","765.7000000029802","3","1","3","2","0.8,0.2,0.2,0.2,0.8,0.2,0.2,0.2,0.8","0.8,0.2,0.2,0.2,0.8,0.2,0.2,0.2,0.8","1","",""
"","html-keyboard-response","239","265975","0.0-239.0","36W0OB37HX0JRCTX0HOV1JRE7JSHZA","A1EIKIHK12UDP0","3RBI0I35XEP26UEZY8S8UZLEA1IY3E","","null","<img src=""img/land1.png"" style=""width:200px; border:14px solid green;"">","null","","","","","","","","","",""
"","image-keyboard-response","240","266687","0.0-240.0","36W0OB37HX0JRCTX0HOV1JRE7JSHZA","A1EIKIHK12UDP0","3RBI0I35XEP26UEZY8S8UZLEA1IY3E","","709.5","img/land4.png","74","711.6000000014901","1","1","1","2","0.8,0.2,0.2,0.2,0.8,0.2,0.2,0.2,0.8","0.8,0.2,0.2,0.2,0.8,0.2,0.2,0.2,0.8","1","",""
"","html-keyboard-response","241","266990","0.0-241.0","36W0OB37HX0JRCTX0HOV1JRE7JSHZA","A1EIKIHK12UDP0","3RBI0I35XEP26UEZY8S8UZLEA1IY3E","","null","<img src=""img/land4.png"" style=""width:200px; border:14px solid green;"">","null","","","","","","","","","",""
"","image-keyboard-response","242","267711","0.0-242.0","36W0OB37HX0JRCTX0HOV1JRE7JSHZA","A1EIKIHK12UDP0","3RBI0I35XEP26UEZY8S8UZLEA1IY3E","","718","img/land1.png","76","720.2999999970198","3","1","3","2","0.8,0.2,0.2,0.2,0.8,0.2,0.2,0.2,0.8","0.8,0.2,0.2,0.2,0.8,0.2,0.2,0.2,0.8","1","",""
"","html-keyboard-response","243","268013","0.0-243.0","36W0OB37HX0JRCTX0HOV1JRE7JSHZA","A1EIKIHK12UDP0","3RBI0I35XEP26UEZY8S8UZLEA1IY3E","","null","<img src=""img/land1.png"" style=""width:200px; border:14px solid green;"">","null","","","","","","","","","",""
"","image-keyboard-response","244","268740","0.0-244.0","36W0OB37HX0JRCTX0HOV1JRE7JSHZA","A1EIKIHK12UDP0","3RBI0I35XEP26UEZY8S8UZLEA1IY3E","","724.6000000014901","img/land4.png","74","726.4000000059605","1","1","1","2","0.8,0.2,0.2,0.2,0.8,0.2,0.2,0.2,0.8","0.8,0.2,0.2,0.2,0.8,0.2,0.2,0.2,0.8","1","",""
"","html-keyboard-response","245","269042","0.0-245.0","36W0OB37HX0JRCTX0HOV1JRE7JSHZA","A1EIKIHK12UDP0","3RBI0I35XEP26UEZY8S8UZLEA1IY3E","","null","<img src=""img/land4.png"" style=""width:200px; border:14px solid green;"">","null","","","","","","","","","",""
"","image-keyboard-response","246","269787","0.0-246.0","36W0OB37HX0JRCTX0HOV1JRE7JSHZA","A1EIKIHK12UDP0","3RBI0I35XEP26UEZY8S8UZLEA1IY3E","","742.7999999970198","img/land1.png","76","744.5","3","1","3","2","0.8,0.2,0.2,0.2,0.8,0.2,0.2,0.2,0.8","0.8,0.2,0.2,0.2,0.8,0.2,0.2,0.2,0.8","1","",""
"","html-keyboard-response","247","270091","0.0-247.0","36W0OB37HX0JRCTX0HOV1JRE7JSHZA","A1EIKIHK12UDP0","3RBI0I35XEP26UEZY8S8UZLEA1IY3E","","null","<img src=""img/land1.png"" style=""width:200px; border:14px solid green;"">","null","","","","","","","","","",""
"","image-keyboard-response","248","270814","0.0-248.0","36W0OB37HX0JRCTX0HOV1JRE7JSHZA","A1EIKIHK12UDP0","3RBI0I35XEP26UEZY8S8UZLEA1IY3E","","721.1999999955297","img/land6.png","75","722.8999999985099","2","1","2","2","0.8,0.2,0.2,0.2,0.8,0.2,0.2,0.2,0.8","0.8,0.2,0.2,0.2,0.8,0.2,0.2,0.2,0.8","1","",""
"","html-keyboard-response","249","271117","0.0-249.0","36W0OB37HX0JRCTX0HOV1JRE7JSHZA","A1EIKIHK12UDP0","3RBI0I35XEP26UEZY8S8UZLEA1IY3E","","null","<img src=""img/land6.png"" style=""width:200px; border:14px solid green;"">","null","","","","","","","","","",""
"","image-keyboard-response","250","271819","0.0-250.0","36W0OB37HX0JRCTX0HOV1JRE7JSHZA","A1EIKIHK12UDP0","3RBI0I35XEP26UEZY8S8UZLEA1IY3E","","699","img/land4.png","74","701.6999999955297","1","0","1","2","0.8,0.2,0.2,0.2,0.8,0.2,0.2,0.2,0.8","0.8,0.2,0.2,0.2,0.8,0.2,0.2,0.2,0.8","1","",""
"","html-keyboard-response","251","272122","0.0-251.0","36W0OB37HX0JRCTX0HOV1JRE7JSHZA","A1EIKIHK12UDP0","3RBI0I35XEP26UEZY8S8UZLEA1IY3E","","null","<img src=""img/land4.png"" style=""width:200px;border:14px solid red;"">","null","","","","","","","","","",""
"","image-keyboard-response","252","272930","0.0-252.0","36W0OB37HX0JRCTX0HOV1JRE7JSHZA","A1EIKIHK12UDP0","3RBI0I35XEP26UEZY8S8UZLEA1IY3E","","805.3999999985099","img/land4.png","74","807.3999999985099","1","1","1","2","0.8,0.2,0.2,0.2,0.8,0.2,0.2,0.2,0.8","0.8,0.2,0.2,0.2,0.8,0.2,0.2,0.2,0.8","1","",""
"","html-keyboard-response","253","273232","0.0-253.0","36W0OB37HX0JRCTX0HOV1JRE7JSHZA","A1EIKIHK12UDP0","3RBI0I35XEP26UEZY8S8UZLEA1IY3E","","null","<img src=""img/land4.png"" style=""width:200px; border:14px solid green;"">","null","","","","","","","","","",""
"","image-keyboard-response","254","273905","0.0-254.0","36W0OB37HX0JRCTX0HOV1JRE7JSHZA","A1EIKIHK12UDP0","3RBI0I35XEP26UEZY8S8UZLEA1IY3E","","670.1000000014901","img/land1.png","76","672.7999999970198","3","1","3","2","0.8,0.2,0.2,0.2,0.8,0.2,0.2,0.2,0.8","0.8,0.2,0.2,0.2,0.8,0.2,0.2,0.2,0.8","1","",""
"","html-keyboard-response","255","274209","0.0-255.0","36W0OB37HX0JRCTX0HOV1JRE7JSHZA","A1EIKIHK12UDP0","3RBI0I35XEP26UEZY8S8UZLEA1IY3E","","null","<img src=""img/land1.png"" style=""width:200px; border:14px solid green;"">","null","","","","","","","","","",""
"","image-keyboard-response","256","275034","0.0-256.0","36W0OB37HX0JRCTX0HOV1JRE7JSHZA","A1EIKIHK12UDP0","3RBI0I35XEP26UEZY8S8UZLEA1IY3E","","822.1000000014901","img/land4.png","74","824.7000000029802","1","1","1","2","0.8,0.2,0.2,0.2,0.8,0.2,0.2,0.2,0.8","0.8,0.2,0.2,0.2,0.8,0.2,0.2,0.2,0.8","1","",""
"","html-keyboard-response","257","275336","0.0-257.0","36W0OB37HX0JRCTX0HOV1JRE7JSHZA","A1EIKIHK12UDP0","3RBI0I35XEP26UEZY8S8UZLEA1IY3E","","null","<img src=""img/land4.png"" style=""width:200px; border:14px solid green;"">","null","","","","","","","","","",""
"","image-keyboard-response","258","276054","0.0-258.0","36W0OB37HX0JRCTX0HOV1JRE7JSHZA","A1EIKIHK12UDP0","3RBI0I35XEP26UEZY8S8UZLEA1IY3E","","715.7000000029802","img/land4.png","74","717.6999999955297","1","1","1","2","0.8,0.2,0.2,0.2,0.8,0.2,0.2,0.2,0.8","0.8,0.2,0.2,0.2,0.8,0.2,0.2,0.2,0.8","1","",""
"","html-keyboard-response","259","276356","0.0-259.0","36W0OB37HX0JRCTX0HOV1JRE7JSHZA","A1EIKIHK12UDP0","3RBI0I35XEP26UEZY8S8UZLEA1IY3E","","null","<img src=""img/land4.png"" style=""width:200px; border:14px solid green;"">","null","","","","","","","","","",""
"","image-keyboard-response","260","277137","0.0-260.0","36W0OB37HX0JRCTX0HOV1JRE7JSHZA","A1EIKIHK12UDP0","3RBI0I35XEP26UEZY8S8UZLEA1IY3E","","779","img/land4.png","74","781","1","1","1","2","0.8,0.2,0.2,0.2,0.8,0.2,0.2,0.2,0.8","0.8,0.2,0.2,0.2,0.8,0.2,0.2,0.2,0.8","1","",""
"","html-keyboard-response","261","277440","0.0-261.0","36W0OB37HX0JRCTX0HOV1JRE7JSHZA","A1EIKIHK12UDP0","3RBI0I35XEP26UEZY8S8UZLEA1IY3E","","null","<img src=""img/land4.png"" style=""width:200px; border:14px solid green;"">","null","","","","","","","","","",""
"","image-keyboard-response","262","278226","0.0-262.0","36W0OB37HX0JRCTX0HOV1JRE7JSHZA","A1EIKIHK12UDP0","3RBI0I35XEP26UEZY8S8UZLEA1IY3E","","783.6000000014901","img/land6.png","75","785.9000000059605","2","1","2","2","0.8,0.2,0.2,0.2,0.8,0.2,0.2,0.2,0.8","0.8,0.2,0.2,0.2,0.8,0.2,0.2,0.2,0.8","1","",""
"","html-keyboard-response","263","278529","0.0-263.0","36W0OB37HX0JRCTX0HOV1JRE7JSHZA","A1EIKIHK12UDP0","3RBI0I35XEP26UEZY8S8UZLEA1IY3E","","null","<img src=""img/land6.png"" style=""width:200px; border:14px solid green;"">","null","","","","","","","","","",""
"","image-keyboard-response","264","279276","0.0-264.0","36W0OB37HX0JRCTX0HOV1JRE7JSHZA","A1EIKIHK12UDP0","3RBI0I35XEP26UEZY8S8UZLEA1IY3E","","743.8999999985099","img/land4.png","74","746.2000000029802","1","1","1","2","0.8,0.2,0.2,0.2,0.8,0.2,0.2,0.2,0.8","0.8,0.2,0.2,0.2,0.8,0.2,0.2,0.2,0.8","1","",""
"","html-keyboard-response","265","279579","0.0-265.0","36W0OB37HX0JRCTX0HOV1JRE7JSHZA","A1EIKIHK12UDP0","3RBI0I35XEP26UEZY8S8UZLEA1IY3E","","null","<img src=""img/land4.png"" style=""width:200px; border:14px solid green;"">","null","","","","","","","","","",""
"","image-keyboard-response","266","280293","0.0-266.0","36W0OB37HX0JRCTX0HOV1JRE7JSHZA","A1EIKIHK12UDP0","3RBI0I35XEP26UEZY8S8UZLEA1IY3E","","710.7999999970198","img/land6.png","75","713.6000000014901","2","1","2","2","0.8,0.2,0.2,0.2,0.8,0.2,0.2,0.2,0.8","0.8,0.2,0.2,0.2,0.8,0.2,0.2,0.2,0.8","1","",""
"","html-keyboard-response","267","280596","0.0-267.0","36W0OB37HX0JRCTX0HOV1JRE7JSHZA","A1EIKIHK12UDP0","3RBI0I35XEP26UEZY8S8UZLEA1IY3E","","null","<img src=""img/land6.png"" style=""width:200px; border:14px solid green;"">","null","","","","","","","","","",""
"","image-keyboard-response","268","281333","0.0-268.0","36W0OB37HX0JRCTX0HOV1JRE7JSHZA","A1EIKIHK12UDP0","3RBI0I35XEP26UEZY8S8UZLEA1IY3E","","734.5999999940395","img/land4.png","74","736.2999999970198","1","1","1","2","0.8,0.2,0.2,0.2,0.8,0.2,0.2,0.2,0.8","0.8,0.2,0.2,0.2,0.8,0.2,0.2,0.2,0.8","1","",""
"","html-keyboard-response","269","281637","0.0-269.0","36W0OB37HX0JRCTX0HOV1JRE7JSHZA","A1EIKIHK12UDP0","3RBI0I35XEP26UEZY8S8UZLEA1IY3E","","null","<img src=""img/land4.png"" style=""width:200px; border:14px solid green;"">","null","","","","","","","","","",""
"","image-keyboard-response","270","282268","0.0-270.0","36W0OB37HX0JRCTX0HOV1JRE7JSHZA","A1EIKIHK12UDP0","3RBI0I35XEP26UEZY8S8UZLEA1IY3E","","626.8999999985099","img/land4.png","74","629.0999999940395","1","0","1","2","0.8,0.2,0.2,0.2,0.8,0.2,0.2,0.2,0.8","0.8,0.2,0.2,0.2,0.8,0.2,0.2,0.2,0.8","1","",""
"","html-keyboard-response","271","282570","0.0-271.0","36W0OB37HX0JRCTX0HOV1JRE7JSHZA","A1EIKIHK12UDP0","3RBI0I35XEP26UEZY8S8UZLEA1IY3E","","null","<img src=""img/land4.png"" style=""width:200px;border:14px solid red;"">","null","","","","","","","","","",""
"","image-keyboard-response","272","283228","0.0-272.0","36W0OB37HX0JRCTX0HOV1JRE7JSHZA","A1EIKIHK12UDP0","3RBI0I35XEP26UEZY8S8UZLEA1IY3E","","654.9000000059605","img/land4.png","74","657.3999999985099","1","1","1","2","0.8,0.2,0.2,0.2,0.8,0.2,0.2,0.2,0.8","0.8,0.2,0.2,0.2,0.8,0.2,0.2,0.2,0.8","1","",""
"","html-keyboard-response","273","283531","0.0-273.0","36W0OB37HX0JRCTX0HOV1JRE7JSHZA","A1EIKIHK12UDP0","3RBI0I35XEP26UEZY8S8UZLEA1IY3E","","null","<img src=""img/land4.png"" style=""width:200px; border:14px solid green;"">","null","","","","","","","","","",""
"","image-keyboard-response","274","284260","0.0-274.0","36W0OB37HX0JRCTX0HOV1JRE7JSHZA","A1EIKIHK12UDP0","3RBI0I35XEP26UEZY8S8UZLEA1IY3E","","727","img/land1.png","76","729.1000000014901","3","1","3","2","0.8,0.2,0.2,0.2,0.8,0.2,0.2,0.2,0.8","0.8,0.2,0.2,0.2,0.8,0.2,0.2,0.2,0.8","1","",""
"","html-keyboard-response","275","284563","0.0-275.0","36W0OB37HX0JRCTX0HOV1JRE7JSHZA","A1EIKIHK12UDP0","3RBI0I35XEP26UEZY8S8UZLEA1IY3E","","null","<img src=""img/land1.png"" style=""width:200px; border:14px solid green;"">","null","","","","","","","","","",""
"","image-keyboard-response","276","285206","0.0-276.0","36W0OB37HX0JRCTX0HOV1JRE7JSHZA","A1EIKIHK12UDP0","3RBI0I35XEP26UEZY8S8UZLEA1IY3E","","640.1999999955297","img/land1.png","76","643.2000000029802","3","1","3","2","0.8,0.2,0.2,0.2,0.8,0.2,0.2,0.2,0.8","0.8,0.2,0.2,0.2,0.8,0.2,0.2,0.2,0.8","1","",""
"","html-keyboard-response","277","285510","0.0-277.0","36W0OB37HX0JRCTX0HOV1JRE7JSHZA","A1EIKIHK12UDP0","3RBI0I35XEP26UEZY8S8UZLEA1IY3E","","null","<img src=""img/land1.png"" style=""width:200px; border:14px solid green;"">","null","","","","","","","","","",""
"","image-keyboard-response","278","286168","0.0-278.0","36W0OB37HX0JRCTX0HOV1JRE7JSHZA","A1EIKIHK12UDP0","3RBI0I35XEP26UEZY8S8UZLEA1IY3E","","656","img/land6.png","75","658","2","0","2","2","0.8,0.2,0.2,0.2,0.8,0.2,0.2,0.2,0.8","0.8,0.2,0.2,0.2,0.8,0.2,0.2,0.2,0.8","1","",""
"","html-keyboard-response","279","286471","0.0-279.0","36W0OB37HX0JRCTX0HOV1JRE7JSHZA","A1EIKIHK12UDP0","3RBI0I35XEP26UEZY8S8UZLEA1IY3E","","null","<img src=""img/land6.png"" style=""width:200px;border:14px solid red;"">","null","","","","","","","","","",""
"","image-keyboard-response","280","287380","0.0-280.0","36W0OB37HX0JRCTX0HOV1JRE7JSHZA","A1EIKIHK12UDP0","3RBI0I35XEP26UEZY8S8UZLEA1IY3E","","906.2999999970198","img/land4.png","74","909.2000000029802","1","0","1","2","0.8,0.2,0.2,0.2,0.8,0.2,0.2,0.2,0.8","0.8,0.2,0.2,0.2,0.8,0.2,0.2,0.2,0.8","1","",""
"","html-keyboard-response","281","287684","0.0-281.0","36W0OB37HX0JRCTX0HOV1JRE7JSHZA","A1EIKIHK12UDP0","3RBI0I35XEP26UEZY8S8UZLEA1IY3E","","null","<img src=""img/land4.png"" style=""width:200px;border:14px solid red;"">","null","","","","","","","","","",""
"","image-keyboard-response","282","288444","0.0-282.0","36W0OB37HX0JRCTX0HOV1JRE7JSHZA","A1EIKIHK12UDP0","3RBI0I35XEP26UEZY8S8UZLEA1IY3E","","757.8000000044703","img/land1.png","76","760.8999999985099","3","1","3","2","0.8,0.2,0.2,0.2,0.8,0.2,0.2,0.2,0.8","0.8,0.2,0.2,0.2,0.8,0.2,0.2,0.2,0.8","1","",""
"","html-keyboard-response","283","288747","0.0-283.0","36W0OB37HX0JRCTX0HOV1JRE7JSHZA","A1EIKIHK12UDP0","3RBI0I35XEP26UEZY8S8UZLEA1IY3E","","null","<img src=""img/land1.png"" style=""width:200px; border:14px solid green;"">","null","","","","","","","","","",""
"","image-keyboard-response","284","289433","0.0-284.0","36W0OB37HX0JRCTX0HOV1JRE7JSHZA","A1EIKIHK12UDP0","3RBI0I35XEP26UEZY8S8UZLEA1IY3E","","682.9000000059605","img/land4.png","74","685.5","1","1","1","2","0.8,0.2,0.2,0.2,0.8,0.2,0.2,0.2,0.8","0.8,0.2,0.2,0.2,0.8,0.2,0.2,0.2,0.8","1","",""
"","html-keyboard-response","285","289737","0.0-285.0","36W0OB37HX0JRCTX0HOV1JRE7JSHZA","A1EIKIHK12UDP0","3RBI0I35XEP26UEZY8S8UZLEA1IY3E","","null","<img src=""img/land4.png"" style=""width:200px; border:14px solid green;"">","null","","","","","","","","","",""
"","image-keyboard-response","286","290588","0.0-286.0","36W0OB37HX0JRCTX0HOV1JRE7JSHZA","A1EIKIHK12UDP0","3RBI0I35XEP26UEZY8S8UZLEA1IY3E","","848.8000000044703","img/land6.png","75","851","2","0","2","2","0.8,0.2,0.2,0.2,0.8,0.2,0.2,0.2,0.8","0.8,0.2,0.2,0.2,0.8,0.2,0.2,0.2,0.8","1","",""
"","html-keyboard-response","287","290891","0.0-287.0","36W0OB37HX0JRCTX0HOV1JRE7JSHZA","A1EIKIHK12UDP0","3RBI0I35XEP26UEZY8S8UZLEA1IY3E","","null","<img src=""img/land6.png"" style=""width:200px;border:14px solid red;"">","null","","","","","","","","","",""
"","image-keyboard-response","288","291664","0.0-288.0","36W0OB37HX0JRCTX0HOV1JRE7JSHZA","A1EIKIHK12UDP0","3RBI0I35XEP26UEZY8S8UZLEA1IY3E","","770.6000000014901","img/land4.png","74","772.6000000014901","1","1","1","2","0.8,0.2,0.2,0.2,0.8,0.2,0.2,0.2,0.8","0.8,0.2,0.2,0.2,0.8,0.2,0.2,0.2,0.8","1","",""
"","html-keyboard-response","289","291967","0.0-289.0","36W0OB37HX0JRCTX0HOV1JRE7JSHZA","A1EIKIHK12UDP0","3RBI0I35XEP26UEZY8S8UZLEA1IY3E","","null","<img src=""img/land4.png"" style=""width:200px; border:14px solid green;"">","null","","","","","","","","","",""
"","image-keyboard-response","290","292707","0.0-290.0","36W0OB37HX0JRCTX0HOV1JRE7JSHZA","A1EIKIHK12UDP0","3RBI0I35XEP26UEZY8S8UZLEA1IY3E","","735.8999999985099","img/land4.png","74","739.3999999985099","1","1","1","2","0.8,0.2,0.2,0.2,0.8,0.2,0.2,0.2,0.8","0.8,0.2,0.2,0.2,0.8,0.2,0.2,0.2,0.8","1","",""
"","html-keyboard-response","291","293010","0.0-291.0","36W0OB37HX0JRCTX0HOV1JRE7JSHZA","A1EIKIHK12UDP0","3RBI0I35XEP26UEZY8S8UZLEA1IY3E","","null","<img src=""img/land4.png"" style=""width:200px; border:14px solid green;"">","null","","","","","","","","","",""
"","image-keyboard-response","292","293749","0.0-292.0","36W0OB37HX0JRCTX0HOV1JRE7JSHZA","A1EIKIHK12UDP0","3RBI0I35XEP26UEZY8S8UZLEA1IY3E","","735.5","img/land4.png","74","738.7000000029802","1","1","1","2","0.8,0.2,0.2,0.2,0.8,0.2,0.2,0.2,0.8","0.8,0.2,0.2,0.2,0.8,0.2,0.2,0.2,0.8","1","",""
"","html-keyboard-response","293","294053","0.0-293.0","36W0OB37HX0JRCTX0HOV1JRE7JSHZA","A1EIKIHK12UDP0","3RBI0I35XEP26UEZY8S8UZLEA1IY3E","","null","<img src=""img/land4.png"" style=""width:200px; border:14px solid green;"">","null","","","","","","","","","",""
"","image-keyboard-response","294","294795","0.0-294.0","36W0OB37HX0JRCTX0HOV1JRE7JSHZA","A1EIKIHK12UDP0","3RBI0I35XEP26UEZY8S8UZLEA1IY3E","","740.2999999970198","img/land1.png","76","742.1999999955297","3","1","3","2","0.8,0.2,0.2,0.2,0.8,0.2,0.2,0.2,0.8","0.8,0.2,0.2,0.2,0.8,0.2,0.2,0.2,0.8","1","",""
"","html-keyboard-response","295","295099","0.0-295.0","36W0OB37HX0JRCTX0HOV1JRE7JSHZA","A1EIKIHK12UDP0","3RBI0I35XEP26UEZY8S8UZLEA1IY3E","","null","<img src=""img/land1.png"" style=""width:200px; border:14px solid green;"">","null","","","","","","","","","",""
"","image-keyboard-response","296","295815","0.0-296.0","36W0OB37HX0JRCTX0HOV1JRE7JSHZA","A1EIKIHK12UDP0","3RBI0I35XEP26UEZY8S8UZLEA1IY3E","","712.7999999970198","img/land1.png","76","715.1999999955297","3","1","3","2","0.8,0.2,0.2,0.2,0.8,0.2,0.2,0.2,0.8","0.8,0.2,0.2,0.2,0.8,0.2,0.2,0.2,0.8","1","",""
"","html-keyboard-response","297","296119","0.0-297.0","36W0OB37HX0JRCTX0HOV1JRE7JSHZA","A1EIKIHK12UDP0","3RBI0I35XEP26UEZY8S8UZLEA1IY3E","","null","<img src=""img/land1.png"" style=""width:200px; border:14px solid green;"">","null","","","","","","","","","",""
"","image-keyboard-response","298","296928","0.0-298.0","36W0OB37HX0JRCTX0HOV1JRE7JSHZA","A1EIKIHK12UDP0","3RBI0I35XEP26UEZY8S8UZLEA1IY3E","","806.6000000014901","img/land1.png","76","808.8999999985099","3","1","3","2","0.8,0.2,0.2,0.2,0.8,0.2,0.2,0.2,0.8","0.8,0.2,0.2,0.2,0.8,0.2,0.2,0.2,0.8","1","",""
"","html-keyboard-response","299","297231","0.0-299.0","36W0OB37HX0JRCTX0HOV1JRE7JSHZA","A1EIKIHK12UDP0","3RBI0I35XEP26UEZY8S8UZLEA1IY3E","","null","<img src=""img/land1.png"" style=""width:200px; border:14px solid green;"">","null","","","","","","","","","",""
"","image-keyboard-response","300","298001","0.0-300.0","36W0OB37HX0JRCTX0HOV1JRE7JSHZA","A1EIKIHK12UDP0","3RBI0I35XEP26UEZY8S8UZLEA1IY3E","","768.1000000014901","img/land4.png","74","769.7999999970198","1","1","1","2","0.8,0.2,0.2,0.2,0.8,0.2,0.2,0.2,0.8","0.8,0.2,0.2,0.2,0.8,0.2,0.2,0.2,0.8","1","",""
"","html-keyboard-response","301","298304","0.0-301.0","36W0OB37HX0JRCTX0HOV1JRE7JSHZA","A1EIKIHK12UDP0","3RBI0I35XEP26UEZY8S8UZLEA1IY3E","","null","<img src=""img/land4.png"" style=""width:200px; border:14px solid green;"">","null","","","","","","","","","",""
"","image-keyboard-response","302","299720","0.0-302.0","36W0OB37HX0JRCTX0HOV1JRE7JSHZA","A1EIKIHK12UDP0","3RBI0I35XEP26UEZY8S8UZLEA1IY3E","","1413.8999999985099","img/land3.png","75","1415.8999999985099","2","0","1","1","0.8,0.2,0.2,0.2,0.8,0.2,0.2,0.2,0.8","0.8,0.2,0.2,0.2,0.8,0.2,0.2,0.2,0.8","1","",""
"","html-keyboard-response","303","300024","0.0-303.0","36W0OB37HX0JRCTX0HOV1JRE7JSHZA","A1EIKIHK12UDP0","3RBI0I35XEP26UEZY8S8UZLEA1IY3E","","null","<img src=""img/land3.png"" style=""width:200px;border:14px solid red;"">","null","","","","","","","","","",""
"","image-keyboard-response","304","301406","0.0-304.0","36W0OB37HX0JRCTX0HOV1JRE7JSHZA","A1EIKIHK12UDP0","3RBI0I35XEP26UEZY8S8UZLEA1IY3E","","1380.5","img/land2.png","74","1382.5","1","0","2","1","0.8,0.2,0.2,0.2,0.8,0.2,0.2,0.2,0.8","0.8,0.2,0.2,0.2,0.8,0.2,0.2,0.2,0.8","1","",""
"","html-keyboard-response","305","301709","0.0-305.0","36W0OB37HX0JRCTX0HOV1JRE7JSHZA","A1EIKIHK12UDP0","3RBI0I35XEP26UEZY8S8UZLEA1IY3E","","null","<img src=""img/land2.png"" style=""width:200px;border:14px solid red;"">","null","","","","","","","","","",""
"","image-keyboard-response","306","303154","0.0-306.0","36W0OB37HX0JRCTX0HOV1JRE7JSHZA","A1EIKIHK12UDP0","3RBI0I35XEP26UEZY8S8UZLEA1IY3E","","1442.1000000014901","img/land5.png","76","1444.7000000029802","3","1","3","1","0.8,0.2,0.2,0.2,0.8,0.2,0.2,0.2,0.8","0.8,0.2,0.2,0.2,0.8,0.2,0.2,0.2,0.8","1","",""
"","html-keyboard-response","307","303457","0.0-307.0","36W0OB37HX0JRCTX0HOV1JRE7JSHZA","A1EIKIHK12UDP0","3RBI0I35XEP26UEZY8S8UZLEA1IY3E","","null","<img src=""img/land5.png"" style=""width:200px; border:14px solid green;"">","null","","","","","","","","","",""
"","image-keyboard-response","308","304497","0.0-308.0","36W0OB37HX0JRCTX0HOV1JRE7JSHZA","A1EIKIHK12UDP0","3RBI0I35XEP26UEZY8S8UZLEA1IY3E","","1037.5","img/land5.png","76","1040.1999999955297","3","1","3","1","0.8,0.2,0.2,0.2,0.8,0.2,0.2,0.2,0.8","0.8,0.2,0.2,0.2,0.8,0.2,0.2,0.2,0.8","1","",""
"","html-keyboard-response","309","304800","0.0-309.0","36W0OB37HX0JRCTX0HOV1JRE7JSHZA","A1EIKIHK12UDP0","3RBI0I35XEP26UEZY8S8UZLEA1IY3E","","null","<img src=""img/land5.png"" style=""width:200px; border:14px solid green;"">","null","","","","","","","","","",""
"","image-keyboard-response","310","305820","0.0-310.0","36W0OB37HX0JRCTX0HOV1JRE7JSHZA","A1EIKIHK12UDP0","3RBI0I35XEP26UEZY8S8UZLEA1IY3E","","1018","img/land3.png","76","1019.8999999985099","3","0","1","1","0.8,0.2,0.2,0.2,0.8,0.2,0.2,0.2,0.8","0.8,0.2,0.2,0.2,0.8,0.2,0.2,0.2,0.8","1","",""
"","html-keyboard-response","311","306124","0.0-311.0","36W0OB37HX0JRCTX0HOV1JRE7JSHZA","A1EIKIHK12UDP0","3RBI0I35XEP26UEZY8S8UZLEA1IY3E","","null","<img src=""img/land3.png"" style=""width:200px;border:14px solid red;"">","null","","","","","","","","","",""
"","image-keyboard-response","312","307159","0.0-312.0","36W0OB37HX0JRCTX0HOV1JRE7JSHZA","A1EIKIHK12UDP0","3RBI0I35XEP26UEZY8S8UZLEA1IY3E","","1032.3999999985099","img/land2.png","76","1034.4000000059605","3","0","2","1","0.8,0.2,0.2,0.2,0.8,0.2,0.2,0.2,0.8","0.8,0.2,0.2,0.2,0.8,0.2,0.2,0.2,0.8","1","",""
"","html-keyboard-response","313","307461","0.0-313.0","36W0OB37HX0JRCTX0HOV1JRE7JSHZA","A1EIKIHK12UDP0","3RBI0I35XEP26UEZY8S8UZLEA1IY3E","","null","<img src=""img/land2.png"" style=""width:200px;border:14px solid red;"">","null","","","","","","","","","",""
"","image-keyboard-response","314","308381","0.0-314.0","36W0OB37HX0JRCTX0HOV1JRE7JSHZA","A1EIKIHK12UDP0","3RBI0I35XEP26UEZY8S8UZLEA1IY3E","","917.8999999985099","img/land5.png","75","919.7999999970198","2","0","3","1","0.8,0.2,0.2,0.2,0.8,0.2,0.2,0.2,0.8","0.8,0.2,0.2,0.2,0.8,0.2,0.2,0.2,0.8","1","",""
"","html-keyboard-response","315","308684","0.0-315.0","36W0OB37HX0JRCTX0HOV1JRE7JSHZA","A1EIKIHK12UDP0","3RBI0I35XEP26UEZY8S8UZLEA1IY3E","","null","<img src=""img/land5.png"" style=""width:200px;border:14px solid red;"">","null","","","","","","","","","",""
"","image-keyboard-response","316","310428","0.0-316.0","36W0OB37HX0JRCTX0HOV1JRE7JSHZA","A1EIKIHK12UDP0","3RBI0I35XEP26UEZY8S8UZLEA1IY3E","","1742.1000000014901","img/land3.png","74","1744.1000000014901","1","1","1","1","0.8,0.2,0.2,0.2,0.8,0.2,0.2,0.2,0.8","0.8,0.2,0.2,0.2,0.8,0.2,0.2,0.2,0.8","1","",""
"","html-keyboard-response","317","310731","0.0-317.0","36W0OB37HX0JRCTX0HOV1JRE7JSHZA","A1EIKIHK12UDP0","3RBI0I35XEP26UEZY8S8UZLEA1IY3E","","null","<img src=""img/land3.png"" style=""width:200px; border:14px solid green;"">","null","","","","","","","","","",""
"","image-keyboard-response","318","311817","0.0-318.0","36W0OB37HX0JRCTX0HOV1JRE7JSHZA","A1EIKIHK12UDP0","3RBI0I35XEP26UEZY8S8UZLEA1IY3E","","1083.6000000014901","img/land3.png","74","1085.8999999985099","1","0","1","1","0.8,0.2,0.2,0.2,0.8,0.2,0.2,0.2,0.8","0.8,0.2,0.2,0.2,0.8,0.2,0.2,0.2,0.8","1","",""
"","html-keyboard-response","319","312120","0.0-319.0","36W0OB37HX0JRCTX0HOV1JRE7JSHZA","A1EIKIHK12UDP0","3RBI0I35XEP26UEZY8S8UZLEA1IY3E","","null","<img src=""img/land3.png"" style=""width:200px;border:14px solid red;"">","null","","","","","","","","","",""
"","image-keyboard-response","320","313809","0.0-320.0","36W0OB37HX0JRCTX0HOV1JRE7JSHZA","A1EIKIHK12UDP0","3RBI0I35XEP26UEZY8S8UZLEA1IY3E","","1686.8999999985099","img/land3.png","74","1689","1","1","1","1","0.8,0.2,0.2,0.2,0.8,0.2,0.2,0.2,0.8","0.8,0.2,0.2,0.2,0.8,0.2,0.2,0.2,0.8","1","",""
"","html-keyboard-response","321","314112","0.0-321.0","36W0OB37HX0JRCTX0HOV1JRE7JSHZA","A1EIKIHK12UDP0","3RBI0I35XEP26UEZY8S8UZLEA1IY3E","","null","<img src=""img/land3.png"" style=""width:200px; border:14px solid green;"">","null","","","","","","","","","",""
"","image-keyboard-response","322","315438","0.0-322.0","36W0OB37HX0JRCTX0HOV1JRE7JSHZA","A1EIKIHK12UDP0","3RBI0I35XEP26UEZY8S8UZLEA1IY3E","","1323.8999999985099","img/land5.png","75","1326","2","1","3","1","0.8,0.2,0.2,0.2,0.8,0.2,0.2,0.2,0.8","0.8,0.2,0.2,0.2,0.8,0.2,0.2,0.2,0.8","1","",""
"","html-keyboard-response","323","315741","0.0-323.0","36W0OB37HX0JRCTX0HOV1JRE7JSHZA","A1EIKIHK12UDP0","3RBI0I35XEP26UEZY8S8UZLEA1IY3E","","null","<img src=""img/land5.png"" style=""width:200px; border:14px solid green;"">","null","","","","","","","","","",""
"","image-keyboard-response","324","317221","0.0-324.0","36W0OB37HX0JRCTX0HOV1JRE7JSHZA","A1EIKIHK12UDP0","3RBI0I35XEP26UEZY8S8UZLEA1IY3E","","1477.4000000059605","img/land2.png","76","1479.5","3","0","2","1","0.8,0.2,0.2,0.2,0.8,0.2,0.2,0.2,0.8","0.8,0.2,0.2,0.2,0.8,0.2,0.2,0.2,0.8","1","",""
"","html-keyboard-response","325","317523","0.0-325.0","36W0OB37HX0JRCTX0HOV1JRE7JSHZA","A1EIKIHK12UDP0","3RBI0I35XEP26UEZY8S8UZLEA1IY3E","","null","<img src=""img/land2.png"" style=""width:200px;border:14px solid red;"">","null","","","","","","","","","",""
"","image-keyboard-response","326","318722","0.0-326.0","36W0OB37HX0JRCTX0HOV1JRE7JSHZA","A1EIKIHK12UDP0","3RBI0I35XEP26UEZY8S8UZLEA1IY3E","","1196.6000000014901","img/land2.png","75","1198.7000000029802","2","1","2","1","0.8,0.2,0.2,0.2,0.8,0.2,0.2,0.2,0.8","0.8,0.2,0.2,0.2,0.8,0.2,0.2,0.2,0.8","1","",""
"","html-keyboard-response","327","319025","0.0-327.0","36W0OB37HX0JRCTX0HOV1JRE7JSHZA","A1EIKIHK12UDP0","3RBI0I35XEP26UEZY8S8UZLEA1IY3E","","null","<img src=""img/land2.png"" style=""width:200px; border:14px solid green;"">","null","","","","","","","","","",""
"","image-keyboard-response","328","319988","0.0-328.0","36W0OB37HX0JRCTX0HOV1JRE7JSHZA","A1EIKIHK12UDP0","3RBI0I35XEP26UEZY8S8UZLEA1IY3E","","960.7000000029802","img/land5.png","75","962.8999999985099","2","0","3","1","0.8,0.2,0.2,0.2,0.8,0.2,0.2,0.2,0.8","0.8,0.2,0.2,0.2,0.8,0.2,0.2,0.2,0.8","1","",""
"","html-keyboard-response","329","320292","0.0-329.0","36W0OB37HX0JRCTX0HOV1JRE7JSHZA","A1EIKIHK12UDP0","3RBI0I35XEP26UEZY8S8UZLEA1IY3E","","null","<img src=""img/land5.png"" style=""width:200px;border:14px solid red;"">","null","","","","","","","","","",""
"","image-keyboard-response","330","321492","0.0-330.0","36W0OB37HX0JRCTX0HOV1JRE7JSHZA","A1EIKIHK12UDP0","3RBI0I35XEP26UEZY8S8UZLEA1IY3E","","1196.7000000029802","img/land3.png","75","1199.1000000014901","2","0","1","1","0.8,0.2,0.2,0.2,0.8,0.2,0.2,0.2,0.8","0.8,0.2,0.2,0.2,0.8,0.2,0.2,0.2,0.8","1","",""
"","html-keyboard-response","331","321796","0.0-331.0","36W0OB37HX0JRCTX0HOV1JRE7JSHZA","A1EIKIHK12UDP0","3RBI0I35XEP26UEZY8S8UZLEA1IY3E","","null","<img src=""img/land3.png"" style=""width:200px;border:14px solid red;"">","null","","","","","","","","","",""
"","image-keyboard-response","332","322816","0.0-332.0","36W0OB37HX0JRCTX0HOV1JRE7JSHZA","A1EIKIHK12UDP0","3RBI0I35XEP26UEZY8S8UZLEA1IY3E","","1017.7999999970198","img/land2.png","75","1019.9000000059605","2","1","2","1","0.8,0.2,0.2,0.2,0.8,0.2,0.2,0.2,0.8","0.8,0.2,0.2,0.2,0.8,0.2,0.2,0.2,0.8","1","",""
"","html-keyboard-response","333","323118","0.0-333.0","36W0OB37HX0JRCTX0HOV1JRE7JSHZA","A1EIKIHK12UDP0","3RBI0I35XEP26UEZY8S8UZLEA1IY3E","","null","<img src=""img/land2.png"" style=""width:200px; border:14px solid green;"">","null","","","","","","","","","",""
"","image-keyboard-response","334","324083","0.0-334.0","36W0OB37HX0JRCTX0HOV1JRE7JSHZA","A1EIKIHK12UDP0","3RBI0I35XEP26UEZY8S8UZLEA1IY3E","","960.8999999985099","img/land3.png","74","964","1","1","1","1","0.8,0.2,0.2,0.2,0.8,0.2,0.2,0.2,0.8","0.8,0.2,0.2,0.2,0.8,0.2,0.2,0.2,0.8","1","",""
"","html-keyboard-response","335","324385","0.0-335.0","36W0OB37HX0JRCTX0HOV1JRE7JSHZA","A1EIKIHK12UDP0","3RBI0I35XEP26UEZY8S8UZLEA1IY3E","","null","<img src=""img/land3.png"" style=""width:200px; border:14px solid green;"">","null","","","","","","","","","",""
"","image-keyboard-response","336","325422","0.0-336.0","36W0OB37HX0JRCTX0HOV1JRE7JSHZA","A1EIKIHK12UDP0","3RBI0I35XEP26UEZY8S8UZLEA1IY3E","","1034.7000000029802","img/land2.png","75","1036.7999999970198","2","1","2","1","0.8,0.2,0.2,0.2,0.8,0.2,0.2,0.2,0.8","0.8,0.2,0.2,0.2,0.8,0.2,0.2,0.2,0.8","1","",""
"","html-keyboard-response","337","325725","0.0-337.0","36W0OB37HX0JRCTX0HOV1JRE7JSHZA","A1EIKIHK12UDP0","3RBI0I35XEP26UEZY8S8UZLEA1IY3E","","null","<img src=""img/land2.png"" style=""width:200px; border:14px solid green;"">","null","","","","","","","","","",""
"","image-keyboard-response","338","326730","0.0-338.0","36W0OB37HX0JRCTX0HOV1JRE7JSHZA","A1EIKIHK12UDP0","3RBI0I35XEP26UEZY8S8UZLEA1IY3E","","1002.6999999955297","img/land2.png","75","1004.7000000029802","2","1","2","1","0.8,0.2,0.2,0.2,0.8,0.2,0.2,0.2,0.8","0.8,0.2,0.2,0.2,0.8,0.2,0.2,0.2,0.8","1","",""
"","html-keyboard-response","339","327033","0.0-339.0","36W0OB37HX0JRCTX0HOV1JRE7JSHZA","A1EIKIHK12UDP0","3RBI0I35XEP26UEZY8S8UZLEA1IY3E","","null","<img src=""img/land2.png"" style=""width:200px; border:14px solid green;"">","null","","","","","","","","","",""
"","image-keyboard-response","340","328269","0.0-340.0","36W0OB37HX0JRCTX0HOV1JRE7JSHZA","A1EIKIHK12UDP0","3RBI0I35XEP26UEZY8S8UZLEA1IY3E","","1234.2999999970198","img/land3.png","74","1237.1000000014901","1","0","1","1","0.8,0.2,0.2,0.2,0.8,0.2,0.2,0.2,0.8","0.8,0.2,0.2,0.2,0.8,0.2,0.2,0.2,0.8","1","",""
"","html-keyboard-response","341","328574","0.0-341.0","36W0OB37HX0JRCTX0HOV1JRE7JSHZA","A1EIKIHK12UDP0","3RBI0I35XEP26UEZY8S8UZLEA1IY3E","","null","<img src=""img/land3.png"" style=""width:200px;border:14px solid red;"">","null","","","","","","","","","",""
"","image-keyboard-response","342","329750","0.0-342.0","36W0OB37HX0JRCTX0HOV1JRE7JSHZA","A1EIKIHK12UDP0","3RBI0I35XEP26UEZY8S8UZLEA1IY3E","","1174.0999999940395","img/land2.png","75","1177.1999999955297","2","1","2","1","0.8,0.2,0.2,0.2,0.8,0.2,0.2,0.2,0.8","0.8,0.2,0.2,0.2,0.8,0.2,0.2,0.2,0.8","1","",""
"","html-keyboard-response","343","330054","0.0-343.0","36W0OB37HX0JRCTX0HOV1JRE7JSHZA","A1EIKIHK12UDP0","3RBI0I35XEP26UEZY8S8UZLEA1IY3E","","null","<img src=""img/land2.png"" style=""width:200px; border:14px solid green;"">","null","","","","","","","","","",""
"","image-keyboard-response","344","331010","0.0-344.0","36W0OB37HX0JRCTX0HOV1JRE7JSHZA","A1EIKIHK12UDP0","3RBI0I35XEP26UEZY8S8UZLEA1IY3E","","953.3999999985099","img/land5.png","75","955.3999999985099","2","0","3","1","0.8,0.2,0.2,0.2,0.8,0.2,0.2,0.2,0.8","0.8,0.2,0.2,0.2,0.8,0.2,0.2,0.2,0.8","1","",""
"","html-keyboard-response","345","331313","0.0-345.0","36W0OB37HX0JRCTX0HOV1JRE7JSHZA","A1EIKIHK12UDP0","3RBI0I35XEP26UEZY8S8UZLEA1IY3E","","null","<img src=""img/land5.png"" style=""width:200px;border:14px solid red;"">","null","","","","","","","","","",""
"","image-keyboard-response","346","332518","0.0-346.0","36W0OB37HX0JRCTX0HOV1JRE7JSHZA","A1EIKIHK12UDP0","3RBI0I35XEP26UEZY8S8UZLEA1IY3E","","1202.5","img/land5.png","75","1204.3999999985099","2","0","3","1","0.8,0.2,0.2,0.2,0.8,0.2,0.2,0.2,0.8","0.8,0.2,0.2,0.2,0.8,0.2,0.2,0.2,0.8","1","",""
"","html-keyboard-response","347","332820","0.0-347.0","36W0OB37HX0JRCTX0HOV1JRE7JSHZA","A1EIKIHK12UDP0","3RBI0I35XEP26UEZY8S8UZLEA1IY3E","","null","<img src=""img/land5.png"" style=""width:200px;border:14px solid red;"">","null","","","","","","","","","",""
"","image-keyboard-response","348","334009","0.0-348.0","36W0OB37HX0JRCTX0HOV1JRE7JSHZA","A1EIKIHK12UDP0","3RBI0I35XEP26UEZY8S8UZLEA1IY3E","","1185.6000000014901","img/land5.png","76","1187.6000000014901","3","1","3","1","0.8,0.2,0.2,0.2,0.8,0.2,0.2,0.2,0.8","0.8,0.2,0.2,0.2,0.8,0.2,0.2,0.2,0.8","1","",""
"","html-keyboard-response","349","334312","0.0-349.0","36W0OB37HX0JRCTX0HOV1JRE7JSHZA","A1EIKIHK12UDP0","3RBI0I35XEP26UEZY8S8UZLEA1IY3E","","null","<img src=""img/land5.png"" style=""width:200px; border:14px solid green;"">","null","","","","","","","","","",""
"","image-keyboard-response","350","335900","0.0-350.0","36W0OB37HX0JRCTX0HOV1JRE7JSHZA","A1EIKIHK12UDP0","3RBI0I35XEP26UEZY8S8UZLEA1IY3E","","1585.5","img/land3.png","74","1587.5","1","0","1","1","0.8,0.2,0.2,0.2,0.8,0.2,0.2,0.2,0.8","0.8,0.2,0.2,0.2,0.8,0.2,0.2,0.2,0.8","1","",""
"","html-keyboard-response","351","336202","0.0-351.0","36W0OB37HX0JRCTX0HOV1JRE7JSHZA","A1EIKIHK12UDP0","3RBI0I35XEP26UEZY8S8UZLEA1IY3E","","null","<img src=""img/land3.png"" style=""width:200px;border:14px solid red;"">","null","","","","","","","","","",""
"","image-keyboard-response","352","337544","0.0-352.0","36W0OB37HX0JRCTX0HOV1JRE7JSHZA","A1EIKIHK12UDP0","3RBI0I35XEP26UEZY8S8UZLEA1IY3E","","1339.2000000029802","img/land2.png","74","1341.3000000044703","1","0","2","1","0.8,0.2,0.2,0.2,0.8,0.2,0.2,0.2,0.8","0.8,0.2,0.2,0.2,0.8,0.2,0.2,0.2,0.8","1","",""
