"success","trial_type","trial_index","time_elapsed","internal_node_id","assignmentID","mturkID","hitID","view_history","rt","stimulus","key_press","reactionTime","a","r","s","cond","reward_cond","reward_cond_actual","reward_matrix_idx","responses","question_order"
"true","fullscreen","0","6551","0.0-0.0","3TAYZSBPLMUIBA41M4RGIMO9VOQ2SU","A1F8MH33EFT5VQ","3L1EFR8WWTRIL5MKAR1UWRHK4IC9FJ","","","","","","","","","","","","","",""
"","instructions","1","82734","0.0-1.0","3TAYZSBPLMUIBA41M4RGIMO9VOQ2SU","A1F8MH33EFT5VQ","3L1EFR8WWTRIL5MKAR1UWRHK4IC9FJ","[{""page_index"":0,""viewing_time"":17441.699999999255},{""page_index"":1,""viewing_time"":8008.39999999851},{""page_index"":2,""viewing_time"":11195.699999999255},{""page_index"":3,""viewing_time"":11712.10000000149},{""page_index"":4,""viewing_time"":8899.699999999255},{""page_index"":5,""viewing_time"":9708.300000000745},{""page_index"":6,""viewing_time"":9215.89999999851}]","76182.5","","","","","","","","","","","",""
"","image-keyboard-response","2","84738","0.0-2.0","3TAYZSBPLMUIBA41M4RGIMO9VOQ2SU","A1F8MH33EFT5VQ","3L1EFR8WWTRIL5MKAR1UWRHK4IC9FJ","","","img/land3.png","","2003.699999999255","-1","0","1","1","0.8,0.2,0.2,0.2,0.8,0.2,0.2,0.2,0.8","0.8,0.2,0.2,0.2,0.8,0.2,0.2,0.2,0.8","1","",""
"","html-keyboard-response","3","85041","0.0-3.0","3TAYZSBPLMUIBA41M4RGIMO9VOQ2SU","A1F8MH33EFT5VQ","3L1EFR8WWTRIL5MKAR1UWRHK4IC9FJ","","null","<img src=""img/land3.png"" style=""width:200px;border:14px solid red;"">","null","","","","","","","","","",""
"","image-keyboard-response","4","87044","0.0-4.0","3TAYZSBPLMUIBA41M4RGIMO9VOQ2SU","A1F8MH33EFT5VQ","3L1EFR8WWTRIL5MKAR1UWRHK4IC9FJ","","","img/land4.png","","2002.7999999970198","-1","0","2","1","0.8,0.2,0.2,0.2,0.8,0.2,0.2,0.2,0.8","0.8,0.2,0.2,0.2,0.8,0.2,0.2,0.2,0.8","1","",""
"","html-keyboard-response","5","87347","0.0-5.0","3TAYZSBPLMUIBA41M4RGIMO9VOQ2SU","A1F8MH33EFT5VQ","3L1EFR8WWTRIL5MKAR1UWRHK4IC9FJ","","null","<img src=""img/land4.png"" style=""width:200px;border:14px solid red;"">","null","","","","","","","","","",""
"","image-keyboard-response","6","88023","0.0-6.0","3TAYZSBPLMUIBA41M4RGIMO9VOQ2SU","A1F8MH33EFT5VQ","3L1EFR8WWTRIL5MKAR1UWRHK4IC9FJ","","673.8999999985099","img/land1.png","74","675.4000000022352","1","0","3","1","0.8,0.2,0.2,0.2,0.8,0.2,0.2,0.2,0.8","0.8,0.2,0.2,0.2,0.8,0.2,0.2,0.2,0.8","1","",""
"","html-keyboard-response","7","88325","0.0-7.0","3TAYZSBPLMUIBA41M4RGIMO9VOQ2SU","A1F8MH33EFT5VQ","3L1EFR8WWTRIL5MKAR1UWRHK4IC9FJ","","null","<img src=""img/land1.png"" style=""width:200px;border:14px solid red;"">","null","","","","","","","","","",""
"","image-keyboard-response","8","89531","0.0-8.0","3TAYZSBPLMUIBA41M4RGIMO9VOQ2SU","A1F8MH33EFT5VQ","3L1EFR8WWTRIL5MKAR1UWRHK4IC9FJ","","1203.5999999977648","img/land1.png","74","1204.7999999970198","1","0","3","1","0.8,0.2,0.2,0.2,0.8,0.2,0.2,0.2,0.8","0.8,0.2,0.2,0.2,0.8,0.2,0.2,0.2,0.8","1","",""
"","html-keyboard-response","9","89833","0.0-9.0","3TAYZSBPLMUIBA41M4RGIMO9VOQ2SU","A1F8MH33EFT5VQ","3L1EFR8WWTRIL5MKAR1UWRHK4IC9FJ","","null","<img src=""img/land1.png"" style=""width:200px;border:14px solid red;"">","null","","","","","","","","","",""
"","image-keyboard-response","10","90789","0.0-10.0","3TAYZSBPLMUIBA41M4RGIMO9VOQ2SU","A1F8MH33EFT5VQ","3L1EFR8WWTRIL5MKAR1UWRHK4IC9FJ","","954.3999999985099","img/land4.png","74","956.1999999992549","1","0","2","1","0.8,0.2,0.2,0.2,0.8,0.2,0.2,0.2,0.8","0.8,0.2,0.2,0.2,0.8,0.2,0.2,0.2,0.8","1","",""
"","html-keyboard-response","11","91091","0.0-11.0","3TAYZSBPLMUIBA41M4RGIMO9VOQ2SU","A1F8MH33EFT5VQ","3L1EFR8WWTRIL5MKAR1UWRHK4IC9FJ","","null","<img src=""img/land4.png"" style=""width:200px;border:14px solid red;"">","null","","","","","","","","","",""
"","image-keyboard-response","12","91744","0.0-12.0","3TAYZSBPLMUIBA41M4RGIMO9VOQ2SU","A1F8MH33EFT5VQ","3L1EFR8WWTRIL5MKAR1UWRHK4IC9FJ","","650.8000000007451","img/land1.png","75","652.5","2","0","3","1","0.8,0.2,0.2,0.2,0.8,0.2,0.2,0.2,0.8","0.8,0.2,0.2,0.2,0.8,0.2,0.2,0.2,0.8","1","",""
"","html-keyboard-response","13","92046","0.0-13.0","3TAYZSBPLMUIBA41M4RGIMO9VOQ2SU","A1F8MH33EFT5VQ","3L1EFR8WWTRIL5MKAR1UWRHK4IC9FJ","","null","<img src=""img/land1.png"" style=""width:200px;border:14px solid red;"">","null","","","","","","","","","",""
"","image-keyboard-response","14","93311","0.0-14.0","3TAYZSBPLMUIBA41M4RGIMO9VOQ2SU","A1F8MH33EFT5VQ","3L1EFR8WWTRIL5MKAR1UWRHK4IC9FJ","","1263.300000000745","img/land1.png","74","1264.800000000745","1","0","3","1","0.8,0.2,0.2,0.2,0.8,0.2,0.2,0.2,0.8","0.8,0.2,0.2,0.2,0.8,0.2,0.2,0.2,0.8","1","",""
"","html-keyboard-response","15","93613","0.0-15.0","3TAYZSBPLMUIBA41M4RGIMO9VOQ2SU","A1F8MH33EFT5VQ","3L1EFR8WWTRIL5MKAR1UWRHK4IC9FJ","","null","<img src=""img/land1.png"" style=""width:200px;border:14px solid red;"">","null","","","","","","","","","",""
"","image-keyboard-response","16","94629","0.0-16.0","3TAYZSBPLMUIBA41M4RGIMO9VOQ2SU","A1F8MH33EFT5VQ","3L1EFR8WWTRIL5MKAR1UWRHK4IC9FJ","","1014","img/land4.png","76","1015.1999999992549","3","1","2","1","0.8,0.2,0.2,0.2,0.8,0.2,0.2,0.2,0.8","0.8,0.2,0.2,0.2,0.8,0.2,0.2,0.2,0.8","1","",""
"","html-keyboard-response","17","94931","0.0-17.0","3TAYZSBPLMUIBA41M4RGIMO9VOQ2SU","A1F8MH33EFT5VQ","3L1EFR8WWTRIL5MKAR1UWRHK4IC9FJ","","null","<img src=""img/land4.png"" style=""width:200px; border:14px solid green;"">","null","","","","","","","","","",""
"","image-keyboard-response","18","95868","0.0-18.0","3TAYZSBPLMUIBA41M4RGIMO9VOQ2SU","A1F8MH33EFT5VQ","3L1EFR8WWTRIL5MKAR1UWRHK4IC9FJ","","935.3000000007451","img/land4.png","75","936.8000000007451","2","1","2","1","0.8,0.2,0.2,0.2,0.8,0.2,0.2,0.2,0.8","0.8,0.2,0.2,0.2,0.8,0.2,0.2,0.2,0.8","1","",""
"","html-keyboard-response","19","96171","0.0-19.0","3TAYZSBPLMUIBA41M4RGIMO9VOQ2SU","A1F8MH33EFT5VQ","3L1EFR8WWTRIL5MKAR1UWRHK4IC9FJ","","null","<img src=""img/land4.png"" style=""width:200px; border:14px solid green;"">","null","","","","","","","","","",""
"","image-keyboard-response","20","96966","0.0-20.0","3TAYZSBPLMUIBA41M4RGIMO9VOQ2SU","A1F8MH33EFT5VQ","3L1EFR8WWTRIL5MKAR1UWRHK4IC9FJ","","794.5999999977648","img/land3.png","74","795.6000000014901","1","1","1","1","0.8,0.2,0.2,0.2,0.8,0.2,0.2,0.2,0.8","0.8,0.2,0.2,0.2,0.8,0.2,0.2,0.2,0.8","1","",""
"","html-keyboard-response","21","97268","0.0-21.0","3TAYZSBPLMUIBA41M4RGIMO9VOQ2SU","A1F8MH33EFT5VQ","3L1EFR8WWTRIL5MKAR1UWRHK4IC9FJ","","null","<img src=""img/land3.png"" style=""width:200px; border:14px solid green;"">","null","","","","","","","","","",""
"","image-keyboard-response","22","98181","0.0-22.0","3TAYZSBPLMUIBA41M4RGIMO9VOQ2SU","A1F8MH33EFT5VQ","3L1EFR8WWTRIL5MKAR1UWRHK4IC9FJ","","910.6999999992549","img/land1.png","75","912.1999999992549","2","0","3","1","0.8,0.2,0.2,0.2,0.8,0.2,0.2,0.2,0.8","0.8,0.2,0.2,0.2,0.8,0.2,0.2,0.2,0.8","1","",""
"","html-keyboard-response","23","98482","0.0-23.0","3TAYZSBPLMUIBA41M4RGIMO9VOQ2SU","A1F8MH33EFT5VQ","3L1EFR8WWTRIL5MKAR1UWRHK4IC9FJ","","null","<img src=""img/land1.png"" style=""width:200px;border:14px solid red;"">","null","","","","","","","","","",""
"","image-keyboard-response","24","99018","0.0-24.0","3TAYZSBPLMUIBA41M4RGIMO9VOQ2SU","A1F8MH33EFT5VQ","3L1EFR8WWTRIL5MKAR1UWRHK4IC9FJ","","534.3000000007451","img/land1.png","76","535.6000000014901","3","1","3","1","0.8,0.2,0.2,0.2,0.8,0.2,0.2,0.2,0.8","0.8,0.2,0.2,0.2,0.8,0.2,0.2,0.2,0.8","1","",""
"","html-keyboard-response","25","99320","0.0-25.0","3TAYZSBPLMUIBA41M4RGIMO9VOQ2SU","A1F8MH33EFT5VQ","3L1EFR8WWTRIL5MKAR1UWRHK4IC9FJ","","null","<img src=""img/land1.png"" style=""width:200px; border:14px solid green;"">","null","","","","","","","","","",""
"","image-keyboard-response","26","100153","0.0-26.0","3TAYZSBPLMUIBA41M4RGIMO9VOQ2SU","A1F8MH33EFT5VQ","3L1EFR8WWTRIL5MKAR1UWRHK4IC9FJ","","831.6999999992549","img/land1.png","76","832.9000000022352","3","1","3","1","0.8,0.2,0.2,0.2,0.8,0.2,0.2,0.2,0.8","0.8,0.2,0.2,0.2,0.8,0.2,0.2,0.2,0.8","1","",""
"","html-keyboard-response","27","100456","0.0-27.0","3TAYZSBPLMUIBA41M4RGIMO9VOQ2SU","A1F8MH33EFT5VQ","3L1EFR8WWTRIL5MKAR1UWRHK4IC9FJ","","null","<img src=""img/land1.png"" style=""width:200px; border:14px solid green;"">","null","","","","","","","","","",""
"","image-keyboard-response","28","101506","0.0-28.0","3TAYZSBPLMUIBA41M4RGIMO9VOQ2SU","A1F8MH33EFT5VQ","3L1EFR8WWTRIL5MKAR1UWRHK4IC9FJ","","1048.5","img/land1.png","76","1049.7999999970198","3","1","3","1","0.8,0.2,0.2,0.2,0.8,0.2,0.2,0.2,0.8","0.8,0.2,0.2,0.2,0.8,0.2,0.2,0.2,0.8","1","",""
"","html-keyboard-response","29","101808","0.0-29.0","3TAYZSBPLMUIBA41M4RGIMO9VOQ2SU","A1F8MH33EFT5VQ","3L1EFR8WWTRIL5MKAR1UWRHK4IC9FJ","","null","<img src=""img/land1.png"" style=""width:200px; border:14px solid green;"">","null","","","","","","","","","",""
"","image-keyboard-response","30","103064","0.0-30.0","3TAYZSBPLMUIBA41M4RGIMO9VOQ2SU","A1F8MH33EFT5VQ","3L1EFR8WWTRIL5MKAR1UWRHK4IC9FJ","","1255.199999999255","img/land3.png","75","1256.4000000022352","2","0","1","1","0.8,0.2,0.2,0.2,0.8,0.2,0.2,0.2,0.8","0.8,0.2,0.2,0.2,0.8,0.2,0.2,0.2,0.8","1","",""
"","html-keyboard-response","31","103366","0.0-31.0","3TAYZSBPLMUIBA41M4RGIMO9VOQ2SU","A1F8MH33EFT5VQ","3L1EFR8WWTRIL5MKAR1UWRHK4IC9FJ","","null","<img src=""img/land3.png"" style=""width:200px;border:14px solid red;"">","null","","","","","","","","","",""
"","image-keyboard-response","32","104308","0.0-32.0","3TAYZSBPLMUIBA41M4RGIMO9VOQ2SU","A1F8MH33EFT5VQ","3L1EFR8WWTRIL5MKAR1UWRHK4IC9FJ","","941","img/land4.png","75","941.9000000022352","2","1","2","1","0.8,0.2,0.2,0.2,0.8,0.2,0.2,0.2,0.8","0.8,0.2,0.2,0.2,0.8,0.2,0.2,0.2,0.8","1","",""
"","html-keyboard-response","33","104610","0.0-33.0","3TAYZSBPLMUIBA41M4RGIMO9VOQ2SU","A1F8MH33EFT5VQ","3L1EFR8WWTRIL5MKAR1UWRHK4IC9FJ","","null","<img src=""img/land4.png"" style=""width:200px; border:14px solid green;"">","null","","","","","","","","","",""
"","image-keyboard-response","34","105656","0.0-34.0","3TAYZSBPLMUIBA41M4RGIMO9VOQ2SU","A1F8MH33EFT5VQ","3L1EFR8WWTRIL5MKAR1UWRHK4IC9FJ","","1044.6000000014901","img/land3.png","74","1045.8999999985099","1","0","1","1","0.8,0.2,0.2,0.2,0.8,0.2,0.2,0.2,0.8","0.8,0.2,0.2,0.2,0.8,0.2,0.2,0.2,0.8","1","",""
"","html-keyboard-response","35","105958","0.0-35.0","3TAYZSBPLMUIBA41M4RGIMO9VOQ2SU","A1F8MH33EFT5VQ","3L1EFR8WWTRIL5MKAR1UWRHK4IC9FJ","","null","<img src=""img/land3.png"" style=""width:200px;border:14px solid red;"">","null","","","","","","","","","",""
"","image-keyboard-response","36","106834","0.0-36.0","3TAYZSBPLMUIBA41M4RGIMO9VOQ2SU","A1F8MH33EFT5VQ","3L1EFR8WWTRIL5MKAR1UWRHK4IC9FJ","","875.8999999985099","img/land1.png","76","876.6999999992549","3","0","3","1","0.8,0.2,0.2,0.2,0.8,0.2,0.2,0.2,0.8","0.8,0.2,0.2,0.2,0.8,0.2,0.2,0.2,0.8","1","",""
"","html-keyboard-response","37","107136","0.0-37.0","3TAYZSBPLMUIBA41M4RGIMO9VOQ2SU","A1F8MH33EFT5VQ","3L1EFR8WWTRIL5MKAR1UWRHK4IC9FJ","","null","<img src=""img/land1.png"" style=""width:200px;border:14px solid red;"">","null","","","","","","","","","",""
"","image-keyboard-response","38","107713","0.0-38.0","3TAYZSBPLMUIBA41M4RGIMO9VOQ2SU","A1F8MH33EFT5VQ","3L1EFR8WWTRIL5MKAR1UWRHK4IC9FJ","","575.6999999992549","img/land1.png","75","576.8000000007451","2","0","3","1","0.8,0.2,0.2,0.2,0.8,0.2,0.2,0.2,0.8","0.8,0.2,0.2,0.2,0.8,0.2,0.2,0.2,0.8","1","",""
"","html-keyboard-response","39","108016","0.0-39.0","3TAYZSBPLMUIBA41M4RGIMO9VOQ2SU","A1F8MH33EFT5VQ","3L1EFR8WWTRIL5MKAR1UWRHK4IC9FJ","","null","<img src=""img/land1.png"" style=""width:200px;border:14px solid red;"">","null","","","","","","","","","",""
"","image-keyboard-response","40","108873","0.0-40.0","3TAYZSBPLMUIBA41M4RGIMO9VOQ2SU","A1F8MH33EFT5VQ","3L1EFR8WWTRIL5MKAR1UWRHK4IC9FJ","","855.6000000014901","img/land3.png","74","856.6999999992549","1","1","1","1","0.8,0.2,0.2,0.2,0.8,0.2,0.2,0.2,0.8","0.8,0.2,0.2,0.2,0.8,0.2,0.2,0.2,0.8","1","",""
"","html-keyboard-response","41","109175","0.0-41.0","3TAYZSBPLMUIBA41M4RGIMO9VOQ2SU","A1F8MH33EFT5VQ","3L1EFR8WWTRIL5MKAR1UWRHK4IC9FJ","","null","<img src=""img/land3.png"" style=""width:200px; border:14px solid green;"">","null","","","","","","","","","",""
"","image-keyboard-response","42","110022","0.0-42.0","3TAYZSBPLMUIBA41M4RGIMO9VOQ2SU","A1F8MH33EFT5VQ","3L1EFR8WWTRIL5MKAR1UWRHK4IC9FJ","","845.5","img/land4.png","74","846.8000000007451","1","0","2","1","0.8,0.2,0.2,0.2,0.8,0.2,0.2,0.2,0.8","0.8,0.2,0.2,0.2,0.8,0.2,0.2,0.2,0.8","1","",""
"","html-keyboard-response","43","110325","0.0-43.0","3TAYZSBPLMUIBA41M4RGIMO9VOQ2SU","A1F8MH33EFT5VQ","3L1EFR8WWTRIL5MKAR1UWRHK4IC9FJ","","null","<img src=""img/land4.png"" style=""width:200px;border:14px solid red;"">","null","","","","","","","","","",""
"","image-keyboard-response","44","110981","0.0-44.0","3TAYZSBPLMUIBA41M4RGIMO9VOQ2SU","A1F8MH33EFT5VQ","3L1EFR8WWTRIL5MKAR1UWRHK4IC9FJ","","654.9000000022352","img/land1.png","75","656","2","0","3","1","0.8,0.2,0.2,0.2,0.8,0.2,0.2,0.2,0.8","0.8,0.2,0.2,0.2,0.8,0.2,0.2,0.2,0.8","1","",""
"","html-keyboard-response","45","111284","0.0-45.0","3TAYZSBPLMUIBA41M4RGIMO9VOQ2SU","A1F8MH33EFT5VQ","3L1EFR8WWTRIL5MKAR1UWRHK4IC9FJ","","null","<img src=""img/land1.png"" style=""width:200px;border:14px solid red;"">","null","","","","","","","","","",""
"","image-keyboard-response","46","111998","0.0-46.0","3TAYZSBPLMUIBA41M4RGIMO9VOQ2SU","A1F8MH33EFT5VQ","3L1EFR8WWTRIL5MKAR1UWRHK4IC9FJ","","712.1999999992549","img/land3.png","76","713.3000000007451","3","0","1","1","0.8,0.2,0.2,0.2,0.8,0.2,0.2,0.2,0.8","0.8,0.2,0.2,0.2,0.8,0.2,0.2,0.2,0.8","1","",""
"","html-keyboard-response","47","112299","0.0-47.0","3TAYZSBPLMUIBA41M4RGIMO9VOQ2SU","A1F8MH33EFT5VQ","3L1EFR8WWTRIL5MKAR1UWRHK4IC9FJ","","null","<img src=""img/land3.png"" style=""width:200px;border:14px solid red;"">","null","","","","","","","","","",""
"","image-keyboard-response","48","113687","0.0-48.0","3TAYZSBPLMUIBA41M4RGIMO9VOQ2SU","A1F8MH33EFT5VQ","3L1EFR8WWTRIL5MKAR1UWRHK4IC9FJ","","1386.5","img/land4.png","76","1387.800000000745","3","0","2","1","0.8,0.2,0.2,0.2,0.8,0.2,0.2,0.2,0.8","0.8,0.2,0.2,0.2,0.8,0.2,0.2,0.2,0.8","1","",""
"","html-keyboard-response","49","113989","0.0-49.0","3TAYZSBPLMUIBA41M4RGIMO9VOQ2SU","A1F8MH33EFT5VQ","3L1EFR8WWTRIL5MKAR1UWRHK4IC9FJ","","null","<img src=""img/land4.png"" style=""width:200px;border:14px solid red;"">","null","","","","","","","","","",""
"","image-keyboard-response","50","114875","0.0-50.0","3TAYZSBPLMUIBA41M4RGIMO9VOQ2SU","A1F8MH33EFT5VQ","3L1EFR8WWTRIL5MKAR1UWRHK4IC9FJ","","884.4000000022352","img/land1.png","75","885.8999999985099","2","0","3","1","0.8,0.2,0.2,0.2,0.8,0.2,0.2,0.2,0.8","0.8,0.2,0.2,0.2,0.8,0.2,0.2,0.2,0.8","1","",""
"","html-keyboard-response","51","115177","0.0-51.0","3TAYZSBPLMUIBA41M4RGIMO9VOQ2SU","A1F8MH33EFT5VQ","3L1EFR8WWTRIL5MKAR1UWRHK4IC9FJ","","null","<img src=""img/land1.png"" style=""width:200px;border:14px solid red;"">","null","","","","","","","","","",""
"","image-keyboard-response","52","116359","0.0-52.0","3TAYZSBPLMUIBA41M4RGIMO9VOQ2SU","A1F8MH33EFT5VQ","3L1EFR8WWTRIL5MKAR1UWRHK4IC9FJ","","1180.699999999255","img/land3.png","74","1181.800000000745","1","1","1","1","0.8,0.2,0.2,0.2,0.8,0.2,0.2,0.2,0.8","0.8,0.2,0.2,0.2,0.8,0.2,0.2,0.2,0.8","1","",""
"","html-keyboard-response","53","116661","0.0-53.0","3TAYZSBPLMUIBA41M4RGIMO9VOQ2SU","A1F8MH33EFT5VQ","3L1EFR8WWTRIL5MKAR1UWRHK4IC9FJ","","null","<img src=""img/land3.png"" style=""width:200px; border:14px solid green;"">","null","","","","","","","","","",""
"","image-keyboard-response","54","117503","0.0-54.0","3TAYZSBPLMUIBA41M4RGIMO9VOQ2SU","A1F8MH33EFT5VQ","3L1EFR8WWTRIL5MKAR1UWRHK4IC9FJ","","839.9000000022352","img/land4.png","74","841","1","0","2","1","0.8,0.2,0.2,0.2,0.8,0.2,0.2,0.2,0.8","0.8,0.2,0.2,0.2,0.8,0.2,0.2,0.2,0.8","1","",""
"","html-keyboard-response","55","117805","0.0-55.0","3TAYZSBPLMUIBA41M4RGIMO9VOQ2SU","A1F8MH33EFT5VQ","3L1EFR8WWTRIL5MKAR1UWRHK4IC9FJ","","null","<img src=""img/land4.png"" style=""width:200px;border:14px solid red;"">","null","","","","","","","","","",""
"","image-keyboard-response","56","118386","0.0-56.0","3TAYZSBPLMUIBA41M4RGIMO9VOQ2SU","A1F8MH33EFT5VQ","3L1EFR8WWTRIL5MKAR1UWRHK4IC9FJ","","580","img/land4.png","75","580.9000000022352","2","1","2","1","0.8,0.2,0.2,0.2,0.8,0.2,0.2,0.2,0.8","0.8,0.2,0.2,0.2,0.8,0.2,0.2,0.2,0.8","1","",""
"","html-keyboard-response","57","118688","0.0-57.0","3TAYZSBPLMUIBA41M4RGIMO9VOQ2SU","A1F8MH33EFT5VQ","3L1EFR8WWTRIL5MKAR1UWRHK4IC9FJ","","null","<img src=""img/land4.png"" style=""width:200px; border:14px solid green;"">","null","","","","","","","","","",""
"","image-keyboard-response","58","119889","0.0-58.0","3TAYZSBPLMUIBA41M4RGIMO9VOQ2SU","A1F8MH33EFT5VQ","3L1EFR8WWTRIL5MKAR1UWRHK4IC9FJ","","1200.0999999977648","img/land4.png","75","1201.300000000745","2","1","2","1","0.8,0.2,0.2,0.2,0.8,0.2,0.2,0.2,0.8","0.8,0.2,0.2,0.2,0.8,0.2,0.2,0.2,0.8","1","",""
"","html-keyboard-response","59","120191","0.0-59.0","3TAYZSBPLMUIBA41M4RGIMO9VOQ2SU","A1F8MH33EFT5VQ","3L1EFR8WWTRIL5MKAR1UWRHK4IC9FJ","","null","<img src=""img/land4.png"" style=""width:200px; border:14px solid green;"">","null","","","","","","","","","",""
"","image-keyboard-response","60","121039","0.0-60.0","3TAYZSBPLMUIBA41M4RGIMO9VOQ2SU","A1F8MH33EFT5VQ","3L1EFR8WWTRIL5MKAR1UWRHK4IC9FJ","","845.6999999992549","img/land1.png","76","846.9000000022352","3","1","3","1","0.8,0.2,0.2,0.2,0.8,0.2,0.2,0.2,0.8","0.8,0.2,0.2,0.2,0.8,0.2,0.2,0.2,0.8","1","",""
"","html-keyboard-response","61","121341","0.0-61.0","3TAYZSBPLMUIBA41M4RGIMO9VOQ2SU","A1F8MH33EFT5VQ","3L1EFR8WWTRIL5MKAR1UWRHK4IC9FJ","","null","<img src=""img/land1.png"" style=""width:200px; border:14px solid green;"">","null","","","","","","","","","",""
"","image-keyboard-response","62","122311","0.0-62.0","3TAYZSBPLMUIBA41M4RGIMO9VOQ2SU","A1F8MH33EFT5VQ","3L1EFR8WWTRIL5MKAR1UWRHK4IC9FJ","","968.5999999977648","img/land3.png","74","969.3000000007451","1","1","1","1","0.8,0.2,0.2,0.2,0.8,0.2,0.2,0.2,0.8","0.8,0.2,0.2,0.2,0.8,0.2,0.2,0.2,0.8","1","",""
"","html-keyboard-response","63","122614","0.0-63.0","3TAYZSBPLMUIBA41M4RGIMO9VOQ2SU","A1F8MH33EFT5VQ","3L1EFR8WWTRIL5MKAR1UWRHK4IC9FJ","","null","<img src=""img/land3.png"" style=""width:200px; border:14px solid green;"">","null","","","","","","","","","",""
"","image-keyboard-response","64","123514","0.0-64.0","3TAYZSBPLMUIBA41M4RGIMO9VOQ2SU","A1F8MH33EFT5VQ","3L1EFR8WWTRIL5MKAR1UWRHK4IC9FJ","","899.1999999992549","img/land4.png","75","900.4000000022352","2","1","2","1","0.8,0.2,0.2,0.2,0.8,0.2,0.2,0.2,0.8","0.8,0.2,0.2,0.2,0.8,0.2,0.2,0.2,0.8","1","",""
"","html-keyboard-response","65","123816","0.0-65.0","3TAYZSBPLMUIBA41M4RGIMO9VOQ2SU","A1F8MH33EFT5VQ","3L1EFR8WWTRIL5MKAR1UWRHK4IC9FJ","","null","<img src=""img/land4.png"" style=""width:200px; border:14px solid green;"">","null","","","","","","","","","",""
"","image-keyboard-response","66","124439","0.0-66.0","3TAYZSBPLMUIBA41M4RGIMO9VOQ2SU","A1F8MH33EFT5VQ","3L1EFR8WWTRIL5MKAR1UWRHK4IC9FJ","","621.1999999992549","img/land1.png","76","622.4000000022352","3","1","3","1","0.8,0.2,0.2,0.2,0.8,0.2,0.2,0.2,0.8","0.8,0.2,0.2,0.2,0.8,0.2,0.2,0.2,0.8","1","",""
"","html-keyboard-response","67","124741","0.0-67.0","3TAYZSBPLMUIBA41M4RGIMO9VOQ2SU","A1F8MH33EFT5VQ","3L1EFR8WWTRIL5MKAR1UWRHK4IC9FJ","","null","<img src=""img/land1.png"" style=""width:200px; border:14px solid green;"">","null","","","","","","","","","",""
"","image-keyboard-response","68","125617","0.0-68.0","3TAYZSBPLMUIBA41M4RGIMO9VOQ2SU","A1F8MH33EFT5VQ","3L1EFR8WWTRIL5MKAR1UWRHK4IC9FJ","","874.7999999970198","img/land3.png","74","876","1","1","1","1","0.8,0.2,0.2,0.2,0.8,0.2,0.2,0.2,0.8","0.8,0.2,0.2,0.2,0.8,0.2,0.2,0.2,0.8","1","",""
"","html-keyboard-response","69","125919","0.0-69.0","3TAYZSBPLMUIBA41M4RGIMO9VOQ2SU","A1F8MH33EFT5VQ","3L1EFR8WWTRIL5MKAR1UWRHK4IC9FJ","","null","<img src=""img/land3.png"" style=""width:200px; border:14px solid green;"">","null","","","","","","","","","",""
"","image-keyboard-response","70","126781","0.0-70.0","3TAYZSBPLMUIBA41M4RGIMO9VOQ2SU","A1F8MH33EFT5VQ","3L1EFR8WWTRIL5MKAR1UWRHK4IC9FJ","","860.1000000014901","img/land1.png","76","861.3999999985099","3","1","3","1","0.8,0.2,0.2,0.2,0.8,0.2,0.2,0.2,0.8","0.8,0.2,0.2,0.2,0.8,0.2,0.2,0.2,0.8","1","",""
"","html-keyboard-response","71","127084","0.0-71.0","3TAYZSBPLMUIBA41M4RGIMO9VOQ2SU","A1F8MH33EFT5VQ","3L1EFR8WWTRIL5MKAR1UWRHK4IC9FJ","","null","<img src=""img/land1.png"" style=""width:200px; border:14px solid green;"">","null","","","","","","","","","",""
"","image-keyboard-response","72","127891","0.0-72.0","3TAYZSBPLMUIBA41M4RGIMO9VOQ2SU","A1F8MH33EFT5VQ","3L1EFR8WWTRIL5MKAR1UWRHK4IC9FJ","","806.3999999985099","img/land1.png","76","807.4000000022352","3","1","3","1","0.8,0.2,0.2,0.2,0.8,0.2,0.2,0.2,0.8","0.8,0.2,0.2,0.2,0.8,0.2,0.2,0.2,0.8","1","",""
"","html-keyboard-response","73","128194","0.0-73.0","3TAYZSBPLMUIBA41M4RGIMO9VOQ2SU","A1F8MH33EFT5VQ","3L1EFR8WWTRIL5MKAR1UWRHK4IC9FJ","","null","<img src=""img/land1.png"" style=""width:200px; border:14px solid green;"">","null","","","","","","","","","",""
"","image-keyboard-response","74","129043","0.0-74.0","3TAYZSBPLMUIBA41M4RGIMO9VOQ2SU","A1F8MH33EFT5VQ","3L1EFR8WWTRIL5MKAR1UWRHK4IC9FJ","","848.1000000014901","img/land1.png","76","849.4000000022352","3","1","3","1","0.8,0.2,0.2,0.2,0.8,0.2,0.2,0.2,0.8","0.8,0.2,0.2,0.2,0.8,0.2,0.2,0.2,0.8","1","",""
"","html-keyboard-response","75","129345","0.0-75.0","3TAYZSBPLMUIBA41M4RGIMO9VOQ2SU","A1F8MH33EFT5VQ","3L1EFR8WWTRIL5MKAR1UWRHK4IC9FJ","","null","<img src=""img/land1.png"" style=""width:200px; border:14px solid green;"">","null","","","","","","","","","",""
"","image-keyboard-response","76","130038","0.0-76.0","3TAYZSBPLMUIBA41M4RGIMO9VOQ2SU","A1F8MH33EFT5VQ","3L1EFR8WWTRIL5MKAR1UWRHK4IC9FJ","","690.7999999970198","img/land1.png","76","692.1000000014901","3","0","3","1","0.8,0.2,0.2,0.2,0.8,0.2,0.2,0.2,0.8","0.8,0.2,0.2,0.2,0.8,0.2,0.2,0.2,0.8","1","",""
"","html-keyboard-response","77","130339","0.0-77.0","3TAYZSBPLMUIBA41M4RGIMO9VOQ2SU","A1F8MH33EFT5VQ","3L1EFR8WWTRIL5MKAR1UWRHK4IC9FJ","","null","<img src=""img/land1.png"" style=""width:200px;border:14px solid red;"">","null","","","","","","","","","",""
"","image-keyboard-response","78","131126","0.0-78.0","3TAYZSBPLMUIBA41M4RGIMO9VOQ2SU","A1F8MH33EFT5VQ","3L1EFR8WWTRIL5MKAR1UWRHK4IC9FJ","","785.3999999985099","img/land4.png","75","786.6999999992549","2","0","2","1","0.8,0.2,0.2,0.2,0.8,0.2,0.2,0.2,0.8","0.8,0.2,0.2,0.2,0.8,0.2,0.2,0.2,0.8","1","",""
"","html-keyboard-response","79","131428","0.0-79.0","3TAYZSBPLMUIBA41M4RGIMO9VOQ2SU","A1F8MH33EFT5VQ","3L1EFR8WWTRIL5MKAR1UWRHK4IC9FJ","","null","<img src=""img/land4.png"" style=""width:200px;border:14px solid red;"">","null","","","","","","","","","",""
"","image-keyboard-response","80","132224","0.0-80.0","3TAYZSBPLMUIBA41M4RGIMO9VOQ2SU","A1F8MH33EFT5VQ","3L1EFR8WWTRIL5MKAR1UWRHK4IC9FJ","","794.8000000007451","img/land3.png","74","796","1","0","1","1","0.8,0.2,0.2,0.2,0.8,0.2,0.2,0.2,0.8","0.8,0.2,0.2,0.2,0.8,0.2,0.2,0.2,0.8","1","",""
"","html-keyboard-response","81","132526","0.0-81.0","3TAYZSBPLMUIBA41M4RGIMO9VOQ2SU","A1F8MH33EFT5VQ","3L1EFR8WWTRIL5MKAR1UWRHK4IC9FJ","","null","<img src=""img/land3.png"" style=""width:200px;border:14px solid red;"">","null","","","","","","","","","",""
"","image-keyboard-response","82","133498","0.0-82.0","3TAYZSBPLMUIBA41M4RGIMO9VOQ2SU","A1F8MH33EFT5VQ","3L1EFR8WWTRIL5MKAR1UWRHK4IC9FJ","","970.7999999970198","img/land1.png","76","972.0999999977648","3","1","3","1","0.8,0.2,0.2,0.2,0.8,0.2,0.2,0.2,0.8","0.8,0.2,0.2,0.2,0.8,0.2,0.2,0.2,0.8","1","",""
"","html-keyboard-response","83","133800","0.0-83.0","3TAYZSBPLMUIBA41M4RGIMO9VOQ2SU","A1F8MH33EFT5VQ","3L1EFR8WWTRIL5MKAR1UWRHK4IC9FJ","","null","<img src=""img/land1.png"" style=""width:200px; border:14px solid green;"">","null","","","","","","","","","",""
"","image-keyboard-response","84","134626","0.0-84.0","3TAYZSBPLMUIBA41M4RGIMO9VOQ2SU","A1F8MH33EFT5VQ","3L1EFR8WWTRIL5MKAR1UWRHK4IC9FJ","","824.5","img/land3.png","74","825.6999999992549","1","1","1","1","0.8,0.2,0.2,0.2,0.8,0.2,0.2,0.2,0.8","0.8,0.2,0.2,0.2,0.8,0.2,0.2,0.2,0.8","1","",""
"","html-keyboard-response","85","134928","0.0-85.0","3TAYZSBPLMUIBA41M4RGIMO9VOQ2SU","A1F8MH33EFT5VQ","3L1EFR8WWTRIL5MKAR1UWRHK4IC9FJ","","null","<img src=""img/land3.png"" style=""width:200px; border:14px solid green;"">","null","","","","","","","","","",""
"","image-keyboard-response","86","136380","0.0-86.0","3TAYZSBPLMUIBA41M4RGIMO9VOQ2SU","A1F8MH33EFT5VQ","3L1EFR8WWTRIL5MKAR1UWRHK4IC9FJ","","1450.800000000745","img/land3.png","76","1451.8999999985099","3","0","1","1","0.8,0.2,0.2,0.2,0.8,0.2,0.2,0.2,0.8","0.8,0.2,0.2,0.2,0.8,0.2,0.2,0.2,0.8","1","",""
"","html-keyboard-response","87","136682","0.0-87.0","3TAYZSBPLMUIBA41M4RGIMO9VOQ2SU","A1F8MH33EFT5VQ","3L1EFR8WWTRIL5MKAR1UWRHK4IC9FJ","","null","<img src=""img/land3.png"" style=""width:200px;border:14px solid red;"">","null","","","","","","","","","",""
"","image-keyboard-response","88","137828","0.0-88.0","3TAYZSBPLMUIBA41M4RGIMO9VOQ2SU","A1F8MH33EFT5VQ","3L1EFR8WWTRIL5MKAR1UWRHK4IC9FJ","","1144.8999999985099","img/land1.png","76","1146.0999999977648","3","1","3","1","0.8,0.2,0.2,0.2,0.8,0.2,0.2,0.2,0.8","0.8,0.2,0.2,0.2,0.8,0.2,0.2,0.2,0.8","1","",""
"","html-keyboard-response","89","138129","0.0-89.0","3TAYZSBPLMUIBA41M4RGIMO9VOQ2SU","A1F8MH33EFT5VQ","3L1EFR8WWTRIL5MKAR1UWRHK4IC9FJ","","null","<img src=""img/land1.png"" style=""width:200px; border:14px solid green;"">","null","","","","","","","","","",""
"","image-keyboard-response","90","138792","0.0-90.0","3TAYZSBPLMUIBA41M4RGIMO9VOQ2SU","A1F8MH33EFT5VQ","3L1EFR8WWTRIL5MKAR1UWRHK4IC9FJ","","661.1000000014901","img/land1.png","76","662.1999999992549","3","1","3","1","0.8,0.2,0.2,0.2,0.8,0.2,0.2,0.2,0.8","0.8,0.2,0.2,0.2,0.8,0.2,0.2,0.2,0.8","1","",""
"","html-keyboard-response","91","139095","0.0-91.0","3TAYZSBPLMUIBA41M4RGIMO9VOQ2SU","A1F8MH33EFT5VQ","3L1EFR8WWTRIL5MKAR1UWRHK4IC9FJ","","null","<img src=""img/land1.png"" style=""width:200px; border:14px solid green;"">","null","","","","","","","","","",""
"","image-keyboard-response","92","139776","0.0-92.0","3TAYZSBPLMUIBA41M4RGIMO9VOQ2SU","A1F8MH33EFT5VQ","3L1EFR8WWTRIL5MKAR1UWRHK4IC9FJ","","679.1999999992549","img/land3.png","74","680.3999999985099","1","1","1","1","0.8,0.2,0.2,0.2,0.8,0.2,0.2,0.2,0.8","0.8,0.2,0.2,0.2,0.8,0.2,0.2,0.2,0.8","1","",""
"","html-keyboard-response","93","140078","0.0-93.0","3TAYZSBPLMUIBA41M4RGIMO9VOQ2SU","A1F8MH33EFT5VQ","3L1EFR8WWTRIL5MKAR1UWRHK4IC9FJ","","null","<img src=""img/land3.png"" style=""width:200px; border:14px solid green;"">","null","","","","","","","","","",""
"","image-keyboard-response","94","140815","0.0-94.0","3TAYZSBPLMUIBA41M4RGIMO9VOQ2SU","A1F8MH33EFT5VQ","3L1EFR8WWTRIL5MKAR1UWRHK4IC9FJ","","735.5999999977648","img/land4.png","75","737","2","1","2","1","0.8,0.2,0.2,0.2,0.8,0.2,0.2,0.2,0.8","0.8,0.2,0.2,0.2,0.8,0.2,0.2,0.2,0.8","1","",""
"","html-keyboard-response","95","141117","0.0-95.0","3TAYZSBPLMUIBA41M4RGIMO9VOQ2SU","A1F8MH33EFT5VQ","3L1EFR8WWTRIL5MKAR1UWRHK4IC9FJ","","null","<img src=""img/land4.png"" style=""width:200px; border:14px solid green;"">","null","","","","","","","","","",""
"","image-keyboard-response","96","141813","0.0-96.0","3TAYZSBPLMUIBA41M4RGIMO9VOQ2SU","A1F8MH33EFT5VQ","3L1EFR8WWTRIL5MKAR1UWRHK4IC9FJ","","695.3000000007451","img/land3.png","74","696.3000000007451","1","1","1","1","0.8,0.2,0.2,0.2,0.8,0.2,0.2,0.2,0.8","0.8,0.2,0.2,0.2,0.8,0.2,0.2,0.2,0.8","1","",""
"","html-keyboard-response","97","142115","0.0-97.0","3TAYZSBPLMUIBA41M4RGIMO9VOQ2SU","A1F8MH33EFT5VQ","3L1EFR8WWTRIL5MKAR1UWRHK4IC9FJ","","null","<img src=""img/land3.png"" style=""width:200px; border:14px solid green;"">","null","","","","","","","","","",""
"","image-keyboard-response","98","143946","0.0-98.0","3TAYZSBPLMUIBA41M4RGIMO9VOQ2SU","A1F8MH33EFT5VQ","3L1EFR8WWTRIL5MKAR1UWRHK4IC9FJ","","1829.6000000014901","img/land4.png","75","1830.800000000745","2","1","2","1","0.8,0.2,0.2,0.2,0.8,0.2,0.2,0.2,0.8","0.8,0.2,0.2,0.2,0.8,0.2,0.2,0.2,0.8","1","",""
"","html-keyboard-response","99","144247","0.0-99.0","3TAYZSBPLMUIBA41M4RGIMO9VOQ2SU","A1F8MH33EFT5VQ","3L1EFR8WWTRIL5MKAR1UWRHK4IC9FJ","","null","<img src=""img/land4.png"" style=""width:200px; border:14px solid green;"">","null","","","","","","","","","",""
"","image-keyboard-response","100","144951","0.0-100.0","3TAYZSBPLMUIBA41M4RGIMO9VOQ2SU","A1F8MH33EFT5VQ","3L1EFR8WWTRIL5MKAR1UWRHK4IC9FJ","","701.6999999992549","img/land3.png","74","702.8000000007451","1","1","1","1","0.8,0.2,0.2,0.2,0.8,0.2,0.2,0.2,0.8","0.8,0.2,0.2,0.2,0.8,0.2,0.2,0.2,0.8","1","",""
"","html-keyboard-response","101","145253","0.0-101.0","3TAYZSBPLMUIBA41M4RGIMO9VOQ2SU","A1F8MH33EFT5VQ","3L1EFR8WWTRIL5MKAR1UWRHK4IC9FJ","","null","<img src=""img/land3.png"" style=""width:200px; border:14px solid green;"">","null","","","","","","","","","",""
"","image-keyboard-response","102","146078","0.0-102.0","3TAYZSBPLMUIBA41M4RGIMO9VOQ2SU","A1F8MH33EFT5VQ","3L1EFR8WWTRIL5MKAR1UWRHK4IC9FJ","","824","img/land1.png","76","825.0999999977648","3","1","3","1","0.8,0.2,0.2,0.2,0.8,0.2,0.2,0.2,0.8","0.8,0.2,0.2,0.2,0.8,0.2,0.2,0.2,0.8","1","",""
"","html-keyboard-response","103","146380","0.0-103.0","3TAYZSBPLMUIBA41M4RGIMO9VOQ2SU","A1F8MH33EFT5VQ","3L1EFR8WWTRIL5MKAR1UWRHK4IC9FJ","","null","<img src=""img/land1.png"" style=""width:200px; border:14px solid green;"">","null","","","","","","","","","",""
"","image-keyboard-response","104","147117","0.0-104.0","3TAYZSBPLMUIBA41M4RGIMO9VOQ2SU","A1F8MH33EFT5VQ","3L1EFR8WWTRIL5MKAR1UWRHK4IC9FJ","","735.6000000014901","img/land1.png","76","737","3","1","3","1","0.8,0.2,0.2,0.2,0.8,0.2,0.2,0.2,0.8","0.8,0.2,0.2,0.2,0.8,0.2,0.2,0.2,0.8","1","",""
"","html-keyboard-response","105","147419","0.0-105.0","3TAYZSBPLMUIBA41M4RGIMO9VOQ2SU","A1F8MH33EFT5VQ","3L1EFR8WWTRIL5MKAR1UWRHK4IC9FJ","","null","<img src=""img/land1.png"" style=""width:200px; border:14px solid green;"">","null","","","","","","","","","",""
"","image-keyboard-response","106","148081","0.0-106.0","3TAYZSBPLMUIBA41M4RGIMO9VOQ2SU","A1F8MH33EFT5VQ","3L1EFR8WWTRIL5MKAR1UWRHK4IC9FJ","","660.9000000022352","img/land3.png","74","662","1","1","1","1","0.8,0.2,0.2,0.2,0.8,0.2,0.2,0.2,0.8","0.8,0.2,0.2,0.2,0.8,0.2,0.2,0.2,0.8","1","",""
"","html-keyboard-response","107","148384","0.0-107.0","3TAYZSBPLMUIBA41M4RGIMO9VOQ2SU","A1F8MH33EFT5VQ","3L1EFR8WWTRIL5MKAR1UWRHK4IC9FJ","","null","<img src=""img/land3.png"" style=""width:200px; border:14px solid green;"">","null","","","","","","","","","",""
"","image-keyboard-response","108","149179","0.0-108.0","3TAYZSBPLMUIBA41M4RGIMO9VOQ2SU","A1F8MH33EFT5VQ","3L1EFR8WWTRIL5MKAR1UWRHK4IC9FJ","","794.3000000007451","img/land4.png","75","795.3999999985099","2","1","2","1","0.8,0.2,0.2,0.2,0.8,0.2,0.2,0.2,0.8","0.8,0.2,0.2,0.2,0.8,0.2,0.2,0.2,0.8","1","",""
"","html-keyboard-response","109","149481","0.0-109.0","3TAYZSBPLMUIBA41M4RGIMO9VOQ2SU","A1F8MH33EFT5VQ","3L1EFR8WWTRIL5MKAR1UWRHK4IC9FJ","","null","<img src=""img/land4.png"" style=""width:200px; border:14px solid green;"">","null","","","","","","","","","",""
"","image-keyboard-response","110","150229","0.0-110.0","3TAYZSBPLMUIBA41M4RGIMO9VOQ2SU","A1F8MH33EFT5VQ","3L1EFR8WWTRIL5MKAR1UWRHK4IC9FJ","","747","img/land1.png","76","748.1999999992549","3","1","3","1","0.8,0.2,0.2,0.2,0.8,0.2,0.2,0.2,0.8","0.8,0.2,0.2,0.2,0.8,0.2,0.2,0.2,0.8","1","",""
"","html-keyboard-response","111","150531","0.0-111.0","3TAYZSBPLMUIBA41M4RGIMO9VOQ2SU","A1F8MH33EFT5VQ","3L1EFR8WWTRIL5MKAR1UWRHK4IC9FJ","","null","<img src=""img/land1.png"" style=""width:200px; border:14px solid green;"">","null","","","","","","","","","",""
"","image-keyboard-response","112","151538","0.0-112.0","3TAYZSBPLMUIBA41M4RGIMO9VOQ2SU","A1F8MH33EFT5VQ","3L1EFR8WWTRIL5MKAR1UWRHK4IC9FJ","","1005","img/land3.png","74","1006.4000000022352","1","1","1","1","0.8,0.2,0.2,0.2,0.8,0.2,0.2,0.2,0.8","0.8,0.2,0.2,0.2,0.8,0.2,0.2,0.2,0.8","1","",""
"","html-keyboard-response","113","151840","0.0-113.0","3TAYZSBPLMUIBA41M4RGIMO9VOQ2SU","A1F8MH33EFT5VQ","3L1EFR8WWTRIL5MKAR1UWRHK4IC9FJ","","null","<img src=""img/land3.png"" style=""width:200px; border:14px solid green;"">","null","","","","","","","","","",""
"","image-keyboard-response","114","153369","0.0-114.0","3TAYZSBPLMUIBA41M4RGIMO9VOQ2SU","A1F8MH33EFT5VQ","3L1EFR8WWTRIL5MKAR1UWRHK4IC9FJ","","1528.300000000745","img/land4.png","75","1529.199999999255","2","1","2","1","0.8,0.2,0.2,0.2,0.8,0.2,0.2,0.2,0.8","0.8,0.2,0.2,0.2,0.8,0.2,0.2,0.2,0.8","1","",""
"","html-keyboard-response","115","153671","0.0-115.0","3TAYZSBPLMUIBA41M4RGIMO9VOQ2SU","A1F8MH33EFT5VQ","3L1EFR8WWTRIL5MKAR1UWRHK4IC9FJ","","null","<img src=""img/land4.png"" style=""width:200px; border:14px solid green;"">","null","","","","","","","","","",""
"","image-keyboard-response","116","154768","0.0-116.0","3TAYZSBPLMUIBA41M4RGIMO9VOQ2SU","A1F8MH33EFT5VQ","3L1EFR8WWTRIL5MKAR1UWRHK4IC9FJ","","1095.3999999985099","img/land4.png","75","1096.199999999255","2","1","2","1","0.8,0.2,0.2,0.2,0.8,0.2,0.2,0.2,0.8","0.8,0.2,0.2,0.2,0.8,0.2,0.2,0.2,0.8","1","",""
"","html-keyboard-response","117","155069","0.0-117.0","3TAYZSBPLMUIBA41M4RGIMO9VOQ2SU","A1F8MH33EFT5VQ","3L1EFR8WWTRIL5MKAR1UWRHK4IC9FJ","","null","<img src=""img/land4.png"" style=""width:200px; border:14px solid green;"">","null","","","","","","","","","",""
"","image-keyboard-response","118","155752","0.0-118.0","3TAYZSBPLMUIBA41M4RGIMO9VOQ2SU","A1F8MH33EFT5VQ","3L1EFR8WWTRIL5MKAR1UWRHK4IC9FJ","","681.0999999977648","img/land4.png","75","682.1000000014901","2","1","2","1","0.8,0.2,0.2,0.2,0.8,0.2,0.2,0.2,0.8","0.8,0.2,0.2,0.2,0.8,0.2,0.2,0.2,0.8","1","",""
"","html-keyboard-response","119","156053","0.0-119.0","3TAYZSBPLMUIBA41M4RGIMO9VOQ2SU","A1F8MH33EFT5VQ","3L1EFR8WWTRIL5MKAR1UWRHK4IC9FJ","","null","<img src=""img/land4.png"" style=""width:200px; border:14px solid green;"">","null","","","","","","","","","",""
"","image-keyboard-response","120","156681","0.0-120.0","3TAYZSBPLMUIBA41M4RGIMO9VOQ2SU","A1F8MH33EFT5VQ","3L1EFR8WWTRIL5MKAR1UWRHK4IC9FJ","","626.1000000014901","img/land3.png","74","626.8000000007451","1","1","1","1","0.8,0.2,0.2,0.2,0.8,0.2,0.2,0.2,0.8","0.8,0.2,0.2,0.2,0.8,0.2,0.2,0.2,0.8","1","",""
"","html-keyboard-response","121","156983","0.0-121.0","3TAYZSBPLMUIBA41M4RGIMO9VOQ2SU","A1F8MH33EFT5VQ","3L1EFR8WWTRIL5MKAR1UWRHK4IC9FJ","","null","<img src=""img/land3.png"" style=""width:200px; border:14px solid green;"">","null","","","","","","","","","",""
"","image-keyboard-response","122","157564","0.0-122.0","3TAYZSBPLMUIBA41M4RGIMO9VOQ2SU","A1F8MH33EFT5VQ","3L1EFR8WWTRIL5MKAR1UWRHK4IC9FJ","","580.3000000007451","img/land3.png","74","581.2000000029802","1","1","1","1","0.8,0.2,0.2,0.2,0.8,0.2,0.2,0.2,0.8","0.8,0.2,0.2,0.2,0.8,0.2,0.2,0.2,0.8","1","",""
"","html-keyboard-response","123","157865","0.0-123.0","3TAYZSBPLMUIBA41M4RGIMO9VOQ2SU","A1F8MH33EFT5VQ","3L1EFR8WWTRIL5MKAR1UWRHK4IC9FJ","","null","<img src=""img/land3.png"" style=""width:200px; border:14px solid green;"">","null","","","","","","","","","",""
"","image-keyboard-response","124","158594","0.0-124.0","3TAYZSBPLMUIBA41M4RGIMO9VOQ2SU","A1F8MH33EFT5VQ","3L1EFR8WWTRIL5MKAR1UWRHK4IC9FJ","","727.3000000007451","img/land4.png","75","729","2","1","2","1","0.8,0.2,0.2,0.2,0.8,0.2,0.2,0.2,0.8","0.8,0.2,0.2,0.2,0.8,0.2,0.2,0.2,0.8","1","",""
"","html-keyboard-response","125","158897","0.0-125.0","3TAYZSBPLMUIBA41M4RGIMO9VOQ2SU","A1F8MH33EFT5VQ","3L1EFR8WWTRIL5MKAR1UWRHK4IC9FJ","","null","<img src=""img/land4.png"" style=""width:200px; border:14px solid green;"">","null","","","","","","","","","",""
"","image-keyboard-response","126","159533","0.0-126.0","3TAYZSBPLMUIBA41M4RGIMO9VOQ2SU","A1F8MH33EFT5VQ","3L1EFR8WWTRIL5MKAR1UWRHK4IC9FJ","","634.8000000007451","img/land4.png","75","636","2","1","2","1","0.8,0.2,0.2,0.2,0.8,0.2,0.2,0.2,0.8","0.8,0.2,0.2,0.2,0.8,0.2,0.2,0.2,0.8","1","",""
"","html-keyboard-response","127","159835","0.0-127.0","3TAYZSBPLMUIBA41M4RGIMO9VOQ2SU","A1F8MH33EFT5VQ","3L1EFR8WWTRIL5MKAR1UWRHK4IC9FJ","","null","<img src=""img/land4.png"" style=""width:200px; border:14px solid green;"">","null","","","","","","","","","",""
"","image-keyboard-response","128","160456","0.0-128.0","3TAYZSBPLMUIBA41M4RGIMO9VOQ2SU","A1F8MH33EFT5VQ","3L1EFR8WWTRIL5MKAR1UWRHK4IC9FJ","","620.3999999985099","img/land3.png","74","621.0999999977648","1","1","1","1","0.8,0.2,0.2,0.2,0.8,0.2,0.2,0.2,0.8","0.8,0.2,0.2,0.2,0.8,0.2,0.2,0.2,0.8","1","",""
"","html-keyboard-response","129","160758","0.0-129.0","3TAYZSBPLMUIBA41M4RGIMO9VOQ2SU","A1F8MH33EFT5VQ","3L1EFR8WWTRIL5MKAR1UWRHK4IC9FJ","","null","<img src=""img/land3.png"" style=""width:200px; border:14px solid green;"">","null","","","","","","","","","",""
"","image-keyboard-response","130","161555","0.0-130.0","3TAYZSBPLMUIBA41M4RGIMO9VOQ2SU","A1F8MH33EFT5VQ","3L1EFR8WWTRIL5MKAR1UWRHK4IC9FJ","","795.3000000007451","img/land1.png","76","796.6000000014901","3","1","3","1","0.8,0.2,0.2,0.2,0.8,0.2,0.2,0.2,0.8","0.8,0.2,0.2,0.2,0.8,0.2,0.2,0.2,0.8","1","",""
"","html-keyboard-response","131","161857","0.0-131.0","3TAYZSBPLMUIBA41M4RGIMO9VOQ2SU","A1F8MH33EFT5VQ","3L1EFR8WWTRIL5MKAR1UWRHK4IC9FJ","","null","<img src=""img/land1.png"" style=""width:200px; border:14px solid green;"">","null","","","","","","","","","",""
"","image-keyboard-response","132","162419","0.0-132.0","3TAYZSBPLMUIBA41M4RGIMO9VOQ2SU","A1F8MH33EFT5VQ","3L1EFR8WWTRIL5MKAR1UWRHK4IC9FJ","","561.3000000007451","img/land3.png","74","562.4000000022352","1","1","1","1","0.8,0.2,0.2,0.2,0.8,0.2,0.2,0.2,0.8","0.8,0.2,0.2,0.2,0.8,0.2,0.2,0.2,0.8","1","",""
"","html-keyboard-response","133","162721","0.0-133.0","3TAYZSBPLMUIBA41M4RGIMO9VOQ2SU","A1F8MH33EFT5VQ","3L1EFR8WWTRIL5MKAR1UWRHK4IC9FJ","","null","<img src=""img/land3.png"" style=""width:200px; border:14px solid green;"">","null","","","","","","","","","",""
"","image-keyboard-response","134","163557","0.0-134.0","3TAYZSBPLMUIBA41M4RGIMO9VOQ2SU","A1F8MH33EFT5VQ","3L1EFR8WWTRIL5MKAR1UWRHK4IC9FJ","","835.3000000007451","img/land4.png","75","836.1000000014901","2","1","2","1","0.8,0.2,0.2,0.2,0.8,0.2,0.2,0.2,0.8","0.8,0.2,0.2,0.2,0.8,0.2,0.2,0.2,0.8","1","",""
"","html-keyboard-response","135","163859","0.0-135.0","3TAYZSBPLMUIBA41M4RGIMO9VOQ2SU","A1F8MH33EFT5VQ","3L1EFR8WWTRIL5MKAR1UWRHK4IC9FJ","","null","<img src=""img/land4.png"" style=""width:200px; border:14px solid green;"">","null","","","","","","","","","",""
"","image-keyboard-response","136","164557","0.0-136.0","3TAYZSBPLMUIBA41M4RGIMO9VOQ2SU","A1F8MH33EFT5VQ","3L1EFR8WWTRIL5MKAR1UWRHK4IC9FJ","","696.6000000014901","img/land4.png","75","697.6999999992549","2","1","2","1","0.8,0.2,0.2,0.2,0.8,0.2,0.2,0.2,0.8","0.8,0.2,0.2,0.2,0.8,0.2,0.2,0.2,0.8","1","",""
"","html-keyboard-response","137","164858","0.0-137.0","3TAYZSBPLMUIBA41M4RGIMO9VOQ2SU","A1F8MH33EFT5VQ","3L1EFR8WWTRIL5MKAR1UWRHK4IC9FJ","","null","<img src=""img/land4.png"" style=""width:200px; border:14px solid green;"">","null","","","","","","","","","",""
"","image-keyboard-response","138","165616","0.0-138.0","3TAYZSBPLMUIBA41M4RGIMO9VOQ2SU","A1F8MH33EFT5VQ","3L1EFR8WWTRIL5MKAR1UWRHK4IC9FJ","","757.5","img/land1.png","76","758.1000000014901","3","1","3","1","0.8,0.2,0.2,0.2,0.8,0.2,0.2,0.2,0.8","0.8,0.2,0.2,0.2,0.8,0.2,0.2,0.2,0.8","1","",""
"","html-keyboard-response","139","165922","0.0-139.0","3TAYZSBPLMUIBA41M4RGIMO9VOQ2SU","A1F8MH33EFT5VQ","3L1EFR8WWTRIL5MKAR1UWRHK4IC9FJ","","null","<img src=""img/land1.png"" style=""width:200px; border:14px solid green;"">","null","","","","","","","","","",""
"","image-keyboard-response","140","166584","0.0-140.0","3TAYZSBPLMUIBA41M4RGIMO9VOQ2SU","A1F8MH33EFT5VQ","3L1EFR8WWTRIL5MKAR1UWRHK4IC9FJ","","660.6999999992549","img/land1.png","76","662.0999999977648","3","1","3","1","0.8,0.2,0.2,0.2,0.8,0.2,0.2,0.2,0.8","0.8,0.2,0.2,0.2,0.8,0.2,0.2,0.2,0.8","1","",""
"","html-keyboard-response","141","166887","0.0-141.0","3TAYZSBPLMUIBA41M4RGIMO9VOQ2SU","A1F8MH33EFT5VQ","3L1EFR8WWTRIL5MKAR1UWRHK4IC9FJ","","null","<img src=""img/land1.png"" style=""width:200px; border:14px solid green;"">","null","","","","","","","","","",""
"","image-keyboard-response","142","167662","0.0-142.0","3TAYZSBPLMUIBA41M4RGIMO9VOQ2SU","A1F8MH33EFT5VQ","3L1EFR8WWTRIL5MKAR1UWRHK4IC9FJ","","773.9000000022352","img/land4.png","75","774.8000000007451","2","1","2","1","0.8,0.2,0.2,0.2,0.8,0.2,0.2,0.2,0.8","0.8,0.2,0.2,0.2,0.8,0.2,0.2,0.2,0.8","1","",""
"","html-keyboard-response","143","167965","0.0-143.0","3TAYZSBPLMUIBA41M4RGIMO9VOQ2SU","A1F8MH33EFT5VQ","3L1EFR8WWTRIL5MKAR1UWRHK4IC9FJ","","null","<img src=""img/land4.png"" style=""width:200px; border:14px solid green;"">","null","","","","","","","","","",""
"","image-keyboard-response","144","168711","0.0-144.0","3TAYZSBPLMUIBA41M4RGIMO9VOQ2SU","A1F8MH33EFT5VQ","3L1EFR8WWTRIL5MKAR1UWRHK4IC9FJ","","745.4000000022352","img/land1.png","76","746.3000000007451","3","1","3","1","0.8,0.2,0.2,0.2,0.8,0.2,0.2,0.2,0.8","0.8,0.2,0.2,0.2,0.8,0.2,0.2,0.2,0.8","1","",""
"","html-keyboard-response","145","169014","0.0-145.0","3TAYZSBPLMUIBA41M4RGIMO9VOQ2SU","A1F8MH33EFT5VQ","3L1EFR8WWTRIL5MKAR1UWRHK4IC9FJ","","null","<img src=""img/land1.png"" style=""width:200px; border:14px solid green;"">","null","","","","","","","","","",""
"","image-keyboard-response","146","169661","0.0-146.0","3TAYZSBPLMUIBA41M4RGIMO9VOQ2SU","A1F8MH33EFT5VQ","3L1EFR8WWTRIL5MKAR1UWRHK4IC9FJ","","645.6999999992549","img/land1.png","76","646.6000000014901","3","0","3","1","0.8,0.2,0.2,0.2,0.8,0.2,0.2,0.2,0.8","0.8,0.2,0.2,0.2,0.8,0.2,0.2,0.2,0.8","1","",""
"","html-keyboard-response","147","169962","0.0-147.0","3TAYZSBPLMUIBA41M4RGIMO9VOQ2SU","A1F8MH33EFT5VQ","3L1EFR8WWTRIL5MKAR1UWRHK4IC9FJ","","null","<img src=""img/land1.png"" style=""width:200px;border:14px solid red;"">","null","","","","","","","","","",""
"","image-keyboard-response","148","170884","0.0-148.0","3TAYZSBPLMUIBA41M4RGIMO9VOQ2SU","A1F8MH33EFT5VQ","3L1EFR8WWTRIL5MKAR1UWRHK4IC9FJ","","920.5","img/land4.png","75","921.5","2","1","2","1","0.8,0.2,0.2,0.2,0.8,0.2,0.2,0.2,0.8","0.8,0.2,0.2,0.2,0.8,0.2,0.2,0.2,0.8","1","",""
"","html-keyboard-response","149","171186","0.0-149.0","3TAYZSBPLMUIBA41M4RGIMO9VOQ2SU","A1F8MH33EFT5VQ","3L1EFR8WWTRIL5MKAR1UWRHK4IC9FJ","","null","<img src=""img/land4.png"" style=""width:200px; border:14px solid green;"">","null","","","","","","","","","",""
"","image-keyboard-response","150","171838","0.0-150.0","3TAYZSBPLMUIBA41M4RGIMO9VOQ2SU","A1F8MH33EFT5VQ","3L1EFR8WWTRIL5MKAR1UWRHK4IC9FJ","","651.1000000014901","img/land4.png","75","652","2","1","2","1","0.8,0.2,0.2,0.2,0.8,0.2,0.2,0.2,0.8","0.8,0.2,0.2,0.2,0.8,0.2,0.2,0.2,0.8","1","",""
"","html-keyboard-response","151","172140","0.0-151.0","3TAYZSBPLMUIBA41M4RGIMO9VOQ2SU","A1F8MH33EFT5VQ","3L1EFR8WWTRIL5MKAR1UWRHK4IC9FJ","","null","<img src=""img/land4.png"" style=""width:200px; border:14px solid green;"">","null","","","","","","","","","",""
"","image-keyboard-response","152","172882","0.0-152.0","3TAYZSBPLMUIBA41M4RGIMO9VOQ2SU","A1F8MH33EFT5VQ","3L1EFR8WWTRIL5MKAR1UWRHK4IC9FJ","","741","img/land3.png","74","742.1999999992549","1","1","1","1","0.8,0.2,0.2,0.2,0.8,0.2,0.2,0.2,0.8","0.8,0.2,0.2,0.2,0.8,0.2,0.2,0.2,0.8","1","",""
"","html-keyboard-response","153","173184","0.0-153.0","3TAYZSBPLMUIBA41M4RGIMO9VOQ2SU","A1F8MH33EFT5VQ","3L1EFR8WWTRIL5MKAR1UWRHK4IC9FJ","","null","<img src=""img/land3.png"" style=""width:200px; border:14px solid green;"">","null","","","","","","","","","",""
"","image-keyboard-response","154","173781","0.0-154.0","3TAYZSBPLMUIBA41M4RGIMO9VOQ2SU","A1F8MH33EFT5VQ","3L1EFR8WWTRIL5MKAR1UWRHK4IC9FJ","","595.3000000007451","img/land3.png","74","596.2999999970198","1","1","1","1","0.8,0.2,0.2,0.2,0.8,0.2,0.2,0.2,0.8","0.8,0.2,0.2,0.2,0.8,0.2,0.2,0.2,0.8","1","",""
"","html-keyboard-response","155","174082","0.0-155.0","3TAYZSBPLMUIBA41M4RGIMO9VOQ2SU","A1F8MH33EFT5VQ","3L1EFR8WWTRIL5MKAR1UWRHK4IC9FJ","","null","<img src=""img/land3.png"" style=""width:200px; border:14px solid green;"">","null","","","","","","","","","",""
"","image-keyboard-response","156","174940","0.0-156.0","3TAYZSBPLMUIBA41M4RGIMO9VOQ2SU","A1F8MH33EFT5VQ","3L1EFR8WWTRIL5MKAR1UWRHK4IC9FJ","","856.3999999985099","img/land4.png","75","857.3000000007451","2","1","2","1","0.8,0.2,0.2,0.2,0.8,0.2,0.2,0.2,0.8","0.8,0.2,0.2,0.2,0.8,0.2,0.2,0.2,0.8","1","",""
"","html-keyboard-response","157","175241","0.0-157.0","3TAYZSBPLMUIBA41M4RGIMO9VOQ2SU","A1F8MH33EFT5VQ","3L1EFR8WWTRIL5MKAR1UWRHK4IC9FJ","","null","<img src=""img/land4.png"" style=""width:200px; border:14px solid green;"">","null","","","","","","","","","",""
"","image-keyboard-response","158","175879","0.0-158.0","3TAYZSBPLMUIBA41M4RGIMO9VOQ2SU","A1F8MH33EFT5VQ","3L1EFR8WWTRIL5MKAR1UWRHK4IC9FJ","","636.0999999977648","img/land4.png","75","637.3000000007451","2","1","2","1","0.8,0.2,0.2,0.2,0.8,0.2,0.2,0.2,0.8","0.8,0.2,0.2,0.2,0.8,0.2,0.2,0.2,0.8","1","",""
"","html-keyboard-response","159","176181","0.0-159.0","3TAYZSBPLMUIBA41M4RGIMO9VOQ2SU","A1F8MH33EFT5VQ","3L1EFR8WWTRIL5MKAR1UWRHK4IC9FJ","","null","<img src=""img/land4.png"" style=""width:200px; border:14px solid green;"">","null","","","","","","","","","",""
"","image-keyboard-response","160","177487","0.0-160.0","3TAYZSBPLMUIBA41M4RGIMO9VOQ2SU","A1F8MH33EFT5VQ","3L1EFR8WWTRIL5MKAR1UWRHK4IC9FJ","","1304.5","img/land4.png","75","1305.800000000745","2","1","2","1","0.8,0.2,0.2,0.2,0.8,0.2,0.2,0.2,0.8","0.8,0.2,0.2,0.2,0.8,0.2,0.2,0.2,0.8","1","",""
"","html-keyboard-response","161","177789","0.0-161.0","3TAYZSBPLMUIBA41M4RGIMO9VOQ2SU","A1F8MH33EFT5VQ","3L1EFR8WWTRIL5MKAR1UWRHK4IC9FJ","","null","<img src=""img/land4.png"" style=""width:200px; border:14px solid green;"">","null","","","","","","","","","",""
"","image-keyboard-response","162","178416","0.0-162.0","3TAYZSBPLMUIBA41M4RGIMO9VOQ2SU","A1F8MH33EFT5VQ","3L1EFR8WWTRIL5MKAR1UWRHK4IC9FJ","","625.5999999977648","img/land4.png","75","626.6000000014901","2","1","2","1","0.8,0.2,0.2,0.2,0.8,0.2,0.2,0.2,0.8","0.8,0.2,0.2,0.2,0.8,0.2,0.2,0.2,0.8","1","",""
"","html-keyboard-response","163","178718","0.0-163.0","3TAYZSBPLMUIBA41M4RGIMO9VOQ2SU","A1F8MH33EFT5VQ","3L1EFR8WWTRIL5MKAR1UWRHK4IC9FJ","","null","<img src=""img/land4.png"" style=""width:200px; border:14px solid green;"">","null","","","","","","","","","",""
"","image-keyboard-response","164","179351","0.0-164.0","3TAYZSBPLMUIBA41M4RGIMO9VOQ2SU","A1F8MH33EFT5VQ","3L1EFR8WWTRIL5MKAR1UWRHK4IC9FJ","","631","img/land3.png","74","632.3000000007451","1","1","1","1","0.8,0.2,0.2,0.2,0.8,0.2,0.2,0.2,0.8","0.8,0.2,0.2,0.2,0.8,0.2,0.2,0.2,0.8","1","",""
"","html-keyboard-response","165","179653","0.0-165.0","3TAYZSBPLMUIBA41M4RGIMO9VOQ2SU","A1F8MH33EFT5VQ","3L1EFR8WWTRIL5MKAR1UWRHK4IC9FJ","","null","<img src=""img/land3.png"" style=""width:200px; border:14px solid green;"">","null","","","","","","","","","",""
"","image-keyboard-response","166","180374","0.0-166.0","3TAYZSBPLMUIBA41M4RGIMO9VOQ2SU","A1F8MH33EFT5VQ","3L1EFR8WWTRIL5MKAR1UWRHK4IC9FJ","","719.0999999977648","img/land1.png","76","720.3999999985099","3","1","3","1","0.8,0.2,0.2,0.2,0.8,0.2,0.2,0.2,0.8","0.8,0.2,0.2,0.2,0.8,0.2,0.2,0.2,0.8","1","",""
"","html-keyboard-response","167","180676","0.0-167.0","3TAYZSBPLMUIBA41M4RGIMO9VOQ2SU","A1F8MH33EFT5VQ","3L1EFR8WWTRIL5MKAR1UWRHK4IC9FJ","","null","<img src=""img/land1.png"" style=""width:200px; border:14px solid green;"">","null","","","","","","","","","",""
"","image-keyboard-response","168","181238","0.0-168.0","3TAYZSBPLMUIBA41M4RGIMO9VOQ2SU","A1F8MH33EFT5VQ","3L1EFR8WWTRIL5MKAR1UWRHK4IC9FJ","","561","img/land3.png","74","561.7999999970198","1","1","1","1","0.8,0.2,0.2,0.2,0.8,0.2,0.2,0.2,0.8","0.8,0.2,0.2,0.2,0.8,0.2,0.2,0.2,0.8","1","",""
"","html-keyboard-response","169","181541","0.0-169.0","3TAYZSBPLMUIBA41M4RGIMO9VOQ2SU","A1F8MH33EFT5VQ","3L1EFR8WWTRIL5MKAR1UWRHK4IC9FJ","","null","<img src=""img/land3.png"" style=""width:200px; border:14px solid green;"">","null","","","","","","","","","",""
"","image-keyboard-response","170","182172","0.0-170.0","3TAYZSBPLMUIBA41M4RGIMO9VOQ2SU","A1F8MH33EFT5VQ","3L1EFR8WWTRIL5MKAR1UWRHK4IC9FJ","","630.1999999992549","img/land3.png","74","631.3999999985099","1","1","1","1","0.8,0.2,0.2,0.2,0.8,0.2,0.2,0.2,0.8","0.8,0.2,0.2,0.2,0.8,0.2,0.2,0.2,0.8","1","",""
"","html-keyboard-response","171","182475","0.0-171.0","3TAYZSBPLMUIBA41M4RGIMO9VOQ2SU","A1F8MH33EFT5VQ","3L1EFR8WWTRIL5MKAR1UWRHK4IC9FJ","","null","<img src=""img/land3.png"" style=""width:200px; border:14px solid green;"">","null","","","","","","","","","",""
"","image-keyboard-response","172","183441","0.0-172.0","3TAYZSBPLMUIBA41M4RGIMO9VOQ2SU","A1F8MH33EFT5VQ","3L1EFR8WWTRIL5MKAR1UWRHK4IC9FJ","","964.1999999992549","img/land3.png","74","965.5999999977648","1","1","1","1","0.8,0.2,0.2,0.2,0.8,0.2,0.2,0.2,0.8","0.8,0.2,0.2,0.2,0.8,0.2,0.2,0.2,0.8","1","",""
"","html-keyboard-response","173","183742","0.0-173.0","3TAYZSBPLMUIBA41M4RGIMO9VOQ2SU","A1F8MH33EFT5VQ","3L1EFR8WWTRIL5MKAR1UWRHK4IC9FJ","","null","<img src=""img/land3.png"" style=""width:200px; border:14px solid green;"">","null","","","","","","","","","",""
"","image-keyboard-response","174","184409","0.0-174.0","3TAYZSBPLMUIBA41M4RGIMO9VOQ2SU","A1F8MH33EFT5VQ","3L1EFR8WWTRIL5MKAR1UWRHK4IC9FJ","","664.8999999985099","img/land4.png","75","666.1999999992549","2","0","2","1","0.8,0.2,0.2,0.2,0.8,0.2,0.2,0.2,0.8","0.8,0.2,0.2,0.2,0.8,0.2,0.2,0.2,0.8","1","",""
"","html-keyboard-response","175","184712","0.0-175.0","3TAYZSBPLMUIBA41M4RGIMO9VOQ2SU","A1F8MH33EFT5VQ","3L1EFR8WWTRIL5MKAR1UWRHK4IC9FJ","","null","<img src=""img/land4.png"" style=""width:200px;border:14px solid red;"">","null","","","","","","","","","",""
"","image-keyboard-response","176","185482","0.0-176.0","3TAYZSBPLMUIBA41M4RGIMO9VOQ2SU","A1F8MH33EFT5VQ","3L1EFR8WWTRIL5MKAR1UWRHK4IC9FJ","","769.5999999977648","img/land3.png","74","770.5","1","1","1","1","0.8,0.2,0.2,0.2,0.8,0.2,0.2,0.2,0.8","0.8,0.2,0.2,0.2,0.8,0.2,0.2,0.2,0.8","1","",""
"","html-keyboard-response","177","185784","0.0-177.0","3TAYZSBPLMUIBA41M4RGIMO9VOQ2SU","A1F8MH33EFT5VQ","3L1EFR8WWTRIL5MKAR1UWRHK4IC9FJ","","null","<img src=""img/land3.png"" style=""width:200px; border:14px solid green;"">","null","","","","","","","","","",""
"","image-keyboard-response","178","186486","0.0-178.0","3TAYZSBPLMUIBA41M4RGIMO9VOQ2SU","A1F8MH33EFT5VQ","3L1EFR8WWTRIL5MKAR1UWRHK4IC9FJ","","701.3000000007451","img/land3.png","74","702.5","1","0","1","1","0.8,0.2,0.2,0.2,0.8,0.2,0.2,0.2,0.8","0.8,0.2,0.2,0.2,0.8,0.2,0.2,0.2,0.8","1","",""
"","html-keyboard-response","179","186789","0.0-179.0","3TAYZSBPLMUIBA41M4RGIMO9VOQ2SU","A1F8MH33EFT5VQ","3L1EFR8WWTRIL5MKAR1UWRHK4IC9FJ","","null","<img src=""img/land3.png"" style=""width:200px;border:14px solid red;"">","null","","","","","","","","","",""
"","image-keyboard-response","180","187556","0.0-180.0","3TAYZSBPLMUIBA41M4RGIMO9VOQ2SU","A1F8MH33EFT5VQ","3L1EFR8WWTRIL5MKAR1UWRHK4IC9FJ","","765.2000000029802","img/land3.png","74","766.1999999992549","1","1","1","1","0.8,0.2,0.2,0.2,0.8,0.2,0.2,0.2,0.8","0.8,0.2,0.2,0.2,0.8,0.2,0.2,0.2,0.8","1","",""
"","html-keyboard-response","181","187857","0.0-181.0","3TAYZSBPLMUIBA41M4RGIMO9VOQ2SU","A1F8MH33EFT5VQ","3L1EFR8WWTRIL5MKAR1UWRHK4IC9FJ","","null","<img src=""img/land3.png"" style=""width:200px; border:14px solid green;"">","null","","","","","","","","","",""
"","html-keyboard-response","182","192938","0.0-182.0","3TAYZSBPLMUIBA41M4RGIMO9VOQ2SU","A1F8MH33EFT5VQ","3L1EFR8WWTRIL5MKAR1UWRHK4IC9FJ","","","","","","","","","","","","","",""
"","image-keyboard-response","183","194939","0.0-183.0","3TAYZSBPLMUIBA41M4RGIMO9VOQ2SU","A1F8MH33EFT5VQ","3L1EFR8WWTRIL5MKAR1UWRHK4IC9FJ","","","img/land6.png","","2001.6000000014901","-1","0","2","2","0.8,0.2,0.2,0.2,0.8,0.2,0.2,0.2,0.8","0.2,0.8,0.2,0.2,0.2,0.8,0.8,0.2,0.2","3","",""
"","html-keyboard-response","184","195241","0.0-184.0","3TAYZSBPLMUIBA41M4RGIMO9VOQ2SU","A1F8MH33EFT5VQ","3L1EFR8WWTRIL5MKAR1UWRHK4IC9FJ","","null","<img src=""img/land6.png"" style=""width:200px;border:14px solid red;"">","null","","","","","","","","","",""
"","image-keyboard-response","185","195690","0.0-185.0","3TAYZSBPLMUIBA41M4RGIMO9VOQ2SU","A1F8MH33EFT5VQ","3L1EFR8WWTRIL5MKAR1UWRHK4IC9FJ","","447.8999999985099","img/land6.png","74","448.8999999985099","1","0","2","2","0.8,0.2,0.2,0.2,0.8,0.2,0.2,0.2,0.8","0.2,0.8,0.2,0.2,0.2,0.8,0.8,0.2,0.2","3","",""
"","html-keyboard-response","186","195991","0.0-186.0","3TAYZSBPLMUIBA41M4RGIMO9VOQ2SU","A1F8MH33EFT5VQ","3L1EFR8WWTRIL5MKAR1UWRHK4IC9FJ","","null","<img src=""img/land6.png"" style=""width:200px;border:14px solid red;"">","null","","","","","","","","","",""
"","image-keyboard-response","187","196665","0.0-187.0","3TAYZSBPLMUIBA41M4RGIMO9VOQ2SU","A1F8MH33EFT5VQ","3L1EFR8WWTRIL5MKAR1UWRHK4IC9FJ","","672.6999999992549","img/land6.png","74","673.8000000007451","1","0","2","2","0.8,0.2,0.2,0.2,0.8,0.2,0.2,0.2,0.8","0.2,0.8,0.2,0.2,0.2,0.8,0.8,0.2,0.2","3","",""
"","html-keyboard-response","188","196967","0.0-188.0","3TAYZSBPLMUIBA41M4RGIMO9VOQ2SU","A1F8MH33EFT5VQ","3L1EFR8WWTRIL5MKAR1UWRHK4IC9FJ","","null","<img src=""img/land6.png"" style=""width:200px;border:14px solid red;"">","null","","","","","","","","","",""
"","image-keyboard-response","189","197508","0.0-189.0","3TAYZSBPLMUIBA41M4RGIMO9VOQ2SU","A1F8MH33EFT5VQ","3L1EFR8WWTRIL5MKAR1UWRHK4IC9FJ","","539.9000000022352","img/land6.png","74","541.1000000014901","1","0","2","2","0.8,0.2,0.2,0.2,0.8,0.2,0.2,0.2,0.8","0.2,0.8,0.2,0.2,0.2,0.8,0.8,0.2,0.2","3","",""
"","html-keyboard-response","190","197811","0.0-190.0","3TAYZSBPLMUIBA41M4RGIMO9VOQ2SU","A1F8MH33EFT5VQ","3L1EFR8WWTRIL5MKAR1UWRHK4IC9FJ","","null","<img src=""img/land6.png"" style=""width:200px;border:14px solid red;"">","null","","","","","","","","","",""
"","image-keyboard-response","191","198922","0.0-191.0","3TAYZSBPLMUIBA41M4RGIMO9VOQ2SU","A1F8MH33EFT5VQ","3L1EFR8WWTRIL5MKAR1UWRHK4IC9FJ","","1109.5999999977648","img/land2.png","75","1110.800000000745","2","1","1","2","0.8,0.2,0.2,0.2,0.8,0.2,0.2,0.2,0.8","0.2,0.8,0.2,0.2,0.2,0.8,0.8,0.2,0.2","3","",""
"","html-keyboard-response","192","199224","0.0-192.0","3TAYZSBPLMUIBA41M4RGIMO9VOQ2SU","A1F8MH33EFT5VQ","3L1EFR8WWTRIL5MKAR1UWRHK4IC9FJ","","null","<img src=""img/land2.png"" style=""width:200px; border:14px solid green;"">","null","","","","","","","","","",""
"","image-keyboard-response","193","200090","0.0-193.0","3TAYZSBPLMUIBA41M4RGIMO9VOQ2SU","A1F8MH33EFT5VQ","3L1EFR8WWTRIL5MKAR1UWRHK4IC9FJ","","864.8000000007451","img/land6.png","76","865.8999999985099","3","1","2","2","0.8,0.2,0.2,0.2,0.8,0.2,0.2,0.2,0.8","0.2,0.8,0.2,0.2,0.2,0.8,0.8,0.2,0.2","3","",""
"","html-keyboard-response","194","200392","0.0-194.0","3TAYZSBPLMUIBA41M4RGIMO9VOQ2SU","A1F8MH33EFT5VQ","3L1EFR8WWTRIL5MKAR1UWRHK4IC9FJ","","null","<img src=""img/land6.png"" style=""width:200px; border:14px solid green;"">","null","","","","","","","","","",""
"","image-keyboard-response","195","201314","0.0-195.0","3TAYZSBPLMUIBA41M4RGIMO9VOQ2SU","A1F8MH33EFT5VQ","3L1EFR8WWTRIL5MKAR1UWRHK4IC9FJ","","920.2999999970198","img/land2.png","75","921.5999999977648","2","1","1","2","0.8,0.2,0.2,0.2,0.8,0.2,0.2,0.2,0.8","0.2,0.8,0.2,0.2,0.2,0.8,0.8,0.2,0.2","3","",""
"","html-keyboard-response","196","201616","0.0-196.0","3TAYZSBPLMUIBA41M4RGIMO9VOQ2SU","A1F8MH33EFT5VQ","3L1EFR8WWTRIL5MKAR1UWRHK4IC9FJ","","null","<img src=""img/land2.png"" style=""width:200px; border:14px solid green;"">","null","","","","","","","","","",""
"","image-keyboard-response","197","202543","0.0-197.0","3TAYZSBPLMUIBA41M4RGIMO9VOQ2SU","A1F8MH33EFT5VQ","3L1EFR8WWTRIL5MKAR1UWRHK4IC9FJ","","924.6000000014901","img/land2.png","75","926.1999999992549","2","1","1","2","0.8,0.2,0.2,0.2,0.8,0.2,0.2,0.2,0.8","0.2,0.8,0.2,0.2,0.2,0.8,0.8,0.2,0.2","3","",""
"","html-keyboard-response","198","202845","0.0-198.0","3TAYZSBPLMUIBA41M4RGIMO9VOQ2SU","A1F8MH33EFT5VQ","3L1EFR8WWTRIL5MKAR1UWRHK4IC9FJ","","null","<img src=""img/land2.png"" style=""width:200px; border:14px solid green;"">","null","","","","","","","","","",""
"","image-keyboard-response","199","203416","0.0-199.0","3TAYZSBPLMUIBA41M4RGIMO9VOQ2SU","A1F8MH33EFT5VQ","3L1EFR8WWTRIL5MKAR1UWRHK4IC9FJ","","570.1999999992549","img/land2.png","75","571.6000000014901","2","1","1","2","0.8,0.2,0.2,0.2,0.8,0.2,0.2,0.2,0.8","0.2,0.8,0.2,0.2,0.2,0.8,0.8,0.2,0.2","3","",""
"","html-keyboard-response","200","203718","0.0-200.0","3TAYZSBPLMUIBA41M4RGIMO9VOQ2SU","A1F8MH33EFT5VQ","3L1EFR8WWTRIL5MKAR1UWRHK4IC9FJ","","null","<img src=""img/land2.png"" style=""width:200px; border:14px solid green;"">","null","","","","","","","","","",""
"","image-keyboard-response","201","205175","0.0-201.0","3TAYZSBPLMUIBA41M4RGIMO9VOQ2SU","A1F8MH33EFT5VQ","3L1EFR8WWTRIL5MKAR1UWRHK4IC9FJ","","1455.199999999255","img/land2.png","75","1456.6000000014901","2","0","1","2","0.8,0.2,0.2,0.2,0.8,0.2,0.2,0.2,0.8","0.2,0.8,0.2,0.2,0.2,0.8,0.8,0.2,0.2","3","",""
"","html-keyboard-response","202","205477","0.0-202.0","3TAYZSBPLMUIBA41M4RGIMO9VOQ2SU","A1F8MH33EFT5VQ","3L1EFR8WWTRIL5MKAR1UWRHK4IC9FJ","","null","<img src=""img/land2.png"" style=""width:200px;border:14px solid red;"">","null","","","","","","","","","",""
"","image-keyboard-response","203","206123","0.0-203.0","3TAYZSBPLMUIBA41M4RGIMO9VOQ2SU","A1F8MH33EFT5VQ","3L1EFR8WWTRIL5MKAR1UWRHK4IC9FJ","","644.1999999992549","img/land6.png","76","645.5","3","1","2","2","0.8,0.2,0.2,0.2,0.8,0.2,0.2,0.2,0.8","0.2,0.8,0.2,0.2,0.2,0.8,0.8,0.2,0.2","3","",""
"","html-keyboard-response","204","206425","0.0-204.0","3TAYZSBPLMUIBA41M4RGIMO9VOQ2SU","A1F8MH33EFT5VQ","3L1EFR8WWTRIL5MKAR1UWRHK4IC9FJ","","null","<img src=""img/land6.png"" style=""width:200px; border:14px solid green;"">","null","","","","","","","","","",""
"","image-keyboard-response","205","207087","0.0-205.0","3TAYZSBPLMUIBA41M4RGIMO9VOQ2SU","A1F8MH33EFT5VQ","3L1EFR8WWTRIL5MKAR1UWRHK4IC9FJ","","660.3000000007451","img/land2.png","75","661.6000000014901","2","1","1","2","0.8,0.2,0.2,0.2,0.8,0.2,0.2,0.2,0.8","0.2,0.8,0.2,0.2,0.2,0.8,0.8,0.2,0.2","3","",""
"","html-keyboard-response","206","207389","0.0-206.0","3TAYZSBPLMUIBA41M4RGIMO9VOQ2SU","A1F8MH33EFT5VQ","3L1EFR8WWTRIL5MKAR1UWRHK4IC9FJ","","null","<img src=""img/land2.png"" style=""width:200px; border:14px solid green;"">","null","","","","","","","","","",""
"","image-keyboard-response","207","208091","0.0-207.0","3TAYZSBPLMUIBA41M4RGIMO9VOQ2SU","A1F8MH33EFT5VQ","3L1EFR8WWTRIL5MKAR1UWRHK4IC9FJ","","700.1999999992549","img/land5.png","74","701.5","1","0","3","2","0.8,0.2,0.2,0.2,0.8,0.2,0.2,0.2,0.8","0.2,0.8,0.2,0.2,0.2,0.8,0.8,0.2,0.2","3","",""
"","html-keyboard-response","208","208393","0.0-208.0","3TAYZSBPLMUIBA41M4RGIMO9VOQ2SU","A1F8MH33EFT5VQ","3L1EFR8WWTRIL5MKAR1UWRHK4IC9FJ","","null","<img src=""img/land5.png"" style=""width:200px;border:14px solid red;"">","null","","","","","","","","","",""
"","image-keyboard-response","209","209095","0.0-209.0","3TAYZSBPLMUIBA41M4RGIMO9VOQ2SU","A1F8MH33EFT5VQ","3L1EFR8WWTRIL5MKAR1UWRHK4IC9FJ","","700.0999999977648","img/land5.png","74","701.3999999985099","1","1","3","2","0.8,0.2,0.2,0.2,0.8,0.2,0.2,0.2,0.8","0.2,0.8,0.2,0.2,0.2,0.8,0.8,0.2,0.2","3","",""
"","html-keyboard-response","210","209396","0.0-210.0","3TAYZSBPLMUIBA41M4RGIMO9VOQ2SU","A1F8MH33EFT5VQ","3L1EFR8WWTRIL5MKAR1UWRHK4IC9FJ","","null","<img src=""img/land5.png"" style=""width:200px; border:14px solid green;"">","null","","","","","","","","","",""
"","image-keyboard-response","211","210203","0.0-211.0","3TAYZSBPLMUIBA41M4RGIMO9VOQ2SU","A1F8MH33EFT5VQ","3L1EFR8WWTRIL5MKAR1UWRHK4IC9FJ","","805.5","img/land2.png","75","806.8999999985099","2","1","1","2","0.8,0.2,0.2,0.2,0.8,0.2,0.2,0.2,0.8","0.2,0.8,0.2,0.2,0.2,0.8,0.8,0.2,0.2","3","",""
"","html-keyboard-response","212","210506","0.0-212.0","3TAYZSBPLMUIBA41M4RGIMO9VOQ2SU","A1F8MH33EFT5VQ","3L1EFR8WWTRIL5MKAR1UWRHK4IC9FJ","","null","<img src=""img/land2.png"" style=""width:200px; border:14px solid green;"">","null","","","","","","","","","",""
"","image-keyboard-response","213","211172","0.0-213.0","3TAYZSBPLMUIBA41M4RGIMO9VOQ2SU","A1F8MH33EFT5VQ","3L1EFR8WWTRIL5MKAR1UWRHK4IC9FJ","","664.6999999992549","img/land2.png","75","666","2","1","1","2","0.8,0.2,0.2,0.2,0.8,0.2,0.2,0.2,0.8","0.2,0.8,0.2,0.2,0.2,0.8,0.8,0.2,0.2","3","",""
"","html-keyboard-response","214","211474","0.0-214.0","3TAYZSBPLMUIBA41M4RGIMO9VOQ2SU","A1F8MH33EFT5VQ","3L1EFR8WWTRIL5MKAR1UWRHK4IC9FJ","","null","<img src=""img/land2.png"" style=""width:200px; border:14px solid green;"">","null","","","","","","","","","",""
"","image-keyboard-response","215","211956","0.0-215.0","3TAYZSBPLMUIBA41M4RGIMO9VOQ2SU","A1F8MH33EFT5VQ","3L1EFR8WWTRIL5MKAR1UWRHK4IC9FJ","","479.9000000022352","img/land2.png","75","481.1000000014901","2","1","1","2","0.8,0.2,0.2,0.2,0.8,0.2,0.2,0.2,0.8","0.2,0.8,0.2,0.2,0.2,0.8,0.8,0.2,0.2","3","",""
"","html-keyboard-response","216","212257","0.0-216.0","3TAYZSBPLMUIBA41M4RGIMO9VOQ2SU","A1F8MH33EFT5VQ","3L1EFR8WWTRIL5MKAR1UWRHK4IC9FJ","","null","<img src=""img/land2.png"" style=""width:200px; border:14px solid green;"">","null","","","","","","","","","",""
"","image-keyboard-response","217","212844","0.0-217.0","3TAYZSBPLMUIBA41M4RGIMO9VOQ2SU","A1F8MH33EFT5VQ","3L1EFR8WWTRIL5MKAR1UWRHK4IC9FJ","","584.9000000022352","img/land6.png","76","586.2999999970198","3","1","2","2","0.8,0.2,0.2,0.2,0.8,0.2,0.2,0.2,0.8","0.2,0.8,0.2,0.2,0.2,0.8,0.8,0.2,0.2","3","",""
"","html-keyboard-response","218","213146","0.0-218.0","3TAYZSBPLMUIBA41M4RGIMO9VOQ2SU","A1F8MH33EFT5VQ","3L1EFR8WWTRIL5MKAR1UWRHK4IC9FJ","","null","<img src=""img/land6.png"" style=""width:200px; border:14px solid green;"">","null","","","","","","","","","",""
"","image-keyboard-response","219","213784","0.0-219.0","3TAYZSBPLMUIBA41M4RGIMO9VOQ2SU","A1F8MH33EFT5VQ","3L1EFR8WWTRIL5MKAR1UWRHK4IC9FJ","","636.1000000014901","img/land6.png","76","637.5","3","1","2","2","0.8,0.2,0.2,0.2,0.8,0.2,0.2,0.2,0.8","0.2,0.8,0.2,0.2,0.2,0.8,0.8,0.2,0.2","3","",""
"","html-keyboard-response","220","214087","0.0-220.0","3TAYZSBPLMUIBA41M4RGIMO9VOQ2SU","A1F8MH33EFT5VQ","3L1EFR8WWTRIL5MKAR1UWRHK4IC9FJ","","null","<img src=""img/land6.png"" style=""width:200px; border:14px solid green;"">","null","","","","","","","","","",""
"","image-keyboard-response","221","214807","0.0-221.0","3TAYZSBPLMUIBA41M4RGIMO9VOQ2SU","A1F8MH33EFT5VQ","3L1EFR8WWTRIL5MKAR1UWRHK4IC9FJ","","719","img/land2.png","75","720.3999999985099","2","1","1","2","0.8,0.2,0.2,0.2,0.8,0.2,0.2,0.2,0.8","0.2,0.8,0.2,0.2,0.2,0.8,0.8,0.2,0.2","3","",""
"","html-keyboard-response","222","215110","0.0-222.0","3TAYZSBPLMUIBA41M4RGIMO9VOQ2SU","A1F8MH33EFT5VQ","3L1EFR8WWTRIL5MKAR1UWRHK4IC9FJ","","null","<img src=""img/land2.png"" style=""width:200px; border:14px solid green;"">","null","","","","","","","","","",""
"","image-keyboard-response","223","215661","0.0-223.0","3TAYZSBPLMUIBA41M4RGIMO9VOQ2SU","A1F8MH33EFT5VQ","3L1EFR8WWTRIL5MKAR1UWRHK4IC9FJ","","549.6000000014901","img/land2.png","75","550.8999999985099","2","1","1","2","0.8,0.2,0.2,0.2,0.8,0.2,0.2,0.2,0.8","0.2,0.8,0.2,0.2,0.2,0.8,0.8,0.2,0.2","3","",""
"","html-keyboard-response","224","215963","0.0-224.0","3TAYZSBPLMUIBA41M4RGIMO9VOQ2SU","A1F8MH33EFT5VQ","3L1EFR8WWTRIL5MKAR1UWRHK4IC9FJ","","null","<img src=""img/land2.png"" style=""width:200px; border:14px solid green;"">","null","","","","","","","","","",""
"","image-keyboard-response","225","216591","0.0-225.0","3TAYZSBPLMUIBA41M4RGIMO9VOQ2SU","A1F8MH33EFT5VQ","3L1EFR8WWTRIL5MKAR1UWRHK4IC9FJ","","626.1999999992549","img/land2.png","75","627.5","2","0","1","2","0.8,0.2,0.2,0.2,0.8,0.2,0.2,0.2,0.8","0.2,0.8,0.2,0.2,0.2,0.8,0.8,0.2,0.2","3","",""
"","html-keyboard-response","226","216893","0.0-226.0","3TAYZSBPLMUIBA41M4RGIMO9VOQ2SU","A1F8MH33EFT5VQ","3L1EFR8WWTRIL5MKAR1UWRHK4IC9FJ","","null","<img src=""img/land2.png"" style=""width:200px;border:14px solid red;"">","null","","","","","","","","","",""
"","image-keyboard-response","227","217674","0.0-227.0","3TAYZSBPLMUIBA41M4RGIMO9VOQ2SU","A1F8MH33EFT5VQ","3L1EFR8WWTRIL5MKAR1UWRHK4IC9FJ","","780","img/land6.png","74","781.3000000007451","1","0","2","2","0.8,0.2,0.2,0.2,0.8,0.2,0.2,0.2,0.8","0.2,0.8,0.2,0.2,0.2,0.8,0.8,0.2,0.2","3","",""
"","html-keyboard-response","228","217977","0.0-228.0","3TAYZSBPLMUIBA41M4RGIMO9VOQ2SU","A1F8MH33EFT5VQ","3L1EFR8WWTRIL5MKAR1UWRHK4IC9FJ","","null","<img src=""img/land6.png"" style=""width:200px;border:14px solid red;"">","null","","","","","","","","","",""
"","image-keyboard-response","229","219202","0.0-229.0","3TAYZSBPLMUIBA41M4RGIMO9VOQ2SU","A1F8MH33EFT5VQ","3L1EFR8WWTRIL5MKAR1UWRHK4IC9FJ","","1223.800000000745","img/land2.png","74","1224.9000000022352","1","0","1","2","0.8,0.2,0.2,0.2,0.8,0.2,0.2,0.2,0.8","0.2,0.8,0.2,0.2,0.2,0.8,0.8,0.2,0.2","3","",""
"","html-keyboard-response","230","219505","0.0-230.0","3TAYZSBPLMUIBA41M4RGIMO9VOQ2SU","A1F8MH33EFT5VQ","3L1EFR8WWTRIL5MKAR1UWRHK4IC9FJ","","null","<img src=""img/land2.png"" style=""width:200px;border:14px solid red;"">","null","","","","","","","","","",""
"","image-keyboard-response","231","220375","0.0-231.0","3TAYZSBPLMUIBA41M4RGIMO9VOQ2SU","A1F8MH33EFT5VQ","3L1EFR8WWTRIL5MKAR1UWRHK4IC9FJ","","868.1999999992549","img/land6.png","76","869.8999999985099","3","1","2","2","0.8,0.2,0.2,0.2,0.8,0.2,0.2,0.2,0.8","0.2,0.8,0.2,0.2,0.2,0.8,0.8,0.2,0.2","3","",""
"","html-keyboard-response","232","220677","0.0-232.0","3TAYZSBPLMUIBA41M4RGIMO9VOQ2SU","A1F8MH33EFT5VQ","3L1EFR8WWTRIL5MKAR1UWRHK4IC9FJ","","null","<img src=""img/land6.png"" style=""width:200px; border:14px solid green;"">","null","","","","","","","","","",""
"","image-keyboard-response","233","221340","0.0-233.0","3TAYZSBPLMUIBA41M4RGIMO9VOQ2SU","A1F8MH33EFT5VQ","3L1EFR8WWTRIL5MKAR1UWRHK4IC9FJ","","661.1999999992549","img/land2.png","75","662.3999999985099","2","0","1","2","0.8,0.2,0.2,0.2,0.8,0.2,0.2,0.2,0.8","0.2,0.8,0.2,0.2,0.2,0.8,0.8,0.2,0.2","3","",""
"","html-keyboard-response","234","221641","0.0-234.0","3TAYZSBPLMUIBA41M4RGIMO9VOQ2SU","A1F8MH33EFT5VQ","3L1EFR8WWTRIL5MKAR1UWRHK4IC9FJ","","null","<img src=""img/land2.png"" style=""width:200px;border:14px solid red;"">","null","","","","","","","","","",""
"","image-keyboard-response","235","222498","0.0-235.0","3TAYZSBPLMUIBA41M4RGIMO9VOQ2SU","A1F8MH33EFT5VQ","3L1EFR8WWTRIL5MKAR1UWRHK4IC9FJ","","855.5","img/land6.png","76","856.6999999992549","3","1","2","2","0.8,0.2,0.2,0.2,0.8,0.2,0.2,0.2,0.8","0.2,0.8,0.2,0.2,0.2,0.8,0.8,0.2,0.2","3","",""
"","html-keyboard-response","236","222800","0.0-236.0","3TAYZSBPLMUIBA41M4RGIMO9VOQ2SU","A1F8MH33EFT5VQ","3L1EFR8WWTRIL5MKAR1UWRHK4IC9FJ","","null","<img src=""img/land6.png"" style=""width:200px; border:14px solid green;"">","null","","","","","","","","","",""
"","image-keyboard-response","237","223523","0.0-237.0","3TAYZSBPLMUIBA41M4RGIMO9VOQ2SU","A1F8MH33EFT5VQ","3L1EFR8WWTRIL5MKAR1UWRHK4IC9FJ","","721","img/land5.png","74","722.3999999985099","1","1","3","2","0.8,0.2,0.2,0.2,0.8,0.2,0.2,0.2,0.8","0.2,0.8,0.2,0.2,0.2,0.8,0.8,0.2,0.2","3","",""
"","html-keyboard-response","238","223824","0.0-238.0","3TAYZSBPLMUIBA41M4RGIMO9VOQ2SU","A1F8MH33EFT5VQ","3L1EFR8WWTRIL5MKAR1UWRHK4IC9FJ","","null","<img src=""img/land5.png"" style=""width:200px; border:14px solid green;"">","null","","","","","","","","","",""
"","image-keyboard-response","239","224581","0.0-239.0","3TAYZSBPLMUIBA41M4RGIMO9VOQ2SU","A1F8MH33EFT5VQ","3L1EFR8WWTRIL5MKAR1UWRHK4IC9FJ","","755","img/land5.png","74","756.2000000029802","1","1","3","2","0.8,0.2,0.2,0.2,0.8,0.2,0.2,0.2,0.8","0.2,0.8,0.2,0.2,0.2,0.8,0.8,0.2,0.2","3","",""
"","html-keyboard-response","240","224883","0.0-240.0","3TAYZSBPLMUIBA41M4RGIMO9VOQ2SU","A1F8MH33EFT5VQ","3L1EFR8WWTRIL5MKAR1UWRHK4IC9FJ","","null","<img src=""img/land5.png"" style=""width:200px; border:14px solid green;"">","null","","","","","","","","","",""
"","image-keyboard-response","241","225534","0.0-241.0","3TAYZSBPLMUIBA41M4RGIMO9VOQ2SU","A1F8MH33EFT5VQ","3L1EFR8WWTRIL5MKAR1UWRHK4IC9FJ","","650.1000000014901","img/land5.png","74","651.3999999985099","1","0","3","2","0.8,0.2,0.2,0.2,0.8,0.2,0.2,0.2,0.8","0.2,0.8,0.2,0.2,0.2,0.8,0.8,0.2,0.2","3","",""
"","html-keyboard-response","242","225837","0.0-242.0","3TAYZSBPLMUIBA41M4RGIMO9VOQ2SU","A1F8MH33EFT5VQ","3L1EFR8WWTRIL5MKAR1UWRHK4IC9FJ","","null","<img src=""img/land5.png"" style=""width:200px;border:14px solid red;"">","null","","","","","","","","","",""
"","image-keyboard-response","243","226599","0.0-243.0","3TAYZSBPLMUIBA41M4RGIMO9VOQ2SU","A1F8MH33EFT5VQ","3L1EFR8WWTRIL5MKAR1UWRHK4IC9FJ","","761.2000000029802","img/land2.png","75","762.5","2","1","1","2","0.8,0.2,0.2,0.2,0.8,0.2,0.2,0.2,0.8","0.2,0.8,0.2,0.2,0.2,0.8,0.8,0.2,0.2","3","",""
"","html-keyboard-response","244","226901","0.0-244.0","3TAYZSBPLMUIBA41M4RGIMO9VOQ2SU","A1F8MH33EFT5VQ","3L1EFR8WWTRIL5MKAR1UWRHK4IC9FJ","","null","<img src=""img/land2.png"" style=""width:200px; border:14px solid green;"">","null","","","","","","","","","",""
"","image-keyboard-response","245","228172","0.0-245.0","3TAYZSBPLMUIBA41M4RGIMO9VOQ2SU","A1F8MH33EFT5VQ","3L1EFR8WWTRIL5MKAR1UWRHK4IC9FJ","","1270","img/land5.png","74","1271.1000000014901","1","1","3","2","0.8,0.2,0.2,0.2,0.8,0.2,0.2,0.2,0.8","0.2,0.8,0.2,0.2,0.2,0.8,0.8,0.2,0.2","3","",""
"","html-keyboard-response","246","228475","0.0-246.0","3TAYZSBPLMUIBA41M4RGIMO9VOQ2SU","A1F8MH33EFT5VQ","3L1EFR8WWTRIL5MKAR1UWRHK4IC9FJ","","null","<img src=""img/land5.png"" style=""width:200px; border:14px solid green;"">","null","","","","","","","","","",""
"","image-keyboard-response","247","229314","0.0-247.0","3TAYZSBPLMUIBA41M4RGIMO9VOQ2SU","A1F8MH33EFT5VQ","3L1EFR8WWTRIL5MKAR1UWRHK4IC9FJ","","837.7999999970198","img/land2.png","75","838.8000000007451","2","0","1","2","0.8,0.2,0.2,0.2,0.8,0.2,0.2,0.2,0.8","0.2,0.8,0.2,0.2,0.2,0.8,0.8,0.2,0.2","3","",""
"","html-keyboard-response","248","229615","0.0-248.0","3TAYZSBPLMUIBA41M4RGIMO9VOQ2SU","A1F8MH33EFT5VQ","3L1EFR8WWTRIL5MKAR1UWRHK4IC9FJ","","null","<img src=""img/land2.png"" style=""width:200px;border:14px solid red;"">","null","","","","","","","","","",""
"","image-keyboard-response","249","230184","0.0-249.0","3TAYZSBPLMUIBA41M4RGIMO9VOQ2SU","A1F8MH33EFT5VQ","3L1EFR8WWTRIL5MKAR1UWRHK4IC9FJ","","567.1999999992549","img/land2.png","75","568.5999999977648","2","1","1","2","0.8,0.2,0.2,0.2,0.8,0.2,0.2,0.2,0.8","0.2,0.8,0.2,0.2,0.2,0.8,0.8,0.2,0.2","3","",""
"","html-keyboard-response","250","230485","0.0-250.0","3TAYZSBPLMUIBA41M4RGIMO9VOQ2SU","A1F8MH33EFT5VQ","3L1EFR8WWTRIL5MKAR1UWRHK4IC9FJ","","null","<img src=""img/land2.png"" style=""width:200px; border:14px solid green;"">","null","","","","","","","","","",""
"","image-keyboard-response","251","231083","0.0-251.0","3TAYZSBPLMUIBA41M4RGIMO9VOQ2SU","A1F8MH33EFT5VQ","3L1EFR8WWTRIL5MKAR1UWRHK4IC9FJ","","595.6999999992549","img/land2.png","75","596.8999999985099","2","1","1","2","0.8,0.2,0.2,0.2,0.8,0.2,0.2,0.2,0.8","0.2,0.8,0.2,0.2,0.2,0.8,0.8,0.2,0.2","3","",""
"","html-keyboard-response","252","231385","0.0-252.0","3TAYZSBPLMUIBA41M4RGIMO9VOQ2SU","A1F8MH33EFT5VQ","3L1EFR8WWTRIL5MKAR1UWRHK4IC9FJ","","null","<img src=""img/land2.png"" style=""width:200px; border:14px solid green;"">","null","","","","","","","","","",""
"","image-keyboard-response","253","231957","0.0-253.0","3TAYZSBPLMUIBA41M4RGIMO9VOQ2SU","A1F8MH33EFT5VQ","3L1EFR8WWTRIL5MKAR1UWRHK4IC9FJ","","570.3999999985099","img/land2.png","75","571.3999999985099","2","0","1","2","0.8,0.2,0.2,0.2,0.8,0.2,0.2,0.2,0.8","0.2,0.8,0.2,0.2,0.2,0.8,0.8,0.2,0.2","3","",""
"","html-keyboard-response","254","232259","0.0-254.0","3TAYZSBPLMUIBA41M4RGIMO9VOQ2SU","A1F8MH33EFT5VQ","3L1EFR8WWTRIL5MKAR1UWRHK4IC9FJ","","null","<img src=""img/land2.png"" style=""width:200px;border:14px solid red;"">","null","","","","","","","","","",""
"","image-keyboard-response","255","233026","0.0-255.0","3TAYZSBPLMUIBA41M4RGIMO9VOQ2SU","A1F8MH33EFT5VQ","3L1EFR8WWTRIL5MKAR1UWRHK4IC9FJ","","763.5","img/land2.png","75","765.2000000029802","2","1","1","2","0.8,0.2,0.2,0.2,0.8,0.2,0.2,0.2,0.8","0.2,0.8,0.2,0.2,0.2,0.8,0.8,0.2,0.2","3","",""
"","html-keyboard-response","256","233333","0.0-256.0","3TAYZSBPLMUIBA41M4RGIMO9VOQ2SU","A1F8MH33EFT5VQ","3L1EFR8WWTRIL5MKAR1UWRHK4IC9FJ","","null","<img src=""img/land2.png"" style=""width:200px; border:14px solid green;"">","null","","","","","","","","","",""
"","image-keyboard-response","257","234059","0.0-257.0","3TAYZSBPLMUIBA41M4RGIMO9VOQ2SU","A1F8MH33EFT5VQ","3L1EFR8WWTRIL5MKAR1UWRHK4IC9FJ","","724.7000000029802","img/land2.png","75","726","2","1","1","2","0.8,0.2,0.2,0.2,0.8,0.2,0.2,0.2,0.8","0.2,0.8,0.2,0.2,0.2,0.8,0.8,0.2,0.2","3","",""
"","html-keyboard-response","258","234361","0.0-258.0","3TAYZSBPLMUIBA41M4RGIMO9VOQ2SU","A1F8MH33EFT5VQ","3L1EFR8WWTRIL5MKAR1UWRHK4IC9FJ","","null","<img src=""img/land2.png"" style=""width:200px; border:14px solid green;"">","null","","","","","","","","","",""
"","image-keyboard-response","259","234948","0.0-259.0","3TAYZSBPLMUIBA41M4RGIMO9VOQ2SU","A1F8MH33EFT5VQ","3L1EFR8WWTRIL5MKAR1UWRHK4IC9FJ","","585.1000000014901","img/land6.png","76","586.8000000007451","3","1","2","2","0.8,0.2,0.2,0.2,0.8,0.2,0.2,0.2,0.8","0.2,0.8,0.2,0.2,0.2,0.8,0.8,0.2,0.2","3","",""
"","html-keyboard-response","260","235264","0.0-260.0","3TAYZSBPLMUIBA41M4RGIMO9VOQ2SU","A1F8MH33EFT5VQ","3L1EFR8WWTRIL5MKAR1UWRHK4IC9FJ","","null","<img src=""img/land6.png"" style=""width:200px; border:14px solid green;"">","null","","","","","","","","","",""
"","image-keyboard-response","261","235867","0.0-261.0","3TAYZSBPLMUIBA41M4RGIMO9VOQ2SU","A1F8MH33EFT5VQ","3L1EFR8WWTRIL5MKAR1UWRHK4IC9FJ","","600.8000000007451","img/land2.png","76","602.2000000029802","3","0","1","2","0.8,0.2,0.2,0.2,0.8,0.2,0.2,0.2,0.8","0.2,0.8,0.2,0.2,0.2,0.8,0.8,0.2,0.2","3","",""
"","html-keyboard-response","262","236168","0.0-262.0","3TAYZSBPLMUIBA41M4RGIMO9VOQ2SU","A1F8MH33EFT5VQ","3L1EFR8WWTRIL5MKAR1UWRHK4IC9FJ","","null","<img src=""img/land2.png"" style=""width:200px;border:14px solid red;"">","null","","","","","","","","","",""
"","image-keyboard-response","263","237152","0.0-263.0","3TAYZSBPLMUIBA41M4RGIMO9VOQ2SU","A1F8MH33EFT5VQ","3L1EFR8WWTRIL5MKAR1UWRHK4IC9FJ","","982","img/land2.png","75","983.3000000007451","2","1","1","2","0.8,0.2,0.2,0.2,0.8,0.2,0.2,0.2,0.8","0.2,0.8,0.2,0.2,0.2,0.8,0.8,0.2,0.2","3","",""
"","html-keyboard-response","264","237454","0.0-264.0","3TAYZSBPLMUIBA41M4RGIMO9VOQ2SU","A1F8MH33EFT5VQ","3L1EFR8WWTRIL5MKAR1UWRHK4IC9FJ","","null","<img src=""img/land2.png"" style=""width:200px; border:14px solid green;"">","null","","","","","","","","","",""
"","image-keyboard-response","265","238045","0.0-265.0","3TAYZSBPLMUIBA41M4RGIMO9VOQ2SU","A1F8MH33EFT5VQ","3L1EFR8WWTRIL5MKAR1UWRHK4IC9FJ","","588.5999999977648","img/land2.png","75","590","2","0","1","2","0.8,0.2,0.2,0.2,0.8,0.2,0.2,0.2,0.8","0.2,0.8,0.2,0.2,0.2,0.8,0.8,0.2,0.2","3","",""
"","html-keyboard-response","266","238347","0.0-266.0","3TAYZSBPLMUIBA41M4RGIMO9VOQ2SU","A1F8MH33EFT5VQ","3L1EFR8WWTRIL5MKAR1UWRHK4IC9FJ","","null","<img src=""img/land2.png"" style=""width:200px;border:14px solid red;"">","null","","","","","","","","","",""
"","image-keyboard-response","267","238908","0.0-267.0","3TAYZSBPLMUIBA41M4RGIMO9VOQ2SU","A1F8MH33EFT5VQ","3L1EFR8WWTRIL5MKAR1UWRHK4IC9FJ","","559.3000000007451","img/land2.png","75","560.5999999977648","2","1","1","2","0.8,0.2,0.2,0.2,0.8,0.2,0.2,0.2,0.8","0.2,0.8,0.2,0.2,0.2,0.8,0.8,0.2,0.2","3","",""
"","html-keyboard-response","268","239210","0.0-268.0","3TAYZSBPLMUIBA41M4RGIMO9VOQ2SU","A1F8MH33EFT5VQ","3L1EFR8WWTRIL5MKAR1UWRHK4IC9FJ","","null","<img src=""img/land2.png"" style=""width:200px; border:14px solid green;"">","null","","","","","","","","","",""
"","image-keyboard-response","269","239962","0.0-269.0","3TAYZSBPLMUIBA41M4RGIMO9VOQ2SU","A1F8MH33EFT5VQ","3L1EFR8WWTRIL5MKAR1UWRHK4IC9FJ","","750.5","img/land2.png","75","751.6999999992549","2","1","1","2","0.8,0.2,0.2,0.2,0.8,0.2,0.2,0.2,0.8","0.2,0.8,0.2,0.2,0.2,0.8,0.8,0.2,0.2","3","",""
"","html-keyboard-response","270","240264","0.0-270.0","3TAYZSBPLMUIBA41M4RGIMO9VOQ2SU","A1F8MH33EFT5VQ","3L1EFR8WWTRIL5MKAR1UWRHK4IC9FJ","","null","<img src=""img/land2.png"" style=""width:200px; border:14px solid green;"">","null","","","","","","","","","",""
"","image-keyboard-response","271","240891","0.0-271.0","3TAYZSBPLMUIBA41M4RGIMO9VOQ2SU","A1F8MH33EFT5VQ","3L1EFR8WWTRIL5MKAR1UWRHK4IC9FJ","","625.8000000007451","img/land5.png","74","626.9000000022352","1","1","3","2","0.8,0.2,0.2,0.2,0.8,0.2,0.2,0.2,0.8","0.2,0.8,0.2,0.2,0.2,0.8,0.8,0.2,0.2","3","",""
"","html-keyboard-response","272","241193","0.0-272.0","3TAYZSBPLMUIBA41M4RGIMO9VOQ2SU","A1F8MH33EFT5VQ","3L1EFR8WWTRIL5MKAR1UWRHK4IC9FJ","","null","<img src=""img/land5.png"" style=""width:200px; border:14px solid green;"">","null","","","","","","","","","",""
"","image-keyboard-response","273","242454","0.0-273.0","3TAYZSBPLMUIBA41M4RGIMO9VOQ2SU","A1F8MH33EFT5VQ","3L1EFR8WWTRIL5MKAR1UWRHK4IC9FJ","","1259.199999999255","img/land2.png","75","1260.5","2","1","1","2","0.8,0.2,0.2,0.2,0.8,0.2,0.2,0.2,0.8","0.2,0.8,0.2,0.2,0.2,0.8,0.8,0.2,0.2","3","",""
"","html-keyboard-response","274","242756","0.0-274.0","3TAYZSBPLMUIBA41M4RGIMO9VOQ2SU","A1F8MH33EFT5VQ","3L1EFR8WWTRIL5MKAR1UWRHK4IC9FJ","","null","<img src=""img/land2.png"" style=""width:200px; border:14px solid green;"">","null","","","","","","","","","",""
"","image-keyboard-response","275","243562","0.0-275.0","3TAYZSBPLMUIBA41M4RGIMO9VOQ2SU","A1F8MH33EFT5VQ","3L1EFR8WWTRIL5MKAR1UWRHK4IC9FJ","","804.4000000022352","img/land5.png","74","805.6999999992549","1","1","3","2","0.8,0.2,0.2,0.2,0.8,0.2,0.2,0.2,0.8","0.2,0.8,0.2,0.2,0.2,0.8,0.8,0.2,0.2","3","",""
"","html-keyboard-response","276","243864","0.0-276.0","3TAYZSBPLMUIBA41M4RGIMO9VOQ2SU","A1F8MH33EFT5VQ","3L1EFR8WWTRIL5MKAR1UWRHK4IC9FJ","","null","<img src=""img/land5.png"" style=""width:200px; border:14px solid green;"">","null","","","","","","","","","",""
"","image-keyboard-response","277","244567","0.0-277.0","3TAYZSBPLMUIBA41M4RGIMO9VOQ2SU","A1F8MH33EFT5VQ","3L1EFR8WWTRIL5MKAR1UWRHK4IC9FJ","","700.6999999992549","img/land6.png","76","701.9000000022352","3","1","2","2","0.8,0.2,0.2,0.2,0.8,0.2,0.2,0.2,0.8","0.2,0.8,0.2,0.2,0.2,0.8,0.8,0.2,0.2","3","",""
"","html-keyboard-response","278","244868","0.0-278.0","3TAYZSBPLMUIBA41M4RGIMO9VOQ2SU","A1F8MH33EFT5VQ","3L1EFR8WWTRIL5MKAR1UWRHK4IC9FJ","","null","<img src=""img/land6.png"" style=""width:200px; border:14px solid green;"">","null","","","","","","","","","",""
"","image-keyboard-response","279","245660","0.0-279.0","3TAYZSBPLMUIBA41M4RGIMO9VOQ2SU","A1F8MH33EFT5VQ","3L1EFR8WWTRIL5MKAR1UWRHK4IC9FJ","","790.5","img/land2.png","75","791.8000000007451","2","1","1","2","0.8,0.2,0.2,0.2,0.8,0.2,0.2,0.2,0.8","0.2,0.8,0.2,0.2,0.2,0.8,0.8,0.2,0.2","3","",""
"","html-keyboard-response","280","245962","0.0-280.0","3TAYZSBPLMUIBA41M4RGIMO9VOQ2SU","A1F8MH33EFT5VQ","3L1EFR8WWTRIL5MKAR1UWRHK4IC9FJ","","null","<img src=""img/land2.png"" style=""width:200px; border:14px solid green;"">","null","","","","","","","","","",""
"","image-keyboard-response","281","246530","0.0-281.0","3TAYZSBPLMUIBA41M4RGIMO9VOQ2SU","A1F8MH33EFT5VQ","3L1EFR8WWTRIL5MKAR1UWRHK4IC9FJ","","564.8999999985099","img/land2.png","75","567.0999999977648","2","0","1","2","0.8,0.2,0.2,0.2,0.8,0.2,0.2,0.2,0.8","0.2,0.8,0.2,0.2,0.2,0.8,0.8,0.2,0.2","3","",""
"","html-keyboard-response","282","246831","0.0-282.0","3TAYZSBPLMUIBA41M4RGIMO9VOQ2SU","A1F8MH33EFT5VQ","3L1EFR8WWTRIL5MKAR1UWRHK4IC9FJ","","null","<img src=""img/land2.png"" style=""width:200px;border:14px solid red;"">","null","","","","","","","","","",""
"","image-keyboard-response","283","247513","0.0-283.0","3TAYZSBPLMUIBA41M4RGIMO9VOQ2SU","A1F8MH33EFT5VQ","3L1EFR8WWTRIL5MKAR1UWRHK4IC9FJ","","679.6000000014901","img/land2.png","75","680.6999999992549","2","1","1","2","0.8,0.2,0.2,0.2,0.8,0.2,0.2,0.2,0.8","0.2,0.8,0.2,0.2,0.2,0.8,0.8,0.2,0.2","3","",""
"","html-keyboard-response","284","247815","0.0-284.0","3TAYZSBPLMUIBA41M4RGIMO9VOQ2SU","A1F8MH33EFT5VQ","3L1EFR8WWTRIL5MKAR1UWRHK4IC9FJ","","null","<img src=""img/land2.png"" style=""width:200px; border:14px solid green;"">","null","","","","","","","","","",""
"","image-keyboard-response","285","248417","0.0-285.0","3TAYZSBPLMUIBA41M4RGIMO9VOQ2SU","A1F8MH33EFT5VQ","3L1EFR8WWTRIL5MKAR1UWRHK4IC9FJ","","601.3999999985099","img/land2.png","75","602.4000000022352","2","1","1","2","0.8,0.2,0.2,0.2,0.8,0.2,0.2,0.2,0.8","0.2,0.8,0.2,0.2,0.2,0.8,0.8,0.2,0.2","3","",""
"","html-keyboard-response","286","248720","0.0-286.0","3TAYZSBPLMUIBA41M4RGIMO9VOQ2SU","A1F8MH33EFT5VQ","3L1EFR8WWTRIL5MKAR1UWRHK4IC9FJ","","null","<img src=""img/land2.png"" style=""width:200px; border:14px solid green;"">","null","","","","","","","","","",""
"","image-keyboard-response","287","249400","0.0-287.0","3TAYZSBPLMUIBA41M4RGIMO9VOQ2SU","A1F8MH33EFT5VQ","3L1EFR8WWTRIL5MKAR1UWRHK4IC9FJ","","679","img/land2.png","75","680.1999999992549","2","1","1","2","0.8,0.2,0.2,0.2,0.8,0.2,0.2,0.2,0.8","0.2,0.8,0.2,0.2,0.2,0.8,0.8,0.2,0.2","3","",""
"","html-keyboard-response","288","249702","0.0-288.0","3TAYZSBPLMUIBA41M4RGIMO9VOQ2SU","A1F8MH33EFT5VQ","3L1EFR8WWTRIL5MKAR1UWRHK4IC9FJ","","null","<img src=""img/land2.png"" style=""width:200px; border:14px solid green;"">","null","","","","","","","","","",""
"","image-keyboard-response","289","250380","0.0-289.0","3TAYZSBPLMUIBA41M4RGIMO9VOQ2SU","A1F8MH33EFT5VQ","3L1EFR8WWTRIL5MKAR1UWRHK4IC9FJ","","676.2999999970198","img/land2.png","75","677.6000000014901","2","1","1","2","0.8,0.2,0.2,0.2,0.8,0.2,0.2,0.2,0.8","0.2,0.8,0.2,0.2,0.2,0.8,0.8,0.2,0.2","3","",""
"","html-keyboard-response","290","250682","0.0-290.0","3TAYZSBPLMUIBA41M4RGIMO9VOQ2SU","A1F8MH33EFT5VQ","3L1EFR8WWTRIL5MKAR1UWRHK4IC9FJ","","null","<img src=""img/land2.png"" style=""width:200px; border:14px solid green;"">","null","","","","","","","","","",""
"","image-keyboard-response","291","251508","0.0-291.0","3TAYZSBPLMUIBA41M4RGIMO9VOQ2SU","A1F8MH33EFT5VQ","3L1EFR8WWTRIL5MKAR1UWRHK4IC9FJ","","824.1000000014901","img/land6.png","76","825.3000000007451","3","1","2","2","0.8,0.2,0.2,0.2,0.8,0.2,0.2,0.2,0.8","0.2,0.8,0.2,0.2,0.2,0.8,0.8,0.2,0.2","3","",""
"","html-keyboard-response","292","251825","0.0-292.0","3TAYZSBPLMUIBA41M4RGIMO9VOQ2SU","A1F8MH33EFT5VQ","3L1EFR8WWTRIL5MKAR1UWRHK4IC9FJ","","null","<img src=""img/land6.png"" style=""width:200px; border:14px solid green;"">","null","","","","","","","","","",""
"","image-keyboard-response","293","252502","0.0-293.0","3TAYZSBPLMUIBA41M4RGIMO9VOQ2SU","A1F8MH33EFT5VQ","3L1EFR8WWTRIL5MKAR1UWRHK4IC9FJ","","675.5","img/land5.png","74","676.8000000007451","1","1","3","2","0.8,0.2,0.2,0.2,0.8,0.2,0.2,0.2,0.8","0.2,0.8,0.2,0.2,0.2,0.8,0.8,0.2,0.2","3","",""
"","html-keyboard-response","294","252803","0.0-294.0","3TAYZSBPLMUIBA41M4RGIMO9VOQ2SU","A1F8MH33EFT5VQ","3L1EFR8WWTRIL5MKAR1UWRHK4IC9FJ","","null","<img src=""img/land5.png"" style=""width:200px; border:14px solid green;"">","null","","","","","","","","","",""
"","image-keyboard-response","295","254085","0.0-295.0","3TAYZSBPLMUIBA41M4RGIMO9VOQ2SU","A1F8MH33EFT5VQ","3L1EFR8WWTRIL5MKAR1UWRHK4IC9FJ","","1280","img/land6.png","76","1281.300000000745","3","1","2","2","0.8,0.2,0.2,0.2,0.8,0.2,0.2,0.2,0.8","0.2,0.8,0.2,0.2,0.2,0.8,0.8,0.2,0.2","3","",""
"","html-keyboard-response","296","254386","0.0-296.0","3TAYZSBPLMUIBA41M4RGIMO9VOQ2SU","A1F8MH33EFT5VQ","3L1EFR8WWTRIL5MKAR1UWRHK4IC9FJ","","null","<img src=""img/land6.png"" style=""width:200px; border:14px solid green;"">","null","","","","","","","","","",""
"","image-keyboard-response","297","254934","0.0-297.0","3TAYZSBPLMUIBA41M4RGIMO9VOQ2SU","A1F8MH33EFT5VQ","3L1EFR8WWTRIL5MKAR1UWRHK4IC9FJ","","545.6999999992549","img/land6.png","76","547","3","0","2","2","0.8,0.2,0.2,0.2,0.8,0.2,0.2,0.2,0.8","0.2,0.8,0.2,0.2,0.2,0.8,0.8,0.2,0.2","3","",""
"","html-keyboard-response","298","255235","0.0-298.0","3TAYZSBPLMUIBA41M4RGIMO9VOQ2SU","A1F8MH33EFT5VQ","3L1EFR8WWTRIL5MKAR1UWRHK4IC9FJ","","null","<img src=""img/land6.png"" style=""width:200px;border:14px solid red;"">","null","","","","","","","","","",""
"","image-keyboard-response","299","255889","0.0-299.0","3TAYZSBPLMUIBA41M4RGIMO9VOQ2SU","A1F8MH33EFT5VQ","3L1EFR8WWTRIL5MKAR1UWRHK4IC9FJ","","651.5","img/land5.png","74","652.9000000022352","1","1","3","2","0.8,0.2,0.2,0.2,0.8,0.2,0.2,0.2,0.8","0.2,0.8,0.2,0.2,0.2,0.8,0.8,0.2,0.2","3","",""
"","html-keyboard-response","300","256192","0.0-300.0","3TAYZSBPLMUIBA41M4RGIMO9VOQ2SU","A1F8MH33EFT5VQ","3L1EFR8WWTRIL5MKAR1UWRHK4IC9FJ","","null","<img src=""img/land5.png"" style=""width:200px; border:14px solid green;"">","null","","","","","","","","","",""
"","image-keyboard-response","301","257022","0.0-301.0","3TAYZSBPLMUIBA41M4RGIMO9VOQ2SU","A1F8MH33EFT5VQ","3L1EFR8WWTRIL5MKAR1UWRHK4IC9FJ","","828.5","img/land2.png","75","829.9000000022352","2","1","1","2","0.8,0.2,0.2,0.2,0.8,0.2,0.2,0.2,0.8","0.2,0.8,0.2,0.2,0.2,0.8,0.8,0.2,0.2","3","",""
"","html-keyboard-response","302","257324","0.0-302.0","3TAYZSBPLMUIBA41M4RGIMO9VOQ2SU","A1F8MH33EFT5VQ","3L1EFR8WWTRIL5MKAR1UWRHK4IC9FJ","","null","<img src=""img/land2.png"" style=""width:200px; border:14px solid green;"">","null","","","","","","","","","",""
"","image-keyboard-response","303","258015","0.0-303.0","3TAYZSBPLMUIBA41M4RGIMO9VOQ2SU","A1F8MH33EFT5VQ","3L1EFR8WWTRIL5MKAR1UWRHK4IC9FJ","","689.8000000007451","img/land5.png","74","691","1","1","3","2","0.8,0.2,0.2,0.2,0.8,0.2,0.2,0.2,0.8","0.2,0.8,0.2,0.2,0.2,0.8,0.8,0.2,0.2","3","",""
"","html-keyboard-response","304","258317","0.0-304.0","3TAYZSBPLMUIBA41M4RGIMO9VOQ2SU","A1F8MH33EFT5VQ","3L1EFR8WWTRIL5MKAR1UWRHK4IC9FJ","","null","<img src=""img/land5.png"" style=""width:200px; border:14px solid green;"">","null","","","","","","","","","",""
"","image-keyboard-response","305","259174","0.0-305.0","3TAYZSBPLMUIBA41M4RGIMO9VOQ2SU","A1F8MH33EFT5VQ","3L1EFR8WWTRIL5MKAR1UWRHK4IC9FJ","","856.3000000007451","img/land2.png","75","857.1000000014901","2","1","1","2","0.8,0.2,0.2,0.2,0.8,0.2,0.2,0.2,0.8","0.2,0.8,0.2,0.2,0.2,0.8,0.8,0.2,0.2","3","",""
"","html-keyboard-response","306","259476","0.0-306.0","3TAYZSBPLMUIBA41M4RGIMO9VOQ2SU","A1F8MH33EFT5VQ","3L1EFR8WWTRIL5MKAR1UWRHK4IC9FJ","","null","<img src=""img/land2.png"" style=""width:200px; border:14px solid green;"">","null","","","","","","","","","",""
"","image-keyboard-response","307","260163","0.0-307.0","3TAYZSBPLMUIBA41M4RGIMO9VOQ2SU","A1F8MH33EFT5VQ","3L1EFR8WWTRIL5MKAR1UWRHK4IC9FJ","","685.8000000007451","img/land5.png","74","686.8000000007451","1","0","3","2","0.8,0.2,0.2,0.2,0.8,0.2,0.2,0.2,0.8","0.2,0.8,0.2,0.2,0.2,0.8,0.8,0.2,0.2","3","",""
"","html-keyboard-response","308","260465","0.0-308.0","3TAYZSBPLMUIBA41M4RGIMO9VOQ2SU","A1F8MH33EFT5VQ","3L1EFR8WWTRIL5MKAR1UWRHK4IC9FJ","","null","<img src=""img/land5.png"" style=""width:200px;border:14px solid red;"">","null","","","","","","","","","",""
"","image-keyboard-response","309","261261","0.0-309.0","3TAYZSBPLMUIBA41M4RGIMO9VOQ2SU","A1F8MH33EFT5VQ","3L1EFR8WWTRIL5MKAR1UWRHK4IC9FJ","","795","img/land2.png","75","796.0999999977648","2","0","1","2","0.8,0.2,0.2,0.2,0.8,0.2,0.2,0.2,0.8","0.2,0.8,0.2,0.2,0.2,0.8,0.8,0.2,0.2","3","",""
"","html-keyboard-response","310","261573","0.0-310.0","3TAYZSBPLMUIBA41M4RGIMO9VOQ2SU","A1F8MH33EFT5VQ","3L1EFR8WWTRIL5MKAR1UWRHK4IC9FJ","","null","<img src=""img/land2.png"" style=""width:200px;border:14px solid red;"">","null","","","","","","","","","",""
"","image-keyboard-response","311","262221","0.0-311.0","3TAYZSBPLMUIBA41M4RGIMO9VOQ2SU","A1F8MH33EFT5VQ","3L1EFR8WWTRIL5MKAR1UWRHK4IC9FJ","","646.3000000007451","img/land5.png","74","647.5","1","1","3","2","0.8,0.2,0.2,0.2,0.8,0.2,0.2,0.2,0.8","0.2,0.8,0.2,0.2,0.2,0.8,0.8,0.2,0.2","3","",""
"","html-keyboard-response","312","262525","0.0-312.0","3TAYZSBPLMUIBA41M4RGIMO9VOQ2SU","A1F8MH33EFT5VQ","3L1EFR8WWTRIL5MKAR1UWRHK4IC9FJ","","null","<img src=""img/land5.png"" style=""width:200px; border:14px solid green;"">","null","","","","","","","","","",""
"","image-keyboard-response","313","263184","0.0-313.0","3TAYZSBPLMUIBA41M4RGIMO9VOQ2SU","A1F8MH33EFT5VQ","3L1EFR8WWTRIL5MKAR1UWRHK4IC9FJ","","657.6000000014901","img/land2.png","75","658.8000000007451","2","1","1","2","0.8,0.2,0.2,0.2,0.8,0.2,0.2,0.2,0.8","0.2,0.8,0.2,0.2,0.2,0.8,0.8,0.2,0.2","3","",""
"","html-keyboard-response","314","263487","0.0-314.0","3TAYZSBPLMUIBA41M4RGIMO9VOQ2SU","A1F8MH33EFT5VQ","3L1EFR8WWTRIL5MKAR1UWRHK4IC9FJ","","null","<img src=""img/land2.png"" style=""width:200px; border:14px solid green;"">","null","","","","","","","","","",""
"","image-keyboard-response","315","264288","0.0-315.0","3TAYZSBPLMUIBA41M4RGIMO9VOQ2SU","A1F8MH33EFT5VQ","3L1EFR8WWTRIL5MKAR1UWRHK4IC9FJ","","799.3999999985099","img/land2.png","75","800.5","2","0","1","2","0.8,0.2,0.2,0.2,0.8,0.2,0.2,0.2,0.8","0.2,0.8,0.2,0.2,0.2,0.8,0.8,0.2,0.2","3","",""
"","html-keyboard-response","316","264589","0.0-316.0","3TAYZSBPLMUIBA41M4RGIMO9VOQ2SU","A1F8MH33EFT5VQ","3L1EFR8WWTRIL5MKAR1UWRHK4IC9FJ","","null","<img src=""img/land2.png"" style=""width:200px;border:14px solid red;"">","null","","","","","","","","","",""
"","image-keyboard-response","317","265142","0.0-317.0","3TAYZSBPLMUIBA41M4RGIMO9VOQ2SU","A1F8MH33EFT5VQ","3L1EFR8WWTRIL5MKAR1UWRHK4IC9FJ","","551.9000000022352","img/land2.png","75","553.3000000007451","2","1","1","2","0.8,0.2,0.2,0.2,0.8,0.2,0.2,0.2,0.8","0.2,0.8,0.2,0.2,0.2,0.8,0.8,0.2,0.2","3","",""
"","html-keyboard-response","318","265444","0.0-318.0","3TAYZSBPLMUIBA41M4RGIMO9VOQ2SU","A1F8MH33EFT5VQ","3L1EFR8WWTRIL5MKAR1UWRHK4IC9FJ","","null","<img src=""img/land2.png"" style=""width:200px; border:14px solid green;"">","null","","","","","","","","","",""
"","image-keyboard-response","319","266201","0.0-319.0","3TAYZSBPLMUIBA41M4RGIMO9VOQ2SU","A1F8MH33EFT5VQ","3L1EFR8WWTRIL5MKAR1UWRHK4IC9FJ","","755.6999999992549","img/land2.png","75","756.6999999992549","2","1","1","2","0.8,0.2,0.2,0.2,0.8,0.2,0.2,0.2,0.8","0.2,0.8,0.2,0.2,0.2,0.8,0.8,0.2,0.2","3","",""
"","html-keyboard-response","320","266503","0.0-320.0","3TAYZSBPLMUIBA41M4RGIMO9VOQ2SU","A1F8MH33EFT5VQ","3L1EFR8WWTRIL5MKAR1UWRHK4IC9FJ","","null","<img src=""img/land2.png"" style=""width:200px; border:14px solid green;"">","null","","","","","","","","","",""
"","image-keyboard-response","321","267199","0.0-321.0","3TAYZSBPLMUIBA41M4RGIMO9VOQ2SU","A1F8MH33EFT5VQ","3L1EFR8WWTRIL5MKAR1UWRHK4IC9FJ","","693.8000000007451","img/land6.png","76","694.8000000007451","3","1","2","2","0.8,0.2,0.2,0.2,0.8,0.2,0.2,0.2,0.8","0.2,0.8,0.2,0.2,0.2,0.8,0.8,0.2,0.2","3","",""
"","html-keyboard-response","322","267506","0.0-322.0","3TAYZSBPLMUIBA41M4RGIMO9VOQ2SU","A1F8MH33EFT5VQ","3L1EFR8WWTRIL5MKAR1UWRHK4IC9FJ","","null","<img src=""img/land6.png"" style=""width:200px; border:14px solid green;"">","null","","","","","","","","","",""
"","image-keyboard-response","323","268802","0.0-323.0","3TAYZSBPLMUIBA41M4RGIMO9VOQ2SU","A1F8MH33EFT5VQ","3L1EFR8WWTRIL5MKAR1UWRHK4IC9FJ","","1294.800000000745","img/land2.png","75","1295.699999999255","2","1","1","2","0.8,0.2,0.2,0.2,0.8,0.2,0.2,0.2,0.8","0.2,0.8,0.2,0.2,0.2,0.8,0.8,0.2,0.2","3","",""
"","html-keyboard-response","324","269105","0.0-324.0","3TAYZSBPLMUIBA41M4RGIMO9VOQ2SU","A1F8MH33EFT5VQ","3L1EFR8WWTRIL5MKAR1UWRHK4IC9FJ","","null","<img src=""img/land2.png"" style=""width:200px; border:14px solid green;"">","null","","","","","","","","","",""
"","image-keyboard-response","325","269722","0.0-325.0","3TAYZSBPLMUIBA41M4RGIMO9VOQ2SU","A1F8MH33EFT5VQ","3L1EFR8WWTRIL5MKAR1UWRHK4IC9FJ","","615.5","img/land5.png","74","616.8999999985099","1","1","3","2","0.8,0.2,0.2,0.2,0.8,0.2,0.2,0.2,0.8","0.2,0.8,0.2,0.2,0.2,0.8,0.8,0.2,0.2","3","",""
"","html-keyboard-response","326","270024","0.0-326.0","3TAYZSBPLMUIBA41M4RGIMO9VOQ2SU","A1F8MH33EFT5VQ","3L1EFR8WWTRIL5MKAR1UWRHK4IC9FJ","","null","<img src=""img/land5.png"" style=""width:200px; border:14px solid green;"">","null","","","","","","","","","",""
"","image-keyboard-response","327","270720","0.0-327.0","3TAYZSBPLMUIBA41M4RGIMO9VOQ2SU","A1F8MH33EFT5VQ","3L1EFR8WWTRIL5MKAR1UWRHK4IC9FJ","","694.5","img/land2.png","75","695.5999999977648","2","1","1","2","0.8,0.2,0.2,0.2,0.8,0.2,0.2,0.2,0.8","0.2,0.8,0.2,0.2,0.2,0.8,0.8,0.2,0.2","3","",""
"","html-keyboard-response","328","271022","0.0-328.0","3TAYZSBPLMUIBA41M4RGIMO9VOQ2SU","A1F8MH33EFT5VQ","3L1EFR8WWTRIL5MKAR1UWRHK4IC9FJ","","null","<img src=""img/land2.png"" style=""width:200px; border:14px solid green;"">","null","","","","","","","","","",""
"","image-keyboard-response","329","271638","0.0-329.0","3TAYZSBPLMUIBA41M4RGIMO9VOQ2SU","A1F8MH33EFT5VQ","3L1EFR8WWTRIL5MKAR1UWRHK4IC9FJ","","615.7000000029802","img/land2.png","75","616.5","2","1","1","2","0.8,0.2,0.2,0.2,0.8,0.2,0.2,0.2,0.8","0.2,0.8,0.2,0.2,0.2,0.8,0.8,0.2,0.2","3","",""
"","html-keyboard-response","330","271940","0.0-330.0","3TAYZSBPLMUIBA41M4RGIMO9VOQ2SU","A1F8MH33EFT5VQ","3L1EFR8WWTRIL5MKAR1UWRHK4IC9FJ","","null","<img src=""img/land2.png"" style=""width:200px; border:14px solid green;"">","null","","","","","","","","","",""
"","image-keyboard-response","331","272627","0.0-331.0","3TAYZSBPLMUIBA41M4RGIMO9VOQ2SU","A1F8MH33EFT5VQ","3L1EFR8WWTRIL5MKAR1UWRHK4IC9FJ","","686.5","img/land2.png","75","687.5","2","1","1","2","0.8,0.2,0.2,0.2,0.8,0.2,0.2,0.2,0.8","0.2,0.8,0.2,0.2,0.2,0.8,0.8,0.2,0.2","3","",""
"","html-keyboard-response","332","272929","0.0-332.0","3TAYZSBPLMUIBA41M4RGIMO9VOQ2SU","A1F8MH33EFT5VQ","3L1EFR8WWTRIL5MKAR1UWRHK4IC9FJ","","null","<img src=""img/land2.png"" style=""width:200px; border:14px solid green;"">","null","","","","","","","","","",""
"","image-keyboard-response","333","273427","0.0-333.0","3TAYZSBPLMUIBA41M4RGIMO9VOQ2SU","A1F8MH33EFT5VQ","3L1EFR8WWTRIL5MKAR1UWRHK4IC9FJ","","496.8999999985099","img/land2.png","75","498.20000000298023","2","1","1","2","0.8,0.2,0.2,0.2,0.8,0.2,0.2,0.2,0.8","0.2,0.8,0.2,0.2,0.2,0.8,0.8,0.2,0.2","3","",""
"","html-keyboard-response","334","273728","0.0-334.0","3TAYZSBPLMUIBA41M4RGIMO9VOQ2SU","A1F8MH33EFT5VQ","3L1EFR8WWTRIL5MKAR1UWRHK4IC9FJ","","null","<img src=""img/land2.png"" style=""width:200px; border:14px solid green;"">","null","","","","","","","","","",""
"","image-keyboard-response","335","274271","0.0-335.0","3TAYZSBPLMUIBA41M4RGIMO9VOQ2SU","A1F8MH33EFT5VQ","3L1EFR8WWTRIL5MKAR1UWRHK4IC9FJ","","541.4000000022352","img/land2.png","75","542.3000000007451","2","1","1","2","0.8,0.2,0.2,0.2,0.8,0.2,0.2,0.2,0.8","0.2,0.8,0.2,0.2,0.2,0.8,0.8,0.2,0.2","3","",""
"","html-keyboard-response","336","274572","0.0-336.0","3TAYZSBPLMUIBA41M4RGIMO9VOQ2SU","A1F8MH33EFT5VQ","3L1EFR8WWTRIL5MKAR1UWRHK4IC9FJ","","null","<img src=""img/land2.png"" style=""width:200px; border:14px solid green;"">","null","","","","","","","","","",""
"","image-keyboard-response","337","275111","0.0-337.0","3TAYZSBPLMUIBA41M4RGIMO9VOQ2SU","A1F8MH33EFT5VQ","3L1EFR8WWTRIL5MKAR1UWRHK4IC9FJ","","537.2000000029802","img/land2.png","75","538.4000000022352","2","1","1","2","0.8,0.2,0.2,0.2,0.8,0.2,0.2,0.2,0.8","0.2,0.8,0.2,0.2,0.2,0.8,0.8,0.2,0.2","3","",""
"","html-keyboard-response","338","275413","0.0-338.0","3TAYZSBPLMUIBA41M4RGIMO9VOQ2SU","A1F8MH33EFT5VQ","3L1EFR8WWTRIL5MKAR1UWRHK4IC9FJ","","null","<img src=""img/land2.png"" style=""width:200px; border:14px solid green;"">","null","","","","","","","","","",""
"","image-keyboard-response","339","275999","0.0-339.0","3TAYZSBPLMUIBA41M4RGIMO9VOQ2SU","A1F8MH33EFT5VQ","3L1EFR8WWTRIL5MKAR1UWRHK4IC9FJ","","584.6000000014901","img/land2.png","75","585.5999999977648","2","1","1","2","0.8,0.2,0.2,0.2,0.8,0.2,0.2,0.2,0.8","0.2,0.8,0.2,0.2,0.2,0.8,0.8,0.2,0.2","3","",""
"","html-keyboard-response","340","276301","0.0-340.0","3TAYZSBPLMUIBA41M4RGIMO9VOQ2SU","A1F8MH33EFT5VQ","3L1EFR8WWTRIL5MKAR1UWRHK4IC9FJ","","null","<img src=""img/land2.png"" style=""width:200px; border:14px solid green;"">","null","","","","","","","","","",""
"","image-keyboard-response","341","276849","0.0-341.0","3TAYZSBPLMUIBA41M4RGIMO9VOQ2SU","A1F8MH33EFT5VQ","3L1EFR8WWTRIL5MKAR1UWRHK4IC9FJ","","547","img/land2.png","75","548.3000000007451","2","0","1","2","0.8,0.2,0.2,0.2,0.8,0.2,0.2,0.2,0.8","0.2,0.8,0.2,0.2,0.2,0.8,0.8,0.2,0.2","3","",""
"","html-keyboard-response","342","277151","0.0-342.0","3TAYZSBPLMUIBA41M4RGIMO9VOQ2SU","A1F8MH33EFT5VQ","3L1EFR8WWTRIL5MKAR1UWRHK4IC9FJ","","null","<img src=""img/land2.png"" style=""width:200px;border:14px solid red;"">","null","","","","","","","","","",""
"","image-keyboard-response","343","277752","0.0-343.0","3TAYZSBPLMUIBA41M4RGIMO9VOQ2SU","A1F8MH33EFT5VQ","3L1EFR8WWTRIL5MKAR1UWRHK4IC9FJ","","599.4000000022352","img/land2.png","75","600.6000000014901","2","1","1","2","0.8,0.2,0.2,0.2,0.8,0.2,0.2,0.2,0.8","0.2,0.8,0.2,0.2,0.2,0.8,0.8,0.2,0.2","3","",""
"","html-keyboard-response","344","278054","0.0-344.0","3TAYZSBPLMUIBA41M4RGIMO9VOQ2SU","A1F8MH33EFT5VQ","3L1EFR8WWTRIL5MKAR1UWRHK4IC9FJ","","null","<img src=""img/land2.png"" style=""width:200px; border:14px solid green;"">","null","","","","","","","","","",""
"","image-keyboard-response","345","278615","0.0-345.0","3TAYZSBPLMUIBA41M4RGIMO9VOQ2SU","A1F8MH33EFT5VQ","3L1EFR8WWTRIL5MKAR1UWRHK4IC9FJ","","559.8999999985099","img/land2.png","75","561.1000000014901","2","1","1","2","0.8,0.2,0.2,0.2,0.8,0.2,0.2,0.2,0.8","0.2,0.8,0.2,0.2,0.2,0.8,0.8,0.2,0.2","3","",""
"","html-keyboard-response","346","278918","0.0-346.0","3TAYZSBPLMUIBA41M4RGIMO9VOQ2SU","A1F8MH33EFT5VQ","3L1EFR8WWTRIL5MKAR1UWRHK4IC9FJ","","null","<img src=""img/land2.png"" style=""width:200px; border:14px solid green;"">","null","","","","","","","","","",""
"","image-keyboard-response","347","279540","0.0-347.0","3TAYZSBPLMUIBA41M4RGIMO9VOQ2SU","A1F8MH33EFT5VQ","3L1EFR8WWTRIL5MKAR1UWRHK4IC9FJ","","621.0999999977648","img/land6.png","76","622.1999999992549","3","1","2","2","0.8,0.2,0.2,0.2,0.8,0.2,0.2,0.2,0.8","0.2,0.8,0.2,0.2,0.2,0.8,0.8,0.2,0.2","3","",""
"","html-keyboard-response","348","279842","0.0-348.0","3TAYZSBPLMUIBA41M4RGIMO9VOQ2SU","A1F8MH33EFT5VQ","3L1EFR8WWTRIL5MKAR1UWRHK4IC9FJ","","null","<img src=""img/land6.png"" style=""width:200px; border:14px solid green;"">","null","","","","","","","","","",""
"","image-keyboard-response","349","280408","0.0-349.0","3TAYZSBPLMUIBA41M4RGIMO9VOQ2SU","A1F8MH33EFT5VQ","3L1EFR8WWTRIL5MKAR1UWRHK4IC9FJ","","564.9000000022352","img/land6.png","76","565.8999999985099","3","1","2","2","0.8,0.2,0.2,0.2,0.8,0.2,0.2,0.2,0.8","0.2,0.8,0.2,0.2,0.2,0.8,0.8,0.2,0.2","3","",""
"","html-keyboard-response","350","280709","0.0-350.0","3TAYZSBPLMUIBA41M4RGIMO9VOQ2SU","A1F8MH33EFT5VQ","3L1EFR8WWTRIL5MKAR1UWRHK4IC9FJ","","null","<img src=""img/land6.png"" style=""width:200px; border:14px solid green;"">","null","","","","","","","","","",""
"","image-keyboard-response","351","281227","0.0-351.0","3TAYZSBPLMUIBA41M4RGIMO9VOQ2SU","A1F8MH33EFT5VQ","3L1EFR8WWTRIL5MKAR1UWRHK4IC9FJ","","516.8000000007451","img/land6.png","76","517.6999999992549","3","1","2","2","0.8,0.2,0.2,0.2,0.8,0.2,0.2,0.2,0.8","0.2,0.8,0.2,0.2,0.2,0.8,0.8,0.2,0.2","3","",""
"","html-keyboard-response","352","281528","0.0-352.0","3TAYZSBPLMUIBA41M4RGIMO9VOQ2SU","A1F8MH33EFT5VQ","3L1EFR8WWTRIL5MKAR1UWRHK4IC9FJ","","null","<img src=""img/land6.png"" style=""width:200px; border:14px solid green;"">","null","","","","","","","","","",""
"","image-keyboard-response","353","282291","0.0-353.0","3TAYZSBPLMUIBA41M4RGIMO9VOQ2SU","A1F8MH33EFT5VQ","3L1EFR8WWTRIL5MKAR1UWRHK4IC9FJ","","761.3000000007451","img/land2.png","75","762.3999999985099","2","1","1","2","0.8,0.2,0.2,0.2,0.8,0.2,0.2,0.2,0.8","0.2,0.8,0.2,0.2,0.2,0.8,0.8,0.2,0.2","3","",""
"","html-keyboard-response","354","282594","0.0-354.0","3TAYZSBPLMUIBA41M4RGIMO9VOQ2SU","A1F8MH33EFT5VQ","3L1EFR8WWTRIL5MKAR1UWRHK4IC9FJ","","null","<img src=""img/land2.png"" style=""width:200px; border:14px solid green;"">","null","","","","","","","","","",""
