"success","trial_type","trial_index","time_elapsed","internal_node_id","assignmentID","mturkID","hitID","view_history","rt","stimulus","key_press","reactionTime","a","r","s","cond","reward_cond","reward_cond_actual","reward_matrix_idx","responses","question_order"
"true","fullscreen","0","6505","0.0-0.0","3VP0C6EFSHI3VGAXP97XWQ6FJSVM6G","A1FHC4Z6QXDQSS","3Z3R5YC0P3915KVY8X6BNRIWYOFFTN","","","","","","","","","","","","","",""
"","instructions","1","13752","0.0-1.0","3VP0C6EFSHI3VGAXP97XWQ6FJSVM6G","A1FHC4Z6QXDQSS","3Z3R5YC0P3915KVY8X6BNRIWYOFFTN","[{""page_index"":0,""viewing_time"":2066.199999809265},{""page_index"":1,""viewing_time"":1229.9000000953674},{""page_index"":2,""viewing_time"":628.7999999523163},{""page_index"":3,""viewing_time"":706.9000000953674},{""page_index"":4,""viewing_time"":795.7999999523163},{""page_index"":5,""viewing_time"":1003.2000000476837},{""page_index"":6,""viewing_time"":813.7999999523163}]","7244.899999856949","","","","","","","","","","","",""
"","image-keyboard-response","2","14476","0.0-2.0","3VP0C6EFSHI3VGAXP97XWQ6FJSVM6G","A1FHC4Z6QXDQSS","3Z3R5YC0P3915KVY8X6BNRIWYOFFTN","","723","img/land4.png","74","723.7999999523163","1","1","1","1","0.8,0.2,0.2,0.2,0.8,0.2,0.2,0.2,0.8","0.8,0.2,0.2,0.2,0.8,0.2,0.2,0.2,0.8","1","",""
"","html-keyboard-response","3","14790","0.0-3.0","3VP0C6EFSHI3VGAXP97XWQ6FJSVM6G","A1FHC4Z6QXDQSS","3Z3R5YC0P3915KVY8X6BNRIWYOFFTN","","null","<img src=""img/land4.png"" style=""width:200px; border:14px solid green;"">","null","","","","","","","","","",""
"","image-keyboard-response","4","15640","0.0-4.0","3VP0C6EFSHI3VGAXP97XWQ6FJSVM6G","A1FHC4Z6QXDQSS","3Z3R5YC0P3915KVY8X6BNRIWYOFFTN","","848.5","img/land2.png","74","849.1999998092651","1","0","3","1","0.8,0.2,0.2,0.2,0.8,0.2,0.2,0.2,0.8","0.8,0.2,0.2,0.2,0.8,0.2,0.2,0.2,0.8","1","",""
"","html-keyboard-response","5","15950","0.0-5.0","3VP0C6EFSHI3VGAXP97XWQ6FJSVM6G","A1FHC4Z6QXDQSS","3Z3R5YC0P3915KVY8X6BNRIWYOFFTN","","null","<img src=""img/land2.png"" style=""width:200px;border:14px solid red;"">","null","","","","","","","","","",""
"","image-keyboard-response","6","16870","0.0-6.0","3VP0C6EFSHI3VGAXP97XWQ6FJSVM6G","A1FHC4Z6QXDQSS","3Z3R5YC0P3915KVY8X6BNRIWYOFFTN","","918.7999999523163","img/land6.png","74","919.8000001907349","1","0","2","1","0.8,0.2,0.2,0.2,0.8,0.2,0.2,0.2,0.8","0.8,0.2,0.2,0.2,0.8,0.2,0.2,0.2,0.8","1","",""
"","html-keyboard-response","7","17181","0.0-7.0","3VP0C6EFSHI3VGAXP97XWQ6FJSVM6G","A1FHC4Z6QXDQSS","3Z3R5YC0P3915KVY8X6BNRIWYOFFTN","","null","<img src=""img/land6.png"" style=""width:200px;border:14px solid red;"">","null","","","","","","","","","",""
"","image-keyboard-response","8","18645","0.0-8.0","3VP0C6EFSHI3VGAXP97XWQ6FJSVM6G","A1FHC4Z6QXDQSS","3Z3R5YC0P3915KVY8X6BNRIWYOFFTN","","1463","img/land2.png","74","1463.7999999523163","1","0","3","1","0.8,0.2,0.2,0.2,0.8,0.2,0.2,0.2,0.8","0.8,0.2,0.2,0.2,0.8,0.2,0.2,0.2,0.8","1","",""
"","html-keyboard-response","9","18951","0.0-9.0","3VP0C6EFSHI3VGAXP97XWQ6FJSVM6G","A1FHC4Z6QXDQSS","3Z3R5YC0P3915KVY8X6BNRIWYOFFTN","","null","<img src=""img/land2.png"" style=""width:200px;border:14px solid red;"">","null","","","","","","","","","",""
"","image-keyboard-response","10","20370","0.0-10.0","3VP0C6EFSHI3VGAXP97XWQ6FJSVM6G","A1FHC4Z6QXDQSS","3Z3R5YC0P3915KVY8X6BNRIWYOFFTN","","1418.3999998569489","img/land2.png","75","1419.1999998092651","2","0","3","1","0.8,0.2,0.2,0.2,0.8,0.2,0.2,0.2,0.8","0.8,0.2,0.2,0.2,0.8,0.2,0.2,0.2,0.8","1","",""
"","html-keyboard-response","11","20690","0.0-11.0","3VP0C6EFSHI3VGAXP97XWQ6FJSVM6G","A1FHC4Z6QXDQSS","3Z3R5YC0P3915KVY8X6BNRIWYOFFTN","","null","<img src=""img/land2.png"" style=""width:200px;border:14px solid red;"">","null","","","","","","","","","",""
"","image-keyboard-response","12","21414","0.0-12.0","3VP0C6EFSHI3VGAXP97XWQ6FJSVM6G","A1FHC4Z6QXDQSS","3Z3R5YC0P3915KVY8X6BNRIWYOFFTN","","722.7999999523163","img/land4.png","74","723.4000000953674","1","1","1","1","0.8,0.2,0.2,0.2,0.8,0.2,0.2,0.2,0.8","0.8,0.2,0.2,0.2,0.8,0.2,0.2,0.2,0.8","1","",""
"","html-keyboard-response","13","21715","0.0-13.0","3VP0C6EFSHI3VGAXP97XWQ6FJSVM6G","A1FHC4Z6QXDQSS","3Z3R5YC0P3915KVY8X6BNRIWYOFFTN","","null","<img src=""img/land4.png"" style=""width:200px; border:14px solid green;"">","null","","","","","","","","","",""
"","image-keyboard-response","14","22493","0.0-14.0","3VP0C6EFSHI3VGAXP97XWQ6FJSVM6G","A1FHC4Z6QXDQSS","3Z3R5YC0P3915KVY8X6BNRIWYOFFTN","","777.3999998569489","img/land2.png","75","778.0999999046326","2","1","3","1","0.8,0.2,0.2,0.2,0.8,0.2,0.2,0.2,0.8","0.8,0.2,0.2,0.2,0.8,0.2,0.2,0.2,0.8","1","",""
"","html-keyboard-response","15","22800","0.0-15.0","3VP0C6EFSHI3VGAXP97XWQ6FJSVM6G","A1FHC4Z6QXDQSS","3Z3R5YC0P3915KVY8X6BNRIWYOFFTN","","null","<img src=""img/land2.png"" style=""width:200px; border:14px solid green;"">","null","","","","","","","","","",""
"","image-keyboard-response","16","23400","0.0-16.0","3VP0C6EFSHI3VGAXP97XWQ6FJSVM6G","A1FHC4Z6QXDQSS","3Z3R5YC0P3915KVY8X6BNRIWYOFFTN","","599.2999999523163","img/land2.png","75","600.2000000476837","2","0","3","1","0.8,0.2,0.2,0.2,0.8,0.2,0.2,0.2,0.8","0.8,0.2,0.2,0.2,0.8,0.2,0.2,0.2,0.8","1","",""
"","html-keyboard-response","17","23710","0.0-17.0","3VP0C6EFSHI3VGAXP97XWQ6FJSVM6G","A1FHC4Z6QXDQSS","3Z3R5YC0P3915KVY8X6BNRIWYOFFTN","","null","<img src=""img/land2.png"" style=""width:200px;border:14px solid red;"">","null","","","","","","","","","",""
"","image-keyboard-response","18","24612","0.0-18.0","3VP0C6EFSHI3VGAXP97XWQ6FJSVM6G","A1FHC4Z6QXDQSS","3Z3R5YC0P3915KVY8X6BNRIWYOFFTN","","901.2999999523163","img/land6.png","74","902","1","0","2","1","0.8,0.2,0.2,0.2,0.8,0.2,0.2,0.2,0.8","0.8,0.2,0.2,0.2,0.8,0.2,0.2,0.2,0.8","1","",""
"","html-keyboard-response","19","24920","0.0-19.0","3VP0C6EFSHI3VGAXP97XWQ6FJSVM6G","A1FHC4Z6QXDQSS","3Z3R5YC0P3915KVY8X6BNRIWYOFFTN","","null","<img src=""img/land6.png"" style=""width:200px;border:14px solid red;"">","null","","","","","","","","","",""
"","image-keyboard-response","20","25409","0.0-20.0","3VP0C6EFSHI3VGAXP97XWQ6FJSVM6G","A1FHC4Z6QXDQSS","3Z3R5YC0P3915KVY8X6BNRIWYOFFTN","","487.2999999523163","img/land6.png","75","488.2999999523163","2","0","2","1","0.8,0.2,0.2,0.2,0.8,0.2,0.2,0.2,0.8","0.8,0.2,0.2,0.2,0.8,0.2,0.2,0.2,0.8","1","",""
"","html-keyboard-response","21","25711","0.0-21.0","3VP0C6EFSHI3VGAXP97XWQ6FJSVM6G","A1FHC4Z6QXDQSS","3Z3R5YC0P3915KVY8X6BNRIWYOFFTN","","null","<img src=""img/land6.png"" style=""width:200px;border:14px solid red;"">","null","","","","","","","","","",""
"","image-keyboard-response","22","26192","0.0-22.0","3VP0C6EFSHI3VGAXP97XWQ6FJSVM6G","A1FHC4Z6QXDQSS","3Z3R5YC0P3915KVY8X6BNRIWYOFFTN","","480.60000014305115","img/land6.png","74","481.5","1","1","2","1","0.8,0.2,0.2,0.2,0.8,0.2,0.2,0.2,0.8","0.8,0.2,0.2,0.2,0.8,0.2,0.2,0.2,0.8","1","",""
"","html-keyboard-response","23","26500","0.0-23.0","3VP0C6EFSHI3VGAXP97XWQ6FJSVM6G","A1FHC4Z6QXDQSS","3Z3R5YC0P3915KVY8X6BNRIWYOFFTN","","null","<img src=""img/land6.png"" style=""width:200px; border:14px solid green;"">","null","","","","","","","","","",""
"","image-keyboard-response","24","26936","0.0-24.0","3VP0C6EFSHI3VGAXP97XWQ6FJSVM6G","A1FHC4Z6QXDQSS","3Z3R5YC0P3915KVY8X6BNRIWYOFFTN","","434.59999990463257","img/land6.png","74","435.2999999523163","1","1","2","1","0.8,0.2,0.2,0.2,0.8,0.2,0.2,0.2,0.8","0.8,0.2,0.2,0.2,0.8,0.2,0.2,0.2,0.8","1","",""
"","html-keyboard-response","25","27250","0.0-25.0","3VP0C6EFSHI3VGAXP97XWQ6FJSVM6G","A1FHC4Z6QXDQSS","3Z3R5YC0P3915KVY8X6BNRIWYOFFTN","","null","<img src=""img/land6.png"" style=""width:200px; border:14px solid green;"">","null","","","","","","","","","",""
"","image-keyboard-response","26","28991","0.0-26.0","3VP0C6EFSHI3VGAXP97XWQ6FJSVM6G","A1FHC4Z6QXDQSS","3Z3R5YC0P3915KVY8X6BNRIWYOFFTN","","1739.5999999046326","img/land2.png","75","1740.4000000953674","2","0","3","1","0.8,0.2,0.2,0.2,0.8,0.2,0.2,0.2,0.8","0.8,0.2,0.2,0.2,0.8,0.2,0.2,0.2,0.8","1","",""
"","html-keyboard-response","27","29310","0.0-27.0","3VP0C6EFSHI3VGAXP97XWQ6FJSVM6G","A1FHC4Z6QXDQSS","3Z3R5YC0P3915KVY8X6BNRIWYOFFTN","","null","<img src=""img/land2.png"" style=""width:200px;border:14px solid red;"">","null","","","","","","","","","",""
"","image-keyboard-response","28","29845","0.0-28.0","3VP0C6EFSHI3VGAXP97XWQ6FJSVM6G","A1FHC4Z6QXDQSS","3Z3R5YC0P3915KVY8X6BNRIWYOFFTN","","533.8000001907349","img/land6.png","74","534.5999999046326","1","0","2","1","0.8,0.2,0.2,0.2,0.8,0.2,0.2,0.2,0.8","0.8,0.2,0.2,0.2,0.8,0.2,0.2,0.2,0.8","1","",""
"","html-keyboard-response","29","30147","0.0-29.0","3VP0C6EFSHI3VGAXP97XWQ6FJSVM6G","A1FHC4Z6QXDQSS","3Z3R5YC0P3915KVY8X6BNRIWYOFFTN","","null","<img src=""img/land6.png"" style=""width:200px;border:14px solid red;"">","null","","","","","","","","","",""
"","image-keyboard-response","30","30892","0.0-30.0","3VP0C6EFSHI3VGAXP97XWQ6FJSVM6G","A1FHC4Z6QXDQSS","3Z3R5YC0P3915KVY8X6BNRIWYOFFTN","","744.5999999046326","img/land2.png","74","745.1999998092651","1","0","3","1","0.8,0.2,0.2,0.2,0.8,0.2,0.2,0.2,0.8","0.8,0.2,0.2,0.2,0.8,0.2,0.2,0.2,0.8","1","",""
"","html-keyboard-response","31","31194","0.0-31.0","3VP0C6EFSHI3VGAXP97XWQ6FJSVM6G","A1FHC4Z6QXDQSS","3Z3R5YC0P3915KVY8X6BNRIWYOFFTN","","null","<img src=""img/land2.png"" style=""width:200px;border:14px solid red;"">","null","","","","","","","","","",""
"","image-keyboard-response","32","31399","0.0-32.0","3VP0C6EFSHI3VGAXP97XWQ6FJSVM6G","A1FHC4Z6QXDQSS","3Z3R5YC0P3915KVY8X6BNRIWYOFFTN","","203.29999995231628","img/land4.png","74","204.10000014305115","1","0","1","1","0.8,0.2,0.2,0.2,0.8,0.2,0.2,0.2,0.8","0.8,0.2,0.2,0.2,0.8,0.2,0.2,0.2,0.8","1","",""
"","html-keyboard-response","33","31700","0.0-33.0","3VP0C6EFSHI3VGAXP97XWQ6FJSVM6G","A1FHC4Z6QXDQSS","3Z3R5YC0P3915KVY8X6BNRIWYOFFTN","","null","<img src=""img/land4.png"" style=""width:200px;border:14px solid red;"">","null","","","","","","","","","",""
"","image-keyboard-response","34","31920","0.0-34.0","3VP0C6EFSHI3VGAXP97XWQ6FJSVM6G","A1FHC4Z6QXDQSS","3Z3R5YC0P3915KVY8X6BNRIWYOFFTN","","218.79999995231628","img/land2.png","74","219.5","1","0","3","1","0.8,0.2,0.2,0.2,0.8,0.2,0.2,0.2,0.8","0.8,0.2,0.2,0.2,0.8,0.2,0.2,0.2,0.8","1","",""
"","html-keyboard-response","35","32222","0.0-35.0","3VP0C6EFSHI3VGAXP97XWQ6FJSVM6G","A1FHC4Z6QXDQSS","3Z3R5YC0P3915KVY8X6BNRIWYOFFTN","","null","<img src=""img/land2.png"" style=""width:200px;border:14px solid red;"">","null","","","","","","","","","",""
"","image-keyboard-response","36","32319","0.0-36.0","3VP0C6EFSHI3VGAXP97XWQ6FJSVM6G","A1FHC4Z6QXDQSS","3Z3R5YC0P3915KVY8X6BNRIWYOFFTN","","96.70000004768372","img/land6.png","74","97.5","1","0","2","1","0.8,0.2,0.2,0.2,0.8,0.2,0.2,0.2,0.8","0.8,0.2,0.2,0.2,0.8,0.2,0.2,0.2,0.8","1","",""
"","html-keyboard-response","37","32621","0.0-37.0","3VP0C6EFSHI3VGAXP97XWQ6FJSVM6G","A1FHC4Z6QXDQSS","3Z3R5YC0P3915KVY8X6BNRIWYOFFTN","","null","<img src=""img/land6.png"" style=""width:200px;border:14px solid red;"">","null","","","","","","","","","",""
"","image-keyboard-response","38","32735","0.0-38.0","3VP0C6EFSHI3VGAXP97XWQ6FJSVM6G","A1FHC4Z6QXDQSS","3Z3R5YC0P3915KVY8X6BNRIWYOFFTN","","113.5","img/land2.png","74","114.19999980926514","1","0","3","1","0.8,0.2,0.2,0.2,0.8,0.2,0.2,0.2,0.8","0.8,0.2,0.2,0.2,0.8,0.2,0.2,0.2,0.8","1","",""
"","html-keyboard-response","39","33037","0.0-39.0","3VP0C6EFSHI3VGAXP97XWQ6FJSVM6G","A1FHC4Z6QXDQSS","3Z3R5YC0P3915KVY8X6BNRIWYOFFTN","","null","<img src=""img/land2.png"" style=""width:200px;border:14px solid red;"">","null","","","","","","","","","",""
"","image-keyboard-response","40","33419","0.0-40.0","3VP0C6EFSHI3VGAXP97XWQ6FJSVM6G","A1FHC4Z6QXDQSS","3Z3R5YC0P3915KVY8X6BNRIWYOFFTN","","381.30000019073486","img/land2.png","75","382.10000014305115","2","0","3","1","0.8,0.2,0.2,0.2,0.8,0.2,0.2,0.2,0.8","0.8,0.2,0.2,0.2,0.8,0.2,0.2,0.2,0.8","1","",""
"","html-keyboard-response","41","33720","0.0-41.0","3VP0C6EFSHI3VGAXP97XWQ6FJSVM6G","A1FHC4Z6QXDQSS","3Z3R5YC0P3915KVY8X6BNRIWYOFFTN","","null","<img src=""img/land2.png"" style=""width:200px;border:14px solid red;"">","null","","","","","","","","","",""
"","image-keyboard-response","42","33726","0.0-42.0","3VP0C6EFSHI3VGAXP97XWQ6FJSVM6G","A1FHC4Z6QXDQSS","3Z3R5YC0P3915KVY8X6BNRIWYOFFTN","","5.599999904632568","img/land6.png","75","6.1000001430511475","2","0","2","1","0.8,0.2,0.2,0.2,0.8,0.2,0.2,0.2,0.8","0.8,0.2,0.2,0.2,0.8,0.2,0.2,0.2,0.8","1","",""
"","html-keyboard-response","43","34028","0.0-43.0","3VP0C6EFSHI3VGAXP97XWQ6FJSVM6G","A1FHC4Z6QXDQSS","3Z3R5YC0P3915KVY8X6BNRIWYOFFTN","","null","<img src=""img/land6.png"" style=""width:200px;border:14px solid red;"">","null","","","","","","","","","",""
"","image-keyboard-response","44","34285","0.0-44.0","3VP0C6EFSHI3VGAXP97XWQ6FJSVM6G","A1FHC4Z6QXDQSS","3Z3R5YC0P3915KVY8X6BNRIWYOFFTN","","255.60000014305115","img/land2.png","75","256.2000000476837","2","1","3","1","0.8,0.2,0.2,0.2,0.8,0.2,0.2,0.2,0.8","0.8,0.2,0.2,0.2,0.8,0.2,0.2,0.2,0.8","1","",""
"","html-keyboard-response","45","34587","0.0-45.0","3VP0C6EFSHI3VGAXP97XWQ6FJSVM6G","A1FHC4Z6QXDQSS","3Z3R5YC0P3915KVY8X6BNRIWYOFFTN","","null","<img src=""img/land2.png"" style=""width:200px; border:14px solid green;"">","null","","","","","","","","","",""
"","image-keyboard-response","46","34818","0.0-46.0","3VP0C6EFSHI3VGAXP97XWQ6FJSVM6G","A1FHC4Z6QXDQSS","3Z3R5YC0P3915KVY8X6BNRIWYOFFTN","","230.60000014305115","img/land6.png","75","231.40000009536743","2","1","2","1","0.8,0.2,0.2,0.2,0.8,0.2,0.2,0.2,0.8","0.8,0.2,0.2,0.2,0.8,0.2,0.2,0.2,0.8","1","",""
"","html-keyboard-response","47","35120","0.0-47.0","3VP0C6EFSHI3VGAXP97XWQ6FJSVM6G","A1FHC4Z6QXDQSS","3Z3R5YC0P3915KVY8X6BNRIWYOFFTN","","null","<img src=""img/land6.png"" style=""width:200px; border:14px solid green;"">","null","","","","","","","","","",""
"","image-keyboard-response","48","35250","0.0-48.0","3VP0C6EFSHI3VGAXP97XWQ6FJSVM6G","A1FHC4Z6QXDQSS","3Z3R5YC0P3915KVY8X6BNRIWYOFFTN","","129.19999980926514","img/land4.png","75","129.89999985694885","2","1","1","1","0.8,0.2,0.2,0.2,0.8,0.2,0.2,0.2,0.8","0.8,0.2,0.2,0.2,0.8,0.2,0.2,0.2,0.8","1","",""
"","html-keyboard-response","49","35552","0.0-49.0","3VP0C6EFSHI3VGAXP97XWQ6FJSVM6G","A1FHC4Z6QXDQSS","3Z3R5YC0P3915KVY8X6BNRIWYOFFTN","","null","<img src=""img/land4.png"" style=""width:200px; border:14px solid green;"">","null","","","","","","","","","",""
"","image-keyboard-response","50","35676","0.0-50.0","3VP0C6EFSHI3VGAXP97XWQ6FJSVM6G","A1FHC4Z6QXDQSS","3Z3R5YC0P3915KVY8X6BNRIWYOFFTN","","122.70000004768372","img/land4.png","75","123.39999985694885","2","0","1","1","0.8,0.2,0.2,0.2,0.8,0.2,0.2,0.2,0.8","0.8,0.2,0.2,0.2,0.8,0.2,0.2,0.2,0.8","1","",""
"","html-keyboard-response","51","35977","0.0-51.0","3VP0C6EFSHI3VGAXP97XWQ6FJSVM6G","A1FHC4Z6QXDQSS","3Z3R5YC0P3915KVY8X6BNRIWYOFFTN","","null","<img src=""img/land4.png"" style=""width:200px;border:14px solid red;"">","null","","","","","","","","","",""
"","image-keyboard-response","52","36255","0.0-52.0","3VP0C6EFSHI3VGAXP97XWQ6FJSVM6G","A1FHC4Z6QXDQSS","3Z3R5YC0P3915KVY8X6BNRIWYOFFTN","","276.60000014305115","img/land4.png","75","277.39999985694885","2","0","1","1","0.8,0.2,0.2,0.2,0.8,0.2,0.2,0.2,0.8","0.8,0.2,0.2,0.2,0.8,0.2,0.2,0.2,0.8","1","",""
"","html-keyboard-response","53","36556","0.0-53.0","3VP0C6EFSHI3VGAXP97XWQ6FJSVM6G","A1FHC4Z6QXDQSS","3Z3R5YC0P3915KVY8X6BNRIWYOFFTN","","null","<img src=""img/land4.png"" style=""width:200px;border:14px solid red;"">","null","","","","","","","","","",""
"","image-keyboard-response","54","36633","0.0-54.0","3VP0C6EFSHI3VGAXP97XWQ6FJSVM6G","A1FHC4Z6QXDQSS","3Z3R5YC0P3915KVY8X6BNRIWYOFFTN","","76","img/land6.png","75","76.59999990463257","2","1","2","1","0.8,0.2,0.2,0.2,0.8,0.2,0.2,0.2,0.8","0.8,0.2,0.2,0.2,0.8,0.2,0.2,0.2,0.8","1","",""
"","html-keyboard-response","55","36934","0.0-55.0","3VP0C6EFSHI3VGAXP97XWQ6FJSVM6G","A1FHC4Z6QXDQSS","3Z3R5YC0P3915KVY8X6BNRIWYOFFTN","","null","<img src=""img/land6.png"" style=""width:200px; border:14px solid green;"">","null","","","","","","","","","",""
"","image-keyboard-response","56","37128","0.0-56.0","3VP0C6EFSHI3VGAXP97XWQ6FJSVM6G","A1FHC4Z6QXDQSS","3Z3R5YC0P3915KVY8X6BNRIWYOFFTN","","192.20000004768372","img/land2.png","75","193.09999990463257","2","1","3","1","0.8,0.2,0.2,0.2,0.8,0.2,0.2,0.2,0.8","0.8,0.2,0.2,0.2,0.8,0.2,0.2,0.2,0.8","1","",""
"","html-keyboard-response","57","37429","0.0-57.0","3VP0C6EFSHI3VGAXP97XWQ6FJSVM6G","A1FHC4Z6QXDQSS","3Z3R5YC0P3915KVY8X6BNRIWYOFFTN","","null","<img src=""img/land2.png"" style=""width:200px; border:14px solid green;"">","null","","","","","","","","","",""
"","image-keyboard-response","58","37568","0.0-58.0","3VP0C6EFSHI3VGAXP97XWQ6FJSVM6G","A1FHC4Z6QXDQSS","3Z3R5YC0P3915KVY8X6BNRIWYOFFTN","","138","img/land6.png","75","138.79999995231628","2","1","2","1","0.8,0.2,0.2,0.2,0.8,0.2,0.2,0.2,0.8","0.8,0.2,0.2,0.2,0.8,0.2,0.2,0.2,0.8","1","",""
"","html-keyboard-response","59","37884","0.0-59.0","3VP0C6EFSHI3VGAXP97XWQ6FJSVM6G","A1FHC4Z6QXDQSS","3Z3R5YC0P3915KVY8X6BNRIWYOFFTN","","null","<img src=""img/land6.png"" style=""width:200px; border:14px solid green;"">","null","","","","","","","","","",""
"","image-keyboard-response","60","38846","0.0-60.0","3VP0C6EFSHI3VGAXP97XWQ6FJSVM6G","A1FHC4Z6QXDQSS","3Z3R5YC0P3915KVY8X6BNRIWYOFFTN","","961.5","img/land2.png","74","962.1000001430511","1","1","3","1","0.8,0.2,0.2,0.2,0.8,0.2,0.2,0.2,0.8","0.8,0.2,0.2,0.2,0.8,0.2,0.2,0.2,0.8","1","",""
"","html-keyboard-response","61","39147","0.0-61.0","3VP0C6EFSHI3VGAXP97XWQ6FJSVM6G","A1FHC4Z6QXDQSS","3Z3R5YC0P3915KVY8X6BNRIWYOFFTN","","null","<img src=""img/land2.png"" style=""width:200px; border:14px solid green;"">","null","","","","","","","","","",""
"","image-keyboard-response","62","39514","0.0-62.0","3VP0C6EFSHI3VGAXP97XWQ6FJSVM6G","A1FHC4Z6QXDQSS","3Z3R5YC0P3915KVY8X6BNRIWYOFFTN","","365.7000000476837","img/land2.png","74","366.2999999523163","1","0","3","1","0.8,0.2,0.2,0.2,0.8,0.2,0.2,0.2,0.8","0.8,0.2,0.2,0.2,0.8,0.2,0.2,0.2,0.8","1","",""
"","html-keyboard-response","63","39815","0.0-63.0","3VP0C6EFSHI3VGAXP97XWQ6FJSVM6G","A1FHC4Z6QXDQSS","3Z3R5YC0P3915KVY8X6BNRIWYOFFTN","","null","<img src=""img/land2.png"" style=""width:200px;border:14px solid red;"">","null","","","","","","","","","",""
"","image-keyboard-response","64","40025","0.0-64.0","3VP0C6EFSHI3VGAXP97XWQ6FJSVM6G","A1FHC4Z6QXDQSS","3Z3R5YC0P3915KVY8X6BNRIWYOFFTN","","208.89999985694885","img/land6.png","74","209.70000004768372","1","0","2","1","0.8,0.2,0.2,0.2,0.8,0.2,0.2,0.2,0.8","0.8,0.2,0.2,0.2,0.8,0.2,0.2,0.2,0.8","1","",""
"","html-keyboard-response","65","40326","0.0-65.0","3VP0C6EFSHI3VGAXP97XWQ6FJSVM6G","A1FHC4Z6QXDQSS","3Z3R5YC0P3915KVY8X6BNRIWYOFFTN","","null","<img src=""img/land6.png"" style=""width:200px;border:14px solid red;"">","null","","","","","","","","","",""
"","image-keyboard-response","66","40667","0.0-66.0","3VP0C6EFSHI3VGAXP97XWQ6FJSVM6G","A1FHC4Z6QXDQSS","3Z3R5YC0P3915KVY8X6BNRIWYOFFTN","","340.7000000476837","img/land6.png","75","341.40000009536743","2","1","2","1","0.8,0.2,0.2,0.2,0.8,0.2,0.2,0.2,0.8","0.8,0.2,0.2,0.2,0.8,0.2,0.2,0.2,0.8","1","",""
"","html-keyboard-response","67","40968","0.0-67.0","3VP0C6EFSHI3VGAXP97XWQ6FJSVM6G","A1FHC4Z6QXDQSS","3Z3R5YC0P3915KVY8X6BNRIWYOFFTN","","null","<img src=""img/land6.png"" style=""width:200px; border:14px solid green;"">","null","","","","","","","","","",""
"","image-keyboard-response","68","41016","0.0-68.0","3VP0C6EFSHI3VGAXP97XWQ6FJSVM6G","A1FHC4Z6QXDQSS","3Z3R5YC0P3915KVY8X6BNRIWYOFFTN","","46.09999990463257","img/land4.png","75","47","2","0","1","1","0.8,0.2,0.2,0.2,0.8,0.2,0.2,0.2,0.8","0.8,0.2,0.2,0.2,0.8,0.2,0.2,0.2,0.8","1","",""
"","html-keyboard-response","69","41317","0.0-69.0","3VP0C6EFSHI3VGAXP97XWQ6FJSVM6G","A1FHC4Z6QXDQSS","3Z3R5YC0P3915KVY8X6BNRIWYOFFTN","","null","<img src=""img/land4.png"" style=""width:200px;border:14px solid red;"">","null","","","","","","","","","",""
"","image-keyboard-response","70","41897","0.0-70.0","3VP0C6EFSHI3VGAXP97XWQ6FJSVM6G","A1FHC4Z6QXDQSS","3Z3R5YC0P3915KVY8X6BNRIWYOFFTN","","579","img/land4.png","74","579.6999998092651","1","1","1","1","0.8,0.2,0.2,0.2,0.8,0.2,0.2,0.2,0.8","0.8,0.2,0.2,0.2,0.8,0.2,0.2,0.2,0.8","1","",""
"","html-keyboard-response","71","42198","0.0-71.0","3VP0C6EFSHI3VGAXP97XWQ6FJSVM6G","A1FHC4Z6QXDQSS","3Z3R5YC0P3915KVY8X6BNRIWYOFFTN","","null","<img src=""img/land4.png"" style=""width:200px; border:14px solid green;"">","null","","","","","","","","","",""
"","image-keyboard-response","72","42544","0.0-72.0","3VP0C6EFSHI3VGAXP97XWQ6FJSVM6G","A1FHC4Z6QXDQSS","3Z3R5YC0P3915KVY8X6BNRIWYOFFTN","","345.2000000476837","img/land4.png","74","345.89999985694885","1","1","1","1","0.8,0.2,0.2,0.2,0.8,0.2,0.2,0.2,0.8","0.8,0.2,0.2,0.2,0.8,0.2,0.2,0.2,0.8","1","",""
"","html-keyboard-response","73","42846","0.0-73.0","3VP0C6EFSHI3VGAXP97XWQ6FJSVM6G","A1FHC4Z6QXDQSS","3Z3R5YC0P3915KVY8X6BNRIWYOFFTN","","null","<img src=""img/land4.png"" style=""width:200px; border:14px solid green;"">","null","","","","","","","","","",""
"","image-keyboard-response","74","43021","0.0-74.0","3VP0C6EFSHI3VGAXP97XWQ6FJSVM6G","A1FHC4Z6QXDQSS","3Z3R5YC0P3915KVY8X6BNRIWYOFFTN","","174.5","img/land6.png","74","175.30000019073486","1","0","2","1","0.8,0.2,0.2,0.2,0.8,0.2,0.2,0.2,0.8","0.8,0.2,0.2,0.2,0.8,0.2,0.2,0.2,0.8","1","",""
"","html-keyboard-response","75","43323","0.0-75.0","3VP0C6EFSHI3VGAXP97XWQ6FJSVM6G","A1FHC4Z6QXDQSS","3Z3R5YC0P3915KVY8X6BNRIWYOFFTN","","null","<img src=""img/land6.png"" style=""width:200px;border:14px solid red;"">","null","","","","","","","","","",""
"","image-keyboard-response","76","43513","0.0-76.0","3VP0C6EFSHI3VGAXP97XWQ6FJSVM6G","A1FHC4Z6QXDQSS","3Z3R5YC0P3915KVY8X6BNRIWYOFFTN","","188.20000004768372","img/land4.png","75","188.90000009536743","2","0","1","1","0.8,0.2,0.2,0.2,0.8,0.2,0.2,0.2,0.8","0.8,0.2,0.2,0.2,0.8,0.2,0.2,0.2,0.8","1","",""
"","html-keyboard-response","77","43815","0.0-77.0","3VP0C6EFSHI3VGAXP97XWQ6FJSVM6G","A1FHC4Z6QXDQSS","3Z3R5YC0P3915KVY8X6BNRIWYOFFTN","","null","<img src=""img/land4.png"" style=""width:200px;border:14px solid red;"">","null","","","","","","","","","",""
"","image-keyboard-response","78","44364","0.0-78.0","3VP0C6EFSHI3VGAXP97XWQ6FJSVM6G","A1FHC4Z6QXDQSS","3Z3R5YC0P3915KVY8X6BNRIWYOFFTN","","547.5","img/land6.png","74","548.0999999046326","1","0","2","1","0.8,0.2,0.2,0.2,0.8,0.2,0.2,0.2,0.8","0.8,0.2,0.2,0.2,0.8,0.2,0.2,0.2,0.8","1","",""
"","html-keyboard-response","79","44665","0.0-79.0","3VP0C6EFSHI3VGAXP97XWQ6FJSVM6G","A1FHC4Z6QXDQSS","3Z3R5YC0P3915KVY8X6BNRIWYOFFTN","","null","<img src=""img/land6.png"" style=""width:200px;border:14px solid red;"">","null","","","","","","","","","",""
"","image-keyboard-response","80","44906","0.0-80.0","3VP0C6EFSHI3VGAXP97XWQ6FJSVM6G","A1FHC4Z6QXDQSS","3Z3R5YC0P3915KVY8X6BNRIWYOFFTN","","239.5","img/land6.png","75","240.29999995231628","2","1","2","1","0.8,0.2,0.2,0.2,0.8,0.2,0.2,0.2,0.8","0.8,0.2,0.2,0.2,0.8,0.2,0.2,0.2,0.8","1","",""
"","html-keyboard-response","81","45207","0.0-81.0","3VP0C6EFSHI3VGAXP97XWQ6FJSVM6G","A1FHC4Z6QXDQSS","3Z3R5YC0P3915KVY8X6BNRIWYOFFTN","","null","<img src=""img/land6.png"" style=""width:200px; border:14px solid green;"">","null","","","","","","","","","",""
"","image-keyboard-response","82","46029","0.0-82.0","3VP0C6EFSHI3VGAXP97XWQ6FJSVM6G","A1FHC4Z6QXDQSS","3Z3R5YC0P3915KVY8X6BNRIWYOFFTN","","821.5999999046326","img/land4.png","74","822.2999999523163","1","1","1","1","0.8,0.2,0.2,0.2,0.8,0.2,0.2,0.2,0.8","0.8,0.2,0.2,0.2,0.8,0.2,0.2,0.2,0.8","1","",""
"","html-keyboard-response","83","46331","0.0-83.0","3VP0C6EFSHI3VGAXP97XWQ6FJSVM6G","A1FHC4Z6QXDQSS","3Z3R5YC0P3915KVY8X6BNRIWYOFFTN","","null","<img src=""img/land4.png"" style=""width:200px; border:14px solid green;"">","null","","","","","","","","","",""
"","image-keyboard-response","84","47189","0.0-84.0","3VP0C6EFSHI3VGAXP97XWQ6FJSVM6G","A1FHC4Z6QXDQSS","3Z3R5YC0P3915KVY8X6BNRIWYOFFTN","","856.9000000953674","img/land6.png","74","857.7000000476837","1","0","2","1","0.8,0.2,0.2,0.2,0.8,0.2,0.2,0.2,0.8","0.8,0.2,0.2,0.2,0.8,0.2,0.2,0.2,0.8","1","",""
"","html-keyboard-response","85","47490","0.0-85.0","3VP0C6EFSHI3VGAXP97XWQ6FJSVM6G","A1FHC4Z6QXDQSS","3Z3R5YC0P3915KVY8X6BNRIWYOFFTN","","null","<img src=""img/land6.png"" style=""width:200px;border:14px solid red;"">","null","","","","","","","","","",""
"","image-keyboard-response","86","47726","0.0-86.0","3VP0C6EFSHI3VGAXP97XWQ6FJSVM6G","A1FHC4Z6QXDQSS","3Z3R5YC0P3915KVY8X6BNRIWYOFFTN","","235.20000004768372","img/land6.png","75","236","2","1","2","1","0.8,0.2,0.2,0.2,0.8,0.2,0.2,0.2,0.8","0.8,0.2,0.2,0.2,0.8,0.2,0.2,0.2,0.8","1","",""
"","html-keyboard-response","87","48027","0.0-87.0","3VP0C6EFSHI3VGAXP97XWQ6FJSVM6G","A1FHC4Z6QXDQSS","3Z3R5YC0P3915KVY8X6BNRIWYOFFTN","","null","<img src=""img/land6.png"" style=""width:200px; border:14px solid green;"">","null","","","","","","","","","",""
"","image-keyboard-response","88","49682","0.0-88.0","3VP0C6EFSHI3VGAXP97XWQ6FJSVM6G","A1FHC4Z6QXDQSS","3Z3R5YC0P3915KVY8X6BNRIWYOFFTN","","1654","img/land4.png","74","1654.7999999523163","1","1","1","1","0.8,0.2,0.2,0.2,0.8,0.2,0.2,0.2,0.8","0.8,0.2,0.2,0.2,0.8,0.2,0.2,0.2,0.8","1","",""
"","html-keyboard-response","89","49984","0.0-89.0","3VP0C6EFSHI3VGAXP97XWQ6FJSVM6G","A1FHC4Z6QXDQSS","3Z3R5YC0P3915KVY8X6BNRIWYOFFTN","","null","<img src=""img/land4.png"" style=""width:200px; border:14px solid green;"">","null","","","","","","","","","",""
"","image-keyboard-response","90","50475","0.0-90.0","3VP0C6EFSHI3VGAXP97XWQ6FJSVM6G","A1FHC4Z6QXDQSS","3Z3R5YC0P3915KVY8X6BNRIWYOFFTN","","489.7999999523163","img/land6.png","75","490.59999990463257","2","1","2","1","0.8,0.2,0.2,0.2,0.8,0.2,0.2,0.2,0.8","0.8,0.2,0.2,0.2,0.8,0.2,0.2,0.2,0.8","1","",""
"","html-keyboard-response","91","50776","0.0-91.0","3VP0C6EFSHI3VGAXP97XWQ6FJSVM6G","A1FHC4Z6QXDQSS","3Z3R5YC0P3915KVY8X6BNRIWYOFFTN","","null","<img src=""img/land6.png"" style=""width:200px; border:14px solid green;"">","null","","","","","","","","","",""
"","image-keyboard-response","92","51374","0.0-92.0","3VP0C6EFSHI3VGAXP97XWQ6FJSVM6G","A1FHC4Z6QXDQSS","3Z3R5YC0P3915KVY8X6BNRIWYOFFTN","","596.4000000953674","img/land4.png","74","597.2000000476837","1","1","1","1","0.8,0.2,0.2,0.2,0.8,0.2,0.2,0.2,0.8","0.8,0.2,0.2,0.2,0.8,0.2,0.2,0.2,0.8","1","",""
"","html-keyboard-response","93","51675","0.0-93.0","3VP0C6EFSHI3VGAXP97XWQ6FJSVM6G","A1FHC4Z6QXDQSS","3Z3R5YC0P3915KVY8X6BNRIWYOFFTN","","null","<img src=""img/land4.png"" style=""width:200px; border:14px solid green;"">","null","","","","","","","","","",""
"","image-keyboard-response","94","52330","0.0-94.0","3VP0C6EFSHI3VGAXP97XWQ6FJSVM6G","A1FHC4Z6QXDQSS","3Z3R5YC0P3915KVY8X6BNRIWYOFFTN","","653.6000001430511","img/land6.png","75","654.3000001907349","2","0","2","1","0.8,0.2,0.2,0.2,0.8,0.2,0.2,0.2,0.8","0.8,0.2,0.2,0.2,0.8,0.2,0.2,0.2,0.8","1","",""
"","html-keyboard-response","95","52632","0.0-95.0","3VP0C6EFSHI3VGAXP97XWQ6FJSVM6G","A1FHC4Z6QXDQSS","3Z3R5YC0P3915KVY8X6BNRIWYOFFTN","","null","<img src=""img/land6.png"" style=""width:200px;border:14px solid red;"">","null","","","","","","","","","",""
"","image-keyboard-response","96","53160","0.0-96.0","3VP0C6EFSHI3VGAXP97XWQ6FJSVM6G","A1FHC4Z6QXDQSS","3Z3R5YC0P3915KVY8X6BNRIWYOFFTN","","527","img/land4.png","74","527.9000000953674","1","1","1","1","0.8,0.2,0.2,0.2,0.8,0.2,0.2,0.2,0.8","0.8,0.2,0.2,0.2,0.8,0.2,0.2,0.2,0.8","1","",""
"","html-keyboard-response","97","53462","0.0-97.0","3VP0C6EFSHI3VGAXP97XWQ6FJSVM6G","A1FHC4Z6QXDQSS","3Z3R5YC0P3915KVY8X6BNRIWYOFFTN","","null","<img src=""img/land4.png"" style=""width:200px; border:14px solid green;"">","null","","","","","","","","","",""
"","image-keyboard-response","98","54083","0.0-98.0","3VP0C6EFSHI3VGAXP97XWQ6FJSVM6G","A1FHC4Z6QXDQSS","3Z3R5YC0P3915KVY8X6BNRIWYOFFTN","","620.5","img/land4.png","74","621.2000000476837","1","1","1","1","0.8,0.2,0.2,0.2,0.8,0.2,0.2,0.2,0.8","0.8,0.2,0.2,0.2,0.8,0.2,0.2,0.2,0.8","1","",""
"","html-keyboard-response","99","54385","0.0-99.0","3VP0C6EFSHI3VGAXP97XWQ6FJSVM6G","A1FHC4Z6QXDQSS","3Z3R5YC0P3915KVY8X6BNRIWYOFFTN","","null","<img src=""img/land4.png"" style=""width:200px; border:14px solid green;"">","null","","","","","","","","","",""
"","image-keyboard-response","100","54778","0.0-100.0","3VP0C6EFSHI3VGAXP97XWQ6FJSVM6G","A1FHC4Z6QXDQSS","3Z3R5YC0P3915KVY8X6BNRIWYOFFTN","","391.2000000476837","img/land4.png","74","391.89999985694885","1","1","1","1","0.8,0.2,0.2,0.2,0.8,0.2,0.2,0.2,0.8","0.8,0.2,0.2,0.2,0.8,0.2,0.2,0.2,0.8","1","",""
"","html-keyboard-response","101","55079","0.0-101.0","3VP0C6EFSHI3VGAXP97XWQ6FJSVM6G","A1FHC4Z6QXDQSS","3Z3R5YC0P3915KVY8X6BNRIWYOFFTN","","null","<img src=""img/land4.png"" style=""width:200px; border:14px solid green;"">","null","","","","","","","","","",""
"","image-keyboard-response","102","55498","0.0-102.0","3VP0C6EFSHI3VGAXP97XWQ6FJSVM6G","A1FHC4Z6QXDQSS","3Z3R5YC0P3915KVY8X6BNRIWYOFFTN","","417.5","img/land4.png","74","418.2000000476837","1","1","1","1","0.8,0.2,0.2,0.2,0.8,0.2,0.2,0.2,0.8","0.8,0.2,0.2,0.2,0.8,0.2,0.2,0.2,0.8","1","",""
"","html-keyboard-response","103","55800","0.0-103.0","3VP0C6EFSHI3VGAXP97XWQ6FJSVM6G","A1FHC4Z6QXDQSS","3Z3R5YC0P3915KVY8X6BNRIWYOFFTN","","null","<img src=""img/land4.png"" style=""width:200px; border:14px solid green;"">","null","","","","","","","","","",""
"","image-keyboard-response","104","57288","0.0-104.0","3VP0C6EFSHI3VGAXP97XWQ6FJSVM6G","A1FHC4Z6QXDQSS","3Z3R5YC0P3915KVY8X6BNRIWYOFFTN","","1487.2999999523163","img/land2.png","75","1488.2000000476837","2","0","3","1","0.8,0.2,0.2,0.2,0.8,0.2,0.2,0.2,0.8","0.8,0.2,0.2,0.2,0.8,0.2,0.2,0.2,0.8","1","",""
"","html-keyboard-response","105","57590","0.0-105.0","3VP0C6EFSHI3VGAXP97XWQ6FJSVM6G","A1FHC4Z6QXDQSS","3Z3R5YC0P3915KVY8X6BNRIWYOFFTN","","null","<img src=""img/land2.png"" style=""width:200px;border:14px solid red;"">","null","","","","","","","","","",""
"","image-keyboard-response","106","57792","0.0-106.0","3VP0C6EFSHI3VGAXP97XWQ6FJSVM6G","A1FHC4Z6QXDQSS","3Z3R5YC0P3915KVY8X6BNRIWYOFFTN","","201.59999990463257","img/land2.png","74","202.40000009536743","1","0","3","1","0.8,0.2,0.2,0.2,0.8,0.2,0.2,0.2,0.8","0.8,0.2,0.2,0.2,0.8,0.2,0.2,0.2,0.8","1","",""
"","html-keyboard-response","107","58095","0.0-107.0","3VP0C6EFSHI3VGAXP97XWQ6FJSVM6G","A1FHC4Z6QXDQSS","3Z3R5YC0P3915KVY8X6BNRIWYOFFTN","","null","<img src=""img/land2.png"" style=""width:200px;border:14px solid red;"">","null","","","","","","","","","",""
"","image-keyboard-response","108","58300","0.0-108.0","3VP0C6EFSHI3VGAXP97XWQ6FJSVM6G","A1FHC4Z6QXDQSS","3Z3R5YC0P3915KVY8X6BNRIWYOFFTN","","204.40000009536743","img/land6.png","74","205.29999995231628","1","0","2","1","0.8,0.2,0.2,0.2,0.8,0.2,0.2,0.2,0.8","0.8,0.2,0.2,0.2,0.8,0.2,0.2,0.2,0.8","1","",""
"","html-keyboard-response","109","58602","0.0-109.0","3VP0C6EFSHI3VGAXP97XWQ6FJSVM6G","A1FHC4Z6QXDQSS","3Z3R5YC0P3915KVY8X6BNRIWYOFFTN","","null","<img src=""img/land6.png"" style=""width:200px;border:14px solid red;"">","null","","","","","","","","","",""
"","image-keyboard-response","110","59243","0.0-110.0","3VP0C6EFSHI3VGAXP97XWQ6FJSVM6G","A1FHC4Z6QXDQSS","3Z3R5YC0P3915KVY8X6BNRIWYOFFTN","","640.7000000476837","img/land2.png","75","641.2999999523163","2","1","3","1","0.8,0.2,0.2,0.2,0.8,0.2,0.2,0.2,0.8","0.8,0.2,0.2,0.2,0.8,0.2,0.2,0.2,0.8","1","",""
"","html-keyboard-response","111","59545","0.0-111.0","3VP0C6EFSHI3VGAXP97XWQ6FJSVM6G","A1FHC4Z6QXDQSS","3Z3R5YC0P3915KVY8X6BNRIWYOFFTN","","null","<img src=""img/land2.png"" style=""width:200px; border:14px solid green;"">","null","","","","","","","","","",""
"","image-keyboard-response","112","59609","0.0-112.0","3VP0C6EFSHI3VGAXP97XWQ6FJSVM6G","A1FHC4Z6QXDQSS","3Z3R5YC0P3915KVY8X6BNRIWYOFFTN","","62.80000019073486","img/land6.png","75","63.60000014305115","2","1","2","1","0.8,0.2,0.2,0.2,0.8,0.2,0.2,0.2,0.8","0.8,0.2,0.2,0.2,0.8,0.2,0.2,0.2,0.8","1","",""
"","html-keyboard-response","113","59910","0.0-113.0","3VP0C6EFSHI3VGAXP97XWQ6FJSVM6G","A1FHC4Z6QXDQSS","3Z3R5YC0P3915KVY8X6BNRIWYOFFTN","","null","<img src=""img/land6.png"" style=""width:200px; border:14px solid green;"">","null","","","","","","","","","",""
"","image-keyboard-response","114","60651","0.0-114.0","3VP0C6EFSHI3VGAXP97XWQ6FJSVM6G","A1FHC4Z6QXDQSS","3Z3R5YC0P3915KVY8X6BNRIWYOFFTN","","739.6999998092651","img/land2.png","74","740.4000000953674","1","0","3","1","0.8,0.2,0.2,0.2,0.8,0.2,0.2,0.2,0.8","0.8,0.2,0.2,0.2,0.8,0.2,0.2,0.2,0.8","1","",""
"","html-keyboard-response","115","60954","0.0-115.0","3VP0C6EFSHI3VGAXP97XWQ6FJSVM6G","A1FHC4Z6QXDQSS","3Z3R5YC0P3915KVY8X6BNRIWYOFFTN","","null","<img src=""img/land2.png"" style=""width:200px;border:14px solid red;"">","null","","","","","","","","","",""
"","image-keyboard-response","116","61109","0.0-116.0","3VP0C6EFSHI3VGAXP97XWQ6FJSVM6G","A1FHC4Z6QXDQSS","3Z3R5YC0P3915KVY8X6BNRIWYOFFTN","","153.90000009536743","img/land2.png","74","154.79999995231628","1","0","3","1","0.8,0.2,0.2,0.2,0.8,0.2,0.2,0.2,0.8","0.8,0.2,0.2,0.2,0.8,0.2,0.2,0.2,0.8","1","",""
"","html-keyboard-response","117","61410","0.0-117.0","3VP0C6EFSHI3VGAXP97XWQ6FJSVM6G","A1FHC4Z6QXDQSS","3Z3R5YC0P3915KVY8X6BNRIWYOFFTN","","null","<img src=""img/land2.png"" style=""width:200px;border:14px solid red;"">","null","","","","","","","","","",""
"","image-keyboard-response","118","61433","0.0-118.0","3VP0C6EFSHI3VGAXP97XWQ6FJSVM6G","A1FHC4Z6QXDQSS","3Z3R5YC0P3915KVY8X6BNRIWYOFFTN","","21.90000009536743","img/land6.png","74","22.40000009536743","1","0","2","1","0.8,0.2,0.2,0.2,0.8,0.2,0.2,0.2,0.8","0.8,0.2,0.2,0.2,0.8,0.2,0.2,0.2,0.8","1","",""
"","html-keyboard-response","119","61734","0.0-119.0","3VP0C6EFSHI3VGAXP97XWQ6FJSVM6G","A1FHC4Z6QXDQSS","3Z3R5YC0P3915KVY8X6BNRIWYOFFTN","","null","<img src=""img/land6.png"" style=""width:200px;border:14px solid red;"">","null","","","","","","","","","",""
"","image-keyboard-response","120","62142","0.0-120.0","3VP0C6EFSHI3VGAXP97XWQ6FJSVM6G","A1FHC4Z6QXDQSS","3Z3R5YC0P3915KVY8X6BNRIWYOFFTN","","407.40000009536743","img/land2.png","75","408.09999990463257","2","0","3","1","0.8,0.2,0.2,0.2,0.8,0.2,0.2,0.2,0.8","0.8,0.2,0.2,0.2,0.8,0.2,0.2,0.2,0.8","1","",""
"","html-keyboard-response","121","62444","0.0-121.0","3VP0C6EFSHI3VGAXP97XWQ6FJSVM6G","A1FHC4Z6QXDQSS","3Z3R5YC0P3915KVY8X6BNRIWYOFFTN","","null","<img src=""img/land2.png"" style=""width:200px;border:14px solid red;"">","null","","","","","","","","","",""
"","image-keyboard-response","122","62685","0.0-122.0","3VP0C6EFSHI3VGAXP97XWQ6FJSVM6G","A1FHC4Z6QXDQSS","3Z3R5YC0P3915KVY8X6BNRIWYOFFTN","","240.5","img/land6.png","75","241.09999990463257","2","0","2","1","0.8,0.2,0.2,0.2,0.8,0.2,0.2,0.2,0.8","0.8,0.2,0.2,0.2,0.8,0.2,0.2,0.2,0.8","1","",""
"","html-keyboard-response","123","62986","0.0-123.0","3VP0C6EFSHI3VGAXP97XWQ6FJSVM6G","A1FHC4Z6QXDQSS","3Z3R5YC0P3915KVY8X6BNRIWYOFFTN","","null","<img src=""img/land6.png"" style=""width:200px;border:14px solid red;"">","null","","","","","","","","","",""
"","image-keyboard-response","124","63002","0.0-124.0","3VP0C6EFSHI3VGAXP97XWQ6FJSVM6G","A1FHC4Z6QXDQSS","3Z3R5YC0P3915KVY8X6BNRIWYOFFTN","","15.200000047683716","img/land4.png","75","15.900000095367432","2","1","1","1","0.8,0.2,0.2,0.2,0.8,0.2,0.2,0.2,0.8","0.8,0.2,0.2,0.2,0.8,0.2,0.2,0.2,0.8","1","",""
"","html-keyboard-response","125","63304","0.0-125.0","3VP0C6EFSHI3VGAXP97XWQ6FJSVM6G","A1FHC4Z6QXDQSS","3Z3R5YC0P3915KVY8X6BNRIWYOFFTN","","null","<img src=""img/land4.png"" style=""width:200px; border:14px solid green;"">","null","","","","","","","","","",""
"","image-keyboard-response","126","64712","0.0-126.0","3VP0C6EFSHI3VGAXP97XWQ6FJSVM6G","A1FHC4Z6QXDQSS","3Z3R5YC0P3915KVY8X6BNRIWYOFFTN","","1407.7000000476837","img/land6.png","74","1408.5","1","0","2","1","0.8,0.2,0.2,0.2,0.8,0.2,0.2,0.2,0.8","0.8,0.2,0.2,0.2,0.8,0.2,0.2,0.2,0.8","1","",""
"","html-keyboard-response","127","65014","0.0-127.0","3VP0C6EFSHI3VGAXP97XWQ6FJSVM6G","A1FHC4Z6QXDQSS","3Z3R5YC0P3915KVY8X6BNRIWYOFFTN","","null","<img src=""img/land6.png"" style=""width:200px;border:14px solid red;"">","null","","","","","","","","","",""
"","image-keyboard-response","128","65864","0.0-128.0","3VP0C6EFSHI3VGAXP97XWQ6FJSVM6G","A1FHC4Z6QXDQSS","3Z3R5YC0P3915KVY8X6BNRIWYOFFTN","","849.2999999523163","img/land2.png","75","850.1000001430511","2","0","3","1","0.8,0.2,0.2,0.2,0.8,0.2,0.2,0.2,0.8","0.8,0.2,0.2,0.2,0.8,0.2,0.2,0.2,0.8","1","",""
"","html-keyboard-response","129","66166","0.0-129.0","3VP0C6EFSHI3VGAXP97XWQ6FJSVM6G","A1FHC4Z6QXDQSS","3Z3R5YC0P3915KVY8X6BNRIWYOFFTN","","null","<img src=""img/land2.png"" style=""width:200px;border:14px solid red;"">","null","","","","","","","","","",""
"","image-keyboard-response","130","66291","0.0-130.0","3VP0C6EFSHI3VGAXP97XWQ6FJSVM6G","A1FHC4Z6QXDQSS","3Z3R5YC0P3915KVY8X6BNRIWYOFFTN","","124.09999990463257","img/land4.png","75","124.80000019073486","2","0","1","1","0.8,0.2,0.2,0.2,0.8,0.2,0.2,0.2,0.8","0.8,0.2,0.2,0.2,0.8,0.2,0.2,0.2,0.8","1","",""
"","html-keyboard-response","131","66594","0.0-131.0","3VP0C6EFSHI3VGAXP97XWQ6FJSVM6G","A1FHC4Z6QXDQSS","3Z3R5YC0P3915KVY8X6BNRIWYOFFTN","","null","<img src=""img/land4.png"" style=""width:200px;border:14px solid red;"">","null","","","","","","","","","",""
"","image-keyboard-response","132","67222","0.0-132.0","3VP0C6EFSHI3VGAXP97XWQ6FJSVM6G","A1FHC4Z6QXDQSS","3Z3R5YC0P3915KVY8X6BNRIWYOFFTN","","627.5","img/land2.png","74","628.2999999523163","1","0","3","1","0.8,0.2,0.2,0.2,0.8,0.2,0.2,0.2,0.8","0.8,0.2,0.2,0.2,0.8,0.2,0.2,0.2,0.8","1","",""
"","html-keyboard-response","133","67523","0.0-133.0","3VP0C6EFSHI3VGAXP97XWQ6FJSVM6G","A1FHC4Z6QXDQSS","3Z3R5YC0P3915KVY8X6BNRIWYOFFTN","","null","<img src=""img/land2.png"" style=""width:200px;border:14px solid red;"">","null","","","","","","","","","",""
"","image-keyboard-response","134","67544","0.0-134.0","3VP0C6EFSHI3VGAXP97XWQ6FJSVM6G","A1FHC4Z6QXDQSS","3Z3R5YC0P3915KVY8X6BNRIWYOFFTN","","20.09999990463257","img/land6.png","74","21","1","0","2","1","0.8,0.2,0.2,0.2,0.8,0.2,0.2,0.2,0.8","0.8,0.2,0.2,0.2,0.8,0.2,0.2,0.2,0.8","1","",""
"","html-keyboard-response","135","67845","0.0-135.0","3VP0C6EFSHI3VGAXP97XWQ6FJSVM6G","A1FHC4Z6QXDQSS","3Z3R5YC0P3915KVY8X6BNRIWYOFFTN","","null","<img src=""img/land6.png"" style=""width:200px;border:14px solid red;"">","null","","","","","","","","","",""
"","image-keyboard-response","136","68048","0.0-136.0","3VP0C6EFSHI3VGAXP97XWQ6FJSVM6G","A1FHC4Z6QXDQSS","3Z3R5YC0P3915KVY8X6BNRIWYOFFTN","","202.20000004768372","img/land4.png","74","203","1","1","1","1","0.8,0.2,0.2,0.2,0.8,0.2,0.2,0.2,0.8","0.8,0.2,0.2,0.2,0.8,0.2,0.2,0.2,0.8","1","",""
"","html-keyboard-response","137","68350","0.0-137.0","3VP0C6EFSHI3VGAXP97XWQ6FJSVM6G","A1FHC4Z6QXDQSS","3Z3R5YC0P3915KVY8X6BNRIWYOFFTN","","null","<img src=""img/land4.png"" style=""width:200px; border:14px solid green;"">","null","","","","","","","","","",""
"","image-keyboard-response","138","69582","0.0-138.0","3VP0C6EFSHI3VGAXP97XWQ6FJSVM6G","A1FHC4Z6QXDQSS","3Z3R5YC0P3915KVY8X6BNRIWYOFFTN","","1230.7000000476837","img/land2.png","75","1231.2999999523163","2","1","3","1","0.8,0.2,0.2,0.2,0.8,0.2,0.2,0.2,0.8","0.8,0.2,0.2,0.2,0.8,0.2,0.2,0.2,0.8","1","",""
"","html-keyboard-response","139","69884","0.0-139.0","3VP0C6EFSHI3VGAXP97XWQ6FJSVM6G","A1FHC4Z6QXDQSS","3Z3R5YC0P3915KVY8X6BNRIWYOFFTN","","null","<img src=""img/land2.png"" style=""width:200px; border:14px solid green;"">","null","","","","","","","","","",""
"","image-keyboard-response","140","70451","0.0-140.0","3VP0C6EFSHI3VGAXP97XWQ6FJSVM6G","A1FHC4Z6QXDQSS","3Z3R5YC0P3915KVY8X6BNRIWYOFFTN","","566.2999999523163","img/land2.png","75","567","2","0","3","1","0.8,0.2,0.2,0.2,0.8,0.2,0.2,0.2,0.8","0.8,0.2,0.2,0.2,0.8,0.2,0.2,0.2,0.8","1","",""
"","html-keyboard-response","141","70754","0.0-141.0","3VP0C6EFSHI3VGAXP97XWQ6FJSVM6G","A1FHC4Z6QXDQSS","3Z3R5YC0P3915KVY8X6BNRIWYOFFTN","","null","<img src=""img/land2.png"" style=""width:200px;border:14px solid red;"">","null","","","","","","","","","",""
"","image-keyboard-response","142","71166","0.0-142.0","3VP0C6EFSHI3VGAXP97XWQ6FJSVM6G","A1FHC4Z6QXDQSS","3Z3R5YC0P3915KVY8X6BNRIWYOFFTN","","411.40000009536743","img/land2.png","74","412.2000000476837","1","0","3","1","0.8,0.2,0.2,0.2,0.8,0.2,0.2,0.2,0.8","0.8,0.2,0.2,0.2,0.8,0.2,0.2,0.2,0.8","1","",""
"","html-keyboard-response","143","71468","0.0-143.0","3VP0C6EFSHI3VGAXP97XWQ6FJSVM6G","A1FHC4Z6QXDQSS","3Z3R5YC0P3915KVY8X6BNRIWYOFFTN","","null","<img src=""img/land2.png"" style=""width:200px;border:14px solid red;"">","null","","","","","","","","","",""
"","image-keyboard-response","144","71565","0.0-144.0","3VP0C6EFSHI3VGAXP97XWQ6FJSVM6G","A1FHC4Z6QXDQSS","3Z3R5YC0P3915KVY8X6BNRIWYOFFTN","","95.79999995231628","img/land6.png","74","96.5","1","0","2","1","0.8,0.2,0.2,0.2,0.8,0.2,0.2,0.2,0.8","0.8,0.2,0.2,0.2,0.8,0.2,0.2,0.2,0.8","1","",""
"","html-keyboard-response","145","71866","0.0-145.0","3VP0C6EFSHI3VGAXP97XWQ6FJSVM6G","A1FHC4Z6QXDQSS","3Z3R5YC0P3915KVY8X6BNRIWYOFFTN","","null","<img src=""img/land6.png"" style=""width:200px;border:14px solid red;"">","null","","","","","","","","","",""
"","image-keyboard-response","146","72001","0.0-146.0","3VP0C6EFSHI3VGAXP97XWQ6FJSVM6G","A1FHC4Z6QXDQSS","3Z3R5YC0P3915KVY8X6BNRIWYOFFTN","","133.70000004768372","img/land4.png","74","134.40000009536743","1","1","1","1","0.8,0.2,0.2,0.2,0.8,0.2,0.2,0.2,0.8","0.8,0.2,0.2,0.2,0.8,0.2,0.2,0.2,0.8","1","",""
"","html-keyboard-response","147","72302","0.0-147.0","3VP0C6EFSHI3VGAXP97XWQ6FJSVM6G","A1FHC4Z6QXDQSS","3Z3R5YC0P3915KVY8X6BNRIWYOFFTN","","null","<img src=""img/land4.png"" style=""width:200px; border:14px solid green;"">","null","","","","","","","","","",""
"","image-keyboard-response","148","72938","0.0-148.0","3VP0C6EFSHI3VGAXP97XWQ6FJSVM6G","A1FHC4Z6QXDQSS","3Z3R5YC0P3915KVY8X6BNRIWYOFFTN","","634.7999999523163","img/land6.png","74","635.5","1","0","2","1","0.8,0.2,0.2,0.2,0.8,0.2,0.2,0.2,0.8","0.8,0.2,0.2,0.2,0.8,0.2,0.2,0.2,0.8","1","",""
"","html-keyboard-response","149","73239","0.0-149.0","3VP0C6EFSHI3VGAXP97XWQ6FJSVM6G","A1FHC4Z6QXDQSS","3Z3R5YC0P3915KVY8X6BNRIWYOFFTN","","null","<img src=""img/land6.png"" style=""width:200px;border:14px solid red;"">","null","","","","","","","","","",""
"","image-keyboard-response","150","73353","0.0-150.0","3VP0C6EFSHI3VGAXP97XWQ6FJSVM6G","A1FHC4Z6QXDQSS","3Z3R5YC0P3915KVY8X6BNRIWYOFFTN","","112.79999995231628","img/land2.png","74","113.70000004768372","1","0","3","1","0.8,0.2,0.2,0.2,0.8,0.2,0.2,0.2,0.8","0.8,0.2,0.2,0.2,0.8,0.2,0.2,0.2,0.8","1","",""
"","html-keyboard-response","151","73655","0.0-151.0","3VP0C6EFSHI3VGAXP97XWQ6FJSVM6G","A1FHC4Z6QXDQSS","3Z3R5YC0P3915KVY8X6BNRIWYOFFTN","","null","<img src=""img/land2.png"" style=""width:200px;border:14px solid red;"">","null","","","","","","","","","",""
"","image-keyboard-response","152","73875","0.0-152.0","3VP0C6EFSHI3VGAXP97XWQ6FJSVM6G","A1FHC4Z6QXDQSS","3Z3R5YC0P3915KVY8X6BNRIWYOFFTN","","218.59999990463257","img/land4.png","74","220.09999990463257","1","1","1","1","0.8,0.2,0.2,0.2,0.8,0.2,0.2,0.2,0.8","0.8,0.2,0.2,0.2,0.8,0.2,0.2,0.2,0.8","1","",""
"","html-keyboard-response","153","74177","0.0-153.0","3VP0C6EFSHI3VGAXP97XWQ6FJSVM6G","A1FHC4Z6QXDQSS","3Z3R5YC0P3915KVY8X6BNRIWYOFFTN","","null","<img src=""img/land4.png"" style=""width:200px; border:14px solid green;"">","null","","","","","","","","","",""
"","image-keyboard-response","154","74373","0.0-154.0","3VP0C6EFSHI3VGAXP97XWQ6FJSVM6G","A1FHC4Z6QXDQSS","3Z3R5YC0P3915KVY8X6BNRIWYOFFTN","","194.79999995231628","img/land2.png","74","195.5","1","0","3","1","0.8,0.2,0.2,0.2,0.8,0.2,0.2,0.2,0.8","0.8,0.2,0.2,0.2,0.8,0.2,0.2,0.2,0.8","1","",""
"","html-keyboard-response","155","74675","0.0-155.0","3VP0C6EFSHI3VGAXP97XWQ6FJSVM6G","A1FHC4Z6QXDQSS","3Z3R5YC0P3915KVY8X6BNRIWYOFFTN","","null","<img src=""img/land2.png"" style=""width:200px;border:14px solid red;"">","null","","","","","","","","","",""
"","image-keyboard-response","156","74833","0.0-156.0","3VP0C6EFSHI3VGAXP97XWQ6FJSVM6G","A1FHC4Z6QXDQSS","3Z3R5YC0P3915KVY8X6BNRIWYOFFTN","","156.70000004768372","img/land4.png","74","157.5","1","0","1","1","0.8,0.2,0.2,0.2,0.8,0.2,0.2,0.2,0.8","0.8,0.2,0.2,0.2,0.8,0.2,0.2,0.2,0.8","1","",""
"","html-keyboard-response","157","75135","0.0-157.0","3VP0C6EFSHI3VGAXP97XWQ6FJSVM6G","A1FHC4Z6QXDQSS","3Z3R5YC0P3915KVY8X6BNRIWYOFFTN","","null","<img src=""img/land4.png"" style=""width:200px;border:14px solid red;"">","null","","","","","","","","","",""
"","image-keyboard-response","158","75263","0.0-158.0","3VP0C6EFSHI3VGAXP97XWQ6FJSVM6G","A1FHC4Z6QXDQSS","3Z3R5YC0P3915KVY8X6BNRIWYOFFTN","","127.10000014305115","img/land2.png","74","127.79999995231628","1","0","3","1","0.8,0.2,0.2,0.2,0.8,0.2,0.2,0.2,0.8","0.8,0.2,0.2,0.2,0.8,0.2,0.2,0.2,0.8","1","",""
"","html-keyboard-response","159","75564","0.0-159.0","3VP0C6EFSHI3VGAXP97XWQ6FJSVM6G","A1FHC4Z6QXDQSS","3Z3R5YC0P3915KVY8X6BNRIWYOFFTN","","null","<img src=""img/land2.png"" style=""width:200px;border:14px solid red;"">","null","","","","","","","","","",""
"","image-keyboard-response","160","75601","0.0-160.0","3VP0C6EFSHI3VGAXP97XWQ6FJSVM6G","A1FHC4Z6QXDQSS","3Z3R5YC0P3915KVY8X6BNRIWYOFFTN","","35.90000009536743","img/land4.png","74","36.700000047683716","1","1","1","1","0.8,0.2,0.2,0.2,0.8,0.2,0.2,0.2,0.8","0.8,0.2,0.2,0.2,0.8,0.2,0.2,0.2,0.8","1","",""
"","html-keyboard-response","161","75905","0.0-161.0","3VP0C6EFSHI3VGAXP97XWQ6FJSVM6G","A1FHC4Z6QXDQSS","3Z3R5YC0P3915KVY8X6BNRIWYOFFTN","","null","<img src=""img/land4.png"" style=""width:200px; border:14px solid green;"">","null","","","","","","","","","",""
"","image-keyboard-response","162","76180","0.0-162.0","3VP0C6EFSHI3VGAXP97XWQ6FJSVM6G","A1FHC4Z6QXDQSS","3Z3R5YC0P3915KVY8X6BNRIWYOFFTN","","274.2000000476837","img/land4.png","74","274.7999999523163","1","1","1","1","0.8,0.2,0.2,0.2,0.8,0.2,0.2,0.2,0.8","0.8,0.2,0.2,0.2,0.8,0.2,0.2,0.2,0.8","1","",""
"","html-keyboard-response","163","76481","0.0-163.0","3VP0C6EFSHI3VGAXP97XWQ6FJSVM6G","A1FHC4Z6QXDQSS","3Z3R5YC0P3915KVY8X6BNRIWYOFFTN","","null","<img src=""img/land4.png"" style=""width:200px; border:14px solid green;"">","null","","","","","","","","","",""
"","image-keyboard-response","164","76488","0.0-164.0","3VP0C6EFSHI3VGAXP97XWQ6FJSVM6G","A1FHC4Z6QXDQSS","3Z3R5YC0P3915KVY8X6BNRIWYOFFTN","","5.700000047683716","img/land2.png","74","6.400000095367432","1","0","3","1","0.8,0.2,0.2,0.2,0.8,0.2,0.2,0.2,0.8","0.8,0.2,0.2,0.2,0.8,0.2,0.2,0.2,0.8","1","",""
"","html-keyboard-response","165","76789","0.0-165.0","3VP0C6EFSHI3VGAXP97XWQ6FJSVM6G","A1FHC4Z6QXDQSS","3Z3R5YC0P3915KVY8X6BNRIWYOFFTN","","null","<img src=""img/land2.png"" style=""width:200px;border:14px solid red;"">","null","","","","","","","","","",""
"","image-keyboard-response","166","77427","0.0-166.0","3VP0C6EFSHI3VGAXP97XWQ6FJSVM6G","A1FHC4Z6QXDQSS","3Z3R5YC0P3915KVY8X6BNRIWYOFFTN","","637","img/land6.png","74","637.7000000476837","1","0","2","1","0.8,0.2,0.2,0.2,0.8,0.2,0.2,0.2,0.8","0.8,0.2,0.2,0.2,0.8,0.2,0.2,0.2,0.8","1","",""
"","html-keyboard-response","167","77728","0.0-167.0","3VP0C6EFSHI3VGAXP97XWQ6FJSVM6G","A1FHC4Z6QXDQSS","3Z3R5YC0P3915KVY8X6BNRIWYOFFTN","","null","<img src=""img/land6.png"" style=""width:200px;border:14px solid red;"">","null","","","","","","","","","",""
"","image-keyboard-response","168","77760","0.0-168.0","3VP0C6EFSHI3VGAXP97XWQ6FJSVM6G","A1FHC4Z6QXDQSS","3Z3R5YC0P3915KVY8X6BNRIWYOFFTN","","31","img/land4.png","74","31.700000047683716","1","1","1","1","0.8,0.2,0.2,0.2,0.8,0.2,0.2,0.2,0.8","0.8,0.2,0.2,0.2,0.8,0.2,0.2,0.2,0.8","1","",""
"","html-keyboard-response","169","78061","0.0-169.0","3VP0C6EFSHI3VGAXP97XWQ6FJSVM6G","A1FHC4Z6QXDQSS","3Z3R5YC0P3915KVY8X6BNRIWYOFFTN","","null","<img src=""img/land4.png"" style=""width:200px; border:14px solid green;"">","null","","","","","","","","","",""
"","image-keyboard-response","170","78078","0.0-170.0","3VP0C6EFSHI3VGAXP97XWQ6FJSVM6G","A1FHC4Z6QXDQSS","3Z3R5YC0P3915KVY8X6BNRIWYOFFTN","","15.799999952316284","img/land4.png","74","16.5","1","1","1","1","0.8,0.2,0.2,0.2,0.8,0.2,0.2,0.2,0.8","0.8,0.2,0.2,0.2,0.8,0.2,0.2,0.2,0.8","1","",""
"","html-keyboard-response","171","78379","0.0-171.0","3VP0C6EFSHI3VGAXP97XWQ6FJSVM6G","A1FHC4Z6QXDQSS","3Z3R5YC0P3915KVY8X6BNRIWYOFFTN","","null","<img src=""img/land4.png"" style=""width:200px; border:14px solid green;"">","null","","","","","","","","","",""
"","image-keyboard-response","172","78384","0.0-172.0","3VP0C6EFSHI3VGAXP97XWQ6FJSVM6G","A1FHC4Z6QXDQSS","3Z3R5YC0P3915KVY8X6BNRIWYOFFTN","","4.5","img/land4.png","74","4.900000095367432","1","1","1","1","0.8,0.2,0.2,0.2,0.8,0.2,0.2,0.2,0.8","0.8,0.2,0.2,0.2,0.8,0.2,0.2,0.2,0.8","1","",""
"","html-keyboard-response","173","78686","0.0-173.0","3VP0C6EFSHI3VGAXP97XWQ6FJSVM6G","A1FHC4Z6QXDQSS","3Z3R5YC0P3915KVY8X6BNRIWYOFFTN","","null","<img src=""img/land4.png"" style=""width:200px; border:14px solid green;"">","null","","","","","","","","","",""
"","image-keyboard-response","174","78946","0.0-174.0","3VP0C6EFSHI3VGAXP97XWQ6FJSVM6G","A1FHC4Z6QXDQSS","3Z3R5YC0P3915KVY8X6BNRIWYOFFTN","","258.60000014305115","img/land4.png","74","259.5","1","1","1","1","0.8,0.2,0.2,0.2,0.8,0.2,0.2,0.2,0.8","0.8,0.2,0.2,0.2,0.8,0.2,0.2,0.2,0.8","1","",""
"","html-keyboard-response","175","79247","0.0-175.0","3VP0C6EFSHI3VGAXP97XWQ6FJSVM6G","A1FHC4Z6QXDQSS","3Z3R5YC0P3915KVY8X6BNRIWYOFFTN","","null","<img src=""img/land4.png"" style=""width:200px; border:14px solid green;"">","null","","","","","","","","","",""
"","image-keyboard-response","176","79537","0.0-176.0","3VP0C6EFSHI3VGAXP97XWQ6FJSVM6G","A1FHC4Z6QXDQSS","3Z3R5YC0P3915KVY8X6BNRIWYOFFTN","","288.60000014305115","img/land4.png","74","289.39999985694885","1","1","1","1","0.8,0.2,0.2,0.2,0.8,0.2,0.2,0.2,0.8","0.8,0.2,0.2,0.2,0.8,0.2,0.2,0.2,0.8","1","",""
"","html-keyboard-response","177","79838","0.0-177.0","3VP0C6EFSHI3VGAXP97XWQ6FJSVM6G","A1FHC4Z6QXDQSS","3Z3R5YC0P3915KVY8X6BNRIWYOFFTN","","null","<img src=""img/land4.png"" style=""width:200px; border:14px solid green;"">","null","","","","","","","","","",""
"","image-keyboard-response","178","79966","0.0-178.0","3VP0C6EFSHI3VGAXP97XWQ6FJSVM6G","A1FHC4Z6QXDQSS","3Z3R5YC0P3915KVY8X6BNRIWYOFFTN","","127.89999985694885","img/land2.png","74","128.5","1","1","3","1","0.8,0.2,0.2,0.2,0.8,0.2,0.2,0.2,0.8","0.8,0.2,0.2,0.2,0.8,0.2,0.2,0.2,0.8","1","",""
"","html-keyboard-response","179","80268","0.0-179.0","3VP0C6EFSHI3VGAXP97XWQ6FJSVM6G","A1FHC4Z6QXDQSS","3Z3R5YC0P3915KVY8X6BNRIWYOFFTN","","null","<img src=""img/land2.png"" style=""width:200px; border:14px solid green;"">","null","","","","","","","","","",""
"","image-keyboard-response","180","80769","0.0-180.0","3VP0C6EFSHI3VGAXP97XWQ6FJSVM6G","A1FHC4Z6QXDQSS","3Z3R5YC0P3915KVY8X6BNRIWYOFFTN","","499.7000000476837","img/land6.png","75","500.40000009536743","2","0","2","1","0.8,0.2,0.2,0.2,0.8,0.2,0.2,0.2,0.8","0.8,0.2,0.2,0.2,0.8,0.2,0.2,0.2,0.8","1","",""
"","html-keyboard-response","181","81070","0.0-181.0","3VP0C6EFSHI3VGAXP97XWQ6FJSVM6G","A1FHC4Z6QXDQSS","3Z3R5YC0P3915KVY8X6BNRIWYOFFTN","","null","<img src=""img/land6.png"" style=""width:200px;border:14px solid red;"">","null","","","","","","","","","",""
"","html-keyboard-response","182","83808","0.0-182.0","3VP0C6EFSHI3VGAXP97XWQ6FJSVM6G","A1FHC4Z6QXDQSS","3Z3R5YC0P3915KVY8X6BNRIWYOFFTN","","","","","","","","","","","","","",""
"","image-keyboard-response","183","84564","0.0-183.0","3VP0C6EFSHI3VGAXP97XWQ6FJSVM6G","A1FHC4Z6QXDQSS","3Z3R5YC0P3915KVY8X6BNRIWYOFFTN","","755.4000000953674","img/land1.png","74","756.2999999523163","1","0","3","2","0.8,0.2,0.2,0.2,0.8,0.2,0.2,0.2,0.8","0.2,0.8,0.2,0.2,0.2,0.8,0.8,0.2,0.2","3","",""
"","html-keyboard-response","184","84865","0.0-184.0","3VP0C6EFSHI3VGAXP97XWQ6FJSVM6G","A1FHC4Z6QXDQSS","3Z3R5YC0P3915KVY8X6BNRIWYOFFTN","","null","<img src=""img/land1.png"" style=""width:200px;border:14px solid red;"">","null","","","","","","","","","",""
"","image-keyboard-response","185","85091","0.0-185.0","3VP0C6EFSHI3VGAXP97XWQ6FJSVM6G","A1FHC4Z6QXDQSS","3Z3R5YC0P3915KVY8X6BNRIWYOFFTN","","225.39999985694885","img/land1.png","74","226.20000004768372","1","1","3","2","0.8,0.2,0.2,0.2,0.8,0.2,0.2,0.2,0.8","0.2,0.8,0.2,0.2,0.2,0.8,0.8,0.2,0.2","3","",""
"","html-keyboard-response","186","85393","0.0-186.0","3VP0C6EFSHI3VGAXP97XWQ6FJSVM6G","A1FHC4Z6QXDQSS","3Z3R5YC0P3915KVY8X6BNRIWYOFFTN","","null","<img src=""img/land1.png"" style=""width:200px; border:14px solid green;"">","null","","","","","","","","","",""
"","image-keyboard-response","187","85888","0.0-187.0","3VP0C6EFSHI3VGAXP97XWQ6FJSVM6G","A1FHC4Z6QXDQSS","3Z3R5YC0P3915KVY8X6BNRIWYOFFTN","","494.30000019073486","img/land5.png","75","495.09999990463257","2","0","2","2","0.8,0.2,0.2,0.2,0.8,0.2,0.2,0.2,0.8","0.2,0.8,0.2,0.2,0.2,0.8,0.8,0.2,0.2","3","",""
"","html-keyboard-response","188","86189","0.0-188.0","3VP0C6EFSHI3VGAXP97XWQ6FJSVM6G","A1FHC4Z6QXDQSS","3Z3R5YC0P3915KVY8X6BNRIWYOFFTN","","null","<img src=""img/land5.png"" style=""width:200px;border:14px solid red;"">","null","","","","","","","","","",""
"","image-keyboard-response","189","86385","0.0-189.0","3VP0C6EFSHI3VGAXP97XWQ6FJSVM6G","A1FHC4Z6QXDQSS","3Z3R5YC0P3915KVY8X6BNRIWYOFFTN","","194.79999995231628","img/land3.png","74","195.39999985694885","1","0","1","2","0.8,0.2,0.2,0.2,0.8,0.2,0.2,0.2,0.8","0.2,0.8,0.2,0.2,0.2,0.8,0.8,0.2,0.2","3","",""
"","html-keyboard-response","190","86687","0.0-190.0","3VP0C6EFSHI3VGAXP97XWQ6FJSVM6G","A1FHC4Z6QXDQSS","3Z3R5YC0P3915KVY8X6BNRIWYOFFTN","","null","<img src=""img/land3.png"" style=""width:200px;border:14px solid red;"">","null","","","","","","","","","",""
"","image-keyboard-response","191","86711","0.0-191.0","3VP0C6EFSHI3VGAXP97XWQ6FJSVM6G","A1FHC4Z6QXDQSS","3Z3R5YC0P3915KVY8X6BNRIWYOFFTN","","23.700000047683716","img/land5.png","74","24.399999856948853","1","0","2","2","0.8,0.2,0.2,0.2,0.8,0.2,0.2,0.2,0.8","0.2,0.8,0.2,0.2,0.2,0.8,0.8,0.2,0.2","3","",""
"","html-keyboard-response","192","87013","0.0-192.0","3VP0C6EFSHI3VGAXP97XWQ6FJSVM6G","A1FHC4Z6QXDQSS","3Z3R5YC0P3915KVY8X6BNRIWYOFFTN","","null","<img src=""img/land5.png"" style=""width:200px;border:14px solid red;"">","null","","","","","","","","","",""
"","image-keyboard-response","193","87706","0.0-193.0","3VP0C6EFSHI3VGAXP97XWQ6FJSVM6G","A1FHC4Z6QXDQSS","3Z3R5YC0P3915KVY8X6BNRIWYOFFTN","","692.2000000476837","img/land5.png","75","692.9000000953674","2","0","2","2","0.8,0.2,0.2,0.2,0.8,0.2,0.2,0.2,0.8","0.2,0.8,0.2,0.2,0.2,0.8,0.8,0.2,0.2","3","",""
"","html-keyboard-response","194","88008","0.0-194.0","3VP0C6EFSHI3VGAXP97XWQ6FJSVM6G","A1FHC4Z6QXDQSS","3Z3R5YC0P3915KVY8X6BNRIWYOFFTN","","null","<img src=""img/land5.png"" style=""width:200px;border:14px solid red;"">","null","","","","","","","","","",""
"","image-keyboard-response","195","88207","0.0-195.0","3VP0C6EFSHI3VGAXP97XWQ6FJSVM6G","A1FHC4Z6QXDQSS","3Z3R5YC0P3915KVY8X6BNRIWYOFFTN","","198.29999995231628","img/land3.png","75","199.10000014305115","2","1","1","2","0.8,0.2,0.2,0.2,0.8,0.2,0.2,0.2,0.8","0.2,0.8,0.2,0.2,0.2,0.8,0.8,0.2,0.2","3","",""
"","html-keyboard-response","196","88508","0.0-196.0","3VP0C6EFSHI3VGAXP97XWQ6FJSVM6G","A1FHC4Z6QXDQSS","3Z3R5YC0P3915KVY8X6BNRIWYOFFTN","","null","<img src=""img/land3.png"" style=""width:200px; border:14px solid green;"">","null","","","","","","","","","",""
"","image-keyboard-response","197","88924","0.0-197.0","3VP0C6EFSHI3VGAXP97XWQ6FJSVM6G","A1FHC4Z6QXDQSS","3Z3R5YC0P3915KVY8X6BNRIWYOFFTN","","414.7000000476837","img/land3.png","75","415.5","2","1","1","2","0.8,0.2,0.2,0.2,0.8,0.2,0.2,0.2,0.8","0.2,0.8,0.2,0.2,0.2,0.8,0.8,0.2,0.2","3","",""
"","html-keyboard-response","198","89229","0.0-198.0","3VP0C6EFSHI3VGAXP97XWQ6FJSVM6G","A1FHC4Z6QXDQSS","3Z3R5YC0P3915KVY8X6BNRIWYOFFTN","","null","<img src=""img/land3.png"" style=""width:200px; border:14px solid green;"">","null","","","","","","","","","",""
"","image-keyboard-response","199","89616","0.0-199.0","3VP0C6EFSHI3VGAXP97XWQ6FJSVM6G","A1FHC4Z6QXDQSS","3Z3R5YC0P3915KVY8X6BNRIWYOFFTN","","386.40000009536743","img/land3.png","75","386.90000009536743","2","0","1","2","0.8,0.2,0.2,0.2,0.8,0.2,0.2,0.2,0.8","0.2,0.8,0.2,0.2,0.2,0.8,0.8,0.2,0.2","3","",""
"","html-keyboard-response","200","89918","0.0-200.0","3VP0C6EFSHI3VGAXP97XWQ6FJSVM6G","A1FHC4Z6QXDQSS","3Z3R5YC0P3915KVY8X6BNRIWYOFFTN","","null","<img src=""img/land3.png"" style=""width:200px;border:14px solid red;"">","null","","","","","","","","","",""
"","image-keyboard-response","201","90293","0.0-201.0","3VP0C6EFSHI3VGAXP97XWQ6FJSVM6G","A1FHC4Z6QXDQSS","3Z3R5YC0P3915KVY8X6BNRIWYOFFTN","","374.69999980926514","img/land3.png","74","375.2999999523163","1","1","1","2","0.8,0.2,0.2,0.2,0.8,0.2,0.2,0.2,0.8","0.2,0.8,0.2,0.2,0.2,0.8,0.8,0.2,0.2","3","",""
"","html-keyboard-response","202","90595","0.0-202.0","3VP0C6EFSHI3VGAXP97XWQ6FJSVM6G","A1FHC4Z6QXDQSS","3Z3R5YC0P3915KVY8X6BNRIWYOFFTN","","null","<img src=""img/land3.png"" style=""width:200px; border:14px solid green;"">","null","","","","","","","","","",""
"","image-keyboard-response","203","90880","0.0-203.0","3VP0C6EFSHI3VGAXP97XWQ6FJSVM6G","A1FHC4Z6QXDQSS","3Z3R5YC0P3915KVY8X6BNRIWYOFFTN","","284.2999999523163","img/land1.png","74","285.2000000476837","1","0","3","2","0.8,0.2,0.2,0.2,0.8,0.2,0.2,0.2,0.8","0.2,0.8,0.2,0.2,0.2,0.8,0.8,0.2,0.2","3","",""
"","html-keyboard-response","204","91193","0.0-204.0","3VP0C6EFSHI3VGAXP97XWQ6FJSVM6G","A1FHC4Z6QXDQSS","3Z3R5YC0P3915KVY8X6BNRIWYOFFTN","","null","<img src=""img/land1.png"" style=""width:200px;border:14px solid red;"">","null","","","","","","","","","",""
"","image-keyboard-response","205","91332","0.0-205.0","3VP0C6EFSHI3VGAXP97XWQ6FJSVM6G","A1FHC4Z6QXDQSS","3Z3R5YC0P3915KVY8X6BNRIWYOFFTN","","138.40000009536743","img/land3.png","74","139.09999990463257","1","1","1","2","0.8,0.2,0.2,0.2,0.8,0.2,0.2,0.2,0.8","0.2,0.8,0.2,0.2,0.2,0.8,0.8,0.2,0.2","3","",""
"","html-keyboard-response","206","91648","0.0-206.0","3VP0C6EFSHI3VGAXP97XWQ6FJSVM6G","A1FHC4Z6QXDQSS","3Z3R5YC0P3915KVY8X6BNRIWYOFFTN","","null","<img src=""img/land3.png"" style=""width:200px; border:14px solid green;"">","null","","","","","","","","","",""
"","image-keyboard-response","207","91666","0.0-207.0","3VP0C6EFSHI3VGAXP97XWQ6FJSVM6G","A1FHC4Z6QXDQSS","3Z3R5YC0P3915KVY8X6BNRIWYOFFTN","","17.59999990463257","img/land5.png","74","18.399999856948853","1","0","2","2","0.8,0.2,0.2,0.2,0.8,0.2,0.2,0.2,0.8","0.2,0.8,0.2,0.2,0.2,0.8,0.8,0.2,0.2","3","",""
"","html-keyboard-response","208","91968","0.0-208.0","3VP0C6EFSHI3VGAXP97XWQ6FJSVM6G","A1FHC4Z6QXDQSS","3Z3R5YC0P3915KVY8X6BNRIWYOFFTN","","null","<img src=""img/land5.png"" style=""width:200px;border:14px solid red;"">","null","","","","","","","","","",""
"","image-keyboard-response","209","92257","0.0-209.0","3VP0C6EFSHI3VGAXP97XWQ6FJSVM6G","A1FHC4Z6QXDQSS","3Z3R5YC0P3915KVY8X6BNRIWYOFFTN","","288.2000000476837","img/land3.png","75","289","2","1","1","2","0.8,0.2,0.2,0.2,0.8,0.2,0.2,0.2,0.8","0.2,0.8,0.2,0.2,0.2,0.8,0.8,0.2,0.2","3","",""
"","html-keyboard-response","210","92559","0.0-210.0","3VP0C6EFSHI3VGAXP97XWQ6FJSVM6G","A1FHC4Z6QXDQSS","3Z3R5YC0P3915KVY8X6BNRIWYOFFTN","","null","<img src=""img/land3.png"" style=""width:200px; border:14px solid green;"">","null","","","","","","","","","",""
"","image-keyboard-response","211","92688","0.0-211.0","3VP0C6EFSHI3VGAXP97XWQ6FJSVM6G","A1FHC4Z6QXDQSS","3Z3R5YC0P3915KVY8X6BNRIWYOFFTN","","127.70000004768372","img/land5.png","75","128.29999995231628","2","1","2","2","0.8,0.2,0.2,0.2,0.8,0.2,0.2,0.2,0.8","0.2,0.8,0.2,0.2,0.2,0.8,0.8,0.2,0.2","3","",""
"","html-keyboard-response","212","92989","0.0-212.0","3VP0C6EFSHI3VGAXP97XWQ6FJSVM6G","A1FHC4Z6QXDQSS","3Z3R5YC0P3915KVY8X6BNRIWYOFFTN","","null","<img src=""img/land5.png"" style=""width:200px; border:14px solid green;"">","null","","","","","","","","","",""
"","image-keyboard-response","213","93039","0.0-213.0","3VP0C6EFSHI3VGAXP97XWQ6FJSVM6G","A1FHC4Z6QXDQSS","3Z3R5YC0P3915KVY8X6BNRIWYOFFTN","","48.90000009536743","img/land5.png","75","49.799999952316284","2","0","2","2","0.8,0.2,0.2,0.2,0.8,0.2,0.2,0.2,0.8","0.2,0.8,0.2,0.2,0.2,0.8,0.8,0.2,0.2","3","",""
"","html-keyboard-response","214","93341","0.0-214.0","3VP0C6EFSHI3VGAXP97XWQ6FJSVM6G","A1FHC4Z6QXDQSS","3Z3R5YC0P3915KVY8X6BNRIWYOFFTN","","null","<img src=""img/land5.png"" style=""width:200px;border:14px solid red;"">","null","","","","","","","","","",""
"","image-keyboard-response","215","93395","0.0-215.0","3VP0C6EFSHI3VGAXP97XWQ6FJSVM6G","A1FHC4Z6QXDQSS","3Z3R5YC0P3915KVY8X6BNRIWYOFFTN","","52.5","img/land3.png","75","53.40000009536743","2","1","1","2","0.8,0.2,0.2,0.2,0.8,0.2,0.2,0.2,0.8","0.2,0.8,0.2,0.2,0.2,0.8,0.8,0.2,0.2","3","",""
"","html-keyboard-response","216","93696","0.0-216.0","3VP0C6EFSHI3VGAXP97XWQ6FJSVM6G","A1FHC4Z6QXDQSS","3Z3R5YC0P3915KVY8X6BNRIWYOFFTN","","null","<img src=""img/land3.png"" style=""width:200px; border:14px solid green;"">","null","","","","","","","","","",""
"","image-keyboard-response","217","93770","0.0-217.0","3VP0C6EFSHI3VGAXP97XWQ6FJSVM6G","A1FHC4Z6QXDQSS","3Z3R5YC0P3915KVY8X6BNRIWYOFFTN","","73.10000014305115","img/land3.png","75","73.79999995231628","2","1","1","2","0.8,0.2,0.2,0.2,0.8,0.2,0.2,0.2,0.8","0.2,0.8,0.2,0.2,0.2,0.8,0.8,0.2,0.2","3","",""
"","html-keyboard-response","218","94071","0.0-218.0","3VP0C6EFSHI3VGAXP97XWQ6FJSVM6G","A1FHC4Z6QXDQSS","3Z3R5YC0P3915KVY8X6BNRIWYOFFTN","","null","<img src=""img/land3.png"" style=""width:200px; border:14px solid green;"">","null","","","","","","","","","",""
"","image-keyboard-response","219","94096","0.0-219.0","3VP0C6EFSHI3VGAXP97XWQ6FJSVM6G","A1FHC4Z6QXDQSS","3Z3R5YC0P3915KVY8X6BNRIWYOFFTN","","23","img/land3.png","75","23.700000047683716","2","1","1","2","0.8,0.2,0.2,0.2,0.8,0.2,0.2,0.2,0.8","0.2,0.8,0.2,0.2,0.2,0.8,0.8,0.2,0.2","3","",""
"","html-keyboard-response","220","94397","0.0-220.0","3VP0C6EFSHI3VGAXP97XWQ6FJSVM6G","A1FHC4Z6QXDQSS","3Z3R5YC0P3915KVY8X6BNRIWYOFFTN","","null","<img src=""img/land3.png"" style=""width:200px; border:14px solid green;"">","null","","","","","","","","","",""
"","image-keyboard-response","221","94441","0.0-221.0","3VP0C6EFSHI3VGAXP97XWQ6FJSVM6G","A1FHC4Z6QXDQSS","3Z3R5YC0P3915KVY8X6BNRIWYOFFTN","","42.700000047683716","img/land1.png","75","43.39999985694885","2","0","3","2","0.8,0.2,0.2,0.2,0.8,0.2,0.2,0.2,0.8","0.2,0.8,0.2,0.2,0.2,0.8,0.8,0.2,0.2","3","",""
"","html-keyboard-response","222","94742","0.0-222.0","3VP0C6EFSHI3VGAXP97XWQ6FJSVM6G","A1FHC4Z6QXDQSS","3Z3R5YC0P3915KVY8X6BNRIWYOFFTN","","null","<img src=""img/land1.png"" style=""width:200px;border:14px solid red;"">","null","","","","","","","","","",""
"","image-keyboard-response","223","95105","0.0-223.0","3VP0C6EFSHI3VGAXP97XWQ6FJSVM6G","A1FHC4Z6QXDQSS","3Z3R5YC0P3915KVY8X6BNRIWYOFFTN","","361.90000009536743","img/land3.png","74","362.7000000476837","1","1","1","2","0.8,0.2,0.2,0.2,0.8,0.2,0.2,0.2,0.8","0.2,0.8,0.2,0.2,0.2,0.8,0.8,0.2,0.2","3","",""
"","html-keyboard-response","224","95406","0.0-224.0","3VP0C6EFSHI3VGAXP97XWQ6FJSVM6G","A1FHC4Z6QXDQSS","3Z3R5YC0P3915KVY8X6BNRIWYOFFTN","","null","<img src=""img/land3.png"" style=""width:200px; border:14px solid green;"">","null","","","","","","","","","",""
"","image-keyboard-response","225","95591","0.0-225.0","3VP0C6EFSHI3VGAXP97XWQ6FJSVM6G","A1FHC4Z6QXDQSS","3Z3R5YC0P3915KVY8X6BNRIWYOFFTN","","183.39999985694885","img/land1.png","74","184.20000004768372","1","0","3","2","0.8,0.2,0.2,0.2,0.8,0.2,0.2,0.2,0.8","0.2,0.8,0.2,0.2,0.2,0.8,0.8,0.2,0.2","3","",""
"","html-keyboard-response","226","95892","0.0-226.0","3VP0C6EFSHI3VGAXP97XWQ6FJSVM6G","A1FHC4Z6QXDQSS","3Z3R5YC0P3915KVY8X6BNRIWYOFFTN","","null","<img src=""img/land1.png"" style=""width:200px;border:14px solid red;"">","null","","","","","","","","","",""
"","image-keyboard-response","227","96331","0.0-227.0","3VP0C6EFSHI3VGAXP97XWQ6FJSVM6G","A1FHC4Z6QXDQSS","3Z3R5YC0P3915KVY8X6BNRIWYOFFTN","","438.2000000476837","img/land3.png","75","438.90000009536743","2","1","1","2","0.8,0.2,0.2,0.2,0.8,0.2,0.2,0.2,0.8","0.2,0.8,0.2,0.2,0.2,0.8,0.8,0.2,0.2","3","",""
"","html-keyboard-response","228","96632","0.0-228.0","3VP0C6EFSHI3VGAXP97XWQ6FJSVM6G","A1FHC4Z6QXDQSS","3Z3R5YC0P3915KVY8X6BNRIWYOFFTN","","null","<img src=""img/land3.png"" style=""width:200px; border:14px solid green;"">","null","","","","","","","","","",""
"","image-keyboard-response","229","96722","0.0-229.0","3VP0C6EFSHI3VGAXP97XWQ6FJSVM6G","A1FHC4Z6QXDQSS","3Z3R5YC0P3915KVY8X6BNRIWYOFFTN","","88.90000009536743","img/land1.png","75","89.70000004768372","2","0","3","2","0.8,0.2,0.2,0.2,0.8,0.2,0.2,0.2,0.8","0.2,0.8,0.2,0.2,0.2,0.8,0.8,0.2,0.2","3","",""
"","html-keyboard-response","230","97023","0.0-230.0","3VP0C6EFSHI3VGAXP97XWQ6FJSVM6G","A1FHC4Z6QXDQSS","3Z3R5YC0P3915KVY8X6BNRIWYOFFTN","","null","<img src=""img/land1.png"" style=""width:200px;border:14px solid red;"">","null","","","","","","","","","",""
"","image-keyboard-response","231","97723","0.0-231.0","3VP0C6EFSHI3VGAXP97XWQ6FJSVM6G","A1FHC4Z6QXDQSS","3Z3R5YC0P3915KVY8X6BNRIWYOFFTN","","699.1000001430511","img/land3.png","75","700.6999998092651","2","1","1","2","0.8,0.2,0.2,0.2,0.8,0.2,0.2,0.2,0.8","0.2,0.8,0.2,0.2,0.2,0.8,0.8,0.2,0.2","3","",""
"","html-keyboard-response","232","98026","0.0-232.0","3VP0C6EFSHI3VGAXP97XWQ6FJSVM6G","A1FHC4Z6QXDQSS","3Z3R5YC0P3915KVY8X6BNRIWYOFFTN","","null","<img src=""img/land3.png"" style=""width:200px; border:14px solid green;"">","null","","","","","","","","","",""
"","image-keyboard-response","233","98265","0.0-233.0","3VP0C6EFSHI3VGAXP97XWQ6FJSVM6G","A1FHC4Z6QXDQSS","3Z3R5YC0P3915KVY8X6BNRIWYOFFTN","","238","img/land3.png","75","238.80000019073486","2","1","1","2","0.8,0.2,0.2,0.2,0.8,0.2,0.2,0.2,0.8","0.2,0.8,0.2,0.2,0.2,0.8,0.8,0.2,0.2","3","",""
"","html-keyboard-response","234","98567","0.0-234.0","3VP0C6EFSHI3VGAXP97XWQ6FJSVM6G","A1FHC4Z6QXDQSS","3Z3R5YC0P3915KVY8X6BNRIWYOFFTN","","null","<img src=""img/land3.png"" style=""width:200px; border:14px solid green;"">","null","","","","","","","","","",""
"","image-keyboard-response","235","98701","0.0-235.0","3VP0C6EFSHI3VGAXP97XWQ6FJSVM6G","A1FHC4Z6QXDQSS","3Z3R5YC0P3915KVY8X6BNRIWYOFFTN","","133.5","img/land3.png","75","134.40000009536743","2","1","1","2","0.8,0.2,0.2,0.2,0.8,0.2,0.2,0.2,0.8","0.2,0.8,0.2,0.2,0.2,0.8,0.8,0.2,0.2","3","",""
"","html-keyboard-response","236","99004","0.0-236.0","3VP0C6EFSHI3VGAXP97XWQ6FJSVM6G","A1FHC4Z6QXDQSS","3Z3R5YC0P3915KVY8X6BNRIWYOFFTN","","null","<img src=""img/land3.png"" style=""width:200px; border:14px solid green;"">","null","","","","","","","","","",""
"","image-keyboard-response","237","99142","0.0-237.0","3VP0C6EFSHI3VGAXP97XWQ6FJSVM6G","A1FHC4Z6QXDQSS","3Z3R5YC0P3915KVY8X6BNRIWYOFFTN","","137.40000009536743","img/land3.png","75","138.10000014305115","2","1","1","2","0.8,0.2,0.2,0.2,0.8,0.2,0.2,0.2,0.8","0.2,0.8,0.2,0.2,0.2,0.8,0.8,0.2,0.2","3","",""
"","html-keyboard-response","238","99443","0.0-238.0","3VP0C6EFSHI3VGAXP97XWQ6FJSVM6G","A1FHC4Z6QXDQSS","3Z3R5YC0P3915KVY8X6BNRIWYOFFTN","","null","<img src=""img/land3.png"" style=""width:200px; border:14px solid green;"">","null","","","","","","","","","",""
"","image-keyboard-response","239","99605","0.0-239.0","3VP0C6EFSHI3VGAXP97XWQ6FJSVM6G","A1FHC4Z6QXDQSS","3Z3R5YC0P3915KVY8X6BNRIWYOFFTN","","160.90000009536743","img/land3.png","75","161.60000014305115","2","1","1","2","0.8,0.2,0.2,0.2,0.8,0.2,0.2,0.2,0.8","0.2,0.8,0.2,0.2,0.2,0.8,0.8,0.2,0.2","3","",""
"","html-keyboard-response","240","99907","0.0-240.0","3VP0C6EFSHI3VGAXP97XWQ6FJSVM6G","A1FHC4Z6QXDQSS","3Z3R5YC0P3915KVY8X6BNRIWYOFFTN","","null","<img src=""img/land3.png"" style=""width:200px; border:14px solid green;"">","null","","","","","","","","","",""
"","image-keyboard-response","241","99982","0.0-241.0","3VP0C6EFSHI3VGAXP97XWQ6FJSVM6G","A1FHC4Z6QXDQSS","3Z3R5YC0P3915KVY8X6BNRIWYOFFTN","","73.20000004768372","img/land5.png","75","74.09999990463257","2","0","2","2","0.8,0.2,0.2,0.2,0.8,0.2,0.2,0.2,0.8","0.2,0.8,0.2,0.2,0.2,0.8,0.8,0.2,0.2","3","",""
"","html-keyboard-response","242","100283","0.0-242.0","3VP0C6EFSHI3VGAXP97XWQ6FJSVM6G","A1FHC4Z6QXDQSS","3Z3R5YC0P3915KVY8X6BNRIWYOFFTN","","null","<img src=""img/land5.png"" style=""width:200px;border:14px solid red;"">","null","","","","","","","","","",""
"","image-keyboard-response","243","101055","0.0-243.0","3VP0C6EFSHI3VGAXP97XWQ6FJSVM6G","A1FHC4Z6QXDQSS","3Z3R5YC0P3915KVY8X6BNRIWYOFFTN","","770.7999999523163","img/land3.png","75","771.5999999046326","2","1","1","2","0.8,0.2,0.2,0.2,0.8,0.2,0.2,0.2,0.8","0.2,0.8,0.2,0.2,0.2,0.8,0.8,0.2,0.2","3","",""
"","html-keyboard-response","244","101357","0.0-244.0","3VP0C6EFSHI3VGAXP97XWQ6FJSVM6G","A1FHC4Z6QXDQSS","3Z3R5YC0P3915KVY8X6BNRIWYOFFTN","","null","<img src=""img/land3.png"" style=""width:200px; border:14px solid green;"">","null","","","","","","","","","",""
"","image-keyboard-response","245","101474","0.0-245.0","3VP0C6EFSHI3VGAXP97XWQ6FJSVM6G","A1FHC4Z6QXDQSS","3Z3R5YC0P3915KVY8X6BNRIWYOFFTN","","115.90000009536743","img/land5.png","75","116.79999995231628","2","0","2","2","0.8,0.2,0.2,0.2,0.8,0.2,0.2,0.2,0.8","0.2,0.8,0.2,0.2,0.2,0.8,0.8,0.2,0.2","3","",""
"","html-keyboard-response","246","101776","0.0-246.0","3VP0C6EFSHI3VGAXP97XWQ6FJSVM6G","A1FHC4Z6QXDQSS","3Z3R5YC0P3915KVY8X6BNRIWYOFFTN","","null","<img src=""img/land5.png"" style=""width:200px;border:14px solid red;"">","null","","","","","","","","","",""
"","image-keyboard-response","247","102361","0.0-247.0","3VP0C6EFSHI3VGAXP97XWQ6FJSVM6G","A1FHC4Z6QXDQSS","3Z3R5YC0P3915KVY8X6BNRIWYOFFTN","","584","img/land3.png","75","584.5999999046326","2","1","1","2","0.8,0.2,0.2,0.2,0.8,0.2,0.2,0.2,0.8","0.2,0.8,0.2,0.2,0.2,0.8,0.8,0.2,0.2","3","",""
"","html-keyboard-response","248","102662","0.0-248.0","3VP0C6EFSHI3VGAXP97XWQ6FJSVM6G","A1FHC4Z6QXDQSS","3Z3R5YC0P3915KVY8X6BNRIWYOFFTN","","null","<img src=""img/land3.png"" style=""width:200px; border:14px solid green;"">","null","","","","","","","","","",""
"","image-keyboard-response","249","103307","0.0-249.0","3VP0C6EFSHI3VGAXP97XWQ6FJSVM6G","A1FHC4Z6QXDQSS","3Z3R5YC0P3915KVY8X6BNRIWYOFFTN","","643.8999998569489","img/land1.png","74","644.6999998092651","1","1","3","2","0.8,0.2,0.2,0.2,0.8,0.2,0.2,0.2,0.8","0.2,0.8,0.2,0.2,0.2,0.8,0.8,0.2,0.2","3","",""
"","html-keyboard-response","250","103609","0.0-250.0","3VP0C6EFSHI3VGAXP97XWQ6FJSVM6G","A1FHC4Z6QXDQSS","3Z3R5YC0P3915KVY8X6BNRIWYOFFTN","","null","<img src=""img/land1.png"" style=""width:200px; border:14px solid green;"">","null","","","","","","","","","",""
"","image-keyboard-response","251","104312","0.0-251.0","3VP0C6EFSHI3VGAXP97XWQ6FJSVM6G","A1FHC4Z6QXDQSS","3Z3R5YC0P3915KVY8X6BNRIWYOFFTN","","701.5999999046326","img/land3.png","75","702.5","2","1","1","2","0.8,0.2,0.2,0.2,0.8,0.2,0.2,0.2,0.8","0.2,0.8,0.2,0.2,0.2,0.8,0.8,0.2,0.2","3","",""
"","html-keyboard-response","252","104613","0.0-252.0","3VP0C6EFSHI3VGAXP97XWQ6FJSVM6G","A1FHC4Z6QXDQSS","3Z3R5YC0P3915KVY8X6BNRIWYOFFTN","","null","<img src=""img/land3.png"" style=""width:200px; border:14px solid green;"">","null","","","","","","","","","",""
"","image-keyboard-response","253","104754","0.0-253.0","3VP0C6EFSHI3VGAXP97XWQ6FJSVM6G","A1FHC4Z6QXDQSS","3Z3R5YC0P3915KVY8X6BNRIWYOFFTN","","139.09999990463257","img/land3.png","75","139.79999995231628","2","1","1","2","0.8,0.2,0.2,0.2,0.8,0.2,0.2,0.2,0.8","0.2,0.8,0.2,0.2,0.2,0.8,0.8,0.2,0.2","3","",""
"","html-keyboard-response","254","105055","0.0-254.0","3VP0C6EFSHI3VGAXP97XWQ6FJSVM6G","A1FHC4Z6QXDQSS","3Z3R5YC0P3915KVY8X6BNRIWYOFFTN","","null","<img src=""img/land3.png"" style=""width:200px; border:14px solid green;"">","null","","","","","","","","","",""
"","image-keyboard-response","255","105569","0.0-255.0","3VP0C6EFSHI3VGAXP97XWQ6FJSVM6G","A1FHC4Z6QXDQSS","3Z3R5YC0P3915KVY8X6BNRIWYOFFTN","","513.4000000953674","img/land1.png","74","514.1000001430511","1","1","3","2","0.8,0.2,0.2,0.2,0.8,0.2,0.2,0.2,0.8","0.2,0.8,0.2,0.2,0.2,0.8,0.8,0.2,0.2","3","",""
"","html-keyboard-response","256","105870","0.0-256.0","3VP0C6EFSHI3VGAXP97XWQ6FJSVM6G","A1FHC4Z6QXDQSS","3Z3R5YC0P3915KVY8X6BNRIWYOFFTN","","null","<img src=""img/land1.png"" style=""width:200px; border:14px solid green;"">","null","","","","","","","","","",""
"","image-keyboard-response","257","106387","0.0-257.0","3VP0C6EFSHI3VGAXP97XWQ6FJSVM6G","A1FHC4Z6QXDQSS","3Z3R5YC0P3915KVY8X6BNRIWYOFFTN","","516.1999998092651","img/land3.png","75","517","2","1","1","2","0.8,0.2,0.2,0.2,0.8,0.2,0.2,0.2,0.8","0.2,0.8,0.2,0.2,0.2,0.8,0.8,0.2,0.2","3","",""
"","html-keyboard-response","258","106689","0.0-258.0","3VP0C6EFSHI3VGAXP97XWQ6FJSVM6G","A1FHC4Z6QXDQSS","3Z3R5YC0P3915KVY8X6BNRIWYOFFTN","","null","<img src=""img/land3.png"" style=""width:200px; border:14px solid green;"">","null","","","","","","","","","",""
"","image-keyboard-response","259","106738","0.0-259.0","3VP0C6EFSHI3VGAXP97XWQ6FJSVM6G","A1FHC4Z6QXDQSS","3Z3R5YC0P3915KVY8X6BNRIWYOFFTN","","48.89999985694885","img/land1.png","75","49.60000014305115","2","0","3","2","0.8,0.2,0.2,0.2,0.8,0.2,0.2,0.2,0.8","0.2,0.8,0.2,0.2,0.2,0.8,0.8,0.2,0.2","3","",""
"","html-keyboard-response","260","107040","0.0-260.0","3VP0C6EFSHI3VGAXP97XWQ6FJSVM6G","A1FHC4Z6QXDQSS","3Z3R5YC0P3915KVY8X6BNRIWYOFFTN","","null","<img src=""img/land1.png"" style=""width:200px;border:14px solid red;"">","null","","","","","","","","","",""
"","image-keyboard-response","261","107448","0.0-261.0","3VP0C6EFSHI3VGAXP97XWQ6FJSVM6G","A1FHC4Z6QXDQSS","3Z3R5YC0P3915KVY8X6BNRIWYOFFTN","","406.7999999523163","img/land3.png","74","407.69999980926514","1","0","1","2","0.8,0.2,0.2,0.2,0.8,0.2,0.2,0.2,0.8","0.2,0.8,0.2,0.2,0.2,0.8,0.8,0.2,0.2","3","",""
"","html-keyboard-response","262","107750","0.0-262.0","3VP0C6EFSHI3VGAXP97XWQ6FJSVM6G","A1FHC4Z6QXDQSS","3Z3R5YC0P3915KVY8X6BNRIWYOFFTN","","null","<img src=""img/land3.png"" style=""width:200px;border:14px solid red;"">","null","","","","","","","","","",""
"","image-keyboard-response","263","108212","0.0-263.0","3VP0C6EFSHI3VGAXP97XWQ6FJSVM6G","A1FHC4Z6QXDQSS","3Z3R5YC0P3915KVY8X6BNRIWYOFFTN","","461.5","img/land3.png","75","462.2000000476837","2","1","1","2","0.8,0.2,0.2,0.2,0.8,0.2,0.2,0.2,0.8","0.2,0.8,0.2,0.2,0.2,0.8,0.8,0.2,0.2","3","",""
"","html-keyboard-response","264","108514","0.0-264.0","3VP0C6EFSHI3VGAXP97XWQ6FJSVM6G","A1FHC4Z6QXDQSS","3Z3R5YC0P3915KVY8X6BNRIWYOFFTN","","null","<img src=""img/land3.png"" style=""width:200px; border:14px solid green;"">","null","","","","","","","","","",""
"","image-keyboard-response","265","108636","0.0-265.0","3VP0C6EFSHI3VGAXP97XWQ6FJSVM6G","A1FHC4Z6QXDQSS","3Z3R5YC0P3915KVY8X6BNRIWYOFFTN","","120.5","img/land3.png","75","121.20000004768372","2","1","1","2","0.8,0.2,0.2,0.2,0.8,0.2,0.2,0.2,0.8","0.2,0.8,0.2,0.2,0.2,0.8,0.8,0.2,0.2","3","",""
"","html-keyboard-response","266","108937","0.0-266.0","3VP0C6EFSHI3VGAXP97XWQ6FJSVM6G","A1FHC4Z6QXDQSS","3Z3R5YC0P3915KVY8X6BNRIWYOFFTN","","null","<img src=""img/land3.png"" style=""width:200px; border:14px solid green;"">","null","","","","","","","","","",""
"","image-keyboard-response","267","108982","0.0-267.0","3VP0C6EFSHI3VGAXP97XWQ6FJSVM6G","A1FHC4Z6QXDQSS","3Z3R5YC0P3915KVY8X6BNRIWYOFFTN","","43.59999990463257","img/land3.png","75","44.39999985694885","2","1","1","2","0.8,0.2,0.2,0.2,0.8,0.2,0.2,0.2,0.8","0.2,0.8,0.2,0.2,0.2,0.8,0.8,0.2,0.2","3","",""
"","html-keyboard-response","268","109283","0.0-268.0","3VP0C6EFSHI3VGAXP97XWQ6FJSVM6G","A1FHC4Z6QXDQSS","3Z3R5YC0P3915KVY8X6BNRIWYOFFTN","","null","<img src=""img/land3.png"" style=""width:200px; border:14px solid green;"">","null","","","","","","","","","",""
"","image-keyboard-response","269","109321","0.0-269.0","3VP0C6EFSHI3VGAXP97XWQ6FJSVM6G","A1FHC4Z6QXDQSS","3Z3R5YC0P3915KVY8X6BNRIWYOFFTN","","36.10000014305115","img/land3.png","75","37","2","1","1","2","0.8,0.2,0.2,0.2,0.8,0.2,0.2,0.2,0.8","0.2,0.8,0.2,0.2,0.2,0.8,0.8,0.2,0.2","3","",""
"","html-keyboard-response","270","109622","0.0-270.0","3VP0C6EFSHI3VGAXP97XWQ6FJSVM6G","A1FHC4Z6QXDQSS","3Z3R5YC0P3915KVY8X6BNRIWYOFFTN","","null","<img src=""img/land3.png"" style=""width:200px; border:14px solid green;"">","null","","","","","","","","","",""
"","image-keyboard-response","271","109971","0.0-271.0","3VP0C6EFSHI3VGAXP97XWQ6FJSVM6G","A1FHC4Z6QXDQSS","3Z3R5YC0P3915KVY8X6BNRIWYOFFTN","","348","img/land3.png","75","349","2","1","1","2","0.8,0.2,0.2,0.2,0.8,0.2,0.2,0.2,0.8","0.2,0.8,0.2,0.2,0.2,0.8,0.8,0.2,0.2","3","",""
"","html-keyboard-response","272","110273","0.0-272.0","3VP0C6EFSHI3VGAXP97XWQ6FJSVM6G","A1FHC4Z6QXDQSS","3Z3R5YC0P3915KVY8X6BNRIWYOFFTN","","null","<img src=""img/land3.png"" style=""width:200px; border:14px solid green;"">","null","","","","","","","","","",""
"","image-keyboard-response","273","110622","0.0-273.0","3VP0C6EFSHI3VGAXP97XWQ6FJSVM6G","A1FHC4Z6QXDQSS","3Z3R5YC0P3915KVY8X6BNRIWYOFFTN","","347.39999985694885","img/land3.png","75","348.2000000476837","2","0","1","2","0.8,0.2,0.2,0.2,0.8,0.2,0.2,0.2,0.8","0.2,0.8,0.2,0.2,0.2,0.8,0.8,0.2,0.2","3","",""
"","html-keyboard-response","274","110924","0.0-274.0","3VP0C6EFSHI3VGAXP97XWQ6FJSVM6G","A1FHC4Z6QXDQSS","3Z3R5YC0P3915KVY8X6BNRIWYOFFTN","","null","<img src=""img/land3.png"" style=""width:200px;border:14px solid red;"">","null","","","","","","","","","",""
"","image-keyboard-response","275","111460","0.0-275.0","3VP0C6EFSHI3VGAXP97XWQ6FJSVM6G","A1FHC4Z6QXDQSS","3Z3R5YC0P3915KVY8X6BNRIWYOFFTN","","535.4000000953674","img/land1.png","74","536.1000001430511","1","0","3","2","0.8,0.2,0.2,0.2,0.8,0.2,0.2,0.2,0.8","0.2,0.8,0.2,0.2,0.2,0.8,0.8,0.2,0.2","3","",""
"","html-keyboard-response","276","111762","0.0-276.0","3VP0C6EFSHI3VGAXP97XWQ6FJSVM6G","A1FHC4Z6QXDQSS","3Z3R5YC0P3915KVY8X6BNRIWYOFFTN","","null","<img src=""img/land1.png"" style=""width:200px;border:14px solid red;"">","null","","","","","","","","","",""
"","image-keyboard-response","277","112294","0.0-277.0","3VP0C6EFSHI3VGAXP97XWQ6FJSVM6G","A1FHC4Z6QXDQSS","3Z3R5YC0P3915KVY8X6BNRIWYOFFTN","","531.4000000953674","img/land3.png","75","532.0999999046326","2","0","1","2","0.8,0.2,0.2,0.2,0.8,0.2,0.2,0.2,0.8","0.2,0.8,0.2,0.2,0.2,0.8,0.8,0.2,0.2","3","",""
"","html-keyboard-response","278","112595","0.0-278.0","3VP0C6EFSHI3VGAXP97XWQ6FJSVM6G","A1FHC4Z6QXDQSS","3Z3R5YC0P3915KVY8X6BNRIWYOFFTN","","null","<img src=""img/land3.png"" style=""width:200px;border:14px solid red;"">","null","","","","","","","","","",""
"","image-keyboard-response","279","112702","0.0-279.0","3VP0C6EFSHI3VGAXP97XWQ6FJSVM6G","A1FHC4Z6QXDQSS","3Z3R5YC0P3915KVY8X6BNRIWYOFFTN","","105.20000004768372","img/land1.png","75","106.09999990463257","2","0","3","2","0.8,0.2,0.2,0.2,0.8,0.2,0.2,0.2,0.8","0.2,0.8,0.2,0.2,0.2,0.8,0.8,0.2,0.2","3","",""
"","html-keyboard-response","280","113003","0.0-280.0","3VP0C6EFSHI3VGAXP97XWQ6FJSVM6G","A1FHC4Z6QXDQSS","3Z3R5YC0P3915KVY8X6BNRIWYOFFTN","","null","<img src=""img/land1.png"" style=""width:200px;border:14px solid red;"">","null","","","","","","","","","",""
"","image-keyboard-response","281","113894","0.0-281.0","3VP0C6EFSHI3VGAXP97XWQ6FJSVM6G","A1FHC4Z6QXDQSS","3Z3R5YC0P3915KVY8X6BNRIWYOFFTN","","889.5999999046326","img/land5.png","74","890.5","1","0","2","2","0.8,0.2,0.2,0.2,0.8,0.2,0.2,0.2,0.8","0.2,0.8,0.2,0.2,0.2,0.8,0.8,0.2,0.2","3","",""
"","html-keyboard-response","282","114196","0.0-282.0","3VP0C6EFSHI3VGAXP97XWQ6FJSVM6G","A1FHC4Z6QXDQSS","3Z3R5YC0P3915KVY8X6BNRIWYOFFTN","","null","<img src=""img/land5.png"" style=""width:200px;border:14px solid red;"">","null","","","","","","","","","",""
"","image-keyboard-response","283","114699","0.0-283.0","3VP0C6EFSHI3VGAXP97XWQ6FJSVM6G","A1FHC4Z6QXDQSS","3Z3R5YC0P3915KVY8X6BNRIWYOFFTN","","502.10000014305115","img/land3.png","75","502.7999999523163","2","1","1","2","0.8,0.2,0.2,0.2,0.8,0.2,0.2,0.2,0.8","0.2,0.8,0.2,0.2,0.2,0.8,0.8,0.2,0.2","3","",""
"","html-keyboard-response","284","115009","0.0-284.0","3VP0C6EFSHI3VGAXP97XWQ6FJSVM6G","A1FHC4Z6QXDQSS","3Z3R5YC0P3915KVY8X6BNRIWYOFFTN","","null","<img src=""img/land3.png"" style=""width:200px; border:14px solid green;"">","null","","","","","","","","","",""
"","image-keyboard-response","285","115874","0.0-285.0","3VP0C6EFSHI3VGAXP97XWQ6FJSVM6G","A1FHC4Z6QXDQSS","3Z3R5YC0P3915KVY8X6BNRIWYOFFTN","","863.9000000953674","img/land5.png","74","864.8000001907349","1","0","2","2","0.8,0.2,0.2,0.2,0.8,0.2,0.2,0.2,0.8","0.2,0.8,0.2,0.2,0.2,0.8,0.8,0.2,0.2","3","",""
"","html-keyboard-response","286","116176","0.0-286.0","3VP0C6EFSHI3VGAXP97XWQ6FJSVM6G","A1FHC4Z6QXDQSS","3Z3R5YC0P3915KVY8X6BNRIWYOFFTN","","null","<img src=""img/land5.png"" style=""width:200px;border:14px solid red;"">","null","","","","","","","","","",""
"","image-keyboard-response","287","116646","0.0-287.0","3VP0C6EFSHI3VGAXP97XWQ6FJSVM6G","A1FHC4Z6QXDQSS","3Z3R5YC0P3915KVY8X6BNRIWYOFFTN","","469.7000000476837","img/land3.png","75","470.39999985694885","2","0","1","2","0.8,0.2,0.2,0.2,0.8,0.2,0.2,0.2,0.8","0.2,0.8,0.2,0.2,0.2,0.8,0.8,0.2,0.2","3","",""
"","html-keyboard-response","288","116948","0.0-288.0","3VP0C6EFSHI3VGAXP97XWQ6FJSVM6G","A1FHC4Z6QXDQSS","3Z3R5YC0P3915KVY8X6BNRIWYOFFTN","","null","<img src=""img/land3.png"" style=""width:200px;border:14px solid red;"">","null","","","","","","","","","",""
"","image-keyboard-response","289","117038","0.0-289.0","3VP0C6EFSHI3VGAXP97XWQ6FJSVM6G","A1FHC4Z6QXDQSS","3Z3R5YC0P3915KVY8X6BNRIWYOFFTN","","89.40000009536743","img/land3.png","75","90.20000004768372","2","1","1","2","0.8,0.2,0.2,0.2,0.8,0.2,0.2,0.2,0.8","0.2,0.8,0.2,0.2,0.2,0.8,0.8,0.2,0.2","3","",""
"","html-keyboard-response","290","117340","0.0-290.0","3VP0C6EFSHI3VGAXP97XWQ6FJSVM6G","A1FHC4Z6QXDQSS","3Z3R5YC0P3915KVY8X6BNRIWYOFFTN","","null","<img src=""img/land3.png"" style=""width:200px; border:14px solid green;"">","null","","","","","","","","","",""
"","image-keyboard-response","291","118213","0.0-291.0","3VP0C6EFSHI3VGAXP97XWQ6FJSVM6G","A1FHC4Z6QXDQSS","3Z3R5YC0P3915KVY8X6BNRIWYOFFTN","","871.2000000476837","img/land1.png","74","872","1","1","3","2","0.8,0.2,0.2,0.2,0.8,0.2,0.2,0.2,0.8","0.2,0.8,0.2,0.2,0.2,0.8,0.8,0.2,0.2","3","",""
"","html-keyboard-response","292","118515","0.0-292.0","3VP0C6EFSHI3VGAXP97XWQ6FJSVM6G","A1FHC4Z6QXDQSS","3Z3R5YC0P3915KVY8X6BNRIWYOFFTN","","null","<img src=""img/land1.png"" style=""width:200px; border:14px solid green;"">","null","","","","","","","","","",""
"","image-keyboard-response","293","119132","0.0-293.0","3VP0C6EFSHI3VGAXP97XWQ6FJSVM6G","A1FHC4Z6QXDQSS","3Z3R5YC0P3915KVY8X6BNRIWYOFFTN","","616.1000001430511","img/land3.png","75","617","2","1","1","2","0.8,0.2,0.2,0.2,0.8,0.2,0.2,0.2,0.8","0.2,0.8,0.2,0.2,0.2,0.8,0.8,0.2,0.2","3","",""
"","html-keyboard-response","294","119434","0.0-294.0","3VP0C6EFSHI3VGAXP97XWQ6FJSVM6G","A1FHC4Z6QXDQSS","3Z3R5YC0P3915KVY8X6BNRIWYOFFTN","","null","<img src=""img/land3.png"" style=""width:200px; border:14px solid green;"">","null","","","","","","","","","",""
"","image-keyboard-response","295","119454","0.0-295.0","3VP0C6EFSHI3VGAXP97XWQ6FJSVM6G","A1FHC4Z6QXDQSS","3Z3R5YC0P3915KVY8X6BNRIWYOFFTN","","18.200000047683716","img/land5.png","75","18.90000009536743","2","0","2","2","0.8,0.2,0.2,0.2,0.8,0.2,0.2,0.2,0.8","0.2,0.8,0.2,0.2,0.2,0.8,0.8,0.2,0.2","3","",""
"","html-keyboard-response","296","119755","0.0-296.0","3VP0C6EFSHI3VGAXP97XWQ6FJSVM6G","A1FHC4Z6QXDQSS","3Z3R5YC0P3915KVY8X6BNRIWYOFFTN","","null","<img src=""img/land5.png"" style=""width:200px;border:14px solid red;"">","null","","","","","","","","","",""
"","image-keyboard-response","297","120344","0.0-297.0","3VP0C6EFSHI3VGAXP97XWQ6FJSVM6G","A1FHC4Z6QXDQSS","3Z3R5YC0P3915KVY8X6BNRIWYOFFTN","","588","img/land1.png","74","588.8999998569489","1","1","3","2","0.8,0.2,0.2,0.2,0.8,0.2,0.2,0.2,0.8","0.2,0.8,0.2,0.2,0.2,0.8,0.8,0.2,0.2","3","",""
"","html-keyboard-response","298","120646","0.0-298.0","3VP0C6EFSHI3VGAXP97XWQ6FJSVM6G","A1FHC4Z6QXDQSS","3Z3R5YC0P3915KVY8X6BNRIWYOFFTN","","null","<img src=""img/land1.png"" style=""width:200px; border:14px solid green;"">","null","","","","","","","","","",""
"","image-keyboard-response","299","121741","0.0-299.0","3VP0C6EFSHI3VGAXP97XWQ6FJSVM6G","A1FHC4Z6QXDQSS","3Z3R5YC0P3915KVY8X6BNRIWYOFFTN","","1094.1000001430511","img/land5.png","74","1095","1","0","2","2","0.8,0.2,0.2,0.2,0.8,0.2,0.2,0.2,0.8","0.2,0.8,0.2,0.2,0.2,0.8,0.8,0.2,0.2","3","",""
"","html-keyboard-response","300","122043","0.0-300.0","3VP0C6EFSHI3VGAXP97XWQ6FJSVM6G","A1FHC4Z6QXDQSS","3Z3R5YC0P3915KVY8X6BNRIWYOFFTN","","null","<img src=""img/land5.png"" style=""width:200px;border:14px solid red;"">","null","","","","","","","","","",""
"","image-keyboard-response","301","122387","0.0-301.0","3VP0C6EFSHI3VGAXP97XWQ6FJSVM6G","A1FHC4Z6QXDQSS","3Z3R5YC0P3915KVY8X6BNRIWYOFFTN","","342.60000014305115","img/land5.png","74","343.2999999523163","1","0","2","2","0.8,0.2,0.2,0.2,0.8,0.2,0.2,0.2,0.8","0.2,0.8,0.2,0.2,0.2,0.8,0.8,0.2,0.2","3","",""
"","html-keyboard-response","302","122688","0.0-302.0","3VP0C6EFSHI3VGAXP97XWQ6FJSVM6G","A1FHC4Z6QXDQSS","3Z3R5YC0P3915KVY8X6BNRIWYOFFTN","","null","<img src=""img/land5.png"" style=""width:200px;border:14px solid red;"">","null","","","","","","","","","",""
"","image-keyboard-response","303","123225","0.0-303.0","3VP0C6EFSHI3VGAXP97XWQ6FJSVM6G","A1FHC4Z6QXDQSS","3Z3R5YC0P3915KVY8X6BNRIWYOFFTN","","535.7000000476837","img/land5.png","75","536.5","2","0","2","2","0.8,0.2,0.2,0.2,0.8,0.2,0.2,0.2,0.8","0.2,0.8,0.2,0.2,0.2,0.8,0.8,0.2,0.2","3","",""
"","html-keyboard-response","304","123526","0.0-304.0","3VP0C6EFSHI3VGAXP97XWQ6FJSVM6G","A1FHC4Z6QXDQSS","3Z3R5YC0P3915KVY8X6BNRIWYOFFTN","","null","<img src=""img/land5.png"" style=""width:200px;border:14px solid red;"">","null","","","","","","","","","",""
"","image-keyboard-response","305","123723","0.0-305.0","3VP0C6EFSHI3VGAXP97XWQ6FJSVM6G","A1FHC4Z6QXDQSS","3Z3R5YC0P3915KVY8X6BNRIWYOFFTN","","195.70000004768372","img/land3.png","74","196.59999990463257","1","0","1","2","0.8,0.2,0.2,0.2,0.8,0.2,0.2,0.2,0.8","0.2,0.8,0.2,0.2,0.2,0.8,0.8,0.2,0.2","3","",""
"","html-keyboard-response","306","124024","0.0-306.0","3VP0C6EFSHI3VGAXP97XWQ6FJSVM6G","A1FHC4Z6QXDQSS","3Z3R5YC0P3915KVY8X6BNRIWYOFFTN","","null","<img src=""img/land3.png"" style=""width:200px;border:14px solid red;"">","null","","","","","","","","","",""
"","image-keyboard-response","307","124430","0.0-307.0","3VP0C6EFSHI3VGAXP97XWQ6FJSVM6G","A1FHC4Z6QXDQSS","3Z3R5YC0P3915KVY8X6BNRIWYOFFTN","","404.10000014305115","img/land3.png","75","404.7999999523163","2","1","1","2","0.8,0.2,0.2,0.2,0.8,0.2,0.2,0.2,0.8","0.2,0.8,0.2,0.2,0.2,0.8,0.8,0.2,0.2","3","",""
"","html-keyboard-response","308","124731","0.0-308.0","3VP0C6EFSHI3VGAXP97XWQ6FJSVM6G","A1FHC4Z6QXDQSS","3Z3R5YC0P3915KVY8X6BNRIWYOFFTN","","null","<img src=""img/land3.png"" style=""width:200px; border:14px solid green;"">","null","","","","","","","","","",""
"","image-keyboard-response","309","124983","0.0-309.0","3VP0C6EFSHI3VGAXP97XWQ6FJSVM6G","A1FHC4Z6QXDQSS","3Z3R5YC0P3915KVY8X6BNRIWYOFFTN","","250.30000019073486","img/land3.png","75","251","2","1","1","2","0.8,0.2,0.2,0.2,0.8,0.2,0.2,0.2,0.8","0.2,0.8,0.2,0.2,0.2,0.8,0.8,0.2,0.2","3","",""
"","html-keyboard-response","310","125284","0.0-310.0","3VP0C6EFSHI3VGAXP97XWQ6FJSVM6G","A1FHC4Z6QXDQSS","3Z3R5YC0P3915KVY8X6BNRIWYOFFTN","","null","<img src=""img/land3.png"" style=""width:200px; border:14px solid green;"">","null","","","","","","","","","",""
"","image-keyboard-response","311","125488","0.0-311.0","3VP0C6EFSHI3VGAXP97XWQ6FJSVM6G","A1FHC4Z6QXDQSS","3Z3R5YC0P3915KVY8X6BNRIWYOFFTN","","202.79999995231628","img/land3.png","75","203.5","2","1","1","2","0.8,0.2,0.2,0.2,0.8,0.2,0.2,0.2,0.8","0.2,0.8,0.2,0.2,0.2,0.8,0.8,0.2,0.2","3","",""
"","html-keyboard-response","312","125789","0.0-312.0","3VP0C6EFSHI3VGAXP97XWQ6FJSVM6G","A1FHC4Z6QXDQSS","3Z3R5YC0P3915KVY8X6BNRIWYOFFTN","","null","<img src=""img/land3.png"" style=""width:200px; border:14px solid green;"">","null","","","","","","","","","",""
"","image-keyboard-response","313","125992","0.0-313.0","3VP0C6EFSHI3VGAXP97XWQ6FJSVM6G","A1FHC4Z6QXDQSS","3Z3R5YC0P3915KVY8X6BNRIWYOFFTN","","201.5","img/land3.png","75","202.29999995231628","2","1","1","2","0.8,0.2,0.2,0.2,0.8,0.2,0.2,0.2,0.8","0.2,0.8,0.2,0.2,0.2,0.8,0.8,0.2,0.2","3","",""
"","html-keyboard-response","314","126294","0.0-314.0","3VP0C6EFSHI3VGAXP97XWQ6FJSVM6G","A1FHC4Z6QXDQSS","3Z3R5YC0P3915KVY8X6BNRIWYOFFTN","","null","<img src=""img/land3.png"" style=""width:200px; border:14px solid green;"">","null","","","","","","","","","",""
"","image-keyboard-response","315","126309","0.0-315.0","3VP0C6EFSHI3VGAXP97XWQ6FJSVM6G","A1FHC4Z6QXDQSS","3Z3R5YC0P3915KVY8X6BNRIWYOFFTN","","13.900000095367432","img/land3.png","75","14.5","2","1","1","2","0.8,0.2,0.2,0.2,0.8,0.2,0.2,0.2,0.8","0.2,0.8,0.2,0.2,0.2,0.8,0.8,0.2,0.2","3","",""
"","html-keyboard-response","316","126616","0.0-316.0","3VP0C6EFSHI3VGAXP97XWQ6FJSVM6G","A1FHC4Z6QXDQSS","3Z3R5YC0P3915KVY8X6BNRIWYOFFTN","","null","<img src=""img/land3.png"" style=""width:200px; border:14px solid green;"">","null","","","","","","","","","",""
"","image-keyboard-response","317","126871","0.0-317.0","3VP0C6EFSHI3VGAXP97XWQ6FJSVM6G","A1FHC4Z6QXDQSS","3Z3R5YC0P3915KVY8X6BNRIWYOFFTN","","254","img/land3.png","75","254.79999995231628","2","1","1","2","0.8,0.2,0.2,0.2,0.8,0.2,0.2,0.2,0.8","0.2,0.8,0.2,0.2,0.2,0.8,0.8,0.2,0.2","3","",""
"","html-keyboard-response","318","127172","0.0-318.0","3VP0C6EFSHI3VGAXP97XWQ6FJSVM6G","A1FHC4Z6QXDQSS","3Z3R5YC0P3915KVY8X6BNRIWYOFFTN","","null","<img src=""img/land3.png"" style=""width:200px; border:14px solid green;"">","null","","","","","","","","","",""
"","image-keyboard-response","319","127348","0.0-319.0","3VP0C6EFSHI3VGAXP97XWQ6FJSVM6G","A1FHC4Z6QXDQSS","3Z3R5YC0P3915KVY8X6BNRIWYOFFTN","","174.70000004768372","img/land1.png","75","175.79999995231628","2","0","3","2","0.8,0.2,0.2,0.2,0.8,0.2,0.2,0.2,0.8","0.2,0.8,0.2,0.2,0.2,0.8,0.8,0.2,0.2","3","",""
"","html-keyboard-response","320","127660","0.0-320.0","3VP0C6EFSHI3VGAXP97XWQ6FJSVM6G","A1FHC4Z6QXDQSS","3Z3R5YC0P3915KVY8X6BNRIWYOFFTN","","null","<img src=""img/land1.png"" style=""width:200px;border:14px solid red;"">","null","","","","","","","","","",""
"","image-keyboard-response","321","128112","0.0-321.0","3VP0C6EFSHI3VGAXP97XWQ6FJSVM6G","A1FHC4Z6QXDQSS","3Z3R5YC0P3915KVY8X6BNRIWYOFFTN","","450.7999999523163","img/land3.png","74","451.5","1","0","1","2","0.8,0.2,0.2,0.2,0.8,0.2,0.2,0.2,0.8","0.2,0.8,0.2,0.2,0.2,0.8,0.8,0.2,0.2","3","",""
"","html-keyboard-response","322","128413","0.0-322.0","3VP0C6EFSHI3VGAXP97XWQ6FJSVM6G","A1FHC4Z6QXDQSS","3Z3R5YC0P3915KVY8X6BNRIWYOFFTN","","null","<img src=""img/land3.png"" style=""width:200px;border:14px solid red;"">","null","","","","","","","","","",""
"","image-keyboard-response","323","128706","0.0-323.0","3VP0C6EFSHI3VGAXP97XWQ6FJSVM6G","A1FHC4Z6QXDQSS","3Z3R5YC0P3915KVY8X6BNRIWYOFFTN","","291.5","img/land3.png","75","292.2999999523163","2","0","1","2","0.8,0.2,0.2,0.2,0.8,0.2,0.2,0.2,0.8","0.2,0.8,0.2,0.2,0.2,0.8,0.8,0.2,0.2","3","",""
"","html-keyboard-response","324","129007","0.0-324.0","3VP0C6EFSHI3VGAXP97XWQ6FJSVM6G","A1FHC4Z6QXDQSS","3Z3R5YC0P3915KVY8X6BNRIWYOFFTN","","null","<img src=""img/land3.png"" style=""width:200px;border:14px solid red;"">","null","","","","","","","","","",""
"","image-keyboard-response","325","129212","0.0-325.0","3VP0C6EFSHI3VGAXP97XWQ6FJSVM6G","A1FHC4Z6QXDQSS","3Z3R5YC0P3915KVY8X6BNRIWYOFFTN","","204.5","img/land3.png","75","205.20000004768372","2","1","1","2","0.8,0.2,0.2,0.2,0.8,0.2,0.2,0.2,0.8","0.2,0.8,0.2,0.2,0.2,0.8,0.8,0.2,0.2","3","",""
"","html-keyboard-response","326","129514","0.0-326.0","3VP0C6EFSHI3VGAXP97XWQ6FJSVM6G","A1FHC4Z6QXDQSS","3Z3R5YC0P3915KVY8X6BNRIWYOFFTN","","null","<img src=""img/land3.png"" style=""width:200px; border:14px solid green;"">","null","","","","","","","","","",""
"","image-keyboard-response","327","129687","0.0-327.0","3VP0C6EFSHI3VGAXP97XWQ6FJSVM6G","A1FHC4Z6QXDQSS","3Z3R5YC0P3915KVY8X6BNRIWYOFFTN","","172.10000014305115","img/land1.png","75","172.90000009536743","2","1","3","2","0.8,0.2,0.2,0.2,0.8,0.2,0.2,0.2,0.8","0.2,0.8,0.2,0.2,0.2,0.8,0.8,0.2,0.2","3","",""
"","html-keyboard-response","328","129989","0.0-328.0","3VP0C6EFSHI3VGAXP97XWQ6FJSVM6G","A1FHC4Z6QXDQSS","3Z3R5YC0P3915KVY8X6BNRIWYOFFTN","","null","<img src=""img/land1.png"" style=""width:200px; border:14px solid green;"">","null","","","","","","","","","",""
"","image-keyboard-response","329","130102","0.0-329.0","3VP0C6EFSHI3VGAXP97XWQ6FJSVM6G","A1FHC4Z6QXDQSS","3Z3R5YC0P3915KVY8X6BNRIWYOFFTN","","112.10000014305115","img/land3.png","75","112.79999995231628","2","1","1","2","0.8,0.2,0.2,0.2,0.8,0.2,0.2,0.2,0.8","0.2,0.8,0.2,0.2,0.2,0.8,0.8,0.2,0.2","3","",""
"","html-keyboard-response","330","130403","0.0-330.0","3VP0C6EFSHI3VGAXP97XWQ6FJSVM6G","A1FHC4Z6QXDQSS","3Z3R5YC0P3915KVY8X6BNRIWYOFFTN","","null","<img src=""img/land3.png"" style=""width:200px; border:14px solid green;"">","null","","","","","","","","","",""
"","image-keyboard-response","331","130543","0.0-331.0","3VP0C6EFSHI3VGAXP97XWQ6FJSVM6G","A1FHC4Z6QXDQSS","3Z3R5YC0P3915KVY8X6BNRIWYOFFTN","","138.5","img/land3.png","75","139.30000019073486","2","1","1","2","0.8,0.2,0.2,0.2,0.8,0.2,0.2,0.2,0.8","0.2,0.8,0.2,0.2,0.2,0.8,0.8,0.2,0.2","3","",""
"","html-keyboard-response","332","130844","0.0-332.0","3VP0C6EFSHI3VGAXP97XWQ6FJSVM6G","A1FHC4Z6QXDQSS","3Z3R5YC0P3915KVY8X6BNRIWYOFFTN","","null","<img src=""img/land3.png"" style=""width:200px; border:14px solid green;"">","null","","","","","","","","","",""
"","image-keyboard-response","333","130990","0.0-333.0","3VP0C6EFSHI3VGAXP97XWQ6FJSVM6G","A1FHC4Z6QXDQSS","3Z3R5YC0P3915KVY8X6BNRIWYOFFTN","","144.70000004768372","img/land1.png","75","145.5","2","0","3","2","0.8,0.2,0.2,0.2,0.8,0.2,0.2,0.2,0.8","0.2,0.8,0.2,0.2,0.2,0.8,0.8,0.2,0.2","3","",""
"","html-keyboard-response","334","131291","0.0-334.0","3VP0C6EFSHI3VGAXP97XWQ6FJSVM6G","A1FHC4Z6QXDQSS","3Z3R5YC0P3915KVY8X6BNRIWYOFFTN","","null","<img src=""img/land1.png"" style=""width:200px;border:14px solid red;"">","null","","","","","","","","","",""
"","image-keyboard-response","335","131456","0.0-335.0","3VP0C6EFSHI3VGAXP97XWQ6FJSVM6G","A1FHC4Z6QXDQSS","3Z3R5YC0P3915KVY8X6BNRIWYOFFTN","","163.20000004768372","img/land3.png","75","163.90000009536743","2","1","1","2","0.8,0.2,0.2,0.2,0.8,0.2,0.2,0.2,0.8","0.2,0.8,0.2,0.2,0.2,0.8,0.8,0.2,0.2","3","",""
"","html-keyboard-response","336","131757","0.0-336.0","3VP0C6EFSHI3VGAXP97XWQ6FJSVM6G","A1FHC4Z6QXDQSS","3Z3R5YC0P3915KVY8X6BNRIWYOFFTN","","null","<img src=""img/land3.png"" style=""width:200px; border:14px solid green;"">","null","","","","","","","","","",""
"","image-keyboard-response","337","131882","0.0-337.0","3VP0C6EFSHI3VGAXP97XWQ6FJSVM6G","A1FHC4Z6QXDQSS","3Z3R5YC0P3915KVY8X6BNRIWYOFFTN","","123.80000019073486","img/land1.png","75","124.59999990463257","2","1","3","2","0.8,0.2,0.2,0.2,0.8,0.2,0.2,0.2,0.8","0.2,0.8,0.2,0.2,0.2,0.8,0.8,0.2,0.2","3","",""
"","html-keyboard-response","338","132184","0.0-338.0","3VP0C6EFSHI3VGAXP97XWQ6FJSVM6G","A1FHC4Z6QXDQSS","3Z3R5YC0P3915KVY8X6BNRIWYOFFTN","","null","<img src=""img/land1.png"" style=""width:200px; border:14px solid green;"">","null","","","","","","","","","",""
"","image-keyboard-response","339","132325","0.0-339.0","3VP0C6EFSHI3VGAXP97XWQ6FJSVM6G","A1FHC4Z6QXDQSS","3Z3R5YC0P3915KVY8X6BNRIWYOFFTN","","139.5","img/land1.png","75","140.40000009536743","2","0","3","2","0.8,0.2,0.2,0.2,0.8,0.2,0.2,0.2,0.8","0.2,0.8,0.2,0.2,0.2,0.8,0.8,0.2,0.2","3","",""
"","html-keyboard-response","340","132627","0.0-340.0","3VP0C6EFSHI3VGAXP97XWQ6FJSVM6G","A1FHC4Z6QXDQSS","3Z3R5YC0P3915KVY8X6BNRIWYOFFTN","","null","<img src=""img/land1.png"" style=""width:200px;border:14px solid red;"">","null","","","","","","","","","",""
"","image-keyboard-response","341","132783","0.0-341.0","3VP0C6EFSHI3VGAXP97XWQ6FJSVM6G","A1FHC4Z6QXDQSS","3Z3R5YC0P3915KVY8X6BNRIWYOFFTN","","155.69999980926514","img/land5.png","75","156.40000009536743","2","1","2","2","0.8,0.2,0.2,0.2,0.8,0.2,0.2,0.2,0.8","0.2,0.8,0.2,0.2,0.2,0.8,0.8,0.2,0.2","3","",""
"","html-keyboard-response","342","133085","0.0-342.0","3VP0C6EFSHI3VGAXP97XWQ6FJSVM6G","A1FHC4Z6QXDQSS","3Z3R5YC0P3915KVY8X6BNRIWYOFFTN","","null","<img src=""img/land5.png"" style=""width:200px; border:14px solid green;"">","null","","","","","","","","","",""
"","image-keyboard-response","343","133238","0.0-343.0","3VP0C6EFSHI3VGAXP97XWQ6FJSVM6G","A1FHC4Z6QXDQSS","3Z3R5YC0P3915KVY8X6BNRIWYOFFTN","","151.70000004768372","img/land5.png","75","152.5","2","0","2","2","0.8,0.2,0.2,0.2,0.8,0.2,0.2,0.2,0.8","0.2,0.8,0.2,0.2,0.2,0.8,0.8,0.2,0.2","3","",""
"","html-keyboard-response","344","133540","0.0-344.0","3VP0C6EFSHI3VGAXP97XWQ6FJSVM6G","A1FHC4Z6QXDQSS","3Z3R5YC0P3915KVY8X6BNRIWYOFFTN","","null","<img src=""img/land5.png"" style=""width:200px;border:14px solid red;"">","null","","","","","","","","","",""
"","image-keyboard-response","345","133646","0.0-345.0","3VP0C6EFSHI3VGAXP97XWQ6FJSVM6G","A1FHC4Z6QXDQSS","3Z3R5YC0P3915KVY8X6BNRIWYOFFTN","","105.19999980926514","img/land5.png","75","106","2","0","2","2","0.8,0.2,0.2,0.2,0.8,0.2,0.2,0.2,0.8","0.2,0.8,0.2,0.2,0.2,0.8,0.8,0.2,0.2","3","",""
"","html-keyboard-response","346","133947","0.0-346.0","3VP0C6EFSHI3VGAXP97XWQ6FJSVM6G","A1FHC4Z6QXDQSS","3Z3R5YC0P3915KVY8X6BNRIWYOFFTN","","null","<img src=""img/land5.png"" style=""width:200px;border:14px solid red;"">","null","","","","","","","","","",""
"","image-keyboard-response","347","134113","0.0-347.0","3VP0C6EFSHI3VGAXP97XWQ6FJSVM6G","A1FHC4Z6QXDQSS","3Z3R5YC0P3915KVY8X6BNRIWYOFFTN","","165.29999995231628","img/land3.png","75","166.20000004768372","2","1","1","2","0.8,0.2,0.2,0.2,0.8,0.2,0.2,0.2,0.8","0.2,0.8,0.2,0.2,0.2,0.8,0.8,0.2,0.2","3","",""
"","html-keyboard-response","348","134414","0.0-348.0","3VP0C6EFSHI3VGAXP97XWQ6FJSVM6G","A1FHC4Z6QXDQSS","3Z3R5YC0P3915KVY8X6BNRIWYOFFTN","","null","<img src=""img/land3.png"" style=""width:200px; border:14px solid green;"">","null","","","","","","","","","",""
"","image-keyboard-response","349","134535","0.0-349.0","3VP0C6EFSHI3VGAXP97XWQ6FJSVM6G","A1FHC4Z6QXDQSS","3Z3R5YC0P3915KVY8X6BNRIWYOFFTN","","119.90000009536743","img/land3.png","75","120.5","2","0","1","2","0.8,0.2,0.2,0.2,0.8,0.2,0.2,0.2,0.8","0.2,0.8,0.2,0.2,0.2,0.8,0.8,0.2,0.2","3","",""
"","html-keyboard-response","350","134837","0.0-350.0","3VP0C6EFSHI3VGAXP97XWQ6FJSVM6G","A1FHC4Z6QXDQSS","3Z3R5YC0P3915KVY8X6BNRIWYOFFTN","","null","<img src=""img/land3.png"" style=""width:200px;border:14px solid red;"">","null","","","","","","","","","",""
"","image-keyboard-response","351","134996","0.0-351.0","3VP0C6EFSHI3VGAXP97XWQ6FJSVM6G","A1FHC4Z6QXDQSS","3Z3R5YC0P3915KVY8X6BNRIWYOFFTN","","158.20000004768372","img/land3.png","75","159","2","1","1","2","0.8,0.2,0.2,0.2,0.8,0.2,0.2,0.2,0.8","0.2,0.8,0.2,0.2,0.2,0.8,0.8,0.2,0.2","3","",""
"","html-keyboard-response","352","135297","0.0-352.0","3VP0C6EFSHI3VGAXP97XWQ6FJSVM6G","A1FHC4Z6QXDQSS","3Z3R5YC0P3915KVY8X6BNRIWYOFFTN","","null","<img src=""img/land3.png"" style=""width:200px; border:14px solid green;"">","null","","","","","","","","","",""
"","image-keyboard-response","353","135419","0.0-353.0","3VP0C6EFSHI3VGAXP97XWQ6FJSVM6G","A1FHC4Z6QXDQSS","3Z3R5YC0P3915KVY8X6BNRIWYOFFTN","","121","img/land5.png","75","121.90000009536743","2","0","2","2","0.8,0.2,0.2,0.2,0.8,0.2,0.2,0.2,0.8","0.2,0.8,0.2,0.2,0.2,0.8,0.8,0.2,0.2","3","",""
"","html-keyboard-response","354","135721","0.0-354.0","3VP0C6EFSHI3VGAXP97XWQ6FJSVM6G","A1FHC4Z6QXDQSS","3Z3R5YC0P3915KVY8X6BNRIWYOFFTN","","null","<img src=""img/land5.png"" style=""width:200px;border:14px solid red;"">","null","","","","","","","","","",""
"","image-keyboard-response","355","135922","0.0-355.0","3VP0C6EFSHI3VGAXP97XWQ6FJSVM6G","A1FHC4Z6QXDQSS","3Z3R5YC0P3915KVY8X6BNRIWYOFFTN","","199.70000004768372","img/land3.png","75","200.40000009536743","2","1","1","2","0.8,0.2,0.2,0.2,0.8,0.2,0.2,0.2,0.8","0.2,0.8,0.2,0.2,0.2,0.8,0.8,0.2,0.2","3","",""
