"success","trial_type","trial_index","time_elapsed","internal_node_id","assignmentID","mturkID","hitID","view_history","rt","stimulus","key_press","reactionTime","a","r","s","cond","reward_cond","reward_cond_actual","reward_matrix_idx","responses","question_order"
"true","fullscreen","0","2671","0.0-0.0","3FQ5JJ512MAGCDGM3EGYJO0XOAQKND","A1FMVUYV72MUO3","3JAOYN9IHLO1QRHB9NZI45P11ZM33A","","","","","","","","","","","","","",""
"","instructions","1","11488","0.0-1.0","3FQ5JJ512MAGCDGM3EGYJO0XOAQKND","A1FMVUYV72MUO3","3JAOYN9IHLO1QRHB9NZI45P11ZM33A","[{""page_index"":0,""viewing_time"":1615.3999999761581},{""page_index"":1,""viewing_time"":1230.4000000059605},{""page_index"":2,""viewing_time"":577.4000000059605},{""page_index"":3,""viewing_time"":1422.9000000059605},{""page_index"":4,""viewing_time"":1497.2999999821186},{""page_index"":5,""viewing_time"":1255.1000000238419},{""page_index"":6,""viewing_time"":1215.8999999761581}]","8814.899999976158","","","","","","","","","","","",""
"","image-keyboard-response","2","13493","0.0-2.0","3FQ5JJ512MAGCDGM3EGYJO0XOAQKND","A1FMVUYV72MUO3","3JAOYN9IHLO1QRHB9NZI45P11ZM33A","","","img/land3.png","","2004.5","-1","0","1","2","1,0.5,0.5,0.5,1,0.5,0.5,0.5,1","0.5,1,0.5,0.5,0.5,1,1,0.5,0.5","3","",""
"","html-keyboard-response","3","13809","0.0-3.0","3FQ5JJ512MAGCDGM3EGYJO0XOAQKND","A1FMVUYV72MUO3","3JAOYN9IHLO1QRHB9NZI45P11ZM33A","","null","<img src=""img/land3.png"" style=""width:200px;border:14px solid red;"">","null","","","","","","","","","",""
"","image-keyboard-response","4","14603","0.0-4.0","3FQ5JJ512MAGCDGM3EGYJO0XOAQKND","A1FMVUYV72MUO3","3JAOYN9IHLO1QRHB9NZI45P11ZM33A","","791.4000000059605","img/land3.png","75","793.5999999940395","2","1","1","2","1,0.5,0.5,0.5,1,0.5,0.5,0.5,1","0.5,1,0.5,0.5,0.5,1,1,0.5,0.5","3","",""
"","html-keyboard-response","5","14915","0.0-5.0","3FQ5JJ512MAGCDGM3EGYJO0XOAQKND","A1FMVUYV72MUO3","3JAOYN9IHLO1QRHB9NZI45P11ZM33A","","null","<img src=""img/land3.png"" style=""width:200px; border:14px solid green;"">","null","","","","","","","","","",""
"","image-keyboard-response","6","15442","0.0-6.0","3FQ5JJ512MAGCDGM3EGYJO0XOAQKND","A1FMVUYV72MUO3","3JAOYN9IHLO1QRHB9NZI45P11ZM33A","","525.5999999940395","img/land3.png","75","527.1999999880791","2","1","1","2","1,0.5,0.5,0.5,1,0.5,0.5,0.5,1","0.5,1,0.5,0.5,0.5,1,1,0.5,0.5","3","",""
"","html-keyboard-response","7","15750","0.0-7.0","3FQ5JJ512MAGCDGM3EGYJO0XOAQKND","A1FMVUYV72MUO3","3JAOYN9IHLO1QRHB9NZI45P11ZM33A","","null","<img src=""img/land3.png"" style=""width:200px; border:14px solid green;"">","null","","","","","","","","","",""
"","image-keyboard-response","8","16611","0.0-8.0","3FQ5JJ512MAGCDGM3EGYJO0XOAQKND","A1FMVUYV72MUO3","3JAOYN9IHLO1QRHB9NZI45P11ZM33A","","858.3999999761581","img/land1.png","74","860.1999999880791","1","1","3","2","1,0.5,0.5,0.5,1,0.5,0.5,0.5,1","0.5,1,0.5,0.5,0.5,1,1,0.5,0.5","3","",""
"","html-keyboard-response","9","16921","0.0-9.0","3FQ5JJ512MAGCDGM3EGYJO0XOAQKND","A1FMVUYV72MUO3","3JAOYN9IHLO1QRHB9NZI45P11ZM33A","","null","<img src=""img/land1.png"" style=""width:200px; border:14px solid green;"">","null","","","","","","","","","",""
"","image-keyboard-response","10","17643","0.0-10.0","3FQ5JJ512MAGCDGM3EGYJO0XOAQKND","A1FMVUYV72MUO3","3JAOYN9IHLO1QRHB9NZI45P11ZM33A","","719","img/land6.png","76","721.4000000059605","3","1","2","2","1,0.5,0.5,0.5,1,0.5,0.5,0.5,1","0.5,1,0.5,0.5,0.5,1,1,0.5,0.5","3","",""
"","html-keyboard-response","11","17960","0.0-11.0","3FQ5JJ512MAGCDGM3EGYJO0XOAQKND","A1FMVUYV72MUO3","3JAOYN9IHLO1QRHB9NZI45P11ZM33A","","null","<img src=""img/land6.png"" style=""width:200px; border:14px solid green;"">","null","","","","","","","","","",""
"","image-keyboard-response","12","18890","0.0-12.0","3FQ5JJ512MAGCDGM3EGYJO0XOAQKND","A1FMVUYV72MUO3","3JAOYN9IHLO1QRHB9NZI45P11ZM33A","","928.0999999940395","img/land3.png","75","929.9000000059605","2","1","1","2","1,0.5,0.5,0.5,1,0.5,0.5,0.5,1","0.5,1,0.5,0.5,0.5,1,1,0.5,0.5","3","",""
"","html-keyboard-response","13","19200","0.0-13.0","3FQ5JJ512MAGCDGM3EGYJO0XOAQKND","A1FMVUYV72MUO3","3JAOYN9IHLO1QRHB9NZI45P11ZM33A","","null","<img src=""img/land3.png"" style=""width:200px; border:14px solid green;"">","null","","","","","","","","","",""
"","image-keyboard-response","14","19634","0.0-14.0","3FQ5JJ512MAGCDGM3EGYJO0XOAQKND","A1FMVUYV72MUO3","3JAOYN9IHLO1QRHB9NZI45P11ZM33A","","432.69999998807907","img/land3.png","75","434.19999998807907","2","1","1","2","1,0.5,0.5,0.5,1,0.5,0.5,0.5,1","0.5,1,0.5,0.5,0.5,1,1,0.5,0.5","3","",""
"","html-keyboard-response","15","19944","0.0-15.0","3FQ5JJ512MAGCDGM3EGYJO0XOAQKND","A1FMVUYV72MUO3","3JAOYN9IHLO1QRHB9NZI45P11ZM33A","","null","<img src=""img/land3.png"" style=""width:200px; border:14px solid green;"">","null","","","","","","","","","",""
"","image-keyboard-response","16","20363","0.0-16.0","3FQ5JJ512MAGCDGM3EGYJO0XOAQKND","A1FMVUYV72MUO3","3JAOYN9IHLO1QRHB9NZI45P11ZM33A","","416.40000000596046","img/land3.png","75","418.59999999403954","2","1","1","2","1,0.5,0.5,0.5,1,0.5,0.5,0.5,1","0.5,1,0.5,0.5,0.5,1,1,0.5,0.5","3","",""
"","html-keyboard-response","17","20680","0.0-17.0","3FQ5JJ512MAGCDGM3EGYJO0XOAQKND","A1FMVUYV72MUO3","3JAOYN9IHLO1QRHB9NZI45P11ZM33A","","null","<img src=""img/land3.png"" style=""width:200px; border:14px solid green;"">","null","","","","","","","","","",""
"","image-keyboard-response","18","21354","0.0-18.0","3FQ5JJ512MAGCDGM3EGYJO0XOAQKND","A1FMVUYV72MUO3","3JAOYN9IHLO1QRHB9NZI45P11ZM33A","","671.2000000178814","img/land1.png","76","673.5999999940395","3","0","3","2","1,0.5,0.5,0.5,1,0.5,0.5,0.5,1","0.5,1,0.5,0.5,0.5,1,1,0.5,0.5","3","",""
"","html-keyboard-response","19","21658","0.0-19.0","3FQ5JJ512MAGCDGM3EGYJO0XOAQKND","A1FMVUYV72MUO3","3JAOYN9IHLO1QRHB9NZI45P11ZM33A","","null","<img src=""img/land1.png"" style=""width:200px;border:14px solid red;"">","null","","","","","","","","","",""
"","image-keyboard-response","20","22297","0.0-20.0","3FQ5JJ512MAGCDGM3EGYJO0XOAQKND","A1FMVUYV72MUO3","3JAOYN9IHLO1QRHB9NZI45P11ZM33A","","637.1999999880791","img/land1.png","74","638.9000000059605","1","1","3","2","1,0.5,0.5,0.5,1,0.5,0.5,0.5,1","0.5,1,0.5,0.5,0.5,1,1,0.5,0.5","3","",""
"","html-keyboard-response","21","22612","0.0-21.0","3FQ5JJ512MAGCDGM3EGYJO0XOAQKND","A1FMVUYV72MUO3","3JAOYN9IHLO1QRHB9NZI45P11ZM33A","","null","<img src=""img/land1.png"" style=""width:200px; border:14px solid green;"">","null","","","","","","","","","",""
"","image-keyboard-response","22","23329","0.0-22.0","3FQ5JJ512MAGCDGM3EGYJO0XOAQKND","A1FMVUYV72MUO3","3JAOYN9IHLO1QRHB9NZI45P11ZM33A","","715.3000000119209","img/land3.png","75","717","2","1","1","2","1,0.5,0.5,0.5,1,0.5,0.5,0.5,1","0.5,1,0.5,0.5,0.5,1,1,0.5,0.5","3","",""
"","html-keyboard-response","23","23645","0.0-23.0","3FQ5JJ512MAGCDGM3EGYJO0XOAQKND","A1FMVUYV72MUO3","3JAOYN9IHLO1QRHB9NZI45P11ZM33A","","null","<img src=""img/land3.png"" style=""width:200px; border:14px solid green;"">","null","","","","","","","","","",""
"","image-keyboard-response","24","24041","0.0-24.0","3FQ5JJ512MAGCDGM3EGYJO0XOAQKND","A1FMVUYV72MUO3","3JAOYN9IHLO1QRHB9NZI45P11ZM33A","","394.5","img/land3.png","75","396.40000000596046","2","1","1","2","1,0.5,0.5,0.5,1,0.5,0.5,0.5,1","0.5,1,0.5,0.5,0.5,1,1,0.5,0.5","3","",""
"","html-keyboard-response","25","24346","0.0-25.0","3FQ5JJ512MAGCDGM3EGYJO0XOAQKND","A1FMVUYV72MUO3","3JAOYN9IHLO1QRHB9NZI45P11ZM33A","","null","<img src=""img/land3.png"" style=""width:200px; border:14px solid green;"">","null","","","","","","","","","",""
"","image-keyboard-response","26","24921","0.0-26.0","3FQ5JJ512MAGCDGM3EGYJO0XOAQKND","A1FMVUYV72MUO3","3JAOYN9IHLO1QRHB9NZI45P11ZM33A","","573.5999999940395","img/land6.png","76","575.2000000178814","3","1","2","2","1,0.5,0.5,0.5,1,0.5,0.5,0.5,1","0.5,1,0.5,0.5,0.5,1,1,0.5,0.5","3","",""
"","html-keyboard-response","27","25223","0.0-27.0","3FQ5JJ512MAGCDGM3EGYJO0XOAQKND","A1FMVUYV72MUO3","3JAOYN9IHLO1QRHB9NZI45P11ZM33A","","null","<img src=""img/land6.png"" style=""width:200px; border:14px solid green;"">","null","","","","","","","","","",""
"","image-keyboard-response","28","25619","0.0-28.0","3FQ5JJ512MAGCDGM3EGYJO0XOAQKND","A1FMVUYV72MUO3","3JAOYN9IHLO1QRHB9NZI45P11ZM33A","","393.69999998807907","img/land6.png","76","395.09999999403954","3","1","2","2","1,0.5,0.5,0.5,1,0.5,0.5,0.5,1","0.5,1,0.5,0.5,0.5,1,1,0.5,0.5","3","",""
"","html-keyboard-response","29","25922","0.0-29.0","3FQ5JJ512MAGCDGM3EGYJO0XOAQKND","A1FMVUYV72MUO3","3JAOYN9IHLO1QRHB9NZI45P11ZM33A","","null","<img src=""img/land6.png"" style=""width:200px; border:14px solid green;"">","null","","","","","","","","","",""
"","image-keyboard-response","30","26666","0.0-30.0","3FQ5JJ512MAGCDGM3EGYJO0XOAQKND","A1FMVUYV72MUO3","3JAOYN9IHLO1QRHB9NZI45P11ZM33A","","742.0999999940395","img/land3.png","75","743.6999999880791","2","1","1","2","1,0.5,0.5,0.5,1,0.5,0.5,0.5,1","0.5,1,0.5,0.5,0.5,1,1,0.5,0.5","3","",""
"","html-keyboard-response","31","26972","0.0-31.0","3FQ5JJ512MAGCDGM3EGYJO0XOAQKND","A1FMVUYV72MUO3","3JAOYN9IHLO1QRHB9NZI45P11ZM33A","","null","<img src=""img/land3.png"" style=""width:200px; border:14px solid green;"">","null","","","","","","","","","",""
"","image-keyboard-response","32","27513","0.0-32.0","3FQ5JJ512MAGCDGM3EGYJO0XOAQKND","A1FMVUYV72MUO3","3JAOYN9IHLO1QRHB9NZI45P11ZM33A","","537.8000000119209","img/land6.png","76","540.1999999880791","3","1","2","2","1,0.5,0.5,0.5,1,0.5,0.5,0.5,1","0.5,1,0.5,0.5,0.5,1,1,0.5,0.5","3","",""
"","html-keyboard-response","33","27825","0.0-33.0","3FQ5JJ512MAGCDGM3EGYJO0XOAQKND","A1FMVUYV72MUO3","3JAOYN9IHLO1QRHB9NZI45P11ZM33A","","null","<img src=""img/land6.png"" style=""width:200px; border:14px solid green;"">","null","","","","","","","","","",""
"","image-keyboard-response","34","28321","0.0-34.0","3FQ5JJ512MAGCDGM3EGYJO0XOAQKND","A1FMVUYV72MUO3","3JAOYN9IHLO1QRHB9NZI45P11ZM33A","","493.80000001192093","img/land3.png","75","495.90000000596046","2","1","1","2","1,0.5,0.5,0.5,1,0.5,0.5,0.5,1","0.5,1,0.5,0.5,0.5,1,1,0.5,0.5","3","",""
"","html-keyboard-response","35","28635","0.0-35.0","3FQ5JJ512MAGCDGM3EGYJO0XOAQKND","A1FMVUYV72MUO3","3JAOYN9IHLO1QRHB9NZI45P11ZM33A","","null","<img src=""img/land3.png"" style=""width:200px; border:14px solid green;"">","null","","","","","","","","","",""
"","image-keyboard-response","36","29153","0.0-36.0","3FQ5JJ512MAGCDGM3EGYJO0XOAQKND","A1FMVUYV72MUO3","3JAOYN9IHLO1QRHB9NZI45P11ZM33A","","515.9000000059605","img/land3.png","75","517.6999999880791","2","1","1","2","1,0.5,0.5,0.5,1,0.5,0.5,0.5,1","0.5,1,0.5,0.5,0.5,1,1,0.5,0.5","3","",""
"","html-keyboard-response","37","29457","0.0-37.0","3FQ5JJ512MAGCDGM3EGYJO0XOAQKND","A1FMVUYV72MUO3","3JAOYN9IHLO1QRHB9NZI45P11ZM33A","","null","<img src=""img/land3.png"" style=""width:200px; border:14px solid green;"">","null","","","","","","","","","",""
"","image-keyboard-response","38","29826","0.0-38.0","3FQ5JJ512MAGCDGM3EGYJO0XOAQKND","A1FMVUYV72MUO3","3JAOYN9IHLO1QRHB9NZI45P11ZM33A","","366.30000001192093","img/land3.png","75","368.09999999403954","2","1","1","2","1,0.5,0.5,0.5,1,0.5,0.5,0.5,1","0.5,1,0.5,0.5,0.5,1,1,0.5,0.5","3","",""
"","html-keyboard-response","39","30128","0.0-39.0","3FQ5JJ512MAGCDGM3EGYJO0XOAQKND","A1FMVUYV72MUO3","3JAOYN9IHLO1QRHB9NZI45P11ZM33A","","null","<img src=""img/land3.png"" style=""width:200px; border:14px solid green;"">","null","","","","","","","","","",""
"","image-keyboard-response","40","30553","0.0-40.0","3FQ5JJ512MAGCDGM3EGYJO0XOAQKND","A1FMVUYV72MUO3","3JAOYN9IHLO1QRHB9NZI45P11ZM33A","","422.69999998807907","img/land3.png","75","424.39999997615814","2","1","1","2","1,0.5,0.5,0.5,1,0.5,0.5,0.5,1","0.5,1,0.5,0.5,0.5,1,1,0.5,0.5","3","",""
"","html-keyboard-response","41","30857","0.0-41.0","3FQ5JJ512MAGCDGM3EGYJO0XOAQKND","A1FMVUYV72MUO3","3JAOYN9IHLO1QRHB9NZI45P11ZM33A","","null","<img src=""img/land3.png"" style=""width:200px; border:14px solid green;"">","null","","","","","","","","","",""
"","image-keyboard-response","42","31617","0.0-42.0","3FQ5JJ512MAGCDGM3EGYJO0XOAQKND","A1FMVUYV72MUO3","3JAOYN9IHLO1QRHB9NZI45P11ZM33A","","758.0999999940395","img/land1.png","74","759.8999999761581","1","1","3","2","1,0.5,0.5,0.5,1,0.5,0.5,0.5,1","0.5,1,0.5,0.5,0.5,1,1,0.5,0.5","3","",""
"","html-keyboard-response","43","31919","0.0-43.0","3FQ5JJ512MAGCDGM3EGYJO0XOAQKND","A1FMVUYV72MUO3","3JAOYN9IHLO1QRHB9NZI45P11ZM33A","","null","<img src=""img/land1.png"" style=""width:200px; border:14px solid green;"">","null","","","","","","","","","",""
"","image-keyboard-response","44","32296","0.0-44.0","3FQ5JJ512MAGCDGM3EGYJO0XOAQKND","A1FMVUYV72MUO3","3JAOYN9IHLO1QRHB9NZI45P11ZM33A","","374.7000000178814","img/land1.png","74","376.09999999403954","1","1","3","2","1,0.5,0.5,0.5,1,0.5,0.5,0.5,1","0.5,1,0.5,0.5,0.5,1,1,0.5,0.5","3","",""
"","html-keyboard-response","45","32599","0.0-45.0","3FQ5JJ512MAGCDGM3EGYJO0XOAQKND","A1FMVUYV72MUO3","3JAOYN9IHLO1QRHB9NZI45P11ZM33A","","null","<img src=""img/land1.png"" style=""width:200px; border:14px solid green;"">","null","","","","","","","","","",""
"","image-keyboard-response","46","33272","0.0-46.0","3FQ5JJ512MAGCDGM3EGYJO0XOAQKND","A1FMVUYV72MUO3","3JAOYN9IHLO1QRHB9NZI45P11ZM33A","","671.4000000059605","img/land3.png","75","673","2","1","1","2","1,0.5,0.5,0.5,1,0.5,0.5,0.5,1","0.5,1,0.5,0.5,0.5,1,1,0.5,0.5","3","",""
"","html-keyboard-response","47","33576","0.0-47.0","3FQ5JJ512MAGCDGM3EGYJO0XOAQKND","A1FMVUYV72MUO3","3JAOYN9IHLO1QRHB9NZI45P11ZM33A","","null","<img src=""img/land3.png"" style=""width:200px; border:14px solid green;"">","null","","","","","","","","","",""
"","image-keyboard-response","48","34208","0.0-48.0","3FQ5JJ512MAGCDGM3EGYJO0XOAQKND","A1FMVUYV72MUO3","3JAOYN9IHLO1QRHB9NZI45P11ZM33A","","629.1999999880791","img/land6.png","76","631.2999999821186","3","1","2","2","1,0.5,0.5,0.5,1,0.5,0.5,0.5,1","0.5,1,0.5,0.5,0.5,1,1,0.5,0.5","3","",""
"","html-keyboard-response","49","34523","0.0-49.0","3FQ5JJ512MAGCDGM3EGYJO0XOAQKND","A1FMVUYV72MUO3","3JAOYN9IHLO1QRHB9NZI45P11ZM33A","","null","<img src=""img/land6.png"" style=""width:200px; border:14px solid green;"">","null","","","","","","","","","",""
"","image-keyboard-response","50","35296","0.0-50.0","3FQ5JJ512MAGCDGM3EGYJO0XOAQKND","A1FMVUYV72MUO3","3JAOYN9IHLO1QRHB9NZI45P11ZM33A","","770.9000000059605","img/land3.png","75","772.8000000119209","2","1","1","2","1,0.5,0.5,0.5,1,0.5,0.5,0.5,1","0.5,1,0.5,0.5,0.5,1,1,0.5,0.5","3","",""
"","html-keyboard-response","51","35600","0.0-51.0","3FQ5JJ512MAGCDGM3EGYJO0XOAQKND","A1FMVUYV72MUO3","3JAOYN9IHLO1QRHB9NZI45P11ZM33A","","null","<img src=""img/land3.png"" style=""width:200px; border:14px solid green;"">","null","","","","","","","","","",""
"","image-keyboard-response","52","35995","0.0-52.0","3FQ5JJ512MAGCDGM3EGYJO0XOAQKND","A1FMVUYV72MUO3","3JAOYN9IHLO1QRHB9NZI45P11ZM33A","","391","img/land3.png","75","394.39999997615814","2","1","1","2","1,0.5,0.5,0.5,1,0.5,0.5,0.5,1","0.5,1,0.5,0.5,0.5,1,1,0.5,0.5","3","",""
"","html-keyboard-response","53","36298","0.0-53.0","3FQ5JJ512MAGCDGM3EGYJO0XOAQKND","A1FMVUYV72MUO3","3JAOYN9IHLO1QRHB9NZI45P11ZM33A","","null","<img src=""img/land3.png"" style=""width:200px; border:14px solid green;"">","null","","","","","","","","","",""
"","image-keyboard-response","54","36880","0.0-54.0","3FQ5JJ512MAGCDGM3EGYJO0XOAQKND","A1FMVUYV72MUO3","3JAOYN9IHLO1QRHB9NZI45P11ZM33A","","579.4000000059605","img/land6.png","76","581","3","1","2","2","1,0.5,0.5,0.5,1,0.5,0.5,0.5,1","0.5,1,0.5,0.5,0.5,1,1,0.5,0.5","3","",""
"","html-keyboard-response","55","37182","0.0-55.0","3FQ5JJ512MAGCDGM3EGYJO0XOAQKND","A1FMVUYV72MUO3","3JAOYN9IHLO1QRHB9NZI45P11ZM33A","","null","<img src=""img/land6.png"" style=""width:200px; border:14px solid green;"">","null","","","","","","","","","",""
"","image-keyboard-response","56","37688","0.0-56.0","3FQ5JJ512MAGCDGM3EGYJO0XOAQKND","A1FMVUYV72MUO3","3JAOYN9IHLO1QRHB9NZI45P11ZM33A","","503.30000001192093","img/land3.png","75","505","2","1","1","2","1,0.5,0.5,0.5,1,0.5,0.5,0.5,1","0.5,1,0.5,0.5,0.5,1,1,0.5,0.5","3","",""
"","html-keyboard-response","57","37990","0.0-57.0","3FQ5JJ512MAGCDGM3EGYJO0XOAQKND","A1FMVUYV72MUO3","3JAOYN9IHLO1QRHB9NZI45P11ZM33A","","null","<img src=""img/land3.png"" style=""width:200px; border:14px solid green;"">","null","","","","","","","","","",""
"","image-keyboard-response","58","38496","0.0-58.0","3FQ5JJ512MAGCDGM3EGYJO0XOAQKND","A1FMVUYV72MUO3","3JAOYN9IHLO1QRHB9NZI45P11ZM33A","","504.10000002384186","img/land1.png","74","505.80000001192093","1","1","3","2","1,0.5,0.5,0.5,1,0.5,0.5,0.5,1","0.5,1,0.5,0.5,0.5,1,1,0.5,0.5","3","",""
"","html-keyboard-response","59","38798","0.0-59.0","3FQ5JJ512MAGCDGM3EGYJO0XOAQKND","A1FMVUYV72MUO3","3JAOYN9IHLO1QRHB9NZI45P11ZM33A","","null","<img src=""img/land1.png"" style=""width:200px; border:14px solid green;"">","null","","","","","","","","","",""
"","image-keyboard-response","60","39497","0.0-60.0","3FQ5JJ512MAGCDGM3EGYJO0XOAQKND","A1FMVUYV72MUO3","3JAOYN9IHLO1QRHB9NZI45P11ZM33A","","697","img/land6.png","76","698.6000000238419","3","1","2","2","1,0.5,0.5,0.5,1,0.5,0.5,0.5,1","0.5,1,0.5,0.5,0.5,1,1,0.5,0.5","3","",""
"","html-keyboard-response","61","39800","0.0-61.0","3FQ5JJ512MAGCDGM3EGYJO0XOAQKND","A1FMVUYV72MUO3","3JAOYN9IHLO1QRHB9NZI45P11ZM33A","","null","<img src=""img/land6.png"" style=""width:200px; border:14px solid green;"">","null","","","","","","","","","",""
"","image-keyboard-response","62","40487","0.0-62.0","3FQ5JJ512MAGCDGM3EGYJO0XOAQKND","A1FMVUYV72MUO3","3JAOYN9IHLO1QRHB9NZI45P11ZM33A","","685.5","img/land3.png","75","687.2000000178814","2","1","1","2","1,0.5,0.5,0.5,1,0.5,0.5,0.5,1","0.5,1,0.5,0.5,0.5,1,1,0.5,0.5","3","",""
"","html-keyboard-response","63","40791","0.0-63.0","3FQ5JJ512MAGCDGM3EGYJO0XOAQKND","A1FMVUYV72MUO3","3JAOYN9IHLO1QRHB9NZI45P11ZM33A","","null","<img src=""img/land3.png"" style=""width:200px; border:14px solid green;"">","null","","","","","","","","","",""
"","image-keyboard-response","64","41383","0.0-64.0","3FQ5JJ512MAGCDGM3EGYJO0XOAQKND","A1FMVUYV72MUO3","3JAOYN9IHLO1QRHB9NZI45P11ZM33A","","590.5999999940395","img/land6.png","76","592.2000000178814","3","1","2","2","1,0.5,0.5,0.5,1,0.5,0.5,0.5,1","0.5,1,0.5,0.5,0.5,1,1,0.5,0.5","3","",""
"","html-keyboard-response","65","41687","0.0-65.0","3FQ5JJ512MAGCDGM3EGYJO0XOAQKND","A1FMVUYV72MUO3","3JAOYN9IHLO1QRHB9NZI45P11ZM33A","","null","<img src=""img/land6.png"" style=""width:200px; border:14px solid green;"">","null","","","","","","","","","",""
"","image-keyboard-response","66","42207","0.0-66.0","3FQ5JJ512MAGCDGM3EGYJO0XOAQKND","A1FMVUYV72MUO3","3JAOYN9IHLO1QRHB9NZI45P11ZM33A","","518.1999999880791","img/land3.png","75","519.7999999821186","2","1","1","2","1,0.5,0.5,0.5,1,0.5,0.5,0.5,1","0.5,1,0.5,0.5,0.5,1,1,0.5,0.5","3","",""
"","html-keyboard-response","67","42510","0.0-67.0","3FQ5JJ512MAGCDGM3EGYJO0XOAQKND","A1FMVUYV72MUO3","3JAOYN9IHLO1QRHB9NZI45P11ZM33A","","null","<img src=""img/land3.png"" style=""width:200px; border:14px solid green;"">","null","","","","","","","","","",""
"","image-keyboard-response","68","43039","0.0-68.0","3FQ5JJ512MAGCDGM3EGYJO0XOAQKND","A1FMVUYV72MUO3","3JAOYN9IHLO1QRHB9NZI45P11ZM33A","","527.3000000119209","img/land3.png","75","528.8000000119209","2","1","1","2","1,0.5,0.5,0.5,1,0.5,0.5,0.5,1","0.5,1,0.5,0.5,0.5,1,1,0.5,0.5","3","",""
"","html-keyboard-response","69","43341","0.0-69.0","3FQ5JJ512MAGCDGM3EGYJO0XOAQKND","A1FMVUYV72MUO3","3JAOYN9IHLO1QRHB9NZI45P11ZM33A","","null","<img src=""img/land3.png"" style=""width:200px; border:14px solid green;"">","null","","","","","","","","","",""
"","image-keyboard-response","70","43783","0.0-70.0","3FQ5JJ512MAGCDGM3EGYJO0XOAQKND","A1FMVUYV72MUO3","3JAOYN9IHLO1QRHB9NZI45P11ZM33A","","439.80000001192093","img/land3.png","75","441.5","2","1","1","2","1,0.5,0.5,0.5,1,0.5,0.5,0.5,1","0.5,1,0.5,0.5,0.5,1,1,0.5,0.5","3","",""
"","html-keyboard-response","71","44085","0.0-71.0","3FQ5JJ512MAGCDGM3EGYJO0XOAQKND","A1FMVUYV72MUO3","3JAOYN9IHLO1QRHB9NZI45P11ZM33A","","null","<img src=""img/land3.png"" style=""width:200px; border:14px solid green;"">","null","","","","","","","","","",""
"","image-keyboard-response","72","44496","0.0-72.0","3FQ5JJ512MAGCDGM3EGYJO0XOAQKND","A1FMVUYV72MUO3","3JAOYN9IHLO1QRHB9NZI45P11ZM33A","","408.80000001192093","img/land3.png","75","410.69999998807907","2","1","1","2","1,0.5,0.5,0.5,1,0.5,0.5,0.5,1","0.5,1,0.5,0.5,0.5,1,1,0.5,0.5","3","",""
"","html-keyboard-response","73","44800","0.0-73.0","3FQ5JJ512MAGCDGM3EGYJO0XOAQKND","A1FMVUYV72MUO3","3JAOYN9IHLO1QRHB9NZI45P11ZM33A","","null","<img src=""img/land3.png"" style=""width:200px; border:14px solid green;"">","null","","","","","","","","","",""
"","image-keyboard-response","74","45199","0.0-74.0","3FQ5JJ512MAGCDGM3EGYJO0XOAQKND","A1FMVUYV72MUO3","3JAOYN9IHLO1QRHB9NZI45P11ZM33A","","396.2000000178814","img/land3.png","75","397.90000000596046","2","1","1","2","1,0.5,0.5,0.5,1,0.5,0.5,0.5,1","0.5,1,0.5,0.5,0.5,1,1,0.5,0.5","3","",""
"","html-keyboard-response","75","45517","0.0-75.0","3FQ5JJ512MAGCDGM3EGYJO0XOAQKND","A1FMVUYV72MUO3","3JAOYN9IHLO1QRHB9NZI45P11ZM33A","","null","<img src=""img/land3.png"" style=""width:200px; border:14px solid green;"">","null","","","","","","","","","",""
"","image-keyboard-response","76","45896","0.0-76.0","3FQ5JJ512MAGCDGM3EGYJO0XOAQKND","A1FMVUYV72MUO3","3JAOYN9IHLO1QRHB9NZI45P11ZM33A","","375.2999999821186","img/land3.png","75","377.90000000596046","2","1","1","2","1,0.5,0.5,0.5,1,0.5,0.5,0.5,1","0.5,1,0.5,0.5,0.5,1,1,0.5,0.5","3","",""
"","html-keyboard-response","77","46199","0.0-77.0","3FQ5JJ512MAGCDGM3EGYJO0XOAQKND","A1FMVUYV72MUO3","3JAOYN9IHLO1QRHB9NZI45P11ZM33A","","null","<img src=""img/land3.png"" style=""width:200px; border:14px solid green;"">","null","","","","","","","","","",""
"","image-keyboard-response","78","46535","0.0-78.0","3FQ5JJ512MAGCDGM3EGYJO0XOAQKND","A1FMVUYV72MUO3","3JAOYN9IHLO1QRHB9NZI45P11ZM33A","","333.10000002384186","img/land3.png","75","334.90000000596046","2","1","1","2","1,0.5,0.5,0.5,1,0.5,0.5,0.5,1","0.5,1,0.5,0.5,0.5,1,1,0.5,0.5","3","",""
"","html-keyboard-response","79","46838","0.0-79.0","3FQ5JJ512MAGCDGM3EGYJO0XOAQKND","A1FMVUYV72MUO3","3JAOYN9IHLO1QRHB9NZI45P11ZM33A","","null","<img src=""img/land3.png"" style=""width:200px; border:14px solid green;"">","null","","","","","","","","","",""
"","image-keyboard-response","80","47198","0.0-80.0","3FQ5JJ512MAGCDGM3EGYJO0XOAQKND","A1FMVUYV72MUO3","3JAOYN9IHLO1QRHB9NZI45P11ZM33A","","357.69999998807907","img/land3.png","75","360.10000002384186","2","1","1","2","1,0.5,0.5,0.5,1,0.5,0.5,0.5,1","0.5,1,0.5,0.5,0.5,1,1,0.5,0.5","3","",""
"","html-keyboard-response","81","47502","0.0-81.0","3FQ5JJ512MAGCDGM3EGYJO0XOAQKND","A1FMVUYV72MUO3","3JAOYN9IHLO1QRHB9NZI45P11ZM33A","","null","<img src=""img/land3.png"" style=""width:200px; border:14px solid green;"">","null","","","","","","","","","",""
"","image-keyboard-response","82","48216","0.0-82.0","3FQ5JJ512MAGCDGM3EGYJO0XOAQKND","A1FMVUYV72MUO3","3JAOYN9IHLO1QRHB9NZI45P11ZM33A","","711.4000000059605","img/land1.png","74","713.5","1","1","3","2","1,0.5,0.5,0.5,1,0.5,0.5,0.5,1","0.5,1,0.5,0.5,0.5,1,1,0.5,0.5","3","",""
"","html-keyboard-response","83","48519","0.0-83.0","3FQ5JJ512MAGCDGM3EGYJO0XOAQKND","A1FMVUYV72MUO3","3JAOYN9IHLO1QRHB9NZI45P11ZM33A","","null","<img src=""img/land1.png"" style=""width:200px; border:14px solid green;"">","null","","","","","","","","","",""
"","image-keyboard-response","84","49198","0.0-84.0","3FQ5JJ512MAGCDGM3EGYJO0XOAQKND","A1FMVUYV72MUO3","3JAOYN9IHLO1QRHB9NZI45P11ZM33A","","676.6999999880791","img/land3.png","75","678.4000000059605","2","1","1","2","1,0.5,0.5,0.5,1,0.5,0.5,0.5,1","0.5,1,0.5,0.5,0.5,1,1,0.5,0.5","3","",""
"","html-keyboard-response","85","49500","0.0-85.0","3FQ5JJ512MAGCDGM3EGYJO0XOAQKND","A1FMVUYV72MUO3","3JAOYN9IHLO1QRHB9NZI45P11ZM33A","","null","<img src=""img/land3.png"" style=""width:200px; border:14px solid green;"">","null","","","","","","","","","",""
"","image-keyboard-response","86","50190","0.0-86.0","3FQ5JJ512MAGCDGM3EGYJO0XOAQKND","A1FMVUYV72MUO3","3JAOYN9IHLO1QRHB9NZI45P11ZM33A","","688.1999999880791","img/land6.png","76","689.5999999940395","3","1","2","2","1,0.5,0.5,0.5,1,0.5,0.5,0.5,1","0.5,1,0.5,0.5,0.5,1,1,0.5,0.5","3","",""
"","html-keyboard-response","87","50496","0.0-87.0","3FQ5JJ512MAGCDGM3EGYJO0XOAQKND","A1FMVUYV72MUO3","3JAOYN9IHLO1QRHB9NZI45P11ZM33A","","null","<img src=""img/land6.png"" style=""width:200px; border:14px solid green;"">","null","","","","","","","","","",""
"","image-keyboard-response","88","51088","0.0-88.0","3FQ5JJ512MAGCDGM3EGYJO0XOAQKND","A1FMVUYV72MUO3","3JAOYN9IHLO1QRHB9NZI45P11ZM33A","","588.7000000178814","img/land3.png","75","591.1999999880791","2","1","1","2","1,0.5,0.5,0.5,1,0.5,0.5,0.5,1","0.5,1,0.5,0.5,0.5,1,1,0.5,0.5","3","",""
"","html-keyboard-response","89","51391","0.0-89.0","3FQ5JJ512MAGCDGM3EGYJO0XOAQKND","A1FMVUYV72MUO3","3JAOYN9IHLO1QRHB9NZI45P11ZM33A","","null","<img src=""img/land3.png"" style=""width:200px; border:14px solid green;"">","null","","","","","","","","","",""
"","image-keyboard-response","90","51806","0.0-90.0","3FQ5JJ512MAGCDGM3EGYJO0XOAQKND","A1FMVUYV72MUO3","3JAOYN9IHLO1QRHB9NZI45P11ZM33A","","412.90000000596046","img/land3.png","75","414.40000000596046","2","1","1","2","1,0.5,0.5,0.5,1,0.5,0.5,0.5,1","0.5,1,0.5,0.5,0.5,1,1,0.5,0.5","3","",""
"","html-keyboard-response","91","52108","0.0-91.0","3FQ5JJ512MAGCDGM3EGYJO0XOAQKND","A1FMVUYV72MUO3","3JAOYN9IHLO1QRHB9NZI45P11ZM33A","","null","<img src=""img/land3.png"" style=""width:200px; border:14px solid green;"">","null","","","","","","","","","",""
"","image-keyboard-response","92","52472","0.0-92.0","3FQ5JJ512MAGCDGM3EGYJO0XOAQKND","A1FMVUYV72MUO3","3JAOYN9IHLO1QRHB9NZI45P11ZM33A","","360.59999999403954","img/land3.png","75","362.90000000596046","2","1","1","2","1,0.5,0.5,0.5,1,0.5,0.5,0.5,1","0.5,1,0.5,0.5,0.5,1,1,0.5,0.5","3","",""
"","html-keyboard-response","93","52776","0.0-93.0","3FQ5JJ512MAGCDGM3EGYJO0XOAQKND","A1FMVUYV72MUO3","3JAOYN9IHLO1QRHB9NZI45P11ZM33A","","null","<img src=""img/land3.png"" style=""width:200px; border:14px solid green;"">","null","","","","","","","","","",""
"","image-keyboard-response","94","53381","0.0-94.0","3FQ5JJ512MAGCDGM3EGYJO0XOAQKND","A1FMVUYV72MUO3","3JAOYN9IHLO1QRHB9NZI45P11ZM33A","","602.2999999821186","img/land6.png","76","604.5","3","1","2","2","1,0.5,0.5,0.5,1,0.5,0.5,0.5,1","0.5,1,0.5,0.5,0.5,1,1,0.5,0.5","3","",""
"","html-keyboard-response","95","53685","0.0-95.0","3FQ5JJ512MAGCDGM3EGYJO0XOAQKND","A1FMVUYV72MUO3","3JAOYN9IHLO1QRHB9NZI45P11ZM33A","","null","<img src=""img/land6.png"" style=""width:200px; border:14px solid green;"">","null","","","","","","","","","",""
"","image-keyboard-response","96","54342","0.0-96.0","3FQ5JJ512MAGCDGM3EGYJO0XOAQKND","A1FMVUYV72MUO3","3JAOYN9IHLO1QRHB9NZI45P11ZM33A","","655","img/land6.png","76","656.7000000178814","3","1","2","2","1,0.5,0.5,0.5,1,0.5,0.5,0.5,1","0.5,1,0.5,0.5,0.5,1,1,0.5,0.5","3","",""
"","html-keyboard-response","97","54645","0.0-97.0","3FQ5JJ512MAGCDGM3EGYJO0XOAQKND","A1FMVUYV72MUO3","3JAOYN9IHLO1QRHB9NZI45P11ZM33A","","null","<img src=""img/land6.png"" style=""width:200px; border:14px solid green;"">","null","","","","","","","","","",""
"","image-keyboard-response","98","55021","0.0-98.0","3FQ5JJ512MAGCDGM3EGYJO0XOAQKND","A1FMVUYV72MUO3","3JAOYN9IHLO1QRHB9NZI45P11ZM33A","","374.30000001192093","img/land6.png","76","375.90000000596046","3","1","2","2","1,0.5,0.5,0.5,1,0.5,0.5,0.5,1","0.5,1,0.5,0.5,0.5,1,1,0.5,0.5","3","",""
"","html-keyboard-response","99","55325","0.0-99.0","3FQ5JJ512MAGCDGM3EGYJO0XOAQKND","A1FMVUYV72MUO3","3JAOYN9IHLO1QRHB9NZI45P11ZM33A","","null","<img src=""img/land6.png"" style=""width:200px; border:14px solid green;"">","null","","","","","","","","","",""
"","image-keyboard-response","100","55957","0.0-100.0","3FQ5JJ512MAGCDGM3EGYJO0XOAQKND","A1FMVUYV72MUO3","3JAOYN9IHLO1QRHB9NZI45P11ZM33A","","630.4000000059605","img/land3.png","75","632.0999999940395","2","1","1","2","1,0.5,0.5,0.5,1,0.5,0.5,0.5,1","0.5,1,0.5,0.5,0.5,1,1,0.5,0.5","3","",""
"","html-keyboard-response","101","56269","0.0-101.0","3FQ5JJ512MAGCDGM3EGYJO0XOAQKND","A1FMVUYV72MUO3","3JAOYN9IHLO1QRHB9NZI45P11ZM33A","","null","<img src=""img/land3.png"" style=""width:200px; border:14px solid green;"">","null","","","","","","","","","",""
"","image-keyboard-response","102","56670","0.0-102.0","3FQ5JJ512MAGCDGM3EGYJO0XOAQKND","A1FMVUYV72MUO3","3JAOYN9IHLO1QRHB9NZI45P11ZM33A","","398.30000001192093","img/land3.png","75","401","2","1","1","2","1,0.5,0.5,0.5,1,0.5,0.5,0.5,1","0.5,1,0.5,0.5,0.5,1,1,0.5,0.5","3","",""
"","html-keyboard-response","103","56976","0.0-103.0","3FQ5JJ512MAGCDGM3EGYJO0XOAQKND","A1FMVUYV72MUO3","3JAOYN9IHLO1QRHB9NZI45P11ZM33A","","null","<img src=""img/land3.png"" style=""width:200px; border:14px solid green;"">","null","","","","","","","","","",""
"","image-keyboard-response","104","57725","0.0-104.0","3FQ5JJ512MAGCDGM3EGYJO0XOAQKND","A1FMVUYV72MUO3","3JAOYN9IHLO1QRHB9NZI45P11ZM33A","","747.5999999940395","img/land1.png","74","749.7000000178814","1","1","3","2","1,0.5,0.5,0.5,1,0.5,0.5,0.5,1","0.5,1,0.5,0.5,0.5,1,1,0.5,0.5","3","",""
"","html-keyboard-response","105","58028","0.0-105.0","3FQ5JJ512MAGCDGM3EGYJO0XOAQKND","A1FMVUYV72MUO3","3JAOYN9IHLO1QRHB9NZI45P11ZM33A","","null","<img src=""img/land1.png"" style=""width:200px; border:14px solid green;"">","null","","","","","","","","","",""
"","image-keyboard-response","106","58612","0.0-106.0","3FQ5JJ512MAGCDGM3EGYJO0XOAQKND","A1FMVUYV72MUO3","3JAOYN9IHLO1QRHB9NZI45P11ZM33A","","582.1999999880791","img/land3.png","75","583.6999999880791","2","1","1","2","1,0.5,0.5,0.5,1,0.5,0.5,0.5,1","0.5,1,0.5,0.5,0.5,1,1,0.5,0.5","3","",""
"","html-keyboard-response","107","58915","0.0-107.0","3FQ5JJ512MAGCDGM3EGYJO0XOAQKND","A1FMVUYV72MUO3","3JAOYN9IHLO1QRHB9NZI45P11ZM33A","","null","<img src=""img/land3.png"" style=""width:200px; border:14px solid green;"">","null","","","","","","","","","",""
"","image-keyboard-response","108","59380","0.0-108.0","3FQ5JJ512MAGCDGM3EGYJO0XOAQKND","A1FMVUYV72MUO3","3JAOYN9IHLO1QRHB9NZI45P11ZM33A","","463","img/land6.png","74","464.7999999821186","1","0","2","2","1,0.5,0.5,0.5,1,0.5,0.5,0.5,1","0.5,1,0.5,0.5,0.5,1,1,0.5,0.5","3","",""
"","html-keyboard-response","109","59685","0.0-109.0","3FQ5JJ512MAGCDGM3EGYJO0XOAQKND","A1FMVUYV72MUO3","3JAOYN9IHLO1QRHB9NZI45P11ZM33A","","null","<img src=""img/land6.png"" style=""width:200px;border:14px solid red;"">","null","","","","","","","","","",""
"","image-keyboard-response","110","60348","0.0-110.0","3FQ5JJ512MAGCDGM3EGYJO0XOAQKND","A1FMVUYV72MUO3","3JAOYN9IHLO1QRHB9NZI45P11ZM33A","","662.0999999940395","img/land3.png","75","663.5999999940395","2","1","1","2","1,0.5,0.5,0.5,1,0.5,0.5,0.5,1","0.5,1,0.5,0.5,0.5,1,1,0.5,0.5","3","",""
"","html-keyboard-response","111","60652","0.0-111.0","3FQ5JJ512MAGCDGM3EGYJO0XOAQKND","A1FMVUYV72MUO3","3JAOYN9IHLO1QRHB9NZI45P11ZM33A","","null","<img src=""img/land3.png"" style=""width:200px; border:14px solid green;"">","null","","","","","","","","","",""
"","image-keyboard-response","112","61340","0.0-112.0","3FQ5JJ512MAGCDGM3EGYJO0XOAQKND","A1FMVUYV72MUO3","3JAOYN9IHLO1QRHB9NZI45P11ZM33A","","685.3000000119209","img/land1.png","74","687.5","1","1","3","2","1,0.5,0.5,0.5,1,0.5,0.5,0.5,1","0.5,1,0.5,0.5,0.5,1,1,0.5,0.5","3","",""
"","html-keyboard-response","113","61646","0.0-113.0","3FQ5JJ512MAGCDGM3EGYJO0XOAQKND","A1FMVUYV72MUO3","3JAOYN9IHLO1QRHB9NZI45P11ZM33A","","null","<img src=""img/land1.png"" style=""width:200px; border:14px solid green;"">","null","","","","","","","","","",""
"","image-keyboard-response","114","62326","0.0-114.0","3FQ5JJ512MAGCDGM3EGYJO0XOAQKND","A1FMVUYV72MUO3","3JAOYN9IHLO1QRHB9NZI45P11ZM33A","","678.2000000178814","img/land3.png","75","679.9000000059605","2","1","1","2","1,0.5,0.5,0.5,1,0.5,0.5,0.5,1","0.5,1,0.5,0.5,0.5,1,1,0.5,0.5","3","",""
"","html-keyboard-response","115","62628","0.0-115.0","3FQ5JJ512MAGCDGM3EGYJO0XOAQKND","A1FMVUYV72MUO3","3JAOYN9IHLO1QRHB9NZI45P11ZM33A","","null","<img src=""img/land3.png"" style=""width:200px; border:14px solid green;"">","null","","","","","","","","","",""
"","image-keyboard-response","116","63147","0.0-116.0","3FQ5JJ512MAGCDGM3EGYJO0XOAQKND","A1FMVUYV72MUO3","3JAOYN9IHLO1QRHB9NZI45P11ZM33A","","517","img/land1.png","76","518.6000000238419","3","0","3","2","1,0.5,0.5,0.5,1,0.5,0.5,0.5,1","0.5,1,0.5,0.5,0.5,1,1,0.5,0.5","3","",""
"","html-keyboard-response","117","63451","0.0-117.0","3FQ5JJ512MAGCDGM3EGYJO0XOAQKND","A1FMVUYV72MUO3","3JAOYN9IHLO1QRHB9NZI45P11ZM33A","","null","<img src=""img/land1.png"" style=""width:200px;border:14px solid red;"">","null","","","","","","","","","",""
"","image-keyboard-response","118","64060","0.0-118.0","3FQ5JJ512MAGCDGM3EGYJO0XOAQKND","A1FMVUYV72MUO3","3JAOYN9IHLO1QRHB9NZI45P11ZM33A","","606.9000000059605","img/land3.png","75","608.5999999940395","2","1","1","2","1,0.5,0.5,0.5,1,0.5,0.5,0.5,1","0.5,1,0.5,0.5,0.5,1,1,0.5,0.5","3","",""
"","html-keyboard-response","119","64370","0.0-119.0","3FQ5JJ512MAGCDGM3EGYJO0XOAQKND","A1FMVUYV72MUO3","3JAOYN9IHLO1QRHB9NZI45P11ZM33A","","null","<img src=""img/land3.png"" style=""width:200px; border:14px solid green;"">","null","","","","","","","","","",""
"","image-keyboard-response","120","65019","0.0-120.0","3FQ5JJ512MAGCDGM3EGYJO0XOAQKND","A1FMVUYV72MUO3","3JAOYN9IHLO1QRHB9NZI45P11ZM33A","","647.6999999880791","img/land1.png","74","649.3000000119209","1","1","3","2","1,0.5,0.5,0.5,1,0.5,0.5,0.5,1","0.5,1,0.5,0.5,0.5,1,1,0.5,0.5","3","",""
"","html-keyboard-response","121","65332","0.0-121.0","3FQ5JJ512MAGCDGM3EGYJO0XOAQKND","A1FMVUYV72MUO3","3JAOYN9IHLO1QRHB9NZI45P11ZM33A","","null","<img src=""img/land1.png"" style=""width:200px; border:14px solid green;"">","null","","","","","","","","","",""
"","image-keyboard-response","122","65932","0.0-122.0","3FQ5JJ512MAGCDGM3EGYJO0XOAQKND","A1FMVUYV72MUO3","3JAOYN9IHLO1QRHB9NZI45P11ZM33A","","598.5","img/land3.png","75","600.4000000059605","2","1","1","2","1,0.5,0.5,0.5,1,0.5,0.5,0.5,1","0.5,1,0.5,0.5,0.5,1,1,0.5,0.5","3","",""
"","html-keyboard-response","123","66237","0.0-123.0","3FQ5JJ512MAGCDGM3EGYJO0XOAQKND","A1FMVUYV72MUO3","3JAOYN9IHLO1QRHB9NZI45P11ZM33A","","null","<img src=""img/land3.png"" style=""width:200px; border:14px solid green;"">","null","","","","","","","","","",""
"","image-keyboard-response","124","66692","0.0-124.0","3FQ5JJ512MAGCDGM3EGYJO0XOAQKND","A1FMVUYV72MUO3","3JAOYN9IHLO1QRHB9NZI45P11ZM33A","","451.69999998807907","img/land3.png","75","454.40000000596046","2","1","1","2","1,0.5,0.5,0.5,1,0.5,0.5,0.5,1","0.5,1,0.5,0.5,0.5,1,1,0.5,0.5","3","",""
"","html-keyboard-response","125","66996","0.0-125.0","3FQ5JJ512MAGCDGM3EGYJO0XOAQKND","A1FMVUYV72MUO3","3JAOYN9IHLO1QRHB9NZI45P11ZM33A","","null","<img src=""img/land3.png"" style=""width:200px; border:14px solid green;"">","null","","","","","","","","","",""
"","image-keyboard-response","126","67332","0.0-126.0","3FQ5JJ512MAGCDGM3EGYJO0XOAQKND","A1FMVUYV72MUO3","3JAOYN9IHLO1QRHB9NZI45P11ZM33A","","334.5","img/land3.png","75","336.5","2","1","1","2","1,0.5,0.5,0.5,1,0.5,0.5,0.5,1","0.5,1,0.5,0.5,0.5,1,1,0.5,0.5","3","",""
"","html-keyboard-response","127","67636","0.0-127.0","3FQ5JJ512MAGCDGM3EGYJO0XOAQKND","A1FMVUYV72MUO3","3JAOYN9IHLO1QRHB9NZI45P11ZM33A","","null","<img src=""img/land3.png"" style=""width:200px; border:14px solid green;"">","null","","","","","","","","","",""
"","image-keyboard-response","128","67940","0.0-128.0","3FQ5JJ512MAGCDGM3EGYJO0XOAQKND","A1FMVUYV72MUO3","3JAOYN9IHLO1QRHB9NZI45P11ZM33A","","301.19999998807907","img/land3.png","75","303.69999998807907","2","1","1","2","1,0.5,0.5,0.5,1,0.5,0.5,0.5,1","0.5,1,0.5,0.5,0.5,1,1,0.5,0.5","3","",""
"","html-keyboard-response","129","68245","0.0-129.0","3FQ5JJ512MAGCDGM3EGYJO0XOAQKND","A1FMVUYV72MUO3","3JAOYN9IHLO1QRHB9NZI45P11ZM33A","","null","<img src=""img/land3.png"" style=""width:200px; border:14px solid green;"">","null","","","","","","","","","",""
"","image-keyboard-response","130","68579","0.0-130.0","3FQ5JJ512MAGCDGM3EGYJO0XOAQKND","A1FMVUYV72MUO3","3JAOYN9IHLO1QRHB9NZI45P11ZM33A","","331.7999999821186","img/land3.png","75","333.60000002384186","2","1","1","2","1,0.5,0.5,0.5,1,0.5,0.5,0.5,1","0.5,1,0.5,0.5,0.5,1,1,0.5,0.5","3","",""
"","html-keyboard-response","131","68885","0.0-131.0","3FQ5JJ512MAGCDGM3EGYJO0XOAQKND","A1FMVUYV72MUO3","3JAOYN9IHLO1QRHB9NZI45P11ZM33A","","null","<img src=""img/land3.png"" style=""width:200px; border:14px solid green;"">","null","","","","","","","","","",""
"","image-keyboard-response","132","69210","0.0-132.0","3FQ5JJ512MAGCDGM3EGYJO0XOAQKND","A1FMVUYV72MUO3","3JAOYN9IHLO1QRHB9NZI45P11ZM33A","","322.80000001192093","img/land3.png","75","325.59999999403954","2","1","1","2","1,0.5,0.5,0.5,1,0.5,0.5,0.5,1","0.5,1,0.5,0.5,0.5,1,1,0.5,0.5","3","",""
"","html-keyboard-response","133","69513","0.0-133.0","3FQ5JJ512MAGCDGM3EGYJO0XOAQKND","A1FMVUYV72MUO3","3JAOYN9IHLO1QRHB9NZI45P11ZM33A","","null","<img src=""img/land3.png"" style=""width:200px; border:14px solid green;"">","null","","","","","","","","","",""
"","image-keyboard-response","134","70045","0.0-134.0","3FQ5JJ512MAGCDGM3EGYJO0XOAQKND","A1FMVUYV72MUO3","3JAOYN9IHLO1QRHB9NZI45P11ZM33A","","528.5999999940395","img/land6.png","76","531.2000000178814","3","1","2","2","1,0.5,0.5,0.5,1,0.5,0.5,0.5,1","0.5,1,0.5,0.5,0.5,1,1,0.5,0.5","3","",""
"","html-keyboard-response","135","70349","0.0-135.0","3FQ5JJ512MAGCDGM3EGYJO0XOAQKND","A1FMVUYV72MUO3","3JAOYN9IHLO1QRHB9NZI45P11ZM33A","","null","<img src=""img/land6.png"" style=""width:200px; border:14px solid green;"">","null","","","","","","","","","",""
"","image-keyboard-response","136","70884","0.0-136.0","3FQ5JJ512MAGCDGM3EGYJO0XOAQKND","A1FMVUYV72MUO3","3JAOYN9IHLO1QRHB9NZI45P11ZM33A","","532.0999999940395","img/land3.png","75","534.5999999940395","2","1","1","2","1,0.5,0.5,0.5,1,0.5,0.5,0.5,1","0.5,1,0.5,0.5,0.5,1,1,0.5,0.5","3","",""
"","html-keyboard-response","137","71188","0.0-137.0","3FQ5JJ512MAGCDGM3EGYJO0XOAQKND","A1FMVUYV72MUO3","3JAOYN9IHLO1QRHB9NZI45P11ZM33A","","null","<img src=""img/land3.png"" style=""width:200px; border:14px solid green;"">","null","","","","","","","","","",""
"","image-keyboard-response","138","71718","0.0-138.0","3FQ5JJ512MAGCDGM3EGYJO0XOAQKND","A1FMVUYV72MUO3","3JAOYN9IHLO1QRHB9NZI45P11ZM33A","","527.2000000178814","img/land1.png","74","529.6999999880791","1","1","3","2","1,0.5,0.5,0.5,1,0.5,0.5,0.5,1","0.5,1,0.5,0.5,0.5,1,1,0.5,0.5","3","",""
"","html-keyboard-response","139","72022","0.0-139.0","3FQ5JJ512MAGCDGM3EGYJO0XOAQKND","A1FMVUYV72MUO3","3JAOYN9IHLO1QRHB9NZI45P11ZM33A","","null","<img src=""img/land1.png"" style=""width:200px; border:14px solid green;"">","null","","","","","","","","","",""
"","image-keyboard-response","140","72787","0.0-140.0","3FQ5JJ512MAGCDGM3EGYJO0XOAQKND","A1FMVUYV72MUO3","3JAOYN9IHLO1QRHB9NZI45P11ZM33A","","762.5999999940395","img/land6.png","76","764.5","3","1","2","2","1,0.5,0.5,0.5,1,0.5,0.5,0.5,1","0.5,1,0.5,0.5,0.5,1,1,0.5,0.5","3","",""
"","html-keyboard-response","141","73089","0.0-141.0","3FQ5JJ512MAGCDGM3EGYJO0XOAQKND","A1FMVUYV72MUO3","3JAOYN9IHLO1QRHB9NZI45P11ZM33A","","null","<img src=""img/land6.png"" style=""width:200px; border:14px solid green;"">","null","","","","","","","","","",""
"","image-keyboard-response","142","73610","0.0-142.0","3FQ5JJ512MAGCDGM3EGYJO0XOAQKND","A1FMVUYV72MUO3","3JAOYN9IHLO1QRHB9NZI45P11ZM33A","","519","img/land3.png","75","520.5","2","1","1","2","1,0.5,0.5,0.5,1,0.5,0.5,0.5,1","0.5,1,0.5,0.5,0.5,1,1,0.5,0.5","3","",""
"","html-keyboard-response","143","73914","0.0-143.0","3FQ5JJ512MAGCDGM3EGYJO0XOAQKND","A1FMVUYV72MUO3","3JAOYN9IHLO1QRHB9NZI45P11ZM33A","","null","<img src=""img/land3.png"" style=""width:200px; border:14px solid green;"">","null","","","","","","","","","",""
"","image-keyboard-response","144","74507","0.0-144.0","3FQ5JJ512MAGCDGM3EGYJO0XOAQKND","A1FMVUYV72MUO3","3JAOYN9IHLO1QRHB9NZI45P11ZM33A","","590.7999999821186","img/land6.png","76","592.4000000059605","3","1","2","2","1,0.5,0.5,0.5,1,0.5,0.5,0.5,1","0.5,1,0.5,0.5,0.5,1,1,0.5,0.5","3","",""
"","html-keyboard-response","145","74809","0.0-145.0","3FQ5JJ512MAGCDGM3EGYJO0XOAQKND","A1FMVUYV72MUO3","3JAOYN9IHLO1QRHB9NZI45P11ZM33A","","null","<img src=""img/land6.png"" style=""width:200px; border:14px solid green;"">","null","","","","","","","","","",""
"","image-keyboard-response","146","75235","0.0-146.0","3FQ5JJ512MAGCDGM3EGYJO0XOAQKND","A1FMVUYV72MUO3","3JAOYN9IHLO1QRHB9NZI45P11ZM33A","","424","img/land6.png","76","425.7000000178814","3","1","2","2","1,0.5,0.5,0.5,1,0.5,0.5,0.5,1","0.5,1,0.5,0.5,0.5,1,1,0.5,0.5","3","",""
"","html-keyboard-response","147","75538","0.0-147.0","3FQ5JJ512MAGCDGM3EGYJO0XOAQKND","A1FMVUYV72MUO3","3JAOYN9IHLO1QRHB9NZI45P11ZM33A","","null","<img src=""img/land6.png"" style=""width:200px; border:14px solid green;"">","null","","","","","","","","","",""
"","image-keyboard-response","148","76226","0.0-148.0","3FQ5JJ512MAGCDGM3EGYJO0XOAQKND","A1FMVUYV72MUO3","3JAOYN9IHLO1QRHB9NZI45P11ZM33A","","686.2999999821186","img/land1.png","74","687.9000000059605","1","1","3","2","1,0.5,0.5,0.5,1,0.5,0.5,0.5,1","0.5,1,0.5,0.5,0.5,1,1,0.5,0.5","3","",""
"","html-keyboard-response","149","76529","0.0-149.0","3FQ5JJ512MAGCDGM3EGYJO0XOAQKND","A1FMVUYV72MUO3","3JAOYN9IHLO1QRHB9NZI45P11ZM33A","","null","<img src=""img/land1.png"" style=""width:200px; border:14px solid green;"">","null","","","","","","","","","",""
"","image-keyboard-response","150","77337","0.0-150.0","3FQ5JJ512MAGCDGM3EGYJO0XOAQKND","A1FMVUYV72MUO3","3JAOYN9IHLO1QRHB9NZI45P11ZM33A","","806.9000000059605","img/land6.png","76","808.4000000059605","3","1","2","2","1,0.5,0.5,0.5,1,0.5,0.5,0.5,1","0.5,1,0.5,0.5,0.5,1,1,0.5,0.5","3","",""
"","html-keyboard-response","151","77640","0.0-151.0","3FQ5JJ512MAGCDGM3EGYJO0XOAQKND","A1FMVUYV72MUO3","3JAOYN9IHLO1QRHB9NZI45P11ZM33A","","null","<img src=""img/land6.png"" style=""width:200px; border:14px solid green;"">","null","","","","","","","","","",""
"","image-keyboard-response","152","78674","0.0-152.0","3FQ5JJ512MAGCDGM3EGYJO0XOAQKND","A1FMVUYV72MUO3","3JAOYN9IHLO1QRHB9NZI45P11ZM33A","","1032.5","img/land3.png","75","1034.0999999940395","2","1","1","2","1,0.5,0.5,0.5,1,0.5,0.5,0.5,1","0.5,1,0.5,0.5,0.5,1,1,0.5,0.5","3","",""
"","html-keyboard-response","153","78977","0.0-153.0","3FQ5JJ512MAGCDGM3EGYJO0XOAQKND","A1FMVUYV72MUO3","3JAOYN9IHLO1QRHB9NZI45P11ZM33A","","null","<img src=""img/land3.png"" style=""width:200px; border:14px solid green;"">","null","","","","","","","","","",""
"","image-keyboard-response","154","79561","0.0-154.0","3FQ5JJ512MAGCDGM3EGYJO0XOAQKND","A1FMVUYV72MUO3","3JAOYN9IHLO1QRHB9NZI45P11ZM33A","","582.0999999940395","img/land6.png","76","583.7000000178814","3","1","2","2","1,0.5,0.5,0.5,1,0.5,0.5,0.5,1","0.5,1,0.5,0.5,0.5,1,1,0.5,0.5","3","",""
"","html-keyboard-response","155","79864","0.0-155.0","3FQ5JJ512MAGCDGM3EGYJO0XOAQKND","A1FMVUYV72MUO3","3JAOYN9IHLO1QRHB9NZI45P11ZM33A","","null","<img src=""img/land6.png"" style=""width:200px; border:14px solid green;"">","null","","","","","","","","","",""
"","image-keyboard-response","156","80373","0.0-156.0","3FQ5JJ512MAGCDGM3EGYJO0XOAQKND","A1FMVUYV72MUO3","3JAOYN9IHLO1QRHB9NZI45P11ZM33A","","506.2000000178814","img/land3.png","75","508.69999998807907","2","1","1","2","1,0.5,0.5,0.5,1,0.5,0.5,0.5,1","0.5,1,0.5,0.5,0.5,1,1,0.5,0.5","3","",""
"","html-keyboard-response","157","80677","0.0-157.0","3FQ5JJ512MAGCDGM3EGYJO0XOAQKND","A1FMVUYV72MUO3","3JAOYN9IHLO1QRHB9NZI45P11ZM33A","","null","<img src=""img/land3.png"" style=""width:200px; border:14px solid green;"">","null","","","","","","","","","",""
"","image-keyboard-response","158","81057","0.0-158.0","3FQ5JJ512MAGCDGM3EGYJO0XOAQKND","A1FMVUYV72MUO3","3JAOYN9IHLO1QRHB9NZI45P11ZM33A","","378","img/land3.png","75","379.7000000178814","2","1","1","2","1,0.5,0.5,0.5,1,0.5,0.5,0.5,1","0.5,1,0.5,0.5,0.5,1,1,0.5,0.5","3","",""
"","html-keyboard-response","159","81368","0.0-159.0","3FQ5JJ512MAGCDGM3EGYJO0XOAQKND","A1FMVUYV72MUO3","3JAOYN9IHLO1QRHB9NZI45P11ZM33A","","null","<img src=""img/land3.png"" style=""width:200px; border:14px solid green;"">","null","","","","","","","","","",""
"","image-keyboard-response","160","82057","0.0-160.0","3FQ5JJ512MAGCDGM3EGYJO0XOAQKND","A1FMVUYV72MUO3","3JAOYN9IHLO1QRHB9NZI45P11ZM33A","","687.3000000119209","img/land6.png","76","689.0999999940395","3","1","2","2","1,0.5,0.5,0.5,1,0.5,0.5,0.5,1","0.5,1,0.5,0.5,0.5,1,1,0.5,0.5","3","",""
"","html-keyboard-response","161","82360","0.0-161.0","3FQ5JJ512MAGCDGM3EGYJO0XOAQKND","A1FMVUYV72MUO3","3JAOYN9IHLO1QRHB9NZI45P11ZM33A","","null","<img src=""img/land6.png"" style=""width:200px; border:14px solid green;"">","null","","","","","","","","","",""
"","image-keyboard-response","162","83010","0.0-162.0","3FQ5JJ512MAGCDGM3EGYJO0XOAQKND","A1FMVUYV72MUO3","3JAOYN9IHLO1QRHB9NZI45P11ZM33A","","648.5","img/land1.png","74","650.4000000059605","1","1","3","2","1,0.5,0.5,0.5,1,0.5,0.5,0.5,1","0.5,1,0.5,0.5,0.5,1,1,0.5,0.5","3","",""
"","html-keyboard-response","163","83315","0.0-163.0","3FQ5JJ512MAGCDGM3EGYJO0XOAQKND","A1FMVUYV72MUO3","3JAOYN9IHLO1QRHB9NZI45P11ZM33A","","null","<img src=""img/land1.png"" style=""width:200px; border:14px solid green;"">","null","","","","","","","","","",""
"","image-keyboard-response","164","83745","0.0-164.0","3FQ5JJ512MAGCDGM3EGYJO0XOAQKND","A1FMVUYV72MUO3","3JAOYN9IHLO1QRHB9NZI45P11ZM33A","","427.80000001192093","img/land1.png","74","430.09999999403954","1","1","3","2","1,0.5,0.5,0.5,1,0.5,0.5,0.5,1","0.5,1,0.5,0.5,0.5,1,1,0.5,0.5","3","",""
"","html-keyboard-response","165","84049","0.0-165.0","3FQ5JJ512MAGCDGM3EGYJO0XOAQKND","A1FMVUYV72MUO3","3JAOYN9IHLO1QRHB9NZI45P11ZM33A","","null","<img src=""img/land1.png"" style=""width:200px; border:14px solid green;"">","null","","","","","","","","","",""
"","image-keyboard-response","166","84713","0.0-166.0","3FQ5JJ512MAGCDGM3EGYJO0XOAQKND","A1FMVUYV72MUO3","3JAOYN9IHLO1QRHB9NZI45P11ZM33A","","662.0999999940395","img/land6.png","76","663.5999999940395","3","1","2","2","1,0.5,0.5,0.5,1,0.5,0.5,0.5,1","0.5,1,0.5,0.5,0.5,1,1,0.5,0.5","3","",""
"","html-keyboard-response","167","85016","0.0-167.0","3FQ5JJ512MAGCDGM3EGYJO0XOAQKND","A1FMVUYV72MUO3","3JAOYN9IHLO1QRHB9NZI45P11ZM33A","","null","<img src=""img/land6.png"" style=""width:200px; border:14px solid green;"">","null","","","","","","","","","",""
"","image-keyboard-response","168","85739","0.0-168.0","3FQ5JJ512MAGCDGM3EGYJO0XOAQKND","A1FMVUYV72MUO3","3JAOYN9IHLO1QRHB9NZI45P11ZM33A","","720.9000000059605","img/land3.png","75","723.0999999940395","2","1","1","2","1,0.5,0.5,0.5,1,0.5,0.5,0.5,1","0.5,1,0.5,0.5,0.5,1,1,0.5,0.5","3","",""
"","html-keyboard-response","169","86043","0.0-169.0","3FQ5JJ512MAGCDGM3EGYJO0XOAQKND","A1FMVUYV72MUO3","3JAOYN9IHLO1QRHB9NZI45P11ZM33A","","null","<img src=""img/land3.png"" style=""width:200px; border:14px solid green;"">","null","","","","","","","","","",""
"","image-keyboard-response","170","86514","0.0-170.0","3FQ5JJ512MAGCDGM3EGYJO0XOAQKND","A1FMVUYV72MUO3","3JAOYN9IHLO1QRHB9NZI45P11ZM33A","","468.10000002384186","img/land6.png","76","470.40000000596046","3","1","2","2","1,0.5,0.5,0.5,1,0.5,0.5,0.5,1","0.5,1,0.5,0.5,0.5,1,1,0.5,0.5","3","",""
"","html-keyboard-response","171","86818","0.0-171.0","3FQ5JJ512MAGCDGM3EGYJO0XOAQKND","A1FMVUYV72MUO3","3JAOYN9IHLO1QRHB9NZI45P11ZM33A","","null","<img src=""img/land6.png"" style=""width:200px; border:14px solid green;"">","null","","","","","","","","","",""
"","image-keyboard-response","172","87330","0.0-172.0","3FQ5JJ512MAGCDGM3EGYJO0XOAQKND","A1FMVUYV72MUO3","3JAOYN9IHLO1QRHB9NZI45P11ZM33A","","508","img/land3.png","75","510.59999999403954","2","1","1","2","1,0.5,0.5,0.5,1,0.5,0.5,0.5,1","0.5,1,0.5,0.5,0.5,1,1,0.5,0.5","3","",""
"","html-keyboard-response","173","87635","0.0-173.0","3FQ5JJ512MAGCDGM3EGYJO0XOAQKND","A1FMVUYV72MUO3","3JAOYN9IHLO1QRHB9NZI45P11ZM33A","","null","<img src=""img/land3.png"" style=""width:200px; border:14px solid green;"">","null","","","","","","","","","",""
"","image-keyboard-response","174","88026","0.0-174.0","3FQ5JJ512MAGCDGM3EGYJO0XOAQKND","A1FMVUYV72MUO3","3JAOYN9IHLO1QRHB9NZI45P11ZM33A","","387.59999999403954","img/land3.png","75","390","2","1","1","2","1,0.5,0.5,0.5,1,0.5,0.5,0.5,1","0.5,1,0.5,0.5,0.5,1,1,0.5,0.5","3","",""
"","html-keyboard-response","175","88332","0.0-175.0","3FQ5JJ512MAGCDGM3EGYJO0XOAQKND","A1FMVUYV72MUO3","3JAOYN9IHLO1QRHB9NZI45P11ZM33A","","null","<img src=""img/land3.png"" style=""width:200px; border:14px solid green;"">","null","","","","","","","","","",""
"","image-keyboard-response","176","88858","0.0-176.0","3FQ5JJ512MAGCDGM3EGYJO0XOAQKND","A1FMVUYV72MUO3","3JAOYN9IHLO1QRHB9NZI45P11ZM33A","","523.7000000178814","img/land1.png","76","525.6999999880791","3","0","3","2","1,0.5,0.5,0.5,1,0.5,0.5,0.5,1","0.5,1,0.5,0.5,0.5,1,1,0.5,0.5","3","",""
"","html-keyboard-response","177","89161","0.0-177.0","3FQ5JJ512MAGCDGM3EGYJO0XOAQKND","A1FMVUYV72MUO3","3JAOYN9IHLO1QRHB9NZI45P11ZM33A","","null","<img src=""img/land1.png"" style=""width:200px;border:14px solid red;"">","null","","","","","","","","","",""
"","image-keyboard-response","178","89626","0.0-178.0","3FQ5JJ512MAGCDGM3EGYJO0XOAQKND","A1FMVUYV72MUO3","3JAOYN9IHLO1QRHB9NZI45P11ZM33A","","461.80000001192093","img/land3.png","75","463.7999999821186","2","1","1","2","1,0.5,0.5,0.5,1,0.5,0.5,0.5,1","0.5,1,0.5,0.5,0.5,1,1,0.5,0.5","3","",""
"","html-keyboard-response","179","89928","0.0-179.0","3FQ5JJ512MAGCDGM3EGYJO0XOAQKND","A1FMVUYV72MUO3","3JAOYN9IHLO1QRHB9NZI45P11ZM33A","","null","<img src=""img/land3.png"" style=""width:200px; border:14px solid green;"">","null","","","","","","","","","",""
"","image-keyboard-response","180","90296","0.0-180.0","3FQ5JJ512MAGCDGM3EGYJO0XOAQKND","A1FMVUYV72MUO3","3JAOYN9IHLO1QRHB9NZI45P11ZM33A","","365.90000000596046","img/land3.png","75","367.5","2","1","1","2","1,0.5,0.5,0.5,1,0.5,0.5,0.5,1","0.5,1,0.5,0.5,0.5,1,1,0.5,0.5","3","",""
"","html-keyboard-response","181","90599","0.0-181.0","3FQ5JJ512MAGCDGM3EGYJO0XOAQKND","A1FMVUYV72MUO3","3JAOYN9IHLO1QRHB9NZI45P11ZM33A","","null","<img src=""img/land3.png"" style=""width:200px; border:14px solid green;"">","null","","","","","","","","","",""
"","image-keyboard-response","182","90976","0.0-182.0","3FQ5JJ512MAGCDGM3EGYJO0XOAQKND","A1FMVUYV72MUO3","3JAOYN9IHLO1QRHB9NZI45P11ZM33A","","375.19999998807907","img/land3.png","75","376.90000000596046","2","1","1","2","1,0.5,0.5,0.5,1,0.5,0.5,0.5,1","0.5,1,0.5,0.5,0.5,1,1,0.5,0.5","3","",""
"","html-keyboard-response","183","91280","0.0-183.0","3FQ5JJ512MAGCDGM3EGYJO0XOAQKND","A1FMVUYV72MUO3","3JAOYN9IHLO1QRHB9NZI45P11ZM33A","","null","<img src=""img/land3.png"" style=""width:200px; border:14px solid green;"">","null","","","","","","","","","",""
"","image-keyboard-response","184","91657","0.0-184.0","3FQ5JJ512MAGCDGM3EGYJO0XOAQKND","A1FMVUYV72MUO3","3JAOYN9IHLO1QRHB9NZI45P11ZM33A","","375.19999998807907","img/land3.png","75","377.2000000178814","2","1","1","2","1,0.5,0.5,0.5,1,0.5,0.5,0.5,1","0.5,1,0.5,0.5,0.5,1,1,0.5,0.5","3","",""
"","html-keyboard-response","185","91974","0.0-185.0","3FQ5JJ512MAGCDGM3EGYJO0XOAQKND","A1FMVUYV72MUO3","3JAOYN9IHLO1QRHB9NZI45P11ZM33A","","null","<img src=""img/land3.png"" style=""width:200px; border:14px solid green;"">","null","","","","","","","","","",""
"","image-keyboard-response","186","92328","0.0-186.0","3FQ5JJ512MAGCDGM3EGYJO0XOAQKND","A1FMVUYV72MUO3","3JAOYN9IHLO1QRHB9NZI45P11ZM33A","","351.5","img/land3.png","75","353.19999998807907","2","1","1","2","1,0.5,0.5,0.5,1,0.5,0.5,0.5,1","0.5,1,0.5,0.5,0.5,1,1,0.5,0.5","3","",""
"","html-keyboard-response","187","92630","0.0-187.0","3FQ5JJ512MAGCDGM3EGYJO0XOAQKND","A1FMVUYV72MUO3","3JAOYN9IHLO1QRHB9NZI45P11ZM33A","","null","<img src=""img/land3.png"" style=""width:200px; border:14px solid green;"">","null","","","","","","","","","",""
"","image-keyboard-response","188","92976","0.0-188.0","3FQ5JJ512MAGCDGM3EGYJO0XOAQKND","A1FMVUYV72MUO3","3JAOYN9IHLO1QRHB9NZI45P11ZM33A","","344","img/land3.png","75","345.7000000178814","2","1","1","2","1,0.5,0.5,0.5,1,0.5,0.5,0.5,1","0.5,1,0.5,0.5,0.5,1,1,0.5,0.5","3","",""
"","html-keyboard-response","189","93279","0.0-189.0","3FQ5JJ512MAGCDGM3EGYJO0XOAQKND","A1FMVUYV72MUO3","3JAOYN9IHLO1QRHB9NZI45P11ZM33A","","null","<img src=""img/land3.png"" style=""width:200px; border:14px solid green;"">","null","","","","","","","","","",""
"","image-keyboard-response","190","93919","0.0-190.0","3FQ5JJ512MAGCDGM3EGYJO0XOAQKND","A1FMVUYV72MUO3","3JAOYN9IHLO1QRHB9NZI45P11ZM33A","","638.0999999940395","img/land1.png","74","639.5","1","1","3","2","1,0.5,0.5,0.5,1,0.5,0.5,0.5,1","0.5,1,0.5,0.5,0.5,1,1,0.5,0.5","3","",""
"","html-keyboard-response","191","94222","0.0-191.0","3FQ5JJ512MAGCDGM3EGYJO0XOAQKND","A1FMVUYV72MUO3","3JAOYN9IHLO1QRHB9NZI45P11ZM33A","","null","<img src=""img/land1.png"" style=""width:200px; border:14px solid green;"">","null","","","","","","","","","",""
"","image-keyboard-response","192","94664","0.0-192.0","3FQ5JJ512MAGCDGM3EGYJO0XOAQKND","A1FMVUYV72MUO3","3JAOYN9IHLO1QRHB9NZI45P11ZM33A","","440.39999997615814","img/land3.png","75","441.89999997615814","2","1","1","2","1,0.5,0.5,0.5,1,0.5,0.5,0.5,1","0.5,1,0.5,0.5,0.5,1,1,0.5,0.5","3","",""
"","html-keyboard-response","193","94967","0.0-193.0","3FQ5JJ512MAGCDGM3EGYJO0XOAQKND","A1FMVUYV72MUO3","3JAOYN9IHLO1QRHB9NZI45P11ZM33A","","null","<img src=""img/land3.png"" style=""width:200px; border:14px solid green;"">","null","","","","","","","","","",""
"","image-keyboard-response","194","95607","0.0-194.0","3FQ5JJ512MAGCDGM3EGYJO0XOAQKND","A1FMVUYV72MUO3","3JAOYN9IHLO1QRHB9NZI45P11ZM33A","","638.5","img/land6.png","76","640.1000000238419","3","1","2","2","1,0.5,0.5,0.5,1,0.5,0.5,0.5,1","0.5,1,0.5,0.5,0.5,1,1,0.5,0.5","3","",""
"","html-keyboard-response","195","95910","0.0-195.0","3FQ5JJ512MAGCDGM3EGYJO0XOAQKND","A1FMVUYV72MUO3","3JAOYN9IHLO1QRHB9NZI45P11ZM33A","","null","<img src=""img/land6.png"" style=""width:200px; border:14px solid green;"">","null","","","","","","","","","",""
"","image-keyboard-response","196","96673","0.0-196.0","3FQ5JJ512MAGCDGM3EGYJO0XOAQKND","A1FMVUYV72MUO3","3JAOYN9IHLO1QRHB9NZI45P11ZM33A","","760.4000000059605","img/land1.png","74","762.3000000119209","1","1","3","2","1,0.5,0.5,0.5,1,0.5,0.5,0.5,1","0.5,1,0.5,0.5,0.5,1,1,0.5,0.5","3","",""
"","html-keyboard-response","197","96977","0.0-197.0","3FQ5JJ512MAGCDGM3EGYJO0XOAQKND","A1FMVUYV72MUO3","3JAOYN9IHLO1QRHB9NZI45P11ZM33A","","null","<img src=""img/land1.png"" style=""width:200px; border:14px solid green;"">","null","","","","","","","","","",""
"","image-keyboard-response","198","97616","0.0-198.0","3FQ5JJ512MAGCDGM3EGYJO0XOAQKND","A1FMVUYV72MUO3","3JAOYN9IHLO1QRHB9NZI45P11ZM33A","","635.2000000178814","img/land3.png","75","637.6999999880791","2","1","1","2","1,0.5,0.5,0.5,1,0.5,0.5,0.5,1","0.5,1,0.5,0.5,0.5,1,1,0.5,0.5","3","",""
"","html-keyboard-response","199","97919","0.0-199.0","3FQ5JJ512MAGCDGM3EGYJO0XOAQKND","A1FMVUYV72MUO3","3JAOYN9IHLO1QRHB9NZI45P11ZM33A","","null","<img src=""img/land3.png"" style=""width:200px; border:14px solid green;"">","null","","","","","","","","","",""
"","image-keyboard-response","200","98618","0.0-200.0","3FQ5JJ512MAGCDGM3EGYJO0XOAQKND","A1FMVUYV72MUO3","3JAOYN9IHLO1QRHB9NZI45P11ZM33A","","696.3000000119209","img/land1.png","74","698.5","1","1","3","2","1,0.5,0.5,0.5,1,0.5,0.5,0.5,1","0.5,1,0.5,0.5,0.5,1,1,0.5,0.5","3","",""
"","html-keyboard-response","201","98921","0.0-201.0","3FQ5JJ512MAGCDGM3EGYJO0XOAQKND","A1FMVUYV72MUO3","3JAOYN9IHLO1QRHB9NZI45P11ZM33A","","null","<img src=""img/land1.png"" style=""width:200px; border:14px solid green;"">","null","","","","","","","","","",""
"","image-keyboard-response","202","99385","0.0-202.0","3FQ5JJ512MAGCDGM3EGYJO0XOAQKND","A1FMVUYV72MUO3","3JAOYN9IHLO1QRHB9NZI45P11ZM33A","","462.19999998807907","img/land3.png","75","464","2","1","1","2","1,0.5,0.5,0.5,1,0.5,0.5,0.5,1","0.5,1,0.5,0.5,0.5,1,1,0.5,0.5","3","",""
"","html-keyboard-response","203","99690","0.0-203.0","3FQ5JJ512MAGCDGM3EGYJO0XOAQKND","A1FMVUYV72MUO3","3JAOYN9IHLO1QRHB9NZI45P11ZM33A","","null","<img src=""img/land3.png"" style=""width:200px; border:14px solid green;"">","null","","","","","","","","","",""
"","image-keyboard-response","204","100058","0.0-204.0","3FQ5JJ512MAGCDGM3EGYJO0XOAQKND","A1FMVUYV72MUO3","3JAOYN9IHLO1QRHB9NZI45P11ZM33A","","364.2999999821186","img/land3.png","75","367.19999998807907","2","1","1","2","1,0.5,0.5,0.5,1,0.5,0.5,0.5,1","0.5,1,0.5,0.5,0.5,1,1,0.5,0.5","3","",""
"","html-keyboard-response","205","100362","0.0-205.0","3FQ5JJ512MAGCDGM3EGYJO0XOAQKND","A1FMVUYV72MUO3","3JAOYN9IHLO1QRHB9NZI45P11ZM33A","","null","<img src=""img/land3.png"" style=""width:200px; border:14px solid green;"">","null","","","","","","","","","",""
"","image-keyboard-response","206","100926","0.0-206.0","3FQ5JJ512MAGCDGM3EGYJO0XOAQKND","A1FMVUYV72MUO3","3JAOYN9IHLO1QRHB9NZI45P11ZM33A","","562.7999999821186","img/land1.png","74","564.2999999821186","1","1","3","2","1,0.5,0.5,0.5,1,0.5,0.5,0.5,1","0.5,1,0.5,0.5,0.5,1,1,0.5,0.5","3","",""
"","html-keyboard-response","207","101230","0.0-207.0","3FQ5JJ512MAGCDGM3EGYJO0XOAQKND","A1FMVUYV72MUO3","3JAOYN9IHLO1QRHB9NZI45P11ZM33A","","null","<img src=""img/land1.png"" style=""width:200px; border:14px solid green;"">","null","","","","","","","","","",""
"","image-keyboard-response","208","101646","0.0-208.0","3FQ5JJ512MAGCDGM3EGYJO0XOAQKND","A1FMVUYV72MUO3","3JAOYN9IHLO1QRHB9NZI45P11ZM33A","","414.69999998807907","img/land3.png","75","416.40000000596046","2","1","1","2","1,0.5,0.5,0.5,1,0.5,0.5,0.5,1","0.5,1,0.5,0.5,0.5,1,1,0.5,0.5","3","",""
"","html-keyboard-response","209","101949","0.0-209.0","3FQ5JJ512MAGCDGM3EGYJO0XOAQKND","A1FMVUYV72MUO3","3JAOYN9IHLO1QRHB9NZI45P11ZM33A","","null","<img src=""img/land3.png"" style=""width:200px; border:14px solid green;"">","null","","","","","","","","","",""
"","image-keyboard-response","210","102326","0.0-210.0","3FQ5JJ512MAGCDGM3EGYJO0XOAQKND","A1FMVUYV72MUO3","3JAOYN9IHLO1QRHB9NZI45P11ZM33A","","375.80000001192093","img/land3.png","75","377.30000001192093","2","1","1","2","1,0.5,0.5,0.5,1,0.5,0.5,0.5,1","0.5,1,0.5,0.5,0.5,1,1,0.5,0.5","3","",""
"","html-keyboard-response","211","102630","0.0-211.0","3FQ5JJ512MAGCDGM3EGYJO0XOAQKND","A1FMVUYV72MUO3","3JAOYN9IHLO1QRHB9NZI45P11ZM33A","","null","<img src=""img/land3.png"" style=""width:200px; border:14px solid green;"">","null","","","","","","","","","",""
"","image-keyboard-response","212","103342","0.0-212.0","3FQ5JJ512MAGCDGM3EGYJO0XOAQKND","A1FMVUYV72MUO3","3JAOYN9IHLO1QRHB9NZI45P11ZM33A","","709.7000000178814","img/land6.png","76","711.2000000178814","3","1","2","2","1,0.5,0.5,0.5,1,0.5,0.5,0.5,1","0.5,1,0.5,0.5,0.5,1,1,0.5,0.5","3","",""
"","html-keyboard-response","213","103644","0.0-213.0","3FQ5JJ512MAGCDGM3EGYJO0XOAQKND","A1FMVUYV72MUO3","3JAOYN9IHLO1QRHB9NZI45P11ZM33A","","null","<img src=""img/land6.png"" style=""width:200px; border:14px solid green;"">","null","","","","","","","","","",""
"","image-keyboard-response","214","104095","0.0-214.0","3FQ5JJ512MAGCDGM3EGYJO0XOAQKND","A1FMVUYV72MUO3","3JAOYN9IHLO1QRHB9NZI45P11ZM33A","","449.09999999403954","img/land3.png","75","450.80000001192093","2","1","1","2","1,0.5,0.5,0.5,1,0.5,0.5,0.5,1","0.5,1,0.5,0.5,0.5,1,1,0.5,0.5","3","",""
"","html-keyboard-response","215","104397","0.0-215.0","3FQ5JJ512MAGCDGM3EGYJO0XOAQKND","A1FMVUYV72MUO3","3JAOYN9IHLO1QRHB9NZI45P11ZM33A","","null","<img src=""img/land3.png"" style=""width:200px; border:14px solid green;"">","null","","","","","","","","","",""
"","image-keyboard-response","216","104959","0.0-216.0","3FQ5JJ512MAGCDGM3EGYJO0XOAQKND","A1FMVUYV72MUO3","3JAOYN9IHLO1QRHB9NZI45P11ZM33A","","559.5999999940395","img/land6.png","76","561.5","3","1","2","2","1,0.5,0.5,0.5,1,0.5,0.5,0.5,1","0.5,1,0.5,0.5,0.5,1,1,0.5,0.5","3","",""
"","html-keyboard-response","217","105264","0.0-217.0","3FQ5JJ512MAGCDGM3EGYJO0XOAQKND","A1FMVUYV72MUO3","3JAOYN9IHLO1QRHB9NZI45P11ZM33A","","null","<img src=""img/land6.png"" style=""width:200px; border:14px solid green;"">","null","","","","","","","","","",""
"","image-keyboard-response","218","106238","0.0-218.0","3FQ5JJ512MAGCDGM3EGYJO0XOAQKND","A1FMVUYV72MUO3","3JAOYN9IHLO1QRHB9NZI45P11ZM33A","","971.3000000119209","img/land1.png","74","973.6999999880791","1","1","3","2","1,0.5,0.5,0.5,1,0.5,0.5,0.5,1","0.5,1,0.5,0.5,0.5,1,1,0.5,0.5","3","",""
"","html-keyboard-response","219","106541","0.0-219.0","3FQ5JJ512MAGCDGM3EGYJO0XOAQKND","A1FMVUYV72MUO3","3JAOYN9IHLO1QRHB9NZI45P11ZM33A","","null","<img src=""img/land1.png"" style=""width:200px; border:14px solid green;"">","null","","","","","","","","","",""
"","image-keyboard-response","220","106998","0.0-220.0","3FQ5JJ512MAGCDGM3EGYJO0XOAQKND","A1FMVUYV72MUO3","3JAOYN9IHLO1QRHB9NZI45P11ZM33A","","454","img/land1.png","74","456","1","1","3","2","1,0.5,0.5,0.5,1,0.5,0.5,0.5,1","0.5,1,0.5,0.5,0.5,1,1,0.5,0.5","3","",""
"","html-keyboard-response","221","107301","0.0-221.0","3FQ5JJ512MAGCDGM3EGYJO0XOAQKND","A1FMVUYV72MUO3","3JAOYN9IHLO1QRHB9NZI45P11ZM33A","","null","<img src=""img/land1.png"" style=""width:200px; border:14px solid green;"">","null","","","","","","","","","",""
"","image-keyboard-response","222","107639","0.0-222.0","3FQ5JJ512MAGCDGM3EGYJO0XOAQKND","A1FMVUYV72MUO3","3JAOYN9IHLO1QRHB9NZI45P11ZM33A","","336.39999997615814","img/land1.png","74","338.19999998807907","1","1","3","2","1,0.5,0.5,0.5,1,0.5,0.5,0.5,1","0.5,1,0.5,0.5,0.5,1,1,0.5,0.5","3","",""
"","html-keyboard-response","223","107942","0.0-223.0","3FQ5JJ512MAGCDGM3EGYJO0XOAQKND","A1FMVUYV72MUO3","3JAOYN9IHLO1QRHB9NZI45P11ZM33A","","null","<img src=""img/land1.png"" style=""width:200px; border:14px solid green;"">","null","","","","","","","","","",""
"","image-keyboard-response","224","108591","0.0-224.0","3FQ5JJ512MAGCDGM3EGYJO0XOAQKND","A1FMVUYV72MUO3","3JAOYN9IHLO1QRHB9NZI45P11ZM33A","","646.3000000119209","img/land3.png","75","648.3000000119209","2","1","1","2","1,0.5,0.5,0.5,1,0.5,0.5,0.5,1","0.5,1,0.5,0.5,0.5,1,1,0.5,0.5","3","",""
"","html-keyboard-response","225","108895","0.0-225.0","3FQ5JJ512MAGCDGM3EGYJO0XOAQKND","A1FMVUYV72MUO3","3JAOYN9IHLO1QRHB9NZI45P11ZM33A","","null","<img src=""img/land3.png"" style=""width:200px; border:14px solid green;"">","null","","","","","","","","","",""
"","image-keyboard-response","226","109254","0.0-226.0","3FQ5JJ512MAGCDGM3EGYJO0XOAQKND","A1FMVUYV72MUO3","3JAOYN9IHLO1QRHB9NZI45P11ZM33A","","355.59999999403954","img/land3.png","75","358","2","1","1","2","1,0.5,0.5,0.5,1,0.5,0.5,0.5,1","0.5,1,0.5,0.5,0.5,1,1,0.5,0.5","3","",""
"","html-keyboard-response","227","109557","0.0-227.0","3FQ5JJ512MAGCDGM3EGYJO0XOAQKND","A1FMVUYV72MUO3","3JAOYN9IHLO1QRHB9NZI45P11ZM33A","","null","<img src=""img/land3.png"" style=""width:200px; border:14px solid green;"">","null","","","","","","","","","",""
"","image-keyboard-response","228","109912","0.0-228.0","3FQ5JJ512MAGCDGM3EGYJO0XOAQKND","A1FMVUYV72MUO3","3JAOYN9IHLO1QRHB9NZI45P11ZM33A","","352.5","img/land3.png","75","354.7000000178814","2","1","1","2","1,0.5,0.5,0.5,1,0.5,0.5,0.5,1","0.5,1,0.5,0.5,0.5,1,1,0.5,0.5","3","",""
"","html-keyboard-response","229","110216","0.0-229.0","3FQ5JJ512MAGCDGM3EGYJO0XOAQKND","A1FMVUYV72MUO3","3JAOYN9IHLO1QRHB9NZI45P11ZM33A","","null","<img src=""img/land3.png"" style=""width:200px; border:14px solid green;"">","null","","","","","","","","","",""
"","image-keyboard-response","230","110536","0.0-230.0","3FQ5JJ512MAGCDGM3EGYJO0XOAQKND","A1FMVUYV72MUO3","3JAOYN9IHLO1QRHB9NZI45P11ZM33A","","316.7999999821186","img/land3.png","75","319.7999999821186","2","1","1","2","1,0.5,0.5,0.5,1,0.5,0.5,0.5,1","0.5,1,0.5,0.5,0.5,1,1,0.5,0.5","3","",""
"","html-keyboard-response","231","110840","0.0-231.0","3FQ5JJ512MAGCDGM3EGYJO0XOAQKND","A1FMVUYV72MUO3","3JAOYN9IHLO1QRHB9NZI45P11ZM33A","","null","<img src=""img/land3.png"" style=""width:200px; border:14px solid green;"">","null","","","","","","","","","",""
"","image-keyboard-response","232","111181","0.0-232.0","3FQ5JJ512MAGCDGM3EGYJO0XOAQKND","A1FMVUYV72MUO3","3JAOYN9IHLO1QRHB9NZI45P11ZM33A","","338.7999999821186","img/land3.png","75","340.5","2","1","1","2","1,0.5,0.5,0.5,1,0.5,0.5,0.5,1","0.5,1,0.5,0.5,0.5,1,1,0.5,0.5","3","",""
"","html-keyboard-response","233","111484","0.0-233.0","3FQ5JJ512MAGCDGM3EGYJO0XOAQKND","A1FMVUYV72MUO3","3JAOYN9IHLO1QRHB9NZI45P11ZM33A","","null","<img src=""img/land3.png"" style=""width:200px; border:14px solid green;"">","null","","","","","","","","","",""
"","image-keyboard-response","234","111822","0.0-234.0","3FQ5JJ512MAGCDGM3EGYJO0XOAQKND","A1FMVUYV72MUO3","3JAOYN9IHLO1QRHB9NZI45P11ZM33A","","335.89999997615814","img/land3.png","75","337.59999999403954","2","1","1","2","1,0.5,0.5,0.5,1,0.5,0.5,0.5,1","0.5,1,0.5,0.5,0.5,1,1,0.5,0.5","3","",""
"","html-keyboard-response","235","112125","0.0-235.0","3FQ5JJ512MAGCDGM3EGYJO0XOAQKND","A1FMVUYV72MUO3","3JAOYN9IHLO1QRHB9NZI45P11ZM33A","","null","<img src=""img/land3.png"" style=""width:200px; border:14px solid green;"">","null","","","","","","","","","",""
"","image-keyboard-response","236","112477","0.0-236.0","3FQ5JJ512MAGCDGM3EGYJO0XOAQKND","A1FMVUYV72MUO3","3JAOYN9IHLO1QRHB9NZI45P11ZM33A","","350.7000000178814","img/land3.png","75","352.40000000596046","2","1","1","2","1,0.5,0.5,0.5,1,0.5,0.5,0.5,1","0.5,1,0.5,0.5,0.5,1,1,0.5,0.5","3","",""
"","html-keyboard-response","237","112780","0.0-237.0","3FQ5JJ512MAGCDGM3EGYJO0XOAQKND","A1FMVUYV72MUO3","3JAOYN9IHLO1QRHB9NZI45P11ZM33A","","null","<img src=""img/land3.png"" style=""width:200px; border:14px solid green;"">","null","","","","","","","","","",""
"","image-keyboard-response","238","113093","0.0-238.0","3FQ5JJ512MAGCDGM3EGYJO0XOAQKND","A1FMVUYV72MUO3","3JAOYN9IHLO1QRHB9NZI45P11ZM33A","","310.90000000596046","img/land3.png","75","312.90000000596046","2","1","1","2","1,0.5,0.5,0.5,1,0.5,0.5,0.5,1","0.5,1,0.5,0.5,0.5,1,1,0.5,0.5","3","",""
"","html-keyboard-response","239","113396","0.0-239.0","3FQ5JJ512MAGCDGM3EGYJO0XOAQKND","A1FMVUYV72MUO3","3JAOYN9IHLO1QRHB9NZI45P11ZM33A","","null","<img src=""img/land3.png"" style=""width:200px; border:14px solid green;"">","null","","","","","","","","","",""
"","image-keyboard-response","240","113709","0.0-240.0","3FQ5JJ512MAGCDGM3EGYJO0XOAQKND","A1FMVUYV72MUO3","3JAOYN9IHLO1QRHB9NZI45P11ZM33A","","311.30000001192093","img/land3.png","75","313","2","1","1","2","1,0.5,0.5,0.5,1,0.5,0.5,0.5,1","0.5,1,0.5,0.5,0.5,1,1,0.5,0.5","3","",""
"","html-keyboard-response","241","114012","0.0-241.0","3FQ5JJ512MAGCDGM3EGYJO0XOAQKND","A1FMVUYV72MUO3","3JAOYN9IHLO1QRHB9NZI45P11ZM33A","","null","<img src=""img/land3.png"" style=""width:200px; border:14px solid green;"">","null","","","","","","","","","",""
"","image-keyboard-response","242","114677","0.0-242.0","3FQ5JJ512MAGCDGM3EGYJO0XOAQKND","A1FMVUYV72MUO3","3JAOYN9IHLO1QRHB9NZI45P11ZM33A","","660.9000000059605","img/land6.png","76","664","3","1","2","2","1,0.5,0.5,0.5,1,0.5,0.5,0.5,1","0.5,1,0.5,0.5,0.5,1,1,0.5,0.5","3","",""
"","html-keyboard-response","243","114979","0.0-243.0","3FQ5JJ512MAGCDGM3EGYJO0XOAQKND","A1FMVUYV72MUO3","3JAOYN9IHLO1QRHB9NZI45P11ZM33A","","null","<img src=""img/land6.png"" style=""width:200px; border:14px solid green;"">","null","","","","","","","","","",""
"","image-keyboard-response","244","115499","0.0-244.0","3FQ5JJ512MAGCDGM3EGYJO0XOAQKND","A1FMVUYV72MUO3","3JAOYN9IHLO1QRHB9NZI45P11ZM33A","","517.7999999821186","img/land3.png","75","519.5999999940395","2","1","1","2","1,0.5,0.5,0.5,1,0.5,0.5,0.5,1","0.5,1,0.5,0.5,0.5,1,1,0.5,0.5","3","",""
"","html-keyboard-response","245","115803","0.0-245.0","3FQ5JJ512MAGCDGM3EGYJO0XOAQKND","A1FMVUYV72MUO3","3JAOYN9IHLO1QRHB9NZI45P11ZM33A","","null","<img src=""img/land3.png"" style=""width:200px; border:14px solid green;"">","null","","","","","","","","","",""
"","image-keyboard-response","246","116157","0.0-246.0","3FQ5JJ512MAGCDGM3EGYJO0XOAQKND","A1FMVUYV72MUO3","3JAOYN9IHLO1QRHB9NZI45P11ZM33A","","351.5","img/land3.png","76","353.2999999821186","3","0","1","2","1,0.5,0.5,0.5,1,0.5,0.5,0.5,1","0.5,1,0.5,0.5,0.5,1,1,0.5,0.5","3","",""
"","html-keyboard-response","247","116469","0.0-247.0","3FQ5JJ512MAGCDGM3EGYJO0XOAQKND","A1FMVUYV72MUO3","3JAOYN9IHLO1QRHB9NZI45P11ZM33A","","null","<img src=""img/land3.png"" style=""width:200px;border:14px solid red;"">","null","","","","","","","","","",""
"","image-keyboard-response","248","116815","0.0-248.0","3FQ5JJ512MAGCDGM3EGYJO0XOAQKND","A1FMVUYV72MUO3","3JAOYN9IHLO1QRHB9NZI45P11ZM33A","","343.5","img/land3.png","75","345","2","1","1","2","1,0.5,0.5,0.5,1,0.5,0.5,0.5,1","0.5,1,0.5,0.5,0.5,1,1,0.5,0.5","3","",""
"","html-keyboard-response","249","117118","0.0-249.0","3FQ5JJ512MAGCDGM3EGYJO0XOAQKND","A1FMVUYV72MUO3","3JAOYN9IHLO1QRHB9NZI45P11ZM33A","","null","<img src=""img/land3.png"" style=""width:200px; border:14px solid green;"">","null","","","","","","","","","",""
"","image-keyboard-response","250","117447","0.0-250.0","3FQ5JJ512MAGCDGM3EGYJO0XOAQKND","A1FMVUYV72MUO3","3JAOYN9IHLO1QRHB9NZI45P11ZM33A","","326.40000000596046","img/land3.png","75","328.5","2","1","1","2","1,0.5,0.5,0.5,1,0.5,0.5,0.5,1","0.5,1,0.5,0.5,0.5,1,1,0.5,0.5","3","",""
"","html-keyboard-response","251","117754","0.0-251.0","3FQ5JJ512MAGCDGM3EGYJO0XOAQKND","A1FMVUYV72MUO3","3JAOYN9IHLO1QRHB9NZI45P11ZM33A","","null","<img src=""img/land3.png"" style=""width:200px; border:14px solid green;"">","null","","","","","","","","","",""
"","image-keyboard-response","252","118125","0.0-252.0","3FQ5JJ512MAGCDGM3EGYJO0XOAQKND","A1FMVUYV72MUO3","3JAOYN9IHLO1QRHB9NZI45P11ZM33A","","367.5","img/land3.png","75","370.19999998807907","2","1","1","2","1,0.5,0.5,0.5,1,0.5,0.5,0.5,1","0.5,1,0.5,0.5,0.5,1,1,0.5,0.5","3","",""
"","html-keyboard-response","253","118429","0.0-253.0","3FQ5JJ512MAGCDGM3EGYJO0XOAQKND","A1FMVUYV72MUO3","3JAOYN9IHLO1QRHB9NZI45P11ZM33A","","null","<img src=""img/land3.png"" style=""width:200px; border:14px solid green;"">","null","","","","","","","","","",""
"","image-keyboard-response","254","118757","0.0-254.0","3FQ5JJ512MAGCDGM3EGYJO0XOAQKND","A1FMVUYV72MUO3","3JAOYN9IHLO1QRHB9NZI45P11ZM33A","","325.2999999821186","img/land3.png","75","327.2000000178814","2","1","1","2","1,0.5,0.5,0.5,1,0.5,0.5,0.5,1","0.5,1,0.5,0.5,0.5,1,1,0.5,0.5","3","",""
"","html-keyboard-response","255","119061","0.0-255.0","3FQ5JJ512MAGCDGM3EGYJO0XOAQKND","A1FMVUYV72MUO3","3JAOYN9IHLO1QRHB9NZI45P11ZM33A","","null","<img src=""img/land3.png"" style=""width:200px; border:14px solid green;"">","null","","","","","","","","","",""
"","image-keyboard-response","256","119661","0.0-256.0","3FQ5JJ512MAGCDGM3EGYJO0XOAQKND","A1FMVUYV72MUO3","3JAOYN9IHLO1QRHB9NZI45P11ZM33A","","598.2999999821186","img/land6.png","76","600.5999999940395","3","1","2","2","1,0.5,0.5,0.5,1,0.5,0.5,0.5,1","0.5,1,0.5,0.5,0.5,1,1,0.5,0.5","3","",""
"","html-keyboard-response","257","119966","0.0-257.0","3FQ5JJ512MAGCDGM3EGYJO0XOAQKND","A1FMVUYV72MUO3","3JAOYN9IHLO1QRHB9NZI45P11ZM33A","","null","<img src=""img/land6.png"" style=""width:200px; border:14px solid green;"">","null","","","","","","","","","",""
"","image-keyboard-response","258","120388","0.0-258.0","3FQ5JJ512MAGCDGM3EGYJO0XOAQKND","A1FMVUYV72MUO3","3JAOYN9IHLO1QRHB9NZI45P11ZM33A","","418.59999999403954","img/land3.png","75","421.30000001192093","2","1","1","2","1,0.5,0.5,0.5,1,0.5,0.5,0.5,1","0.5,1,0.5,0.5,0.5,1,1,0.5,0.5","3","",""
"","html-keyboard-response","259","120691","0.0-259.0","3FQ5JJ512MAGCDGM3EGYJO0XOAQKND","A1FMVUYV72MUO3","3JAOYN9IHLO1QRHB9NZI45P11ZM33A","","null","<img src=""img/land3.png"" style=""width:200px; border:14px solid green;"">","null","","","","","","","","","",""
"","image-keyboard-response","260","121275","0.0-260.0","3FQ5JJ512MAGCDGM3EGYJO0XOAQKND","A1FMVUYV72MUO3","3JAOYN9IHLO1QRHB9NZI45P11ZM33A","","583","img/land6.png","76","584.5","3","1","2","2","1,0.5,0.5,0.5,1,0.5,0.5,0.5,1","0.5,1,0.5,0.5,0.5,1,1,0.5,0.5","3","",""
"","html-keyboard-response","261","121577","0.0-261.0","3FQ5JJ512MAGCDGM3EGYJO0XOAQKND","A1FMVUYV72MUO3","3JAOYN9IHLO1QRHB9NZI45P11ZM33A","","null","<img src=""img/land6.png"" style=""width:200px; border:14px solid green;"">","null","","","","","","","","","",""
"","image-keyboard-response","262","122020","0.0-262.0","3FQ5JJ512MAGCDGM3EGYJO0XOAQKND","A1FMVUYV72MUO3","3JAOYN9IHLO1QRHB9NZI45P11ZM33A","","440.69999998807907","img/land3.png","75","442.30000001192093","2","1","1","2","1,0.5,0.5,0.5,1,0.5,0.5,0.5,1","0.5,1,0.5,0.5,0.5,1,1,0.5,0.5","3","",""
"","html-keyboard-response","263","122323","0.0-263.0","3FQ5JJ512MAGCDGM3EGYJO0XOAQKND","A1FMVUYV72MUO3","3JAOYN9IHLO1QRHB9NZI45P11ZM33A","","null","<img src=""img/land3.png"" style=""width:200px; border:14px solid green;"">","null","","","","","","","","","",""
"","image-keyboard-response","264","122645","0.0-264.0","3FQ5JJ512MAGCDGM3EGYJO0XOAQKND","A1FMVUYV72MUO3","3JAOYN9IHLO1QRHB9NZI45P11ZM33A","","320.09999999403954","img/land3.png","75","321.90000000596046","2","1","1","2","1,0.5,0.5,0.5,1,0.5,0.5,0.5,1","0.5,1,0.5,0.5,0.5,1,1,0.5,0.5","3","",""
"","html-keyboard-response","265","122948","0.0-265.0","3FQ5JJ512MAGCDGM3EGYJO0XOAQKND","A1FMVUYV72MUO3","3JAOYN9IHLO1QRHB9NZI45P11ZM33A","","null","<img src=""img/land3.png"" style=""width:200px; border:14px solid green;"">","null","","","","","","","","","",""
"","image-keyboard-response","266","123500","0.0-266.0","3FQ5JJ512MAGCDGM3EGYJO0XOAQKND","A1FMVUYV72MUO3","3JAOYN9IHLO1QRHB9NZI45P11ZM33A","","549.7000000178814","img/land1.png","74","551.4000000059605","1","1","3","2","1,0.5,0.5,0.5,1,0.5,0.5,0.5,1","0.5,1,0.5,0.5,0.5,1,1,0.5,0.5","3","",""
"","html-keyboard-response","267","123804","0.0-267.0","3FQ5JJ512MAGCDGM3EGYJO0XOAQKND","A1FMVUYV72MUO3","3JAOYN9IHLO1QRHB9NZI45P11ZM33A","","null","<img src=""img/land1.png"" style=""width:200px; border:14px solid green;"">","null","","","","","","","","","",""
"","image-keyboard-response","268","124275","0.0-268.0","3FQ5JJ512MAGCDGM3EGYJO0XOAQKND","A1FMVUYV72MUO3","3JAOYN9IHLO1QRHB9NZI45P11ZM33A","","469.19999998807907","img/land3.png","75","471.09999999403954","2","1","1","2","1,0.5,0.5,0.5,1,0.5,0.5,0.5,1","0.5,1,0.5,0.5,0.5,1,1,0.5,0.5","3","",""
"","html-keyboard-response","269","124578","0.0-269.0","3FQ5JJ512MAGCDGM3EGYJO0XOAQKND","A1FMVUYV72MUO3","3JAOYN9IHLO1QRHB9NZI45P11ZM33A","","null","<img src=""img/land3.png"" style=""width:200px; border:14px solid green;"">","null","","","","","","","","","",""
"","image-keyboard-response","270","125067","0.0-270.0","3FQ5JJ512MAGCDGM3EGYJO0XOAQKND","A1FMVUYV72MUO3","3JAOYN9IHLO1QRHB9NZI45P11ZM33A","","486.7999999821186","img/land1.png","74","488.40000000596046","1","1","3","2","1,0.5,0.5,0.5,1,0.5,0.5,0.5,1","0.5,1,0.5,0.5,0.5,1,1,0.5,0.5","3","",""
"","html-keyboard-response","271","125370","0.0-271.0","3FQ5JJ512MAGCDGM3EGYJO0XOAQKND","A1FMVUYV72MUO3","3JAOYN9IHLO1QRHB9NZI45P11ZM33A","","null","<img src=""img/land1.png"" style=""width:200px; border:14px solid green;"">","null","","","","","","","","","",""
"","image-keyboard-response","272","125827","0.0-272.0","3FQ5JJ512MAGCDGM3EGYJO0XOAQKND","A1FMVUYV72MUO3","3JAOYN9IHLO1QRHB9NZI45P11ZM33A","","455.19999998807907","img/land3.png","75","457","2","1","1","2","1,0.5,0.5,0.5,1,0.5,0.5,0.5,1","0.5,1,0.5,0.5,0.5,1,1,0.5,0.5","3","",""
"","html-keyboard-response","273","126130","0.0-273.0","3FQ5JJ512MAGCDGM3EGYJO0XOAQKND","A1FMVUYV72MUO3","3JAOYN9IHLO1QRHB9NZI45P11ZM33A","","null","<img src=""img/land3.png"" style=""width:200px; border:14px solid green;"">","null","","","","","","","","","",""
"","image-keyboard-response","274","126611","0.0-274.0","3FQ5JJ512MAGCDGM3EGYJO0XOAQKND","A1FMVUYV72MUO3","3JAOYN9IHLO1QRHB9NZI45P11ZM33A","","479.09999999403954","img/land1.png","76","481","3","1","3","2","1,0.5,0.5,0.5,1,0.5,0.5,0.5,1","0.5,1,0.5,0.5,0.5,1,1,0.5,0.5","3","",""
"","html-keyboard-response","275","126915","0.0-275.0","3FQ5JJ512MAGCDGM3EGYJO0XOAQKND","A1FMVUYV72MUO3","3JAOYN9IHLO1QRHB9NZI45P11ZM33A","","null","<img src=""img/land1.png"" style=""width:200px; border:14px solid green;"">","null","","","","","","","","","",""
"","image-keyboard-response","276","127756","0.0-276.0","3FQ5JJ512MAGCDGM3EGYJO0XOAQKND","A1FMVUYV72MUO3","3JAOYN9IHLO1QRHB9NZI45P11ZM33A","","838.9000000059605","img/land3.png","75","840.7000000178814","2","1","1","2","1,0.5,0.5,0.5,1,0.5,0.5,0.5,1","0.5,1,0.5,0.5,0.5,1,1,0.5,0.5","3","",""
"","html-keyboard-response","277","128059","0.0-277.0","3FQ5JJ512MAGCDGM3EGYJO0XOAQKND","A1FMVUYV72MUO3","3JAOYN9IHLO1QRHB9NZI45P11ZM33A","","null","<img src=""img/land3.png"" style=""width:200px; border:14px solid green;"">","null","","","","","","","","","",""
"","image-keyboard-response","278","128467","0.0-278.0","3FQ5JJ512MAGCDGM3EGYJO0XOAQKND","A1FMVUYV72MUO3","3JAOYN9IHLO1QRHB9NZI45P11ZM33A","","405.80000001192093","img/land3.png","75","407.59999999403954","2","1","1","2","1,0.5,0.5,0.5,1,0.5,0.5,0.5,1","0.5,1,0.5,0.5,0.5,1,1,0.5,0.5","3","",""
"","html-keyboard-response","279","128770","0.0-279.0","3FQ5JJ512MAGCDGM3EGYJO0XOAQKND","A1FMVUYV72MUO3","3JAOYN9IHLO1QRHB9NZI45P11ZM33A","","null","<img src=""img/land3.png"" style=""width:200px; border:14px solid green;"">","null","","","","","","","","","",""
"","image-keyboard-response","280","129475","0.0-280.0","3FQ5JJ512MAGCDGM3EGYJO0XOAQKND","A1FMVUYV72MUO3","3JAOYN9IHLO1QRHB9NZI45P11ZM33A","","703.2999999821186","img/land6.png","76","705.0999999940395","3","1","2","2","1,0.5,0.5,0.5,1,0.5,0.5,0.5,1","0.5,1,0.5,0.5,0.5,1,1,0.5,0.5","3","",""
"","html-keyboard-response","281","129777","0.0-281.0","3FQ5JJ512MAGCDGM3EGYJO0XOAQKND","A1FMVUYV72MUO3","3JAOYN9IHLO1QRHB9NZI45P11ZM33A","","null","<img src=""img/land6.png"" style=""width:200px; border:14px solid green;"">","null","","","","","","","","","",""
"","image-keyboard-response","282","130235","0.0-282.0","3FQ5JJ512MAGCDGM3EGYJO0XOAQKND","A1FMVUYV72MUO3","3JAOYN9IHLO1QRHB9NZI45P11ZM33A","","455.5","img/land3.png","75","457","2","1","1","2","1,0.5,0.5,0.5,1,0.5,0.5,0.5,1","0.5,1,0.5,0.5,0.5,1,1,0.5,0.5","3","",""
"","html-keyboard-response","283","130538","0.0-283.0","3FQ5JJ512MAGCDGM3EGYJO0XOAQKND","A1FMVUYV72MUO3","3JAOYN9IHLO1QRHB9NZI45P11ZM33A","","null","<img src=""img/land3.png"" style=""width:200px; border:14px solid green;"">","null","","","","","","","","","",""
"","image-keyboard-response","284","130955","0.0-284.0","3FQ5JJ512MAGCDGM3EGYJO0XOAQKND","A1FMVUYV72MUO3","3JAOYN9IHLO1QRHB9NZI45P11ZM33A","","415.09999999403954","img/land3.png","75","416.80000001192093","2","1","1","2","1,0.5,0.5,0.5,1,0.5,0.5,0.5,1","0.5,1,0.5,0.5,0.5,1,1,0.5,0.5","3","",""
"","html-keyboard-response","285","131258","0.0-285.0","3FQ5JJ512MAGCDGM3EGYJO0XOAQKND","A1FMVUYV72MUO3","3JAOYN9IHLO1QRHB9NZI45P11ZM33A","","null","<img src=""img/land3.png"" style=""width:200px; border:14px solid green;"">","null","","","","","","","","","",""
"","image-keyboard-response","286","131658","0.0-286.0","3FQ5JJ512MAGCDGM3EGYJO0XOAQKND","A1FMVUYV72MUO3","3JAOYN9IHLO1QRHB9NZI45P11ZM33A","","398.7000000178814","img/land3.png","75","400.5","2","1","1","2","1,0.5,0.5,0.5,1,0.5,0.5,0.5,1","0.5,1,0.5,0.5,0.5,1,1,0.5,0.5","3","",""
"","html-keyboard-response","287","131961","0.0-287.0","3FQ5JJ512MAGCDGM3EGYJO0XOAQKND","A1FMVUYV72MUO3","3JAOYN9IHLO1QRHB9NZI45P11ZM33A","","null","<img src=""img/land3.png"" style=""width:200px; border:14px solid green;"">","null","","","","","","","","","",""
"","image-keyboard-response","288","132338","0.0-288.0","3FQ5JJ512MAGCDGM3EGYJO0XOAQKND","A1FMVUYV72MUO3","3JAOYN9IHLO1QRHB9NZI45P11ZM33A","","375.09999999403954","img/land3.png","75","376.7999999821186","2","1","1","2","1,0.5,0.5,0.5,1,0.5,0.5,0.5,1","0.5,1,0.5,0.5,0.5,1,1,0.5,0.5","3","",""
"","html-keyboard-response","289","132641","0.0-289.0","3FQ5JJ512MAGCDGM3EGYJO0XOAQKND","A1FMVUYV72MUO3","3JAOYN9IHLO1QRHB9NZI45P11ZM33A","","null","<img src=""img/land3.png"" style=""width:200px; border:14px solid green;"">","null","","","","","","","","","",""
"","image-keyboard-response","290","133356","0.0-290.0","3FQ5JJ512MAGCDGM3EGYJO0XOAQKND","A1FMVUYV72MUO3","3JAOYN9IHLO1QRHB9NZI45P11ZM33A","","712.0999999940395","img/land1.png","74","714.1999999880791","1","1","3","2","1,0.5,0.5,0.5,1,0.5,0.5,0.5,1","0.5,1,0.5,0.5,0.5,1,1,0.5,0.5","3","",""
"","html-keyboard-response","291","133660","0.0-291.0","3FQ5JJ512MAGCDGM3EGYJO0XOAQKND","A1FMVUYV72MUO3","3JAOYN9IHLO1QRHB9NZI45P11ZM33A","","null","<img src=""img/land1.png"" style=""width:200px; border:14px solid green;"">","null","","","","","","","","","",""
"","image-keyboard-response","292","134186","0.0-292.0","3FQ5JJ512MAGCDGM3EGYJO0XOAQKND","A1FMVUYV72MUO3","3JAOYN9IHLO1QRHB9NZI45P11ZM33A","","523.5","img/land1.png","74","526","1","1","3","2","1,0.5,0.5,0.5,1,0.5,0.5,0.5,1","0.5,1,0.5,0.5,0.5,1,1,0.5,0.5","3","",""
"","html-keyboard-response","293","134489","0.0-293.0","3FQ5JJ512MAGCDGM3EGYJO0XOAQKND","A1FMVUYV72MUO3","3JAOYN9IHLO1QRHB9NZI45P11ZM33A","","null","<img src=""img/land1.png"" style=""width:200px; border:14px solid green;"">","null","","","","","","","","","",""
"","image-keyboard-response","294","135107","0.0-294.0","3FQ5JJ512MAGCDGM3EGYJO0XOAQKND","A1FMVUYV72MUO3","3JAOYN9IHLO1QRHB9NZI45P11ZM33A","","614.4000000059605","img/land3.png","75","617.6999999880791","2","1","1","2","1,0.5,0.5,0.5,1,0.5,0.5,0.5,1","0.5,1,0.5,0.5,0.5,1,1,0.5,0.5","3","",""
"","html-keyboard-response","295","135415","0.0-295.0","3FQ5JJ512MAGCDGM3EGYJO0XOAQKND","A1FMVUYV72MUO3","3JAOYN9IHLO1QRHB9NZI45P11ZM33A","","null","<img src=""img/land3.png"" style=""width:200px; border:14px solid green;"">","null","","","","","","","","","",""
"","image-keyboard-response","296","136012","0.0-296.0","3FQ5JJ512MAGCDGM3EGYJO0XOAQKND","A1FMVUYV72MUO3","3JAOYN9IHLO1QRHB9NZI45P11ZM33A","","594.5","img/land6.png","76","596.5999999940395","3","1","2","2","1,0.5,0.5,0.5,1,0.5,0.5,0.5,1","0.5,1,0.5,0.5,0.5,1,1,0.5,0.5","3","",""
"","html-keyboard-response","297","136316","0.0-297.0","3FQ5JJ512MAGCDGM3EGYJO0XOAQKND","A1FMVUYV72MUO3","3JAOYN9IHLO1QRHB9NZI45P11ZM33A","","null","<img src=""img/land6.png"" style=""width:200px; border:14px solid green;"">","null","","","","","","","","","",""
"","image-keyboard-response","298","137027","0.0-298.0","3FQ5JJ512MAGCDGM3EGYJO0XOAQKND","A1FMVUYV72MUO3","3JAOYN9IHLO1QRHB9NZI45P11ZM33A","","708","img/land1.png","74","710.6999999880791","1","1","3","2","1,0.5,0.5,0.5,1,0.5,0.5,0.5,1","0.5,1,0.5,0.5,0.5,1,1,0.5,0.5","3","",""
"","html-keyboard-response","299","137331","0.0-299.0","3FQ5JJ512MAGCDGM3EGYJO0XOAQKND","A1FMVUYV72MUO3","3JAOYN9IHLO1QRHB9NZI45P11ZM33A","","null","<img src=""img/land1.png"" style=""width:200px; border:14px solid green;"">","null","","","","","","","","","",""
"","image-keyboard-response","300","137777","0.0-300.0","3FQ5JJ512MAGCDGM3EGYJO0XOAQKND","A1FMVUYV72MUO3","3JAOYN9IHLO1QRHB9NZI45P11ZM33A","","444.2999999821186","img/land1.png","74","445.90000000596046","1","1","3","2","1,0.5,0.5,0.5,1,0.5,0.5,0.5,1","0.5,1,0.5,0.5,0.5,1,1,0.5,0.5","3","",""
"","html-keyboard-response","301","138080","0.0-301.0","3FQ5JJ512MAGCDGM3EGYJO0XOAQKND","A1FMVUYV72MUO3","3JAOYN9IHLO1QRHB9NZI45P11ZM33A","","null","<img src=""img/land1.png"" style=""width:200px; border:14px solid green;"">","null","","","","","","","","","",""
"","image-keyboard-response","302","139513","0.0-302.0","3FQ5JJ512MAGCDGM3EGYJO0XOAQKND","A1FMVUYV72MUO3","3JAOYN9IHLO1QRHB9NZI45P11ZM33A","","1431.7000000178814","img/land5.png","75","1433.4000000059605","2","1","2","1","1,0.5,0.5,0.5,1,0.5,0.5,0.5,1","1,0.5,0.5,0.5,1,0.5,0.5,0.5,1","1","",""
"","html-keyboard-response","303","139816","0.0-303.0","3FQ5JJ512MAGCDGM3EGYJO0XOAQKND","A1FMVUYV72MUO3","3JAOYN9IHLO1QRHB9NZI45P11ZM33A","","null","<img src=""img/land5.png"" style=""width:200px; border:14px solid green;"">","null","","","","","","","","","",""
"","image-keyboard-response","304","141113","0.0-304.0","3FQ5JJ512MAGCDGM3EGYJO0XOAQKND","A1FMVUYV72MUO3","3JAOYN9IHLO1QRHB9NZI45P11ZM33A","","1294.5999999940395","img/land4.png","76","1296.2999999821186","3","1","1","1","1,0.5,0.5,0.5,1,0.5,0.5,0.5,1","1,0.5,0.5,0.5,1,0.5,0.5,0.5,1","1","",""
"","html-keyboard-response","305","141416","0.0-305.0","3FQ5JJ512MAGCDGM3EGYJO0XOAQKND","A1FMVUYV72MUO3","3JAOYN9IHLO1QRHB9NZI45P11ZM33A","","null","<img src=""img/land4.png"" style=""width:200px; border:14px solid green;"">","null","","","","","","","","","",""
"","image-keyboard-response","306","142410","0.0-306.0","3FQ5JJ512MAGCDGM3EGYJO0XOAQKND","A1FMVUYV72MUO3","3JAOYN9IHLO1QRHB9NZI45P11ZM33A","","990.5999999940395","img/land2.png","74","993.1999999880791","1","0","3","1","1,0.5,0.5,0.5,1,0.5,0.5,0.5,1","1,0.5,0.5,0.5,1,0.5,0.5,0.5,1","1","",""
"","html-keyboard-response","307","142716","0.0-307.0","3FQ5JJ512MAGCDGM3EGYJO0XOAQKND","A1FMVUYV72MUO3","3JAOYN9IHLO1QRHB9NZI45P11ZM33A","","null","<img src=""img/land2.png"" style=""width:200px;border:14px solid red;"">","null","","","","","","","","","",""
"","image-keyboard-response","308","143705","0.0-308.0","3FQ5JJ512MAGCDGM3EGYJO0XOAQKND","A1FMVUYV72MUO3","3JAOYN9IHLO1QRHB9NZI45P11ZM33A","","986.3000000119209","img/land4.png","76","988.5999999940395","3","0","1","1","1,0.5,0.5,0.5,1,0.5,0.5,0.5,1","1,0.5,0.5,0.5,1,0.5,0.5,0.5,1","1","",""
"","html-keyboard-response","309","144008","0.0-309.0","3FQ5JJ512MAGCDGM3EGYJO0XOAQKND","A1FMVUYV72MUO3","3JAOYN9IHLO1QRHB9NZI45P11ZM33A","","null","<img src=""img/land4.png"" style=""width:200px;border:14px solid red;"">","null","","","","","","","","","",""
"","image-keyboard-response","310","144721","0.0-310.0","3FQ5JJ512MAGCDGM3EGYJO0XOAQKND","A1FMVUYV72MUO3","3JAOYN9IHLO1QRHB9NZI45P11ZM33A","","711.1999999880791","img/land4.png","75","713.2000000178814","2","0","1","1","1,0.5,0.5,0.5,1,0.5,0.5,0.5,1","1,0.5,0.5,0.5,1,0.5,0.5,0.5,1","1","",""
"","html-keyboard-response","311","145025","0.0-311.0","3FQ5JJ512MAGCDGM3EGYJO0XOAQKND","A1FMVUYV72MUO3","3JAOYN9IHLO1QRHB9NZI45P11ZM33A","","null","<img src=""img/land4.png"" style=""width:200px;border:14px solid red;"">","null","","","","","","","","","",""
"","image-keyboard-response","312","145392","0.0-312.0","3FQ5JJ512MAGCDGM3EGYJO0XOAQKND","A1FMVUYV72MUO3","3JAOYN9IHLO1QRHB9NZI45P11ZM33A","","365.5","img/land4.png","74","367.19999998807907","1","1","1","1","1,0.5,0.5,0.5,1,0.5,0.5,0.5,1","1,0.5,0.5,0.5,1,0.5,0.5,0.5,1","1","",""
"","html-keyboard-response","313","145696","0.0-313.0","3FQ5JJ512MAGCDGM3EGYJO0XOAQKND","A1FMVUYV72MUO3","3JAOYN9IHLO1QRHB9NZI45P11ZM33A","","null","<img src=""img/land4.png"" style=""width:200px; border:14px solid green;"">","null","","","","","","","","","",""
"","image-keyboard-response","314","146593","0.0-314.0","3FQ5JJ512MAGCDGM3EGYJO0XOAQKND","A1FMVUYV72MUO3","3JAOYN9IHLO1QRHB9NZI45P11ZM33A","","893.6999999880791","img/land5.png","74","896.0999999940395","1","1","2","1","1,0.5,0.5,0.5,1,0.5,0.5,0.5,1","1,0.5,0.5,0.5,1,0.5,0.5,0.5,1","1","",""
"","html-keyboard-response","315","146896","0.0-315.0","3FQ5JJ512MAGCDGM3EGYJO0XOAQKND","A1FMVUYV72MUO3","3JAOYN9IHLO1QRHB9NZI45P11ZM33A","","null","<img src=""img/land5.png"" style=""width:200px; border:14px solid green;"">","null","","","","","","","","","",""
"","image-keyboard-response","316","147233","0.0-316.0","3FQ5JJ512MAGCDGM3EGYJO0XOAQKND","A1FMVUYV72MUO3","3JAOYN9IHLO1QRHB9NZI45P11ZM33A","","334.40000000596046","img/land5.png","74","336.2000000178814","1","0","2","1","1,0.5,0.5,0.5,1,0.5,0.5,0.5,1","1,0.5,0.5,0.5,1,0.5,0.5,0.5,1","1","",""
"","html-keyboard-response","317","147536","0.0-317.0","3FQ5JJ512MAGCDGM3EGYJO0XOAQKND","A1FMVUYV72MUO3","3JAOYN9IHLO1QRHB9NZI45P11ZM33A","","null","<img src=""img/land5.png"" style=""width:200px;border:14px solid red;"">","null","","","","","","","","","",""
"","image-keyboard-response","318","148320","0.0-318.0","3FQ5JJ512MAGCDGM3EGYJO0XOAQKND","A1FMVUYV72MUO3","3JAOYN9IHLO1QRHB9NZI45P11ZM33A","","782.4000000059605","img/land5.png","74","784.1999999880791","1","0","2","1","1,0.5,0.5,0.5,1,0.5,0.5,0.5,1","1,0.5,0.5,0.5,1,0.5,0.5,0.5,1","1","",""
"","html-keyboard-response","319","148635","0.0-319.0","3FQ5JJ512MAGCDGM3EGYJO0XOAQKND","A1FMVUYV72MUO3","3JAOYN9IHLO1QRHB9NZI45P11ZM33A","","null","<img src=""img/land5.png"" style=""width:200px;border:14px solid red;"">","null","","","","","","","","","",""
"","image-keyboard-response","320","149689","0.0-320.0","3FQ5JJ512MAGCDGM3EGYJO0XOAQKND","A1FMVUYV72MUO3","3JAOYN9IHLO1QRHB9NZI45P11ZM33A","","1051","img/land4.png","74","1053.300000011921","1","1","1","1","1,0.5,0.5,0.5,1,0.5,0.5,0.5,1","1,0.5,0.5,0.5,1,0.5,0.5,0.5,1","1","",""
"","html-keyboard-response","321","149994","0.0-321.0","3FQ5JJ512MAGCDGM3EGYJO0XOAQKND","A1FMVUYV72MUO3","3JAOYN9IHLO1QRHB9NZI45P11ZM33A","","null","<img src=""img/land4.png"" style=""width:200px; border:14px solid green;"">","null","","","","","","","","","",""
"","image-keyboard-response","322","150417","0.0-322.0","3FQ5JJ512MAGCDGM3EGYJO0XOAQKND","A1FMVUYV72MUO3","3JAOYN9IHLO1QRHB9NZI45P11ZM33A","","420","img/land4.png","74","422.69999998807907","1","1","1","1","1,0.5,0.5,0.5,1,0.5,0.5,0.5,1","1,0.5,0.5,0.5,1,0.5,0.5,0.5,1","1","",""
"","html-keyboard-response","323","150720","0.0-323.0","3FQ5JJ512MAGCDGM3EGYJO0XOAQKND","A1FMVUYV72MUO3","3JAOYN9IHLO1QRHB9NZI45P11ZM33A","","null","<img src=""img/land4.png"" style=""width:200px; border:14px solid green;"">","null","","","","","","","","","",""
"","image-keyboard-response","324","151552","0.0-324.0","3FQ5JJ512MAGCDGM3EGYJO0XOAQKND","A1FMVUYV72MUO3","3JAOYN9IHLO1QRHB9NZI45P11ZM33A","","829.6999999880791","img/land2.png","76","831.5999999940395","3","1","3","1","1,0.5,0.5,0.5,1,0.5,0.5,0.5,1","1,0.5,0.5,0.5,1,0.5,0.5,0.5,1","1","",""
"","html-keyboard-response","325","151856","0.0-325.0","3FQ5JJ512MAGCDGM3EGYJO0XOAQKND","A1FMVUYV72MUO3","3JAOYN9IHLO1QRHB9NZI45P11ZM33A","","null","<img src=""img/land2.png"" style=""width:200px; border:14px solid green;"">","null","","","","","","","","","",""
"","image-keyboard-response","326","152625","0.0-326.0","3FQ5JJ512MAGCDGM3EGYJO0XOAQKND","A1FMVUYV72MUO3","3JAOYN9IHLO1QRHB9NZI45P11ZM33A","","767.3999999761581","img/land5.png","75","769.2000000178814","2","1","2","1","1,0.5,0.5,0.5,1,0.5,0.5,0.5,1","1,0.5,0.5,0.5,1,0.5,0.5,0.5,1","1","",""
"","html-keyboard-response","327","152928","0.0-327.0","3FQ5JJ512MAGCDGM3EGYJO0XOAQKND","A1FMVUYV72MUO3","3JAOYN9IHLO1QRHB9NZI45P11ZM33A","","null","<img src=""img/land5.png"" style=""width:200px; border:14px solid green;"">","null","","","","","","","","","",""
"","image-keyboard-response","328","153704","0.0-328.0","3FQ5JJ512MAGCDGM3EGYJO0XOAQKND","A1FMVUYV72MUO3","3JAOYN9IHLO1QRHB9NZI45P11ZM33A","","773.7999999821186","img/land4.png","76","775.5","3","1","1","1","1,0.5,0.5,0.5,1,0.5,0.5,0.5,1","1,0.5,0.5,0.5,1,0.5,0.5,0.5,1","1","",""
"","html-keyboard-response","329","154008","0.0-329.0","3FQ5JJ512MAGCDGM3EGYJO0XOAQKND","A1FMVUYV72MUO3","3JAOYN9IHLO1QRHB9NZI45P11ZM33A","","null","<img src=""img/land4.png"" style=""width:200px; border:14px solid green;"">","null","","","","","","","","","",""
"","image-keyboard-response","330","154408","0.0-330.0","3FQ5JJ512MAGCDGM3EGYJO0XOAQKND","A1FMVUYV72MUO3","3JAOYN9IHLO1QRHB9NZI45P11ZM33A","","397","img/land4.png","76","399.59999999403954","3","1","1","1","1,0.5,0.5,0.5,1,0.5,0.5,0.5,1","1,0.5,0.5,0.5,1,0.5,0.5,0.5,1","1","",""
"","html-keyboard-response","331","154711","0.0-331.0","3FQ5JJ512MAGCDGM3EGYJO0XOAQKND","A1FMVUYV72MUO3","3JAOYN9IHLO1QRHB9NZI45P11ZM33A","","null","<img src=""img/land4.png"" style=""width:200px; border:14px solid green;"">","null","","","","","","","","","",""
"","image-keyboard-response","332","155488","0.0-332.0","3FQ5JJ512MAGCDGM3EGYJO0XOAQKND","A1FMVUYV72MUO3","3JAOYN9IHLO1QRHB9NZI45P11ZM33A","","774.5","img/land2.png","74","776.5999999940395","1","1","3","1","1,0.5,0.5,0.5,1,0.5,0.5,0.5,1","1,0.5,0.5,0.5,1,0.5,0.5,0.5,1","1","",""
"","html-keyboard-response","333","155801","0.0-333.0","3FQ5JJ512MAGCDGM3EGYJO0XOAQKND","A1FMVUYV72MUO3","3JAOYN9IHLO1QRHB9NZI45P11ZM33A","","null","<img src=""img/land2.png"" style=""width:200px; border:14px solid green;"">","null","","","","","","","","","",""
"","image-keyboard-response","334","156255","0.0-334.0","3FQ5JJ512MAGCDGM3EGYJO0XOAQKND","A1FMVUYV72MUO3","3JAOYN9IHLO1QRHB9NZI45P11ZM33A","","452.2999999821186","img/land2.png","74","453.90000000596046","1","0","3","1","1,0.5,0.5,0.5,1,0.5,0.5,0.5,1","1,0.5,0.5,0.5,1,0.5,0.5,0.5,1","1","",""
"","html-keyboard-response","335","156558","0.0-335.0","3FQ5JJ512MAGCDGM3EGYJO0XOAQKND","A1FMVUYV72MUO3","3JAOYN9IHLO1QRHB9NZI45P11ZM33A","","null","<img src=""img/land2.png"" style=""width:200px;border:14px solid red;"">","null","","","","","","","","","",""
"","image-keyboard-response","336","157375","0.0-336.0","3FQ5JJ512MAGCDGM3EGYJO0XOAQKND","A1FMVUYV72MUO3","3JAOYN9IHLO1QRHB9NZI45P11ZM33A","","815.5","img/land5.png","74","817.0999999940395","1","1","2","1","1,0.5,0.5,0.5,1,0.5,0.5,0.5,1","1,0.5,0.5,0.5,1,0.5,0.5,0.5,1","1","",""
"","html-keyboard-response","337","157678","0.0-337.0","3FQ5JJ512MAGCDGM3EGYJO0XOAQKND","A1FMVUYV72MUO3","3JAOYN9IHLO1QRHB9NZI45P11ZM33A","","null","<img src=""img/land5.png"" style=""width:200px; border:14px solid green;"">","null","","","","","","","","","",""
"","image-keyboard-response","338","158080","0.0-338.0","3FQ5JJ512MAGCDGM3EGYJO0XOAQKND","A1FMVUYV72MUO3","3JAOYN9IHLO1QRHB9NZI45P11ZM33A","","398.2999999821186","img/land5.png","74","401","1","0","2","1","1,0.5,0.5,0.5,1,0.5,0.5,0.5,1","1,0.5,0.5,0.5,1,0.5,0.5,0.5,1","1","",""
"","html-keyboard-response","339","158384","0.0-339.0","3FQ5JJ512MAGCDGM3EGYJO0XOAQKND","A1FMVUYV72MUO3","3JAOYN9IHLO1QRHB9NZI45P11ZM33A","","null","<img src=""img/land5.png"" style=""width:200px;border:14px solid red;"">","null","","","","","","","","","",""
"","image-keyboard-response","340","159103","0.0-340.0","3FQ5JJ512MAGCDGM3EGYJO0XOAQKND","A1FMVUYV72MUO3","3JAOYN9IHLO1QRHB9NZI45P11ZM33A","","716.8000000119209","img/land2.png","75","718.5999999940395","2","1","3","1","1,0.5,0.5,0.5,1,0.5,0.5,0.5,1","1,0.5,0.5,0.5,1,0.5,0.5,0.5,1","1","",""
"","html-keyboard-response","341","159406","0.0-341.0","3FQ5JJ512MAGCDGM3EGYJO0XOAQKND","A1FMVUYV72MUO3","3JAOYN9IHLO1QRHB9NZI45P11ZM33A","","null","<img src=""img/land2.png"" style=""width:200px; border:14px solid green;"">","null","","","","","","","","","",""
"","image-keyboard-response","342","160143","0.0-342.0","3FQ5JJ512MAGCDGM3EGYJO0XOAQKND","A1FMVUYV72MUO3","3JAOYN9IHLO1QRHB9NZI45P11ZM33A","","735.1999999880791","img/land5.png","74","736.9000000059605","1","1","2","1","1,0.5,0.5,0.5,1,0.5,0.5,0.5,1","1,0.5,0.5,0.5,1,0.5,0.5,0.5,1","1","",""
"","html-keyboard-response","343","160448","0.0-343.0","3FQ5JJ512MAGCDGM3EGYJO0XOAQKND","A1FMVUYV72MUO3","3JAOYN9IHLO1QRHB9NZI45P11ZM33A","","null","<img src=""img/land5.png"" style=""width:200px; border:14px solid green;"">","null","","","","","","","","","",""
"","image-keyboard-response","344","161119","0.0-344.0","3FQ5JJ512MAGCDGM3EGYJO0XOAQKND","A1FMVUYV72MUO3","3JAOYN9IHLO1QRHB9NZI45P11ZM33A","","667.5999999940395","img/land2.png","75","669.9000000059605","2","1","3","1","1,0.5,0.5,0.5,1,0.5,0.5,0.5,1","1,0.5,0.5,0.5,1,0.5,0.5,0.5,1","1","",""
"","html-keyboard-response","345","161422","0.0-345.0","3FQ5JJ512MAGCDGM3EGYJO0XOAQKND","A1FMVUYV72MUO3","3JAOYN9IHLO1QRHB9NZI45P11ZM33A","","null","<img src=""img/land2.png"" style=""width:200px; border:14px solid green;"">","null","","","","","","","","","",""
"","image-keyboard-response","346","161902","0.0-346.0","3FQ5JJ512MAGCDGM3EGYJO0XOAQKND","A1FMVUYV72MUO3","3JAOYN9IHLO1QRHB9NZI45P11ZM33A","","477.2000000178814","img/land2.png","74","479.80000001192093","1","0","3","1","1,0.5,0.5,0.5,1,0.5,0.5,0.5,1","1,0.5,0.5,0.5,1,0.5,0.5,0.5,1","1","",""
"","html-keyboard-response","347","162206","0.0-347.0","3FQ5JJ512MAGCDGM3EGYJO0XOAQKND","A1FMVUYV72MUO3","3JAOYN9IHLO1QRHB9NZI45P11ZM33A","","null","<img src=""img/land2.png"" style=""width:200px;border:14px solid red;"">","null","","","","","","","","","",""
"","image-keyboard-response","348","162591","0.0-348.0","3FQ5JJ512MAGCDGM3EGYJO0XOAQKND","A1FMVUYV72MUO3","3JAOYN9IHLO1QRHB9NZI45P11ZM33A","","383","img/land2.png","75","384.90000000596046","2","1","3","1","1,0.5,0.5,0.5,1,0.5,0.5,0.5,1","1,0.5,0.5,0.5,1,0.5,0.5,0.5,1","1","",""
"","html-keyboard-response","349","162894","0.0-349.0","3FQ5JJ512MAGCDGM3EGYJO0XOAQKND","A1FMVUYV72MUO3","3JAOYN9IHLO1QRHB9NZI45P11ZM33A","","null","<img src=""img/land2.png"" style=""width:200px; border:14px solid green;"">","null","","","","","","","","","",""
"","image-keyboard-response","350","163695","0.0-350.0","3FQ5JJ512MAGCDGM3EGYJO0XOAQKND","A1FMVUYV72MUO3","3JAOYN9IHLO1QRHB9NZI45P11ZM33A","","798.7999999821186","img/land5.png","74","800.6999999880791","1","0","2","1","1,0.5,0.5,0.5,1,0.5,0.5,0.5,1","1,0.5,0.5,0.5,1,0.5,0.5,0.5,1","1","",""
"","html-keyboard-response","351","163998","0.0-351.0","3FQ5JJ512MAGCDGM3EGYJO0XOAQKND","A1FMVUYV72MUO3","3JAOYN9IHLO1QRHB9NZI45P11ZM33A","","null","<img src=""img/land5.png"" style=""width:200px;border:14px solid red;"">","null","","","","","","","","","",""
"","image-keyboard-response","352","164518","0.0-352.0","3FQ5JJ512MAGCDGM3EGYJO0XOAQKND","A1FMVUYV72MUO3","3JAOYN9IHLO1QRHB9NZI45P11ZM33A","","518.0999999940395","img/land5.png","74","519.7999999821186","1","1","2","1","1,0.5,0.5,0.5,1,0.5,0.5,0.5,1","1,0.5,0.5,0.5,1,0.5,0.5,0.5,1","1","",""
"","html-keyboard-response","353","164821","0.0-353.0","3FQ5JJ512MAGCDGM3EGYJO0XOAQKND","A1FMVUYV72MUO3","3JAOYN9IHLO1QRHB9NZI45P11ZM33A","","null","<img src=""img/land5.png"" style=""width:200px; border:14px solid green;"">","null","","","","","","","","","",""
"","image-keyboard-response","354","165230","0.0-354.0","3FQ5JJ512MAGCDGM3EGYJO0XOAQKND","A1FMVUYV72MUO3","3JAOYN9IHLO1QRHB9NZI45P11ZM33A","","406.5","img/land5.png","74","408.40000000596046","1","0","2","1","1,0.5,0.5,0.5,1,0.5,0.5,0.5,1","1,0.5,0.5,0.5,1,0.5,0.5,0.5,1","1","",""
"","html-keyboard-response","355","165533","0.0-355.0","3FQ5JJ512MAGCDGM3EGYJO0XOAQKND","A1FMVUYV72MUO3","3JAOYN9IHLO1QRHB9NZI45P11ZM33A","","null","<img src=""img/land5.png"" style=""width:200px;border:14px solid red;"">","null","","","","","","","","","",""
"","image-keyboard-response","356","166198","0.0-356.0","3FQ5JJ512MAGCDGM3EGYJO0XOAQKND","A1FMVUYV72MUO3","3JAOYN9IHLO1QRHB9NZI45P11ZM33A","","663.3000000119209","img/land4.png","74","664.9000000059605","1","1","1","1","1,0.5,0.5,0.5,1,0.5,0.5,0.5,1","1,0.5,0.5,0.5,1,0.5,0.5,0.5,1","1","",""
"","html-keyboard-response","357","166508","0.0-357.0","3FQ5JJ512MAGCDGM3EGYJO0XOAQKND","A1FMVUYV72MUO3","3JAOYN9IHLO1QRHB9NZI45P11ZM33A","","null","<img src=""img/land4.png"" style=""width:200px; border:14px solid green;"">","null","","","","","","","","","",""
"","image-keyboard-response","358","166990","0.0-358.0","3FQ5JJ512MAGCDGM3EGYJO0XOAQKND","A1FMVUYV72MUO3","3JAOYN9IHLO1QRHB9NZI45P11ZM33A","","479.59999999403954","img/land2.png","74","481.30000001192093","1","1","3","1","1,0.5,0.5,0.5,1,0.5,0.5,0.5,1","1,0.5,0.5,0.5,1,0.5,0.5,0.5,1","1","",""
"","html-keyboard-response","359","167294","0.0-359.0","3FQ5JJ512MAGCDGM3EGYJO0XOAQKND","A1FMVUYV72MUO3","3JAOYN9IHLO1QRHB9NZI45P11ZM33A","","null","<img src=""img/land2.png"" style=""width:200px; border:14px solid green;"">","null","","","","","","","","","",""
"","image-keyboard-response","360","167565","0.0-360.0","3FQ5JJ512MAGCDGM3EGYJO0XOAQKND","A1FMVUYV72MUO3","3JAOYN9IHLO1QRHB9NZI45P11ZM33A","","269","img/land4.png","74","270.7999999821186","1","1","1","1","1,0.5,0.5,0.5,1,0.5,0.5,0.5,1","1,0.5,0.5,0.5,1,0.5,0.5,0.5,1","1","",""
"","html-keyboard-response","361","167869","0.0-361.0","3FQ5JJ512MAGCDGM3EGYJO0XOAQKND","A1FMVUYV72MUO3","3JAOYN9IHLO1QRHB9NZI45P11ZM33A","","null","<img src=""img/land4.png"" style=""width:200px; border:14px solid green;"">","null","","","","","","","","","",""
