"success","trial_type","trial_index","time_elapsed","internal_node_id","assignmentID","mturkID","hitID","view_history","rt","stimulus","key_press","reactionTime","a","r","s","cond","reward_cond","reward_cond_actual","reward_matrix_idx","responses","question_order"
"true","fullscreen","0","3753","0.0-0.0","39LOEL67OTRPD8LBC6ZGK5T0P3O381","A1H5TB600ATGFS","3MXX6RQ9EVRTFC527Z18RDK8KW6P4R","","","","","","","","","","","","","",""
"","instructions","1","15387","0.0-1.0","39LOEL67OTRPD8LBC6ZGK5T0P3O381","A1H5TB600ATGFS","3MXX6RQ9EVRTFC527Z18RDK8KW6P4R","[{""page_index"":0,""viewing_time"":1003.2999999523163},{""page_index"":1,""viewing_time"":1786},{""page_index"":2,""viewing_time"":1081.8000000715256},{""page_index"":3,""viewing_time"":2314.399999976158},{""page_index"":4,""viewing_time"":1818.6999999284744},{""page_index"":5,""viewing_time"":2242.5},{""page_index"":6,""viewing_time"":1385.6000000238419}]","11632.899999976158","","","","","","","","","","","",""
"","image-keyboard-response","2","16229","0.0-2.0","39LOEL67OTRPD8LBC6ZGK5T0P3O381","A1H5TB600ATGFS","3MXX6RQ9EVRTFC527Z18RDK8KW6P4R","","840.8999999761581","img/land5.png","74","842.5","1","0","2","1","0.8,0.2,0.2,0.2,0.8,0.2,0.2,0.2,0.8","0.8,0.2,0.2,0.2,0.8,0.2,0.2,0.2,0.8","1","",""
"","html-keyboard-response","3","16540","0.0-3.0","39LOEL67OTRPD8LBC6ZGK5T0P3O381","A1H5TB600ATGFS","3MXX6RQ9EVRTFC527Z18RDK8KW6P4R","","null","<img src=""img/land5.png"" style=""width:200px;border:14px solid red;"">","null","","","","","","","","","",""
"","image-keyboard-response","4","16719","0.0-4.0","39LOEL67OTRPD8LBC6ZGK5T0P3O381","A1H5TB600ATGFS","3MXX6RQ9EVRTFC527Z18RDK8KW6P4R","","178.20000004768372","img/land5.png","76","179","3","0","2","1","0.8,0.2,0.2,0.2,0.8,0.2,0.2,0.2,0.8","0.8,0.2,0.2,0.2,0.8,0.2,0.2,0.2,0.8","1","",""
"","html-keyboard-response","5","17032","0.0-5.0","39LOEL67OTRPD8LBC6ZGK5T0P3O381","A1H5TB600ATGFS","3MXX6RQ9EVRTFC527Z18RDK8KW6P4R","","null","<img src=""img/land5.png"" style=""width:200px;border:14px solid red;"">","null","","","","","","","","","",""
"","image-keyboard-response","6","17051","0.0-6.0","39LOEL67OTRPD8LBC6ZGK5T0P3O381","A1H5TB600ATGFS","3MXX6RQ9EVRTFC527Z18RDK8KW6P4R","","17.300000071525574","img/land6.png","75","18.100000023841858","2","1","3","1","0.8,0.2,0.2,0.2,0.8,0.2,0.2,0.2,0.8","0.8,0.2,0.2,0.2,0.8,0.2,0.2,0.2,0.8","1","",""
"","html-keyboard-response","7","17358","0.0-7.0","39LOEL67OTRPD8LBC6ZGK5T0P3O381","A1H5TB600ATGFS","3MXX6RQ9EVRTFC527Z18RDK8KW6P4R","","null","<img src=""img/land6.png"" style=""width:200px; border:14px solid green;"">","null","","","","","","","","","",""
"","image-keyboard-response","8","17545","0.0-8.0","39LOEL67OTRPD8LBC6ZGK5T0P3O381","A1H5TB600ATGFS","3MXX6RQ9EVRTFC527Z18RDK8KW6P4R","","185.80000007152557","img/land5.png","75","186.70000004768372","2","0","2","1","0.8,0.2,0.2,0.2,0.8,0.2,0.2,0.2,0.8","0.8,0.2,0.2,0.2,0.8,0.2,0.2,0.2,0.8","1","",""
"","html-keyboard-response","9","17856","0.0-9.0","39LOEL67OTRPD8LBC6ZGK5T0P3O381","A1H5TB600ATGFS","3MXX6RQ9EVRTFC527Z18RDK8KW6P4R","","null","<img src=""img/land5.png"" style=""width:200px;border:14px solid red;"">","null","","","","","","","","","",""
"","image-keyboard-response","10","18026","0.0-10.0","39LOEL67OTRPD8LBC6ZGK5T0P3O381","A1H5TB600ATGFS","3MXX6RQ9EVRTFC527Z18RDK8KW6P4R","","169.10000002384186","img/land5.png","74","170","1","0","2","1","0.8,0.2,0.2,0.2,0.8,0.2,0.2,0.2,0.8","0.8,0.2,0.2,0.2,0.8,0.2,0.2,0.2,0.8","1","",""
"","html-keyboard-response","11","18336","0.0-11.0","39LOEL67OTRPD8LBC6ZGK5T0P3O381","A1H5TB600ATGFS","3MXX6RQ9EVRTFC527Z18RDK8KW6P4R","","null","<img src=""img/land5.png"" style=""width:200px;border:14px solid red;"">","null","","","","","","","","","",""
"","image-keyboard-response","12","18403","0.0-12.0","39LOEL67OTRPD8LBC6ZGK5T0P3O381","A1H5TB600ATGFS","3MXX6RQ9EVRTFC527Z18RDK8KW6P4R","","66.09999990463257","img/land6.png","76","66.89999997615814","3","1","3","1","0.8,0.2,0.2,0.2,0.8,0.2,0.2,0.2,0.8","0.8,0.2,0.2,0.2,0.8,0.2,0.2,0.2,0.8","1","",""
"","html-keyboard-response","13","18712","0.0-13.0","39LOEL67OTRPD8LBC6ZGK5T0P3O381","A1H5TB600ATGFS","3MXX6RQ9EVRTFC527Z18RDK8KW6P4R","","null","<img src=""img/land6.png"" style=""width:200px; border:14px solid green;"">","null","","","","","","","","","",""
"","image-keyboard-response","14","19196","0.0-14.0","39LOEL67OTRPD8LBC6ZGK5T0P3O381","A1H5TB600ATGFS","3MXX6RQ9EVRTFC527Z18RDK8KW6P4R","","483","img/land1.png","75","483.89999997615814","2","0","1","1","0.8,0.2,0.2,0.2,0.8,0.2,0.2,0.2,0.8","0.8,0.2,0.2,0.2,0.8,0.2,0.2,0.2,0.8","1","",""
"","html-keyboard-response","15","19504","0.0-15.0","39LOEL67OTRPD8LBC6ZGK5T0P3O381","A1H5TB600ATGFS","3MXX6RQ9EVRTFC527Z18RDK8KW6P4R","","null","<img src=""img/land1.png"" style=""width:200px;border:14px solid red;"">","null","","","","","","","","","",""
"","image-keyboard-response","16","19734","0.0-16.0","39LOEL67OTRPD8LBC6ZGK5T0P3O381","A1H5TB600ATGFS","3MXX6RQ9EVRTFC527Z18RDK8KW6P4R","","228.30000007152557","img/land6.png","74","229.20000004768372","1","1","3","1","0.8,0.2,0.2,0.2,0.8,0.2,0.2,0.2,0.8","0.8,0.2,0.2,0.2,0.8,0.2,0.2,0.2,0.8","1","",""
"","html-keyboard-response","17","20049","0.0-17.0","39LOEL67OTRPD8LBC6ZGK5T0P3O381","A1H5TB600ATGFS","3MXX6RQ9EVRTFC527Z18RDK8KW6P4R","","null","<img src=""img/land6.png"" style=""width:200px; border:14px solid green;"">","null","","","","","","","","","",""
"","image-keyboard-response","18","20295","0.0-18.0","39LOEL67OTRPD8LBC6ZGK5T0P3O381","A1H5TB600ATGFS","3MXX6RQ9EVRTFC527Z18RDK8KW6P4R","","245.5","img/land5.png","74","246.39999997615814","1","0","2","1","0.8,0.2,0.2,0.2,0.8,0.2,0.2,0.2,0.8","0.8,0.2,0.2,0.2,0.8,0.2,0.2,0.2,0.8","1","",""
"","html-keyboard-response","19","20608","0.0-19.0","39LOEL67OTRPD8LBC6ZGK5T0P3O381","A1H5TB600ATGFS","3MXX6RQ9EVRTFC527Z18RDK8KW6P4R","","null","<img src=""img/land5.png"" style=""width:200px;border:14px solid red;"">","null","","","","","","","","","",""
"","image-keyboard-response","20","21087","0.0-20.0","39LOEL67OTRPD8LBC6ZGK5T0P3O381","A1H5TB600ATGFS","3MXX6RQ9EVRTFC527Z18RDK8KW6P4R","","478","img/land1.png","74","478.8000000715256","1","1","1","1","0.8,0.2,0.2,0.2,0.8,0.2,0.2,0.2,0.8","0.8,0.2,0.2,0.2,0.8,0.2,0.2,0.2,0.8","1","",""
"","html-keyboard-response","21","21399","0.0-21.0","39LOEL67OTRPD8LBC6ZGK5T0P3O381","A1H5TB600ATGFS","3MXX6RQ9EVRTFC527Z18RDK8KW6P4R","","null","<img src=""img/land1.png"" style=""width:200px; border:14px solid green;"">","null","","","","","","","","","",""
"","image-keyboard-response","22","21836","0.0-22.0","39LOEL67OTRPD8LBC6ZGK5T0P3O381","A1H5TB600ATGFS","3MXX6RQ9EVRTFC527Z18RDK8KW6P4R","","436","img/land5.png","76","436.90000009536743","3","0","2","1","0.8,0.2,0.2,0.2,0.8,0.2,0.2,0.2,0.8","0.8,0.2,0.2,0.2,0.8,0.2,0.2,0.2,0.8","1","",""
"","html-keyboard-response","23","22144","0.0-23.0","39LOEL67OTRPD8LBC6ZGK5T0P3O381","A1H5TB600ATGFS","3MXX6RQ9EVRTFC527Z18RDK8KW6P4R","","null","<img src=""img/land5.png"" style=""width:200px;border:14px solid red;"">","null","","","","","","","","","",""
"","image-keyboard-response","24","22502","0.0-24.0","39LOEL67OTRPD8LBC6ZGK5T0P3O381","A1H5TB600ATGFS","3MXX6RQ9EVRTFC527Z18RDK8KW6P4R","","356.8000000715256","img/land1.png","74","357.7000000476837","1","1","1","1","0.8,0.2,0.2,0.2,0.8,0.2,0.2,0.2,0.8","0.8,0.2,0.2,0.2,0.8,0.2,0.2,0.2,0.8","1","",""
"","html-keyboard-response","25","22815","0.0-25.0","39LOEL67OTRPD8LBC6ZGK5T0P3O381","A1H5TB600ATGFS","3MXX6RQ9EVRTFC527Z18RDK8KW6P4R","","null","<img src=""img/land1.png"" style=""width:200px; border:14px solid green;"">","null","","","","","","","","","",""
"","image-keyboard-response","26","23124","0.0-26.0","39LOEL67OTRPD8LBC6ZGK5T0P3O381","A1H5TB600ATGFS","3MXX6RQ9EVRTFC527Z18RDK8KW6P4R","","307.7999999523163","img/land6.png","75","309","2","0","3","1","0.8,0.2,0.2,0.2,0.8,0.2,0.2,0.2,0.8","0.8,0.2,0.2,0.2,0.8,0.2,0.2,0.2,0.8","1","",""
"","html-keyboard-response","27","23431","0.0-27.0","39LOEL67OTRPD8LBC6ZGK5T0P3O381","A1H5TB600ATGFS","3MXX6RQ9EVRTFC527Z18RDK8KW6P4R","","null","<img src=""img/land6.png"" style=""width:200px;border:14px solid red;"">","null","","","","","","","","","",""
"","image-keyboard-response","28","23891","0.0-28.0","39LOEL67OTRPD8LBC6ZGK5T0P3O381","A1H5TB600ATGFS","3MXX6RQ9EVRTFC527Z18RDK8KW6P4R","","458.89999997615814","img/land6.png","74","459.60000002384186","1","1","3","1","0.8,0.2,0.2,0.2,0.8,0.2,0.2,0.2,0.8","0.8,0.2,0.2,0.2,0.8,0.2,0.2,0.2,0.8","1","",""
"","html-keyboard-response","29","24200","0.0-29.0","39LOEL67OTRPD8LBC6ZGK5T0P3O381","A1H5TB600ATGFS","3MXX6RQ9EVRTFC527Z18RDK8KW6P4R","","null","<img src=""img/land6.png"" style=""width:200px; border:14px solid green;"">","null","","","","","","","","","",""
"","image-keyboard-response","30","24462","0.0-30.0","39LOEL67OTRPD8LBC6ZGK5T0P3O381","A1H5TB600ATGFS","3MXX6RQ9EVRTFC527Z18RDK8KW6P4R","","261.6999999284744","img/land6.png","74","262.59999990463257","1","0","3","1","0.8,0.2,0.2,0.2,0.8,0.2,0.2,0.2,0.8","0.8,0.2,0.2,0.2,0.8,0.2,0.2,0.2,0.8","1","",""
"","html-keyboard-response","31","24772","0.0-31.0","39LOEL67OTRPD8LBC6ZGK5T0P3O381","A1H5TB600ATGFS","3MXX6RQ9EVRTFC527Z18RDK8KW6P4R","","null","<img src=""img/land6.png"" style=""width:200px;border:14px solid red;"">","null","","","","","","","","","",""
"","image-keyboard-response","32","25214","0.0-32.0","39LOEL67OTRPD8LBC6ZGK5T0P3O381","A1H5TB600ATGFS","3MXX6RQ9EVRTFC527Z18RDK8KW6P4R","","441.5","img/land1.png","74","442.2999999523163","1","1","1","1","0.8,0.2,0.2,0.2,0.8,0.2,0.2,0.2,0.8","0.8,0.2,0.2,0.2,0.8,0.2,0.2,0.2,0.8","1","",""
"","html-keyboard-response","33","25528","0.0-33.0","39LOEL67OTRPD8LBC6ZGK5T0P3O381","A1H5TB600ATGFS","3MXX6RQ9EVRTFC527Z18RDK8KW6P4R","","null","<img src=""img/land1.png"" style=""width:200px; border:14px solid green;"">","null","","","","","","","","","",""
"","image-keyboard-response","34","25920","0.0-34.0","39LOEL67OTRPD8LBC6ZGK5T0P3O381","A1H5TB600ATGFS","3MXX6RQ9EVRTFC527Z18RDK8KW6P4R","","390.7999999523163","img/land1.png","76","391.7999999523163","3","0","1","1","0.8,0.2,0.2,0.2,0.8,0.2,0.2,0.2,0.8","0.8,0.2,0.2,0.2,0.8,0.2,0.2,0.2,0.8","1","",""
"","html-keyboard-response","35","26231","0.0-35.0","39LOEL67OTRPD8LBC6ZGK5T0P3O381","A1H5TB600ATGFS","3MXX6RQ9EVRTFC527Z18RDK8KW6P4R","","null","<img src=""img/land1.png"" style=""width:200px;border:14px solid red;"">","null","","","","","","","","","",""
"","image-keyboard-response","36","26838","0.0-36.0","39LOEL67OTRPD8LBC6ZGK5T0P3O381","A1H5TB600ATGFS","3MXX6RQ9EVRTFC527Z18RDK8KW6P4R","","605.5","img/land6.png","74","606.3000000715256","1","0","3","1","0.8,0.2,0.2,0.2,0.8,0.2,0.2,0.2,0.8","0.8,0.2,0.2,0.2,0.8,0.2,0.2,0.2,0.8","1","",""
"","html-keyboard-response","37","27152","0.0-37.0","39LOEL67OTRPD8LBC6ZGK5T0P3O381","A1H5TB600ATGFS","3MXX6RQ9EVRTFC527Z18RDK8KW6P4R","","null","<img src=""img/land6.png"" style=""width:200px;border:14px solid red;"">","null","","","","","","","","","",""
"","image-keyboard-response","38","27432","0.0-38.0","39LOEL67OTRPD8LBC6ZGK5T0P3O381","A1H5TB600ATGFS","3MXX6RQ9EVRTFC527Z18RDK8KW6P4R","","278.5","img/land5.png","75","279.3000000715256","2","1","2","1","0.8,0.2,0.2,0.2,0.8,0.2,0.2,0.2,0.8","0.8,0.2,0.2,0.2,0.8,0.2,0.2,0.2,0.8","1","",""
"","html-keyboard-response","39","27741","0.0-39.0","39LOEL67OTRPD8LBC6ZGK5T0P3O381","A1H5TB600ATGFS","3MXX6RQ9EVRTFC527Z18RDK8KW6P4R","","null","<img src=""img/land5.png"" style=""width:200px; border:14px solid green;"">","null","","","","","","","","","",""
"","image-keyboard-response","40","28105","0.0-40.0","39LOEL67OTRPD8LBC6ZGK5T0P3O381","A1H5TB600ATGFS","3MXX6RQ9EVRTFC527Z18RDK8KW6P4R","","363","img/land6.png","74","363.7999999523163","1","0","3","1","0.8,0.2,0.2,0.2,0.8,0.2,0.2,0.2,0.8","0.8,0.2,0.2,0.2,0.8,0.2,0.2,0.2,0.8","1","",""
"","html-keyboard-response","41","28413","0.0-41.0","39LOEL67OTRPD8LBC6ZGK5T0P3O381","A1H5TB600ATGFS","3MXX6RQ9EVRTFC527Z18RDK8KW6P4R","","null","<img src=""img/land6.png"" style=""width:200px;border:14px solid red;"">","null","","","","","","","","","",""
"","image-keyboard-response","42","28605","0.0-42.0","39LOEL67OTRPD8LBC6ZGK5T0P3O381","A1H5TB600ATGFS","3MXX6RQ9EVRTFC527Z18RDK8KW6P4R","","191","img/land1.png","76","191.80000007152557","3","0","1","1","0.8,0.2,0.2,0.2,0.8,0.2,0.2,0.2,0.8","0.8,0.2,0.2,0.2,0.8,0.2,0.2,0.2,0.8","1","",""
"","html-keyboard-response","43","28910","0.0-43.0","39LOEL67OTRPD8LBC6ZGK5T0P3O381","A1H5TB600ATGFS","3MXX6RQ9EVRTFC527Z18RDK8KW6P4R","","null","<img src=""img/land1.png"" style=""width:200px;border:14px solid red;"">","null","","","","","","","","","",""
"","image-keyboard-response","44","29046","0.0-44.0","39LOEL67OTRPD8LBC6ZGK5T0P3O381","A1H5TB600ATGFS","3MXX6RQ9EVRTFC527Z18RDK8KW6P4R","","134.29999995231628","img/land1.png","75","135.20000004768372","2","0","1","1","0.8,0.2,0.2,0.2,0.8,0.2,0.2,0.2,0.8","0.8,0.2,0.2,0.2,0.8,0.2,0.2,0.2,0.8","1","",""
"","html-keyboard-response","45","29358","0.0-45.0","39LOEL67OTRPD8LBC6ZGK5T0P3O381","A1H5TB600ATGFS","3MXX6RQ9EVRTFC527Z18RDK8KW6P4R","","null","<img src=""img/land1.png"" style=""width:200px;border:14px solid red;"">","null","","","","","","","","","",""
"","image-keyboard-response","46","29433","0.0-46.0","39LOEL67OTRPD8LBC6ZGK5T0P3O381","A1H5TB600ATGFS","3MXX6RQ9EVRTFC527Z18RDK8KW6P4R","","73.5","img/land1.png","74","74.40000009536743","1","1","1","1","0.8,0.2,0.2,0.2,0.8,0.2,0.2,0.2,0.8","0.8,0.2,0.2,0.2,0.8,0.2,0.2,0.2,0.8","1","",""
"","html-keyboard-response","47","29744","0.0-47.0","39LOEL67OTRPD8LBC6ZGK5T0P3O381","A1H5TB600ATGFS","3MXX6RQ9EVRTFC527Z18RDK8KW6P4R","","null","<img src=""img/land1.png"" style=""width:200px; border:14px solid green;"">","null","","","","","","","","","",""
"","image-keyboard-response","48","29876","0.0-48.0","39LOEL67OTRPD8LBC6ZGK5T0P3O381","A1H5TB600ATGFS","3MXX6RQ9EVRTFC527Z18RDK8KW6P4R","","130.20000004768372","img/land1.png","74","131.10000002384186","1","1","1","1","0.8,0.2,0.2,0.2,0.8,0.2,0.2,0.2,0.8","0.8,0.2,0.2,0.2,0.8,0.2,0.2,0.2,0.8","1","",""
"","html-keyboard-response","49","30182","0.0-49.0","39LOEL67OTRPD8LBC6ZGK5T0P3O381","A1H5TB600ATGFS","3MXX6RQ9EVRTFC527Z18RDK8KW6P4R","","null","<img src=""img/land1.png"" style=""width:200px; border:14px solid green;"">","null","","","","","","","","","",""
"","image-keyboard-response","50","30292","0.0-50.0","39LOEL67OTRPD8LBC6ZGK5T0P3O381","A1H5TB600ATGFS","3MXX6RQ9EVRTFC527Z18RDK8KW6P4R","","108.89999997615814","img/land6.png","74","109.90000009536743","1","0","3","1","0.8,0.2,0.2,0.2,0.8,0.2,0.2,0.2,0.8","0.8,0.2,0.2,0.2,0.8,0.2,0.2,0.2,0.8","1","",""
"","html-keyboard-response","51","30600","0.0-51.0","39LOEL67OTRPD8LBC6ZGK5T0P3O381","A1H5TB600ATGFS","3MXX6RQ9EVRTFC527Z18RDK8KW6P4R","","null","<img src=""img/land6.png"" style=""width:200px;border:14px solid red;"">","null","","","","","","","","","",""
"","image-keyboard-response","52","31226","0.0-52.0","39LOEL67OTRPD8LBC6ZGK5T0P3O381","A1H5TB600ATGFS","3MXX6RQ9EVRTFC527Z18RDK8KW6P4R","","625.5","img/land6.png","76","626.2999999523163","3","1","3","1","0.8,0.2,0.2,0.2,0.8,0.2,0.2,0.2,0.8","0.8,0.2,0.2,0.2,0.8,0.2,0.2,0.2,0.8","1","",""
"","html-keyboard-response","53","31536","0.0-53.0","39LOEL67OTRPD8LBC6ZGK5T0P3O381","A1H5TB600ATGFS","3MXX6RQ9EVRTFC527Z18RDK8KW6P4R","","null","<img src=""img/land6.png"" style=""width:200px; border:14px solid green;"">","null","","","","","","","","","",""
"","image-keyboard-response","54","31717","0.0-54.0","39LOEL67OTRPD8LBC6ZGK5T0P3O381","A1H5TB600ATGFS","3MXX6RQ9EVRTFC527Z18RDK8KW6P4R","","180.70000004768372","img/land5.png","74","181.5","1","0","2","1","0.8,0.2,0.2,0.2,0.8,0.2,0.2,0.2,0.8","0.8,0.2,0.2,0.2,0.8,0.2,0.2,0.2,0.8","1","",""
"","html-keyboard-response","55","32028","0.0-55.0","39LOEL67OTRPD8LBC6ZGK5T0P3O381","A1H5TB600ATGFS","3MXX6RQ9EVRTFC527Z18RDK8KW6P4R","","null","<img src=""img/land5.png"" style=""width:200px;border:14px solid red;"">","null","","","","","","","","","",""
"","image-keyboard-response","56","32218","0.0-56.0","39LOEL67OTRPD8LBC6ZGK5T0P3O381","A1H5TB600ATGFS","3MXX6RQ9EVRTFC527Z18RDK8KW6P4R","","189","img/land6.png","75","189.89999997615814","2","0","3","1","0.8,0.2,0.2,0.2,0.8,0.2,0.2,0.2,0.8","0.8,0.2,0.2,0.2,0.8,0.2,0.2,0.2,0.8","1","",""
"","html-keyboard-response","57","32528","0.0-57.0","39LOEL67OTRPD8LBC6ZGK5T0P3O381","A1H5TB600ATGFS","3MXX6RQ9EVRTFC527Z18RDK8KW6P4R","","null","<img src=""img/land6.png"" style=""width:200px;border:14px solid red;"">","null","","","","","","","","","",""
"","image-keyboard-response","58","32734","0.0-58.0","39LOEL67OTRPD8LBC6ZGK5T0P3O381","A1H5TB600ATGFS","3MXX6RQ9EVRTFC527Z18RDK8KW6P4R","","205.60000002384186","img/land1.png","74","206.5","1","1","1","1","0.8,0.2,0.2,0.2,0.8,0.2,0.2,0.2,0.8","0.8,0.2,0.2,0.2,0.8,0.2,0.2,0.2,0.8","1","",""
"","html-keyboard-response","59","33044","0.0-59.0","39LOEL67OTRPD8LBC6ZGK5T0P3O381","A1H5TB600ATGFS","3MXX6RQ9EVRTFC527Z18RDK8KW6P4R","","null","<img src=""img/land1.png"" style=""width:200px; border:14px solid green;"">","null","","","","","","","","","",""
"","image-keyboard-response","60","33198","0.0-60.0","39LOEL67OTRPD8LBC6ZGK5T0P3O381","A1H5TB600ATGFS","3MXX6RQ9EVRTFC527Z18RDK8KW6P4R","","152.79999995231628","img/land1.png","74","153.59999990463257","1","1","1","1","0.8,0.2,0.2,0.2,0.8,0.2,0.2,0.2,0.8","0.8,0.2,0.2,0.2,0.8,0.2,0.2,0.2,0.8","1","",""
"","html-keyboard-response","61","33512","0.0-61.0","39LOEL67OTRPD8LBC6ZGK5T0P3O381","A1H5TB600ATGFS","3MXX6RQ9EVRTFC527Z18RDK8KW6P4R","","null","<img src=""img/land1.png"" style=""width:200px; border:14px solid green;"">","null","","","","","","","","","",""
"","image-keyboard-response","62","33592","0.0-62.0","39LOEL67OTRPD8LBC6ZGK5T0P3O381","A1H5TB600ATGFS","3MXX6RQ9EVRTFC527Z18RDK8KW6P4R","","78.79999995231628","img/land6.png","74","79.60000002384186","1","1","3","1","0.8,0.2,0.2,0.2,0.8,0.2,0.2,0.2,0.8","0.8,0.2,0.2,0.2,0.8,0.2,0.2,0.2,0.8","1","",""
"","html-keyboard-response","63","33904","0.0-63.0","39LOEL67OTRPD8LBC6ZGK5T0P3O381","A1H5TB600ATGFS","3MXX6RQ9EVRTFC527Z18RDK8KW6P4R","","null","<img src=""img/land6.png"" style=""width:200px; border:14px solid green;"">","null","","","","","","","","","",""
"","image-keyboard-response","64","34107","0.0-64.0","39LOEL67OTRPD8LBC6ZGK5T0P3O381","A1H5TB600ATGFS","3MXX6RQ9EVRTFC527Z18RDK8KW6P4R","","202.39999997615814","img/land5.png","74","203.19999992847443","1","0","2","1","0.8,0.2,0.2,0.2,0.8,0.2,0.2,0.2,0.8","0.8,0.2,0.2,0.2,0.8,0.2,0.2,0.2,0.8","1","",""
"","html-keyboard-response","65","34415","0.0-65.0","39LOEL67OTRPD8LBC6ZGK5T0P3O381","A1H5TB600ATGFS","3MXX6RQ9EVRTFC527Z18RDK8KW6P4R","","null","<img src=""img/land5.png"" style=""width:200px;border:14px solid red;"">","null","","","","","","","","","",""
"","image-keyboard-response","66","34582","0.0-66.0","39LOEL67OTRPD8LBC6ZGK5T0P3O381","A1H5TB600ATGFS","3MXX6RQ9EVRTFC527Z18RDK8KW6P4R","","165.90000009536743","img/land6.png","74","166.70000004768372","1","0","3","1","0.8,0.2,0.2,0.2,0.8,0.2,0.2,0.2,0.8","0.8,0.2,0.2,0.2,0.8,0.2,0.2,0.2,0.8","1","",""
"","html-keyboard-response","67","34896","0.0-67.0","39LOEL67OTRPD8LBC6ZGK5T0P3O381","A1H5TB600ATGFS","3MXX6RQ9EVRTFC527Z18RDK8KW6P4R","","null","<img src=""img/land6.png"" style=""width:200px;border:14px solid red;"">","null","","","","","","","","","",""
"","image-keyboard-response","68","35182","0.0-68.0","39LOEL67OTRPD8LBC6ZGK5T0P3O381","A1H5TB600ATGFS","3MXX6RQ9EVRTFC527Z18RDK8KW6P4R","","284.89999997615814","img/land5.png","76","285.7000000476837","3","0","2","1","0.8,0.2,0.2,0.2,0.8,0.2,0.2,0.2,0.8","0.8,0.2,0.2,0.2,0.8,0.2,0.2,0.2,0.8","1","",""
"","html-keyboard-response","69","35496","0.0-69.0","39LOEL67OTRPD8LBC6ZGK5T0P3O381","A1H5TB600ATGFS","3MXX6RQ9EVRTFC527Z18RDK8KW6P4R","","null","<img src=""img/land5.png"" style=""width:200px;border:14px solid red;"">","null","","","","","","","","","",""
"","image-keyboard-response","70","35539","0.0-70.0","39LOEL67OTRPD8LBC6ZGK5T0P3O381","A1H5TB600ATGFS","3MXX6RQ9EVRTFC527Z18RDK8KW6P4R","","41.60000002384186","img/land1.png","75","42.60000002384186","2","0","1","1","0.8,0.2,0.2,0.2,0.8,0.2,0.2,0.2,0.8","0.8,0.2,0.2,0.2,0.8,0.2,0.2,0.2,0.8","1","",""
"","html-keyboard-response","71","35840","0.0-71.0","39LOEL67OTRPD8LBC6ZGK5T0P3O381","A1H5TB600ATGFS","3MXX6RQ9EVRTFC527Z18RDK8KW6P4R","","null","<img src=""img/land1.png"" style=""width:200px;border:14px solid red;"">","null","","","","","","","","","",""
"","image-keyboard-response","72","35972","0.0-72.0","39LOEL67OTRPD8LBC6ZGK5T0P3O381","A1H5TB600ATGFS","3MXX6RQ9EVRTFC527Z18RDK8KW6P4R","","131","img/land6.png","76","131.70000004768372","3","1","3","1","0.8,0.2,0.2,0.2,0.8,0.2,0.2,0.2,0.8","0.8,0.2,0.2,0.2,0.8,0.2,0.2,0.2,0.8","1","",""
"","html-keyboard-response","73","36279","0.0-73.0","39LOEL67OTRPD8LBC6ZGK5T0P3O381","A1H5TB600ATGFS","3MXX6RQ9EVRTFC527Z18RDK8KW6P4R","","null","<img src=""img/land6.png"" style=""width:200px; border:14px solid green;"">","null","","","","","","","","","",""
"","image-keyboard-response","74","36415","0.0-74.0","39LOEL67OTRPD8LBC6ZGK5T0P3O381","A1H5TB600ATGFS","3MXX6RQ9EVRTFC527Z18RDK8KW6P4R","","135.09999990463257","img/land6.png","74","135.79999995231628","1","1","3","1","0.8,0.2,0.2,0.2,0.8,0.2,0.2,0.2,0.8","0.8,0.2,0.2,0.2,0.8,0.2,0.2,0.2,0.8","1","",""
"","html-keyboard-response","75","36728","0.0-75.0","39LOEL67OTRPD8LBC6ZGK5T0P3O381","A1H5TB600ATGFS","3MXX6RQ9EVRTFC527Z18RDK8KW6P4R","","null","<img src=""img/land6.png"" style=""width:200px; border:14px solid green;"">","null","","","","","","","","","",""
"","image-keyboard-response","76","36892","0.0-76.0","39LOEL67OTRPD8LBC6ZGK5T0P3O381","A1H5TB600ATGFS","3MXX6RQ9EVRTFC527Z18RDK8KW6P4R","","163.10000002384186","img/land1.png","75","163.79999995231628","2","0","1","1","0.8,0.2,0.2,0.2,0.8,0.2,0.2,0.2,0.8","0.8,0.2,0.2,0.2,0.8,0.2,0.2,0.2,0.8","1","",""
"","html-keyboard-response","77","37196","0.0-77.0","39LOEL67OTRPD8LBC6ZGK5T0P3O381","A1H5TB600ATGFS","3MXX6RQ9EVRTFC527Z18RDK8KW6P4R","","null","<img src=""img/land1.png"" style=""width:200px;border:14px solid red;"">","null","","","","","","","","","",""
"","image-keyboard-response","78","37265","0.0-78.0","39LOEL67OTRPD8LBC6ZGK5T0P3O381","A1H5TB600ATGFS","3MXX6RQ9EVRTFC527Z18RDK8KW6P4R","","68.10000002384186","img/land1.png","74","69","1","1","1","1","0.8,0.2,0.2,0.2,0.8,0.2,0.2,0.2,0.8","0.8,0.2,0.2,0.2,0.8,0.2,0.2,0.2,0.8","1","",""
"","html-keyboard-response","79","37576","0.0-79.0","39LOEL67OTRPD8LBC6ZGK5T0P3O381","A1H5TB600ATGFS","3MXX6RQ9EVRTFC527Z18RDK8KW6P4R","","null","<img src=""img/land1.png"" style=""width:200px; border:14px solid green;"">","null","","","","","","","","","",""
"","image-keyboard-response","80","37698","0.0-80.0","39LOEL67OTRPD8LBC6ZGK5T0P3O381","A1H5TB600ATGFS","3MXX6RQ9EVRTFC527Z18RDK8KW6P4R","","121.10000002384186","img/land5.png","76","122","3","0","2","1","0.8,0.2,0.2,0.2,0.8,0.2,0.2,0.2,0.8","0.8,0.2,0.2,0.2,0.8,0.2,0.2,0.2,0.8","1","",""
"","html-keyboard-response","81","38004","0.0-81.0","39LOEL67OTRPD8LBC6ZGK5T0P3O381","A1H5TB600ATGFS","3MXX6RQ9EVRTFC527Z18RDK8KW6P4R","","null","<img src=""img/land5.png"" style=""width:200px;border:14px solid red;"">","null","","","","","","","","","",""
"","image-keyboard-response","82","38058","0.0-82.0","39LOEL67OTRPD8LBC6ZGK5T0P3O381","A1H5TB600ATGFS","3MXX6RQ9EVRTFC527Z18RDK8KW6P4R","","53.200000047683716","img/land1.png","74","54.10000002384186","1","0","1","1","0.8,0.2,0.2,0.2,0.8,0.2,0.2,0.2,0.8","0.8,0.2,0.2,0.2,0.8,0.2,0.2,0.2,0.8","1","",""
"","html-keyboard-response","83","38368","0.0-83.0","39LOEL67OTRPD8LBC6ZGK5T0P3O381","A1H5TB600ATGFS","3MXX6RQ9EVRTFC527Z18RDK8KW6P4R","","null","<img src=""img/land1.png"" style=""width:200px;border:14px solid red;"">","null","","","","","","","","","",""
"","image-keyboard-response","84","38751","0.0-84.0","39LOEL67OTRPD8LBC6ZGK5T0P3O381","A1H5TB600ATGFS","3MXX6RQ9EVRTFC527Z18RDK8KW6P4R","","382.10000002384186","img/land1.png","75","382.7999999523163","2","0","1","1","0.8,0.2,0.2,0.2,0.8,0.2,0.2,0.2,0.8","0.8,0.2,0.2,0.2,0.8,0.2,0.2,0.2,0.8","1","",""
"","html-keyboard-response","85","39060","0.0-85.0","39LOEL67OTRPD8LBC6ZGK5T0P3O381","A1H5TB600ATGFS","3MXX6RQ9EVRTFC527Z18RDK8KW6P4R","","null","<img src=""img/land1.png"" style=""width:200px;border:14px solid red;"">","null","","","","","","","","","",""
"","image-keyboard-response","86","39062","0.0-86.0","39LOEL67OTRPD8LBC6ZGK5T0P3O381","A1H5TB600ATGFS","3MXX6RQ9EVRTFC527Z18RDK8KW6P4R","","0.10000002384185791","img/land1.png","74","0.8999999761581421","1","0","1","1","0.8,0.2,0.2,0.2,0.8,0.2,0.2,0.2,0.8","0.8,0.2,0.2,0.2,0.8,0.2,0.2,0.2,0.8","1","",""
"","html-keyboard-response","87","39375","0.0-87.0","39LOEL67OTRPD8LBC6ZGK5T0P3O381","A1H5TB600ATGFS","3MXX6RQ9EVRTFC527Z18RDK8KW6P4R","","null","<img src=""img/land1.png"" style=""width:200px;border:14px solid red;"">","null","","","","","","","","","",""
"","image-keyboard-response","88","39616","0.0-88.0","39LOEL67OTRPD8LBC6ZGK5T0P3O381","A1H5TB600ATGFS","3MXX6RQ9EVRTFC527Z18RDK8KW6P4R","","239.5","img/land5.png","76","240.5","3","0","2","1","0.8,0.2,0.2,0.2,0.8,0.2,0.2,0.2,0.8","0.8,0.2,0.2,0.2,0.8,0.2,0.2,0.2,0.8","1","",""
"","html-keyboard-response","89","39926","0.0-89.0","39LOEL67OTRPD8LBC6ZGK5T0P3O381","A1H5TB600ATGFS","3MXX6RQ9EVRTFC527Z18RDK8KW6P4R","","null","<img src=""img/land5.png"" style=""width:200px;border:14px solid red;"">","null","","","","","","","","","",""
"","image-keyboard-response","90","40056","0.0-90.0","39LOEL67OTRPD8LBC6ZGK5T0P3O381","A1H5TB600ATGFS","3MXX6RQ9EVRTFC527Z18RDK8KW6P4R","","128.89999997615814","img/land1.png","74","129.79999995231628","1","0","1","1","0.8,0.2,0.2,0.2,0.8,0.2,0.2,0.2,0.8","0.8,0.2,0.2,0.2,0.8,0.2,0.2,0.2,0.8","1","",""
"","html-keyboard-response","91","40365","0.0-91.0","39LOEL67OTRPD8LBC6ZGK5T0P3O381","A1H5TB600ATGFS","3MXX6RQ9EVRTFC527Z18RDK8KW6P4R","","null","<img src=""img/land1.png"" style=""width:200px;border:14px solid red;"">","null","","","","","","","","","",""
"","image-keyboard-response","92","40491","0.0-92.0","39LOEL67OTRPD8LBC6ZGK5T0P3O381","A1H5TB600ATGFS","3MXX6RQ9EVRTFC527Z18RDK8KW6P4R","","125","img/land6.png","74","125.79999995231628","1","1","3","1","0.8,0.2,0.2,0.2,0.8,0.2,0.2,0.2,0.8","0.8,0.2,0.2,0.2,0.8,0.2,0.2,0.2,0.8","1","",""
"","html-keyboard-response","93","40795","0.0-93.0","39LOEL67OTRPD8LBC6ZGK5T0P3O381","A1H5TB600ATGFS","3MXX6RQ9EVRTFC527Z18RDK8KW6P4R","","null","<img src=""img/land6.png"" style=""width:200px; border:14px solid green;"">","null","","","","","","","","","",""
"","image-keyboard-response","94","40902","0.0-94.0","39LOEL67OTRPD8LBC6ZGK5T0P3O381","A1H5TB600ATGFS","3MXX6RQ9EVRTFC527Z18RDK8KW6P4R","","105.10000002384186","img/land6.png","74","106.10000002384186","1","0","3","1","0.8,0.2,0.2,0.2,0.8,0.2,0.2,0.2,0.8","0.8,0.2,0.2,0.2,0.8,0.2,0.2,0.2,0.8","1","",""
"","html-keyboard-response","95","41216","0.0-95.0","39LOEL67OTRPD8LBC6ZGK5T0P3O381","A1H5TB600ATGFS","3MXX6RQ9EVRTFC527Z18RDK8KW6P4R","","null","<img src=""img/land6.png"" style=""width:200px;border:14px solid red;"">","null","","","","","","","","","",""
"","image-keyboard-response","96","41359","0.0-96.0","39LOEL67OTRPD8LBC6ZGK5T0P3O381","A1H5TB600ATGFS","3MXX6RQ9EVRTFC527Z18RDK8KW6P4R","","142.20000004768372","img/land1.png","74","142.79999995231628","1","1","1","1","0.8,0.2,0.2,0.2,0.8,0.2,0.2,0.2,0.8","0.8,0.2,0.2,0.2,0.8,0.2,0.2,0.2,0.8","1","",""
"","html-keyboard-response","97","41668","0.0-97.0","39LOEL67OTRPD8LBC6ZGK5T0P3O381","A1H5TB600ATGFS","3MXX6RQ9EVRTFC527Z18RDK8KW6P4R","","null","<img src=""img/land1.png"" style=""width:200px; border:14px solid green;"">","null","","","","","","","","","",""
"","image-keyboard-response","98","41679","0.0-98.0","39LOEL67OTRPD8LBC6ZGK5T0P3O381","A1H5TB600ATGFS","3MXX6RQ9EVRTFC527Z18RDK8KW6P4R","","10.599999904632568","img/land1.png","75","11.600000023841858","2","0","1","1","0.8,0.2,0.2,0.2,0.8,0.2,0.2,0.2,0.8","0.8,0.2,0.2,0.2,0.8,0.2,0.2,0.2,0.8","1","",""
"","html-keyboard-response","99","41992","0.0-99.0","39LOEL67OTRPD8LBC6ZGK5T0P3O381","A1H5TB600ATGFS","3MXX6RQ9EVRTFC527Z18RDK8KW6P4R","","null","<img src=""img/land1.png"" style=""width:200px;border:14px solid red;"">","null","","","","","","","","","",""
"","image-keyboard-response","100","42090","0.0-100.0","39LOEL67OTRPD8LBC6ZGK5T0P3O381","A1H5TB600ATGFS","3MXX6RQ9EVRTFC527Z18RDK8KW6P4R","","97.79999995231628","img/land1.png","74","98.5","1","0","1","1","0.8,0.2,0.2,0.2,0.8,0.2,0.2,0.2,0.8","0.8,0.2,0.2,0.2,0.8,0.2,0.2,0.2,0.8","1","",""
"","html-keyboard-response","101","42400","0.0-101.0","39LOEL67OTRPD8LBC6ZGK5T0P3O381","A1H5TB600ATGFS","3MXX6RQ9EVRTFC527Z18RDK8KW6P4R","","null","<img src=""img/land1.png"" style=""width:200px;border:14px solid red;"">","null","","","","","","","","","",""
"","image-keyboard-response","102","42576","0.0-102.0","39LOEL67OTRPD8LBC6ZGK5T0P3O381","A1H5TB600ATGFS","3MXX6RQ9EVRTFC527Z18RDK8KW6P4R","","175.69999992847443","img/land5.png","74","176.69999992847443","1","0","2","1","0.8,0.2,0.2,0.2,0.8,0.2,0.2,0.2,0.8","0.8,0.2,0.2,0.2,0.8,0.2,0.2,0.2,0.8","1","",""
"","html-keyboard-response","103","42887","0.0-103.0","39LOEL67OTRPD8LBC6ZGK5T0P3O381","A1H5TB600ATGFS","3MXX6RQ9EVRTFC527Z18RDK8KW6P4R","","null","<img src=""img/land5.png"" style=""width:200px;border:14px solid red;"">","null","","","","","","","","","",""
"","image-keyboard-response","104","43009","0.0-104.0","39LOEL67OTRPD8LBC6ZGK5T0P3O381","A1H5TB600ATGFS","3MXX6RQ9EVRTFC527Z18RDK8KW6P4R","","121.30000007152557","img/land5.png","76","122.10000002384186","3","1","2","1","0.8,0.2,0.2,0.2,0.8,0.2,0.2,0.2,0.8","0.8,0.2,0.2,0.2,0.8,0.2,0.2,0.2,0.8","1","",""
"","html-keyboard-response","105","43316","0.0-105.0","39LOEL67OTRPD8LBC6ZGK5T0P3O381","A1H5TB600ATGFS","3MXX6RQ9EVRTFC527Z18RDK8KW6P4R","","null","<img src=""img/land5.png"" style=""width:200px; border:14px solid green;"">","null","","","","","","","","","",""
"","image-keyboard-response","106","43348","0.0-106.0","39LOEL67OTRPD8LBC6ZGK5T0P3O381","A1H5TB600ATGFS","3MXX6RQ9EVRTFC527Z18RDK8KW6P4R","","31.399999976158142","img/land5.png","75","32.200000047683716","2","1","2","1","0.8,0.2,0.2,0.2,0.8,0.2,0.2,0.2,0.8","0.8,0.2,0.2,0.2,0.8,0.2,0.2,0.2,0.8","1","",""
"","html-keyboard-response","107","43655","0.0-107.0","39LOEL67OTRPD8LBC6ZGK5T0P3O381","A1H5TB600ATGFS","3MXX6RQ9EVRTFC527Z18RDK8KW6P4R","","null","<img src=""img/land5.png"" style=""width:200px; border:14px solid green;"">","null","","","","","","","","","",""
"","image-keyboard-response","108","44003","0.0-108.0","39LOEL67OTRPD8LBC6ZGK5T0P3O381","A1H5TB600ATGFS","3MXX6RQ9EVRTFC527Z18RDK8KW6P4R","","346.89999997615814","img/land1.png","76","347.60000002384186","3","0","1","1","0.8,0.2,0.2,0.2,0.8,0.2,0.2,0.2,0.8","0.8,0.2,0.2,0.2,0.8,0.2,0.2,0.2,0.8","1","",""
"","html-keyboard-response","109","44310","0.0-109.0","39LOEL67OTRPD8LBC6ZGK5T0P3O381","A1H5TB600ATGFS","3MXX6RQ9EVRTFC527Z18RDK8KW6P4R","","null","<img src=""img/land1.png"" style=""width:200px;border:14px solid red;"">","null","","","","","","","","","",""
"","image-keyboard-response","110","44556","0.0-110.0","39LOEL67OTRPD8LBC6ZGK5T0P3O381","A1H5TB600ATGFS","3MXX6RQ9EVRTFC527Z18RDK8KW6P4R","","245.30000007152557","img/land5.png","75","246.10000002384186","2","1","2","1","0.8,0.2,0.2,0.2,0.8,0.2,0.2,0.2,0.8","0.8,0.2,0.2,0.2,0.8,0.2,0.2,0.2,0.8","1","",""
"","html-keyboard-response","111","44863","0.0-111.0","39LOEL67OTRPD8LBC6ZGK5T0P3O381","A1H5TB600ATGFS","3MXX6RQ9EVRTFC527Z18RDK8KW6P4R","","null","<img src=""img/land5.png"" style=""width:200px; border:14px solid green;"">","null","","","","","","","","","",""
"","image-keyboard-response","112","45055","0.0-112.0","39LOEL67OTRPD8LBC6ZGK5T0P3O381","A1H5TB600ATGFS","3MXX6RQ9EVRTFC527Z18RDK8KW6P4R","","191.20000004768372","img/land5.png","75","191.89999997615814","2","1","2","1","0.8,0.2,0.2,0.2,0.8,0.2,0.2,0.2,0.8","0.8,0.2,0.2,0.2,0.8,0.2,0.2,0.2,0.8","1","",""
"","html-keyboard-response","113","45363","0.0-113.0","39LOEL67OTRPD8LBC6ZGK5T0P3O381","A1H5TB600ATGFS","3MXX6RQ9EVRTFC527Z18RDK8KW6P4R","","null","<img src=""img/land5.png"" style=""width:200px; border:14px solid green;"">","null","","","","","","","","","",""
"","image-keyboard-response","114","45530","0.0-114.0","39LOEL67OTRPD8LBC6ZGK5T0P3O381","A1H5TB600ATGFS","3MXX6RQ9EVRTFC527Z18RDK8KW6P4R","","166.29999995231628","img/land1.png","75","167.20000004768372","2","0","1","1","0.8,0.2,0.2,0.2,0.8,0.2,0.2,0.2,0.8","0.8,0.2,0.2,0.2,0.8,0.2,0.2,0.2,0.8","1","",""
"","html-keyboard-response","115","45839","0.0-115.0","39LOEL67OTRPD8LBC6ZGK5T0P3O381","A1H5TB600ATGFS","3MXX6RQ9EVRTFC527Z18RDK8KW6P4R","","null","<img src=""img/land1.png"" style=""width:200px;border:14px solid red;"">","null","","","","","","","","","",""
"","image-keyboard-response","116","45990","0.0-116.0","39LOEL67OTRPD8LBC6ZGK5T0P3O381","A1H5TB600ATGFS","3MXX6RQ9EVRTFC527Z18RDK8KW6P4R","","150.09999990463257","img/land6.png","74","151","1","0","3","1","0.8,0.2,0.2,0.2,0.8,0.2,0.2,0.2,0.8","0.8,0.2,0.2,0.2,0.8,0.2,0.2,0.2,0.8","1","",""
"","html-keyboard-response","117","46301","0.0-117.0","39LOEL67OTRPD8LBC6ZGK5T0P3O381","A1H5TB600ATGFS","3MXX6RQ9EVRTFC527Z18RDK8KW6P4R","","null","<img src=""img/land6.png"" style=""width:200px;border:14px solid red;"">","null","","","","","","","","","",""
"","image-keyboard-response","118","46405","0.0-118.0","39LOEL67OTRPD8LBC6ZGK5T0P3O381","A1H5TB600ATGFS","3MXX6RQ9EVRTFC527Z18RDK8KW6P4R","","103.59999990463257","img/land5.png","74","104.5","1","0","2","1","0.8,0.2,0.2,0.2,0.8,0.2,0.2,0.2,0.8","0.8,0.2,0.2,0.2,0.8,0.2,0.2,0.2,0.8","1","",""
"","html-keyboard-response","119","46719","0.0-119.0","39LOEL67OTRPD8LBC6ZGK5T0P3O381","A1H5TB600ATGFS","3MXX6RQ9EVRTFC527Z18RDK8KW6P4R","","null","<img src=""img/land5.png"" style=""width:200px;border:14px solid red;"">","null","","","","","","","","","",""
"","image-keyboard-response","120","46861","0.0-120.0","39LOEL67OTRPD8LBC6ZGK5T0P3O381","A1H5TB600ATGFS","3MXX6RQ9EVRTFC527Z18RDK8KW6P4R","","140.89999997615814","img/land5.png","76","141.60000002384186","3","0","2","1","0.8,0.2,0.2,0.2,0.8,0.2,0.2,0.2,0.8","0.8,0.2,0.2,0.2,0.8,0.2,0.2,0.2,0.8","1","",""
"","html-keyboard-response","121","47176","0.0-121.0","39LOEL67OTRPD8LBC6ZGK5T0P3O381","A1H5TB600ATGFS","3MXX6RQ9EVRTFC527Z18RDK8KW6P4R","","null","<img src=""img/land5.png"" style=""width:200px;border:14px solid red;"">","null","","","","","","","","","",""
"","image-keyboard-response","122","47238","0.0-122.0","39LOEL67OTRPD8LBC6ZGK5T0P3O381","A1H5TB600ATGFS","3MXX6RQ9EVRTFC527Z18RDK8KW6P4R","","61.39999997615814","img/land5.png","74","62.199999928474426","1","0","2","1","0.8,0.2,0.2,0.2,0.8,0.2,0.2,0.2,0.8","0.8,0.2,0.2,0.2,0.8,0.2,0.2,0.2,0.8","1","",""
"","html-keyboard-response","123","47548","0.0-123.0","39LOEL67OTRPD8LBC6ZGK5T0P3O381","A1H5TB600ATGFS","3MXX6RQ9EVRTFC527Z18RDK8KW6P4R","","null","<img src=""img/land5.png"" style=""width:200px;border:14px solid red;"">","null","","","","","","","","","",""
"","image-keyboard-response","124","47651","0.0-124.0","39LOEL67OTRPD8LBC6ZGK5T0P3O381","A1H5TB600ATGFS","3MXX6RQ9EVRTFC527Z18RDK8KW6P4R","","102.39999997615814","img/land6.png","75","103.29999995231628","2","1","3","1","0.8,0.2,0.2,0.2,0.8,0.2,0.2,0.2,0.8","0.8,0.2,0.2,0.2,0.8,0.2,0.2,0.2,0.8","1","",""
"","html-keyboard-response","125","47959","0.0-125.0","39LOEL67OTRPD8LBC6ZGK5T0P3O381","A1H5TB600ATGFS","3MXX6RQ9EVRTFC527Z18RDK8KW6P4R","","null","<img src=""img/land6.png"" style=""width:200px; border:14px solid green;"">","null","","","","","","","","","",""
"","image-keyboard-response","126","48091","0.0-126.0","39LOEL67OTRPD8LBC6ZGK5T0P3O381","A1H5TB600ATGFS","3MXX6RQ9EVRTFC527Z18RDK8KW6P4R","","131","img/land5.png","74","131.89999997615814","1","0","2","1","0.8,0.2,0.2,0.2,0.8,0.2,0.2,0.2,0.8","0.8,0.2,0.2,0.2,0.8,0.2,0.2,0.2,0.8","1","",""
"","html-keyboard-response","127","48399","0.0-127.0","39LOEL67OTRPD8LBC6ZGK5T0P3O381","A1H5TB600ATGFS","3MXX6RQ9EVRTFC527Z18RDK8KW6P4R","","null","<img src=""img/land5.png"" style=""width:200px;border:14px solid red;"">","null","","","","","","","","","",""
"","image-keyboard-response","128","48554","0.0-128.0","39LOEL67OTRPD8LBC6ZGK5T0P3O381","A1H5TB600ATGFS","3MXX6RQ9EVRTFC527Z18RDK8KW6P4R","","153.89999997615814","img/land1.png","76","154.79999995231628","3","0","1","1","0.8,0.2,0.2,0.2,0.8,0.2,0.2,0.2,0.8","0.8,0.2,0.2,0.2,0.8,0.2,0.2,0.2,0.8","1","",""
"","html-keyboard-response","129","48863","0.0-129.0","39LOEL67OTRPD8LBC6ZGK5T0P3O381","A1H5TB600ATGFS","3MXX6RQ9EVRTFC527Z18RDK8KW6P4R","","null","<img src=""img/land1.png"" style=""width:200px;border:14px solid red;"">","null","","","","","","","","","",""
"","image-keyboard-response","130","48938","0.0-130.0","39LOEL67OTRPD8LBC6ZGK5T0P3O381","A1H5TB600ATGFS","3MXX6RQ9EVRTFC527Z18RDK8KW6P4R","","73.39999997615814","img/land6.png","74","75.20000004768372","1","1","3","1","0.8,0.2,0.2,0.2,0.8,0.2,0.2,0.2,0.8","0.8,0.2,0.2,0.2,0.8,0.2,0.2,0.2,0.8","1","",""
"","html-keyboard-response","131","49248","0.0-131.0","39LOEL67OTRPD8LBC6ZGK5T0P3O381","A1H5TB600ATGFS","3MXX6RQ9EVRTFC527Z18RDK8KW6P4R","","null","<img src=""img/land6.png"" style=""width:200px; border:14px solid green;"">","null","","","","","","","","","",""
"","image-keyboard-response","132","49342","0.0-132.0","39LOEL67OTRPD8LBC6ZGK5T0P3O381","A1H5TB600ATGFS","3MXX6RQ9EVRTFC527Z18RDK8KW6P4R","","93.59999990463257","img/land6.png","74","94.39999997615814","1","0","3","1","0.8,0.2,0.2,0.2,0.8,0.2,0.2,0.2,0.8","0.8,0.2,0.2,0.2,0.8,0.2,0.2,0.2,0.8","1","",""
"","html-keyboard-response","133","49653","0.0-133.0","39LOEL67OTRPD8LBC6ZGK5T0P3O381","A1H5TB600ATGFS","3MXX6RQ9EVRTFC527Z18RDK8KW6P4R","","null","<img src=""img/land6.png"" style=""width:200px;border:14px solid red;"">","null","","","","","","","","","",""
"","image-keyboard-response","134","49748","0.0-134.0","39LOEL67OTRPD8LBC6ZGK5T0P3O381","A1H5TB600ATGFS","3MXX6RQ9EVRTFC527Z18RDK8KW6P4R","","94","img/land6.png","74","94.80000007152557","1","1","3","1","0.8,0.2,0.2,0.2,0.8,0.2,0.2,0.2,0.8","0.8,0.2,0.2,0.2,0.8,0.2,0.2,0.2,0.8","1","",""
"","html-keyboard-response","135","50052","0.0-135.0","39LOEL67OTRPD8LBC6ZGK5T0P3O381","A1H5TB600ATGFS","3MXX6RQ9EVRTFC527Z18RDK8KW6P4R","","null","<img src=""img/land6.png"" style=""width:200px; border:14px solid green;"">","null","","","","","","","","","",""
"","image-keyboard-response","136","50130","0.0-136.0","39LOEL67OTRPD8LBC6ZGK5T0P3O381","A1H5TB600ATGFS","3MXX6RQ9EVRTFC527Z18RDK8KW6P4R","","76.89999997615814","img/land1.png","74","77.70000004768372","1","1","1","1","0.8,0.2,0.2,0.2,0.8,0.2,0.2,0.2,0.8","0.8,0.2,0.2,0.2,0.8,0.2,0.2,0.2,0.8","1","",""
"","html-keyboard-response","137","50437","0.0-137.0","39LOEL67OTRPD8LBC6ZGK5T0P3O381","A1H5TB600ATGFS","3MXX6RQ9EVRTFC527Z18RDK8KW6P4R","","null","<img src=""img/land1.png"" style=""width:200px; border:14px solid green;"">","null","","","","","","","","","",""
"","image-keyboard-response","138","50540","0.0-138.0","39LOEL67OTRPD8LBC6ZGK5T0P3O381","A1H5TB600ATGFS","3MXX6RQ9EVRTFC527Z18RDK8KW6P4R","","101.60000002384186","img/land6.png","74","102.39999997615814","1","0","3","1","0.8,0.2,0.2,0.2,0.8,0.2,0.2,0.2,0.8","0.8,0.2,0.2,0.2,0.8,0.2,0.2,0.2,0.8","1","",""
"","html-keyboard-response","139","50847","0.0-139.0","39LOEL67OTRPD8LBC6ZGK5T0P3O381","A1H5TB600ATGFS","3MXX6RQ9EVRTFC527Z18RDK8KW6P4R","","null","<img src=""img/land6.png"" style=""width:200px;border:14px solid red;"">","null","","","","","","","","","",""
"","image-keyboard-response","140","51120","0.0-140.0","39LOEL67OTRPD8LBC6ZGK5T0P3O381","A1H5TB600ATGFS","3MXX6RQ9EVRTFC527Z18RDK8KW6P4R","","271.60000002384186","img/land1.png","76","272.2999999523163","3","1","1","1","0.8,0.2,0.2,0.2,0.8,0.2,0.2,0.2,0.8","0.8,0.2,0.2,0.2,0.8,0.2,0.2,0.2,0.8","1","",""
"","html-keyboard-response","141","51429","0.0-141.0","39LOEL67OTRPD8LBC6ZGK5T0P3O381","A1H5TB600ATGFS","3MXX6RQ9EVRTFC527Z18RDK8KW6P4R","","null","<img src=""img/land1.png"" style=""width:200px; border:14px solid green;"">","null","","","","","","","","","",""
"","image-keyboard-response","142","51435","0.0-142.0","39LOEL67OTRPD8LBC6ZGK5T0P3O381","A1H5TB600ATGFS","3MXX6RQ9EVRTFC527Z18RDK8KW6P4R","","5","img/land5.png","74","6.100000023841858","1","0","2","1","0.8,0.2,0.2,0.2,0.8,0.2,0.2,0.2,0.8","0.8,0.2,0.2,0.2,0.8,0.2,0.2,0.2,0.8","1","",""
"","html-keyboard-response","143","51740","0.0-143.0","39LOEL67OTRPD8LBC6ZGK5T0P3O381","A1H5TB600ATGFS","3MXX6RQ9EVRTFC527Z18RDK8KW6P4R","","null","<img src=""img/land5.png"" style=""width:200px;border:14px solid red;"">","null","","","","","","","","","",""
"","image-keyboard-response","144","52115","0.0-144.0","39LOEL67OTRPD8LBC6ZGK5T0P3O381","A1H5TB600ATGFS","3MXX6RQ9EVRTFC527Z18RDK8KW6P4R","","374.7999999523163","img/land6.png","75","375.5","2","0","3","1","0.8,0.2,0.2,0.2,0.8,0.2,0.2,0.2,0.8","0.8,0.2,0.2,0.2,0.8,0.2,0.2,0.2,0.8","1","",""
"","html-keyboard-response","145","52420","0.0-145.0","39LOEL67OTRPD8LBC6ZGK5T0P3O381","A1H5TB600ATGFS","3MXX6RQ9EVRTFC527Z18RDK8KW6P4R","","null","<img src=""img/land6.png"" style=""width:200px;border:14px solid red;"">","null","","","","","","","","","",""
"","image-keyboard-response","146","52454","0.0-146.0","39LOEL67OTRPD8LBC6ZGK5T0P3O381","A1H5TB600ATGFS","3MXX6RQ9EVRTFC527Z18RDK8KW6P4R","","33.10000002384186","img/land6.png","74","33.89999997615814","1","0","3","1","0.8,0.2,0.2,0.2,0.8,0.2,0.2,0.2,0.8","0.8,0.2,0.2,0.2,0.8,0.2,0.2,0.2,0.8","1","",""
"","html-keyboard-response","147","52768","0.0-147.0","39LOEL67OTRPD8LBC6ZGK5T0P3O381","A1H5TB600ATGFS","3MXX6RQ9EVRTFC527Z18RDK8KW6P4R","","null","<img src=""img/land6.png"" style=""width:200px;border:14px solid red;"">","null","","","","","","","","","",""
"","image-keyboard-response","148","52859","0.0-148.0","39LOEL67OTRPD8LBC6ZGK5T0P3O381","A1H5TB600ATGFS","3MXX6RQ9EVRTFC527Z18RDK8KW6P4R","","89.89999997615814","img/land6.png","74","90.70000004768372","1","0","3","1","0.8,0.2,0.2,0.2,0.8,0.2,0.2,0.2,0.8","0.8,0.2,0.2,0.2,0.8,0.2,0.2,0.2,0.8","1","",""
"","html-keyboard-response","149","53164","0.0-149.0","39LOEL67OTRPD8LBC6ZGK5T0P3O381","A1H5TB600ATGFS","3MXX6RQ9EVRTFC527Z18RDK8KW6P4R","","null","<img src=""img/land6.png"" style=""width:200px;border:14px solid red;"">","null","","","","","","","","","",""
"","image-keyboard-response","150","53242","0.0-150.0","39LOEL67OTRPD8LBC6ZGK5T0P3O381","A1H5TB600ATGFS","3MXX6RQ9EVRTFC527Z18RDK8KW6P4R","","77.5","img/land1.png","74","78.30000007152557","1","1","1","1","0.8,0.2,0.2,0.2,0.8,0.2,0.2,0.2,0.8","0.8,0.2,0.2,0.2,0.8,0.2,0.2,0.2,0.8","1","",""
"","html-keyboard-response","151","53547","0.0-151.0","39LOEL67OTRPD8LBC6ZGK5T0P3O381","A1H5TB600ATGFS","3MXX6RQ9EVRTFC527Z18RDK8KW6P4R","","null","<img src=""img/land1.png"" style=""width:200px; border:14px solid green;"">","null","","","","","","","","","",""
"","image-keyboard-response","152","53675","0.0-152.0","39LOEL67OTRPD8LBC6ZGK5T0P3O381","A1H5TB600ATGFS","3MXX6RQ9EVRTFC527Z18RDK8KW6P4R","","128.09999990463257","img/land6.png","74","128.70000004768372","1","1","3","1","0.8,0.2,0.2,0.2,0.8,0.2,0.2,0.2,0.8","0.8,0.2,0.2,0.2,0.8,0.2,0.2,0.2,0.8","1","",""
"","html-keyboard-response","153","53983","0.0-153.0","39LOEL67OTRPD8LBC6ZGK5T0P3O381","A1H5TB600ATGFS","3MXX6RQ9EVRTFC527Z18RDK8KW6P4R","","null","<img src=""img/land6.png"" style=""width:200px; border:14px solid green;"">","null","","","","","","","","","",""
"","image-keyboard-response","154","54028","0.0-154.0","39LOEL67OTRPD8LBC6ZGK5T0P3O381","A1H5TB600ATGFS","3MXX6RQ9EVRTFC527Z18RDK8KW6P4R","","44.39999997615814","img/land5.png","74","45","1","0","2","1","0.8,0.2,0.2,0.2,0.8,0.2,0.2,0.2,0.8","0.8,0.2,0.2,0.2,0.8,0.2,0.2,0.2,0.8","1","",""
"","html-keyboard-response","155","54335","0.0-155.0","39LOEL67OTRPD8LBC6ZGK5T0P3O381","A1H5TB600ATGFS","3MXX6RQ9EVRTFC527Z18RDK8KW6P4R","","null","<img src=""img/land5.png"" style=""width:200px;border:14px solid red;"">","null","","","","","","","","","",""
"","image-keyboard-response","156","54386","0.0-156.0","39LOEL67OTRPD8LBC6ZGK5T0P3O381","A1H5TB600ATGFS","3MXX6RQ9EVRTFC527Z18RDK8KW6P4R","","50.5","img/land5.png","74","51.199999928474426","1","1","2","1","0.8,0.2,0.2,0.2,0.8,0.2,0.2,0.2,0.8","0.8,0.2,0.2,0.2,0.8,0.2,0.2,0.2,0.8","1","",""
"","html-keyboard-response","157","54691","0.0-157.0","39LOEL67OTRPD8LBC6ZGK5T0P3O381","A1H5TB600ATGFS","3MXX6RQ9EVRTFC527Z18RDK8KW6P4R","","null","<img src=""img/land5.png"" style=""width:200px; border:14px solid green;"">","null","","","","","","","","","",""
"","image-keyboard-response","158","54808","0.0-158.0","39LOEL67OTRPD8LBC6ZGK5T0P3O381","A1H5TB600ATGFS","3MXX6RQ9EVRTFC527Z18RDK8KW6P4R","","115.79999995231628","img/land6.png","74","116.59999990463257","1","0","3","1","0.8,0.2,0.2,0.2,0.8,0.2,0.2,0.2,0.8","0.8,0.2,0.2,0.2,0.8,0.2,0.2,0.2,0.8","1","",""
"","html-keyboard-response","159","55114","0.0-159.0","39LOEL67OTRPD8LBC6ZGK5T0P3O381","A1H5TB600ATGFS","3MXX6RQ9EVRTFC527Z18RDK8KW6P4R","","null","<img src=""img/land6.png"" style=""width:200px;border:14px solid red;"">","null","","","","","","","","","",""
"","image-keyboard-response","160","55232","0.0-160.0","39LOEL67OTRPD8LBC6ZGK5T0P3O381","A1H5TB600ATGFS","3MXX6RQ9EVRTFC527Z18RDK8KW6P4R","","117.19999992847443","img/land5.png","74","117.90000009536743","1","0","2","1","0.8,0.2,0.2,0.2,0.8,0.2,0.2,0.2,0.8","0.8,0.2,0.2,0.2,0.8,0.2,0.2,0.2,0.8","1","",""
"","html-keyboard-response","161","55544","0.0-161.0","39LOEL67OTRPD8LBC6ZGK5T0P3O381","A1H5TB600ATGFS","3MXX6RQ9EVRTFC527Z18RDK8KW6P4R","","null","<img src=""img/land5.png"" style=""width:200px;border:14px solid red;"">","null","","","","","","","","","",""
"","image-keyboard-response","162","55688","0.0-162.0","39LOEL67OTRPD8LBC6ZGK5T0P3O381","A1H5TB600ATGFS","3MXX6RQ9EVRTFC527Z18RDK8KW6P4R","","143.5","img/land5.png","76","144.30000007152557","3","0","2","1","0.8,0.2,0.2,0.2,0.8,0.2,0.2,0.2,0.8","0.8,0.2,0.2,0.2,0.8,0.2,0.2,0.2,0.8","1","",""
"","html-keyboard-response","163","55995","0.0-163.0","39LOEL67OTRPD8LBC6ZGK5T0P3O381","A1H5TB600ATGFS","3MXX6RQ9EVRTFC527Z18RDK8KW6P4R","","null","<img src=""img/land5.png"" style=""width:200px;border:14px solid red;"">","null","","","","","","","","","",""
"","image-keyboard-response","164","56025","0.0-164.0","39LOEL67OTRPD8LBC6ZGK5T0P3O381","A1H5TB600ATGFS","3MXX6RQ9EVRTFC527Z18RDK8KW6P4R","","29.300000071525574","img/land5.png","75","30.100000023841858","2","1","2","1","0.8,0.2,0.2,0.2,0.8,0.2,0.2,0.2,0.8","0.8,0.2,0.2,0.2,0.8,0.2,0.2,0.2,0.8","1","",""
"","html-keyboard-response","165","56334","0.0-165.0","39LOEL67OTRPD8LBC6ZGK5T0P3O381","A1H5TB600ATGFS","3MXX6RQ9EVRTFC527Z18RDK8KW6P4R","","null","<img src=""img/land5.png"" style=""width:200px; border:14px solid green;"">","null","","","","","","","","","",""
"","image-keyboard-response","166","56348","0.0-166.0","39LOEL67OTRPD8LBC6ZGK5T0P3O381","A1H5TB600ATGFS","3MXX6RQ9EVRTFC527Z18RDK8KW6P4R","","12.799999952316284","img/land6.png","74","13.600000023841858","1","1","3","1","0.8,0.2,0.2,0.2,0.8,0.2,0.2,0.2,0.8","0.8,0.2,0.2,0.2,0.8,0.2,0.2,0.2,0.8","1","",""
"","html-keyboard-response","167","56652","0.0-167.0","39LOEL67OTRPD8LBC6ZGK5T0P3O381","A1H5TB600ATGFS","3MXX6RQ9EVRTFC527Z18RDK8KW6P4R","","null","<img src=""img/land6.png"" style=""width:200px; border:14px solid green;"">","null","","","","","","","","","",""
"","image-keyboard-response","168","56887","0.0-168.0","39LOEL67OTRPD8LBC6ZGK5T0P3O381","A1H5TB600ATGFS","3MXX6RQ9EVRTFC527Z18RDK8KW6P4R","","234.5","img/land5.png","74","235.10000002384186","1","1","2","1","0.8,0.2,0.2,0.2,0.8,0.2,0.2,0.2,0.8","0.8,0.2,0.2,0.2,0.8,0.2,0.2,0.2,0.8","1","",""
"","html-keyboard-response","169","57199","0.0-169.0","39LOEL67OTRPD8LBC6ZGK5T0P3O381","A1H5TB600ATGFS","3MXX6RQ9EVRTFC527Z18RDK8KW6P4R","","null","<img src=""img/land5.png"" style=""width:200px; border:14px solid green;"">","null","","","","","","","","","",""
"","image-keyboard-response","170","57350","0.0-170.0","39LOEL67OTRPD8LBC6ZGK5T0P3O381","A1H5TB600ATGFS","3MXX6RQ9EVRTFC527Z18RDK8KW6P4R","","150.09999990463257","img/land5.png","75","150.89999997615814","2","1","2","1","0.8,0.2,0.2,0.2,0.8,0.2,0.2,0.2,0.8","0.8,0.2,0.2,0.2,0.8,0.2,0.2,0.2,0.8","1","",""
"","html-keyboard-response","171","57656","0.0-171.0","39LOEL67OTRPD8LBC6ZGK5T0P3O381","A1H5TB600ATGFS","3MXX6RQ9EVRTFC527Z18RDK8KW6P4R","","null","<img src=""img/land5.png"" style=""width:200px; border:14px solid green;"">","null","","","","","","","","","",""
"","image-keyboard-response","172","58202","0.0-172.0","39LOEL67OTRPD8LBC6ZGK5T0P3O381","A1H5TB600ATGFS","3MXX6RQ9EVRTFC527Z18RDK8KW6P4R","","545.1000000238419","img/land6.png","74","545.7999999523163","1","0","3","1","0.8,0.2,0.2,0.2,0.8,0.2,0.2,0.2,0.8","0.8,0.2,0.2,0.2,0.8,0.2,0.2,0.2,0.8","1","",""
"","html-keyboard-response","173","58506","0.0-173.0","39LOEL67OTRPD8LBC6ZGK5T0P3O381","A1H5TB600ATGFS","3MXX6RQ9EVRTFC527Z18RDK8KW6P4R","","null","<img src=""img/land6.png"" style=""width:200px;border:14px solid red;"">","null","","","","","","","","","",""
"","image-keyboard-response","174","58606","0.0-174.0","39LOEL67OTRPD8LBC6ZGK5T0P3O381","A1H5TB600ATGFS","3MXX6RQ9EVRTFC527Z18RDK8KW6P4R","","98.5","img/land1.png","75","99.20000004768372","2","1","1","1","0.8,0.2,0.2,0.2,0.8,0.2,0.2,0.2,0.8","0.8,0.2,0.2,0.2,0.8,0.2,0.2,0.2,0.8","1","",""
"","html-keyboard-response","175","58916","0.0-175.0","39LOEL67OTRPD8LBC6ZGK5T0P3O381","A1H5TB600ATGFS","3MXX6RQ9EVRTFC527Z18RDK8KW6P4R","","null","<img src=""img/land1.png"" style=""width:200px; border:14px solid green;"">","null","","","","","","","","","",""
"","image-keyboard-response","176","59095","0.0-176.0","39LOEL67OTRPD8LBC6ZGK5T0P3O381","A1H5TB600ATGFS","3MXX6RQ9EVRTFC527Z18RDK8KW6P4R","","177.59999990463257","img/land1.png","74","178.39999997615814","1","0","1","1","0.8,0.2,0.2,0.2,0.8,0.2,0.2,0.2,0.8","0.8,0.2,0.2,0.2,0.8,0.2,0.2,0.2,0.8","1","",""
"","html-keyboard-response","177","59397","0.0-177.0","39LOEL67OTRPD8LBC6ZGK5T0P3O381","A1H5TB600ATGFS","3MXX6RQ9EVRTFC527Z18RDK8KW6P4R","","null","<img src=""img/land1.png"" style=""width:200px;border:14px solid red;"">","null","","","","","","","","","",""
"","image-keyboard-response","178","59487","0.0-178.0","39LOEL67OTRPD8LBC6ZGK5T0P3O381","A1H5TB600ATGFS","3MXX6RQ9EVRTFC527Z18RDK8KW6P4R","","89.39999997615814","img/land1.png","75","90.40000009536743","2","0","1","1","0.8,0.2,0.2,0.2,0.8,0.2,0.2,0.2,0.8","0.8,0.2,0.2,0.2,0.8,0.2,0.2,0.2,0.8","1","",""
"","html-keyboard-response","179","59800","0.0-179.0","39LOEL67OTRPD8LBC6ZGK5T0P3O381","A1H5TB600ATGFS","3MXX6RQ9EVRTFC527Z18RDK8KW6P4R","","null","<img src=""img/land1.png"" style=""width:200px;border:14px solid red;"">","null","","","","","","","","","",""
"","image-keyboard-response","180","59870","0.0-180.0","39LOEL67OTRPD8LBC6ZGK5T0P3O381","A1H5TB600ATGFS","3MXX6RQ9EVRTFC527Z18RDK8KW6P4R","","69.39999997615814","img/land5.png","74","70.40000009536743","1","0","2","1","0.8,0.2,0.2,0.2,0.8,0.2,0.2,0.2,0.8","0.8,0.2,0.2,0.2,0.8,0.2,0.2,0.2,0.8","1","",""
"","html-keyboard-response","181","60183","0.0-181.0","39LOEL67OTRPD8LBC6ZGK5T0P3O381","A1H5TB600ATGFS","3MXX6RQ9EVRTFC527Z18RDK8KW6P4R","","null","<img src=""img/land5.png"" style=""width:200px;border:14px solid red;"">","null","","","","","","","","","",""
"","html-keyboard-response","182","62304","0.0-182.0","39LOEL67OTRPD8LBC6ZGK5T0P3O381","A1H5TB600ATGFS","3MXX6RQ9EVRTFC527Z18RDK8KW6P4R","","","","","","","","","","","","","",""
"","image-keyboard-response","183","63307","0.0-183.0","39LOEL67OTRPD8LBC6ZGK5T0P3O381","A1H5TB600ATGFS","3MXX6RQ9EVRTFC527Z18RDK8KW6P4R","","1002.2000000476837","img/land3.png","74","1003.5","1","0","1","2","0.8,0.2,0.2,0.2,0.8,0.2,0.2,0.2,0.8","0.2,0.2,0.8,0.8,0.2,0.2,0.2,0.8,0.2","2","",""
"","html-keyboard-response","184","63615","0.0-184.0","39LOEL67OTRPD8LBC6ZGK5T0P3O381","A1H5TB600ATGFS","3MXX6RQ9EVRTFC527Z18RDK8KW6P4R","","null","<img src=""img/land3.png"" style=""width:200px;border:14px solid red;"">","null","","","","","","","","","",""
"","image-keyboard-response","185","63702","0.0-185.0","39LOEL67OTRPD8LBC6ZGK5T0P3O381","A1H5TB600ATGFS","3MXX6RQ9EVRTFC527Z18RDK8KW6P4R","","86.30000007152557","img/land3.png","75","87.20000004768372","2","0","1","2","0.8,0.2,0.2,0.2,0.8,0.2,0.2,0.2,0.8","0.2,0.2,0.8,0.8,0.2,0.2,0.2,0.8,0.2","2","",""
"","html-keyboard-response","186","64014","0.0-186.0","39LOEL67OTRPD8LBC6ZGK5T0P3O381","A1H5TB600ATGFS","3MXX6RQ9EVRTFC527Z18RDK8KW6P4R","","null","<img src=""img/land3.png"" style=""width:200px;border:14px solid red;"">","null","","","","","","","","","",""
"","image-keyboard-response","187","64066","0.0-187.0","39LOEL67OTRPD8LBC6ZGK5T0P3O381","A1H5TB600ATGFS","3MXX6RQ9EVRTFC527Z18RDK8KW6P4R","","51.199999928474426","img/land4.png","76","51.89999997615814","3","1","3","2","0.8,0.2,0.2,0.2,0.8,0.2,0.2,0.2,0.8","0.2,0.2,0.8,0.8,0.2,0.2,0.2,0.8,0.2","2","",""
"","html-keyboard-response","188","64371","0.0-188.0","39LOEL67OTRPD8LBC6ZGK5T0P3O381","A1H5TB600ATGFS","3MXX6RQ9EVRTFC527Z18RDK8KW6P4R","","null","<img src=""img/land4.png"" style=""width:200px; border:14px solid green;"">","null","","","","","","","","","",""
"","image-keyboard-response","189","64507","0.0-189.0","39LOEL67OTRPD8LBC6ZGK5T0P3O381","A1H5TB600ATGFS","3MXX6RQ9EVRTFC527Z18RDK8KW6P4R","","135.39999997615814","img/land3.png","76","136.30000007152557","3","1","1","2","0.8,0.2,0.2,0.2,0.8,0.2,0.2,0.2,0.8","0.2,0.2,0.8,0.8,0.2,0.2,0.2,0.8,0.2","2","",""
"","html-keyboard-response","190","64815","0.0-190.0","39LOEL67OTRPD8LBC6ZGK5T0P3O381","A1H5TB600ATGFS","3MXX6RQ9EVRTFC527Z18RDK8KW6P4R","","null","<img src=""img/land3.png"" style=""width:200px; border:14px solid green;"">","null","","","","","","","","","",""
"","image-keyboard-response","191","64907","0.0-191.0","39LOEL67OTRPD8LBC6ZGK5T0P3O381","A1H5TB600ATGFS","3MXX6RQ9EVRTFC527Z18RDK8KW6P4R","","91.39999997615814","img/land4.png","74","92.09999990463257","1","0","3","2","0.8,0.2,0.2,0.2,0.8,0.2,0.2,0.2,0.8","0.2,0.2,0.8,0.8,0.2,0.2,0.2,0.8,0.2","2","",""
"","html-keyboard-response","192","65211","0.0-192.0","39LOEL67OTRPD8LBC6ZGK5T0P3O381","A1H5TB600ATGFS","3MXX6RQ9EVRTFC527Z18RDK8KW6P4R","","null","<img src=""img/land4.png"" style=""width:200px;border:14px solid red;"">","null","","","","","","","","","",""
"","image-keyboard-response","193","65308","0.0-193.0","39LOEL67OTRPD8LBC6ZGK5T0P3O381","A1H5TB600ATGFS","3MXX6RQ9EVRTFC527Z18RDK8KW6P4R","","96.5","img/land3.png","74","97.19999992847443","1","0","1","2","0.8,0.2,0.2,0.2,0.8,0.2,0.2,0.2,0.8","0.2,0.2,0.8,0.8,0.2,0.2,0.2,0.8,0.2","2","",""
"","html-keyboard-response","194","65611","0.0-194.0","39LOEL67OTRPD8LBC6ZGK5T0P3O381","A1H5TB600ATGFS","3MXX6RQ9EVRTFC527Z18RDK8KW6P4R","","null","<img src=""img/land3.png"" style=""width:200px;border:14px solid red;"">","null","","","","","","","","","",""
"","image-keyboard-response","195","65772","0.0-195.0","39LOEL67OTRPD8LBC6ZGK5T0P3O381","A1H5TB600ATGFS","3MXX6RQ9EVRTFC527Z18RDK8KW6P4R","","160","img/land2.png","74","161","1","1","2","2","0.8,0.2,0.2,0.2,0.8,0.2,0.2,0.2,0.8","0.2,0.2,0.8,0.8,0.2,0.2,0.2,0.8,0.2","2","",""
"","html-keyboard-response","196","66077","0.0-196.0","39LOEL67OTRPD8LBC6ZGK5T0P3O381","A1H5TB600ATGFS","3MXX6RQ9EVRTFC527Z18RDK8KW6P4R","","null","<img src=""img/land2.png"" style=""width:200px; border:14px solid green;"">","null","","","","","","","","","",""
"","image-keyboard-response","197","66081","0.0-197.0","39LOEL67OTRPD8LBC6ZGK5T0P3O381","A1H5TB600ATGFS","3MXX6RQ9EVRTFC527Z18RDK8KW6P4R","","3.600000023841858","img/land3.png","76","4.399999976158142","3","1","1","2","0.8,0.2,0.2,0.2,0.8,0.2,0.2,0.2,0.8","0.2,0.2,0.8,0.8,0.2,0.2,0.2,0.8,0.2","2","",""
"","html-keyboard-response","198","66383","0.0-198.0","39LOEL67OTRPD8LBC6ZGK5T0P3O381","A1H5TB600ATGFS","3MXX6RQ9EVRTFC527Z18RDK8KW6P4R","","null","<img src=""img/land3.png"" style=""width:200px; border:14px solid green;"">","null","","","","","","","","","",""
"","image-keyboard-response","199","66447","0.0-199.0","39LOEL67OTRPD8LBC6ZGK5T0P3O381","A1H5TB600ATGFS","3MXX6RQ9EVRTFC527Z18RDK8KW6P4R","","63.60000002384186","img/land2.png","75","64.5","2","0","2","2","0.8,0.2,0.2,0.2,0.8,0.2,0.2,0.2,0.8","0.2,0.2,0.8,0.8,0.2,0.2,0.2,0.8,0.2","2","",""
"","html-keyboard-response","200","66756","0.0-200.0","39LOEL67OTRPD8LBC6ZGK5T0P3O381","A1H5TB600ATGFS","3MXX6RQ9EVRTFC527Z18RDK8KW6P4R","","null","<img src=""img/land2.png"" style=""width:200px;border:14px solid red;"">","null","","","","","","","","","",""
"","image-keyboard-response","201","66903","0.0-201.0","39LOEL67OTRPD8LBC6ZGK5T0P3O381","A1H5TB600ATGFS","3MXX6RQ9EVRTFC527Z18RDK8KW6P4R","","146.10000002384186","img/land3.png","76","147","3","1","1","2","0.8,0.2,0.2,0.2,0.8,0.2,0.2,0.2,0.8","0.2,0.2,0.8,0.8,0.2,0.2,0.2,0.8,0.2","2","",""
"","html-keyboard-response","202","67215","0.0-202.0","39LOEL67OTRPD8LBC6ZGK5T0P3O381","A1H5TB600ATGFS","3MXX6RQ9EVRTFC527Z18RDK8KW6P4R","","null","<img src=""img/land3.png"" style=""width:200px; border:14px solid green;"">","null","","","","","","","","","",""
"","image-keyboard-response","203","67379","0.0-203.0","39LOEL67OTRPD8LBC6ZGK5T0P3O381","A1H5TB600ATGFS","3MXX6RQ9EVRTFC527Z18RDK8KW6P4R","","163.40000009536743","img/land3.png","76","164.39999997615814","3","1","1","2","0.8,0.2,0.2,0.2,0.8,0.2,0.2,0.2,0.8","0.2,0.2,0.8,0.8,0.2,0.2,0.2,0.8,0.2","2","",""
"","html-keyboard-response","204","67687","0.0-204.0","39LOEL67OTRPD8LBC6ZGK5T0P3O381","A1H5TB600ATGFS","3MXX6RQ9EVRTFC527Z18RDK8KW6P4R","","null","<img src=""img/land3.png"" style=""width:200px; border:14px solid green;"">","null","","","","","","","","","",""
"","image-keyboard-response","205","67745","0.0-205.0","39LOEL67OTRPD8LBC6ZGK5T0P3O381","A1H5TB600ATGFS","3MXX6RQ9EVRTFC527Z18RDK8KW6P4R","","57.299999952316284","img/land3.png","76","58.09999990463257","3","1","1","2","0.8,0.2,0.2,0.2,0.8,0.2,0.2,0.2,0.8","0.2,0.2,0.8,0.8,0.2,0.2,0.2,0.8,0.2","2","",""
"","html-keyboard-response","206","68055","0.0-206.0","39LOEL67OTRPD8LBC6ZGK5T0P3O381","A1H5TB600ATGFS","3MXX6RQ9EVRTFC527Z18RDK8KW6P4R","","null","<img src=""img/land3.png"" style=""width:200px; border:14px solid green;"">","null","","","","","","","","","",""
"","image-keyboard-response","207","68143","0.0-207.0","39LOEL67OTRPD8LBC6ZGK5T0P3O381","A1H5TB600ATGFS","3MXX6RQ9EVRTFC527Z18RDK8KW6P4R","","87.30000007152557","img/land3.png","76","88.20000004768372","3","1","1","2","0.8,0.2,0.2,0.2,0.8,0.2,0.2,0.2,0.8","0.2,0.2,0.8,0.8,0.2,0.2,0.2,0.8,0.2","2","",""
"","html-keyboard-response","208","68455","0.0-208.0","39LOEL67OTRPD8LBC6ZGK5T0P3O381","A1H5TB600ATGFS","3MXX6RQ9EVRTFC527Z18RDK8KW6P4R","","null","<img src=""img/land3.png"" style=""width:200px; border:14px solid green;"">","null","","","","","","","","","",""
"","image-keyboard-response","209","68552","0.0-209.0","39LOEL67OTRPD8LBC6ZGK5T0P3O381","A1H5TB600ATGFS","3MXX6RQ9EVRTFC527Z18RDK8KW6P4R","","96.39999997615814","img/land3.png","76","97.20000004768372","3","1","1","2","0.8,0.2,0.2,0.2,0.8,0.2,0.2,0.2,0.8","0.2,0.2,0.8,0.8,0.2,0.2,0.2,0.8,0.2","2","",""
"","html-keyboard-response","210","68863","0.0-210.0","39LOEL67OTRPD8LBC6ZGK5T0P3O381","A1H5TB600ATGFS","3MXX6RQ9EVRTFC527Z18RDK8KW6P4R","","null","<img src=""img/land3.png"" style=""width:200px; border:14px solid green;"">","null","","","","","","","","","",""
"","image-keyboard-response","211","68921","0.0-211.0","39LOEL67OTRPD8LBC6ZGK5T0P3O381","A1H5TB600ATGFS","3MXX6RQ9EVRTFC527Z18RDK8KW6P4R","","56.89999997615814","img/land3.png","76","57.700000047683716","3","1","1","2","0.8,0.2,0.2,0.2,0.8,0.2,0.2,0.2,0.8","0.2,0.2,0.8,0.8,0.2,0.2,0.2,0.8,0.2","2","",""
"","html-keyboard-response","212","69231","0.0-212.0","39LOEL67OTRPD8LBC6ZGK5T0P3O381","A1H5TB600ATGFS","3MXX6RQ9EVRTFC527Z18RDK8KW6P4R","","null","<img src=""img/land3.png"" style=""width:200px; border:14px solid green;"">","null","","","","","","","","","",""
"","image-keyboard-response","213","69291","0.0-213.0","39LOEL67OTRPD8LBC6ZGK5T0P3O381","A1H5TB600ATGFS","3MXX6RQ9EVRTFC527Z18RDK8KW6P4R","","59.10000002384186","img/land3.png","76","60.10000002384186","3","1","1","2","0.8,0.2,0.2,0.2,0.8,0.2,0.2,0.2,0.8","0.2,0.2,0.8,0.8,0.2,0.2,0.2,0.8,0.2","2","",""
"","html-keyboard-response","214","69599","0.0-214.0","39LOEL67OTRPD8LBC6ZGK5T0P3O381","A1H5TB600ATGFS","3MXX6RQ9EVRTFC527Z18RDK8KW6P4R","","null","<img src=""img/land3.png"" style=""width:200px; border:14px solid green;"">","null","","","","","","","","","",""
"","image-keyboard-response","215","69706","0.0-215.0","39LOEL67OTRPD8LBC6ZGK5T0P3O381","A1H5TB600ATGFS","3MXX6RQ9EVRTFC527Z18RDK8KW6P4R","","105.39999997615814","img/land3.png","76","106.30000007152557","3","1","1","2","0.8,0.2,0.2,0.2,0.8,0.2,0.2,0.2,0.8","0.2,0.2,0.8,0.8,0.2,0.2,0.2,0.8,0.2","2","",""
"","html-keyboard-response","216","70014","0.0-216.0","39LOEL67OTRPD8LBC6ZGK5T0P3O381","A1H5TB600ATGFS","3MXX6RQ9EVRTFC527Z18RDK8KW6P4R","","null","<img src=""img/land3.png"" style=""width:200px; border:14px solid green;"">","null","","","","","","","","","",""
"","image-keyboard-response","217","70092","0.0-217.0","39LOEL67OTRPD8LBC6ZGK5T0P3O381","A1H5TB600ATGFS","3MXX6RQ9EVRTFC527Z18RDK8KW6P4R","","76.90000009536743","img/land3.png","76","77.70000004768372","3","1","1","2","0.8,0.2,0.2,0.2,0.8,0.2,0.2,0.2,0.8","0.2,0.2,0.8,0.8,0.2,0.2,0.2,0.8,0.2","2","",""
"","html-keyboard-response","218","70399","0.0-218.0","39LOEL67OTRPD8LBC6ZGK5T0P3O381","A1H5TB600ATGFS","3MXX6RQ9EVRTFC527Z18RDK8KW6P4R","","null","<img src=""img/land3.png"" style=""width:200px; border:14px solid green;"">","null","","","","","","","","","",""
"","image-keyboard-response","219","70521","0.0-219.0","39LOEL67OTRPD8LBC6ZGK5T0P3O381","A1H5TB600ATGFS","3MXX6RQ9EVRTFC527Z18RDK8KW6P4R","","120.5","img/land2.png","76","121.30000007152557","3","0","2","2","0.8,0.2,0.2,0.2,0.8,0.2,0.2,0.2,0.8","0.2,0.2,0.8,0.8,0.2,0.2,0.2,0.8,0.2","2","",""
"","html-keyboard-response","220","70831","0.0-220.0","39LOEL67OTRPD8LBC6ZGK5T0P3O381","A1H5TB600ATGFS","3MXX6RQ9EVRTFC527Z18RDK8KW6P4R","","null","<img src=""img/land2.png"" style=""width:200px;border:14px solid red;"">","null","","","","","","","","","",""
"","image-keyboard-response","221","70910","0.0-221.0","39LOEL67OTRPD8LBC6ZGK5T0P3O381","A1H5TB600ATGFS","3MXX6RQ9EVRTFC527Z18RDK8KW6P4R","","77.79999995231628","img/land4.png","74","78.89999997615814","1","0","3","2","0.8,0.2,0.2,0.2,0.8,0.2,0.2,0.2,0.8","0.2,0.2,0.8,0.8,0.2,0.2,0.2,0.8,0.2","2","",""
"","html-keyboard-response","222","71220","0.0-222.0","39LOEL67OTRPD8LBC6ZGK5T0P3O381","A1H5TB600ATGFS","3MXX6RQ9EVRTFC527Z18RDK8KW6P4R","","null","<img src=""img/land4.png"" style=""width:200px;border:14px solid red;"">","null","","","","","","","","","",""
"","image-keyboard-response","223","71258","0.0-223.0","39LOEL67OTRPD8LBC6ZGK5T0P3O381","A1H5TB600ATGFS","3MXX6RQ9EVRTFC527Z18RDK8KW6P4R","","37.699999928474426","img/land4.png","74","38.5","1","0","3","2","0.8,0.2,0.2,0.2,0.8,0.2,0.2,0.2,0.8","0.2,0.2,0.8,0.8,0.2,0.2,0.2,0.8,0.2","2","",""
"","html-keyboard-response","224","71562","0.0-224.0","39LOEL67OTRPD8LBC6ZGK5T0P3O381","A1H5TB600ATGFS","3MXX6RQ9EVRTFC527Z18RDK8KW6P4R","","null","<img src=""img/land4.png"" style=""width:200px;border:14px solid red;"">","null","","","","","","","","","",""
"","image-keyboard-response","225","71937","0.0-225.0","39LOEL67OTRPD8LBC6ZGK5T0P3O381","A1H5TB600ATGFS","3MXX6RQ9EVRTFC527Z18RDK8KW6P4R","","373","img/land4.png","74","374.1999999284744","1","0","3","2","0.8,0.2,0.2,0.2,0.8,0.2,0.2,0.2,0.8","0.2,0.2,0.8,0.8,0.2,0.2,0.2,0.8,0.2","2","",""
"","html-keyboard-response","226","72243","0.0-226.0","39LOEL67OTRPD8LBC6ZGK5T0P3O381","A1H5TB600ATGFS","3MXX6RQ9EVRTFC527Z18RDK8KW6P4R","","null","<img src=""img/land4.png"" style=""width:200px;border:14px solid red;"">","null","","","","","","","","","",""
"","image-keyboard-response","227","72285","0.0-227.0","39LOEL67OTRPD8LBC6ZGK5T0P3O381","A1H5TB600ATGFS","3MXX6RQ9EVRTFC527Z18RDK8KW6P4R","","40.799999952316284","img/land4.png","76","41.89999997615814","3","0","3","2","0.8,0.2,0.2,0.2,0.8,0.2,0.2,0.2,0.8","0.2,0.2,0.8,0.8,0.2,0.2,0.2,0.8,0.2","2","",""
"","html-keyboard-response","228","72597","0.0-228.0","39LOEL67OTRPD8LBC6ZGK5T0P3O381","A1H5TB600ATGFS","3MXX6RQ9EVRTFC527Z18RDK8KW6P4R","","null","<img src=""img/land4.png"" style=""width:200px;border:14px solid red;"">","null","","","","","","","","","",""
"","image-keyboard-response","229","72613","0.0-229.0","39LOEL67OTRPD8LBC6ZGK5T0P3O381","A1H5TB600ATGFS","3MXX6RQ9EVRTFC527Z18RDK8KW6P4R","","15.800000071525574","img/land3.png","75","16.600000023841858","2","0","1","2","0.8,0.2,0.2,0.2,0.8,0.2,0.2,0.2,0.8","0.2,0.2,0.8,0.8,0.2,0.2,0.2,0.8,0.2","2","",""
"","html-keyboard-response","230","72922","0.0-230.0","39LOEL67OTRPD8LBC6ZGK5T0P3O381","A1H5TB600ATGFS","3MXX6RQ9EVRTFC527Z18RDK8KW6P4R","","null","<img src=""img/land3.png"" style=""width:200px;border:14px solid red;"">","null","","","","","","","","","",""
"","image-keyboard-response","231","72992","0.0-231.0","39LOEL67OTRPD8LBC6ZGK5T0P3O381","A1H5TB600ATGFS","3MXX6RQ9EVRTFC527Z18RDK8KW6P4R","","68.80000007152557","img/land3.png","74","69.69999992847443","1","1","1","2","0.8,0.2,0.2,0.2,0.8,0.2,0.2,0.2,0.8","0.2,0.2,0.8,0.8,0.2,0.2,0.2,0.8,0.2","2","",""
"","html-keyboard-response","232","73303","0.0-232.0","39LOEL67OTRPD8LBC6ZGK5T0P3O381","A1H5TB600ATGFS","3MXX6RQ9EVRTFC527Z18RDK8KW6P4R","","null","<img src=""img/land3.png"" style=""width:200px; border:14px solid green;"">","null","","","","","","","","","",""
"","image-keyboard-response","233","73688","0.0-233.0","39LOEL67OTRPD8LBC6ZGK5T0P3O381","A1H5TB600ATGFS","3MXX6RQ9EVRTFC527Z18RDK8KW6P4R","","384.10000002384186","img/land3.png","76","385","3","1","1","2","0.8,0.2,0.2,0.2,0.8,0.2,0.2,0.2,0.8","0.2,0.2,0.8,0.8,0.2,0.2,0.2,0.8,0.2","2","",""
"","html-keyboard-response","234","73993","0.0-234.0","39LOEL67OTRPD8LBC6ZGK5T0P3O381","A1H5TB600ATGFS","3MXX6RQ9EVRTFC527Z18RDK8KW6P4R","","null","<img src=""img/land3.png"" style=""width:200px; border:14px solid green;"">","null","","","","","","","","","",""
"","image-keyboard-response","235","74098","0.0-235.0","39LOEL67OTRPD8LBC6ZGK5T0P3O381","A1H5TB600ATGFS","3MXX6RQ9EVRTFC527Z18RDK8KW6P4R","","103.29999995231628","img/land4.png","76","104.10000002384186","3","1","3","2","0.8,0.2,0.2,0.2,0.8,0.2,0.2,0.2,0.8","0.2,0.2,0.8,0.8,0.2,0.2,0.2,0.8,0.2","2","",""
"","html-keyboard-response","236","74407","0.0-236.0","39LOEL67OTRPD8LBC6ZGK5T0P3O381","A1H5TB600ATGFS","3MXX6RQ9EVRTFC527Z18RDK8KW6P4R","","null","<img src=""img/land4.png"" style=""width:200px; border:14px solid green;"">","null","","","","","","","","","",""
"","image-keyboard-response","237","74599","0.0-237.0","39LOEL67OTRPD8LBC6ZGK5T0P3O381","A1H5TB600ATGFS","3MXX6RQ9EVRTFC527Z18RDK8KW6P4R","","191.20000004768372","img/land4.png","76","192.10000002384186","3","0","3","2","0.8,0.2,0.2,0.2,0.8,0.2,0.2,0.2,0.8","0.2,0.2,0.8,0.8,0.2,0.2,0.2,0.8,0.2","2","",""
"","html-keyboard-response","238","74908","0.0-238.0","39LOEL67OTRPD8LBC6ZGK5T0P3O381","A1H5TB600ATGFS","3MXX6RQ9EVRTFC527Z18RDK8KW6P4R","","null","<img src=""img/land4.png"" style=""width:200px;border:14px solid red;"">","null","","","","","","","","","",""
"","image-keyboard-response","239","75312","0.0-239.0","39LOEL67OTRPD8LBC6ZGK5T0P3O381","A1H5TB600ATGFS","3MXX6RQ9EVRTFC527Z18RDK8KW6P4R","","403.1999999284744","img/land3.png","76","404.1999999284744","3","1","1","2","0.8,0.2,0.2,0.2,0.8,0.2,0.2,0.2,0.8","0.2,0.2,0.8,0.8,0.2,0.2,0.2,0.8,0.2","2","",""
"","html-keyboard-response","240","75622","0.0-240.0","39LOEL67OTRPD8LBC6ZGK5T0P3O381","A1H5TB600ATGFS","3MXX6RQ9EVRTFC527Z18RDK8KW6P4R","","null","<img src=""img/land3.png"" style=""width:200px; border:14px solid green;"">","null","","","","","","","","","",""
"","image-keyboard-response","241","75692","0.0-241.0","39LOEL67OTRPD8LBC6ZGK5T0P3O381","A1H5TB600ATGFS","3MXX6RQ9EVRTFC527Z18RDK8KW6P4R","","69.10000002384186","img/land3.png","76","69.89999997615814","3","1","1","2","0.8,0.2,0.2,0.2,0.8,0.2,0.2,0.2,0.8","0.2,0.2,0.8,0.8,0.2,0.2,0.2,0.8,0.2","2","",""
"","html-keyboard-response","242","75998","0.0-242.0","39LOEL67OTRPD8LBC6ZGK5T0P3O381","A1H5TB600ATGFS","3MXX6RQ9EVRTFC527Z18RDK8KW6P4R","","null","<img src=""img/land3.png"" style=""width:200px; border:14px solid green;"">","null","","","","","","","","","",""
"","image-keyboard-response","243","76131","0.0-243.0","39LOEL67OTRPD8LBC6ZGK5T0P3O381","A1H5TB600ATGFS","3MXX6RQ9EVRTFC527Z18RDK8KW6P4R","","132.20000004768372","img/land3.png","76","133","3","1","1","2","0.8,0.2,0.2,0.2,0.8,0.2,0.2,0.2,0.8","0.2,0.2,0.8,0.8,0.2,0.2,0.2,0.8,0.2","2","",""
"","html-keyboard-response","244","76436","0.0-244.0","39LOEL67OTRPD8LBC6ZGK5T0P3O381","A1H5TB600ATGFS","3MXX6RQ9EVRTFC527Z18RDK8KW6P4R","","null","<img src=""img/land3.png"" style=""width:200px; border:14px solid green;"">","null","","","","","","","","","",""
"","image-keyboard-response","245","76539","0.0-245.0","39LOEL67OTRPD8LBC6ZGK5T0P3O381","A1H5TB600ATGFS","3MXX6RQ9EVRTFC527Z18RDK8KW6P4R","","102.20000004768372","img/land3.png","76","102.80000007152557","3","1","1","2","0.8,0.2,0.2,0.2,0.8,0.2,0.2,0.2,0.8","0.2,0.2,0.8,0.8,0.2,0.2,0.2,0.8,0.2","2","",""
"","html-keyboard-response","246","76844","0.0-246.0","39LOEL67OTRPD8LBC6ZGK5T0P3O381","A1H5TB600ATGFS","3MXX6RQ9EVRTFC527Z18RDK8KW6P4R","","null","<img src=""img/land3.png"" style=""width:200px; border:14px solid green;"">","null","","","","","","","","","",""
"","image-keyboard-response","247","76961","0.0-247.0","39LOEL67OTRPD8LBC6ZGK5T0P3O381","A1H5TB600ATGFS","3MXX6RQ9EVRTFC527Z18RDK8KW6P4R","","115.89999997615814","img/land3.png","76","116.70000004768372","3","1","1","2","0.8,0.2,0.2,0.2,0.8,0.2,0.2,0.2,0.8","0.2,0.2,0.8,0.8,0.2,0.2,0.2,0.8,0.2","2","",""
"","html-keyboard-response","248","77270","0.0-248.0","39LOEL67OTRPD8LBC6ZGK5T0P3O381","A1H5TB600ATGFS","3MXX6RQ9EVRTFC527Z18RDK8KW6P4R","","null","<img src=""img/land3.png"" style=""width:200px; border:14px solid green;"">","null","","","","","","","","","",""
"","image-keyboard-response","249","77410","0.0-249.0","39LOEL67OTRPD8LBC6ZGK5T0P3O381","A1H5TB600ATGFS","3MXX6RQ9EVRTFC527Z18RDK8KW6P4R","","138.89999997615814","img/land4.png","76","140","3","0","3","2","0.8,0.2,0.2,0.2,0.8,0.2,0.2,0.2,0.8","0.2,0.2,0.8,0.8,0.2,0.2,0.2,0.8,0.2","2","",""
"","html-keyboard-response","250","77719","0.0-250.0","39LOEL67OTRPD8LBC6ZGK5T0P3O381","A1H5TB600ATGFS","3MXX6RQ9EVRTFC527Z18RDK8KW6P4R","","null","<img src=""img/land4.png"" style=""width:200px;border:14px solid red;"">","null","","","","","","","","","",""
"","image-keyboard-response","251","77847","0.0-251.0","39LOEL67OTRPD8LBC6ZGK5T0P3O381","A1H5TB600ATGFS","3MXX6RQ9EVRTFC527Z18RDK8KW6P4R","","126.69999992847443","img/land3.png","74","127.39999997615814","1","1","1","2","0.8,0.2,0.2,0.2,0.8,0.2,0.2,0.2,0.8","0.2,0.2,0.8,0.8,0.2,0.2,0.2,0.8,0.2","2","",""
"","html-keyboard-response","252","78154","0.0-252.0","39LOEL67OTRPD8LBC6ZGK5T0P3O381","A1H5TB600ATGFS","3MXX6RQ9EVRTFC527Z18RDK8KW6P4R","","null","<img src=""img/land3.png"" style=""width:200px; border:14px solid green;"">","null","","","","","","","","","",""
"","image-keyboard-response","253","78527","0.0-253.0","39LOEL67OTRPD8LBC6ZGK5T0P3O381","A1H5TB600ATGFS","3MXX6RQ9EVRTFC527Z18RDK8KW6P4R","","371.7000000476837","img/land2.png","76","372.5","3","0","2","2","0.8,0.2,0.2,0.2,0.8,0.2,0.2,0.2,0.8","0.2,0.2,0.8,0.8,0.2,0.2,0.2,0.8,0.2","2","",""
"","html-keyboard-response","254","78837","0.0-254.0","39LOEL67OTRPD8LBC6ZGK5T0P3O381","A1H5TB600ATGFS","3MXX6RQ9EVRTFC527Z18RDK8KW6P4R","","null","<img src=""img/land2.png"" style=""width:200px;border:14px solid red;"">","null","","","","","","","","","",""
"","image-keyboard-response","255","78917","0.0-255.0","39LOEL67OTRPD8LBC6ZGK5T0P3O381","A1H5TB600ATGFS","3MXX6RQ9EVRTFC527Z18RDK8KW6P4R","","78.79999995231628","img/land4.png","76","79.5","3","0","3","2","0.8,0.2,0.2,0.2,0.8,0.2,0.2,0.2,0.8","0.2,0.2,0.8,0.8,0.2,0.2,0.2,0.8,0.2","2","",""
"","html-keyboard-response","256","79231","0.0-256.0","39LOEL67OTRPD8LBC6ZGK5T0P3O381","A1H5TB600ATGFS","3MXX6RQ9EVRTFC527Z18RDK8KW6P4R","","null","<img src=""img/land4.png"" style=""width:200px;border:14px solid red;"">","null","","","","","","","","","",""
"","image-keyboard-response","257","79573","0.0-257.0","39LOEL67OTRPD8LBC6ZGK5T0P3O381","A1H5TB600ATGFS","3MXX6RQ9EVRTFC527Z18RDK8KW6P4R","","341.39999997615814","img/land3.png","76","342.2999999523163","3","0","1","2","0.8,0.2,0.2,0.2,0.8,0.2,0.2,0.2,0.8","0.2,0.2,0.8,0.8,0.2,0.2,0.2,0.8,0.2","2","",""
"","html-keyboard-response","258","79876","0.0-258.0","39LOEL67OTRPD8LBC6ZGK5T0P3O381","A1H5TB600ATGFS","3MXX6RQ9EVRTFC527Z18RDK8KW6P4R","","null","<img src=""img/land3.png"" style=""width:200px;border:14px solid red;"">","null","","","","","","","","","",""
"","image-keyboard-response","259","80343","0.0-259.0","39LOEL67OTRPD8LBC6ZGK5T0P3O381","A1H5TB600ATGFS","3MXX6RQ9EVRTFC527Z18RDK8KW6P4R","","465.6999999284744","img/land2.png","76","466.5","3","0","2","2","0.8,0.2,0.2,0.2,0.8,0.2,0.2,0.2,0.8","0.2,0.2,0.8,0.8,0.2,0.2,0.2,0.8,0.2","2","",""
"","html-keyboard-response","260","80651","0.0-260.0","39LOEL67OTRPD8LBC6ZGK5T0P3O381","A1H5TB600ATGFS","3MXX6RQ9EVRTFC527Z18RDK8KW6P4R","","null","<img src=""img/land2.png"" style=""width:200px;border:14px solid red;"">","null","","","","","","","","","",""
"","image-keyboard-response","261","80746","0.0-261.0","39LOEL67OTRPD8LBC6ZGK5T0P3O381","A1H5TB600ATGFS","3MXX6RQ9EVRTFC527Z18RDK8KW6P4R","","93.60000002384186","img/land2.png","76","94.39999997615814","3","0","2","2","0.8,0.2,0.2,0.2,0.8,0.2,0.2,0.2,0.8","0.2,0.2,0.8,0.8,0.2,0.2,0.2,0.8,0.2","2","",""
"","html-keyboard-response","262","81055","0.0-262.0","39LOEL67OTRPD8LBC6ZGK5T0P3O381","A1H5TB600ATGFS","3MXX6RQ9EVRTFC527Z18RDK8KW6P4R","","null","<img src=""img/land2.png"" style=""width:200px;border:14px solid red;"">","null","","","","","","","","","",""
"","image-keyboard-response","263","81128","0.0-263.0","39LOEL67OTRPD8LBC6ZGK5T0P3O381","A1H5TB600ATGFS","3MXX6RQ9EVRTFC527Z18RDK8KW6P4R","","71.70000004768372","img/land3.png","75","72.60000002384186","2","0","1","2","0.8,0.2,0.2,0.2,0.8,0.2,0.2,0.2,0.8","0.2,0.2,0.8,0.8,0.2,0.2,0.2,0.8,0.2","2","",""
"","html-keyboard-response","264","81433","0.0-264.0","39LOEL67OTRPD8LBC6ZGK5T0P3O381","A1H5TB600ATGFS","3MXX6RQ9EVRTFC527Z18RDK8KW6P4R","","null","<img src=""img/land3.png"" style=""width:200px;border:14px solid red;"">","null","","","","","","","","","",""
"","image-keyboard-response","265","81510","0.0-265.0","39LOEL67OTRPD8LBC6ZGK5T0P3O381","A1H5TB600ATGFS","3MXX6RQ9EVRTFC527Z18RDK8KW6P4R","","75.40000009536743","img/land3.png","74","76.30000007152557","1","0","1","2","0.8,0.2,0.2,0.2,0.8,0.2,0.2,0.2,0.8","0.2,0.2,0.8,0.8,0.2,0.2,0.2,0.8,0.2","2","",""
"","html-keyboard-response","266","81819","0.0-266.0","39LOEL67OTRPD8LBC6ZGK5T0P3O381","A1H5TB600ATGFS","3MXX6RQ9EVRTFC527Z18RDK8KW6P4R","","null","<img src=""img/land3.png"" style=""width:200px;border:14px solid red;"">","null","","","","","","","","","",""
"","image-keyboard-response","267","81925","0.0-267.0","39LOEL67OTRPD8LBC6ZGK5T0P3O381","A1H5TB600ATGFS","3MXX6RQ9EVRTFC527Z18RDK8KW6P4R","","104.89999997615814","img/land2.png","76","105.79999995231628","3","0","2","2","0.8,0.2,0.2,0.2,0.8,0.2,0.2,0.2,0.8","0.2,0.2,0.8,0.8,0.2,0.2,0.2,0.8,0.2","2","",""
"","html-keyboard-response","268","82239","0.0-268.0","39LOEL67OTRPD8LBC6ZGK5T0P3O381","A1H5TB600ATGFS","3MXX6RQ9EVRTFC527Z18RDK8KW6P4R","","null","<img src=""img/land2.png"" style=""width:200px;border:14px solid red;"">","null","","","","","","","","","",""
"","image-keyboard-response","269","82568","0.0-269.0","39LOEL67OTRPD8LBC6ZGK5T0P3O381","A1H5TB600ATGFS","3MXX6RQ9EVRTFC527Z18RDK8KW6P4R","","328.2000000476837","img/land4.png","75","329","2","1","3","2","0.8,0.2,0.2,0.2,0.8,0.2,0.2,0.2,0.8","0.2,0.2,0.8,0.8,0.2,0.2,0.2,0.8,0.2","2","",""
"","html-keyboard-response","270","82879","0.0-270.0","39LOEL67OTRPD8LBC6ZGK5T0P3O381","A1H5TB600ATGFS","3MXX6RQ9EVRTFC527Z18RDK8KW6P4R","","null","<img src=""img/land4.png"" style=""width:200px; border:14px solid green;"">","null","","","","","","","","","",""
"","image-keyboard-response","271","82880","0.0-271.0","39LOEL67OTRPD8LBC6ZGK5T0P3O381","A1H5TB600ATGFS","3MXX6RQ9EVRTFC527Z18RDK8KW6P4R","","0.19999992847442627","img/land4.png","74","1","1","1","3","2","0.8,0.2,0.2,0.2,0.8,0.2,0.2,0.2,0.8","0.2,0.2,0.8,0.8,0.2,0.2,0.2,0.8,0.2","2","",""
"","html-keyboard-response","272","83189","0.0-272.0","39LOEL67OTRPD8LBC6ZGK5T0P3O381","A1H5TB600ATGFS","3MXX6RQ9EVRTFC527Z18RDK8KW6P4R","","null","<img src=""img/land4.png"" style=""width:200px; border:14px solid green;"">","null","","","","","","","","","",""
"","image-keyboard-response","273","83515","0.0-273.0","39LOEL67OTRPD8LBC6ZGK5T0P3O381","A1H5TB600ATGFS","3MXX6RQ9EVRTFC527Z18RDK8KW6P4R","","324.7000000476837","img/land4.png","75","325.5","2","1","3","2","0.8,0.2,0.2,0.2,0.8,0.2,0.2,0.2,0.8","0.2,0.2,0.8,0.8,0.2,0.2,0.2,0.8,0.2","2","",""
"","html-keyboard-response","274","83818","0.0-274.0","39LOEL67OTRPD8LBC6ZGK5T0P3O381","A1H5TB600ATGFS","3MXX6RQ9EVRTFC527Z18RDK8KW6P4R","","null","<img src=""img/land4.png"" style=""width:200px; border:14px solid green;"">","null","","","","","","","","","",""
"","image-keyboard-response","275","83935","0.0-275.0","39LOEL67OTRPD8LBC6ZGK5T0P3O381","A1H5TB600ATGFS","3MXX6RQ9EVRTFC527Z18RDK8KW6P4R","","116.39999997615814","img/land3.png","75","117.20000004768372","2","0","1","2","0.8,0.2,0.2,0.2,0.8,0.2,0.2,0.2,0.8","0.2,0.2,0.8,0.8,0.2,0.2,0.2,0.8,0.2","2","",""
"","html-keyboard-response","276","84245","0.0-276.0","39LOEL67OTRPD8LBC6ZGK5T0P3O381","A1H5TB600ATGFS","3MXX6RQ9EVRTFC527Z18RDK8KW6P4R","","null","<img src=""img/land3.png"" style=""width:200px;border:14px solid red;"">","null","","","","","","","","","",""
"","image-keyboard-response","277","84403","0.0-277.0","39LOEL67OTRPD8LBC6ZGK5T0P3O381","A1H5TB600ATGFS","3MXX6RQ9EVRTFC527Z18RDK8KW6P4R","","157.30000007152557","img/land3.png","74","158","1","1","1","2","0.8,0.2,0.2,0.2,0.8,0.2,0.2,0.2,0.8","0.2,0.2,0.8,0.8,0.2,0.2,0.2,0.8,0.2","2","",""
"","html-keyboard-response","278","84710","0.0-278.0","39LOEL67OTRPD8LBC6ZGK5T0P3O381","A1H5TB600ATGFS","3MXX6RQ9EVRTFC527Z18RDK8KW6P4R","","null","<img src=""img/land3.png"" style=""width:200px; border:14px solid green;"">","null","","","","","","","","","",""
"","image-keyboard-response","279","84901","0.0-279.0","39LOEL67OTRPD8LBC6ZGK5T0P3O381","A1H5TB600ATGFS","3MXX6RQ9EVRTFC527Z18RDK8KW6P4R","","189.90000009536743","img/land3.png","76","190.90000009536743","3","1","1","2","0.8,0.2,0.2,0.2,0.8,0.2,0.2,0.2,0.8","0.2,0.2,0.8,0.8,0.2,0.2,0.2,0.8,0.2","2","",""
"","html-keyboard-response","280","85214","0.0-280.0","39LOEL67OTRPD8LBC6ZGK5T0P3O381","A1H5TB600ATGFS","3MXX6RQ9EVRTFC527Z18RDK8KW6P4R","","null","<img src=""img/land3.png"" style=""width:200px; border:14px solid green;"">","null","","","","","","","","","",""
"","image-keyboard-response","281","85344","0.0-281.0","39LOEL67OTRPD8LBC6ZGK5T0P3O381","A1H5TB600ATGFS","3MXX6RQ9EVRTFC527Z18RDK8KW6P4R","","128.5","img/land3.png","76","129.30000007152557","3","1","1","2","0.8,0.2,0.2,0.2,0.8,0.2,0.2,0.2,0.8","0.2,0.2,0.8,0.8,0.2,0.2,0.2,0.8,0.2","2","",""
"","html-keyboard-response","282","85655","0.0-282.0","39LOEL67OTRPD8LBC6ZGK5T0P3O381","A1H5TB600ATGFS","3MXX6RQ9EVRTFC527Z18RDK8KW6P4R","","null","<img src=""img/land3.png"" style=""width:200px; border:14px solid green;"">","null","","","","","","","","","",""
"","image-keyboard-response","283","85785","0.0-283.0","39LOEL67OTRPD8LBC6ZGK5T0P3O381","A1H5TB600ATGFS","3MXX6RQ9EVRTFC527Z18RDK8KW6P4R","","129.59999990463257","img/land3.png","76","130.39999997615814","3","1","1","2","0.8,0.2,0.2,0.2,0.8,0.2,0.2,0.2,0.8","0.2,0.2,0.8,0.8,0.2,0.2,0.2,0.8,0.2","2","",""
"","html-keyboard-response","284","86094","0.0-284.0","39LOEL67OTRPD8LBC6ZGK5T0P3O381","A1H5TB600ATGFS","3MXX6RQ9EVRTFC527Z18RDK8KW6P4R","","null","<img src=""img/land3.png"" style=""width:200px; border:14px solid green;"">","null","","","","","","","","","",""
"","image-keyboard-response","285","86235","0.0-285.0","39LOEL67OTRPD8LBC6ZGK5T0P3O381","A1H5TB600ATGFS","3MXX6RQ9EVRTFC527Z18RDK8KW6P4R","","140.10000002384186","img/land4.png","76","140.90000009536743","3","0","3","2","0.8,0.2,0.2,0.2,0.8,0.2,0.2,0.2,0.8","0.2,0.2,0.8,0.8,0.2,0.2,0.2,0.8,0.2","2","",""
"","html-keyboard-response","286","86538","0.0-286.0","39LOEL67OTRPD8LBC6ZGK5T0P3O381","A1H5TB600ATGFS","3MXX6RQ9EVRTFC527Z18RDK8KW6P4R","","null","<img src=""img/land4.png"" style=""width:200px;border:14px solid red;"">","null","","","","","","","","","",""
"","image-keyboard-response","287","86545","0.0-287.0","39LOEL67OTRPD8LBC6ZGK5T0P3O381","A1H5TB600ATGFS","3MXX6RQ9EVRTFC527Z18RDK8KW6P4R","","6.5","img/land3.png","75","7.5","2","0","1","2","0.8,0.2,0.2,0.2,0.8,0.2,0.2,0.2,0.8","0.2,0.2,0.8,0.8,0.2,0.2,0.2,0.8,0.2","2","",""
"","html-keyboard-response","288","86855","0.0-288.0","39LOEL67OTRPD8LBC6ZGK5T0P3O381","A1H5TB600ATGFS","3MXX6RQ9EVRTFC527Z18RDK8KW6P4R","","null","<img src=""img/land3.png"" style=""width:200px;border:14px solid red;"">","null","","","","","","","","","",""
"","image-keyboard-response","289","87510","0.0-289.0","39LOEL67OTRPD8LBC6ZGK5T0P3O381","A1H5TB600ATGFS","3MXX6RQ9EVRTFC527Z18RDK8KW6P4R","","654.3000000715256","img/land2.png","75","655.2999999523163","2","0","2","2","0.8,0.2,0.2,0.2,0.8,0.2,0.2,0.2,0.8","0.2,0.2,0.8,0.8,0.2,0.2,0.2,0.8,0.2","2","",""
"","html-keyboard-response","290","87822","0.0-290.0","39LOEL67OTRPD8LBC6ZGK5T0P3O381","A1H5TB600ATGFS","3MXX6RQ9EVRTFC527Z18RDK8KW6P4R","","null","<img src=""img/land2.png"" style=""width:200px;border:14px solid red;"">","null","","","","","","","","","",""
"","image-keyboard-response","291","87871","0.0-291.0","39LOEL67OTRPD8LBC6ZGK5T0P3O381","A1H5TB600ATGFS","3MXX6RQ9EVRTFC527Z18RDK8KW6P4R","","48","img/land3.png","76","48.799999952316284","3","1","1","2","0.8,0.2,0.2,0.2,0.8,0.2,0.2,0.2,0.8","0.2,0.2,0.8,0.8,0.2,0.2,0.2,0.8,0.2","2","",""
"","html-keyboard-response","292","88182","0.0-292.0","39LOEL67OTRPD8LBC6ZGK5T0P3O381","A1H5TB600ATGFS","3MXX6RQ9EVRTFC527Z18RDK8KW6P4R","","null","<img src=""img/land3.png"" style=""width:200px; border:14px solid green;"">","null","","","","","","","","","",""
"","image-keyboard-response","293","88455","0.0-293.0","39LOEL67OTRPD8LBC6ZGK5T0P3O381","A1H5TB600ATGFS","3MXX6RQ9EVRTFC527Z18RDK8KW6P4R","","272.60000002384186","img/land3.png","76","273.6999999284744","3","0","1","2","0.8,0.2,0.2,0.2,0.8,0.2,0.2,0.2,0.8","0.2,0.2,0.8,0.8,0.2,0.2,0.2,0.8,0.2","2","",""
"","html-keyboard-response","294","88766","0.0-294.0","39LOEL67OTRPD8LBC6ZGK5T0P3O381","A1H5TB600ATGFS","3MXX6RQ9EVRTFC527Z18RDK8KW6P4R","","null","<img src=""img/land3.png"" style=""width:200px;border:14px solid red;"">","null","","","","","","","","","",""
"","image-keyboard-response","295","89089","0.0-295.0","39LOEL67OTRPD8LBC6ZGK5T0P3O381","A1H5TB600ATGFS","3MXX6RQ9EVRTFC527Z18RDK8KW6P4R","","321.89999997615814","img/land3.png","74","322.6999999284744","1","0","1","2","0.8,0.2,0.2,0.2,0.8,0.2,0.2,0.2,0.8","0.2,0.2,0.8,0.8,0.2,0.2,0.2,0.8,0.2","2","",""
"","html-keyboard-response","296","89397","0.0-296.0","39LOEL67OTRPD8LBC6ZGK5T0P3O381","A1H5TB600ATGFS","3MXX6RQ9EVRTFC527Z18RDK8KW6P4R","","null","<img src=""img/land3.png"" style=""width:200px;border:14px solid red;"">","null","","","","","","","","","",""
"","image-keyboard-response","297","89871","0.0-297.0","39LOEL67OTRPD8LBC6ZGK5T0P3O381","A1H5TB600ATGFS","3MXX6RQ9EVRTFC527Z18RDK8KW6P4R","","473","img/land2.png","76","474","3","1","2","2","0.8,0.2,0.2,0.2,0.8,0.2,0.2,0.2,0.8","0.2,0.2,0.8,0.8,0.2,0.2,0.2,0.8,0.2","2","",""
"","html-keyboard-response","298","90183","0.0-298.0","39LOEL67OTRPD8LBC6ZGK5T0P3O381","A1H5TB600ATGFS","3MXX6RQ9EVRTFC527Z18RDK8KW6P4R","","null","<img src=""img/land2.png"" style=""width:200px; border:14px solid green;"">","null","","","","","","","","","",""
"","image-keyboard-response","299","90541","0.0-299.0","39LOEL67OTRPD8LBC6ZGK5T0P3O381","A1H5TB600ATGFS","3MXX6RQ9EVRTFC527Z18RDK8KW6P4R","","357.09999990463257","img/land3.png","75","357.90000009536743","2","0","1","2","0.8,0.2,0.2,0.2,0.8,0.2,0.2,0.2,0.8","0.2,0.2,0.8,0.8,0.2,0.2,0.2,0.8,0.2","2","",""
"","html-keyboard-response","300","90851","0.0-300.0","39LOEL67OTRPD8LBC6ZGK5T0P3O381","A1H5TB600ATGFS","3MXX6RQ9EVRTFC527Z18RDK8KW6P4R","","null","<img src=""img/land3.png"" style=""width:200px;border:14px solid red;"">","null","","","","","","","","","",""
"","image-keyboard-response","301","90982","0.0-301.0","39LOEL67OTRPD8LBC6ZGK5T0P3O381","A1H5TB600ATGFS","3MXX6RQ9EVRTFC527Z18RDK8KW6P4R","","129.79999995231628","img/land3.png","74","130.70000004768372","1","0","1","2","0.8,0.2,0.2,0.2,0.8,0.2,0.2,0.2,0.8","0.2,0.2,0.8,0.8,0.2,0.2,0.2,0.8,0.2","2","",""
"","html-keyboard-response","302","91292","0.0-302.0","39LOEL67OTRPD8LBC6ZGK5T0P3O381","A1H5TB600ATGFS","3MXX6RQ9EVRTFC527Z18RDK8KW6P4R","","null","<img src=""img/land3.png"" style=""width:200px;border:14px solid red;"">","null","","","","","","","","","",""
"","image-keyboard-response","303","91381","0.0-303.0","39LOEL67OTRPD8LBC6ZGK5T0P3O381","A1H5TB600ATGFS","3MXX6RQ9EVRTFC527Z18RDK8KW6P4R","","88.30000007152557","img/land2.png","76","89.20000004768372","3","1","2","2","0.8,0.2,0.2,0.2,0.8,0.2,0.2,0.2,0.8","0.2,0.2,0.8,0.8,0.2,0.2,0.2,0.8,0.2","2","",""
"","html-keyboard-response","304","91694","0.0-304.0","39LOEL67OTRPD8LBC6ZGK5T0P3O381","A1H5TB600ATGFS","3MXX6RQ9EVRTFC527Z18RDK8KW6P4R","","null","<img src=""img/land2.png"" style=""width:200px; border:14px solid green;"">","null","","","","","","","","","",""
"","image-keyboard-response","305","91842","0.0-305.0","39LOEL67OTRPD8LBC6ZGK5T0P3O381","A1H5TB600ATGFS","3MXX6RQ9EVRTFC527Z18RDK8KW6P4R","","146.19999992847443","img/land3.png","75","147.10000002384186","2","1","1","2","0.8,0.2,0.2,0.2,0.8,0.2,0.2,0.2,0.8","0.2,0.2,0.8,0.8,0.2,0.2,0.2,0.8,0.2","2","",""
"","html-keyboard-response","306","92150","0.0-306.0","39LOEL67OTRPD8LBC6ZGK5T0P3O381","A1H5TB600ATGFS","3MXX6RQ9EVRTFC527Z18RDK8KW6P4R","","null","<img src=""img/land3.png"" style=""width:200px; border:14px solid green;"">","null","","","","","","","","","",""
"","image-keyboard-response","307","92190","0.0-307.0","39LOEL67OTRPD8LBC6ZGK5T0P3O381","A1H5TB600ATGFS","3MXX6RQ9EVRTFC527Z18RDK8KW6P4R","","39.199999928474426","img/land2.png","74","40.10000002384186","1","1","2","2","0.8,0.2,0.2,0.2,0.8,0.2,0.2,0.2,0.8","0.2,0.2,0.8,0.8,0.2,0.2,0.2,0.8,0.2","2","",""
"","html-keyboard-response","308","92502","0.0-308.0","39LOEL67OTRPD8LBC6ZGK5T0P3O381","A1H5TB600ATGFS","3MXX6RQ9EVRTFC527Z18RDK8KW6P4R","","null","<img src=""img/land2.png"" style=""width:200px; border:14px solid green;"">","null","","","","","","","","","",""
"","image-keyboard-response","309","92532","0.0-309.0","39LOEL67OTRPD8LBC6ZGK5T0P3O381","A1H5TB600ATGFS","3MXX6RQ9EVRTFC527Z18RDK8KW6P4R","","28.799999952316284","img/land3.png","76","29.800000071525574","3","1","1","2","0.8,0.2,0.2,0.2,0.8,0.2,0.2,0.2,0.8","0.2,0.2,0.8,0.8,0.2,0.2,0.2,0.8,0.2","2","",""
"","html-keyboard-response","310","92836","0.0-310.0","39LOEL67OTRPD8LBC6ZGK5T0P3O381","A1H5TB600ATGFS","3MXX6RQ9EVRTFC527Z18RDK8KW6P4R","","null","<img src=""img/land3.png"" style=""width:200px; border:14px solid green;"">","null","","","","","","","","","",""
"","image-keyboard-response","311","92918","0.0-311.0","39LOEL67OTRPD8LBC6ZGK5T0P3O381","A1H5TB600ATGFS","3MXX6RQ9EVRTFC527Z18RDK8KW6P4R","","81.5","img/land3.png","75","82.20000004768372","2","1","1","2","0.8,0.2,0.2,0.2,0.8,0.2,0.2,0.2,0.8","0.2,0.2,0.8,0.8,0.2,0.2,0.2,0.8,0.2","2","",""
"","html-keyboard-response","312","93230","0.0-312.0","39LOEL67OTRPD8LBC6ZGK5T0P3O381","A1H5TB600ATGFS","3MXX6RQ9EVRTFC527Z18RDK8KW6P4R","","null","<img src=""img/land3.png"" style=""width:200px; border:14px solid green;"">","null","","","","","","","","","",""
"","image-keyboard-response","313","93341","0.0-313.0","39LOEL67OTRPD8LBC6ZGK5T0P3O381","A1H5TB600ATGFS","3MXX6RQ9EVRTFC527Z18RDK8KW6P4R","","109.39999997615814","img/land4.png","74","110","1","0","3","2","0.8,0.2,0.2,0.2,0.8,0.2,0.2,0.2,0.8","0.2,0.2,0.8,0.8,0.2,0.2,0.2,0.8,0.2","2","",""
"","html-keyboard-response","314","93653","0.0-314.0","39LOEL67OTRPD8LBC6ZGK5T0P3O381","A1H5TB600ATGFS","3MXX6RQ9EVRTFC527Z18RDK8KW6P4R","","null","<img src=""img/land4.png"" style=""width:200px;border:14px solid red;"">","null","","","","","","","","","",""
"","image-keyboard-response","315","94118","0.0-315.0","39LOEL67OTRPD8LBC6ZGK5T0P3O381","A1H5TB600ATGFS","3MXX6RQ9EVRTFC527Z18RDK8KW6P4R","","464.90000009536743","img/land3.png","75","465.60000002384186","2","0","1","2","0.8,0.2,0.2,0.2,0.8,0.2,0.2,0.2,0.8","0.2,0.2,0.8,0.8,0.2,0.2,0.2,0.8,0.2","2","",""
"","html-keyboard-response","316","94428","0.0-316.0","39LOEL67OTRPD8LBC6ZGK5T0P3O381","A1H5TB600ATGFS","3MXX6RQ9EVRTFC527Z18RDK8KW6P4R","","null","<img src=""img/land3.png"" style=""width:200px;border:14px solid red;"">","null","","","","","","","","","",""
"","image-keyboard-response","317","94773","0.0-317.0","39LOEL67OTRPD8LBC6ZGK5T0P3O381","A1H5TB600ATGFS","3MXX6RQ9EVRTFC527Z18RDK8KW6P4R","","344.1999999284744","img/land4.png","76","345","3","0","3","2","0.8,0.2,0.2,0.2,0.8,0.2,0.2,0.2,0.8","0.2,0.2,0.8,0.8,0.2,0.2,0.2,0.8,0.2","2","",""
"","html-keyboard-response","318","95086","0.0-318.0","39LOEL67OTRPD8LBC6ZGK5T0P3O381","A1H5TB600ATGFS","3MXX6RQ9EVRTFC527Z18RDK8KW6P4R","","null","<img src=""img/land4.png"" style=""width:200px;border:14px solid red;"">","null","","","","","","","","","",""
"","image-keyboard-response","319","95142","0.0-319.0","39LOEL67OTRPD8LBC6ZGK5T0P3O381","A1H5TB600ATGFS","3MXX6RQ9EVRTFC527Z18RDK8KW6P4R","","54.39999997615814","img/land4.png","76","55.299999952316284","3","0","3","2","0.8,0.2,0.2,0.2,0.8,0.2,0.2,0.2,0.8","0.2,0.2,0.8,0.8,0.2,0.2,0.2,0.8,0.2","2","",""
"","html-keyboard-response","320","95454","0.0-320.0","39LOEL67OTRPD8LBC6ZGK5T0P3O381","A1H5TB600ATGFS","3MXX6RQ9EVRTFC527Z18RDK8KW6P4R","","null","<img src=""img/land4.png"" style=""width:200px;border:14px solid red;"">","null","","","","","","","","","",""
"","image-keyboard-response","321","95523","0.0-321.0","39LOEL67OTRPD8LBC6ZGK5T0P3O381","A1H5TB600ATGFS","3MXX6RQ9EVRTFC527Z18RDK8KW6P4R","","67.79999995231628","img/land3.png","74","68.70000004768372","1","0","1","2","0.8,0.2,0.2,0.2,0.8,0.2,0.2,0.2,0.8","0.2,0.2,0.8,0.8,0.2,0.2,0.2,0.8,0.2","2","",""
"","html-keyboard-response","322","95828","0.0-322.0","39LOEL67OTRPD8LBC6ZGK5T0P3O381","A1H5TB600ATGFS","3MXX6RQ9EVRTFC527Z18RDK8KW6P4R","","null","<img src=""img/land3.png"" style=""width:200px;border:14px solid red;"">","null","","","","","","","","","",""
"","image-keyboard-response","323","96195","0.0-323.0","39LOEL67OTRPD8LBC6ZGK5T0P3O381","A1H5TB600ATGFS","3MXX6RQ9EVRTFC527Z18RDK8KW6P4R","","365.89999997615814","img/land4.png","74","366.6999999284744","1","0","3","2","0.8,0.2,0.2,0.2,0.8,0.2,0.2,0.2,0.8","0.2,0.2,0.8,0.8,0.2,0.2,0.2,0.8,0.2","2","",""
"","html-keyboard-response","324","96500","0.0-324.0","39LOEL67OTRPD8LBC6ZGK5T0P3O381","A1H5TB600ATGFS","3MXX6RQ9EVRTFC527Z18RDK8KW6P4R","","null","<img src=""img/land4.png"" style=""width:200px;border:14px solid red;"">","null","","","","","","","","","",""
"","image-keyboard-response","325","96506","0.0-325.0","39LOEL67OTRPD8LBC6ZGK5T0P3O381","A1H5TB600ATGFS","3MXX6RQ9EVRTFC527Z18RDK8KW6P4R","","5.800000071525574","img/land4.png","76","6.700000047683716","3","0","3","2","0.8,0.2,0.2,0.2,0.8,0.2,0.2,0.2,0.8","0.2,0.2,0.8,0.8,0.2,0.2,0.2,0.8,0.2","2","",""
"","html-keyboard-response","326","96814","0.0-326.0","39LOEL67OTRPD8LBC6ZGK5T0P3O381","A1H5TB600ATGFS","3MXX6RQ9EVRTFC527Z18RDK8KW6P4R","","null","<img src=""img/land4.png"" style=""width:200px;border:14px solid red;"">","null","","","","","","","","","",""
"","image-keyboard-response","327","96933","0.0-327.0","39LOEL67OTRPD8LBC6ZGK5T0P3O381","A1H5TB600ATGFS","3MXX6RQ9EVRTFC527Z18RDK8KW6P4R","","118","img/land3.png","75","118.79999995231628","2","1","1","2","0.8,0.2,0.2,0.2,0.8,0.2,0.2,0.2,0.8","0.2,0.2,0.8,0.8,0.2,0.2,0.2,0.8,0.2","2","",""
"","html-keyboard-response","328","97246","0.0-328.0","39LOEL67OTRPD8LBC6ZGK5T0P3O381","A1H5TB600ATGFS","3MXX6RQ9EVRTFC527Z18RDK8KW6P4R","","null","<img src=""img/land3.png"" style=""width:200px; border:14px solid green;"">","null","","","","","","","","","",""
"","image-keyboard-response","329","97369","0.0-329.0","39LOEL67OTRPD8LBC6ZGK5T0P3O381","A1H5TB600ATGFS","3MXX6RQ9EVRTFC527Z18RDK8KW6P4R","","122.20000004768372","img/land4.png","75","123","2","1","3","2","0.8,0.2,0.2,0.2,0.8,0.2,0.2,0.2,0.8","0.2,0.2,0.8,0.8,0.2,0.2,0.2,0.8,0.2","2","",""
"","html-keyboard-response","330","97676","0.0-330.0","39LOEL67OTRPD8LBC6ZGK5T0P3O381","A1H5TB600ATGFS","3MXX6RQ9EVRTFC527Z18RDK8KW6P4R","","null","<img src=""img/land4.png"" style=""width:200px; border:14px solid green;"">","null","","","","","","","","","",""
"","image-keyboard-response","331","98001","0.0-331.0","39LOEL67OTRPD8LBC6ZGK5T0P3O381","A1H5TB600ATGFS","3MXX6RQ9EVRTFC527Z18RDK8KW6P4R","","324.2000000476837","img/land3.png","75","325.2000000476837","2","0","1","2","0.8,0.2,0.2,0.2,0.8,0.2,0.2,0.2,0.8","0.2,0.2,0.8,0.8,0.2,0.2,0.2,0.8,0.2","2","",""
"","html-keyboard-response","332","98308","0.0-332.0","39LOEL67OTRPD8LBC6ZGK5T0P3O381","A1H5TB600ATGFS","3MXX6RQ9EVRTFC527Z18RDK8KW6P4R","","null","<img src=""img/land3.png"" style=""width:200px;border:14px solid red;"">","null","","","","","","","","","",""
"","image-keyboard-response","333","98474","0.0-333.0","39LOEL67OTRPD8LBC6ZGK5T0P3O381","A1H5TB600ATGFS","3MXX6RQ9EVRTFC527Z18RDK8KW6P4R","","165.70000004768372","img/land3.png","76","166.60000002384186","3","1","1","2","0.8,0.2,0.2,0.2,0.8,0.2,0.2,0.2,0.8","0.2,0.2,0.8,0.8,0.2,0.2,0.2,0.8,0.2","2","",""
"","html-keyboard-response","334","98783","0.0-334.0","39LOEL67OTRPD8LBC6ZGK5T0P3O381","A1H5TB600ATGFS","3MXX6RQ9EVRTFC527Z18RDK8KW6P4R","","null","<img src=""img/land3.png"" style=""width:200px; border:14px solid green;"">","null","","","","","","","","","",""
"","image-keyboard-response","335","98876","0.0-335.0","39LOEL67OTRPD8LBC6ZGK5T0P3O381","A1H5TB600ATGFS","3MXX6RQ9EVRTFC527Z18RDK8KW6P4R","","92.39999997615814","img/land2.png","76","93.39999997615814","3","1","2","2","0.8,0.2,0.2,0.2,0.8,0.2,0.2,0.2,0.8","0.2,0.2,0.8,0.8,0.2,0.2,0.2,0.8,0.2","2","",""
"","html-keyboard-response","336","99190","0.0-336.0","39LOEL67OTRPD8LBC6ZGK5T0P3O381","A1H5TB600ATGFS","3MXX6RQ9EVRTFC527Z18RDK8KW6P4R","","null","<img src=""img/land2.png"" style=""width:200px; border:14px solid green;"">","null","","","","","","","","","",""
"","image-keyboard-response","337","99821","0.0-337.0","39LOEL67OTRPD8LBC6ZGK5T0P3O381","A1H5TB600ATGFS","3MXX6RQ9EVRTFC527Z18RDK8KW6P4R","","629.5999999046326","img/land3.png","75","630.3999999761581","2","0","1","2","0.8,0.2,0.2,0.2,0.8,0.2,0.2,0.2,0.8","0.2,0.2,0.8,0.8,0.2,0.2,0.2,0.8,0.2","2","",""
"","html-keyboard-response","338","100134","0.0-338.0","39LOEL67OTRPD8LBC6ZGK5T0P3O381","A1H5TB600ATGFS","3MXX6RQ9EVRTFC527Z18RDK8KW6P4R","","null","<img src=""img/land3.png"" style=""width:200px;border:14px solid red;"">","null","","","","","","","","","",""
"","image-keyboard-response","339","100191","0.0-339.0","39LOEL67OTRPD8LBC6ZGK5T0P3O381","A1H5TB600ATGFS","3MXX6RQ9EVRTFC527Z18RDK8KW6P4R","","56.299999952316284","img/land3.png","76","56.90000009536743","3","1","1","2","0.8,0.2,0.2,0.2,0.8,0.2,0.2,0.2,0.8","0.2,0.2,0.8,0.8,0.2,0.2,0.2,0.8,0.2","2","",""
"","html-keyboard-response","340","100500","0.0-340.0","39LOEL67OTRPD8LBC6ZGK5T0P3O381","A1H5TB600ATGFS","3MXX6RQ9EVRTFC527Z18RDK8KW6P4R","","null","<img src=""img/land3.png"" style=""width:200px; border:14px solid green;"">","null","","","","","","","","","",""
"","image-keyboard-response","341","100567","0.0-341.0","39LOEL67OTRPD8LBC6ZGK5T0P3O381","A1H5TB600ATGFS","3MXX6RQ9EVRTFC527Z18RDK8KW6P4R","","66.5","img/land3.png","76","67.30000007152557","3","1","1","2","0.8,0.2,0.2,0.2,0.8,0.2,0.2,0.2,0.8","0.2,0.2,0.8,0.8,0.2,0.2,0.2,0.8,0.2","2","",""
"","html-keyboard-response","342","100878","0.0-342.0","39LOEL67OTRPD8LBC6ZGK5T0P3O381","A1H5TB600ATGFS","3MXX6RQ9EVRTFC527Z18RDK8KW6P4R","","null","<img src=""img/land3.png"" style=""width:200px; border:14px solid green;"">","null","","","","","","","","","",""
"","image-keyboard-response","343","100963","0.0-343.0","39LOEL67OTRPD8LBC6ZGK5T0P3O381","A1H5TB600ATGFS","3MXX6RQ9EVRTFC527Z18RDK8KW6P4R","","84.30000007152557","img/land4.png","76","85.20000004768372","3","0","3","2","0.8,0.2,0.2,0.2,0.8,0.2,0.2,0.2,0.8","0.2,0.2,0.8,0.8,0.2,0.2,0.2,0.8,0.2","2","",""
"","html-keyboard-response","344","101270","0.0-344.0","39LOEL67OTRPD8LBC6ZGK5T0P3O381","A1H5TB600ATGFS","3MXX6RQ9EVRTFC527Z18RDK8KW6P4R","","null","<img src=""img/land4.png"" style=""width:200px;border:14px solid red;"">","null","","","","","","","","","",""
"","image-keyboard-response","345","101792","0.0-345.0","39LOEL67OTRPD8LBC6ZGK5T0P3O381","A1H5TB600ATGFS","3MXX6RQ9EVRTFC527Z18RDK8KW6P4R","","520.3000000715256","img/land3.png","74","521.2999999523163","1","0","1","2","0.8,0.2,0.2,0.2,0.8,0.2,0.2,0.2,0.8","0.2,0.2,0.8,0.8,0.2,0.2,0.2,0.8,0.2","2","",""
"","html-keyboard-response","346","102100","0.0-346.0","39LOEL67OTRPD8LBC6ZGK5T0P3O381","A1H5TB600ATGFS","3MXX6RQ9EVRTFC527Z18RDK8KW6P4R","","null","<img src=""img/land3.png"" style=""width:200px;border:14px solid red;"">","null","","","","","","","","","",""
"","image-keyboard-response","347","102121","0.0-347.0","39LOEL67OTRPD8LBC6ZGK5T0P3O381","A1H5TB600ATGFS","3MXX6RQ9EVRTFC527Z18RDK8KW6P4R","","20.100000023841858","img/land2.png","75","21.100000023841858","2","0","2","2","0.8,0.2,0.2,0.2,0.8,0.2,0.2,0.2,0.8","0.2,0.2,0.8,0.8,0.2,0.2,0.2,0.8,0.2","2","",""
"","html-keyboard-response","348","102430","0.0-348.0","39LOEL67OTRPD8LBC6ZGK5T0P3O381","A1H5TB600ATGFS","3MXX6RQ9EVRTFC527Z18RDK8KW6P4R","","null","<img src=""img/land2.png"" style=""width:200px;border:14px solid red;"">","null","","","","","","","","","",""
"","image-keyboard-response","349","102553","0.0-349.0","39LOEL67OTRPD8LBC6ZGK5T0P3O381","A1H5TB600ATGFS","3MXX6RQ9EVRTFC527Z18RDK8KW6P4R","","121.60000002384186","img/land3.png","75","122.5","2","0","1","2","0.8,0.2,0.2,0.2,0.8,0.2,0.2,0.2,0.8","0.2,0.2,0.8,0.8,0.2,0.2,0.2,0.8,0.2","2","",""
"","html-keyboard-response","350","102861","0.0-350.0","39LOEL67OTRPD8LBC6ZGK5T0P3O381","A1H5TB600ATGFS","3MXX6RQ9EVRTFC527Z18RDK8KW6P4R","","null","<img src=""img/land3.png"" style=""width:200px;border:14px solid red;"">","null","","","","","","","","","",""
"","image-keyboard-response","351","102940","0.0-351.0","39LOEL67OTRPD8LBC6ZGK5T0P3O381","A1H5TB600ATGFS","3MXX6RQ9EVRTFC527Z18RDK8KW6P4R","","77.5","img/land2.png","76","78.20000004768372","3","0","2","2","0.8,0.2,0.2,0.2,0.8,0.2,0.2,0.2,0.8","0.2,0.2,0.8,0.8,0.2,0.2,0.2,0.8,0.2","2","",""
"","html-keyboard-response","352","103252","0.0-352.0","39LOEL67OTRPD8LBC6ZGK5T0P3O381","A1H5TB600ATGFS","3MXX6RQ9EVRTFC527Z18RDK8KW6P4R","","null","<img src=""img/land2.png"" style=""width:200px;border:14px solid red;"">","null","","","","","","","","","",""
"","image-keyboard-response","353","103336","0.0-353.0","39LOEL67OTRPD8LBC6ZGK5T0P3O381","A1H5TB600ATGFS","3MXX6RQ9EVRTFC527Z18RDK8KW6P4R","","83.20000004768372","img/land3.png","76","84.30000007152557","3","0","1","2","0.8,0.2,0.2,0.2,0.8,0.2,0.2,0.2,0.8","0.2,0.2,0.8,0.8,0.2,0.2,0.2,0.8,0.2","2","",""
"","html-keyboard-response","354","103642","0.0-354.0","39LOEL67OTRPD8LBC6ZGK5T0P3O381","A1H5TB600ATGFS","3MXX6RQ9EVRTFC527Z18RDK8KW6P4R","","null","<img src=""img/land3.png"" style=""width:200px;border:14px solid red;"">","null","","","","","","","","","",""
"","image-keyboard-response","355","103833","0.0-355.0","39LOEL67OTRPD8LBC6ZGK5T0P3O381","A1H5TB600ATGFS","3MXX6RQ9EVRTFC527Z18RDK8KW6P4R","","189.60000002384186","img/land3.png","76","190.5","3","0","1","2","0.8,0.2,0.2,0.2,0.8,0.2,0.2,0.2,0.8","0.2,0.2,0.8,0.8,0.2,0.2,0.2,0.8,0.2","2","",""
