"success","trial_type","trial_index","time_elapsed","internal_node_id","assignmentID","mturkID","hitID","view_history","rt","stimulus","key_press","reactionTime","chosenAction","reward","warning","responses","question_order"
"true","fullscreen","0","2536","0.0-0.0","3M68NM076ITUSWNPUH3EIP0PL4M6RQ","A1HQZBNZEQ4TOK","39WSF6KUV27TMEQUH506BZR9N6KEO1","","","","","","","","","",""
"","instructions","1","9105","0.0-1.0","3M68NM076ITUSWNPUH3EIP0PL4M6RQ","A1HQZBNZEQ4TOK","39WSF6KUV27TMEQUH506BZR9N6KEO1","[{""page_index"":0,""viewing_time"":2928.300000190735},{""page_index"":1,""viewing_time"":208.90000009536743},{""page_index"":2,""viewing_time"":183.39999961853027},{""page_index"":3,""viewing_time"":208.60000038146973},{""page_index"":4,""viewing_time"":1040.6999998092651},{""page_index"":5,""viewing_time"":663.5999999046326},{""page_index"":6,""viewing_time"":695.9000000953674},{""page_index"":7,""viewing_time"":632.0999999046326}]","6563.300000190735","","","","","","","",""
"","image-keyboard-response","2","10127","0.0-2.0","3M68NM076ITUSWNPUH3EIP0PL4M6RQ","A1HQZBNZEQ4TOK","39WSF6KUV27TMEQUH506BZR9N6KEO1","","","img/land6.png","","1021.3000001907349","-1","0","true","",""
"","html-keyboard-response","3","10435","0.0-3.0","3M68NM076ITUSWNPUH3EIP0PL4M6RQ","A1HQZBNZEQ4TOK","39WSF6KUV27TMEQUH506BZR9N6KEO1","","null","<img src=""img/land6.png"" style=""width:200px;border:14px solid red;"">","null","","","","","",""
"","html-keyboard-response","4","12462","0.0-4.0-0.0","3M68NM076ITUSWNPUH3EIP0PL4M6RQ","A1HQZBNZEQ4TOK","39WSF6KUV27TMEQUH506BZR9N6KEO1","","","","","","","","","",""
"","image-keyboard-response","5","13203","0.0-5.0","3M68NM076ITUSWNPUH3EIP0PL4M6RQ","A1HQZBNZEQ4TOK","39WSF6KUV27TMEQUH506BZR9N6KEO1","","736.4000000953674","img/land1.png","76","740","76","1","false","",""
"","html-keyboard-response","6","13510","0.0-6.0","3M68NM076ITUSWNPUH3EIP0PL4M6RQ","A1HQZBNZEQ4TOK","39WSF6KUV27TMEQUH506BZR9N6KEO1","","null","<img src=""img/land1.png"" style=""width:200px; border:14px solid green;"">","null","","","","","",""
"","image-keyboard-response","7","13563","0.0-8.0","3M68NM076ITUSWNPUH3EIP0PL4M6RQ","A1HQZBNZEQ4TOK","39WSF6KUV27TMEQUH506BZR9N6KEO1","","49.40000009536743","img/land6.png","76","51.90000009536743","76","0","false","",""
"","html-keyboard-response","8","13876","0.0-9.0","3M68NM076ITUSWNPUH3EIP0PL4M6RQ","A1HQZBNZEQ4TOK","39WSF6KUV27TMEQUH506BZR9N6KEO1","","null","<img src=""img/land6.png"" style=""width:200px;border:14px solid red;"">","null","","","","","",""
"","image-keyboard-response","9","13894","0.0-11.0","3M68NM076ITUSWNPUH3EIP0PL4M6RQ","A1HQZBNZEQ4TOK","39WSF6KUV27TMEQUH506BZR9N6KEO1","","13.199999809265137","img/land1.png","76","16.5","76","1","false","",""
"","html-keyboard-response","10","14207","0.0-12.0","3M68NM076ITUSWNPUH3EIP0PL4M6RQ","A1HQZBNZEQ4TOK","39WSF6KUV27TMEQUH506BZR9N6KEO1","","null","<img src=""img/land1.png"" style=""width:200px; border:14px solid green;"">","null","","","","","",""
"","image-keyboard-response","11","14275","0.0-14.0","3M68NM076ITUSWNPUH3EIP0PL4M6RQ","A1HQZBNZEQ4TOK","39WSF6KUV27TMEQUH506BZR9N6KEO1","","62.30000019073486","img/land6.png","74","65.19999980926514","74","0","false","",""
"","html-keyboard-response","12","14586","0.0-15.0","3M68NM076ITUSWNPUH3EIP0PL4M6RQ","A1HQZBNZEQ4TOK","39WSF6KUV27TMEQUH506BZR9N6KEO1","","null","<img src=""img/land6.png"" style=""width:200px;border:14px solid red;"">","null","","","","","",""
"","image-keyboard-response","13","14620","0.0-17.0","3M68NM076ITUSWNPUH3EIP0PL4M6RQ","A1HQZBNZEQ4TOK","39WSF6KUV27TMEQUH506BZR9N6KEO1","","28.199999809265137","img/land6.png","76","32","76","0","false","",""
"","html-keyboard-response","14","14936","0.0-18.0","3M68NM076ITUSWNPUH3EIP0PL4M6RQ","A1HQZBNZEQ4TOK","39WSF6KUV27TMEQUH506BZR9N6KEO1","","null","<img src=""img/land6.png"" style=""width:200px;border:14px solid red;"">","null","","","","","",""
"","image-keyboard-response","15","14980","0.0-20.0","3M68NM076ITUSWNPUH3EIP0PL4M6RQ","A1HQZBNZEQ4TOK","39WSF6KUV27TMEQUH506BZR9N6KEO1","","38.90000009536743","img/land6.png","74","42.299999713897705","74","1","false","",""
"","html-keyboard-response","16","15296","0.0-21.0","3M68NM076ITUSWNPUH3EIP0PL4M6RQ","A1HQZBNZEQ4TOK","39WSF6KUV27TMEQUH506BZR9N6KEO1","","null","<img src=""img/land6.png"" style=""width:200px; border:14px solid green;"">","null","","","","","",""
"","image-keyboard-response","17","15300","0.0-23.0","3M68NM076ITUSWNPUH3EIP0PL4M6RQ","A1HQZBNZEQ4TOK","39WSF6KUV27TMEQUH506BZR9N6KEO1","","0.3000001907348633","img/land9.png","75","3.299999713897705","75","1","false","",""
"","html-keyboard-response","18","15616","0.0-24.0","3M68NM076ITUSWNPUH3EIP0PL4M6RQ","A1HQZBNZEQ4TOK","39WSF6KUV27TMEQUH506BZR9N6KEO1","","null","<img src=""img/land9.png"" style=""width:200px; border:14px solid green;"">","null","","","","","",""
"","image-keyboard-response","19","15630","0.0-26.0","3M68NM076ITUSWNPUH3EIP0PL4M6RQ","A1HQZBNZEQ4TOK","39WSF6KUV27TMEQUH506BZR9N6KEO1","","8.900000095367432","img/land1.png","76","12.5","76","1","false","",""
"","html-keyboard-response","20","15936","0.0-27.0","3M68NM076ITUSWNPUH3EIP0PL4M6RQ","A1HQZBNZEQ4TOK","39WSF6KUV27TMEQUH506BZR9N6KEO1","","null","<img src=""img/land1.png"" style=""width:200px; border:14px solid green;"">","null","","","","","",""
"","image-keyboard-response","21","16043","0.0-29.0","3M68NM076ITUSWNPUH3EIP0PL4M6RQ","A1HQZBNZEQ4TOK","39WSF6KUV27TMEQUH506BZR9N6KEO1","","102.30000019073486","img/land1.png","76","105.5","76","1","false","",""
"","html-keyboard-response","22","16356","0.0-30.0","3M68NM076ITUSWNPUH3EIP0PL4M6RQ","A1HQZBNZEQ4TOK","39WSF6KUV27TMEQUH506BZR9N6KEO1","","null","<img src=""img/land1.png"" style=""width:200px; border:14px solid green;"">","null","","","","","",""
"","image-keyboard-response","23","16408","0.0-32.0","3M68NM076ITUSWNPUH3EIP0PL4M6RQ","A1HQZBNZEQ4TOK","39WSF6KUV27TMEQUH506BZR9N6KEO1","","46.5","img/land1.png","76","50.09999990463257","76","1","false","",""
"","html-keyboard-response","24","16713","0.0-33.0","3M68NM076ITUSWNPUH3EIP0PL4M6RQ","A1HQZBNZEQ4TOK","39WSF6KUV27TMEQUH506BZR9N6KEO1","","null","<img src=""img/land1.png"" style=""width:200px; border:14px solid green;"">","null","","","","","",""
"","image-keyboard-response","25","16759","0.0-35.0","3M68NM076ITUSWNPUH3EIP0PL4M6RQ","A1HQZBNZEQ4TOK","39WSF6KUV27TMEQUH506BZR9N6KEO1","","41","img/land9.png","76","44.5","76","1","false","",""
"","html-keyboard-response","26","17064","0.0-36.0","3M68NM076ITUSWNPUH3EIP0PL4M6RQ","A1HQZBNZEQ4TOK","39WSF6KUV27TMEQUH506BZR9N6KEO1","","null","<img src=""img/land9.png"" style=""width:200px; border:14px solid green;"">","null","","","","","",""
"","image-keyboard-response","27","17089","0.0-38.0","3M68NM076ITUSWNPUH3EIP0PL4M6RQ","A1HQZBNZEQ4TOK","39WSF6KUV27TMEQUH506BZR9N6KEO1","","20.5","img/land6.png","76","23.59999990463257","76","0","false","",""
"","html-keyboard-response","28","17393","0.0-39.0","3M68NM076ITUSWNPUH3EIP0PL4M6RQ","A1HQZBNZEQ4TOK","39WSF6KUV27TMEQUH506BZR9N6KEO1","","null","<img src=""img/land6.png"" style=""width:200px;border:14px solid red;"">","null","","","","","",""
"","image-keyboard-response","29","17518","0.0-41.0","3M68NM076ITUSWNPUH3EIP0PL4M6RQ","A1HQZBNZEQ4TOK","39WSF6KUV27TMEQUH506BZR9N6KEO1","","121.10000038146973","img/land9.png","74","124.19999980926514","74","0","false","",""
"","html-keyboard-response","30","17824","0.0-42.0","3M68NM076ITUSWNPUH3EIP0PL4M6RQ","A1HQZBNZEQ4TOK","39WSF6KUV27TMEQUH506BZR9N6KEO1","","null","<img src=""img/land9.png"" style=""width:200px;border:14px solid red;"">","null","","","","","",""
"","image-keyboard-response","31","17843","0.0-44.0","3M68NM076ITUSWNPUH3EIP0PL4M6RQ","A1HQZBNZEQ4TOK","39WSF6KUV27TMEQUH506BZR9N6KEO1","","12.800000190734863","img/land6.png","74","16.700000286102295","74","1","false","",""
"","html-keyboard-response","32","18147","0.0-45.0","3M68NM076ITUSWNPUH3EIP0PL4M6RQ","A1HQZBNZEQ4TOK","39WSF6KUV27TMEQUH506BZR9N6KEO1","","null","<img src=""img/land6.png"" style=""width:200px; border:14px solid green;"">","null","","","","","",""
"","image-keyboard-response","33","18178","0.0-47.0","3M68NM076ITUSWNPUH3EIP0PL4M6RQ","A1HQZBNZEQ4TOK","39WSF6KUV27TMEQUH506BZR9N6KEO1","","26.90000009536743","img/land6.png","75","30","75","0","false","",""
"","html-keyboard-response","34","18484","0.0-48.0","3M68NM076ITUSWNPUH3EIP0PL4M6RQ","A1HQZBNZEQ4TOK","39WSF6KUV27TMEQUH506BZR9N6KEO1","","null","<img src=""img/land6.png"" style=""width:200px;border:14px solid red;"">","null","","","","","",""
"","image-keyboard-response","35","18569","0.0-50.0","3M68NM076ITUSWNPUH3EIP0PL4M6RQ","A1HQZBNZEQ4TOK","39WSF6KUV27TMEQUH506BZR9N6KEO1","","80","img/land9.png","76","83.59999990463257","76","1","false","",""
"","html-keyboard-response","36","18874","0.0-51.0","3M68NM076ITUSWNPUH3EIP0PL4M6RQ","A1HQZBNZEQ4TOK","39WSF6KUV27TMEQUH506BZR9N6KEO1","","null","<img src=""img/land9.png"" style=""width:200px; border:14px solid green;"">","null","","","","","",""
"","image-keyboard-response","37","18936","0.0-53.0","3M68NM076ITUSWNPUH3EIP0PL4M6RQ","A1HQZBNZEQ4TOK","39WSF6KUV27TMEQUH506BZR9N6KEO1","","57.59999990463257","img/land9.png","76","60.5","76","1","false","",""
"","html-keyboard-response","38","19239","0.0-54.0","3M68NM076ITUSWNPUH3EIP0PL4M6RQ","A1HQZBNZEQ4TOK","39WSF6KUV27TMEQUH506BZR9N6KEO1","","null","<img src=""img/land9.png"" style=""width:200px; border:14px solid green;"">","null","","","","","",""
"","image-keyboard-response","39","19298","0.0-56.0","3M68NM076ITUSWNPUH3EIP0PL4M6RQ","A1HQZBNZEQ4TOK","39WSF6KUV27TMEQUH506BZR9N6KEO1","","53.40000009536743","img/land9.png","76","57.59999990463257","76","0","false","",""
"","html-keyboard-response","40","19606","0.0-57.0","3M68NM076ITUSWNPUH3EIP0PL4M6RQ","A1HQZBNZEQ4TOK","39WSF6KUV27TMEQUH506BZR9N6KEO1","","null","<img src=""img/land9.png"" style=""width:200px;border:14px solid red;"">","null","","","","","",""
"","image-keyboard-response","41","19645","0.0-59.0","3M68NM076ITUSWNPUH3EIP0PL4M6RQ","A1HQZBNZEQ4TOK","39WSF6KUV27TMEQUH506BZR9N6KEO1","","32.799999713897705","img/land9.png","76","35.60000038146973","76","1","false","",""
"","html-keyboard-response","42","19949","0.0-60.0","3M68NM076ITUSWNPUH3EIP0PL4M6RQ","A1HQZBNZEQ4TOK","39WSF6KUV27TMEQUH506BZR9N6KEO1","","null","<img src=""img/land9.png"" style=""width:200px; border:14px solid green;"">","null","","","","","",""
"","image-keyboard-response","43","19997","0.0-62.0","3M68NM076ITUSWNPUH3EIP0PL4M6RQ","A1HQZBNZEQ4TOK","39WSF6KUV27TMEQUH506BZR9N6KEO1","","43.90000009536743","img/land1.png","75","46.89999961853027","75","1","false","",""
"","html-keyboard-response","44","20311","0.0-63.0","3M68NM076ITUSWNPUH3EIP0PL4M6RQ","A1HQZBNZEQ4TOK","39WSF6KUV27TMEQUH506BZR9N6KEO1","","null","<img src=""img/land1.png"" style=""width:200px; border:14px solid green;"">","null","","","","","",""
"","image-keyboard-response","45","20359","0.0-65.0","3M68NM076ITUSWNPUH3EIP0PL4M6RQ","A1HQZBNZEQ4TOK","39WSF6KUV27TMEQUH506BZR9N6KEO1","","43.30000019073486","img/land9.png","76","46.69999980926514","76","0","false","",""
"","html-keyboard-response","46","20665","0.0-66.0","3M68NM076ITUSWNPUH3EIP0PL4M6RQ","A1HQZBNZEQ4TOK","39WSF6KUV27TMEQUH506BZR9N6KEO1","","null","<img src=""img/land9.png"" style=""width:200px;border:14px solid red;"">","null","","","","","",""
"","image-keyboard-response","47","20688","0.0-68.0","3M68NM076ITUSWNPUH3EIP0PL4M6RQ","A1HQZBNZEQ4TOK","39WSF6KUV27TMEQUH506BZR9N6KEO1","","15.5","img/land9.png","76","20.300000190734863","76","1","false","",""
"","html-keyboard-response","48","20992","0.0-69.0","3M68NM076ITUSWNPUH3EIP0PL4M6RQ","A1HQZBNZEQ4TOK","39WSF6KUV27TMEQUH506BZR9N6KEO1","","null","<img src=""img/land9.png"" style=""width:200px; border:14px solid green;"">","null","","","","","",""
"","image-keyboard-response","49","21150","0.0-71.0","3M68NM076ITUSWNPUH3EIP0PL4M6RQ","A1HQZBNZEQ4TOK","39WSF6KUV27TMEQUH506BZR9N6KEO1","","152.59999990463257","img/land9.png","75","156.80000019073486","75","1","false","",""
"","html-keyboard-response","50","21456","0.0-72.0","3M68NM076ITUSWNPUH3EIP0PL4M6RQ","A1HQZBNZEQ4TOK","39WSF6KUV27TMEQUH506BZR9N6KEO1","","null","<img src=""img/land9.png"" style=""width:200px; border:14px solid green;"">","null","","","","","",""
"","image-keyboard-response","51","21529","0.0-74.0","3M68NM076ITUSWNPUH3EIP0PL4M6RQ","A1HQZBNZEQ4TOK","39WSF6KUV27TMEQUH506BZR9N6KEO1","","67.09999990463257","img/land1.png","75","70.59999990463257","75","0","false","",""
"","html-keyboard-response","52","21834","0.0-75.0","3M68NM076ITUSWNPUH3EIP0PL4M6RQ","A1HQZBNZEQ4TOK","39WSF6KUV27TMEQUH506BZR9N6KEO1","","null","<img src=""img/land1.png"" style=""width:200px;border:14px solid red;"">","null","","","","","",""
"","image-keyboard-response","53","21906","0.0-77.0","3M68NM076ITUSWNPUH3EIP0PL4M6RQ","A1HQZBNZEQ4TOK","39WSF6KUV27TMEQUH506BZR9N6KEO1","","67.19999980926514","img/land9.png","75","70.69999980926514","75","0","false","",""
"","html-keyboard-response","54","22212","0.0-78.0","3M68NM076ITUSWNPUH3EIP0PL4M6RQ","A1HQZBNZEQ4TOK","39WSF6KUV27TMEQUH506BZR9N6KEO1","","null","<img src=""img/land9.png"" style=""width:200px;border:14px solid red;"">","null","","","","","",""
"","image-keyboard-response","55","22275","0.0-80.0","3M68NM076ITUSWNPUH3EIP0PL4M6RQ","A1HQZBNZEQ4TOK","39WSF6KUV27TMEQUH506BZR9N6KEO1","","58.69999980926514","img/land9.png","76","61.5","76","1","false","",""
"","html-keyboard-response","56","22579","0.0-81.0","3M68NM076ITUSWNPUH3EIP0PL4M6RQ","A1HQZBNZEQ4TOK","39WSF6KUV27TMEQUH506BZR9N6KEO1","","null","<img src=""img/land9.png"" style=""width:200px; border:14px solid green;"">","null","","","","","",""
"","image-keyboard-response","57","22708","0.0-83.0","3M68NM076ITUSWNPUH3EIP0PL4M6RQ","A1HQZBNZEQ4TOK","39WSF6KUV27TMEQUH506BZR9N6KEO1","","123.5","img/land9.png","76","127.40000009536743","76","0","false","",""
"","html-keyboard-response","58","23012","0.0-84.0","3M68NM076ITUSWNPUH3EIP0PL4M6RQ","A1HQZBNZEQ4TOK","39WSF6KUV27TMEQUH506BZR9N6KEO1","","null","<img src=""img/land9.png"" style=""width:200px;border:14px solid red;"">","null","","","","","",""
"","image-keyboard-response","59","23111","0.0-86.0","3M68NM076ITUSWNPUH3EIP0PL4M6RQ","A1HQZBNZEQ4TOK","39WSF6KUV27TMEQUH506BZR9N6KEO1","","94.09999990463257","img/land6.png","76","98.09999990463257","76","0","false","",""
"","html-keyboard-response","60","23418","0.0-87.0","3M68NM076ITUSWNPUH3EIP0PL4M6RQ","A1HQZBNZEQ4TOK","39WSF6KUV27TMEQUH506BZR9N6KEO1","","null","<img src=""img/land6.png"" style=""width:200px;border:14px solid red;"">","null","","","","","",""
"","image-keyboard-response","61","23465","0.0-89.0","3M68NM076ITUSWNPUH3EIP0PL4M6RQ","A1HQZBNZEQ4TOK","39WSF6KUV27TMEQUH506BZR9N6KEO1","","42.80000019073486","img/land9.png","74","46.19999980926514","74","0","false","",""
"","html-keyboard-response","62","23772","0.0-90.0","3M68NM076ITUSWNPUH3EIP0PL4M6RQ","A1HQZBNZEQ4TOK","39WSF6KUV27TMEQUH506BZR9N6KEO1","","null","<img src=""img/land9.png"" style=""width:200px;border:14px solid red;"">","null","","","","","",""
"","image-keyboard-response","63","23793","0.0-92.0","3M68NM076ITUSWNPUH3EIP0PL4M6RQ","A1HQZBNZEQ4TOK","39WSF6KUV27TMEQUH506BZR9N6KEO1","","15.599999904632568","img/land1.png","75","19.40000009536743","75","1","false","",""
"","html-keyboard-response","64","24099","0.0-93.0","3M68NM076ITUSWNPUH3EIP0PL4M6RQ","A1HQZBNZEQ4TOK","39WSF6KUV27TMEQUH506BZR9N6KEO1","","null","<img src=""img/land1.png"" style=""width:200px; border:14px solid green;"">","null","","","","","",""
"","image-keyboard-response","65","24216","0.0-95.0","3M68NM076ITUSWNPUH3EIP0PL4M6RQ","A1HQZBNZEQ4TOK","39WSF6KUV27TMEQUH506BZR9N6KEO1","","111","img/land1.png","75","114.69999980926514","75","1","false","",""
"","html-keyboard-response","66","24522","0.0-96.0","3M68NM076ITUSWNPUH3EIP0PL4M6RQ","A1HQZBNZEQ4TOK","39WSF6KUV27TMEQUH506BZR9N6KEO1","","null","<img src=""img/land1.png"" style=""width:200px; border:14px solid green;"">","null","","","","","",""
"","image-keyboard-response","67","24676","0.0-98.0","3M68NM076ITUSWNPUH3EIP0PL4M6RQ","A1HQZBNZEQ4TOK","39WSF6KUV27TMEQUH506BZR9N6KEO1","","146.7999997138977","img/land6.png","75","151.5","75","1","false","",""
"","html-keyboard-response","68","24981","0.0-99.0","3M68NM076ITUSWNPUH3EIP0PL4M6RQ","A1HQZBNZEQ4TOK","39WSF6KUV27TMEQUH506BZR9N6KEO1","","null","<img src=""img/land6.png"" style=""width:200px; border:14px solid green;"">","null","","","","","",""
"","image-keyboard-response","69","25077","0.0-101.0","3M68NM076ITUSWNPUH3EIP0PL4M6RQ","A1HQZBNZEQ4TOK","39WSF6KUV27TMEQUH506BZR9N6KEO1","","91.2999997138977","img/land6.png","75","94.90000009536743","75","0","false","",""
"","html-keyboard-response","70","25382","0.0-102.0","3M68NM076ITUSWNPUH3EIP0PL4M6RQ","A1HQZBNZEQ4TOK","39WSF6KUV27TMEQUH506BZR9N6KEO1","","null","<img src=""img/land6.png"" style=""width:200px;border:14px solid red;"">","null","","","","","",""
"","image-keyboard-response","71","25390","0.0-104.0","3M68NM076ITUSWNPUH3EIP0PL4M6RQ","A1HQZBNZEQ4TOK","39WSF6KUV27TMEQUH506BZR9N6KEO1","","3","img/land1.png","74","6.199999809265137","74","1","false","",""
"","html-keyboard-response","72","25697","0.0-105.0","3M68NM076ITUSWNPUH3EIP0PL4M6RQ","A1HQZBNZEQ4TOK","39WSF6KUV27TMEQUH506BZR9N6KEO1","","null","<img src=""img/land1.png"" style=""width:200px; border:14px solid green;"">","null","","","","","",""
"","image-keyboard-response","73","25848","0.0-107.0","3M68NM076ITUSWNPUH3EIP0PL4M6RQ","A1HQZBNZEQ4TOK","39WSF6KUV27TMEQUH506BZR9N6KEO1","","146.5","img/land1.png","75","150.09999990463257","75","1","false","",""
"","html-keyboard-response","74","26153","0.0-108.0","3M68NM076ITUSWNPUH3EIP0PL4M6RQ","A1HQZBNZEQ4TOK","39WSF6KUV27TMEQUH506BZR9N6KEO1","","null","<img src=""img/land1.png"" style=""width:200px; border:14px solid green;"">","null","","","","","",""
"","image-keyboard-response","75","26160","0.0-110.0","3M68NM076ITUSWNPUH3EIP0PL4M6RQ","A1HQZBNZEQ4TOK","39WSF6KUV27TMEQUH506BZR9N6KEO1","","1.1999998092651367","img/land1.png","74","4.400000095367432","74","0","false","",""
"","html-keyboard-response","76","26466","0.0-111.0","3M68NM076ITUSWNPUH3EIP0PL4M6RQ","A1HQZBNZEQ4TOK","39WSF6KUV27TMEQUH506BZR9N6KEO1","","null","<img src=""img/land1.png"" style=""width:200px;border:14px solid red;"">","null","","","","","",""
"","image-keyboard-response","77","26557","0.0-113.0","3M68NM076ITUSWNPUH3EIP0PL4M6RQ","A1HQZBNZEQ4TOK","39WSF6KUV27TMEQUH506BZR9N6KEO1","","86.2999997138977","img/land1.png","75","90.30000019073486","75","1","false","",""
"","html-keyboard-response","78","26864","0.0-114.0","3M68NM076ITUSWNPUH3EIP0PL4M6RQ","A1HQZBNZEQ4TOK","39WSF6KUV27TMEQUH506BZR9N6KEO1","","null","<img src=""img/land1.png"" style=""width:200px; border:14px solid green;"">","null","","","","","",""
"","image-keyboard-response","79","26957","0.0-116.0","3M68NM076ITUSWNPUH3EIP0PL4M6RQ","A1HQZBNZEQ4TOK","39WSF6KUV27TMEQUH506BZR9N6KEO1","","88.10000038146973","img/land1.png","75","91.80000019073486","75","1","false","",""
"","html-keyboard-response","80","27262","0.0-117.0","3M68NM076ITUSWNPUH3EIP0PL4M6RQ","A1HQZBNZEQ4TOK","39WSF6KUV27TMEQUH506BZR9N6KEO1","","null","<img src=""img/land1.png"" style=""width:200px; border:14px solid green;"">","null","","","","","",""
"","image-keyboard-response","81","27364","0.0-119.0","3M68NM076ITUSWNPUH3EIP0PL4M6RQ","A1HQZBNZEQ4TOK","39WSF6KUV27TMEQUH506BZR9N6KEO1","","97.90000009536743","img/land6.png","75","101.59999990463257","75","0","false","",""
"","html-keyboard-response","82","27669","0.0-120.0","3M68NM076ITUSWNPUH3EIP0PL4M6RQ","A1HQZBNZEQ4TOK","39WSF6KUV27TMEQUH506BZR9N6KEO1","","null","<img src=""img/land6.png"" style=""width:200px;border:14px solid red;"">","null","","","","","",""
"","image-keyboard-response","83","27773","0.0-122.0","3M68NM076ITUSWNPUH3EIP0PL4M6RQ","A1HQZBNZEQ4TOK","39WSF6KUV27TMEQUH506BZR9N6KEO1","","101.19999980926514","img/land6.png","75","104.19999980926514","75","1","false","",""
"","html-keyboard-response","84","28079","0.0-123.0","3M68NM076ITUSWNPUH3EIP0PL4M6RQ","A1HQZBNZEQ4TOK","39WSF6KUV27TMEQUH506BZR9N6KEO1","","null","<img src=""img/land6.png"" style=""width:200px; border:14px solid green;"">","null","","","","","",""
"","image-keyboard-response","85","28159","0.0-125.0","3M68NM076ITUSWNPUH3EIP0PL4M6RQ","A1HQZBNZEQ4TOK","39WSF6KUV27TMEQUH506BZR9N6KEO1","","74.59999990463257","img/land1.png","75","78.59999990463257","75","0","false","",""
"","html-keyboard-response","86","28465","0.0-126.0","3M68NM076ITUSWNPUH3EIP0PL4M6RQ","A1HQZBNZEQ4TOK","39WSF6KUV27TMEQUH506BZR9N6KEO1","","null","<img src=""img/land1.png"" style=""width:200px;border:14px solid red;"">","null","","","","","",""
"","image-keyboard-response","87","28545","0.0-128.0","3M68NM076ITUSWNPUH3EIP0PL4M6RQ","A1HQZBNZEQ4TOK","39WSF6KUV27TMEQUH506BZR9N6KEO1","","75.2000002861023","img/land6.png","75","78.59999990463257","75","1","false","",""
"","html-keyboard-response","88","28852","0.0-129.0","3M68NM076ITUSWNPUH3EIP0PL4M6RQ","A1HQZBNZEQ4TOK","39WSF6KUV27TMEQUH506BZR9N6KEO1","","null","<img src=""img/land6.png"" style=""width:200px; border:14px solid green;"">","null","","","","","",""
"","image-keyboard-response","89","28909","0.0-131.0","3M68NM076ITUSWNPUH3EIP0PL4M6RQ","A1HQZBNZEQ4TOK","39WSF6KUV27TMEQUH506BZR9N6KEO1","","52.200000286102295","img/land1.png","76","55.90000009536743","76","1","false","",""
"","html-keyboard-response","90","29214","0.0-132.0","3M68NM076ITUSWNPUH3EIP0PL4M6RQ","A1HQZBNZEQ4TOK","39WSF6KUV27TMEQUH506BZR9N6KEO1","","null","<img src=""img/land1.png"" style=""width:200px; border:14px solid green;"">","null","","","","","",""
"","image-keyboard-response","91","29316","0.0-134.0","3M68NM076ITUSWNPUH3EIP0PL4M6RQ","A1HQZBNZEQ4TOK","39WSF6KUV27TMEQUH506BZR9N6KEO1","","97.2999997138977","img/land6.png","75","100.80000019073486","75","1","false","",""
"","html-keyboard-response","92","29621","0.0-135.0","3M68NM076ITUSWNPUH3EIP0PL4M6RQ","A1HQZBNZEQ4TOK","39WSF6KUV27TMEQUH506BZR9N6KEO1","","null","<img src=""img/land6.png"" style=""width:200px; border:14px solid green;"">","null","","","","","",""
"","image-keyboard-response","93","29698","0.0-137.0","3M68NM076ITUSWNPUH3EIP0PL4M6RQ","A1HQZBNZEQ4TOK","39WSF6KUV27TMEQUH506BZR9N6KEO1","","71.69999980926514","img/land6.png","76","75.60000038146973","76","0","false","",""
"","html-keyboard-response","94","30003","0.0-138.0","3M68NM076ITUSWNPUH3EIP0PL4M6RQ","A1HQZBNZEQ4TOK","39WSF6KUV27TMEQUH506BZR9N6KEO1","","null","<img src=""img/land6.png"" style=""width:200px;border:14px solid red;"">","null","","","","","",""
"","image-keyboard-response","95","30144","0.0-140.0","3M68NM076ITUSWNPUH3EIP0PL4M6RQ","A1HQZBNZEQ4TOK","39WSF6KUV27TMEQUH506BZR9N6KEO1","","135.30000019073486","img/land9.png","74","139","74","0","false","",""
"","html-keyboard-response","96","30449","0.0-141.0","3M68NM076ITUSWNPUH3EIP0PL4M6RQ","A1HQZBNZEQ4TOK","39WSF6KUV27TMEQUH506BZR9N6KEO1","","null","<img src=""img/land9.png"" style=""width:200px;border:14px solid red;"">","null","","","","","",""
"","image-keyboard-response","97","30453","0.0-143.0","3M68NM076ITUSWNPUH3EIP0PL4M6RQ","A1HQZBNZEQ4TOK","39WSF6KUV27TMEQUH506BZR9N6KEO1","","0.9000000953674316","img/land6.png","75","3.0999999046325684","75","1","false","",""
"","html-keyboard-response","98","30758","0.0-144.0","3M68NM076ITUSWNPUH3EIP0PL4M6RQ","A1HQZBNZEQ4TOK","39WSF6KUV27TMEQUH506BZR9N6KEO1","","null","<img src=""img/land6.png"" style=""width:200px; border:14px solid green;"">","null","","","","","",""
"","image-keyboard-response","99","30765","0.0-146.0","3M68NM076ITUSWNPUH3EIP0PL4M6RQ","A1HQZBNZEQ4TOK","39WSF6KUV27TMEQUH506BZR9N6KEO1","","1.1999998092651367","img/land1.png","74","4.200000286102295","74","1","false","",""
"","html-keyboard-response","100","31070","0.0-147.0","3M68NM076ITUSWNPUH3EIP0PL4M6RQ","A1HQZBNZEQ4TOK","39WSF6KUV27TMEQUH506BZR9N6KEO1","","null","<img src=""img/land1.png"" style=""width:200px; border:14px solid green;"">","null","","","","","",""
"","image-keyboard-response","101","31076","0.0-149.0","3M68NM076ITUSWNPUH3EIP0PL4M6RQ","A1HQZBNZEQ4TOK","39WSF6KUV27TMEQUH506BZR9N6KEO1","","1.6000003814697266","img/land9.png","75","5.099999904632568","75","1","false","",""
"","html-keyboard-response","102","31380","0.0-150.0","3M68NM076ITUSWNPUH3EIP0PL4M6RQ","A1HQZBNZEQ4TOK","39WSF6KUV27TMEQUH506BZR9N6KEO1","","null","<img src=""img/land9.png"" style=""width:200px; border:14px solid green;"">","null","","","","","",""
"","image-keyboard-response","103","31519","0.0-152.0","3M68NM076ITUSWNPUH3EIP0PL4M6RQ","A1HQZBNZEQ4TOK","39WSF6KUV27TMEQUH506BZR9N6KEO1","","133.69999980926514","img/land6.png","76","137.30000019073486","76","0","false","",""
"","html-keyboard-response","104","31824","0.0-153.0","3M68NM076ITUSWNPUH3EIP0PL4M6RQ","A1HQZBNZEQ4TOK","39WSF6KUV27TMEQUH506BZR9N6KEO1","","null","<img src=""img/land6.png"" style=""width:200px;border:14px solid red;"">","null","","","","","",""
"","image-keyboard-response","105","31911","0.0-155.0","3M68NM076ITUSWNPUH3EIP0PL4M6RQ","A1HQZBNZEQ4TOK","39WSF6KUV27TMEQUH506BZR9N6KEO1","","82","img/land9.png","75","85.7000002861023","75","1","false","",""
"","html-keyboard-response","106","32217","0.0-156.0","3M68NM076ITUSWNPUH3EIP0PL4M6RQ","A1HQZBNZEQ4TOK","39WSF6KUV27TMEQUH506BZR9N6KEO1","","null","<img src=""img/land9.png"" style=""width:200px; border:14px solid green;"">","null","","","","","",""
"","image-keyboard-response","107","32276","0.0-158.0","3M68NM076ITUSWNPUH3EIP0PL4M6RQ","A1HQZBNZEQ4TOK","39WSF6KUV27TMEQUH506BZR9N6KEO1","","54.200000286102295","img/land9.png","75","57.799999713897705","75","1","false","",""
"","html-keyboard-response","108","32582","0.0-159.0","3M68NM076ITUSWNPUH3EIP0PL4M6RQ","A1HQZBNZEQ4TOK","39WSF6KUV27TMEQUH506BZR9N6KEO1","","null","<img src=""img/land9.png"" style=""width:200px; border:14px solid green;"">","null","","","","","",""
"","image-keyboard-response","109","32647","0.0-161.0","3M68NM076ITUSWNPUH3EIP0PL4M6RQ","A1HQZBNZEQ4TOK","39WSF6KUV27TMEQUH506BZR9N6KEO1","","59.59999990463257","img/land1.png","75","62.5","75","0","false","",""
"","html-keyboard-response","110","32951","0.0-162.0","3M68NM076ITUSWNPUH3EIP0PL4M6RQ","A1HQZBNZEQ4TOK","39WSF6KUV27TMEQUH506BZR9N6KEO1","","null","<img src=""img/land1.png"" style=""width:200px;border:14px solid red;"">","null","","","","","",""
"","image-keyboard-response","111","32999","0.0-164.0","3M68NM076ITUSWNPUH3EIP0PL4M6RQ","A1HQZBNZEQ4TOK","39WSF6KUV27TMEQUH506BZR9N6KEO1","","43","img/land1.png","75","46.299999713897705","75","0","false","",""
"","html-keyboard-response","112","33303","0.0-165.0","3M68NM076ITUSWNPUH3EIP0PL4M6RQ","A1HQZBNZEQ4TOK","39WSF6KUV27TMEQUH506BZR9N6KEO1","","null","<img src=""img/land1.png"" style=""width:200px;border:14px solid red;"">","null","","","","","",""
"","image-keyboard-response","113","33338","0.0-167.0","3M68NM076ITUSWNPUH3EIP0PL4M6RQ","A1HQZBNZEQ4TOK","39WSF6KUV27TMEQUH506BZR9N6KEO1","","30.399999618530273","img/land1.png","74","33.59999990463257","74","1","false","",""
"","html-keyboard-response","114","33643","0.0-168.0","3M68NM076ITUSWNPUH3EIP0PL4M6RQ","A1HQZBNZEQ4TOK","39WSF6KUV27TMEQUH506BZR9N6KEO1","","null","<img src=""img/land1.png"" style=""width:200px; border:14px solid green;"">","null","","","","","",""
"","image-keyboard-response","115","33725","0.0-170.0","3M68NM076ITUSWNPUH3EIP0PL4M6RQ","A1HQZBNZEQ4TOK","39WSF6KUV27TMEQUH506BZR9N6KEO1","","77.19999980926514","img/land9.png","75","80.90000009536743","75","1","false","",""
"","html-keyboard-response","116","34031","0.0-171.0","3M68NM076ITUSWNPUH3EIP0PL4M6RQ","A1HQZBNZEQ4TOK","39WSF6KUV27TMEQUH506BZR9N6KEO1","","null","<img src=""img/land9.png"" style=""width:200px; border:14px solid green;"">","null","","","","","",""
"","image-keyboard-response","117","34159","0.0-173.0","3M68NM076ITUSWNPUH3EIP0PL4M6RQ","A1HQZBNZEQ4TOK","39WSF6KUV27TMEQUH506BZR9N6KEO1","","123.09999990463257","img/land6.png","75","126.7000002861023","75","1","false","",""
"","html-keyboard-response","118","34466","0.0-174.0","3M68NM076ITUSWNPUH3EIP0PL4M6RQ","A1HQZBNZEQ4TOK","39WSF6KUV27TMEQUH506BZR9N6KEO1","","null","<img src=""img/land6.png"" style=""width:200px; border:14px solid green;"">","null","","","","","",""
"","image-keyboard-response","119","34472","0.0-176.0","3M68NM076ITUSWNPUH3EIP0PL4M6RQ","A1HQZBNZEQ4TOK","39WSF6KUV27TMEQUH506BZR9N6KEO1","","1.1999998092651367","img/land6.png","74","4.300000190734863","74","1","false","",""
"","html-keyboard-response","120","34781","0.0-177.0","3M68NM076ITUSWNPUH3EIP0PL4M6RQ","A1HQZBNZEQ4TOK","39WSF6KUV27TMEQUH506BZR9N6KEO1","","null","<img src=""img/land6.png"" style=""width:200px; border:14px solid green;"">","null","","","","","",""
"","image-keyboard-response","121","34827","0.0-179.0","3M68NM076ITUSWNPUH3EIP0PL4M6RQ","A1HQZBNZEQ4TOK","39WSF6KUV27TMEQUH506BZR9N6KEO1","","41.200000286102295","img/land1.png","75","44.80000019073486","75","0","false","",""
"","html-keyboard-response","122","35133","0.0-180.0","3M68NM076ITUSWNPUH3EIP0PL4M6RQ","A1HQZBNZEQ4TOK","39WSF6KUV27TMEQUH506BZR9N6KEO1","","null","<img src=""img/land1.png"" style=""width:200px;border:14px solid red;"">","null","","","","","",""
"","image-keyboard-response","123","35288","0.0-182.0","3M68NM076ITUSWNPUH3EIP0PL4M6RQ","A1HQZBNZEQ4TOK","39WSF6KUV27TMEQUH506BZR9N6KEO1","","149.80000019073486","img/land6.png","74","153.60000038146973","74","1","false","",""
"","html-keyboard-response","124","35598","0.0-183.0","3M68NM076ITUSWNPUH3EIP0PL4M6RQ","A1HQZBNZEQ4TOK","39WSF6KUV27TMEQUH506BZR9N6KEO1","","null","<img src=""img/land6.png"" style=""width:200px; border:14px solid green;"">","null","","","","","",""
"","image-keyboard-response","125","35641","0.0-185.0","3M68NM076ITUSWNPUH3EIP0PL4M6RQ","A1HQZBNZEQ4TOK","39WSF6KUV27TMEQUH506BZR9N6KEO1","","38","img/land1.png","75","41.19999980926514","75","1","false","",""
"","html-keyboard-response","126","35946","0.0-186.0","3M68NM076ITUSWNPUH3EIP0PL4M6RQ","A1HQZBNZEQ4TOK","39WSF6KUV27TMEQUH506BZR9N6KEO1","","null","<img src=""img/land1.png"" style=""width:200px; border:14px solid green;"">","null","","","","","",""
"","image-keyboard-response","127","35970","0.0-188.0","3M68NM076ITUSWNPUH3EIP0PL4M6RQ","A1HQZBNZEQ4TOK","39WSF6KUV27TMEQUH506BZR9N6KEO1","","18.299999713897705","img/land1.png","74","21.699999809265137","74","1","false","",""
"","html-keyboard-response","128","36280","0.0-189.0","3M68NM076ITUSWNPUH3EIP0PL4M6RQ","A1HQZBNZEQ4TOK","39WSF6KUV27TMEQUH506BZR9N6KEO1","","null","<img src=""img/land1.png"" style=""width:200px; border:14px solid green;"">","null","","","","","",""
"","image-keyboard-response","129","36310","0.0-191.0","3M68NM076ITUSWNPUH3EIP0PL4M6RQ","A1HQZBNZEQ4TOK","39WSF6KUV27TMEQUH506BZR9N6KEO1","","25.90000009536743","img/land6.png","75","29.299999713897705","75","0","false","",""
"","html-keyboard-response","130","36618","0.0-192.0","3M68NM076ITUSWNPUH3EIP0PL4M6RQ","A1HQZBNZEQ4TOK","39WSF6KUV27TMEQUH506BZR9N6KEO1","","null","<img src=""img/land6.png"" style=""width:200px;border:14px solid red;"">","null","","","","","",""
"","image-keyboard-response","131","36710","0.0-194.0","3M68NM076ITUSWNPUH3EIP0PL4M6RQ","A1HQZBNZEQ4TOK","39WSF6KUV27TMEQUH506BZR9N6KEO1","","86.7999997138977","img/land9.png","75","91","75","1","false","",""
"","html-keyboard-response","132","37016","0.0-195.0","3M68NM076ITUSWNPUH3EIP0PL4M6RQ","A1HQZBNZEQ4TOK","39WSF6KUV27TMEQUH506BZR9N6KEO1","","null","<img src=""img/land9.png"" style=""width:200px; border:14px solid green;"">","null","","","","","",""
"","image-keyboard-response","133","37116","0.0-197.0","3M68NM076ITUSWNPUH3EIP0PL4M6RQ","A1HQZBNZEQ4TOK","39WSF6KUV27TMEQUH506BZR9N6KEO1","","92.09999990463257","img/land9.png","75","96.30000019073486","75","1","false","",""
"","html-keyboard-response","134","37423","0.0-198.0","3M68NM076ITUSWNPUH3EIP0PL4M6RQ","A1HQZBNZEQ4TOK","39WSF6KUV27TMEQUH506BZR9N6KEO1","","null","<img src=""img/land9.png"" style=""width:200px; border:14px solid green;"">","null","","","","","",""
"","image-keyboard-response","135","37486","0.0-200.0","3M68NM076ITUSWNPUH3EIP0PL4M6RQ","A1HQZBNZEQ4TOK","39WSF6KUV27TMEQUH506BZR9N6KEO1","","57.40000009536743","img/land1.png","75","60.59999990463257","75","0","false","",""
"","html-keyboard-response","136","37792","0.0-201.0","3M68NM076ITUSWNPUH3EIP0PL4M6RQ","A1HQZBNZEQ4TOK","39WSF6KUV27TMEQUH506BZR9N6KEO1","","null","<img src=""img/land1.png"" style=""width:200px;border:14px solid red;"">","null","","","","","",""
"","image-keyboard-response","137","37830","0.0-203.0","3M68NM076ITUSWNPUH3EIP0PL4M6RQ","A1HQZBNZEQ4TOK","39WSF6KUV27TMEQUH506BZR9N6KEO1","","31.199999809265137","img/land6.png","75","36.30000019073486","75","1","false","",""
"","html-keyboard-response","138","38135","0.0-204.0","3M68NM076ITUSWNPUH3EIP0PL4M6RQ","A1HQZBNZEQ4TOK","39WSF6KUV27TMEQUH506BZR9N6KEO1","","null","<img src=""img/land6.png"" style=""width:200px; border:14px solid green;"">","null","","","","","",""
"","image-keyboard-response","139","38140","0.0-206.0","3M68NM076ITUSWNPUH3EIP0PL4M6RQ","A1HQZBNZEQ4TOK","39WSF6KUV27TMEQUH506BZR9N6KEO1","","0.20000028610229492","img/land6.png","75","3.5","75","0","false","",""
"","html-keyboard-response","140","38447","0.0-207.0","3M68NM076ITUSWNPUH3EIP0PL4M6RQ","A1HQZBNZEQ4TOK","39WSF6KUV27TMEQUH506BZR9N6KEO1","","null","<img src=""img/land6.png"" style=""width:200px;border:14px solid red;"">","null","","","","","",""
"","image-keyboard-response","141","38491","0.0-209.0","3M68NM076ITUSWNPUH3EIP0PL4M6RQ","A1HQZBNZEQ4TOK","39WSF6KUV27TMEQUH506BZR9N6KEO1","","38.69999980926514","img/land9.png","76","42.200000286102295","76","1","false","",""
"","html-keyboard-response","142","38796","0.0-210.0","3M68NM076ITUSWNPUH3EIP0PL4M6RQ","A1HQZBNZEQ4TOK","39WSF6KUV27TMEQUH506BZR9N6KEO1","","null","<img src=""img/land9.png"" style=""width:200px; border:14px solid green;"">","null","","","","","",""
"","image-keyboard-response","143","38890","0.0-212.0","3M68NM076ITUSWNPUH3EIP0PL4M6RQ","A1HQZBNZEQ4TOK","39WSF6KUV27TMEQUH506BZR9N6KEO1","","88.40000009536743","img/land6.png","75","92.10000038146973","75","0","false","",""
"","html-keyboard-response","144","39196","0.0-213.0","3M68NM076ITUSWNPUH3EIP0PL4M6RQ","A1HQZBNZEQ4TOK","39WSF6KUV27TMEQUH506BZR9N6KEO1","","null","<img src=""img/land6.png"" style=""width:200px;border:14px solid red;"">","null","","","","","",""
"","image-keyboard-response","145","39235","0.0-215.0","3M68NM076ITUSWNPUH3EIP0PL4M6RQ","A1HQZBNZEQ4TOK","39WSF6KUV27TMEQUH506BZR9N6KEO1","","34.19999980926514","img/land6.png","75","37.700000286102295","75","0","false","",""
"","html-keyboard-response","146","39543","0.0-216.0","3M68NM076ITUSWNPUH3EIP0PL4M6RQ","A1HQZBNZEQ4TOK","39WSF6KUV27TMEQUH506BZR9N6KEO1","","null","<img src=""img/land6.png"" style=""width:200px;border:14px solid red;"">","null","","","","","",""
"","image-keyboard-response","147","39604","0.0-218.0","3M68NM076ITUSWNPUH3EIP0PL4M6RQ","A1HQZBNZEQ4TOK","39WSF6KUV27TMEQUH506BZR9N6KEO1","","55","img/land6.png","76","58.40000009536743","76","0","false","",""
"","html-keyboard-response","148","39909","0.0-219.0","3M68NM076ITUSWNPUH3EIP0PL4M6RQ","A1HQZBNZEQ4TOK","39WSF6KUV27TMEQUH506BZR9N6KEO1","","null","<img src=""img/land6.png"" style=""width:200px;border:14px solid red;"">","null","","","","","",""
"","image-keyboard-response","149","39996","0.0-221.0","3M68NM076ITUSWNPUH3EIP0PL4M6RQ","A1HQZBNZEQ4TOK","39WSF6KUV27TMEQUH506BZR9N6KEO1","","82","img/land9.png","75","85.5","75","1","false","",""
"","html-keyboard-response","150","40302","0.0-222.0","3M68NM076ITUSWNPUH3EIP0PL4M6RQ","A1HQZBNZEQ4TOK","39WSF6KUV27TMEQUH506BZR9N6KEO1","","null","<img src=""img/land9.png"" style=""width:200px; border:14px solid green;"">","null","","","","","",""
"","image-keyboard-response","151","40391","0.0-224.0","3M68NM076ITUSWNPUH3EIP0PL4M6RQ","A1HQZBNZEQ4TOK","39WSF6KUV27TMEQUH506BZR9N6KEO1","","83.90000009536743","img/land1.png","75","87.89999961853027","75","0","false","",""
"","html-keyboard-response","152","40697","0.0-225.0","3M68NM076ITUSWNPUH3EIP0PL4M6RQ","A1HQZBNZEQ4TOK","39WSF6KUV27TMEQUH506BZR9N6KEO1","","null","<img src=""img/land1.png"" style=""width:200px;border:14px solid red;"">","null","","","","","",""
"","image-keyboard-response","153","40787","0.0-227.0","3M68NM076ITUSWNPUH3EIP0PL4M6RQ","A1HQZBNZEQ4TOK","39WSF6KUV27TMEQUH506BZR9N6KEO1","","84.90000009536743","img/land9.png","75","88.59999990463257","75","0","false","",""
"","html-keyboard-response","154","41093","0.0-228.0","3M68NM076ITUSWNPUH3EIP0PL4M6RQ","A1HQZBNZEQ4TOK","39WSF6KUV27TMEQUH506BZR9N6KEO1","","null","<img src=""img/land9.png"" style=""width:200px;border:14px solid red;"">","null","","","","","",""
"","image-keyboard-response","155","41211","0.0-230.0","3M68NM076ITUSWNPUH3EIP0PL4M6RQ","A1HQZBNZEQ4TOK","39WSF6KUV27TMEQUH506BZR9N6KEO1","","113","img/land9.png","75","117","75","1","false","",""
"","html-keyboard-response","156","41516","0.0-231.0","3M68NM076ITUSWNPUH3EIP0PL4M6RQ","A1HQZBNZEQ4TOK","39WSF6KUV27TMEQUH506BZR9N6KEO1","","null","<img src=""img/land9.png"" style=""width:200px; border:14px solid green;"">","null","","","","","",""
"","image-keyboard-response","157","41637","0.0-233.0","3M68NM076ITUSWNPUH3EIP0PL4M6RQ","A1HQZBNZEQ4TOK","39WSF6KUV27TMEQUH506BZR9N6KEO1","","116.10000038146973","img/land1.png","75","119.90000009536743","75","0","false","",""
"","html-keyboard-response","158","41943","0.0-234.0","3M68NM076ITUSWNPUH3EIP0PL4M6RQ","A1HQZBNZEQ4TOK","39WSF6KUV27TMEQUH506BZR9N6KEO1","","null","<img src=""img/land1.png"" style=""width:200px;border:14px solid red;"">","null","","","","","",""
"","image-keyboard-response","159","42048","0.0-236.0","3M68NM076ITUSWNPUH3EIP0PL4M6RQ","A1HQZBNZEQ4TOK","39WSF6KUV27TMEQUH506BZR9N6KEO1","","99.90000009536743","img/land9.png","75","103.59999990463257","75","1","false","",""
"","html-keyboard-response","160","42354","0.0-237.0","3M68NM076ITUSWNPUH3EIP0PL4M6RQ","A1HQZBNZEQ4TOK","39WSF6KUV27TMEQUH506BZR9N6KEO1","","null","<img src=""img/land9.png"" style=""width:200px; border:14px solid green;"">","null","","","","","",""
"","image-keyboard-response","161","42442","0.0-239.0","3M68NM076ITUSWNPUH3EIP0PL4M6RQ","A1HQZBNZEQ4TOK","39WSF6KUV27TMEQUH506BZR9N6KEO1","","81.40000009536743","img/land1.png","75","86.40000009536743","75","1","false","",""
"","html-keyboard-response","162","42752","0.0-240.0","3M68NM076ITUSWNPUH3EIP0PL4M6RQ","A1HQZBNZEQ4TOK","39WSF6KUV27TMEQUH506BZR9N6KEO1","","null","<img src=""img/land1.png"" style=""width:200px; border:14px solid green;"">","null","","","","","",""
"","image-keyboard-response","163","42838","0.0-242.0","3M68NM076ITUSWNPUH3EIP0PL4M6RQ","A1HQZBNZEQ4TOK","39WSF6KUV27TMEQUH506BZR9N6KEO1","","80.7999997138977","img/land9.png","76","85.09999990463257","76","1","false","",""
"","html-keyboard-response","164","43144","0.0-243.0","3M68NM076ITUSWNPUH3EIP0PL4M6RQ","A1HQZBNZEQ4TOK","39WSF6KUV27TMEQUH506BZR9N6KEO1","","null","<img src=""img/land9.png"" style=""width:200px; border:14px solid green;"">","null","","","","","",""
"","image-keyboard-response","165","43168","0.0-245.0","3M68NM076ITUSWNPUH3EIP0PL4M6RQ","A1HQZBNZEQ4TOK","39WSF6KUV27TMEQUH506BZR9N6KEO1","","17.799999713897705","img/land9.png","75","21","75","1","false","",""
"","html-keyboard-response","166","43474","0.0-246.0","3M68NM076ITUSWNPUH3EIP0PL4M6RQ","A1HQZBNZEQ4TOK","39WSF6KUV27TMEQUH506BZR9N6KEO1","","null","<img src=""img/land9.png"" style=""width:200px; border:14px solid green;"">","null","","","","","",""
"","image-keyboard-response","167","43608","0.0-248.0","3M68NM076ITUSWNPUH3EIP0PL4M6RQ","A1HQZBNZEQ4TOK","39WSF6KUV27TMEQUH506BZR9N6KEO1","","128.7999997138977","img/land1.png","75","132.59999990463257","75","0","false","",""
"","html-keyboard-response","168","43915","0.0-249.0","3M68NM076ITUSWNPUH3EIP0PL4M6RQ","A1HQZBNZEQ4TOK","39WSF6KUV27TMEQUH506BZR9N6KEO1","","null","<img src=""img/land1.png"" style=""width:200px;border:14px solid red;"">","null","","","","","",""
"","image-keyboard-response","169","43936","0.0-251.0","3M68NM076ITUSWNPUH3EIP0PL4M6RQ","A1HQZBNZEQ4TOK","39WSF6KUV27TMEQUH506BZR9N6KEO1","","15.400000095367432","img/land1.png","75","19","75","0","false","",""
"","html-keyboard-response","170","44241","0.0-252.0","3M68NM076ITUSWNPUH3EIP0PL4M6RQ","A1HQZBNZEQ4TOK","39WSF6KUV27TMEQUH506BZR9N6KEO1","","null","<img src=""img/land1.png"" style=""width:200px;border:14px solid red;"">","null","","","","","",""
"","image-keyboard-response","171","44262","0.0-254.0","3M68NM076ITUSWNPUH3EIP0PL4M6RQ","A1HQZBNZEQ4TOK","39WSF6KUV27TMEQUH506BZR9N6KEO1","","16.59999990463257","img/land9.png","75","19.800000190734863","75","1","false","",""
"","html-keyboard-response","172","44569","0.0-255.0","3M68NM076ITUSWNPUH3EIP0PL4M6RQ","A1HQZBNZEQ4TOK","39WSF6KUV27TMEQUH506BZR9N6KEO1","","null","<img src=""img/land9.png"" style=""width:200px; border:14px solid green;"">","null","","","","","",""
"","image-keyboard-response","173","44584","0.0-257.0","3M68NM076ITUSWNPUH3EIP0PL4M6RQ","A1HQZBNZEQ4TOK","39WSF6KUV27TMEQUH506BZR9N6KEO1","","10.400000095367432","img/land6.png","75","13.600000381469727","75","0","false","",""
"","html-keyboard-response","174","44890","0.0-258.0","3M68NM076ITUSWNPUH3EIP0PL4M6RQ","A1HQZBNZEQ4TOK","39WSF6KUV27TMEQUH506BZR9N6KEO1","","null","<img src=""img/land6.png"" style=""width:200px;border:14px solid red;"">","null","","","","","",""
"","image-keyboard-response","175","44914","0.0-260.0","3M68NM076ITUSWNPUH3EIP0PL4M6RQ","A1HQZBNZEQ4TOK","39WSF6KUV27TMEQUH506BZR9N6KEO1","","19.59999990463257","img/land6.png","75","23.300000190734863","75","0","false","",""
"","html-keyboard-response","176","45221","0.0-261.0","3M68NM076ITUSWNPUH3EIP0PL4M6RQ","A1HQZBNZEQ4TOK","39WSF6KUV27TMEQUH506BZR9N6KEO1","","null","<img src=""img/land6.png"" style=""width:200px;border:14px solid red;"">","null","","","","","",""
"","image-keyboard-response","177","45244","0.0-263.0","3M68NM076ITUSWNPUH3EIP0PL4M6RQ","A1HQZBNZEQ4TOK","39WSF6KUV27TMEQUH506BZR9N6KEO1","","17","img/land6.png","75","20.5","75","0","false","",""
"","html-keyboard-response","178","45551","0.0-264.0","3M68NM076ITUSWNPUH3EIP0PL4M6RQ","A1HQZBNZEQ4TOK","39WSF6KUV27TMEQUH506BZR9N6KEO1","","null","<img src=""img/land6.png"" style=""width:200px;border:14px solid red;"">","null","","","","","",""
"","image-keyboard-response","179","45575","0.0-266.0","3M68NM076ITUSWNPUH3EIP0PL4M6RQ","A1HQZBNZEQ4TOK","39WSF6KUV27TMEQUH506BZR9N6KEO1","","19.700000286102295","img/land1.png","75","23.09999990463257","75","0","false","",""
"","html-keyboard-response","180","45881","0.0-267.0","3M68NM076ITUSWNPUH3EIP0PL4M6RQ","A1HQZBNZEQ4TOK","39WSF6KUV27TMEQUH506BZR9N6KEO1","","null","<img src=""img/land1.png"" style=""width:200px;border:14px solid red;"">","null","","","","","",""
"","image-keyboard-response","181","45916","0.0-269.0","3M68NM076ITUSWNPUH3EIP0PL4M6RQ","A1HQZBNZEQ4TOK","39WSF6KUV27TMEQUH506BZR9N6KEO1","","30.90000009536743","img/land9.png","75","34.5","75","1","false","",""
"","html-keyboard-response","182","46223","0.0-270.0","3M68NM076ITUSWNPUH3EIP0PL4M6RQ","A1HQZBNZEQ4TOK","39WSF6KUV27TMEQUH506BZR9N6KEO1","","null","<img src=""img/land9.png"" style=""width:200px; border:14px solid green;"">","null","","","","","",""
"","html-keyboard-response","183","47736","0.0-272.0","3M68NM076ITUSWNPUH3EIP0PL4M6RQ","A1HQZBNZEQ4TOK","39WSF6KUV27TMEQUH506BZR9N6KEO1","","","","","","","","","",""
"","image-keyboard-response","184","48487","0.0-273.0","3M68NM076ITUSWNPUH3EIP0PL4M6RQ","A1HQZBNZEQ4TOK","39WSF6KUV27TMEQUH506BZR9N6KEO1","","747.2999997138977","img/land5.png","75","750.6999998092651","75","0","false","",""
"","html-keyboard-response","185","48794","0.0-274.0","3M68NM076ITUSWNPUH3EIP0PL4M6RQ","A1HQZBNZEQ4TOK","39WSF6KUV27TMEQUH506BZR9N6KEO1","","null","<img src=""img/land5.png"" style=""width:200px;border:14px solid red;"">","null","","","","","",""
"","image-keyboard-response","186","48912","0.0-276.0","3M68NM076ITUSWNPUH3EIP0PL4M6RQ","A1HQZBNZEQ4TOK","39WSF6KUV27TMEQUH506BZR9N6KEO1","","112.5","img/land4.png","75","117","75","1","false","",""
"","html-keyboard-response","187","49219","0.0-277.0","3M68NM076ITUSWNPUH3EIP0PL4M6RQ","A1HQZBNZEQ4TOK","39WSF6KUV27TMEQUH506BZR9N6KEO1","","null","<img src=""img/land4.png"" style=""width:200px; border:14px solid green;"">","null","","","","","",""
"","image-keyboard-response","188","49278","0.0-279.0","3M68NM076ITUSWNPUH3EIP0PL4M6RQ","A1HQZBNZEQ4TOK","39WSF6KUV27TMEQUH506BZR9N6KEO1","","51.700000286102295","img/land2.png","75","56.59999990463257","75","0","false","",""
"","html-keyboard-response","189","49587","0.0-280.0","3M68NM076ITUSWNPUH3EIP0PL4M6RQ","A1HQZBNZEQ4TOK","39WSF6KUV27TMEQUH506BZR9N6KEO1","","null","<img src=""img/land2.png"" style=""width:200px;border:14px solid red;"">","null","","","","","",""
"","image-keyboard-response","190","49675","0.0-282.0","3M68NM076ITUSWNPUH3EIP0PL4M6RQ","A1HQZBNZEQ4TOK","39WSF6KUV27TMEQUH506BZR9N6KEO1","","83","img/land5.png","75","87.19999980926514","75","0","false","",""
"","html-keyboard-response","191","49981","0.0-283.0","3M68NM076ITUSWNPUH3EIP0PL4M6RQ","A1HQZBNZEQ4TOK","39WSF6KUV27TMEQUH506BZR9N6KEO1","","null","<img src=""img/land5.png"" style=""width:200px;border:14px solid red;"">","null","","","","","",""
"","image-keyboard-response","192","50068","0.0-285.0","3M68NM076ITUSWNPUH3EIP0PL4M6RQ","A1HQZBNZEQ4TOK","39WSF6KUV27TMEQUH506BZR9N6KEO1","","79.59999990463257","img/land2.png","75","83.40000009536743","75","1","false","",""
"","html-keyboard-response","193","50376","0.0-286.0","3M68NM076ITUSWNPUH3EIP0PL4M6RQ","A1HQZBNZEQ4TOK","39WSF6KUV27TMEQUH506BZR9N6KEO1","","null","<img src=""img/land2.png"" style=""width:200px; border:14px solid green;"">","null","","","","","",""
"","image-keyboard-response","194","50488","0.0-288.0","3M68NM076ITUSWNPUH3EIP0PL4M6RQ","A1HQZBNZEQ4TOK","39WSF6KUV27TMEQUH506BZR9N6KEO1","","106","img/land5.png","75","109.59999990463257","75","0","false","",""
"","html-keyboard-response","195","50793","0.0-289.0","3M68NM076ITUSWNPUH3EIP0PL4M6RQ","A1HQZBNZEQ4TOK","39WSF6KUV27TMEQUH506BZR9N6KEO1","","null","<img src=""img/land5.png"" style=""width:200px;border:14px solid red;"">","null","","","","","",""
"","image-keyboard-response","196","50882","0.0-291.0","3M68NM076ITUSWNPUH3EIP0PL4M6RQ","A1HQZBNZEQ4TOK","39WSF6KUV27TMEQUH506BZR9N6KEO1","","83.80000019073486","img/land4.png","75","88.09999990463257","75","1","false","",""
"","html-keyboard-response","197","51189","0.0-292.0","3M68NM076ITUSWNPUH3EIP0PL4M6RQ","A1HQZBNZEQ4TOK","39WSF6KUV27TMEQUH506BZR9N6KEO1","","null","<img src=""img/land4.png"" style=""width:200px; border:14px solid green;"">","null","","","","","",""
"","image-keyboard-response","198","51266","0.0-294.0","3M68NM076ITUSWNPUH3EIP0PL4M6RQ","A1HQZBNZEQ4TOK","39WSF6KUV27TMEQUH506BZR9N6KEO1","","70.90000009536743","img/land5.png","75","75.19999980926514","75","0","false","",""
"","html-keyboard-response","199","51571","0.0-295.0","3M68NM076ITUSWNPUH3EIP0PL4M6RQ","A1HQZBNZEQ4TOK","39WSF6KUV27TMEQUH506BZR9N6KEO1","","null","<img src=""img/land5.png"" style=""width:200px;border:14px solid red;"">","null","","","","","",""
"","image-keyboard-response","200","51664","0.0-297.0","3M68NM076ITUSWNPUH3EIP0PL4M6RQ","A1HQZBNZEQ4TOK","39WSF6KUV27TMEQUH506BZR9N6KEO1","","88.2000002861023","img/land2.png","75","92.40000009536743","75","0","false","",""
"","html-keyboard-response","201","51970","0.0-298.0","3M68NM076ITUSWNPUH3EIP0PL4M6RQ","A1HQZBNZEQ4TOK","39WSF6KUV27TMEQUH506BZR9N6KEO1","","null","<img src=""img/land2.png"" style=""width:200px;border:14px solid red;"">","null","","","","","",""
"","image-keyboard-response","202","52040","0.0-300.0","3M68NM076ITUSWNPUH3EIP0PL4M6RQ","A1HQZBNZEQ4TOK","39WSF6KUV27TMEQUH506BZR9N6KEO1","","63.90000009536743","img/land2.png","74","68.40000009536743","74","0","false","",""
"","html-keyboard-response","203","52346","0.0-301.0","3M68NM076ITUSWNPUH3EIP0PL4M6RQ","A1HQZBNZEQ4TOK","39WSF6KUV27TMEQUH506BZR9N6KEO1","","null","<img src=""img/land2.png"" style=""width:200px;border:14px solid red;"">","null","","","","","",""
"","image-keyboard-response","204","52458","0.0-303.0","3M68NM076ITUSWNPUH3EIP0PL4M6RQ","A1HQZBNZEQ4TOK","39WSF6KUV27TMEQUH506BZR9N6KEO1","","104.5","img/land5.png","75","109.69999980926514","75","0","false","",""
"","html-keyboard-response","205","52762","0.0-304.0","3M68NM076ITUSWNPUH3EIP0PL4M6RQ","A1HQZBNZEQ4TOK","39WSF6KUV27TMEQUH506BZR9N6KEO1","","null","<img src=""img/land5.png"" style=""width:200px;border:14px solid red;"">","null","","","","","",""
"","image-keyboard-response","206","52853","0.0-306.0","3M68NM076ITUSWNPUH3EIP0PL4M6RQ","A1HQZBNZEQ4TOK","39WSF6KUV27TMEQUH506BZR9N6KEO1","","85.5","img/land5.png","75","89.30000019073486","75","0","false","",""
"","html-keyboard-response","207","53160","0.0-307.0","3M68NM076ITUSWNPUH3EIP0PL4M6RQ","A1HQZBNZEQ4TOK","39WSF6KUV27TMEQUH506BZR9N6KEO1","","null","<img src=""img/land5.png"" style=""width:200px;border:14px solid red;"">","null","","","","","",""
"","image-keyboard-response","208","53252","0.0-309.0","3M68NM076ITUSWNPUH3EIP0PL4M6RQ","A1HQZBNZEQ4TOK","39WSF6KUV27TMEQUH506BZR9N6KEO1","","86.7999997138977","img/land4.png","75","90.7000002861023","75","1","false","",""
"","html-keyboard-response","209","53558","0.0-310.0","3M68NM076ITUSWNPUH3EIP0PL4M6RQ","A1HQZBNZEQ4TOK","39WSF6KUV27TMEQUH506BZR9N6KEO1","","null","<img src=""img/land4.png"" style=""width:200px; border:14px solid green;"">","null","","","","","",""
"","image-keyboard-response","210","53670","0.0-312.0","3M68NM076ITUSWNPUH3EIP0PL4M6RQ","A1HQZBNZEQ4TOK","39WSF6KUV27TMEQUH506BZR9N6KEO1","","107.5","img/land4.png","75","111.40000009536743","75","0","false","",""
"","html-keyboard-response","211","53976","0.0-313.0","3M68NM076ITUSWNPUH3EIP0PL4M6RQ","A1HQZBNZEQ4TOK","39WSF6KUV27TMEQUH506BZR9N6KEO1","","null","<img src=""img/land4.png"" style=""width:200px;border:14px solid red;"">","null","","","","","",""
"","image-keyboard-response","212","54062","0.0-315.0","3M68NM076ITUSWNPUH3EIP0PL4M6RQ","A1HQZBNZEQ4TOK","39WSF6KUV27TMEQUH506BZR9N6KEO1","","81.19999980926514","img/land5.png","74","84.90000009536743","74","0","false","",""
"","html-keyboard-response","213","54368","0.0-316.0","3M68NM076ITUSWNPUH3EIP0PL4M6RQ","A1HQZBNZEQ4TOK","39WSF6KUV27TMEQUH506BZR9N6KEO1","","null","<img src=""img/land5.png"" style=""width:200px;border:14px solid red;"">","null","","","","","",""
"","image-keyboard-response","214","54474","0.0-318.0","3M68NM076ITUSWNPUH3EIP0PL4M6RQ","A1HQZBNZEQ4TOK","39WSF6KUV27TMEQUH506BZR9N6KEO1","","101.09999990463257","img/land5.png","75","104.80000019073486","75","0","false","",""
"","html-keyboard-response","215","54780","0.0-319.0","3M68NM076ITUSWNPUH3EIP0PL4M6RQ","A1HQZBNZEQ4TOK","39WSF6KUV27TMEQUH506BZR9N6KEO1","","null","<img src=""img/land5.png"" style=""width:200px;border:14px solid red;"">","null","","","","","",""
"","image-keyboard-response","216","54909","0.0-321.0","3M68NM076ITUSWNPUH3EIP0PL4M6RQ","A1HQZBNZEQ4TOK","39WSF6KUV27TMEQUH506BZR9N6KEO1","","122.7000002861023","img/land2.png","75","126.7000002861023","75","1","false","",""
"","html-keyboard-response","217","55215","0.0-322.0","3M68NM076ITUSWNPUH3EIP0PL4M6RQ","A1HQZBNZEQ4TOK","39WSF6KUV27TMEQUH506BZR9N6KEO1","","null","<img src=""img/land2.png"" style=""width:200px; border:14px solid green;"">","null","","","","","",""
"","image-keyboard-response","218","55316","0.0-324.0","3M68NM076ITUSWNPUH3EIP0PL4M6RQ","A1HQZBNZEQ4TOK","39WSF6KUV27TMEQUH506BZR9N6KEO1","","96.2999997138977","img/land4.png","75","100","75","1","false","",""
"","html-keyboard-response","219","55622","0.0-325.0","3M68NM076ITUSWNPUH3EIP0PL4M6RQ","A1HQZBNZEQ4TOK","39WSF6KUV27TMEQUH506BZR9N6KEO1","","null","<img src=""img/land4.png"" style=""width:200px; border:14px solid green;"">","null","","","","","",""
"","image-keyboard-response","220","55718","0.0-327.0","3M68NM076ITUSWNPUH3EIP0PL4M6RQ","A1HQZBNZEQ4TOK","39WSF6KUV27TMEQUH506BZR9N6KEO1","","90.69999980926514","img/land4.png","75","94.60000038146973","75","1","false","",""
"","html-keyboard-response","221","56024","0.0-328.0","3M68NM076ITUSWNPUH3EIP0PL4M6RQ","A1HQZBNZEQ4TOK","39WSF6KUV27TMEQUH506BZR9N6KEO1","","null","<img src=""img/land4.png"" style=""width:200px; border:14px solid green;"">","null","","","","","",""
"","image-keyboard-response","222","56156","0.0-330.0","3M68NM076ITUSWNPUH3EIP0PL4M6RQ","A1HQZBNZEQ4TOK","39WSF6KUV27TMEQUH506BZR9N6KEO1","","126.19999980926514","img/land4.png","76","130.40000009536743","76","0","false","",""
"","html-keyboard-response","223","56462","0.0-331.0","3M68NM076ITUSWNPUH3EIP0PL4M6RQ","A1HQZBNZEQ4TOK","39WSF6KUV27TMEQUH506BZR9N6KEO1","","null","<img src=""img/land4.png"" style=""width:200px;border:14px solid red;"">","null","","","","","",""
"","image-keyboard-response","224","56519","0.0-333.0","3M68NM076ITUSWNPUH3EIP0PL4M6RQ","A1HQZBNZEQ4TOK","39WSF6KUV27TMEQUH506BZR9N6KEO1","","52.69999980926514","img/land4.png","74","56.40000009536743","74","0","false","",""
"","html-keyboard-response","225","56827","0.0-334.0","3M68NM076ITUSWNPUH3EIP0PL4M6RQ","A1HQZBNZEQ4TOK","39WSF6KUV27TMEQUH506BZR9N6KEO1","","null","<img src=""img/land4.png"" style=""width:200px;border:14px solid red;"">","null","","","","","",""
"","image-keyboard-response","226","56837","0.0-336.0","3M68NM076ITUSWNPUH3EIP0PL4M6RQ","A1HQZBNZEQ4TOK","39WSF6KUV27TMEQUH506BZR9N6KEO1","","2.0999999046325684","img/land5.png","75","5.300000190734863","75","0","false","",""
"","html-keyboard-response","227","57145","0.0-337.0","3M68NM076ITUSWNPUH3EIP0PL4M6RQ","A1HQZBNZEQ4TOK","39WSF6KUV27TMEQUH506BZR9N6KEO1","","null","<img src=""img/land5.png"" style=""width:200px;border:14px solid red;"">","null","","","","","",""
"","image-keyboard-response","228","57266","0.0-339.0","3M68NM076ITUSWNPUH3EIP0PL4M6RQ","A1HQZBNZEQ4TOK","39WSF6KUV27TMEQUH506BZR9N6KEO1","","115.80000019073486","img/land4.png","76","119.80000019073486","76","0","false","",""
"","html-keyboard-response","229","57571","0.0-340.0","3M68NM076ITUSWNPUH3EIP0PL4M6RQ","A1HQZBNZEQ4TOK","39WSF6KUV27TMEQUH506BZR9N6KEO1","","null","<img src=""img/land4.png"" style=""width:200px;border:14px solid red;"">","null","","","","","",""
"","image-keyboard-response","230","57651","0.0-342.0","3M68NM076ITUSWNPUH3EIP0PL4M6RQ","A1HQZBNZEQ4TOK","39WSF6KUV27TMEQUH506BZR9N6KEO1","","75.5","img/land5.png","76","79.2000002861023","76","1","false","",""
"","html-keyboard-response","231","57957","0.0-343.0","3M68NM076ITUSWNPUH3EIP0PL4M6RQ","A1HQZBNZEQ4TOK","39WSF6KUV27TMEQUH506BZR9N6KEO1","","null","<img src=""img/land5.png"" style=""width:200px; border:14px solid green;"">","null","","","","","",""
"","image-keyboard-response","232","58028","0.0-345.0","3M68NM076ITUSWNPUH3EIP0PL4M6RQ","A1HQZBNZEQ4TOK","39WSF6KUV27TMEQUH506BZR9N6KEO1","","64.90000009536743","img/land4.png","75","68.90000009536743","75","1","false","",""
"","html-keyboard-response","233","58335","0.0-346.0","3M68NM076ITUSWNPUH3EIP0PL4M6RQ","A1HQZBNZEQ4TOK","39WSF6KUV27TMEQUH506BZR9N6KEO1","","null","<img src=""img/land4.png"" style=""width:200px; border:14px solid green;"">","null","","","","","",""
"","image-keyboard-response","234","58434","0.0-348.0","3M68NM076ITUSWNPUH3EIP0PL4M6RQ","A1HQZBNZEQ4TOK","39WSF6KUV27TMEQUH506BZR9N6KEO1","","94.19999980926514","img/land4.png","76","98.59999990463257","76","0","false","",""
"","html-keyboard-response","235","58740","0.0-349.0","3M68NM076ITUSWNPUH3EIP0PL4M6RQ","A1HQZBNZEQ4TOK","39WSF6KUV27TMEQUH506BZR9N6KEO1","","null","<img src=""img/land4.png"" style=""width:200px;border:14px solid red;"">","null","","","","","",""
"","image-keyboard-response","236","58801","0.0-351.0","3M68NM076ITUSWNPUH3EIP0PL4M6RQ","A1HQZBNZEQ4TOK","39WSF6KUV27TMEQUH506BZR9N6KEO1","","56.80000019073486","img/land4.png","76","60.39999961853027","76","0","false","",""
"","html-keyboard-response","237","59108","0.0-352.0","3M68NM076ITUSWNPUH3EIP0PL4M6RQ","A1HQZBNZEQ4TOK","39WSF6KUV27TMEQUH506BZR9N6KEO1","","null","<img src=""img/land4.png"" style=""width:200px;border:14px solid red;"">","null","","","","","",""
"","image-keyboard-response","238","59272","0.0-354.0","3M68NM076ITUSWNPUH3EIP0PL4M6RQ","A1HQZBNZEQ4TOK","39WSF6KUV27TMEQUH506BZR9N6KEO1","","158.7000002861023","img/land4.png","75","162.69999980926514","75","0","false","",""
"","html-keyboard-response","239","59578","0.0-355.0","3M68NM076ITUSWNPUH3EIP0PL4M6RQ","A1HQZBNZEQ4TOK","39WSF6KUV27TMEQUH506BZR9N6KEO1","","null","<img src=""img/land4.png"" style=""width:200px;border:14px solid red;"">","null","","","","","",""
"","image-keyboard-response","240","59626","0.0-357.0","3M68NM076ITUSWNPUH3EIP0PL4M6RQ","A1HQZBNZEQ4TOK","39WSF6KUV27TMEQUH506BZR9N6KEO1","","41.90000009536743","img/land4.png","74","46","74","1","false","",""
"","html-keyboard-response","241","59931","0.0-358.0","3M68NM076ITUSWNPUH3EIP0PL4M6RQ","A1HQZBNZEQ4TOK","39WSF6KUV27TMEQUH506BZR9N6KEO1","","null","<img src=""img/land4.png"" style=""width:200px; border:14px solid green;"">","null","","","","","",""
"","image-keyboard-response","242","59964","0.0-360.0","3M68NM076ITUSWNPUH3EIP0PL4M6RQ","A1HQZBNZEQ4TOK","39WSF6KUV27TMEQUH506BZR9N6KEO1","","28.299999713897705","img/land2.png","75","31.699999809265137","75","0","false","",""
"","html-keyboard-response","243","60269","0.0-361.0","3M68NM076ITUSWNPUH3EIP0PL4M6RQ","A1HQZBNZEQ4TOK","39WSF6KUV27TMEQUH506BZR9N6KEO1","","null","<img src=""img/land2.png"" style=""width:200px;border:14px solid red;"">","null","","","","","",""
"","image-keyboard-response","244","60367","0.0-363.0","3M68NM076ITUSWNPUH3EIP0PL4M6RQ","A1HQZBNZEQ4TOK","39WSF6KUV27TMEQUH506BZR9N6KEO1","","92.09999990463257","img/land4.png","76","96.2000002861023","76","0","false","",""
"","html-keyboard-response","245","60673","0.0-364.0","3M68NM076ITUSWNPUH3EIP0PL4M6RQ","A1HQZBNZEQ4TOK","39WSF6KUV27TMEQUH506BZR9N6KEO1","","null","<img src=""img/land4.png"" style=""width:200px;border:14px solid red;"">","null","","","","","",""
"","image-keyboard-response","246","60882","0.0-366.0","3M68NM076ITUSWNPUH3EIP0PL4M6RQ","A1HQZBNZEQ4TOK","39WSF6KUV27TMEQUH506BZR9N6KEO1","","204.40000009536743","img/land4.png","75","208.40000009536743","75","1","false","",""
"","html-keyboard-response","247","61188","0.0-367.0","3M68NM076ITUSWNPUH3EIP0PL4M6RQ","A1HQZBNZEQ4TOK","39WSF6KUV27TMEQUH506BZR9N6KEO1","","null","<img src=""img/land4.png"" style=""width:200px; border:14px solid green;"">","null","","","","","",""
"","image-keyboard-response","248","61257","0.0-369.0","3M68NM076ITUSWNPUH3EIP0PL4M6RQ","A1HQZBNZEQ4TOK","39WSF6KUV27TMEQUH506BZR9N6KEO1","","63.19999980926514","img/land2.png","75","67.19999980926514","75","1","false","",""
"","html-keyboard-response","249","61563","0.0-370.0","3M68NM076ITUSWNPUH3EIP0PL4M6RQ","A1HQZBNZEQ4TOK","39WSF6KUV27TMEQUH506BZR9N6KEO1","","null","<img src=""img/land2.png"" style=""width:200px; border:14px solid green;"">","null","","","","","",""
"","image-keyboard-response","250","61664","0.0-372.0","3M68NM076ITUSWNPUH3EIP0PL4M6RQ","A1HQZBNZEQ4TOK","39WSF6KUV27TMEQUH506BZR9N6KEO1","","96.7000002861023","img/land4.png","75","100.40000009536743","75","0","false","",""
"","html-keyboard-response","251","61980","0.0-373.0","3M68NM076ITUSWNPUH3EIP0PL4M6RQ","A1HQZBNZEQ4TOK","39WSF6KUV27TMEQUH506BZR9N6KEO1","","null","<img src=""img/land4.png"" style=""width:200px;border:14px solid red;"">","null","","","","","",""
"","image-keyboard-response","252","61984","0.0-375.0","3M68NM076ITUSWNPUH3EIP0PL4M6RQ","A1HQZBNZEQ4TOK","39WSF6KUV27TMEQUH506BZR9N6KEO1","","0.40000009536743164","img/land2.png","74","3.5","74","0","false","",""
"","html-keyboard-response","253","62290","0.0-376.0","3M68NM076ITUSWNPUH3EIP0PL4M6RQ","A1HQZBNZEQ4TOK","39WSF6KUV27TMEQUH506BZR9N6KEO1","","null","<img src=""img/land2.png"" style=""width:200px;border:14px solid red;"">","null","","","","","",""
"","image-keyboard-response","254","62320","0.0-378.0","3M68NM076ITUSWNPUH3EIP0PL4M6RQ","A1HQZBNZEQ4TOK","39WSF6KUV27TMEQUH506BZR9N6KEO1","","25.90000009536743","img/land5.png","75","29.299999713897705","75","0","false","",""
"","html-keyboard-response","255","62628","0.0-379.0","3M68NM076ITUSWNPUH3EIP0PL4M6RQ","A1HQZBNZEQ4TOK","39WSF6KUV27TMEQUH506BZR9N6KEO1","","null","<img src=""img/land5.png"" style=""width:200px;border:14px solid red;"">","null","","","","","",""
"","image-keyboard-response","256","62635","0.0-381.0","3M68NM076ITUSWNPUH3EIP0PL4M6RQ","A1HQZBNZEQ4TOK","39WSF6KUV27TMEQUH506BZR9N6KEO1","","1.299999713897705","img/land2.png","74","4.5","74","0","false","",""
"","html-keyboard-response","257","62942","0.0-382.0","3M68NM076ITUSWNPUH3EIP0PL4M6RQ","A1HQZBNZEQ4TOK","39WSF6KUV27TMEQUH506BZR9N6KEO1","","null","<img src=""img/land2.png"" style=""width:200px;border:14px solid red;"">","null","","","","","",""
"","image-keyboard-response","258","63028","0.0-384.0","3M68NM076ITUSWNPUH3EIP0PL4M6RQ","A1HQZBNZEQ4TOK","39WSF6KUV27TMEQUH506BZR9N6KEO1","","81.09999990463257","img/land2.png","75","85.19999980926514","75","1","false","",""
"","html-keyboard-response","259","63338","0.0-385.0","3M68NM076ITUSWNPUH3EIP0PL4M6RQ","A1HQZBNZEQ4TOK","39WSF6KUV27TMEQUH506BZR9N6KEO1","","null","<img src=""img/land2.png"" style=""width:200px; border:14px solid green;"">","null","","","","","",""
"","image-keyboard-response","260","63487","0.0-387.0","3M68NM076ITUSWNPUH3EIP0PL4M6RQ","A1HQZBNZEQ4TOK","39WSF6KUV27TMEQUH506BZR9N6KEO1","","144","img/land5.png","76","147.90000009536743","76","1","false","",""
"","html-keyboard-response","261","63793","0.0-388.0","3M68NM076ITUSWNPUH3EIP0PL4M6RQ","A1HQZBNZEQ4TOK","39WSF6KUV27TMEQUH506BZR9N6KEO1","","null","<img src=""img/land5.png"" style=""width:200px; border:14px solid green;"">","null","","","","","",""
"","image-keyboard-response","262","63889","0.0-390.0","3M68NM076ITUSWNPUH3EIP0PL4M6RQ","A1HQZBNZEQ4TOK","39WSF6KUV27TMEQUH506BZR9N6KEO1","","90.19999980926514","img/land5.png","76","94.59999990463257","76","0","false","",""
"","html-keyboard-response","263","64195","0.0-391.0","3M68NM076ITUSWNPUH3EIP0PL4M6RQ","A1HQZBNZEQ4TOK","39WSF6KUV27TMEQUH506BZR9N6KEO1","","null","<img src=""img/land5.png"" style=""width:200px;border:14px solid red;"">","null","","","","","",""
"","image-keyboard-response","264","64339","0.0-393.0","3M68NM076ITUSWNPUH3EIP0PL4M6RQ","A1HQZBNZEQ4TOK","39WSF6KUV27TMEQUH506BZR9N6KEO1","","138.90000009536743","img/land2.png","76","142.59999990463257","76","1","false","",""
"","html-keyboard-response","265","64645","0.0-394.0","3M68NM076ITUSWNPUH3EIP0PL4M6RQ","A1HQZBNZEQ4TOK","39WSF6KUV27TMEQUH506BZR9N6KEO1","","null","<img src=""img/land2.png"" style=""width:200px; border:14px solid green;"">","null","","","","","",""
"","image-keyboard-response","266","64665","0.0-396.0","3M68NM076ITUSWNPUH3EIP0PL4M6RQ","A1HQZBNZEQ4TOK","39WSF6KUV27TMEQUH506BZR9N6KEO1","","15.900000095367432","img/land4.png","74","18.59999990463257","74","0","false","",""
"","html-keyboard-response","267","64970","0.0-397.0","3M68NM076ITUSWNPUH3EIP0PL4M6RQ","A1HQZBNZEQ4TOK","39WSF6KUV27TMEQUH506BZR9N6KEO1","","null","<img src=""img/land4.png"" style=""width:200px;border:14px solid red;"">","null","","","","","",""
"","image-keyboard-response","268","65022","0.0-399.0","3M68NM076ITUSWNPUH3EIP0PL4M6RQ","A1HQZBNZEQ4TOK","39WSF6KUV27TMEQUH506BZR9N6KEO1","","46.59999990463257","img/land2.png","76","50.200000286102295","76","1","false","",""
"","html-keyboard-response","269","65328","0.0-400.0","3M68NM076ITUSWNPUH3EIP0PL4M6RQ","A1HQZBNZEQ4TOK","39WSF6KUV27TMEQUH506BZR9N6KEO1","","null","<img src=""img/land2.png"" style=""width:200px; border:14px solid green;"">","null","","","","","",""
"","image-keyboard-response","270","65480","0.0-402.0","3M68NM076ITUSWNPUH3EIP0PL4M6RQ","A1HQZBNZEQ4TOK","39WSF6KUV27TMEQUH506BZR9N6KEO1","","147.09999990463257","img/land4.png","75","150.59999990463257","75","0","false","",""
"","html-keyboard-response","271","65786","0.0-403.0","3M68NM076ITUSWNPUH3EIP0PL4M6RQ","A1HQZBNZEQ4TOK","39WSF6KUV27TMEQUH506BZR9N6KEO1","","null","<img src=""img/land4.png"" style=""width:200px;border:14px solid red;"">","null","","","","","",""
"","image-keyboard-response","272","65800","0.0-405.0","3M68NM076ITUSWNPUH3EIP0PL4M6RQ","A1HQZBNZEQ4TOK","39WSF6KUV27TMEQUH506BZR9N6KEO1","","9.200000286102295","img/land5.png","74","12.400000095367432","74","0","false","",""
"","html-keyboard-response","273","66106","0.0-406.0","3M68NM076ITUSWNPUH3EIP0PL4M6RQ","A1HQZBNZEQ4TOK","39WSF6KUV27TMEQUH506BZR9N6KEO1","","null","<img src=""img/land5.png"" style=""width:200px;border:14px solid red;"">","null","","","","","",""
"","image-keyboard-response","274","66171","0.0-408.0","3M68NM076ITUSWNPUH3EIP0PL4M6RQ","A1HQZBNZEQ4TOK","39WSF6KUV27TMEQUH506BZR9N6KEO1","","60.5","img/land5.png","76","64.2000002861023","76","0","false","",""
"","html-keyboard-response","275","66477","0.0-409.0","3M68NM076ITUSWNPUH3EIP0PL4M6RQ","A1HQZBNZEQ4TOK","39WSF6KUV27TMEQUH506BZR9N6KEO1","","null","<img src=""img/land5.png"" style=""width:200px;border:14px solid red;"">","null","","","","","",""
"","image-keyboard-response","276","66592","0.0-411.0","3M68NM076ITUSWNPUH3EIP0PL4M6RQ","A1HQZBNZEQ4TOK","39WSF6KUV27TMEQUH506BZR9N6KEO1","","110.30000019073486","img/land2.png","75","113.7999997138977","75","1","false","",""
"","html-keyboard-response","277","66898","0.0-412.0","3M68NM076ITUSWNPUH3EIP0PL4M6RQ","A1HQZBNZEQ4TOK","39WSF6KUV27TMEQUH506BZR9N6KEO1","","null","<img src=""img/land2.png"" style=""width:200px; border:14px solid green;"">","null","","","","","",""
"","image-keyboard-response","278","67002","0.0-414.0","3M68NM076ITUSWNPUH3EIP0PL4M6RQ","A1HQZBNZEQ4TOK","39WSF6KUV27TMEQUH506BZR9N6KEO1","","99.09999990463257","img/land5.png","75","102.90000009536743","75","0","false","",""
"","html-keyboard-response","279","67309","0.0-415.0","3M68NM076ITUSWNPUH3EIP0PL4M6RQ","A1HQZBNZEQ4TOK","39WSF6KUV27TMEQUH506BZR9N6KEO1","","null","<img src=""img/land5.png"" style=""width:200px;border:14px solid red;"">","null","","","","","",""
"","image-keyboard-response","280","67320","0.0-417.0","3M68NM076ITUSWNPUH3EIP0PL4M6RQ","A1HQZBNZEQ4TOK","39WSF6KUV27TMEQUH506BZR9N6KEO1","","6.599999904632568","img/land4.png","74","10.700000286102295","74","1","false","",""
"","html-keyboard-response","281","67626","0.0-418.0","3M68NM076ITUSWNPUH3EIP0PL4M6RQ","A1HQZBNZEQ4TOK","39WSF6KUV27TMEQUH506BZR9N6KEO1","","null","<img src=""img/land4.png"" style=""width:200px; border:14px solid green;"">","null","","","","","",""
"","image-keyboard-response","282","67684","0.0-420.0","3M68NM076ITUSWNPUH3EIP0PL4M6RQ","A1HQZBNZEQ4TOK","39WSF6KUV27TMEQUH506BZR9N6KEO1","","53.5","img/land2.png","75","57.10000038146973","75","1","false","",""
"","html-keyboard-response","283","67990","0.0-421.0","3M68NM076ITUSWNPUH3EIP0PL4M6RQ","A1HQZBNZEQ4TOK","39WSF6KUV27TMEQUH506BZR9N6KEO1","","null","<img src=""img/land2.png"" style=""width:200px; border:14px solid green;"">","null","","","","","",""
"","image-keyboard-response","284","68019","0.0-423.0","3M68NM076ITUSWNPUH3EIP0PL4M6RQ","A1HQZBNZEQ4TOK","39WSF6KUV27TMEQUH506BZR9N6KEO1","","23.699999809265137","img/land2.png","74","27","74","0","false","",""
"","html-keyboard-response","285","68327","0.0-424.0","3M68NM076ITUSWNPUH3EIP0PL4M6RQ","A1HQZBNZEQ4TOK","39WSF6KUV27TMEQUH506BZR9N6KEO1","","null","<img src=""img/land2.png"" style=""width:200px;border:14px solid red;"">","null","","","","","",""
"","image-keyboard-response","286","68407","0.0-426.0","3M68NM076ITUSWNPUH3EIP0PL4M6RQ","A1HQZBNZEQ4TOK","39WSF6KUV27TMEQUH506BZR9N6KEO1","","75.5","img/land5.png","75","79.10000038146973","75","0","false","",""
"","html-keyboard-response","287","68713","0.0-427.0","3M68NM076ITUSWNPUH3EIP0PL4M6RQ","A1HQZBNZEQ4TOK","39WSF6KUV27TMEQUH506BZR9N6KEO1","","null","<img src=""img/land5.png"" style=""width:200px;border:14px solid red;"">","null","","","","","",""
"","image-keyboard-response","288","68890","0.0-429.0","3M68NM076ITUSWNPUH3EIP0PL4M6RQ","A1HQZBNZEQ4TOK","39WSF6KUV27TMEQUH506BZR9N6KEO1","","170.69999980926514","img/land5.png","76","174.39999961853027","76","1","false","",""
"","html-keyboard-response","289","69195","0.0-430.0","3M68NM076ITUSWNPUH3EIP0PL4M6RQ","A1HQZBNZEQ4TOK","39WSF6KUV27TMEQUH506BZR9N6KEO1","","null","<img src=""img/land5.png"" style=""width:200px; border:14px solid green;"">","null","","","","","",""
"","image-keyboard-response","290","69307","0.0-432.0","3M68NM076ITUSWNPUH3EIP0PL4M6RQ","A1HQZBNZEQ4TOK","39WSF6KUV27TMEQUH506BZR9N6KEO1","","106.19999980926514","img/land5.png","75","109.90000009536743","75","0","false","",""
"","html-keyboard-response","291","69612","0.0-433.0","3M68NM076ITUSWNPUH3EIP0PL4M6RQ","A1HQZBNZEQ4TOK","39WSF6KUV27TMEQUH506BZR9N6KEO1","","null","<img src=""img/land5.png"" style=""width:200px;border:14px solid red;"">","null","","","","","",""
"","image-keyboard-response","292","69745","0.0-435.0","3M68NM076ITUSWNPUH3EIP0PL4M6RQ","A1HQZBNZEQ4TOK","39WSF6KUV27TMEQUH506BZR9N6KEO1","","127.80000019073486","img/land4.png","76","131.90000009536743","76","0","false","",""
"","html-keyboard-response","293","70051","0.0-436.0","3M68NM076ITUSWNPUH3EIP0PL4M6RQ","A1HQZBNZEQ4TOK","39WSF6KUV27TMEQUH506BZR9N6KEO1","","null","<img src=""img/land4.png"" style=""width:200px;border:14px solid red;"">","null","","","","","",""
"","image-keyboard-response","294","70186","0.0-438.0","3M68NM076ITUSWNPUH3EIP0PL4M6RQ","A1HQZBNZEQ4TOK","39WSF6KUV27TMEQUH506BZR9N6KEO1","","129.10000038146973","img/land2.png","75","133.2000002861023","75","1","false","",""
"","html-keyboard-response","295","70491","0.0-439.0","3M68NM076ITUSWNPUH3EIP0PL4M6RQ","A1HQZBNZEQ4TOK","39WSF6KUV27TMEQUH506BZR9N6KEO1","","null","<img src=""img/land2.png"" style=""width:200px; border:14px solid green;"">","null","","","","","",""
"","image-keyboard-response","296","70575","0.0-441.0","3M68NM076ITUSWNPUH3EIP0PL4M6RQ","A1HQZBNZEQ4TOK","39WSF6KUV27TMEQUH506BZR9N6KEO1","","78.60000038146973","img/land5.png","75","83","75","0","false","",""
"","html-keyboard-response","297","70881","0.0-442.0","3M68NM076ITUSWNPUH3EIP0PL4M6RQ","A1HQZBNZEQ4TOK","39WSF6KUV27TMEQUH506BZR9N6KEO1","","null","<img src=""img/land5.png"" style=""width:200px;border:14px solid red;"">","null","","","","","",""
"","image-keyboard-response","298","70979","0.0-444.0","3M68NM076ITUSWNPUH3EIP0PL4M6RQ","A1HQZBNZEQ4TOK","39WSF6KUV27TMEQUH506BZR9N6KEO1","","93.09999990463257","img/land2.png","74","96.30000019073486","74","0","false","",""
"","html-keyboard-response","299","71288","0.0-445.0","3M68NM076ITUSWNPUH3EIP0PL4M6RQ","A1HQZBNZEQ4TOK","39WSF6KUV27TMEQUH506BZR9N6KEO1","","null","<img src=""img/land2.png"" style=""width:200px;border:14px solid red;"">","null","","","","","",""
"","image-keyboard-response","300","71407","0.0-447.0","3M68NM076ITUSWNPUH3EIP0PL4M6RQ","A1HQZBNZEQ4TOK","39WSF6KUV27TMEQUH506BZR9N6KEO1","","113.19999980926514","img/land5.png","75","117","75","0","false","",""
"","html-keyboard-response","301","71711","0.0-448.0","3M68NM076ITUSWNPUH3EIP0PL4M6RQ","A1HQZBNZEQ4TOK","39WSF6KUV27TMEQUH506BZR9N6KEO1","","null","<img src=""img/land5.png"" style=""width:200px;border:14px solid red;"">","null","","","","","",""
"","image-keyboard-response","302","71808","0.0-450.0","3M68NM076ITUSWNPUH3EIP0PL4M6RQ","A1HQZBNZEQ4TOK","39WSF6KUV27TMEQUH506BZR9N6KEO1","","91","img/land5.png","75","95","75","0","false","",""
"","html-keyboard-response","303","72139","0.0-451.0","3M68NM076ITUSWNPUH3EIP0PL4M6RQ","A1HQZBNZEQ4TOK","39WSF6KUV27TMEQUH506BZR9N6KEO1","","null","<img src=""img/land5.png"" style=""width:200px;border:14px solid red;"">","null","","","","","",""
"","image-keyboard-response","304","72251","0.0-453.0","3M68NM076ITUSWNPUH3EIP0PL4M6RQ","A1HQZBNZEQ4TOK","39WSF6KUV27TMEQUH506BZR9N6KEO1","","107.5","img/land5.png","74","110.40000009536743","74","1","false","",""
"","html-keyboard-response","305","72556","0.0-454.0","3M68NM076ITUSWNPUH3EIP0PL4M6RQ","A1HQZBNZEQ4TOK","39WSF6KUV27TMEQUH506BZR9N6KEO1","","null","<img src=""img/land5.png"" style=""width:200px; border:14px solid green;"">","null","","","","","",""
"","image-keyboard-response","306","72629","0.0-456.0","3M68NM076ITUSWNPUH3EIP0PL4M6RQ","A1HQZBNZEQ4TOK","39WSF6KUV27TMEQUH506BZR9N6KEO1","","68.09999990463257","img/land4.png","75","71.7000002861023","75","1","false","",""
"","html-keyboard-response","307","72935","0.0-457.0","3M68NM076ITUSWNPUH3EIP0PL4M6RQ","A1HQZBNZEQ4TOK","39WSF6KUV27TMEQUH506BZR9N6KEO1","","null","<img src=""img/land4.png"" style=""width:200px; border:14px solid green;"">","null","","","","","",""
"","image-keyboard-response","308","73018","0.0-459.0","3M68NM076ITUSWNPUH3EIP0PL4M6RQ","A1HQZBNZEQ4TOK","39WSF6KUV27TMEQUH506BZR9N6KEO1","","77.7999997138977","img/land2.png","75","81.7000002861023","75","1","false","",""
"","html-keyboard-response","309","73328","0.0-460.0","3M68NM076ITUSWNPUH3EIP0PL4M6RQ","A1HQZBNZEQ4TOK","39WSF6KUV27TMEQUH506BZR9N6KEO1","","null","<img src=""img/land2.png"" style=""width:200px; border:14px solid green;"">","null","","","","","",""
"","image-keyboard-response","310","73447","0.0-462.0","3M68NM076ITUSWNPUH3EIP0PL4M6RQ","A1HQZBNZEQ4TOK","39WSF6KUV27TMEQUH506BZR9N6KEO1","","113.30000019073486","img/land4.png","74","117.19999980926514","74","0","false","",""
"","html-keyboard-response","311","73753","0.0-463.0","3M68NM076ITUSWNPUH3EIP0PL4M6RQ","A1HQZBNZEQ4TOK","39WSF6KUV27TMEQUH506BZR9N6KEO1","","null","<img src=""img/land4.png"" style=""width:200px;border:14px solid red;"">","null","","","","","",""
"","image-keyboard-response","312","73808","0.0-465.0","3M68NM076ITUSWNPUH3EIP0PL4M6RQ","A1HQZBNZEQ4TOK","39WSF6KUV27TMEQUH506BZR9N6KEO1","","49.799999713897705","img/land4.png","76","53.700000286102295","76","0","false","",""
"","html-keyboard-response","313","74115","0.0-466.0","3M68NM076ITUSWNPUH3EIP0PL4M6RQ","A1HQZBNZEQ4TOK","39WSF6KUV27TMEQUH506BZR9N6KEO1","","null","<img src=""img/land4.png"" style=""width:200px;border:14px solid red;"">","null","","","","","",""
"","image-keyboard-response","314","74277","0.0-468.0","3M68NM076ITUSWNPUH3EIP0PL4M6RQ","A1HQZBNZEQ4TOK","39WSF6KUV27TMEQUH506BZR9N6KEO1","","156.69999980926514","img/land4.png","74","161","74","0","false","",""
"","html-keyboard-response","315","74583","0.0-469.0","3M68NM076ITUSWNPUH3EIP0PL4M6RQ","A1HQZBNZEQ4TOK","39WSF6KUV27TMEQUH506BZR9N6KEO1","","null","<img src=""img/land4.png"" style=""width:200px;border:14px solid red;"">","null","","","","","",""
"","image-keyboard-response","316","74640","0.0-471.0","3M68NM076ITUSWNPUH3EIP0PL4M6RQ","A1HQZBNZEQ4TOK","39WSF6KUV27TMEQUH506BZR9N6KEO1","","52.30000019073486","img/land2.png","75","55.799999713897705","75","1","false","",""
"","html-keyboard-response","317","74951","0.0-472.0","3M68NM076ITUSWNPUH3EIP0PL4M6RQ","A1HQZBNZEQ4TOK","39WSF6KUV27TMEQUH506BZR9N6KEO1","","null","<img src=""img/land2.png"" style=""width:200px; border:14px solid green;"">","null","","","","","",""
"","image-keyboard-response","318","75074","0.0-474.0","3M68NM076ITUSWNPUH3EIP0PL4M6RQ","A1HQZBNZEQ4TOK","39WSF6KUV27TMEQUH506BZR9N6KEO1","","118.40000009536743","img/land4.png","75","122.5","75","1","false","",""
"","html-keyboard-response","319","75381","0.0-475.0","3M68NM076ITUSWNPUH3EIP0PL4M6RQ","A1HQZBNZEQ4TOK","39WSF6KUV27TMEQUH506BZR9N6KEO1","","null","<img src=""img/land4.png"" style=""width:200px; border:14px solid green;"">","null","","","","","",""
"","image-keyboard-response","320","75430","0.0-477.0","3M68NM076ITUSWNPUH3EIP0PL4M6RQ","A1HQZBNZEQ4TOK","39WSF6KUV27TMEQUH506BZR9N6KEO1","","43.799999713897705","img/land5.png","74","47.19999980926514","74","0","false","",""
"","html-keyboard-response","321","75735","0.0-478.0","3M68NM076ITUSWNPUH3EIP0PL4M6RQ","A1HQZBNZEQ4TOK","39WSF6KUV27TMEQUH506BZR9N6KEO1","","null","<img src=""img/land5.png"" style=""width:200px;border:14px solid red;"">","null","","","","","",""
"","image-keyboard-response","322","76013","0.0-480.0","3M68NM076ITUSWNPUH3EIP0PL4M6RQ","A1HQZBNZEQ4TOK","39WSF6KUV27TMEQUH506BZR9N6KEO1","","269.6000003814697","img/land2.png","74","274.2000002861023","74","0","false","",""
"","html-keyboard-response","323","76318","0.0-481.0","3M68NM076ITUSWNPUH3EIP0PL4M6RQ","A1HQZBNZEQ4TOK","39WSF6KUV27TMEQUH506BZR9N6KEO1","","null","<img src=""img/land2.png"" style=""width:200px;border:14px solid red;"">","null","","","","","",""
"","image-keyboard-response","324","76382","0.0-483.0","3M68NM076ITUSWNPUH3EIP0PL4M6RQ","A1HQZBNZEQ4TOK","39WSF6KUV27TMEQUH506BZR9N6KEO1","","58.299999713897705","img/land4.png","74","62.09999990463257","74","0","false","",""
"","html-keyboard-response","325","76689","0.0-484.0","3M68NM076ITUSWNPUH3EIP0PL4M6RQ","A1HQZBNZEQ4TOK","39WSF6KUV27TMEQUH506BZR9N6KEO1","","null","<img src=""img/land4.png"" style=""width:200px;border:14px solid red;"">","null","","","","","",""
"","image-keyboard-response","326","76876","0.0-486.0","3M68NM076ITUSWNPUH3EIP0PL4M6RQ","A1HQZBNZEQ4TOK","39WSF6KUV27TMEQUH506BZR9N6KEO1","","180.59999990463257","img/land5.png","74","184.90000009536743","74","1","false","",""
"","html-keyboard-response","327","77182","0.0-487.0","3M68NM076ITUSWNPUH3EIP0PL4M6RQ","A1HQZBNZEQ4TOK","39WSF6KUV27TMEQUH506BZR9N6KEO1","","null","<img src=""img/land5.png"" style=""width:200px; border:14px solid green;"">","null","","","","","",""
"","image-keyboard-response","328","77984","0.0-489.0","3M68NM076ITUSWNPUH3EIP0PL4M6RQ","A1HQZBNZEQ4TOK","39WSF6KUV27TMEQUH506BZR9N6KEO1","","797.2000002861023","img/land2.png","75","801.5","75","1","false","",""
"","html-keyboard-response","329","78291","0.0-490.0","3M68NM076ITUSWNPUH3EIP0PL4M6RQ","A1HQZBNZEQ4TOK","39WSF6KUV27TMEQUH506BZR9N6KEO1","","null","<img src=""img/land2.png"" style=""width:200px; border:14px solid green;"">","null","","","","","",""
"","image-keyboard-response","330","78341","0.0-492.0","3M68NM076ITUSWNPUH3EIP0PL4M6RQ","A1HQZBNZEQ4TOK","39WSF6KUV27TMEQUH506BZR9N6KEO1","","44.59999990463257","img/land5.png","74","48.19999980926514","74","0","false","",""
"","html-keyboard-response","331","78648","0.0-493.0","3M68NM076ITUSWNPUH3EIP0PL4M6RQ","A1HQZBNZEQ4TOK","39WSF6KUV27TMEQUH506BZR9N6KEO1","","null","<img src=""img/land5.png"" style=""width:200px;border:14px solid red;"">","null","","","","","",""
"","image-keyboard-response","332","78653","0.0-495.0","3M68NM076ITUSWNPUH3EIP0PL4M6RQ","A1HQZBNZEQ4TOK","39WSF6KUV27TMEQUH506BZR9N6KEO1","","0.2999997138977051","img/land2.png","76","3.4000000953674316","76","1","false","",""
"","html-keyboard-response","333","78963","0.0-496.0","3M68NM076ITUSWNPUH3EIP0PL4M6RQ","A1HQZBNZEQ4TOK","39WSF6KUV27TMEQUH506BZR9N6KEO1","","null","<img src=""img/land2.png"" style=""width:200px; border:14px solid green;"">","null","","","","","",""
"","image-keyboard-response","334","79099","0.0-498.0","3M68NM076ITUSWNPUH3EIP0PL4M6RQ","A1HQZBNZEQ4TOK","39WSF6KUV27TMEQUH506BZR9N6KEO1","","130.2000002861023","img/land5.png","75","133.90000009536743","75","0","false","",""
"","html-keyboard-response","335","79404","0.0-499.0","3M68NM076ITUSWNPUH3EIP0PL4M6RQ","A1HQZBNZEQ4TOK","39WSF6KUV27TMEQUH506BZR9N6KEO1","","null","<img src=""img/land5.png"" style=""width:200px;border:14px solid red;"">","null","","","","","",""
"","image-keyboard-response","336","79417","0.0-501.0","3M68NM076ITUSWNPUH3EIP0PL4M6RQ","A1HQZBNZEQ4TOK","39WSF6KUV27TMEQUH506BZR9N6KEO1","","7.900000095367432","img/land2.png","74","11.599999904632568","74","0","false","",""
"","html-keyboard-response","337","79722","0.0-502.0","3M68NM076ITUSWNPUH3EIP0PL4M6RQ","A1HQZBNZEQ4TOK","39WSF6KUV27TMEQUH506BZR9N6KEO1","","null","<img src=""img/land2.png"" style=""width:200px;border:14px solid red;"">","null","","","","","",""
"","image-keyboard-response","338","79743","0.0-504.0","3M68NM076ITUSWNPUH3EIP0PL4M6RQ","A1HQZBNZEQ4TOK","39WSF6KUV27TMEQUH506BZR9N6KEO1","","15.800000190734863","img/land2.png","75","19.199999809265137","75","0","false","",""
"","html-keyboard-response","339","80049","0.0-505.0","3M68NM076ITUSWNPUH3EIP0PL4M6RQ","A1HQZBNZEQ4TOK","39WSF6KUV27TMEQUH506BZR9N6KEO1","","null","<img src=""img/land2.png"" style=""width:200px;border:14px solid red;"">","null","","","","","",""
"","image-keyboard-response","340","80132","0.0-507.0","3M68NM076ITUSWNPUH3EIP0PL4M6RQ","A1HQZBNZEQ4TOK","39WSF6KUV27TMEQUH506BZR9N6KEO1","","79.5","img/land4.png","75","82.30000019073486","75","0","false","",""
"","html-keyboard-response","341","80442","0.0-508.0","3M68NM076ITUSWNPUH3EIP0PL4M6RQ","A1HQZBNZEQ4TOK","39WSF6KUV27TMEQUH506BZR9N6KEO1","","null","<img src=""img/land4.png"" style=""width:200px;border:14px solid red;"">","null","","","","","",""
"","image-keyboard-response","342","80453","0.0-510.0","3M68NM076ITUSWNPUH3EIP0PL4M6RQ","A1HQZBNZEQ4TOK","39WSF6KUV27TMEQUH506BZR9N6KEO1","","2.0999999046325684","img/land5.png","75","5.300000190734863","75","0","false","",""
"","html-keyboard-response","343","80762","0.0-511.0","3M68NM076ITUSWNPUH3EIP0PL4M6RQ","A1HQZBNZEQ4TOK","39WSF6KUV27TMEQUH506BZR9N6KEO1","","null","<img src=""img/land5.png"" style=""width:200px;border:14px solid red;"">","null","","","","","",""
"","image-keyboard-response","344","81771","0.0-513.0","3M68NM076ITUSWNPUH3EIP0PL4M6RQ","A1HQZBNZEQ4TOK","39WSF6KUV27TMEQUH506BZR9N6KEO1","","","img/land2.png","","1006.9000000953674","-1","0","true","",""
"","html-keyboard-response","345","82078","0.0-514.0","3M68NM076ITUSWNPUH3EIP0PL4M6RQ","A1HQZBNZEQ4TOK","39WSF6KUV27TMEQUH506BZR9N6KEO1","","null","<img src=""img/land2.png"" style=""width:200px;border:14px solid red;"">","null","","","","","",""
"","html-keyboard-response","346","83358","0.0-515.0-0.0","3M68NM076ITUSWNPUH3EIP0PL4M6RQ","A1HQZBNZEQ4TOK","39WSF6KUV27TMEQUH506BZR9N6KEO1","","","","","","","","","",""
"","image-keyboard-response","347","83924","0.0-516.0","3M68NM076ITUSWNPUH3EIP0PL4M6RQ","A1HQZBNZEQ4TOK","39WSF6KUV27TMEQUH506BZR9N6KEO1","","561.7999997138977","img/land2.png","75","565.4000000953674","75","1","false","",""
"","html-keyboard-response","348","84230","0.0-517.0","3M68NM076ITUSWNPUH3EIP0PL4M6RQ","A1HQZBNZEQ4TOK","39WSF6KUV27TMEQUH506BZR9N6KEO1","","null","<img src=""img/land2.png"" style=""width:200px; border:14px solid green;"">","null","","","","","",""
"","image-keyboard-response","349","84293","0.0-519.0","3M68NM076ITUSWNPUH3EIP0PL4M6RQ","A1HQZBNZEQ4TOK","39WSF6KUV27TMEQUH506BZR9N6KEO1","","58.5","img/land5.png","74","62.09999990463257","74","1","false","",""
"","html-keyboard-response","350","84599","0.0-520.0","3M68NM076ITUSWNPUH3EIP0PL4M6RQ","A1HQZBNZEQ4TOK","39WSF6KUV27TMEQUH506BZR9N6KEO1","","null","<img src=""img/land5.png"" style=""width:200px; border:14px solid green;"">","null","","","","","",""
"","image-keyboard-response","351","84675","0.0-522.0","3M68NM076ITUSWNPUH3EIP0PL4M6RQ","A1HQZBNZEQ4TOK","39WSF6KUV27TMEQUH506BZR9N6KEO1","","72.19999980926514","img/land2.png","74","74.90000009536743","74","0","false","",""
"","html-keyboard-response","352","84981","0.0-523.0","3M68NM076ITUSWNPUH3EIP0PL4M6RQ","A1HQZBNZEQ4TOK","39WSF6KUV27TMEQUH506BZR9N6KEO1","","null","<img src=""img/land2.png"" style=""width:200px;border:14px solid red;"">","null","","","","","",""
"","image-keyboard-response","353","85035","0.0-525.0","3M68NM076ITUSWNPUH3EIP0PL4M6RQ","A1HQZBNZEQ4TOK","39WSF6KUV27TMEQUH506BZR9N6KEO1","","48.30000019073486","img/land2.png","74","52","74","0","false","",""
"","html-keyboard-response","354","85341","0.0-526.0","3M68NM076ITUSWNPUH3EIP0PL4M6RQ","A1HQZBNZEQ4TOK","39WSF6KUV27TMEQUH506BZR9N6KEO1","","null","<img src=""img/land2.png"" style=""width:200px;border:14px solid red;"">","null","","","","","",""
"","image-keyboard-response","355","85427","0.0-528.0","3M68NM076ITUSWNPUH3EIP0PL4M6RQ","A1HQZBNZEQ4TOK","39WSF6KUV27TMEQUH506BZR9N6KEO1","","81.40000009536743","img/land4.png","74","85","74","1","false","",""
"","html-keyboard-response","356","85733","0.0-529.0","3M68NM076ITUSWNPUH3EIP0PL4M6RQ","A1HQZBNZEQ4TOK","39WSF6KUV27TMEQUH506BZR9N6KEO1","","null","<img src=""img/land4.png"" style=""width:200px; border:14px solid green;"">","null","","","","","",""
"","image-keyboard-response","357","85750","0.0-531.0","3M68NM076ITUSWNPUH3EIP0PL4M6RQ","A1HQZBNZEQ4TOK","39WSF6KUV27TMEQUH506BZR9N6KEO1","","12.5","img/land5.png","74","16.199999809265137","74","0","false","",""
"","html-keyboard-response","358","86056","0.0-532.0","3M68NM076ITUSWNPUH3EIP0PL4M6RQ","A1HQZBNZEQ4TOK","39WSF6KUV27TMEQUH506BZR9N6KEO1","","null","<img src=""img/land5.png"" style=""width:200px;border:14px solid red;"">","null","","","","","",""
"","image-keyboard-response","359","86111","0.0-534.0","3M68NM076ITUSWNPUH3EIP0PL4M6RQ","A1HQZBNZEQ4TOK","39WSF6KUV27TMEQUH506BZR9N6KEO1","","48.5","img/land2.png","74","53","74","0","false","",""
"","html-keyboard-response","360","86417","0.0-535.0","3M68NM076ITUSWNPUH3EIP0PL4M6RQ","A1HQZBNZEQ4TOK","39WSF6KUV27TMEQUH506BZR9N6KEO1","","null","<img src=""img/land2.png"" style=""width:200px;border:14px solid red;"">","null","","","","","",""
"","image-keyboard-response","361","86505","0.0-537.0","3M68NM076ITUSWNPUH3EIP0PL4M6RQ","A1HQZBNZEQ4TOK","39WSF6KUV27TMEQUH506BZR9N6KEO1","","82.69999980926514","img/land4.png","75","86.7999997138977","75","1","false","",""
"","html-keyboard-response","362","86811","0.0-538.0","3M68NM076ITUSWNPUH3EIP0PL4M6RQ","A1HQZBNZEQ4TOK","39WSF6KUV27TMEQUH506BZR9N6KEO1","","null","<img src=""img/land4.png"" style=""width:200px; border:14px solid green;"">","null","","","","","",""
"","image-keyboard-response","363","86885","0.0-540.0","3M68NM076ITUSWNPUH3EIP0PL4M6RQ","A1HQZBNZEQ4TOK","39WSF6KUV27TMEQUH506BZR9N6KEO1","","67.7000002861023","img/land2.png","74","72.10000038146973","74","0","false","",""
"","html-keyboard-response","364","87193","0.0-541.0","3M68NM076ITUSWNPUH3EIP0PL4M6RQ","A1HQZBNZEQ4TOK","39WSF6KUV27TMEQUH506BZR9N6KEO1","","null","<img src=""img/land2.png"" style=""width:200px;border:14px solid red;"">","null","","","","","",""
"","html-keyboard-response","365","90909","0.0-543.0","3M68NM076ITUSWNPUH3EIP0PL4M6RQ","A1HQZBNZEQ4TOK","39WSF6KUV27TMEQUH506BZR9N6KEO1","","","","","","","","","",""
"","image-keyboard-response","366","91618","0.0-544.0","3M68NM076ITUSWNPUH3EIP0PL4M6RQ","A1HQZBNZEQ4TOK","39WSF6KUV27TMEQUH506BZR9N6KEO1","","706.0999999046326","img/land7.png","76","709.2999997138977","76","0","false","",""
"","html-keyboard-response","367","91925","0.0-545.0","3M68NM076ITUSWNPUH3EIP0PL4M6RQ","A1HQZBNZEQ4TOK","39WSF6KUV27TMEQUH506BZR9N6KEO1","","null","<img src=""img/land7.png"" style=""width:200px;border:14px solid red;"">","null","","","","","",""
"","image-keyboard-response","368","92038","0.0-547.0","3M68NM076ITUSWNPUH3EIP0PL4M6RQ","A1HQZBNZEQ4TOK","39WSF6KUV27TMEQUH506BZR9N6KEO1","","108","img/land7.png","76","111.7999997138977","76","0","false","",""
"","html-keyboard-response","369","92344","0.0-548.0","3M68NM076ITUSWNPUH3EIP0PL4M6RQ","A1HQZBNZEQ4TOK","39WSF6KUV27TMEQUH506BZR9N6KEO1","","null","<img src=""img/land7.png"" style=""width:200px;border:14px solid red;"">","null","","","","","",""
"","image-keyboard-response","370","92413","0.0-550.0","3M68NM076ITUSWNPUH3EIP0PL4M6RQ","A1HQZBNZEQ4TOK","39WSF6KUV27TMEQUH506BZR9N6KEO1","","63.80000019073486","img/land7.png","75","67.19999980926514","75","1","false","",""
"","html-keyboard-response","371","92720","0.0-551.0","3M68NM076ITUSWNPUH3EIP0PL4M6RQ","A1HQZBNZEQ4TOK","39WSF6KUV27TMEQUH506BZR9N6KEO1","","null","<img src=""img/land7.png"" style=""width:200px; border:14px solid green;"">","null","","","","","",""
"","image-keyboard-response","372","92739","0.0-553.0","3M68NM076ITUSWNPUH3EIP0PL4M6RQ","A1HQZBNZEQ4TOK","39WSF6KUV27TMEQUH506BZR9N6KEO1","","14.899999618530273","img/land7.png","75","18.300000190734863","75","1","false","",""
"","html-keyboard-response","373","93045","0.0-554.0","3M68NM076ITUSWNPUH3EIP0PL4M6RQ","A1HQZBNZEQ4TOK","39WSF6KUV27TMEQUH506BZR9N6KEO1","","null","<img src=""img/land7.png"" style=""width:200px; border:14px solid green;"">","null","","","","","",""
"","image-keyboard-response","374","93088","0.0-556.0","3M68NM076ITUSWNPUH3EIP0PL4M6RQ","A1HQZBNZEQ4TOK","39WSF6KUV27TMEQUH506BZR9N6KEO1","","38","img/land3.png","75","41.299999713897705","75","0","false","",""
"","html-keyboard-response","375","93394","0.0-557.0","3M68NM076ITUSWNPUH3EIP0PL4M6RQ","A1HQZBNZEQ4TOK","39WSF6KUV27TMEQUH506BZR9N6KEO1","","null","<img src=""img/land3.png"" style=""width:200px;border:14px solid red;"">","null","","","","","",""
"","image-keyboard-response","376","93442","0.0-559.0","3M68NM076ITUSWNPUH3EIP0PL4M6RQ","A1HQZBNZEQ4TOK","39WSF6KUV27TMEQUH506BZR9N6KEO1","","43.09999990463257","img/land3.png","75","46.700000286102295","75","0","false","",""
"","html-keyboard-response","377","93749","0.0-560.0","3M68NM076ITUSWNPUH3EIP0PL4M6RQ","A1HQZBNZEQ4TOK","39WSF6KUV27TMEQUH506BZR9N6KEO1","","null","<img src=""img/land3.png"" style=""width:200px;border:14px solid red;"">","null","","","","","",""
"","image-keyboard-response","378","93829","0.0-562.0","3M68NM076ITUSWNPUH3EIP0PL4M6RQ","A1HQZBNZEQ4TOK","39WSF6KUV27TMEQUH506BZR9N6KEO1","","75.40000009536743","img/land3.png","76","79.09999990463257","76","0","false","",""
"","html-keyboard-response","379","94135","0.0-563.0","3M68NM076ITUSWNPUH3EIP0PL4M6RQ","A1HQZBNZEQ4TOK","39WSF6KUV27TMEQUH506BZR9N6KEO1","","null","<img src=""img/land3.png"" style=""width:200px;border:14px solid red;"">","null","","","","","",""
"","image-keyboard-response","380","94207","0.0-565.0","3M68NM076ITUSWNPUH3EIP0PL4M6RQ","A1HQZBNZEQ4TOK","39WSF6KUV27TMEQUH506BZR9N6KEO1","","67","img/land7.png","76","71.09999990463257","76","0","false","",""
"","html-keyboard-response","381","94515","0.0-566.0","3M68NM076ITUSWNPUH3EIP0PL4M6RQ","A1HQZBNZEQ4TOK","39WSF6KUV27TMEQUH506BZR9N6KEO1","","null","<img src=""img/land7.png"" style=""width:200px;border:14px solid red;"">","null","","","","","",""
"","image-keyboard-response","382","94589","0.0-568.0","3M68NM076ITUSWNPUH3EIP0PL4M6RQ","A1HQZBNZEQ4TOK","39WSF6KUV27TMEQUH506BZR9N6KEO1","","69.09999990463257","img/land7.png","75","72.80000019073486","75","1","false","",""
"","html-keyboard-response","383","94895","0.0-569.0","3M68NM076ITUSWNPUH3EIP0PL4M6RQ","A1HQZBNZEQ4TOK","39WSF6KUV27TMEQUH506BZR9N6KEO1","","null","<img src=""img/land7.png"" style=""width:200px; border:14px solid green;"">","null","","","","","",""
"","image-keyboard-response","384","94914","0.0-571.0","3M68NM076ITUSWNPUH3EIP0PL4M6RQ","A1HQZBNZEQ4TOK","39WSF6KUV27TMEQUH506BZR9N6KEO1","","13.900000095367432","img/land8.png","74","17.699999809265137","74","1","false","",""
"","html-keyboard-response","385","95220","0.0-572.0","3M68NM076ITUSWNPUH3EIP0PL4M6RQ","A1HQZBNZEQ4TOK","39WSF6KUV27TMEQUH506BZR9N6KEO1","","null","<img src=""img/land8.png"" style=""width:200px; border:14px solid green;"">","null","","","","","",""
"","image-keyboard-response","386","95344","0.0-574.0","3M68NM076ITUSWNPUH3EIP0PL4M6RQ","A1HQZBNZEQ4TOK","39WSF6KUV27TMEQUH506BZR9N6KEO1","","118.90000009536743","img/land3.png","75","122.80000019073486","75","1","false","",""
"","html-keyboard-response","387","95649","0.0-575.0","3M68NM076ITUSWNPUH3EIP0PL4M6RQ","A1HQZBNZEQ4TOK","39WSF6KUV27TMEQUH506BZR9N6KEO1","","null","<img src=""img/land3.png"" style=""width:200px; border:14px solid green;"">","null","","","","","",""
"","image-keyboard-response","388","95743","0.0-577.0","3M68NM076ITUSWNPUH3EIP0PL4M6RQ","A1HQZBNZEQ4TOK","39WSF6KUV27TMEQUH506BZR9N6KEO1","","88","img/land3.png","76","92.09999990463257","76","1","false","",""
"","html-keyboard-response","389","96050","0.0-578.0","3M68NM076ITUSWNPUH3EIP0PL4M6RQ","A1HQZBNZEQ4TOK","39WSF6KUV27TMEQUH506BZR9N6KEO1","","null","<img src=""img/land3.png"" style=""width:200px; border:14px solid green;"">","null","","","","","",""
"","image-keyboard-response","390","96086","0.0-580.0","3M68NM076ITUSWNPUH3EIP0PL4M6RQ","A1HQZBNZEQ4TOK","39WSF6KUV27TMEQUH506BZR9N6KEO1","","29.09999990463257","img/land7.png","74","32.69999980926514","74","0","false","",""
"","html-keyboard-response","391","96391","0.0-581.0","3M68NM076ITUSWNPUH3EIP0PL4M6RQ","A1HQZBNZEQ4TOK","39WSF6KUV27TMEQUH506BZR9N6KEO1","","null","<img src=""img/land7.png"" style=""width:200px;border:14px solid red;"">","null","","","","","",""
"","image-keyboard-response","392","96413","0.0-583.0","3M68NM076ITUSWNPUH3EIP0PL4M6RQ","A1HQZBNZEQ4TOK","39WSF6KUV27TMEQUH506BZR9N6KEO1","","17.09999990463257","img/land7.png","76","20.5","76","0","false","",""
"","html-keyboard-response","393","96725","0.0-584.0","3M68NM076ITUSWNPUH3EIP0PL4M6RQ","A1HQZBNZEQ4TOK","39WSF6KUV27TMEQUH506BZR9N6KEO1","","null","<img src=""img/land7.png"" style=""width:200px;border:14px solid red;"">","null","","","","","",""
"","image-keyboard-response","394","96835","0.0-586.0","3M68NM076ITUSWNPUH3EIP0PL4M6RQ","A1HQZBNZEQ4TOK","39WSF6KUV27TMEQUH506BZR9N6KEO1","","103.5","img/land8.png","75","108.09999990463257","75","0","false","",""
"","html-keyboard-response","395","97146","0.0-587.0","3M68NM076ITUSWNPUH3EIP0PL4M6RQ","A1HQZBNZEQ4TOK","39WSF6KUV27TMEQUH506BZR9N6KEO1","","null","<img src=""img/land8.png"" style=""width:200px;border:14px solid red;"">","null","","","","","",""
"","image-keyboard-response","396","97221","0.0-589.0","3M68NM076ITUSWNPUH3EIP0PL4M6RQ","A1HQZBNZEQ4TOK","39WSF6KUV27TMEQUH506BZR9N6KEO1","","71.09999990463257","img/land7.png","75","73.7000002861023","75","1","false","",""
"","html-keyboard-response","397","97534","0.0-590.0","3M68NM076ITUSWNPUH3EIP0PL4M6RQ","A1HQZBNZEQ4TOK","39WSF6KUV27TMEQUH506BZR9N6KEO1","","null","<img src=""img/land7.png"" style=""width:200px; border:14px solid green;"">","null","","","","","",""
"","image-keyboard-response","398","97642","0.0-592.0","3M68NM076ITUSWNPUH3EIP0PL4M6RQ","A1HQZBNZEQ4TOK","39WSF6KUV27TMEQUH506BZR9N6KEO1","","99","img/land8.png","76","104.59999990463257","76","0","false","",""
"","html-keyboard-response","399","97949","0.0-593.0","3M68NM076ITUSWNPUH3EIP0PL4M6RQ","A1HQZBNZEQ4TOK","39WSF6KUV27TMEQUH506BZR9N6KEO1","","null","<img src=""img/land8.png"" style=""width:200px;border:14px solid red;"">","null","","","","","",""
"","image-keyboard-response","400","98074","0.0-595.0","3M68NM076ITUSWNPUH3EIP0PL4M6RQ","A1HQZBNZEQ4TOK","39WSF6KUV27TMEQUH506BZR9N6KEO1","","119.69999980926514","img/land8.png","75","123.59999990463257","75","1","false","",""
"","html-keyboard-response","401","98379","0.0-596.0","3M68NM076ITUSWNPUH3EIP0PL4M6RQ","A1HQZBNZEQ4TOK","39WSF6KUV27TMEQUH506BZR9N6KEO1","","null","<img src=""img/land8.png"" style=""width:200px; border:14px solid green;"">","null","","","","","",""
"","image-keyboard-response","402","98485","0.0-598.0","3M68NM076ITUSWNPUH3EIP0PL4M6RQ","A1HQZBNZEQ4TOK","39WSF6KUV27TMEQUH506BZR9N6KEO1","","100.59999990463257","img/land7.png","75","104.5","75","1","false","",""
"","html-keyboard-response","403","98796","0.0-599.0","3M68NM076ITUSWNPUH3EIP0PL4M6RQ","A1HQZBNZEQ4TOK","39WSF6KUV27TMEQUH506BZR9N6KEO1","","null","<img src=""img/land7.png"" style=""width:200px; border:14px solid green;"">","null","","","","","",""
"","image-keyboard-response","404","98851","0.0-601.0","3M68NM076ITUSWNPUH3EIP0PL4M6RQ","A1HQZBNZEQ4TOK","39WSF6KUV27TMEQUH506BZR9N6KEO1","","49.200000286102295","img/land7.png","75","53.19999980926514","75","1","false","",""
"","html-keyboard-response","405","99158","0.0-602.0","3M68NM076ITUSWNPUH3EIP0PL4M6RQ","A1HQZBNZEQ4TOK","39WSF6KUV27TMEQUH506BZR9N6KEO1","","null","<img src=""img/land7.png"" style=""width:200px; border:14px solid green;"">","null","","","","","",""
"","image-keyboard-response","406","99243","0.0-604.0","3M68NM076ITUSWNPUH3EIP0PL4M6RQ","A1HQZBNZEQ4TOK","39WSF6KUV27TMEQUH506BZR9N6KEO1","","79.5","img/land8.png","75","83.09999990463257","75","0","false","",""
"","html-keyboard-response","407","99549","0.0-605.0","3M68NM076ITUSWNPUH3EIP0PL4M6RQ","A1HQZBNZEQ4TOK","39WSF6KUV27TMEQUH506BZR9N6KEO1","","null","<img src=""img/land8.png"" style=""width:200px;border:14px solid red;"">","null","","","","","",""
"","image-keyboard-response","408","99679","0.0-607.0","3M68NM076ITUSWNPUH3EIP0PL4M6RQ","A1HQZBNZEQ4TOK","39WSF6KUV27TMEQUH506BZR9N6KEO1","","122.59999990463257","img/land8.png","74","128.09999990463257","74","1","false","",""
"","html-keyboard-response","409","99985","0.0-608.0","3M68NM076ITUSWNPUH3EIP0PL4M6RQ","A1HQZBNZEQ4TOK","39WSF6KUV27TMEQUH506BZR9N6KEO1","","null","<img src=""img/land8.png"" style=""width:200px; border:14px solid green;"">","null","","","","","",""
"","image-keyboard-response","410","100033","0.0-610.0","3M68NM076ITUSWNPUH3EIP0PL4M6RQ","A1HQZBNZEQ4TOK","39WSF6KUV27TMEQUH506BZR9N6KEO1","","42.5","img/land8.png","75","46.200000286102295","75","0","false","",""
"","html-keyboard-response","411","100353","0.0-611.0","3M68NM076ITUSWNPUH3EIP0PL4M6RQ","A1HQZBNZEQ4TOK","39WSF6KUV27TMEQUH506BZR9N6KEO1","","null","<img src=""img/land8.png"" style=""width:200px;border:14px solid red;"">","null","","","","","",""
"","image-keyboard-response","412","100431","0.0-613.0","3M68NM076ITUSWNPUH3EIP0PL4M6RQ","A1HQZBNZEQ4TOK","39WSF6KUV27TMEQUH506BZR9N6KEO1","","71.39999961853027","img/land7.png","76","75","76","0","false","",""
"","html-keyboard-response","413","100736","0.0-614.0","3M68NM076ITUSWNPUH3EIP0PL4M6RQ","A1HQZBNZEQ4TOK","39WSF6KUV27TMEQUH506BZR9N6KEO1","","null","<img src=""img/land7.png"" style=""width:200px;border:14px solid red;"">","null","","","","","",""
"","image-keyboard-response","414","100757","0.0-616.0","3M68NM076ITUSWNPUH3EIP0PL4M6RQ","A1HQZBNZEQ4TOK","39WSF6KUV27TMEQUH506BZR9N6KEO1","","14.700000286102295","img/land8.png","74","19","74","1","false","",""
"","html-keyboard-response","415","101065","0.0-617.0","3M68NM076ITUSWNPUH3EIP0PL4M6RQ","A1HQZBNZEQ4TOK","39WSF6KUV27TMEQUH506BZR9N6KEO1","","null","<img src=""img/land8.png"" style=""width:200px; border:14px solid green;"">","null","","","","","",""
"","image-keyboard-response","416","101148","0.0-619.0","3M68NM076ITUSWNPUH3EIP0PL4M6RQ","A1HQZBNZEQ4TOK","39WSF6KUV27TMEQUH506BZR9N6KEO1","","77.89999961853027","img/land8.png","74","81.80000019073486","74","1","false","",""
"","html-keyboard-response","417","101454","0.0-620.0","3M68NM076ITUSWNPUH3EIP0PL4M6RQ","A1HQZBNZEQ4TOK","39WSF6KUV27TMEQUH506BZR9N6KEO1","","null","<img src=""img/land8.png"" style=""width:200px; border:14px solid green;"">","null","","","","","",""
"","image-keyboard-response","418","101671","0.0-622.0","3M68NM076ITUSWNPUH3EIP0PL4M6RQ","A1HQZBNZEQ4TOK","39WSF6KUV27TMEQUH506BZR9N6KEO1","","210.39999961853027","img/land7.png","75","214.59999990463257","75","1","false","",""
"","html-keyboard-response","419","101976","0.0-623.0","3M68NM076ITUSWNPUH3EIP0PL4M6RQ","A1HQZBNZEQ4TOK","39WSF6KUV27TMEQUH506BZR9N6KEO1","","null","<img src=""img/land7.png"" style=""width:200px; border:14px solid green;"">","null","","","","","",""
"","image-keyboard-response","420","102089","0.0-625.0","3M68NM076ITUSWNPUH3EIP0PL4M6RQ","A1HQZBNZEQ4TOK","39WSF6KUV27TMEQUH506BZR9N6KEO1","","107.39999961853027","img/land8.png","76","111.5","76","0","false","",""
"","html-keyboard-response","421","102399","0.0-626.0","3M68NM076ITUSWNPUH3EIP0PL4M6RQ","A1HQZBNZEQ4TOK","39WSF6KUV27TMEQUH506BZR9N6KEO1","","null","<img src=""img/land8.png"" style=""width:200px;border:14px solid red;"">","null","","","","","",""
"","image-keyboard-response","422","102424","0.0-628.0","3M68NM076ITUSWNPUH3EIP0PL4M6RQ","A1HQZBNZEQ4TOK","39WSF6KUV27TMEQUH506BZR9N6KEO1","","19.399999618530273","img/land7.png","74","23.5","74","0","false","",""
"","html-keyboard-response","423","102729","0.0-629.0","3M68NM076ITUSWNPUH3EIP0PL4M6RQ","A1HQZBNZEQ4TOK","39WSF6KUV27TMEQUH506BZR9N6KEO1","","null","<img src=""img/land7.png"" style=""width:200px;border:14px solid red;"">","null","","","","","",""
"","image-keyboard-response","424","102816","0.0-631.0","3M68NM076ITUSWNPUH3EIP0PL4M6RQ","A1HQZBNZEQ4TOK","39WSF6KUV27TMEQUH506BZR9N6KEO1","","81.90000009536743","img/land3.png","75","86","75","0","false","",""
"","html-keyboard-response","425","103121","0.0-632.0","3M68NM076ITUSWNPUH3EIP0PL4M6RQ","A1HQZBNZEQ4TOK","39WSF6KUV27TMEQUH506BZR9N6KEO1","","null","<img src=""img/land3.png"" style=""width:200px;border:14px solid red;"">","null","","","","","",""
