"success","trial_type","trial_index","time_elapsed","internal_node_id","assignmentID","mturkID","hitID","view_history","rt","stimulus","key_press","reactionTime","a","r","s","cond","reward_cond","reward_cond_actual","reward_matrix_idx","responses","question_order"
"true","fullscreen","0","5915","0.0-0.0","3T111IHZ5FCHAFPNSO6Q2ZRREQ19RK","A1I0DV4B4MFQCL","3MVY4USGB69K0BK9K576GJZ2CVDSII","","","","","","","","","","","","","",""
"","instructions","1","24810","0.0-1.0","3T111IHZ5FCHAFPNSO6Q2ZRREQ19RK","A1I0DV4B4MFQCL","3MVY4USGB69K0BK9K576GJZ2CVDSII","[{""page_index"":0,""viewing_time"":2279},{""page_index"":1,""viewing_time"":1440},{""page_index"":2,""viewing_time"":2488},{""page_index"":3,""viewing_time"":4084},{""page_index"":4,""viewing_time"":3986},{""page_index"":5,""viewing_time"":2371},{""page_index"":6,""viewing_time"":2244}]","18892","","","","","","","","","","","",""
"","image-keyboard-response","2","25338","0.0-2.0","3T111IHZ5FCHAFPNSO6Q2ZRREQ19RK","A1I0DV4B4MFQCL","3MVY4USGB69K0BK9K576GJZ2CVDSII","","527","img/land3.png","74","528","1","1","3","2","1,0.7,0.7,0.7,1,0.7,0.7,0.7,1","1,0.7,0.7,0.7,1,0.7,0.7,0.7,1","","",""
"","html-keyboard-response","3","25643","0.0-3.0","3T111IHZ5FCHAFPNSO6Q2ZRREQ19RK","A1I0DV4B4MFQCL","3MVY4USGB69K0BK9K576GJZ2CVDSII","","null","<img src=""img/land3.png"" style=""width:200px; border:14px solid green;"">","null","","","","","","","","","",""
"","image-keyboard-response","4","26221","0.0-4.0","3T111IHZ5FCHAFPNSO6Q2ZRREQ19RK","A1I0DV4B4MFQCL","3MVY4USGB69K0BK9K576GJZ2CVDSII","","577","img/land2.png","75","578","2","1","2","2","1,0.7,0.7,0.7,1,0.7,0.7,0.7,1","1,0.7,0.7,0.7,1,0.7,0.7,0.7,1","","",""
"","html-keyboard-response","5","26524","0.0-5.0","3T111IHZ5FCHAFPNSO6Q2ZRREQ19RK","A1I0DV4B4MFQCL","3MVY4USGB69K0BK9K576GJZ2CVDSII","","null","<img src=""img/land2.png"" style=""width:200px; border:14px solid green;"">","null","","","","","","","","","",""
"","image-keyboard-response","6","27019","0.0-6.0","3T111IHZ5FCHAFPNSO6Q2ZRREQ19RK","A1I0DV4B4MFQCL","3MVY4USGB69K0BK9K576GJZ2CVDSII","","493","img/land2.png","75","494","2","1","2","2","1,0.7,0.7,0.7,1,0.7,0.7,0.7,1","1,0.7,0.7,0.7,1,0.7,0.7,0.7,1","","",""
"","html-keyboard-response","7","27322","0.0-7.0","3T111IHZ5FCHAFPNSO6Q2ZRREQ19RK","A1I0DV4B4MFQCL","3MVY4USGB69K0BK9K576GJZ2CVDSII","","null","<img src=""img/land2.png"" style=""width:200px; border:14px solid green;"">","null","","","","","","","","","",""
"","image-keyboard-response","8","27688","0.0-8.0","3T111IHZ5FCHAFPNSO6Q2ZRREQ19RK","A1I0DV4B4MFQCL","3MVY4USGB69K0BK9K576GJZ2CVDSII","","363","img/land2.png","75","364","2","1","2","2","1,0.7,0.7,0.7,1,0.7,0.7,0.7,1","1,0.7,0.7,0.7,1,0.7,0.7,0.7,1","","",""
"","html-keyboard-response","9","27991","0.0-9.0","3T111IHZ5FCHAFPNSO6Q2ZRREQ19RK","A1I0DV4B4MFQCL","3MVY4USGB69K0BK9K576GJZ2CVDSII","","null","<img src=""img/land2.png"" style=""width:200px; border:14px solid green;"">","null","","","","","","","","","",""
"","image-keyboard-response","10","28407","0.0-10.0","3T111IHZ5FCHAFPNSO6Q2ZRREQ19RK","A1I0DV4B4MFQCL","3MVY4USGB69K0BK9K576GJZ2CVDSII","","415","img/land3.png","74","416","1","1","3","2","1,0.7,0.7,0.7,1,0.7,0.7,0.7,1","1,0.7,0.7,0.7,1,0.7,0.7,0.7,1","","",""
"","html-keyboard-response","11","28711","0.0-11.0","3T111IHZ5FCHAFPNSO6Q2ZRREQ19RK","A1I0DV4B4MFQCL","3MVY4USGB69K0BK9K576GJZ2CVDSII","","null","<img src=""img/land3.png"" style=""width:200px; border:14px solid green;"">","null","","","","","","","","","",""
"","image-keyboard-response","12","29250","0.0-12.0","3T111IHZ5FCHAFPNSO6Q2ZRREQ19RK","A1I0DV4B4MFQCL","3MVY4USGB69K0BK9K576GJZ2CVDSII","","538","img/land2.png","75","539","2","1","2","2","1,0.7,0.7,0.7,1,0.7,0.7,0.7,1","1,0.7,0.7,0.7,1,0.7,0.7,0.7,1","","",""
"","html-keyboard-response","13","29555","0.0-13.0","3T111IHZ5FCHAFPNSO6Q2ZRREQ19RK","A1I0DV4B4MFQCL","3MVY4USGB69K0BK9K576GJZ2CVDSII","","null","<img src=""img/land2.png"" style=""width:200px; border:14px solid green;"">","null","","","","","","","","","",""
"","image-keyboard-response","14","30108","0.0-14.0","3T111IHZ5FCHAFPNSO6Q2ZRREQ19RK","A1I0DV4B4MFQCL","3MVY4USGB69K0BK9K576GJZ2CVDSII","","552","img/land1.png","76","552","3","1","1","2","1,0.7,0.7,0.7,1,0.7,0.7,0.7,1","1,0.7,0.7,0.7,1,0.7,0.7,0.7,1","","",""
"","html-keyboard-response","15","30412","0.0-15.0","3T111IHZ5FCHAFPNSO6Q2ZRREQ19RK","A1I0DV4B4MFQCL","3MVY4USGB69K0BK9K576GJZ2CVDSII","","null","<img src=""img/land1.png"" style=""width:200px; border:14px solid green;"">","null","","","","","","","","","",""
"","image-keyboard-response","16","30838","0.0-16.0","3T111IHZ5FCHAFPNSO6Q2ZRREQ19RK","A1I0DV4B4MFQCL","3MVY4USGB69K0BK9K576GJZ2CVDSII","","425","img/land1.png","76","426","3","0","1","2","1,0.7,0.7,0.7,1,0.7,0.7,0.7,1","1,0.7,0.7,0.7,1,0.7,0.7,0.7,1","","",""
"","html-keyboard-response","17","31144","0.0-17.0","3T111IHZ5FCHAFPNSO6Q2ZRREQ19RK","A1I0DV4B4MFQCL","3MVY4USGB69K0BK9K576GJZ2CVDSII","","null","<img src=""img/land1.png"" style=""width:200px;border:14px solid red;"">","null","","","","","","","","","",""
"","image-keyboard-response","18","31765","0.0-18.0","3T111IHZ5FCHAFPNSO6Q2ZRREQ19RK","A1I0DV4B4MFQCL","3MVY4USGB69K0BK9K576GJZ2CVDSII","","620","img/land2.png","74","620","1","0","2","2","1,0.7,0.7,0.7,1,0.7,0.7,0.7,1","1,0.7,0.7,0.7,1,0.7,0.7,0.7,1","","",""
"","html-keyboard-response","19","32066","0.0-19.0","3T111IHZ5FCHAFPNSO6Q2ZRREQ19RK","A1I0DV4B4MFQCL","3MVY4USGB69K0BK9K576GJZ2CVDSII","","null","<img src=""img/land2.png"" style=""width:200px;border:14px solid red;"">","null","","","","","","","","","",""
"","image-keyboard-response","20","32793","0.0-20.0","3T111IHZ5FCHAFPNSO6Q2ZRREQ19RK","A1I0DV4B4MFQCL","3MVY4USGB69K0BK9K576GJZ2CVDSII","","727","img/land3.png","74","727","1","0","3","2","1,0.7,0.7,0.7,1,0.7,0.7,0.7,1","1,0.7,0.7,0.7,1,0.7,0.7,0.7,1","","",""
"","html-keyboard-response","21","33095","0.0-21.0","3T111IHZ5FCHAFPNSO6Q2ZRREQ19RK","A1I0DV4B4MFQCL","3MVY4USGB69K0BK9K576GJZ2CVDSII","","null","<img src=""img/land3.png"" style=""width:200px;border:14px solid red;"">","null","","","","","","","","","",""
"","image-keyboard-response","22","33511","0.0-22.0","3T111IHZ5FCHAFPNSO6Q2ZRREQ19RK","A1I0DV4B4MFQCL","3MVY4USGB69K0BK9K576GJZ2CVDSII","","415","img/land2.png","75","417","2","1","2","2","1,0.7,0.7,0.7,1,0.7,0.7,0.7,1","1,0.7,0.7,0.7,1,0.7,0.7,0.7,1","","",""
"","html-keyboard-response","23","33817","0.0-23.0","3T111IHZ5FCHAFPNSO6Q2ZRREQ19RK","A1I0DV4B4MFQCL","3MVY4USGB69K0BK9K576GJZ2CVDSII","","null","<img src=""img/land2.png"" style=""width:200px; border:14px solid green;"">","null","","","","","","","","","",""
"","image-keyboard-response","24","34466","0.0-24.0","3T111IHZ5FCHAFPNSO6Q2ZRREQ19RK","A1I0DV4B4MFQCL","3MVY4USGB69K0BK9K576GJZ2CVDSII","","646","img/land1.png","76","648","3","1","1","2","1,0.7,0.7,0.7,1,0.7,0.7,0.7,1","1,0.7,0.7,0.7,1,0.7,0.7,0.7,1","","",""
"","html-keyboard-response","25","34794","0.0-25.0","3T111IHZ5FCHAFPNSO6Q2ZRREQ19RK","A1I0DV4B4MFQCL","3MVY4USGB69K0BK9K576GJZ2CVDSII","","null","<img src=""img/land1.png"" style=""width:200px; border:14px solid green;"">","null","","","","","","","","","",""
"","image-keyboard-response","26","35250","0.0-26.0","3T111IHZ5FCHAFPNSO6Q2ZRREQ19RK","A1I0DV4B4MFQCL","3MVY4USGB69K0BK9K576GJZ2CVDSII","","455","img/land3.png","74","456","1","1","3","2","1,0.7,0.7,0.7,1,0.7,0.7,0.7,1","1,0.7,0.7,0.7,1,0.7,0.7,0.7,1","","",""
"","html-keyboard-response","27","35551","0.0-27.0","3T111IHZ5FCHAFPNSO6Q2ZRREQ19RK","A1I0DV4B4MFQCL","3MVY4USGB69K0BK9K576GJZ2CVDSII","","null","<img src=""img/land3.png"" style=""width:200px; border:14px solid green;"">","null","","","","","","","","","",""
"","image-keyboard-response","28","36021","0.0-28.0","3T111IHZ5FCHAFPNSO6Q2ZRREQ19RK","A1I0DV4B4MFQCL","3MVY4USGB69K0BK9K576GJZ2CVDSII","","469","img/land2.png","75","469","2","1","2","2","1,0.7,0.7,0.7,1,0.7,0.7,0.7,1","1,0.7,0.7,0.7,1,0.7,0.7,0.7,1","","",""
"","html-keyboard-response","29","36327","0.0-29.0","3T111IHZ5FCHAFPNSO6Q2ZRREQ19RK","A1I0DV4B4MFQCL","3MVY4USGB69K0BK9K576GJZ2CVDSII","","null","<img src=""img/land2.png"" style=""width:200px; border:14px solid green;"">","null","","","","","","","","","",""
"","image-keyboard-response","30","36746","0.0-30.0","3T111IHZ5FCHAFPNSO6Q2ZRREQ19RK","A1I0DV4B4MFQCL","3MVY4USGB69K0BK9K576GJZ2CVDSII","","418","img/land3.png","76","419","3","1","3","2","1,0.7,0.7,0.7,1,0.7,0.7,0.7,1","1,0.7,0.7,0.7,1,0.7,0.7,0.7,1","","",""
"","html-keyboard-response","31","37052","0.0-31.0","3T111IHZ5FCHAFPNSO6Q2ZRREQ19RK","A1I0DV4B4MFQCL","3MVY4USGB69K0BK9K576GJZ2CVDSII","","null","<img src=""img/land3.png"" style=""width:200px; border:14px solid green;"">","null","","","","","","","","","",""
"","image-keyboard-response","32","37374","0.0-32.0","3T111IHZ5FCHAFPNSO6Q2ZRREQ19RK","A1I0DV4B4MFQCL","3MVY4USGB69K0BK9K576GJZ2CVDSII","","321","img/land3.png","74","321","1","1","3","2","1,0.7,0.7,0.7,1,0.7,0.7,0.7,1","1,0.7,0.7,0.7,1,0.7,0.7,0.7,1","","",""
"","html-keyboard-response","33","37676","0.0-33.0","3T111IHZ5FCHAFPNSO6Q2ZRREQ19RK","A1I0DV4B4MFQCL","3MVY4USGB69K0BK9K576GJZ2CVDSII","","null","<img src=""img/land3.png"" style=""width:200px; border:14px solid green;"">","null","","","","","","","","","",""
"","image-keyboard-response","34","38219","0.0-34.0","3T111IHZ5FCHAFPNSO6Q2ZRREQ19RK","A1I0DV4B4MFQCL","3MVY4USGB69K0BK9K576GJZ2CVDSII","","543","img/land2.png","75","544","2","1","2","2","1,0.7,0.7,0.7,1,0.7,0.7,0.7,1","1,0.7,0.7,0.7,1,0.7,0.7,0.7,1","","",""
"","html-keyboard-response","35","38522","0.0-35.0","3T111IHZ5FCHAFPNSO6Q2ZRREQ19RK","A1I0DV4B4MFQCL","3MVY4USGB69K0BK9K576GJZ2CVDSII","","null","<img src=""img/land2.png"" style=""width:200px; border:14px solid green;"">","null","","","","","","","","","",""
"","image-keyboard-response","36","38877","0.0-36.0","3T111IHZ5FCHAFPNSO6Q2ZRREQ19RK","A1I0DV4B4MFQCL","3MVY4USGB69K0BK9K576GJZ2CVDSII","","355","img/land2.png","75","356","2","1","2","2","1,0.7,0.7,0.7,1,0.7,0.7,0.7,1","1,0.7,0.7,0.7,1,0.7,0.7,0.7,1","","",""
"","html-keyboard-response","37","39183","0.0-37.0","3T111IHZ5FCHAFPNSO6Q2ZRREQ19RK","A1I0DV4B4MFQCL","3MVY4USGB69K0BK9K576GJZ2CVDSII","","null","<img src=""img/land2.png"" style=""width:200px; border:14px solid green;"">","null","","","","","","","","","",""
"","image-keyboard-response","38","39551","0.0-38.0","3T111IHZ5FCHAFPNSO6Q2ZRREQ19RK","A1I0DV4B4MFQCL","3MVY4USGB69K0BK9K576GJZ2CVDSII","","367","img/land2.png","75","368","2","1","2","2","1,0.7,0.7,0.7,1,0.7,0.7,0.7,1","1,0.7,0.7,0.7,1,0.7,0.7,0.7,1","","",""
"","html-keyboard-response","39","39856","0.0-39.0","3T111IHZ5FCHAFPNSO6Q2ZRREQ19RK","A1I0DV4B4MFQCL","3MVY4USGB69K0BK9K576GJZ2CVDSII","","null","<img src=""img/land2.png"" style=""width:200px; border:14px solid green;"">","null","","","","","","","","","",""
"","image-keyboard-response","40","40433","0.0-40.0","3T111IHZ5FCHAFPNSO6Q2ZRREQ19RK","A1I0DV4B4MFQCL","3MVY4USGB69K0BK9K576GJZ2CVDSII","","575","img/land3.png","74","578","1","0","3","2","1,0.7,0.7,0.7,1,0.7,0.7,0.7,1","1,0.7,0.7,0.7,1,0.7,0.7,0.7,1","","",""
"","html-keyboard-response","41","40737","0.0-41.0","3T111IHZ5FCHAFPNSO6Q2ZRREQ19RK","A1I0DV4B4MFQCL","3MVY4USGB69K0BK9K576GJZ2CVDSII","","null","<img src=""img/land3.png"" style=""width:200px;border:14px solid red;"">","null","","","","","","","","","",""
"","image-keyboard-response","42","41267","0.0-42.0","3T111IHZ5FCHAFPNSO6Q2ZRREQ19RK","A1I0DV4B4MFQCL","3MVY4USGB69K0BK9K576GJZ2CVDSII","","529","img/land2.png","74","529","1","1","2","2","1,0.7,0.7,0.7,1,0.7,0.7,0.7,1","1,0.7,0.7,0.7,1,0.7,0.7,0.7,1","","",""
"","html-keyboard-response","43","41573","0.0-43.0","3T111IHZ5FCHAFPNSO6Q2ZRREQ19RK","A1I0DV4B4MFQCL","3MVY4USGB69K0BK9K576GJZ2CVDSII","","null","<img src=""img/land2.png"" style=""width:200px; border:14px solid green;"">","null","","","","","","","","","",""
"","image-keyboard-response","44","42178","0.0-44.0","3T111IHZ5FCHAFPNSO6Q2ZRREQ19RK","A1I0DV4B4MFQCL","3MVY4USGB69K0BK9K576GJZ2CVDSII","","605","img/land1.png","76","605","3","1","1","2","1,0.7,0.7,0.7,1,0.7,0.7,0.7,1","1,0.7,0.7,0.7,1,0.7,0.7,0.7,1","","",""
"","html-keyboard-response","45","42480","0.0-45.0","3T111IHZ5FCHAFPNSO6Q2ZRREQ19RK","A1I0DV4B4MFQCL","3MVY4USGB69K0BK9K576GJZ2CVDSII","","null","<img src=""img/land1.png"" style=""width:200px; border:14px solid green;"">","null","","","","","","","","","",""
"","image-keyboard-response","46","42943","0.0-46.0","3T111IHZ5FCHAFPNSO6Q2ZRREQ19RK","A1I0DV4B4MFQCL","3MVY4USGB69K0BK9K576GJZ2CVDSII","","462","img/land2.png","75","463","2","1","2","2","1,0.7,0.7,0.7,1,0.7,0.7,0.7,1","1,0.7,0.7,0.7,1,0.7,0.7,0.7,1","","",""
"","html-keyboard-response","47","43270","0.0-47.0","3T111IHZ5FCHAFPNSO6Q2ZRREQ19RK","A1I0DV4B4MFQCL","3MVY4USGB69K0BK9K576GJZ2CVDSII","","null","<img src=""img/land2.png"" style=""width:200px; border:14px solid green;"">","null","","","","","","","","","",""
"","image-keyboard-response","48","43610","0.0-48.0","3T111IHZ5FCHAFPNSO6Q2ZRREQ19RK","A1I0DV4B4MFQCL","3MVY4USGB69K0BK9K576GJZ2CVDSII","","339","img/land2.png","75","341","2","1","2","2","1,0.7,0.7,0.7,1,0.7,0.7,0.7,1","1,0.7,0.7,0.7,1,0.7,0.7,0.7,1","","",""
"","html-keyboard-response","49","43911","0.0-49.0","3T111IHZ5FCHAFPNSO6Q2ZRREQ19RK","A1I0DV4B4MFQCL","3MVY4USGB69K0BK9K576GJZ2CVDSII","","null","<img src=""img/land2.png"" style=""width:200px; border:14px solid green;"">","null","","","","","","","","","",""
"","image-keyboard-response","50","44460","0.0-50.0","3T111IHZ5FCHAFPNSO6Q2ZRREQ19RK","A1I0DV4B4MFQCL","3MVY4USGB69K0BK9K576GJZ2CVDSII","","548","img/land1.png","76","548","3","1","1","2","1,0.7,0.7,0.7,1,0.7,0.7,0.7,1","1,0.7,0.7,0.7,1,0.7,0.7,0.7,1","","",""
"","html-keyboard-response","51","44766","0.0-51.0","3T111IHZ5FCHAFPNSO6Q2ZRREQ19RK","A1I0DV4B4MFQCL","3MVY4USGB69K0BK9K576GJZ2CVDSII","","null","<img src=""img/land1.png"" style=""width:200px; border:14px solid green;"">","null","","","","","","","","","",""
"","image-keyboard-response","52","45403","0.0-52.0","3T111IHZ5FCHAFPNSO6Q2ZRREQ19RK","A1I0DV4B4MFQCL","3MVY4USGB69K0BK9K576GJZ2CVDSII","","636","img/land3.png","74","638","1","1","3","2","1,0.7,0.7,0.7,1,0.7,0.7,0.7,1","1,0.7,0.7,0.7,1,0.7,0.7,0.7,1","","",""
"","html-keyboard-response","53","45706","0.0-53.0","3T111IHZ5FCHAFPNSO6Q2ZRREQ19RK","A1I0DV4B4MFQCL","3MVY4USGB69K0BK9K576GJZ2CVDSII","","null","<img src=""img/land3.png"" style=""width:200px; border:14px solid green;"">","null","","","","","","","","","",""
"","image-keyboard-response","54","46093","0.0-54.0","3T111IHZ5FCHAFPNSO6Q2ZRREQ19RK","A1I0DV4B4MFQCL","3MVY4USGB69K0BK9K576GJZ2CVDSII","","386","img/land3.png","74","387","1","1","3","2","1,0.7,0.7,0.7,1,0.7,0.7,0.7,1","1,0.7,0.7,0.7,1,0.7,0.7,0.7,1","","",""
"","html-keyboard-response","55","46399","0.0-55.0","3T111IHZ5FCHAFPNSO6Q2ZRREQ19RK","A1I0DV4B4MFQCL","3MVY4USGB69K0BK9K576GJZ2CVDSII","","null","<img src=""img/land3.png"" style=""width:200px; border:14px solid green;"">","null","","","","","","","","","",""
"","image-keyboard-response","56","46688","0.0-56.0","3T111IHZ5FCHAFPNSO6Q2ZRREQ19RK","A1I0DV4B4MFQCL","3MVY4USGB69K0BK9K576GJZ2CVDSII","","288","img/land3.png","74","290","1","1","3","2","1,0.7,0.7,0.7,1,0.7,0.7,0.7,1","1,0.7,0.7,0.7,1,0.7,0.7,0.7,1","","",""
"","html-keyboard-response","57","46994","0.0-57.0","3T111IHZ5FCHAFPNSO6Q2ZRREQ19RK","A1I0DV4B4MFQCL","3MVY4USGB69K0BK9K576GJZ2CVDSII","","null","<img src=""img/land3.png"" style=""width:200px; border:14px solid green;"">","null","","","","","","","","","",""
"","image-keyboard-response","58","47486","0.0-58.0","3T111IHZ5FCHAFPNSO6Q2ZRREQ19RK","A1I0DV4B4MFQCL","3MVY4USGB69K0BK9K576GJZ2CVDSII","","491","img/land1.png","76","492","3","1","1","2","1,0.7,0.7,0.7,1,0.7,0.7,0.7,1","1,0.7,0.7,0.7,1,0.7,0.7,0.7,1","","",""
"","html-keyboard-response","59","47790","0.0-59.0","3T111IHZ5FCHAFPNSO6Q2ZRREQ19RK","A1I0DV4B4MFQCL","3MVY4USGB69K0BK9K576GJZ2CVDSII","","null","<img src=""img/land1.png"" style=""width:200px; border:14px solid green;"">","null","","","","","","","","","",""
"","image-keyboard-response","60","48149","0.0-60.0","3T111IHZ5FCHAFPNSO6Q2ZRREQ19RK","A1I0DV4B4MFQCL","3MVY4USGB69K0BK9K576GJZ2CVDSII","","358","img/land1.png","76","358","3","1","1","2","1,0.7,0.7,0.7,1,0.7,0.7,0.7,1","1,0.7,0.7,0.7,1,0.7,0.7,0.7,1","","",""
"","html-keyboard-response","61","48449","0.0-61.0","3T111IHZ5FCHAFPNSO6Q2ZRREQ19RK","A1I0DV4B4MFQCL","3MVY4USGB69K0BK9K576GJZ2CVDSII","","null","<img src=""img/land1.png"" style=""width:200px; border:14px solid green;"">","null","","","","","","","","","",""
"","image-keyboard-response","62","48940","0.0-62.0","3T111IHZ5FCHAFPNSO6Q2ZRREQ19RK","A1I0DV4B4MFQCL","3MVY4USGB69K0BK9K576GJZ2CVDSII","","491","img/land3.png","75","492","2","0","3","2","1,0.7,0.7,0.7,1,0.7,0.7,0.7,1","1,0.7,0.7,0.7,1,0.7,0.7,0.7,1","","",""
"","html-keyboard-response","63","49247","0.0-63.0","3T111IHZ5FCHAFPNSO6Q2ZRREQ19RK","A1I0DV4B4MFQCL","3MVY4USGB69K0BK9K576GJZ2CVDSII","","null","<img src=""img/land3.png"" style=""width:200px;border:14px solid red;"">","null","","","","","","","","","",""
"","image-keyboard-response","64","49532","0.0-64.0","3T111IHZ5FCHAFPNSO6Q2ZRREQ19RK","A1I0DV4B4MFQCL","3MVY4USGB69K0BK9K576GJZ2CVDSII","","285","img/land3.png","74","285","1","0","3","2","1,0.7,0.7,0.7,1,0.7,0.7,0.7,1","1,0.7,0.7,0.7,1,0.7,0.7,0.7,1","","",""
"","html-keyboard-response","65","49838","0.0-65.0","3T111IHZ5FCHAFPNSO6Q2ZRREQ19RK","A1I0DV4B4MFQCL","3MVY4USGB69K0BK9K576GJZ2CVDSII","","null","<img src=""img/land3.png"" style=""width:200px;border:14px solid red;"">","null","","","","","","","","","",""
"","image-keyboard-response","66","50423","0.0-66.0","3T111IHZ5FCHAFPNSO6Q2ZRREQ19RK","A1I0DV4B4MFQCL","3MVY4USGB69K0BK9K576GJZ2CVDSII","","583","img/land1.png","76","584","3","1","1","2","1,0.7,0.7,0.7,1,0.7,0.7,0.7,1","1,0.7,0.7,0.7,1,0.7,0.7,0.7,1","","",""
"","html-keyboard-response","67","50725","0.0-67.0","3T111IHZ5FCHAFPNSO6Q2ZRREQ19RK","A1I0DV4B4MFQCL","3MVY4USGB69K0BK9K576GJZ2CVDSII","","null","<img src=""img/land1.png"" style=""width:200px; border:14px solid green;"">","null","","","","","","","","","",""
"","image-keyboard-response","68","51227","0.0-68.0","3T111IHZ5FCHAFPNSO6Q2ZRREQ19RK","A1I0DV4B4MFQCL","3MVY4USGB69K0BK9K576GJZ2CVDSII","","502","img/land3.png","75","502","2","0","3","2","1,0.7,0.7,0.7,1,0.7,0.7,0.7,1","1,0.7,0.7,0.7,1,0.7,0.7,0.7,1","","",""
"","html-keyboard-response","69","51536","0.0-69.0","3T111IHZ5FCHAFPNSO6Q2ZRREQ19RK","A1I0DV4B4MFQCL","3MVY4USGB69K0BK9K576GJZ2CVDSII","","null","<img src=""img/land3.png"" style=""width:200px;border:14px solid red;"">","null","","","","","","","","","",""
"","image-keyboard-response","70","52343","0.0-70.0","3T111IHZ5FCHAFPNSO6Q2ZRREQ19RK","A1I0DV4B4MFQCL","3MVY4USGB69K0BK9K576GJZ2CVDSII","","807","img/land2.png","75","807","2","1","2","2","1,0.7,0.7,0.7,1,0.7,0.7,0.7,1","1,0.7,0.7,0.7,1,0.7,0.7,0.7,1","","",""
"","html-keyboard-response","71","52650","0.0-71.0","3T111IHZ5FCHAFPNSO6Q2ZRREQ19RK","A1I0DV4B4MFQCL","3MVY4USGB69K0BK9K576GJZ2CVDSII","","null","<img src=""img/land2.png"" style=""width:200px; border:14px solid green;"">","null","","","","","","","","","",""
"","image-keyboard-response","72","53096","0.0-72.0","3T111IHZ5FCHAFPNSO6Q2ZRREQ19RK","A1I0DV4B4MFQCL","3MVY4USGB69K0BK9K576GJZ2CVDSII","","445","img/land3.png","76","446","3","1","3","2","1,0.7,0.7,0.7,1,0.7,0.7,0.7,1","1,0.7,0.7,0.7,1,0.7,0.7,0.7,1","","",""
"","html-keyboard-response","73","53402","0.0-73.0","3T111IHZ5FCHAFPNSO6Q2ZRREQ19RK","A1I0DV4B4MFQCL","3MVY4USGB69K0BK9K576GJZ2CVDSII","","null","<img src=""img/land3.png"" style=""width:200px; border:14px solid green;"">","null","","","","","","","","","",""
"","image-keyboard-response","74","53756","0.0-74.0","3T111IHZ5FCHAFPNSO6Q2ZRREQ19RK","A1I0DV4B4MFQCL","3MVY4USGB69K0BK9K576GJZ2CVDSII","","353","img/land2.png","74","353","1","1","2","2","1,0.7,0.7,0.7,1,0.7,0.7,0.7,1","1,0.7,0.7,0.7,1,0.7,0.7,0.7,1","","",""
"","html-keyboard-response","75","54060","0.0-75.0","3T111IHZ5FCHAFPNSO6Q2ZRREQ19RK","A1I0DV4B4MFQCL","3MVY4USGB69K0BK9K576GJZ2CVDSII","","null","<img src=""img/land2.png"" style=""width:200px; border:14px solid green;"">","null","","","","","","","","","",""
"","image-keyboard-response","76","54759","0.0-76.0","3T111IHZ5FCHAFPNSO6Q2ZRREQ19RK","A1I0DV4B4MFQCL","3MVY4USGB69K0BK9K576GJZ2CVDSII","","699","img/land1.png","76","700","3","0","1","2","1,0.7,0.7,0.7,1,0.7,0.7,0.7,1","1,0.7,0.7,0.7,1,0.7,0.7,0.7,1","","",""
"","html-keyboard-response","77","55066","0.0-77.0","3T111IHZ5FCHAFPNSO6Q2ZRREQ19RK","A1I0DV4B4MFQCL","3MVY4USGB69K0BK9K576GJZ2CVDSII","","null","<img src=""img/land1.png"" style=""width:200px;border:14px solid red;"">","null","","","","","","","","","",""
"","image-keyboard-response","78","56142","0.0-78.0","3T111IHZ5FCHAFPNSO6Q2ZRREQ19RK","A1I0DV4B4MFQCL","3MVY4USGB69K0BK9K576GJZ2CVDSII","","1076","img/land3.png","74","1077","1","1","3","2","1,0.7,0.7,0.7,1,0.7,0.7,0.7,1","1,0.7,0.7,0.7,1,0.7,0.7,0.7,1","","",""
"","html-keyboard-response","79","56444","0.0-79.0","3T111IHZ5FCHAFPNSO6Q2ZRREQ19RK","A1I0DV4B4MFQCL","3MVY4USGB69K0BK9K576GJZ2CVDSII","","null","<img src=""img/land3.png"" style=""width:200px; border:14px solid green;"">","null","","","","","","","","","",""
"","image-keyboard-response","80","57080","0.0-80.0","3T111IHZ5FCHAFPNSO6Q2ZRREQ19RK","A1I0DV4B4MFQCL","3MVY4USGB69K0BK9K576GJZ2CVDSII","","636","img/land2.png","74","637","1","1","2","2","1,0.7,0.7,0.7,1,0.7,0.7,0.7,1","1,0.7,0.7,0.7,1,0.7,0.7,0.7,1","","",""
"","html-keyboard-response","81","57387","0.0-81.0","3T111IHZ5FCHAFPNSO6Q2ZRREQ19RK","A1I0DV4B4MFQCL","3MVY4USGB69K0BK9K576GJZ2CVDSII","","null","<img src=""img/land2.png"" style=""width:200px; border:14px solid green;"">","null","","","","","","","","","",""
"","image-keyboard-response","82","58243","0.0-82.0","3T111IHZ5FCHAFPNSO6Q2ZRREQ19RK","A1I0DV4B4MFQCL","3MVY4USGB69K0BK9K576GJZ2CVDSII","","856","img/land1.png","76","857","3","1","1","2","1,0.7,0.7,0.7,1,0.7,0.7,0.7,1","1,0.7,0.7,0.7,1,0.7,0.7,0.7,1","","",""
"","html-keyboard-response","83","58548","0.0-83.0","3T111IHZ5FCHAFPNSO6Q2ZRREQ19RK","A1I0DV4B4MFQCL","3MVY4USGB69K0BK9K576GJZ2CVDSII","","null","<img src=""img/land1.png"" style=""width:200px; border:14px solid green;"">","null","","","","","","","","","",""
"","image-keyboard-response","84","59101","0.0-84.0","3T111IHZ5FCHAFPNSO6Q2ZRREQ19RK","A1I0DV4B4MFQCL","3MVY4USGB69K0BK9K576GJZ2CVDSII","","552","img/land2.png","75","552","2","1","2","2","1,0.7,0.7,0.7,1,0.7,0.7,0.7,1","1,0.7,0.7,0.7,1,0.7,0.7,0.7,1","","",""
"","html-keyboard-response","85","59407","0.0-85.0","3T111IHZ5FCHAFPNSO6Q2ZRREQ19RK","A1I0DV4B4MFQCL","3MVY4USGB69K0BK9K576GJZ2CVDSII","","null","<img src=""img/land2.png"" style=""width:200px; border:14px solid green;"">","null","","","","","","","","","",""
"","image-keyboard-response","86","59846","0.0-86.0","3T111IHZ5FCHAFPNSO6Q2ZRREQ19RK","A1I0DV4B4MFQCL","3MVY4USGB69K0BK9K576GJZ2CVDSII","","438","img/land2.png","75","438","2","1","2","2","1,0.7,0.7,0.7,1,0.7,0.7,0.7,1","1,0.7,0.7,0.7,1,0.7,0.7,0.7,1","","",""
"","html-keyboard-response","87","60151","0.0-87.0","3T111IHZ5FCHAFPNSO6Q2ZRREQ19RK","A1I0DV4B4MFQCL","3MVY4USGB69K0BK9K576GJZ2CVDSII","","null","<img src=""img/land2.png"" style=""width:200px; border:14px solid green;"">","null","","","","","","","","","",""
"","image-keyboard-response","88","60571","0.0-88.0","3T111IHZ5FCHAFPNSO6Q2ZRREQ19RK","A1I0DV4B4MFQCL","3MVY4USGB69K0BK9K576GJZ2CVDSII","","418","img/land2.png","75","419","2","1","2","2","1,0.7,0.7,0.7,1,0.7,0.7,0.7,1","1,0.7,0.7,0.7,1,0.7,0.7,0.7,1","","",""
"","html-keyboard-response","89","60872","0.0-89.0","3T111IHZ5FCHAFPNSO6Q2ZRREQ19RK","A1I0DV4B4MFQCL","3MVY4USGB69K0BK9K576GJZ2CVDSII","","null","<img src=""img/land2.png"" style=""width:200px; border:14px solid green;"">","null","","","","","","","","","",""
"","image-keyboard-response","90","61353","0.0-90.0","3T111IHZ5FCHAFPNSO6Q2ZRREQ19RK","A1I0DV4B4MFQCL","3MVY4USGB69K0BK9K576GJZ2CVDSII","","481","img/land1.png","76","482","3","0","1","2","1,0.7,0.7,0.7,1,0.7,0.7,0.7,1","1,0.7,0.7,0.7,1,0.7,0.7,0.7,1","","",""
"","html-keyboard-response","91","61654","0.0-91.0","3T111IHZ5FCHAFPNSO6Q2ZRREQ19RK","A1I0DV4B4MFQCL","3MVY4USGB69K0BK9K576GJZ2CVDSII","","null","<img src=""img/land1.png"" style=""width:200px;border:14px solid red;"">","null","","","","","","","","","",""
"","image-keyboard-response","92","62097","0.0-92.0","3T111IHZ5FCHAFPNSO6Q2ZRREQ19RK","A1I0DV4B4MFQCL","3MVY4USGB69K0BK9K576GJZ2CVDSII","","440","img/land1.png","76","442","3","1","1","2","1,0.7,0.7,0.7,1,0.7,0.7,0.7,1","1,0.7,0.7,0.7,1,0.7,0.7,0.7,1","","",""
"","html-keyboard-response","93","62397","0.0-93.0","3T111IHZ5FCHAFPNSO6Q2ZRREQ19RK","A1I0DV4B4MFQCL","3MVY4USGB69K0BK9K576GJZ2CVDSII","","null","<img src=""img/land1.png"" style=""width:200px; border:14px solid green;"">","null","","","","","","","","","",""
"","image-keyboard-response","94","63138","0.0-94.0","3T111IHZ5FCHAFPNSO6Q2ZRREQ19RK","A1I0DV4B4MFQCL","3MVY4USGB69K0BK9K576GJZ2CVDSII","","740","img/land2.png","75","741","2","1","2","2","1,0.7,0.7,0.7,1,0.7,0.7,0.7,1","1,0.7,0.7,0.7,1,0.7,0.7,0.7,1","","",""
"","html-keyboard-response","95","63440","0.0-95.0","3T111IHZ5FCHAFPNSO6Q2ZRREQ19RK","A1I0DV4B4MFQCL","3MVY4USGB69K0BK9K576GJZ2CVDSII","","null","<img src=""img/land2.png"" style=""width:200px; border:14px solid green;"">","null","","","","","","","","","",""
"","image-keyboard-response","96","63800","0.0-96.0","3T111IHZ5FCHAFPNSO6Q2ZRREQ19RK","A1I0DV4B4MFQCL","3MVY4USGB69K0BK9K576GJZ2CVDSII","","359","img/land2.png","75","360","2","1","2","2","1,0.7,0.7,0.7,1,0.7,0.7,0.7,1","1,0.7,0.7,0.7,1,0.7,0.7,0.7,1","","",""
"","html-keyboard-response","97","64105","0.0-97.0","3T111IHZ5FCHAFPNSO6Q2ZRREQ19RK","A1I0DV4B4MFQCL","3MVY4USGB69K0BK9K576GJZ2CVDSII","","null","<img src=""img/land2.png"" style=""width:200px; border:14px solid green;"">","null","","","","","","","","","",""
"","image-keyboard-response","98","64442","0.0-98.0","3T111IHZ5FCHAFPNSO6Q2ZRREQ19RK","A1I0DV4B4MFQCL","3MVY4USGB69K0BK9K576GJZ2CVDSII","","336","img/land2.png","75","336","2","1","2","2","1,0.7,0.7,0.7,1,0.7,0.7,0.7,1","1,0.7,0.7,0.7,1,0.7,0.7,0.7,1","","",""
"","html-keyboard-response","99","64748","0.0-99.0","3T111IHZ5FCHAFPNSO6Q2ZRREQ19RK","A1I0DV4B4MFQCL","3MVY4USGB69K0BK9K576GJZ2CVDSII","","null","<img src=""img/land2.png"" style=""width:200px; border:14px solid green;"">","null","","","","","","","","","",""
"","image-keyboard-response","100","65120","0.0-100.0","3T111IHZ5FCHAFPNSO6Q2ZRREQ19RK","A1I0DV4B4MFQCL","3MVY4USGB69K0BK9K576GJZ2CVDSII","","370","img/land2.png","75","371","2","1","2","2","1,0.7,0.7,0.7,1,0.7,0.7,0.7,1","1,0.7,0.7,0.7,1,0.7,0.7,0.7,1","","",""
"","html-keyboard-response","101","65422","0.0-101.0","3T111IHZ5FCHAFPNSO6Q2ZRREQ19RK","A1I0DV4B4MFQCL","3MVY4USGB69K0BK9K576GJZ2CVDSII","","null","<img src=""img/land2.png"" style=""width:200px; border:14px solid green;"">","null","","","","","","","","","",""
"","image-keyboard-response","102","65808","0.0-102.0","3T111IHZ5FCHAFPNSO6Q2ZRREQ19RK","A1I0DV4B4MFQCL","3MVY4USGB69K0BK9K576GJZ2CVDSII","","386","img/land2.png","75","387","2","1","2","2","1,0.7,0.7,0.7,1,0.7,0.7,0.7,1","1,0.7,0.7,0.7,1,0.7,0.7,0.7,1","","",""
"","html-keyboard-response","103","66111","0.0-103.0","3T111IHZ5FCHAFPNSO6Q2ZRREQ19RK","A1I0DV4B4MFQCL","3MVY4USGB69K0BK9K576GJZ2CVDSII","","null","<img src=""img/land2.png"" style=""width:200px; border:14px solid green;"">","null","","","","","","","","","",""
"","image-keyboard-response","104","66478","0.0-104.0","3T111IHZ5FCHAFPNSO6Q2ZRREQ19RK","A1I0DV4B4MFQCL","3MVY4USGB69K0BK9K576GJZ2CVDSII","","367","img/land2.png","75","367","2","1","2","2","1,0.7,0.7,0.7,1,0.7,0.7,0.7,1","1,0.7,0.7,0.7,1,0.7,0.7,0.7,1","","",""
"","html-keyboard-response","105","66781","0.0-105.0","3T111IHZ5FCHAFPNSO6Q2ZRREQ19RK","A1I0DV4B4MFQCL","3MVY4USGB69K0BK9K576GJZ2CVDSII","","null","<img src=""img/land2.png"" style=""width:200px; border:14px solid green;"">","null","","","","","","","","","",""
"","image-keyboard-response","106","67340","0.0-106.0","3T111IHZ5FCHAFPNSO6Q2ZRREQ19RK","A1I0DV4B4MFQCL","3MVY4USGB69K0BK9K576GJZ2CVDSII","","559","img/land3.png","74","560","1","1","3","2","1,0.7,0.7,0.7,1,0.7,0.7,0.7,1","1,0.7,0.7,0.7,1,0.7,0.7,0.7,1","","",""
"","html-keyboard-response","107","67643","0.0-107.0","3T111IHZ5FCHAFPNSO6Q2ZRREQ19RK","A1I0DV4B4MFQCL","3MVY4USGB69K0BK9K576GJZ2CVDSII","","null","<img src=""img/land3.png"" style=""width:200px; border:14px solid green;"">","null","","","","","","","","","",""
"","image-keyboard-response","108","68202","0.0-108.0","3T111IHZ5FCHAFPNSO6Q2ZRREQ19RK","A1I0DV4B4MFQCL","3MVY4USGB69K0BK9K576GJZ2CVDSII","","559","img/land2.png","75","559","2","1","2","2","1,0.7,0.7,0.7,1,0.7,0.7,0.7,1","1,0.7,0.7,0.7,1,0.7,0.7,0.7,1","","",""
"","html-keyboard-response","109","68508","0.0-109.0","3T111IHZ5FCHAFPNSO6Q2ZRREQ19RK","A1I0DV4B4MFQCL","3MVY4USGB69K0BK9K576GJZ2CVDSII","","null","<img src=""img/land2.png"" style=""width:200px; border:14px solid green;"">","null","","","","","","","","","",""
"","image-keyboard-response","110","69065","0.0-110.0","3T111IHZ5FCHAFPNSO6Q2ZRREQ19RK","A1I0DV4B4MFQCL","3MVY4USGB69K0BK9K576GJZ2CVDSII","","555","img/land1.png","76","557","3","1","1","2","1,0.7,0.7,0.7,1,0.7,0.7,0.7,1","1,0.7,0.7,0.7,1,0.7,0.7,0.7,1","","",""
"","html-keyboard-response","111","69366","0.0-111.0","3T111IHZ5FCHAFPNSO6Q2ZRREQ19RK","A1I0DV4B4MFQCL","3MVY4USGB69K0BK9K576GJZ2CVDSII","","null","<img src=""img/land1.png"" style=""width:200px; border:14px solid green;"">","null","","","","","","","","","",""
"","image-keyboard-response","112","69656","0.0-112.0","3T111IHZ5FCHAFPNSO6Q2ZRREQ19RK","A1I0DV4B4MFQCL","3MVY4USGB69K0BK9K576GJZ2CVDSII","","288","img/land1.png","76","290","3","1","1","2","1,0.7,0.7,0.7,1,0.7,0.7,0.7,1","1,0.7,0.7,0.7,1,0.7,0.7,0.7,1","","",""
"","html-keyboard-response","113","69959","0.0-113.0","3T111IHZ5FCHAFPNSO6Q2ZRREQ19RK","A1I0DV4B4MFQCL","3MVY4USGB69K0BK9K576GJZ2CVDSII","","null","<img src=""img/land1.png"" style=""width:200px; border:14px solid green;"">","null","","","","","","","","","",""
"","image-keyboard-response","114","70435","0.0-114.0","3T111IHZ5FCHAFPNSO6Q2ZRREQ19RK","A1I0DV4B4MFQCL","3MVY4USGB69K0BK9K576GJZ2CVDSII","","475","img/land3.png","75","477","2","1","3","2","1,0.7,0.7,0.7,1,0.7,0.7,0.7,1","1,0.7,0.7,0.7,1,0.7,0.7,0.7,1","","",""
"","html-keyboard-response","115","70739","0.0-115.0","3T111IHZ5FCHAFPNSO6Q2ZRREQ19RK","A1I0DV4B4MFQCL","3MVY4USGB69K0BK9K576GJZ2CVDSII","","null","<img src=""img/land3.png"" style=""width:200px; border:14px solid green;"">","null","","","","","","","","","",""
"","image-keyboard-response","116","71510","0.0-116.0","3T111IHZ5FCHAFPNSO6Q2ZRREQ19RK","A1I0DV4B4MFQCL","3MVY4USGB69K0BK9K576GJZ2CVDSII","","769","img/land1.png","76","770","3","1","1","2","1,0.7,0.7,0.7,1,0.7,0.7,0.7,1","1,0.7,0.7,0.7,1,0.7,0.7,0.7,1","","",""
"","html-keyboard-response","117","71814","0.0-117.0","3T111IHZ5FCHAFPNSO6Q2ZRREQ19RK","A1I0DV4B4MFQCL","3MVY4USGB69K0BK9K576GJZ2CVDSII","","null","<img src=""img/land1.png"" style=""width:200px; border:14px solid green;"">","null","","","","","","","","","",""
"","image-keyboard-response","118","72268","0.0-118.0","3T111IHZ5FCHAFPNSO6Q2ZRREQ19RK","A1I0DV4B4MFQCL","3MVY4USGB69K0BK9K576GJZ2CVDSII","","453","img/land3.png","74","453","1","1","3","2","1,0.7,0.7,0.7,1,0.7,0.7,0.7,1","1,0.7,0.7,0.7,1,0.7,0.7,0.7,1","","",""
"","html-keyboard-response","119","72574","0.0-119.0","3T111IHZ5FCHAFPNSO6Q2ZRREQ19RK","A1I0DV4B4MFQCL","3MVY4USGB69K0BK9K576GJZ2CVDSII","","null","<img src=""img/land3.png"" style=""width:200px; border:14px solid green;"">","null","","","","","","","","","",""
"","image-keyboard-response","120","73197","0.0-120.0","3T111IHZ5FCHAFPNSO6Q2ZRREQ19RK","A1I0DV4B4MFQCL","3MVY4USGB69K0BK9K576GJZ2CVDSII","","622","img/land2.png","75","623","2","1","2","2","1,0.7,0.7,0.7,1,0.7,0.7,0.7,1","1,0.7,0.7,0.7,1,0.7,0.7,0.7,1","","",""
"","html-keyboard-response","121","73500","0.0-121.0","3T111IHZ5FCHAFPNSO6Q2ZRREQ19RK","A1I0DV4B4MFQCL","3MVY4USGB69K0BK9K576GJZ2CVDSII","","null","<img src=""img/land2.png"" style=""width:200px; border:14px solid green;"">","null","","","","","","","","","",""
"","image-keyboard-response","122","73867","0.0-122.0","3T111IHZ5FCHAFPNSO6Q2ZRREQ19RK","A1I0DV4B4MFQCL","3MVY4USGB69K0BK9K576GJZ2CVDSII","","366","img/land2.png","75","367","2","1","2","2","1,0.7,0.7,0.7,1,0.7,0.7,0.7,1","1,0.7,0.7,0.7,1,0.7,0.7,0.7,1","","",""
"","html-keyboard-response","123","74169","0.0-123.0","3T111IHZ5FCHAFPNSO6Q2ZRREQ19RK","A1I0DV4B4MFQCL","3MVY4USGB69K0BK9K576GJZ2CVDSII","","null","<img src=""img/land2.png"" style=""width:200px; border:14px solid green;"">","null","","","","","","","","","",""
"","image-keyboard-response","124","74497","0.0-124.0","3T111IHZ5FCHAFPNSO6Q2ZRREQ19RK","A1I0DV4B4MFQCL","3MVY4USGB69K0BK9K576GJZ2CVDSII","","328","img/land2.png","75","329","2","1","2","2","1,0.7,0.7,0.7,1,0.7,0.7,0.7,1","1,0.7,0.7,0.7,1,0.7,0.7,0.7,1","","",""
"","html-keyboard-response","125","74799","0.0-125.0","3T111IHZ5FCHAFPNSO6Q2ZRREQ19RK","A1I0DV4B4MFQCL","3MVY4USGB69K0BK9K576GJZ2CVDSII","","null","<img src=""img/land2.png"" style=""width:200px; border:14px solid green;"">","null","","","","","","","","","",""
"","image-keyboard-response","126","75208","0.0-126.0","3T111IHZ5FCHAFPNSO6Q2ZRREQ19RK","A1I0DV4B4MFQCL","3MVY4USGB69K0BK9K576GJZ2CVDSII","","408","img/land2.png","75","409","2","1","2","2","1,0.7,0.7,0.7,1,0.7,0.7,0.7,1","1,0.7,0.7,0.7,1,0.7,0.7,0.7,1","","",""
"","html-keyboard-response","127","75511","0.0-127.0","3T111IHZ5FCHAFPNSO6Q2ZRREQ19RK","A1I0DV4B4MFQCL","3MVY4USGB69K0BK9K576GJZ2CVDSII","","null","<img src=""img/land2.png"" style=""width:200px; border:14px solid green;"">","null","","","","","","","","","",""
"","image-keyboard-response","128","75892","0.0-128.0","3T111IHZ5FCHAFPNSO6Q2ZRREQ19RK","A1I0DV4B4MFQCL","3MVY4USGB69K0BK9K576GJZ2CVDSII","","382","img/land2.png","75","382","2","1","2","2","1,0.7,0.7,0.7,1,0.7,0.7,0.7,1","1,0.7,0.7,0.7,1,0.7,0.7,0.7,1","","",""
"","html-keyboard-response","129","76196","0.0-129.0","3T111IHZ5FCHAFPNSO6Q2ZRREQ19RK","A1I0DV4B4MFQCL","3MVY4USGB69K0BK9K576GJZ2CVDSII","","null","<img src=""img/land2.png"" style=""width:200px; border:14px solid green;"">","null","","","","","","","","","",""
"","image-keyboard-response","130","76611","0.0-130.0","3T111IHZ5FCHAFPNSO6Q2ZRREQ19RK","A1I0DV4B4MFQCL","3MVY4USGB69K0BK9K576GJZ2CVDSII","","414","img/land2.png","75","414","2","1","2","2","1,0.7,0.7,0.7,1,0.7,0.7,0.7,1","1,0.7,0.7,0.7,1,0.7,0.7,0.7,1","","",""
"","html-keyboard-response","131","76916","0.0-131.0","3T111IHZ5FCHAFPNSO6Q2ZRREQ19RK","A1I0DV4B4MFQCL","3MVY4USGB69K0BK9K576GJZ2CVDSII","","null","<img src=""img/land2.png"" style=""width:200px; border:14px solid green;"">","null","","","","","","","","","",""
"","image-keyboard-response","132","77332","0.0-132.0","3T111IHZ5FCHAFPNSO6Q2ZRREQ19RK","A1I0DV4B4MFQCL","3MVY4USGB69K0BK9K576GJZ2CVDSII","","416","img/land2.png","75","417","2","1","2","2","1,0.7,0.7,0.7,1,0.7,0.7,0.7,1","1,0.7,0.7,0.7,1,0.7,0.7,0.7,1","","",""
"","html-keyboard-response","133","77635","0.0-133.0","3T111IHZ5FCHAFPNSO6Q2ZRREQ19RK","A1I0DV4B4MFQCL","3MVY4USGB69K0BK9K576GJZ2CVDSII","","null","<img src=""img/land2.png"" style=""width:200px; border:14px solid green;"">","null","","","","","","","","","",""
"","image-keyboard-response","134","78124","0.0-134.0","3T111IHZ5FCHAFPNSO6Q2ZRREQ19RK","A1I0DV4B4MFQCL","3MVY4USGB69K0BK9K576GJZ2CVDSII","","488","img/land1.png","76","489","3","1","1","2","1,0.7,0.7,0.7,1,0.7,0.7,0.7,1","1,0.7,0.7,0.7,1,0.7,0.7,0.7,1","","",""
"","html-keyboard-response","135","78426","0.0-135.0","3T111IHZ5FCHAFPNSO6Q2ZRREQ19RK","A1I0DV4B4MFQCL","3MVY4USGB69K0BK9K576GJZ2CVDSII","","null","<img src=""img/land1.png"" style=""width:200px; border:14px solid green;"">","null","","","","","","","","","",""
"","image-keyboard-response","136","79021","0.0-136.0","3T111IHZ5FCHAFPNSO6Q2ZRREQ19RK","A1I0DV4B4MFQCL","3MVY4USGB69K0BK9K576GJZ2CVDSII","","594","img/land3.png","74","595","1","0","3","2","1,0.7,0.7,0.7,1,0.7,0.7,0.7,1","1,0.7,0.7,0.7,1,0.7,0.7,0.7,1","","",""
"","html-keyboard-response","137","79324","0.0-137.0","3T111IHZ5FCHAFPNSO6Q2ZRREQ19RK","A1I0DV4B4MFQCL","3MVY4USGB69K0BK9K576GJZ2CVDSII","","null","<img src=""img/land3.png"" style=""width:200px;border:14px solid red;"">","null","","","","","","","","","",""
"","image-keyboard-response","138","79743","0.0-138.0","3T111IHZ5FCHAFPNSO6Q2ZRREQ19RK","A1I0DV4B4MFQCL","3MVY4USGB69K0BK9K576GJZ2CVDSII","","418","img/land2.png","75","419","2","1","2","2","1,0.7,0.7,0.7,1,0.7,0.7,0.7,1","1,0.7,0.7,0.7,1,0.7,0.7,0.7,1","","",""
"","html-keyboard-response","139","80048","0.0-139.0","3T111IHZ5FCHAFPNSO6Q2ZRREQ19RK","A1I0DV4B4MFQCL","3MVY4USGB69K0BK9K576GJZ2CVDSII","","null","<img src=""img/land2.png"" style=""width:200px; border:14px solid green;"">","null","","","","","","","","","",""
"","image-keyboard-response","140","80394","0.0-140.0","3T111IHZ5FCHAFPNSO6Q2ZRREQ19RK","A1I0DV4B4MFQCL","3MVY4USGB69K0BK9K576GJZ2CVDSII","","346","img/land2.png","75","346","2","1","2","2","1,0.7,0.7,0.7,1,0.7,0.7,0.7,1","1,0.7,0.7,0.7,1,0.7,0.7,0.7,1","","",""
"","html-keyboard-response","141","80700","0.0-141.0","3T111IHZ5FCHAFPNSO6Q2ZRREQ19RK","A1I0DV4B4MFQCL","3MVY4USGB69K0BK9K576GJZ2CVDSII","","null","<img src=""img/land2.png"" style=""width:200px; border:14px solid green;"">","null","","","","","","","","","",""
"","image-keyboard-response","142","81209","0.0-142.0","3T111IHZ5FCHAFPNSO6Q2ZRREQ19RK","A1I0DV4B4MFQCL","3MVY4USGB69K0BK9K576GJZ2CVDSII","","508","img/land3.png","74","508","1","1","3","2","1,0.7,0.7,0.7,1,0.7,0.7,0.7,1","1,0.7,0.7,0.7,1,0.7,0.7,0.7,1","","",""
"","html-keyboard-response","143","81513","0.0-143.0","3T111IHZ5FCHAFPNSO6Q2ZRREQ19RK","A1I0DV4B4MFQCL","3MVY4USGB69K0BK9K576GJZ2CVDSII","","null","<img src=""img/land3.png"" style=""width:200px; border:14px solid green;"">","null","","","","","","","","","",""
"","image-keyboard-response","144","82016","0.0-144.0","3T111IHZ5FCHAFPNSO6Q2ZRREQ19RK","A1I0DV4B4MFQCL","3MVY4USGB69K0BK9K576GJZ2CVDSII","","501","img/land1.png","75","503","2","1","1","2","1,0.7,0.7,0.7,1,0.7,0.7,0.7,1","1,0.7,0.7,0.7,1,0.7,0.7,0.7,1","","",""
"","html-keyboard-response","145","82320","0.0-145.0","3T111IHZ5FCHAFPNSO6Q2ZRREQ19RK","A1I0DV4B4MFQCL","3MVY4USGB69K0BK9K576GJZ2CVDSII","","null","<img src=""img/land1.png"" style=""width:200px; border:14px solid green;"">","null","","","","","","","","","",""
"","image-keyboard-response","146","82807","0.0-146.0","3T111IHZ5FCHAFPNSO6Q2ZRREQ19RK","A1I0DV4B4MFQCL","3MVY4USGB69K0BK9K576GJZ2CVDSII","","486","img/land3.png","75","487","2","0","3","2","1,0.7,0.7,0.7,1,0.7,0.7,0.7,1","1,0.7,0.7,0.7,1,0.7,0.7,0.7,1","","",""
"","html-keyboard-response","147","83109","0.0-147.0","3T111IHZ5FCHAFPNSO6Q2ZRREQ19RK","A1I0DV4B4MFQCL","3MVY4USGB69K0BK9K576GJZ2CVDSII","","null","<img src=""img/land3.png"" style=""width:200px;border:14px solid red;"">","null","","","","","","","","","",""
"","image-keyboard-response","148","84104","0.0-148.0","3T111IHZ5FCHAFPNSO6Q2ZRREQ19RK","A1I0DV4B4MFQCL","3MVY4USGB69K0BK9K576GJZ2CVDSII","","994","img/land2.png","75","994","2","1","2","2","1,0.7,0.7,0.7,1,0.7,0.7,0.7,1","1,0.7,0.7,0.7,1,0.7,0.7,0.7,1","","",""
"","html-keyboard-response","149","84405","0.0-149.0","3T111IHZ5FCHAFPNSO6Q2ZRREQ19RK","A1I0DV4B4MFQCL","3MVY4USGB69K0BK9K576GJZ2CVDSII","","null","<img src=""img/land2.png"" style=""width:200px; border:14px solid green;"">","null","","","","","","","","","",""
"","image-keyboard-response","150","84876","0.0-150.0","3T111IHZ5FCHAFPNSO6Q2ZRREQ19RK","A1I0DV4B4MFQCL","3MVY4USGB69K0BK9K576GJZ2CVDSII","","471","img/land2.png","75","471","2","1","2","2","1,0.7,0.7,0.7,1,0.7,0.7,0.7,1","1,0.7,0.7,0.7,1,0.7,0.7,0.7,1","","",""
"","html-keyboard-response","151","85177","0.0-151.0","3T111IHZ5FCHAFPNSO6Q2ZRREQ19RK","A1I0DV4B4MFQCL","3MVY4USGB69K0BK9K576GJZ2CVDSII","","null","<img src=""img/land2.png"" style=""width:200px; border:14px solid green;"">","null","","","","","","","","","",""
"","image-keyboard-response","152","85565","0.0-152.0","3T111IHZ5FCHAFPNSO6Q2ZRREQ19RK","A1I0DV4B4MFQCL","3MVY4USGB69K0BK9K576GJZ2CVDSII","","389","img/land2.png","75","389","2","1","2","2","1,0.7,0.7,0.7,1,0.7,0.7,0.7,1","1,0.7,0.7,0.7,1,0.7,0.7,0.7,1","","",""
"","html-keyboard-response","153","85867","0.0-153.0","3T111IHZ5FCHAFPNSO6Q2ZRREQ19RK","A1I0DV4B4MFQCL","3MVY4USGB69K0BK9K576GJZ2CVDSII","","null","<img src=""img/land2.png"" style=""width:200px; border:14px solid green;"">","null","","","","","","","","","",""
"","image-keyboard-response","154","86164","0.0-154.0","3T111IHZ5FCHAFPNSO6Q2ZRREQ19RK","A1I0DV4B4MFQCL","3MVY4USGB69K0BK9K576GJZ2CVDSII","","295","img/land2.png","75","297","2","1","2","2","1,0.7,0.7,0.7,1,0.7,0.7,0.7,1","1,0.7,0.7,0.7,1,0.7,0.7,0.7,1","","",""
"","html-keyboard-response","155","86465","0.0-155.0","3T111IHZ5FCHAFPNSO6Q2ZRREQ19RK","A1I0DV4B4MFQCL","3MVY4USGB69K0BK9K576GJZ2CVDSII","","null","<img src=""img/land2.png"" style=""width:200px; border:14px solid green;"">","null","","","","","","","","","",""
"","image-keyboard-response","156","86765","0.0-156.0","3T111IHZ5FCHAFPNSO6Q2ZRREQ19RK","A1I0DV4B4MFQCL","3MVY4USGB69K0BK9K576GJZ2CVDSII","","298","img/land2.png","75","299","2","1","2","2","1,0.7,0.7,0.7,1,0.7,0.7,0.7,1","1,0.7,0.7,0.7,1,0.7,0.7,0.7,1","","",""
"","html-keyboard-response","157","87066","0.0-157.0","3T111IHZ5FCHAFPNSO6Q2ZRREQ19RK","A1I0DV4B4MFQCL","3MVY4USGB69K0BK9K576GJZ2CVDSII","","null","<img src=""img/land2.png"" style=""width:200px; border:14px solid green;"">","null","","","","","","","","","",""
"","image-keyboard-response","158","87387","0.0-158.0","3T111IHZ5FCHAFPNSO6Q2ZRREQ19RK","A1I0DV4B4MFQCL","3MVY4USGB69K0BK9K576GJZ2CVDSII","","320","img/land2.png","75","321","2","1","2","2","1,0.7,0.7,0.7,1,0.7,0.7,0.7,1","1,0.7,0.7,0.7,1,0.7,0.7,0.7,1","","",""
"","html-keyboard-response","159","87687","0.0-159.0","3T111IHZ5FCHAFPNSO6Q2ZRREQ19RK","A1I0DV4B4MFQCL","3MVY4USGB69K0BK9K576GJZ2CVDSII","","null","<img src=""img/land2.png"" style=""width:200px; border:14px solid green;"">","null","","","","","","","","","",""
"","image-keyboard-response","160","88187","0.0-160.0","3T111IHZ5FCHAFPNSO6Q2ZRREQ19RK","A1I0DV4B4MFQCL","3MVY4USGB69K0BK9K576GJZ2CVDSII","","499","img/land1.png","76","500","3","1","1","2","1,0.7,0.7,0.7,1,0.7,0.7,0.7,1","1,0.7,0.7,0.7,1,0.7,0.7,0.7,1","","",""
"","html-keyboard-response","161","88491","0.0-161.0","3T111IHZ5FCHAFPNSO6Q2ZRREQ19RK","A1I0DV4B4MFQCL","3MVY4USGB69K0BK9K576GJZ2CVDSII","","null","<img src=""img/land1.png"" style=""width:200px; border:14px solid green;"">","null","","","","","","","","","",""
"","image-keyboard-response","162","88824","0.0-162.0","3T111IHZ5FCHAFPNSO6Q2ZRREQ19RK","A1I0DV4B4MFQCL","3MVY4USGB69K0BK9K576GJZ2CVDSII","","333","img/land1.png","76","334","3","0","1","2","1,0.7,0.7,0.7,1,0.7,0.7,0.7,1","1,0.7,0.7,0.7,1,0.7,0.7,0.7,1","","",""
"","html-keyboard-response","163","89130","0.0-163.0","3T111IHZ5FCHAFPNSO6Q2ZRREQ19RK","A1I0DV4B4MFQCL","3MVY4USGB69K0BK9K576GJZ2CVDSII","","null","<img src=""img/land1.png"" style=""width:200px;border:14px solid red;"">","null","","","","","","","","","",""
"","image-keyboard-response","164","89506","0.0-164.0","3T111IHZ5FCHAFPNSO6Q2ZRREQ19RK","A1I0DV4B4MFQCL","3MVY4USGB69K0BK9K576GJZ2CVDSII","","376","img/land1.png","76","376","3","1","1","2","1,0.7,0.7,0.7,1,0.7,0.7,0.7,1","1,0.7,0.7,0.7,1,0.7,0.7,0.7,1","","",""
"","html-keyboard-response","165","89811","0.0-165.0","3T111IHZ5FCHAFPNSO6Q2ZRREQ19RK","A1I0DV4B4MFQCL","3MVY4USGB69K0BK9K576GJZ2CVDSII","","null","<img src=""img/land1.png"" style=""width:200px; border:14px solid green;"">","null","","","","","","","","","",""
"","image-keyboard-response","166","90217","0.0-166.0","3T111IHZ5FCHAFPNSO6Q2ZRREQ19RK","A1I0DV4B4MFQCL","3MVY4USGB69K0BK9K576GJZ2CVDSII","","405","img/land1.png","76","406","3","1","1","2","1,0.7,0.7,0.7,1,0.7,0.7,0.7,1","1,0.7,0.7,0.7,1,0.7,0.7,0.7,1","","",""
"","html-keyboard-response","167","90522","0.0-167.0","3T111IHZ5FCHAFPNSO6Q2ZRREQ19RK","A1I0DV4B4MFQCL","3MVY4USGB69K0BK9K576GJZ2CVDSII","","null","<img src=""img/land1.png"" style=""width:200px; border:14px solid green;"">","null","","","","","","","","","",""
"","image-keyboard-response","168","90937","0.0-168.0","3T111IHZ5FCHAFPNSO6Q2ZRREQ19RK","A1I0DV4B4MFQCL","3MVY4USGB69K0BK9K576GJZ2CVDSII","","414","img/land2.png","75","415","2","1","2","2","1,0.7,0.7,0.7,1,0.7,0.7,0.7,1","1,0.7,0.7,0.7,1,0.7,0.7,0.7,1","","",""
"","html-keyboard-response","169","91243","0.0-169.0","3T111IHZ5FCHAFPNSO6Q2ZRREQ19RK","A1I0DV4B4MFQCL","3MVY4USGB69K0BK9K576GJZ2CVDSII","","null","<img src=""img/land2.png"" style=""width:200px; border:14px solid green;"">","null","","","","","","","","","",""
"","html-keyboard-response","170","94569","0.0-170.0","3T111IHZ5FCHAFPNSO6Q2ZRREQ19RK","A1I0DV4B4MFQCL","3MVY4USGB69K0BK9K576GJZ2CVDSII","","","","","","","","","","","","","",""
"","image-keyboard-response","171","95204","0.0-171.0","3T111IHZ5FCHAFPNSO6Q2ZRREQ19RK","A1I0DV4B4MFQCL","3MVY4USGB69K0BK9K576GJZ2CVDSII","","633","img/land4.png","74","635","1","1","1","2","1,0.7,0.7,0.7,1,0.7,0.7,0.7,1","1,0.7,0.7,0.7,1,0.7,0.7,0.7,1","","",""
"","html-keyboard-response","172","95505","0.0-172.0","3T111IHZ5FCHAFPNSO6Q2ZRREQ19RK","A1I0DV4B4MFQCL","3MVY4USGB69K0BK9K576GJZ2CVDSII","","null","<img src=""img/land4.png"" style=""width:200px; border:14px solid green;"">","null","","","","","","","","","",""
"","image-keyboard-response","173","95928","0.0-173.0","3T111IHZ5FCHAFPNSO6Q2ZRREQ19RK","A1I0DV4B4MFQCL","3MVY4USGB69K0BK9K576GJZ2CVDSII","","422","img/land4.png","74","422","1","1","1","2","1,0.7,0.7,0.7,1,0.7,0.7,0.7,1","1,0.7,0.7,0.7,1,0.7,0.7,0.7,1","","",""
"","html-keyboard-response","174","96232","0.0-174.0","3T111IHZ5FCHAFPNSO6Q2ZRREQ19RK","A1I0DV4B4MFQCL","3MVY4USGB69K0BK9K576GJZ2CVDSII","","null","<img src=""img/land4.png"" style=""width:200px; border:14px solid green;"">","null","","","","","","","","","",""
"","image-keyboard-response","175","96824","0.0-175.0","3T111IHZ5FCHAFPNSO6Q2ZRREQ19RK","A1I0DV4B4MFQCL","3MVY4USGB69K0BK9K576GJZ2CVDSII","","593","img/land6.png","75","593","2","1","3","2","1,0.7,0.7,0.7,1,0.7,0.7,0.7,1","1,0.7,0.7,0.7,1,0.7,0.7,0.7,1","","",""
"","html-keyboard-response","176","97129","0.0-176.0","3T111IHZ5FCHAFPNSO6Q2ZRREQ19RK","A1I0DV4B4MFQCL","3MVY4USGB69K0BK9K576GJZ2CVDSII","","null","<img src=""img/land6.png"" style=""width:200px; border:14px solid green;"">","null","","","","","","","","","",""
"","image-keyboard-response","177","97957","0.0-177.0","3T111IHZ5FCHAFPNSO6Q2ZRREQ19RK","A1I0DV4B4MFQCL","3MVY4USGB69K0BK9K576GJZ2CVDSII","","827","img/land5.png","76","827","3","1","2","2","1,0.7,0.7,0.7,1,0.7,0.7,0.7,1","1,0.7,0.7,0.7,1,0.7,0.7,0.7,1","","",""
"","html-keyboard-response","178","98262","0.0-178.0","3T111IHZ5FCHAFPNSO6Q2ZRREQ19RK","A1I0DV4B4MFQCL","3MVY4USGB69K0BK9K576GJZ2CVDSII","","null","<img src=""img/land5.png"" style=""width:200px; border:14px solid green;"">","null","","","","","","","","","",""
"","image-keyboard-response","179","98636","0.0-179.0","3T111IHZ5FCHAFPNSO6Q2ZRREQ19RK","A1I0DV4B4MFQCL","3MVY4USGB69K0BK9K576GJZ2CVDSII","","373","img/land5.png","76","373","3","1","2","2","1,0.7,0.7,0.7,1,0.7,0.7,0.7,1","1,0.7,0.7,0.7,1,0.7,0.7,0.7,1","","",""
"","html-keyboard-response","180","98944","0.0-180.0","3T111IHZ5FCHAFPNSO6Q2ZRREQ19RK","A1I0DV4B4MFQCL","3MVY4USGB69K0BK9K576GJZ2CVDSII","","null","<img src=""img/land5.png"" style=""width:200px; border:14px solid green;"">","null","","","","","","","","","",""
"","image-keyboard-response","181","99377","0.0-181.0","3T111IHZ5FCHAFPNSO6Q2ZRREQ19RK","A1I0DV4B4MFQCL","3MVY4USGB69K0BK9K576GJZ2CVDSII","","433","img/land5.png","76","434","3","1","2","2","1,0.7,0.7,0.7,1,0.7,0.7,0.7,1","1,0.7,0.7,0.7,1,0.7,0.7,0.7,1","","",""
"","html-keyboard-response","182","99679","0.0-182.0","3T111IHZ5FCHAFPNSO6Q2ZRREQ19RK","A1I0DV4B4MFQCL","3MVY4USGB69K0BK9K576GJZ2CVDSII","","null","<img src=""img/land5.png"" style=""width:200px; border:14px solid green;"">","null","","","","","","","","","",""
"","image-keyboard-response","183","100190","0.0-183.0","3T111IHZ5FCHAFPNSO6Q2ZRREQ19RK","A1I0DV4B4MFQCL","3MVY4USGB69K0BK9K576GJZ2CVDSII","","511","img/land6.png","75","511","2","0","3","2","1,0.7,0.7,0.7,1,0.7,0.7,0.7,1","1,0.7,0.7,0.7,1,0.7,0.7,0.7,1","","",""
"","html-keyboard-response","184","100496","0.0-184.0","3T111IHZ5FCHAFPNSO6Q2ZRREQ19RK","A1I0DV4B4MFQCL","3MVY4USGB69K0BK9K576GJZ2CVDSII","","null","<img src=""img/land6.png"" style=""width:200px;border:14px solid red;"">","null","","","","","","","","","",""
"","image-keyboard-response","185","101669","0.0-185.0","3T111IHZ5FCHAFPNSO6Q2ZRREQ19RK","A1I0DV4B4MFQCL","3MVY4USGB69K0BK9K576GJZ2CVDSII","","1173","img/land5.png","76","1173","3","1","2","2","1,0.7,0.7,0.7,1,0.7,0.7,0.7,1","1,0.7,0.7,0.7,1,0.7,0.7,0.7,1","","",""
"","html-keyboard-response","186","101971","0.0-186.0","3T111IHZ5FCHAFPNSO6Q2ZRREQ19RK","A1I0DV4B4MFQCL","3MVY4USGB69K0BK9K576GJZ2CVDSII","","null","<img src=""img/land5.png"" style=""width:200px; border:14px solid green;"">","null","","","","","","","","","",""
"","image-keyboard-response","187","102341","0.0-187.0","3T111IHZ5FCHAFPNSO6Q2ZRREQ19RK","A1I0DV4B4MFQCL","3MVY4USGB69K0BK9K576GJZ2CVDSII","","369","img/land5.png","76","370","3","1","2","2","1,0.7,0.7,0.7,1,0.7,0.7,0.7,1","1,0.7,0.7,0.7,1,0.7,0.7,0.7,1","","",""
"","html-keyboard-response","188","102643","0.0-188.0","3T111IHZ5FCHAFPNSO6Q2ZRREQ19RK","A1I0DV4B4MFQCL","3MVY4USGB69K0BK9K576GJZ2CVDSII","","null","<img src=""img/land5.png"" style=""width:200px; border:14px solid green;"">","null","","","","","","","","","",""
"","image-keyboard-response","189","103065","0.0-189.0","3T111IHZ5FCHAFPNSO6Q2ZRREQ19RK","A1I0DV4B4MFQCL","3MVY4USGB69K0BK9K576GJZ2CVDSII","","420","img/land5.png","76","421","3","1","2","2","1,0.7,0.7,0.7,1,0.7,0.7,0.7,1","1,0.7,0.7,0.7,1,0.7,0.7,0.7,1","","",""
"","html-keyboard-response","190","103366","0.0-190.0","3T111IHZ5FCHAFPNSO6Q2ZRREQ19RK","A1I0DV4B4MFQCL","3MVY4USGB69K0BK9K576GJZ2CVDSII","","null","<img src=""img/land5.png"" style=""width:200px; border:14px solid green;"">","null","","","","","","","","","",""
"","image-keyboard-response","191","104063","0.0-191.0","3T111IHZ5FCHAFPNSO6Q2ZRREQ19RK","A1I0DV4B4MFQCL","3MVY4USGB69K0BK9K576GJZ2CVDSII","","696","img/land6.png","75","697","2","1","3","2","1,0.7,0.7,0.7,1,0.7,0.7,0.7,1","1,0.7,0.7,0.7,1,0.7,0.7,0.7,1","","",""
"","html-keyboard-response","192","104369","0.0-192.0","3T111IHZ5FCHAFPNSO6Q2ZRREQ19RK","A1I0DV4B4MFQCL","3MVY4USGB69K0BK9K576GJZ2CVDSII","","null","<img src=""img/land6.png"" style=""width:200px; border:14px solid green;"">","null","","","","","","","","","",""
"","image-keyboard-response","193","104980","0.0-193.0","3T111IHZ5FCHAFPNSO6Q2ZRREQ19RK","A1I0DV4B4MFQCL","3MVY4USGB69K0BK9K576GJZ2CVDSII","","609","img/land4.png","74","609","1","1","1","2","1,0.7,0.7,0.7,1,0.7,0.7,0.7,1","1,0.7,0.7,0.7,1,0.7,0.7,0.7,1","","",""
"","html-keyboard-response","194","105284","0.0-194.0","3T111IHZ5FCHAFPNSO6Q2ZRREQ19RK","A1I0DV4B4MFQCL","3MVY4USGB69K0BK9K576GJZ2CVDSII","","null","<img src=""img/land4.png"" style=""width:200px; border:14px solid green;"">","null","","","","","","","","","",""
"","image-keyboard-response","195","105922","0.0-195.0","3T111IHZ5FCHAFPNSO6Q2ZRREQ19RK","A1I0DV4B4MFQCL","3MVY4USGB69K0BK9K576GJZ2CVDSII","","637","img/land5.png","75","637","2","1","2","2","1,0.7,0.7,0.7,1,0.7,0.7,0.7,1","1,0.7,0.7,0.7,1,0.7,0.7,0.7,1","","",""
"","html-keyboard-response","196","106225","0.0-196.0","3T111IHZ5FCHAFPNSO6Q2ZRREQ19RK","A1I0DV4B4MFQCL","3MVY4USGB69K0BK9K576GJZ2CVDSII","","null","<img src=""img/land5.png"" style=""width:200px; border:14px solid green;"">","null","","","","","","","","","",""
"","image-keyboard-response","197","106667","0.0-197.0","3T111IHZ5FCHAFPNSO6Q2ZRREQ19RK","A1I0DV4B4MFQCL","3MVY4USGB69K0BK9K576GJZ2CVDSII","","441","img/land6.png","76","441","3","1","3","2","1,0.7,0.7,0.7,1,0.7,0.7,0.7,1","1,0.7,0.7,0.7,1,0.7,0.7,0.7,1","","",""
"","html-keyboard-response","198","106968","0.0-198.0","3T111IHZ5FCHAFPNSO6Q2ZRREQ19RK","A1I0DV4B4MFQCL","3MVY4USGB69K0BK9K576GJZ2CVDSII","","null","<img src=""img/land6.png"" style=""width:200px; border:14px solid green;"">","null","","","","","","","","","",""
"","image-keyboard-response","199","107627","0.0-199.0","3T111IHZ5FCHAFPNSO6Q2ZRREQ19RK","A1I0DV4B4MFQCL","3MVY4USGB69K0BK9K576GJZ2CVDSII","","658","img/land4.png","75","659","2","1","1","2","1,0.7,0.7,0.7,1,0.7,0.7,0.7,1","1,0.7,0.7,0.7,1,0.7,0.7,0.7,1","","",""
"","html-keyboard-response","200","107928","0.0-200.0","3T111IHZ5FCHAFPNSO6Q2ZRREQ19RK","A1I0DV4B4MFQCL","3MVY4USGB69K0BK9K576GJZ2CVDSII","","null","<img src=""img/land4.png"" style=""width:200px; border:14px solid green;"">","null","","","","","","","","","",""
"","image-keyboard-response","201","108458","0.0-201.0","3T111IHZ5FCHAFPNSO6Q2ZRREQ19RK","A1I0DV4B4MFQCL","3MVY4USGB69K0BK9K576GJZ2CVDSII","","529","img/land4.png","74","530","1","1","1","2","1,0.7,0.7,0.7,1,0.7,0.7,0.7,1","1,0.7,0.7,0.7,1,0.7,0.7,0.7,1","","",""
"","html-keyboard-response","202","108762","0.0-202.0","3T111IHZ5FCHAFPNSO6Q2ZRREQ19RK","A1I0DV4B4MFQCL","3MVY4USGB69K0BK9K576GJZ2CVDSII","","null","<img src=""img/land4.png"" style=""width:200px; border:14px solid green;"">","null","","","","","","","","","",""
"","image-keyboard-response","203","109235","0.0-203.0","3T111IHZ5FCHAFPNSO6Q2ZRREQ19RK","A1I0DV4B4MFQCL","3MVY4USGB69K0BK9K576GJZ2CVDSII","","472","img/land4.png","74","472","1","1","1","2","1,0.7,0.7,0.7,1,0.7,0.7,0.7,1","1,0.7,0.7,0.7,1,0.7,0.7,0.7,1","","",""
"","html-keyboard-response","204","109539","0.0-204.0","3T111IHZ5FCHAFPNSO6Q2ZRREQ19RK","A1I0DV4B4MFQCL","3MVY4USGB69K0BK9K576GJZ2CVDSII","","null","<img src=""img/land4.png"" style=""width:200px; border:14px solid green;"">","null","","","","","","","","","",""
"","image-keyboard-response","205","110297","0.0-205.0","3T111IHZ5FCHAFPNSO6Q2ZRREQ19RK","A1I0DV4B4MFQCL","3MVY4USGB69K0BK9K576GJZ2CVDSII","","757","img/land5.png","76","757","3","1","2","2","1,0.7,0.7,0.7,1,0.7,0.7,0.7,1","1,0.7,0.7,0.7,1,0.7,0.7,0.7,1","","",""
"","html-keyboard-response","206","110601","0.0-206.0","3T111IHZ5FCHAFPNSO6Q2ZRREQ19RK","A1I0DV4B4MFQCL","3MVY4USGB69K0BK9K576GJZ2CVDSII","","null","<img src=""img/land5.png"" style=""width:200px; border:14px solid green;"">","null","","","","","","","","","",""
"","image-keyboard-response","207","110965","0.0-207.0","3T111IHZ5FCHAFPNSO6Q2ZRREQ19RK","A1I0DV4B4MFQCL","3MVY4USGB69K0BK9K576GJZ2CVDSII","","363","img/land5.png","76","365","3","1","2","2","1,0.7,0.7,0.7,1,0.7,0.7,0.7,1","1,0.7,0.7,0.7,1,0.7,0.7,0.7,1","","",""
"","html-keyboard-response","208","111269","0.0-208.0","3T111IHZ5FCHAFPNSO6Q2ZRREQ19RK","A1I0DV4B4MFQCL","3MVY4USGB69K0BK9K576GJZ2CVDSII","","null","<img src=""img/land5.png"" style=""width:200px; border:14px solid green;"">","null","","","","","","","","","",""
"","image-keyboard-response","209","111718","0.0-209.0","3T111IHZ5FCHAFPNSO6Q2ZRREQ19RK","A1I0DV4B4MFQCL","3MVY4USGB69K0BK9K576GJZ2CVDSII","","447","img/land6.png","75","448","2","1","3","2","1,0.7,0.7,0.7,1,0.7,0.7,0.7,1","1,0.7,0.7,0.7,1,0.7,0.7,0.7,1","","",""
"","html-keyboard-response","210","112019","0.0-210.0","3T111IHZ5FCHAFPNSO6Q2ZRREQ19RK","A1I0DV4B4MFQCL","3MVY4USGB69K0BK9K576GJZ2CVDSII","","null","<img src=""img/land6.png"" style=""width:200px; border:14px solid green;"">","null","","","","","","","","","",""
"","image-keyboard-response","211","112660","0.0-211.0","3T111IHZ5FCHAFPNSO6Q2ZRREQ19RK","A1I0DV4B4MFQCL","3MVY4USGB69K0BK9K576GJZ2CVDSII","","641","img/land5.png","76","641","3","0","2","2","1,0.7,0.7,0.7,1,0.7,0.7,0.7,1","1,0.7,0.7,0.7,1,0.7,0.7,0.7,1","","",""
"","html-keyboard-response","212","112966","0.0-212.0","3T111IHZ5FCHAFPNSO6Q2ZRREQ19RK","A1I0DV4B4MFQCL","3MVY4USGB69K0BK9K576GJZ2CVDSII","","null","<img src=""img/land5.png"" style=""width:200px;border:14px solid red;"">","null","","","","","","","","","",""
"","image-keyboard-response","213","113482","0.0-213.0","3T111IHZ5FCHAFPNSO6Q2ZRREQ19RK","A1I0DV4B4MFQCL","3MVY4USGB69K0BK9K576GJZ2CVDSII","","516","img/land4.png","75","517","2","0","1","2","1,0.7,0.7,0.7,1,0.7,0.7,0.7,1","1,0.7,0.7,0.7,1,0.7,0.7,0.7,1","","",""
"","html-keyboard-response","214","113786","0.0-214.0","3T111IHZ5FCHAFPNSO6Q2ZRREQ19RK","A1I0DV4B4MFQCL","3MVY4USGB69K0BK9K576GJZ2CVDSII","","null","<img src=""img/land4.png"" style=""width:200px;border:14px solid red;"">","null","","","","","","","","","",""
"","image-keyboard-response","215","114302","0.0-215.0","3T111IHZ5FCHAFPNSO6Q2ZRREQ19RK","A1I0DV4B4MFQCL","3MVY4USGB69K0BK9K576GJZ2CVDSII","","514","img/land4.png","74","515","1","1","1","2","1,0.7,0.7,0.7,1,0.7,0.7,0.7,1","1,0.7,0.7,0.7,1,0.7,0.7,0.7,1","","",""
"","html-keyboard-response","216","114603","0.0-216.0","3T111IHZ5FCHAFPNSO6Q2ZRREQ19RK","A1I0DV4B4MFQCL","3MVY4USGB69K0BK9K576GJZ2CVDSII","","null","<img src=""img/land4.png"" style=""width:200px; border:14px solid green;"">","null","","","","","","","","","",""
"","image-keyboard-response","217","115237","0.0-217.0","3T111IHZ5FCHAFPNSO6Q2ZRREQ19RK","A1I0DV4B4MFQCL","3MVY4USGB69K0BK9K576GJZ2CVDSII","","634","img/land5.png","76","635","3","0","2","2","1,0.7,0.7,0.7,1,0.7,0.7,0.7,1","1,0.7,0.7,0.7,1,0.7,0.7,0.7,1","","",""
"","html-keyboard-response","218","115542","0.0-218.0","3T111IHZ5FCHAFPNSO6Q2ZRREQ19RK","A1I0DV4B4MFQCL","3MVY4USGB69K0BK9K576GJZ2CVDSII","","null","<img src=""img/land5.png"" style=""width:200px;border:14px solid red;"">","null","","","","","","","","","",""
"","image-keyboard-response","219","116101","0.0-219.0","3T111IHZ5FCHAFPNSO6Q2ZRREQ19RK","A1I0DV4B4MFQCL","3MVY4USGB69K0BK9K576GJZ2CVDSII","","556","img/land4.png","75","558","2","1","1","2","1,0.7,0.7,0.7,1,0.7,0.7,0.7,1","1,0.7,0.7,0.7,1,0.7,0.7,0.7,1","","",""
"","html-keyboard-response","220","116401","0.0-220.0","3T111IHZ5FCHAFPNSO6Q2ZRREQ19RK","A1I0DV4B4MFQCL","3MVY4USGB69K0BK9K576GJZ2CVDSII","","null","<img src=""img/land4.png"" style=""width:200px; border:14px solid green;"">","null","","","","","","","","","",""
"","image-keyboard-response","221","117231","0.0-221.0","3T111IHZ5FCHAFPNSO6Q2ZRREQ19RK","A1I0DV4B4MFQCL","3MVY4USGB69K0BK9K576GJZ2CVDSII","","829","img/land5.png","76","830","3","1","2","2","1,0.7,0.7,0.7,1,0.7,0.7,0.7,1","1,0.7,0.7,0.7,1,0.7,0.7,0.7,1","","",""
"","html-keyboard-response","222","117533","0.0-222.0","3T111IHZ5FCHAFPNSO6Q2ZRREQ19RK","A1I0DV4B4MFQCL","3MVY4USGB69K0BK9K576GJZ2CVDSII","","null","<img src=""img/land5.png"" style=""width:200px; border:14px solid green;"">","null","","","","","","","","","",""
"","image-keyboard-response","223","118226","0.0-223.0","3T111IHZ5FCHAFPNSO6Q2ZRREQ19RK","A1I0DV4B4MFQCL","3MVY4USGB69K0BK9K576GJZ2CVDSII","","692","img/land6.png","75","692","2","1","3","2","1,0.7,0.7,0.7,1,0.7,0.7,0.7,1","1,0.7,0.7,0.7,1,0.7,0.7,0.7,1","","",""
"","html-keyboard-response","224","118531","0.0-224.0","3T111IHZ5FCHAFPNSO6Q2ZRREQ19RK","A1I0DV4B4MFQCL","3MVY4USGB69K0BK9K576GJZ2CVDSII","","null","<img src=""img/land6.png"" style=""width:200px; border:14px solid green;"">","null","","","","","","","","","",""
"","image-keyboard-response","225","119238","0.0-225.0","3T111IHZ5FCHAFPNSO6Q2ZRREQ19RK","A1I0DV4B4MFQCL","3MVY4USGB69K0BK9K576GJZ2CVDSII","","706","img/land4.png","74","707","1","1","1","2","1,0.7,0.7,0.7,1,0.7,0.7,0.7,1","1,0.7,0.7,0.7,1,0.7,0.7,0.7,1","","",""
"","html-keyboard-response","226","119539","0.0-226.0","3T111IHZ5FCHAFPNSO6Q2ZRREQ19RK","A1I0DV4B4MFQCL","3MVY4USGB69K0BK9K576GJZ2CVDSII","","null","<img src=""img/land4.png"" style=""width:200px; border:14px solid green;"">","null","","","","","","","","","",""
"","image-keyboard-response","227","120180","0.0-227.0","3T111IHZ5FCHAFPNSO6Q2ZRREQ19RK","A1I0DV4B4MFQCL","3MVY4USGB69K0BK9K576GJZ2CVDSII","","639","img/land6.png","75","640","2","1","3","2","1,0.7,0.7,0.7,1,0.7,0.7,0.7,1","1,0.7,0.7,0.7,1,0.7,0.7,0.7,1","","",""
"","html-keyboard-response","228","120481","0.0-228.0","3T111IHZ5FCHAFPNSO6Q2ZRREQ19RK","A1I0DV4B4MFQCL","3MVY4USGB69K0BK9K576GJZ2CVDSII","","null","<img src=""img/land6.png"" style=""width:200px; border:14px solid green;"">","null","","","","","","","","","",""
"","image-keyboard-response","229","120866","0.0-229.0","3T111IHZ5FCHAFPNSO6Q2ZRREQ19RK","A1I0DV4B4MFQCL","3MVY4USGB69K0BK9K576GJZ2CVDSII","","386","img/land6.png","75","386","2","1","3","2","1,0.7,0.7,0.7,1,0.7,0.7,0.7,1","1,0.7,0.7,0.7,1,0.7,0.7,0.7,1","","",""
"","html-keyboard-response","230","121173","0.0-230.0","3T111IHZ5FCHAFPNSO6Q2ZRREQ19RK","A1I0DV4B4MFQCL","3MVY4USGB69K0BK9K576GJZ2CVDSII","","null","<img src=""img/land6.png"" style=""width:200px; border:14px solid green;"">","null","","","","","","","","","",""
"","image-keyboard-response","231","121526","0.0-231.0","3T111IHZ5FCHAFPNSO6Q2ZRREQ19RK","A1I0DV4B4MFQCL","3MVY4USGB69K0BK9K576GJZ2CVDSII","","352","img/land6.png","75","352","2","1","3","2","1,0.7,0.7,0.7,1,0.7,0.7,0.7,1","1,0.7,0.7,0.7,1,0.7,0.7,0.7,1","","",""
"","html-keyboard-response","232","121830","0.0-232.0","3T111IHZ5FCHAFPNSO6Q2ZRREQ19RK","A1I0DV4B4MFQCL","3MVY4USGB69K0BK9K576GJZ2CVDSII","","null","<img src=""img/land6.png"" style=""width:200px; border:14px solid green;"">","null","","","","","","","","","",""
"","image-keyboard-response","233","122232","0.0-233.0","3T111IHZ5FCHAFPNSO6Q2ZRREQ19RK","A1I0DV4B4MFQCL","3MVY4USGB69K0BK9K576GJZ2CVDSII","","401","img/land6.png","75","403","2","1","3","2","1,0.7,0.7,0.7,1,0.7,0.7,0.7,1","1,0.7,0.7,0.7,1,0.7,0.7,0.7,1","","",""
"","html-keyboard-response","234","122533","0.0-234.0","3T111IHZ5FCHAFPNSO6Q2ZRREQ19RK","A1I0DV4B4MFQCL","3MVY4USGB69K0BK9K576GJZ2CVDSII","","null","<img src=""img/land6.png"" style=""width:200px; border:14px solid green;"">","null","","","","","","","","","",""
"","image-keyboard-response","235","122950","0.0-235.0","3T111IHZ5FCHAFPNSO6Q2ZRREQ19RK","A1I0DV4B4MFQCL","3MVY4USGB69K0BK9K576GJZ2CVDSII","","415","img/land6.png","75","416","2","1","3","2","1,0.7,0.7,0.7,1,0.7,0.7,0.7,1","1,0.7,0.7,0.7,1,0.7,0.7,0.7,1","","",""
"","html-keyboard-response","236","123252","0.0-236.0","3T111IHZ5FCHAFPNSO6Q2ZRREQ19RK","A1I0DV4B4MFQCL","3MVY4USGB69K0BK9K576GJZ2CVDSII","","null","<img src=""img/land6.png"" style=""width:200px; border:14px solid green;"">","null","","","","","","","","","",""
"","image-keyboard-response","237","123862","0.0-237.0","3T111IHZ5FCHAFPNSO6Q2ZRREQ19RK","A1I0DV4B4MFQCL","3MVY4USGB69K0BK9K576GJZ2CVDSII","","609","img/land5.png","76","610","3","0","2","2","1,0.7,0.7,0.7,1,0.7,0.7,0.7,1","1,0.7,0.7,0.7,1,0.7,0.7,0.7,1","","",""
"","html-keyboard-response","238","124164","0.0-238.0","3T111IHZ5FCHAFPNSO6Q2ZRREQ19RK","A1I0DV4B4MFQCL","3MVY4USGB69K0BK9K576GJZ2CVDSII","","null","<img src=""img/land5.png"" style=""width:200px;border:14px solid red;"">","null","","","","","","","","","",""
"","image-keyboard-response","239","124789","0.0-239.0","3T111IHZ5FCHAFPNSO6Q2ZRREQ19RK","A1I0DV4B4MFQCL","3MVY4USGB69K0BK9K576GJZ2CVDSII","","624","img/land4.png","74","626","1","1","1","2","1,0.7,0.7,0.7,1,0.7,0.7,0.7,1","1,0.7,0.7,0.7,1,0.7,0.7,0.7,1","","",""
"","html-keyboard-response","240","125096","0.0-240.0","3T111IHZ5FCHAFPNSO6Q2ZRREQ19RK","A1I0DV4B4MFQCL","3MVY4USGB69K0BK9K576GJZ2CVDSII","","null","<img src=""img/land4.png"" style=""width:200px; border:14px solid green;"">","null","","","","","","","","","",""
"","image-keyboard-response","241","125584","0.0-241.0","3T111IHZ5FCHAFPNSO6Q2ZRREQ19RK","A1I0DV4B4MFQCL","3MVY4USGB69K0BK9K576GJZ2CVDSII","","487","img/land6.png","76","488","3","1","3","2","1,0.7,0.7,0.7,1,0.7,0.7,0.7,1","1,0.7,0.7,0.7,1,0.7,0.7,0.7,1","","",""
"","html-keyboard-response","242","125885","0.0-242.0","3T111IHZ5FCHAFPNSO6Q2ZRREQ19RK","A1I0DV4B4MFQCL","3MVY4USGB69K0BK9K576GJZ2CVDSII","","null","<img src=""img/land6.png"" style=""width:200px; border:14px solid green;"">","null","","","","","","","","","",""
"","image-keyboard-response","243","126175","0.0-243.0","3T111IHZ5FCHAFPNSO6Q2ZRREQ19RK","A1I0DV4B4MFQCL","3MVY4USGB69K0BK9K576GJZ2CVDSII","","288","img/land4.png","75","288","2","1","1","2","1,0.7,0.7,0.7,1,0.7,0.7,0.7,1","1,0.7,0.7,0.7,1,0.7,0.7,0.7,1","","",""
"","html-keyboard-response","244","126479","0.0-244.0","3T111IHZ5FCHAFPNSO6Q2ZRREQ19RK","A1I0DV4B4MFQCL","3MVY4USGB69K0BK9K576GJZ2CVDSII","","null","<img src=""img/land4.png"" style=""width:200px; border:14px solid green;"">","null","","","","","","","","","",""
"","image-keyboard-response","245","126903","0.0-245.0","3T111IHZ5FCHAFPNSO6Q2ZRREQ19RK","A1I0DV4B4MFQCL","3MVY4USGB69K0BK9K576GJZ2CVDSII","","423","img/land6.png","74","424","1","0","3","2","1,0.7,0.7,0.7,1,0.7,0.7,0.7,1","1,0.7,0.7,0.7,1,0.7,0.7,0.7,1","","",""
"","html-keyboard-response","246","127208","0.0-246.0","3T111IHZ5FCHAFPNSO6Q2ZRREQ19RK","A1I0DV4B4MFQCL","3MVY4USGB69K0BK9K576GJZ2CVDSII","","null","<img src=""img/land6.png"" style=""width:200px;border:14px solid red;"">","null","","","","","","","","","",""
"","image-keyboard-response","247","127787","0.0-247.0","3T111IHZ5FCHAFPNSO6Q2ZRREQ19RK","A1I0DV4B4MFQCL","3MVY4USGB69K0BK9K576GJZ2CVDSII","","579","img/land5.png","74","579","1","1","2","2","1,0.7,0.7,0.7,1,0.7,0.7,0.7,1","1,0.7,0.7,0.7,1,0.7,0.7,0.7,1","","",""
"","html-keyboard-response","248","128090","0.0-248.0","3T111IHZ5FCHAFPNSO6Q2ZRREQ19RK","A1I0DV4B4MFQCL","3MVY4USGB69K0BK9K576GJZ2CVDSII","","null","<img src=""img/land5.png"" style=""width:200px; border:14px solid green;"">","null","","","","","","","","","",""
"","image-keyboard-response","249","128506","0.0-249.0","3T111IHZ5FCHAFPNSO6Q2ZRREQ19RK","A1I0DV4B4MFQCL","3MVY4USGB69K0BK9K576GJZ2CVDSII","","415","img/land6.png","76","416","3","1","3","2","1,0.7,0.7,0.7,1,0.7,0.7,0.7,1","1,0.7,0.7,0.7,1,0.7,0.7,0.7,1","","",""
"","html-keyboard-response","250","128812","0.0-250.0","3T111IHZ5FCHAFPNSO6Q2ZRREQ19RK","A1I0DV4B4MFQCL","3MVY4USGB69K0BK9K576GJZ2CVDSII","","null","<img src=""img/land6.png"" style=""width:200px; border:14px solid green;"">","null","","","","","","","","","",""
"","image-keyboard-response","251","129215","0.0-251.0","3T111IHZ5FCHAFPNSO6Q2ZRREQ19RK","A1I0DV4B4MFQCL","3MVY4USGB69K0BK9K576GJZ2CVDSII","","402","img/land6.png","75","404","2","0","3","2","1,0.7,0.7,0.7,1,0.7,0.7,0.7,1","1,0.7,0.7,0.7,1,0.7,0.7,0.7,1","","",""
"","html-keyboard-response","252","129519","0.0-252.0","3T111IHZ5FCHAFPNSO6Q2ZRREQ19RK","A1I0DV4B4MFQCL","3MVY4USGB69K0BK9K576GJZ2CVDSII","","null","<img src=""img/land6.png"" style=""width:200px;border:14px solid red;"">","null","","","","","","","","","",""
"","image-keyboard-response","253","130510","0.0-253.0","3T111IHZ5FCHAFPNSO6Q2ZRREQ19RK","A1I0DV4B4MFQCL","3MVY4USGB69K0BK9K576GJZ2CVDSII","","992","img/land4.png","74","992","1","1","1","2","1,0.7,0.7,0.7,1,0.7,0.7,0.7,1","1,0.7,0.7,0.7,1,0.7,0.7,0.7,1","","",""
"","html-keyboard-response","254","130812","0.0-254.0","3T111IHZ5FCHAFPNSO6Q2ZRREQ19RK","A1I0DV4B4MFQCL","3MVY4USGB69K0BK9K576GJZ2CVDSII","","null","<img src=""img/land4.png"" style=""width:200px; border:14px solid green;"">","null","","","","","","","","","",""
"","image-keyboard-response","255","131147","0.0-255.0","3T111IHZ5FCHAFPNSO6Q2ZRREQ19RK","A1I0DV4B4MFQCL","3MVY4USGB69K0BK9K576GJZ2CVDSII","","332","img/land4.png","74","334","1","1","1","2","1,0.7,0.7,0.7,1,0.7,0.7,0.7,1","1,0.7,0.7,0.7,1,0.7,0.7,0.7,1","","",""
"","html-keyboard-response","256","131452","0.0-256.0","3T111IHZ5FCHAFPNSO6Q2ZRREQ19RK","A1I0DV4B4MFQCL","3MVY4USGB69K0BK9K576GJZ2CVDSII","","null","<img src=""img/land4.png"" style=""width:200px; border:14px solid green;"">","null","","","","","","","","","",""
"","image-keyboard-response","257","131803","0.0-257.0","3T111IHZ5FCHAFPNSO6Q2ZRREQ19RK","A1I0DV4B4MFQCL","3MVY4USGB69K0BK9K576GJZ2CVDSII","","350","img/land4.png","74","351","1","1","1","2","1,0.7,0.7,0.7,1,0.7,0.7,0.7,1","1,0.7,0.7,0.7,1,0.7,0.7,0.7,1","","",""
"","html-keyboard-response","258","132109","0.0-258.0","3T111IHZ5FCHAFPNSO6Q2ZRREQ19RK","A1I0DV4B4MFQCL","3MVY4USGB69K0BK9K576GJZ2CVDSII","","null","<img src=""img/land4.png"" style=""width:200px; border:14px solid green;"">","null","","","","","","","","","",""
"","image-keyboard-response","259","132498","0.0-259.0","3T111IHZ5FCHAFPNSO6Q2ZRREQ19RK","A1I0DV4B4MFQCL","3MVY4USGB69K0BK9K576GJZ2CVDSII","","387","img/land6.png","75","388","2","1","3","2","1,0.7,0.7,0.7,1,0.7,0.7,0.7,1","1,0.7,0.7,0.7,1,0.7,0.7,0.7,1","","",""
"","html-keyboard-response","260","132804","0.0-260.0","3T111IHZ5FCHAFPNSO6Q2ZRREQ19RK","A1I0DV4B4MFQCL","3MVY4USGB69K0BK9K576GJZ2CVDSII","","null","<img src=""img/land6.png"" style=""width:200px; border:14px solid green;"">","null","","","","","","","","","",""
"","image-keyboard-response","261","133504","0.0-261.0","3T111IHZ5FCHAFPNSO6Q2ZRREQ19RK","A1I0DV4B4MFQCL","3MVY4USGB69K0BK9K576GJZ2CVDSII","","699","img/land4.png","74","700","1","1","1","2","1,0.7,0.7,0.7,1,0.7,0.7,0.7,1","1,0.7,0.7,0.7,1,0.7,0.7,0.7,1","","",""
"","html-keyboard-response","262","133805","0.0-262.0","3T111IHZ5FCHAFPNSO6Q2ZRREQ19RK","A1I0DV4B4MFQCL","3MVY4USGB69K0BK9K576GJZ2CVDSII","","null","<img src=""img/land4.png"" style=""width:200px; border:14px solid green;"">","null","","","","","","","","","",""
"","image-keyboard-response","263","134331","0.0-263.0","3T111IHZ5FCHAFPNSO6Q2ZRREQ19RK","A1I0DV4B4MFQCL","3MVY4USGB69K0BK9K576GJZ2CVDSII","","526","img/land5.png","75","526","2","1","2","2","1,0.7,0.7,0.7,1,0.7,0.7,0.7,1","1,0.7,0.7,0.7,1,0.7,0.7,0.7,1","","",""
"","html-keyboard-response","264","134637","0.0-264.0","3T111IHZ5FCHAFPNSO6Q2ZRREQ19RK","A1I0DV4B4MFQCL","3MVY4USGB69K0BK9K576GJZ2CVDSII","","null","<img src=""img/land5.png"" style=""width:200px; border:14px solid green;"">","null","","","","","","","","","",""
"","image-keyboard-response","265","135126","0.0-265.0","3T111IHZ5FCHAFPNSO6Q2ZRREQ19RK","A1I0DV4B4MFQCL","3MVY4USGB69K0BK9K576GJZ2CVDSII","","488","img/land5.png","76","489","3","0","2","2","1,0.7,0.7,0.7,1,0.7,0.7,0.7,1","1,0.7,0.7,0.7,1,0.7,0.7,0.7,1","","",""
"","html-keyboard-response","266","135431","0.0-266.0","3T111IHZ5FCHAFPNSO6Q2ZRREQ19RK","A1I0DV4B4MFQCL","3MVY4USGB69K0BK9K576GJZ2CVDSII","","null","<img src=""img/land5.png"" style=""width:200px;border:14px solid red;"">","null","","","","","","","","","",""
"","image-keyboard-response","267","136061","0.0-267.0","3T111IHZ5FCHAFPNSO6Q2ZRREQ19RK","A1I0DV4B4MFQCL","3MVY4USGB69K0BK9K576GJZ2CVDSII","","629","img/land4.png","75","629","2","0","1","2","1,0.7,0.7,0.7,1,0.7,0.7,0.7,1","1,0.7,0.7,0.7,1,0.7,0.7,0.7,1","","",""
"","html-keyboard-response","268","136380","0.0-268.0","3T111IHZ5FCHAFPNSO6Q2ZRREQ19RK","A1I0DV4B4MFQCL","3MVY4USGB69K0BK9K576GJZ2CVDSII","","null","<img src=""img/land4.png"" style=""width:200px;border:14px solid red;"">","null","","","","","","","","","",""
"","image-keyboard-response","269","137069","0.0-269.0","3T111IHZ5FCHAFPNSO6Q2ZRREQ19RK","A1I0DV4B4MFQCL","3MVY4USGB69K0BK9K576GJZ2CVDSII","","689","img/land4.png","74","689","1","1","1","2","1,0.7,0.7,0.7,1,0.7,0.7,0.7,1","1,0.7,0.7,0.7,1,0.7,0.7,0.7,1","","",""
"","html-keyboard-response","270","137375","0.0-270.0","3T111IHZ5FCHAFPNSO6Q2ZRREQ19RK","A1I0DV4B4MFQCL","3MVY4USGB69K0BK9K576GJZ2CVDSII","","null","<img src=""img/land4.png"" style=""width:200px; border:14px solid green;"">","null","","","","","","","","","",""
"","image-keyboard-response","271","137893","0.0-271.0","3T111IHZ5FCHAFPNSO6Q2ZRREQ19RK","A1I0DV4B4MFQCL","3MVY4USGB69K0BK9K576GJZ2CVDSII","","516","img/land6.png","75","517","2","0","3","2","1,0.7,0.7,0.7,1,0.7,0.7,0.7,1","1,0.7,0.7,0.7,1,0.7,0.7,0.7,1","","",""
"","html-keyboard-response","272","138195","0.0-272.0","3T111IHZ5FCHAFPNSO6Q2ZRREQ19RK","A1I0DV4B4MFQCL","3MVY4USGB69K0BK9K576GJZ2CVDSII","","null","<img src=""img/land6.png"" style=""width:200px;border:14px solid red;"">","null","","","","","","","","","",""
"","image-keyboard-response","273","138787","0.0-273.0","3T111IHZ5FCHAFPNSO6Q2ZRREQ19RK","A1I0DV4B4MFQCL","3MVY4USGB69K0BK9K576GJZ2CVDSII","","592","img/land5.png","76","592","3","0","2","2","1,0.7,0.7,0.7,1,0.7,0.7,0.7,1","1,0.7,0.7,0.7,1,0.7,0.7,0.7,1","","",""
"","html-keyboard-response","274","139089","0.0-274.0","3T111IHZ5FCHAFPNSO6Q2ZRREQ19RK","A1I0DV4B4MFQCL","3MVY4USGB69K0BK9K576GJZ2CVDSII","","null","<img src=""img/land5.png"" style=""width:200px;border:14px solid red;"">","null","","","","","","","","","",""
"","image-keyboard-response","275","139729","0.0-275.0","3T111IHZ5FCHAFPNSO6Q2ZRREQ19RK","A1I0DV4B4MFQCL","3MVY4USGB69K0BK9K576GJZ2CVDSII","","640","img/land4.png","75","640","2","1","1","2","1,0.7,0.7,0.7,1,0.7,0.7,0.7,1","1,0.7,0.7,0.7,1,0.7,0.7,0.7,1","","",""
"","html-keyboard-response","276","140032","0.0-276.0","3T111IHZ5FCHAFPNSO6Q2ZRREQ19RK","A1I0DV4B4MFQCL","3MVY4USGB69K0BK9K576GJZ2CVDSII","","null","<img src=""img/land4.png"" style=""width:200px; border:14px solid green;"">","null","","","","","","","","","",""
"","image-keyboard-response","277","140517","0.0-277.0","3T111IHZ5FCHAFPNSO6Q2ZRREQ19RK","A1I0DV4B4MFQCL","3MVY4USGB69K0BK9K576GJZ2CVDSII","","486","img/land4.png","75","487","2","1","1","2","1,0.7,0.7,0.7,1,0.7,0.7,0.7,1","1,0.7,0.7,0.7,1,0.7,0.7,0.7,1","","",""
"","html-keyboard-response","278","140824","0.0-278.0","3T111IHZ5FCHAFPNSO6Q2ZRREQ19RK","A1I0DV4B4MFQCL","3MVY4USGB69K0BK9K576GJZ2CVDSII","","null","<img src=""img/land4.png"" style=""width:200px; border:14px solid green;"">","null","","","","","","","","","",""
"","image-keyboard-response","279","141177","0.0-279.0","3T111IHZ5FCHAFPNSO6Q2ZRREQ19RK","A1I0DV4B4MFQCL","3MVY4USGB69K0BK9K576GJZ2CVDSII","","352","img/land4.png","75","352","2","0","1","2","1,0.7,0.7,0.7,1,0.7,0.7,0.7,1","1,0.7,0.7,0.7,1,0.7,0.7,0.7,1","","",""
"","html-keyboard-response","280","141477","0.0-280.0","3T111IHZ5FCHAFPNSO6Q2ZRREQ19RK","A1I0DV4B4MFQCL","3MVY4USGB69K0BK9K576GJZ2CVDSII","","null","<img src=""img/land4.png"" style=""width:200px;border:14px solid red;"">","null","","","","","","","","","",""
"","image-keyboard-response","281","142238","0.0-281.0","3T111IHZ5FCHAFPNSO6Q2ZRREQ19RK","A1I0DV4B4MFQCL","3MVY4USGB69K0BK9K576GJZ2CVDSII","","759","img/land5.png","76","760","3","1","2","2","1,0.7,0.7,0.7,1,0.7,0.7,0.7,1","1,0.7,0.7,0.7,1,0.7,0.7,0.7,1","","",""
"","html-keyboard-response","282","142542","0.0-282.0","3T111IHZ5FCHAFPNSO6Q2ZRREQ19RK","A1I0DV4B4MFQCL","3MVY4USGB69K0BK9K576GJZ2CVDSII","","null","<img src=""img/land5.png"" style=""width:200px; border:14px solid green;"">","null","","","","","","","","","",""
"","image-keyboard-response","283","142898","0.0-283.0","3T111IHZ5FCHAFPNSO6Q2ZRREQ19RK","A1I0DV4B4MFQCL","3MVY4USGB69K0BK9K576GJZ2CVDSII","","357","img/land5.png","76","358","3","1","2","2","1,0.7,0.7,0.7,1,0.7,0.7,0.7,1","1,0.7,0.7,0.7,1,0.7,0.7,0.7,1","","",""
"","html-keyboard-response","284","143205","0.0-284.0","3T111IHZ5FCHAFPNSO6Q2ZRREQ19RK","A1I0DV4B4MFQCL","3MVY4USGB69K0BK9K576GJZ2CVDSII","","null","<img src=""img/land5.png"" style=""width:200px; border:14px solid green;"">","null","","","","","","","","","",""
"","image-keyboard-response","285","143718","0.0-285.0","3T111IHZ5FCHAFPNSO6Q2ZRREQ19RK","A1I0DV4B4MFQCL","3MVY4USGB69K0BK9K576GJZ2CVDSII","","513","img/land6.png","75","515","2","1","3","2","1,0.7,0.7,0.7,1,0.7,0.7,0.7,1","1,0.7,0.7,0.7,1,0.7,0.7,0.7,1","","",""
"","html-keyboard-response","286","144023","0.0-286.0","3T111IHZ5FCHAFPNSO6Q2ZRREQ19RK","A1I0DV4B4MFQCL","3MVY4USGB69K0BK9K576GJZ2CVDSII","","null","<img src=""img/land6.png"" style=""width:200px; border:14px solid green;"">","null","","","","","","","","","",""
"","image-keyboard-response","287","145099","0.0-287.0","3T111IHZ5FCHAFPNSO6Q2ZRREQ19RK","A1I0DV4B4MFQCL","3MVY4USGB69K0BK9K576GJZ2CVDSII","","1075","img/land4.png","74","1077","1","1","1","2","1,0.7,0.7,0.7,1,0.7,0.7,0.7,1","1,0.7,0.7,0.7,1,0.7,0.7,0.7,1","","",""
"","html-keyboard-response","288","145404","0.0-288.0","3T111IHZ5FCHAFPNSO6Q2ZRREQ19RK","A1I0DV4B4MFQCL","3MVY4USGB69K0BK9K576GJZ2CVDSII","","null","<img src=""img/land4.png"" style=""width:200px; border:14px solid green;"">","null","","","","","","","","","",""
"","image-keyboard-response","289","146063","0.0-289.0","3T111IHZ5FCHAFPNSO6Q2ZRREQ19RK","A1I0DV4B4MFQCL","3MVY4USGB69K0BK9K576GJZ2CVDSII","","658","img/land5.png","76","660","3","0","2","2","1,0.7,0.7,0.7,1,0.7,0.7,0.7,1","1,0.7,0.7,0.7,1,0.7,0.7,0.7,1","","",""
"","html-keyboard-response","290","146365","0.0-290.0","3T111IHZ5FCHAFPNSO6Q2ZRREQ19RK","A1I0DV4B4MFQCL","3MVY4USGB69K0BK9K576GJZ2CVDSII","","null","<img src=""img/land5.png"" style=""width:200px;border:14px solid red;"">","null","","","","","","","","","",""
"","image-keyboard-response","291","146781","0.0-291.0","3T111IHZ5FCHAFPNSO6Q2ZRREQ19RK","A1I0DV4B4MFQCL","3MVY4USGB69K0BK9K576GJZ2CVDSII","","414","img/land5.png","76","415","3","1","2","2","1,0.7,0.7,0.7,1,0.7,0.7,0.7,1","1,0.7,0.7,0.7,1,0.7,0.7,0.7,1","","",""
"","html-keyboard-response","292","147084","0.0-292.0","3T111IHZ5FCHAFPNSO6Q2ZRREQ19RK","A1I0DV4B4MFQCL","3MVY4USGB69K0BK9K576GJZ2CVDSII","","null","<img src=""img/land5.png"" style=""width:200px; border:14px solid green;"">","null","","","","","","","","","",""
"","image-keyboard-response","293","147484","0.0-293.0","3T111IHZ5FCHAFPNSO6Q2ZRREQ19RK","A1I0DV4B4MFQCL","3MVY4USGB69K0BK9K576GJZ2CVDSII","","398","img/land5.png","76","399","3","1","2","2","1,0.7,0.7,0.7,1,0.7,0.7,0.7,1","1,0.7,0.7,0.7,1,0.7,0.7,0.7,1","","",""
"","html-keyboard-response","294","147790","0.0-294.0","3T111IHZ5FCHAFPNSO6Q2ZRREQ19RK","A1I0DV4B4MFQCL","3MVY4USGB69K0BK9K576GJZ2CVDSII","","null","<img src=""img/land5.png"" style=""width:200px; border:14px solid green;"">","null","","","","","","","","","",""
"","image-keyboard-response","295","148192","0.0-295.0","3T111IHZ5FCHAFPNSO6Q2ZRREQ19RK","A1I0DV4B4MFQCL","3MVY4USGB69K0BK9K576GJZ2CVDSII","","401","img/land6.png","75","401","2","1","3","2","1,0.7,0.7,0.7,1,0.7,0.7,0.7,1","1,0.7,0.7,0.7,1,0.7,0.7,0.7,1","","",""
"","html-keyboard-response","296","148498","0.0-296.0","3T111IHZ5FCHAFPNSO6Q2ZRREQ19RK","A1I0DV4B4MFQCL","3MVY4USGB69K0BK9K576GJZ2CVDSII","","null","<img src=""img/land6.png"" style=""width:200px; border:14px solid green;"">","null","","","","","","","","","",""
"","image-keyboard-response","297","148865","0.0-297.0","3T111IHZ5FCHAFPNSO6Q2ZRREQ19RK","A1I0DV4B4MFQCL","3MVY4USGB69K0BK9K576GJZ2CVDSII","","364","img/land6.png","75","365","2","1","3","2","1,0.7,0.7,0.7,1,0.7,0.7,0.7,1","1,0.7,0.7,0.7,1,0.7,0.7,0.7,1","","",""
"","html-keyboard-response","298","149165","0.0-298.0","3T111IHZ5FCHAFPNSO6Q2ZRREQ19RK","A1I0DV4B4MFQCL","3MVY4USGB69K0BK9K576GJZ2CVDSII","","null","<img src=""img/land6.png"" style=""width:200px; border:14px solid green;"">","null","","","","","","","","","",""
"","image-keyboard-response","299","149801","0.0-299.0","3T111IHZ5FCHAFPNSO6Q2ZRREQ19RK","A1I0DV4B4MFQCL","3MVY4USGB69K0BK9K576GJZ2CVDSII","","635","img/land4.png","74","636","1","1","1","2","1,0.7,0.7,0.7,1,0.7,0.7,0.7,1","1,0.7,0.7,0.7,1,0.7,0.7,0.7,1","","",""
"","html-keyboard-response","300","150106","0.0-300.0","3T111IHZ5FCHAFPNSO6Q2ZRREQ19RK","A1I0DV4B4MFQCL","3MVY4USGB69K0BK9K576GJZ2CVDSII","","null","<img src=""img/land4.png"" style=""width:200px; border:14px solid green;"">","null","","","","","","","","","",""
"","image-keyboard-response","301","150407","0.0-301.0","3T111IHZ5FCHAFPNSO6Q2ZRREQ19RK","A1I0DV4B4MFQCL","3MVY4USGB69K0BK9K576GJZ2CVDSII","","300","img/land4.png","74","301","1","1","1","2","1,0.7,0.7,0.7,1,0.7,0.7,0.7,1","1,0.7,0.7,0.7,1,0.7,0.7,0.7,1","","",""
"","html-keyboard-response","302","150709","0.0-302.0","3T111IHZ5FCHAFPNSO6Q2ZRREQ19RK","A1I0DV4B4MFQCL","3MVY4USGB69K0BK9K576GJZ2CVDSII","","null","<img src=""img/land4.png"" style=""width:200px; border:14px solid green;"">","null","","","","","","","","","",""
"","image-keyboard-response","303","151324","0.0-303.0","3T111IHZ5FCHAFPNSO6Q2ZRREQ19RK","A1I0DV4B4MFQCL","3MVY4USGB69K0BK9K576GJZ2CVDSII","","612","img/land5.png","76","614","3","1","2","2","1,0.7,0.7,0.7,1,0.7,0.7,0.7,1","1,0.7,0.7,0.7,1,0.7,0.7,0.7,1","","",""
"","html-keyboard-response","304","151627","0.0-304.0","3T111IHZ5FCHAFPNSO6Q2ZRREQ19RK","A1I0DV4B4MFQCL","3MVY4USGB69K0BK9K576GJZ2CVDSII","","null","<img src=""img/land5.png"" style=""width:200px; border:14px solid green;"">","null","","","","","","","","","",""
"","image-keyboard-response","305","152088","0.0-305.0","3T111IHZ5FCHAFPNSO6Q2ZRREQ19RK","A1I0DV4B4MFQCL","3MVY4USGB69K0BK9K576GJZ2CVDSII","","460","img/land6.png","75","460","2","1","3","2","1,0.7,0.7,0.7,1,0.7,0.7,0.7,1","1,0.7,0.7,0.7,1,0.7,0.7,0.7,1","","",""
"","html-keyboard-response","306","152391","0.0-306.0","3T111IHZ5FCHAFPNSO6Q2ZRREQ19RK","A1I0DV4B4MFQCL","3MVY4USGB69K0BK9K576GJZ2CVDSII","","null","<img src=""img/land6.png"" style=""width:200px; border:14px solid green;"">","null","","","","","","","","","",""
"","image-keyboard-response","307","152966","0.0-307.0","3T111IHZ5FCHAFPNSO6Q2ZRREQ19RK","A1I0DV4B4MFQCL","3MVY4USGB69K0BK9K576GJZ2CVDSII","","574","img/land5.png","76","576","3","1","2","2","1,0.7,0.7,0.7,1,0.7,0.7,0.7,1","1,0.7,0.7,0.7,1,0.7,0.7,0.7,1","","",""
"","html-keyboard-response","308","153273","0.0-308.0","3T111IHZ5FCHAFPNSO6Q2ZRREQ19RK","A1I0DV4B4MFQCL","3MVY4USGB69K0BK9K576GJZ2CVDSII","","null","<img src=""img/land5.png"" style=""width:200px; border:14px solid green;"">","null","","","","","","","","","",""
"","image-keyboard-response","309","153748","0.0-309.0","3T111IHZ5FCHAFPNSO6Q2ZRREQ19RK","A1I0DV4B4MFQCL","3MVY4USGB69K0BK9K576GJZ2CVDSII","","474","img/land6.png","75","475","2","1","3","2","1,0.7,0.7,0.7,1,0.7,0.7,0.7,1","1,0.7,0.7,0.7,1,0.7,0.7,0.7,1","","",""
"","html-keyboard-response","310","154053","0.0-310.0","3T111IHZ5FCHAFPNSO6Q2ZRREQ19RK","A1I0DV4B4MFQCL","3MVY4USGB69K0BK9K576GJZ2CVDSII","","null","<img src=""img/land6.png"" style=""width:200px; border:14px solid green;"">","null","","","","","","","","","",""
"","image-keyboard-response","311","154462","0.0-311.0","3T111IHZ5FCHAFPNSO6Q2ZRREQ19RK","A1I0DV4B4MFQCL","3MVY4USGB69K0BK9K576GJZ2CVDSII","","408","img/land6.png","75","408","2","1","3","2","1,0.7,0.7,0.7,1,0.7,0.7,0.7,1","1,0.7,0.7,0.7,1,0.7,0.7,0.7,1","","",""
"","html-keyboard-response","312","154768","0.0-312.0","3T111IHZ5FCHAFPNSO6Q2ZRREQ19RK","A1I0DV4B4MFQCL","3MVY4USGB69K0BK9K576GJZ2CVDSII","","null","<img src=""img/land6.png"" style=""width:200px; border:14px solid green;"">","null","","","","","","","","","",""
"","image-keyboard-response","313","155176","0.0-313.0","3T111IHZ5FCHAFPNSO6Q2ZRREQ19RK","A1I0DV4B4MFQCL","3MVY4USGB69K0BK9K576GJZ2CVDSII","","407","img/land6.png","75","407","2","1","3","2","1,0.7,0.7,0.7,1,0.7,0.7,0.7,1","1,0.7,0.7,0.7,1,0.7,0.7,0.7,1","","",""
"","html-keyboard-response","314","155482","0.0-314.0","3T111IHZ5FCHAFPNSO6Q2ZRREQ19RK","A1I0DV4B4MFQCL","3MVY4USGB69K0BK9K576GJZ2CVDSII","","null","<img src=""img/land6.png"" style=""width:200px; border:14px solid green;"">","null","","","","","","","","","",""
"","image-keyboard-response","315","156090","0.0-315.0","3T111IHZ5FCHAFPNSO6Q2ZRREQ19RK","A1I0DV4B4MFQCL","3MVY4USGB69K0BK9K576GJZ2CVDSII","","609","img/land4.png","74","609","1","1","1","2","1,0.7,0.7,0.7,1,0.7,0.7,0.7,1","1,0.7,0.7,0.7,1,0.7,0.7,0.7,1","","",""
"","html-keyboard-response","316","156391","0.0-316.0","3T111IHZ5FCHAFPNSO6Q2ZRREQ19RK","A1I0DV4B4MFQCL","3MVY4USGB69K0BK9K576GJZ2CVDSII","","null","<img src=""img/land4.png"" style=""width:200px; border:14px solid green;"">","null","","","","","","","","","",""
"","image-keyboard-response","317","156758","0.0-317.0","3T111IHZ5FCHAFPNSO6Q2ZRREQ19RK","A1I0DV4B4MFQCL","3MVY4USGB69K0BK9K576GJZ2CVDSII","","365","img/land4.png","74","367","1","1","1","2","1,0.7,0.7,0.7,1,0.7,0.7,0.7,1","1,0.7,0.7,0.7,1,0.7,0.7,0.7,1","","",""
"","html-keyboard-response","318","157061","0.0-318.0","3T111IHZ5FCHAFPNSO6Q2ZRREQ19RK","A1I0DV4B4MFQCL","3MVY4USGB69K0BK9K576GJZ2CVDSII","","null","<img src=""img/land4.png"" style=""width:200px; border:14px solid green;"">","null","","","","","","","","","",""
"","image-keyboard-response","319","157527","0.0-319.0","3T111IHZ5FCHAFPNSO6Q2ZRREQ19RK","A1I0DV4B4MFQCL","3MVY4USGB69K0BK9K576GJZ2CVDSII","","466","img/land6.png","76","466","3","1","3","2","1,0.7,0.7,0.7,1,0.7,0.7,0.7,1","1,0.7,0.7,0.7,1,0.7,0.7,0.7,1","","",""
"","html-keyboard-response","320","157830","0.0-320.0","3T111IHZ5FCHAFPNSO6Q2ZRREQ19RK","A1I0DV4B4MFQCL","3MVY4USGB69K0BK9K576GJZ2CVDSII","","null","<img src=""img/land6.png"" style=""width:200px; border:14px solid green;"">","null","","","","","","","","","",""
"","image-keyboard-response","321","158039","0.0-321.0","3T111IHZ5FCHAFPNSO6Q2ZRREQ19RK","A1I0DV4B4MFQCL","3MVY4USGB69K0BK9K576GJZ2CVDSII","","208","img/land4.png","75","208","2","0","1","2","1,0.7,0.7,0.7,1,0.7,0.7,0.7,1","1,0.7,0.7,0.7,1,0.7,0.7,0.7,1","","",""
"","html-keyboard-response","322","158345","0.0-322.0","3T111IHZ5FCHAFPNSO6Q2ZRREQ19RK","A1I0DV4B4MFQCL","3MVY4USGB69K0BK9K576GJZ2CVDSII","","null","<img src=""img/land4.png"" style=""width:200px;border:14px solid red;"">","null","","","","","","","","","",""
"","image-keyboard-response","323","158711","0.0-323.0","3T111IHZ5FCHAFPNSO6Q2ZRREQ19RK","A1I0DV4B4MFQCL","3MVY4USGB69K0BK9K576GJZ2CVDSII","","365","img/land6.png","74","366","1","0","3","2","1,0.7,0.7,0.7,1,0.7,0.7,0.7,1","1,0.7,0.7,0.7,1,0.7,0.7,0.7,1","","",""
"","html-keyboard-response","324","159018","0.0-324.0","3T111IHZ5FCHAFPNSO6Q2ZRREQ19RK","A1I0DV4B4MFQCL","3MVY4USGB69K0BK9K576GJZ2CVDSII","","null","<img src=""img/land6.png"" style=""width:200px;border:14px solid red;"">","null","","","","","","","","","",""
"","image-keyboard-response","325","159460","0.0-325.0","3T111IHZ5FCHAFPNSO6Q2ZRREQ19RK","A1I0DV4B4MFQCL","3MVY4USGB69K0BK9K576GJZ2CVDSII","","440","img/land4.png","75","442","2","1","1","2","1,0.7,0.7,0.7,1,0.7,0.7,0.7,1","1,0.7,0.7,0.7,1,0.7,0.7,0.7,1","","",""
"","html-keyboard-response","326","159763","0.0-326.0","3T111IHZ5FCHAFPNSO6Q2ZRREQ19RK","A1I0DV4B4MFQCL","3MVY4USGB69K0BK9K576GJZ2CVDSII","","null","<img src=""img/land4.png"" style=""width:200px; border:14px solid green;"">","null","","","","","","","","","",""
"","image-keyboard-response","327","160571","0.0-327.0","3T111IHZ5FCHAFPNSO6Q2ZRREQ19RK","A1I0DV4B4MFQCL","3MVY4USGB69K0BK9K576GJZ2CVDSII","","808","img/land5.png","76","808","3","1","2","2","1,0.7,0.7,0.7,1,0.7,0.7,0.7,1","1,0.7,0.7,0.7,1,0.7,0.7,0.7,1","","",""
"","html-keyboard-response","328","160878","0.0-328.0","3T111IHZ5FCHAFPNSO6Q2ZRREQ19RK","A1I0DV4B4MFQCL","3MVY4USGB69K0BK9K576GJZ2CVDSII","","null","<img src=""img/land5.png"" style=""width:200px; border:14px solid green;"">","null","","","","","","","","","",""
"","image-keyboard-response","329","161512","0.0-329.0","3T111IHZ5FCHAFPNSO6Q2ZRREQ19RK","A1I0DV4B4MFQCL","3MVY4USGB69K0BK9K576GJZ2CVDSII","","634","img/land6.png","75","634","2","0","3","2","1,0.7,0.7,0.7,1,0.7,0.7,0.7,1","1,0.7,0.7,0.7,1,0.7,0.7,0.7,1","","",""
"","html-keyboard-response","330","161818","0.0-330.0","3T111IHZ5FCHAFPNSO6Q2ZRREQ19RK","A1I0DV4B4MFQCL","3MVY4USGB69K0BK9K576GJZ2CVDSII","","null","<img src=""img/land6.png"" style=""width:200px;border:14px solid red;"">","null","","","","","","","","","",""
"","image-keyboard-response","331","162467","0.0-331.0","3T111IHZ5FCHAFPNSO6Q2ZRREQ19RK","A1I0DV4B4MFQCL","3MVY4USGB69K0BK9K576GJZ2CVDSII","","649","img/land5.png","76","650","3","1","2","2","1,0.7,0.7,0.7,1,0.7,0.7,0.7,1","1,0.7,0.7,0.7,1,0.7,0.7,0.7,1","","",""
"","html-keyboard-response","332","162772","0.0-332.0","3T111IHZ5FCHAFPNSO6Q2ZRREQ19RK","A1I0DV4B4MFQCL","3MVY4USGB69K0BK9K576GJZ2CVDSII","","null","<img src=""img/land5.png"" style=""width:200px; border:14px solid green;"">","null","","","","","","","","","",""
"","image-keyboard-response","333","163112","0.0-333.0","3T111IHZ5FCHAFPNSO6Q2ZRREQ19RK","A1I0DV4B4MFQCL","3MVY4USGB69K0BK9K576GJZ2CVDSII","","338","img/land5.png","76","339","3","1","2","2","1,0.7,0.7,0.7,1,0.7,0.7,0.7,1","1,0.7,0.7,0.7,1,0.7,0.7,0.7,1","","",""
"","html-keyboard-response","334","163419","0.0-334.0","3T111IHZ5FCHAFPNSO6Q2ZRREQ19RK","A1I0DV4B4MFQCL","3MVY4USGB69K0BK9K576GJZ2CVDSII","","null","<img src=""img/land5.png"" style=""width:200px; border:14px solid green;"">","null","","","","","","","","","",""
"","image-keyboard-response","335","163764","0.0-335.0","3T111IHZ5FCHAFPNSO6Q2ZRREQ19RK","A1I0DV4B4MFQCL","3MVY4USGB69K0BK9K576GJZ2CVDSII","","343","img/land5.png","76","345","3","0","2","2","1,0.7,0.7,0.7,1,0.7,0.7,0.7,1","1,0.7,0.7,0.7,1,0.7,0.7,0.7,1","","",""
"","html-keyboard-response","336","164071","0.0-336.0","3T111IHZ5FCHAFPNSO6Q2ZRREQ19RK","A1I0DV4B4MFQCL","3MVY4USGB69K0BK9K576GJZ2CVDSII","","null","<img src=""img/land5.png"" style=""width:200px;border:14px solid red;"">","null","","","","","","","","","",""
"","image-keyboard-response","337","164667","0.0-337.0","3T111IHZ5FCHAFPNSO6Q2ZRREQ19RK","A1I0DV4B4MFQCL","3MVY4USGB69K0BK9K576GJZ2CVDSII","","595","img/land6.png","75","596","2","1","3","2","1,0.7,0.7,0.7,1,0.7,0.7,0.7,1","1,0.7,0.7,0.7,1,0.7,0.7,0.7,1","","",""
"","html-keyboard-response","338","164972","0.0-338.0","3T111IHZ5FCHAFPNSO6Q2ZRREQ19RK","A1I0DV4B4MFQCL","3MVY4USGB69K0BK9K576GJZ2CVDSII","","null","<img src=""img/land6.png"" style=""width:200px; border:14px solid green;"">","null","","","","","","","","","",""
"","instructions","339","167658","0.0-339.0","3T111IHZ5FCHAFPNSO6Q2ZRREQ19RK","A1I0DV4B4MFQCL","3MVY4USGB69K0BK9K576GJZ2CVDSII","[{""page_index"":0,""viewing_time"":2686}]","2686","","","","","","","","","","","",""
"","survey-text","340","171074","0.0-340.0-0.0","3T111IHZ5FCHAFPNSO6Q2ZRREQ19RK","A1I0DV4B4MFQCL","3MVY4USGB69K0BK9K576GJZ2CVDSII","","3411","","","","","","","","","","","{""Q0"":""35""}",""
"","survey-multi-choice","341","173724","0.0-340.0-1.0","3T111IHZ5FCHAFPNSO6Q2ZRREQ19RK","A1I0DV4B4MFQCL","3MVY4USGB69K0BK9K576GJZ2CVDSII","","2647","","","","","","","","","","","{""gender"":""M""}","[0]"
"","survey-text","342","180849","0.0-341.0","3T111IHZ5FCHAFPNSO6Q2ZRREQ19RK","A1I0DV4B4MFQCL","3MVY4USGB69K0BK9K576GJZ2CVDSII","","7122","","","","","","","","","","","{""Q0"":""A1I0DV4B4MFQCL""}",""
