"success","trial_type","trial_index","time_elapsed","internal_node_id","assignmentID","mturkID","hitID","view_history","rt","stimulus","key_press","reactionTime","a","r","s","cond","reward_cond","reward_cond_actual","reward_matrix_idx","responses","question_order"
"true","fullscreen","0","4594","0.0-0.0","3JNQLM5FT58V7X9B2VUF60AE3IJ2LT","A1IGMCPVC4D7UL","3Z3R5YC0P3915KVY8X6BNRIWYOFFTN","","","","","","","","","","","","","",""
"","instructions","1","18306","0.0-1.0","3JNQLM5FT58V7X9B2VUF60AE3IJ2LT","A1IGMCPVC4D7UL","3Z3R5YC0P3915KVY8X6BNRIWYOFFTN","[{""page_index"":0,""viewing_time"":4537.70000000298},{""page_index"":1,""viewing_time"":540.1999999955297},{""page_index"":2,""viewing_time"":1235.8000000044703},{""page_index"":3,""viewing_time"":2795.2999999970198},{""page_index"":4,""viewing_time"":1596.5},{""page_index"":5,""viewing_time"":1744.1000000014901},{""page_index"":6,""viewing_time"":1256.7000000029802}]","13707.39999999851","","","","","","","","","","","",""
"","image-keyboard-response","2","19211","0.0-2.0","3JNQLM5FT58V7X9B2VUF60AE3IJ2LT","A1IGMCPVC4D7UL","3Z3R5YC0P3915KVY8X6BNRIWYOFFTN","","899.6000000014901","img/land4.png","74","902.7999999970198","1","0","1","2","0.8,0.2,0.2,0.2,0.8,0.2,0.2,0.2,0.8","0.2,0.8,0.2,0.2,0.2,0.8,0.8,0.2,0.2","3","",""
"","html-keyboard-response","3","19524","0.0-3.0","3JNQLM5FT58V7X9B2VUF60AE3IJ2LT","A1IGMCPVC4D7UL","3Z3R5YC0P3915KVY8X6BNRIWYOFFTN","","null","<img src=""img/land4.png"" style=""width:200px;border:14px solid red;"">","null","","","","","","","","","",""
"","image-keyboard-response","4","20478","0.0-4.0","3JNQLM5FT58V7X9B2VUF60AE3IJ2LT","A1IGMCPVC4D7UL","3Z3R5YC0P3915KVY8X6BNRIWYOFFTN","","951.5","img/land6.png","75","953.6000000014901","2","1","2","2","0.8,0.2,0.2,0.2,0.8,0.2,0.2,0.2,0.8","0.2,0.8,0.2,0.2,0.2,0.8,0.8,0.2,0.2","3","",""
"","html-keyboard-response","5","20794","0.0-5.0","3JNQLM5FT58V7X9B2VUF60AE3IJ2LT","A1IGMCPVC4D7UL","3Z3R5YC0P3915KVY8X6BNRIWYOFFTN","","null","<img src=""img/land6.png"" style=""width:200px; border:14px solid green;"">","null","","","","","","","","","",""
"","image-keyboard-response","6","21997","0.0-6.0","3JNQLM5FT58V7X9B2VUF60AE3IJ2LT","A1IGMCPVC4D7UL","3Z3R5YC0P3915KVY8X6BNRIWYOFFTN","","1200.3999999985099","img/land4.png","75","1202.5","2","1","1","2","0.8,0.2,0.2,0.2,0.8,0.2,0.2,0.2,0.8","0.2,0.8,0.2,0.2,0.2,0.8,0.8,0.2,0.2","3","",""
"","html-keyboard-response","7","22305","0.0-7.0","3JNQLM5FT58V7X9B2VUF60AE3IJ2LT","A1IGMCPVC4D7UL","3Z3R5YC0P3915KVY8X6BNRIWYOFFTN","","null","<img src=""img/land4.png"" style=""width:200px; border:14px solid green;"">","null","","","","","","","","","",""
"","image-keyboard-response","8","22718","0.0-8.0","3JNQLM5FT58V7X9B2VUF60AE3IJ2LT","A1IGMCPVC4D7UL","3Z3R5YC0P3915KVY8X6BNRIWYOFFTN","","409.1000000014901","img/land4.png","75","412.29999999701977","2","1","1","2","0.8,0.2,0.2,0.2,0.8,0.2,0.2,0.2,0.8","0.2,0.8,0.2,0.2,0.2,0.8,0.8,0.2,0.2","3","",""
"","html-keyboard-response","9","23024","0.0-9.0","3JNQLM5FT58V7X9B2VUF60AE3IJ2LT","A1IGMCPVC4D7UL","3Z3R5YC0P3915KVY8X6BNRIWYOFFTN","","null","<img src=""img/land4.png"" style=""width:200px; border:14px solid green;"">","null","","","","","","","","","",""
"","image-keyboard-response","10","23599","0.0-10.0","3JNQLM5FT58V7X9B2VUF60AE3IJ2LT","A1IGMCPVC4D7UL","3Z3R5YC0P3915KVY8X6BNRIWYOFFTN","","572.5999999940395","img/land6.png","75","574.5","2","1","2","2","0.8,0.2,0.2,0.2,0.8,0.2,0.2,0.2,0.8","0.2,0.8,0.2,0.2,0.2,0.8,0.8,0.2,0.2","3","",""
"","html-keyboard-response","11","23904","0.0-11.0","3JNQLM5FT58V7X9B2VUF60AE3IJ2LT","A1IGMCPVC4D7UL","3Z3R5YC0P3915KVY8X6BNRIWYOFFTN","","null","<img src=""img/land6.png"" style=""width:200px; border:14px solid green;"">","null","","","","","","","","","",""
"","image-keyboard-response","12","24372","0.0-12.0","3JNQLM5FT58V7X9B2VUF60AE3IJ2LT","A1IGMCPVC4D7UL","3Z3R5YC0P3915KVY8X6BNRIWYOFFTN","","466.20000000298023","img/land4.png","75","468","2","1","1","2","0.8,0.2,0.2,0.2,0.8,0.2,0.2,0.2,0.8","0.2,0.8,0.2,0.2,0.2,0.8,0.8,0.2,0.2","3","",""
"","html-keyboard-response","13","24675","0.0-13.0","3JNQLM5FT58V7X9B2VUF60AE3IJ2LT","A1IGMCPVC4D7UL","3Z3R5YC0P3915KVY8X6BNRIWYOFFTN","","null","<img src=""img/land4.png"" style=""width:200px; border:14px solid green;"">","null","","","","","","","","","",""
"","image-keyboard-response","14","25087","0.0-14.0","3JNQLM5FT58V7X9B2VUF60AE3IJ2LT","A1IGMCPVC4D7UL","3Z3R5YC0P3915KVY8X6BNRIWYOFFTN","","409.5","img/land1.png","75","411.69999999552965","2","0","3","2","0.8,0.2,0.2,0.2,0.8,0.2,0.2,0.2,0.8","0.2,0.8,0.2,0.2,0.2,0.8,0.8,0.2,0.2","3","",""
"","html-keyboard-response","15","25394","0.0-15.0","3JNQLM5FT58V7X9B2VUF60AE3IJ2LT","A1IGMCPVC4D7UL","3Z3R5YC0P3915KVY8X6BNRIWYOFFTN","","null","<img src=""img/land1.png"" style=""width:200px;border:14px solid red;"">","null","","","","","","","","","",""
"","image-keyboard-response","16","26088","0.0-16.0","3JNQLM5FT58V7X9B2VUF60AE3IJ2LT","A1IGMCPVC4D7UL","3Z3R5YC0P3915KVY8X6BNRIWYOFFTN","","691.3999999985099","img/land4.png","75","693.3999999985099","2","1","1","2","0.8,0.2,0.2,0.2,0.8,0.2,0.2,0.2,0.8","0.2,0.8,0.2,0.2,0.2,0.8,0.8,0.2,0.2","3","",""
"","html-keyboard-response","17","26404","0.0-17.0","3JNQLM5FT58V7X9B2VUF60AE3IJ2LT","A1IGMCPVC4D7UL","3Z3R5YC0P3915KVY8X6BNRIWYOFFTN","","null","<img src=""img/land4.png"" style=""width:200px; border:14px solid green;"">","null","","","","","","","","","",""
"","image-keyboard-response","18","27080","0.0-18.0","3JNQLM5FT58V7X9B2VUF60AE3IJ2LT","A1IGMCPVC4D7UL","3Z3R5YC0P3915KVY8X6BNRIWYOFFTN","","673.6999999955297","img/land1.png","76","675.6000000014901","3","0","3","2","0.8,0.2,0.2,0.2,0.8,0.2,0.2,0.2,0.8","0.2,0.8,0.2,0.2,0.2,0.8,0.8,0.2,0.2","3","",""
"","html-keyboard-response","19","27384","0.0-19.0","3JNQLM5FT58V7X9B2VUF60AE3IJ2LT","A1IGMCPVC4D7UL","3Z3R5YC0P3915KVY8X6BNRIWYOFFTN","","null","<img src=""img/land1.png"" style=""width:200px;border:14px solid red;"">","null","","","","","","","","","",""
"","image-keyboard-response","20","27926","0.0-20.0","3JNQLM5FT58V7X9B2VUF60AE3IJ2LT","A1IGMCPVC4D7UL","3Z3R5YC0P3915KVY8X6BNRIWYOFFTN","","538.6999999955297","img/land4.png","75","540.8999999985099","2","0","1","2","0.8,0.2,0.2,0.2,0.8,0.2,0.2,0.2,0.8","0.2,0.8,0.2,0.2,0.2,0.8,0.8,0.2,0.2","3","",""
"","html-keyboard-response","21","28232","0.0-21.0","3JNQLM5FT58V7X9B2VUF60AE3IJ2LT","A1IGMCPVC4D7UL","3Z3R5YC0P3915KVY8X6BNRIWYOFFTN","","null","<img src=""img/land4.png"" style=""width:200px;border:14px solid red;"">","null","","","","","","","","","",""
"","image-keyboard-response","22","28625","0.0-22.0","3JNQLM5FT58V7X9B2VUF60AE3IJ2LT","A1IGMCPVC4D7UL","3Z3R5YC0P3915KVY8X6BNRIWYOFFTN","","391","img/land4.png","75","392.79999999701977","2","1","1","2","0.8,0.2,0.2,0.2,0.8,0.2,0.2,0.2,0.8","0.2,0.8,0.2,0.2,0.2,0.8,0.8,0.2,0.2","3","",""
"","html-keyboard-response","23","28933","0.0-23.0","3JNQLM5FT58V7X9B2VUF60AE3IJ2LT","A1IGMCPVC4D7UL","3Z3R5YC0P3915KVY8X6BNRIWYOFFTN","","null","<img src=""img/land4.png"" style=""width:200px; border:14px solid green;"">","null","","","","","","","","","",""
"","image-keyboard-response","24","29619","0.0-24.0","3JNQLM5FT58V7X9B2VUF60AE3IJ2LT","A1IGMCPVC4D7UL","3Z3R5YC0P3915KVY8X6BNRIWYOFFTN","","683.6999999955297","img/land1.png","74","685.3999999985099","1","1","3","2","0.8,0.2,0.2,0.2,0.8,0.2,0.2,0.2,0.8","0.2,0.8,0.2,0.2,0.2,0.8,0.8,0.2,0.2","3","",""
"","html-keyboard-response","25","29934","0.0-25.0","3JNQLM5FT58V7X9B2VUF60AE3IJ2LT","A1IGMCPVC4D7UL","3Z3R5YC0P3915KVY8X6BNRIWYOFFTN","","null","<img src=""img/land1.png"" style=""width:200px; border:14px solid green;"">","null","","","","","","","","","",""
"","image-keyboard-response","26","30526","0.0-26.0","3JNQLM5FT58V7X9B2VUF60AE3IJ2LT","A1IGMCPVC4D7UL","3Z3R5YC0P3915KVY8X6BNRIWYOFFTN","","589.3999999985099","img/land1.png","74","591.5","1","0","3","2","0.8,0.2,0.2,0.2,0.8,0.2,0.2,0.2,0.8","0.2,0.8,0.2,0.2,0.2,0.8,0.8,0.2,0.2","3","",""
"","html-keyboard-response","27","30828","0.0-27.0","3JNQLM5FT58V7X9B2VUF60AE3IJ2LT","A1IGMCPVC4D7UL","3Z3R5YC0P3915KVY8X6BNRIWYOFFTN","","null","<img src=""img/land1.png"" style=""width:200px;border:14px solid red;"">","null","","","","","","","","","",""
"","image-keyboard-response","28","31390","0.0-28.0","3JNQLM5FT58V7X9B2VUF60AE3IJ2LT","A1IGMCPVC4D7UL","3Z3R5YC0P3915KVY8X6BNRIWYOFFTN","","559.3000000044703","img/land6.png","75","560.8999999985099","2","0","2","2","0.8,0.2,0.2,0.2,0.8,0.2,0.2,0.2,0.8","0.2,0.8,0.2,0.2,0.2,0.8,0.8,0.2,0.2","3","",""
"","html-keyboard-response","29","31693","0.0-29.0","3JNQLM5FT58V7X9B2VUF60AE3IJ2LT","A1IGMCPVC4D7UL","3Z3R5YC0P3915KVY8X6BNRIWYOFFTN","","null","<img src=""img/land6.png"" style=""width:200px;border:14px solid red;"">","null","","","","","","","","","",""
"","image-keyboard-response","30","32078","0.0-30.0","3JNQLM5FT58V7X9B2VUF60AE3IJ2LT","A1IGMCPVC4D7UL","3Z3R5YC0P3915KVY8X6BNRIWYOFFTN","","383.1000000014901","img/land4.png","75","384.8999999985099","2","1","1","2","0.8,0.2,0.2,0.2,0.8,0.2,0.2,0.2,0.8","0.2,0.8,0.2,0.2,0.2,0.8,0.8,0.2,0.2","3","",""
"","html-keyboard-response","31","32380","0.0-31.0","3JNQLM5FT58V7X9B2VUF60AE3IJ2LT","A1IGMCPVC4D7UL","3Z3R5YC0P3915KVY8X6BNRIWYOFFTN","","null","<img src=""img/land4.png"" style=""width:200px; border:14px solid green;"">","null","","","","","","","","","",""
"","image-keyboard-response","32","32760","0.0-32.0","3JNQLM5FT58V7X9B2VUF60AE3IJ2LT","A1IGMCPVC4D7UL","3Z3R5YC0P3915KVY8X6BNRIWYOFFTN","","378","img/land4.png","75","379.70000000298023","2","1","1","2","0.8,0.2,0.2,0.2,0.8,0.2,0.2,0.2,0.8","0.2,0.8,0.2,0.2,0.2,0.8,0.8,0.2,0.2","3","",""
"","html-keyboard-response","33","33064","0.0-33.0","3JNQLM5FT58V7X9B2VUF60AE3IJ2LT","A1IGMCPVC4D7UL","3Z3R5YC0P3915KVY8X6BNRIWYOFFTN","","null","<img src=""img/land4.png"" style=""width:200px; border:14px solid green;"">","null","","","","","","","","","",""
"","image-keyboard-response","34","33516","0.0-34.0","3JNQLM5FT58V7X9B2VUF60AE3IJ2LT","A1IGMCPVC4D7UL","3Z3R5YC0P3915KVY8X6BNRIWYOFFTN","","449.8999999985099","img/land6.png","75","452","2","0","2","2","0.8,0.2,0.2,0.2,0.8,0.2,0.2,0.2,0.8","0.2,0.8,0.2,0.2,0.2,0.8,0.8,0.2,0.2","3","",""
"","html-keyboard-response","35","33819","0.0-35.0","3JNQLM5FT58V7X9B2VUF60AE3IJ2LT","A1IGMCPVC4D7UL","3Z3R5YC0P3915KVY8X6BNRIWYOFFTN","","null","<img src=""img/land6.png"" style=""width:200px;border:14px solid red;"">","null","","","","","","","","","",""
"","image-keyboard-response","36","34359","0.0-36.0","3JNQLM5FT58V7X9B2VUF60AE3IJ2LT","A1IGMCPVC4D7UL","3Z3R5YC0P3915KVY8X6BNRIWYOFFTN","","537.8999999985099","img/land4.png","75","539.7000000029802","2","1","1","2","0.8,0.2,0.2,0.2,0.8,0.2,0.2,0.2,0.8","0.2,0.8,0.2,0.2,0.2,0.8,0.8,0.2,0.2","3","",""
"","html-keyboard-response","37","34662","0.0-37.0","3JNQLM5FT58V7X9B2VUF60AE3IJ2LT","A1IGMCPVC4D7UL","3Z3R5YC0P3915KVY8X6BNRIWYOFFTN","","null","<img src=""img/land4.png"" style=""width:200px; border:14px solid green;"">","null","","","","","","","","","",""
"","image-keyboard-response","38","35255","0.0-38.0","3JNQLM5FT58V7X9B2VUF60AE3IJ2LT","A1IGMCPVC4D7UL","3Z3R5YC0P3915KVY8X6BNRIWYOFFTN","","591.1000000014901","img/land6.png","75","592.7000000029802","2","1","2","2","0.8,0.2,0.2,0.2,0.8,0.2,0.2,0.2,0.8","0.2,0.8,0.2,0.2,0.2,0.8,0.8,0.2,0.2","3","",""
"","html-keyboard-response","39","35557","0.0-39.0","3JNQLM5FT58V7X9B2VUF60AE3IJ2LT","A1IGMCPVC4D7UL","3Z3R5YC0P3915KVY8X6BNRIWYOFFTN","","null","<img src=""img/land6.png"" style=""width:200px; border:14px solid green;"">","null","","","","","","","","","",""
"","image-keyboard-response","40","36271","0.0-40.0","3JNQLM5FT58V7X9B2VUF60AE3IJ2LT","A1IGMCPVC4D7UL","3Z3R5YC0P3915KVY8X6BNRIWYOFFTN","","712","img/land1.png","74","713.5999999940395","1","1","3","2","0.8,0.2,0.2,0.2,0.8,0.2,0.2,0.2,0.8","0.2,0.8,0.2,0.2,0.2,0.8,0.8,0.2,0.2","3","",""
"","html-keyboard-response","41","36573","0.0-41.0","3JNQLM5FT58V7X9B2VUF60AE3IJ2LT","A1IGMCPVC4D7UL","3Z3R5YC0P3915KVY8X6BNRIWYOFFTN","","null","<img src=""img/land1.png"" style=""width:200px; border:14px solid green;"">","null","","","","","","","","","",""
"","image-keyboard-response","42","36918","0.0-42.0","3JNQLM5FT58V7X9B2VUF60AE3IJ2LT","A1IGMCPVC4D7UL","3Z3R5YC0P3915KVY8X6BNRIWYOFFTN","","342","img/land1.png","74","343.80000000447035","1","1","3","2","0.8,0.2,0.2,0.2,0.8,0.2,0.2,0.2,0.8","0.2,0.8,0.2,0.2,0.2,0.8,0.8,0.2,0.2","3","",""
"","html-keyboard-response","43","37220","0.0-43.0","3JNQLM5FT58V7X9B2VUF60AE3IJ2LT","A1IGMCPVC4D7UL","3Z3R5YC0P3915KVY8X6BNRIWYOFFTN","","null","<img src=""img/land1.png"" style=""width:200px; border:14px solid green;"">","null","","","","","","","","","",""
"","image-keyboard-response","44","37730","0.0-44.0","3JNQLM5FT58V7X9B2VUF60AE3IJ2LT","A1IGMCPVC4D7UL","3Z3R5YC0P3915KVY8X6BNRIWYOFFTN","","507.69999999552965","img/land4.png","75","509.40000000596046","2","1","1","2","0.8,0.2,0.2,0.2,0.8,0.2,0.2,0.2,0.8","0.2,0.8,0.2,0.2,0.2,0.8,0.8,0.2,0.2","3","",""
"","html-keyboard-response","45","38033","0.0-45.0","3JNQLM5FT58V7X9B2VUF60AE3IJ2LT","A1IGMCPVC4D7UL","3Z3R5YC0P3915KVY8X6BNRIWYOFFTN","","null","<img src=""img/land4.png"" style=""width:200px; border:14px solid green;"">","null","","","","","","","","","",""
"","image-keyboard-response","46","38316","0.0-46.0","3JNQLM5FT58V7X9B2VUF60AE3IJ2LT","A1IGMCPVC4D7UL","3Z3R5YC0P3915KVY8X6BNRIWYOFFTN","","280.69999999552965","img/land4.png","75","282.29999999701977","2","1","1","2","0.8,0.2,0.2,0.2,0.8,0.2,0.2,0.2,0.8","0.2,0.8,0.2,0.2,0.2,0.8,0.8,0.2,0.2","3","",""
"","html-keyboard-response","47","38631","0.0-47.0","3JNQLM5FT58V7X9B2VUF60AE3IJ2LT","A1IGMCPVC4D7UL","3Z3R5YC0P3915KVY8X6BNRIWYOFFTN","","null","<img src=""img/land4.png"" style=""width:200px; border:14px solid green;"">","null","","","","","","","","","",""
"","image-keyboard-response","48","38949","0.0-48.0","3JNQLM5FT58V7X9B2VUF60AE3IJ2LT","A1IGMCPVC4D7UL","3Z3R5YC0P3915KVY8X6BNRIWYOFFTN","","314.8999999985099","img/land4.png","75","316.6000000014901","2","0","1","2","0.8,0.2,0.2,0.2,0.8,0.2,0.2,0.2,0.8","0.2,0.8,0.2,0.2,0.2,0.8,0.8,0.2,0.2","3","",""
"","html-keyboard-response","49","39252","0.0-49.0","3JNQLM5FT58V7X9B2VUF60AE3IJ2LT","A1IGMCPVC4D7UL","3Z3R5YC0P3915KVY8X6BNRIWYOFFTN","","null","<img src=""img/land4.png"" style=""width:200px;border:14px solid red;"">","null","","","","","","","","","",""
"","image-keyboard-response","50","39913","0.0-50.0","3JNQLM5FT58V7X9B2VUF60AE3IJ2LT","A1IGMCPVC4D7UL","3Z3R5YC0P3915KVY8X6BNRIWYOFFTN","","659.5","img/land1.png","74","661.1000000014901","1","1","3","2","0.8,0.2,0.2,0.2,0.8,0.2,0.2,0.2,0.8","0.2,0.8,0.2,0.2,0.2,0.8,0.8,0.2,0.2","3","",""
"","html-keyboard-response","51","40215","0.0-51.0","3JNQLM5FT58V7X9B2VUF60AE3IJ2LT","A1IGMCPVC4D7UL","3Z3R5YC0P3915KVY8X6BNRIWYOFFTN","","null","<img src=""img/land1.png"" style=""width:200px; border:14px solid green;"">","null","","","","","","","","","",""
"","image-keyboard-response","52","40794","0.0-52.0","3JNQLM5FT58V7X9B2VUF60AE3IJ2LT","A1IGMCPVC4D7UL","3Z3R5YC0P3915KVY8X6BNRIWYOFFTN","","576.8000000044703","img/land4.png","75","578.6000000014901","2","1","1","2","0.8,0.2,0.2,0.2,0.8,0.2,0.2,0.2,0.8","0.2,0.8,0.2,0.2,0.2,0.8,0.8,0.2,0.2","3","",""
"","html-keyboard-response","53","41097","0.0-53.0","3JNQLM5FT58V7X9B2VUF60AE3IJ2LT","A1IGMCPVC4D7UL","3Z3R5YC0P3915KVY8X6BNRIWYOFFTN","","null","<img src=""img/land4.png"" style=""width:200px; border:14px solid green;"">","null","","","","","","","","","",""
"","image-keyboard-response","54","41386","0.0-54.0","3JNQLM5FT58V7X9B2VUF60AE3IJ2LT","A1IGMCPVC4D7UL","3Z3R5YC0P3915KVY8X6BNRIWYOFFTN","","286.6000000014901","img/land4.png","75","288.29999999701977","2","0","1","2","0.8,0.2,0.2,0.2,0.8,0.2,0.2,0.2,0.8","0.2,0.8,0.2,0.2,0.2,0.8,0.8,0.2,0.2","3","",""
"","html-keyboard-response","55","41689","0.0-55.0","3JNQLM5FT58V7X9B2VUF60AE3IJ2LT","A1IGMCPVC4D7UL","3Z3R5YC0P3915KVY8X6BNRIWYOFFTN","","null","<img src=""img/land4.png"" style=""width:200px;border:14px solid red;"">","null","","","","","","","","","",""
"","image-keyboard-response","56","41973","0.0-56.0","3JNQLM5FT58V7X9B2VUF60AE3IJ2LT","A1IGMCPVC4D7UL","3Z3R5YC0P3915KVY8X6BNRIWYOFFTN","","282","img/land4.png","75","283.69999999552965","2","1","1","2","0.8,0.2,0.2,0.2,0.8,0.2,0.2,0.2,0.8","0.2,0.8,0.2,0.2,0.2,0.8,0.8,0.2,0.2","3","",""
"","html-keyboard-response","57","42276","0.0-57.0","3JNQLM5FT58V7X9B2VUF60AE3IJ2LT","A1IGMCPVC4D7UL","3Z3R5YC0P3915KVY8X6BNRIWYOFFTN","","null","<img src=""img/land4.png"" style=""width:200px; border:14px solid green;"">","null","","","","","","","","","",""
"","image-keyboard-response","58","42572","0.0-58.0","3JNQLM5FT58V7X9B2VUF60AE3IJ2LT","A1IGMCPVC4D7UL","3Z3R5YC0P3915KVY8X6BNRIWYOFFTN","","293.8999999985099","img/land4.png","75","295.5","2","0","1","2","0.8,0.2,0.2,0.2,0.8,0.2,0.2,0.2,0.8","0.2,0.8,0.2,0.2,0.2,0.8,0.8,0.2,0.2","3","",""
"","html-keyboard-response","59","42875","0.0-59.0","3JNQLM5FT58V7X9B2VUF60AE3IJ2LT","A1IGMCPVC4D7UL","3Z3R5YC0P3915KVY8X6BNRIWYOFFTN","","null","<img src=""img/land4.png"" style=""width:200px;border:14px solid red;"">","null","","","","","","","","","",""
"","image-keyboard-response","60","43156","0.0-60.0","3JNQLM5FT58V7X9B2VUF60AE3IJ2LT","A1IGMCPVC4D7UL","3Z3R5YC0P3915KVY8X6BNRIWYOFFTN","","279.29999999701977","img/land4.png","75","281","2","1","1","2","0.8,0.2,0.2,0.2,0.8,0.2,0.2,0.2,0.8","0.2,0.8,0.2,0.2,0.2,0.8,0.8,0.2,0.2","3","",""
"","html-keyboard-response","61","43459","0.0-61.0","3JNQLM5FT58V7X9B2VUF60AE3IJ2LT","A1IGMCPVC4D7UL","3Z3R5YC0P3915KVY8X6BNRIWYOFFTN","","null","<img src=""img/land4.png"" style=""width:200px; border:14px solid green;"">","null","","","","","","","","","",""
"","image-keyboard-response","62","44123","0.0-62.0","3JNQLM5FT58V7X9B2VUF60AE3IJ2LT","A1IGMCPVC4D7UL","3Z3R5YC0P3915KVY8X6BNRIWYOFFTN","","661.5","img/land1.png","74","663.0999999940395","1","1","3","2","0.8,0.2,0.2,0.2,0.8,0.2,0.2,0.2,0.8","0.2,0.8,0.2,0.2,0.2,0.8,0.8,0.2,0.2","3","",""
"","html-keyboard-response","63","44426","0.0-63.0","3JNQLM5FT58V7X9B2VUF60AE3IJ2LT","A1IGMCPVC4D7UL","3Z3R5YC0P3915KVY8X6BNRIWYOFFTN","","null","<img src=""img/land1.png"" style=""width:200px; border:14px solid green;"">","null","","","","","","","","","",""
"","image-keyboard-response","64","45072","0.0-64.0","3JNQLM5FT58V7X9B2VUF60AE3IJ2LT","A1IGMCPVC4D7UL","3Z3R5YC0P3915KVY8X6BNRIWYOFFTN","","644.2000000029802","img/land4.png","75","646","2","1","1","2","0.8,0.2,0.2,0.2,0.8,0.2,0.2,0.2,0.8","0.2,0.8,0.2,0.2,0.2,0.8,0.8,0.2,0.2","3","",""
"","html-keyboard-response","65","45375","0.0-65.0","3JNQLM5FT58V7X9B2VUF60AE3IJ2LT","A1IGMCPVC4D7UL","3Z3R5YC0P3915KVY8X6BNRIWYOFFTN","","null","<img src=""img/land4.png"" style=""width:200px; border:14px solid green;"">","null","","","","","","","","","",""
"","image-keyboard-response","66","45641","0.0-66.0","3JNQLM5FT58V7X9B2VUF60AE3IJ2LT","A1IGMCPVC4D7UL","3Z3R5YC0P3915KVY8X6BNRIWYOFFTN","","264.20000000298023","img/land4.png","75","265.8999999985099","2","1","1","2","0.8,0.2,0.2,0.2,0.8,0.2,0.2,0.2,0.8","0.2,0.8,0.2,0.2,0.2,0.8,0.8,0.2,0.2","3","",""
"","html-keyboard-response","67","45943","0.0-67.0","3JNQLM5FT58V7X9B2VUF60AE3IJ2LT","A1IGMCPVC4D7UL","3Z3R5YC0P3915KVY8X6BNRIWYOFFTN","","null","<img src=""img/land4.png"" style=""width:200px; border:14px solid green;"">","null","","","","","","","","","",""
"","image-keyboard-response","68","46209","0.0-68.0","3JNQLM5FT58V7X9B2VUF60AE3IJ2LT","A1IGMCPVC4D7UL","3Z3R5YC0P3915KVY8X6BNRIWYOFFTN","","263.79999999701977","img/land4.png","75","265.40000000596046","2","0","1","2","0.8,0.2,0.2,0.2,0.8,0.2,0.2,0.2,0.8","0.2,0.8,0.2,0.2,0.2,0.8,0.8,0.2,0.2","3","",""
"","html-keyboard-response","69","46512","0.0-69.0","3JNQLM5FT58V7X9B2VUF60AE3IJ2LT","A1IGMCPVC4D7UL","3Z3R5YC0P3915KVY8X6BNRIWYOFFTN","","null","<img src=""img/land4.png"" style=""width:200px;border:14px solid red;"">","null","","","","","","","","","",""
"","image-keyboard-response","70","46813","0.0-70.0","3JNQLM5FT58V7X9B2VUF60AE3IJ2LT","A1IGMCPVC4D7UL","3Z3R5YC0P3915KVY8X6BNRIWYOFFTN","","298.3999999985099","img/land4.png","75","299.8999999985099","2","1","1","2","0.8,0.2,0.2,0.2,0.8,0.2,0.2,0.2,0.8","0.2,0.8,0.2,0.2,0.2,0.8,0.8,0.2,0.2","3","",""
"","html-keyboard-response","71","47115","0.0-71.0","3JNQLM5FT58V7X9B2VUF60AE3IJ2LT","A1IGMCPVC4D7UL","3Z3R5YC0P3915KVY8X6BNRIWYOFFTN","","null","<img src=""img/land4.png"" style=""width:200px; border:14px solid green;"">","null","","","","","","","","","",""
"","image-keyboard-response","72","47438","0.0-72.0","3JNQLM5FT58V7X9B2VUF60AE3IJ2LT","A1IGMCPVC4D7UL","3Z3R5YC0P3915KVY8X6BNRIWYOFFTN","","320.79999999701977","img/land4.png","75","322.5","2","1","1","2","0.8,0.2,0.2,0.2,0.8,0.2,0.2,0.2,0.8","0.2,0.8,0.2,0.2,0.2,0.8,0.8,0.2,0.2","3","",""
"","html-keyboard-response","73","47741","0.0-73.0","3JNQLM5FT58V7X9B2VUF60AE3IJ2LT","A1IGMCPVC4D7UL","3Z3R5YC0P3915KVY8X6BNRIWYOFFTN","","null","<img src=""img/land4.png"" style=""width:200px; border:14px solid green;"">","null","","","","","","","","","",""
"","image-keyboard-response","74","47879","0.0-74.0","3JNQLM5FT58V7X9B2VUF60AE3IJ2LT","A1IGMCPVC4D7UL","3Z3R5YC0P3915KVY8X6BNRIWYOFFTN","","135.10000000149012","img/land4.png","75","136.80000000447035","2","0","1","2","0.8,0.2,0.2,0.2,0.8,0.2,0.2,0.2,0.8","0.2,0.8,0.2,0.2,0.2,0.8,0.8,0.2,0.2","3","",""
"","html-keyboard-response","75","48181","0.0-75.0","3JNQLM5FT58V7X9B2VUF60AE3IJ2LT","A1IGMCPVC4D7UL","3Z3R5YC0P3915KVY8X6BNRIWYOFFTN","","null","<img src=""img/land4.png"" style=""width:200px;border:14px solid red;"">","null","","","","","","","","","",""
"","image-keyboard-response","76","48677","0.0-76.0","3JNQLM5FT58V7X9B2VUF60AE3IJ2LT","A1IGMCPVC4D7UL","3Z3R5YC0P3915KVY8X6BNRIWYOFFTN","","493.1000000014901","img/land6.png","74","494.80000000447035","1","0","2","2","0.8,0.2,0.2,0.2,0.8,0.2,0.2,0.2,0.8","0.2,0.8,0.2,0.2,0.2,0.8,0.8,0.2,0.2","3","",""
"","html-keyboard-response","77","48980","0.0-77.0","3JNQLM5FT58V7X9B2VUF60AE3IJ2LT","A1IGMCPVC4D7UL","3Z3R5YC0P3915KVY8X6BNRIWYOFFTN","","null","<img src=""img/land6.png"" style=""width:200px;border:14px solid red;"">","null","","","","","","","","","",""
"","image-keyboard-response","78","49005","0.0-78.0","3JNQLM5FT58V7X9B2VUF60AE3IJ2LT","A1IGMCPVC4D7UL","3Z3R5YC0P3915KVY8X6BNRIWYOFFTN","","23.19999999552965","img/land1.png","75","24.5","2","0","3","2","0.8,0.2,0.2,0.2,0.8,0.2,0.2,0.2,0.8","0.2,0.8,0.2,0.2,0.2,0.8,0.8,0.2,0.2","3","",""
"","html-keyboard-response","79","49309","0.0-79.0","3JNQLM5FT58V7X9B2VUF60AE3IJ2LT","A1IGMCPVC4D7UL","3Z3R5YC0P3915KVY8X6BNRIWYOFFTN","","null","<img src=""img/land1.png"" style=""width:200px;border:14px solid red;"">","null","","","","","","","","","",""
"","image-keyboard-response","80","50078","0.0-80.0","3JNQLM5FT58V7X9B2VUF60AE3IJ2LT","A1IGMCPVC4D7UL","3Z3R5YC0P3915KVY8X6BNRIWYOFFTN","","767.0999999940395","img/land4.png","75","768.7999999970198","2","0","1","2","0.8,0.2,0.2,0.2,0.8,0.2,0.2,0.2,0.8","0.2,0.8,0.2,0.2,0.2,0.8,0.8,0.2,0.2","3","",""
"","html-keyboard-response","81","50382","0.0-81.0","3JNQLM5FT58V7X9B2VUF60AE3IJ2LT","A1IGMCPVC4D7UL","3Z3R5YC0P3915KVY8X6BNRIWYOFFTN","","null","<img src=""img/land4.png"" style=""width:200px;border:14px solid red;"">","null","","","","","","","","","",""
"","image-keyboard-response","82","50671","0.0-82.0","3JNQLM5FT58V7X9B2VUF60AE3IJ2LT","A1IGMCPVC4D7UL","3Z3R5YC0P3915KVY8X6BNRIWYOFFTN","","286.5","img/land4.png","75","288.1000000014901","2","1","1","2","0.8,0.2,0.2,0.2,0.8,0.2,0.2,0.2,0.8","0.2,0.8,0.2,0.2,0.2,0.8,0.8,0.2,0.2","3","",""
"","html-keyboard-response","83","50973","0.0-83.0","3JNQLM5FT58V7X9B2VUF60AE3IJ2LT","A1IGMCPVC4D7UL","3Z3R5YC0P3915KVY8X6BNRIWYOFFTN","","null","<img src=""img/land4.png"" style=""width:200px; border:14px solid green;"">","null","","","","","","","","","",""
"","image-keyboard-response","84","51477","0.0-84.0","3JNQLM5FT58V7X9B2VUF60AE3IJ2LT","A1IGMCPVC4D7UL","3Z3R5YC0P3915KVY8X6BNRIWYOFFTN","","502.1000000014901","img/land1.png","74","503.8999999985099","1","1","3","2","0.8,0.2,0.2,0.2,0.8,0.2,0.2,0.2,0.8","0.2,0.8,0.2,0.2,0.2,0.8,0.8,0.2,0.2","3","",""
"","html-keyboard-response","85","51781","0.0-85.0","3JNQLM5FT58V7X9B2VUF60AE3IJ2LT","A1IGMCPVC4D7UL","3Z3R5YC0P3915KVY8X6BNRIWYOFFTN","","null","<img src=""img/land1.png"" style=""width:200px; border:14px solid green;"">","null","","","","","","","","","",""
"","image-keyboard-response","86","52221","0.0-86.0","3JNQLM5FT58V7X9B2VUF60AE3IJ2LT","A1IGMCPVC4D7UL","3Z3R5YC0P3915KVY8X6BNRIWYOFFTN","","438.29999999701977","img/land4.png","75","440","2","1","1","2","0.8,0.2,0.2,0.2,0.8,0.2,0.2,0.2,0.8","0.2,0.8,0.2,0.2,0.2,0.8,0.8,0.2,0.2","3","",""
"","html-keyboard-response","87","52525","0.0-87.0","3JNQLM5FT58V7X9B2VUF60AE3IJ2LT","A1IGMCPVC4D7UL","3Z3R5YC0P3915KVY8X6BNRIWYOFFTN","","null","<img src=""img/land4.png"" style=""width:200px; border:14px solid green;"">","null","","","","","","","","","",""
"","image-keyboard-response","88","52844","0.0-88.0","3JNQLM5FT58V7X9B2VUF60AE3IJ2LT","A1IGMCPVC4D7UL","3Z3R5YC0P3915KVY8X6BNRIWYOFFTN","","317.40000000596046","img/land4.png","75","319.20000000298023","2","0","1","2","0.8,0.2,0.2,0.2,0.8,0.2,0.2,0.2,0.8","0.2,0.8,0.2,0.2,0.2,0.8,0.8,0.2,0.2","3","",""
"","html-keyboard-response","89","53147","0.0-89.0","3JNQLM5FT58V7X9B2VUF60AE3IJ2LT","A1IGMCPVC4D7UL","3Z3R5YC0P3915KVY8X6BNRIWYOFFTN","","null","<img src=""img/land4.png"" style=""width:200px;border:14px solid red;"">","null","","","","","","","","","",""
"","image-keyboard-response","90","53415","0.0-90.0","3JNQLM5FT58V7X9B2VUF60AE3IJ2LT","A1IGMCPVC4D7UL","3Z3R5YC0P3915KVY8X6BNRIWYOFFTN","","265.5","img/land4.png","75","267.3999999985099","2","1","1","2","0.8,0.2,0.2,0.2,0.8,0.2,0.2,0.2,0.8","0.2,0.8,0.2,0.2,0.2,0.8,0.8,0.2,0.2","3","",""
"","html-keyboard-response","91","53718","0.0-91.0","3JNQLM5FT58V7X9B2VUF60AE3IJ2LT","A1IGMCPVC4D7UL","3Z3R5YC0P3915KVY8X6BNRIWYOFFTN","","null","<img src=""img/land4.png"" style=""width:200px; border:14px solid green;"">","null","","","","","","","","","",""
"","image-keyboard-response","92","54005","0.0-92.0","3JNQLM5FT58V7X9B2VUF60AE3IJ2LT","A1IGMCPVC4D7UL","3Z3R5YC0P3915KVY8X6BNRIWYOFFTN","","284.69999999552965","img/land4.png","75","286.3999999985099","2","1","1","2","0.8,0.2,0.2,0.2,0.8,0.2,0.2,0.2,0.8","0.2,0.8,0.2,0.2,0.2,0.8,0.8,0.2,0.2","3","",""
"","html-keyboard-response","93","54307","0.0-93.0","3JNQLM5FT58V7X9B2VUF60AE3IJ2LT","A1IGMCPVC4D7UL","3Z3R5YC0P3915KVY8X6BNRIWYOFFTN","","null","<img src=""img/land4.png"" style=""width:200px; border:14px solid green;"">","null","","","","","","","","","",""
"","image-keyboard-response","94","54581","0.0-94.0","3JNQLM5FT58V7X9B2VUF60AE3IJ2LT","A1IGMCPVC4D7UL","3Z3R5YC0P3915KVY8X6BNRIWYOFFTN","","271.09999999403954","img/land4.png","75","273.29999999701977","2","1","1","2","0.8,0.2,0.2,0.2,0.8,0.2,0.2,0.2,0.8","0.2,0.8,0.2,0.2,0.2,0.8,0.8,0.2,0.2","3","",""
"","html-keyboard-response","95","54884","0.0-95.0","3JNQLM5FT58V7X9B2VUF60AE3IJ2LT","A1IGMCPVC4D7UL","3Z3R5YC0P3915KVY8X6BNRIWYOFFTN","","null","<img src=""img/land4.png"" style=""width:200px; border:14px solid green;"">","null","","","","","","","","","",""
"","image-keyboard-response","96","55370","0.0-96.0","3JNQLM5FT58V7X9B2VUF60AE3IJ2LT","A1IGMCPVC4D7UL","3Z3R5YC0P3915KVY8X6BNRIWYOFFTN","","484.1000000014901","img/land1.png","74","485.8999999985099","1","1","3","2","0.8,0.2,0.2,0.2,0.8,0.2,0.2,0.2,0.8","0.2,0.8,0.2,0.2,0.2,0.8,0.8,0.2,0.2","3","",""
"","html-keyboard-response","97","55673","0.0-97.0","3JNQLM5FT58V7X9B2VUF60AE3IJ2LT","A1IGMCPVC4D7UL","3Z3R5YC0P3915KVY8X6BNRIWYOFFTN","","null","<img src=""img/land1.png"" style=""width:200px; border:14px solid green;"">","null","","","","","","","","","",""
"","image-keyboard-response","98","56027","0.0-98.0","3JNQLM5FT58V7X9B2VUF60AE3IJ2LT","A1IGMCPVC4D7UL","3Z3R5YC0P3915KVY8X6BNRIWYOFFTN","","350.70000000298023","img/land1.png","74","352.79999999701977","1","1","3","2","0.8,0.2,0.2,0.2,0.8,0.2,0.2,0.2,0.8","0.2,0.8,0.2,0.2,0.2,0.8,0.8,0.2,0.2","3","",""
"","html-keyboard-response","99","56329","0.0-99.0","3JNQLM5FT58V7X9B2VUF60AE3IJ2LT","A1IGMCPVC4D7UL","3Z3R5YC0P3915KVY8X6BNRIWYOFFTN","","null","<img src=""img/land1.png"" style=""width:200px; border:14px solid green;"">","null","","","","","","","","","",""
"","image-keyboard-response","100","56879","0.0-100.0","3JNQLM5FT58V7X9B2VUF60AE3IJ2LT","A1IGMCPVC4D7UL","3Z3R5YC0P3915KVY8X6BNRIWYOFFTN","","547.6999999955297","img/land6.png","75","549.6000000014901","2","0","2","2","0.8,0.2,0.2,0.2,0.8,0.2,0.2,0.2,0.8","0.2,0.8,0.2,0.2,0.2,0.8,0.8,0.2,0.2","3","",""
"","html-keyboard-response","101","57182","0.0-101.0","3JNQLM5FT58V7X9B2VUF60AE3IJ2LT","A1IGMCPVC4D7UL","3Z3R5YC0P3915KVY8X6BNRIWYOFFTN","","null","<img src=""img/land6.png"" style=""width:200px;border:14px solid red;"">","null","","","","","","","","","",""
"","image-keyboard-response","102","57781","0.0-102.0","3JNQLM5FT58V7X9B2VUF60AE3IJ2LT","A1IGMCPVC4D7UL","3Z3R5YC0P3915KVY8X6BNRIWYOFFTN","","596.5","img/land1.png","74","598.3999999985099","1","1","3","2","0.8,0.2,0.2,0.2,0.8,0.2,0.2,0.2,0.8","0.2,0.8,0.2,0.2,0.2,0.8,0.8,0.2,0.2","3","",""
"","html-keyboard-response","103","58084","0.0-103.0","3JNQLM5FT58V7X9B2VUF60AE3IJ2LT","A1IGMCPVC4D7UL","3Z3R5YC0P3915KVY8X6BNRIWYOFFTN","","null","<img src=""img/land1.png"" style=""width:200px; border:14px solid green;"">","null","","","","","","","","","",""
"","image-keyboard-response","104","58559","0.0-104.0","3JNQLM5FT58V7X9B2VUF60AE3IJ2LT","A1IGMCPVC4D7UL","3Z3R5YC0P3915KVY8X6BNRIWYOFFTN","","472.3999999985099","img/land4.png","75","474.19999999552965","2","1","1","2","0.8,0.2,0.2,0.2,0.8,0.2,0.2,0.2,0.8","0.2,0.8,0.2,0.2,0.2,0.8,0.8,0.2,0.2","3","",""
"","html-keyboard-response","105","58861","0.0-105.0","3JNQLM5FT58V7X9B2VUF60AE3IJ2LT","A1IGMCPVC4D7UL","3Z3R5YC0P3915KVY8X6BNRIWYOFFTN","","null","<img src=""img/land4.png"" style=""width:200px; border:14px solid green;"">","null","","","","","","","","","",""
"","image-keyboard-response","106","59078","0.0-106.0","3JNQLM5FT58V7X9B2VUF60AE3IJ2LT","A1IGMCPVC4D7UL","3Z3R5YC0P3915KVY8X6BNRIWYOFFTN","","214.19999999552965","img/land4.png","75","215.90000000596046","2","1","1","2","0.8,0.2,0.2,0.2,0.8,0.2,0.2,0.2,0.8","0.2,0.8,0.2,0.2,0.2,0.8,0.8,0.2,0.2","3","",""
"","html-keyboard-response","107","59381","0.0-107.0","3JNQLM5FT58V7X9B2VUF60AE3IJ2LT","A1IGMCPVC4D7UL","3Z3R5YC0P3915KVY8X6BNRIWYOFFTN","","null","<img src=""img/land4.png"" style=""width:200px; border:14px solid green;"">","null","","","","","","","","","",""
"","image-keyboard-response","108","59632","0.0-108.0","3JNQLM5FT58V7X9B2VUF60AE3IJ2LT","A1IGMCPVC4D7UL","3Z3R5YC0P3915KVY8X6BNRIWYOFFTN","","248.70000000298023","img/land4.png","75","250.5","2","0","1","2","0.8,0.2,0.2,0.2,0.8,0.2,0.2,0.2,0.8","0.2,0.8,0.2,0.2,0.2,0.8,0.8,0.2,0.2","3","",""
"","html-keyboard-response","109","59934","0.0-109.0","3JNQLM5FT58V7X9B2VUF60AE3IJ2LT","A1IGMCPVC4D7UL","3Z3R5YC0P3915KVY8X6BNRIWYOFFTN","","null","<img src=""img/land4.png"" style=""width:200px;border:14px solid red;"">","null","","","","","","","","","",""
"","image-keyboard-response","110","60542","0.0-110.0","3JNQLM5FT58V7X9B2VUF60AE3IJ2LT","A1IGMCPVC4D7UL","3Z3R5YC0P3915KVY8X6BNRIWYOFFTN","","605.3999999985099","img/land6.png","75","607.1000000014901","2","1","2","2","0.8,0.2,0.2,0.2,0.8,0.2,0.2,0.2,0.8","0.2,0.8,0.2,0.2,0.2,0.8,0.8,0.2,0.2","3","",""
"","html-keyboard-response","111","60845","0.0-111.0","3JNQLM5FT58V7X9B2VUF60AE3IJ2LT","A1IGMCPVC4D7UL","3Z3R5YC0P3915KVY8X6BNRIWYOFFTN","","null","<img src=""img/land6.png"" style=""width:200px; border:14px solid green;"">","null","","","","","","","","","",""
"","image-keyboard-response","112","61422","0.0-112.0","3JNQLM5FT58V7X9B2VUF60AE3IJ2LT","A1IGMCPVC4D7UL","3Z3R5YC0P3915KVY8X6BNRIWYOFFTN","","575.3000000044703","img/land1.png","74","577.1999999955297","1","1","3","2","0.8,0.2,0.2,0.2,0.8,0.2,0.2,0.2,0.8","0.2,0.8,0.2,0.2,0.2,0.8,0.8,0.2,0.2","3","",""
"","html-keyboard-response","113","61726","0.0-113.0","3JNQLM5FT58V7X9B2VUF60AE3IJ2LT","A1IGMCPVC4D7UL","3Z3R5YC0P3915KVY8X6BNRIWYOFFTN","","null","<img src=""img/land1.png"" style=""width:200px; border:14px solid green;"">","null","","","","","","","","","",""
"","image-keyboard-response","114","62188","0.0-114.0","3JNQLM5FT58V7X9B2VUF60AE3IJ2LT","A1IGMCPVC4D7UL","3Z3R5YC0P3915KVY8X6BNRIWYOFFTN","","460.90000000596046","img/land4.png","75","462.5","2","0","1","2","0.8,0.2,0.2,0.2,0.8,0.2,0.2,0.2,0.8","0.2,0.8,0.2,0.2,0.2,0.8,0.8,0.2,0.2","3","",""
"","html-keyboard-response","115","62491","0.0-115.0","3JNQLM5FT58V7X9B2VUF60AE3IJ2LT","A1IGMCPVC4D7UL","3Z3R5YC0P3915KVY8X6BNRIWYOFFTN","","null","<img src=""img/land4.png"" style=""width:200px;border:14px solid red;"">","null","","","","","","","","","",""
"","image-keyboard-response","116","62728","0.0-116.0","3JNQLM5FT58V7X9B2VUF60AE3IJ2LT","A1IGMCPVC4D7UL","3Z3R5YC0P3915KVY8X6BNRIWYOFFTN","","235.60000000149012","img/land4.png","75","237.19999999552965","2","1","1","2","0.8,0.2,0.2,0.2,0.8,0.2,0.2,0.2,0.8","0.2,0.8,0.2,0.2,0.2,0.8,0.8,0.2,0.2","3","",""
"","html-keyboard-response","117","63031","0.0-117.0","3JNQLM5FT58V7X9B2VUF60AE3IJ2LT","A1IGMCPVC4D7UL","3Z3R5YC0P3915KVY8X6BNRIWYOFFTN","","null","<img src=""img/land4.png"" style=""width:200px; border:14px solid green;"">","null","","","","","","","","","",""
"","image-keyboard-response","118","63292","0.0-118.0","3JNQLM5FT58V7X9B2VUF60AE3IJ2LT","A1IGMCPVC4D7UL","3Z3R5YC0P3915KVY8X6BNRIWYOFFTN","","259.40000000596046","img/land4.png","75","261.20000000298023","2","1","1","2","0.8,0.2,0.2,0.2,0.8,0.2,0.2,0.2,0.8","0.2,0.8,0.2,0.2,0.2,0.8,0.8,0.2,0.2","3","",""
"","html-keyboard-response","119","63595","0.0-119.0","3JNQLM5FT58V7X9B2VUF60AE3IJ2LT","A1IGMCPVC4D7UL","3Z3R5YC0P3915KVY8X6BNRIWYOFFTN","","null","<img src=""img/land4.png"" style=""width:200px; border:14px solid green;"">","null","","","","","","","","","",""
"","image-keyboard-response","120","64028","0.0-120.0","3JNQLM5FT58V7X9B2VUF60AE3IJ2LT","A1IGMCPVC4D7UL","3Z3R5YC0P3915KVY8X6BNRIWYOFFTN","","430.29999999701977","img/land6.png","75","432","2","0","2","2","0.8,0.2,0.2,0.2,0.8,0.2,0.2,0.2,0.8","0.2,0.8,0.2,0.2,0.2,0.8,0.8,0.2,0.2","3","",""
"","html-keyboard-response","121","64330","0.0-121.0","3JNQLM5FT58V7X9B2VUF60AE3IJ2LT","A1IGMCPVC4D7UL","3Z3R5YC0P3915KVY8X6BNRIWYOFFTN","","null","<img src=""img/land6.png"" style=""width:200px;border:14px solid red;"">","null","","","","","","","","","",""
"","image-keyboard-response","122","64690","0.0-122.0","3JNQLM5FT58V7X9B2VUF60AE3IJ2LT","A1IGMCPVC4D7UL","3Z3R5YC0P3915KVY8X6BNRIWYOFFTN","","357.59999999403954","img/land4.png","75","359.30000000447035","2","1","1","2","0.8,0.2,0.2,0.2,0.8,0.2,0.2,0.2,0.8","0.2,0.8,0.2,0.2,0.2,0.8,0.8,0.2,0.2","3","",""
"","html-keyboard-response","123","64993","0.0-123.0","3JNQLM5FT58V7X9B2VUF60AE3IJ2LT","A1IGMCPVC4D7UL","3Z3R5YC0P3915KVY8X6BNRIWYOFFTN","","null","<img src=""img/land4.png"" style=""width:200px; border:14px solid green;"">","null","","","","","","","","","",""
"","image-keyboard-response","124","65290","0.0-124.0","3JNQLM5FT58V7X9B2VUF60AE3IJ2LT","A1IGMCPVC4D7UL","3Z3R5YC0P3915KVY8X6BNRIWYOFFTN","","294.59999999403954","img/land6.png","75","296.20000000298023","2","0","2","2","0.8,0.2,0.2,0.2,0.8,0.2,0.2,0.2,0.8","0.2,0.8,0.2,0.2,0.2,0.8,0.8,0.2,0.2","3","",""
"","html-keyboard-response","125","65593","0.0-125.0","3JNQLM5FT58V7X9B2VUF60AE3IJ2LT","A1IGMCPVC4D7UL","3Z3R5YC0P3915KVY8X6BNRIWYOFFTN","","null","<img src=""img/land6.png"" style=""width:200px;border:14px solid red;"">","null","","","","","","","","","",""
"","image-keyboard-response","126","65842","0.0-126.0","3JNQLM5FT58V7X9B2VUF60AE3IJ2LT","A1IGMCPVC4D7UL","3Z3R5YC0P3915KVY8X6BNRIWYOFFTN","","246.29999999701977","img/land4.png","75","248","2","1","1","2","0.8,0.2,0.2,0.2,0.8,0.2,0.2,0.2,0.8","0.2,0.8,0.2,0.2,0.2,0.8,0.8,0.2,0.2","3","",""
"","html-keyboard-response","127","66145","0.0-127.0","3JNQLM5FT58V7X9B2VUF60AE3IJ2LT","A1IGMCPVC4D7UL","3Z3R5YC0P3915KVY8X6BNRIWYOFFTN","","null","<img src=""img/land4.png"" style=""width:200px; border:14px solid green;"">","null","","","","","","","","","",""
"","image-keyboard-response","128","66462","0.0-128.0","3JNQLM5FT58V7X9B2VUF60AE3IJ2LT","A1IGMCPVC4D7UL","3Z3R5YC0P3915KVY8X6BNRIWYOFFTN","","314.6000000014901","img/land6.png","75","316.5","2","0","2","2","0.8,0.2,0.2,0.2,0.8,0.2,0.2,0.2,0.8","0.2,0.8,0.2,0.2,0.2,0.8,0.8,0.2,0.2","3","",""
"","html-keyboard-response","129","66764","0.0-129.0","3JNQLM5FT58V7X9B2VUF60AE3IJ2LT","A1IGMCPVC4D7UL","3Z3R5YC0P3915KVY8X6BNRIWYOFFTN","","null","<img src=""img/land6.png"" style=""width:200px;border:14px solid red;"">","null","","","","","","","","","",""
"","image-keyboard-response","130","67018","0.0-130.0","3JNQLM5FT58V7X9B2VUF60AE3IJ2LT","A1IGMCPVC4D7UL","3Z3R5YC0P3915KVY8X6BNRIWYOFFTN","","251.70000000298023","img/land4.png","75","253.60000000149012","2","1","1","2","0.8,0.2,0.2,0.2,0.8,0.2,0.2,0.2,0.8","0.2,0.8,0.2,0.2,0.2,0.8,0.8,0.2,0.2","3","",""
"","html-keyboard-response","131","67320","0.0-131.0","3JNQLM5FT58V7X9B2VUF60AE3IJ2LT","A1IGMCPVC4D7UL","3Z3R5YC0P3915KVY8X6BNRIWYOFFTN","","null","<img src=""img/land4.png"" style=""width:200px; border:14px solid green;"">","null","","","","","","","","","",""
"","image-keyboard-response","132","67590","0.0-132.0","3JNQLM5FT58V7X9B2VUF60AE3IJ2LT","A1IGMCPVC4D7UL","3Z3R5YC0P3915KVY8X6BNRIWYOFFTN","","267.20000000298023","img/land4.png","75","269","2","1","1","2","0.8,0.2,0.2,0.2,0.8,0.2,0.2,0.2,0.8","0.2,0.8,0.2,0.2,0.2,0.8,0.8,0.2,0.2","3","",""
"","html-keyboard-response","133","67892","0.0-133.0","3JNQLM5FT58V7X9B2VUF60AE3IJ2LT","A1IGMCPVC4D7UL","3Z3R5YC0P3915KVY8X6BNRIWYOFFTN","","null","<img src=""img/land4.png"" style=""width:200px; border:14px solid green;"">","null","","","","","","","","","",""
"","image-keyboard-response","134","68155","0.0-134.0","3JNQLM5FT58V7X9B2VUF60AE3IJ2LT","A1IGMCPVC4D7UL","3Z3R5YC0P3915KVY8X6BNRIWYOFFTN","","261.20000000298023","img/land4.png","75","262.69999999552965","2","1","1","2","0.8,0.2,0.2,0.2,0.8,0.2,0.2,0.2,0.8","0.2,0.8,0.2,0.2,0.2,0.8,0.8,0.2,0.2","3","",""
"","html-keyboard-response","135","68457","0.0-135.0","3JNQLM5FT58V7X9B2VUF60AE3IJ2LT","A1IGMCPVC4D7UL","3Z3R5YC0P3915KVY8X6BNRIWYOFFTN","","null","<img src=""img/land4.png"" style=""width:200px; border:14px solid green;"">","null","","","","","","","","","",""
"","image-keyboard-response","136","68746","0.0-136.0","3JNQLM5FT58V7X9B2VUF60AE3IJ2LT","A1IGMCPVC4D7UL","3Z3R5YC0P3915KVY8X6BNRIWYOFFTN","","286.8999999985099","img/land4.png","75","288.5","2","1","1","2","0.8,0.2,0.2,0.2,0.8,0.2,0.2,0.2,0.8","0.2,0.8,0.2,0.2,0.2,0.8,0.8,0.2,0.2","3","",""
"","html-keyboard-response","137","69048","0.0-137.0","3JNQLM5FT58V7X9B2VUF60AE3IJ2LT","A1IGMCPVC4D7UL","3Z3R5YC0P3915KVY8X6BNRIWYOFFTN","","null","<img src=""img/land4.png"" style=""width:200px; border:14px solid green;"">","null","","","","","","","","","",""
"","image-keyboard-response","138","69310","0.0-138.0","3JNQLM5FT58V7X9B2VUF60AE3IJ2LT","A1IGMCPVC4D7UL","3Z3R5YC0P3915KVY8X6BNRIWYOFFTN","","259","img/land4.png","75","260.6000000014901","2","1","1","2","0.8,0.2,0.2,0.2,0.8,0.2,0.2,0.2,0.8","0.2,0.8,0.2,0.2,0.2,0.8,0.8,0.2,0.2","3","",""
"","html-keyboard-response","139","69613","0.0-139.0","3JNQLM5FT58V7X9B2VUF60AE3IJ2LT","A1IGMCPVC4D7UL","3Z3R5YC0P3915KVY8X6BNRIWYOFFTN","","null","<img src=""img/land4.png"" style=""width:200px; border:14px solid green;"">","null","","","","","","","","","",""
"","image-keyboard-response","140","69742","0.0-140.0","3JNQLM5FT58V7X9B2VUF60AE3IJ2LT","A1IGMCPVC4D7UL","3Z3R5YC0P3915KVY8X6BNRIWYOFFTN","","126.20000000298023","img/land1.png","75","128.39999999850988","2","0","3","2","0.8,0.2,0.2,0.2,0.8,0.2,0.2,0.2,0.8","0.2,0.8,0.2,0.2,0.2,0.8,0.8,0.2,0.2","3","",""
"","html-keyboard-response","141","70044","0.0-141.0","3JNQLM5FT58V7X9B2VUF60AE3IJ2LT","A1IGMCPVC4D7UL","3Z3R5YC0P3915KVY8X6BNRIWYOFFTN","","null","<img src=""img/land1.png"" style=""width:200px;border:14px solid red;"">","null","","","","","","","","","",""
"","image-keyboard-response","142","70370","0.0-142.0","3JNQLM5FT58V7X9B2VUF60AE3IJ2LT","A1IGMCPVC4D7UL","3Z3R5YC0P3915KVY8X6BNRIWYOFFTN","","323.79999999701977","img/land4.png","75","325.3999999985099","2","1","1","2","0.8,0.2,0.2,0.2,0.8,0.2,0.2,0.2,0.8","0.2,0.8,0.2,0.2,0.2,0.8,0.8,0.2,0.2","3","",""
"","html-keyboard-response","143","70671","0.0-143.0","3JNQLM5FT58V7X9B2VUF60AE3IJ2LT","A1IGMCPVC4D7UL","3Z3R5YC0P3915KVY8X6BNRIWYOFFTN","","null","<img src=""img/land4.png"" style=""width:200px; border:14px solid green;"">","null","","","","","","","","","",""
"","image-keyboard-response","144","70824","0.0-144.0","3JNQLM5FT58V7X9B2VUF60AE3IJ2LT","A1IGMCPVC4D7UL","3Z3R5YC0P3915KVY8X6BNRIWYOFFTN","","150.5","img/land4.png","75","152.40000000596046","2","0","1","2","0.8,0.2,0.2,0.2,0.8,0.2,0.2,0.2,0.8","0.2,0.8,0.2,0.2,0.2,0.8,0.8,0.2,0.2","3","",""
"","html-keyboard-response","145","71127","0.0-145.0","3JNQLM5FT58V7X9B2VUF60AE3IJ2LT","A1IGMCPVC4D7UL","3Z3R5YC0P3915KVY8X6BNRIWYOFFTN","","null","<img src=""img/land4.png"" style=""width:200px;border:14px solid red;"">","null","","","","","","","","","",""
"","image-keyboard-response","146","71652","0.0-146.0","3JNQLM5FT58V7X9B2VUF60AE3IJ2LT","A1IGMCPVC4D7UL","3Z3R5YC0P3915KVY8X6BNRIWYOFFTN","","522.1999999955297","img/land1.png","74","524","1","0","3","2","0.8,0.2,0.2,0.2,0.8,0.2,0.2,0.2,0.8","0.2,0.8,0.2,0.2,0.2,0.8,0.8,0.2,0.2","3","",""
"","html-keyboard-response","147","71954","0.0-147.0","3JNQLM5FT58V7X9B2VUF60AE3IJ2LT","A1IGMCPVC4D7UL","3Z3R5YC0P3915KVY8X6BNRIWYOFFTN","","null","<img src=""img/land1.png"" style=""width:200px;border:14px solid red;"">","null","","","","","","","","","",""
"","image-keyboard-response","148","72354","0.0-148.0","3JNQLM5FT58V7X9B2VUF60AE3IJ2LT","A1IGMCPVC4D7UL","3Z3R5YC0P3915KVY8X6BNRIWYOFFTN","","397.69999999552965","img/land4.png","75","399.30000000447035","2","1","1","2","0.8,0.2,0.2,0.2,0.8,0.2,0.2,0.2,0.8","0.2,0.8,0.2,0.2,0.2,0.8,0.8,0.2,0.2","3","",""
"","html-keyboard-response","149","72658","0.0-149.0","3JNQLM5FT58V7X9B2VUF60AE3IJ2LT","A1IGMCPVC4D7UL","3Z3R5YC0P3915KVY8X6BNRIWYOFFTN","","null","<img src=""img/land4.png"" style=""width:200px; border:14px solid green;"">","null","","","","","","","","","",""
"","image-keyboard-response","150","72886","0.0-150.0","3JNQLM5FT58V7X9B2VUF60AE3IJ2LT","A1IGMCPVC4D7UL","3Z3R5YC0P3915KVY8X6BNRIWYOFFTN","","226.30000000447035","img/land1.png","75","227.89999999850988","2","1","3","2","0.8,0.2,0.2,0.2,0.8,0.2,0.2,0.2,0.8","0.2,0.8,0.2,0.2,0.2,0.8,0.8,0.2,0.2","3","",""
"","html-keyboard-response","151","73204","0.0-151.0","3JNQLM5FT58V7X9B2VUF60AE3IJ2LT","A1IGMCPVC4D7UL","3Z3R5YC0P3915KVY8X6BNRIWYOFFTN","","null","<img src=""img/land1.png"" style=""width:200px; border:14px solid green;"">","null","","","","","","","","","",""
"","image-keyboard-response","152","73714","0.0-152.0","3JNQLM5FT58V7X9B2VUF60AE3IJ2LT","A1IGMCPVC4D7UL","3Z3R5YC0P3915KVY8X6BNRIWYOFFTN","","506.90000000596046","img/land6.png","75","508.8999999985099","2","0","2","2","0.8,0.2,0.2,0.2,0.8,0.2,0.2,0.2,0.8","0.2,0.8,0.2,0.2,0.2,0.8,0.8,0.2,0.2","3","",""
"","html-keyboard-response","153","74016","0.0-153.0","3JNQLM5FT58V7X9B2VUF60AE3IJ2LT","A1IGMCPVC4D7UL","3Z3R5YC0P3915KVY8X6BNRIWYOFFTN","","null","<img src=""img/land6.png"" style=""width:200px;border:14px solid red;"">","null","","","","","","","","","",""
"","image-keyboard-response","154","74707","0.0-154.0","3JNQLM5FT58V7X9B2VUF60AE3IJ2LT","A1IGMCPVC4D7UL","3Z3R5YC0P3915KVY8X6BNRIWYOFFTN","","688.8999999985099","img/land4.png","75","690.5","2","1","1","2","0.8,0.2,0.2,0.2,0.8,0.2,0.2,0.2,0.8","0.2,0.8,0.2,0.2,0.2,0.8,0.8,0.2,0.2","3","",""
"","html-keyboard-response","155","75009","0.0-155.0","3JNQLM5FT58V7X9B2VUF60AE3IJ2LT","A1IGMCPVC4D7UL","3Z3R5YC0P3915KVY8X6BNRIWYOFFTN","","null","<img src=""img/land4.png"" style=""width:200px; border:14px solid green;"">","null","","","","","","","","","",""
"","image-keyboard-response","156","75551","0.0-156.0","3JNQLM5FT58V7X9B2VUF60AE3IJ2LT","A1IGMCPVC4D7UL","3Z3R5YC0P3915KVY8X6BNRIWYOFFTN","","540.1000000014901","img/land1.png","74","541.7000000029802","1","1","3","2","0.8,0.2,0.2,0.2,0.8,0.2,0.2,0.2,0.8","0.2,0.8,0.2,0.2,0.2,0.8,0.8,0.2,0.2","3","",""
"","html-keyboard-response","157","75854","0.0-157.0","3JNQLM5FT58V7X9B2VUF60AE3IJ2LT","A1IGMCPVC4D7UL","3Z3R5YC0P3915KVY8X6BNRIWYOFFTN","","null","<img src=""img/land1.png"" style=""width:200px; border:14px solid green;"">","null","","","","","","","","","",""
"","image-keyboard-response","158","76280","0.0-158.0","3JNQLM5FT58V7X9B2VUF60AE3IJ2LT","A1IGMCPVC4D7UL","3Z3R5YC0P3915KVY8X6BNRIWYOFFTN","","424.3999999985099","img/land6.png","75","426.19999999552965","2","0","2","2","0.8,0.2,0.2,0.2,0.8,0.2,0.2,0.2,0.8","0.2,0.8,0.2,0.2,0.2,0.8,0.8,0.2,0.2","3","",""
"","html-keyboard-response","159","76583","0.0-159.0","3JNQLM5FT58V7X9B2VUF60AE3IJ2LT","A1IGMCPVC4D7UL","3Z3R5YC0P3915KVY8X6BNRIWYOFFTN","","null","<img src=""img/land6.png"" style=""width:200px;border:14px solid red;"">","null","","","","","","","","","",""
"","image-keyboard-response","160","76796","0.0-160.0","3JNQLM5FT58V7X9B2VUF60AE3IJ2LT","A1IGMCPVC4D7UL","3Z3R5YC0P3915KVY8X6BNRIWYOFFTN","","210.60000000149012","img/land4.png","75","212.30000000447035","2","1","1","2","0.8,0.2,0.2,0.2,0.8,0.2,0.2,0.2,0.8","0.2,0.8,0.2,0.2,0.2,0.8,0.8,0.2,0.2","3","",""
"","html-keyboard-response","161","77098","0.0-161.0","3JNQLM5FT58V7X9B2VUF60AE3IJ2LT","A1IGMCPVC4D7UL","3Z3R5YC0P3915KVY8X6BNRIWYOFFTN","","null","<img src=""img/land4.png"" style=""width:200px; border:14px solid green;"">","null","","","","","","","","","",""
"","image-keyboard-response","162","77349","0.0-162.0","3JNQLM5FT58V7X9B2VUF60AE3IJ2LT","A1IGMCPVC4D7UL","3Z3R5YC0P3915KVY8X6BNRIWYOFFTN","","248.30000000447035","img/land4.png","75","250.10000000149012","2","0","1","2","0.8,0.2,0.2,0.2,0.8,0.2,0.2,0.2,0.8","0.2,0.8,0.2,0.2,0.2,0.8,0.8,0.2,0.2","3","",""
"","html-keyboard-response","163","77653","0.0-163.0","3JNQLM5FT58V7X9B2VUF60AE3IJ2LT","A1IGMCPVC4D7UL","3Z3R5YC0P3915KVY8X6BNRIWYOFFTN","","null","<img src=""img/land4.png"" style=""width:200px;border:14px solid red;"">","null","","","","","","","","","",""
"","image-keyboard-response","164","77915","0.0-164.0","3JNQLM5FT58V7X9B2VUF60AE3IJ2LT","A1IGMCPVC4D7UL","3Z3R5YC0P3915KVY8X6BNRIWYOFFTN","","260.3999999985099","img/land4.png","75","262","2","0","1","2","0.8,0.2,0.2,0.2,0.8,0.2,0.2,0.2,0.8","0.2,0.8,0.2,0.2,0.2,0.8,0.8,0.2,0.2","3","",""
"","html-keyboard-response","165","78218","0.0-165.0","3JNQLM5FT58V7X9B2VUF60AE3IJ2LT","A1IGMCPVC4D7UL","3Z3R5YC0P3915KVY8X6BNRIWYOFFTN","","null","<img src=""img/land4.png"" style=""width:200px;border:14px solid red;"">","null","","","","","","","","","",""
"","image-keyboard-response","166","78483","0.0-166.0","3JNQLM5FT58V7X9B2VUF60AE3IJ2LT","A1IGMCPVC4D7UL","3Z3R5YC0P3915KVY8X6BNRIWYOFFTN","","263","img/land4.png","75","264.69999999552965","2","1","1","2","0.8,0.2,0.2,0.2,0.8,0.2,0.2,0.2,0.8","0.2,0.8,0.2,0.2,0.2,0.8,0.8,0.2,0.2","3","",""
"","html-keyboard-response","167","78785","0.0-167.0","3JNQLM5FT58V7X9B2VUF60AE3IJ2LT","A1IGMCPVC4D7UL","3Z3R5YC0P3915KVY8X6BNRIWYOFFTN","","null","<img src=""img/land4.png"" style=""width:200px; border:14px solid green;"">","null","","","","","","","","","",""
"","image-keyboard-response","168","79006","0.0-168.0","3JNQLM5FT58V7X9B2VUF60AE3IJ2LT","A1IGMCPVC4D7UL","3Z3R5YC0P3915KVY8X6BNRIWYOFFTN","","218.79999999701977","img/land4.png","75","220.59999999403954","2","1","1","2","0.8,0.2,0.2,0.2,0.8,0.2,0.2,0.2,0.8","0.2,0.8,0.2,0.2,0.2,0.8,0.8,0.2,0.2","3","",""
"","html-keyboard-response","169","79309","0.0-169.0","3JNQLM5FT58V7X9B2VUF60AE3IJ2LT","A1IGMCPVC4D7UL","3Z3R5YC0P3915KVY8X6BNRIWYOFFTN","","null","<img src=""img/land4.png"" style=""width:200px; border:14px solid green;"">","null","","","","","","","","","",""
"","image-keyboard-response","170","79462","0.0-170.0","3JNQLM5FT58V7X9B2VUF60AE3IJ2LT","A1IGMCPVC4D7UL","3Z3R5YC0P3915KVY8X6BNRIWYOFFTN","","150.20000000298023","img/land6.png","75","152.10000000149012","2","0","2","2","0.8,0.2,0.2,0.2,0.8,0.2,0.2,0.2,0.8","0.2,0.8,0.2,0.2,0.2,0.8,0.8,0.2,0.2","3","",""
"","html-keyboard-response","171","79765","0.0-171.0","3JNQLM5FT58V7X9B2VUF60AE3IJ2LT","A1IGMCPVC4D7UL","3Z3R5YC0P3915KVY8X6BNRIWYOFFTN","","null","<img src=""img/land6.png"" style=""width:200px;border:14px solid red;"">","null","","","","","","","","","",""
"","image-keyboard-response","172","80324","0.0-172.0","3JNQLM5FT58V7X9B2VUF60AE3IJ2LT","A1IGMCPVC4D7UL","3Z3R5YC0P3915KVY8X6BNRIWYOFFTN","","556.6000000014901","img/land1.png","74","558.3999999985099","1","1","3","2","0.8,0.2,0.2,0.2,0.8,0.2,0.2,0.2,0.8","0.2,0.8,0.2,0.2,0.2,0.8,0.8,0.2,0.2","3","",""
"","html-keyboard-response","173","80626","0.0-173.0","3JNQLM5FT58V7X9B2VUF60AE3IJ2LT","A1IGMCPVC4D7UL","3Z3R5YC0P3915KVY8X6BNRIWYOFFTN","","null","<img src=""img/land1.png"" style=""width:200px; border:14px solid green;"">","null","","","","","","","","","",""
"","image-keyboard-response","174","81030","0.0-174.0","3JNQLM5FT58V7X9B2VUF60AE3IJ2LT","A1IGMCPVC4D7UL","3Z3R5YC0P3915KVY8X6BNRIWYOFFTN","","401.19999999552965","img/land4.png","75","403","2","0","1","2","0.8,0.2,0.2,0.2,0.8,0.2,0.2,0.2,0.8","0.2,0.8,0.2,0.2,0.2,0.8,0.8,0.2,0.2","3","",""
"","html-keyboard-response","175","81332","0.0-175.0","3JNQLM5FT58V7X9B2VUF60AE3IJ2LT","A1IGMCPVC4D7UL","3Z3R5YC0P3915KVY8X6BNRIWYOFFTN","","null","<img src=""img/land4.png"" style=""width:200px;border:14px solid red;"">","null","","","","","","","","","",""
"","image-keyboard-response","176","81549","0.0-176.0","3JNQLM5FT58V7X9B2VUF60AE3IJ2LT","A1IGMCPVC4D7UL","3Z3R5YC0P3915KVY8X6BNRIWYOFFTN","","214.39999999850988","img/land1.png","75","216.10000000149012","2","1","3","2","0.8,0.2,0.2,0.2,0.8,0.2,0.2,0.2,0.8","0.2,0.8,0.2,0.2,0.2,0.8,0.8,0.2,0.2","3","",""
"","html-keyboard-response","177","81851","0.0-177.0","3JNQLM5FT58V7X9B2VUF60AE3IJ2LT","A1IGMCPVC4D7UL","3Z3R5YC0P3915KVY8X6BNRIWYOFFTN","","null","<img src=""img/land1.png"" style=""width:200px; border:14px solid green;"">","null","","","","","","","","","",""
"","image-keyboard-response","178","82111","0.0-178.0","3JNQLM5FT58V7X9B2VUF60AE3IJ2LT","A1IGMCPVC4D7UL","3Z3R5YC0P3915KVY8X6BNRIWYOFFTN","","258.29999999701977","img/land6.png","75","260.09999999403954","2","0","2","2","0.8,0.2,0.2,0.2,0.8,0.2,0.2,0.2,0.8","0.2,0.8,0.2,0.2,0.2,0.8,0.8,0.2,0.2","3","",""
"","html-keyboard-response","179","82414","0.0-179.0","3JNQLM5FT58V7X9B2VUF60AE3IJ2LT","A1IGMCPVC4D7UL","3Z3R5YC0P3915KVY8X6BNRIWYOFFTN","","null","<img src=""img/land6.png"" style=""width:200px;border:14px solid red;"">","null","","","","","","","","","",""
"","image-keyboard-response","180","82753","0.0-180.0","3JNQLM5FT58V7X9B2VUF60AE3IJ2LT","A1IGMCPVC4D7UL","3Z3R5YC0P3915KVY8X6BNRIWYOFFTN","","337.5","img/land6.png","75","339.20000000298023","2","0","2","2","0.8,0.2,0.2,0.2,0.8,0.2,0.2,0.2,0.8","0.2,0.8,0.2,0.2,0.2,0.8,0.8,0.2,0.2","3","",""
"","html-keyboard-response","181","83056","0.0-181.0","3JNQLM5FT58V7X9B2VUF60AE3IJ2LT","A1IGMCPVC4D7UL","3Z3R5YC0P3915KVY8X6BNRIWYOFFTN","","null","<img src=""img/land6.png"" style=""width:200px;border:14px solid red;"">","null","","","","","","","","","",""
"","image-keyboard-response","182","83603","0.0-182.0","3JNQLM5FT58V7X9B2VUF60AE3IJ2LT","A1IGMCPVC4D7UL","3Z3R5YC0P3915KVY8X6BNRIWYOFFTN","","545.1999999955297","img/land1.png","74","546.8999999985099","1","1","3","2","0.8,0.2,0.2,0.2,0.8,0.2,0.2,0.2,0.8","0.2,0.8,0.2,0.2,0.2,0.8,0.8,0.2,0.2","3","",""
"","html-keyboard-response","183","83905","0.0-183.0","3JNQLM5FT58V7X9B2VUF60AE3IJ2LT","A1IGMCPVC4D7UL","3Z3R5YC0P3915KVY8X6BNRIWYOFFTN","","null","<img src=""img/land1.png"" style=""width:200px; border:14px solid green;"">","null","","","","","","","","","",""
"","image-keyboard-response","184","84219","0.0-184.0","3JNQLM5FT58V7X9B2VUF60AE3IJ2LT","A1IGMCPVC4D7UL","3Z3R5YC0P3915KVY8X6BNRIWYOFFTN","","311.8999999985099","img/land4.png","75","313.59999999403954","2","1","1","2","0.8,0.2,0.2,0.2,0.8,0.2,0.2,0.2,0.8","0.2,0.8,0.2,0.2,0.2,0.8,0.8,0.2,0.2","3","",""
"","html-keyboard-response","185","84522","0.0-185.0","3JNQLM5FT58V7X9B2VUF60AE3IJ2LT","A1IGMCPVC4D7UL","3Z3R5YC0P3915KVY8X6BNRIWYOFFTN","","null","<img src=""img/land4.png"" style=""width:200px; border:14px solid green;"">","null","","","","","","","","","",""
"","image-keyboard-response","186","84790","0.0-186.0","3JNQLM5FT58V7X9B2VUF60AE3IJ2LT","A1IGMCPVC4D7UL","3Z3R5YC0P3915KVY8X6BNRIWYOFFTN","","266.30000000447035","img/land4.png","75","268","2","1","1","2","0.8,0.2,0.2,0.2,0.8,0.2,0.2,0.2,0.8","0.2,0.8,0.2,0.2,0.2,0.8,0.8,0.2,0.2","3","",""
"","html-keyboard-response","187","85093","0.0-187.0","3JNQLM5FT58V7X9B2VUF60AE3IJ2LT","A1IGMCPVC4D7UL","3Z3R5YC0P3915KVY8X6BNRIWYOFFTN","","null","<img src=""img/land4.png"" style=""width:200px; border:14px solid green;"">","null","","","","","","","","","",""
"","image-keyboard-response","188","85301","0.0-188.0","3JNQLM5FT58V7X9B2VUF60AE3IJ2LT","A1IGMCPVC4D7UL","3Z3R5YC0P3915KVY8X6BNRIWYOFFTN","","206","img/land6.png","75","207.79999999701977","2","0","2","2","0.8,0.2,0.2,0.2,0.8,0.2,0.2,0.2,0.8","0.2,0.8,0.2,0.2,0.2,0.8,0.8,0.2,0.2","3","",""
"","html-keyboard-response","189","85604","0.0-189.0","3JNQLM5FT58V7X9B2VUF60AE3IJ2LT","A1IGMCPVC4D7UL","3Z3R5YC0P3915KVY8X6BNRIWYOFFTN","","null","<img src=""img/land6.png"" style=""width:200px;border:14px solid red;"">","null","","","","","","","","","",""
"","image-keyboard-response","190","86165","0.0-190.0","3JNQLM5FT58V7X9B2VUF60AE3IJ2LT","A1IGMCPVC4D7UL","3Z3R5YC0P3915KVY8X6BNRIWYOFFTN","","559.6000000014901","img/land1.png","74","561.1000000014901","1","1","3","2","0.8,0.2,0.2,0.2,0.8,0.2,0.2,0.2,0.8","0.2,0.8,0.2,0.2,0.2,0.8,0.8,0.2,0.2","3","",""
"","html-keyboard-response","191","86467","0.0-191.0","3JNQLM5FT58V7X9B2VUF60AE3IJ2LT","A1IGMCPVC4D7UL","3Z3R5YC0P3915KVY8X6BNRIWYOFFTN","","null","<img src=""img/land1.png"" style=""width:200px; border:14px solid green;"">","null","","","","","","","","","",""
"","image-keyboard-response","192","86803","0.0-192.0","3JNQLM5FT58V7X9B2VUF60AE3IJ2LT","A1IGMCPVC4D7UL","3Z3R5YC0P3915KVY8X6BNRIWYOFFTN","","333.1000000014901","img/land4.png","75","335.5","2","1","1","2","0.8,0.2,0.2,0.2,0.8,0.2,0.2,0.2,0.8","0.2,0.8,0.2,0.2,0.2,0.8,0.8,0.2,0.2","3","",""
"","html-keyboard-response","193","87106","0.0-193.0","3JNQLM5FT58V7X9B2VUF60AE3IJ2LT","A1IGMCPVC4D7UL","3Z3R5YC0P3915KVY8X6BNRIWYOFFTN","","null","<img src=""img/land4.png"" style=""width:200px; border:14px solid green;"">","null","","","","","","","","","",""
"","image-keyboard-response","194","87387","0.0-194.0","3JNQLM5FT58V7X9B2VUF60AE3IJ2LT","A1IGMCPVC4D7UL","3Z3R5YC0P3915KVY8X6BNRIWYOFFTN","","278.3999999985099","img/land4.png","75","280.3999999985099","2","0","1","2","0.8,0.2,0.2,0.2,0.8,0.2,0.2,0.2,0.8","0.2,0.8,0.2,0.2,0.2,0.8,0.8,0.2,0.2","3","",""
"","html-keyboard-response","195","87689","0.0-195.0","3JNQLM5FT58V7X9B2VUF60AE3IJ2LT","A1IGMCPVC4D7UL","3Z3R5YC0P3915KVY8X6BNRIWYOFFTN","","null","<img src=""img/land4.png"" style=""width:200px;border:14px solid red;"">","null","","","","","","","","","",""
"","image-keyboard-response","196","87970","0.0-196.0","3JNQLM5FT58V7X9B2VUF60AE3IJ2LT","A1IGMCPVC4D7UL","3Z3R5YC0P3915KVY8X6BNRIWYOFFTN","","278","img/land4.png","75","280","2","1","1","2","0.8,0.2,0.2,0.2,0.8,0.2,0.2,0.2,0.8","0.2,0.8,0.2,0.2,0.2,0.8,0.8,0.2,0.2","3","",""
"","html-keyboard-response","197","88273","0.0-197.0","3JNQLM5FT58V7X9B2VUF60AE3IJ2LT","A1IGMCPVC4D7UL","3Z3R5YC0P3915KVY8X6BNRIWYOFFTN","","null","<img src=""img/land4.png"" style=""width:200px; border:14px solid green;"">","null","","","","","","","","","",""
"","image-keyboard-response","198","88506","0.0-198.0","3JNQLM5FT58V7X9B2VUF60AE3IJ2LT","A1IGMCPVC4D7UL","3Z3R5YC0P3915KVY8X6BNRIWYOFFTN","","231.60000000149012","img/land4.png","75","233.20000000298023","2","1","1","2","0.8,0.2,0.2,0.2,0.8,0.2,0.2,0.2,0.8","0.2,0.8,0.2,0.2,0.2,0.8,0.8,0.2,0.2","3","",""
"","html-keyboard-response","199","88809","0.0-199.0","3JNQLM5FT58V7X9B2VUF60AE3IJ2LT","A1IGMCPVC4D7UL","3Z3R5YC0P3915KVY8X6BNRIWYOFFTN","","null","<img src=""img/land4.png"" style=""width:200px; border:14px solid green;"">","null","","","","","","","","","",""
"","image-keyboard-response","200","89086","0.0-200.0","3JNQLM5FT58V7X9B2VUF60AE3IJ2LT","A1IGMCPVC4D7UL","3Z3R5YC0P3915KVY8X6BNRIWYOFFTN","","275.70000000298023","img/land4.png","75","277.19999999552965","2","1","1","2","0.8,0.2,0.2,0.2,0.8,0.2,0.2,0.2,0.8","0.2,0.8,0.2,0.2,0.2,0.8,0.8,0.2,0.2","3","",""
"","html-keyboard-response","201","89389","0.0-201.0","3JNQLM5FT58V7X9B2VUF60AE3IJ2LT","A1IGMCPVC4D7UL","3Z3R5YC0P3915KVY8X6BNRIWYOFFTN","","null","<img src=""img/land4.png"" style=""width:200px; border:14px solid green;"">","null","","","","","","","","","",""
"","image-keyboard-response","202","89681","0.0-202.0","3JNQLM5FT58V7X9B2VUF60AE3IJ2LT","A1IGMCPVC4D7UL","3Z3R5YC0P3915KVY8X6BNRIWYOFFTN","","290.19999999552965","img/land4.png","75","292.19999999552965","2","1","1","2","0.8,0.2,0.2,0.2,0.8,0.2,0.2,0.2,0.8","0.2,0.8,0.2,0.2,0.2,0.8,0.8,0.2,0.2","3","",""
"","html-keyboard-response","203","89985","0.0-203.0","3JNQLM5FT58V7X9B2VUF60AE3IJ2LT","A1IGMCPVC4D7UL","3Z3R5YC0P3915KVY8X6BNRIWYOFFTN","","null","<img src=""img/land4.png"" style=""width:200px; border:14px solid green;"">","null","","","","","","","","","",""
"","image-keyboard-response","204","90269","0.0-204.0","3JNQLM5FT58V7X9B2VUF60AE3IJ2LT","A1IGMCPVC4D7UL","3Z3R5YC0P3915KVY8X6BNRIWYOFFTN","","282.6000000014901","img/land4.png","75","284.1000000014901","2","1","1","2","0.8,0.2,0.2,0.2,0.8,0.2,0.2,0.2,0.8","0.2,0.8,0.2,0.2,0.2,0.8,0.8,0.2,0.2","3","",""
"","html-keyboard-response","205","90572","0.0-205.0","3JNQLM5FT58V7X9B2VUF60AE3IJ2LT","A1IGMCPVC4D7UL","3Z3R5YC0P3915KVY8X6BNRIWYOFFTN","","null","<img src=""img/land4.png"" style=""width:200px; border:14px solid green;"">","null","","","","","","","","","",""
"","image-keyboard-response","206","90782","0.0-206.0","3JNQLM5FT58V7X9B2VUF60AE3IJ2LT","A1IGMCPVC4D7UL","3Z3R5YC0P3915KVY8X6BNRIWYOFFTN","","207.89999999850988","img/land4.png","75","209.5","2","1","1","2","0.8,0.2,0.2,0.2,0.8,0.2,0.2,0.2,0.8","0.2,0.8,0.2,0.2,0.2,0.8,0.8,0.2,0.2","3","",""
"","html-keyboard-response","207","91084","0.0-207.0","3JNQLM5FT58V7X9B2VUF60AE3IJ2LT","A1IGMCPVC4D7UL","3Z3R5YC0P3915KVY8X6BNRIWYOFFTN","","null","<img src=""img/land4.png"" style=""width:200px; border:14px solid green;"">","null","","","","","","","","","",""
"","image-keyboard-response","208","91296","0.0-208.0","3JNQLM5FT58V7X9B2VUF60AE3IJ2LT","A1IGMCPVC4D7UL","3Z3R5YC0P3915KVY8X6BNRIWYOFFTN","","209.70000000298023","img/land4.png","75","211.5","2","0","1","2","0.8,0.2,0.2,0.2,0.8,0.2,0.2,0.2,0.8","0.2,0.8,0.2,0.2,0.2,0.8,0.8,0.2,0.2","3","",""
"","html-keyboard-response","209","91599","0.0-209.0","3JNQLM5FT58V7X9B2VUF60AE3IJ2LT","A1IGMCPVC4D7UL","3Z3R5YC0P3915KVY8X6BNRIWYOFFTN","","null","<img src=""img/land4.png"" style=""width:200px;border:14px solid red;"">","null","","","","","","","","","",""
"","image-keyboard-response","210","91823","0.0-210.0","3JNQLM5FT58V7X9B2VUF60AE3IJ2LT","A1IGMCPVC4D7UL","3Z3R5YC0P3915KVY8X6BNRIWYOFFTN","","222.5","img/land4.png","75","223.89999999850988","2","1","1","2","0.8,0.2,0.2,0.2,0.8,0.2,0.2,0.2,0.8","0.2,0.8,0.2,0.2,0.2,0.8,0.8,0.2,0.2","3","",""
"","html-keyboard-response","211","92125","0.0-211.0","3JNQLM5FT58V7X9B2VUF60AE3IJ2LT","A1IGMCPVC4D7UL","3Z3R5YC0P3915KVY8X6BNRIWYOFFTN","","null","<img src=""img/land4.png"" style=""width:200px; border:14px solid green;"">","null","","","","","","","","","",""
"","image-keyboard-response","212","92358","0.0-212.0","3JNQLM5FT58V7X9B2VUF60AE3IJ2LT","A1IGMCPVC4D7UL","3Z3R5YC0P3915KVY8X6BNRIWYOFFTN","","230.89999999850988","img/land4.png","75","232.70000000298023","2","0","1","2","0.8,0.2,0.2,0.2,0.8,0.2,0.2,0.2,0.8","0.2,0.8,0.2,0.2,0.2,0.8,0.8,0.2,0.2","3","",""
"","html-keyboard-response","213","92661","0.0-213.0","3JNQLM5FT58V7X9B2VUF60AE3IJ2LT","A1IGMCPVC4D7UL","3Z3R5YC0P3915KVY8X6BNRIWYOFFTN","","null","<img src=""img/land4.png"" style=""width:200px;border:14px solid red;"">","null","","","","","","","","","",""
"","image-keyboard-response","214","92882","0.0-214.0","3JNQLM5FT58V7X9B2VUF60AE3IJ2LT","A1IGMCPVC4D7UL","3Z3R5YC0P3915KVY8X6BNRIWYOFFTN","","219.10000000149012","img/land4.png","75","220.79999999701977","2","1","1","2","0.8,0.2,0.2,0.2,0.8,0.2,0.2,0.2,0.8","0.2,0.8,0.2,0.2,0.2,0.8,0.8,0.2,0.2","3","",""
"","html-keyboard-response","215","93185","0.0-215.0","3JNQLM5FT58V7X9B2VUF60AE3IJ2LT","A1IGMCPVC4D7UL","3Z3R5YC0P3915KVY8X6BNRIWYOFFTN","","null","<img src=""img/land4.png"" style=""width:200px; border:14px solid green;"">","null","","","","","","","","","",""
"","image-keyboard-response","216","93379","0.0-216.0","3JNQLM5FT58V7X9B2VUF60AE3IJ2LT","A1IGMCPVC4D7UL","3Z3R5YC0P3915KVY8X6BNRIWYOFFTN","","191.20000000298023","img/land4.png","75","193.20000000298023","2","0","1","2","0.8,0.2,0.2,0.2,0.8,0.2,0.2,0.2,0.8","0.2,0.8,0.2,0.2,0.2,0.8,0.8,0.2,0.2","3","",""
"","html-keyboard-response","217","93682","0.0-217.0","3JNQLM5FT58V7X9B2VUF60AE3IJ2LT","A1IGMCPVC4D7UL","3Z3R5YC0P3915KVY8X6BNRIWYOFFTN","","null","<img src=""img/land4.png"" style=""width:200px;border:14px solid red;"">","null","","","","","","","","","",""
"","image-keyboard-response","218","93855","0.0-218.0","3JNQLM5FT58V7X9B2VUF60AE3IJ2LT","A1IGMCPVC4D7UL","3Z3R5YC0P3915KVY8X6BNRIWYOFFTN","","171.10000000149012","img/land6.png","75","172.70000000298023","2","0","2","2","0.8,0.2,0.2,0.2,0.8,0.2,0.2,0.2,0.8","0.2,0.8,0.2,0.2,0.2,0.8,0.8,0.2,0.2","3","",""
"","html-keyboard-response","219","94158","0.0-219.0","3JNQLM5FT58V7X9B2VUF60AE3IJ2LT","A1IGMCPVC4D7UL","3Z3R5YC0P3915KVY8X6BNRIWYOFFTN","","null","<img src=""img/land6.png"" style=""width:200px;border:14px solid red;"">","null","","","","","","","","","",""
"","image-keyboard-response","220","94521","0.0-220.0","3JNQLM5FT58V7X9B2VUF60AE3IJ2LT","A1IGMCPVC4D7UL","3Z3R5YC0P3915KVY8X6BNRIWYOFFTN","","361.20000000298023","img/land4.png","75","363","2","1","1","2","0.8,0.2,0.2,0.2,0.8,0.2,0.2,0.2,0.8","0.2,0.8,0.2,0.2,0.2,0.8,0.8,0.2,0.2","3","",""
"","html-keyboard-response","221","94824","0.0-221.0","3JNQLM5FT58V7X9B2VUF60AE3IJ2LT","A1IGMCPVC4D7UL","3Z3R5YC0P3915KVY8X6BNRIWYOFFTN","","null","<img src=""img/land4.png"" style=""width:200px; border:14px solid green;"">","null","","","","","","","","","",""
"","image-keyboard-response","222","95074","0.0-222.0","3JNQLM5FT58V7X9B2VUF60AE3IJ2LT","A1IGMCPVC4D7UL","3Z3R5YC0P3915KVY8X6BNRIWYOFFTN","","247.69999999552965","img/land4.png","75","249.39999999850988","2","1","1","2","0.8,0.2,0.2,0.2,0.8,0.2,0.2,0.2,0.8","0.2,0.8,0.2,0.2,0.2,0.8,0.8,0.2,0.2","3","",""
"","html-keyboard-response","223","95377","0.0-223.0","3JNQLM5FT58V7X9B2VUF60AE3IJ2LT","A1IGMCPVC4D7UL","3Z3R5YC0P3915KVY8X6BNRIWYOFFTN","","null","<img src=""img/land4.png"" style=""width:200px; border:14px solid green;"">","null","","","","","","","","","",""
"","image-keyboard-response","224","95545","0.0-224.0","3JNQLM5FT58V7X9B2VUF60AE3IJ2LT","A1IGMCPVC4D7UL","3Z3R5YC0P3915KVY8X6BNRIWYOFFTN","","166.10000000149012","img/land1.png","75","168.19999999552965","2","1","3","2","0.8,0.2,0.2,0.2,0.8,0.2,0.2,0.2,0.8","0.2,0.8,0.2,0.2,0.2,0.8,0.8,0.2,0.2","3","",""
"","html-keyboard-response","225","95848","0.0-225.0","3JNQLM5FT58V7X9B2VUF60AE3IJ2LT","A1IGMCPVC4D7UL","3Z3R5YC0P3915KVY8X6BNRIWYOFFTN","","null","<img src=""img/land1.png"" style=""width:200px; border:14px solid green;"">","null","","","","","","","","","",""
"","image-keyboard-response","226","96142","0.0-226.0","3JNQLM5FT58V7X9B2VUF60AE3IJ2LT","A1IGMCPVC4D7UL","3Z3R5YC0P3915KVY8X6BNRIWYOFFTN","","291.80000000447035","img/land6.png","75","293.5","2","0","2","2","0.8,0.2,0.2,0.2,0.8,0.2,0.2,0.2,0.8","0.2,0.8,0.2,0.2,0.2,0.8,0.8,0.2,0.2","3","",""
"","html-keyboard-response","227","96444","0.0-227.0","3JNQLM5FT58V7X9B2VUF60AE3IJ2LT","A1IGMCPVC4D7UL","3Z3R5YC0P3915KVY8X6BNRIWYOFFTN","","null","<img src=""img/land6.png"" style=""width:200px;border:14px solid red;"">","null","","","","","","","","","",""
"","image-keyboard-response","228","96759","0.0-228.0","3JNQLM5FT58V7X9B2VUF60AE3IJ2LT","A1IGMCPVC4D7UL","3Z3R5YC0P3915KVY8X6BNRIWYOFFTN","","312.70000000298023","img/land1.png","75","314.40000000596046","2","0","3","2","0.8,0.2,0.2,0.2,0.8,0.2,0.2,0.2,0.8","0.2,0.8,0.2,0.2,0.2,0.8,0.8,0.2,0.2","3","",""
"","html-keyboard-response","229","97063","0.0-229.0","3JNQLM5FT58V7X9B2VUF60AE3IJ2LT","A1IGMCPVC4D7UL","3Z3R5YC0P3915KVY8X6BNRIWYOFFTN","","null","<img src=""img/land1.png"" style=""width:200px;border:14px solid red;"">","null","","","","","","","","","",""
"","image-keyboard-response","230","97300","0.0-230.0","3JNQLM5FT58V7X9B2VUF60AE3IJ2LT","A1IGMCPVC4D7UL","3Z3R5YC0P3915KVY8X6BNRIWYOFFTN","","234.89999999850988","img/land4.png","75","236.59999999403954","2","0","1","2","0.8,0.2,0.2,0.2,0.8,0.2,0.2,0.2,0.8","0.2,0.8,0.2,0.2,0.2,0.8,0.8,0.2,0.2","3","",""
"","html-keyboard-response","231","97603","0.0-231.0","3JNQLM5FT58V7X9B2VUF60AE3IJ2LT","A1IGMCPVC4D7UL","3Z3R5YC0P3915KVY8X6BNRIWYOFFTN","","null","<img src=""img/land4.png"" style=""width:200px;border:14px solid red;"">","null","","","","","","","","","",""
"","image-keyboard-response","232","97860","0.0-232.0","3JNQLM5FT58V7X9B2VUF60AE3IJ2LT","A1IGMCPVC4D7UL","3Z3R5YC0P3915KVY8X6BNRIWYOFFTN","","255.39999999850988","img/land4.png","75","257.1000000014901","2","1","1","2","0.8,0.2,0.2,0.2,0.8,0.2,0.2,0.2,0.8","0.2,0.8,0.2,0.2,0.2,0.8,0.8,0.2,0.2","3","",""
"","html-keyboard-response","233","98162","0.0-233.0","3JNQLM5FT58V7X9B2VUF60AE3IJ2LT","A1IGMCPVC4D7UL","3Z3R5YC0P3915KVY8X6BNRIWYOFFTN","","null","<img src=""img/land4.png"" style=""width:200px; border:14px solid green;"">","null","","","","","","","","","",""
"","image-keyboard-response","234","98531","0.0-234.0","3JNQLM5FT58V7X9B2VUF60AE3IJ2LT","A1IGMCPVC4D7UL","3Z3R5YC0P3915KVY8X6BNRIWYOFFTN","","366.90000000596046","img/land6.png","75","368.70000000298023","2","0","2","2","0.8,0.2,0.2,0.2,0.8,0.2,0.2,0.2,0.8","0.2,0.8,0.2,0.2,0.2,0.8,0.8,0.2,0.2","3","",""
"","html-keyboard-response","235","98834","0.0-235.0","3JNQLM5FT58V7X9B2VUF60AE3IJ2LT","A1IGMCPVC4D7UL","3Z3R5YC0P3915KVY8X6BNRIWYOFFTN","","null","<img src=""img/land6.png"" style=""width:200px;border:14px solid red;"">","null","","","","","","","","","",""
"","image-keyboard-response","236","99125","0.0-236.0","3JNQLM5FT58V7X9B2VUF60AE3IJ2LT","A1IGMCPVC4D7UL","3Z3R5YC0P3915KVY8X6BNRIWYOFFTN","","288.70000000298023","img/land6.png","75","290.6000000014901","2","0","2","2","0.8,0.2,0.2,0.2,0.8,0.2,0.2,0.2,0.8","0.2,0.8,0.2,0.2,0.2,0.8,0.8,0.2,0.2","3","",""
"","html-keyboard-response","237","99428","0.0-237.0","3JNQLM5FT58V7X9B2VUF60AE3IJ2LT","A1IGMCPVC4D7UL","3Z3R5YC0P3915KVY8X6BNRIWYOFFTN","","null","<img src=""img/land6.png"" style=""width:200px;border:14px solid red;"">","null","","","","","","","","","",""
"","image-keyboard-response","238","99595","0.0-238.0","3JNQLM5FT58V7X9B2VUF60AE3IJ2LT","A1IGMCPVC4D7UL","3Z3R5YC0P3915KVY8X6BNRIWYOFFTN","","165.10000000149012","img/land1.png","75","166.60000000149012","2","1","3","2","0.8,0.2,0.2,0.2,0.8,0.2,0.2,0.2,0.8","0.2,0.8,0.2,0.2,0.2,0.8,0.8,0.2,0.2","3","",""
"","html-keyboard-response","239","99897","0.0-239.0","3JNQLM5FT58V7X9B2VUF60AE3IJ2LT","A1IGMCPVC4D7UL","3Z3R5YC0P3915KVY8X6BNRIWYOFFTN","","null","<img src=""img/land1.png"" style=""width:200px; border:14px solid green;"">","null","","","","","","","","","",""
"","image-keyboard-response","240","100193","0.0-240.0","3JNQLM5FT58V7X9B2VUF60AE3IJ2LT","A1IGMCPVC4D7UL","3Z3R5YC0P3915KVY8X6BNRIWYOFFTN","","294","img/land4.png","75","295.6000000014901","2","1","1","2","0.8,0.2,0.2,0.2,0.8,0.2,0.2,0.2,0.8","0.2,0.8,0.2,0.2,0.2,0.8,0.8,0.2,0.2","3","",""
"","html-keyboard-response","241","100495","0.0-241.0","3JNQLM5FT58V7X9B2VUF60AE3IJ2LT","A1IGMCPVC4D7UL","3Z3R5YC0P3915KVY8X6BNRIWYOFFTN","","null","<img src=""img/land4.png"" style=""width:200px; border:14px solid green;"">","null","","","","","","","","","",""
"","image-keyboard-response","242","101043","0.0-242.0","3JNQLM5FT58V7X9B2VUF60AE3IJ2LT","A1IGMCPVC4D7UL","3Z3R5YC0P3915KVY8X6BNRIWYOFFTN","","545.7000000029802","img/land1.png","74","547.3000000044703","1","1","3","2","0.8,0.2,0.2,0.2,0.8,0.2,0.2,0.2,0.8","0.2,0.8,0.2,0.2,0.2,0.8,0.8,0.2,0.2","3","",""
"","html-keyboard-response","243","101346","0.0-243.0","3JNQLM5FT58V7X9B2VUF60AE3IJ2LT","A1IGMCPVC4D7UL","3Z3R5YC0P3915KVY8X6BNRIWYOFFTN","","null","<img src=""img/land1.png"" style=""width:200px; border:14px solid green;"">","null","","","","","","","","","",""
"","image-keyboard-response","244","101727","0.0-244.0","3JNQLM5FT58V7X9B2VUF60AE3IJ2LT","A1IGMCPVC4D7UL","3Z3R5YC0P3915KVY8X6BNRIWYOFFTN","","378.5","img/land4.png","75","380.69999999552965","2","0","1","2","0.8,0.2,0.2,0.2,0.8,0.2,0.2,0.2,0.8","0.2,0.8,0.2,0.2,0.2,0.8,0.8,0.2,0.2","3","",""
"","html-keyboard-response","245","102029","0.0-245.0","3JNQLM5FT58V7X9B2VUF60AE3IJ2LT","A1IGMCPVC4D7UL","3Z3R5YC0P3915KVY8X6BNRIWYOFFTN","","null","<img src=""img/land4.png"" style=""width:200px;border:14px solid red;"">","null","","","","","","","","","",""
"","image-keyboard-response","246","102272","0.0-246.0","3JNQLM5FT58V7X9B2VUF60AE3IJ2LT","A1IGMCPVC4D7UL","3Z3R5YC0P3915KVY8X6BNRIWYOFFTN","","240.5","img/land4.png","75","242.19999999552965","2","1","1","2","0.8,0.2,0.2,0.2,0.8,0.2,0.2,0.2,0.8","0.2,0.8,0.2,0.2,0.2,0.8,0.8,0.2,0.2","3","",""
"","html-keyboard-response","247","102575","0.0-247.0","3JNQLM5FT58V7X9B2VUF60AE3IJ2LT","A1IGMCPVC4D7UL","3Z3R5YC0P3915KVY8X6BNRIWYOFFTN","","null","<img src=""img/land4.png"" style=""width:200px; border:14px solid green;"">","null","","","","","","","","","",""
"","image-keyboard-response","248","103040","0.0-248.0","3JNQLM5FT58V7X9B2VUF60AE3IJ2LT","A1IGMCPVC4D7UL","3Z3R5YC0P3915KVY8X6BNRIWYOFFTN","","463.29999999701977","img/land6.png","75","464.8999999985099","2","0","2","2","0.8,0.2,0.2,0.2,0.8,0.2,0.2,0.2,0.8","0.2,0.8,0.2,0.2,0.2,0.8,0.8,0.2,0.2","3","",""
"","html-keyboard-response","249","103343","0.0-249.0","3JNQLM5FT58V7X9B2VUF60AE3IJ2LT","A1IGMCPVC4D7UL","3Z3R5YC0P3915KVY8X6BNRIWYOFFTN","","null","<img src=""img/land6.png"" style=""width:200px;border:14px solid red;"">","null","","","","","","","","","",""
"","image-keyboard-response","250","103676","0.0-250.0","3JNQLM5FT58V7X9B2VUF60AE3IJ2LT","A1IGMCPVC4D7UL","3Z3R5YC0P3915KVY8X6BNRIWYOFFTN","","330.20000000298023","img/land4.png","75","332.19999999552965","2","1","1","2","0.8,0.2,0.2,0.2,0.8,0.2,0.2,0.2,0.8","0.2,0.8,0.2,0.2,0.2,0.8,0.8,0.2,0.2","3","",""
"","html-keyboard-response","251","103979","0.0-251.0","3JNQLM5FT58V7X9B2VUF60AE3IJ2LT","A1IGMCPVC4D7UL","3Z3R5YC0P3915KVY8X6BNRIWYOFFTN","","null","<img src=""img/land4.png"" style=""width:200px; border:14px solid green;"">","null","","","","","","","","","",""
"","image-keyboard-response","252","104306","0.0-252.0","3JNQLM5FT58V7X9B2VUF60AE3IJ2LT","A1IGMCPVC4D7UL","3Z3R5YC0P3915KVY8X6BNRIWYOFFTN","","325.30000000447035","img/land4.png","75","327","2","0","1","2","0.8,0.2,0.2,0.2,0.8,0.2,0.2,0.2,0.8","0.2,0.8,0.2,0.2,0.2,0.8,0.8,0.2,0.2","3","",""
"","html-keyboard-response","253","104609","0.0-253.0","3JNQLM5FT58V7X9B2VUF60AE3IJ2LT","A1IGMCPVC4D7UL","3Z3R5YC0P3915KVY8X6BNRIWYOFFTN","","null","<img src=""img/land4.png"" style=""width:200px;border:14px solid red;"">","null","","","","","","","","","",""
"","image-keyboard-response","254","105024","0.0-254.0","3JNQLM5FT58V7X9B2VUF60AE3IJ2LT","A1IGMCPVC4D7UL","3Z3R5YC0P3915KVY8X6BNRIWYOFFTN","","413.30000000447035","img/land6.png","75","415","2","1","2","2","0.8,0.2,0.2,0.2,0.8,0.2,0.2,0.2,0.8","0.2,0.8,0.2,0.2,0.2,0.8,0.8,0.2,0.2","3","",""
"","html-keyboard-response","255","105327","0.0-255.0","3JNQLM5FT58V7X9B2VUF60AE3IJ2LT","A1IGMCPVC4D7UL","3Z3R5YC0P3915KVY8X6BNRIWYOFFTN","","null","<img src=""img/land6.png"" style=""width:200px; border:14px solid green;"">","null","","","","","","","","","",""
"","image-keyboard-response","256","105673","0.0-256.0","3JNQLM5FT58V7X9B2VUF60AE3IJ2LT","A1IGMCPVC4D7UL","3Z3R5YC0P3915KVY8X6BNRIWYOFFTN","","343.69999999552965","img/land4.png","75","345.3999999985099","2","1","1","2","0.8,0.2,0.2,0.2,0.8,0.2,0.2,0.2,0.8","0.2,0.8,0.2,0.2,0.2,0.8,0.8,0.2,0.2","3","",""
"","html-keyboard-response","257","105975","0.0-257.0","3JNQLM5FT58V7X9B2VUF60AE3IJ2LT","A1IGMCPVC4D7UL","3Z3R5YC0P3915KVY8X6BNRIWYOFFTN","","null","<img src=""img/land4.png"" style=""width:200px; border:14px solid green;"">","null","","","","","","","","","",""
"","image-keyboard-response","258","106278","0.0-258.0","3JNQLM5FT58V7X9B2VUF60AE3IJ2LT","A1IGMCPVC4D7UL","3Z3R5YC0P3915KVY8X6BNRIWYOFFTN","","300.69999999552965","img/land4.png","75","302.29999999701977","2","0","1","2","0.8,0.2,0.2,0.2,0.8,0.2,0.2,0.2,0.8","0.2,0.8,0.2,0.2,0.2,0.8,0.8,0.2,0.2","3","",""
"","html-keyboard-response","259","106580","0.0-259.0","3JNQLM5FT58V7X9B2VUF60AE3IJ2LT","A1IGMCPVC4D7UL","3Z3R5YC0P3915KVY8X6BNRIWYOFFTN","","null","<img src=""img/land4.png"" style=""width:200px;border:14px solid red;"">","null","","","","","","","","","",""
"","image-keyboard-response","260","106991","0.0-260.0","3JNQLM5FT58V7X9B2VUF60AE3IJ2LT","A1IGMCPVC4D7UL","3Z3R5YC0P3915KVY8X6BNRIWYOFFTN","","408.69999999552965","img/land6.png","75","410.5","2","0","2","2","0.8,0.2,0.2,0.2,0.8,0.2,0.2,0.2,0.8","0.2,0.8,0.2,0.2,0.2,0.8,0.8,0.2,0.2","3","",""
"","html-keyboard-response","261","107295","0.0-261.0","3JNQLM5FT58V7X9B2VUF60AE3IJ2LT","A1IGMCPVC4D7UL","3Z3R5YC0P3915KVY8X6BNRIWYOFFTN","","null","<img src=""img/land6.png"" style=""width:200px;border:14px solid red;"">","null","","","","","","","","","",""
"","image-keyboard-response","262","107617","0.0-262.0","3JNQLM5FT58V7X9B2VUF60AE3IJ2LT","A1IGMCPVC4D7UL","3Z3R5YC0P3915KVY8X6BNRIWYOFFTN","","319.70000000298023","img/land4.png","75","321.3999999985099","2","1","1","2","0.8,0.2,0.2,0.2,0.8,0.2,0.2,0.2,0.8","0.2,0.8,0.2,0.2,0.2,0.8,0.8,0.2,0.2","3","",""
"","html-keyboard-response","263","107920","0.0-263.0","3JNQLM5FT58V7X9B2VUF60AE3IJ2LT","A1IGMCPVC4D7UL","3Z3R5YC0P3915KVY8X6BNRIWYOFFTN","","null","<img src=""img/land4.png"" style=""width:200px; border:14px solid green;"">","null","","","","","","","","","",""
"","image-keyboard-response","264","108419","0.0-264.0","3JNQLM5FT58V7X9B2VUF60AE3IJ2LT","A1IGMCPVC4D7UL","3Z3R5YC0P3915KVY8X6BNRIWYOFFTN","","497","img/land4.png","75","498.79999999701977","2","0","1","2","0.8,0.2,0.2,0.2,0.8,0.2,0.2,0.2,0.8","0.2,0.8,0.2,0.2,0.2,0.8,0.8,0.2,0.2","3","",""
"","html-keyboard-response","265","108722","0.0-265.0","3JNQLM5FT58V7X9B2VUF60AE3IJ2LT","A1IGMCPVC4D7UL","3Z3R5YC0P3915KVY8X6BNRIWYOFFTN","","null","<img src=""img/land4.png"" style=""width:200px;border:14px solid red;"">","null","","","","","","","","","",""
"","image-keyboard-response","266","109117","0.0-266.0","3JNQLM5FT58V7X9B2VUF60AE3IJ2LT","A1IGMCPVC4D7UL","3Z3R5YC0P3915KVY8X6BNRIWYOFFTN","","393.3999999985099","img/land6.png","75","395","2","0","2","2","0.8,0.2,0.2,0.2,0.8,0.2,0.2,0.2,0.8","0.2,0.8,0.2,0.2,0.2,0.8,0.8,0.2,0.2","3","",""
"","html-keyboard-response","267","109420","0.0-267.0","3JNQLM5FT58V7X9B2VUF60AE3IJ2LT","A1IGMCPVC4D7UL","3Z3R5YC0P3915KVY8X6BNRIWYOFFTN","","null","<img src=""img/land6.png"" style=""width:200px;border:14px solid red;"">","null","","","","","","","","","",""
"","image-keyboard-response","268","109680","0.0-268.0","3JNQLM5FT58V7X9B2VUF60AE3IJ2LT","A1IGMCPVC4D7UL","3Z3R5YC0P3915KVY8X6BNRIWYOFFTN","","258.20000000298023","img/land6.png","75","259.8999999985099","2","0","2","2","0.8,0.2,0.2,0.2,0.8,0.2,0.2,0.2,0.8","0.2,0.8,0.2,0.2,0.2,0.8,0.8,0.2,0.2","3","",""
"","html-keyboard-response","269","109983","0.0-269.0","3JNQLM5FT58V7X9B2VUF60AE3IJ2LT","A1IGMCPVC4D7UL","3Z3R5YC0P3915KVY8X6BNRIWYOFFTN","","null","<img src=""img/land6.png"" style=""width:200px;border:14px solid red;"">","null","","","","","","","","","",""
"","image-keyboard-response","270","110544","0.0-270.0","3JNQLM5FT58V7X9B2VUF60AE3IJ2LT","A1IGMCPVC4D7UL","3Z3R5YC0P3915KVY8X6BNRIWYOFFTN","","558.6999999955297","img/land1.png","74","560.7000000029802","1","1","3","2","0.8,0.2,0.2,0.2,0.8,0.2,0.2,0.2,0.8","0.2,0.8,0.2,0.2,0.2,0.8,0.8,0.2,0.2","3","",""
"","html-keyboard-response","271","110846","0.0-271.0","3JNQLM5FT58V7X9B2VUF60AE3IJ2LT","A1IGMCPVC4D7UL","3Z3R5YC0P3915KVY8X6BNRIWYOFFTN","","null","<img src=""img/land1.png"" style=""width:200px; border:14px solid green;"">","null","","","","","","","","","",""
"","image-keyboard-response","272","111305","0.0-272.0","3JNQLM5FT58V7X9B2VUF60AE3IJ2LT","A1IGMCPVC4D7UL","3Z3R5YC0P3915KVY8X6BNRIWYOFFTN","","455.79999999701977","img/land1.png","74","457.8999999985099","1","1","3","2","0.8,0.2,0.2,0.2,0.8,0.2,0.2,0.2,0.8","0.2,0.8,0.2,0.2,0.2,0.8,0.8,0.2,0.2","3","",""
"","html-keyboard-response","273","111607","0.0-273.0","3JNQLM5FT58V7X9B2VUF60AE3IJ2LT","A1IGMCPVC4D7UL","3Z3R5YC0P3915KVY8X6BNRIWYOFFTN","","null","<img src=""img/land1.png"" style=""width:200px; border:14px solid green;"">","null","","","","","","","","","",""
"","image-keyboard-response","274","111979","0.0-274.0","3JNQLM5FT58V7X9B2VUF60AE3IJ2LT","A1IGMCPVC4D7UL","3Z3R5YC0P3915KVY8X6BNRIWYOFFTN","","369.3999999985099","img/land6.png","75","371","2","0","2","2","0.8,0.2,0.2,0.2,0.8,0.2,0.2,0.2,0.8","0.2,0.8,0.2,0.2,0.2,0.8,0.8,0.2,0.2","3","",""
"","html-keyboard-response","275","112281","0.0-275.0","3JNQLM5FT58V7X9B2VUF60AE3IJ2LT","A1IGMCPVC4D7UL","3Z3R5YC0P3915KVY8X6BNRIWYOFFTN","","null","<img src=""img/land6.png"" style=""width:200px;border:14px solid red;"">","null","","","","","","","","","",""
"","image-keyboard-response","276","112617","0.0-276.0","3JNQLM5FT58V7X9B2VUF60AE3IJ2LT","A1IGMCPVC4D7UL","3Z3R5YC0P3915KVY8X6BNRIWYOFFTN","","333.59999999403954","img/land6.png","75","335.70000000298023","2","0","2","2","0.8,0.2,0.2,0.2,0.8,0.2,0.2,0.2,0.8","0.2,0.8,0.2,0.2,0.2,0.8,0.8,0.2,0.2","3","",""
"","html-keyboard-response","277","112927","0.0-277.0","3JNQLM5FT58V7X9B2VUF60AE3IJ2LT","A1IGMCPVC4D7UL","3Z3R5YC0P3915KVY8X6BNRIWYOFFTN","","null","<img src=""img/land6.png"" style=""width:200px;border:14px solid red;"">","null","","","","","","","","","",""
"","image-keyboard-response","278","113252","0.0-278.0","3JNQLM5FT58V7X9B2VUF60AE3IJ2LT","A1IGMCPVC4D7UL","3Z3R5YC0P3915KVY8X6BNRIWYOFFTN","","323.5","img/land4.png","75","325.29999999701977","2","1","1","2","0.8,0.2,0.2,0.2,0.8,0.2,0.2,0.2,0.8","0.2,0.8,0.2,0.2,0.2,0.8,0.8,0.2,0.2","3","",""
"","html-keyboard-response","279","113557","0.0-279.0","3JNQLM5FT58V7X9B2VUF60AE3IJ2LT","A1IGMCPVC4D7UL","3Z3R5YC0P3915KVY8X6BNRIWYOFFTN","","null","<img src=""img/land4.png"" style=""width:200px; border:14px solid green;"">","null","","","","","","","","","",""
"","image-keyboard-response","280","114137","0.0-280.0","3JNQLM5FT58V7X9B2VUF60AE3IJ2LT","A1IGMCPVC4D7UL","3Z3R5YC0P3915KVY8X6BNRIWYOFFTN","","577.5","img/land1.png","74","579.8999999985099","1","1","3","2","0.8,0.2,0.2,0.2,0.8,0.2,0.2,0.2,0.8","0.2,0.8,0.2,0.2,0.2,0.8,0.8,0.2,0.2","3","",""
"","html-keyboard-response","281","114440","0.0-281.0","3JNQLM5FT58V7X9B2VUF60AE3IJ2LT","A1IGMCPVC4D7UL","3Z3R5YC0P3915KVY8X6BNRIWYOFFTN","","null","<img src=""img/land1.png"" style=""width:200px; border:14px solid green;"">","null","","","","","","","","","",""
"","image-keyboard-response","282","114878","0.0-282.0","3JNQLM5FT58V7X9B2VUF60AE3IJ2LT","A1IGMCPVC4D7UL","3Z3R5YC0P3915KVY8X6BNRIWYOFFTN","","435.8999999985099","img/land1.png","74","437.5","1","0","3","2","0.8,0.2,0.2,0.2,0.8,0.2,0.2,0.2,0.8","0.2,0.8,0.2,0.2,0.2,0.8,0.8,0.2,0.2","3","",""
"","html-keyboard-response","283","115182","0.0-283.0","3JNQLM5FT58V7X9B2VUF60AE3IJ2LT","A1IGMCPVC4D7UL","3Z3R5YC0P3915KVY8X6BNRIWYOFFTN","","null","<img src=""img/land1.png"" style=""width:200px;border:14px solid red;"">","null","","","","","","","","","",""
"","image-keyboard-response","284","115539","0.0-284.0","3JNQLM5FT58V7X9B2VUF60AE3IJ2LT","A1IGMCPVC4D7UL","3Z3R5YC0P3915KVY8X6BNRIWYOFFTN","","355","img/land4.png","75","356.70000000298023","2","0","1","2","0.8,0.2,0.2,0.2,0.8,0.2,0.2,0.2,0.8","0.2,0.8,0.2,0.2,0.2,0.8,0.8,0.2,0.2","3","",""
"","html-keyboard-response","285","115843","0.0-285.0","3JNQLM5FT58V7X9B2VUF60AE3IJ2LT","A1IGMCPVC4D7UL","3Z3R5YC0P3915KVY8X6BNRIWYOFFTN","","null","<img src=""img/land4.png"" style=""width:200px;border:14px solid red;"">","null","","","","","","","","","",""
"","image-keyboard-response","286","116048","0.0-286.0","3JNQLM5FT58V7X9B2VUF60AE3IJ2LT","A1IGMCPVC4D7UL","3Z3R5YC0P3915KVY8X6BNRIWYOFFTN","","203.39999999850988","img/land4.png","75","204.89999999850988","2","1","1","2","0.8,0.2,0.2,0.2,0.8,0.2,0.2,0.2,0.8","0.2,0.8,0.2,0.2,0.2,0.8,0.8,0.2,0.2","3","",""
"","html-keyboard-response","287","116351","0.0-287.0","3JNQLM5FT58V7X9B2VUF60AE3IJ2LT","A1IGMCPVC4D7UL","3Z3R5YC0P3915KVY8X6BNRIWYOFFTN","","null","<img src=""img/land4.png"" style=""width:200px; border:14px solid green;"">","null","","","","","","","","","",""
"","image-keyboard-response","288","116569","0.0-288.0","3JNQLM5FT58V7X9B2VUF60AE3IJ2LT","A1IGMCPVC4D7UL","3Z3R5YC0P3915KVY8X6BNRIWYOFFTN","","215.89999999850988","img/land4.png","75","217.60000000149012","2","1","1","2","0.8,0.2,0.2,0.2,0.8,0.2,0.2,0.2,0.8","0.2,0.8,0.2,0.2,0.2,0.8,0.8,0.2,0.2","3","",""
"","html-keyboard-response","289","116872","0.0-289.0","3JNQLM5FT58V7X9B2VUF60AE3IJ2LT","A1IGMCPVC4D7UL","3Z3R5YC0P3915KVY8X6BNRIWYOFFTN","","null","<img src=""img/land4.png"" style=""width:200px; border:14px solid green;"">","null","","","","","","","","","",""
"","image-keyboard-response","290","117370","0.0-290.0","3JNQLM5FT58V7X9B2VUF60AE3IJ2LT","A1IGMCPVC4D7UL","3Z3R5YC0P3915KVY8X6BNRIWYOFFTN","","495.3999999985099","img/land6.png","75","497.3999999985099","2","0","2","2","0.8,0.2,0.2,0.2,0.8,0.2,0.2,0.2,0.8","0.2,0.8,0.2,0.2,0.2,0.8,0.8,0.2,0.2","3","",""
"","html-keyboard-response","291","117673","0.0-291.0","3JNQLM5FT58V7X9B2VUF60AE3IJ2LT","A1IGMCPVC4D7UL","3Z3R5YC0P3915KVY8X6BNRIWYOFFTN","","null","<img src=""img/land6.png"" style=""width:200px;border:14px solid red;"">","null","","","","","","","","","",""
"","image-keyboard-response","292","117965","0.0-292.0","3JNQLM5FT58V7X9B2VUF60AE3IJ2LT","A1IGMCPVC4D7UL","3Z3R5YC0P3915KVY8X6BNRIWYOFFTN","","290","img/land4.png","75","291.8999999985099","2","0","1","2","0.8,0.2,0.2,0.2,0.8,0.2,0.2,0.2,0.8","0.2,0.8,0.2,0.2,0.2,0.8,0.8,0.2,0.2","3","",""
"","html-keyboard-response","293","118268","0.0-293.0","3JNQLM5FT58V7X9B2VUF60AE3IJ2LT","A1IGMCPVC4D7UL","3Z3R5YC0P3915KVY8X6BNRIWYOFFTN","","null","<img src=""img/land4.png"" style=""width:200px;border:14px solid red;"">","null","","","","","","","","","",""
"","image-keyboard-response","294","118539","0.0-294.0","3JNQLM5FT58V7X9B2VUF60AE3IJ2LT","A1IGMCPVC4D7UL","3Z3R5YC0P3915KVY8X6BNRIWYOFFTN","","269.30000000447035","img/land4.png","75","270.80000000447035","2","1","1","2","0.8,0.2,0.2,0.2,0.8,0.2,0.2,0.2,0.8","0.2,0.8,0.2,0.2,0.2,0.8,0.8,0.2,0.2","3","",""
"","html-keyboard-response","295","118841","0.0-295.0","3JNQLM5FT58V7X9B2VUF60AE3IJ2LT","A1IGMCPVC4D7UL","3Z3R5YC0P3915KVY8X6BNRIWYOFFTN","","null","<img src=""img/land4.png"" style=""width:200px; border:14px solid green;"">","null","","","","","","","","","",""
"","image-keyboard-response","296","119314","0.0-296.0","3JNQLM5FT58V7X9B2VUF60AE3IJ2LT","A1IGMCPVC4D7UL","3Z3R5YC0P3915KVY8X6BNRIWYOFFTN","","469.3999999985099","img/land6.png","75","471.1000000014901","2","0","2","2","0.8,0.2,0.2,0.2,0.8,0.2,0.2,0.2,0.8","0.2,0.8,0.2,0.2,0.2,0.8,0.8,0.2,0.2","3","",""
"","html-keyboard-response","297","119616","0.0-297.0","3JNQLM5FT58V7X9B2VUF60AE3IJ2LT","A1IGMCPVC4D7UL","3Z3R5YC0P3915KVY8X6BNRIWYOFFTN","","null","<img src=""img/land6.png"" style=""width:200px;border:14px solid red;"">","null","","","","","","","","","",""
"","image-keyboard-response","298","119951","0.0-298.0","3JNQLM5FT58V7X9B2VUF60AE3IJ2LT","A1IGMCPVC4D7UL","3Z3R5YC0P3915KVY8X6BNRIWYOFFTN","","332.80000000447035","img/land4.png","75","334.5","2","0","1","2","0.8,0.2,0.2,0.2,0.8,0.2,0.2,0.2,0.8","0.2,0.8,0.2,0.2,0.2,0.8,0.8,0.2,0.2","3","",""
"","html-keyboard-response","299","120254","0.0-299.0","3JNQLM5FT58V7X9B2VUF60AE3IJ2LT","A1IGMCPVC4D7UL","3Z3R5YC0P3915KVY8X6BNRIWYOFFTN","","null","<img src=""img/land4.png"" style=""width:200px;border:14px solid red;"">","null","","","","","","","","","",""
"","image-keyboard-response","300","120564","0.0-300.0","3JNQLM5FT58V7X9B2VUF60AE3IJ2LT","A1IGMCPVC4D7UL","3Z3R5YC0P3915KVY8X6BNRIWYOFFTN","","308","img/land4.png","75","309.69999999552965","2","1","1","2","0.8,0.2,0.2,0.2,0.8,0.2,0.2,0.2,0.8","0.2,0.8,0.2,0.2,0.2,0.8,0.8,0.2,0.2","3","",""
"","html-keyboard-response","301","120866","0.0-301.0","3JNQLM5FT58V7X9B2VUF60AE3IJ2LT","A1IGMCPVC4D7UL","3Z3R5YC0P3915KVY8X6BNRIWYOFFTN","","null","<img src=""img/land4.png"" style=""width:200px; border:14px solid green;"">","null","","","","","","","","","",""
"","image-keyboard-response","302","122781","0.0-302.0","3JNQLM5FT58V7X9B2VUF60AE3IJ2LT","A1IGMCPVC4D7UL","3Z3R5YC0P3915KVY8X6BNRIWYOFFTN","","1912.5999999940395","img/land2.png","76","1914.2000000029802","3","1","3","1","0.8,0.2,0.2,0.2,0.8,0.2,0.2,0.2,0.8","0.8,0.2,0.2,0.2,0.8,0.2,0.2,0.2,0.8","1","",""
"","html-keyboard-response","303","123083","0.0-303.0","3JNQLM5FT58V7X9B2VUF60AE3IJ2LT","A1IGMCPVC4D7UL","3Z3R5YC0P3915KVY8X6BNRIWYOFFTN","","null","<img src=""img/land2.png"" style=""width:200px; border:14px solid green;"">","null","","","","","","","","","",""
"","image-keyboard-response","304","123449","0.0-304.0","3JNQLM5FT58V7X9B2VUF60AE3IJ2LT","A1IGMCPVC4D7UL","3Z3R5YC0P3915KVY8X6BNRIWYOFFTN","","363.40000000596046","img/land2.png","76","365.1000000014901","3","0","3","1","0.8,0.2,0.2,0.2,0.8,0.2,0.2,0.2,0.8","0.8,0.2,0.2,0.2,0.8,0.2,0.2,0.2,0.8","1","",""
"","html-keyboard-response","305","123753","0.0-305.0","3JNQLM5FT58V7X9B2VUF60AE3IJ2LT","A1IGMCPVC4D7UL","3Z3R5YC0P3915KVY8X6BNRIWYOFFTN","","null","<img src=""img/land2.png"" style=""width:200px;border:14px solid red;"">","null","","","","","","","","","",""
"","image-keyboard-response","306","124023","0.0-306.0","3JNQLM5FT58V7X9B2VUF60AE3IJ2LT","A1IGMCPVC4D7UL","3Z3R5YC0P3915KVY8X6BNRIWYOFFTN","","268.29999999701977","img/land2.png","76","270","3","0","3","1","0.8,0.2,0.2,0.2,0.8,0.2,0.2,0.2,0.8","0.8,0.2,0.2,0.2,0.8,0.2,0.2,0.2,0.8","1","",""
"","html-keyboard-response","307","124326","0.0-307.0","3JNQLM5FT58V7X9B2VUF60AE3IJ2LT","A1IGMCPVC4D7UL","3Z3R5YC0P3915KVY8X6BNRIWYOFFTN","","null","<img src=""img/land2.png"" style=""width:200px;border:14px solid red;"">","null","","","","","","","","","",""
"","image-keyboard-response","308","124486","0.0-308.0","3JNQLM5FT58V7X9B2VUF60AE3IJ2LT","A1IGMCPVC4D7UL","3Z3R5YC0P3915KVY8X6BNRIWYOFFTN","","158","img/land5.png","75","159.70000000298023","2","1","2","1","0.8,0.2,0.2,0.2,0.8,0.2,0.2,0.2,0.8","0.8,0.2,0.2,0.2,0.8,0.2,0.2,0.2,0.8","1","",""
"","html-keyboard-response","309","124789","0.0-309.0","3JNQLM5FT58V7X9B2VUF60AE3IJ2LT","A1IGMCPVC4D7UL","3Z3R5YC0P3915KVY8X6BNRIWYOFFTN","","null","<img src=""img/land5.png"" style=""width:200px; border:14px solid green;"">","null","","","","","","","","","",""
"","image-keyboard-response","310","125567","0.0-310.0","3JNQLM5FT58V7X9B2VUF60AE3IJ2LT","A1IGMCPVC4D7UL","3Z3R5YC0P3915KVY8X6BNRIWYOFFTN","","776.2999999970198","img/land2.png","75","778","2","1","3","1","0.8,0.2,0.2,0.2,0.8,0.2,0.2,0.2,0.8","0.8,0.2,0.2,0.2,0.8,0.2,0.2,0.2,0.8","1","",""
"","html-keyboard-response","311","125869","0.0-311.0","3JNQLM5FT58V7X9B2VUF60AE3IJ2LT","A1IGMCPVC4D7UL","3Z3R5YC0P3915KVY8X6BNRIWYOFFTN","","null","<img src=""img/land2.png"" style=""width:200px; border:14px solid green;"">","null","","","","","","","","","",""
"","image-keyboard-response","312","126144","0.0-312.0","3JNQLM5FT58V7X9B2VUF60AE3IJ2LT","A1IGMCPVC4D7UL","3Z3R5YC0P3915KVY8X6BNRIWYOFFTN","","272.6000000014901","img/land2.png","75","274.5","2","0","3","1","0.8,0.2,0.2,0.2,0.8,0.2,0.2,0.2,0.8","0.8,0.2,0.2,0.2,0.8,0.2,0.2,0.2,0.8","1","",""
"","html-keyboard-response","313","126448","0.0-313.0","3JNQLM5FT58V7X9B2VUF60AE3IJ2LT","A1IGMCPVC4D7UL","3Z3R5YC0P3915KVY8X6BNRIWYOFFTN","","null","<img src=""img/land2.png"" style=""width:200px;border:14px solid red;"">","null","","","","","","","","","",""
"","image-keyboard-response","314","127002","0.0-314.0","3JNQLM5FT58V7X9B2VUF60AE3IJ2LT","A1IGMCPVC4D7UL","3Z3R5YC0P3915KVY8X6BNRIWYOFFTN","","552.0999999940395","img/land5.png","74","553.7000000029802","1","0","2","1","0.8,0.2,0.2,0.2,0.8,0.2,0.2,0.2,0.8","0.8,0.2,0.2,0.2,0.8,0.2,0.2,0.2,0.8","1","",""
"","html-keyboard-response","315","127304","0.0-315.0","3JNQLM5FT58V7X9B2VUF60AE3IJ2LT","A1IGMCPVC4D7UL","3Z3R5YC0P3915KVY8X6BNRIWYOFFTN","","null","<img src=""img/land5.png"" style=""width:200px;border:14px solid red;"">","null","","","","","","","","","",""
"","image-keyboard-response","316","127809","0.0-316.0","3JNQLM5FT58V7X9B2VUF60AE3IJ2LT","A1IGMCPVC4D7UL","3Z3R5YC0P3915KVY8X6BNRIWYOFFTN","","502.5","img/land3.png","75","504.1000000014901","2","0","1","1","0.8,0.2,0.2,0.2,0.8,0.2,0.2,0.2,0.8","0.8,0.2,0.2,0.2,0.8,0.2,0.2,0.2,0.8","1","",""
"","html-keyboard-response","317","128112","0.0-317.0","3JNQLM5FT58V7X9B2VUF60AE3IJ2LT","A1IGMCPVC4D7UL","3Z3R5YC0P3915KVY8X6BNRIWYOFFTN","","null","<img src=""img/land3.png"" style=""width:200px;border:14px solid red;"">","null","","","","","","","","","",""
"","image-keyboard-response","318","128577","0.0-318.0","3JNQLM5FT58V7X9B2VUF60AE3IJ2LT","A1IGMCPVC4D7UL","3Z3R5YC0P3915KVY8X6BNRIWYOFFTN","","462.3999999985099","img/land3.png","74","464.09999999403954","1","1","1","1","0.8,0.2,0.2,0.2,0.8,0.2,0.2,0.2,0.8","0.8,0.2,0.2,0.2,0.8,0.2,0.2,0.2,0.8","1","",""
"","html-keyboard-response","319","128879","0.0-319.0","3JNQLM5FT58V7X9B2VUF60AE3IJ2LT","A1IGMCPVC4D7UL","3Z3R5YC0P3915KVY8X6BNRIWYOFFTN","","null","<img src=""img/land3.png"" style=""width:200px; border:14px solid green;"">","null","","","","","","","","","",""
"","image-keyboard-response","320","129256","0.0-320.0","3JNQLM5FT58V7X9B2VUF60AE3IJ2LT","A1IGMCPVC4D7UL","3Z3R5YC0P3915KVY8X6BNRIWYOFFTN","","374.20000000298023","img/land3.png","74","375.80000000447035","1","0","1","1","0.8,0.2,0.2,0.2,0.8,0.2,0.2,0.2,0.8","0.8,0.2,0.2,0.2,0.8,0.2,0.2,0.2,0.8","1","",""
"","html-keyboard-response","321","129559","0.0-321.0","3JNQLM5FT58V7X9B2VUF60AE3IJ2LT","A1IGMCPVC4D7UL","3Z3R5YC0P3915KVY8X6BNRIWYOFFTN","","null","<img src=""img/land3.png"" style=""width:200px;border:14px solid red;"">","null","","","","","","","","","",""
"","image-keyboard-response","322","129842","0.0-322.0","3JNQLM5FT58V7X9B2VUF60AE3IJ2LT","A1IGMCPVC4D7UL","3Z3R5YC0P3915KVY8X6BNRIWYOFFTN","","280.8999999985099","img/land3.png","74","282.8999999985099","1","1","1","1","0.8,0.2,0.2,0.2,0.8,0.2,0.2,0.2,0.8","0.8,0.2,0.2,0.2,0.8,0.2,0.2,0.2,0.8","1","",""
"","html-keyboard-response","323","130144","0.0-323.0","3JNQLM5FT58V7X9B2VUF60AE3IJ2LT","A1IGMCPVC4D7UL","3Z3R5YC0P3915KVY8X6BNRIWYOFFTN","","null","<img src=""img/land3.png"" style=""width:200px; border:14px solid green;"">","null","","","","","","","","","",""
"","image-keyboard-response","324","130279","0.0-324.0","3JNQLM5FT58V7X9B2VUF60AE3IJ2LT","A1IGMCPVC4D7UL","3Z3R5YC0P3915KVY8X6BNRIWYOFFTN","","132.60000000149012","img/land5.png","74","134.40000000596046","1","0","2","1","0.8,0.2,0.2,0.2,0.8,0.2,0.2,0.2,0.8","0.8,0.2,0.2,0.2,0.8,0.2,0.2,0.2,0.8","1","",""
"","html-keyboard-response","325","130587","0.0-325.0","3JNQLM5FT58V7X9B2VUF60AE3IJ2LT","A1IGMCPVC4D7UL","3Z3R5YC0P3915KVY8X6BNRIWYOFFTN","","null","<img src=""img/land5.png"" style=""width:200px;border:14px solid red;"">","null","","","","","","","","","",""
"","image-keyboard-response","326","131434","0.0-326.0","3JNQLM5FT58V7X9B2VUF60AE3IJ2LT","A1IGMCPVC4D7UL","3Z3R5YC0P3915KVY8X6BNRIWYOFFTN","","844.7999999970198","img/land2.png","75","846.3999999985099","2","1","3","1","0.8,0.2,0.2,0.2,0.8,0.2,0.2,0.2,0.8","0.8,0.2,0.2,0.2,0.8,0.2,0.2,0.2,0.8","1","",""
"","html-keyboard-response","327","131736","0.0-327.0","3JNQLM5FT58V7X9B2VUF60AE3IJ2LT","A1IGMCPVC4D7UL","3Z3R5YC0P3915KVY8X6BNRIWYOFFTN","","null","<img src=""img/land2.png"" style=""width:200px; border:14px solid green;"">","null","","","","","","","","","",""
"","image-keyboard-response","328","132712","0.0-328.0","3JNQLM5FT58V7X9B2VUF60AE3IJ2LT","A1IGMCPVC4D7UL","3Z3R5YC0P3915KVY8X6BNRIWYOFFTN","","973.7999999970198","img/land5.png","75","975.6000000014901","2","0","2","1","0.8,0.2,0.2,0.2,0.8,0.2,0.2,0.2,0.8","0.8,0.2,0.2,0.2,0.8,0.2,0.2,0.2,0.8","1","",""
"","html-keyboard-response","329","133015","0.0-329.0","3JNQLM5FT58V7X9B2VUF60AE3IJ2LT","A1IGMCPVC4D7UL","3Z3R5YC0P3915KVY8X6BNRIWYOFFTN","","null","<img src=""img/land5.png"" style=""width:200px;border:14px solid red;"">","null","","","","","","","","","",""
"","image-keyboard-response","330","134181","0.0-330.0","3JNQLM5FT58V7X9B2VUF60AE3IJ2LT","A1IGMCPVC4D7UL","3Z3R5YC0P3915KVY8X6BNRIWYOFFTN","","1163.8999999985099","img/land3.png","74","1165.8000000044703","1","1","1","1","0.8,0.2,0.2,0.2,0.8,0.2,0.2,0.2,0.8","0.8,0.2,0.2,0.2,0.8,0.2,0.2,0.2,0.8","1","",""
"","html-keyboard-response","331","134483","0.0-331.0","3JNQLM5FT58V7X9B2VUF60AE3IJ2LT","A1IGMCPVC4D7UL","3Z3R5YC0P3915KVY8X6BNRIWYOFFTN","","null","<img src=""img/land3.png"" style=""width:200px; border:14px solid green;"">","null","","","","","","","","","",""
"","image-keyboard-response","332","134869","0.0-332.0","3JNQLM5FT58V7X9B2VUF60AE3IJ2LT","A1IGMCPVC4D7UL","3Z3R5YC0P3915KVY8X6BNRIWYOFFTN","","383.19999999552965","img/land3.png","74","384.8999999985099","1","1","1","1","0.8,0.2,0.2,0.2,0.8,0.2,0.2,0.2,0.8","0.8,0.2,0.2,0.2,0.8,0.2,0.2,0.2,0.8","1","",""
"","html-keyboard-response","333","135170","0.0-333.0","3JNQLM5FT58V7X9B2VUF60AE3IJ2LT","A1IGMCPVC4D7UL","3Z3R5YC0P3915KVY8X6BNRIWYOFFTN","","null","<img src=""img/land3.png"" style=""width:200px; border:14px solid green;"">","null","","","","","","","","","",""
"","image-keyboard-response","334","136011","0.0-334.0","3JNQLM5FT58V7X9B2VUF60AE3IJ2LT","A1IGMCPVC4D7UL","3Z3R5YC0P3915KVY8X6BNRIWYOFFTN","","837.5","img/land5.png","75","839.7000000029802","2","1","2","1","0.8,0.2,0.2,0.2,0.8,0.2,0.2,0.2,0.8","0.8,0.2,0.2,0.2,0.8,0.2,0.2,0.2,0.8","1","",""
"","html-keyboard-response","335","136314","0.0-335.0","3JNQLM5FT58V7X9B2VUF60AE3IJ2LT","A1IGMCPVC4D7UL","3Z3R5YC0P3915KVY8X6BNRIWYOFFTN","","null","<img src=""img/land5.png"" style=""width:200px; border:14px solid green;"">","null","","","","","","","","","",""
"","image-keyboard-response","336","136901","0.0-336.0","3JNQLM5FT58V7X9B2VUF60AE3IJ2LT","A1IGMCPVC4D7UL","3Z3R5YC0P3915KVY8X6BNRIWYOFFTN","","585.0999999940395","img/land3.png","74","586.7999999970198","1","0","1","1","0.8,0.2,0.2,0.2,0.8,0.2,0.2,0.2,0.8","0.8,0.2,0.2,0.2,0.8,0.2,0.2,0.2,0.8","1","",""
"","html-keyboard-response","337","137203","0.0-337.0","3JNQLM5FT58V7X9B2VUF60AE3IJ2LT","A1IGMCPVC4D7UL","3Z3R5YC0P3915KVY8X6BNRIWYOFFTN","","null","<img src=""img/land3.png"" style=""width:200px;border:14px solid red;"">","null","","","","","","","","","",""
"","image-keyboard-response","338","137591","0.0-338.0","3JNQLM5FT58V7X9B2VUF60AE3IJ2LT","A1IGMCPVC4D7UL","3Z3R5YC0P3915KVY8X6BNRIWYOFFTN","","386.1000000014901","img/land3.png","74","387.8999999985099","1","1","1","1","0.8,0.2,0.2,0.2,0.8,0.2,0.2,0.2,0.8","0.8,0.2,0.2,0.2,0.8,0.2,0.2,0.2,0.8","1","",""
"","html-keyboard-response","339","137894","0.0-339.0","3JNQLM5FT58V7X9B2VUF60AE3IJ2LT","A1IGMCPVC4D7UL","3Z3R5YC0P3915KVY8X6BNRIWYOFFTN","","null","<img src=""img/land3.png"" style=""width:200px; border:14px solid green;"">","null","","","","","","","","","",""
"","image-keyboard-response","340","138224","0.0-340.0","3JNQLM5FT58V7X9B2VUF60AE3IJ2LT","A1IGMCPVC4D7UL","3Z3R5YC0P3915KVY8X6BNRIWYOFFTN","","327.80000000447035","img/land3.png","74","329.3999999985099","1","0","1","1","0.8,0.2,0.2,0.2,0.8,0.2,0.2,0.2,0.8","0.8,0.2,0.2,0.2,0.8,0.2,0.2,0.2,0.8","1","",""
"","html-keyboard-response","341","138526","0.0-341.0","3JNQLM5FT58V7X9B2VUF60AE3IJ2LT","A1IGMCPVC4D7UL","3Z3R5YC0P3915KVY8X6BNRIWYOFFTN","","null","<img src=""img/land3.png"" style=""width:200px;border:14px solid red;"">","null","","","","","","","","","",""
"","image-keyboard-response","342","138660","0.0-342.0","3JNQLM5FT58V7X9B2VUF60AE3IJ2LT","A1IGMCPVC4D7UL","3Z3R5YC0P3915KVY8X6BNRIWYOFFTN","","131.30000000447035","img/land3.png","74","133.10000000149012","1","0","1","1","0.8,0.2,0.2,0.2,0.8,0.2,0.2,0.2,0.8","0.8,0.2,0.2,0.2,0.8,0.2,0.2,0.2,0.8","1","",""
"","html-keyboard-response","343","138963","0.0-343.0","3JNQLM5FT58V7X9B2VUF60AE3IJ2LT","A1IGMCPVC4D7UL","3Z3R5YC0P3915KVY8X6BNRIWYOFFTN","","null","<img src=""img/land3.png"" style=""width:200px;border:14px solid red;"">","null","","","","","","","","","",""
"","image-keyboard-response","344","139024","0.0-344.0","3JNQLM5FT58V7X9B2VUF60AE3IJ2LT","A1IGMCPVC4D7UL","3Z3R5YC0P3915KVY8X6BNRIWYOFFTN","","59","img/land3.png","74","60.80000000447035","1","1","1","1","0.8,0.2,0.2,0.2,0.8,0.2,0.2,0.2,0.8","0.8,0.2,0.2,0.2,0.8,0.2,0.2,0.2,0.8","1","",""
"","html-keyboard-response","345","139326","0.0-345.0","3JNQLM5FT58V7X9B2VUF60AE3IJ2LT","A1IGMCPVC4D7UL","3Z3R5YC0P3915KVY8X6BNRIWYOFFTN","","null","<img src=""img/land3.png"" style=""width:200px; border:14px solid green;"">","null","","","","","","","","","",""
"","image-keyboard-response","346","139442","0.0-346.0","3JNQLM5FT58V7X9B2VUF60AE3IJ2LT","A1IGMCPVC4D7UL","3Z3R5YC0P3915KVY8X6BNRIWYOFFTN","","113.80000000447035","img/land5.png","74","115.80000000447035","1","0","2","1","0.8,0.2,0.2,0.2,0.8,0.2,0.2,0.2,0.8","0.8,0.2,0.2,0.2,0.8,0.2,0.2,0.2,0.8","1","",""
"","html-keyboard-response","347","139744","0.0-347.0","3JNQLM5FT58V7X9B2VUF60AE3IJ2LT","A1IGMCPVC4D7UL","3Z3R5YC0P3915KVY8X6BNRIWYOFFTN","","null","<img src=""img/land5.png"" style=""width:200px;border:14px solid red;"">","null","","","","","","","","","",""
"","image-keyboard-response","348","140468","0.0-348.0","3JNQLM5FT58V7X9B2VUF60AE3IJ2LT","A1IGMCPVC4D7UL","3Z3R5YC0P3915KVY8X6BNRIWYOFFTN","","721.5","img/land3.png","74","723.3000000044703","1","1","1","1","0.8,0.2,0.2,0.2,0.8,0.2,0.2,0.2,0.8","0.8,0.2,0.2,0.2,0.8,0.2,0.2,0.2,0.8","1","",""
"","html-keyboard-response","349","140770","0.0-349.0","3JNQLM5FT58V7X9B2VUF60AE3IJ2LT","A1IGMCPVC4D7UL","3Z3R5YC0P3915KVY8X6BNRIWYOFFTN","","null","<img src=""img/land3.png"" style=""width:200px; border:14px solid green;"">","null","","","","","","","","","",""
"","image-keyboard-response","350","141078","0.0-350.0","3JNQLM5FT58V7X9B2VUF60AE3IJ2LT","A1IGMCPVC4D7UL","3Z3R5YC0P3915KVY8X6BNRIWYOFFTN","","305.5","img/land3.png","74","307.30000000447035","1","0","1","1","0.8,0.2,0.2,0.2,0.8,0.2,0.2,0.2,0.8","0.8,0.2,0.2,0.2,0.8,0.2,0.2,0.2,0.8","1","",""
"","html-keyboard-response","351","141382","0.0-351.0","3JNQLM5FT58V7X9B2VUF60AE3IJ2LT","A1IGMCPVC4D7UL","3Z3R5YC0P3915KVY8X6BNRIWYOFFTN","","null","<img src=""img/land3.png"" style=""width:200px;border:14px solid red;"">","null","","","","","","","","","",""
"","image-keyboard-response","352","141799","0.0-352.0","3JNQLM5FT58V7X9B2VUF60AE3IJ2LT","A1IGMCPVC4D7UL","3Z3R5YC0P3915KVY8X6BNRIWYOFFTN","","414.3999999985099","img/land5.png","75","416.29999999701977","2","1","2","1","0.8,0.2,0.2,0.2,0.8,0.2,0.2,0.2,0.8","0.8,0.2,0.2,0.2,0.8,0.2,0.2,0.2,0.8","1","",""
"","html-keyboard-response","353","142102","0.0-353.0","3JNQLM5FT58V7X9B2VUF60AE3IJ2LT","A1IGMCPVC4D7UL","3Z3R5YC0P3915KVY8X6BNRIWYOFFTN","","null","<img src=""img/land5.png"" style=""width:200px; border:14px solid green;"">","null","","","","","","","","","",""
"","image-keyboard-response","354","142490","0.0-354.0","3JNQLM5FT58V7X9B2VUF60AE3IJ2LT","A1IGMCPVC4D7UL","3Z3R5YC0P3915KVY8X6BNRIWYOFFTN","","384.3999999985099","img/land3.png","75","386.70000000298023","2","0","1","1","0.8,0.2,0.2,0.2,0.8,0.2,0.2,0.2,0.8","0.8,0.2,0.2,0.2,0.8,0.2,0.2,0.2,0.8","1","",""
