"success","trial_type","trial_index","time_elapsed","internal_node_id","assignmentID","mturkID","hitID","view_history","rt","stimulus","key_press","reactionTime","a","r","s","cond","reward_cond","reward_cond_actual","reward_matrix_idx","responses","question_order"
"true","fullscreen","0","10229","0.0-0.0","3R5F3LQFV36TJTFK4UJLLSOFJW7OZO","A1KIL2V6SMJBGX","3YKP7CX6G21OU5MBQSHEZ5ZTUTWB7P","","","","","","","","","","","","","",""
"","instructions","1","24074","0.0-1.0","3R5F3LQFV36TJTFK4UJLLSOFJW7OZO","A1KIL2V6SMJBGX","3YKP7CX6G21OU5MBQSHEZ5ZTUTWB7P","[{""page_index"":0,""viewing_time"":2101},{""page_index"":1,""viewing_time"":1396},{""page_index"":2,""viewing_time"":2073},{""page_index"":3,""viewing_time"":2689},{""page_index"":4,""viewing_time"":2682},{""page_index"":5,""viewing_time"":1161},{""page_index"":6,""viewing_time"":1731}]","13834","","","","","","","","","","","",""
"","image-keyboard-response","2","25520","0.0-2.0","3R5F3LQFV36TJTFK4UJLLSOFJW7OZO","A1KIL2V6SMJBGX","3YKP7CX6G21OU5MBQSHEZ5ZTUTWB7P","","1437","img/land2.png","74","1443","1","0","2","1","0.8,0.2,0.2,0.2,0.8,0.2,0.2,0.2,0.8","0.8,0.2,0.2,0.2,0.8,0.2,0.2,0.2,0.8","1","",""
"","html-keyboard-response","3","25837","0.0-3.0","3R5F3LQFV36TJTFK4UJLLSOFJW7OZO","A1KIL2V6SMJBGX","3YKP7CX6G21OU5MBQSHEZ5ZTUTWB7P","","null","<img src=""img/land2.png"" style=""width:200px;border:14px solid red;"">","null","","","","","","","","","",""
"","image-keyboard-response","4","26210","0.0-4.0","3R5F3LQFV36TJTFK4UJLLSOFJW7OZO","A1KIL2V6SMJBGX","3YKP7CX6G21OU5MBQSHEZ5ZTUTWB7P","","365","img/land2.png","74","370","1","0","2","1","0.8,0.2,0.2,0.2,0.8,0.2,0.2,0.2,0.8","0.8,0.2,0.2,0.2,0.8,0.2,0.2,0.2,0.8","1","",""
"","html-keyboard-response","5","26522","0.0-5.0","3R5F3LQFV36TJTFK4UJLLSOFJW7OZO","A1KIL2V6SMJBGX","3YKP7CX6G21OU5MBQSHEZ5ZTUTWB7P","","null","<img src=""img/land2.png"" style=""width:200px;border:14px solid red;"">","null","","","","","","","","","",""
"","image-keyboard-response","6","26743","0.0-6.0","3R5F3LQFV36TJTFK4UJLLSOFJW7OZO","A1KIL2V6SMJBGX","3YKP7CX6G21OU5MBQSHEZ5ZTUTWB7P","","214","img/land6.png","75","218","2","1","3","1","0.8,0.2,0.2,0.2,0.8,0.2,0.2,0.2,0.8","0.8,0.2,0.2,0.2,0.8,0.2,0.2,0.2,0.8","1","",""
"","html-keyboard-response","7","27055","0.0-7.0","3R5F3LQFV36TJTFK4UJLLSOFJW7OZO","A1KIL2V6SMJBGX","3YKP7CX6G21OU5MBQSHEZ5ZTUTWB7P","","null","<img src=""img/land6.png"" style=""width:200px; border:14px solid green;"">","null","","","","","","","","","",""
"","image-keyboard-response","8","27377","0.0-8.0","3R5F3LQFV36TJTFK4UJLLSOFJW7OZO","A1KIL2V6SMJBGX","3YKP7CX6G21OU5MBQSHEZ5ZTUTWB7P","","315","img/land4.png","75","319","2","1","1","1","0.8,0.2,0.2,0.2,0.8,0.2,0.2,0.2,0.8","0.8,0.2,0.2,0.2,0.8,0.2,0.2,0.2,0.8","1","",""
"","html-keyboard-response","9","27694","0.0-9.0","3R5F3LQFV36TJTFK4UJLLSOFJW7OZO","A1KIL2V6SMJBGX","3YKP7CX6G21OU5MBQSHEZ5ZTUTWB7P","","null","<img src=""img/land4.png"" style=""width:200px; border:14px solid green;"">","null","","","","","","","","","",""
"","image-keyboard-response","10","27872","0.0-10.0","3R5F3LQFV36TJTFK4UJLLSOFJW7OZO","A1KIL2V6SMJBGX","3YKP7CX6G21OU5MBQSHEZ5ZTUTWB7P","","174","img/land2.png","75","176","2","1","2","1","0.8,0.2,0.2,0.2,0.8,0.2,0.2,0.2,0.8","0.8,0.2,0.2,0.2,0.8,0.2,0.2,0.2,0.8","1","",""
"","html-keyboard-response","11","28211","0.0-11.0","3R5F3LQFV36TJTFK4UJLLSOFJW7OZO","A1KIL2V6SMJBGX","3YKP7CX6G21OU5MBQSHEZ5ZTUTWB7P","","null","<img src=""img/land2.png"" style=""width:200px; border:14px solid green;"">","null","","","","","","","","","",""
"","image-keyboard-response","12","28373","0.0-12.0","3R5F3LQFV36TJTFK4UJLLSOFJW7OZO","A1KIL2V6SMJBGX","3YKP7CX6G21OU5MBQSHEZ5ZTUTWB7P","","157","img/land4.png","75","158","2","0","1","1","0.8,0.2,0.2,0.2,0.8,0.2,0.2,0.2,0.8","0.8,0.2,0.2,0.2,0.8,0.2,0.2,0.2,0.8","1","",""
"","html-keyboard-response","13","28682","0.0-13.0","3R5F3LQFV36TJTFK4UJLLSOFJW7OZO","A1KIL2V6SMJBGX","3YKP7CX6G21OU5MBQSHEZ5ZTUTWB7P","","null","<img src=""img/land4.png"" style=""width:200px;border:14px solid red;"">","null","","","","","","","","","",""
"","image-keyboard-response","14","28940","0.0-14.0","3R5F3LQFV36TJTFK4UJLLSOFJW7OZO","A1KIL2V6SMJBGX","3YKP7CX6G21OU5MBQSHEZ5ZTUTWB7P","","254","img/land6.png","76","257","3","0","3","1","0.8,0.2,0.2,0.2,0.8,0.2,0.2,0.2,0.8","0.8,0.2,0.2,0.2,0.8,0.2,0.2,0.2,0.8","1","",""
"","html-keyboard-response","15","29246","0.0-15.0","3R5F3LQFV36TJTFK4UJLLSOFJW7OZO","A1KIL2V6SMJBGX","3YKP7CX6G21OU5MBQSHEZ5ZTUTWB7P","","null","<img src=""img/land6.png"" style=""width:200px;border:14px solid red;"">","null","","","","","","","","","",""
"","image-keyboard-response","16","29526","0.0-16.0","3R5F3LQFV36TJTFK4UJLLSOFJW7OZO","A1KIL2V6SMJBGX","3YKP7CX6G21OU5MBQSHEZ5ZTUTWB7P","","277","img/land6.png","75","279","2","0","3","1","0.8,0.2,0.2,0.2,0.8,0.2,0.2,0.2,0.8","0.8,0.2,0.2,0.2,0.8,0.2,0.2,0.2,0.8","1","",""
"","html-keyboard-response","17","29832","0.0-17.0","3R5F3LQFV36TJTFK4UJLLSOFJW7OZO","A1KIL2V6SMJBGX","3YKP7CX6G21OU5MBQSHEZ5ZTUTWB7P","","null","<img src=""img/land6.png"" style=""width:200px;border:14px solid red;"">","null","","","","","","","","","",""
"","image-keyboard-response","18","30463","0.0-18.0","3R5F3LQFV36TJTFK4UJLLSOFJW7OZO","A1KIL2V6SMJBGX","3YKP7CX6G21OU5MBQSHEZ5ZTUTWB7P","","627","img/land2.png","76","629","3","0","2","1","0.8,0.2,0.2,0.2,0.8,0.2,0.2,0.2,0.8","0.8,0.2,0.2,0.2,0.8,0.2,0.2,0.2,0.8","1","",""
"","html-keyboard-response","19","30772","0.0-19.0","3R5F3LQFV36TJTFK4UJLLSOFJW7OZO","A1KIL2V6SMJBGX","3YKP7CX6G21OU5MBQSHEZ5ZTUTWB7P","","null","<img src=""img/land2.png"" style=""width:200px;border:14px solid red;"">","null","","","","","","","","","",""
"","image-keyboard-response","20","31266","0.0-20.0","3R5F3LQFV36TJTFK4UJLLSOFJW7OZO","A1KIL2V6SMJBGX","3YKP7CX6G21OU5MBQSHEZ5ZTUTWB7P","","488","img/land6.png","75","492","2","0","3","1","0.8,0.2,0.2,0.2,0.8,0.2,0.2,0.2,0.8","0.8,0.2,0.2,0.2,0.8,0.2,0.2,0.2,0.8","1","",""
"","html-keyboard-response","21","31592","0.0-21.0","3R5F3LQFV36TJTFK4UJLLSOFJW7OZO","A1KIL2V6SMJBGX","3YKP7CX6G21OU5MBQSHEZ5ZTUTWB7P","","null","<img src=""img/land6.png"" style=""width:200px;border:14px solid red;"">","null","","","","","","","","","",""
"","image-keyboard-response","22","32063","0.0-22.0","3R5F3LQFV36TJTFK4UJLLSOFJW7OZO","A1KIL2V6SMJBGX","3YKP7CX6G21OU5MBQSHEZ5ZTUTWB7P","","465","img/land4.png","74","467","1","1","1","1","0.8,0.2,0.2,0.2,0.8,0.2,0.2,0.2,0.8","0.8,0.2,0.2,0.2,0.8,0.2,0.2,0.2,0.8","1","",""
"","html-keyboard-response","23","32372","0.0-23.0","3R5F3LQFV36TJTFK4UJLLSOFJW7OZO","A1KIL2V6SMJBGX","3YKP7CX6G21OU5MBQSHEZ5ZTUTWB7P","","null","<img src=""img/land4.png"" style=""width:200px; border:14px solid green;"">","null","","","","","","","","","",""
"","image-keyboard-response","24","32723","0.0-24.0","3R5F3LQFV36TJTFK4UJLLSOFJW7OZO","A1KIL2V6SMJBGX","3YKP7CX6G21OU5MBQSHEZ5ZTUTWB7P","","347","img/land4.png","74","350","1","1","1","1","0.8,0.2,0.2,0.2,0.8,0.2,0.2,0.2,0.8","0.8,0.2,0.2,0.2,0.8,0.2,0.2,0.2,0.8","1","",""
"","html-keyboard-response","25","33041","0.0-25.0","3R5F3LQFV36TJTFK4UJLLSOFJW7OZO","A1KIL2V6SMJBGX","3YKP7CX6G21OU5MBQSHEZ5ZTUTWB7P","","null","<img src=""img/land4.png"" style=""width:200px; border:14px solid green;"">","null","","","","","","","","","",""
"","image-keyboard-response","26","33294","0.0-26.0","3R5F3LQFV36TJTFK4UJLLSOFJW7OZO","A1KIL2V6SMJBGX","3YKP7CX6G21OU5MBQSHEZ5ZTUTWB7P","","248","img/land4.png","74","251","1","1","1","1","0.8,0.2,0.2,0.2,0.8,0.2,0.2,0.2,0.8","0.8,0.2,0.2,0.2,0.8,0.2,0.2,0.2,0.8","1","",""
"","html-keyboard-response","27","33613","0.0-27.0","3R5F3LQFV36TJTFK4UJLLSOFJW7OZO","A1KIL2V6SMJBGX","3YKP7CX6G21OU5MBQSHEZ5ZTUTWB7P","","null","<img src=""img/land4.png"" style=""width:200px; border:14px solid green;"">","null","","","","","","","","","",""
"","image-keyboard-response","28","33829","0.0-28.0","3R5F3LQFV36TJTFK4UJLLSOFJW7OZO","A1KIL2V6SMJBGX","3YKP7CX6G21OU5MBQSHEZ5ZTUTWB7P","","212","img/land2.png","74","216","1","0","2","1","0.8,0.2,0.2,0.2,0.8,0.2,0.2,0.2,0.8","0.8,0.2,0.2,0.2,0.8,0.2,0.2,0.2,0.8","1","",""
"","html-keyboard-response","29","34145","0.0-29.0","3R5F3LQFV36TJTFK4UJLLSOFJW7OZO","A1KIL2V6SMJBGX","3YKP7CX6G21OU5MBQSHEZ5ZTUTWB7P","","null","<img src=""img/land2.png"" style=""width:200px;border:14px solid red;"">","null","","","","","","","","","",""
"","image-keyboard-response","30","34427","0.0-30.0","3R5F3LQFV36TJTFK4UJLLSOFJW7OZO","A1KIL2V6SMJBGX","3YKP7CX6G21OU5MBQSHEZ5ZTUTWB7P","","279","img/land6.png","75","282","2","1","3","1","0.8,0.2,0.2,0.2,0.8,0.2,0.2,0.2,0.8","0.8,0.2,0.2,0.2,0.8,0.2,0.2,0.2,0.8","1","",""
"","html-keyboard-response","31","34749","0.0-31.0","3R5F3LQFV36TJTFK4UJLLSOFJW7OZO","A1KIL2V6SMJBGX","3YKP7CX6G21OU5MBQSHEZ5ZTUTWB7P","","null","<img src=""img/land6.png"" style=""width:200px; border:14px solid green;"">","null","","","","","","","","","",""
"","image-keyboard-response","32","35020","0.0-32.0","3R5F3LQFV36TJTFK4UJLLSOFJW7OZO","A1KIL2V6SMJBGX","3YKP7CX6G21OU5MBQSHEZ5ZTUTWB7P","","266","img/land4.png","75","269","2","0","1","1","0.8,0.2,0.2,0.2,0.8,0.2,0.2,0.2,0.8","0.8,0.2,0.2,0.2,0.8,0.2,0.2,0.2,0.8","1","",""
"","html-keyboard-response","33","35333","0.0-33.0","3R5F3LQFV36TJTFK4UJLLSOFJW7OZO","A1KIL2V6SMJBGX","3YKP7CX6G21OU5MBQSHEZ5ZTUTWB7P","","null","<img src=""img/land4.png"" style=""width:200px;border:14px solid red;"">","null","","","","","","","","","",""
"","image-keyboard-response","34","36068","0.0-34.0","3R5F3LQFV36TJTFK4UJLLSOFJW7OZO","A1KIL2V6SMJBGX","3YKP7CX6G21OU5MBQSHEZ5ZTUTWB7P","","729","img/land2.png","74","732","1","0","2","1","0.8,0.2,0.2,0.2,0.8,0.2,0.2,0.2,0.8","0.8,0.2,0.2,0.2,0.8,0.2,0.2,0.2,0.8","1","",""
"","html-keyboard-response","35","36382","0.0-35.0","3R5F3LQFV36TJTFK4UJLLSOFJW7OZO","A1KIL2V6SMJBGX","3YKP7CX6G21OU5MBQSHEZ5ZTUTWB7P","","null","<img src=""img/land2.png"" style=""width:200px;border:14px solid red;"">","null","","","","","","","","","",""
"","image-keyboard-response","36","36575","0.0-36.0","3R5F3LQFV36TJTFK4UJLLSOFJW7OZO","A1KIL2V6SMJBGX","3YKP7CX6G21OU5MBQSHEZ5ZTUTWB7P","","188","img/land4.png","74","191","1","0","1","1","0.8,0.2,0.2,0.2,0.8,0.2,0.2,0.2,0.8","0.8,0.2,0.2,0.2,0.8,0.2,0.2,0.2,0.8","1","",""
"","html-keyboard-response","37","36906","0.0-37.0","3R5F3LQFV36TJTFK4UJLLSOFJW7OZO","A1KIL2V6SMJBGX","3YKP7CX6G21OU5MBQSHEZ5ZTUTWB7P","","null","<img src=""img/land4.png"" style=""width:200px;border:14px solid red;"">","null","","","","","","","","","",""
"","image-keyboard-response","38","37054","0.0-38.0","3R5F3LQFV36TJTFK4UJLLSOFJW7OZO","A1KIL2V6SMJBGX","3YKP7CX6G21OU5MBQSHEZ5ZTUTWB7P","","145","img/land4.png","74","148","1","1","1","1","0.8,0.2,0.2,0.2,0.8,0.2,0.2,0.2,0.8","0.8,0.2,0.2,0.2,0.8,0.2,0.2,0.2,0.8","1","",""
"","html-keyboard-response","39","37369","0.0-39.0","3R5F3LQFV36TJTFK4UJLLSOFJW7OZO","A1KIL2V6SMJBGX","3YKP7CX6G21OU5MBQSHEZ5ZTUTWB7P","","null","<img src=""img/land4.png"" style=""width:200px; border:14px solid green;"">","null","","","","","","","","","",""
"","image-keyboard-response","40","37594","0.0-40.0","3R5F3LQFV36TJTFK4UJLLSOFJW7OZO","A1KIL2V6SMJBGX","3YKP7CX6G21OU5MBQSHEZ5ZTUTWB7P","","221","img/land4.png","74","224","1","1","1","1","0.8,0.2,0.2,0.2,0.8,0.2,0.2,0.2,0.8","0.8,0.2,0.2,0.2,0.8,0.2,0.2,0.2,0.8","1","",""
"","html-keyboard-response","41","37908","0.0-41.0","3R5F3LQFV36TJTFK4UJLLSOFJW7OZO","A1KIL2V6SMJBGX","3YKP7CX6G21OU5MBQSHEZ5ZTUTWB7P","","null","<img src=""img/land4.png"" style=""width:200px; border:14px solid green;"">","null","","","","","","","","","",""
"","image-keyboard-response","42","38063","0.0-42.0","3R5F3LQFV36TJTFK4UJLLSOFJW7OZO","A1KIL2V6SMJBGX","3YKP7CX6G21OU5MBQSHEZ5ZTUTWB7P","","150","img/land2.png","74","154","1","1","2","1","0.8,0.2,0.2,0.2,0.8,0.2,0.2,0.2,0.8","0.8,0.2,0.2,0.2,0.8,0.2,0.2,0.2,0.8","1","",""
"","html-keyboard-response","43","38372","0.0-43.0","3R5F3LQFV36TJTFK4UJLLSOFJW7OZO","A1KIL2V6SMJBGX","3YKP7CX6G21OU5MBQSHEZ5ZTUTWB7P","","null","<img src=""img/land2.png"" style=""width:200px; border:14px solid green;"">","null","","","","","","","","","",""
"","image-keyboard-response","44","38853","0.0-44.0","3R5F3LQFV36TJTFK4UJLLSOFJW7OZO","A1KIL2V6SMJBGX","3YKP7CX6G21OU5MBQSHEZ5ZTUTWB7P","","476","img/land6.png","74","480","1","1","3","1","0.8,0.2,0.2,0.2,0.8,0.2,0.2,0.2,0.8","0.8,0.2,0.2,0.2,0.8,0.2,0.2,0.2,0.8","1","",""
"","html-keyboard-response","45","39158","0.0-45.0","3R5F3LQFV36TJTFK4UJLLSOFJW7OZO","A1KIL2V6SMJBGX","3YKP7CX6G21OU5MBQSHEZ5ZTUTWB7P","","null","<img src=""img/land6.png"" style=""width:200px; border:14px solid green;"">","null","","","","","","","","","",""
"","image-keyboard-response","46","39332","0.0-46.0","3R5F3LQFV36TJTFK4UJLLSOFJW7OZO","A1KIL2V6SMJBGX","3YKP7CX6G21OU5MBQSHEZ5ZTUTWB7P","","170","img/land6.png","74","172","1","0","3","1","0.8,0.2,0.2,0.2,0.8,0.2,0.2,0.2,0.8","0.8,0.2,0.2,0.2,0.8,0.2,0.2,0.2,0.8","1","",""
"","html-keyboard-response","47","39644","0.0-47.0","3R5F3LQFV36TJTFK4UJLLSOFJW7OZO","A1KIL2V6SMJBGX","3YKP7CX6G21OU5MBQSHEZ5ZTUTWB7P","","null","<img src=""img/land6.png"" style=""width:200px;border:14px solid red;"">","null","","","","","","","","","",""
"","image-keyboard-response","48","39829","0.0-48.0","3R5F3LQFV36TJTFK4UJLLSOFJW7OZO","A1KIL2V6SMJBGX","3YKP7CX6G21OU5MBQSHEZ5ZTUTWB7P","","180","img/land4.png","74","183","1","1","1","1","0.8,0.2,0.2,0.2,0.8,0.2,0.2,0.2,0.8","0.8,0.2,0.2,0.2,0.8,0.2,0.2,0.2,0.8","1","",""
"","html-keyboard-response","49","40145","0.0-49.0","3R5F3LQFV36TJTFK4UJLLSOFJW7OZO","A1KIL2V6SMJBGX","3YKP7CX6G21OU5MBQSHEZ5ZTUTWB7P","","null","<img src=""img/land4.png"" style=""width:200px; border:14px solid green;"">","null","","","","","","","","","",""
"","image-keyboard-response","50","40360","0.0-50.0","3R5F3LQFV36TJTFK4UJLLSOFJW7OZO","A1KIL2V6SMJBGX","3YKP7CX6G21OU5MBQSHEZ5ZTUTWB7P","","210","img/land4.png","74","213","1","1","1","1","0.8,0.2,0.2,0.2,0.8,0.2,0.2,0.2,0.8","0.8,0.2,0.2,0.2,0.8,0.2,0.2,0.2,0.8","1","",""
"","html-keyboard-response","51","40669","0.0-51.0","3R5F3LQFV36TJTFK4UJLLSOFJW7OZO","A1KIL2V6SMJBGX","3YKP7CX6G21OU5MBQSHEZ5ZTUTWB7P","","null","<img src=""img/land4.png"" style=""width:200px; border:14px solid green;"">","null","","","","","","","","","",""
"","image-keyboard-response","52","40788","0.0-52.0","3R5F3LQFV36TJTFK4UJLLSOFJW7OZO","A1KIL2V6SMJBGX","3YKP7CX6G21OU5MBQSHEZ5ZTUTWB7P","","115","img/land2.png","74","120","1","0","2","1","0.8,0.2,0.2,0.2,0.8,0.2,0.2,0.2,0.8","0.8,0.2,0.2,0.2,0.8,0.2,0.2,0.2,0.8","1","",""
"","html-keyboard-response","53","41095","0.0-53.0","3R5F3LQFV36TJTFK4UJLLSOFJW7OZO","A1KIL2V6SMJBGX","3YKP7CX6G21OU5MBQSHEZ5ZTUTWB7P","","null","<img src=""img/land2.png"" style=""width:200px;border:14px solid red;"">","null","","","","","","","","","",""
"","image-keyboard-response","54","41227","0.0-54.0","3R5F3LQFV36TJTFK4UJLLSOFJW7OZO","A1KIL2V6SMJBGX","3YKP7CX6G21OU5MBQSHEZ5ZTUTWB7P","","128","img/land6.png","75","130","2","0","3","1","0.8,0.2,0.2,0.2,0.8,0.2,0.2,0.2,0.8","0.8,0.2,0.2,0.2,0.8,0.2,0.2,0.2,0.8","1","",""
"","html-keyboard-response","55","41534","0.0-55.0","3R5F3LQFV36TJTFK4UJLLSOFJW7OZO","A1KIL2V6SMJBGX","3YKP7CX6G21OU5MBQSHEZ5ZTUTWB7P","","null","<img src=""img/land6.png"" style=""width:200px;border:14px solid red;"">","null","","","","","","","","","",""
"","image-keyboard-response","56","41584","0.0-56.0","3R5F3LQFV36TJTFK4UJLLSOFJW7OZO","A1KIL2V6SMJBGX","3YKP7CX6G21OU5MBQSHEZ5ZTUTWB7P","","46","img/land6.png","75","49","2","1","3","1","0.8,0.2,0.2,0.2,0.8,0.2,0.2,0.2,0.8","0.8,0.2,0.2,0.2,0.8,0.2,0.2,0.2,0.8","1","",""
"","html-keyboard-response","57","41897","0.0-57.0","3R5F3LQFV36TJTFK4UJLLSOFJW7OZO","A1KIL2V6SMJBGX","3YKP7CX6G21OU5MBQSHEZ5ZTUTWB7P","","null","<img src=""img/land6.png"" style=""width:200px; border:14px solid green;"">","null","","","","","","","","","",""
"","image-keyboard-response","58","41941","0.0-58.0","3R5F3LQFV36TJTFK4UJLLSOFJW7OZO","A1KIL2V6SMJBGX","3YKP7CX6G21OU5MBQSHEZ5ZTUTWB7P","","39","img/land4.png","75","43","2","0","1","1","0.8,0.2,0.2,0.2,0.8,0.2,0.2,0.2,0.8","0.8,0.2,0.2,0.2,0.8,0.2,0.2,0.2,0.8","1","",""
"","html-keyboard-response","59","42251","0.0-59.0","3R5F3LQFV36TJTFK4UJLLSOFJW7OZO","A1KIL2V6SMJBGX","3YKP7CX6G21OU5MBQSHEZ5ZTUTWB7P","","null","<img src=""img/land4.png"" style=""width:200px;border:14px solid red;"">","null","","","","","","","","","",""
"","image-keyboard-response","60","42259","0.0-60.0","3R5F3LQFV36TJTFK4UJLLSOFJW7OZO","A1KIL2V6SMJBGX","3YKP7CX6G21OU5MBQSHEZ5ZTUTWB7P","","3","img/land2.png","75","6","2","1","2","1","0.8,0.2,0.2,0.2,0.8,0.2,0.2,0.2,0.8","0.8,0.2,0.2,0.2,0.8,0.2,0.2,0.2,0.8","1","",""
"","html-keyboard-response","61","42568","0.0-61.0","3R5F3LQFV36TJTFK4UJLLSOFJW7OZO","A1KIL2V6SMJBGX","3YKP7CX6G21OU5MBQSHEZ5ZTUTWB7P","","null","<img src=""img/land2.png"" style=""width:200px; border:14px solid green;"">","null","","","","","","","","","",""
"","image-keyboard-response","62","42582","0.0-62.0","3R5F3LQFV36TJTFK4UJLLSOFJW7OZO","A1KIL2V6SMJBGX","3YKP7CX6G21OU5MBQSHEZ5ZTUTWB7P","","10","img/land2.png","75","13","2","1","2","1","0.8,0.2,0.2,0.2,0.8,0.2,0.2,0.2,0.8","0.8,0.2,0.2,0.2,0.8,0.2,0.2,0.2,0.8","1","",""
"","html-keyboard-response","63","42901","0.0-63.0","3R5F3LQFV36TJTFK4UJLLSOFJW7OZO","A1KIL2V6SMJBGX","3YKP7CX6G21OU5MBQSHEZ5ZTUTWB7P","","null","<img src=""img/land2.png"" style=""width:200px; border:14px solid green;"">","null","","","","","","","","","",""
"","image-keyboard-response","64","42920","0.0-64.0","3R5F3LQFV36TJTFK4UJLLSOFJW7OZO","A1KIL2V6SMJBGX","3YKP7CX6G21OU5MBQSHEZ5ZTUTWB7P","","13","img/land4.png","76","16","3","0","1","1","0.8,0.2,0.2,0.2,0.8,0.2,0.2,0.2,0.8","0.8,0.2,0.2,0.2,0.8,0.2,0.2,0.2,0.8","1","",""
"","html-keyboard-response","65","43239","0.0-65.0","3R5F3LQFV36TJTFK4UJLLSOFJW7OZO","A1KIL2V6SMJBGX","3YKP7CX6G21OU5MBQSHEZ5ZTUTWB7P","","null","<img src=""img/land4.png"" style=""width:200px;border:14px solid red;"">","null","","","","","","","","","",""
"","image-keyboard-response","66","43472","0.0-66.0","3R5F3LQFV36TJTFK4UJLLSOFJW7OZO","A1KIL2V6SMJBGX","3YKP7CX6G21OU5MBQSHEZ5ZTUTWB7P","","228","img/land6.png","76","231","3","0","3","1","0.8,0.2,0.2,0.2,0.8,0.2,0.2,0.2,0.8","0.8,0.2,0.2,0.2,0.8,0.2,0.2,0.2,0.8","1","",""
"","html-keyboard-response","67","43787","0.0-67.0","3R5F3LQFV36TJTFK4UJLLSOFJW7OZO","A1KIL2V6SMJBGX","3YKP7CX6G21OU5MBQSHEZ5ZTUTWB7P","","null","<img src=""img/land6.png"" style=""width:200px;border:14px solid red;"">","null","","","","","","","","","",""
"","image-keyboard-response","68","44082","0.0-68.0","3R5F3LQFV36TJTFK4UJLLSOFJW7OZO","A1KIL2V6SMJBGX","3YKP7CX6G21OU5MBQSHEZ5ZTUTWB7P","","288","img/land6.png","75","291","2","1","3","1","0.8,0.2,0.2,0.2,0.8,0.2,0.2,0.2,0.8","0.8,0.2,0.2,0.2,0.8,0.2,0.2,0.2,0.8","1","",""
"","html-keyboard-response","69","44389","0.0-69.0","3R5F3LQFV36TJTFK4UJLLSOFJW7OZO","A1KIL2V6SMJBGX","3YKP7CX6G21OU5MBQSHEZ5ZTUTWB7P","","null","<img src=""img/land6.png"" style=""width:200px; border:14px solid green;"">","null","","","","","","","","","",""
"","image-keyboard-response","70","44601","0.0-70.0","3R5F3LQFV36TJTFK4UJLLSOFJW7OZO","A1KIL2V6SMJBGX","3YKP7CX6G21OU5MBQSHEZ5ZTUTWB7P","","206","img/land4.png","75","210","2","1","1","1","0.8,0.2,0.2,0.2,0.8,0.2,0.2,0.2,0.8","0.8,0.2,0.2,0.2,0.8,0.2,0.2,0.2,0.8","1","",""
"","html-keyboard-response","71","44906","0.0-71.0","3R5F3LQFV36TJTFK4UJLLSOFJW7OZO","A1KIL2V6SMJBGX","3YKP7CX6G21OU5MBQSHEZ5ZTUTWB7P","","null","<img src=""img/land4.png"" style=""width:200px; border:14px solid green;"">","null","","","","","","","","","",""
"","image-keyboard-response","72","45000","0.0-72.0","3R5F3LQFV36TJTFK4UJLLSOFJW7OZO","A1KIL2V6SMJBGX","3YKP7CX6G21OU5MBQSHEZ5ZTUTWB7P","","90","img/land6.png","74","93","1","0","3","1","0.8,0.2,0.2,0.2,0.8,0.2,0.2,0.2,0.8","0.8,0.2,0.2,0.2,0.8,0.2,0.2,0.2,0.8","1","",""
"","html-keyboard-response","73","45307","0.0-73.0","3R5F3LQFV36TJTFK4UJLLSOFJW7OZO","A1KIL2V6SMJBGX","3YKP7CX6G21OU5MBQSHEZ5ZTUTWB7P","","null","<img src=""img/land6.png"" style=""width:200px;border:14px solid red;"">","null","","","","","","","","","",""
"","image-keyboard-response","74","45614","0.0-74.0","3R5F3LQFV36TJTFK4UJLLSOFJW7OZO","A1KIL2V6SMJBGX","3YKP7CX6G21OU5MBQSHEZ5ZTUTWB7P","","302","img/land2.png","74","304","1","0","2","1","0.8,0.2,0.2,0.2,0.8,0.2,0.2,0.2,0.8","0.8,0.2,0.2,0.2,0.8,0.2,0.2,0.2,0.8","1","",""
"","html-keyboard-response","75","45932","0.0-75.0","3R5F3LQFV36TJTFK4UJLLSOFJW7OZO","A1KIL2V6SMJBGX","3YKP7CX6G21OU5MBQSHEZ5ZTUTWB7P","","null","<img src=""img/land2.png"" style=""width:200px;border:14px solid red;"">","null","","","","","","","","","",""
"","image-keyboard-response","76","45987","0.0-76.0","3R5F3LQFV36TJTFK4UJLLSOFJW7OZO","A1KIL2V6SMJBGX","3YKP7CX6G21OU5MBQSHEZ5ZTUTWB7P","","51","img/land2.png","74","54","1","0","2","1","0.8,0.2,0.2,0.2,0.8,0.2,0.2,0.2,0.8","0.8,0.2,0.2,0.2,0.8,0.2,0.2,0.2,0.8","1","",""
"","html-keyboard-response","77","46295","0.0-77.0","3R5F3LQFV36TJTFK4UJLLSOFJW7OZO","A1KIL2V6SMJBGX","3YKP7CX6G21OU5MBQSHEZ5ZTUTWB7P","","null","<img src=""img/land2.png"" style=""width:200px;border:14px solid red;"">","null","","","","","","","","","",""
"","image-keyboard-response","78","46779","0.0-78.0","3R5F3LQFV36TJTFK4UJLLSOFJW7OZO","A1KIL2V6SMJBGX","3YKP7CX6G21OU5MBQSHEZ5ZTUTWB7P","","479","img/land2.png","74","482","1","1","2","1","0.8,0.2,0.2,0.2,0.8,0.2,0.2,0.2,0.8","0.8,0.2,0.2,0.2,0.8,0.2,0.2,0.2,0.8","1","",""
"","html-keyboard-response","79","47097","0.0-79.0","3R5F3LQFV36TJTFK4UJLLSOFJW7OZO","A1KIL2V6SMJBGX","3YKP7CX6G21OU5MBQSHEZ5ZTUTWB7P","","null","<img src=""img/land2.png"" style=""width:200px; border:14px solid green;"">","null","","","","","","","","","",""
"","image-keyboard-response","80","47409","0.0-80.0","3R5F3LQFV36TJTFK4UJLLSOFJW7OZO","A1KIL2V6SMJBGX","3YKP7CX6G21OU5MBQSHEZ5ZTUTWB7P","","307","img/land4.png","74","310","1","1","1","1","0.8,0.2,0.2,0.2,0.8,0.2,0.2,0.2,0.8","0.8,0.2,0.2,0.2,0.8,0.2,0.2,0.2,0.8","1","",""
"","html-keyboard-response","81","47715","0.0-81.0","3R5F3LQFV36TJTFK4UJLLSOFJW7OZO","A1KIL2V6SMJBGX","3YKP7CX6G21OU5MBQSHEZ5ZTUTWB7P","","null","<img src=""img/land4.png"" style=""width:200px; border:14px solid green;"">","null","","","","","","","","","",""
"","image-keyboard-response","82","47960","0.0-82.0","3R5F3LQFV36TJTFK4UJLLSOFJW7OZO","A1KIL2V6SMJBGX","3YKP7CX6G21OU5MBQSHEZ5ZTUTWB7P","","241","img/land2.png","75","245","2","0","2","1","0.8,0.2,0.2,0.2,0.8,0.2,0.2,0.2,0.8","0.8,0.2,0.2,0.2,0.8,0.2,0.2,0.2,0.8","1","",""
"","html-keyboard-response","83","48269","0.0-83.0","3R5F3LQFV36TJTFK4UJLLSOFJW7OZO","A1KIL2V6SMJBGX","3YKP7CX6G21OU5MBQSHEZ5ZTUTWB7P","","null","<img src=""img/land2.png"" style=""width:200px;border:14px solid red;"">","null","","","","","","","","","",""
"","image-keyboard-response","84","48689","0.0-84.0","3R5F3LQFV36TJTFK4UJLLSOFJW7OZO","A1KIL2V6SMJBGX","3YKP7CX6G21OU5MBQSHEZ5ZTUTWB7P","","416","img/land2.png","74","418","1","0","2","1","0.8,0.2,0.2,0.2,0.8,0.2,0.2,0.2,0.8","0.8,0.2,0.2,0.2,0.8,0.2,0.2,0.2,0.8","1","",""
"","html-keyboard-response","85","49002","0.0-85.0","3R5F3LQFV36TJTFK4UJLLSOFJW7OZO","A1KIL2V6SMJBGX","3YKP7CX6G21OU5MBQSHEZ5ZTUTWB7P","","null","<img src=""img/land2.png"" style=""width:200px;border:14px solid red;"">","null","","","","","","","","","",""
"","image-keyboard-response","86","49240","0.0-86.0","3R5F3LQFV36TJTFK4UJLLSOFJW7OZO","A1KIL2V6SMJBGX","3YKP7CX6G21OU5MBQSHEZ5ZTUTWB7P","","235","img/land4.png","76","237","3","1","1","1","0.8,0.2,0.2,0.2,0.8,0.2,0.2,0.2,0.8","0.8,0.2,0.2,0.2,0.8,0.2,0.2,0.2,0.8","1","",""
"","html-keyboard-response","87","49557","0.0-87.0","3R5F3LQFV36TJTFK4UJLLSOFJW7OZO","A1KIL2V6SMJBGX","3YKP7CX6G21OU5MBQSHEZ5ZTUTWB7P","","null","<img src=""img/land4.png"" style=""width:200px; border:14px solid green;"">","null","","","","","","","","","",""
"","image-keyboard-response","88","49748","0.0-88.0","3R5F3LQFV36TJTFK4UJLLSOFJW7OZO","A1KIL2V6SMJBGX","3YKP7CX6G21OU5MBQSHEZ5ZTUTWB7P","","185","img/land6.png","76","189","3","1","3","1","0.8,0.2,0.2,0.2,0.8,0.2,0.2,0.2,0.8","0.8,0.2,0.2,0.2,0.8,0.2,0.2,0.2,0.8","1","",""
"","html-keyboard-response","89","50059","0.0-89.0","3R5F3LQFV36TJTFK4UJLLSOFJW7OZO","A1KIL2V6SMJBGX","3YKP7CX6G21OU5MBQSHEZ5ZTUTWB7P","","null","<img src=""img/land6.png"" style=""width:200px; border:14px solid green;"">","null","","","","","","","","","",""
"","image-keyboard-response","90","50310","0.0-90.0","3R5F3LQFV36TJTFK4UJLLSOFJW7OZO","A1KIL2V6SMJBGX","3YKP7CX6G21OU5MBQSHEZ5ZTUTWB7P","","247","img/land2.png","76","250","3","1","2","1","0.8,0.2,0.2,0.2,0.8,0.2,0.2,0.2,0.8","0.8,0.2,0.2,0.2,0.8,0.2,0.2,0.2,0.8","1","",""
"","html-keyboard-response","91","50623","0.0-91.0","3R5F3LQFV36TJTFK4UJLLSOFJW7OZO","A1KIL2V6SMJBGX","3YKP7CX6G21OU5MBQSHEZ5ZTUTWB7P","","null","<img src=""img/land2.png"" style=""width:200px; border:14px solid green;"">","null","","","","","","","","","",""
"","image-keyboard-response","92","50718","0.0-92.0","3R5F3LQFV36TJTFK4UJLLSOFJW7OZO","A1KIL2V6SMJBGX","3YKP7CX6G21OU5MBQSHEZ5ZTUTWB7P","","91","img/land2.png","75","94","2","1","2","1","0.8,0.2,0.2,0.2,0.8,0.2,0.2,0.2,0.8","0.8,0.2,0.2,0.2,0.8,0.2,0.2,0.2,0.8","1","",""
"","html-keyboard-response","93","51022","0.0-93.0","3R5F3LQFV36TJTFK4UJLLSOFJW7OZO","A1KIL2V6SMJBGX","3YKP7CX6G21OU5MBQSHEZ5ZTUTWB7P","","null","<img src=""img/land2.png"" style=""width:200px; border:14px solid green;"">","null","","","","","","","","","",""
"","image-keyboard-response","94","51115","0.0-94.0","3R5F3LQFV36TJTFK4UJLLSOFJW7OZO","A1KIL2V6SMJBGX","3YKP7CX6G21OU5MBQSHEZ5ZTUTWB7P","","90","img/land2.png","74","91","1","0","2","1","0.8,0.2,0.2,0.2,0.8,0.2,0.2,0.2,0.8","0.8,0.2,0.2,0.2,0.8,0.2,0.2,0.2,0.8","1","",""
"","html-keyboard-response","95","51425","0.0-95.0","3R5F3LQFV36TJTFK4UJLLSOFJW7OZO","A1KIL2V6SMJBGX","3YKP7CX6G21OU5MBQSHEZ5ZTUTWB7P","","null","<img src=""img/land2.png"" style=""width:200px;border:14px solid red;"">","null","","","","","","","","","",""
"","image-keyboard-response","96","51446","0.0-96.0","3R5F3LQFV36TJTFK4UJLLSOFJW7OZO","A1KIL2V6SMJBGX","3YKP7CX6G21OU5MBQSHEZ5ZTUTWB7P","","17","img/land2.png","76","20","3","1","2","1","0.8,0.2,0.2,0.2,0.8,0.2,0.2,0.2,0.8","0.8,0.2,0.2,0.2,0.8,0.2,0.2,0.2,0.8","1","",""
"","html-keyboard-response","97","51764","0.0-97.0","3R5F3LQFV36TJTFK4UJLLSOFJW7OZO","A1KIL2V6SMJBGX","3YKP7CX6G21OU5MBQSHEZ5ZTUTWB7P","","null","<img src=""img/land2.png"" style=""width:200px; border:14px solid green;"">","null","","","","","","","","","",""
"","image-keyboard-response","98","52003","0.0-98.0","3R5F3LQFV36TJTFK4UJLLSOFJW7OZO","A1KIL2V6SMJBGX","3YKP7CX6G21OU5MBQSHEZ5ZTUTWB7P","","234","img/land4.png","74","238","1","0","1","1","0.8,0.2,0.2,0.2,0.8,0.2,0.2,0.2,0.8","0.8,0.2,0.2,0.2,0.8,0.2,0.2,0.2,0.8","1","",""
"","html-keyboard-response","99","52312","0.0-99.0","3R5F3LQFV36TJTFK4UJLLSOFJW7OZO","A1KIL2V6SMJBGX","3YKP7CX6G21OU5MBQSHEZ5ZTUTWB7P","","null","<img src=""img/land4.png"" style=""width:200px;border:14px solid red;"">","null","","","","","","","","","",""
"","image-keyboard-response","100","52350","0.0-100.0","3R5F3LQFV36TJTFK4UJLLSOFJW7OZO","A1KIL2V6SMJBGX","3YKP7CX6G21OU5MBQSHEZ5ZTUTWB7P","","34","img/land4.png","74","37","1","1","1","1","0.8,0.2,0.2,0.2,0.8,0.2,0.2,0.2,0.8","0.8,0.2,0.2,0.2,0.8,0.2,0.2,0.2,0.8","1","",""
"","html-keyboard-response","101","52666","0.0-101.0","3R5F3LQFV36TJTFK4UJLLSOFJW7OZO","A1KIL2V6SMJBGX","3YKP7CX6G21OU5MBQSHEZ5ZTUTWB7P","","null","<img src=""img/land4.png"" style=""width:200px; border:14px solid green;"">","null","","","","","","","","","",""
"","image-keyboard-response","102","52865","0.0-102.0","3R5F3LQFV36TJTFK4UJLLSOFJW7OZO","A1KIL2V6SMJBGX","3YKP7CX6G21OU5MBQSHEZ5ZTUTWB7P","","194","img/land6.png","74","198","1","0","3","1","0.8,0.2,0.2,0.2,0.8,0.2,0.2,0.2,0.8","0.8,0.2,0.2,0.2,0.8,0.2,0.2,0.2,0.8","1","",""
"","html-keyboard-response","103","53184","0.0-103.0","3R5F3LQFV36TJTFK4UJLLSOFJW7OZO","A1KIL2V6SMJBGX","3YKP7CX6G21OU5MBQSHEZ5ZTUTWB7P","","null","<img src=""img/land6.png"" style=""width:200px;border:14px solid red;"">","null","","","","","","","","","",""
"","image-keyboard-response","104","53376","0.0-104.0","3R5F3LQFV36TJTFK4UJLLSOFJW7OZO","A1KIL2V6SMJBGX","3YKP7CX6G21OU5MBQSHEZ5ZTUTWB7P","","187","img/land2.png","74","191","1","0","2","1","0.8,0.2,0.2,0.2,0.8,0.2,0.2,0.2,0.8","0.8,0.2,0.2,0.2,0.8,0.2,0.2,0.2,0.8","1","",""
"","html-keyboard-response","105","53684","0.0-105.0","3R5F3LQFV36TJTFK4UJLLSOFJW7OZO","A1KIL2V6SMJBGX","3YKP7CX6G21OU5MBQSHEZ5ZTUTWB7P","","null","<img src=""img/land2.png"" style=""width:200px;border:14px solid red;"">","null","","","","","","","","","",""
"","image-keyboard-response","106","53834","0.0-106.0","3R5F3LQFV36TJTFK4UJLLSOFJW7OZO","A1KIL2V6SMJBGX","3YKP7CX6G21OU5MBQSHEZ5ZTUTWB7P","","145","img/land4.png","75","147","2","0","1","1","0.8,0.2,0.2,0.2,0.8,0.2,0.2,0.2,0.8","0.8,0.2,0.2,0.2,0.8,0.2,0.2,0.2,0.8","1","",""
"","html-keyboard-response","107","54155","0.0-107.0","3R5F3LQFV36TJTFK4UJLLSOFJW7OZO","A1KIL2V6SMJBGX","3YKP7CX6G21OU5MBQSHEZ5ZTUTWB7P","","null","<img src=""img/land4.png"" style=""width:200px;border:14px solid red;"">","null","","","","","","","","","",""
"","image-keyboard-response","108","54246","0.0-108.0","3R5F3LQFV36TJTFK4UJLLSOFJW7OZO","A1KIL2V6SMJBGX","3YKP7CX6G21OU5MBQSHEZ5ZTUTWB7P","","87","img/land6.png","76","90","3","1","3","1","0.8,0.2,0.2,0.2,0.8,0.2,0.2,0.2,0.8","0.8,0.2,0.2,0.2,0.8,0.2,0.2,0.2,0.8","1","",""
"","html-keyboard-response","109","54556","0.0-109.0","3R5F3LQFV36TJTFK4UJLLSOFJW7OZO","A1KIL2V6SMJBGX","3YKP7CX6G21OU5MBQSHEZ5ZTUTWB7P","","null","<img src=""img/land6.png"" style=""width:200px; border:14px solid green;"">","null","","","","","","","","","",""
"","image-keyboard-response","110","54731","0.0-110.0","3R5F3LQFV36TJTFK4UJLLSOFJW7OZO","A1KIL2V6SMJBGX","3YKP7CX6G21OU5MBQSHEZ5ZTUTWB7P","","171","img/land6.png","76","175","3","1","3","1","0.8,0.2,0.2,0.2,0.8,0.2,0.2,0.2,0.8","0.8,0.2,0.2,0.2,0.8,0.2,0.2,0.2,0.8","1","",""
"","html-keyboard-response","111","55058","0.0-111.0","3R5F3LQFV36TJTFK4UJLLSOFJW7OZO","A1KIL2V6SMJBGX","3YKP7CX6G21OU5MBQSHEZ5ZTUTWB7P","","null","<img src=""img/land6.png"" style=""width:200px; border:14px solid green;"">","null","","","","","","","","","",""
"","image-keyboard-response","112","55147","0.0-112.0","3R5F3LQFV36TJTFK4UJLLSOFJW7OZO","A1KIL2V6SMJBGX","3YKP7CX6G21OU5MBQSHEZ5ZTUTWB7P","","84","img/land4.png","76","87","3","0","1","1","0.8,0.2,0.2,0.2,0.8,0.2,0.2,0.2,0.8","0.8,0.2,0.2,0.2,0.8,0.2,0.2,0.2,0.8","1","",""
"","html-keyboard-response","113","55459","0.0-113.0","3R5F3LQFV36TJTFK4UJLLSOFJW7OZO","A1KIL2V6SMJBGX","3YKP7CX6G21OU5MBQSHEZ5ZTUTWB7P","","null","<img src=""img/land4.png"" style=""width:200px;border:14px solid red;"">","null","","","","","","","","","",""
"","image-keyboard-response","114","55697","0.0-114.0","3R5F3LQFV36TJTFK4UJLLSOFJW7OZO","A1KIL2V6SMJBGX","3YKP7CX6G21OU5MBQSHEZ5ZTUTWB7P","","233","img/land6.png","75","238","2","0","3","1","0.8,0.2,0.2,0.2,0.8,0.2,0.2,0.2,0.8","0.8,0.2,0.2,0.2,0.8,0.2,0.2,0.2,0.8","1","",""
"","html-keyboard-response","115","56006","0.0-115.0","3R5F3LQFV36TJTFK4UJLLSOFJW7OZO","A1KIL2V6SMJBGX","3YKP7CX6G21OU5MBQSHEZ5ZTUTWB7P","","null","<img src=""img/land6.png"" style=""width:200px;border:14px solid red;"">","null","","","","","","","","","",""
"","image-keyboard-response","116","56122","0.0-116.0","3R5F3LQFV36TJTFK4UJLLSOFJW7OZO","A1KIL2V6SMJBGX","3YKP7CX6G21OU5MBQSHEZ5ZTUTWB7P","","112","img/land6.png","75","115","2","0","3","1","0.8,0.2,0.2,0.2,0.8,0.2,0.2,0.2,0.8","0.8,0.2,0.2,0.2,0.8,0.2,0.2,0.2,0.8","1","",""
"","html-keyboard-response","117","56439","0.0-117.0","3R5F3LQFV36TJTFK4UJLLSOFJW7OZO","A1KIL2V6SMJBGX","3YKP7CX6G21OU5MBQSHEZ5ZTUTWB7P","","null","<img src=""img/land6.png"" style=""width:200px;border:14px solid red;"">","null","","","","","","","","","",""
"","image-keyboard-response","118","56700","0.0-118.0","3R5F3LQFV36TJTFK4UJLLSOFJW7OZO","A1KIL2V6SMJBGX","3YKP7CX6G21OU5MBQSHEZ5ZTUTWB7P","","254","img/land6.png","74","258","1","0","3","1","0.8,0.2,0.2,0.2,0.8,0.2,0.2,0.2,0.8","0.8,0.2,0.2,0.2,0.8,0.2,0.2,0.2,0.8","1","",""
"","html-keyboard-response","119","57014","0.0-119.0","3R5F3LQFV36TJTFK4UJLLSOFJW7OZO","A1KIL2V6SMJBGX","3YKP7CX6G21OU5MBQSHEZ5ZTUTWB7P","","null","<img src=""img/land6.png"" style=""width:200px;border:14px solid red;"">","null","","","","","","","","","",""
"","image-keyboard-response","120","57253","0.0-120.0","3R5F3LQFV36TJTFK4UJLLSOFJW7OZO","A1KIL2V6SMJBGX","3YKP7CX6G21OU5MBQSHEZ5ZTUTWB7P","","231","img/land4.png","74","238","1","1","1","1","0.8,0.2,0.2,0.2,0.8,0.2,0.2,0.2,0.8","0.8,0.2,0.2,0.2,0.8,0.2,0.2,0.2,0.8","1","",""
"","html-keyboard-response","121","57574","0.0-121.0","3R5F3LQFV36TJTFK4UJLLSOFJW7OZO","A1KIL2V6SMJBGX","3YKP7CX6G21OU5MBQSHEZ5ZTUTWB7P","","null","<img src=""img/land4.png"" style=""width:200px; border:14px solid green;"">","null","","","","","","","","","",""
"","image-keyboard-response","122","57684","0.0-122.0","3R5F3LQFV36TJTFK4UJLLSOFJW7OZO","A1KIL2V6SMJBGX","3YKP7CX6G21OU5MBQSHEZ5ZTUTWB7P","","107","img/land2.png","74","109","1","0","2","1","0.8,0.2,0.2,0.2,0.8,0.2,0.2,0.2,0.8","0.8,0.2,0.2,0.2,0.8,0.2,0.2,0.2,0.8","1","",""
"","html-keyboard-response","123","57997","0.0-123.0","3R5F3LQFV36TJTFK4UJLLSOFJW7OZO","A1KIL2V6SMJBGX","3YKP7CX6G21OU5MBQSHEZ5ZTUTWB7P","","null","<img src=""img/land2.png"" style=""width:200px;border:14px solid red;"">","null","","","","","","","","","",""
"","image-keyboard-response","124","58190","0.0-124.0","3R5F3LQFV36TJTFK4UJLLSOFJW7OZO","A1KIL2V6SMJBGX","3YKP7CX6G21OU5MBQSHEZ5ZTUTWB7P","","186","img/land4.png","75","190","2","0","1","1","0.8,0.2,0.2,0.2,0.8,0.2,0.2,0.2,0.8","0.8,0.2,0.2,0.2,0.8,0.2,0.2,0.2,0.8","1","",""
"","html-keyboard-response","125","58499","0.0-125.0","3R5F3LQFV36TJTFK4UJLLSOFJW7OZO","A1KIL2V6SMJBGX","3YKP7CX6G21OU5MBQSHEZ5ZTUTWB7P","","null","<img src=""img/land4.png"" style=""width:200px;border:14px solid red;"">","null","","","","","","","","","",""
"","image-keyboard-response","126","58634","0.0-126.0","3R5F3LQFV36TJTFK4UJLLSOFJW7OZO","A1KIL2V6SMJBGX","3YKP7CX6G21OU5MBQSHEZ5ZTUTWB7P","","133","img/land6.png","76","134","3","1","3","1","0.8,0.2,0.2,0.2,0.8,0.2,0.2,0.2,0.8","0.8,0.2,0.2,0.2,0.8,0.2,0.2,0.2,0.8","1","",""
"","html-keyboard-response","127","58947","0.0-127.0","3R5F3LQFV36TJTFK4UJLLSOFJW7OZO","A1KIL2V6SMJBGX","3YKP7CX6G21OU5MBQSHEZ5ZTUTWB7P","","null","<img src=""img/land6.png"" style=""width:200px; border:14px solid green;"">","null","","","","","","","","","",""
"","image-keyboard-response","128","58994","0.0-128.0","3R5F3LQFV36TJTFK4UJLLSOFJW7OZO","A1KIL2V6SMJBGX","3YKP7CX6G21OU5MBQSHEZ5ZTUTWB7P","","43","img/land6.png","75","45","2","0","3","1","0.8,0.2,0.2,0.2,0.8,0.2,0.2,0.2,0.8","0.8,0.2,0.2,0.2,0.8,0.2,0.2,0.2,0.8","1","",""
"","html-keyboard-response","129","59300","0.0-129.0","3R5F3LQFV36TJTFK4UJLLSOFJW7OZO","A1KIL2V6SMJBGX","3YKP7CX6G21OU5MBQSHEZ5ZTUTWB7P","","null","<img src=""img/land6.png"" style=""width:200px;border:14px solid red;"">","null","","","","","","","","","",""
"","image-keyboard-response","130","59568","0.0-130.0","3R5F3LQFV36TJTFK4UJLLSOFJW7OZO","A1KIL2V6SMJBGX","3YKP7CX6G21OU5MBQSHEZ5ZTUTWB7P","","263","img/land4.png","75","266","2","0","1","1","0.8,0.2,0.2,0.2,0.8,0.2,0.2,0.2,0.8","0.8,0.2,0.2,0.2,0.8,0.2,0.2,0.2,0.8","1","",""
"","html-keyboard-response","131","59887","0.0-131.0","3R5F3LQFV36TJTFK4UJLLSOFJW7OZO","A1KIL2V6SMJBGX","3YKP7CX6G21OU5MBQSHEZ5ZTUTWB7P","","null","<img src=""img/land4.png"" style=""width:200px;border:14px solid red;"">","null","","","","","","","","","",""
"","image-keyboard-response","132","60051","0.0-132.0","3R5F3LQFV36TJTFK4UJLLSOFJW7OZO","A1KIL2V6SMJBGX","3YKP7CX6G21OU5MBQSHEZ5ZTUTWB7P","","159","img/land2.png","74","163","1","1","2","1","0.8,0.2,0.2,0.2,0.8,0.2,0.2,0.2,0.8","0.8,0.2,0.2,0.2,0.8,0.2,0.2,0.2,0.8","1","",""
"","html-keyboard-response","133","60356","0.0-133.0","3R5F3LQFV36TJTFK4UJLLSOFJW7OZO","A1KIL2V6SMJBGX","3YKP7CX6G21OU5MBQSHEZ5ZTUTWB7P","","null","<img src=""img/land2.png"" style=""width:200px; border:14px solid green;"">","null","","","","","","","","","",""
"","image-keyboard-response","134","60630","0.0-134.0","3R5F3LQFV36TJTFK4UJLLSOFJW7OZO","A1KIL2V6SMJBGX","3YKP7CX6G21OU5MBQSHEZ5ZTUTWB7P","","270","img/land4.png","74","273","1","1","1","1","0.8,0.2,0.2,0.2,0.8,0.2,0.2,0.2,0.8","0.8,0.2,0.2,0.2,0.8,0.2,0.2,0.2,0.8","1","",""
"","html-keyboard-response","135","60935","0.0-135.0","3R5F3LQFV36TJTFK4UJLLSOFJW7OZO","A1KIL2V6SMJBGX","3YKP7CX6G21OU5MBQSHEZ5ZTUTWB7P","","null","<img src=""img/land4.png"" style=""width:200px; border:14px solid green;"">","null","","","","","","","","","",""
"","image-keyboard-response","136","61055","0.0-136.0","3R5F3LQFV36TJTFK4UJLLSOFJW7OZO","A1KIL2V6SMJBGX","3YKP7CX6G21OU5MBQSHEZ5ZTUTWB7P","","115","img/land2.png","75","118","2","1","2","1","0.8,0.2,0.2,0.2,0.8,0.2,0.2,0.2,0.8","0.8,0.2,0.2,0.2,0.8,0.2,0.2,0.2,0.8","1","",""
"","html-keyboard-response","137","61375","0.0-137.0","3R5F3LQFV36TJTFK4UJLLSOFJW7OZO","A1KIL2V6SMJBGX","3YKP7CX6G21OU5MBQSHEZ5ZTUTWB7P","","null","<img src=""img/land2.png"" style=""width:200px; border:14px solid green;"">","null","","","","","","","","","",""
"","image-keyboard-response","138","61511","0.0-138.0","3R5F3LQFV36TJTFK4UJLLSOFJW7OZO","A1KIL2V6SMJBGX","3YKP7CX6G21OU5MBQSHEZ5ZTUTWB7P","","132","img/land6.png","76","135","3","0","3","1","0.8,0.2,0.2,0.2,0.8,0.2,0.2,0.2,0.8","0.8,0.2,0.2,0.2,0.8,0.2,0.2,0.2,0.8","1","",""
"","html-keyboard-response","139","61823","0.0-139.0","3R5F3LQFV36TJTFK4UJLLSOFJW7OZO","A1KIL2V6SMJBGX","3YKP7CX6G21OU5MBQSHEZ5ZTUTWB7P","","null","<img src=""img/land6.png"" style=""width:200px;border:14px solid red;"">","null","","","","","","","","","",""
"","image-keyboard-response","140","62004","0.0-140.0","3R5F3LQFV36TJTFK4UJLLSOFJW7OZO","A1KIL2V6SMJBGX","3YKP7CX6G21OU5MBQSHEZ5ZTUTWB7P","","177","img/land6.png","76","180","3","1","3","1","0.8,0.2,0.2,0.2,0.8,0.2,0.2,0.2,0.8","0.8,0.2,0.2,0.2,0.8,0.2,0.2,0.2,0.8","1","",""
"","html-keyboard-response","141","62324","0.0-141.0","3R5F3LQFV36TJTFK4UJLLSOFJW7OZO","A1KIL2V6SMJBGX","3YKP7CX6G21OU5MBQSHEZ5ZTUTWB7P","","null","<img src=""img/land6.png"" style=""width:200px; border:14px solid green;"">","null","","","","","","","","","",""
"","image-keyboard-response","142","62354","0.0-142.0","3R5F3LQFV36TJTFK4UJLLSOFJW7OZO","A1KIL2V6SMJBGX","3YKP7CX6G21OU5MBQSHEZ5ZTUTWB7P","","25","img/land6.png","76","29","3","1","3","1","0.8,0.2,0.2,0.2,0.8,0.2,0.2,0.2,0.8","0.8,0.2,0.2,0.2,0.8,0.2,0.2,0.2,0.8","1","",""
"","html-keyboard-response","143","62679","0.0-143.0","3R5F3LQFV36TJTFK4UJLLSOFJW7OZO","A1KIL2V6SMJBGX","3YKP7CX6G21OU5MBQSHEZ5ZTUTWB7P","","null","<img src=""img/land6.png"" style=""width:200px; border:14px solid green;"">","null","","","","","","","","","",""
"","image-keyboard-response","144","62824","0.0-144.0","3R5F3LQFV36TJTFK4UJLLSOFJW7OZO","A1KIL2V6SMJBGX","3YKP7CX6G21OU5MBQSHEZ5ZTUTWB7P","","143","img/land6.png","76","144","3","1","3","1","0.8,0.2,0.2,0.2,0.8,0.2,0.2,0.2,0.8","0.8,0.2,0.2,0.2,0.8,0.2,0.2,0.2,0.8","1","",""
"","html-keyboard-response","145","63142","0.0-145.0","3R5F3LQFV36TJTFK4UJLLSOFJW7OZO","A1KIL2V6SMJBGX","3YKP7CX6G21OU5MBQSHEZ5ZTUTWB7P","","null","<img src=""img/land6.png"" style=""width:200px; border:14px solid green;"">","null","","","","","","","","","",""
"","image-keyboard-response","146","63241","0.0-146.0","3R5F3LQFV36TJTFK4UJLLSOFJW7OZO","A1KIL2V6SMJBGX","3YKP7CX6G21OU5MBQSHEZ5ZTUTWB7P","","94","img/land4.png","76","97","3","0","1","1","0.8,0.2,0.2,0.2,0.8,0.2,0.2,0.2,0.8","0.8,0.2,0.2,0.2,0.8,0.2,0.2,0.2,0.8","1","",""
"","html-keyboard-response","147","63558","0.0-147.0","3R5F3LQFV36TJTFK4UJLLSOFJW7OZO","A1KIL2V6SMJBGX","3YKP7CX6G21OU5MBQSHEZ5ZTUTWB7P","","null","<img src=""img/land4.png"" style=""width:200px;border:14px solid red;"">","null","","","","","","","","","",""
"","image-keyboard-response","148","63815","0.0-148.0","3R5F3LQFV36TJTFK4UJLLSOFJW7OZO","A1KIL2V6SMJBGX","3YKP7CX6G21OU5MBQSHEZ5ZTUTWB7P","","251","img/land6.png","76","255","3","0","3","1","0.8,0.2,0.2,0.2,0.8,0.2,0.2,0.2,0.8","0.8,0.2,0.2,0.2,0.8,0.2,0.2,0.2,0.8","1","",""
"","html-keyboard-response","149","64129","0.0-149.0","3R5F3LQFV36TJTFK4UJLLSOFJW7OZO","A1KIL2V6SMJBGX","3YKP7CX6G21OU5MBQSHEZ5ZTUTWB7P","","null","<img src=""img/land6.png"" style=""width:200px;border:14px solid red;"">","null","","","","","","","","","",""
"","image-keyboard-response","150","64482","0.0-150.0","3R5F3LQFV36TJTFK4UJLLSOFJW7OZO","A1KIL2V6SMJBGX","3YKP7CX6G21OU5MBQSHEZ5ZTUTWB7P","","350","img/land6.png","76","352","3","1","3","1","0.8,0.2,0.2,0.2,0.8,0.2,0.2,0.2,0.8","0.8,0.2,0.2,0.2,0.8,0.2,0.2,0.2,0.8","1","",""
"","html-keyboard-response","151","64800","0.0-151.0","3R5F3LQFV36TJTFK4UJLLSOFJW7OZO","A1KIL2V6SMJBGX","3YKP7CX6G21OU5MBQSHEZ5ZTUTWB7P","","null","<img src=""img/land6.png"" style=""width:200px; border:14px solid green;"">","null","","","","","","","","","",""
"","image-keyboard-response","152","65088","0.0-152.0","3R5F3LQFV36TJTFK4UJLLSOFJW7OZO","A1KIL2V6SMJBGX","3YKP7CX6G21OU5MBQSHEZ5ZTUTWB7P","","284","img/land4.png","75","286","2","1","1","1","0.8,0.2,0.2,0.2,0.8,0.2,0.2,0.2,0.8","0.8,0.2,0.2,0.2,0.8,0.2,0.2,0.2,0.8","1","",""
"","html-keyboard-response","153","65402","0.0-153.0","3R5F3LQFV36TJTFK4UJLLSOFJW7OZO","A1KIL2V6SMJBGX","3YKP7CX6G21OU5MBQSHEZ5ZTUTWB7P","","null","<img src=""img/land4.png"" style=""width:200px; border:14px solid green;"">","null","","","","","","","","","",""
"","image-keyboard-response","154","65547","0.0-154.0","3R5F3LQFV36TJTFK4UJLLSOFJW7OZO","A1KIL2V6SMJBGX","3YKP7CX6G21OU5MBQSHEZ5ZTUTWB7P","","141","img/land4.png","75","143","2","1","1","1","0.8,0.2,0.2,0.2,0.8,0.2,0.2,0.2,0.8","0.8,0.2,0.2,0.2,0.8,0.2,0.2,0.2,0.8","1","",""
"","html-keyboard-response","155","65852","0.0-155.0","3R5F3LQFV36TJTFK4UJLLSOFJW7OZO","A1KIL2V6SMJBGX","3YKP7CX6G21OU5MBQSHEZ5ZTUTWB7P","","null","<img src=""img/land4.png"" style=""width:200px; border:14px solid green;"">","null","","","","","","","","","",""
"","image-keyboard-response","156","65944","0.0-156.0","3R5F3LQFV36TJTFK4UJLLSOFJW7OZO","A1KIL2V6SMJBGX","3YKP7CX6G21OU5MBQSHEZ5ZTUTWB7P","","89","img/land2.png","75","91","2","1","2","1","0.8,0.2,0.2,0.2,0.8,0.2,0.2,0.2,0.8","0.8,0.2,0.2,0.2,0.8,0.2,0.2,0.2,0.8","1","",""
"","html-keyboard-response","157","66251","0.0-157.0","3R5F3LQFV36TJTFK4UJLLSOFJW7OZO","A1KIL2V6SMJBGX","3YKP7CX6G21OU5MBQSHEZ5ZTUTWB7P","","null","<img src=""img/land2.png"" style=""width:200px; border:14px solid green;"">","null","","","","","","","","","",""
"","image-keyboard-response","158","66342","0.0-158.0","3R5F3LQFV36TJTFK4UJLLSOFJW7OZO","A1KIL2V6SMJBGX","3YKP7CX6G21OU5MBQSHEZ5ZTUTWB7P","","87","img/land2.png","75","90","2","1","2","1","0.8,0.2,0.2,0.2,0.8,0.2,0.2,0.2,0.8","0.8,0.2,0.2,0.2,0.8,0.2,0.2,0.2,0.8","1","",""
"","html-keyboard-response","159","66660","0.0-159.0","3R5F3LQFV36TJTFK4UJLLSOFJW7OZO","A1KIL2V6SMJBGX","3YKP7CX6G21OU5MBQSHEZ5ZTUTWB7P","","null","<img src=""img/land2.png"" style=""width:200px; border:14px solid green;"">","null","","","","","","","","","",""
"","image-keyboard-response","160","66720","0.0-160.0","3R5F3LQFV36TJTFK4UJLLSOFJW7OZO","A1KIL2V6SMJBGX","3YKP7CX6G21OU5MBQSHEZ5ZTUTWB7P","","57","img/land2.png","75","60","2","1","2","1","0.8,0.2,0.2,0.2,0.8,0.2,0.2,0.2,0.8","0.8,0.2,0.2,0.2,0.8,0.2,0.2,0.2,0.8","1","",""
"","html-keyboard-response","161","67038","0.0-161.0","3R5F3LQFV36TJTFK4UJLLSOFJW7OZO","A1KIL2V6SMJBGX","3YKP7CX6G21OU5MBQSHEZ5ZTUTWB7P","","null","<img src=""img/land2.png"" style=""width:200px; border:14px solid green;"">","null","","","","","","","","","",""
"","image-keyboard-response","162","67093","0.0-162.0","3R5F3LQFV36TJTFK4UJLLSOFJW7OZO","A1KIL2V6SMJBGX","3YKP7CX6G21OU5MBQSHEZ5ZTUTWB7P","","50","img/land4.png","75","52","2","0","1","1","0.8,0.2,0.2,0.2,0.8,0.2,0.2,0.2,0.8","0.8,0.2,0.2,0.2,0.8,0.2,0.2,0.2,0.8","1","",""
"","html-keyboard-response","163","67409","0.0-163.0","3R5F3LQFV36TJTFK4UJLLSOFJW7OZO","A1KIL2V6SMJBGX","3YKP7CX6G21OU5MBQSHEZ5ZTUTWB7P","","null","<img src=""img/land4.png"" style=""width:200px;border:14px solid red;"">","null","","","","","","","","","",""
"","image-keyboard-response","164","67416","0.0-164.0","3R5F3LQFV36TJTFK4UJLLSOFJW7OZO","A1KIL2V6SMJBGX","3YKP7CX6G21OU5MBQSHEZ5ZTUTWB7P","","2","img/land6.png","75","6","2","0","3","1","0.8,0.2,0.2,0.2,0.8,0.2,0.2,0.2,0.8","0.8,0.2,0.2,0.2,0.8,0.2,0.2,0.2,0.8","1","",""
"","html-keyboard-response","165","67725","0.0-165.0","3R5F3LQFV36TJTFK4UJLLSOFJW7OZO","A1KIL2V6SMJBGX","3YKP7CX6G21OU5MBQSHEZ5ZTUTWB7P","","null","<img src=""img/land6.png"" style=""width:200px;border:14px solid red;"">","null","","","","","","","","","",""
"","image-keyboard-response","166","67855","0.0-166.0","3R5F3LQFV36TJTFK4UJLLSOFJW7OZO","A1KIL2V6SMJBGX","3YKP7CX6G21OU5MBQSHEZ5ZTUTWB7P","","126","img/land2.png","75","129","2","1","2","1","0.8,0.2,0.2,0.2,0.8,0.2,0.2,0.2,0.8","0.8,0.2,0.2,0.2,0.8,0.2,0.2,0.2,0.8","1","",""
"","html-keyboard-response","167","68172","0.0-167.0","3R5F3LQFV36TJTFK4UJLLSOFJW7OZO","A1KIL2V6SMJBGX","3YKP7CX6G21OU5MBQSHEZ5ZTUTWB7P","","null","<img src=""img/land2.png"" style=""width:200px; border:14px solid green;"">","null","","","","","","","","","",""
"","image-keyboard-response","168","68271","0.0-168.0","3R5F3LQFV36TJTFK4UJLLSOFJW7OZO","A1KIL2V6SMJBGX","3YKP7CX6G21OU5MBQSHEZ5ZTUTWB7P","","94","img/land6.png","75","98","2","0","3","1","0.8,0.2,0.2,0.2,0.8,0.2,0.2,0.2,0.8","0.8,0.2,0.2,0.2,0.8,0.2,0.2,0.2,0.8","1","",""
"","html-keyboard-response","169","68596","0.0-169.0","3R5F3LQFV36TJTFK4UJLLSOFJW7OZO","A1KIL2V6SMJBGX","3YKP7CX6G21OU5MBQSHEZ5ZTUTWB7P","","null","<img src=""img/land6.png"" style=""width:200px;border:14px solid red;"">","null","","","","","","","","","",""
"","image-keyboard-response","170","68608","0.0-170.0","3R5F3LQFV36TJTFK4UJLLSOFJW7OZO","A1KIL2V6SMJBGX","3YKP7CX6G21OU5MBQSHEZ5ZTUTWB7P","","8","img/land2.png","75","12","2","1","2","1","0.8,0.2,0.2,0.2,0.8,0.2,0.2,0.2,0.8","0.8,0.2,0.2,0.2,0.8,0.2,0.2,0.2,0.8","1","",""
"","html-keyboard-response","171","68928","0.0-171.0","3R5F3LQFV36TJTFK4UJLLSOFJW7OZO","A1KIL2V6SMJBGX","3YKP7CX6G21OU5MBQSHEZ5ZTUTWB7P","","null","<img src=""img/land2.png"" style=""width:200px; border:14px solid green;"">","null","","","","","","","","","",""
"","image-keyboard-response","172","68938","0.0-172.0","3R5F3LQFV36TJTFK4UJLLSOFJW7OZO","A1KIL2V6SMJBGX","3YKP7CX6G21OU5MBQSHEZ5ZTUTWB7P","","6","img/land6.png","75","10","2","1","3","1","0.8,0.2,0.2,0.2,0.8,0.2,0.2,0.2,0.8","0.8,0.2,0.2,0.2,0.8,0.2,0.2,0.2,0.8","1","",""
"","html-keyboard-response","173","69244","0.0-173.0","3R5F3LQFV36TJTFK4UJLLSOFJW7OZO","A1KIL2V6SMJBGX","3YKP7CX6G21OU5MBQSHEZ5ZTUTWB7P","","null","<img src=""img/land6.png"" style=""width:200px; border:14px solid green;"">","null","","","","","","","","","",""
"","image-keyboard-response","174","69433","0.0-174.0","3R5F3LQFV36TJTFK4UJLLSOFJW7OZO","A1KIL2V6SMJBGX","3YKP7CX6G21OU5MBQSHEZ5ZTUTWB7P","","183","img/land2.png","74","187","1","1","2","1","0.8,0.2,0.2,0.2,0.8,0.2,0.2,0.2,0.8","0.8,0.2,0.2,0.2,0.8,0.2,0.2,0.2,0.8","1","",""
"","html-keyboard-response","175","69745","0.0-175.0","3R5F3LQFV36TJTFK4UJLLSOFJW7OZO","A1KIL2V6SMJBGX","3YKP7CX6G21OU5MBQSHEZ5ZTUTWB7P","","null","<img src=""img/land2.png"" style=""width:200px; border:14px solid green;"">","null","","","","","","","","","",""
"","image-keyboard-response","176","69789","0.0-176.0","3R5F3LQFV36TJTFK4UJLLSOFJW7OZO","A1KIL2V6SMJBGX","3YKP7CX6G21OU5MBQSHEZ5ZTUTWB7P","","38","img/land4.png","74","42","1","0","1","1","0.8,0.2,0.2,0.2,0.8,0.2,0.2,0.2,0.8","0.8,0.2,0.2,0.2,0.8,0.2,0.2,0.2,0.8","1","",""
"","html-keyboard-response","177","70101","0.0-177.0","3R5F3LQFV36TJTFK4UJLLSOFJW7OZO","A1KIL2V6SMJBGX","3YKP7CX6G21OU5MBQSHEZ5ZTUTWB7P","","null","<img src=""img/land4.png"" style=""width:200px;border:14px solid red;"">","null","","","","","","","","","",""
"","image-keyboard-response","178","70170","0.0-178.0","3R5F3LQFV36TJTFK4UJLLSOFJW7OZO","A1KIL2V6SMJBGX","3YKP7CX6G21OU5MBQSHEZ5ZTUTWB7P","","65","img/land4.png","74","69","1","1","1","1","0.8,0.2,0.2,0.2,0.8,0.2,0.2,0.2,0.8","0.8,0.2,0.2,0.2,0.8,0.2,0.2,0.2,0.8","1","",""
"","html-keyboard-response","179","70478","0.0-179.0","3R5F3LQFV36TJTFK4UJLLSOFJW7OZO","A1KIL2V6SMJBGX","3YKP7CX6G21OU5MBQSHEZ5ZTUTWB7P","","null","<img src=""img/land4.png"" style=""width:200px; border:14px solid green;"">","null","","","","","","","","","",""
"","image-keyboard-response","180","70586","0.0-180.0","3R5F3LQFV36TJTFK4UJLLSOFJW7OZO","A1KIL2V6SMJBGX","3YKP7CX6G21OU5MBQSHEZ5ZTUTWB7P","","105","img/land2.png","74","107","1","0","2","1","0.8,0.2,0.2,0.2,0.8,0.2,0.2,0.2,0.8","0.8,0.2,0.2,0.2,0.8,0.2,0.2,0.2,0.8","1","",""
"","html-keyboard-response","181","70900","0.0-181.0","3R5F3LQFV36TJTFK4UJLLSOFJW7OZO","A1KIL2V6SMJBGX","3YKP7CX6G21OU5MBQSHEZ5ZTUTWB7P","","null","<img src=""img/land2.png"" style=""width:200px;border:14px solid red;"">","null","","","","","","","","","",""
"","html-keyboard-response","182","79608","0.0-182.0","3R5F3LQFV36TJTFK4UJLLSOFJW7OZO","A1KIL2V6SMJBGX","3YKP7CX6G21OU5MBQSHEZ5ZTUTWB7P","","","","","","","","","","","","","",""
"","image-keyboard-response","183","80409","0.0-183.0","3R5F3LQFV36TJTFK4UJLLSOFJW7OZO","A1KIL2V6SMJBGX","3YKP7CX6G21OU5MBQSHEZ5ZTUTWB7P","","792","img/land5.png","76","798","3","0","1","2","0.8,0.2,0.2,0.2,0.8,0.2,0.2,0.2,0.8","0.2,0.8,0.2,0.2,0.2,0.8,0.8,0.2,0.2","3","",""
"","html-keyboard-response","184","80730","0.0-184.0","3R5F3LQFV36TJTFK4UJLLSOFJW7OZO","A1KIL2V6SMJBGX","3YKP7CX6G21OU5MBQSHEZ5ZTUTWB7P","","null","<img src=""img/land5.png"" style=""width:200px;border:14px solid red;"">","null","","","","","","","","","",""
"","image-keyboard-response","185","81117","0.0-185.0","3R5F3LQFV36TJTFK4UJLLSOFJW7OZO","A1KIL2V6SMJBGX","3YKP7CX6G21OU5MBQSHEZ5ZTUTWB7P","","380","img/land5.png","76","383","3","0","1","2","0.8,0.2,0.2,0.2,0.8,0.2,0.2,0.2,0.8","0.2,0.8,0.2,0.2,0.2,0.8,0.8,0.2,0.2","3","",""
"","html-keyboard-response","186","81432","0.0-186.0","3R5F3LQFV36TJTFK4UJLLSOFJW7OZO","A1KIL2V6SMJBGX","3YKP7CX6G21OU5MBQSHEZ5ZTUTWB7P","","null","<img src=""img/land5.png"" style=""width:200px;border:14px solid red;"">","null","","","","","","","","","",""
"","image-keyboard-response","187","81748","0.0-187.0","3R5F3LQFV36TJTFK4UJLLSOFJW7OZO","A1KIL2V6SMJBGX","3YKP7CX6G21OU5MBQSHEZ5ZTUTWB7P","","311","img/land5.png","75","316","2","1","1","2","0.8,0.2,0.2,0.2,0.8,0.2,0.2,0.2,0.8","0.2,0.8,0.2,0.2,0.2,0.8,0.8,0.2,0.2","3","",""
"","html-keyboard-response","188","82066","0.0-188.0","3R5F3LQFV36TJTFK4UJLLSOFJW7OZO","A1KIL2V6SMJBGX","3YKP7CX6G21OU5MBQSHEZ5ZTUTWB7P","","null","<img src=""img/land5.png"" style=""width:200px; border:14px solid green;"">","null","","","","","","","","","",""
"","image-keyboard-response","189","82682","0.0-189.0","3R5F3LQFV36TJTFK4UJLLSOFJW7OZO","A1KIL2V6SMJBGX","3YKP7CX6G21OU5MBQSHEZ5ZTUTWB7P","","611","img/land1.png","74","615","1","1","3","2","0.8,0.2,0.2,0.2,0.8,0.2,0.2,0.2,0.8","0.2,0.8,0.2,0.2,0.2,0.8,0.8,0.2,0.2","3","",""
"","html-keyboard-response","190","83000","0.0-190.0","3R5F3LQFV36TJTFK4UJLLSOFJW7OZO","A1KIL2V6SMJBGX","3YKP7CX6G21OU5MBQSHEZ5ZTUTWB7P","","null","<img src=""img/land1.png"" style=""width:200px; border:14px solid green;"">","null","","","","","","","","","",""
"","image-keyboard-response","191","83613","0.0-191.0","3R5F3LQFV36TJTFK4UJLLSOFJW7OZO","A1KIL2V6SMJBGX","3YKP7CX6G21OU5MBQSHEZ5ZTUTWB7P","","608","img/land5.png","75","613","2","1","1","2","0.8,0.2,0.2,0.2,0.8,0.2,0.2,0.2,0.8","0.2,0.8,0.2,0.2,0.2,0.8,0.8,0.2,0.2","3","",""
"","html-keyboard-response","192","83919","0.0-192.0","3R5F3LQFV36TJTFK4UJLLSOFJW7OZO","A1KIL2V6SMJBGX","3YKP7CX6G21OU5MBQSHEZ5ZTUTWB7P","","null","<img src=""img/land5.png"" style=""width:200px; border:14px solid green;"">","null","","","","","","","","","",""
"","image-keyboard-response","193","84121","0.0-193.0","3R5F3LQFV36TJTFK4UJLLSOFJW7OZO","A1KIL2V6SMJBGX","3YKP7CX6G21OU5MBQSHEZ5ZTUTWB7P","","197","img/land5.png","75","201","2","1","1","2","0.8,0.2,0.2,0.2,0.8,0.2,0.2,0.2,0.8","0.2,0.8,0.2,0.2,0.2,0.8,0.8,0.2,0.2","3","",""
"","html-keyboard-response","194","84443","0.0-194.0","3R5F3LQFV36TJTFK4UJLLSOFJW7OZO","A1KIL2V6SMJBGX","3YKP7CX6G21OU5MBQSHEZ5ZTUTWB7P","","null","<img src=""img/land5.png"" style=""width:200px; border:14px solid green;"">","null","","","","","","","","","",""
"","image-keyboard-response","195","84537","0.0-195.0","3R5F3LQFV36TJTFK4UJLLSOFJW7OZO","A1KIL2V6SMJBGX","3YKP7CX6G21OU5MBQSHEZ5ZTUTWB7P","","90","img/land3.png","75","93","2","0","2","2","0.8,0.2,0.2,0.2,0.8,0.2,0.2,0.2,0.8","0.2,0.8,0.2,0.2,0.2,0.8,0.8,0.2,0.2","3","",""
"","html-keyboard-response","196","84845","0.0-196.0","3R5F3LQFV36TJTFK4UJLLSOFJW7OZO","A1KIL2V6SMJBGX","3YKP7CX6G21OU5MBQSHEZ5ZTUTWB7P","","null","<img src=""img/land3.png"" style=""width:200px;border:14px solid red;"">","null","","","","","","","","","",""
"","image-keyboard-response","197","84969","0.0-197.0","3R5F3LQFV36TJTFK4UJLLSOFJW7OZO","A1KIL2V6SMJBGX","3YKP7CX6G21OU5MBQSHEZ5ZTUTWB7P","","120","img/land3.png","74","123","1","1","2","2","0.8,0.2,0.2,0.2,0.8,0.2,0.2,0.2,0.8","0.2,0.8,0.2,0.2,0.2,0.8,0.8,0.2,0.2","3","",""
"","html-keyboard-response","198","85278","0.0-198.0","3R5F3LQFV36TJTFK4UJLLSOFJW7OZO","A1KIL2V6SMJBGX","3YKP7CX6G21OU5MBQSHEZ5ZTUTWB7P","","null","<img src=""img/land3.png"" style=""width:200px; border:14px solid green;"">","null","","","","","","","","","",""
"","image-keyboard-response","199","85448","0.0-199.0","3R5F3LQFV36TJTFK4UJLLSOFJW7OZO","A1KIL2V6SMJBGX","3YKP7CX6G21OU5MBQSHEZ5ZTUTWB7P","","166","img/land3.png","76","170","3","1","2","2","0.8,0.2,0.2,0.2,0.8,0.2,0.2,0.2,0.8","0.2,0.8,0.2,0.2,0.2,0.8,0.8,0.2,0.2","3","",""
"","html-keyboard-response","200","85764","0.0-200.0","3R5F3LQFV36TJTFK4UJLLSOFJW7OZO","A1KIL2V6SMJBGX","3YKP7CX6G21OU5MBQSHEZ5ZTUTWB7P","","null","<img src=""img/land3.png"" style=""width:200px; border:14px solid green;"">","null","","","","","","","","","",""
"","image-keyboard-response","201","85872","0.0-201.0","3R5F3LQFV36TJTFK4UJLLSOFJW7OZO","A1KIL2V6SMJBGX","3YKP7CX6G21OU5MBQSHEZ5ZTUTWB7P","","103","img/land5.png","76","106","3","0","1","2","0.8,0.2,0.2,0.2,0.8,0.2,0.2,0.2,0.8","0.2,0.8,0.2,0.2,0.2,0.8,0.8,0.2,0.2","3","",""
"","html-keyboard-response","202","86181","0.0-202.0","3R5F3LQFV36TJTFK4UJLLSOFJW7OZO","A1KIL2V6SMJBGX","3YKP7CX6G21OU5MBQSHEZ5ZTUTWB7P","","null","<img src=""img/land5.png"" style=""width:200px;border:14px solid red;"">","null","","","","","","","","","",""
"","image-keyboard-response","203","86302","0.0-203.0","3R5F3LQFV36TJTFK4UJLLSOFJW7OZO","A1KIL2V6SMJBGX","3YKP7CX6G21OU5MBQSHEZ5ZTUTWB7P","","114","img/land3.png","76","118","3","1","2","2","0.8,0.2,0.2,0.2,0.8,0.2,0.2,0.2,0.8","0.2,0.8,0.2,0.2,0.2,0.8,0.8,0.2,0.2","3","",""
"","html-keyboard-response","204","86624","0.0-204.0","3R5F3LQFV36TJTFK4UJLLSOFJW7OZO","A1KIL2V6SMJBGX","3YKP7CX6G21OU5MBQSHEZ5ZTUTWB7P","","null","<img src=""img/land3.png"" style=""width:200px; border:14px solid green;"">","null","","","","","","","","","",""
"","image-keyboard-response","205","86793","0.0-205.0","3R5F3LQFV36TJTFK4UJLLSOFJW7OZO","A1KIL2V6SMJBGX","3YKP7CX6G21OU5MBQSHEZ5ZTUTWB7P","","163","img/land3.png","76","167","3","1","2","2","0.8,0.2,0.2,0.2,0.8,0.2,0.2,0.2,0.8","0.2,0.8,0.2,0.2,0.2,0.8,0.8,0.2,0.2","3","",""
"","html-keyboard-response","206","87114","0.0-206.0","3R5F3LQFV36TJTFK4UJLLSOFJW7OZO","A1KIL2V6SMJBGX","3YKP7CX6G21OU5MBQSHEZ5ZTUTWB7P","","null","<img src=""img/land3.png"" style=""width:200px; border:14px solid green;"">","null","","","","","","","","","",""
"","image-keyboard-response","207","87139","0.0-207.0","3R5F3LQFV36TJTFK4UJLLSOFJW7OZO","A1KIL2V6SMJBGX","3YKP7CX6G21OU5MBQSHEZ5ZTUTWB7P","","19","img/land5.png","76","23","3","1","1","2","0.8,0.2,0.2,0.2,0.8,0.2,0.2,0.2,0.8","0.2,0.8,0.2,0.2,0.2,0.8,0.8,0.2,0.2","3","",""
"","html-keyboard-response","208","87449","0.0-208.0","3R5F3LQFV36TJTFK4UJLLSOFJW7OZO","A1KIL2V6SMJBGX","3YKP7CX6G21OU5MBQSHEZ5ZTUTWB7P","","null","<img src=""img/land5.png"" style=""width:200px; border:14px solid green;"">","null","","","","","","","","","",""
"","image-keyboard-response","209","87608","0.0-209.0","3R5F3LQFV36TJTFK4UJLLSOFJW7OZO","A1KIL2V6SMJBGX","3YKP7CX6G21OU5MBQSHEZ5ZTUTWB7P","","156","img/land5.png","76","158","3","0","1","2","0.8,0.2,0.2,0.2,0.8,0.2,0.2,0.2,0.8","0.2,0.8,0.2,0.2,0.2,0.8,0.8,0.2,0.2","3","",""
"","html-keyboard-response","210","87914","0.0-210.0","3R5F3LQFV36TJTFK4UJLLSOFJW7OZO","A1KIL2V6SMJBGX","3YKP7CX6G21OU5MBQSHEZ5ZTUTWB7P","","null","<img src=""img/land5.png"" style=""width:200px;border:14px solid red;"">","null","","","","","","","","","",""
"","image-keyboard-response","211","87955","0.0-211.0","3R5F3LQFV36TJTFK4UJLLSOFJW7OZO","A1KIL2V6SMJBGX","3YKP7CX6G21OU5MBQSHEZ5ZTUTWB7P","","36","img/land3.png","75","39","2","0","2","2","0.8,0.2,0.2,0.2,0.8,0.2,0.2,0.2,0.8","0.2,0.8,0.2,0.2,0.2,0.8,0.8,0.2,0.2","3","",""
"","html-keyboard-response","212","88275","0.0-212.0","3R5F3LQFV36TJTFK4UJLLSOFJW7OZO","A1KIL2V6SMJBGX","3YKP7CX6G21OU5MBQSHEZ5ZTUTWB7P","","null","<img src=""img/land3.png"" style=""width:200px;border:14px solid red;"">","null","","","","","","","","","",""
"","image-keyboard-response","213","88320","0.0-213.0","3R5F3LQFV36TJTFK4UJLLSOFJW7OZO","A1KIL2V6SMJBGX","3YKP7CX6G21OU5MBQSHEZ5ZTUTWB7P","","39","img/land1.png","74","43","1","0","3","2","0.8,0.2,0.2,0.2,0.8,0.2,0.2,0.2,0.8","0.2,0.8,0.2,0.2,0.2,0.8,0.8,0.2,0.2","3","",""
"","html-keyboard-response","214","88634","0.0-214.0","3R5F3LQFV36TJTFK4UJLLSOFJW7OZO","A1KIL2V6SMJBGX","3YKP7CX6G21OU5MBQSHEZ5ZTUTWB7P","","null","<img src=""img/land1.png"" style=""width:200px;border:14px solid red;"">","null","","","","","","","","","",""
"","image-keyboard-response","215","88715","0.0-215.0","3R5F3LQFV36TJTFK4UJLLSOFJW7OZO","A1KIL2V6SMJBGX","3YKP7CX6G21OU5MBQSHEZ5ZTUTWB7P","","76","img/land5.png","74","80","1","0","1","2","0.8,0.2,0.2,0.2,0.8,0.2,0.2,0.2,0.8","0.2,0.8,0.2,0.2,0.2,0.8,0.8,0.2,0.2","3","",""
"","html-keyboard-response","216","89034","0.0-216.0","3R5F3LQFV36TJTFK4UJLLSOFJW7OZO","A1KIL2V6SMJBGX","3YKP7CX6G21OU5MBQSHEZ5ZTUTWB7P","","null","<img src=""img/land5.png"" style=""width:200px;border:14px solid red;"">","null","","","","","","","","","",""
"","image-keyboard-response","217","89170","0.0-217.0","3R5F3LQFV36TJTFK4UJLLSOFJW7OZO","A1KIL2V6SMJBGX","3YKP7CX6G21OU5MBQSHEZ5ZTUTWB7P","","131","img/land5.png","74","133","1","1","1","2","0.8,0.2,0.2,0.2,0.8,0.2,0.2,0.2,0.8","0.2,0.8,0.2,0.2,0.2,0.8,0.8,0.2,0.2","3","",""
"","html-keyboard-response","218","89484","0.0-218.0","3R5F3LQFV36TJTFK4UJLLSOFJW7OZO","A1KIL2V6SMJBGX","3YKP7CX6G21OU5MBQSHEZ5ZTUTWB7P","","null","<img src=""img/land5.png"" style=""width:200px; border:14px solid green;"">","null","","","","","","","","","",""
"","image-keyboard-response","219","89547","0.0-219.0","3R5F3LQFV36TJTFK4UJLLSOFJW7OZO","A1KIL2V6SMJBGX","3YKP7CX6G21OU5MBQSHEZ5ZTUTWB7P","","58","img/land5.png","76","60","3","0","1","2","0.8,0.2,0.2,0.2,0.8,0.2,0.2,0.2,0.8","0.2,0.8,0.2,0.2,0.2,0.8,0.8,0.2,0.2","3","",""
"","html-keyboard-response","220","89851","0.0-220.0","3R5F3LQFV36TJTFK4UJLLSOFJW7OZO","A1KIL2V6SMJBGX","3YKP7CX6G21OU5MBQSHEZ5ZTUTWB7P","","null","<img src=""img/land5.png"" style=""width:200px;border:14px solid red;"">","null","","","","","","","","","",""
"","image-keyboard-response","221","90078","0.0-221.0","3R5F3LQFV36TJTFK4UJLLSOFJW7OZO","A1KIL2V6SMJBGX","3YKP7CX6G21OU5MBQSHEZ5ZTUTWB7P","","222","img/land5.png","75","226","2","0","1","2","0.8,0.2,0.2,0.2,0.8,0.2,0.2,0.2,0.8","0.2,0.8,0.2,0.2,0.2,0.8,0.8,0.2,0.2","3","",""
"","html-keyboard-response","222","90383","0.0-222.0","3R5F3LQFV36TJTFK4UJLLSOFJW7OZO","A1KIL2V6SMJBGX","3YKP7CX6G21OU5MBQSHEZ5ZTUTWB7P","","null","<img src=""img/land5.png"" style=""width:200px;border:14px solid red;"">","null","","","","","","","","","",""
"","image-keyboard-response","223","90427","0.0-223.0","3R5F3LQFV36TJTFK4UJLLSOFJW7OZO","A1KIL2V6SMJBGX","3YKP7CX6G21OU5MBQSHEZ5ZTUTWB7P","","39","img/land5.png","75","42","2","1","1","2","0.8,0.2,0.2,0.2,0.8,0.2,0.2,0.2,0.8","0.2,0.8,0.2,0.2,0.2,0.8,0.8,0.2,0.2","3","",""
"","html-keyboard-response","224","90738","0.0-224.0","3R5F3LQFV36TJTFK4UJLLSOFJW7OZO","A1KIL2V6SMJBGX","3YKP7CX6G21OU5MBQSHEZ5ZTUTWB7P","","null","<img src=""img/land5.png"" style=""width:200px; border:14px solid green;"">","null","","","","","","","","","",""
"","image-keyboard-response","225","90774","0.0-225.0","3R5F3LQFV36TJTFK4UJLLSOFJW7OZO","A1KIL2V6SMJBGX","3YKP7CX6G21OU5MBQSHEZ5ZTUTWB7P","","33","img/land5.png","75","36","2","1","1","2","0.8,0.2,0.2,0.2,0.8,0.2,0.2,0.2,0.8","0.2,0.8,0.2,0.2,0.2,0.8,0.8,0.2,0.2","3","",""
"","html-keyboard-response","226","91085","0.0-226.0","3R5F3LQFV36TJTFK4UJLLSOFJW7OZO","A1KIL2V6SMJBGX","3YKP7CX6G21OU5MBQSHEZ5ZTUTWB7P","","null","<img src=""img/land5.png"" style=""width:200px; border:14px solid green;"">","null","","","","","","","","","",""
"","image-keyboard-response","227","91109","0.0-227.0","3R5F3LQFV36TJTFK4UJLLSOFJW7OZO","A1KIL2V6SMJBGX","3YKP7CX6G21OU5MBQSHEZ5ZTUTWB7P","","18","img/land5.png","75","23","2","0","1","2","0.8,0.2,0.2,0.2,0.8,0.2,0.2,0.2,0.8","0.2,0.8,0.2,0.2,0.2,0.8,0.8,0.2,0.2","3","",""
"","html-keyboard-response","228","91423","0.0-228.0","3R5F3LQFV36TJTFK4UJLLSOFJW7OZO","A1KIL2V6SMJBGX","3YKP7CX6G21OU5MBQSHEZ5ZTUTWB7P","","null","<img src=""img/land5.png"" style=""width:200px;border:14px solid red;"">","null","","","","","","","","","",""
"","image-keyboard-response","229","91436","0.0-229.0","3R5F3LQFV36TJTFK4UJLLSOFJW7OZO","A1KIL2V6SMJBGX","3YKP7CX6G21OU5MBQSHEZ5ZTUTWB7P","","9","img/land5.png","75","12","2","0","1","2","0.8,0.2,0.2,0.2,0.8,0.2,0.2,0.2,0.8","0.2,0.8,0.2,0.2,0.2,0.8,0.8,0.2,0.2","3","",""
"","html-keyboard-response","230","91755","0.0-230.0","3R5F3LQFV36TJTFK4UJLLSOFJW7OZO","A1KIL2V6SMJBGX","3YKP7CX6G21OU5MBQSHEZ5ZTUTWB7P","","null","<img src=""img/land5.png"" style=""width:200px;border:14px solid red;"">","null","","","","","","","","","",""
"","image-keyboard-response","231","92020","0.0-231.0","3R5F3LQFV36TJTFK4UJLLSOFJW7OZO","A1KIL2V6SMJBGX","3YKP7CX6G21OU5MBQSHEZ5ZTUTWB7P","","260","img/land1.png","74","264","1","1","3","2","0.8,0.2,0.2,0.2,0.8,0.2,0.2,0.2,0.8","0.2,0.8,0.2,0.2,0.2,0.8,0.8,0.2,0.2","3","",""
"","html-keyboard-response","232","92326","0.0-232.0","3R5F3LQFV36TJTFK4UJLLSOFJW7OZO","A1KIL2V6SMJBGX","3YKP7CX6G21OU5MBQSHEZ5ZTUTWB7P","","null","<img src=""img/land1.png"" style=""width:200px; border:14px solid green;"">","null","","","","","","","","","",""
"","image-keyboard-response","233","92376","0.0-233.0","3R5F3LQFV36TJTFK4UJLLSOFJW7OZO","A1KIL2V6SMJBGX","3YKP7CX6G21OU5MBQSHEZ5ZTUTWB7P","","46","img/land3.png","74","49","1","0","2","2","0.8,0.2,0.2,0.2,0.8,0.2,0.2,0.2,0.8","0.2,0.8,0.2,0.2,0.2,0.8,0.8,0.2,0.2","3","",""
"","html-keyboard-response","234","92690","0.0-234.0","3R5F3LQFV36TJTFK4UJLLSOFJW7OZO","A1KIL2V6SMJBGX","3YKP7CX6G21OU5MBQSHEZ5ZTUTWB7P","","null","<img src=""img/land3.png"" style=""width:200px;border:14px solid red;"">","null","","","","","","","","","",""
"","image-keyboard-response","235","92737","0.0-235.0","3R5F3LQFV36TJTFK4UJLLSOFJW7OZO","A1KIL2V6SMJBGX","3YKP7CX6G21OU5MBQSHEZ5ZTUTWB7P","","42","img/land5.png","74","46","1","0","1","2","0.8,0.2,0.2,0.2,0.8,0.2,0.2,0.2,0.8","0.2,0.8,0.2,0.2,0.2,0.8,0.8,0.2,0.2","3","",""
"","html-keyboard-response","236","93043","0.0-236.0","3R5F3LQFV36TJTFK4UJLLSOFJW7OZO","A1KIL2V6SMJBGX","3YKP7CX6G21OU5MBQSHEZ5ZTUTWB7P","","null","<img src=""img/land5.png"" style=""width:200px;border:14px solid red;"">","null","","","","","","","","","",""
"","image-keyboard-response","237","93118","0.0-237.0","3R5F3LQFV36TJTFK4UJLLSOFJW7OZO","A1KIL2V6SMJBGX","3YKP7CX6G21OU5MBQSHEZ5ZTUTWB7P","","73","img/land5.png","74","76","1","1","1","2","0.8,0.2,0.2,0.2,0.8,0.2,0.2,0.2,0.8","0.2,0.8,0.2,0.2,0.2,0.8,0.8,0.2,0.2","3","",""
"","html-keyboard-response","238","93430","0.0-238.0","3R5F3LQFV36TJTFK4UJLLSOFJW7OZO","A1KIL2V6SMJBGX","3YKP7CX6G21OU5MBQSHEZ5ZTUTWB7P","","null","<img src=""img/land5.png"" style=""width:200px; border:14px solid green;"">","null","","","","","","","","","",""
"","image-keyboard-response","239","93502","0.0-239.0","3R5F3LQFV36TJTFK4UJLLSOFJW7OZO","A1KIL2V6SMJBGX","3YKP7CX6G21OU5MBQSHEZ5ZTUTWB7P","","69","img/land5.png","74","73","1","0","1","2","0.8,0.2,0.2,0.2,0.8,0.2,0.2,0.2,0.8","0.2,0.8,0.2,0.2,0.2,0.8,0.8,0.2,0.2","3","",""
"","html-keyboard-response","240","93814","0.0-240.0","3R5F3LQFV36TJTFK4UJLLSOFJW7OZO","A1KIL2V6SMJBGX","3YKP7CX6G21OU5MBQSHEZ5ZTUTWB7P","","null","<img src=""img/land5.png"" style=""width:200px;border:14px solid red;"">","null","","","","","","","","","",""
"","image-keyboard-response","241","93882","0.0-241.0","3R5F3LQFV36TJTFK4UJLLSOFJW7OZO","A1KIL2V6SMJBGX","3YKP7CX6G21OU5MBQSHEZ5ZTUTWB7P","","63","img/land1.png","74","66","1","1","3","2","0.8,0.2,0.2,0.2,0.8,0.2,0.2,0.2,0.8","0.2,0.8,0.2,0.2,0.2,0.8,0.8,0.2,0.2","3","",""
"","html-keyboard-response","242","94194","0.0-242.0","3R5F3LQFV36TJTFK4UJLLSOFJW7OZO","A1KIL2V6SMJBGX","3YKP7CX6G21OU5MBQSHEZ5ZTUTWB7P","","null","<img src=""img/land1.png"" style=""width:200px; border:14px solid green;"">","null","","","","","","","","","",""
"","image-keyboard-response","243","94417","0.0-243.0","3R5F3LQFV36TJTFK4UJLLSOFJW7OZO","A1KIL2V6SMJBGX","3YKP7CX6G21OU5MBQSHEZ5ZTUTWB7P","","218","img/land5.png","76","221","3","0","1","2","0.8,0.2,0.2,0.2,0.8,0.2,0.2,0.2,0.8","0.2,0.8,0.2,0.2,0.2,0.8,0.8,0.2,0.2","3","",""
"","html-keyboard-response","244","94731","0.0-244.0","3R5F3LQFV36TJTFK4UJLLSOFJW7OZO","A1KIL2V6SMJBGX","3YKP7CX6G21OU5MBQSHEZ5ZTUTWB7P","","null","<img src=""img/land5.png"" style=""width:200px;border:14px solid red;"">","null","","","","","","","","","",""
"","image-keyboard-response","245","94755","0.0-245.0","3R5F3LQFV36TJTFK4UJLLSOFJW7OZO","A1KIL2V6SMJBGX","3YKP7CX6G21OU5MBQSHEZ5ZTUTWB7P","","20","img/land5.png","76","22","3","0","1","2","0.8,0.2,0.2,0.2,0.8,0.2,0.2,0.2,0.8","0.2,0.8,0.2,0.2,0.2,0.8,0.8,0.2,0.2","3","",""
"","html-keyboard-response","246","95071","0.0-246.0","3R5F3LQFV36TJTFK4UJLLSOFJW7OZO","A1KIL2V6SMJBGX","3YKP7CX6G21OU5MBQSHEZ5ZTUTWB7P","","null","<img src=""img/land5.png"" style=""width:200px;border:14px solid red;"">","null","","","","","","","","","",""
"","image-keyboard-response","247","95105","0.0-247.0","3R5F3LQFV36TJTFK4UJLLSOFJW7OZO","A1KIL2V6SMJBGX","3YKP7CX6G21OU5MBQSHEZ5ZTUTWB7P","","27","img/land3.png","75","31","2","0","2","2","0.8,0.2,0.2,0.2,0.8,0.2,0.2,0.2,0.8","0.2,0.8,0.2,0.2,0.2,0.8,0.8,0.2,0.2","3","",""
"","html-keyboard-response","248","95412","0.0-248.0","3R5F3LQFV36TJTFK4UJLLSOFJW7OZO","A1KIL2V6SMJBGX","3YKP7CX6G21OU5MBQSHEZ5ZTUTWB7P","","null","<img src=""img/land3.png"" style=""width:200px;border:14px solid red;"">","null","","","","","","","","","",""
"","image-keyboard-response","249","95469","0.0-249.0","3R5F3LQFV36TJTFK4UJLLSOFJW7OZO","A1KIL2V6SMJBGX","3YKP7CX6G21OU5MBQSHEZ5ZTUTWB7P","","53","img/land5.png","74","56","1","0","1","2","0.8,0.2,0.2,0.2,0.8,0.2,0.2,0.2,0.8","0.2,0.8,0.2,0.2,0.2,0.8,0.8,0.2,0.2","3","",""
"","html-keyboard-response","250","95793","0.0-250.0","3R5F3LQFV36TJTFK4UJLLSOFJW7OZO","A1KIL2V6SMJBGX","3YKP7CX6G21OU5MBQSHEZ5ZTUTWB7P","","null","<img src=""img/land5.png"" style=""width:200px;border:14px solid red;"">","null","","","","","","","","","",""
"","image-keyboard-response","251","95867","0.0-251.0","3R5F3LQFV36TJTFK4UJLLSOFJW7OZO","A1KIL2V6SMJBGX","3YKP7CX6G21OU5MBQSHEZ5ZTUTWB7P","","70","img/land5.png","74","73","1","0","1","2","0.8,0.2,0.2,0.2,0.8,0.2,0.2,0.2,0.8","0.2,0.8,0.2,0.2,0.2,0.8,0.8,0.2,0.2","3","",""
"","html-keyboard-response","252","96191","0.0-252.0","3R5F3LQFV36TJTFK4UJLLSOFJW7OZO","A1KIL2V6SMJBGX","3YKP7CX6G21OU5MBQSHEZ5ZTUTWB7P","","null","<img src=""img/land5.png"" style=""width:200px;border:14px solid red;"">","null","","","","","","","","","",""
"","image-keyboard-response","253","96329","0.0-253.0","3R5F3LQFV36TJTFK4UJLLSOFJW7OZO","A1KIL2V6SMJBGX","3YKP7CX6G21OU5MBQSHEZ5ZTUTWB7P","","132","img/land5.png","76","136","3","0","1","2","0.8,0.2,0.2,0.2,0.8,0.2,0.2,0.2,0.8","0.2,0.8,0.2,0.2,0.2,0.8,0.8,0.2,0.2","3","",""
"","html-keyboard-response","254","96652","0.0-254.0","3R5F3LQFV36TJTFK4UJLLSOFJW7OZO","A1KIL2V6SMJBGX","3YKP7CX6G21OU5MBQSHEZ5ZTUTWB7P","","null","<img src=""img/land5.png"" style=""width:200px;border:14px solid red;"">","null","","","","","","","","","",""
"","image-keyboard-response","255","96726","0.0-255.0","3R5F3LQFV36TJTFK4UJLLSOFJW7OZO","A1KIL2V6SMJBGX","3YKP7CX6G21OU5MBQSHEZ5ZTUTWB7P","","69","img/land5.png","75","73","2","1","1","2","0.8,0.2,0.2,0.2,0.8,0.2,0.2,0.2,0.8","0.2,0.8,0.2,0.2,0.2,0.8,0.8,0.2,0.2","3","",""
"","html-keyboard-response","256","97043","0.0-256.0","3R5F3LQFV36TJTFK4UJLLSOFJW7OZO","A1KIL2V6SMJBGX","3YKP7CX6G21OU5MBQSHEZ5ZTUTWB7P","","null","<img src=""img/land5.png"" style=""width:200px; border:14px solid green;"">","null","","","","","","","","","",""
"","image-keyboard-response","257","97248","0.0-257.0","3R5F3LQFV36TJTFK4UJLLSOFJW7OZO","A1KIL2V6SMJBGX","3YKP7CX6G21OU5MBQSHEZ5ZTUTWB7P","","200","img/land1.png","76","205","3","0","3","2","0.8,0.2,0.2,0.2,0.8,0.2,0.2,0.2,0.8","0.2,0.8,0.2,0.2,0.2,0.8,0.8,0.2,0.2","3","",""
"","html-keyboard-response","258","97563","0.0-258.0","3R5F3LQFV36TJTFK4UJLLSOFJW7OZO","A1KIL2V6SMJBGX","3YKP7CX6G21OU5MBQSHEZ5ZTUTWB7P","","null","<img src=""img/land1.png"" style=""width:200px;border:14px solid red;"">","null","","","","","","","","","",""
"","image-keyboard-response","259","97578","0.0-259.0","3R5F3LQFV36TJTFK4UJLLSOFJW7OZO","A1KIL2V6SMJBGX","3YKP7CX6G21OU5MBQSHEZ5ZTUTWB7P","","11","img/land5.png","76","15","3","0","1","2","0.8,0.2,0.2,0.2,0.8,0.2,0.2,0.2,0.8","0.2,0.8,0.2,0.2,0.2,0.8,0.8,0.2,0.2","3","",""
"","html-keyboard-response","260","97885","0.0-260.0","3R5F3LQFV36TJTFK4UJLLSOFJW7OZO","A1KIL2V6SMJBGX","3YKP7CX6G21OU5MBQSHEZ5ZTUTWB7P","","null","<img src=""img/land5.png"" style=""width:200px;border:14px solid red;"">","null","","","","","","","","","",""
"","image-keyboard-response","261","97896","0.0-261.0","3R5F3LQFV36TJTFK4UJLLSOFJW7OZO","A1KIL2V6SMJBGX","3YKP7CX6G21OU5MBQSHEZ5ZTUTWB7P","","6","img/land3.png","76","10","3","1","2","2","0.8,0.2,0.2,0.2,0.8,0.2,0.2,0.2,0.8","0.2,0.8,0.2,0.2,0.2,0.8,0.8,0.2,0.2","3","",""
"","html-keyboard-response","262","98222","0.0-262.0","3R5F3LQFV36TJTFK4UJLLSOFJW7OZO","A1KIL2V6SMJBGX","3YKP7CX6G21OU5MBQSHEZ5ZTUTWB7P","","null","<img src=""img/land3.png"" style=""width:200px; border:14px solid green;"">","null","","","","","","","","","",""
"","image-keyboard-response","263","98324","0.0-263.0","3R5F3LQFV36TJTFK4UJLLSOFJW7OZO","A1KIL2V6SMJBGX","3YKP7CX6G21OU5MBQSHEZ5ZTUTWB7P","","98","img/land3.png","75","101","2","0","2","2","0.8,0.2,0.2,0.2,0.8,0.2,0.2,0.2,0.8","0.2,0.8,0.2,0.2,0.2,0.8,0.8,0.2,0.2","3","",""
"","html-keyboard-response","264","98639","0.0-264.0","3R5F3LQFV36TJTFK4UJLLSOFJW7OZO","A1KIL2V6SMJBGX","3YKP7CX6G21OU5MBQSHEZ5ZTUTWB7P","","null","<img src=""img/land3.png"" style=""width:200px;border:14px solid red;"">","null","","","","","","","","","",""
"","image-keyboard-response","265","98686","0.0-265.0","3R5F3LQFV36TJTFK4UJLLSOFJW7OZO","A1KIL2V6SMJBGX","3YKP7CX6G21OU5MBQSHEZ5ZTUTWB7P","","41","img/land3.png","75","44","2","0","2","2","0.8,0.2,0.2,0.2,0.8,0.2,0.2,0.2,0.8","0.2,0.8,0.2,0.2,0.2,0.8,0.8,0.2,0.2","3","",""
"","html-keyboard-response","266","99002","0.0-266.0","3R5F3LQFV36TJTFK4UJLLSOFJW7OZO","A1KIL2V6SMJBGX","3YKP7CX6G21OU5MBQSHEZ5ZTUTWB7P","","null","<img src=""img/land3.png"" style=""width:200px;border:14px solid red;"">","null","","","","","","","","","",""
"","image-keyboard-response","267","99119","0.0-267.0","3R5F3LQFV36TJTFK4UJLLSOFJW7OZO","A1KIL2V6SMJBGX","3YKP7CX6G21OU5MBQSHEZ5ZTUTWB7P","","113","img/land5.png","74","116","1","0","1","2","0.8,0.2,0.2,0.2,0.8,0.2,0.2,0.2,0.8","0.2,0.8,0.2,0.2,0.2,0.8,0.8,0.2,0.2","3","",""
"","html-keyboard-response","268","99427","0.0-268.0","3R5F3LQFV36TJTFK4UJLLSOFJW7OZO","A1KIL2V6SMJBGX","3YKP7CX6G21OU5MBQSHEZ5ZTUTWB7P","","null","<img src=""img/land5.png"" style=""width:200px;border:14px solid red;"">","null","","","","","","","","","",""
"","image-keyboard-response","269","99486","0.0-269.0","3R5F3LQFV36TJTFK4UJLLSOFJW7OZO","A1KIL2V6SMJBGX","3YKP7CX6G21OU5MBQSHEZ5ZTUTWB7P","","56","img/land5.png","76","57","3","0","1","2","0.8,0.2,0.2,0.2,0.8,0.2,0.2,0.2,0.8","0.2,0.8,0.2,0.2,0.2,0.8,0.8,0.2,0.2","3","",""
"","html-keyboard-response","270","99790","0.0-270.0","3R5F3LQFV36TJTFK4UJLLSOFJW7OZO","A1KIL2V6SMJBGX","3YKP7CX6G21OU5MBQSHEZ5ZTUTWB7P","","null","<img src=""img/land5.png"" style=""width:200px;border:14px solid red;"">","null","","","","","","","","","",""
"","image-keyboard-response","271","99901","0.0-271.0","3R5F3LQFV36TJTFK4UJLLSOFJW7OZO","A1KIL2V6SMJBGX","3YKP7CX6G21OU5MBQSHEZ5ZTUTWB7P","","109","img/land3.png","75","111","2","0","2","2","0.8,0.2,0.2,0.2,0.8,0.2,0.2,0.2,0.8","0.2,0.8,0.2,0.2,0.2,0.8,0.8,0.2,0.2","3","",""
"","html-keyboard-response","272","100206","0.0-272.0","3R5F3LQFV36TJTFK4UJLLSOFJW7OZO","A1KIL2V6SMJBGX","3YKP7CX6G21OU5MBQSHEZ5ZTUTWB7P","","null","<img src=""img/land3.png"" style=""width:200px;border:14px solid red;"">","null","","","","","","","","","",""
"","image-keyboard-response","273","100369","0.0-273.0","3R5F3LQFV36TJTFK4UJLLSOFJW7OZO","A1KIL2V6SMJBGX","3YKP7CX6G21OU5MBQSHEZ5ZTUTWB7P","","158","img/land5.png","76","161","3","1","1","2","0.8,0.2,0.2,0.2,0.8,0.2,0.2,0.2,0.8","0.2,0.8,0.2,0.2,0.2,0.8,0.8,0.2,0.2","3","",""
"","html-keyboard-response","274","100678","0.0-274.0","3R5F3LQFV36TJTFK4UJLLSOFJW7OZO","A1KIL2V6SMJBGX","3YKP7CX6G21OU5MBQSHEZ5ZTUTWB7P","","null","<img src=""img/land5.png"" style=""width:200px; border:14px solid green;"">","null","","","","","","","","","",""
"","image-keyboard-response","275","100759","0.0-275.0","3R5F3LQFV36TJTFK4UJLLSOFJW7OZO","A1KIL2V6SMJBGX","3YKP7CX6G21OU5MBQSHEZ5ZTUTWB7P","","77","img/land5.png","74","79","1","0","1","2","0.8,0.2,0.2,0.2,0.8,0.2,0.2,0.2,0.8","0.2,0.8,0.2,0.2,0.2,0.8,0.8,0.2,0.2","3","",""
"","html-keyboard-response","276","101061","0.0-276.0","3R5F3LQFV36TJTFK4UJLLSOFJW7OZO","A1KIL2V6SMJBGX","3YKP7CX6G21OU5MBQSHEZ5ZTUTWB7P","","null","<img src=""img/land5.png"" style=""width:200px;border:14px solid red;"">","null","","","","","","","","","",""
"","image-keyboard-response","277","101202","0.0-277.0","3R5F3LQFV36TJTFK4UJLLSOFJW7OZO","A1KIL2V6SMJBGX","3YKP7CX6G21OU5MBQSHEZ5ZTUTWB7P","","138","img/land5.png","74","141","1","0","1","2","0.8,0.2,0.2,0.2,0.8,0.2,0.2,0.2,0.8","0.2,0.8,0.2,0.2,0.2,0.8,0.8,0.2,0.2","3","",""
"","html-keyboard-response","278","101511","0.0-278.0","3R5F3LQFV36TJTFK4UJLLSOFJW7OZO","A1KIL2V6SMJBGX","3YKP7CX6G21OU5MBQSHEZ5ZTUTWB7P","","null","<img src=""img/land5.png"" style=""width:200px;border:14px solid red;"">","null","","","","","","","","","",""
"","image-keyboard-response","279","101647","0.0-279.0","3R5F3LQFV36TJTFK4UJLLSOFJW7OZO","A1KIL2V6SMJBGX","3YKP7CX6G21OU5MBQSHEZ5ZTUTWB7P","","130","img/land5.png","75","136","2","1","1","2","0.8,0.2,0.2,0.2,0.8,0.2,0.2,0.2,0.8","0.2,0.8,0.2,0.2,0.2,0.8,0.8,0.2,0.2","3","",""
"","html-keyboard-response","280","101965","0.0-280.0","3R5F3LQFV36TJTFK4UJLLSOFJW7OZO","A1KIL2V6SMJBGX","3YKP7CX6G21OU5MBQSHEZ5ZTUTWB7P","","null","<img src=""img/land5.png"" style=""width:200px; border:14px solid green;"">","null","","","","","","","","","",""
"","image-keyboard-response","281","102125","0.0-281.0","3R5F3LQFV36TJTFK4UJLLSOFJW7OZO","A1KIL2V6SMJBGX","3YKP7CX6G21OU5MBQSHEZ5ZTUTWB7P","","156","img/land5.png","75","160","2","0","1","2","0.8,0.2,0.2,0.2,0.8,0.2,0.2,0.2,0.8","0.2,0.8,0.2,0.2,0.2,0.8,0.8,0.2,0.2","3","",""
"","html-keyboard-response","282","102436","0.0-282.0","3R5F3LQFV36TJTFK4UJLLSOFJW7OZO","A1KIL2V6SMJBGX","3YKP7CX6G21OU5MBQSHEZ5ZTUTWB7P","","null","<img src=""img/land5.png"" style=""width:200px;border:14px solid red;"">","null","","","","","","","","","",""
"","image-keyboard-response","283","102536","0.0-283.0","3R5F3LQFV36TJTFK4UJLLSOFJW7OZO","A1KIL2V6SMJBGX","3YKP7CX6G21OU5MBQSHEZ5ZTUTWB7P","","95","img/land5.png","75","99","2","1","1","2","0.8,0.2,0.2,0.2,0.8,0.2,0.2,0.2,0.8","0.2,0.8,0.2,0.2,0.2,0.8,0.8,0.2,0.2","3","",""
"","html-keyboard-response","284","102851","0.0-284.0","3R5F3LQFV36TJTFK4UJLLSOFJW7OZO","A1KIL2V6SMJBGX","3YKP7CX6G21OU5MBQSHEZ5ZTUTWB7P","","null","<img src=""img/land5.png"" style=""width:200px; border:14px solid green;"">","null","","","","","","","","","",""
"","image-keyboard-response","285","102906","0.0-285.0","3R5F3LQFV36TJTFK4UJLLSOFJW7OZO","A1KIL2V6SMJBGX","3YKP7CX6G21OU5MBQSHEZ5ZTUTWB7P","","51","img/land5.png","75","54","2","0","1","2","0.8,0.2,0.2,0.2,0.8,0.2,0.2,0.2,0.8","0.2,0.8,0.2,0.2,0.2,0.8,0.8,0.2,0.2","3","",""
"","html-keyboard-response","286","103214","0.0-286.0","3R5F3LQFV36TJTFK4UJLLSOFJW7OZO","A1KIL2V6SMJBGX","3YKP7CX6G21OU5MBQSHEZ5ZTUTWB7P","","null","<img src=""img/land5.png"" style=""width:200px;border:14px solid red;"">","null","","","","","","","","","",""
"","image-keyboard-response","287","103335","0.0-287.0","3R5F3LQFV36TJTFK4UJLLSOFJW7OZO","A1KIL2V6SMJBGX","3YKP7CX6G21OU5MBQSHEZ5ZTUTWB7P","","114","img/land5.png","75","119","2","0","1","2","0.8,0.2,0.2,0.2,0.8,0.2,0.2,0.2,0.8","0.2,0.8,0.2,0.2,0.2,0.8,0.8,0.2,0.2","3","",""
"","html-keyboard-response","288","103653","0.0-288.0","3R5F3LQFV36TJTFK4UJLLSOFJW7OZO","A1KIL2V6SMJBGX","3YKP7CX6G21OU5MBQSHEZ5ZTUTWB7P","","null","<img src=""img/land5.png"" style=""width:200px;border:14px solid red;"">","null","","","","","","","","","",""
"","image-keyboard-response","289","103788","0.0-289.0","3R5F3LQFV36TJTFK4UJLLSOFJW7OZO","A1KIL2V6SMJBGX","3YKP7CX6G21OU5MBQSHEZ5ZTUTWB7P","","131","img/land1.png","74","134","1","0","3","2","0.8,0.2,0.2,0.2,0.8,0.2,0.2,0.2,0.8","0.2,0.8,0.2,0.2,0.2,0.8,0.8,0.2,0.2","3","",""
"","html-keyboard-response","290","104102","0.0-290.0","3R5F3LQFV36TJTFK4UJLLSOFJW7OZO","A1KIL2V6SMJBGX","3YKP7CX6G21OU5MBQSHEZ5ZTUTWB7P","","null","<img src=""img/land1.png"" style=""width:200px;border:14px solid red;"">","null","","","","","","","","","",""
"","image-keyboard-response","291","104252","0.0-291.0","3R5F3LQFV36TJTFK4UJLLSOFJW7OZO","A1KIL2V6SMJBGX","3YKP7CX6G21OU5MBQSHEZ5ZTUTWB7P","","146","img/land5.png","74","149","1","0","1","2","0.8,0.2,0.2,0.2,0.8,0.2,0.2,0.2,0.8","0.2,0.8,0.2,0.2,0.2,0.8,0.8,0.2,0.2","3","",""
"","html-keyboard-response","292","104572","0.0-292.0","3R5F3LQFV36TJTFK4UJLLSOFJW7OZO","A1KIL2V6SMJBGX","3YKP7CX6G21OU5MBQSHEZ5ZTUTWB7P","","null","<img src=""img/land5.png"" style=""width:200px;border:14px solid red;"">","null","","","","","","","","","",""
"","image-keyboard-response","293","104687","0.0-293.0","3R5F3LQFV36TJTFK4UJLLSOFJW7OZO","A1KIL2V6SMJBGX","3YKP7CX6G21OU5MBQSHEZ5ZTUTWB7P","","112","img/land5.png","74","114","1","0","1","2","0.8,0.2,0.2,0.2,0.8,0.2,0.2,0.2,0.8","0.2,0.8,0.2,0.2,0.2,0.8,0.8,0.2,0.2","3","",""
"","html-keyboard-response","294","105004","0.0-294.0","3R5F3LQFV36TJTFK4UJLLSOFJW7OZO","A1KIL2V6SMJBGX","3YKP7CX6G21OU5MBQSHEZ5ZTUTWB7P","","null","<img src=""img/land5.png"" style=""width:200px;border:14px solid red;"">","null","","","","","","","","","",""
"","image-keyboard-response","295","105121","0.0-295.0","3R5F3LQFV36TJTFK4UJLLSOFJW7OZO","A1KIL2V6SMJBGX","3YKP7CX6G21OU5MBQSHEZ5ZTUTWB7P","","113","img/land1.png","74","115","1","1","3","2","0.8,0.2,0.2,0.2,0.8,0.2,0.2,0.2,0.8","0.2,0.8,0.2,0.2,0.2,0.8,0.8,0.2,0.2","3","",""
"","html-keyboard-response","296","105442","0.0-296.0","3R5F3LQFV36TJTFK4UJLLSOFJW7OZO","A1KIL2V6SMJBGX","3YKP7CX6G21OU5MBQSHEZ5ZTUTWB7P","","null","<img src=""img/land1.png"" style=""width:200px; border:14px solid green;"">","null","","","","","","","","","",""
"","image-keyboard-response","297","105560","0.0-297.0","3R5F3LQFV36TJTFK4UJLLSOFJW7OZO","A1KIL2V6SMJBGX","3YKP7CX6G21OU5MBQSHEZ5ZTUTWB7P","","115","img/land3.png","75","116","2","0","2","2","0.8,0.2,0.2,0.2,0.8,0.2,0.2,0.2,0.8","0.2,0.8,0.2,0.2,0.2,0.8,0.8,0.2,0.2","3","",""
"","html-keyboard-response","298","105875","0.0-298.0","3R5F3LQFV36TJTFK4UJLLSOFJW7OZO","A1KIL2V6SMJBGX","3YKP7CX6G21OU5MBQSHEZ5ZTUTWB7P","","null","<img src=""img/land3.png"" style=""width:200px;border:14px solid red;"">","null","","","","","","","","","",""
"","image-keyboard-response","299","105944","0.0-299.0","3R5F3LQFV36TJTFK4UJLLSOFJW7OZO","A1KIL2V6SMJBGX","3YKP7CX6G21OU5MBQSHEZ5ZTUTWB7P","","65","img/land5.png","75","69","2","1","1","2","0.8,0.2,0.2,0.2,0.8,0.2,0.2,0.2,0.8","0.2,0.8,0.2,0.2,0.2,0.8,0.8,0.2,0.2","3","",""
"","html-keyboard-response","300","106261","0.0-300.0","3R5F3LQFV36TJTFK4UJLLSOFJW7OZO","A1KIL2V6SMJBGX","3YKP7CX6G21OU5MBQSHEZ5ZTUTWB7P","","null","<img src=""img/land5.png"" style=""width:200px; border:14px solid green;"">","null","","","","","","","","","",""
"","image-keyboard-response","301","106301","0.0-301.0","3R5F3LQFV36TJTFK4UJLLSOFJW7OZO","A1KIL2V6SMJBGX","3YKP7CX6G21OU5MBQSHEZ5ZTUTWB7P","","35","img/land3.png","75","39","2","0","2","2","0.8,0.2,0.2,0.2,0.8,0.2,0.2,0.2,0.8","0.2,0.8,0.2,0.2,0.2,0.8,0.8,0.2,0.2","3","",""
"","html-keyboard-response","302","106608","0.0-302.0","3R5F3LQFV36TJTFK4UJLLSOFJW7OZO","A1KIL2V6SMJBGX","3YKP7CX6G21OU5MBQSHEZ5ZTUTWB7P","","null","<img src=""img/land3.png"" style=""width:200px;border:14px solid red;"">","null","","","","","","","","","",""
"","image-keyboard-response","303","106657","0.0-303.0","3R5F3LQFV36TJTFK4UJLLSOFJW7OZO","A1KIL2V6SMJBGX","3YKP7CX6G21OU5MBQSHEZ5ZTUTWB7P","","44","img/land5.png","75","48","2","0","1","2","0.8,0.2,0.2,0.2,0.8,0.2,0.2,0.2,0.8","0.2,0.8,0.2,0.2,0.2,0.8,0.8,0.2,0.2","3","",""
"","html-keyboard-response","304","106963","0.0-304.0","3R5F3LQFV36TJTFK4UJLLSOFJW7OZO","A1KIL2V6SMJBGX","3YKP7CX6G21OU5MBQSHEZ5ZTUTWB7P","","null","<img src=""img/land5.png"" style=""width:200px;border:14px solid red;"">","null","","","","","","","","","",""
"","image-keyboard-response","305","106997","0.0-305.0","3R5F3LQFV36TJTFK4UJLLSOFJW7OZO","A1KIL2V6SMJBGX","3YKP7CX6G21OU5MBQSHEZ5ZTUTWB7P","","31","img/land5.png","75","34","2","1","1","2","0.8,0.2,0.2,0.2,0.8,0.2,0.2,0.2,0.8","0.2,0.8,0.2,0.2,0.2,0.8,0.8,0.2,0.2","3","",""
"","html-keyboard-response","306","107311","0.0-306.0","3R5F3LQFV36TJTFK4UJLLSOFJW7OZO","A1KIL2V6SMJBGX","3YKP7CX6G21OU5MBQSHEZ5ZTUTWB7P","","null","<img src=""img/land5.png"" style=""width:200px; border:14px solid green;"">","null","","","","","","","","","",""
"","image-keyboard-response","307","107362","0.0-307.0","3R5F3LQFV36TJTFK4UJLLSOFJW7OZO","A1KIL2V6SMJBGX","3YKP7CX6G21OU5MBQSHEZ5ZTUTWB7P","","46","img/land5.png","76","49","3","0","1","2","0.8,0.2,0.2,0.2,0.8,0.2,0.2,0.2,0.8","0.2,0.8,0.2,0.2,0.2,0.8,0.8,0.2,0.2","3","",""
"","html-keyboard-response","308","107697","0.0-308.0","3R5F3LQFV36TJTFK4UJLLSOFJW7OZO","A1KIL2V6SMJBGX","3YKP7CX6G21OU5MBQSHEZ5ZTUTWB7P","","null","<img src=""img/land5.png"" style=""width:200px;border:14px solid red;"">","null","","","","","","","","","",""
"","image-keyboard-response","309","107790","0.0-309.0","3R5F3LQFV36TJTFK4UJLLSOFJW7OZO","A1KIL2V6SMJBGX","3YKP7CX6G21OU5MBQSHEZ5ZTUTWB7P","","88","img/land5.png","76","91","3","0","1","2","0.8,0.2,0.2,0.2,0.8,0.2,0.2,0.2,0.8","0.2,0.8,0.2,0.2,0.2,0.8,0.8,0.2,0.2","3","",""
"","html-keyboard-response","310","108098","0.0-310.0","3R5F3LQFV36TJTFK4UJLLSOFJW7OZO","A1KIL2V6SMJBGX","3YKP7CX6G21OU5MBQSHEZ5ZTUTWB7P","","null","<img src=""img/land5.png"" style=""width:200px;border:14px solid red;"">","null","","","","","","","","","",""
"","image-keyboard-response","311","108177","0.0-311.0","3R5F3LQFV36TJTFK4UJLLSOFJW7OZO","A1KIL2V6SMJBGX","3YKP7CX6G21OU5MBQSHEZ5ZTUTWB7P","","76","img/land1.png","76","79","3","0","3","2","0.8,0.2,0.2,0.2,0.8,0.2,0.2,0.2,0.8","0.2,0.8,0.2,0.2,0.2,0.8,0.8,0.2,0.2","3","",""
"","html-keyboard-response","312","108483","0.0-312.0","3R5F3LQFV36TJTFK4UJLLSOFJW7OZO","A1KIL2V6SMJBGX","3YKP7CX6G21OU5MBQSHEZ5ZTUTWB7P","","null","<img src=""img/land1.png"" style=""width:200px;border:14px solid red;"">","null","","","","","","","","","",""
"","image-keyboard-response","313","108608","0.0-313.0","3R5F3LQFV36TJTFK4UJLLSOFJW7OZO","A1KIL2V6SMJBGX","3YKP7CX6G21OU5MBQSHEZ5ZTUTWB7P","","121","img/land5.png","75","122","2","1","1","2","0.8,0.2,0.2,0.2,0.8,0.2,0.2,0.2,0.8","0.2,0.8,0.2,0.2,0.2,0.8,0.8,0.2,0.2","3","",""
"","html-keyboard-response","314","108916","0.0-314.0","3R5F3LQFV36TJTFK4UJLLSOFJW7OZO","A1KIL2V6SMJBGX","3YKP7CX6G21OU5MBQSHEZ5ZTUTWB7P","","null","<img src=""img/land5.png"" style=""width:200px; border:14px solid green;"">","null","","","","","","","","","",""
"","image-keyboard-response","315","109062","0.0-315.0","3R5F3LQFV36TJTFK4UJLLSOFJW7OZO","A1KIL2V6SMJBGX","3YKP7CX6G21OU5MBQSHEZ5ZTUTWB7P","","142","img/land5.png","74","144","1","0","1","2","0.8,0.2,0.2,0.2,0.8,0.2,0.2,0.2,0.8","0.2,0.8,0.2,0.2,0.2,0.8,0.8,0.2,0.2","3","",""
"","html-keyboard-response","316","109370","0.0-316.0","3R5F3LQFV36TJTFK4UJLLSOFJW7OZO","A1KIL2V6SMJBGX","3YKP7CX6G21OU5MBQSHEZ5ZTUTWB7P","","null","<img src=""img/land5.png"" style=""width:200px;border:14px solid red;"">","null","","","","","","","","","",""
"","image-keyboard-response","317","109397","0.0-317.0","3R5F3LQFV36TJTFK4UJLLSOFJW7OZO","A1KIL2V6SMJBGX","3YKP7CX6G21OU5MBQSHEZ5ZTUTWB7P","","22","img/land3.png","75","26","2","0","2","2","0.8,0.2,0.2,0.2,0.8,0.2,0.2,0.2,0.8","0.2,0.8,0.2,0.2,0.2,0.8,0.8,0.2,0.2","3","",""
"","html-keyboard-response","318","109734","0.0-318.0","3R5F3LQFV36TJTFK4UJLLSOFJW7OZO","A1KIL2V6SMJBGX","3YKP7CX6G21OU5MBQSHEZ5ZTUTWB7P","","null","<img src=""img/land3.png"" style=""width:200px;border:14px solid red;"">","null","","","","","","","","","",""
"","image-keyboard-response","319","109822","0.0-319.0","3R5F3LQFV36TJTFK4UJLLSOFJW7OZO","A1KIL2V6SMJBGX","3YKP7CX6G21OU5MBQSHEZ5ZTUTWB7P","","82","img/land5.png","75","87","2","1","1","2","0.8,0.2,0.2,0.2,0.8,0.2,0.2,0.2,0.8","0.2,0.8,0.2,0.2,0.2,0.8,0.8,0.2,0.2","3","",""
"","html-keyboard-response","320","110140","0.0-320.0","3R5F3LQFV36TJTFK4UJLLSOFJW7OZO","A1KIL2V6SMJBGX","3YKP7CX6G21OU5MBQSHEZ5ZTUTWB7P","","null","<img src=""img/land5.png"" style=""width:200px; border:14px solid green;"">","null","","","","","","","","","",""
"","image-keyboard-response","321","110248","0.0-321.0","3R5F3LQFV36TJTFK4UJLLSOFJW7OZO","A1KIL2V6SMJBGX","3YKP7CX6G21OU5MBQSHEZ5ZTUTWB7P","","104","img/land5.png","75","107","2","1","1","2","0.8,0.2,0.2,0.2,0.8,0.2,0.2,0.2,0.8","0.2,0.8,0.2,0.2,0.2,0.8,0.8,0.2,0.2","3","",""
"","html-keyboard-response","322","110558","0.0-322.0","3R5F3LQFV36TJTFK4UJLLSOFJW7OZO","A1KIL2V6SMJBGX","3YKP7CX6G21OU5MBQSHEZ5ZTUTWB7P","","null","<img src=""img/land5.png"" style=""width:200px; border:14px solid green;"">","null","","","","","","","","","",""
"","image-keyboard-response","323","110708","0.0-323.0","3R5F3LQFV36TJTFK4UJLLSOFJW7OZO","A1KIL2V6SMJBGX","3YKP7CX6G21OU5MBQSHEZ5ZTUTWB7P","","144","img/land1.png","74","147","1","1","3","2","0.8,0.2,0.2,0.2,0.8,0.2,0.2,0.2,0.8","0.2,0.8,0.2,0.2,0.2,0.8,0.8,0.2,0.2","3","",""
"","html-keyboard-response","324","111022","0.0-324.0","3R5F3LQFV36TJTFK4UJLLSOFJW7OZO","A1KIL2V6SMJBGX","3YKP7CX6G21OU5MBQSHEZ5ZTUTWB7P","","null","<img src=""img/land1.png"" style=""width:200px; border:14px solid green;"">","null","","","","","","","","","",""
"","image-keyboard-response","325","111078","0.0-325.0","3R5F3LQFV36TJTFK4UJLLSOFJW7OZO","A1KIL2V6SMJBGX","3YKP7CX6G21OU5MBQSHEZ5ZTUTWB7P","","54","img/land5.png","75","56","2","1","1","2","0.8,0.2,0.2,0.2,0.8,0.2,0.2,0.2,0.8","0.2,0.8,0.2,0.2,0.2,0.8,0.8,0.2,0.2","3","",""
"","html-keyboard-response","326","111392","0.0-326.0","3R5F3LQFV36TJTFK4UJLLSOFJW7OZO","A1KIL2V6SMJBGX","3YKP7CX6G21OU5MBQSHEZ5ZTUTWB7P","","null","<img src=""img/land5.png"" style=""width:200px; border:14px solid green;"">","null","","","","","","","","","",""
"","image-keyboard-response","327","111523","0.0-327.0","3R5F3LQFV36TJTFK4UJLLSOFJW7OZO","A1KIL2V6SMJBGX","3YKP7CX6G21OU5MBQSHEZ5ZTUTWB7P","","126","img/land1.png","76","130","3","0","3","2","0.8,0.2,0.2,0.2,0.8,0.2,0.2,0.2,0.8","0.2,0.8,0.2,0.2,0.2,0.8,0.8,0.2,0.2","3","",""
"","html-keyboard-response","328","111841","0.0-328.0","3R5F3LQFV36TJTFK4UJLLSOFJW7OZO","A1KIL2V6SMJBGX","3YKP7CX6G21OU5MBQSHEZ5ZTUTWB7P","","null","<img src=""img/land1.png"" style=""width:200px;border:14px solid red;"">","null","","","","","","","","","",""
"","image-keyboard-response","329","112060","0.0-329.0","3R5F3LQFV36TJTFK4UJLLSOFJW7OZO","A1KIL2V6SMJBGX","3YKP7CX6G21OU5MBQSHEZ5ZTUTWB7P","","215","img/land5.png","75","218","2","1","1","2","0.8,0.2,0.2,0.2,0.8,0.2,0.2,0.2,0.8","0.2,0.8,0.2,0.2,0.2,0.8,0.8,0.2,0.2","3","",""
"","html-keyboard-response","330","112380","0.0-330.0","3R5F3LQFV36TJTFK4UJLLSOFJW7OZO","A1KIL2V6SMJBGX","3YKP7CX6G21OU5MBQSHEZ5ZTUTWB7P","","null","<img src=""img/land5.png"" style=""width:200px; border:14px solid green;"">","null","","","","","","","","","",""
"","image-keyboard-response","331","113322","0.0-331.0","3R5F3LQFV36TJTFK4UJLLSOFJW7OZO","A1KIL2V6SMJBGX","3YKP7CX6G21OU5MBQSHEZ5ZTUTWB7P","","938","img/land5.png","75","941","2","1","1","2","0.8,0.2,0.2,0.2,0.8,0.2,0.2,0.2,0.8","0.2,0.8,0.2,0.2,0.2,0.8,0.8,0.2,0.2","3","",""
"","html-keyboard-response","332","113629","0.0-332.0","3R5F3LQFV36TJTFK4UJLLSOFJW7OZO","A1KIL2V6SMJBGX","3YKP7CX6G21OU5MBQSHEZ5ZTUTWB7P","","null","<img src=""img/land5.png"" style=""width:200px; border:14px solid green;"">","null","","","","","","","","","",""
"","image-keyboard-response","333","113800","0.0-333.0","3R5F3LQFV36TJTFK4UJLLSOFJW7OZO","A1KIL2V6SMJBGX","3YKP7CX6G21OU5MBQSHEZ5ZTUTWB7P","","168","img/land3.png","74","170","1","0","2","2","0.8,0.2,0.2,0.2,0.8,0.2,0.2,0.2,0.8","0.2,0.8,0.2,0.2,0.2,0.8,0.8,0.2,0.2","3","",""
"","html-keyboard-response","334","114116","0.0-334.0","3R5F3LQFV36TJTFK4UJLLSOFJW7OZO","A1KIL2V6SMJBGX","3YKP7CX6G21OU5MBQSHEZ5ZTUTWB7P","","null","<img src=""img/land3.png"" style=""width:200px;border:14px solid red;"">","null","","","","","","","","","",""
"","image-keyboard-response","335","114201","0.0-335.0","3R5F3LQFV36TJTFK4UJLLSOFJW7OZO","A1KIL2V6SMJBGX","3YKP7CX6G21OU5MBQSHEZ5ZTUTWB7P","","81","img/land1.png","74","83","1","1","3","2","0.8,0.2,0.2,0.2,0.8,0.2,0.2,0.2,0.8","0.2,0.8,0.2,0.2,0.2,0.8,0.8,0.2,0.2","3","",""
"","html-keyboard-response","336","114517","0.0-336.0","3R5F3LQFV36TJTFK4UJLLSOFJW7OZO","A1KIL2V6SMJBGX","3YKP7CX6G21OU5MBQSHEZ5ZTUTWB7P","","null","<img src=""img/land1.png"" style=""width:200px; border:14px solid green;"">","null","","","","","","","","","",""
"","image-keyboard-response","337","114671","0.0-337.0","3R5F3LQFV36TJTFK4UJLLSOFJW7OZO","A1KIL2V6SMJBGX","3YKP7CX6G21OU5MBQSHEZ5ZTUTWB7P","","149","img/land1.png","74","153","1","0","3","2","0.8,0.2,0.2,0.2,0.8,0.2,0.2,0.2,0.8","0.2,0.8,0.2,0.2,0.2,0.8,0.8,0.2,0.2","3","",""
"","html-keyboard-response","338","114987","0.0-338.0","3R5F3LQFV36TJTFK4UJLLSOFJW7OZO","A1KIL2V6SMJBGX","3YKP7CX6G21OU5MBQSHEZ5ZTUTWB7P","","null","<img src=""img/land1.png"" style=""width:200px;border:14px solid red;"">","null","","","","","","","","","",""
"","image-keyboard-response","339","115113","0.0-339.0","3R5F3LQFV36TJTFK4UJLLSOFJW7OZO","A1KIL2V6SMJBGX","3YKP7CX6G21OU5MBQSHEZ5ZTUTWB7P","","121","img/land5.png","75","125","2","0","1","2","0.8,0.2,0.2,0.2,0.8,0.2,0.2,0.2,0.8","0.2,0.8,0.2,0.2,0.2,0.8,0.8,0.2,0.2","3","",""
"","html-keyboard-response","340","115420","0.0-340.0","3R5F3LQFV36TJTFK4UJLLSOFJW7OZO","A1KIL2V6SMJBGX","3YKP7CX6G21OU5MBQSHEZ5ZTUTWB7P","","null","<img src=""img/land5.png"" style=""width:200px;border:14px solid red;"">","null","","","","","","","","","",""
"","image-keyboard-response","341","115501","0.0-341.0","3R5F3LQFV36TJTFK4UJLLSOFJW7OZO","A1KIL2V6SMJBGX","3YKP7CX6G21OU5MBQSHEZ5ZTUTWB7P","","77","img/land5.png","75","80","2","1","1","2","0.8,0.2,0.2,0.2,0.8,0.2,0.2,0.2,0.8","0.2,0.8,0.2,0.2,0.2,0.8,0.8,0.2,0.2","3","",""
"","html-keyboard-response","342","115806","0.0-342.0","3R5F3LQFV36TJTFK4UJLLSOFJW7OZO","A1KIL2V6SMJBGX","3YKP7CX6G21OU5MBQSHEZ5ZTUTWB7P","","null","<img src=""img/land5.png"" style=""width:200px; border:14px solid green;"">","null","","","","","","","","","",""
"","image-keyboard-response","343","115875","0.0-343.0","3R5F3LQFV36TJTFK4UJLLSOFJW7OZO","A1KIL2V6SMJBGX","3YKP7CX6G21OU5MBQSHEZ5ZTUTWB7P","","64","img/land3.png","75","68","2","0","2","2","0.8,0.2,0.2,0.2,0.8,0.2,0.2,0.2,0.8","0.2,0.8,0.2,0.2,0.2,0.8,0.8,0.2,0.2","3","",""
"","html-keyboard-response","344","116192","0.0-344.0","3R5F3LQFV36TJTFK4UJLLSOFJW7OZO","A1KIL2V6SMJBGX","3YKP7CX6G21OU5MBQSHEZ5ZTUTWB7P","","null","<img src=""img/land3.png"" style=""width:200px;border:14px solid red;"">","null","","","","","","","","","",""
"","image-keyboard-response","345","116218","0.0-345.0","3R5F3LQFV36TJTFK4UJLLSOFJW7OZO","A1KIL2V6SMJBGX","3YKP7CX6G21OU5MBQSHEZ5ZTUTWB7P","","23","img/land1.png","75","26","2","0","3","2","0.8,0.2,0.2,0.2,0.8,0.2,0.2,0.2,0.8","0.2,0.8,0.2,0.2,0.2,0.8,0.8,0.2,0.2","3","",""
"","html-keyboard-response","346","116523","0.0-346.0","3R5F3LQFV36TJTFK4UJLLSOFJW7OZO","A1KIL2V6SMJBGX","3YKP7CX6G21OU5MBQSHEZ5ZTUTWB7P","","null","<img src=""img/land1.png"" style=""width:200px;border:14px solid red;"">","null","","","","","","","","","",""
"","image-keyboard-response","347","116637","0.0-347.0","3R5F3LQFV36TJTFK4UJLLSOFJW7OZO","A1KIL2V6SMJBGX","3YKP7CX6G21OU5MBQSHEZ5ZTUTWB7P","","109","img/land3.png","75","112","2","0","2","2","0.8,0.2,0.2,0.2,0.8,0.2,0.2,0.2,0.8","0.2,0.8,0.2,0.2,0.2,0.8,0.8,0.2,0.2","3","",""
"","html-keyboard-response","348","116955","0.0-348.0","3R5F3LQFV36TJTFK4UJLLSOFJW7OZO","A1KIL2V6SMJBGX","3YKP7CX6G21OU5MBQSHEZ5ZTUTWB7P","","null","<img src=""img/land3.png"" style=""width:200px;border:14px solid red;"">","null","","","","","","","","","",""
"","image-keyboard-response","349","116976","0.0-349.0","3R5F3LQFV36TJTFK4UJLLSOFJW7OZO","A1KIL2V6SMJBGX","3YKP7CX6G21OU5MBQSHEZ5ZTUTWB7P","","17","img/land1.png","75","20","2","0","3","2","0.8,0.2,0.2,0.2,0.8,0.2,0.2,0.2,0.8","0.2,0.8,0.2,0.2,0.2,0.8,0.8,0.2,0.2","3","",""
"","html-keyboard-response","350","117293","0.0-350.0","3R5F3LQFV36TJTFK4UJLLSOFJW7OZO","A1KIL2V6SMJBGX","3YKP7CX6G21OU5MBQSHEZ5ZTUTWB7P","","null","<img src=""img/land1.png"" style=""width:200px;border:14px solid red;"">","null","","","","","","","","","",""
"","image-keyboard-response","351","117444","0.0-351.0","3R5F3LQFV36TJTFK4UJLLSOFJW7OZO","A1KIL2V6SMJBGX","3YKP7CX6G21OU5MBQSHEZ5ZTUTWB7P","","146","img/land5.png","75","149","2","1","1","2","0.8,0.2,0.2,0.2,0.8,0.2,0.2,0.2,0.8","0.2,0.8,0.2,0.2,0.2,0.8,0.8,0.2,0.2","3","",""
"","html-keyboard-response","352","117758","0.0-352.0","3R5F3LQFV36TJTFK4UJLLSOFJW7OZO","A1KIL2V6SMJBGX","3YKP7CX6G21OU5MBQSHEZ5ZTUTWB7P","","null","<img src=""img/land5.png"" style=""width:200px; border:14px solid green;"">","null","","","","","","","","","",""
"","image-keyboard-response","353","117790","0.0-353.0","3R5F3LQFV36TJTFK4UJLLSOFJW7OZO","A1KIL2V6SMJBGX","3YKP7CX6G21OU5MBQSHEZ5ZTUTWB7P","","26","img/land3.png","75","30","2","1","2","2","0.8,0.2,0.2,0.2,0.8,0.2,0.2,0.2,0.8","0.2,0.8,0.2,0.2,0.2,0.8,0.8,0.2,0.2","3","",""
"","html-keyboard-response","354","118113","0.0-354.0","3R5F3LQFV36TJTFK4UJLLSOFJW7OZO","A1KIL2V6SMJBGX","3YKP7CX6G21OU5MBQSHEZ5ZTUTWB7P","","null","<img src=""img/land3.png"" style=""width:200px; border:14px solid green;"">","null","","","","","","","","","",""
"","image-keyboard-response","355","118291","0.0-355.0","3R5F3LQFV36TJTFK4UJLLSOFJW7OZO","A1KIL2V6SMJBGX","3YKP7CX6G21OU5MBQSHEZ5ZTUTWB7P","","173","img/land5.png","75","178","2","1","1","2","0.8,0.2,0.2,0.2,0.8,0.2,0.2,0.2,0.8","0.2,0.8,0.2,0.2,0.2,0.8,0.8,0.2,0.2","3","",""
"","html-keyboard-response","356","118598","0.0-356.0","3R5F3LQFV36TJTFK4UJLLSOFJW7OZO","A1KIL2V6SMJBGX","3YKP7CX6G21OU5MBQSHEZ5ZTUTWB7P","","null","<img src=""img/land5.png"" style=""width:200px; border:14px solid green;"">","null","","","","","","","","","",""
"","image-keyboard-response","357","118757","0.0-357.0","3R5F3LQFV36TJTFK4UJLLSOFJW7OZO","A1KIL2V6SMJBGX","3YKP7CX6G21OU5MBQSHEZ5ZTUTWB7P","","155","img/land5.png","76","158","3","0","1","2","0.8,0.2,0.2,0.2,0.8,0.2,0.2,0.2,0.8","0.2,0.8,0.2,0.2,0.2,0.8,0.8,0.2,0.2","3","",""
"","html-keyboard-response","358","119084","0.0-358.0","3R5F3LQFV36TJTFK4UJLLSOFJW7OZO","A1KIL2V6SMJBGX","3YKP7CX6G21OU5MBQSHEZ5ZTUTWB7P","","null","<img src=""img/land5.png"" style=""width:200px;border:14px solid red;"">","null","","","","","","","","","",""
"","image-keyboard-response","359","119167","0.0-359.0","3R5F3LQFV36TJTFK4UJLLSOFJW7OZO","A1KIL2V6SMJBGX","3YKP7CX6G21OU5MBQSHEZ5ZTUTWB7P","","78","img/land5.png","76","82","3","1","1","2","0.8,0.2,0.2,0.2,0.8,0.2,0.2,0.2,0.8","0.2,0.8,0.2,0.2,0.2,0.8,0.8,0.2,0.2","3","",""
"","html-keyboard-response","360","119486","0.0-360.0","3R5F3LQFV36TJTFK4UJLLSOFJW7OZO","A1KIL2V6SMJBGX","3YKP7CX6G21OU5MBQSHEZ5ZTUTWB7P","","null","<img src=""img/land5.png"" style=""width:200px; border:14px solid green;"">","null","","","","","","","","","",""
"","image-keyboard-response","361","119593","0.0-361.0","3R5F3LQFV36TJTFK4UJLLSOFJW7OZO","A1KIL2V6SMJBGX","3YKP7CX6G21OU5MBQSHEZ5ZTUTWB7P","","102","img/land5.png","76","106","3","0","1","2","0.8,0.2,0.2,0.2,0.8,0.2,0.2,0.2,0.8","0.2,0.8,0.2,0.2,0.2,0.8,0.8,0.2,0.2","3","",""
"","html-keyboard-response","362","119902","0.0-362.0","3R5F3LQFV36TJTFK4UJLLSOFJW7OZO","A1KIL2V6SMJBGX","3YKP7CX6G21OU5MBQSHEZ5ZTUTWB7P","","null","<img src=""img/land5.png"" style=""width:200px;border:14px solid red;"">","null","","","","","","","","","",""
"","image-keyboard-response","363","119999","0.0-363.0","3R5F3LQFV36TJTFK4UJLLSOFJW7OZO","A1KIL2V6SMJBGX","3YKP7CX6G21OU5MBQSHEZ5ZTUTWB7P","","93","img/land5.png","76","96","3","1","1","2","0.8,0.2,0.2,0.2,0.8,0.2,0.2,0.2,0.8","0.2,0.8,0.2,0.2,0.2,0.8,0.8,0.2,0.2","3","",""
"","html-keyboard-response","364","120318","0.0-364.0","3R5F3LQFV36TJTFK4UJLLSOFJW7OZO","A1KIL2V6SMJBGX","3YKP7CX6G21OU5MBQSHEZ5ZTUTWB7P","","null","<img src=""img/land5.png"" style=""width:200px; border:14px solid green;"">","null","","","","","","","","","",""
"","image-keyboard-response","365","120422","0.0-365.0","3R5F3LQFV36TJTFK4UJLLSOFJW7OZO","A1KIL2V6SMJBGX","3YKP7CX6G21OU5MBQSHEZ5ZTUTWB7P","","103","img/land5.png","76","104","3","0","1","2","0.8,0.2,0.2,0.2,0.8,0.2,0.2,0.2,0.8","0.2,0.8,0.2,0.2,0.2,0.8,0.8,0.2,0.2","3","",""
"","html-keyboard-response","366","120736","0.0-366.0","3R5F3LQFV36TJTFK4UJLLSOFJW7OZO","A1KIL2V6SMJBGX","3YKP7CX6G21OU5MBQSHEZ5ZTUTWB7P","","null","<img src=""img/land5.png"" style=""width:200px;border:14px solid red;"">","null","","","","","","","","","",""
"","image-keyboard-response","367","120780","0.0-367.0","3R5F3LQFV36TJTFK4UJLLSOFJW7OZO","A1KIL2V6SMJBGX","3YKP7CX6G21OU5MBQSHEZ5ZTUTWB7P","","41","img/land5.png","76","43","3","0","1","2","0.8,0.2,0.2,0.2,0.8,0.2,0.2,0.2,0.8","0.2,0.8,0.2,0.2,0.2,0.8,0.8,0.2,0.2","3","",""
"","html-keyboard-response","368","121090","0.0-368.0","3R5F3LQFV36TJTFK4UJLLSOFJW7OZO","A1KIL2V6SMJBGX","3YKP7CX6G21OU5MBQSHEZ5ZTUTWB7P","","null","<img src=""img/land5.png"" style=""width:200px;border:14px solid red;"">","null","","","","","","","","","",""
"","image-keyboard-response","369","121223","0.0-369.0","3R5F3LQFV36TJTFK4UJLLSOFJW7OZO","A1KIL2V6SMJBGX","3YKP7CX6G21OU5MBQSHEZ5ZTUTWB7P","","129","img/land1.png","76","133","3","0","3","2","0.8,0.2,0.2,0.2,0.8,0.2,0.2,0.2,0.8","0.2,0.8,0.2,0.2,0.2,0.8,0.8,0.2,0.2","3","",""
"","html-keyboard-response","370","121538","0.0-370.0","3R5F3LQFV36TJTFK4UJLLSOFJW7OZO","A1KIL2V6SMJBGX","3YKP7CX6G21OU5MBQSHEZ5ZTUTWB7P","","null","<img src=""img/land1.png"" style=""width:200px;border:14px solid red;"">","null","","","","","","","","","",""
"","image-keyboard-response","371","121703","0.0-371.0","3R5F3LQFV36TJTFK4UJLLSOFJW7OZO","A1KIL2V6SMJBGX","3YKP7CX6G21OU5MBQSHEZ5ZTUTWB7P","","162","img/land3.png","74","165","1","0","2","2","0.8,0.2,0.2,0.2,0.8,0.2,0.2,0.2,0.8","0.2,0.8,0.2,0.2,0.2,0.8,0.8,0.2,0.2","3","",""
