"success","trial_type","trial_index","time_elapsed","internal_node_id","assignmentID","mturkID","hitID","view_history","rt","stimulus","key_press","reactionTime","a","r","s","cond","reward_cond","reward_cond_actual","reward_matrix_idx","responses","question_order"
"true","fullscreen","0","2877","0.0-0.0","3NS0A6KXC5U5RGYMGB6DGJFDRWSGZC","A1KZ97QBNRPVCT","32TMVRKDGNK89K6LLIZX5RPIVK148D","","","","","","","","","","","","","",""
"","instructions","1","24506","0.0-1.0","3NS0A6KXC5U5RGYMGB6DGJFDRWSGZC","A1KZ97QBNRPVCT","32TMVRKDGNK89K6LLIZX5RPIVK148D","[{""page_index"":0,""viewing_time"":1918.5},{""page_index"":1,""viewing_time"":2748.800000190735},{""page_index"":2,""viewing_time"":1680},{""page_index"":3,""viewing_time"":10249.699999809265},{""page_index"":4,""viewing_time"":1589.8000001907349},{""page_index"":5,""viewing_time"":1320.1999998092651},{""page_index"":6,""viewing_time"":2119.800000190735}]","21627.300000190735","","","","","","","","","","","",""
"","image-keyboard-response","2","26013","0.0-2.0","3NS0A6KXC5U5RGYMGB6DGJFDRWSGZC","A1KZ97QBNRPVCT","32TMVRKDGNK89K6LLIZX5RPIVK148D","","","img/land2.png","","1506.5999994277954","-1","0","2","1","1,0.5,0.5,0.5,1,0.5,0.5,0.5,1","1,0.5,0.5,0.5,1,0.5,0.5,0.5,1","","",""
"","html-keyboard-response","3","26316","0.0-3.0","3NS0A6KXC5U5RGYMGB6DGJFDRWSGZC","A1KZ97QBNRPVCT","32TMVRKDGNK89K6LLIZX5RPIVK148D","","null","<img src=""img/land2.png"" style=""width:200px;border:14px solid red;"">","null","","","","","","","","","",""
"","image-keyboard-response","4","26486","0.0-4.0","3NS0A6KXC5U5RGYMGB6DGJFDRWSGZC","A1KZ97QBNRPVCT","32TMVRKDGNK89K6LLIZX5RPIVK148D","","167.60000038146973","img/land3.png","76","169","3","1","3","1","1,0.5,0.5,0.5,1,0.5,0.5,0.5,1","1,0.5,0.5,0.5,1,0.5,0.5,0.5,1","","",""
"","html-keyboard-response","5","26789","0.0-5.0","3NS0A6KXC5U5RGYMGB6DGJFDRWSGZC","A1KZ97QBNRPVCT","32TMVRKDGNK89K6LLIZX5RPIVK148D","","null","<img src=""img/land3.png"" style=""width:200px; border:14px solid green;"">","null","","","","","","","","","",""
"","image-keyboard-response","6","26904","0.0-6.0","3NS0A6KXC5U5RGYMGB6DGJFDRWSGZC","A1KZ97QBNRPVCT","32TMVRKDGNK89K6LLIZX5RPIVK148D","","113.39999961853027","img/land1.png","74","114.5","1","1","1","1","1,0.5,0.5,0.5,1,0.5,0.5,0.5,1","1,0.5,0.5,0.5,1,0.5,0.5,0.5,1","","",""
"","html-keyboard-response","7","27212","0.0-7.0","3NS0A6KXC5U5RGYMGB6DGJFDRWSGZC","A1KZ97QBNRPVCT","32TMVRKDGNK89K6LLIZX5RPIVK148D","","null","<img src=""img/land1.png"" style=""width:200px; border:14px solid green;"">","null","","","","","","","","","",""
"","image-keyboard-response","8","27355","0.0-8.0","3NS0A6KXC5U5RGYMGB6DGJFDRWSGZC","A1KZ97QBNRPVCT","32TMVRKDGNK89K6LLIZX5RPIVK148D","","141.60000038146973","img/land1.png","75","143","2","1","1","1","1,0.5,0.5,0.5,1,0.5,0.5,0.5,1","1,0.5,0.5,0.5,1,0.5,0.5,0.5,1","","",""
"","html-keyboard-response","9","27660","0.0-9.0","3NS0A6KXC5U5RGYMGB6DGJFDRWSGZC","A1KZ97QBNRPVCT","32TMVRKDGNK89K6LLIZX5RPIVK148D","","null","<img src=""img/land1.png"" style=""width:200px; border:14px solid green;"">","null","","","","","","","","","",""
"","image-keyboard-response","10","27665","0.0-10.0","3NS0A6KXC5U5RGYMGB6DGJFDRWSGZC","A1KZ97QBNRPVCT","32TMVRKDGNK89K6LLIZX5RPIVK148D","","3","img/land1.png","76","4","3","0","1","1","1,0.5,0.5,0.5,1,0.5,0.5,0.5,1","1,0.5,0.5,0.5,1,0.5,0.5,0.5,1","","",""
"","html-keyboard-response","11","27973","0.0-11.0","3NS0A6KXC5U5RGYMGB6DGJFDRWSGZC","A1KZ97QBNRPVCT","32TMVRKDGNK89K6LLIZX5RPIVK148D","","null","<img src=""img/land1.png"" style=""width:200px;border:14px solid red;"">","null","","","","","","","","","",""
"","image-keyboard-response","12","28025","0.0-12.0","3NS0A6KXC5U5RGYMGB6DGJFDRWSGZC","A1KZ97QBNRPVCT","32TMVRKDGNK89K6LLIZX5RPIVK148D","","50.19999980926514","img/land2.png","76","51.5","3","1","2","1","1,0.5,0.5,0.5,1,0.5,0.5,0.5,1","1,0.5,0.5,0.5,1,0.5,0.5,0.5,1","","",""
"","html-keyboard-response","13","28332","0.0-13.0","3NS0A6KXC5U5RGYMGB6DGJFDRWSGZC","A1KZ97QBNRPVCT","32TMVRKDGNK89K6LLIZX5RPIVK148D","","null","<img src=""img/land2.png"" style=""width:200px; border:14px solid green;"">","null","","","","","","","","","",""
"","image-keyboard-response","14","28335","0.0-14.0","3NS0A6KXC5U5RGYMGB6DGJFDRWSGZC","A1KZ97QBNRPVCT","32TMVRKDGNK89K6LLIZX5RPIVK148D","","1.5","img/land2.png","76","2.5","3","0","2","1","1,0.5,0.5,0.5,1,0.5,0.5,0.5,1","1,0.5,0.5,0.5,1,0.5,0.5,0.5,1","","",""
"","html-keyboard-response","15","28636","0.0-15.0","3NS0A6KXC5U5RGYMGB6DGJFDRWSGZC","A1KZ97QBNRPVCT","32TMVRKDGNK89K6LLIZX5RPIVK148D","","null","<img src=""img/land2.png"" style=""width:200px;border:14px solid red;"">","null","","","","","","","","","",""
"","image-keyboard-response","16","28680","0.0-16.0","3NS0A6KXC5U5RGYMGB6DGJFDRWSGZC","A1KZ97QBNRPVCT","32TMVRKDGNK89K6LLIZX5RPIVK148D","","42.5","img/land1.png","75","43.5","2","0","1","1","1,0.5,0.5,0.5,1,0.5,0.5,0.5,1","1,0.5,0.5,0.5,1,0.5,0.5,0.5,1","","",""
"","html-keyboard-response","17","28985","0.0-17.0","3NS0A6KXC5U5RGYMGB6DGJFDRWSGZC","A1KZ97QBNRPVCT","32TMVRKDGNK89K6LLIZX5RPIVK148D","","null","<img src=""img/land1.png"" style=""width:200px;border:14px solid red;"">","null","","","","","","","","","",""
"","image-keyboard-response","18","29075","0.0-18.0","3NS0A6KXC5U5RGYMGB6DGJFDRWSGZC","A1KZ97QBNRPVCT","32TMVRKDGNK89K6LLIZX5RPIVK148D","","89","img/land2.png","74","90","1","1","2","1","1,0.5,0.5,0.5,1,0.5,0.5,0.5,1","1,0.5,0.5,0.5,1,0.5,0.5,0.5,1","","",""
"","html-keyboard-response","19","29382","0.0-19.0","3NS0A6KXC5U5RGYMGB6DGJFDRWSGZC","A1KZ97QBNRPVCT","32TMVRKDGNK89K6LLIZX5RPIVK148D","","null","<img src=""img/land2.png"" style=""width:200px; border:14px solid green;"">","null","","","","","","","","","",""
"","image-keyboard-response","20","29495","0.0-20.0","3NS0A6KXC5U5RGYMGB6DGJFDRWSGZC","A1KZ97QBNRPVCT","32TMVRKDGNK89K6LLIZX5RPIVK148D","","112.30000019073486","img/land2.png","76","113.39999961853027","3","0","2","1","1,0.5,0.5,0.5,1,0.5,0.5,0.5,1","1,0.5,0.5,0.5,1,0.5,0.5,0.5,1","","",""
"","html-keyboard-response","21","29805","0.0-21.0","3NS0A6KXC5U5RGYMGB6DGJFDRWSGZC","A1KZ97QBNRPVCT","32TMVRKDGNK89K6LLIZX5RPIVK148D","","null","<img src=""img/land2.png"" style=""width:200px;border:14px solid red;"">","null","","","","","","","","","",""
"","image-keyboard-response","22","29895","0.0-22.0","3NS0A6KXC5U5RGYMGB6DGJFDRWSGZC","A1KZ97QBNRPVCT","32TMVRKDGNK89K6LLIZX5RPIVK148D","","88.80000019073486","img/land1.png","75","89.69999980926514","2","1","1","1","1,0.5,0.5,0.5,1,0.5,0.5,0.5,1","1,0.5,0.5,0.5,1,0.5,0.5,0.5,1","","",""
"","html-keyboard-response","23","30204","0.0-23.0","3NS0A6KXC5U5RGYMGB6DGJFDRWSGZC","A1KZ97QBNRPVCT","32TMVRKDGNK89K6LLIZX5RPIVK148D","","null","<img src=""img/land1.png"" style=""width:200px; border:14px solid green;"">","null","","","","","","","","","",""
"","image-keyboard-response","24","30215","0.0-24.0","3NS0A6KXC5U5RGYMGB6DGJFDRWSGZC","A1KZ97QBNRPVCT","32TMVRKDGNK89K6LLIZX5RPIVK148D","","9.399999618530273","img/land1.png","74","10.199999809265137","1","1","1","1","1,0.5,0.5,0.5,1,0.5,0.5,0.5,1","1,0.5,0.5,0.5,1,0.5,0.5,0.5,1","","",""
"","html-keyboard-response","25","30517","0.0-25.0","3NS0A6KXC5U5RGYMGB6DGJFDRWSGZC","A1KZ97QBNRPVCT","32TMVRKDGNK89K6LLIZX5RPIVK148D","","null","<img src=""img/land1.png"" style=""width:200px; border:14px solid green;"">","null","","","","","","","","","",""
"","image-keyboard-response","26","30635","0.0-26.0","3NS0A6KXC5U5RGYMGB6DGJFDRWSGZC","A1KZ97QBNRPVCT","32TMVRKDGNK89K6LLIZX5RPIVK148D","","116.19999980926514","img/land1.png","76","117.30000019073486","3","0","1","1","1,0.5,0.5,0.5,1,0.5,0.5,0.5,1","1,0.5,0.5,0.5,1,0.5,0.5,0.5,1","","",""
"","html-keyboard-response","27","30940","0.0-27.0","3NS0A6KXC5U5RGYMGB6DGJFDRWSGZC","A1KZ97QBNRPVCT","32TMVRKDGNK89K6LLIZX5RPIVK148D","","null","<img src=""img/land1.png"" style=""width:200px;border:14px solid red;"">","null","","","","","","","","","",""
"","image-keyboard-response","28","31105","0.0-28.0","3NS0A6KXC5U5RGYMGB6DGJFDRWSGZC","A1KZ97QBNRPVCT","32TMVRKDGNK89K6LLIZX5RPIVK148D","","163.89999961853027","img/land2.png","76","164.89999961853027","3","1","2","1","1,0.5,0.5,0.5,1,0.5,0.5,0.5,1","1,0.5,0.5,0.5,1,0.5,0.5,0.5,1","","",""
"","html-keyboard-response","29","31413","0.0-29.0","3NS0A6KXC5U5RGYMGB6DGJFDRWSGZC","A1KZ97QBNRPVCT","32TMVRKDGNK89K6LLIZX5RPIVK148D","","null","<img src=""img/land2.png"" style=""width:200px; border:14px solid green;"">","null","","","","","","","","","",""
"","image-keyboard-response","30","31435","0.0-30.0","3NS0A6KXC5U5RGYMGB6DGJFDRWSGZC","A1KZ97QBNRPVCT","32TMVRKDGNK89K6LLIZX5RPIVK148D","","20.300000190734863","img/land2.png","74","21.399999618530273","1","0","2","1","1,0.5,0.5,0.5,1,0.5,0.5,0.5,1","1,0.5,0.5,0.5,1,0.5,0.5,0.5,1","","",""
"","html-keyboard-response","31","31741","0.0-31.0","3NS0A6KXC5U5RGYMGB6DGJFDRWSGZC","A1KZ97QBNRPVCT","32TMVRKDGNK89K6LLIZX5RPIVK148D","","null","<img src=""img/land2.png"" style=""width:200px;border:14px solid red;"">","null","","","","","","","","","",""
"","image-keyboard-response","32","31925","0.0-32.0","3NS0A6KXC5U5RGYMGB6DGJFDRWSGZC","A1KZ97QBNRPVCT","32TMVRKDGNK89K6LLIZX5RPIVK148D","","182.20000076293945","img/land1.png","74","183.19999980926514","1","1","1","1","1,0.5,0.5,0.5,1,0.5,0.5,0.5,1","1,0.5,0.5,0.5,1,0.5,0.5,0.5,1","","",""
"","html-keyboard-response","33","32229","0.0-33.0","3NS0A6KXC5U5RGYMGB6DGJFDRWSGZC","A1KZ97QBNRPVCT","32TMVRKDGNK89K6LLIZX5RPIVK148D","","null","<img src=""img/land1.png"" style=""width:200px; border:14px solid green;"">","null","","","","","","","","","",""
"","image-keyboard-response","34","32385","0.0-34.0","3NS0A6KXC5U5RGYMGB6DGJFDRWSGZC","A1KZ97QBNRPVCT","32TMVRKDGNK89K6LLIZX5RPIVK148D","","154.5","img/land2.png","75","155.60000038146973","2","1","2","1","1,0.5,0.5,0.5,1,0.5,0.5,0.5,1","1,0.5,0.5,0.5,1,0.5,0.5,0.5,1","","",""
"","html-keyboard-response","35","32693","0.0-35.0","3NS0A6KXC5U5RGYMGB6DGJFDRWSGZC","A1KZ97QBNRPVCT","32TMVRKDGNK89K6LLIZX5RPIVK148D","","null","<img src=""img/land2.png"" style=""width:200px; border:14px solid green;"">","null","","","","","","","","","",""
"","image-keyboard-response","36","32745","0.0-36.0","3NS0A6KXC5U5RGYMGB6DGJFDRWSGZC","A1KZ97QBNRPVCT","32TMVRKDGNK89K6LLIZX5RPIVK148D","","50.59999942779541","img/land1.png","76","51.79999923706055","3","1","1","1","1,0.5,0.5,0.5,1,0.5,0.5,0.5,1","1,0.5,0.5,0.5,1,0.5,0.5,0.5,1","","",""
"","html-keyboard-response","37","33053","0.0-37.0","3NS0A6KXC5U5RGYMGB6DGJFDRWSGZC","A1KZ97QBNRPVCT","32TMVRKDGNK89K6LLIZX5RPIVK148D","","null","<img src=""img/land1.png"" style=""width:200px; border:14px solid green;"">","null","","","","","","","","","",""
"","image-keyboard-response","38","33104","0.0-38.0","3NS0A6KXC5U5RGYMGB6DGJFDRWSGZC","A1KZ97QBNRPVCT","32TMVRKDGNK89K6LLIZX5RPIVK148D","","50.09999942779541","img/land3.png","76","51","3","1","3","1","1,0.5,0.5,0.5,1,0.5,0.5,0.5,1","1,0.5,0.5,0.5,1,0.5,0.5,0.5,1","","",""
"","html-keyboard-response","39","33412","0.0-39.0","3NS0A6KXC5U5RGYMGB6DGJFDRWSGZC","A1KZ97QBNRPVCT","32TMVRKDGNK89K6LLIZX5RPIVK148D","","null","<img src=""img/land3.png"" style=""width:200px; border:14px solid green;"">","null","","","","","","","","","",""
"","image-keyboard-response","40","33575","0.0-40.0","3NS0A6KXC5U5RGYMGB6DGJFDRWSGZC","A1KZ97QBNRPVCT","32TMVRKDGNK89K6LLIZX5RPIVK148D","","159.89999961853027","img/land3.png","74","162.69999980926514","1","0","3","1","1,0.5,0.5,0.5,1,0.5,0.5,0.5,1","1,0.5,0.5,0.5,1,0.5,0.5,0.5,1","","",""
"","html-keyboard-response","41","33884","0.0-41.0","3NS0A6KXC5U5RGYMGB6DGJFDRWSGZC","A1KZ97QBNRPVCT","32TMVRKDGNK89K6LLIZX5RPIVK148D","","null","<img src=""img/land3.png"" style=""width:200px;border:14px solid red;"">","null","","","","","","","","","",""
"","image-keyboard-response","42","34015","0.0-42.0","3NS0A6KXC5U5RGYMGB6DGJFDRWSGZC","A1KZ97QBNRPVCT","32TMVRKDGNK89K6LLIZX5RPIVK148D","","129.30000019073486","img/land1.png","76","130.19999980926514","3","1","1","1","1,0.5,0.5,0.5,1,0.5,0.5,0.5,1","1,0.5,0.5,0.5,1,0.5,0.5,0.5,1","","",""
"","html-keyboard-response","43","34317","0.0-43.0","3NS0A6KXC5U5RGYMGB6DGJFDRWSGZC","A1KZ97QBNRPVCT","32TMVRKDGNK89K6LLIZX5RPIVK148D","","null","<img src=""img/land1.png"" style=""width:200px; border:14px solid green;"">","null","","","","","","","","","",""
"","image-keyboard-response","44","34345","0.0-44.0","3NS0A6KXC5U5RGYMGB6DGJFDRWSGZC","A1KZ97QBNRPVCT","32TMVRKDGNK89K6LLIZX5RPIVK148D","","26.300000190734863","img/land1.png","76","27.199999809265137","3","0","1","1","1,0.5,0.5,0.5,1,0.5,0.5,0.5,1","1,0.5,0.5,0.5,1,0.5,0.5,0.5,1","","",""
"","html-keyboard-response","45","34652","0.0-45.0","3NS0A6KXC5U5RGYMGB6DGJFDRWSGZC","A1KZ97QBNRPVCT","32TMVRKDGNK89K6LLIZX5RPIVK148D","","null","<img src=""img/land1.png"" style=""width:200px;border:14px solid red;"">","null","","","","","","","","","",""
"","image-keyboard-response","46","34755","0.0-46.0","3NS0A6KXC5U5RGYMGB6DGJFDRWSGZC","A1KZ97QBNRPVCT","32TMVRKDGNK89K6LLIZX5RPIVK148D","","101.30000019073486","img/land1.png","75","102.39999961853027","2","0","1","1","1,0.5,0.5,0.5,1,0.5,0.5,0.5,1","1,0.5,0.5,0.5,1,0.5,0.5,0.5,1","","",""
"","html-keyboard-response","47","35061","0.0-47.0","3NS0A6KXC5U5RGYMGB6DGJFDRWSGZC","A1KZ97QBNRPVCT","32TMVRKDGNK89K6LLIZX5RPIVK148D","","null","<img src=""img/land1.png"" style=""width:200px;border:14px solid red;"">","null","","","","","","","","","",""
"","image-keyboard-response","48","35145","0.0-48.0","3NS0A6KXC5U5RGYMGB6DGJFDRWSGZC","A1KZ97QBNRPVCT","32TMVRKDGNK89K6LLIZX5RPIVK148D","","82.30000019073486","img/land2.png","76","83.39999961853027","3","0","2","1","1,0.5,0.5,0.5,1,0.5,0.5,0.5,1","1,0.5,0.5,0.5,1,0.5,0.5,0.5,1","","",""
"","html-keyboard-response","49","35453","0.0-49.0","3NS0A6KXC5U5RGYMGB6DGJFDRWSGZC","A1KZ97QBNRPVCT","32TMVRKDGNK89K6LLIZX5RPIVK148D","","null","<img src=""img/land2.png"" style=""width:200px;border:14px solid red;"">","null","","","","","","","","","",""
"","image-keyboard-response","50","35465","0.0-50.0","3NS0A6KXC5U5RGYMGB6DGJFDRWSGZC","A1KZ97QBNRPVCT","32TMVRKDGNK89K6LLIZX5RPIVK148D","","10.100000381469727","img/land2.png","76","11.199999809265137","3","0","2","1","1,0.5,0.5,0.5,1,0.5,0.5,0.5,1","1,0.5,0.5,0.5,1,0.5,0.5,0.5,1","","",""
"","html-keyboard-response","51","35772","0.0-51.0","3NS0A6KXC5U5RGYMGB6DGJFDRWSGZC","A1KZ97QBNRPVCT","32TMVRKDGNK89K6LLIZX5RPIVK148D","","null","<img src=""img/land2.png"" style=""width:200px;border:14px solid red;"">","null","","","","","","","","","",""
"","image-keyboard-response","52","35775","0.0-52.0","3NS0A6KXC5U5RGYMGB6DGJFDRWSGZC","A1KZ97QBNRPVCT","32TMVRKDGNK89K6LLIZX5RPIVK148D","","1.3000001907348633","img/land3.png","76","2.3000001907348633","3","1","3","1","1,0.5,0.5,0.5,1,0.5,0.5,0.5,1","1,0.5,0.5,0.5,1,0.5,0.5,0.5,1","","",""
"","html-keyboard-response","53","36077","0.0-53.0","3NS0A6KXC5U5RGYMGB6DGJFDRWSGZC","A1KZ97QBNRPVCT","32TMVRKDGNK89K6LLIZX5RPIVK148D","","null","<img src=""img/land3.png"" style=""width:200px; border:14px solid green;"">","null","","","","","","","","","",""
"","image-keyboard-response","54","36265","0.0-54.0","3NS0A6KXC5U5RGYMGB6DGJFDRWSGZC","A1KZ97QBNRPVCT","32TMVRKDGNK89K6LLIZX5RPIVK148D","","186.30000019073486","img/land1.png","74","187.29999923706055","1","1","1","1","1,0.5,0.5,0.5,1,0.5,0.5,0.5,1","1,0.5,0.5,0.5,1,0.5,0.5,0.5,1","","",""
"","html-keyboard-response","55","36572","0.0-55.0","3NS0A6KXC5U5RGYMGB6DGJFDRWSGZC","A1KZ97QBNRPVCT","32TMVRKDGNK89K6LLIZX5RPIVK148D","","null","<img src=""img/land1.png"" style=""width:200px; border:14px solid green;"">","null","","","","","","","","","",""
"","image-keyboard-response","56","36665","0.0-56.0","3NS0A6KXC5U5RGYMGB6DGJFDRWSGZC","A1KZ97QBNRPVCT","32TMVRKDGNK89K6LLIZX5RPIVK148D","","91.19999980926514","img/land3.png","76","92.30000019073486","3","1","3","1","1,0.5,0.5,0.5,1,0.5,0.5,0.5,1","1,0.5,0.5,0.5,1,0.5,0.5,0.5,1","","",""
"","html-keyboard-response","57","36972","0.0-57.0","3NS0A6KXC5U5RGYMGB6DGJFDRWSGZC","A1KZ97QBNRPVCT","32TMVRKDGNK89K6LLIZX5RPIVK148D","","null","<img src=""img/land3.png"" style=""width:200px; border:14px solid green;"">","null","","","","","","","","","",""
"","image-keyboard-response","58","37315","0.0-58.0","3NS0A6KXC5U5RGYMGB6DGJFDRWSGZC","A1KZ97QBNRPVCT","32TMVRKDGNK89K6LLIZX5RPIVK148D","","341.5","img/land2.png","75","342.6000003814697","2","1","2","1","1,0.5,0.5,0.5,1,0.5,0.5,0.5,1","1,0.5,0.5,0.5,1,0.5,0.5,0.5,1","","",""
"","html-keyboard-response","59","37620","0.0-59.0","3NS0A6KXC5U5RGYMGB6DGJFDRWSGZC","A1KZ97QBNRPVCT","32TMVRKDGNK89K6LLIZX5RPIVK148D","","null","<img src=""img/land2.png"" style=""width:200px; border:14px solid green;"">","null","","","","","","","","","",""
"","image-keyboard-response","60","37765","0.0-60.0","3NS0A6KXC5U5RGYMGB6DGJFDRWSGZC","A1KZ97QBNRPVCT","32TMVRKDGNK89K6LLIZX5RPIVK148D","","143.5999994277954","img/land3.png","75","144.5999994277954","2","0","3","1","1,0.5,0.5,0.5,1,0.5,0.5,0.5,1","1,0.5,0.5,0.5,1,0.5,0.5,0.5,1","","",""
"","html-keyboard-response","61","38069","0.0-61.0","3NS0A6KXC5U5RGYMGB6DGJFDRWSGZC","A1KZ97QBNRPVCT","32TMVRKDGNK89K6LLIZX5RPIVK148D","","null","<img src=""img/land3.png"" style=""width:200px;border:14px solid red;"">","null","","","","","","","","","",""
"","image-keyboard-response","62","38225","0.0-62.0","3NS0A6KXC5U5RGYMGB6DGJFDRWSGZC","A1KZ97QBNRPVCT","32TMVRKDGNK89K6LLIZX5RPIVK148D","","154.20000076293945","img/land2.png","75","155.19999980926514","2","1","2","1","1,0.5,0.5,0.5,1,0.5,0.5,0.5,1","1,0.5,0.5,0.5,1,0.5,0.5,0.5,1","","",""
"","html-keyboard-response","63","38532","0.0-63.0","3NS0A6KXC5U5RGYMGB6DGJFDRWSGZC","A1KZ97QBNRPVCT","32TMVRKDGNK89K6LLIZX5RPIVK148D","","null","<img src=""img/land2.png"" style=""width:200px; border:14px solid green;"">","null","","","","","","","","","",""
"","image-keyboard-response","64","38596","0.0-64.0","3NS0A6KXC5U5RGYMGB6DGJFDRWSGZC","A1KZ97QBNRPVCT","32TMVRKDGNK89K6LLIZX5RPIVK148D","","62.09999942779541","img/land3.png","74","63.10000038146973","1","0","3","1","1,0.5,0.5,0.5,1,0.5,0.5,0.5,1","1,0.5,0.5,0.5,1,0.5,0.5,0.5,1","","",""
"","html-keyboard-response","65","38902","0.0-65.0","3NS0A6KXC5U5RGYMGB6DGJFDRWSGZC","A1KZ97QBNRPVCT","32TMVRKDGNK89K6LLIZX5RPIVK148D","","null","<img src=""img/land3.png"" style=""width:200px;border:14px solid red;"">","null","","","","","","","","","",""
"","image-keyboard-response","66","39065","0.0-66.0","3NS0A6KXC5U5RGYMGB6DGJFDRWSGZC","A1KZ97QBNRPVCT","32TMVRKDGNK89K6LLIZX5RPIVK148D","","161.29999923706055","img/land2.png","76","162.39999961853027","3","0","2","1","1,0.5,0.5,0.5,1,0.5,0.5,0.5,1","1,0.5,0.5,0.5,1,0.5,0.5,0.5,1","","",""
"","html-keyboard-response","67","39373","0.0-67.0","3NS0A6KXC5U5RGYMGB6DGJFDRWSGZC","A1KZ97QBNRPVCT","32TMVRKDGNK89K6LLIZX5RPIVK148D","","null","<img src=""img/land2.png"" style=""width:200px;border:14px solid red;"">","null","","","","","","","","","",""
"","image-keyboard-response","68","39385","0.0-68.0","3NS0A6KXC5U5RGYMGB6DGJFDRWSGZC","A1KZ97QBNRPVCT","32TMVRKDGNK89K6LLIZX5RPIVK148D","","11.100000381469727","img/land3.png","75","12.199999809265137","2","1","3","1","1,0.5,0.5,0.5,1,0.5,0.5,0.5,1","1,0.5,0.5,0.5,1,0.5,0.5,0.5,1","","",""
"","html-keyboard-response","69","39694","0.0-69.0","3NS0A6KXC5U5RGYMGB6DGJFDRWSGZC","A1KZ97QBNRPVCT","32TMVRKDGNK89K6LLIZX5RPIVK148D","","null","<img src=""img/land3.png"" style=""width:200px; border:14px solid green;"">","null","","","","","","","","","",""
"","image-keyboard-response","70","39845","0.0-70.0","3NS0A6KXC5U5RGYMGB6DGJFDRWSGZC","A1KZ97QBNRPVCT","32TMVRKDGNK89K6LLIZX5RPIVK148D","","150.39999961853027","img/land3.png","75","151.5","2","1","3","1","1,0.5,0.5,0.5,1,0.5,0.5,0.5,1","1,0.5,0.5,0.5,1,0.5,0.5,0.5,1","","",""
"","html-keyboard-response","71","40150","0.0-71.0","3NS0A6KXC5U5RGYMGB6DGJFDRWSGZC","A1KZ97QBNRPVCT","32TMVRKDGNK89K6LLIZX5RPIVK148D","","null","<img src=""img/land3.png"" style=""width:200px; border:14px solid green;"">","null","","","","","","","","","",""
"","image-keyboard-response","72","40155","0.0-72.0","3NS0A6KXC5U5RGYMGB6DGJFDRWSGZC","A1KZ97QBNRPVCT","32TMVRKDGNK89K6LLIZX5RPIVK148D","","4.199999809265137","img/land1.png","75","5","2","0","1","1","1,0.5,0.5,0.5,1,0.5,0.5,0.5,1","1,0.5,0.5,0.5,1,0.5,0.5,0.5,1","","",""
"","html-keyboard-response","73","40461","0.0-73.0","3NS0A6KXC5U5RGYMGB6DGJFDRWSGZC","A1KZ97QBNRPVCT","32TMVRKDGNK89K6LLIZX5RPIVK148D","","null","<img src=""img/land1.png"" style=""width:200px;border:14px solid red;"">","null","","","","","","","","","",""
"","image-keyboard-response","74","40566","0.0-74.0","3NS0A6KXC5U5RGYMGB6DGJFDRWSGZC","A1KZ97QBNRPVCT","32TMVRKDGNK89K6LLIZX5RPIVK148D","","103.5","img/land1.png","75","104.59999942779541","2","1","1","1","1,0.5,0.5,0.5,1,0.5,0.5,0.5,1","1,0.5,0.5,0.5,1,0.5,0.5,0.5,1","","",""
"","html-keyboard-response","75","40870","0.0-75.0","3NS0A6KXC5U5RGYMGB6DGJFDRWSGZC","A1KZ97QBNRPVCT","32TMVRKDGNK89K6LLIZX5RPIVK148D","","null","<img src=""img/land1.png"" style=""width:200px; border:14px solid green;"">","null","","","","","","","","","",""
"","image-keyboard-response","76","40935","0.0-76.0","3NS0A6KXC5U5RGYMGB6DGJFDRWSGZC","A1KZ97QBNRPVCT","32TMVRKDGNK89K6LLIZX5RPIVK148D","","64.30000019073486","img/land2.png","76","65.29999923706055","3","0","2","1","1,0.5,0.5,0.5,1,0.5,0.5,0.5,1","1,0.5,0.5,0.5,1,0.5,0.5,0.5,1","","",""
"","html-keyboard-response","77","41237","0.0-77.0","3NS0A6KXC5U5RGYMGB6DGJFDRWSGZC","A1KZ97QBNRPVCT","32TMVRKDGNK89K6LLIZX5RPIVK148D","","null","<img src=""img/land2.png"" style=""width:200px;border:14px solid red;"">","null","","","","","","","","","",""
"","image-keyboard-response","78","41345","0.0-78.0","3NS0A6KXC5U5RGYMGB6DGJFDRWSGZC","A1KZ97QBNRPVCT","32TMVRKDGNK89K6LLIZX5RPIVK148D","","107.30000019073486","img/land1.png","74","108.30000019073486","1","1","1","1","1,0.5,0.5,0.5,1,0.5,0.5,0.5,1","1,0.5,0.5,0.5,1,0.5,0.5,0.5,1","","",""
"","html-keyboard-response","79","41654","0.0-79.0","3NS0A6KXC5U5RGYMGB6DGJFDRWSGZC","A1KZ97QBNRPVCT","32TMVRKDGNK89K6LLIZX5RPIVK148D","","null","<img src=""img/land1.png"" style=""width:200px; border:14px solid green;"">","null","","","","","","","","","",""
"","image-keyboard-response","80","41711","0.0-80.0","3NS0A6KXC5U5RGYMGB6DGJFDRWSGZC","A1KZ97QBNRPVCT","32TMVRKDGNK89K6LLIZX5RPIVK148D","","55.90000057220459","img/land2.png","76","57","3","0","2","1","1,0.5,0.5,0.5,1,0.5,0.5,0.5,1","1,0.5,0.5,0.5,1,0.5,0.5,0.5,1","","",""
"","html-keyboard-response","81","42198","0.0-81.0","3NS0A6KXC5U5RGYMGB6DGJFDRWSGZC","A1KZ97QBNRPVCT","32TMVRKDGNK89K6LLIZX5RPIVK148D","","null","<img src=""img/land2.png"" style=""width:200px;border:14px solid red;"">","null","","","","","","","","","",""
"","image-keyboard-response","82","42392","0.0-82.0","3NS0A6KXC5U5RGYMGB6DGJFDRWSGZC","A1KZ97QBNRPVCT","32TMVRKDGNK89K6LLIZX5RPIVK148D","","193","img/land1.png","74","193.89999961853027","1","1","1","1","1,0.5,0.5,0.5,1,0.5,0.5,0.5,1","1,0.5,0.5,0.5,1,0.5,0.5,0.5,1","","",""
"","html-keyboard-response","83","42711","0.0-83.0","3NS0A6KXC5U5RGYMGB6DGJFDRWSGZC","A1KZ97QBNRPVCT","32TMVRKDGNK89K6LLIZX5RPIVK148D","","null","<img src=""img/land1.png"" style=""width:200px; border:14px solid green;"">","null","","","","","","","","","",""
"","image-keyboard-response","84","42788","0.0-84.0","3NS0A6KXC5U5RGYMGB6DGJFDRWSGZC","A1KZ97QBNRPVCT","32TMVRKDGNK89K6LLIZX5RPIVK148D","","76.5","img/land3.png","75","77.39999961853027","2","1","3","1","1,0.5,0.5,0.5,1,0.5,0.5,0.5,1","1,0.5,0.5,0.5,1,0.5,0.5,0.5,1","","",""
"","html-keyboard-response","85","43175","0.0-85.0","3NS0A6KXC5U5RGYMGB6DGJFDRWSGZC","A1KZ97QBNRPVCT","32TMVRKDGNK89K6LLIZX5RPIVK148D","","null","<img src=""img/land3.png"" style=""width:200px; border:14px solid green;"">","null","","","","","","","","","",""
"","image-keyboard-response","86","43556","0.0-86.0","3NS0A6KXC5U5RGYMGB6DGJFDRWSGZC","A1KZ97QBNRPVCT","32TMVRKDGNK89K6LLIZX5RPIVK148D","","380.30000019073486","img/land1.png","76","381.19999980926514","3","0","1","1","1,0.5,0.5,0.5,1,0.5,0.5,0.5,1","1,0.5,0.5,0.5,1,0.5,0.5,0.5,1","","",""
"","html-keyboard-response","87","43953","0.0-87.0","3NS0A6KXC5U5RGYMGB6DGJFDRWSGZC","A1KZ97QBNRPVCT","32TMVRKDGNK89K6LLIZX5RPIVK148D","","null","<img src=""img/land1.png"" style=""width:200px;border:14px solid red;"">","null","","","","","","","","","",""
"","image-keyboard-response","88","43970","0.0-88.0","3NS0A6KXC5U5RGYMGB6DGJFDRWSGZC","A1KZ97QBNRPVCT","32TMVRKDGNK89K6LLIZX5RPIVK148D","","15.90000057220459","img/land1.png","76","16.800000190734863","3","1","1","1","1,0.5,0.5,0.5,1,0.5,0.5,0.5,1","1,0.5,0.5,0.5,1,0.5,0.5,0.5,1","","",""
"","html-keyboard-response","89","44368","0.0-89.0","3NS0A6KXC5U5RGYMGB6DGJFDRWSGZC","A1KZ97QBNRPVCT","32TMVRKDGNK89K6LLIZX5RPIVK148D","","null","<img src=""img/land1.png"" style=""width:200px; border:14px solid green;"">","null","","","","","","","","","",""
"","image-keyboard-response","90","44694","0.0-90.0","3NS0A6KXC5U5RGYMGB6DGJFDRWSGZC","A1KZ97QBNRPVCT","32TMVRKDGNK89K6LLIZX5RPIVK148D","","324.19999980926514","img/land3.png","74","325.19999980926514","1","1","3","1","1,0.5,0.5,0.5,1,0.5,0.5,0.5,1","1,0.5,0.5,0.5,1,0.5,0.5,0.5,1","","",""
"","html-keyboard-response","91","44998","0.0-91.0","3NS0A6KXC5U5RGYMGB6DGJFDRWSGZC","A1KZ97QBNRPVCT","32TMVRKDGNK89K6LLIZX5RPIVK148D","","null","<img src=""img/land3.png"" style=""width:200px; border:14px solid green;"">","null","","","","","","","","","",""
"","image-keyboard-response","92","45075","0.0-92.0","3NS0A6KXC5U5RGYMGB6DGJFDRWSGZC","A1KZ97QBNRPVCT","32TMVRKDGNK89K6LLIZX5RPIVK148D","","76","img/land2.png","76","77.19999980926514","3","0","2","1","1,0.5,0.5,0.5,1,0.5,0.5,0.5,1","1,0.5,0.5,0.5,1,0.5,0.5,0.5,1","","",""
"","html-keyboard-response","93","45381","0.0-93.0","3NS0A6KXC5U5RGYMGB6DGJFDRWSGZC","A1KZ97QBNRPVCT","32TMVRKDGNK89K6LLIZX5RPIVK148D","","null","<img src=""img/land2.png"" style=""width:200px;border:14px solid red;"">","null","","","","","","","","","",""
"","image-keyboard-response","94","45545","0.0-94.0","3NS0A6KXC5U5RGYMGB6DGJFDRWSGZC","A1KZ97QBNRPVCT","32TMVRKDGNK89K6LLIZX5RPIVK148D","","163.0999994277954","img/land3.png","75","164.19999980926514","2","0","3","1","1,0.5,0.5,0.5,1,0.5,0.5,0.5,1","1,0.5,0.5,0.5,1,0.5,0.5,0.5,1","","",""
"","html-keyboard-response","95","45854","0.0-95.0","3NS0A6KXC5U5RGYMGB6DGJFDRWSGZC","A1KZ97QBNRPVCT","32TMVRKDGNK89K6LLIZX5RPIVK148D","","null","<img src=""img/land3.png"" style=""width:200px;border:14px solid red;"">","null","","","","","","","","","",""
"","image-keyboard-response","96","45885","0.0-96.0","3NS0A6KXC5U5RGYMGB6DGJFDRWSGZC","A1KZ97QBNRPVCT","32TMVRKDGNK89K6LLIZX5RPIVK148D","","30.100000381469727","img/land2.png","75","30.899999618530273","2","1","2","1","1,0.5,0.5,0.5,1,0.5,0.5,0.5,1","1,0.5,0.5,0.5,1,0.5,0.5,0.5,1","","",""
"","html-keyboard-response","97","46189","0.0-97.0","3NS0A6KXC5U5RGYMGB6DGJFDRWSGZC","A1KZ97QBNRPVCT","32TMVRKDGNK89K6LLIZX5RPIVK148D","","null","<img src=""img/land2.png"" style=""width:200px; border:14px solid green;"">","null","","","","","","","","","",""
"","image-keyboard-response","98","46365","0.0-98.0","3NS0A6KXC5U5RGYMGB6DGJFDRWSGZC","A1KZ97QBNRPVCT","32TMVRKDGNK89K6LLIZX5RPIVK148D","","175","img/land1.png","75","176.10000038146973","2","1","1","1","1,0.5,0.5,0.5,1,0.5,0.5,0.5,1","1,0.5,0.5,0.5,1,0.5,0.5,0.5,1","","",""
"","html-keyboard-response","99","46669","0.0-99.0","3NS0A6KXC5U5RGYMGB6DGJFDRWSGZC","A1KZ97QBNRPVCT","32TMVRKDGNK89K6LLIZX5RPIVK148D","","null","<img src=""img/land1.png"" style=""width:200px; border:14px solid green;"">","null","","","","","","","","","",""
"","image-keyboard-response","100","46845","0.0-100.0","3NS0A6KXC5U5RGYMGB6DGJFDRWSGZC","A1KZ97QBNRPVCT","32TMVRKDGNK89K6LLIZX5RPIVK148D","","174.80000019073486","img/land2.png","75","175.80000019073486","2","1","2","1","1,0.5,0.5,0.5,1,0.5,0.5,0.5,1","1,0.5,0.5,0.5,1,0.5,0.5,0.5,1","","",""
"","html-keyboard-response","101","47149","0.0-101.0","3NS0A6KXC5U5RGYMGB6DGJFDRWSGZC","A1KZ97QBNRPVCT","32TMVRKDGNK89K6LLIZX5RPIVK148D","","null","<img src=""img/land2.png"" style=""width:200px; border:14px solid green;"">","null","","","","","","","","","",""
"","image-keyboard-response","102","47315","0.0-102.0","3NS0A6KXC5U5RGYMGB6DGJFDRWSGZC","A1KZ97QBNRPVCT","32TMVRKDGNK89K6LLIZX5RPIVK148D","","165.19999980926514","img/land3.png","75","166.19999980926514","2","0","3","1","1,0.5,0.5,0.5,1,0.5,0.5,0.5,1","1,0.5,0.5,0.5,1,0.5,0.5,0.5,1","","",""
"","html-keyboard-response","103","47622","0.0-103.0","3NS0A6KXC5U5RGYMGB6DGJFDRWSGZC","A1KZ97QBNRPVCT","32TMVRKDGNK89K6LLIZX5RPIVK148D","","null","<img src=""img/land3.png"" style=""width:200px;border:14px solid red;"">","null","","","","","","","","","",""
"","image-keyboard-response","104","47705","0.0-104.0","3NS0A6KXC5U5RGYMGB6DGJFDRWSGZC","A1KZ97QBNRPVCT","32TMVRKDGNK89K6LLIZX5RPIVK148D","","82","img/land1.png","75","83","2","0","1","1","1,0.5,0.5,0.5,1,0.5,0.5,0.5,1","1,0.5,0.5,0.5,1,0.5,0.5,0.5,1","","",""
"","html-keyboard-response","105","48014","0.0-105.0","3NS0A6KXC5U5RGYMGB6DGJFDRWSGZC","A1KZ97QBNRPVCT","32TMVRKDGNK89K6LLIZX5RPIVK148D","","null","<img src=""img/land1.png"" style=""width:200px;border:14px solid red;"">","null","","","","","","","","","",""
"","image-keyboard-response","106","48185","0.0-106.0","3NS0A6KXC5U5RGYMGB6DGJFDRWSGZC","A1KZ97QBNRPVCT","32TMVRKDGNK89K6LLIZX5RPIVK148D","","170","img/land3.png","74","171","1","0","3","1","1,0.5,0.5,0.5,1,0.5,0.5,0.5,1","1,0.5,0.5,0.5,1,0.5,0.5,0.5,1","","",""
"","html-keyboard-response","107","48493","0.0-107.0","3NS0A6KXC5U5RGYMGB6DGJFDRWSGZC","A1KZ97QBNRPVCT","32TMVRKDGNK89K6LLIZX5RPIVK148D","","null","<img src=""img/land3.png"" style=""width:200px;border:14px solid red;"">","null","","","","","","","","","",""
"","image-keyboard-response","108","48705","0.0-108.0","3NS0A6KXC5U5RGYMGB6DGJFDRWSGZC","A1KZ97QBNRPVCT","32TMVRKDGNK89K6LLIZX5RPIVK148D","","211.19999980926514","img/land3.png","75","212.10000038146973","2","0","3","1","1,0.5,0.5,0.5,1,0.5,0.5,0.5,1","1,0.5,0.5,0.5,1,0.5,0.5,0.5,1","","",""
"","html-keyboard-response","109","49013","0.0-109.0","3NS0A6KXC5U5RGYMGB6DGJFDRWSGZC","A1KZ97QBNRPVCT","32TMVRKDGNK89K6LLIZX5RPIVK148D","","null","<img src=""img/land3.png"" style=""width:200px;border:14px solid red;"">","null","","","","","","","","","",""
"","image-keyboard-response","110","49055","0.0-110.0","3NS0A6KXC5U5RGYMGB6DGJFDRWSGZC","A1KZ97QBNRPVCT","32TMVRKDGNK89K6LLIZX5RPIVK148D","","41.20000076293945","img/land2.png","74","42.29999923706055","1","0","2","1","1,0.5,0.5,0.5,1,0.5,0.5,0.5,1","1,0.5,0.5,0.5,1,0.5,0.5,0.5,1","","",""
"","html-keyboard-response","111","49365","0.0-111.0","3NS0A6KXC5U5RGYMGB6DGJFDRWSGZC","A1KZ97QBNRPVCT","32TMVRKDGNK89K6LLIZX5RPIVK148D","","null","<img src=""img/land2.png"" style=""width:200px;border:14px solid red;"">","null","","","","","","","","","",""
"","image-keyboard-response","112","49545","0.0-112.0","3NS0A6KXC5U5RGYMGB6DGJFDRWSGZC","A1KZ97QBNRPVCT","32TMVRKDGNK89K6LLIZX5RPIVK148D","","179","img/land3.png","76","180.0999994277954","3","1","3","1","1,0.5,0.5,0.5,1,0.5,0.5,0.5,1","1,0.5,0.5,0.5,1,0.5,0.5,0.5,1","","",""
"","html-keyboard-response","113","49853","0.0-113.0","3NS0A6KXC5U5RGYMGB6DGJFDRWSGZC","A1KZ97QBNRPVCT","32TMVRKDGNK89K6LLIZX5RPIVK148D","","null","<img src=""img/land3.png"" style=""width:200px; border:14px solid green;"">","null","","","","","","","","","",""
"","image-keyboard-response","114","49990","0.0-114.0","3NS0A6KXC5U5RGYMGB6DGJFDRWSGZC","A1KZ97QBNRPVCT","32TMVRKDGNK89K6LLIZX5RPIVK148D","","134.69999980926514","img/land1.png","75","136.5","2","0","1","1","1,0.5,0.5,0.5,1,0.5,0.5,0.5,1","1,0.5,0.5,0.5,1,0.5,0.5,0.5,1","","",""
"","html-keyboard-response","115","50293","0.0-115.0","3NS0A6KXC5U5RGYMGB6DGJFDRWSGZC","A1KZ97QBNRPVCT","32TMVRKDGNK89K6LLIZX5RPIVK148D","","null","<img src=""img/land1.png"" style=""width:200px;border:14px solid red;"">","null","","","","","","","","","",""
"","image-keyboard-response","116","50365","0.0-116.0","3NS0A6KXC5U5RGYMGB6DGJFDRWSGZC","A1KZ97QBNRPVCT","32TMVRKDGNK89K6LLIZX5RPIVK148D","","71","img/land1.png","75","72","2","1","1","1","1,0.5,0.5,0.5,1,0.5,0.5,0.5,1","1,0.5,0.5,0.5,1,0.5,0.5,0.5,1","","",""
"","html-keyboard-response","117","50671","0.0-117.0","3NS0A6KXC5U5RGYMGB6DGJFDRWSGZC","A1KZ97QBNRPVCT","32TMVRKDGNK89K6LLIZX5RPIVK148D","","null","<img src=""img/land1.png"" style=""width:200px; border:14px solid green;"">","null","","","","","","","","","",""
"","image-keyboard-response","118","50765","0.0-118.0","3NS0A6KXC5U5RGYMGB6DGJFDRWSGZC","A1KZ97QBNRPVCT","32TMVRKDGNK89K6LLIZX5RPIVK148D","","93.40000057220459","img/land1.png","75","94.40000057220459","2","0","1","1","1,0.5,0.5,0.5,1,0.5,0.5,0.5,1","1,0.5,0.5,0.5,1,0.5,0.5,0.5,1","","",""
"","html-keyboard-response","119","51069","0.0-119.0","3NS0A6KXC5U5RGYMGB6DGJFDRWSGZC","A1KZ97QBNRPVCT","32TMVRKDGNK89K6LLIZX5RPIVK148D","","null","<img src=""img/land1.png"" style=""width:200px;border:14px solid red;"">","null","","","","","","","","","",""
"","image-keyboard-response","120","51195","0.0-120.0","3NS0A6KXC5U5RGYMGB6DGJFDRWSGZC","A1KZ97QBNRPVCT","32TMVRKDGNK89K6LLIZX5RPIVK148D","","125.10000038146973","img/land2.png","74","126.10000038146973","1","0","2","1","1,0.5,0.5,0.5,1,0.5,0.5,0.5,1","1,0.5,0.5,0.5,1,0.5,0.5,0.5,1","","",""
"","html-keyboard-response","121","51501","0.0-121.0","3NS0A6KXC5U5RGYMGB6DGJFDRWSGZC","A1KZ97QBNRPVCT","32TMVRKDGNK89K6LLIZX5RPIVK148D","","null","<img src=""img/land2.png"" style=""width:200px;border:14px solid red;"">","null","","","","","","","","","",""
"","image-keyboard-response","122","51635","0.0-122.0","3NS0A6KXC5U5RGYMGB6DGJFDRWSGZC","A1KZ97QBNRPVCT","32TMVRKDGNK89K6LLIZX5RPIVK148D","","132.60000038146973","img/land3.png","76","133.60000038146973","3","1","3","1","1,0.5,0.5,0.5,1,0.5,0.5,0.5,1","1,0.5,0.5,0.5,1,0.5,0.5,0.5,1","","",""
"","html-keyboard-response","123","51941","0.0-123.0","3NS0A6KXC5U5RGYMGB6DGJFDRWSGZC","A1KZ97QBNRPVCT","32TMVRKDGNK89K6LLIZX5RPIVK148D","","null","<img src=""img/land3.png"" style=""width:200px; border:14px solid green;"">","null","","","","","","","","","",""
"","image-keyboard-response","124","52115","0.0-124.0","3NS0A6KXC5U5RGYMGB6DGJFDRWSGZC","A1KZ97QBNRPVCT","32TMVRKDGNK89K6LLIZX5RPIVK148D","","173","img/land3.png","74","174.39999961853027","1","1","3","1","1,0.5,0.5,0.5,1,0.5,0.5,0.5,1","1,0.5,0.5,0.5,1,0.5,0.5,0.5,1","","",""
"","html-keyboard-response","125","52421","0.0-125.0","3NS0A6KXC5U5RGYMGB6DGJFDRWSGZC","A1KZ97QBNRPVCT","32TMVRKDGNK89K6LLIZX5RPIVK148D","","null","<img src=""img/land3.png"" style=""width:200px; border:14px solid green;"">","null","","","","","","","","","",""
"","image-keyboard-response","126","52595","0.0-126.0","3NS0A6KXC5U5RGYMGB6DGJFDRWSGZC","A1KZ97QBNRPVCT","32TMVRKDGNK89K6LLIZX5RPIVK148D","","172.80000019073486","img/land2.png","74","173.80000019073486","1","1","2","1","1,0.5,0.5,0.5,1,0.5,0.5,0.5,1","1,0.5,0.5,0.5,1,0.5,0.5,0.5,1","","",""
"","html-keyboard-response","127","52901","0.0-127.0","3NS0A6KXC5U5RGYMGB6DGJFDRWSGZC","A1KZ97QBNRPVCT","32TMVRKDGNK89K6LLIZX5RPIVK148D","","null","<img src=""img/land2.png"" style=""width:200px; border:14px solid green;"">","null","","","","","","","","","",""
"","image-keyboard-response","128","52955","0.0-128.0","3NS0A6KXC5U5RGYMGB6DGJFDRWSGZC","A1KZ97QBNRPVCT","32TMVRKDGNK89K6LLIZX5RPIVK148D","","53","img/land2.png","75","54","2","1","2","1","1,0.5,0.5,0.5,1,0.5,0.5,0.5,1","1,0.5,0.5,0.5,1,0.5,0.5,0.5,1","","",""
"","html-keyboard-response","129","53261","0.0-129.0","3NS0A6KXC5U5RGYMGB6DGJFDRWSGZC","A1KZ97QBNRPVCT","32TMVRKDGNK89K6LLIZX5RPIVK148D","","null","<img src=""img/land2.png"" style=""width:200px; border:14px solid green;"">","null","","","","","","","","","",""
"","image-keyboard-response","130","53405","0.0-130.0","3NS0A6KXC5U5RGYMGB6DGJFDRWSGZC","A1KZ97QBNRPVCT","32TMVRKDGNK89K6LLIZX5RPIVK148D","","142.89999961853027","img/land3.png","75","144","2","0","3","1","1,0.5,0.5,0.5,1,0.5,0.5,0.5,1","1,0.5,0.5,0.5,1,0.5,0.5,0.5,1","","",""
"","html-keyboard-response","131","53709","0.0-131.0","3NS0A6KXC5U5RGYMGB6DGJFDRWSGZC","A1KZ97QBNRPVCT","32TMVRKDGNK89K6LLIZX5RPIVK148D","","null","<img src=""img/land3.png"" style=""width:200px;border:14px solid red;"">","null","","","","","","","","","",""
"","image-keyboard-response","132","53825","0.0-132.0","3NS0A6KXC5U5RGYMGB6DGJFDRWSGZC","A1KZ97QBNRPVCT","32TMVRKDGNK89K6LLIZX5RPIVK148D","","115","img/land2.png","75","116.09999942779541","2","1","2","1","1,0.5,0.5,0.5,1,0.5,0.5,0.5,1","1,0.5,0.5,0.5,1,0.5,0.5,0.5,1","","",""
"","html-keyboard-response","133","54133","0.0-133.0","3NS0A6KXC5U5RGYMGB6DGJFDRWSGZC","A1KZ97QBNRPVCT","32TMVRKDGNK89K6LLIZX5RPIVK148D","","null","<img src=""img/land2.png"" style=""width:200px; border:14px solid green;"">","null","","","","","","","","","",""
"","image-keyboard-response","134","54135","0.0-134.0","3NS0A6KXC5U5RGYMGB6DGJFDRWSGZC","A1KZ97QBNRPVCT","32TMVRKDGNK89K6LLIZX5RPIVK148D","","1.4000005722045898","img/land2.png","74","2.5","1","0","2","1","1,0.5,0.5,0.5,1,0.5,0.5,0.5,1","1,0.5,0.5,0.5,1,0.5,0.5,0.5,1","","",""
"","html-keyboard-response","135","54437","0.0-135.0","3NS0A6KXC5U5RGYMGB6DGJFDRWSGZC","A1KZ97QBNRPVCT","32TMVRKDGNK89K6LLIZX5RPIVK148D","","null","<img src=""img/land2.png"" style=""width:200px;border:14px solid red;"">","null","","","","","","","","","",""
"","image-keyboard-response","136","54592","0.0-136.0","3NS0A6KXC5U5RGYMGB6DGJFDRWSGZC","A1KZ97QBNRPVCT","32TMVRKDGNK89K6LLIZX5RPIVK148D","","153.69999980926514","img/land2.png","74","154.80000019073486","1","0","2","1","1,0.5,0.5,0.5,1,0.5,0.5,0.5,1","1,0.5,0.5,0.5,1,0.5,0.5,0.5,1","","",""
"","html-keyboard-response","137","54902","0.0-137.0","3NS0A6KXC5U5RGYMGB6DGJFDRWSGZC","A1KZ97QBNRPVCT","32TMVRKDGNK89K6LLIZX5RPIVK148D","","null","<img src=""img/land2.png"" style=""width:200px;border:14px solid red;"">","null","","","","","","","","","",""
"","image-keyboard-response","138","54995","0.0-138.0","3NS0A6KXC5U5RGYMGB6DGJFDRWSGZC","A1KZ97QBNRPVCT","32TMVRKDGNK89K6LLIZX5RPIVK148D","","92","img/land3.png","75","93","2","1","3","1","1,0.5,0.5,0.5,1,0.5,0.5,0.5,1","1,0.5,0.5,0.5,1,0.5,0.5,0.5,1","","",""
"","html-keyboard-response","139","55302","0.0-139.0","3NS0A6KXC5U5RGYMGB6DGJFDRWSGZC","A1KZ97QBNRPVCT","32TMVRKDGNK89K6LLIZX5RPIVK148D","","null","<img src=""img/land3.png"" style=""width:200px; border:14px solid green;"">","null","","","","","","","","","",""
"","image-keyboard-response","140","55425","0.0-140.0","3NS0A6KXC5U5RGYMGB6DGJFDRWSGZC","A1KZ97QBNRPVCT","32TMVRKDGNK89K6LLIZX5RPIVK148D","","122","img/land3.png","75","123.10000038146973","2","1","3","1","1,0.5,0.5,0.5,1,0.5,0.5,0.5,1","1,0.5,0.5,0.5,1,0.5,0.5,0.5,1","","",""
"","html-keyboard-response","141","55734","0.0-141.0","3NS0A6KXC5U5RGYMGB6DGJFDRWSGZC","A1KZ97QBNRPVCT","32TMVRKDGNK89K6LLIZX5RPIVK148D","","null","<img src=""img/land3.png"" style=""width:200px; border:14px solid green;"">","null","","","","","","","","","",""
"","image-keyboard-response","142","55745","0.0-142.0","3NS0A6KXC5U5RGYMGB6DGJFDRWSGZC","A1KZ97QBNRPVCT","32TMVRKDGNK89K6LLIZX5RPIVK148D","","9.899999618530273","img/land2.png","74","10.699999809265137","1","1","2","1","1,0.5,0.5,0.5,1,0.5,0.5,0.5,1","1,0.5,0.5,0.5,1,0.5,0.5,0.5,1","","",""
"","html-keyboard-response","143","56054","0.0-143.0","3NS0A6KXC5U5RGYMGB6DGJFDRWSGZC","A1KZ97QBNRPVCT","32TMVRKDGNK89K6LLIZX5RPIVK148D","","null","<img src=""img/land2.png"" style=""width:200px; border:14px solid green;"">","null","","","","","","","","","",""
"","image-keyboard-response","144","56085","0.0-144.0","3NS0A6KXC5U5RGYMGB6DGJFDRWSGZC","A1KZ97QBNRPVCT","32TMVRKDGNK89K6LLIZX5RPIVK148D","","29.399999618530273","img/land3.png","76","30.600000381469727","3","1","3","1","1,0.5,0.5,0.5,1,0.5,0.5,0.5,1","1,0.5,0.5,0.5,1,0.5,0.5,0.5,1","","",""
"","html-keyboard-response","145","56390","0.0-145.0","3NS0A6KXC5U5RGYMGB6DGJFDRWSGZC","A1KZ97QBNRPVCT","32TMVRKDGNK89K6LLIZX5RPIVK148D","","null","<img src=""img/land3.png"" style=""width:200px; border:14px solid green;"">","null","","","","","","","","","",""
"","image-keyboard-response","146","56545","0.0-146.0","3NS0A6KXC5U5RGYMGB6DGJFDRWSGZC","A1KZ97QBNRPVCT","32TMVRKDGNK89K6LLIZX5RPIVK148D","","153.69999980926514","img/land3.png","76","154.69999980926514","3","1","3","1","1,0.5,0.5,0.5,1,0.5,0.5,0.5,1","1,0.5,0.5,0.5,1,0.5,0.5,0.5,1","","",""
"","html-keyboard-response","147","56853","0.0-147.0","3NS0A6KXC5U5RGYMGB6DGJFDRWSGZC","A1KZ97QBNRPVCT","32TMVRKDGNK89K6LLIZX5RPIVK148D","","null","<img src=""img/land3.png"" style=""width:200px; border:14px solid green;"">","null","","","","","","","","","",""
"","image-keyboard-response","148","56885","0.0-148.0","3NS0A6KXC5U5RGYMGB6DGJFDRWSGZC","A1KZ97QBNRPVCT","32TMVRKDGNK89K6LLIZX5RPIVK148D","","30.90000057220459","img/land3.png","75","31.699999809265137","2","0","3","1","1,0.5,0.5,0.5,1,0.5,0.5,0.5,1","1,0.5,0.5,0.5,1,0.5,0.5,0.5,1","","",""
"","html-keyboard-response","149","57190","0.0-149.0","3NS0A6KXC5U5RGYMGB6DGJFDRWSGZC","A1KZ97QBNRPVCT","32TMVRKDGNK89K6LLIZX5RPIVK148D","","null","<img src=""img/land3.png"" style=""width:200px;border:14px solid red;"">","null","","","","","","","","","",""
"","image-keyboard-response","150","57195","0.0-150.0","3NS0A6KXC5U5RGYMGB6DGJFDRWSGZC","A1KZ97QBNRPVCT","32TMVRKDGNK89K6LLIZX5RPIVK148D","","3.8999996185302734","img/land2.png","74","4.799999237060547","1","1","2","1","1,0.5,0.5,0.5,1,0.5,0.5,0.5,1","1,0.5,0.5,0.5,1,0.5,0.5,0.5,1","","",""
"","html-keyboard-response","151","57501","0.0-151.0","3NS0A6KXC5U5RGYMGB6DGJFDRWSGZC","A1KZ97QBNRPVCT","32TMVRKDGNK89K6LLIZX5RPIVK148D","","null","<img src=""img/land2.png"" style=""width:200px; border:14px solid green;"">","null","","","","","","","","","",""
"","image-keyboard-response","152","57575","0.0-152.0","3NS0A6KXC5U5RGYMGB6DGJFDRWSGZC","A1KZ97QBNRPVCT","32TMVRKDGNK89K6LLIZX5RPIVK148D","","72.90000057220459","img/land2.png","76","73.89999961853027","3","1","2","1","1,0.5,0.5,0.5,1,0.5,0.5,0.5,1","1,0.5,0.5,0.5,1,0.5,0.5,0.5,1","","",""
"","html-keyboard-response","153","57879","0.0-153.0","3NS0A6KXC5U5RGYMGB6DGJFDRWSGZC","A1KZ97QBNRPVCT","32TMVRKDGNK89K6LLIZX5RPIVK148D","","null","<img src=""img/land2.png"" style=""width:200px; border:14px solid green;"">","null","","","","","","","","","",""
"","image-keyboard-response","154","57945","0.0-154.0","3NS0A6KXC5U5RGYMGB6DGJFDRWSGZC","A1KZ97QBNRPVCT","32TMVRKDGNK89K6LLIZX5RPIVK148D","","55.30000019073486","img/land3.png","75","65.39999961853027","2","1","3","1","1,0.5,0.5,0.5,1,0.5,0.5,0.5,1","1,0.5,0.5,0.5,1,0.5,0.5,0.5,1","","",""
"","html-keyboard-response","155","58254","0.0-155.0","3NS0A6KXC5U5RGYMGB6DGJFDRWSGZC","A1KZ97QBNRPVCT","32TMVRKDGNK89K6LLIZX5RPIVK148D","","null","<img src=""img/land3.png"" style=""width:200px; border:14px solid green;"">","null","","","","","","","","","",""
"","image-keyboard-response","156","58265","0.0-156.0","3NS0A6KXC5U5RGYMGB6DGJFDRWSGZC","A1KZ97QBNRPVCT","32TMVRKDGNK89K6LLIZX5RPIVK148D","","9.699999809265137","img/land3.png","74","10.59999942779541","1","1","3","1","1,0.5,0.5,0.5,1,0.5,0.5,0.5,1","1,0.5,0.5,0.5,1,0.5,0.5,0.5,1","","",""
"","html-keyboard-response","157","58574","0.0-157.0","3NS0A6KXC5U5RGYMGB6DGJFDRWSGZC","A1KZ97QBNRPVCT","32TMVRKDGNK89K6LLIZX5RPIVK148D","","null","<img src=""img/land3.png"" style=""width:200px; border:14px solid green;"">","null","","","","","","","","","",""
"","image-keyboard-response","158","58655","0.0-158.0","3NS0A6KXC5U5RGYMGB6DGJFDRWSGZC","A1KZ97QBNRPVCT","32TMVRKDGNK89K6LLIZX5RPIVK148D","","79.70000076293945","img/land2.png","74","80.69999980926514","1","0","2","1","1,0.5,0.5,0.5,1,0.5,0.5,0.5,1","1,0.5,0.5,0.5,1,0.5,0.5,0.5,1","","",""
"","html-keyboard-response","159","58957","0.0-159.0","3NS0A6KXC5U5RGYMGB6DGJFDRWSGZC","A1KZ97QBNRPVCT","32TMVRKDGNK89K6LLIZX5RPIVK148D","","null","<img src=""img/land2.png"" style=""width:200px;border:14px solid red;"">","null","","","","","","","","","",""
"","image-keyboard-response","160","59135","0.0-160.0","3NS0A6KXC5U5RGYMGB6DGJFDRWSGZC","A1KZ97QBNRPVCT","32TMVRKDGNK89K6LLIZX5RPIVK148D","","176.80000019073486","img/land2.png","76","177.89999961853027","3","1","2","1","1,0.5,0.5,0.5,1,0.5,0.5,0.5,1","1,0.5,0.5,0.5,1,0.5,0.5,0.5,1","","",""
"","html-keyboard-response","161","59438","0.0-161.0","3NS0A6KXC5U5RGYMGB6DGJFDRWSGZC","A1KZ97QBNRPVCT","32TMVRKDGNK89K6LLIZX5RPIVK148D","","null","<img src=""img/land2.png"" style=""width:200px; border:14px solid green;"">","null","","","","","","","","","",""
"","image-keyboard-response","162","59525","0.0-162.0","3NS0A6KXC5U5RGYMGB6DGJFDRWSGZC","A1KZ97QBNRPVCT","32TMVRKDGNK89K6LLIZX5RPIVK148D","","85.70000076293945","img/land1.png","75","86.79999923706055","2","1","1","1","1,0.5,0.5,0.5,1,0.5,0.5,0.5,1","1,0.5,0.5,0.5,1,0.5,0.5,0.5,1","","",""
"","html-keyboard-response","163","59830","0.0-163.0","3NS0A6KXC5U5RGYMGB6DGJFDRWSGZC","A1KZ97QBNRPVCT","32TMVRKDGNK89K6LLIZX5RPIVK148D","","null","<img src=""img/land1.png"" style=""width:200px; border:14px solid green;"">","null","","","","","","","","","",""
"","image-keyboard-response","164","59965","0.0-164.0","3NS0A6KXC5U5RGYMGB6DGJFDRWSGZC","A1KZ97QBNRPVCT","32TMVRKDGNK89K6LLIZX5RPIVK148D","","134.0999994277954","img/land3.png","75","135","2","1","3","1","1,0.5,0.5,0.5,1,0.5,0.5,0.5,1","1,0.5,0.5,0.5,1,0.5,0.5,0.5,1","","",""
"","html-keyboard-response","165","60270","0.0-165.0","3NS0A6KXC5U5RGYMGB6DGJFDRWSGZC","A1KZ97QBNRPVCT","32TMVRKDGNK89K6LLIZX5RPIVK148D","","null","<img src=""img/land3.png"" style=""width:200px; border:14px solid green;"">","null","","","","","","","","","",""
"","image-keyboard-response","166","60455","0.0-166.0","3NS0A6KXC5U5RGYMGB6DGJFDRWSGZC","A1KZ97QBNRPVCT","32TMVRKDGNK89K6LLIZX5RPIVK148D","","183.4000005722046","img/land1.png","75","184.69999980926514","2","0","1","1","1,0.5,0.5,0.5,1,0.5,0.5,0.5,1","1,0.5,0.5,0.5,1,0.5,0.5,0.5,1","","",""
"","html-keyboard-response","167","60758","0.0-167.0","3NS0A6KXC5U5RGYMGB6DGJFDRWSGZC","A1KZ97QBNRPVCT","32TMVRKDGNK89K6LLIZX5RPIVK148D","","null","<img src=""img/land1.png"" style=""width:200px;border:14px solid red;"">","null","","","","","","","","","",""
"","image-keyboard-response","168","60865","0.0-168.0","3NS0A6KXC5U5RGYMGB6DGJFDRWSGZC","A1KZ97QBNRPVCT","32TMVRKDGNK89K6LLIZX5RPIVK148D","","105.59999942779541","img/land3.png","74","106.80000019073486","1","1","3","1","1,0.5,0.5,0.5,1,0.5,0.5,0.5,1","1,0.5,0.5,0.5,1,0.5,0.5,0.5,1","","",""
"","html-keyboard-response","169","61173","0.0-169.0","3NS0A6KXC5U5RGYMGB6DGJFDRWSGZC","A1KZ97QBNRPVCT","32TMVRKDGNK89K6LLIZX5RPIVK148D","","null","<img src=""img/land3.png"" style=""width:200px; border:14px solid green;"">","null","","","","","","","","","",""
"","image-keyboard-response","170","61425","0.0-170.0","3NS0A6KXC5U5RGYMGB6DGJFDRWSGZC","A1KZ97QBNRPVCT","32TMVRKDGNK89K6LLIZX5RPIVK148D","","250.89999961853027","img/land3.png","76","251.89999961853027","3","1","3","1","1,0.5,0.5,0.5,1,0.5,0.5,0.5,1","1,0.5,0.5,0.5,1,0.5,0.5,0.5,1","","",""
"","html-keyboard-response","171","61733","0.0-171.0","3NS0A6KXC5U5RGYMGB6DGJFDRWSGZC","A1KZ97QBNRPVCT","32TMVRKDGNK89K6LLIZX5RPIVK148D","","null","<img src=""img/land3.png"" style=""width:200px; border:14px solid green;"">","null","","","","","","","","","",""
"","image-keyboard-response","172","61856","0.0-172.0","3NS0A6KXC5U5RGYMGB6DGJFDRWSGZC","A1KZ97QBNRPVCT","32TMVRKDGNK89K6LLIZX5RPIVK148D","","122","img/land1.png","76","122.89999961853027","3","0","1","1","1,0.5,0.5,0.5,1,0.5,0.5,0.5,1","1,0.5,0.5,0.5,1,0.5,0.5,0.5,1","","",""
"","html-keyboard-response","173","62166","0.0-173.0","3NS0A6KXC5U5RGYMGB6DGJFDRWSGZC","A1KZ97QBNRPVCT","32TMVRKDGNK89K6LLIZX5RPIVK148D","","null","<img src=""img/land1.png"" style=""width:200px;border:14px solid red;"">","null","","","","","","","","","",""
"","image-keyboard-response","174","62385","0.0-174.0","3NS0A6KXC5U5RGYMGB6DGJFDRWSGZC","A1KZ97QBNRPVCT","32TMVRKDGNK89K6LLIZX5RPIVK148D","","218.30000019073486","img/land1.png","75","219.39999961853027","2","0","1","1","1,0.5,0.5,0.5,1,0.5,0.5,0.5,1","1,0.5,0.5,0.5,1,0.5,0.5,0.5,1","","",""
"","html-keyboard-response","175","62693","0.0-175.0","3NS0A6KXC5U5RGYMGB6DGJFDRWSGZC","A1KZ97QBNRPVCT","32TMVRKDGNK89K6LLIZX5RPIVK148D","","null","<img src=""img/land1.png"" style=""width:200px;border:14px solid red;"">","null","","","","","","","","","",""
"","image-keyboard-response","176","62925","0.0-176.0","3NS0A6KXC5U5RGYMGB6DGJFDRWSGZC","A1KZ97QBNRPVCT","32TMVRKDGNK89K6LLIZX5RPIVK148D","","230.69999980926514","img/land3.png","75","231.80000019073486","2","1","3","1","1,0.5,0.5,0.5,1,0.5,0.5,0.5,1","1,0.5,0.5,0.5,1,0.5,0.5,0.5,1","","",""
"","html-keyboard-response","177","63229","0.0-177.0","3NS0A6KXC5U5RGYMGB6DGJFDRWSGZC","A1KZ97QBNRPVCT","32TMVRKDGNK89K6LLIZX5RPIVK148D","","null","<img src=""img/land3.png"" style=""width:200px; border:14px solid green;"">","null","","","","","","","","","",""
"","image-keyboard-response","178","63335","0.0-178.0","3NS0A6KXC5U5RGYMGB6DGJFDRWSGZC","A1KZ97QBNRPVCT","32TMVRKDGNK89K6LLIZX5RPIVK148D","","104.69999980926514","img/land1.png","74","105.69999980926514","1","1","1","1","1,0.5,0.5,0.5,1,0.5,0.5,0.5,1","1,0.5,0.5,0.5,1,0.5,0.5,0.5,1","","",""
"","html-keyboard-response","179","63637","0.0-179.0","3NS0A6KXC5U5RGYMGB6DGJFDRWSGZC","A1KZ97QBNRPVCT","32TMVRKDGNK89K6LLIZX5RPIVK148D","","null","<img src=""img/land1.png"" style=""width:200px; border:14px solid green;"">","null","","","","","","","","","",""
"","image-keyboard-response","180","63755","0.0-180.0","3NS0A6KXC5U5RGYMGB6DGJFDRWSGZC","A1KZ97QBNRPVCT","32TMVRKDGNK89K6LLIZX5RPIVK148D","","116.60000038146973","img/land1.png","76","117.69999980926514","3","0","1","1","1,0.5,0.5,0.5,1,0.5,0.5,0.5,1","1,0.5,0.5,0.5,1,0.5,0.5,0.5,1","","",""
"","html-keyboard-response","181","64061","0.0-181.0","3NS0A6KXC5U5RGYMGB6DGJFDRWSGZC","A1KZ97QBNRPVCT","32TMVRKDGNK89K6LLIZX5RPIVK148D","","null","<img src=""img/land1.png"" style=""width:200px;border:14px solid red;"">","null","","","","","","","","","",""
"","html-keyboard-response","182","66795","0.0-182.0","3NS0A6KXC5U5RGYMGB6DGJFDRWSGZC","A1KZ97QBNRPVCT","32TMVRKDGNK89K6LLIZX5RPIVK148D","","","","","","","","","","","","","",""
"","image-keyboard-response","183","67525","0.0-183.0","3NS0A6KXC5U5RGYMGB6DGJFDRWSGZC","A1KZ97QBNRPVCT","32TMVRKDGNK89K6LLIZX5RPIVK148D","","728","img/land6.png","74","729.5","1","1","3","1","1,0.5,0.5,0.5,1,0.5,0.5,0.5,1","1,0.5,0.5,0.5,1,0.5,0.5,0.5,1","","",""
"","html-keyboard-response","184","67829","0.0-184.0","3NS0A6KXC5U5RGYMGB6DGJFDRWSGZC","A1KZ97QBNRPVCT","32TMVRKDGNK89K6LLIZX5RPIVK148D","","null","<img src=""img/land6.png"" style=""width:200px; border:14px solid green;"">","null","","","","","","","","","",""
"","image-keyboard-response","185","68135","0.0-185.0","3NS0A6KXC5U5RGYMGB6DGJFDRWSGZC","A1KZ97QBNRPVCT","32TMVRKDGNK89K6LLIZX5RPIVK148D","","304.80000019073486","img/land5.png","75","305.79999923706055","2","1","2","1","1,0.5,0.5,0.5,1,0.5,0.5,0.5,1","1,0.5,0.5,0.5,1,0.5,0.5,0.5,1","","",""
"","html-keyboard-response","186","68438","0.0-186.0","3NS0A6KXC5U5RGYMGB6DGJFDRWSGZC","A1KZ97QBNRPVCT","32TMVRKDGNK89K6LLIZX5RPIVK148D","","null","<img src=""img/land5.png"" style=""width:200px; border:14px solid green;"">","null","","","","","","","","","",""
"","image-keyboard-response","187","68484","0.0-187.0","3NS0A6KXC5U5RGYMGB6DGJFDRWSGZC","A1KZ97QBNRPVCT","32TMVRKDGNK89K6LLIZX5RPIVK148D","","44.69999980926514","img/land4.png","75","46.39999961853027","2","0","1","1","1,0.5,0.5,0.5,1,0.5,0.5,0.5,1","1,0.5,0.5,0.5,1,0.5,0.5,0.5,1","","",""
"","html-keyboard-response","188","68789","0.0-188.0","3NS0A6KXC5U5RGYMGB6DGJFDRWSGZC","A1KZ97QBNRPVCT","32TMVRKDGNK89K6LLIZX5RPIVK148D","","null","<img src=""img/land4.png"" style=""width:200px;border:14px solid red;"">","null","","","","","","","","","",""
"","image-keyboard-response","189","68974","0.0-189.0","3NS0A6KXC5U5RGYMGB6DGJFDRWSGZC","A1KZ97QBNRPVCT","32TMVRKDGNK89K6LLIZX5RPIVK148D","","184.19999980926514","img/land6.png","76","185.30000019073486","3","1","3","1","1,0.5,0.5,0.5,1,0.5,0.5,0.5,1","1,0.5,0.5,0.5,1,0.5,0.5,0.5,1","","",""
"","html-keyboard-response","190","69277","0.0-190.0","3NS0A6KXC5U5RGYMGB6DGJFDRWSGZC","A1KZ97QBNRPVCT","32TMVRKDGNK89K6LLIZX5RPIVK148D","","null","<img src=""img/land6.png"" style=""width:200px; border:14px solid green;"">","null","","","","","","","","","",""
"","image-keyboard-response","191","69284","0.0-191.0","3NS0A6KXC5U5RGYMGB6DGJFDRWSGZC","A1KZ97QBNRPVCT","32TMVRKDGNK89K6LLIZX5RPIVK148D","","6.300000190734863","img/land6.png","76","7.299999237060547","3","1","3","1","1,0.5,0.5,0.5,1,0.5,0.5,0.5,1","1,0.5,0.5,0.5,1,0.5,0.5,0.5,1","","",""
"","html-keyboard-response","192","69589","0.0-192.0","3NS0A6KXC5U5RGYMGB6DGJFDRWSGZC","A1KZ97QBNRPVCT","32TMVRKDGNK89K6LLIZX5RPIVK148D","","null","<img src=""img/land6.png"" style=""width:200px; border:14px solid green;"">","null","","","","","","","","","",""
"","image-keyboard-response","193","69610","0.0-193.0","3NS0A6KXC5U5RGYMGB6DGJFDRWSGZC","A1KZ97QBNRPVCT","32TMVRKDGNK89K6LLIZX5RPIVK148D","","19.600000381469727","img/land4.png","75","20.59999942779541","2","0","1","1","1,0.5,0.5,0.5,1,0.5,0.5,0.5,1","1,0.5,0.5,0.5,1,0.5,0.5,0.5,1","","",""
"","html-keyboard-response","194","69917","0.0-194.0","3NS0A6KXC5U5RGYMGB6DGJFDRWSGZC","A1KZ97QBNRPVCT","32TMVRKDGNK89K6LLIZX5RPIVK148D","","null","<img src=""img/land4.png"" style=""width:200px;border:14px solid red;"">","null","","","","","","","","","",""
"","image-keyboard-response","195","69964","0.0-195.0","3NS0A6KXC5U5RGYMGB6DGJFDRWSGZC","A1KZ97QBNRPVCT","32TMVRKDGNK89K6LLIZX5RPIVK148D","","46.39999961853027","img/land5.png","74","47.39999961853027","1","0","2","1","1,0.5,0.5,0.5,1,0.5,0.5,0.5,1","1,0.5,0.5,0.5,1,0.5,0.5,0.5,1","","",""
"","html-keyboard-response","196","70269","0.0-196.0","3NS0A6KXC5U5RGYMGB6DGJFDRWSGZC","A1KZ97QBNRPVCT","32TMVRKDGNK89K6LLIZX5RPIVK148D","","null","<img src=""img/land5.png"" style=""width:200px;border:14px solid red;"">","null","","","","","","","","","",""
"","image-keyboard-response","197","70325","0.0-197.0","3NS0A6KXC5U5RGYMGB6DGJFDRWSGZC","A1KZ97QBNRPVCT","32TMVRKDGNK89K6LLIZX5RPIVK148D","","54.60000038146973","img/land6.png","76","56","3","1","3","1","1,0.5,0.5,0.5,1,0.5,0.5,0.5,1","1,0.5,0.5,0.5,1,0.5,0.5,0.5,1","","",""
"","html-keyboard-response","198","70629","0.0-198.0","3NS0A6KXC5U5RGYMGB6DGJFDRWSGZC","A1KZ97QBNRPVCT","32TMVRKDGNK89K6LLIZX5RPIVK148D","","null","<img src=""img/land6.png"" style=""width:200px; border:14px solid green;"">","null","","","","","","","","","",""
"","image-keyboard-response","199","70685","0.0-199.0","3NS0A6KXC5U5RGYMGB6DGJFDRWSGZC","A1KZ97QBNRPVCT","32TMVRKDGNK89K6LLIZX5RPIVK148D","","54.89999961853027","img/land6.png","76","55.80000019073486","3","1","3","1","1,0.5,0.5,0.5,1,0.5,0.5,0.5,1","1,0.5,0.5,0.5,1,0.5,0.5,0.5,1","","",""
"","html-keyboard-response","200","70989","0.0-200.0","3NS0A6KXC5U5RGYMGB6DGJFDRWSGZC","A1KZ97QBNRPVCT","32TMVRKDGNK89K6LLIZX5RPIVK148D","","null","<img src=""img/land6.png"" style=""width:200px; border:14px solid green;"">","null","","","","","","","","","",""
"","image-keyboard-response","201","71054","0.0-201.0","3NS0A6KXC5U5RGYMGB6DGJFDRWSGZC","A1KZ97QBNRPVCT","32TMVRKDGNK89K6LLIZX5RPIVK148D","","64.10000038146973","img/land4.png","76","65.30000019073486","3","1","1","1","1,0.5,0.5,0.5,1,0.5,0.5,0.5,1","1,0.5,0.5,0.5,1,0.5,0.5,0.5,1","","",""
"","html-keyboard-response","202","71358","0.0-202.0","3NS0A6KXC5U5RGYMGB6DGJFDRWSGZC","A1KZ97QBNRPVCT","32TMVRKDGNK89K6LLIZX5RPIVK148D","","null","<img src=""img/land4.png"" style=""width:200px; border:14px solid green;"">","null","","","","","","","","","",""
"","image-keyboard-response","203","71375","0.0-203.0","3NS0A6KXC5U5RGYMGB6DGJFDRWSGZC","A1KZ97QBNRPVCT","32TMVRKDGNK89K6LLIZX5RPIVK148D","","15.5","img/land5.png","75","16.699999809265137","2","1","2","1","1,0.5,0.5,0.5,1,0.5,0.5,0.5,1","1,0.5,0.5,0.5,1,0.5,0.5,0.5,1","","",""
"","html-keyboard-response","204","71678","0.0-204.0","3NS0A6KXC5U5RGYMGB6DGJFDRWSGZC","A1KZ97QBNRPVCT","32TMVRKDGNK89K6LLIZX5RPIVK148D","","null","<img src=""img/land5.png"" style=""width:200px; border:14px solid green;"">","null","","","","","","","","","",""
"","image-keyboard-response","205","71815","0.0-205.0","3NS0A6KXC5U5RGYMGB6DGJFDRWSGZC","A1KZ97QBNRPVCT","32TMVRKDGNK89K6LLIZX5RPIVK148D","","135.4000005722046","img/land6.png","75","136.5999994277954","2","0","3","1","1,0.5,0.5,0.5,1,0.5,0.5,0.5,1","1,0.5,0.5,0.5,1,0.5,0.5,0.5,1","","",""
"","html-keyboard-response","206","72117","0.0-206.0","3NS0A6KXC5U5RGYMGB6DGJFDRWSGZC","A1KZ97QBNRPVCT","32TMVRKDGNK89K6LLIZX5RPIVK148D","","null","<img src=""img/land6.png"" style=""width:200px;border:14px solid red;"">","null","","","","","","","","","",""
"","image-keyboard-response","207","72394","0.0-207.0","3NS0A6KXC5U5RGYMGB6DGJFDRWSGZC","A1KZ97QBNRPVCT","32TMVRKDGNK89K6LLIZX5RPIVK148D","","276.3999996185303","img/land4.png","75","277.5","2","0","1","1","1,0.5,0.5,0.5,1,0.5,0.5,0.5,1","1,0.5,0.5,0.5,1,0.5,0.5,0.5,1","","",""
"","html-keyboard-response","208","72702","0.0-208.0","3NS0A6KXC5U5RGYMGB6DGJFDRWSGZC","A1KZ97QBNRPVCT","32TMVRKDGNK89K6LLIZX5RPIVK148D","","null","<img src=""img/land4.png"" style=""width:200px;border:14px solid red;"">","null","","","","","","","","","",""
"","image-keyboard-response","209","72815","0.0-209.0","3NS0A6KXC5U5RGYMGB6DGJFDRWSGZC","A1KZ97QBNRPVCT","32TMVRKDGNK89K6LLIZX5RPIVK148D","","111.5","img/land6.png","75","112.5","2","1","3","1","1,0.5,0.5,0.5,1,0.5,0.5,0.5,1","1,0.5,0.5,0.5,1,0.5,0.5,0.5,1","","",""
"","html-keyboard-response","210","73118","0.0-210.0","3NS0A6KXC5U5RGYMGB6DGJFDRWSGZC","A1KZ97QBNRPVCT","32TMVRKDGNK89K6LLIZX5RPIVK148D","","null","<img src=""img/land6.png"" style=""width:200px; border:14px solid green;"">","null","","","","","","","","","",""
"","image-keyboard-response","211","73154","0.0-211.0","3NS0A6KXC5U5RGYMGB6DGJFDRWSGZC","A1KZ97QBNRPVCT","32TMVRKDGNK89K6LLIZX5RPIVK148D","","35.30000019073486","img/land6.png","74","36.29999923706055","1","0","3","1","1,0.5,0.5,0.5,1,0.5,0.5,0.5,1","1,0.5,0.5,0.5,1,0.5,0.5,0.5,1","","",""
"","html-keyboard-response","212","73459","0.0-212.0","3NS0A6KXC5U5RGYMGB6DGJFDRWSGZC","A1KZ97QBNRPVCT","32TMVRKDGNK89K6LLIZX5RPIVK148D","","null","<img src=""img/land6.png"" style=""width:200px;border:14px solid red;"">","null","","","","","","","","","",""
"","image-keyboard-response","213","73704","0.0-213.0","3NS0A6KXC5U5RGYMGB6DGJFDRWSGZC","A1KZ97QBNRPVCT","32TMVRKDGNK89K6LLIZX5RPIVK148D","","243.80000019073486","img/land6.png","74","245","1","0","3","1","1,0.5,0.5,0.5,1,0.5,0.5,0.5,1","1,0.5,0.5,0.5,1,0.5,0.5,0.5,1","","",""
"","html-keyboard-response","214","74013","0.0-214.0","3NS0A6KXC5U5RGYMGB6DGJFDRWSGZC","A1KZ97QBNRPVCT","32TMVRKDGNK89K6LLIZX5RPIVK148D","","null","<img src=""img/land6.png"" style=""width:200px;border:14px solid red;"">","null","","","","","","","","","",""
"","image-keyboard-response","215","74104","0.0-215.0","3NS0A6KXC5U5RGYMGB6DGJFDRWSGZC","A1KZ97QBNRPVCT","32TMVRKDGNK89K6LLIZX5RPIVK148D","","90.10000038146973","img/land6.png","76","91.19999980926514","3","1","3","1","1,0.5,0.5,0.5,1,0.5,0.5,0.5,1","1,0.5,0.5,0.5,1,0.5,0.5,0.5,1","","",""
"","html-keyboard-response","216","74414","0.0-216.0","3NS0A6KXC5U5RGYMGB6DGJFDRWSGZC","A1KZ97QBNRPVCT","32TMVRKDGNK89K6LLIZX5RPIVK148D","","null","<img src=""img/land6.png"" style=""width:200px; border:14px solid green;"">","null","","","","","","","","","",""
"","image-keyboard-response","217","74545","0.0-217.0","3NS0A6KXC5U5RGYMGB6DGJFDRWSGZC","A1KZ97QBNRPVCT","32TMVRKDGNK89K6LLIZX5RPIVK148D","","130.10000038146973","img/land6.png","76","131.0999994277954","3","1","3","1","1,0.5,0.5,0.5,1,0.5,0.5,0.5,1","1,0.5,0.5,0.5,1,0.5,0.5,0.5,1","","",""
"","html-keyboard-response","218","74887","0.0-218.0","3NS0A6KXC5U5RGYMGB6DGJFDRWSGZC","A1KZ97QBNRPVCT","32TMVRKDGNK89K6LLIZX5RPIVK148D","","null","<img src=""img/land6.png"" style=""width:200px; border:14px solid green;"">","null","","","","","","","","","",""
"","image-keyboard-response","219","74889","0.0-219.0","3NS0A6KXC5U5RGYMGB6DGJFDRWSGZC","A1KZ97QBNRPVCT","32TMVRKDGNK89K6LLIZX5RPIVK148D","","0.20000076293945312","img/land6.png","76","1","3","1","3","1","1,0.5,0.5,0.5,1,0.5,0.5,0.5,1","1,0.5,0.5,0.5,1,0.5,0.5,0.5,1","","",""
"","html-keyboard-response","220","75197","0.0-220.0","3NS0A6KXC5U5RGYMGB6DGJFDRWSGZC","A1KZ97QBNRPVCT","32TMVRKDGNK89K6LLIZX5RPIVK148D","","null","<img src=""img/land6.png"" style=""width:200px; border:14px solid green;"">","null","","","","","","","","","",""
"","image-keyboard-response","221","75335","0.0-221.0","3NS0A6KXC5U5RGYMGB6DGJFDRWSGZC","A1KZ97QBNRPVCT","32TMVRKDGNK89K6LLIZX5RPIVK148D","","136.69999980926514","img/land6.png","75","137.80000019073486","2","1","3","1","1,0.5,0.5,0.5,1,0.5,0.5,0.5,1","1,0.5,0.5,0.5,1,0.5,0.5,0.5,1","","",""
"","html-keyboard-response","222","75650","0.0-222.0","3NS0A6KXC5U5RGYMGB6DGJFDRWSGZC","A1KZ97QBNRPVCT","32TMVRKDGNK89K6LLIZX5RPIVK148D","","null","<img src=""img/land6.png"" style=""width:200px; border:14px solid green;"">","null","","","","","","","","","",""
"","image-keyboard-response","223","75673","0.0-223.0","3NS0A6KXC5U5RGYMGB6DGJFDRWSGZC","A1KZ97QBNRPVCT","32TMVRKDGNK89K6LLIZX5RPIVK148D","","21.5","img/land6.png","75","22.600000381469727","2","0","3","1","1,0.5,0.5,0.5,1,0.5,0.5,0.5,1","1,0.5,0.5,0.5,1,0.5,0.5,0.5,1","","",""
"","html-keyboard-response","224","75982","0.0-224.0","3NS0A6KXC5U5RGYMGB6DGJFDRWSGZC","A1KZ97QBNRPVCT","32TMVRKDGNK89K6LLIZX5RPIVK148D","","null","<img src=""img/land6.png"" style=""width:200px;border:14px solid red;"">","null","","","","","","","","","",""
"","image-keyboard-response","225","76016","0.0-225.0","3NS0A6KXC5U5RGYMGB6DGJFDRWSGZC","A1KZ97QBNRPVCT","32TMVRKDGNK89K6LLIZX5RPIVK148D","","33.10000038146973","img/land6.png","75","34.10000038146973","2","0","3","1","1,0.5,0.5,0.5,1,0.5,0.5,0.5,1","1,0.5,0.5,0.5,1,0.5,0.5,0.5,1","","",""
"","html-keyboard-response","226","76345","0.0-226.0","3NS0A6KXC5U5RGYMGB6DGJFDRWSGZC","A1KZ97QBNRPVCT","32TMVRKDGNK89K6LLIZX5RPIVK148D","","null","<img src=""img/land6.png"" style=""width:200px;border:14px solid red;"">","null","","","","","","","","","",""
"","image-keyboard-response","227","76409","0.0-227.0","3NS0A6KXC5U5RGYMGB6DGJFDRWSGZC","A1KZ97QBNRPVCT","32TMVRKDGNK89K6LLIZX5RPIVK148D","","62.40000057220459","img/land6.png","75","63.30000019073486","2","0","3","1","1,0.5,0.5,0.5,1,0.5,0.5,0.5,1","1,0.5,0.5,0.5,1,0.5,0.5,0.5,1","","",""
"","html-keyboard-response","228","76718","0.0-228.0","3NS0A6KXC5U5RGYMGB6DGJFDRWSGZC","A1KZ97QBNRPVCT","32TMVRKDGNK89K6LLIZX5RPIVK148D","","null","<img src=""img/land6.png"" style=""width:200px;border:14px solid red;"">","null","","","","","","","","","",""
"","image-keyboard-response","229","76954","0.0-229.0","3NS0A6KXC5U5RGYMGB6DGJFDRWSGZC","A1KZ97QBNRPVCT","32TMVRKDGNK89K6LLIZX5RPIVK148D","","234.9000005722046","img/land6.png","75","236","2","0","3","1","1,0.5,0.5,0.5,1,0.5,0.5,0.5,1","1,0.5,0.5,0.5,1,0.5,0.5,0.5,1","","",""
"","html-keyboard-response","230","77262","0.0-230.0","3NS0A6KXC5U5RGYMGB6DGJFDRWSGZC","A1KZ97QBNRPVCT","32TMVRKDGNK89K6LLIZX5RPIVK148D","","null","<img src=""img/land6.png"" style=""width:200px;border:14px solid red;"">","null","","","","","","","","","",""
"","image-keyboard-response","231","77364","0.0-231.0","3NS0A6KXC5U5RGYMGB6DGJFDRWSGZC","A1KZ97QBNRPVCT","32TMVRKDGNK89K6LLIZX5RPIVK148D","","101","img/land6.png","75","102","2","1","3","1","1,0.5,0.5,0.5,1,0.5,0.5,0.5,1","1,0.5,0.5,0.5,1,0.5,0.5,0.5,1","","",""
"","html-keyboard-response","232","77669","0.0-232.0","3NS0A6KXC5U5RGYMGB6DGJFDRWSGZC","A1KZ97QBNRPVCT","32TMVRKDGNK89K6LLIZX5RPIVK148D","","null","<img src=""img/land6.png"" style=""width:200px; border:14px solid green;"">","null","","","","","","","","","",""
"","image-keyboard-response","233","77724","0.0-233.0","3NS0A6KXC5U5RGYMGB6DGJFDRWSGZC","A1KZ97QBNRPVCT","32TMVRKDGNK89K6LLIZX5RPIVK148D","","54.30000019073486","img/land6.png","75","55.39999961853027","2","0","3","1","1,0.5,0.5,0.5,1,0.5,0.5,0.5,1","1,0.5,0.5,0.5,1,0.5,0.5,0.5,1","","",""
"","html-keyboard-response","234","78029","0.0-234.0","3NS0A6KXC5U5RGYMGB6DGJFDRWSGZC","A1KZ97QBNRPVCT","32TMVRKDGNK89K6LLIZX5RPIVK148D","","null","<img src=""img/land6.png"" style=""width:200px;border:14px solid red;"">","null","","","","","","","","","",""
"","image-keyboard-response","235","78045","0.0-235.0","3NS0A6KXC5U5RGYMGB6DGJFDRWSGZC","A1KZ97QBNRPVCT","32TMVRKDGNK89K6LLIZX5RPIVK148D","","13.90000057220459","img/land4.png","75","15.799999237060547","2","1","1","1","1,0.5,0.5,0.5,1,0.5,0.5,0.5,1","1,0.5,0.5,0.5,1,0.5,0.5,0.5,1","","",""
"","html-keyboard-response","236","78349","0.0-236.0","3NS0A6KXC5U5RGYMGB6DGJFDRWSGZC","A1KZ97QBNRPVCT","32TMVRKDGNK89K6LLIZX5RPIVK148D","","null","<img src=""img/land4.png"" style=""width:200px; border:14px solid green;"">","null","","","","","","","","","",""
"","image-keyboard-response","237","78389","0.0-237.0","3NS0A6KXC5U5RGYMGB6DGJFDRWSGZC","A1KZ97QBNRPVCT","32TMVRKDGNK89K6LLIZX5RPIVK148D","","39.39999961853027","img/land5.png","75","40.39999961853027","2","1","2","1","1,0.5,0.5,0.5,1,0.5,0.5,0.5,1","1,0.5,0.5,0.5,1,0.5,0.5,0.5,1","","",""
"","html-keyboard-response","238","78694","0.0-238.0","3NS0A6KXC5U5RGYMGB6DGJFDRWSGZC","A1KZ97QBNRPVCT","32TMVRKDGNK89K6LLIZX5RPIVK148D","","null","<img src=""img/land5.png"" style=""width:200px; border:14px solid green;"">","null","","","","","","","","","",""
"","image-keyboard-response","239","78774","0.0-239.0","3NS0A6KXC5U5RGYMGB6DGJFDRWSGZC","A1KZ97QBNRPVCT","32TMVRKDGNK89K6LLIZX5RPIVK148D","","79.09999942779541","img/land6.png","75","80.10000038146973","2","1","3","1","1,0.5,0.5,0.5,1,0.5,0.5,0.5,1","1,0.5,0.5,0.5,1,0.5,0.5,0.5,1","","",""
"","html-keyboard-response","240","79077","0.0-240.0","3NS0A6KXC5U5RGYMGB6DGJFDRWSGZC","A1KZ97QBNRPVCT","32TMVRKDGNK89K6LLIZX5RPIVK148D","","null","<img src=""img/land6.png"" style=""width:200px; border:14px solid green;"">","null","","","","","","","","","",""
"","image-keyboard-response","241","79194","0.0-241.0","3NS0A6KXC5U5RGYMGB6DGJFDRWSGZC","A1KZ97QBNRPVCT","32TMVRKDGNK89K6LLIZX5RPIVK148D","","116.39999961853027","img/land6.png","75","117.39999961853027","2","0","3","1","1,0.5,0.5,0.5,1,0.5,0.5,0.5,1","1,0.5,0.5,0.5,1,0.5,0.5,0.5,1","","",""
"","html-keyboard-response","242","79501","0.0-242.0","3NS0A6KXC5U5RGYMGB6DGJFDRWSGZC","A1KZ97QBNRPVCT","32TMVRKDGNK89K6LLIZX5RPIVK148D","","null","<img src=""img/land6.png"" style=""width:200px;border:14px solid red;"">","null","","","","","","","","","",""
"","image-keyboard-response","243","79545","0.0-243.0","3NS0A6KXC5U5RGYMGB6DGJFDRWSGZC","A1KZ97QBNRPVCT","32TMVRKDGNK89K6LLIZX5RPIVK148D","","42.69999980926514","img/land6.png","75","43.89999961853027","2","1","3","1","1,0.5,0.5,0.5,1,0.5,0.5,0.5,1","1,0.5,0.5,0.5,1,0.5,0.5,0.5,1","","",""
"","html-keyboard-response","244","79853","0.0-244.0","3NS0A6KXC5U5RGYMGB6DGJFDRWSGZC","A1KZ97QBNRPVCT","32TMVRKDGNK89K6LLIZX5RPIVK148D","","null","<img src=""img/land6.png"" style=""width:200px; border:14px solid green;"">","null","","","","","","","","","",""
"","image-keyboard-response","245","80084","0.0-245.0","3NS0A6KXC5U5RGYMGB6DGJFDRWSGZC","A1KZ97QBNRPVCT","32TMVRKDGNK89K6LLIZX5RPIVK148D","","230.10000038146973","img/land6.png","75","231.19999980926514","2","0","3","1","1,0.5,0.5,0.5,1,0.5,0.5,0.5,1","1,0.5,0.5,0.5,1,0.5,0.5,0.5,1","","",""
"","html-keyboard-response","246","80388","0.0-246.0","3NS0A6KXC5U5RGYMGB6DGJFDRWSGZC","A1KZ97QBNRPVCT","32TMVRKDGNK89K6LLIZX5RPIVK148D","","null","<img src=""img/land6.png"" style=""width:200px;border:14px solid red;"">","null","","","","","","","","","",""
"","image-keyboard-response","247","80434","0.0-247.0","3NS0A6KXC5U5RGYMGB6DGJFDRWSGZC","A1KZ97QBNRPVCT","32TMVRKDGNK89K6LLIZX5RPIVK148D","","45.10000038146973","img/land6.png","74","46.10000038146973","1","0","3","1","1,0.5,0.5,0.5,1,0.5,0.5,0.5,1","1,0.5,0.5,0.5,1,0.5,0.5,0.5,1","","",""
"","html-keyboard-response","248","80741","0.0-248.0","3NS0A6KXC5U5RGYMGB6DGJFDRWSGZC","A1KZ97QBNRPVCT","32TMVRKDGNK89K6LLIZX5RPIVK148D","","null","<img src=""img/land6.png"" style=""width:200px;border:14px solid red;"">","null","","","","","","","","","",""
"","image-keyboard-response","249","80874","0.0-249.0","3NS0A6KXC5U5RGYMGB6DGJFDRWSGZC","A1KZ97QBNRPVCT","32TMVRKDGNK89K6LLIZX5RPIVK148D","","132.30000019073486","img/land4.png","76","133.39999961853027","3","1","1","1","1,0.5,0.5,0.5,1,0.5,0.5,0.5,1","1,0.5,0.5,0.5,1,0.5,0.5,0.5,1","","",""
"","html-keyboard-response","250","81181","0.0-250.0","3NS0A6KXC5U5RGYMGB6DGJFDRWSGZC","A1KZ97QBNRPVCT","32TMVRKDGNK89K6LLIZX5RPIVK148D","","null","<img src=""img/land4.png"" style=""width:200px; border:14px solid green;"">","null","","","","","","","","","",""
"","image-keyboard-response","251","81214","0.0-251.0","3NS0A6KXC5U5RGYMGB6DGJFDRWSGZC","A1KZ97QBNRPVCT","32TMVRKDGNK89K6LLIZX5RPIVK148D","","32","img/land6.png","75","33","2","0","3","1","1,0.5,0.5,0.5,1,0.5,0.5,0.5,1","1,0.5,0.5,0.5,1,0.5,0.5,0.5,1","","",""
"","html-keyboard-response","252","81517","0.0-252.0","3NS0A6KXC5U5RGYMGB6DGJFDRWSGZC","A1KZ97QBNRPVCT","32TMVRKDGNK89K6LLIZX5RPIVK148D","","null","<img src=""img/land6.png"" style=""width:200px;border:14px solid red;"">","null","","","","","","","","","",""
"","image-keyboard-response","253","81584","0.0-253.0","3NS0A6KXC5U5RGYMGB6DGJFDRWSGZC","A1KZ97QBNRPVCT","32TMVRKDGNK89K6LLIZX5RPIVK148D","","66.30000019073486","img/land4.png","74","67.29999923706055","1","1","1","1","1,0.5,0.5,0.5,1,0.5,0.5,0.5,1","1,0.5,0.5,0.5,1,0.5,0.5,0.5,1","","",""
"","html-keyboard-response","254","81893","0.0-254.0","3NS0A6KXC5U5RGYMGB6DGJFDRWSGZC","A1KZ97QBNRPVCT","32TMVRKDGNK89K6LLIZX5RPIVK148D","","null","<img src=""img/land4.png"" style=""width:200px; border:14px solid green;"">","null","","","","","","","","","",""
"","image-keyboard-response","255","82034","0.0-255.0","3NS0A6KXC5U5RGYMGB6DGJFDRWSGZC","A1KZ97QBNRPVCT","32TMVRKDGNK89K6LLIZX5RPIVK148D","","140.20000076293945","img/land6.png","76","141.39999961853027","3","1","3","1","1,0.5,0.5,0.5,1,0.5,0.5,0.5,1","1,0.5,0.5,0.5,1,0.5,0.5,0.5,1","","",""
"","html-keyboard-response","256","82341","0.0-256.0","3NS0A6KXC5U5RGYMGB6DGJFDRWSGZC","A1KZ97QBNRPVCT","32TMVRKDGNK89K6LLIZX5RPIVK148D","","null","<img src=""img/land6.png"" style=""width:200px; border:14px solid green;"">","null","","","","","","","","","",""
"","image-keyboard-response","257","82424","0.0-257.0","3NS0A6KXC5U5RGYMGB6DGJFDRWSGZC","A1KZ97QBNRPVCT","32TMVRKDGNK89K6LLIZX5RPIVK148D","","82.10000038146973","img/land6.png","76","83.19999980926514","3","1","3","1","1,0.5,0.5,0.5,1,0.5,0.5,0.5,1","1,0.5,0.5,0.5,1,0.5,0.5,0.5,1","","",""
"","html-keyboard-response","258","82733","0.0-258.0","3NS0A6KXC5U5RGYMGB6DGJFDRWSGZC","A1KZ97QBNRPVCT","32TMVRKDGNK89K6LLIZX5RPIVK148D","","null","<img src=""img/land6.png"" style=""width:200px; border:14px solid green;"">","null","","","","","","","","","",""
"","image-keyboard-response","259","82794","0.0-259.0","3NS0A6KXC5U5RGYMGB6DGJFDRWSGZC","A1KZ97QBNRPVCT","32TMVRKDGNK89K6LLIZX5RPIVK148D","","60.5","img/land5.png","75","61.5","2","1","2","1","1,0.5,0.5,0.5,1,0.5,0.5,0.5,1","1,0.5,0.5,0.5,1,0.5,0.5,0.5,1","","",""
"","html-keyboard-response","260","83101","0.0-260.0","3NS0A6KXC5U5RGYMGB6DGJFDRWSGZC","A1KZ97QBNRPVCT","32TMVRKDGNK89K6LLIZX5RPIVK148D","","null","<img src=""img/land5.png"" style=""width:200px; border:14px solid green;"">","null","","","","","","","","","",""
"","image-keyboard-response","261","83174","0.0-261.0","3NS0A6KXC5U5RGYMGB6DGJFDRWSGZC","A1KZ97QBNRPVCT","32TMVRKDGNK89K6LLIZX5RPIVK148D","","72.30000019073486","img/land5.png","74","73.30000019073486","1","1","2","1","1,0.5,0.5,0.5,1,0.5,0.5,0.5,1","1,0.5,0.5,0.5,1,0.5,0.5,0.5,1","","",""
"","html-keyboard-response","262","83477","0.0-262.0","3NS0A6KXC5U5RGYMGB6DGJFDRWSGZC","A1KZ97QBNRPVCT","32TMVRKDGNK89K6LLIZX5RPIVK148D","","null","<img src=""img/land5.png"" style=""width:200px; border:14px solid green;"">","null","","","","","","","","","",""
"","image-keyboard-response","263","83704","0.0-263.0","3NS0A6KXC5U5RGYMGB6DGJFDRWSGZC","A1KZ97QBNRPVCT","32TMVRKDGNK89K6LLIZX5RPIVK148D","","226.19999980926514","img/land6.png","74","227.19999980926514","1","1","3","1","1,0.5,0.5,0.5,1,0.5,0.5,0.5,1","1,0.5,0.5,0.5,1,0.5,0.5,0.5,1","","",""
"","html-keyboard-response","264","84013","0.0-264.0","3NS0A6KXC5U5RGYMGB6DGJFDRWSGZC","A1KZ97QBNRPVCT","32TMVRKDGNK89K6LLIZX5RPIVK148D","","null","<img src=""img/land6.png"" style=""width:200px; border:14px solid green;"">","null","","","","","","","","","",""
"","image-keyboard-response","265","84024","0.0-265.0","3NS0A6KXC5U5RGYMGB6DGJFDRWSGZC","A1KZ97QBNRPVCT","32TMVRKDGNK89K6LLIZX5RPIVK148D","","10.100000381469727","img/land6.png","75","11.09999942779541","2","0","3","1","1,0.5,0.5,0.5,1,0.5,0.5,0.5,1","1,0.5,0.5,0.5,1,0.5,0.5,0.5,1","","",""
"","html-keyboard-response","266","84334","0.0-266.0","3NS0A6KXC5U5RGYMGB6DGJFDRWSGZC","A1KZ97QBNRPVCT","32TMVRKDGNK89K6LLIZX5RPIVK148D","","null","<img src=""img/land6.png"" style=""width:200px;border:14px solid red;"">","null","","","","","","","","","",""
"","image-keyboard-response","267","84404","0.0-267.0","3NS0A6KXC5U5RGYMGB6DGJFDRWSGZC","A1KZ97QBNRPVCT","32TMVRKDGNK89K6LLIZX5RPIVK148D","","69.19999980926514","img/land6.png","74","70.19999980926514","1","1","3","1","1,0.5,0.5,0.5,1,0.5,0.5,0.5,1","1,0.5,0.5,0.5,1,0.5,0.5,0.5,1","","",""
"","html-keyboard-response","268","84710","0.0-268.0","3NS0A6KXC5U5RGYMGB6DGJFDRWSGZC","A1KZ97QBNRPVCT","32TMVRKDGNK89K6LLIZX5RPIVK148D","","null","<img src=""img/land6.png"" style=""width:200px; border:14px solid green;"">","null","","","","","","","","","",""
"","image-keyboard-response","269","84924","0.0-269.0","3NS0A6KXC5U5RGYMGB6DGJFDRWSGZC","A1KZ97QBNRPVCT","32TMVRKDGNK89K6LLIZX5RPIVK148D","","213.10000038146973","img/land6.png","76","214.19999980926514","3","1","3","1","1,0.5,0.5,0.5,1,0.5,0.5,0.5,1","1,0.5,0.5,0.5,1,0.5,0.5,0.5,1","","",""
"","html-keyboard-response","270","85230","0.0-270.0","3NS0A6KXC5U5RGYMGB6DGJFDRWSGZC","A1KZ97QBNRPVCT","32TMVRKDGNK89K6LLIZX5RPIVK148D","","null","<img src=""img/land6.png"" style=""width:200px; border:14px solid green;"">","null","","","","","","","","","",""
"","image-keyboard-response","271","85474","0.0-271.0","3NS0A6KXC5U5RGYMGB6DGJFDRWSGZC","A1KZ97QBNRPVCT","32TMVRKDGNK89K6LLIZX5RPIVK148D","","242.10000038146973","img/land6.png","75","243.89999961853027","2","1","3","1","1,0.5,0.5,0.5,1,0.5,0.5,0.5,1","1,0.5,0.5,0.5,1,0.5,0.5,0.5,1","","",""
"","html-keyboard-response","272","85782","0.0-272.0","3NS0A6KXC5U5RGYMGB6DGJFDRWSGZC","A1KZ97QBNRPVCT","32TMVRKDGNK89K6LLIZX5RPIVK148D","","null","<img src=""img/land6.png"" style=""width:200px; border:14px solid green;"">","null","","","","","","","","","",""
"","image-keyboard-response","273","85845","0.0-273.0","3NS0A6KXC5U5RGYMGB6DGJFDRWSGZC","A1KZ97QBNRPVCT","32TMVRKDGNK89K6LLIZX5RPIVK148D","","61.5","img/land4.png","75","62.40000057220459","2","0","1","1","1,0.5,0.5,0.5,1,0.5,0.5,0.5,1","1,0.5,0.5,0.5,1,0.5,0.5,0.5,1","","",""
"","html-keyboard-response","274","86149","0.0-274.0","3NS0A6KXC5U5RGYMGB6DGJFDRWSGZC","A1KZ97QBNRPVCT","32TMVRKDGNK89K6LLIZX5RPIVK148D","","null","<img src=""img/land4.png"" style=""width:200px;border:14px solid red;"">","null","","","","","","","","","",""
"","image-keyboard-response","275","86354","0.0-275.0","3NS0A6KXC5U5RGYMGB6DGJFDRWSGZC","A1KZ97QBNRPVCT","32TMVRKDGNK89K6LLIZX5RPIVK148D","","203.79999923706055","img/land6.png","75","205","2","1","3","1","1,0.5,0.5,0.5,1,0.5,0.5,0.5,1","1,0.5,0.5,0.5,1,0.5,0.5,0.5,1","","",""
"","html-keyboard-response","276","86662","0.0-276.0","3NS0A6KXC5U5RGYMGB6DGJFDRWSGZC","A1KZ97QBNRPVCT","32TMVRKDGNK89K6LLIZX5RPIVK148D","","null","<img src=""img/land6.png"" style=""width:200px; border:14px solid green;"">","null","","","","","","","","","",""
"","image-keyboard-response","277","86714","0.0-277.0","3NS0A6KXC5U5RGYMGB6DGJFDRWSGZC","A1KZ97QBNRPVCT","32TMVRKDGNK89K6LLIZX5RPIVK148D","","51.19999980926514","img/land6.png","74","52.09999942779541","1","0","3","1","1,0.5,0.5,0.5,1,0.5,0.5,0.5,1","1,0.5,0.5,0.5,1,0.5,0.5,0.5,1","","",""
"","html-keyboard-response","278","87021","0.0-278.0","3NS0A6KXC5U5RGYMGB6DGJFDRWSGZC","A1KZ97QBNRPVCT","32TMVRKDGNK89K6LLIZX5RPIVK148D","","null","<img src=""img/land6.png"" style=""width:200px;border:14px solid red;"">","null","","","","","","","","","",""
"","image-keyboard-response","279","87194","0.0-279.0","3NS0A6KXC5U5RGYMGB6DGJFDRWSGZC","A1KZ97QBNRPVCT","32TMVRKDGNK89K6LLIZX5RPIVK148D","","172","img/land6.png","74","173.0999994277954","1","1","3","1","1,0.5,0.5,0.5,1,0.5,0.5,0.5,1","1,0.5,0.5,0.5,1,0.5,0.5,0.5,1","","",""
"","html-keyboard-response","280","87501","0.0-280.0","3NS0A6KXC5U5RGYMGB6DGJFDRWSGZC","A1KZ97QBNRPVCT","32TMVRKDGNK89K6LLIZX5RPIVK148D","","null","<img src=""img/land6.png"" style=""width:200px; border:14px solid green;"">","null","","","","","","","","","",""
"","image-keyboard-response","281","87615","0.0-281.0","3NS0A6KXC5U5RGYMGB6DGJFDRWSGZC","A1KZ97QBNRPVCT","32TMVRKDGNK89K6LLIZX5RPIVK148D","","112.69999980926514","img/land6.png","76","113.69999980926514","3","1","3","1","1,0.5,0.5,0.5,1,0.5,0.5,0.5,1","1,0.5,0.5,0.5,1,0.5,0.5,0.5,1","","",""
"","html-keyboard-response","282","87918","0.0-282.0","3NS0A6KXC5U5RGYMGB6DGJFDRWSGZC","A1KZ97QBNRPVCT","32TMVRKDGNK89K6LLIZX5RPIVK148D","","null","<img src=""img/land6.png"" style=""width:200px; border:14px solid green;"">","null","","","","","","","","","",""
"","image-keyboard-response","283","88154","0.0-283.0","3NS0A6KXC5U5RGYMGB6DGJFDRWSGZC","A1KZ97QBNRPVCT","32TMVRKDGNK89K6LLIZX5RPIVK148D","","234.80000019073486","img/land5.png","76","235.89999961853027","3","1","2","1","1,0.5,0.5,0.5,1,0.5,0.5,0.5,1","1,0.5,0.5,0.5,1,0.5,0.5,0.5,1","","",""
"","html-keyboard-response","284","88660","0.0-284.0","3NS0A6KXC5U5RGYMGB6DGJFDRWSGZC","A1KZ97QBNRPVCT","32TMVRKDGNK89K6LLIZX5RPIVK148D","","null","<img src=""img/land5.png"" style=""width:200px; border:14px solid green;"">","null","","","","","","","","","",""
"","image-keyboard-response","285","88664","0.0-285.0","3NS0A6KXC5U5RGYMGB6DGJFDRWSGZC","A1KZ97QBNRPVCT","32TMVRKDGNK89K6LLIZX5RPIVK148D","","1.8999996185302734","img/land5.png","75","2.8000001907348633","2","1","2","1","1,0.5,0.5,0.5,1,0.5,0.5,0.5,1","1,0.5,0.5,0.5,1,0.5,0.5,0.5,1","","",""
"","html-keyboard-response","286","89026","0.0-286.0","3NS0A6KXC5U5RGYMGB6DGJFDRWSGZC","A1KZ97QBNRPVCT","32TMVRKDGNK89K6LLIZX5RPIVK148D","","null","<img src=""img/land5.png"" style=""width:200px; border:14px solid green;"">","null","","","","","","","","","",""
"","image-keyboard-response","287","89407","0.0-287.0","3NS0A6KXC5U5RGYMGB6DGJFDRWSGZC","A1KZ97QBNRPVCT","32TMVRKDGNK89K6LLIZX5RPIVK148D","","379.69999980926514","img/land6.png","74","380.70000076293945","1","0","3","1","1,0.5,0.5,0.5,1,0.5,0.5,0.5,1","1,0.5,0.5,0.5,1,0.5,0.5,0.5,1","","",""
"","html-keyboard-response","288","89992","0.0-288.0","3NS0A6KXC5U5RGYMGB6DGJFDRWSGZC","A1KZ97QBNRPVCT","32TMVRKDGNK89K6LLIZX5RPIVK148D","","null","<img src=""img/land6.png"" style=""width:200px;border:14px solid red;"">","null","","","","","","","","","",""
"","image-keyboard-response","289","90194","0.0-289.0","3NS0A6KXC5U5RGYMGB6DGJFDRWSGZC","A1KZ97QBNRPVCT","32TMVRKDGNK89K6LLIZX5RPIVK148D","","200","img/land5.png","75","201.19999980926514","2","1","2","1","1,0.5,0.5,0.5,1,0.5,0.5,0.5,1","1,0.5,0.5,0.5,1,0.5,0.5,0.5,1","","",""
"","html-keyboard-response","290","90577","0.0-290.0","3NS0A6KXC5U5RGYMGB6DGJFDRWSGZC","A1KZ97QBNRPVCT","32TMVRKDGNK89K6LLIZX5RPIVK148D","","null","<img src=""img/land5.png"" style=""width:200px; border:14px solid green;"">","null","","","","","","","","","",""
"","image-keyboard-response","291","90773","0.0-291.0","3NS0A6KXC5U5RGYMGB6DGJFDRWSGZC","A1KZ97QBNRPVCT","32TMVRKDGNK89K6LLIZX5RPIVK148D","","194.60000038146973","img/land6.png","75","195.79999923706055","2","0","3","1","1,0.5,0.5,0.5,1,0.5,0.5,0.5,1","1,0.5,0.5,0.5,1,0.5,0.5,0.5,1","","",""
"","html-keyboard-response","292","91196","0.0-292.0","3NS0A6KXC5U5RGYMGB6DGJFDRWSGZC","A1KZ97QBNRPVCT","32TMVRKDGNK89K6LLIZX5RPIVK148D","","null","<img src=""img/land6.png"" style=""width:200px;border:14px solid red;"">","null","","","","","","","","","",""
"","image-keyboard-response","293","91502","0.0-293.0","3NS0A6KXC5U5RGYMGB6DGJFDRWSGZC","A1KZ97QBNRPVCT","32TMVRKDGNK89K6LLIZX5RPIVK148D","","304.80000019073486","img/land4.png","76","305.69999980926514","3","0","1","1","1,0.5,0.5,0.5,1,0.5,0.5,0.5,1","1,0.5,0.5,0.5,1,0.5,0.5,0.5,1","","",""
"","html-keyboard-response","294","91806","0.0-294.0","3NS0A6KXC5U5RGYMGB6DGJFDRWSGZC","A1KZ97QBNRPVCT","32TMVRKDGNK89K6LLIZX5RPIVK148D","","null","<img src=""img/land4.png"" style=""width:200px;border:14px solid red;"">","null","","","","","","","","","",""
"","image-keyboard-response","295","91814","0.0-295.0","3NS0A6KXC5U5RGYMGB6DGJFDRWSGZC","A1KZ97QBNRPVCT","32TMVRKDGNK89K6LLIZX5RPIVK148D","","6.899999618530273","img/land5.png","75","7.899999618530273","2","1","2","1","1,0.5,0.5,0.5,1,0.5,0.5,0.5,1","1,0.5,0.5,0.5,1,0.5,0.5,0.5,1","","",""
"","html-keyboard-response","296","92118","0.0-296.0","3NS0A6KXC5U5RGYMGB6DGJFDRWSGZC","A1KZ97QBNRPVCT","32TMVRKDGNK89K6LLIZX5RPIVK148D","","null","<img src=""img/land5.png"" style=""width:200px; border:14px solid green;"">","null","","","","","","","","","",""
"","image-keyboard-response","297","92174","0.0-297.0","3NS0A6KXC5U5RGYMGB6DGJFDRWSGZC","A1KZ97QBNRPVCT","32TMVRKDGNK89K6LLIZX5RPIVK148D","","54.89999961853027","img/land6.png","74","56","1","1","3","1","1,0.5,0.5,0.5,1,0.5,0.5,0.5,1","1,0.5,0.5,0.5,1,0.5,0.5,0.5,1","","",""
"","html-keyboard-response","298","92478","0.0-298.0","3NS0A6KXC5U5RGYMGB6DGJFDRWSGZC","A1KZ97QBNRPVCT","32TMVRKDGNK89K6LLIZX5RPIVK148D","","null","<img src=""img/land6.png"" style=""width:200px; border:14px solid green;"">","null","","","","","","","","","",""
"","image-keyboard-response","299","92535","0.0-299.0","3NS0A6KXC5U5RGYMGB6DGJFDRWSGZC","A1KZ97QBNRPVCT","32TMVRKDGNK89K6LLIZX5RPIVK148D","","55.80000019073486","img/land5.png","76","56.80000019073486","3","1","2","1","1,0.5,0.5,0.5,1,0.5,0.5,0.5,1","1,0.5,0.5,0.5,1,0.5,0.5,0.5,1","","",""
"","html-keyboard-response","300","92838","0.0-300.0","3NS0A6KXC5U5RGYMGB6DGJFDRWSGZC","A1KZ97QBNRPVCT","32TMVRKDGNK89K6LLIZX5RPIVK148D","","null","<img src=""img/land5.png"" style=""width:200px; border:14px solid green;"">","null","","","","","","","","","",""
"","image-keyboard-response","301","92994","0.0-301.0","3NS0A6KXC5U5RGYMGB6DGJFDRWSGZC","A1KZ97QBNRPVCT","32TMVRKDGNK89K6LLIZX5RPIVK148D","","154.60000038146973","img/land4.png","76","155.69999980926514","3","0","1","1","1,0.5,0.5,0.5,1,0.5,0.5,0.5,1","1,0.5,0.5,0.5,1,0.5,0.5,0.5,1","","",""
"","html-keyboard-response","302","93301","0.0-302.0","3NS0A6KXC5U5RGYMGB6DGJFDRWSGZC","A1KZ97QBNRPVCT","32TMVRKDGNK89K6LLIZX5RPIVK148D","","null","<img src=""img/land4.png"" style=""width:200px;border:14px solid red;"">","null","","","","","","","","","",""
"","image-keyboard-response","303","93524","0.0-303.0","3NS0A6KXC5U5RGYMGB6DGJFDRWSGZC","A1KZ97QBNRPVCT","32TMVRKDGNK89K6LLIZX5RPIVK148D","","221.60000038146973","img/land6.png","76","222.79999923706055","3","1","3","1","1,0.5,0.5,0.5,1,0.5,0.5,0.5,1","1,0.5,0.5,0.5,1,0.5,0.5,0.5,1","","",""
"","html-keyboard-response","304","93830","0.0-304.0","3NS0A6KXC5U5RGYMGB6DGJFDRWSGZC","A1KZ97QBNRPVCT","32TMVRKDGNK89K6LLIZX5RPIVK148D","","null","<img src=""img/land6.png"" style=""width:200px; border:14px solid green;"">","null","","","","","","","","","",""
"","image-keyboard-response","305","94064","0.0-305.0","3NS0A6KXC5U5RGYMGB6DGJFDRWSGZC","A1KZ97QBNRPVCT","32TMVRKDGNK89K6LLIZX5RPIVK148D","","232.79999923706055","img/land6.png","76","234.39999961853027","3","1","3","1","1,0.5,0.5,0.5,1,0.5,0.5,0.5,1","1,0.5,0.5,0.5,1,0.5,0.5,0.5,1","","",""
"","html-keyboard-response","306","94374","0.0-306.0","3NS0A6KXC5U5RGYMGB6DGJFDRWSGZC","A1KZ97QBNRPVCT","32TMVRKDGNK89K6LLIZX5RPIVK148D","","null","<img src=""img/land6.png"" style=""width:200px; border:14px solid green;"">","null","","","","","","","","","",""
"","image-keyboard-response","307","94384","0.0-307.0","3NS0A6KXC5U5RGYMGB6DGJFDRWSGZC","A1KZ97QBNRPVCT","32TMVRKDGNK89K6LLIZX5RPIVK148D","","8.700000762939453","img/land4.png","75","9.699999809265137","2","1","1","1","1,0.5,0.5,0.5,1,0.5,0.5,0.5,1","1,0.5,0.5,0.5,1,0.5,0.5,0.5,1","","",""
"","html-keyboard-response","308","94685","0.0-308.0","3NS0A6KXC5U5RGYMGB6DGJFDRWSGZC","A1KZ97QBNRPVCT","32TMVRKDGNK89K6LLIZX5RPIVK148D","","null","<img src=""img/land4.png"" style=""width:200px; border:14px solid green;"">","null","","","","","","","","","",""
"","image-keyboard-response","309","94804","0.0-309.0","3NS0A6KXC5U5RGYMGB6DGJFDRWSGZC","A1KZ97QBNRPVCT","32TMVRKDGNK89K6LLIZX5RPIVK148D","","117.80000019073486","img/land6.png","75","119","2","0","3","1","1,0.5,0.5,0.5,1,0.5,0.5,0.5,1","1,0.5,0.5,0.5,1,0.5,0.5,0.5,1","","",""
"","html-keyboard-response","310","95110","0.0-310.0","3NS0A6KXC5U5RGYMGB6DGJFDRWSGZC","A1KZ97QBNRPVCT","32TMVRKDGNK89K6LLIZX5RPIVK148D","","null","<img src=""img/land6.png"" style=""width:200px;border:14px solid red;"">","null","","","","","","","","","",""
"","image-keyboard-response","311","95224","0.0-311.0","3NS0A6KXC5U5RGYMGB6DGJFDRWSGZC","A1KZ97QBNRPVCT","32TMVRKDGNK89K6LLIZX5RPIVK148D","","112.89999961853027","img/land6.png","75","114","2","1","3","1","1,0.5,0.5,0.5,1,0.5,0.5,0.5,1","1,0.5,0.5,0.5,1,0.5,0.5,0.5,1","","",""
"","html-keyboard-response","312","95534","0.0-312.0","3NS0A6KXC5U5RGYMGB6DGJFDRWSGZC","A1KZ97QBNRPVCT","32TMVRKDGNK89K6LLIZX5RPIVK148D","","null","<img src=""img/land6.png"" style=""width:200px; border:14px solid green;"">","null","","","","","","","","","",""
"","image-keyboard-response","313","95584","0.0-313.0","3NS0A6KXC5U5RGYMGB6DGJFDRWSGZC","A1KZ97QBNRPVCT","32TMVRKDGNK89K6LLIZX5RPIVK148D","","48.60000038146973","img/land5.png","75","49.60000038146973","2","1","2","1","1,0.5,0.5,0.5,1,0.5,0.5,0.5,1","1,0.5,0.5,0.5,1,0.5,0.5,0.5,1","","",""
"","html-keyboard-response","314","95894","0.0-314.0","3NS0A6KXC5U5RGYMGB6DGJFDRWSGZC","A1KZ97QBNRPVCT","32TMVRKDGNK89K6LLIZX5RPIVK148D","","null","<img src=""img/land5.png"" style=""width:200px; border:14px solid green;"">","null","","","","","","","","","",""
"","image-keyboard-response","315","95984","0.0-315.0","3NS0A6KXC5U5RGYMGB6DGJFDRWSGZC","A1KZ97QBNRPVCT","32TMVRKDGNK89K6LLIZX5RPIVK148D","","88.5","img/land5.png","75","89.69999980926514","2","1","2","1","1,0.5,0.5,0.5,1,0.5,0.5,0.5,1","1,0.5,0.5,0.5,1,0.5,0.5,0.5,1","","",""
"","html-keyboard-response","316","96293","0.0-316.0","3NS0A6KXC5U5RGYMGB6DGJFDRWSGZC","A1KZ97QBNRPVCT","32TMVRKDGNK89K6LLIZX5RPIVK148D","","null","<img src=""img/land5.png"" style=""width:200px; border:14px solid green;"">","null","","","","","","","","","",""
"","image-keyboard-response","317","96344","0.0-317.0","3NS0A6KXC5U5RGYMGB6DGJFDRWSGZC","A1KZ97QBNRPVCT","32TMVRKDGNK89K6LLIZX5RPIVK148D","","49.70000076293945","img/land6.png","75","50.79999923706055","2","1","3","1","1,0.5,0.5,0.5,1,0.5,0.5,0.5,1","1,0.5,0.5,0.5,1,0.5,0.5,0.5,1","","",""
"","html-keyboard-response","318","96654","0.0-318.0","3NS0A6KXC5U5RGYMGB6DGJFDRWSGZC","A1KZ97QBNRPVCT","32TMVRKDGNK89K6LLIZX5RPIVK148D","","null","<img src=""img/land6.png"" style=""width:200px; border:14px solid green;"">","null","","","","","","","","","",""
"","image-keyboard-response","319","96704","0.0-319.0","3NS0A6KXC5U5RGYMGB6DGJFDRWSGZC","A1KZ97QBNRPVCT","32TMVRKDGNK89K6LLIZX5RPIVK148D","","48.5","img/land6.png","75","49.5","2","0","3","1","1,0.5,0.5,0.5,1,0.5,0.5,0.5,1","1,0.5,0.5,0.5,1,0.5,0.5,0.5,1","","",""
"","html-keyboard-response","320","97013","0.0-320.0","3NS0A6KXC5U5RGYMGB6DGJFDRWSGZC","A1KZ97QBNRPVCT","32TMVRKDGNK89K6LLIZX5RPIVK148D","","null","<img src=""img/land6.png"" style=""width:200px;border:14px solid red;"">","null","","","","","","","","","",""
"","image-keyboard-response","321","97134","0.0-321.0","3NS0A6KXC5U5RGYMGB6DGJFDRWSGZC","A1KZ97QBNRPVCT","32TMVRKDGNK89K6LLIZX5RPIVK148D","","119.89999961853027","img/land5.png","75","121.10000038146973","2","1","2","1","1,0.5,0.5,0.5,1,0.5,0.5,0.5,1","1,0.5,0.5,0.5,1,0.5,0.5,0.5,1","","",""
"","html-keyboard-response","322","97437","0.0-322.0","3NS0A6KXC5U5RGYMGB6DGJFDRWSGZC","A1KZ97QBNRPVCT","32TMVRKDGNK89K6LLIZX5RPIVK148D","","null","<img src=""img/land5.png"" style=""width:200px; border:14px solid green;"">","null","","","","","","","","","",""
"","image-keyboard-response","323","97474","0.0-323.0","3NS0A6KXC5U5RGYMGB6DGJFDRWSGZC","A1KZ97QBNRPVCT","32TMVRKDGNK89K6LLIZX5RPIVK148D","","35.70000076293945","img/land6.png","75","36.60000038146973","2","1","3","1","1,0.5,0.5,0.5,1,0.5,0.5,0.5,1","1,0.5,0.5,0.5,1,0.5,0.5,0.5,1","","",""
"","html-keyboard-response","324","97782","0.0-324.0","3NS0A6KXC5U5RGYMGB6DGJFDRWSGZC","A1KZ97QBNRPVCT","32TMVRKDGNK89K6LLIZX5RPIVK148D","","null","<img src=""img/land6.png"" style=""width:200px; border:14px solid green;"">","null","","","","","","","","","",""
"","image-keyboard-response","325","97914","0.0-325.0","3NS0A6KXC5U5RGYMGB6DGJFDRWSGZC","A1KZ97QBNRPVCT","32TMVRKDGNK89K6LLIZX5RPIVK148D","","130.60000038146973","img/land5.png","75","131.5999994277954","2","1","2","1","1,0.5,0.5,0.5,1,0.5,0.5,0.5,1","1,0.5,0.5,0.5,1,0.5,0.5,0.5,1","","",""
"","html-keyboard-response","326","98221","0.0-326.0","3NS0A6KXC5U5RGYMGB6DGJFDRWSGZC","A1KZ97QBNRPVCT","32TMVRKDGNK89K6LLIZX5RPIVK148D","","null","<img src=""img/land5.png"" style=""width:200px; border:14px solid green;"">","null","","","","","","","","","",""
"","image-keyboard-response","327","98224","0.0-327.0","3NS0A6KXC5U5RGYMGB6DGJFDRWSGZC","A1KZ97QBNRPVCT","32TMVRKDGNK89K6LLIZX5RPIVK148D","","1.8000001907348633","img/land6.png","74","2.8999996185302734","1","0","3","1","1,0.5,0.5,0.5,1,0.5,0.5,0.5,1","1,0.5,0.5,0.5,1,0.5,0.5,0.5,1","","",""
"","html-keyboard-response","328","98534","0.0-328.0","3NS0A6KXC5U5RGYMGB6DGJFDRWSGZC","A1KZ97QBNRPVCT","32TMVRKDGNK89K6LLIZX5RPIVK148D","","null","<img src=""img/land6.png"" style=""width:200px;border:14px solid red;"">","null","","","","","","","","","",""
"","image-keyboard-response","329","98644","0.0-329.0","3NS0A6KXC5U5RGYMGB6DGJFDRWSGZC","A1KZ97QBNRPVCT","32TMVRKDGNK89K6LLIZX5RPIVK148D","","108.59999942779541","img/land4.png","76","109.59999942779541","3","0","1","1","1,0.5,0.5,0.5,1,0.5,0.5,0.5,1","1,0.5,0.5,0.5,1,0.5,0.5,0.5,1","","",""
"","html-keyboard-response","330","98949","0.0-330.0","3NS0A6KXC5U5RGYMGB6DGJFDRWSGZC","A1KZ97QBNRPVCT","32TMVRKDGNK89K6LLIZX5RPIVK148D","","null","<img src=""img/land4.png"" style=""width:200px;border:14px solid red;"">","null","","","","","","","","","",""
"","image-keyboard-response","331","99064","0.0-331.0","3NS0A6KXC5U5RGYMGB6DGJFDRWSGZC","A1KZ97QBNRPVCT","32TMVRKDGNK89K6LLIZX5RPIVK148D","","113.80000019073486","img/land6.png","76","114.89999961853027","3","1","3","1","1,0.5,0.5,0.5,1,0.5,0.5,0.5,1","1,0.5,0.5,0.5,1,0.5,0.5,0.5,1","","",""
"","html-keyboard-response","332","99373","0.0-332.0","3NS0A6KXC5U5RGYMGB6DGJFDRWSGZC","A1KZ97QBNRPVCT","32TMVRKDGNK89K6LLIZX5RPIVK148D","","null","<img src=""img/land6.png"" style=""width:200px; border:14px solid green;"">","null","","","","","","","","","",""
"","image-keyboard-response","333","99415","0.0-333.0","3NS0A6KXC5U5RGYMGB6DGJFDRWSGZC","A1KZ97QBNRPVCT","32TMVRKDGNK89K6LLIZX5RPIVK148D","","40.19999980926514","img/land4.png","75","41.39999961853027","2","0","1","1","1,0.5,0.5,0.5,1,0.5,0.5,0.5,1","1,0.5,0.5,0.5,1,0.5,0.5,0.5,1","","",""
"","html-keyboard-response","334","99718","0.0-334.0","3NS0A6KXC5U5RGYMGB6DGJFDRWSGZC","A1KZ97QBNRPVCT","32TMVRKDGNK89K6LLIZX5RPIVK148D","","null","<img src=""img/land4.png"" style=""width:200px;border:14px solid red;"">","null","","","","","","","","","",""
"","image-keyboard-response","335","99734","0.0-335.0","3NS0A6KXC5U5RGYMGB6DGJFDRWSGZC","A1KZ97QBNRPVCT","32TMVRKDGNK89K6LLIZX5RPIVK148D","","15.100000381469727","img/land4.png","74","16.199999809265137","1","1","1","1","1,0.5,0.5,0.5,1,0.5,0.5,0.5,1","1,0.5,0.5,0.5,1,0.5,0.5,0.5,1","","",""
"","html-keyboard-response","336","100038","0.0-336.0","3NS0A6KXC5U5RGYMGB6DGJFDRWSGZC","A1KZ97QBNRPVCT","32TMVRKDGNK89K6LLIZX5RPIVK148D","","null","<img src=""img/land4.png"" style=""width:200px; border:14px solid green;"">","null","","","","","","","","","",""
"","image-keyboard-response","337","100224","0.0-337.0","3NS0A6KXC5U5RGYMGB6DGJFDRWSGZC","A1KZ97QBNRPVCT","32TMVRKDGNK89K6LLIZX5RPIVK148D","","184.69999980926514","img/land4.png","76","185.89999961853027","3","1","1","1","1,0.5,0.5,0.5,1,0.5,0.5,0.5,1","1,0.5,0.5,0.5,1,0.5,0.5,0.5,1","","",""
"","html-keyboard-response","338","100533","0.0-338.0","3NS0A6KXC5U5RGYMGB6DGJFDRWSGZC","A1KZ97QBNRPVCT","32TMVRKDGNK89K6LLIZX5RPIVK148D","","null","<img src=""img/land4.png"" style=""width:200px; border:14px solid green;"">","null","","","","","","","","","",""
"","image-keyboard-response","339","100554","0.0-339.0","3NS0A6KXC5U5RGYMGB6DGJFDRWSGZC","A1KZ97QBNRPVCT","32TMVRKDGNK89K6LLIZX5RPIVK148D","","19.300000190734863","img/land6.png","75","20.5","2","1","3","1","1,0.5,0.5,0.5,1,0.5,0.5,0.5,1","1,0.5,0.5,0.5,1,0.5,0.5,0.5,1","","",""
"","html-keyboard-response","340","100861","0.0-340.0","3NS0A6KXC5U5RGYMGB6DGJFDRWSGZC","A1KZ97QBNRPVCT","32TMVRKDGNK89K6LLIZX5RPIVK148D","","null","<img src=""img/land6.png"" style=""width:200px; border:14px solid green;"">","null","","","","","","","","","",""
"","image-keyboard-response","341","100864","0.0-341.0","3NS0A6KXC5U5RGYMGB6DGJFDRWSGZC","A1KZ97QBNRPVCT","32TMVRKDGNK89K6LLIZX5RPIVK148D","","1.9000005722045898","img/land6.png","74","2.8999996185302734","1","0","3","1","1,0.5,0.5,0.5,1,0.5,0.5,0.5,1","1,0.5,0.5,0.5,1,0.5,0.5,0.5,1","","",""
"","html-keyboard-response","342","101174","0.0-342.0","3NS0A6KXC5U5RGYMGB6DGJFDRWSGZC","A1KZ97QBNRPVCT","32TMVRKDGNK89K6LLIZX5RPIVK148D","","null","<img src=""img/land6.png"" style=""width:200px;border:14px solid red;"">","null","","","","","","","","","",""
"","image-keyboard-response","343","101384","0.0-343.0","3NS0A6KXC5U5RGYMGB6DGJFDRWSGZC","A1KZ97QBNRPVCT","32TMVRKDGNK89K6LLIZX5RPIVK148D","","208.89999961853027","img/land6.png","74","209.89999961853027","1","1","3","1","1,0.5,0.5,0.5,1,0.5,0.5,0.5,1","1,0.5,0.5,0.5,1,0.5,0.5,0.5,1","","",""
"","html-keyboard-response","344","101686","0.0-344.0","3NS0A6KXC5U5RGYMGB6DGJFDRWSGZC","A1KZ97QBNRPVCT","32TMVRKDGNK89K6LLIZX5RPIVK148D","","null","<img src=""img/land6.png"" style=""width:200px; border:14px solid green;"">","null","","","","","","","","","",""
"","image-keyboard-response","345","101904","0.0-345.0","3NS0A6KXC5U5RGYMGB6DGJFDRWSGZC","A1KZ97QBNRPVCT","32TMVRKDGNK89K6LLIZX5RPIVK148D","","217.39999961853027","img/land6.png","74","218.5","1","0","3","1","1,0.5,0.5,0.5,1,0.5,0.5,0.5,1","1,0.5,0.5,0.5,1,0.5,0.5,0.5,1","","",""
"","html-keyboard-response","346","102213","0.0-346.0","3NS0A6KXC5U5RGYMGB6DGJFDRWSGZC","A1KZ97QBNRPVCT","32TMVRKDGNK89K6LLIZX5RPIVK148D","","null","<img src=""img/land6.png"" style=""width:200px;border:14px solid red;"">","null","","","","","","","","","",""
"","image-keyboard-response","347","102254","0.0-347.0","3NS0A6KXC5U5RGYMGB6DGJFDRWSGZC","A1KZ97QBNRPVCT","32TMVRKDGNK89K6LLIZX5RPIVK148D","","39.60000038146973","img/land6.png","76","40.60000038146973","3","1","3","1","1,0.5,0.5,0.5,1,0.5,0.5,0.5,1","1,0.5,0.5,0.5,1,0.5,0.5,0.5,1","","",""
"","html-keyboard-response","348","102557","0.0-348.0","3NS0A6KXC5U5RGYMGB6DGJFDRWSGZC","A1KZ97QBNRPVCT","32TMVRKDGNK89K6LLIZX5RPIVK148D","","null","<img src=""img/land6.png"" style=""width:200px; border:14px solid green;"">","null","","","","","","","","","",""
"","image-keyboard-response","349","102944","0.0-349.0","3NS0A6KXC5U5RGYMGB6DGJFDRWSGZC","A1KZ97QBNRPVCT","32TMVRKDGNK89K6LLIZX5RPIVK148D","","385.70000076293945","img/land6.png","75","386.79999923706055","2","0","3","1","1,0.5,0.5,0.5,1,0.5,0.5,0.5,1","1,0.5,0.5,0.5,1,0.5,0.5,0.5,1","","",""
"","html-keyboard-response","350","103254","0.0-350.0","3NS0A6KXC5U5RGYMGB6DGJFDRWSGZC","A1KZ97QBNRPVCT","32TMVRKDGNK89K6LLIZX5RPIVK148D","","null","<img src=""img/land6.png"" style=""width:200px;border:14px solid red;"">","null","","","","","","","","","",""
"","image-keyboard-response","351","103504","0.0-351.0","3NS0A6KXC5U5RGYMGB6DGJFDRWSGZC","A1KZ97QBNRPVCT","32TMVRKDGNK89K6LLIZX5RPIVK148D","","248.80000019073486","img/land6.png","75","249.79999923706055","2","1","3","1","1,0.5,0.5,0.5,1,0.5,0.5,0.5,1","1,0.5,0.5,0.5,1,0.5,0.5,0.5,1","","",""
"","html-keyboard-response","352","103813","0.0-352.0","3NS0A6KXC5U5RGYMGB6DGJFDRWSGZC","A1KZ97QBNRPVCT","32TMVRKDGNK89K6LLIZX5RPIVK148D","","null","<img src=""img/land6.png"" style=""width:200px; border:14px solid green;"">","null","","","","","","","","","",""
"","image-keyboard-response","353","104044","0.0-353.0","3NS0A6KXC5U5RGYMGB6DGJFDRWSGZC","A1KZ97QBNRPVCT","32TMVRKDGNK89K6LLIZX5RPIVK148D","","229.80000019073486","img/land4.png","74","230.89999961853027","1","1","1","1","1,0.5,0.5,0.5,1,0.5,0.5,0.5,1","1,0.5,0.5,0.5,1,0.5,0.5,0.5,1","","",""
"","html-keyboard-response","354","104349","0.0-354.0","3NS0A6KXC5U5RGYMGB6DGJFDRWSGZC","A1KZ97QBNRPVCT","32TMVRKDGNK89K6LLIZX5RPIVK148D","","null","<img src=""img/land4.png"" style=""width:200px; border:14px solid green;"">","null","","","","","","","","","",""
"","image-keyboard-response","355","104454","0.0-355.0","3NS0A6KXC5U5RGYMGB6DGJFDRWSGZC","A1KZ97QBNRPVCT","32TMVRKDGNK89K6LLIZX5RPIVK148D","","103.60000038146973","img/land6.png","76","104.59999942779541","3","1","3","1","1,0.5,0.5,0.5,1,0.5,0.5,0.5,1","1,0.5,0.5,0.5,1,0.5,0.5,0.5,1","","",""
"","html-keyboard-response","356","104758","0.0-356.0","3NS0A6KXC5U5RGYMGB6DGJFDRWSGZC","A1KZ97QBNRPVCT","32TMVRKDGNK89K6LLIZX5RPIVK148D","","null","<img src=""img/land6.png"" style=""width:200px; border:14px solid green;"">","null","","","","","","","","","",""
"","image-keyboard-response","357","104834","0.0-357.0","3NS0A6KXC5U5RGYMGB6DGJFDRWSGZC","A1KZ97QBNRPVCT","32TMVRKDGNK89K6LLIZX5RPIVK148D","","74.60000038146973","img/land5.png","76","75.69999980926514","3","0","2","1","1,0.5,0.5,0.5,1,0.5,0.5,0.5,1","1,0.5,0.5,0.5,1,0.5,0.5,0.5,1","","",""
"","html-keyboard-response","358","105142","0.0-358.0","3NS0A6KXC5U5RGYMGB6DGJFDRWSGZC","A1KZ97QBNRPVCT","32TMVRKDGNK89K6LLIZX5RPIVK148D","","null","<img src=""img/land5.png"" style=""width:200px;border:14px solid red;"">","null","","","","","","","","","",""
"","image-keyboard-response","359","106554","0.0-359.0","3NS0A6KXC5U5RGYMGB6DGJFDRWSGZC","A1KZ97QBNRPVCT","32TMVRKDGNK89K6LLIZX5RPIVK148D","","1410.2999992370605","img/land6.png","74","1411.5","1","0","3","1","1,0.5,0.5,0.5,1,0.5,0.5,0.5,1","1,0.5,0.5,0.5,1,0.5,0.5,0.5,1","","",""
"","html-keyboard-response","360","106861","0.0-360.0","3NS0A6KXC5U5RGYMGB6DGJFDRWSGZC","A1KZ97QBNRPVCT","32TMVRKDGNK89K6LLIZX5RPIVK148D","","null","<img src=""img/land6.png"" style=""width:200px;border:14px solid red;"">","null","","","","","","","","","",""
"","image-keyboard-response","361","108365","0.0-361.0","3NS0A6KXC5U5RGYMGB6DGJFDRWSGZC","A1KZ97QBNRPVCT","32TMVRKDGNK89K6LLIZX5RPIVK148D","","","img/land6.png","","1503.8000001907349","-1","0","3","1","1,0.5,0.5,0.5,1,0.5,0.5,0.5,1","1,0.5,0.5,0.5,1,0.5,0.5,0.5,1","","",""
"","html-keyboard-response","362","108669","0.0-362.0","3NS0A6KXC5U5RGYMGB6DGJFDRWSGZC","A1KZ97QBNRPVCT","32TMVRKDGNK89K6LLIZX5RPIVK148D","","null","<img src=""img/land6.png"" style=""width:200px;border:14px solid red;"">","null","","","","","","","","","",""
"","image-keyboard-response","363","109034","0.0-363.0","3NS0A6KXC5U5RGYMGB6DGJFDRWSGZC","A1KZ97QBNRPVCT","32TMVRKDGNK89K6LLIZX5RPIVK148D","","363.5","img/land5.png","74","364.5999994277954","1","0","2","1","1,0.5,0.5,0.5,1,0.5,0.5,0.5,1","1,0.5,0.5,0.5,1,0.5,0.5,0.5,1","","",""
"","html-keyboard-response","364","109342","0.0-364.0","3NS0A6KXC5U5RGYMGB6DGJFDRWSGZC","A1KZ97QBNRPVCT","32TMVRKDGNK89K6LLIZX5RPIVK148D","","null","<img src=""img/land5.png"" style=""width:200px;border:14px solid red;"">","null","","","","","","","","","",""
